SpectraSuite Data File
++++++++++++++++++++++++++++++++++++
Date: Mon Jun 06 13:00:57 CEST 2016
User: root
Dark Spectrum Present: No
Reference Spectrum Present: No
Number of Sampled Component Spectra: 1
Spectrometers: USB4C02835
Integration Time (usec): 100000 (USB4C02835)
Spectra Averaged: 1 (USB4C02835)
Boxcar Smoothing: 0 (USB4C02835)
Correct for Electrical Dark: No (USB4C02835)
Strobe/Lamp Enabled: No (USB4C02835)
Correct for Detector Non-linearity: No (USB4C02835)
Correct for Stray Light: No (USB4C02835)
Number of Pixels in Processed Spectrum: 3648
>>>>>Begin Processed Spectral Data<<<<<
177.47	1439.72
177.69	1439.72
177.91	1439.72
178.13	1497.07
178.36	1435.63
178.58	1673.19
178.80	1701.86
179.02	1613.80
179.24	1595.37
179.46	1675.24
179.68	1769.44
179.90	1656.81
180.13	1654.76
180.35	1652.71
180.57	1693.67
180.79	1699.81
181.01	1701.86
181.23	1771.49
181.45	1796.07
181.67	1691.62
181.90	1740.77
182.12	1591.27
182.34	1642.47
182.56	1689.57
182.78	1705.96
183.00	1662.95
183.22	1785.83
183.44	1662.95
183.66	1875.94
183.89	1783.78
184.11	1648.61
184.33	1755.11
184.55	1779.68
184.77	1724.39
184.99	1710.05
185.21	1660.90
185.43	1798.12
185.65	1671.14
185.87	1701.86
186.10	1828.84
186.32	1845.22
186.54	1732.58
186.76	1720.29
186.98	1748.97
187.20	1656.81
187.42	1691.62
187.64	1673.19
187.86	1693.67
188.08	1755.11
188.30	1730.53
188.52	1673.19
188.75	1683.43
188.97	1744.87
189.19	1665.00
189.41	1578.98
189.63	1787.88
189.85	1757.16
190.07	1535.98
190.29	1619.94
190.51	1720.29
190.73	1652.71
190.95	1701.86
191.17	1683.43
191.39	1611.75
191.61	1609.70
191.84	1691.62
192.06	1705.96
192.28	1607.66
192.50	1832.93
192.72	1755.11
192.94	1648.61
193.16	1796.07
193.38	1785.83
193.60	1654.76
193.82	1771.49
194.04	1742.82
194.26	1697.77
194.48	1665.00
194.70	1720.29
194.92	1646.57
195.14	1699.81
195.36	1660.90
195.58	1740.77
195.80	1646.57
196.02	1593.32
196.24	1689.57
196.46	1724.39
196.69	1722.34
196.91	1794.02
197.13	1636.33
197.35	1632.23
197.57	1837.03
197.79	1765.35
198.01	1677.29
198.23	1796.07
198.45	1726.44
198.67	1540.07
198.89	1722.34
199.11	1677.29
199.33	1681.38
199.55	1560.55
199.77	1697.77
199.99	1761.25
200.21	1716.20
200.43	1720.29
200.65	1609.70
200.87	1566.70
201.09	1671.14
201.31	1710.05
201.53	1624.04
201.75	1732.58
201.97	1789.92
202.19	1710.05
202.41	1748.97
202.63	1822.69
202.85	1705.96
203.07	1718.25
203.29	1681.38
203.51	1593.32
203.73	1626.09
203.95	1853.41
204.17	1710.05
204.39	1671.14
204.61	1730.53
204.83	1679.33
205.05	1757.16
205.27	1728.49
205.49	1814.50
205.71	1740.77
205.93	1615.85
206.15	1697.77
206.37	1687.53
206.59	1638.38
206.81	1660.90
207.03	1660.90
207.25	1665.00
207.47	1751.01
207.69	1652.71
207.91	1755.11
208.13	1744.87
208.34	1650.66
208.56	1697.77
208.78	1722.34
209.00	1673.19
209.22	1607.66
209.44	1708.01
209.66	1624.04
209.88	1693.67
210.10	1662.95
210.32	1671.14
210.54	1818.60
210.76	1693.67
210.98	1787.88
211.20	1544.17
211.42	1701.86
211.64	1814.50
211.86	1748.97
212.08	1716.20
212.30	1728.49
212.52	1753.06
212.74	1732.58
212.96	1722.34
213.17	1746.92
213.39	1742.82
213.61	1722.34
213.83	1751.01
214.05	1656.81
214.27	1701.86
214.49	1705.96
214.71	1740.77
214.93	1828.84
215.15	1710.05
215.37	1732.58
215.59	1587.18
215.81	1708.01
216.03	1773.54
216.24	1710.05
216.46	1695.72
216.68	1755.11
216.90	1726.44
217.12	1777.64
217.34	1650.66
217.56	1693.67
217.78	1775.59
218.00	1671.14
218.22	1728.49
218.44	1652.71
218.66	1791.97
218.87	1722.34
219.09	1646.57
219.31	1751.01
219.53	1710.05
219.75	1665.00
219.97	1654.76
220.19	1769.44
220.41	1677.29
220.63	1736.68
220.85	1699.81
221.06	1632.23
221.28	1777.64
221.50	1742.82
221.72	1767.40
221.94	1683.43
222.16	1730.53
222.38	1728.49
222.60	1728.49
222.82	1726.44
223.03	1685.48
223.25	1654.76
223.47	1759.21
223.69	1787.88
223.91	1705.96
224.13	1615.85
224.35	1736.68
224.57	1755.11
224.78	1744.87
225.00	1660.90
225.22	1681.38
225.44	1665.00
225.66	1722.34
225.88	1705.96
226.10	1798.12
226.32	1755.11
226.53	1802.21
226.75	1679.33
226.97	1716.20
227.19	1705.96
227.41	1617.90
227.63	1669.09
227.85	1638.38
228.06	1677.29
228.28	1708.01
228.50	1724.39
228.72	1681.38
228.94	1677.29
229.16	1634.28
229.37	1576.94
229.59	1730.53
229.81	1771.49
230.03	1673.19
230.25	1638.38
230.47	1644.52
230.69	1585.13
230.90	1800.16
231.12	1632.23
231.34	1638.38
231.56	1744.87
231.78	1691.62
232.00	1630.18
232.21	1621.99
232.43	1734.63
232.65	1591.27
232.87	1736.68
233.09	1660.90
233.30	1693.67
233.52	1697.77
233.74	1667.05
233.96	1705.96
234.18	1714.15
234.40	1687.53
234.61	1814.50
234.83	1628.14
235.05	1685.48
235.27	1843.17
235.49	1798.12
235.70	1720.29
235.92	1777.64
236.14	1689.57
236.36	1798.12
236.58	1644.52
236.79	1644.52
237.01	1673.19
237.23	1671.14
237.45	1841.12
237.67	1667.05
237.88	1677.29
238.10	1796.07
238.32	1662.95
238.54	1714.15
238.76	1691.62
238.97	1710.05
239.19	1726.44
239.41	1755.11
239.63	1720.29
239.85	1652.71
240.06	1689.57
240.28	1708.01
240.50	1746.92
240.72	1740.77
240.93	1759.21
241.15	1802.21
241.37	1683.43
241.59	1824.74
241.81	1701.86
242.02	1693.67
242.24	1722.34
242.46	1722.34
242.68	1613.80
242.89	1681.38
243.11	1746.92
243.33	1656.81
243.55	1767.40
243.76	1787.88
243.98	1695.72
244.20	1697.77
244.42	1705.96
244.64	1656.81
244.85	1644.52
245.07	1583.08
245.29	1726.44
245.51	1671.14
245.72	1810.40
245.94	1740.77
246.16	1685.48
246.38	1765.35
246.59	1662.95
246.81	1730.53
247.03	1687.53
247.24	1624.04
247.46	1669.09
247.68	1736.68
247.90	1660.90
248.11	1683.43
248.33	1730.53
248.55	1703.91
248.77	1669.09
248.98	1769.44
249.20	1808.36
249.42	1759.21
249.64	1746.92
249.85	1679.33
250.07	1630.18
250.29	1730.53
250.50	1753.06
250.72	1615.85
250.94	1714.15
251.16	1855.46
251.37	1857.51
251.59	1740.77
251.81	1732.58
252.02	1681.38
252.24	1650.66
252.46	1837.03
252.68	1621.99
252.89	1726.44
253.11	1597.42
253.33	1773.54
253.54	1777.64
253.76	1634.28
253.98	1701.86
254.20	1671.14
254.41	1669.09
254.63	1769.44
254.85	1630.18
255.06	1757.16
255.28	1738.73
255.50	1710.05
255.71	1673.19
255.93	1648.61
256.15	1765.35
256.36	1757.16
256.58	1658.85
256.80	1755.11
257.02	1726.44
257.23	1675.24
257.45	1757.16
257.67	1796.07
257.88	1630.18
258.10	1693.67
258.32	1673.19
258.53	1728.49
258.75	1771.49
258.97	1642.47
259.18	1683.43
259.40	1662.95
259.62	1791.97
259.83	1738.73
260.05	1746.92
260.27	1990.63
260.48	1726.44
260.70	1599.46
260.92	1798.12
261.13	1728.49
261.35	1728.49
261.57	1718.25
261.78	1566.70
262.00	1673.19
262.22	1771.49
262.43	1671.14
262.65	1705.96
262.86	1603.56
263.08	1804.26
263.30	1710.05
263.51	1531.88
263.73	1667.05
263.95	1863.65
264.16	1636.33
264.38	1662.95
264.60	1738.73
264.81	1720.29
265.03	1810.40
265.25	1779.68
265.46	1650.66
265.68	1791.97
265.89	1757.16
266.11	1587.18
266.33	1724.39
266.54	1740.77
266.76	1738.73
266.98	1714.15
267.19	1730.53
267.41	1769.44
267.62	1634.28
267.84	1548.26
268.06	1697.77
268.27	1757.16
268.49	1755.11
268.70	1798.12
268.92	1685.48
269.14	1640.42
269.35	1560.55
269.57	1738.73
269.79	1712.10
270.00	1699.81
270.22	1765.35
270.43	1665.00
270.65	1583.08
270.87	1730.53
271.08	1748.97
271.30	1683.43
271.51	1728.49
271.73	1755.11
271.95	1796.07
272.16	1703.91
272.38	1757.16
272.59	1671.14
272.81	1681.38
273.02	1689.57
273.24	1708.01
273.46	1718.25
273.67	1665.00
273.89	1632.23
274.10	1681.38
274.32	1712.10
274.54	1687.53
274.75	1656.81
274.97	1644.52
275.18	1693.67
275.40	1724.39
275.61	1767.40
275.83	1781.73
276.05	1611.75
276.26	1751.01
276.48	1679.33
276.69	1660.90
276.91	1726.44
277.12	1773.54
277.34	1812.45
277.55	1710.05
277.77	1665.00
277.99	1740.77
278.20	1636.33
278.42	1652.71
278.63	1662.95
278.85	1710.05
279.06	1671.14
279.28	1658.85
279.49	1738.73
279.71	1787.88
279.93	1751.01
280.14	1667.05
280.36	1720.29
280.57	1804.26
280.79	1775.59
281.00	1607.66
281.22	1593.32
281.43	1736.68
281.65	1630.18
281.86	1601.51
282.08	1755.11
282.29	1822.69
282.51	1648.61
282.73	1636.33
282.94	1599.46
283.16	1736.68
283.37	1816.55
283.59	1689.57
283.80	1748.97
284.02	1738.73
284.23	1748.97
284.45	1695.72
284.66	1665.00
284.88	1681.38
285.09	1775.59
285.31	1748.97
285.52	1679.33
285.74	1681.38
285.95	1777.64
286.17	1660.90
286.38	1771.49
286.60	1673.19
286.81	1644.52
287.03	1691.62
287.24	1734.63
287.46	1742.82
287.67	1697.77
287.89	1779.68
288.10	1687.53
288.32	1724.39
288.53	1781.73
288.75	1656.81
288.96	1751.01
289.18	1671.14
289.39	1693.67
289.61	1728.49
289.82	1826.79
290.04	1779.68
290.25	1673.19
290.47	1697.77
290.68	1615.85
290.90	1730.53
291.11	1613.80
291.33	1701.86
291.54	1574.89
291.76	1615.85
291.97	1681.38
292.18	1710.05
292.40	1601.51
292.61	1681.38
292.83	1859.56
293.04	1703.91
293.26	1724.39
293.47	1681.38
293.69	1697.77
293.90	1757.16
294.12	1806.31
294.33	1703.91
294.55	1753.06
294.76	1798.12
294.97	1736.68
295.19	1820.64
295.40	1648.61
295.62	1726.44
295.83	1734.63
296.05	1642.47
296.26	1679.33
296.48	1640.42
296.69	1755.11
296.90	1693.67
297.12	1669.09
297.33	1759.21
297.55	1765.35
297.76	1771.49
297.98	1791.97
298.19	1673.19
298.41	1671.14
298.62	1658.85
298.83	1724.39
299.05	1689.57
299.26	1650.66
299.48	1724.39
299.69	1738.73
299.90	1759.21
300.12	1648.61
300.33	1718.25
300.55	1716.20
300.76	1708.01
300.98	1673.19
301.19	1726.44
301.40	1720.29
301.62	1703.91
301.83	1675.24
302.05	1619.94
302.26	1679.33
302.47	1724.39
302.69	1695.72
302.90	1724.39
303.12	1533.93
303.33	1689.57
303.54	1849.32
303.76	1736.68
303.97	1665.00
304.19	1777.64
304.40	1640.42
304.61	1718.25
304.83	1830.88
305.04	1732.58
305.26	1773.54
305.47	1648.61
305.68	1611.75
305.90	1638.38
306.11	1705.96
306.33	1679.33
306.54	1642.47
306.75	1640.42
306.97	1583.08
307.18	1607.66
307.39	1751.01
307.61	1751.01
307.82	1687.53
308.04	1763.30
308.25	1652.71
308.46	1667.05
308.68	1634.28
308.89	1734.63
309.10	1773.54
309.32	1697.77
309.53	1667.05
309.74	1759.21
309.96	1675.24
310.17	1781.73
310.39	1730.53
310.60	1712.10
310.81	1718.25
311.03	1628.14
311.24	1775.59
311.45	1652.71
311.67	1800.16
311.88	1705.96
312.09	1746.92
312.31	1630.18
312.52	1740.77
312.73	1669.09
312.95	1599.46
313.16	1556.46
313.37	1759.21
313.59	1732.58
313.80	1751.01
314.01	1798.12
314.23	1767.40
314.44	1624.04
314.65	1644.52
314.87	1708.01
315.08	1718.25
315.29	1669.09
315.51	1683.43
315.72	1566.70
315.93	1826.79
316.15	1763.30
316.36	1642.47
316.57	1708.01
316.79	1714.15
317.00	1697.77
317.21	1755.11
317.43	1730.53
317.64	1763.30
317.85	1658.85
318.07	1636.33
318.28	1796.07
318.49	1806.31
318.70	1886.18
318.92	1796.07
319.13	1775.59
319.34	1777.64
319.56	1777.64
319.77	1724.39
319.98	1744.87
320.20	1691.62
320.41	1753.06
320.62	1701.86
320.83	1624.04
321.05	1867.75
321.26	1675.24
321.47	1660.90
321.69	1759.21
321.90	1683.43
322.11	1636.33
322.32	1705.96
322.54	1808.36
322.75	1665.00
322.96	1820.64
323.18	1533.93
323.39	1628.14
323.60	1652.71
323.81	1775.59
324.03	1611.75
324.24	1703.91
324.45	1687.53
324.66	1687.53
324.88	1818.60
325.09	1724.39
325.30	1746.92
325.52	1730.53
325.73	1742.82
325.94	1615.85
326.15	1583.08
326.37	1634.28
326.58	1667.05
326.79	1767.40
327.00	1652.71
327.22	1695.72
327.43	1693.67
327.64	1642.47
327.85	1783.78
328.07	1658.85
328.28	1804.26
328.49	1691.62
328.70	1722.34
328.92	1742.82
329.13	1705.96
329.34	1726.44
329.55	1822.69
329.76	1757.16
329.98	1746.92
330.19	1808.36
330.40	1703.91
330.61	1718.25
330.83	1701.86
331.04	1759.21
331.25	1667.05
331.46	1630.18
331.68	1593.32
331.89	1714.15
332.10	1656.81
332.31	1691.62
332.52	1669.09
332.74	1789.92
332.95	1656.81
333.16	1642.47
333.37	1738.73
333.58	1642.47
333.80	1759.21
334.01	1605.61
334.22	1718.25
334.43	1642.47
334.64	1712.10
334.86	1615.85
335.07	1607.66
335.28	1763.30
335.49	1603.56
335.70	1728.49
335.92	1738.73
336.13	1794.02
336.34	1714.15
336.55	1738.73
336.76	1712.10
336.98	1597.42
337.19	1744.87
337.40	1789.92
337.61	1865.70
337.82	1656.81
338.04	1828.84
338.25	1636.33
338.46	1712.10
338.67	1624.04
338.88	1697.77
339.09	1615.85
339.31	1683.43
339.52	1726.44
339.73	1662.95
339.94	1755.11
340.15	1738.73
340.36	1687.53
340.58	1691.62
340.79	1724.39
341.00	1726.44
341.21	1648.61
341.42	1755.11
341.63	1679.33
341.85	1710.05
342.06	1738.73
342.27	1669.09
342.48	1806.31
342.69	1603.56
342.90	1693.67
343.12	1716.20
343.33	1757.16
343.54	1759.21
343.75	1767.40
343.96	1689.57
344.17	1619.94
344.38	1648.61
344.60	1673.19
344.81	1638.38
345.02	1759.21
345.23	1837.03
345.44	1902.56
345.65	1728.49
345.86	1640.42
346.07	1753.06
346.29	1662.95
346.50	1720.29
346.71	1683.43
346.92	1740.77
347.13	1820.64
347.34	1693.67
347.55	1673.19
347.76	1671.14
347.98	1583.08
348.19	1777.64
348.40	1794.02
348.61	1699.81
348.82	1810.40
349.03	1699.81
349.24	1609.70
349.45	1777.64
349.66	1632.23
349.88	1634.28
350.09	1626.09
350.30	1830.88
350.51	1734.63
350.72	1630.18
350.93	1665.00
351.14	1634.28
351.35	1742.82
351.56	1632.23
351.77	1642.47
351.99	1703.91
352.20	1820.64
352.41	1728.49
352.62	1658.85
352.83	1726.44
353.04	1619.94
353.25	1687.53
353.46	1714.15
353.67	1744.87
353.88	1640.42
354.09	1687.53
354.30	1740.77
354.52	1771.49
354.73	1697.77
354.94	1617.90
355.15	1763.30
355.36	1820.64
355.57	1683.43
355.78	1703.91
355.99	1654.76
356.20	1646.57
356.41	1773.54
356.62	1675.24
356.83	1701.86
357.04	1822.69
357.25	1632.23
357.46	1638.38
357.68	1634.28
357.89	1607.66
358.10	1724.39
358.31	1695.72
358.52	1615.85
358.73	1669.09
358.94	1609.70
359.15	1679.33
359.36	1738.73
359.57	1763.30
359.78	1656.81
359.99	1718.25
360.20	1697.77
360.41	1654.76
360.62	1802.21
360.83	1701.86
361.04	1673.19
361.25	1769.44
361.46	1794.02
361.67	1724.39
361.88	1710.05
362.09	1710.05
362.30	1775.59
362.51	1621.99
362.72	1642.47
362.93	1755.11
363.14	1787.88
363.35	1744.87
363.56	1662.95
363.78	1753.06
363.99	1748.97
364.20	1607.66
364.41	1691.62
364.62	1779.68
364.83	1742.82
365.04	1687.53
365.25	1757.16
365.46	1804.26
365.67	1624.04
365.88	1640.42
366.09	1669.09
366.30	1683.43
366.51	1701.86
366.72	1644.52
366.93	1699.81
367.14	1765.35
367.35	1759.21
367.56	1783.78
367.77	1787.88
367.98	1705.96
368.18	1757.16
368.39	1744.87
368.60	1693.67
368.81	1693.67
369.02	1677.29
369.23	1800.16
369.44	1599.46
369.65	1726.44
369.86	1767.40
370.07	1775.59
370.28	1599.46
370.49	1683.43
370.70	1742.82
370.91	1648.61
371.12	1607.66
371.33	1767.40
371.54	1695.72
371.75	1843.17
371.96	1583.08
372.17	1632.23
372.38	1697.77
372.59	1720.29
372.80	1697.77
373.01	1718.25
373.22	1734.63
373.43	1753.06
373.64	1613.80
373.85	1789.92
374.06	1810.40
374.26	1751.01
374.47	1689.57
374.68	1695.72
374.89	1697.77
375.10	1679.33
375.31	1757.16
375.52	1718.25
375.73	1718.25
375.94	1689.57
376.15	1816.55
376.36	1597.42
376.57	1648.61
376.78	1710.05
376.99	1665.00
377.20	1781.73
377.40	1589.22
377.61	1888.23
377.82	1677.29
378.03	1814.50
378.24	1658.85
378.45	1667.05
378.66	1695.72
378.87	1648.61
379.08	1572.84
379.29	1656.81
379.50	1763.30
379.71	1681.38
379.91	1681.38
380.12	1746.92
380.33	1681.38
380.54	1695.72
380.75	1722.34
380.96	1753.06
381.17	1740.77
381.38	1751.01
381.59	1705.96
381.80	1685.48
382.00	1873.89
382.21	1763.30
382.42	1779.68
382.63	1847.27
382.84	1837.03
383.05	1822.69
383.26	1837.03
383.47	1718.25
383.68	1726.44
383.88	1802.21
384.09	1619.94
384.30	1767.40
384.51	1769.44
384.72	1624.04
384.93	1675.24
385.14	1703.91
385.35	1624.04
385.55	1611.75
385.76	1738.73
385.97	1669.09
386.18	1665.00
386.39	1646.57
386.60	1640.42
386.81	1677.29
387.02	1611.75
387.22	1640.42
387.43	1785.83
387.64	1763.30
387.85	1871.84
388.06	2195.42
388.27	4216.77
388.48	6913.94
388.68	8300.42
388.89	9877.35
389.10	10049.38
389.31	8779.64
389.52	7589.77
389.73	6803.35
389.93	6367.13
390.14	6012.84
390.35	5273.52
390.56	4640.70
390.77	3858.37
390.98	3137.49
391.18	2506.71
391.39	2123.74
391.60	1867.75
391.81	1794.02
392.02	1718.25
392.23	1796.07
392.43	1697.77
392.64	1753.06
392.85	1810.40
393.06	1841.12
393.27	1681.38
393.47	1708.01
393.68	1744.87
393.89	1617.90
394.10	1744.87
394.31	1673.19
394.52	1687.53
394.72	1683.43
394.93	1734.63
395.14	1644.52
395.35	1724.39
395.56	1646.57
395.76	1705.96
395.97	1843.17
396.18	1822.69
396.39	1861.60
396.60	2019.30
396.80	1949.67
397.01	1896.42
397.22	1816.55
397.43	1812.45
397.64	1751.01
397.84	1689.57
398.05	1839.08
398.26	1761.25
398.47	1781.73
398.67	1781.73
398.88	1712.10
399.09	1812.45
399.30	1703.91
399.51	1675.24
399.71	1695.72
399.92	1714.15
400.13	1662.95
400.34	1669.09
400.54	1781.73
400.75	1787.88
400.96	1738.73
401.17	1816.55
401.37	1732.58
401.58	1736.68
401.79	1771.49
402.00	1853.41
402.21	1959.91
402.41	1914.85
402.62	1990.63
402.83	2017.25
403.04	1976.29
403.24	2017.25
403.45	1855.46
403.66	1861.60
403.87	1931.23
404.07	1880.04
404.28	1857.51
404.49	1804.26
404.70	1771.49
404.90	1728.49
405.11	1724.39
405.32	1798.12
405.52	1665.00
405.73	1675.24
405.94	1675.24
406.15	1644.52
406.35	1746.92
406.56	1701.86
406.77	1716.20
406.98	1714.15
407.18	1615.85
407.39	1843.17
407.60	1730.53
407.80	1710.05
408.01	1615.85
408.22	1763.30
408.43	1644.52
408.63	1767.40
408.84	1720.29
409.05	1705.96
409.25	1687.53
409.46	1693.67
409.67	1701.86
409.88	1697.77
410.08	1740.77
410.29	1738.73
410.50	1761.25
410.70	1712.10
410.91	1662.95
411.12	1714.15
411.32	1701.86
411.53	1650.66
411.74	1800.16
411.95	1748.97
412.15	1761.25
412.36	1748.97
412.57	1759.21
412.77	1816.55
412.98	1695.72
413.19	1673.19
413.39	1767.40
413.60	1691.62
413.81	1857.51
414.01	1660.90
414.22	1681.38
414.43	1800.16
414.63	1681.38
414.84	1722.34
415.05	1789.92
415.25	1646.57
415.46	1802.21
415.67	1716.20
415.87	1746.92
416.08	1687.53
416.29	1689.57
416.49	1705.96
416.70	1681.38
416.91	1609.70
417.11	1671.14
417.32	1771.49
417.53	1761.25
417.73	1648.61
417.94	1732.58
418.15	1765.35
418.35	1673.19
418.56	1775.59
418.77	1828.84
418.97	1736.68
419.18	1675.24
419.38	1558.50
419.59	1705.96
419.80	1806.31
420.00	1714.15
420.21	1687.53
420.42	1744.87
420.62	1665.00
420.83	1632.23
421.04	1699.81
421.24	1648.61
421.45	1791.97
421.65	1736.68
421.86	1734.63
422.07	1687.53
422.27	1628.14
422.48	1753.06
422.69	1660.90
422.89	1683.43
423.10	1710.05
423.30	1636.33
423.51	1716.20
423.72	1822.69
423.92	1708.01
424.13	1708.01
424.33	1660.90
424.54	1820.64
424.75	1726.44
424.95	1783.78
425.16	1738.73
425.36	1658.85
425.57	1720.29
425.78	1755.11
425.98	1789.92
426.19	1681.38
426.39	1619.94
426.60	1669.09
426.81	1779.68
427.01	1742.82
427.22	1648.61
427.42	1581.03
427.63	1667.05
427.83	1722.34
428.04	1765.35
428.25	1736.68
428.45	1730.53
428.66	1843.17
428.86	1669.09
429.07	1689.57
429.28	1689.57
429.48	1671.14
429.69	1632.23
429.89	1787.88
430.10	1597.42
430.30	1744.87
430.51	1824.74
430.71	1708.01
430.92	1691.62
431.13	1656.81
431.33	1722.34
431.54	1751.01
431.74	1742.82
431.95	1865.70
432.15	1714.15
432.36	1738.73
432.56	1830.88
432.77	1820.64
432.98	1775.59
433.18	1724.39
433.39	1656.81
433.59	1689.57
433.80	1765.35
434.00	1826.79
434.21	1667.05
434.41	1705.96
434.62	1910.75
434.82	1667.05
435.03	1675.24
435.23	1775.59
435.44	1677.29
435.64	1652.71
435.85	1751.01
436.06	1837.03
436.26	1732.58
436.47	1624.04
436.67	1708.01
436.88	1738.73
437.08	1740.77
437.29	1732.58
437.49	1701.86
437.70	1775.59
437.90	1746.92
438.11	1828.84
438.31	1728.49
438.52	1853.41
438.72	1912.80
438.93	1923.04
439.13	1722.34
439.34	1804.26
439.54	1701.86
439.75	1861.60
439.95	1734.63
440.16	1679.33
440.36	1787.88
440.57	1822.69
440.77	1755.11
440.98	1761.25
441.18	1744.87
441.39	1646.57
441.59	1720.29
441.80	1890.28
442.00	1634.28
442.21	1824.74
442.41	1683.43
442.62	1705.96
442.82	1665.00
443.02	1746.92
443.23	1757.16
443.43	1691.62
443.64	1746.92
443.84	1669.09
444.05	1779.68
444.25	1714.15
444.46	1769.44
444.66	1708.01
444.87	1814.50
445.07	1675.24
445.28	1767.40
445.48	1742.82
445.69	1796.07
445.89	1863.65
446.09	1767.40
446.30	2043.87
446.50	2674.65
446.71	3733.45
446.91	4372.41
447.12	4888.50
447.32	4833.21
447.53	4362.17
447.73	3876.80
447.93	3579.85
448.14	3235.79
448.34	3196.88
448.55	2869.20
448.75	2826.20
448.96	2754.52
449.16	2443.23
449.36	2265.05
449.57	2080.74
449.77	1945.57
449.98	1779.68
450.18	1742.82
450.39	1773.54
450.59	1718.25
450.79	1701.86
451.00	1697.77
451.20	1746.92
451.41	1744.87
451.61	1710.05
451.81	1767.40
452.02	1724.39
452.22	1654.76
452.43	1769.44
452.63	1681.38
452.84	1714.15
453.04	1685.48
453.24	1675.24
453.45	1662.95
453.65	1705.96
453.86	1781.73
454.06	1699.81
454.26	1705.96
454.47	1710.05
454.67	1781.73
454.87	1746.92
455.08	1767.40
455.28	1781.73
455.49	1761.25
455.69	1753.06
455.89	1837.03
456.10	1818.60
456.30	1656.81
456.51	1722.34
456.71	1748.97
456.91	1816.55
457.12	1728.49
457.32	1751.01
457.52	1642.47
457.73	1699.81
457.93	1740.77
458.14	1728.49
458.34	1609.70
458.54	1730.53
458.75	1697.77
458.95	1763.30
459.15	1742.82
459.36	1771.49
459.56	1759.21
459.76	1791.97
459.97	1730.53
460.17	1716.20
460.37	1824.74
460.58	1746.92
460.78	1730.53
460.99	1658.85
461.19	1726.44
461.39	1753.06
461.60	1642.47
461.80	1830.88
462.00	1656.81
462.21	1691.62
462.41	1685.48
462.61	1634.28
462.82	1712.10
463.02	1654.76
463.22	1757.16
463.43	1804.26
463.63	1785.83
463.83	1779.68
464.04	1744.87
464.24	1724.39
464.44	1646.57
464.64	1757.16
464.85	1787.88
465.05	1775.59
465.25	1740.77
465.46	1699.81
465.66	1855.46
465.86	1812.45
466.07	1773.54
466.27	1681.38
466.47	1667.05
466.68	1701.86
466.88	1839.08
467.08	1783.78
467.29	1740.77
467.49	1779.68
467.69	1728.49
467.89	1726.44
468.10	1611.75
468.30	1820.64
468.50	1869.80
468.71	1730.53
468.91	1632.23
469.11	1910.75
469.31	1699.81
469.52	1646.57
469.72	1767.40
469.92	1845.22
470.13	1691.62
470.33	1699.81
470.53	1773.54
470.73	2021.35
470.94	2381.79
471.14	2410.46
471.34	2523.10
471.54	2441.18
471.75	2269.15
471.95	2047.97
472.15	2095.07
472.36	2060.26
472.56	2105.31
472.76	2043.87
472.96	2060.26
473.17	1943.52
473.37	1923.04
473.57	1761.25
473.77	1763.30
473.98	1781.73
474.18	1681.38
474.38	1880.04
474.58	1720.29
474.79	1634.28
474.99	1785.83
475.19	1781.73
475.39	1636.33
475.60	1746.92
475.80	1751.01
476.00	1677.29
476.20	1748.97
476.41	1753.06
476.61	1724.39
476.81	1738.73
477.01	1576.94
477.21	1800.16
477.42	1791.97
477.62	1673.19
477.82	1810.40
478.02	1695.72
478.23	1726.44
478.43	1728.49
478.63	1683.43
478.83	1804.26
479.03	1738.73
479.24	1710.05
479.44	1853.41
479.64	1697.77
479.84	1595.37
480.04	1632.23
480.25	1761.25
480.45	1675.24
480.65	1683.43
480.85	1775.59
481.06	1714.15
481.26	1695.72
481.46	1703.91
481.66	1714.15
481.86	1660.90
482.06	1710.05
482.27	1630.18
482.47	1685.48
482.67	1701.86
482.87	1689.57
483.07	1800.16
483.28	1724.39
483.48	1568.74
483.68	1746.92
483.88	1665.00
484.08	1550.31
484.29	1673.19
484.49	1695.72
484.69	1648.61
484.89	1783.78
485.09	1763.30
485.29	1773.54
485.50	1710.05
485.70	1646.57
485.90	1781.73
486.10	1818.60
486.30	1810.40
486.50	1765.35
486.71	1787.88
486.91	1746.92
487.11	1820.64
487.31	1691.62
487.51	1767.40
487.71	1681.38
487.91	1697.77
488.12	1566.70
488.32	1548.26
488.52	1685.48
488.72	1624.04
488.92	1722.34
489.12	1779.68
489.32	1755.11
489.53	1849.32
489.73	1617.90
489.93	1857.51
490.13	1714.15
490.33	1601.51
490.53	1779.68
490.73	1738.73
490.94	1730.53
491.14	1837.03
491.34	1845.22
491.54	2086.88
491.74	2553.82
491.94	2942.93
492.14	3000.27
492.34	3049.43
492.54	2748.37
492.75	2475.99
492.95	2377.69
493.15	2349.02
493.35	2224.09
493.55	2199.52
493.75	2090.98
493.95	2215.90
494.15	1972.19
494.35	1920.99
494.56	1890.28
494.76	1771.49
494.96	1779.68
495.16	1869.80
495.36	1763.30
495.56	1697.77
495.76	1673.19
495.96	1798.12
496.16	1689.57
496.36	1798.12
496.56	1703.91
496.77	1736.68
496.97	1656.81
497.17	1845.22
497.37	1630.18
497.57	1808.36
497.77	1701.86
497.97	1730.53
498.17	1714.15
498.37	1673.19
498.57	1726.44
498.77	1759.21
498.97	1726.44
499.17	1798.12
499.38	1802.21
499.58	1685.48
499.78	1759.21
499.98	1740.77
500.18	1718.25
500.38	1734.63
500.58	1855.46
500.78	2605.02
500.98	4470.72
501.18	5885.86
501.38	6709.15
501.58	7190.42
501.78	6600.60
501.98	5609.39
502.18	5078.96
502.38	4517.82
502.58	4181.95
502.78	3776.45
502.98	3749.83
503.18	3467.21
503.38	3166.16
503.59	2858.96
503.79	2650.07
503.99	2500.57
504.19	2297.82
504.39	2205.66
504.59	2164.70
504.79	2062.30
504.99	2047.97
505.19	1875.94
505.39	1877.99
505.59	1990.63
505.79	1945.57
505.99	1910.75
506.19	1832.93
506.39	1896.42
506.59	1691.62
506.79	1757.16
506.99	1773.54
507.19	1738.73
507.39	1753.06
507.59	1599.46
507.79	1687.53
507.99	1757.16
508.19	1724.39
508.39	1767.40
508.59	1685.48
508.79	1775.59
508.99	1861.60
509.19	1683.43
509.39	1722.34
509.59	1660.90
509.79	1708.01
509.99	1710.05
510.19	1820.64
510.39	1906.66
510.59	1734.63
510.79	1775.59
510.99	1701.86
511.19	1783.78
511.39	1851.36
511.59	1822.69
511.79	1761.25
511.99	1685.48
512.19	1787.88
512.38	1742.82
512.58	1671.14
512.78	1804.26
512.98	1785.83
513.18	1812.45
513.38	1675.24
513.58	1812.45
513.78	1714.15
513.98	1738.73
514.18	1685.48
514.38	1710.05
514.58	1773.54
514.78	1705.96
514.98	1656.81
515.18	1679.33
515.38	1691.62
515.58	1810.40
515.78	1728.49
515.98	1755.11
516.18	1714.15
516.38	1746.92
516.57	1732.58
516.77	1714.15
516.97	1779.68
517.17	1791.97
517.37	1632.23
517.57	1834.98
517.77	1742.82
517.97	1695.72
518.17	1755.11
518.37	1693.67
518.57	1687.53
518.77	1738.73
518.97	1726.44
519.16	1765.35
519.36	1804.26
519.56	1751.01
519.76	1701.86
519.96	1691.62
520.16	1796.07
520.36	1642.47
520.56	1851.36
520.76	1726.44
520.96	1669.09
521.16	1789.92
521.35	1806.31
521.55	1732.58
521.75	1761.25
521.95	1722.34
522.15	1734.63
522.35	1677.29
522.55	1714.15
522.75	1808.36
522.95	1701.86
523.14	1689.57
523.34	1796.07
523.54	1636.33
523.74	1791.97
523.94	1783.78
524.14	1693.67
524.34	1744.87
524.54	1748.97
524.73	1712.10
524.93	1789.92
525.13	1705.96
525.33	1714.15
525.53	1898.47
525.73	1814.50
525.93	1722.34
526.13	1656.81
526.32	1777.64
526.52	1789.92
526.72	1705.96
526.92	1708.01
527.12	1755.11
527.32	1712.10
527.52	1787.88
527.71	1763.30
527.91	1773.54
528.11	1630.18
528.31	1710.05
528.51	1699.81
528.71	1732.58
528.90	1800.16
529.10	1832.93
529.30	1775.59
529.50	1667.05
529.70	1771.49
529.90	1777.64
530.09	1679.33
530.29	1755.11
530.49	1681.38
530.69	1880.04
530.89	1767.40
531.09	1689.57
531.28	1607.66
531.48	1783.78
531.68	1746.92
531.88	1742.82
532.08	1775.59
532.28	1730.53
532.47	1826.79
532.67	1777.64
532.87	1769.44
533.07	1677.29
533.27	1781.73
533.46	1746.92
533.66	1732.58
533.86	1773.54
534.06	1640.42
534.26	1757.16
534.45	1644.52
534.65	1779.68
534.85	1740.77
535.05	1665.00
535.25	1820.64
535.44	1603.56
535.64	1816.55
535.84	1712.10
536.04	1794.02
536.24	1781.73
536.43	1726.44
536.63	1777.64
536.83	1720.29
537.03	1708.01
537.22	1632.23
537.42	1673.19
537.62	1718.25
537.82	1679.33
538.02	1791.97
538.21	1753.06
538.41	1900.52
538.61	1738.73
538.81	1683.43
539.00	1771.49
539.20	1669.09
539.40	1656.81
539.60	1736.68
539.79	1712.10
539.99	1701.86
540.19	1736.68
540.39	1734.63
540.58	1748.97
540.78	1806.31
540.98	1740.77
541.18	1777.64
541.37	1755.11
541.57	1826.79
541.77	1742.82
541.97	1701.86
542.16	1708.01
542.36	1695.72
542.56	1691.62
542.76	1818.60
542.95	1771.49
543.15	1753.06
543.35	1644.52
543.54	1687.53
543.74	1679.33
543.94	1740.77
544.14	1683.43
544.33	1759.21
544.53	1675.24
544.73	1755.11
544.93	1714.15
545.12	1806.31
545.32	1748.97
545.52	1693.67
545.71	1693.67
545.91	1658.85
546.11	1665.00
546.30	1683.43
546.50	1714.15
546.70	1814.50
546.90	1746.92
547.09	1718.25
547.29	1730.53
547.49	1703.91
547.68	1708.01
547.88	1642.47
548.08	1767.40
548.27	2193.37
548.47	1683.43
548.67	1646.57
548.87	1716.20
549.06	1708.01
549.26	1787.88
549.46	1730.53
549.65	1769.44
549.85	1832.93
550.05	1761.25
550.24	1683.43
550.44	1744.87
550.64	1730.53
550.83	1675.24
551.03	1781.73
551.23	1830.88
551.42	1808.36
551.62	1714.15
551.82	1640.42
552.01	1710.05
552.21	1808.36
552.41	1734.63
552.60	1783.78
552.80	1824.74
553.00	1724.39
553.19	1570.79
553.39	1779.68
553.59	1660.90
553.78	1763.30
553.98	1722.34
554.17	1628.14
554.37	1783.78
554.57	1841.12
554.76	1642.47
554.96	1720.29
555.16	1763.30
555.35	1763.30
555.55	1683.43
555.75	1798.12
555.94	1808.36
556.14	1581.03
556.33	1722.34
556.53	1699.81
556.73	1761.25
556.92	1826.79
557.12	1843.17
557.32	1855.46
557.51	1857.51
557.71	1718.25
557.90	1830.88
558.10	1828.84
558.30	1763.30
558.49	1701.86
558.69	1738.73
558.88	1818.60
559.08	1687.53
559.28	1685.48
559.47	1761.25
559.67	1746.92
559.86	1839.08
560.06	1781.73
560.26	1697.77
560.45	1796.07
560.65	1767.40
560.84	1826.79
561.04	1759.21
561.24	1734.63
561.43	1656.81
561.63	1814.50
561.82	1705.96
562.02	1753.06
562.22	1724.39
562.41	1710.05
562.61	1650.66
562.80	1665.00
563.00	1964.00
563.19	1761.25
563.39	1724.39
563.59	1775.59
563.78	1660.90
563.98	1636.33
564.17	1677.29
564.37	1648.61
564.56	1765.35
564.76	1675.24
564.96	1728.49
565.15	1714.15
565.35	1851.36
565.54	1705.96
565.74	1816.55
565.93	1671.14
566.13	1740.77
566.32	1728.49
566.52	1734.63
566.71	1701.86
566.91	1796.07
567.11	1763.30
567.30	1671.14
567.50	1763.30
567.69	1816.55
567.89	1687.53
568.08	1640.42
568.28	1740.77
568.47	1683.43
568.67	1679.33
568.86	1665.00
569.06	1757.16
569.25	1771.49
569.45	1658.85
569.64	1787.88
569.84	1736.68
570.04	1751.01
570.23	1734.63
570.43	1705.96
570.62	1748.97
570.82	1808.36
571.01	1712.10
571.21	1705.96
571.40	1669.09
571.60	1769.44
571.79	1751.01
571.99	1826.79
572.18	1665.00
572.38	1791.97
572.57	1693.67
572.77	1767.40
572.96	1912.80
573.16	1789.92
573.35	1697.77
573.55	1806.31
573.74	1738.73
573.94	1693.67
574.13	1689.57
574.33	1853.41
574.52	1812.45
574.71	1744.87
574.91	1765.35
575.10	1675.24
575.30	1755.11
575.49	1640.42
575.69	1607.66
575.88	1787.88
576.08	1640.42
576.27	1804.26
576.47	1712.10
576.66	1755.11
576.86	1753.06
577.05	1761.25
577.25	1779.68
577.44	1923.04
577.64	1681.38
577.83	1853.41
578.02	1712.10
578.22	1824.74
578.41	1806.31
578.61	1779.68
578.80	1701.86
579.00	1771.49
579.19	1728.49
579.39	1794.02
579.58	1839.08
579.77	1806.31
579.97	1769.44
580.16	1861.60
580.36	1863.65
580.55	1832.93
580.75	1808.36
580.94	1773.54
581.13	1902.56
581.33	1861.60
581.52	1826.79
581.72	1910.75
581.91	1822.69
582.11	1779.68
582.30	1742.82
582.49	1779.68
582.69	1853.41
582.88	1746.92
583.08	1787.88
583.27	1808.36
583.47	1742.82
583.66	1689.57
583.85	1714.15
584.05	1705.96
584.24	1746.92
584.44	1734.63
584.63	1783.78
584.82	1837.03
585.02	1857.51
585.21	1830.88
585.41	1865.70
585.60	1800.16
585.79	2002.91
585.99	1900.52
586.18	1877.99
586.37	2191.33
586.57	3446.73
586.76	10104.68
586.96	25165.44
587.15	35438.05
587.34	41219.47
587.54	43310.44
587.73	37352.90
587.93	26846.82
588.12	22204.08
588.31	18755.30
588.51	16678.66
588.70	15398.68
588.89	14475.04
589.09	12801.85
589.28	11331.41
589.47	9627.50
589.67	8093.57
589.86	6535.07
590.06	5060.53
590.25	3985.35
590.44	3170.26
590.64	2617.30
590.83	2254.81
591.02	2117.60
591.22	1908.71
591.41	1826.79
591.60	1794.02
591.80	2029.54
591.99	1767.40
592.18	1759.21
592.38	1812.45
592.57	1724.39
592.76	1814.50
592.96	1816.55
593.15	1724.39
593.34	1857.51
593.54	1703.91
593.73	1789.92
593.92	1779.68
594.12	1708.01
594.31	1724.39
594.50	1738.73
594.70	1742.82
594.89	1820.64
595.08	1742.82
595.28	1765.35
595.47	1843.17
595.66	1796.07
595.86	1701.86
596.05	1701.86
596.24	1757.16
596.43	1810.40
596.63	1771.49
596.82	1699.81
597.01	1757.16
597.21	1904.61
597.40	1820.64
597.59	1724.39
597.79	1722.34
597.98	1732.58
598.17	1734.63
598.36	1722.34
598.56	1767.40
598.75	1640.42
598.94	1738.73
599.14	1681.38
599.33	1644.52
599.52	1798.12
599.71	1683.43
599.91	1798.12
600.10	1705.96
600.29	1722.34
600.48	1748.97
600.68	1714.15
600.87	1714.15
601.06	1724.39
601.26	1759.21
601.45	1765.35
601.64	1814.50
601.83	1808.36
602.03	1671.14
602.22	1677.29
602.41	1767.40
602.60	1914.85
602.80	1820.64
602.99	1769.44
603.18	1693.67
603.37	1708.01
603.57	1693.67
603.76	1812.45
603.95	1785.83
604.14	1722.34
604.34	1751.01
604.53	1714.15
604.72	1779.68
604.91	1777.64
605.10	1681.38
605.30	1632.23
605.49	1810.40
605.68	1820.64
605.87	1775.59
606.07	1669.09
606.26	1777.64
606.45	1798.12
606.64	1775.59
606.84	1708.01
607.03	1716.20
607.22	1812.45
607.41	1689.57
607.60	1624.04
607.80	1767.40
607.99	1755.11
608.18	1656.81
608.37	1691.62
608.56	1689.57
608.76	1798.12
608.95	1755.11
609.14	1683.43
609.33	1767.40
609.52	1738.73
609.72	1746.92
609.91	1687.53
610.10	1677.29
610.29	1812.45
610.48	1744.87
610.68	1773.54
610.87	1724.39
611.06	1843.17
611.25	1685.48
611.44	1789.92
611.63	1718.25
611.83	1812.45
612.02	1730.53
612.21	1820.64
612.40	1632.23
612.59	1728.49
612.79	1689.57
612.98	1779.68
613.17	1853.41
613.36	1732.58
613.55	1869.80
613.74	1689.57
613.93	1685.48
614.13	1726.44
614.32	1748.97
614.51	1697.77
614.70	1708.01
614.89	1669.09
615.08	1785.83
615.28	2033.63
615.47	1619.94
615.66	1736.68
615.85	1656.81
616.04	1775.59
616.23	1687.53
616.42	1773.54
616.62	1738.73
616.81	1714.15
617.00	1712.10
617.19	1746.92
617.38	1691.62
617.57	1757.16
617.76	1703.91
617.95	1732.58
618.15	1810.40
618.34	1841.12
618.53	1712.10
618.72	1798.12
618.91	1681.38
619.10	1816.55
619.29	1669.09
619.48	1710.05
619.68	1640.42
619.87	1748.97
620.06	1677.29
620.25	1834.98
620.44	1699.81
620.63	1691.62
620.82	1720.29
621.01	1730.53
621.20	1660.90
621.39	1710.05
621.59	1771.49
621.78	1779.68
621.97	1714.15
622.16	1755.11
622.35	1730.53
622.54	1783.78
622.73	1681.38
622.92	1644.52
623.11	1738.73
623.30	1748.97
623.49	1740.77
623.68	1673.19
623.88	1744.87
624.07	1773.54
624.26	1681.38
624.45	1796.07
624.64	1679.33
624.83	1771.49
625.02	1689.57
625.21	1724.39
625.40	1746.92
625.59	1763.30
625.78	1681.38
625.97	1716.20
626.16	1791.97
626.35	1779.68
626.54	1689.57
626.74	1824.74
626.93	1658.85
627.12	1708.01
627.31	1679.33
627.50	1777.64
627.69	1781.73
627.88	1648.61
628.07	1714.15
628.26	1699.81
628.45	1644.52
628.64	1681.38
628.83	1732.58
629.02	1701.86
629.21	1751.01
629.40	1675.24
629.59	1621.99
629.78	1718.25
629.97	1785.83
630.16	1748.97
630.35	1757.16
630.54	1757.16
630.73	1685.48
630.92	1699.81
631.11	1757.16
631.30	1718.25
631.49	1765.35
631.68	1636.33
631.87	1755.11
632.06	1675.24
632.25	1767.40
632.44	1708.01
632.63	1744.87
632.82	1689.57
633.01	1591.27
633.20	1726.44
633.39	1658.85
633.58	1585.13
633.77	1673.19
633.96	1742.82
634.15	1769.44
634.34	1728.49
634.53	1681.38
634.72	1624.04
634.91	1726.44
635.10	1746.92
635.29	1757.16
635.48	1722.34
635.67	1654.76
635.86	1662.95
636.05	1736.68
636.24	1763.30
636.43	1771.49
636.62	1748.97
636.81	1617.90
637.00	1753.06
637.19	1662.95
637.38	1705.96
637.57	1712.10
637.76	1736.68
637.95	1742.82
638.14	1705.96
638.33	1677.29
638.52	1730.53
638.71	1740.77
638.89	1644.52
639.08	1832.93
639.27	1757.16
639.46	1650.66
639.65	1820.64
639.84	1720.29
640.03	1691.62
640.22	1728.49
640.41	1771.49
640.60	1595.37
640.79	1703.91
640.98	1701.86
641.17	1753.06
641.36	1730.53
641.55	1628.14
641.74	1689.57
641.92	1591.27
642.11	1617.90
642.30	1662.95
642.49	1720.29
642.68	1634.28
642.87	1742.82
643.06	1644.52
643.25	1722.34
643.44	1626.09
643.63	1716.20
643.82	1689.57
644.00	1654.76
644.19	1693.67
644.38	1611.75
644.57	1767.40
644.76	1685.48
644.95	1714.15
645.14	1787.88
645.33	1744.87
645.52	1726.44
645.71	1632.23
645.89	1677.29
646.08	1671.14
646.27	1716.20
646.46	1808.36
646.65	1722.34
646.84	1816.55
647.03	1636.33
647.22	1787.88
647.40	1748.97
647.59	1705.96
647.78	1630.18
647.97	1687.53
648.16	1701.86
648.35	1810.40
648.54	1748.97
648.73	1601.51
648.91	1783.78
649.10	1755.11
649.29	1660.90
649.48	1767.40
649.67	1787.88
649.86	1695.72
650.05	1648.61
650.23	1783.78
650.42	1691.62
650.61	1714.15
650.80	1742.82
650.99	1810.40
651.18	1814.50
651.36	1839.08
651.55	1740.77
651.74	1734.63
651.93	1732.58
652.12	1732.58
652.31	1669.09
652.49	1708.01
652.68	1681.38
652.87	1777.64
653.06	1728.49
653.25	1851.36
653.44	1699.81
653.62	1765.35
653.81	1691.62
654.00	1710.05
654.19	1796.07
654.38	1869.80
654.56	1746.92
654.75	1722.34
654.94	1751.01
655.13	1740.77
655.32	1660.90
655.51	1841.12
655.69	1652.71
655.88	1800.16
656.07	1730.53
656.26	1730.53
656.45	1665.00
656.63	1679.33
656.82	1742.82
657.01	1791.97
657.20	1691.62
657.38	1779.68
657.57	1662.95
657.76	1703.91
657.95	1767.40
658.14	1724.39
658.32	1736.68
658.51	1687.53
658.70	1708.01
658.89	1624.04
659.08	1787.88
659.26	1728.49
659.45	1771.49
659.64	1718.25
659.83	1701.86
660.01	1904.61
660.20	1716.20
660.39	1802.21
660.58	1556.46
660.76	1771.49
660.95	1630.18
661.14	1691.62
661.33	1646.57
661.51	1705.96
661.70	1722.34
661.89	1796.07
662.08	1742.82
662.26	1628.14
662.45	1665.00
662.64	1765.35
662.83	1814.50
663.01	1660.90
663.20	1605.61
663.39	1759.21
663.58	1691.62
663.76	1765.35
663.95	1773.54
664.14	1730.53
664.32	1662.95
664.51	1701.86
664.70	1638.38
664.89	1789.92
665.07	1644.52
665.26	1785.83
665.45	1712.10
665.64	1742.82
665.82	1677.29
666.01	1730.53
666.20	1736.68
666.38	1794.02
666.57	1816.55
666.76	2183.13
666.95	4626.36
667.13	10643.29
667.32	15658.77
667.51	18243.31
667.69	19461.85
667.88	18102.00
668.07	12382.02
668.25	9647.98
668.44	8241.03
668.63	7536.52
668.81	7026.58
669.00	6365.09
669.19	5820.33
669.38	5158.83
669.56	4622.27
669.75	4009.92
669.94	3418.06
670.12	2834.39
670.31	2512.86
670.50	2275.29
670.68	2123.74
670.87	1888.23
671.06	1837.03
671.24	1853.41
671.43	1849.32
671.62	1722.34
671.80	1693.67
671.99	1832.93
672.18	1691.62
672.36	1779.68
672.55	1763.30
672.74	1656.81
672.92	1703.91
673.11	1736.68
673.29	1703.91
673.48	1828.84
673.67	1730.53
673.85	1808.36
674.04	1646.57
674.23	1675.24
674.41	1789.92
674.60	1593.32
674.79	1611.75
674.97	1701.86
675.16	1716.20
675.34	1781.73
675.53	1648.61
675.72	1769.44
675.90	1841.12
676.09	1685.48
676.28	1665.00
676.46	1695.72
676.65	1687.53
676.83	1681.38
677.02	1755.11
677.21	1740.77
677.39	1671.14
677.58	1662.95
677.77	1689.57
677.95	1658.85
678.14	1703.91
678.32	1720.29
678.51	1665.00
678.70	1779.68
678.88	1679.33
679.07	1712.10
679.25	1718.25
679.44	1775.59
679.63	1667.05
679.81	1722.34
680.00	1757.16
680.18	1724.39
680.37	1703.91
680.55	1722.34
680.74	1636.33
680.93	1603.56
681.11	1714.15
681.30	1662.95
681.48	1779.68
681.67	1640.42
681.85	1708.01
682.04	1660.90
682.23	1828.84
682.41	1722.34
682.60	1662.95
682.78	1685.48
682.97	1658.85
683.15	1767.40
683.34	1687.53
683.53	1802.21
683.71	1648.61
683.90	1824.74
684.08	1771.49
684.27	1724.39
684.45	1785.83
684.64	1648.61
684.82	1675.24
685.01	1734.63
685.19	1701.86
685.38	1875.94
685.57	1687.53
685.75	1693.67
685.94	1681.38
686.12	1621.99
686.31	1662.95
686.49	1808.36
686.68	1687.53
686.86	1753.06
687.05	1677.29
687.23	1880.04
687.42	1724.39
687.60	1535.98
687.79	1779.68
687.97	1828.84
688.16	1728.49
688.34	1783.78
688.53	1593.32
688.71	1736.68
688.90	1781.73
689.08	1691.62
689.27	1636.33
689.45	1800.16
689.64	1730.53
689.82	1746.92
690.01	1765.35
690.19	1679.33
690.38	1679.33
690.56	1746.92
690.75	1738.73
690.93	1652.71
691.12	1624.04
691.30	1759.21
691.49	1701.86
691.67	1701.86
691.86	1822.69
692.04	1755.11
692.23	1662.95
692.41	1646.57
692.60	1826.79
692.78	1738.73
692.97	1736.68
693.15	1834.98
693.34	1781.73
693.52	1775.59
693.71	1648.61
693.89	1691.62
694.08	1697.77
694.26	1802.21
694.44	1748.97
694.63	1742.82
694.81	1638.38
695.00	1695.72
695.18	1720.29
695.37	1871.84
695.55	1648.61
695.74	1695.72
695.92	1656.81
696.10	1718.25
696.29	1656.81
696.47	1679.33
696.66	1638.38
696.84	1609.70
697.03	1681.38
697.21	1873.89
697.40	2269.15
697.58	1798.12
697.76	1677.29
697.95	1755.11
698.13	1621.99
698.32	1677.29
698.50	1652.71
698.68	1730.53
698.87	1759.21
699.05	1828.84
699.24	1673.19
699.42	1746.92
699.61	1728.49
699.79	1720.29
699.97	1710.05
700.16	1695.72
700.34	1759.21
700.53	1710.05
700.71	1728.49
700.89	1652.71
701.08	1724.39
701.26	1785.83
701.45	2136.03
701.63	1611.75
701.81	1667.05
702.00	1626.09
702.18	1677.29
702.37	1730.53
702.55	1716.20
702.73	1634.28
702.92	1593.32
703.10	1675.24
703.28	1724.39
703.47	1658.85
703.65	1800.16
703.84	1775.59
704.02	1701.86
704.20	1796.07
704.39	1644.52
704.57	1681.38
704.75	1775.59
704.94	1755.11
705.12	1769.44
705.30	1789.92
705.49	2289.63
705.67	4517.82
705.86	9795.43
706.04	12699.45
706.22	14825.25
706.41	15808.27
706.59	14063.40
706.77	9899.88
706.96	7397.26
707.14	6711.19
707.32	5984.16
707.51	5623.72
707.69	5033.91
707.87	4235.20
708.06	3522.51
708.24	2973.65
708.42	2533.34
708.61	2301.92
708.79	1791.97
708.97	1828.84
709.16	1826.79
709.34	1734.63
709.52	1665.00
709.71	1773.54
709.89	1708.01
710.07	1677.29
710.26	1669.09
710.44	1738.73
710.62	1679.33
710.80	1697.77
710.99	1761.25
711.17	1708.01
711.35	1687.53
711.54	1662.95
711.72	1785.83
711.90	1765.35
712.09	1753.06
712.27	1624.04
712.45	1794.02
712.63	1624.04
712.82	1650.66
713.00	1689.57
713.18	1757.16
713.37	1789.92
713.55	1771.49
713.73	1708.01
713.91	1800.16
714.10	1736.68
714.28	1701.86
714.46	1722.34
714.65	1740.77
714.83	1736.68
715.01	1679.33
715.19	1624.04
715.38	1691.62
715.56	1728.49
715.74	1738.73
715.92	1615.85
716.11	1783.78
716.29	1574.89
716.47	1703.91
716.65	1601.51
716.84	1552.36
717.02	1708.01
717.20	1617.90
717.38	1660.90
717.57	1765.35
717.75	1705.96
717.93	1632.23
718.11	1734.63
718.30	1636.33
718.48	1753.06
718.66	1726.44
718.84	1791.97
719.03	1650.66
719.21	1714.15
719.39	1816.55
719.57	1734.63
719.75	1718.25
719.94	1662.95
720.12	1630.18
720.30	1798.12
720.48	1828.84
720.67	1656.81
720.85	1642.47
721.03	1785.83
721.21	1660.90
721.39	1757.16
721.58	1800.16
721.76	1748.97
721.94	1816.55
722.12	1738.73
722.30	1820.64
722.49	1583.08
722.67	1671.14
722.85	1738.73
723.03	1599.46
723.21	1593.32
723.40	1693.67
723.58	1753.06
723.76	1701.86
723.94	1726.44
724.12	1720.29
724.30	1787.88
724.49	1775.59
724.67	1634.28
724.85	1769.44
725.03	1609.70
725.21	1685.48
725.40	1705.96
725.58	1689.57
725.76	1685.48
725.94	1779.68
726.12	1648.61
726.30	1724.39
726.49	1716.20
726.67	1675.24
726.85	1693.67
727.03	1804.26
727.21	2222.05
727.39	2848.72
727.57	3901.38
727.76	4192.19
727.94	4532.15
728.12	4415.42
728.30	3811.27
728.48	2949.08
728.66	2783.19
728.84	2531.29
729.03	2260.96
729.21	2119.65
729.39	2000.87
729.57	1859.56
729.75	1771.49
729.93	1847.27
730.11	1718.25
730.30	1619.94
730.48	1667.05
730.66	1748.97
730.84	1763.30
731.02	1675.24
731.20	1697.77
731.38	1683.43
731.56	1751.01
731.74	1632.23
731.93	1769.44
732.11	1746.92
732.29	1654.76
732.47	1736.68
732.65	1718.25
732.83	1697.77
733.01	1740.77
733.19	1705.96
733.37	1771.49
733.56	1748.97
733.74	1640.42
733.92	1791.97
734.10	1697.77
734.28	1703.91
734.46	1591.27
734.64	1705.96
734.82	1644.52
735.00	1675.24
735.18	1665.00
735.36	1716.20
735.54	1703.91
735.73	1665.00
735.91	1693.67
736.09	1779.68
736.27	1628.14
736.45	1708.01
736.63	1546.22
736.81	1681.38
736.99	1832.93
737.17	1708.01
737.35	1726.44
737.53	1699.81
737.71	1730.53
737.89	1763.30
738.07	1636.33
738.25	1599.46
738.43	1634.28
738.61	1675.24
738.80	1681.38
738.98	1636.33
739.16	1675.24
739.34	1609.70
739.52	1800.16
739.70	1695.72
739.88	1779.68
740.06	1736.68
740.24	1609.70
740.42	1722.34
740.60	1578.98
740.78	1656.81
740.96	1646.57
741.14	1665.00
741.32	1708.01
741.50	1665.00
741.68	1787.88
741.86	1771.49
742.04	1681.38
742.22	1630.18
742.40	1730.53
742.58	1753.06
742.76	1775.59
742.94	1714.15
743.12	1617.90
743.30	1658.85
743.48	1755.11
743.66	1640.42
743.84	1714.15
744.02	1689.57
744.20	1724.39
744.38	1650.66
744.56	1677.29
744.74	1841.12
744.92	1757.16
745.10	1781.73
745.28	1708.01
745.46	1757.16
745.64	1687.53
745.82	1732.58
746.00	1697.77
746.18	1761.25
746.36	1634.28
746.54	1654.76
746.72	1712.10
746.90	1638.38
747.08	1701.86
747.26	1691.62
747.44	1769.44
747.62	1665.00
747.80	1789.92
747.98	1816.55
748.15	1718.25
748.33	1810.40
748.51	1691.62
748.69	1791.97
748.87	1656.81
749.05	1728.49
749.23	1667.05
749.41	1810.40
749.59	1634.28
749.77	1634.28
749.95	1673.19
750.13	1691.62
750.31	1728.49
750.49	1701.86
750.67	1617.90
750.85	1728.49
751.03	1753.06
751.20	1787.88
751.38	1675.24
751.56	1652.71
751.74	1685.48
751.92	1646.57
752.10	1660.90
752.28	1744.87
752.46	1650.66
752.64	1742.82
752.82	1699.81
753.00	1718.25
753.18	1736.68
753.35	1683.43
753.53	1611.75
753.71	1658.85
753.89	1714.15
754.07	1716.20
754.25	1761.25
754.43	1665.00
754.61	1611.75
754.79	1779.68
754.97	1662.95
755.14	1730.53
755.32	1689.57
755.50	1677.29
755.68	1720.29
755.86	1609.70
756.04	1619.94
756.22	1587.18
756.40	1732.58
756.57	1759.21
756.75	1710.05
756.93	1689.57
757.11	1720.29
757.29	1646.57
757.47	1697.77
757.65	1568.74
757.82	1595.37
758.00	1652.71
758.18	1732.58
758.36	1638.38
758.54	1757.16
758.72	1640.42
758.90	1730.53
759.07	1820.64
759.25	1624.04
759.43	1708.01
759.61	1695.72
759.79	2168.80
759.97	1689.57
760.15	1636.33
760.32	1621.99
760.50	1677.29
760.68	1779.68
760.86	1660.90
761.04	1738.73
761.22	1722.34
761.39	1744.87
761.57	1716.20
761.75	1685.48
761.93	1748.97
762.11	1642.47
762.28	1705.96
762.46	1603.56
762.64	1753.06
762.82	1589.22
763.00	1644.52
763.18	1763.30
763.35	1636.33
763.53	1781.73
763.71	1677.29
763.89	1652.71
764.07	1693.67
764.24	1683.43
764.42	1710.05
764.60	1705.96
764.78	1783.78
764.96	1804.26
765.13	1695.72
765.31	1740.77
765.49	1673.19
765.67	1585.13
765.84	1662.95
766.02	1619.94
766.20	1593.32
766.38	1716.20
766.56	1726.44
766.73	1701.86
766.91	1730.53
767.09	1744.87
767.27	1744.87
767.44	1634.28
767.62	1755.11
767.80	1669.09
767.98	1726.44
768.15	1667.05
768.33	1728.49
768.51	1757.16
768.69	1775.59
768.87	1710.05
769.04	1759.21
769.22	1845.22
769.40	1791.97
769.58	1843.17
769.75	1615.85
769.93	1812.45
770.11	1681.38
770.28	1753.06
770.46	1691.62
770.64	1708.01
770.82	1589.22
770.99	1681.38
771.17	1732.58
771.35	1710.05
771.53	1628.14
771.70	1634.28
771.88	1695.72
772.06	1769.44
772.23	1669.09
772.41	1748.97
772.59	1683.43
772.77	1691.62
772.94	1669.09
773.12	1730.53
773.30	1660.90
773.47	1722.34
773.65	1609.70
773.83	1769.44
774.01	1710.05
774.18	1583.08
774.36	1789.92
774.54	1787.88
774.71	1665.00
774.89	1581.03
775.07	1595.37
775.24	1712.10
775.42	1677.29
775.60	1789.92
775.78	1574.89
775.95	1609.70
776.13	1595.37
776.31	1599.46
776.48	1720.29
776.66	1722.34
776.84	1748.97
777.01	1705.96
777.19	1689.57
777.37	1636.33
777.54	1759.21
777.72	1796.07
777.90	1732.58
778.07	1572.84
778.25	1814.50
778.43	1755.11
778.60	1570.79
778.78	1718.25
778.96	1804.26
779.13	1650.66
779.31	1775.59
779.49	1673.19
779.66	1654.76
779.84	1665.00
780.01	1708.01
780.19	1656.81
780.37	1710.05
780.54	1765.35
780.72	1656.81
780.90	1646.57
781.07	1669.09
781.25	1677.29
781.43	1724.39
781.60	1615.85
781.78	1697.77
781.95	1699.81
782.13	1646.57
782.31	1615.85
782.48	1589.22
782.66	1744.87
782.83	1779.68
783.01	1673.19
783.19	1734.63
783.36	1605.61
783.54	1662.95
783.72	1738.73
783.89	1695.72
784.07	1660.90
784.24	1701.86
784.42	1816.55
784.60	1701.86
784.77	1714.15
784.95	1595.37
785.12	1751.01
785.30	1677.29
785.47	1673.19
785.65	1681.38
785.83	1628.14
786.00	1720.29
786.18	1710.05
786.35	1640.42
786.53	1667.05
786.71	1675.24
786.88	1716.20
787.06	1765.35
787.23	1673.19
787.41	1667.05
787.58	1638.38
787.76	1650.66
787.94	1714.15
788.11	1646.57
788.29	1654.76
788.46	1726.44
788.64	1615.85
788.81	1673.19
788.99	1673.19
789.16	1619.94
789.34	1683.43
789.52	1748.97
789.69	1658.85
789.87	1587.18
790.04	1783.78
790.22	1746.92
790.39	1853.41
790.57	1613.80
790.74	1677.29
790.92	1710.05
791.09	1636.33
791.27	1724.39
791.44	1773.54
791.62	1714.15
791.79	1665.00
791.97	1705.96
792.15	1828.84
792.32	1667.05
792.50	1685.48
792.67	1769.44
792.85	1773.54
793.02	1691.62
793.20	1681.38
793.37	1585.13
793.55	1720.29
793.72	1656.81
793.90	1808.36
794.07	1720.29
794.25	1605.61
794.42	1726.44
794.60	1693.67
794.77	1787.88
794.95	1705.96
795.12	1691.62
795.30	1667.05
795.47	1550.31
795.65	1796.07
795.82	1697.77
796.00	1673.19
796.17	1578.98
796.34	1683.43
796.52	1720.29
796.69	1728.49
796.87	1751.01
797.04	1751.01
797.22	1730.53
797.39	1693.67
797.57	1822.69
797.74	1708.01
797.92	1632.23
798.09	1644.52
798.27	1802.21
798.44	1671.14
798.62	1660.90
798.79	1712.10
798.96	1722.34
799.14	1765.35
799.31	1832.93
799.49	1662.95
799.66	1677.29
799.84	1703.91
800.01	1628.14
800.19	1687.53
800.36	1566.70
800.53	1658.85
800.71	1681.38
800.88	1767.40
801.06	1675.24
801.23	1667.05
801.41	1665.00
801.58	1648.61
801.75	1652.71
801.93	1726.44
802.10	1710.05
802.28	1650.66
802.45	1701.86
802.63	1789.92
802.80	1740.77
802.97	1689.57
803.15	1679.33
803.32	1695.72
803.50	1660.90
803.67	1691.62
803.84	1708.01
804.02	1740.77
804.19	1708.01
804.37	1560.55
804.54	1617.90
804.71	1736.68
804.89	1808.36
805.06	1626.09
805.24	1634.28
805.41	1603.56
805.58	1718.25
805.76	1845.22
805.93	1701.86
806.10	1783.78
806.28	1742.82
806.45	1736.68
806.63	1691.62
806.80	1785.83
806.97	1714.15
807.15	1675.24
807.32	1787.88
807.49	1542.12
807.67	1710.05
807.84	1697.77
808.01	1654.76
808.19	1771.49
808.36	1791.97
808.54	1628.14
808.71	1712.10
808.88	1685.48
809.06	1708.01
809.23	1724.39
809.40	1681.38
809.58	1771.49
809.75	1746.92
809.92	1615.85
810.10	1857.51
810.27	1712.10
810.44	1689.57
810.62	1755.11
810.79	1693.67
810.96	1673.19
811.14	1714.15
811.31	1730.53
811.48	1701.86
811.66	1681.38
811.83	1808.36
812.00	1748.97
812.18	1724.39
812.35	1808.36
812.52	1675.24
812.69	1724.39
812.87	1681.38
813.04	1560.55
813.21	1718.25
813.39	1695.72
813.56	1576.94
813.73	1710.05
813.91	1607.66
814.08	1755.11
814.25	1718.25
814.42	1652.71
814.60	1701.86
814.77	1787.88
814.94	1710.05
815.12	1691.62
815.29	1791.97
815.46	1658.85
815.63	1695.72
815.81	1662.95
815.98	1689.57
816.15	1822.69
816.33	1652.71
816.50	1718.25
816.67	1726.44
816.84	1697.77
817.02	1595.37
817.19	1634.28
817.36	1685.48
817.53	1689.57
817.71	1554.41
817.88	1679.33
818.05	1714.15
818.22	1681.38
818.40	1826.79
818.57	1722.34
818.74	1771.49
818.91	1681.38
819.09	1767.40
819.26	1714.15
819.43	1714.15
819.60	1716.20
819.78	1689.57
819.95	1785.83
820.12	1701.86
820.29	1796.07
820.47	1728.49
820.64	1634.28
820.81	1669.09
820.98	1667.05
821.15	1626.09
821.33	1703.91
821.50	1638.38
821.67	1759.21
821.84	1669.09
822.02	1681.38
822.19	1814.50
822.36	1648.61
822.53	1665.00
822.70	1636.33
822.88	1726.44
823.05	1728.49
823.22	1693.67
823.39	1716.20
823.56	1660.90
823.74	1812.45
823.91	1656.81
824.08	1626.09
824.25	1624.04
824.42	1810.40
824.60	1615.85
824.77	1738.73
824.94	1689.57
825.11	1746.92
825.28	1628.14
825.45	1693.67
825.63	1710.05
825.80	1646.57
825.97	1724.39
826.14	1695.72
826.31	1669.09
826.48	1755.11
826.66	1636.33
826.83	1716.20
827.00	1703.91
827.17	1722.34
827.34	1638.38
827.51	1617.90
827.69	1705.96
827.86	1607.66
828.03	1646.57
828.20	1697.77
828.37	1744.87
828.54	1697.77
828.71	1613.80
828.89	1757.16
829.06	1730.53
829.23	1863.65
829.40	1687.53
829.57	1681.38
829.74	1728.49
829.91	1613.80
830.09	1734.63
830.26	1716.20
830.43	1769.44
830.60	1665.00
830.77	1808.36
830.94	1763.30
831.11	1677.29
831.28	1642.47
831.46	1771.49
831.63	1701.86
831.80	1765.35
831.97	1648.61
832.14	1730.53
832.31	1660.90
832.48	1675.24
832.65	1730.53
832.82	1712.10
832.99	1662.95
833.17	1632.23
833.34	1757.16
833.51	1746.92
833.68	1615.85
833.85	1779.68
834.02	1648.61
834.19	1589.22
834.36	1648.61
834.53	1730.53
834.70	1722.34
834.87	1748.97
835.04	1658.85
835.22	1701.86
835.39	1599.46
835.56	1634.28
835.73	1722.34
835.90	1712.10
836.07	1652.71
836.24	1796.07
836.41	1718.25
836.58	1671.14
836.75	1744.87
836.92	1650.66
837.09	1585.13
837.26	1693.67
837.43	1720.29
837.60	1703.91
837.77	1660.90
837.94	1669.09
838.12	1697.77
838.29	1728.49
838.46	1687.53
838.63	1636.33
838.80	1751.01
838.97	1767.40
839.14	1732.58
839.31	1687.53
839.48	1708.01
839.65	1751.01
839.82	1744.87
839.99	1746.92
840.16	1662.95
840.33	1630.18
840.50	1693.67
840.67	1650.66
840.84	1632.23
841.01	1675.24
841.18	1718.25
841.35	1626.09
841.52	1748.97
841.69	1837.03
841.86	1710.05
842.03	1738.73
842.20	1755.11
842.37	1632.23
842.54	1695.72
842.71	1640.42
842.88	1599.46
843.05	1771.49
843.22	1734.63
843.39	1744.87
843.56	1671.14
843.73	1712.10
843.90	1693.67
844.07	1681.38
844.24	1746.92
844.41	1751.01
844.58	1687.53
844.75	1646.57
844.92	1693.67
845.09	1732.58
845.26	1673.19
845.43	1746.92
845.60	1705.96
845.77	1771.49
845.94	1677.29
846.10	1677.29
846.27	1652.71
846.44	1701.86
846.61	1658.85
846.78	1689.57
846.95	1837.03
847.12	1703.91
847.29	1624.04
847.46	1652.71
847.63	1794.02
847.80	1646.57
847.97	1630.18
848.14	1820.64
848.31	1705.96
848.48	1591.27
848.65	1658.85
848.82	1634.28
848.98	1757.16
849.15	1781.73
849.32	1732.58
849.49	1701.86
849.66	1755.11
849.83	1734.63
850.00	1593.32
850.17	1730.53
850.34	1718.25
850.51	1677.29
850.68	1601.51
850.85	1845.22
851.01	1779.68
851.18	1636.33
851.35	1734.63
851.52	1783.78
851.69	1828.84
851.86	1626.09
852.03	1609.70
852.20	1734.63
852.37	1646.57
852.53	1599.46
852.70	1779.68
852.87	1726.44
853.04	1798.12
853.21	1695.72
853.38	1802.21
853.55	1744.87
853.72	1755.11
853.89	1673.19
854.05	1597.42
854.22	1677.29
854.39	1691.62
854.56	1671.14
854.73	1775.59
854.90	1687.53
855.07	1683.43
855.23	1675.24
855.40	1648.61
855.57	1681.38
855.74	1591.27
855.91	1849.32
856.08	1578.98
856.25	1658.85
856.41	1630.18
856.58	1628.14
856.75	1708.01
856.92	1693.67
857.09	1724.39
857.26	1615.85
857.42	1640.42
857.59	1751.01
857.76	1597.42
857.93	1697.77
858.10	1714.15
858.27	1638.38
858.43	1681.38
858.60	1658.85
858.77	1607.66
858.94	1677.29
859.11	1773.54
859.27	1576.94
859.44	1697.77
859.61	1861.60
859.78	1701.86
859.95	1605.61
860.12	1599.46
860.28	1806.31
860.45	1808.36
860.62	1607.66
860.79	1724.39
860.95	1708.01
861.12	1644.52
861.29	1703.91
861.46	1658.85
861.63	1609.70
861.79	1736.68
861.96	1615.85
862.13	1648.61
862.30	1787.88
862.47	1677.29
862.63	1650.66
862.80	1837.03
862.97	1742.82
863.14	1722.34
863.30	1767.40
863.47	1650.66
863.64	1832.93
863.81	1662.95
863.97	1644.52
864.14	1714.15
864.31	1716.20
864.48	1781.73
864.65	1589.22
864.81	1726.44
864.98	1771.49
865.15	1775.59
865.32	1785.83
865.48	1773.54
865.65	1779.68
865.82	1667.05
865.98	1705.96
866.15	1685.48
866.32	1677.29
866.49	1615.85
866.65	1746.92
866.82	1699.81
866.99	1695.72
867.16	1654.76
867.32	1705.96
867.49	1699.81
867.66	1634.28
867.83	1642.47
867.99	1554.41
868.16	1640.42
868.33	1705.96
868.49	1630.18
868.66	1634.28
868.83	1675.24
868.99	1671.14
869.16	1751.01
869.33	1712.10
869.50	1757.16
869.66	1650.66
869.83	1738.73
870.00	1640.42
870.16	1650.66
870.33	1714.15
870.50	1804.26
870.66	1697.77
870.83	1775.59
871.00	1705.96
871.17	1728.49
871.33	1642.47
871.50	1751.01
871.67	1724.39
871.83	1652.71
872.00	1705.96
872.17	1671.14
872.33	1779.68
872.50	1798.12
872.67	1708.01
872.83	1660.90
873.00	1710.05
873.17	1722.34
873.33	1738.73
873.50	1757.16
873.67	1703.91
873.83	1730.53
874.00	1705.96
874.16	1677.29
874.33	1744.87
874.50	1736.68
874.66	1679.33
874.83	1746.92
875.00	1724.39
875.16	1761.25
875.33	1783.78
875.50	1617.90
875.66	1783.78
875.83	1640.42
875.99	1796.07
876.16	1636.33
876.33	1595.37
876.49	1710.05
876.66	1693.67
876.83	1675.24
876.99	1597.42
877.16	1687.53
877.32	1748.97
877.49	1658.85
877.66	1746.92
877.82	1755.11
877.99	1675.24
878.15	1763.30
878.32	1720.29
878.49	1701.86
878.65	1689.57
878.82	1726.44
878.98	1669.09
879.15	1751.01
879.32	1656.81
879.48	1740.77
879.65	1671.14
879.81	1689.57
879.98	1636.33
880.15	1630.18
880.31	1724.39
880.48	1716.20
880.64	1646.57
880.81	1716.20
880.97	1820.64
881.14	1800.16
881.31	1677.29
881.47	1818.60
881.64	1701.86
881.80	1613.80
881.97	1691.62
882.13	1708.01
882.30	1609.70
882.47	1714.15
882.63	1665.00
882.80	1716.20
882.96	1632.23
883.13	1722.34
883.29	1689.57
883.46	1671.14
883.62	1814.50
883.79	1656.81
883.95	1769.44
884.12	1777.64
884.29	1708.01
884.45	1705.96
884.62	1769.44
884.78	1765.35
884.95	1804.26
885.11	1665.00
885.28	1775.59
885.44	1730.53
885.61	1728.49
885.77	1796.07
885.94	1730.53
886.10	1685.48
886.27	1693.67
886.43	1812.45
886.60	1796.07
886.76	1669.09
886.93	1658.85
887.09	1722.34
887.26	1552.36
887.42	1624.04
887.59	1834.98
887.75	1859.56
887.92	1781.73
888.08	1736.68
888.25	1773.54
888.41	1759.21
888.58	1656.81
888.74	1681.38
888.91	1714.15
>>>>>End Processed Spectral Data<<<<<
