SpectraSuite Data File
++++++++++++++++++++++++++++++++++++
Date: Mon Jun 06 17:31:57 CEST 2016
User: root
Dark Spectrum Present: No
Reference Spectrum Present: No
Number of Sampled Component Spectra: 1
Spectrometers: USB4C02835
Integration Time (usec): 100000 (USB4C02835)
Spectra Averaged: 1 (USB4C02835)
Boxcar Smoothing: 0 (USB4C02835)
Correct for Electrical Dark: No (USB4C02835)
Strobe/Lamp Enabled: No (USB4C02835)
Correct for Detector Non-linearity: No (USB4C02835)
Correct for Stray Light: No (USB4C02835)
Number of Pixels in Processed Spectrum: 3648
>>>>>Begin Processed Spectral Data<<<<<
177.47	1402.86
177.69	1402.86
177.91	1402.86
178.13	1525.74
178.36	1517.54
178.58	1607.66
178.80	1710.05
179.02	1697.77
179.24	1615.85
179.46	1714.15
179.68	1767.40
179.90	1654.76
180.13	1740.77
180.35	1640.42
180.57	1695.72
180.79	1740.77
181.01	1736.68
181.23	1734.63
181.45	1787.88
181.67	1808.36
181.90	1740.77
182.12	1665.00
182.34	1724.39
182.56	1728.49
182.78	1720.29
183.00	1701.86
183.22	1742.82
183.44	1630.18
183.66	1884.13
183.89	1871.84
184.11	1687.53
184.33	1789.92
184.55	1757.16
184.77	1683.43
184.99	1763.30
185.21	1757.16
185.43	1861.60
185.65	1708.01
185.87	1755.11
186.10	1816.55
186.32	1877.99
186.54	1738.73
186.76	1722.34
186.98	1751.01
187.20	1740.77
187.42	1697.77
187.64	1732.58
187.86	1753.06
188.08	1732.58
188.30	1720.29
188.52	1697.77
188.75	1849.32
188.97	1687.53
189.19	1714.15
189.41	1734.63
189.63	1802.21
189.85	1681.38
190.07	1683.43
190.29	1564.65
190.51	1683.43
190.73	1615.85
190.95	1779.68
191.17	1652.71
191.39	1667.05
191.61	1667.05
191.84	1722.34
192.06	1767.40
192.28	1650.66
192.50	1914.85
192.72	1728.49
192.94	1726.44
193.16	1736.68
193.38	1761.25
193.60	1609.70
193.82	1720.29
194.04	1710.05
194.26	1798.12
194.48	1705.96
194.70	1697.77
194.92	1730.53
195.14	1691.62
195.36	1681.38
195.58	1699.81
195.80	1777.64
196.02	1763.30
196.24	1734.63
196.46	1759.21
196.69	1665.00
196.91	1884.13
197.13	1718.25
197.35	1642.47
197.57	1761.25
197.79	1738.73
198.01	1734.63
198.23	1785.83
198.45	1718.25
198.67	1591.27
198.89	1669.09
199.11	1753.06
199.33	1689.57
199.55	1665.00
199.77	1685.48
199.99	1775.59
200.21	1742.82
200.43	1769.44
200.65	1679.33
200.87	1595.37
201.09	1685.48
201.31	1697.77
201.53	1771.49
201.75	1732.58
201.97	1755.11
202.19	1722.34
202.41	1789.92
202.63	1873.89
202.85	1748.97
203.07	1738.73
203.29	1705.96
203.51	1681.38
203.73	1697.77
203.95	1927.14
204.17	1785.83
204.39	1736.68
204.61	1701.86
204.83	1730.53
205.05	1761.25
205.27	1740.77
205.49	1804.26
205.71	1755.11
205.93	1656.81
206.15	1652.71
206.37	1679.33
206.59	1683.43
206.81	1628.14
207.03	1675.24
207.25	1675.24
207.47	1775.59
207.69	1662.95
207.91	1830.88
208.13	1748.97
208.34	1665.00
208.56	1703.91
208.78	1734.63
209.00	1665.00
209.22	1708.01
209.44	1720.29
209.66	1718.25
209.88	1710.05
210.10	1742.82
210.32	1736.68
210.54	1830.88
210.76	1671.14
210.98	1753.06
211.20	1609.70
211.42	1779.68
211.64	1791.97
211.86	1697.77
212.08	1736.68
212.30	1763.30
212.52	1751.01
212.74	1818.60
212.96	1730.53
213.17	1722.34
213.39	1759.21
213.61	1779.68
213.83	1722.34
214.05	1665.00
214.27	1732.58
214.49	1656.81
214.71	1609.70
214.93	1820.64
215.15	1771.49
215.37	1785.83
215.59	1585.13
215.81	1695.72
216.03	1798.12
216.24	1759.21
216.46	1644.52
216.68	1705.96
216.90	1796.07
217.12	1740.77
217.34	1650.66
217.56	1734.63
217.78	1814.50
218.00	1796.07
218.22	1724.39
218.44	1800.16
218.66	1716.20
218.87	1769.44
219.09	1703.91
219.31	1783.78
219.53	1767.40
219.75	1630.18
219.97	1714.15
220.19	1714.15
220.41	1683.43
220.63	1751.01
220.85	1800.16
221.06	1710.05
221.28	1746.92
221.50	1714.15
221.72	1722.34
221.94	1746.92
222.16	1642.47
222.38	1796.07
222.60	1759.21
222.82	1701.86
223.03	1755.11
223.25	1734.63
223.47	1802.21
223.69	1796.07
223.91	1730.53
224.13	1683.43
224.35	1660.90
224.57	1742.82
224.78	1732.58
225.00	1683.43
225.22	1773.54
225.44	1683.43
225.66	1791.97
225.88	1761.25
226.10	1775.59
226.32	1744.87
226.53	1832.93
226.75	1662.95
226.97	1736.68
227.19	1732.58
227.41	1650.66
227.63	1718.25
227.85	1685.48
228.06	1767.40
228.28	1720.29
228.50	1726.44
228.72	1648.61
228.94	1705.96
229.16	1628.14
229.37	1634.28
229.59	1660.90
229.81	1740.77
230.03	1654.76
230.25	1665.00
230.47	1681.38
230.69	1611.75
230.90	1722.34
231.12	1695.72
231.34	1705.96
231.56	1751.01
231.78	1712.10
232.00	1767.40
232.21	1724.39
232.43	1744.87
232.65	1570.79
232.87	1798.12
233.09	1658.85
233.30	1634.28
233.52	1771.49
233.74	1732.58
233.96	1673.19
234.18	1722.34
234.40	1681.38
234.61	1787.88
234.83	1626.09
235.05	1681.38
235.27	1783.78
235.49	1796.07
235.70	1722.34
235.92	1765.35
236.14	1703.91
236.36	1824.74
236.58	1714.15
236.79	1746.92
237.01	1681.38
237.23	1732.58
237.45	1873.89
237.67	1656.81
237.88	1695.72
238.10	1849.32
238.32	1671.14
238.54	1654.76
238.76	1722.34
238.97	1654.76
239.19	1720.29
239.41	1755.11
239.63	1775.59
239.85	1689.57
240.06	1689.57
240.28	1689.57
240.50	1814.50
240.72	1675.24
240.93	1718.25
241.15	1736.68
241.37	1726.44
241.59	1767.40
241.81	1726.44
242.02	1701.86
242.24	1742.82
242.46	1751.01
242.68	1732.58
242.89	1718.25
243.11	1765.35
243.33	1660.90
243.55	1722.34
243.76	1716.20
243.98	1636.33
244.20	1705.96
244.42	1734.63
244.64	1718.25
244.85	1673.19
245.07	1607.66
245.29	1837.03
245.51	1710.05
245.72	1767.40
245.94	1718.25
246.16	1693.67
246.38	1730.53
246.59	1701.86
246.81	1697.77
247.03	1646.57
247.24	1636.33
247.46	1673.19
247.68	1767.40
247.90	1693.67
248.11	1695.72
248.33	1714.15
248.55	1640.42
248.77	1834.98
248.98	1708.01
249.20	1832.93
249.42	1644.52
249.64	1802.21
249.85	1726.44
250.07	1613.80
250.29	1802.21
250.50	1814.50
250.72	1583.08
250.94	1736.68
251.16	1871.84
251.37	1802.21
251.59	1738.73
251.81	1800.16
252.02	1818.60
252.24	1628.14
252.46	1763.30
252.68	1671.14
252.89	1636.33
253.11	1658.85
253.33	1824.74
253.54	1806.31
253.76	1665.00
253.98	1685.48
254.20	1681.38
254.41	1675.24
254.63	1724.39
254.85	1679.33
255.06	1703.91
255.28	1716.20
255.50	1748.97
255.71	1691.62
255.93	1628.14
256.15	1679.33
256.36	1697.77
256.58	1687.53
256.80	1734.63
257.02	1697.77
257.23	1658.85
257.45	1695.72
257.67	1794.02
257.88	1681.38
258.10	1730.53
258.32	1705.96
258.53	1785.83
258.75	1755.11
258.97	1652.71
259.18	1720.29
259.40	1673.19
259.62	1837.03
259.83	1802.21
260.05	1742.82
260.27	1980.39
260.48	1791.97
260.70	1667.05
260.92	1777.64
261.13	1716.20
261.35	1722.34
261.57	1697.77
261.78	1640.42
262.00	1724.39
262.22	1652.71
262.43	1708.01
262.65	1748.97
262.86	1697.77
263.08	1820.64
263.30	1761.25
263.51	1675.24
263.73	1687.53
263.95	1798.12
264.16	1677.29
264.38	1628.14
264.60	1734.63
264.81	1697.77
265.03	1708.01
265.25	1826.79
265.46	1722.34
265.68	1759.21
265.89	1746.92
266.11	1671.14
266.33	1761.25
266.54	1802.21
266.76	1708.01
266.98	1748.97
267.19	1769.44
267.41	1794.02
267.62	1712.10
267.84	1609.70
268.06	1710.05
268.27	1638.38
268.49	1796.07
268.70	1773.54
268.92	1687.53
269.14	1650.66
269.35	1591.27
269.57	1705.96
269.79	1759.21
270.00	1652.71
270.22	1769.44
270.43	1708.01
270.65	1642.47
270.87	1654.76
271.08	1708.01
271.30	1759.21
271.51	1591.27
271.73	1724.39
271.95	1800.16
272.16	1781.73
272.38	1687.53
272.59	1693.67
272.81	1769.44
273.02	1761.25
273.24	1689.57
273.46	1769.44
273.67	1611.75
273.89	1675.24
274.10	1701.86
274.32	1759.21
274.54	1781.73
274.75	1830.88
274.97	1648.61
275.18	1787.88
275.40	1667.05
275.61	1699.81
275.83	1730.53
276.05	1751.01
276.26	1701.86
276.48	1787.88
276.69	1689.57
276.91	1640.42
277.12	1806.31
277.34	1814.50
277.55	1779.68
277.77	1701.86
277.99	1718.25
278.20	1638.38
278.42	1667.05
278.63	1634.28
278.85	1605.61
279.06	1638.38
279.28	1771.49
279.49	1773.54
279.71	1705.96
279.93	1673.19
280.14	1632.23
280.36	1632.23
280.57	1734.63
280.79	1744.87
281.00	1654.76
281.22	1644.52
281.43	1802.21
281.65	1671.14
281.86	1656.81
282.08	1773.54
282.29	1867.75
282.51	1722.34
282.73	1671.14
282.94	1632.23
283.16	1757.16
283.37	1806.31
283.59	1800.16
283.80	1736.68
284.02	1705.96
284.23	1765.35
284.45	1689.57
284.66	1712.10
284.88	1685.48
285.09	1722.34
285.31	1753.06
285.52	1697.77
285.74	1626.09
285.95	1808.36
286.17	1689.57
286.38	1730.53
286.60	1644.52
286.81	1636.33
287.03	1726.44
287.24	1734.63
287.46	1716.20
287.67	1726.44
287.89	1791.97
288.10	1708.01
288.32	1718.25
288.53	1791.97
288.75	1681.38
288.96	1728.49
289.18	1712.10
289.39	1636.33
289.61	1755.11
289.82	1837.03
290.04	1853.41
290.25	1654.76
290.47	1712.10
290.68	1746.92
290.90	1796.07
291.11	1660.90
291.33	1708.01
291.54	1734.63
291.76	1644.52
291.97	1751.01
292.18	1748.97
292.40	1734.63
292.61	1669.09
292.83	1812.45
293.04	1796.07
293.26	1665.00
293.47	1771.49
293.69	1703.91
293.90	1802.21
294.12	1746.92
294.33	1705.96
294.55	1699.81
294.76	1728.49
294.97	1820.64
295.19	1839.08
295.40	1722.34
295.62	1701.86
295.83	1804.26
296.05	1654.76
296.26	1771.49
296.48	1687.53
296.69	1740.77
296.90	1736.68
297.12	1761.25
297.33	1796.07
297.55	1736.68
297.76	1716.20
297.98	1753.06
298.19	1712.10
298.41	1691.62
298.62	1632.23
298.83	1775.59
299.05	1763.30
299.26	1630.18
299.48	1695.72
299.69	1759.21
299.90	1740.77
300.12	1726.44
300.33	1798.12
300.55	1617.90
300.76	1714.15
300.98	1609.70
301.19	1765.35
301.40	1642.47
301.62	1650.66
301.83	1708.01
302.05	1712.10
302.26	1759.21
302.47	1751.01
302.69	1605.61
302.90	1716.20
303.12	1634.28
303.33	1730.53
303.54	1832.93
303.76	1755.11
303.97	1732.58
304.19	1740.77
304.40	1679.33
304.61	1781.73
304.83	1875.94
305.04	1812.45
305.26	1724.39
305.47	1681.38
305.68	1687.53
305.90	1621.99
306.11	1718.25
306.33	1671.14
306.54	1708.01
306.75	1689.57
306.97	1638.38
307.18	1697.77
307.39	1740.77
307.61	1738.73
307.82	1697.77
308.04	1703.91
308.25	1746.92
308.46	1771.49
308.68	1665.00
308.89	1677.29
309.10	1761.25
309.32	1763.30
309.53	1734.63
309.74	1675.24
309.96	1695.72
310.17	1718.25
310.39	1748.97
310.60	1755.11
310.81	1748.97
311.03	1673.19
311.24	1716.20
311.45	1740.77
311.67	1859.56
311.88	1783.78
312.09	1636.33
312.31	1671.14
312.52	1695.72
312.73	1640.42
312.95	1685.48
313.16	1656.81
313.37	1785.83
313.59	1734.63
313.80	1748.97
314.01	1863.65
314.23	1662.95
314.44	1669.09
314.65	1716.20
314.87	1587.18
315.08	1677.29
315.29	1728.49
315.51	1697.77
315.72	1650.66
315.93	1804.26
316.15	1771.49
316.36	1724.39
316.57	1769.44
316.79	1746.92
317.00	1748.97
317.21	1802.21
317.43	1550.31
317.64	1753.06
317.85	1662.95
318.07	1687.53
318.28	1751.01
318.49	1781.73
318.70	1910.75
318.92	1859.56
319.13	1806.31
319.34	1847.27
319.56	1853.41
319.77	1894.37
319.98	1785.83
320.20	1843.17
320.41	1722.34
320.62	1740.77
320.83	1708.01
321.05	1824.74
321.26	1703.91
321.47	1767.40
321.69	1734.63
321.90	1689.57
322.11	1789.92
322.32	1736.68
322.54	1785.83
322.75	1677.29
322.96	1884.13
323.18	1626.09
323.39	1562.60
323.60	1669.09
323.81	1699.81
324.03	1761.25
324.24	1726.44
324.45	1781.73
324.66	1701.86
324.88	1824.74
325.09	1798.12
325.30	1726.44
325.52	1687.53
325.73	1863.65
325.94	1597.42
326.15	1628.14
326.37	1669.09
326.58	1742.82
326.79	1804.26
327.00	1669.09
327.22	1775.59
327.43	1695.72
327.64	1677.29
327.85	1720.29
328.07	1673.19
328.28	1787.88
328.49	1712.10
328.70	1599.46
328.92	1683.43
329.13	1783.78
329.34	1767.40
329.55	1822.69
329.76	1816.55
329.98	1669.09
330.19	1769.44
330.40	1806.31
330.61	1734.63
330.83	1720.29
331.04	1724.39
331.25	1677.29
331.46	1646.57
331.68	1658.85
331.89	1740.77
332.10	1677.29
332.31	1679.33
332.52	1693.67
332.74	1701.86
332.95	1595.37
333.16	1765.35
333.37	1697.77
333.58	1632.23
333.80	1695.72
334.01	1640.42
334.22	1701.86
334.43	1714.15
334.64	1636.33
334.86	1652.71
335.07	1644.52
335.28	1796.07
335.49	1589.22
335.70	1771.49
335.92	1771.49
336.13	1800.16
336.34	1726.44
336.55	1789.92
336.76	1740.77
336.98	1611.75
337.19	1734.63
337.40	1818.60
337.61	1916.90
337.82	1703.91
338.04	1765.35
338.25	1685.48
338.46	1769.44
338.67	1720.29
338.88	1722.34
339.09	1683.43
339.31	1605.61
339.52	1660.90
339.73	1599.46
339.94	1697.77
340.15	1748.97
340.36	1732.58
340.58	1685.48
340.79	1681.38
341.00	1771.49
341.21	1611.75
341.42	1888.23
341.63	1761.25
341.85	1734.63
342.06	1722.34
342.27	1716.20
342.48	1708.01
342.69	1654.76
342.90	1701.86
343.12	1712.10
343.33	1691.62
343.54	1718.25
343.75	1765.35
343.96	1781.73
344.17	1722.34
344.38	1677.29
344.60	1738.73
344.81	1691.62
345.02	1638.38
345.23	1777.64
345.44	1851.36
345.65	1794.02
345.86	1755.11
346.07	1759.21
346.29	1673.19
346.50	1691.62
346.71	1699.81
346.92	1810.40
347.13	1837.03
347.34	1677.29
347.55	1728.49
347.76	1789.92
347.98	1660.90
348.19	1687.53
348.40	1779.68
348.61	1660.90
348.82	1818.60
349.03	1771.49
349.24	1669.09
349.45	1767.40
349.66	1621.99
349.88	1669.09
350.09	1656.81
350.30	1742.82
350.51	1789.92
350.72	1820.64
350.93	1771.49
351.14	1714.15
351.35	1685.48
351.56	1775.59
351.77	1734.63
351.99	1773.54
352.20	1787.88
352.41	1794.02
352.62	1574.89
352.83	1697.77
353.04	1642.47
353.25	1755.11
353.46	1773.54
353.67	1820.64
353.88	1613.80
354.09	1654.76
354.30	1714.15
354.52	1789.92
354.73	1732.58
354.94	1650.66
355.15	1697.77
355.36	1828.84
355.57	1714.15
355.78	1759.21
355.99	1685.48
356.20	1632.23
356.41	1812.45
356.62	1734.63
356.83	1732.58
357.04	1796.07
357.25	1669.09
357.46	1705.96
357.68	1644.52
357.89	1701.86
358.10	1687.53
358.31	1740.77
358.52	1781.73
358.73	1714.15
358.94	1619.94
359.15	1675.24
359.36	1697.77
359.57	1685.48
359.78	1687.53
359.99	1757.16
360.20	1628.14
360.41	1736.68
360.62	1746.92
360.83	1722.34
361.04	1748.97
361.25	1675.24
361.46	1789.92
361.67	1681.38
361.88	1787.88
362.09	1789.92
362.30	1783.78
362.51	1718.25
362.72	1714.15
362.93	1767.40
363.14	1773.54
363.35	1701.86
363.56	1746.92
363.78	1865.70
363.99	1771.49
364.20	1746.92
364.41	1675.24
364.62	1837.03
364.83	1765.35
365.04	1685.48
365.25	1687.53
365.46	1791.97
365.67	1716.20
365.88	1689.57
366.09	1714.15
366.30	1677.29
366.51	1724.39
366.72	1607.66
366.93	1679.33
367.14	1675.24
367.35	1726.44
367.56	1687.53
367.77	1789.92
367.98	1826.79
368.18	1753.06
368.39	1796.07
368.60	1775.59
368.81	1730.53
369.02	1781.73
369.23	1718.25
369.44	1615.85
369.65	1685.48
369.86	1691.62
370.07	1730.53
370.28	1689.57
370.49	1675.24
370.70	1724.39
370.91	1708.01
371.12	1665.00
371.33	1751.01
371.54	1624.04
371.75	1832.93
371.96	1556.46
372.17	1765.35
372.38	1681.38
372.59	1775.59
372.80	1660.90
373.01	1632.23
373.22	1708.01
373.43	1681.38
373.64	1650.66
373.85	1814.50
374.06	1767.40
374.26	1753.06
374.47	1763.30
374.68	1773.54
374.89	1744.87
375.10	1763.30
375.31	1742.82
375.52	1650.66
375.73	1708.01
375.94	1701.86
376.15	1830.88
376.36	1671.14
376.57	1595.37
376.78	1738.73
376.99	1740.77
377.20	1837.03
377.40	1691.62
377.61	1789.92
377.82	1685.48
378.03	1806.31
378.24	1783.78
378.45	1789.92
378.66	1632.23
378.87	1679.33
379.08	1626.09
379.29	1701.86
379.50	1818.60
379.71	1738.73
379.91	1708.01
380.12	1699.81
380.33	1734.63
380.54	1679.33
380.75	1718.25
380.96	1708.01
381.17	1802.21
381.38	1796.07
381.59	1673.19
381.80	1665.00
382.00	1855.46
382.21	1816.55
382.42	1875.94
382.63	1859.56
382.84	1812.45
383.05	1791.97
383.26	1826.79
383.47	1802.21
383.68	1814.50
383.88	1771.49
384.09	1800.16
384.30	1859.56
384.51	1730.53
384.72	1751.01
384.93	1679.33
385.14	1681.38
385.35	1789.92
385.55	1691.62
385.76	1787.88
385.97	1800.16
386.18	1708.01
386.39	1714.15
386.60	1656.81
386.81	1699.81
387.02	1679.33
387.22	1693.67
387.43	1867.75
387.64	1761.25
387.85	1898.47
388.06	2133.98
388.27	4270.01
388.48	6760.34
388.68	8142.72
388.89	9578.35
389.10	9793.39
389.31	8705.92
389.52	7602.06
389.73	6811.54
389.93	6158.24
390.14	5984.16
390.35	5162.93
390.56	4632.51
390.77	3643.34
390.98	2979.79
391.18	2467.80
391.39	2123.74
391.60	1918.95
391.81	1929.19
392.02	1757.16
392.23	1855.46
392.43	1773.54
392.64	1847.27
392.85	1765.35
393.06	1818.60
393.27	1744.87
393.47	1673.19
393.68	1695.72
393.89	1722.34
394.10	1820.64
394.31	1648.61
394.52	1697.77
394.72	1757.16
394.93	1800.16
395.14	1638.38
395.35	1705.96
395.56	1685.48
395.76	1796.07
395.97	1779.68
396.18	1800.16
396.39	1779.68
396.60	2060.26
396.80	1931.23
397.01	1908.71
397.22	1886.18
397.43	1861.60
397.64	1794.02
397.84	1757.16
398.05	1873.89
398.26	1730.53
398.47	1771.49
398.67	1841.12
398.88	1757.16
399.09	1726.44
399.30	1683.43
399.51	1800.16
399.71	1699.81
399.92	1742.82
400.13	1753.06
400.34	1740.77
400.54	1685.48
400.75	1730.53
400.96	1703.91
401.17	1851.36
401.37	1759.21
401.58	1640.42
401.79	1677.29
402.00	1863.65
402.21	2052.06
402.41	1949.67
402.62	1941.47
402.83	2082.78
403.04	2004.96
403.24	2107.36
403.45	1877.99
403.66	1976.29
403.87	1857.51
404.07	1920.99
404.28	1877.99
404.49	1980.39
404.70	1685.48
404.90	1806.31
405.11	1755.11
405.32	1771.49
405.52	1740.77
405.73	1691.62
405.94	1685.48
406.15	1685.48
406.35	1710.05
406.56	1810.40
406.77	1683.43
406.98	1767.40
407.18	1685.48
407.39	1800.16
407.60	1656.81
407.80	1802.21
408.01	1642.47
408.22	1697.77
408.43	1734.63
408.63	1742.82
408.84	1724.39
409.05	1748.97
409.25	1648.61
409.46	1697.77
409.67	1722.34
409.88	1681.38
410.08	1705.96
410.29	1681.38
410.50	1708.01
410.70	1771.49
410.91	1669.09
411.12	1751.01
411.32	1738.73
411.53	1716.20
411.74	1751.01
411.95	1777.64
412.15	1775.59
412.36	1761.25
412.57	1730.53
412.77	1806.31
412.98	1667.05
413.19	1751.01
413.39	1802.21
413.60	1652.71
413.81	1773.54
414.01	1650.66
414.22	1744.87
414.43	1734.63
414.63	1693.67
414.84	1716.20
415.05	1705.96
415.25	1589.22
415.46	1658.85
415.67	1740.77
415.87	1779.68
416.08	1724.39
416.29	1712.10
416.49	1712.10
416.70	1585.13
416.91	1712.10
417.11	1718.25
417.32	1775.59
417.53	1802.21
417.73	1798.12
417.94	1675.24
418.15	1697.77
418.35	1691.62
418.56	1708.01
418.77	1904.61
418.97	1798.12
419.18	1714.15
419.38	1554.41
419.59	1785.83
419.80	1779.68
420.00	1722.34
420.21	1779.68
420.42	1820.64
420.62	1732.58
420.83	1710.05
421.04	1675.24
421.24	1748.97
421.45	1818.60
421.65	1769.44
421.86	1679.33
422.07	1722.34
422.27	1748.97
422.48	1734.63
422.69	1591.27
422.89	1726.44
423.10	1658.85
423.30	1681.38
423.51	1695.72
423.72	1767.40
423.92	1787.88
424.13	1677.29
424.33	1761.25
424.54	1753.06
424.75	1681.38
424.95	1832.93
425.16	1736.68
425.36	1701.86
425.57	1806.31
425.78	1697.77
425.98	1781.73
426.19	1722.34
426.39	1761.25
426.60	1757.16
426.81	1767.40
427.01	1751.01
427.22	1693.67
427.42	1581.03
427.63	1650.66
427.83	1697.77
428.04	1888.23
428.25	1746.92
428.45	1804.26
428.66	1845.22
428.86	1634.28
429.07	1671.14
429.28	1691.62
429.48	1742.82
429.69	1689.57
429.89	1808.36
430.10	1683.43
430.30	1734.63
430.51	1794.02
430.71	1619.94
430.92	1648.61
431.13	1701.86
431.33	1781.73
431.54	1757.16
431.74	1808.36
431.95	1888.23
432.15	1732.58
432.36	1722.34
432.56	1773.54
432.77	1867.75
432.98	1802.21
433.18	1783.78
433.39	1748.97
433.59	1689.57
433.80	1861.60
434.00	1861.60
434.21	1667.05
434.41	1673.19
434.62	1785.83
434.82	1714.15
435.03	1744.87
435.23	1728.49
435.44	1644.52
435.64	1816.55
435.85	1763.30
436.06	1820.64
436.26	1796.07
436.47	1654.76
436.67	1761.25
436.88	1646.57
437.08	1716.20
437.29	1800.16
437.49	1740.77
437.70	1751.01
437.90	1722.34
438.11	1884.13
438.31	1753.06
438.52	1837.03
438.72	1871.84
438.93	1904.61
439.13	1746.92
439.34	1767.40
439.54	1730.53
439.75	1794.02
439.95	1832.93
440.16	1734.63
440.36	1773.54
440.57	1787.88
440.77	1802.21
440.98	1761.25
441.18	1773.54
441.39	1734.63
441.59	1757.16
441.80	1906.66
442.00	1781.73
442.21	1830.88
442.41	1677.29
442.62	1828.84
442.82	1683.43
443.02	1683.43
443.23	1742.82
443.43	1699.81
443.64	1806.31
443.84	1693.67
444.05	1867.75
444.25	1759.21
444.46	1689.57
444.66	1777.64
444.87	1884.13
445.07	1628.14
445.28	1785.83
445.48	1837.03
445.69	1773.54
445.89	1886.18
446.09	1753.06
446.30	1970.15
446.50	2676.70
446.71	3704.78
446.91	4253.63
447.12	4659.13
447.32	4839.35
447.53	4450.24
447.73	3991.49
447.93	3444.68
448.14	3305.42
448.34	3176.40
448.55	2861.01
448.75	2858.96
448.96	2678.74
449.16	2488.28
449.36	2340.83
449.57	2058.21
449.77	1859.56
449.98	1791.97
450.18	1892.32
450.39	1804.26
450.59	1763.30
450.79	1751.01
451.00	1751.01
451.20	1828.84
451.41	1695.72
451.61	1738.73
451.81	1771.49
452.02	1810.40
452.22	1675.24
452.43	1652.71
452.63	1712.10
452.84	1751.01
453.04	1773.54
453.24	1806.31
453.45	1679.33
453.65	1775.59
453.86	1761.25
454.06	1734.63
454.26	1744.87
454.47	1697.77
454.67	1787.88
454.87	1812.45
455.08	1740.77
455.28	1843.17
455.49	1771.49
455.69	1755.11
455.89	1785.83
456.10	1785.83
456.30	1740.77
456.51	1828.84
456.71	1763.30
456.91	1697.77
457.12	1798.12
457.32	1763.30
457.52	1712.10
457.73	1763.30
457.93	1783.78
458.14	1732.58
458.34	1640.42
458.54	1708.01
458.75	1689.57
458.95	1767.40
459.15	1779.68
459.36	1759.21
459.56	1812.45
459.76	1849.32
459.97	1685.48
460.17	1673.19
460.37	1814.50
460.58	1722.34
460.78	1751.01
460.99	1685.48
461.19	1701.86
461.39	1757.16
461.60	1755.11
461.80	1794.02
462.00	1689.57
462.21	1751.01
462.41	1705.96
462.61	1658.85
462.82	1708.01
463.02	1722.34
463.22	1708.01
463.43	1880.04
463.63	1703.91
463.83	1787.88
464.04	1714.15
464.24	1787.88
464.44	1675.24
464.64	1689.57
464.85	1734.63
465.05	1775.59
465.25	1746.92
465.46	1699.81
465.66	1796.07
465.86	1767.40
466.07	1746.92
466.27	1738.73
466.47	1646.57
466.68	1646.57
466.88	1880.04
467.08	1755.11
467.29	1763.30
467.49	1753.06
467.69	1787.88
467.89	1744.87
468.10	1671.14
468.30	1761.25
468.50	1814.50
468.71	1732.58
468.91	1683.43
469.11	1884.13
469.31	1693.67
469.52	1619.94
469.72	1794.02
469.92	1843.17
470.13	1789.92
470.33	1720.29
470.53	1796.07
470.73	2138.08
470.94	2303.96
471.14	2308.06
471.34	2547.67
471.54	2422.75
471.75	2203.61
471.95	2160.61
472.15	2101.22
472.36	2050.02
472.56	2115.55
472.76	2039.78
472.96	2045.92
473.17	1943.52
473.37	2027.49
473.57	1802.21
473.77	1783.78
473.98	1769.44
474.18	1671.14
474.38	1906.66
474.58	1744.87
474.79	1632.23
474.99	1816.55
475.19	1814.50
475.39	1712.10
475.60	1763.30
475.80	1765.35
476.00	1763.30
476.20	1703.91
476.41	1699.81
476.61	1759.21
476.81	1779.68
477.01	1744.87
477.21	1855.46
477.42	1859.56
477.62	1722.34
477.82	1775.59
478.02	1697.77
478.23	1779.68
478.43	1667.05
478.63	1656.81
478.83	1767.40
479.03	1757.16
479.24	1789.92
479.44	1796.07
479.64	1710.05
479.84	1558.50
480.04	1716.20
480.25	1779.68
480.45	1714.15
480.65	1738.73
480.85	1861.60
481.06	1738.73
481.26	1736.68
481.46	1751.01
481.66	1732.58
481.86	1667.05
482.06	1779.68
482.27	1699.81
482.47	1681.38
482.67	1773.54
482.87	1699.81
483.07	1808.36
483.28	1632.23
483.48	1658.85
483.68	1691.62
483.88	1728.49
484.08	1605.61
484.29	1705.96
484.49	1650.66
484.69	1689.57
484.89	1757.16
485.09	1837.03
485.29	1783.78
485.50	1746.92
485.70	1693.67
485.90	1828.84
486.10	1755.11
486.30	1705.96
486.50	1857.51
486.71	1697.77
486.91	1742.82
487.11	1800.16
487.31	1660.90
487.51	1736.68
487.71	1685.48
487.91	1626.09
488.12	1734.63
488.32	1646.57
488.52	1724.39
488.72	1697.77
488.92	1744.87
489.12	1787.88
489.32	1814.50
489.53	1775.59
489.73	1656.81
489.93	1880.04
490.13	1656.81
490.33	1634.28
490.53	1789.92
490.73	1863.65
490.94	1675.24
491.14	1783.78
491.34	1816.55
491.54	2074.59
491.74	2525.15
491.94	2910.16
492.14	3123.15
492.34	3043.28
492.54	2760.66
492.75	2531.29
492.95	2353.12
493.15	2344.92
493.35	2338.78
493.55	2277.34
493.75	2158.56
493.95	2207.71
494.15	1996.77
494.35	1951.71
494.56	1839.08
494.76	1757.16
494.96	1832.93
495.16	1765.35
495.36	1740.77
495.56	1789.92
495.76	1779.68
495.96	1730.53
496.16	1718.25
496.36	1814.50
496.56	1794.02
496.77	1734.63
496.97	1685.48
497.17	1775.59
497.37	1679.33
497.57	1777.64
497.77	1726.44
497.97	1681.38
498.17	1748.97
498.37	1716.20
498.57	1755.11
498.77	1699.81
498.97	1718.25
499.17	1763.30
499.38	1757.16
499.58	1742.82
499.78	1712.10
499.98	1841.12
500.18	1732.58
500.38	1765.35
500.58	1943.52
500.78	2525.15
500.98	4609.98
501.18	5861.29
501.38	6938.52
501.58	7237.52
501.78	6557.60
501.98	5619.63
502.18	5064.63
502.38	4546.49
502.58	4081.60
502.78	3844.04
502.98	3733.45
503.18	3567.56
503.38	3215.31
503.59	2818.00
503.79	2748.37
503.99	2559.96
504.19	2334.68
504.39	2330.59
504.59	2207.71
504.79	2117.60
504.99	2062.30
505.19	1920.99
505.39	1914.85
505.59	2004.96
505.79	1959.91
505.99	1890.28
506.19	1865.70
506.39	1896.42
506.59	1777.64
506.79	1843.17
506.99	1828.84
507.19	1828.84
507.39	1767.40
507.59	1677.29
507.79	1814.50
507.99	1746.92
508.19	1759.21
508.39	1714.15
508.59	1777.64
508.79	1863.65
508.99	1828.84
509.19	1738.73
509.39	1701.86
509.59	1740.77
509.79	1675.24
509.99	1832.93
510.19	1755.11
510.39	1806.31
510.59	1822.69
510.79	1716.20
510.99	1646.57
511.19	1738.73
511.39	1755.11
511.59	1808.36
511.79	1757.16
511.99	1722.34
512.19	1837.03
512.38	1738.73
512.58	1693.67
512.78	1722.34
512.98	1841.12
513.18	1830.88
513.38	1681.38
513.58	1755.11
513.78	1763.30
513.98	1798.12
514.18	1693.67
514.38	1656.81
514.58	1830.88
514.78	1687.53
514.98	1665.00
515.18	1685.48
515.38	1726.44
515.58	1828.84
515.78	1673.19
515.98	1765.35
516.18	1779.68
516.38	1751.01
516.57	1779.68
516.77	1724.39
516.97	1732.58
517.17	1675.24
517.37	1636.33
517.57	1855.46
517.77	1730.53
517.97	1626.09
518.17	1738.73
518.37	1716.20
518.57	1624.04
518.77	1675.24
518.97	1767.40
519.16	1712.10
519.36	1783.78
519.56	1738.73
519.76	1708.01
519.96	1738.73
520.16	1861.60
520.36	1701.86
520.56	1841.12
520.76	1724.39
520.96	1816.55
521.16	1861.60
521.35	1830.88
521.55	1820.64
521.75	1751.01
521.95	1677.29
522.15	1722.34
522.35	1705.96
522.55	1705.96
522.75	1769.44
522.95	1732.58
523.14	1703.91
523.34	1744.87
523.54	1738.73
523.74	1814.50
523.94	1738.73
524.14	1683.43
524.34	1791.97
524.54	1828.84
524.73	1615.85
524.93	1755.11
525.13	1728.49
525.33	1654.76
525.53	1929.19
525.73	1843.17
525.93	1785.83
526.13	1673.19
526.32	1746.92
526.52	1798.12
526.72	1853.41
526.92	1669.09
527.12	1673.19
527.32	1671.14
527.52	1765.35
527.71	1824.74
527.91	1820.64
528.11	1658.85
528.31	1687.53
528.51	1677.29
528.71	1794.02
528.90	1744.87
529.10	1834.98
529.30	1834.98
529.50	1681.38
529.70	1742.82
529.90	1753.06
530.09	1697.77
530.29	1701.86
530.49	1656.81
530.69	1880.04
530.89	1785.83
531.09	1722.34
531.28	1773.54
531.48	1794.02
531.68	1724.39
531.88	1773.54
532.08	1775.59
532.28	1728.49
532.47	1714.15
532.67	1740.77
532.87	1814.50
533.07	1714.15
533.27	1826.79
533.46	1728.49
533.66	1757.16
533.86	1771.49
534.06	1730.53
534.26	1730.53
534.45	1732.58
534.65	1785.83
534.85	1763.30
535.05	1720.29
535.25	1877.99
535.44	1611.75
535.64	1802.21
535.84	1720.29
536.04	1652.71
536.24	1695.72
536.43	1740.77
536.63	1794.02
536.83	1679.33
537.03	1761.25
537.22	1611.75
537.42	1679.33
537.62	1687.53
537.82	1697.77
538.02	1808.36
538.21	1779.68
538.41	1906.66
538.61	1808.36
538.81	1736.68
539.00	1849.32
539.20	1636.33
539.40	1716.20
539.60	1730.53
539.79	1687.53
539.99	1662.95
540.19	1710.05
540.39	1767.40
540.58	1800.16
540.78	1867.75
540.98	1703.91
541.18	1849.32
541.37	1771.49
541.57	1703.91
541.77	1781.73
541.97	1732.58
542.16	1667.05
542.36	1787.88
542.56	1763.30
542.76	1892.32
542.95	1816.55
543.15	1720.29
543.35	1820.64
543.54	1708.01
543.74	1689.57
543.94	1730.53
544.14	1673.19
544.33	1757.16
544.53	1705.96
544.73	1701.86
544.93	1732.58
545.12	1712.10
545.32	1755.11
545.52	1689.57
545.71	1652.71
545.91	1714.15
546.11	1751.01
546.30	1656.81
546.50	1757.16
546.70	1791.97
546.90	1724.39
547.09	1736.68
547.29	1773.54
547.49	1796.07
547.68	1687.53
547.88	1689.57
548.08	1775.59
548.27	2209.76
548.47	1787.88
548.67	1691.62
548.87	1724.39
549.06	1658.85
549.26	1800.16
549.46	1769.44
549.65	1673.19
549.85	1703.91
550.05	1730.53
550.24	1691.62
550.44	1742.82
550.64	1679.33
550.83	1697.77
551.03	1832.93
551.23	1755.11
551.42	1789.92
551.62	1773.54
551.82	1800.16
552.01	1742.82
552.21	1869.80
552.41	1757.16
552.60	1900.52
552.80	1746.92
553.00	1697.77
553.19	1802.21
553.39	1873.89
553.59	1669.09
553.78	1796.07
553.98	1818.60
554.17	1724.39
554.37	1787.88
554.57	1802.21
554.76	1681.38
554.96	1660.90
555.16	1824.74
555.35	1765.35
555.55	1757.16
555.75	1724.39
555.94	1810.40
556.14	1675.24
556.33	1837.03
556.53	1730.53
556.73	1757.16
556.92	1816.55
557.12	1847.27
557.32	1814.50
557.51	1873.89
557.71	1841.12
557.90	1853.41
558.10	1865.70
558.30	1755.11
558.49	1787.88
558.69	1697.77
558.88	1781.73
559.08	1765.35
559.28	1783.78
559.47	1767.40
559.67	1822.69
559.86	1900.52
560.06	1767.40
560.26	1773.54
560.45	1710.05
560.65	1763.30
560.84	1808.36
561.04	1685.48
561.24	1785.83
561.43	1615.85
561.63	1847.27
561.82	1730.53
562.02	1802.21
562.22	1578.98
562.41	1640.42
562.61	1683.43
562.80	1691.62
563.00	1857.51
563.19	1769.44
563.39	1757.16
563.59	1791.97
563.78	1650.66
563.98	1628.14
564.17	1751.01
564.37	1626.09
564.56	1703.91
564.76	1689.57
564.96	1777.64
565.15	1748.97
565.35	1902.56
565.54	1669.09
565.74	1718.25
565.93	1804.26
566.13	1736.68
566.32	1738.73
566.52	1781.73
566.71	1804.26
566.91	1816.55
567.11	1773.54
567.30	1718.25
567.50	1777.64
567.69	1820.64
567.89	1777.64
568.08	1716.20
568.28	1808.36
568.47	1656.81
568.67	1763.30
568.86	1765.35
569.06	1757.16
569.25	1834.98
569.45	1673.19
569.64	1771.49
569.84	1728.49
570.04	1800.16
570.23	1785.83
570.43	1771.49
570.62	1769.44
570.82	1867.75
571.01	1671.14
571.21	1738.73
571.40	1716.20
571.60	1779.68
571.79	1755.11
571.99	1742.82
572.18	1689.57
572.38	1777.64
572.57	1738.73
572.77	1701.86
572.96	1941.47
573.16	1703.91
573.35	1742.82
573.55	1894.37
573.74	1830.88
573.94	1730.53
574.13	1777.64
574.33	1779.68
574.52	1834.98
574.71	1714.15
574.91	1818.60
575.10	1660.90
575.30	1683.43
575.49	1689.57
575.69	1738.73
575.88	1677.29
576.08	1716.20
576.27	1800.16
576.47	1654.76
576.66	1853.41
576.86	1804.26
577.05	1804.26
577.25	1767.40
577.44	1923.04
577.64	1701.86
577.83	1771.49
578.02	1746.92
578.22	1859.56
578.41	1904.61
578.61	1816.55
578.80	1722.34
579.00	1763.30
579.19	1710.05
579.39	1791.97
579.58	1765.35
579.77	1773.54
579.97	1834.98
580.16	1834.98
580.36	1880.04
580.55	1828.84
580.75	1689.57
580.94	1738.73
581.13	1871.84
581.33	1892.32
581.52	1789.92
581.72	1894.37
581.91	1867.75
582.11	1779.68
582.30	1808.36
582.49	1800.16
582.69	1812.45
582.88	1789.92
583.08	1771.49
583.27	1798.12
583.47	1839.08
583.66	1740.77
583.85	1789.92
584.05	1843.17
584.24	1755.11
584.44	1804.26
584.63	1869.80
584.82	1804.26
585.02	1902.56
585.21	1923.04
585.41	1843.17
585.60	1849.32
585.79	1923.04
585.99	1910.75
586.18	1908.71
586.37	2174.94
586.57	3379.15
586.76	9977.70
586.96	24774.28
587.15	34543.09
587.34	40377.75
587.54	41993.60
587.73	36785.61
587.93	26457.71
588.12	21434.04
588.31	18007.79
588.51	16236.30
588.70	14944.03
588.89	14112.55
589.09	12453.70
589.28	10864.47
589.47	9465.71
589.67	7997.32
589.86	6420.38
590.06	4966.32
590.25	3878.85
590.44	3102.67
590.64	2617.30
590.83	2344.92
591.02	2123.74
591.22	1953.76
591.41	1910.75
591.60	1871.84
591.80	1947.62
591.99	1769.44
592.18	1808.36
592.38	1904.61
592.57	1849.32
592.76	1783.78
592.96	1802.21
593.15	1751.01
593.34	1814.50
593.54	1740.77
593.73	1853.41
593.92	1816.55
594.12	1751.01
594.31	1806.31
594.50	1828.84
594.70	1816.55
594.89	1865.70
595.08	1712.10
595.28	1757.16
595.47	1927.14
595.66	1839.08
595.86	1617.90
596.05	1697.77
596.24	1812.45
596.43	1800.16
596.63	1794.02
596.82	1744.87
597.01	1736.68
597.21	1894.37
597.40	1789.92
597.59	1769.44
597.79	1767.40
597.98	1806.31
598.17	1775.59
598.36	1771.49
598.56	1861.60
598.75	1755.11
598.94	1693.67
599.14	1798.12
599.33	1722.34
599.52	1839.08
599.71	1705.96
599.91	1802.21
600.10	1837.03
600.29	1769.44
600.48	1826.79
600.68	1765.35
600.87	1824.74
601.06	1728.49
601.26	1810.40
601.45	1746.92
601.64	1712.10
601.83	1853.41
602.03	1742.82
602.22	1744.87
602.41	1832.93
602.60	1894.37
602.80	1779.68
602.99	1777.64
603.18	1714.15
603.37	1761.25
603.57	1763.30
603.76	1800.16
603.95	1757.16
604.14	1734.63
604.34	1683.43
604.53	1777.64
604.72	1732.58
604.91	1748.97
605.10	1804.26
605.30	1673.19
605.49	1839.08
605.68	1796.07
605.87	1816.55
606.07	1705.96
606.26	1800.16
606.45	1765.35
606.64	1791.97
606.84	1734.63
607.03	1779.68
607.22	1746.92
607.41	1724.39
607.60	1705.96
607.80	1765.35
607.99	1742.82
608.18	1703.91
608.37	1722.34
608.56	1683.43
608.76	1826.79
608.95	1763.30
609.14	1767.40
609.33	1796.07
609.52	1808.36
609.72	1718.25
609.91	1789.92
610.10	1728.49
610.29	1767.40
610.48	1705.96
610.68	1785.83
610.87	1648.61
611.06	1738.73
611.25	1660.90
611.44	1808.36
611.63	1714.15
611.83	1884.13
612.02	1677.29
612.21	1826.79
612.40	1652.71
612.59	1660.90
612.79	1656.81
612.98	1685.48
613.17	1851.36
613.36	1714.15
613.55	1794.02
613.74	1736.68
613.93	1662.95
614.13	1722.34
614.32	1718.25
614.51	1748.97
614.70	1716.20
614.89	1679.33
615.08	1804.26
615.28	2086.88
615.47	1708.01
615.66	1724.39
615.85	1697.77
616.04	1796.07
616.23	1705.96
616.42	1734.63
616.62	1798.12
616.81	1789.92
617.00	1755.11
617.19	1851.36
617.38	1777.64
617.57	1740.77
617.76	1787.88
617.95	1806.31
618.15	1748.97
618.34	1824.74
618.53	1679.33
618.72	1789.92
618.91	1785.83
619.10	1875.94
619.29	1779.68
619.48	1748.97
619.68	1714.15
619.87	1818.60
620.06	1730.53
620.25	1800.16
620.44	1691.62
620.63	1744.87
620.82	1689.57
621.01	1794.02
621.20	1734.63
621.39	1787.88
621.59	1720.29
621.78	1787.88
621.97	1759.21
622.16	1812.45
622.35	1708.01
622.54	1748.97
622.73	1761.25
622.92	1677.29
623.11	1773.54
623.30	1751.01
623.49	1791.97
623.68	1619.94
623.88	1826.79
624.07	1785.83
624.26	1726.44
624.45	1787.88
624.64	1746.92
624.83	1826.79
625.02	1753.06
625.21	1718.25
625.40	1720.29
625.59	1791.97
625.78	1718.25
625.97	1845.22
626.16	1740.77
626.35	1871.84
626.54	1761.25
626.74	1746.92
626.93	1732.58
627.12	1740.77
627.31	1814.50
627.50	1712.10
627.69	1794.02
627.88	1773.54
628.07	1771.49
628.26	1597.42
628.45	1722.34
628.64	1693.67
628.83	1740.77
629.02	1689.57
629.21	1837.03
629.40	1724.39
629.59	1658.85
629.78	1769.44
629.97	1757.16
630.16	1665.00
630.35	1726.44
630.54	1740.77
630.73	1699.81
630.92	1648.61
631.11	1728.49
631.30	1777.64
631.49	1759.21
631.68	1755.11
631.87	1775.59
632.06	1632.23
632.25	1847.27
632.44	1759.21
632.63	1810.40
632.82	1712.10
633.01	1619.94
633.20	1722.34
633.39	1738.73
633.58	1644.52
633.77	1742.82
633.96	1787.88
634.15	1759.21
634.34	1765.35
634.53	1732.58
634.72	1683.43
634.91	1665.00
635.10	1814.50
635.29	1718.25
635.48	1742.82
635.67	1640.42
635.86	1691.62
636.05	1761.25
636.24	1746.92
636.43	1777.64
636.62	1775.59
636.81	1615.85
637.00	1705.96
637.19	1677.29
637.38	1740.77
637.57	1634.28
637.76	1689.57
637.95	1679.33
638.14	1714.15
638.33	1841.12
638.52	1742.82
638.71	1693.67
638.89	1677.29
639.08	1841.12
639.27	1744.87
639.46	1763.30
639.65	1877.99
639.84	1679.33
640.03	1830.88
640.22	1689.57
640.41	1820.64
640.60	1687.53
640.79	1738.73
640.98	1722.34
641.17	1818.60
641.36	1720.29
641.55	1689.57
641.74	1613.80
641.92	1742.82
642.11	1636.33
642.30	1634.28
642.49	1695.72
642.68	1695.72
642.87	1726.44
643.06	1794.02
643.25	1677.29
643.44	1648.61
643.63	1693.67
643.82	1771.49
644.00	1658.85
644.19	1671.14
644.38	1730.53
644.57	1705.96
644.76	1730.53
644.95	1673.19
645.14	1740.77
645.33	1712.10
645.52	1734.63
645.71	1648.61
645.89	1705.96
646.08	1740.77
646.27	1697.77
646.46	1818.60
646.65	1683.43
646.84	1845.22
647.03	1669.09
647.22	1837.03
647.40	1714.15
647.59	1701.86
647.78	1660.90
647.97	1691.62
648.16	1710.05
648.35	1763.30
648.54	1800.16
648.73	1710.05
648.91	1794.02
649.10	1800.16
649.29	1718.25
649.48	1728.49
649.67	1697.77
649.86	1753.06
650.05	1714.15
650.23	1759.21
650.42	1697.77
650.61	1742.82
650.80	1730.53
650.99	1871.84
651.18	1765.35
651.36	1871.84
651.55	1621.99
651.74	1748.97
651.93	1642.47
652.12	1771.49
652.31	1761.25
652.49	1751.01
652.68	1693.67
652.87	1828.84
653.06	1708.01
653.25	1785.83
653.44	1714.15
653.62	1781.73
653.81	1705.96
654.00	1685.48
654.19	1669.09
654.38	1861.60
654.56	1759.21
654.75	1683.43
654.94	1753.06
655.13	1810.40
655.32	1726.44
655.51	1794.02
655.69	1646.57
655.88	1802.21
656.07	1714.15
656.26	1839.08
656.45	1636.33
656.63	1746.92
656.82	1746.92
657.01	1742.82
657.20	1695.72
657.38	1810.40
657.57	1648.61
657.76	1699.81
657.95	1767.40
658.14	1714.15
658.32	1812.45
658.51	1626.09
658.70	1716.20
658.89	1769.44
659.08	1720.29
659.26	1867.75
659.45	1730.53
659.64	1800.16
659.83	1699.81
660.01	1884.13
660.20	1746.92
660.39	1834.98
660.58	1615.85
660.76	1779.68
660.95	1656.81
661.14	1746.92
661.33	1650.66
661.51	1740.77
661.70	1716.20
661.89	1748.97
662.08	1781.73
662.26	1667.05
662.45	1679.33
662.64	1763.30
662.83	1759.21
663.01	1570.79
663.20	1619.94
663.39	1855.46
663.58	1697.77
663.76	1761.25
663.95	1687.53
664.14	1644.52
664.32	1771.49
664.51	1671.14
664.70	1621.99
664.89	1820.64
665.07	1681.38
665.26	1841.12
665.45	1683.43
665.64	1771.49
665.82	1730.53
666.01	1755.11
666.20	1673.19
666.38	1828.84
666.57	1824.74
666.76	2197.47
666.95	4579.26
667.13	10569.57
667.32	15568.66
667.51	17909.49
667.69	19228.38
667.88	17843.95
668.07	12298.05
668.25	9594.73
668.44	8130.44
668.63	7341.97
668.81	6866.84
669.00	6311.84
669.19	5834.66
669.38	5081.01
669.56	4546.49
669.75	3987.40
669.94	3434.44
670.12	2893.78
670.31	2537.43
670.50	2291.68
670.68	2088.93
670.87	1923.04
671.06	1773.54
671.24	1794.02
671.43	1806.31
671.62	1757.16
671.80	1669.09
671.99	1724.39
672.18	1834.98
672.36	1753.06
672.55	1765.35
672.74	1718.25
672.92	1691.62
673.11	1734.63
673.29	1695.72
673.48	1867.75
673.67	1689.57
673.85	1802.21
674.04	1689.57
674.23	1794.02
674.41	1873.89
674.60	1701.86
674.79	1593.32
674.97	1665.00
675.16	1744.87
675.34	1728.49
675.53	1796.07
675.72	1732.58
675.90	1785.83
676.09	1693.67
676.28	1695.72
676.46	1720.29
676.65	1771.49
676.83	1613.80
677.02	1714.15
677.21	1734.63
677.39	1734.63
677.58	1726.44
677.77	1708.01
677.95	1753.06
678.14	1759.21
678.32	1759.21
678.51	1669.09
678.70	1902.56
678.88	1665.00
679.07	1734.63
679.25	1654.76
679.44	1695.72
679.63	1624.04
679.81	1794.02
680.00	1767.40
680.18	1771.49
680.37	1738.73
680.55	1769.44
680.74	1638.38
680.93	1644.52
681.11	1695.72
681.30	1730.53
681.48	1761.25
681.67	1771.49
681.85	1832.93
682.04	1724.39
682.23	1755.11
682.41	1730.53
682.60	1613.80
682.78	1794.02
682.97	1691.62
683.15	1738.73
683.34	1759.21
683.53	1853.41
683.71	1665.00
683.90	1804.26
684.08	1810.40
684.27	1660.90
684.45	1667.05
684.64	1767.40
684.82	1640.42
685.01	1724.39
685.19	1765.35
685.38	1787.88
685.57	1687.53
685.75	1718.25
685.94	1730.53
686.12	1708.01
686.31	1599.46
686.49	1824.74
686.68	1691.62
686.86	1767.40
687.05	1660.90
687.23	1798.12
687.42	1669.09
687.60	1628.14
687.79	1673.19
687.97	1787.88
688.16	1837.03
688.34	1806.31
688.53	1652.71
688.71	1773.54
688.90	1796.07
689.08	1609.70
689.27	1599.46
689.45	1796.07
689.64	1755.11
689.82	1748.97
690.01	1734.63
690.19	1798.12
690.38	1742.82
690.56	1773.54
690.75	1703.91
690.93	1701.86
691.12	1662.95
691.30	1636.33
691.49	1667.05
691.67	1755.11
691.86	1826.79
692.04	1685.48
692.23	1673.19
692.41	1794.02
692.60	1810.40
692.78	1769.44
692.97	1693.67
693.15	1744.87
693.34	1796.07
693.52	1775.59
693.71	1701.86
693.89	1697.77
694.08	1603.56
694.26	1777.64
694.44	1708.01
694.63	1769.44
694.81	1640.42
695.00	1705.96
695.18	1701.86
695.37	1935.33
695.55	1699.81
695.74	1644.52
695.92	1673.19
696.10	1820.64
696.29	1626.09
696.47	1722.34
696.66	1697.77
696.84	1675.24
697.03	1701.86
697.21	1789.92
697.40	2330.59
697.58	1746.92
697.76	1671.14
697.95	1665.00
698.13	1656.81
698.32	1716.20
698.50	1798.12
698.68	1730.53
698.87	1730.53
699.05	1789.92
699.24	1677.29
699.42	1648.61
699.61	1753.06
699.79	1724.39
699.97	1761.25
700.16	1593.32
700.34	1683.43
700.53	1730.53
700.71	1785.83
700.89	1757.16
701.08	1705.96
701.26	1755.11
701.45	2142.18
701.63	1722.34
701.81	1593.32
702.00	1701.86
702.18	1767.40
702.37	1679.33
702.55	1789.92
702.73	1665.00
702.92	1667.05
703.10	1718.25
703.28	1726.44
703.47	1771.49
703.65	1726.44
703.84	1812.45
704.02	1710.05
704.20	1828.84
704.39	1753.06
704.57	1730.53
704.75	1720.29
704.94	1681.38
705.12	1755.11
705.30	1810.40
705.49	2297.82
705.67	4446.14
705.86	9584.49
706.04	12601.15
706.22	14391.08
706.41	15363.86
706.59	13780.78
706.77	9447.28
706.96	7491.47
707.14	6485.92
707.32	5904.29
707.51	5433.26
707.69	4794.29
707.87	4143.04
708.06	3479.50
708.24	3051.47
708.42	2437.08
708.61	2273.25
708.79	1896.42
708.97	1765.35
709.16	1861.60
709.34	1806.31
709.52	1761.25
709.71	1714.15
709.89	1769.44
710.07	1644.52
710.26	1708.01
710.44	1736.68
710.62	1828.84
710.80	1683.43
710.99	1755.11
711.17	1771.49
711.35	1726.44
711.54	1734.63
711.72	1740.77
711.90	1779.68
712.09	1738.73
712.27	1716.20
712.45	1806.31
712.63	1681.38
712.82	1646.57
713.00	1746.92
713.18	1791.97
713.37	1796.07
713.55	1757.16
713.73	1705.96
713.91	1773.54
714.10	1652.71
714.28	1710.05
714.46	1691.62
714.65	1746.92
714.83	1738.73
715.01	1751.01
715.19	1710.05
715.38	1705.96
715.56	1755.11
715.74	1660.90
715.92	1705.96
716.11	1869.80
716.29	1703.91
716.47	1730.53
716.65	1757.16
716.84	1609.70
717.02	1816.55
717.20	1632.23
717.38	1718.25
717.57	1646.57
717.75	1742.82
717.93	1617.90
718.11	1763.30
718.30	1689.57
718.48	1740.77
718.66	1730.53
718.84	1763.30
719.03	1656.81
719.21	1650.66
719.39	1830.88
719.57	1751.01
719.75	1771.49
719.94	1703.91
720.12	1673.19
720.30	1787.88
720.48	1796.07
720.67	1689.57
720.85	1648.61
721.03	1683.43
721.21	1728.49
721.39	1818.60
721.58	1779.68
721.76	1740.77
721.94	1759.21
722.12	1761.25
722.30	1824.74
722.49	1718.25
722.67	1712.10
722.85	1732.58
723.03	1665.00
723.21	1681.38
723.40	1775.59
723.58	1775.59
723.76	1769.44
723.94	1732.58
724.12	1753.06
724.30	1771.49
724.49	1810.40
724.67	1708.01
724.85	1759.21
725.03	1679.33
725.21	1791.97
725.40	1837.03
725.58	1660.90
725.76	1761.25
725.94	1748.97
726.12	1667.05
726.30	1689.57
726.49	1724.39
726.67	1751.01
726.85	1728.49
727.03	1783.78
727.21	2228.19
727.39	2906.07
727.57	3897.28
727.76	4214.72
727.94	4440.00
728.12	4405.18
728.30	3788.74
728.48	3028.95
728.66	2703.32
728.84	2514.91
729.03	2314.20
729.21	2090.98
729.39	1984.48
729.57	1834.98
729.75	1791.97
729.93	1845.22
730.11	1763.30
730.30	1718.25
730.48	1748.97
730.66	1783.78
730.84	1783.78
731.02	1769.44
731.20	1675.24
731.38	1742.82
731.56	1595.37
731.74	1662.95
731.93	1808.36
732.11	1710.05
732.29	1740.77
732.47	1773.54
732.65	1714.15
732.83	1734.63
733.01	1761.25
733.19	1705.96
733.37	1712.10
733.56	1681.38
733.74	1714.15
733.92	1761.25
734.10	1695.72
734.28	1781.73
734.46	1613.80
734.64	1734.63
734.82	1634.28
735.00	1644.52
735.18	1673.19
735.36	1710.05
735.54	1732.58
735.73	1730.53
735.91	1777.64
736.09	1779.68
736.27	1697.77
736.45	1808.36
736.63	1646.57
736.81	1613.80
736.99	1751.01
737.17	1818.60
737.35	1755.11
737.53	1746.92
737.71	1722.34
737.89	1781.73
738.07	1654.76
738.25	1642.47
738.43	1705.96
738.61	1681.38
738.80	1705.96
738.98	1710.05
739.16	1654.76
739.34	1615.85
739.52	1789.92
739.70	1654.76
739.88	1791.97
740.06	1746.92
740.24	1617.90
740.42	1757.16
740.60	1585.13
740.78	1650.66
740.96	1574.89
741.14	1648.61
741.32	1738.73
741.50	1587.18
741.68	1853.41
741.86	1849.32
742.04	1759.21
742.22	1617.90
742.40	1695.72
742.58	1728.49
742.76	1689.57
742.94	1744.87
743.12	1613.80
743.30	1787.88
743.48	1751.01
743.66	1652.71
743.84	1771.49
744.02	1701.86
744.20	1675.24
744.38	1570.79
744.56	1665.00
744.74	1812.45
744.92	1740.77
745.10	1718.25
745.28	1779.68
745.46	1761.25
745.64	1634.28
745.82	1798.12
746.00	1695.72
746.18	1716.20
746.36	1726.44
746.54	1716.20
746.72	1763.30
746.90	1607.66
747.08	1794.02
747.26	1662.95
747.44	1789.92
747.62	1726.44
747.80	1714.15
747.98	1759.21
748.15	1660.90
748.33	1755.11
748.51	1724.39
748.69	1769.44
748.87	1665.00
749.05	1667.05
749.23	1720.29
749.41	1732.58
749.59	1742.82
749.77	1763.30
749.95	1667.05
750.13	1669.09
750.31	1779.68
750.49	1662.95
750.67	1789.92
750.85	1814.50
751.03	1773.54
751.20	1900.52
751.38	1779.68
751.56	1693.67
751.74	1687.53
751.92	1660.90
752.10	1652.71
752.28	1759.21
752.46	1630.18
752.64	1656.81
752.82	1722.34
753.00	1716.20
753.18	1769.44
753.35	1685.48
753.53	1703.91
753.71	1720.29
753.89	1761.25
754.07	1748.97
754.25	1769.44
754.43	1714.15
754.61	1761.25
754.79	1763.30
754.97	1677.29
755.14	1781.73
755.32	1636.33
755.50	1617.90
755.68	1777.64
755.86	1605.61
756.04	1638.38
756.22	1595.37
756.40	1798.12
756.57	1804.26
756.75	1755.11
756.93	1722.34
757.11	1832.93
757.29	1617.90
757.47	1748.97
757.65	1607.66
757.82	1699.81
758.00	1624.04
758.18	1658.85
758.36	1679.33
758.54	1820.64
758.72	1640.42
758.90	1763.30
759.07	1732.58
759.25	1730.53
759.43	1673.19
759.61	1640.42
759.79	2228.19
759.97	1742.82
760.15	1652.71
760.32	1710.05
760.50	1740.77
760.68	1861.60
760.86	1685.48
761.04	1740.77
761.22	1824.74
761.39	1636.33
761.57	1761.25
761.75	1718.25
761.93	1779.68
762.11	1701.86
762.28	1794.02
762.46	1691.62
762.64	1791.97
762.82	1710.05
763.00	1714.15
763.18	1775.59
763.35	1648.61
763.53	1771.49
763.71	1726.44
763.89	1687.53
764.07	1742.82
764.24	1615.85
764.42	1695.72
764.60	1689.57
764.78	1658.85
764.96	1689.57
765.13	1716.20
765.31	1691.62
765.49	1726.44
765.67	1681.38
765.84	1626.09
766.02	1648.61
766.20	1615.85
766.38	1732.58
766.56	1742.82
766.73	1740.77
766.91	1742.82
767.09	1710.05
767.27	1748.97
767.44	1689.57
767.62	1789.92
767.80	1818.60
767.98	1681.38
768.15	1648.61
768.33	1783.78
768.51	1730.53
768.69	1740.77
768.87	1726.44
769.04	1728.49
769.22	1828.84
769.40	1769.44
769.58	1859.56
769.75	1671.14
769.93	1761.25
770.11	1636.33
770.28	1667.05
770.46	1800.16
770.64	1726.44
770.82	1634.28
770.99	1665.00
771.17	1753.06
771.35	1763.30
771.53	1748.97
771.70	1683.43
771.88	1728.49
772.06	1712.10
772.23	1753.06
772.41	1720.29
772.59	1724.39
772.77	1722.34
772.94	1734.63
773.12	1742.82
773.30	1679.33
773.47	1730.53
773.65	1683.43
773.83	1767.40
774.01	1794.02
774.18	1597.42
774.36	1673.19
774.54	1605.61
774.71	1644.52
774.89	1578.98
775.07	1609.70
775.24	1658.85
775.42	1613.80
775.60	1777.64
775.78	1744.87
775.95	1697.77
776.13	1667.05
776.31	1595.37
776.48	1740.77
776.66	1843.17
776.84	1751.01
777.01	1652.71
777.19	1640.42
777.37	1697.77
777.54	1714.15
777.72	1777.64
777.90	1796.07
778.07	1724.39
778.25	1824.74
778.43	1654.76
778.60	1701.86
778.78	1730.53
778.96	1824.74
779.13	1677.29
779.31	1720.29
779.49	1710.05
779.66	1759.21
779.84	1685.48
780.01	1671.14
780.19	1685.48
780.37	1753.06
780.54	1912.80
780.72	1701.86
780.90	1730.53
781.07	1718.25
781.25	1695.72
781.43	1746.92
781.60	1767.40
781.78	1816.55
781.95	1734.63
782.13	1630.18
782.31	1695.72
782.48	1642.47
782.66	1652.71
782.83	1810.40
783.01	1740.77
783.19	1710.05
783.36	1675.24
783.54	1681.38
783.72	1812.45
783.89	1683.43
784.07	1734.63
784.24	1751.01
784.42	1779.68
784.60	1714.15
784.77	1671.14
784.95	1660.90
785.12	1687.53
785.30	1722.34
785.47	1634.28
785.65	1673.19
785.83	1660.90
786.00	1636.33
786.18	1665.00
786.35	1578.98
786.53	1652.71
786.71	1669.09
786.88	1751.01
787.06	1769.44
787.23	1734.63
787.41	1652.71
787.58	1708.01
787.76	1740.77
787.94	1751.01
788.11	1705.96
788.29	1648.61
788.46	1753.06
788.64	1673.19
788.81	1691.62
788.99	1691.62
789.16	1677.29
789.34	1708.01
789.52	1660.90
789.69	1736.68
789.87	1615.85
790.04	1699.81
790.22	1673.19
790.39	1779.68
790.57	1689.57
790.74	1701.86
790.92	1802.21
791.09	1611.75
791.27	1726.44
791.44	1810.40
791.62	1763.30
791.79	1769.44
791.97	1716.20
792.15	1875.94
792.32	1720.29
792.50	1785.83
792.67	1820.64
792.85	1847.27
793.02	1736.68
793.20	1714.15
793.37	1585.13
793.55	1746.92
793.72	1640.42
793.90	1746.92
794.07	1689.57
794.25	1595.37
794.42	1683.43
794.60	1742.82
794.77	1722.34
794.95	1734.63
795.12	1767.40
795.30	1716.20
795.47	1599.46
795.65	1822.69
795.82	1759.21
796.00	1671.14
796.17	1714.15
796.34	1658.85
796.52	1734.63
796.69	1724.39
796.87	1720.29
797.04	1728.49
797.22	1720.29
797.39	1697.77
797.57	1845.22
797.74	1675.24
797.92	1728.49
798.09	1658.85
798.27	1787.88
798.44	1730.53
798.62	1681.38
798.79	1742.82
798.96	1765.35
799.14	1732.58
799.31	1865.70
799.49	1673.19
799.66	1683.43
799.84	1781.73
800.01	1650.66
800.19	1746.92
800.36	1624.04
800.53	1660.90
800.71	1761.25
800.88	1773.54
801.06	1644.52
801.23	1724.39
801.41	1681.38
801.58	1667.05
801.75	1679.33
801.93	1763.30
802.10	1757.16
802.28	1693.67
802.45	1695.72
802.63	1751.01
802.80	1820.64
802.97	1705.96
803.15	1742.82
803.32	1699.81
803.50	1652.71
803.67	1667.05
803.84	1626.09
804.02	1732.58
804.19	1650.66
804.37	1583.08
804.54	1728.49
804.71	1675.24
804.89	1695.72
805.06	1701.86
805.24	1683.43
805.41	1720.29
805.58	1701.86
805.76	1857.51
805.93	1746.92
806.10	1773.54
806.28	1726.44
806.45	1718.25
806.63	1728.49
806.80	1677.29
806.97	1714.15
807.15	1783.78
807.32	1724.39
807.49	1730.53
807.67	1714.15
807.84	1759.21
808.01	1611.75
808.19	1867.75
808.36	1886.18
808.54	1712.10
808.71	1695.72
808.88	1730.53
809.06	1679.33
809.23	1800.16
809.40	1734.63
809.58	1730.53
809.75	1796.07
809.92	1591.27
810.10	1906.66
810.27	1763.30
810.44	1744.87
810.62	1787.88
810.79	1660.90
810.96	1685.48
811.14	1671.14
811.31	1708.01
811.48	1669.09
811.66	1665.00
811.83	1740.77
812.00	1767.40
812.18	1757.16
812.35	1830.88
812.52	1705.96
812.69	1738.73
812.87	1703.91
813.04	1708.01
813.21	1642.47
813.39	1714.15
813.56	1609.70
813.73	1748.97
813.91	1638.38
814.08	1697.77
814.25	1685.48
814.42	1701.86
814.60	1687.53
814.77	1746.92
814.94	1757.16
815.12	1685.48
815.29	1880.04
815.46	1671.14
815.63	1644.52
815.81	1681.38
815.98	1769.44
816.15	1691.62
816.33	1746.92
816.50	1751.01
816.67	1751.01
816.84	1681.38
817.02	1624.04
817.19	1708.01
817.36	1656.81
817.53	1730.53
817.71	1708.01
817.88	1734.63
818.05	1683.43
818.22	1748.97
818.40	1769.44
818.57	1742.82
818.74	1693.67
818.91	1671.14
819.09	1804.26
819.26	1734.63
819.43	1665.00
819.60	1662.95
819.78	1703.91
819.95	1796.07
820.12	1695.72
820.29	1720.29
820.47	1806.31
820.64	1685.48
820.81	1646.57
820.98	1681.38
821.15	1669.09
821.33	1796.07
821.50	1617.90
821.67	1736.68
821.84	1714.15
822.02	1773.54
822.19	1734.63
822.36	1748.97
822.53	1683.43
822.70	1662.95
822.88	1628.14
823.05	1812.45
823.22	1710.05
823.39	1824.74
823.56	1665.00
823.74	1816.55
823.91	1677.29
824.08	1671.14
824.25	1587.18
824.42	1800.16
824.60	1636.33
824.77	1751.01
824.94	1689.57
825.11	1689.57
825.28	1628.14
825.45	1716.20
825.63	1767.40
825.80	1687.53
825.97	1740.77
826.14	1812.45
826.31	1638.38
826.48	1714.15
826.66	1681.38
826.83	1636.33
827.00	1732.58
827.17	1626.09
827.34	1685.48
827.51	1705.96
827.69	1660.90
827.86	1654.76
828.03	1724.39
828.20	1722.34
828.37	1607.66
828.54	1718.25
828.71	1628.14
828.89	1804.26
829.06	1759.21
829.23	1775.59
829.40	1701.86
829.57	1679.33
829.74	1722.34
829.91	1705.96
830.09	1675.24
830.26	1646.57
830.43	1757.16
830.60	1730.53
830.77	1798.12
830.94	1818.60
831.11	1712.10
831.28	1724.39
831.46	1746.92
831.63	1683.43
831.80	1763.30
831.97	1714.15
832.14	1718.25
832.31	1691.62
832.48	1808.36
832.65	1767.40
832.82	1718.25
832.99	1777.64
833.17	1687.53
833.34	1755.11
833.51	1751.01
833.68	1648.61
833.85	1689.57
834.02	1697.77
834.19	1701.86
834.36	1675.24
834.53	1714.15
834.70	1771.49
834.87	1783.78
835.04	1656.81
835.22	1681.38
835.39	1720.29
835.56	1626.09
835.73	1691.62
835.90	1785.83
836.07	1652.71
836.24	1796.07
836.41	1722.34
836.58	1693.67
836.75	1757.16
836.92	1755.11
837.09	1640.42
837.26	1732.58
837.43	1761.25
837.60	1759.21
837.77	1683.43
837.94	1691.62
838.12	1677.29
838.29	1748.97
838.46	1665.00
838.63	1689.57
838.80	1841.12
838.97	1712.10
839.14	1794.02
839.31	1724.39
839.48	1798.12
839.65	1726.44
839.82	1771.49
839.99	1730.53
840.16	1765.35
840.33	1683.43
840.50	1705.96
840.67	1652.71
840.84	1611.75
841.01	1746.92
841.18	1667.05
841.35	1650.66
841.52	1763.30
841.69	1839.08
841.86	1732.58
842.03	1714.15
842.20	1755.11
842.37	1693.67
842.54	1693.67
842.71	1738.73
842.88	1667.05
843.05	1812.45
843.22	1640.42
843.39	1787.88
843.56	1689.57
843.73	1712.10
843.90	1726.44
844.07	1703.91
844.24	1738.73
844.41	1787.88
844.58	1714.15
844.75	1677.29
844.92	1718.25
845.09	1716.20
845.26	1681.38
845.43	1728.49
845.60	1667.05
845.77	1761.25
845.94	1681.38
846.10	1744.87
846.27	1671.14
846.44	1673.19
846.61	1726.44
846.78	1708.01
846.95	1751.01
847.12	1714.15
847.29	1697.77
847.46	1656.81
847.63	1845.22
847.80	1636.33
847.97	1667.05
848.14	1755.11
848.31	1742.82
848.48	1578.98
848.65	1753.06
848.82	1665.00
848.98	1880.04
849.15	1746.92
849.32	1765.35
849.49	1744.87
849.66	1710.05
849.83	1665.00
850.00	1648.61
850.17	1800.16
850.34	1652.71
850.51	1613.80
850.68	1738.73
850.85	1849.32
851.01	1789.92
851.18	1740.77
851.35	1726.44
851.52	1783.78
851.69	1800.16
851.86	1583.08
852.03	1736.68
852.20	1783.78
852.37	1669.09
852.53	1687.53
852.70	1708.01
852.87	1720.29
853.04	1779.68
853.21	1708.01
853.38	1718.25
853.55	1796.07
853.72	1849.32
853.89	1660.90
854.05	1683.43
854.22	1701.86
854.39	1751.01
854.56	1671.14
854.73	1787.88
854.90	1761.25
855.07	1720.29
855.23	1650.66
855.40	1667.05
855.57	1726.44
855.74	1607.66
855.91	1943.52
856.08	1708.01
856.25	1677.29
856.41	1691.62
856.58	1748.97
856.75	1746.92
856.92	1675.24
857.09	1787.88
857.26	1595.37
857.42	1691.62
857.59	1791.97
857.76	1665.00
857.93	1697.77
858.10	1732.58
858.27	1669.09
858.43	1699.81
858.60	1646.57
858.77	1632.23
858.94	1660.90
859.11	1744.87
859.27	1689.57
859.44	1755.11
859.61	1869.80
859.78	1740.77
859.95	1740.77
860.12	1660.90
860.28	1814.50
860.45	1822.69
860.62	1658.85
860.79	1732.58
860.95	1775.59
861.12	1638.38
861.29	1726.44
861.46	1646.57
861.63	1642.47
861.79	1769.44
861.96	1621.99
862.13	1728.49
862.30	1716.20
862.47	1644.52
862.63	1687.53
862.80	1849.32
862.97	1701.86
863.14	1708.01
863.30	1722.34
863.47	1652.71
863.64	1812.45
863.81	1677.29
863.97	1742.82
864.14	1796.07
864.31	1693.67
864.48	1783.78
864.65	1677.29
864.81	1783.78
864.98	1787.88
865.15	1740.77
865.32	1783.78
865.48	1740.77
865.65	1779.68
865.82	1726.44
865.98	1673.19
866.15	1814.50
866.32	1761.25
866.49	1712.10
866.65	1738.73
866.82	1734.63
866.99	1726.44
867.16	1679.33
867.32	1650.66
867.49	1724.39
867.66	1728.49
867.83	1665.00
867.99	1591.27
868.16	1712.10
868.33	1683.43
868.49	1646.57
868.66	1658.85
868.83	1785.83
868.99	1632.23
869.16	1697.77
869.33	1785.83
869.50	1738.73
869.66	1798.12
869.83	1714.15
870.00	1728.49
870.16	1740.77
870.33	1740.77
870.50	1761.25
870.66	1732.58
870.83	1832.93
871.00	1732.58
871.17	1699.81
871.33	1759.21
871.50	1755.11
871.67	1773.54
871.83	1722.34
872.00	1814.50
872.17	1654.76
872.33	1808.36
872.50	1783.78
872.67	1777.64
872.83	1619.94
873.00	1761.25
873.17	1734.63
873.33	1728.49
873.50	1751.01
873.67	1685.48
873.83	1632.23
874.00	1710.05
874.16	1789.92
874.33	1722.34
874.50	1726.44
874.66	1753.06
874.83	1740.77
875.00	1742.82
875.16	1779.68
875.33	1779.68
875.50	1599.46
875.66	1675.24
875.83	1681.38
875.99	1783.78
876.16	1617.90
876.33	1683.43
876.49	1703.91
876.66	1748.97
876.83	1708.01
876.99	1587.18
877.16	1734.63
877.32	1722.34
877.49	1689.57
877.66	1665.00
877.82	1824.74
877.99	1740.77
878.15	1691.62
878.32	1732.58
878.49	1789.92
878.65	1652.71
878.82	1798.12
878.98	1689.57
879.15	1730.53
879.32	1781.73
879.48	1794.02
879.65	1634.28
879.81	1740.77
879.98	1685.48
880.15	1683.43
880.31	1658.85
880.48	1685.48
880.64	1751.01
880.81	1724.39
880.97	1791.97
881.14	1783.78
881.31	1708.01
881.47	1824.74
881.64	1667.05
881.80	1609.70
881.97	1669.09
882.13	1808.36
882.30	1710.05
882.47	1687.53
882.63	1687.53
882.80	1667.05
882.96	1654.76
883.13	1763.30
883.29	1738.73
883.46	1708.01
883.62	1849.32
883.79	1730.53
883.95	1705.96
884.12	1644.52
884.29	1748.97
884.45	1662.95
884.62	1773.54
884.78	1718.25
884.95	1771.49
885.11	1720.29
885.28	1794.02
885.44	1673.19
885.61	1726.44
885.77	1814.50
885.94	1759.21
886.10	1720.29
886.27	1693.67
886.43	1779.68
886.60	1679.33
886.76	1689.57
886.93	1775.59
887.09	1828.84
887.26	1683.43
887.42	1703.91
887.59	1687.53
887.75	1779.68
887.92	1742.82
888.08	1751.01
888.25	1808.36
888.41	1755.11
888.58	1759.21
888.74	1658.85
888.91	1642.47
>>>>>End Processed Spectral Data<<<<<
