SpectraSuite Data File
++++++++++++++++++++++++++++++++++++
Date: Mon Jun 06 17:26:37 CEST 2016
User: root
Dark Spectrum Present: No
Reference Spectrum Present: No
Number of Sampled Component Spectra: 1
Spectrometers: USB4C02835
Integration Time (usec): 100000 (USB4C02835)
Spectra Averaged: 1 (USB4C02835)
Boxcar Smoothing: 0 (USB4C02835)
Correct for Electrical Dark: No (USB4C02835)
Strobe/Lamp Enabled: No (USB4C02835)
Correct for Detector Non-linearity: No (USB4C02835)
Correct for Stray Light: No (USB4C02835)
Number of Pixels in Processed Spectrum: 3648
>>>>>Begin Processed Spectral Data<<<<<
177.47	1503.21
177.69	1503.21
177.91	1503.21
178.13	1476.59
178.36	1464.30
178.58	1679.33
178.80	1724.39
179.02	1609.70
179.24	1720.29
179.46	1708.01
179.68	1783.78
179.90	1632.23
180.13	1714.15
180.35	1701.86
180.57	1738.73
180.79	1886.18
181.01	1728.49
181.23	1798.12
181.45	1716.20
181.67	1722.34
181.90	1738.73
182.12	1695.72
182.34	1613.80
182.56	1808.36
182.78	1703.91
183.00	1652.71
183.22	1695.72
183.44	1607.66
183.66	1900.52
183.89	1808.36
184.11	1722.34
184.33	1720.29
184.55	1763.30
184.77	1742.82
184.99	1705.96
185.21	1675.24
185.43	1824.74
185.65	1685.48
185.87	1638.38
186.10	1906.66
186.32	1898.47
186.54	1730.53
186.76	1644.52
186.98	1728.49
187.20	1691.62
187.42	1757.16
187.64	1738.73
187.86	1738.73
188.08	1755.11
188.30	1689.57
188.52	1779.68
188.75	1763.30
188.97	1777.64
189.19	1665.00
189.41	1697.77
189.63	1755.11
189.85	1718.25
190.07	1634.28
190.29	1578.98
190.51	1720.29
190.73	1691.62
190.95	1845.22
191.17	1730.53
191.39	1699.81
191.61	1667.05
191.84	1732.58
192.06	1763.30
192.28	1611.75
192.50	1966.05
192.72	1669.09
192.94	1744.87
193.16	1822.69
193.38	1757.16
193.60	1650.66
193.82	1675.24
194.04	1794.02
194.26	1738.73
194.48	1751.01
194.70	1681.38
194.92	1726.44
195.14	1755.11
195.36	1656.81
195.58	1783.78
195.80	1662.95
196.02	1570.79
196.24	1736.68
196.46	1751.01
196.69	1648.61
196.91	1974.24
197.13	1710.05
197.35	1697.77
197.57	1777.64
197.79	1703.91
198.01	1736.68
198.23	1779.68
198.45	1724.39
198.67	1667.05
198.89	1712.10
199.11	1736.68
199.33	1699.81
199.55	1570.79
199.77	1722.34
199.99	1806.31
200.21	1638.38
200.43	1699.81
200.65	1732.58
200.87	1613.80
201.09	1654.76
201.31	1689.57
201.53	1718.25
201.75	1736.68
201.97	1791.97
202.19	1685.48
202.41	1767.40
202.63	1939.43
202.85	1718.25
203.07	1687.53
203.29	1646.57
203.51	1593.32
203.73	1599.46
203.95	1781.73
204.17	1740.77
204.39	1685.48
204.61	1691.62
204.83	1834.98
205.05	1742.82
205.27	1755.11
205.49	1882.08
205.71	1734.63
205.93	1599.46
206.15	1714.15
206.37	1746.92
206.59	1763.30
206.81	1626.09
207.03	1656.81
207.25	1677.29
207.47	1761.25
207.69	1695.72
207.91	1785.83
208.13	1699.81
208.34	1732.58
208.56	1640.42
208.78	1748.97
209.00	1740.77
209.22	1714.15
209.44	1679.33
209.66	1705.96
209.88	1683.43
210.10	1689.57
210.32	1794.02
210.54	1814.50
210.76	1646.57
210.98	1781.73
211.20	1650.66
211.42	1656.81
211.64	1830.88
211.86	1773.54
212.08	1773.54
212.30	1730.53
212.52	1726.44
212.74	1703.91
212.96	1665.00
213.17	1761.25
213.39	1744.87
213.61	1765.35
213.83	1697.77
214.05	1705.96
214.27	1693.67
214.49	1667.05
214.71	1607.66
214.93	1765.35
215.15	1724.39
215.37	1763.30
215.59	1648.61
215.81	1683.43
216.03	1820.64
216.24	1697.77
216.46	1685.48
216.68	1794.02
216.90	1669.09
217.12	1781.73
217.34	1669.09
217.56	1734.63
217.78	1775.59
218.00	1773.54
218.22	1724.39
218.44	1714.15
218.66	1837.03
218.87	1761.25
219.09	1810.40
219.31	1759.21
219.53	1669.09
219.75	1783.78
219.97	1699.81
220.19	1742.82
220.41	1738.73
220.63	1798.12
220.85	1693.67
221.06	1730.53
221.28	1779.68
221.50	1763.30
221.72	1726.44
221.94	1742.82
222.16	1708.01
222.38	1812.45
222.60	1701.86
222.82	1628.14
223.03	1767.40
223.25	1617.90
223.47	1744.87
223.69	1828.84
223.91	1816.55
224.13	1636.33
224.35	1662.95
224.57	1787.88
224.78	1800.16
225.00	1593.32
225.22	1699.81
225.44	1652.71
225.66	1763.30
225.88	1722.34
226.10	1757.16
226.32	1779.68
226.53	1746.92
226.75	1693.67
226.97	1699.81
227.19	1738.73
227.41	1712.10
227.63	1673.19
227.85	1675.24
228.06	1738.73
228.28	1703.91
228.50	1763.30
228.72	1662.95
228.94	1722.34
229.16	1677.29
229.37	1640.42
229.59	1726.44
229.81	1820.64
230.03	1658.85
230.25	1660.90
230.47	1740.77
230.69	1695.72
230.90	1742.82
231.12	1611.75
231.34	1744.87
231.56	1734.63
231.78	1609.70
232.00	1685.48
232.21	1726.44
232.43	1751.01
232.65	1626.09
232.87	1748.97
233.09	1585.13
233.30	1695.72
233.52	1771.49
233.74	1695.72
233.96	1640.42
234.18	1724.39
234.40	1722.34
234.61	1822.69
234.83	1619.94
235.05	1681.38
235.27	1800.16
235.49	1791.97
235.70	1712.10
235.92	1763.30
236.14	1654.76
236.36	1798.12
236.58	1654.76
236.79	1779.68
237.01	1697.77
237.23	1665.00
237.45	1751.01
237.67	1683.43
237.88	1761.25
238.10	1804.26
238.32	1648.61
238.54	1662.95
238.76	1718.25
238.97	1718.25
239.19	1687.53
239.41	1693.67
239.63	1834.98
239.85	1732.58
240.06	1710.05
240.28	1656.81
240.50	1814.50
240.72	1734.63
240.93	1634.28
241.15	1777.64
241.37	1648.61
241.59	1771.49
241.81	1632.23
242.02	1693.67
242.24	1724.39
242.46	1753.06
242.68	1718.25
242.89	1755.11
243.11	1695.72
243.33	1763.30
243.55	1759.21
243.76	1724.39
243.98	1669.09
244.20	1746.92
244.42	1685.48
244.64	1665.00
244.85	1691.62
245.07	1624.04
245.29	1716.20
245.51	1699.81
245.72	1789.92
245.94	1834.98
246.16	1703.91
246.38	1765.35
246.59	1638.38
246.81	1572.84
247.03	1705.96
247.24	1591.27
247.46	1644.52
247.68	1685.48
247.90	1638.38
248.11	1710.05
248.33	1843.17
248.55	1675.24
248.77	1771.49
248.98	1757.16
249.20	1841.12
249.42	1738.73
249.64	1859.56
249.85	1716.20
250.07	1742.82
250.29	1746.92
250.50	1718.25
250.72	1660.90
250.94	1736.68
251.16	1882.08
251.37	1806.31
251.59	1736.68
251.81	1796.07
252.02	1830.88
252.24	1742.82
252.46	1826.79
252.68	1689.57
252.89	1677.29
253.11	1607.66
253.33	1771.49
253.54	1726.44
253.76	1685.48
253.98	1646.57
254.20	1734.63
254.41	1644.52
254.63	1697.77
254.85	1613.80
255.06	1708.01
255.28	1755.11
255.50	1675.24
255.71	1714.15
255.93	1683.43
256.15	1728.49
256.36	1763.30
256.58	1714.15
256.80	1665.00
257.02	1671.14
257.23	1753.06
257.45	1728.49
257.67	1798.12
257.88	1675.24
258.10	1806.31
258.32	1730.53
258.53	1697.77
258.75	1859.56
258.97	1732.58
259.18	1728.49
259.40	1730.53
259.62	1800.16
259.83	1822.69
260.05	1800.16
260.27	2021.35
260.48	1791.97
260.70	1605.61
260.92	1712.10
261.13	1691.62
261.35	1628.14
261.57	1757.16
261.78	1603.56
262.00	1767.40
262.22	1742.82
262.43	1708.01
262.65	1781.73
262.86	1617.90
263.08	1851.36
263.30	1724.39
263.51	1648.61
263.73	1673.19
263.95	1746.92
264.16	1671.14
264.38	1703.91
264.60	1710.05
264.81	1681.38
265.03	1738.73
265.25	1775.59
265.46	1705.96
265.68	1824.74
265.89	1773.54
266.11	1632.23
266.33	1759.21
266.54	1734.63
266.76	1716.20
266.98	1820.64
267.19	1828.84
267.41	1732.58
267.62	1722.34
267.84	1662.95
268.06	1746.92
268.27	1734.63
268.49	1765.35
268.70	1771.49
268.92	1785.83
269.14	1681.38
269.35	1599.46
269.57	1695.72
269.79	1802.21
270.00	1656.81
270.22	1732.58
270.43	1708.01
270.65	1619.94
270.87	1779.68
271.08	1722.34
271.30	1763.30
271.51	1742.82
271.73	1734.63
271.95	1736.68
272.16	1728.49
272.38	1738.73
272.59	1724.39
272.81	1728.49
273.02	1683.43
273.24	1771.49
273.46	1855.46
273.67	1630.18
273.89	1658.85
274.10	1710.05
274.32	1755.11
274.54	1722.34
274.75	1695.72
274.97	1742.82
275.18	1744.87
275.40	1720.29
275.61	1744.87
275.83	1751.01
276.05	1677.29
276.26	1769.44
276.48	1720.29
276.69	1689.57
276.91	1683.43
277.12	1796.07
277.34	1775.59
277.55	1773.54
277.77	1708.01
277.99	1677.29
278.20	1685.48
278.42	1689.57
278.63	1718.25
278.85	1665.00
279.06	1574.89
279.28	1705.96
279.49	1771.49
279.71	1734.63
279.93	1683.43
280.14	1746.92
280.36	1722.34
280.57	1820.64
280.79	1763.30
281.00	1755.11
281.22	1669.09
281.43	1755.11
281.65	1540.07
281.86	1693.67
282.08	1767.40
282.29	1832.93
282.51	1621.99
282.73	1650.66
282.94	1708.01
283.16	1779.68
283.37	1791.97
283.59	1746.92
283.80	1769.44
284.02	1689.57
284.23	1703.91
284.45	1703.91
284.66	1656.81
284.88	1710.05
285.09	1705.96
285.31	1744.87
285.52	1738.73
285.74	1533.93
285.95	1769.44
286.17	1748.97
286.38	1748.97
286.60	1634.28
286.81	1683.43
287.03	1683.43
287.24	1679.33
287.46	1748.97
287.67	1701.86
287.89	1814.50
288.10	1757.16
288.32	1681.38
288.53	1773.54
288.75	1691.62
288.96	1763.30
289.18	1626.09
289.39	1724.39
289.61	1769.44
289.82	1796.07
290.04	1785.83
290.25	1644.52
290.47	1742.82
290.68	1726.44
290.90	1716.20
291.11	1654.76
291.33	1810.40
291.54	1677.29
291.76	1687.53
291.97	1716.20
292.18	1726.44
292.40	1712.10
292.61	1695.72
292.83	1794.02
293.04	1734.63
293.26	1794.02
293.47	1791.97
293.69	1652.71
293.90	1687.53
294.12	1802.21
294.33	1720.29
294.55	1697.77
294.76	1812.45
294.97	1732.58
295.19	1808.36
295.40	1693.67
295.62	1740.77
295.83	1716.20
296.05	1660.90
296.26	1820.64
296.48	1677.29
296.69	1689.57
296.90	1714.15
297.12	1738.73
297.33	1705.96
297.55	1828.84
297.76	1703.91
297.98	1767.40
298.19	1769.44
298.41	1652.71
298.62	1654.76
298.83	1755.11
299.05	1687.53
299.26	1665.00
299.48	1658.85
299.69	1744.87
299.90	1646.57
300.12	1640.42
300.33	1767.40
300.55	1712.10
300.76	1802.21
300.98	1646.57
301.19	1732.58
301.40	1615.85
301.62	1650.66
301.83	1734.63
302.05	1673.19
302.26	1714.15
302.47	1654.76
302.69	1685.48
302.90	1716.20
303.12	1607.66
303.33	1763.30
303.54	1837.03
303.76	1683.43
303.97	1697.77
304.19	1789.92
304.40	1591.27
304.61	1687.53
304.83	1810.40
305.04	1830.88
305.26	1728.49
305.47	1634.28
305.68	1720.29
305.90	1621.99
306.11	1812.45
306.33	1619.94
306.54	1710.05
306.75	1656.81
306.97	1648.61
307.18	1671.14
307.39	1689.57
307.61	1757.16
307.82	1730.53
308.04	1724.39
308.25	1697.77
308.46	1730.53
308.68	1802.21
308.89	1742.82
309.10	1710.05
309.32	1718.25
309.53	1716.20
309.74	1636.33
309.96	1662.95
310.17	1771.49
310.39	1689.57
310.60	1722.34
310.81	1681.38
311.03	1632.23
311.24	1812.45
311.45	1765.35
311.67	1882.08
311.88	1720.29
312.09	1712.10
312.31	1652.71
312.52	1718.25
312.73	1787.88
312.95	1667.05
313.16	1720.29
313.37	1789.92
313.59	1748.97
313.80	1783.78
314.01	1851.36
314.23	1699.81
314.44	1695.72
314.65	1675.24
314.87	1640.42
315.08	1701.86
315.29	1679.33
315.51	1619.94
315.72	1699.81
315.93	1806.31
316.15	1769.44
316.36	1652.71
316.57	1691.62
316.79	1738.73
317.00	1726.44
317.21	1748.97
317.43	1738.73
317.64	1669.09
317.85	1687.53
318.07	1714.15
318.28	1728.49
318.49	1828.84
318.70	1923.04
318.92	1826.79
319.13	1834.98
319.34	1843.17
319.56	1800.16
319.77	1791.97
319.98	1781.73
320.20	1746.92
320.41	1806.31
320.62	1812.45
320.83	1748.97
321.05	1820.64
321.26	1798.12
321.47	1693.67
321.69	1843.17
321.90	1638.38
322.11	1775.59
322.32	1708.01
322.54	1791.97
322.75	1624.04
322.96	1834.98
323.18	1679.33
323.39	1560.55
323.60	1640.42
323.81	1806.31
324.03	1714.15
324.24	1681.38
324.45	1705.96
324.66	1720.29
324.88	1759.21
325.09	1771.49
325.30	1800.16
325.52	1671.14
325.73	1710.05
325.94	1693.67
326.15	1693.67
326.37	1716.20
326.58	1763.30
326.79	1761.25
327.00	1603.56
327.22	1699.81
327.43	1677.29
327.64	1677.29
327.85	1746.92
328.07	1787.88
328.28	1849.32
328.49	1701.86
328.70	1689.57
328.92	1691.62
329.13	1681.38
329.34	1701.86
329.55	1826.79
329.76	1718.25
329.98	1665.00
330.19	1791.97
330.40	1742.82
330.61	1746.92
330.83	1791.97
331.04	1646.57
331.25	1734.63
331.46	1656.81
331.68	1691.62
331.89	1708.01
332.10	1689.57
332.31	1656.81
332.52	1679.33
332.74	1789.92
332.95	1650.66
333.16	1693.67
333.37	1755.11
333.58	1695.72
333.80	1730.53
334.01	1658.85
334.22	1640.42
334.43	1732.58
334.64	1753.06
334.86	1646.57
335.07	1744.87
335.28	1820.64
335.49	1699.81
335.70	1728.49
335.92	1824.74
336.13	1773.54
336.34	1730.53
336.55	1769.44
336.76	1730.53
336.98	1609.70
337.19	1701.86
337.40	1834.98
337.61	1875.94
337.82	1628.14
338.04	1861.60
338.25	1540.07
338.46	1728.49
338.67	1695.72
338.88	1699.81
339.09	1615.85
339.31	1609.70
339.52	1630.18
339.73	1757.16
339.94	1675.24
340.15	1806.31
340.36	1628.14
340.58	1705.96
340.79	1619.94
341.00	1730.53
341.21	1667.05
341.42	1869.80
341.63	1644.52
341.85	1771.49
342.06	1751.01
342.27	1619.94
342.48	1818.60
342.69	1601.51
342.90	1740.77
343.12	1705.96
343.33	1624.04
343.54	1775.59
343.75	1826.79
343.96	1716.20
344.17	1748.97
344.38	1681.38
344.60	1724.39
344.81	1660.90
345.02	1777.64
345.23	1775.59
345.44	1744.87
345.65	1765.35
345.86	1679.33
346.07	1648.61
346.29	1712.10
346.50	1714.15
346.71	1736.68
346.92	1798.12
347.13	1824.74
347.34	1636.33
347.55	1691.62
347.76	1701.86
347.98	1681.38
348.19	1634.28
348.40	1787.88
348.61	1662.95
348.82	1812.45
349.03	1769.44
349.24	1722.34
349.45	1812.45
349.66	1652.71
349.88	1757.16
350.09	1726.44
350.30	1777.64
350.51	1820.64
350.72	1685.48
350.93	1681.38
351.14	1701.86
351.35	1775.59
351.56	1722.34
351.77	1724.39
351.99	1734.63
352.20	1808.36
352.41	1791.97
352.62	1634.28
352.83	1695.72
353.04	1783.78
353.25	1681.38
353.46	1783.78
353.67	1832.93
353.88	1658.85
354.09	1669.09
354.30	1714.15
354.52	1783.78
354.73	1683.43
354.94	1730.53
355.15	1769.44
355.36	1808.36
355.57	1791.97
355.78	1722.34
355.99	1595.37
356.20	1687.53
356.41	1841.12
356.62	1753.06
356.83	1738.73
357.04	1796.07
357.25	1642.47
357.46	1656.81
357.68	1683.43
357.89	1636.33
358.10	1730.53
358.31	1787.88
358.52	1617.90
358.73	1646.57
358.94	1705.96
359.15	1671.14
359.36	1796.07
359.57	1736.68
359.78	1701.86
359.99	1708.01
360.20	1644.52
360.41	1699.81
360.62	1763.30
360.83	1779.68
361.04	1726.44
361.25	1720.29
361.46	1806.31
361.67	1667.05
361.88	1787.88
362.09	1789.92
362.30	1722.34
362.51	1652.71
362.72	1693.67
362.93	1669.09
363.14	1742.82
363.35	1708.01
363.56	1626.09
363.78	1798.12
363.99	1779.68
364.20	1689.57
364.41	1761.25
364.62	1722.34
364.83	1718.25
365.04	1695.72
365.25	1685.48
365.46	1832.93
365.67	1669.09
365.88	1669.09
366.09	1660.90
366.30	1716.20
366.51	1701.86
366.72	1652.71
366.93	1712.10
367.14	1701.86
367.35	1746.92
367.56	1685.48
367.77	1810.40
367.98	1671.14
368.18	1705.96
368.39	1650.66
368.60	1634.28
368.81	1718.25
369.02	1701.86
369.23	1746.92
369.44	1677.29
369.65	1693.67
369.86	1748.97
370.07	1742.82
370.28	1730.53
370.49	1677.29
370.70	1753.06
370.91	1705.96
371.12	1671.14
371.33	1822.69
371.54	1617.90
371.75	1826.79
371.96	1609.70
372.17	1710.05
372.38	1669.09
372.59	1673.19
372.80	1689.57
373.01	1728.49
373.22	1646.57
373.43	1683.43
373.64	1691.62
373.85	1777.64
374.06	1734.63
374.26	1748.97
374.47	1740.77
374.68	1794.02
374.89	1687.53
375.10	1759.21
375.31	1697.77
375.52	1771.49
375.73	1718.25
375.94	1638.38
376.15	1769.44
376.36	1628.14
376.57	1722.34
376.78	1779.68
376.99	1673.19
377.20	1808.36
377.40	1675.24
377.61	1892.32
377.82	1703.91
378.03	1800.16
378.24	1712.10
378.45	1703.91
378.66	1699.81
378.87	1626.09
379.08	1677.29
379.29	1736.68
379.50	1777.64
379.71	1751.01
379.91	1759.21
380.12	1753.06
380.33	1677.29
380.54	1716.20
380.75	1718.25
380.96	1685.48
381.17	1798.12
381.38	1687.53
381.59	1767.40
381.80	1791.97
382.00	1818.60
382.21	1724.39
382.42	1755.11
382.63	1877.99
382.84	1740.77
383.05	1806.31
383.26	1697.77
383.47	1742.82
383.68	1775.59
383.88	1798.12
384.09	1691.62
384.30	1834.98
384.51	1746.92
384.72	1712.10
384.93	1724.39
385.14	1716.20
385.35	1767.40
385.55	1693.67
385.76	1781.73
385.97	1730.53
386.18	1730.53
386.39	1681.38
386.60	1671.14
386.81	1673.19
387.02	1681.38
387.22	1734.63
387.43	1775.59
387.64	1748.97
387.85	1806.31
388.06	2203.61
388.27	4315.07
388.48	6655.90
388.68	8269.70
388.89	9774.95
389.10	9756.52
389.31	8519.55
389.52	7597.96
389.73	6707.10
389.93	6342.56
390.14	5988.26
390.35	5302.19
390.56	4620.22
390.77	3887.04
390.98	3098.58
391.18	2494.43
391.39	2127.84
391.60	1902.56
391.81	1816.55
392.02	1701.86
392.23	1824.74
392.43	1755.11
392.64	1863.65
392.85	1734.63
393.06	1832.93
393.27	1642.47
393.47	1683.43
393.68	1714.15
393.89	1708.01
394.10	1787.88
394.31	1693.67
394.52	1683.43
394.72	1751.01
394.93	1775.59
395.14	1560.55
395.35	1744.87
395.56	1621.99
395.76	1740.77
395.97	1882.08
396.18	1832.93
396.39	1810.40
396.60	2033.63
396.80	1966.05
397.01	1935.33
397.22	1771.49
397.43	1918.95
397.64	1732.58
397.84	1771.49
398.05	1916.90
398.26	1763.30
398.47	1845.22
398.67	1849.32
398.88	1779.68
399.09	1816.55
399.30	1669.09
399.51	1742.82
399.71	1654.76
399.92	1822.69
400.13	1742.82
400.34	1744.87
400.54	1726.44
400.75	1828.84
400.96	1732.58
401.17	1849.32
401.37	1785.83
401.58	1763.30
401.79	1691.62
402.00	1914.85
402.21	2009.06
402.41	1943.52
402.62	1990.63
402.83	2017.25
403.04	1972.19
403.24	2111.46
403.45	1869.80
403.66	1970.15
403.87	1959.91
404.07	1894.37
404.28	1875.94
404.49	1798.12
404.70	1818.60
404.90	1726.44
405.11	1755.11
405.32	1683.43
405.52	1746.92
405.73	1650.66
405.94	1683.43
406.15	1728.49
406.35	1859.56
406.56	1791.97
406.77	1662.95
406.98	1683.43
407.18	1665.00
407.39	1726.44
407.60	1748.97
407.80	1759.21
408.01	1716.20
408.22	1712.10
408.43	1671.14
408.63	1791.97
408.84	1689.57
409.05	1847.27
409.25	1742.82
409.46	1619.94
409.67	1677.29
409.88	1660.90
410.08	1759.21
410.29	1665.00
410.50	1734.63
410.70	1787.88
410.91	1648.61
411.12	1763.30
411.32	1724.39
411.53	1705.96
411.74	1816.55
411.95	1779.68
412.15	1837.03
412.36	1812.45
412.57	1781.73
412.77	1755.11
412.98	1732.58
413.19	1701.86
413.39	1779.68
413.60	1849.32
413.81	1832.93
414.01	1693.67
414.22	1716.20
414.43	1726.44
414.63	1652.71
414.84	1781.73
415.05	1677.29
415.25	1628.14
415.46	1748.97
415.67	1636.33
415.87	1679.33
416.08	1748.97
416.29	1679.33
416.49	1705.96
416.70	1665.00
416.91	1656.81
417.11	1724.39
417.32	1828.84
417.53	1722.34
417.73	1759.21
417.94	1755.11
418.15	1652.71
418.35	1748.97
418.56	1732.58
418.77	1814.50
418.97	1767.40
419.18	1734.63
419.38	1634.28
419.59	1710.05
419.80	1832.93
420.00	1753.06
420.21	1603.56
420.42	1800.16
420.62	1767.40
420.83	1697.77
421.04	1783.78
421.24	1621.99
421.45	1761.25
421.65	1714.15
421.86	1742.82
422.07	1785.83
422.27	1767.40
422.48	1808.36
422.69	1667.05
422.89	1769.44
423.10	1710.05
423.30	1691.62
423.51	1740.77
423.72	1748.97
423.92	1755.11
424.13	1636.33
424.33	1652.71
424.54	1783.78
424.75	1722.34
424.95	1775.59
425.16	1681.38
425.36	1767.40
425.57	1787.88
425.78	1710.05
425.98	1771.49
426.19	1677.29
426.39	1667.05
426.60	1789.92
426.81	1849.32
427.01	1783.78
427.22	1587.18
427.42	1615.85
427.63	1740.77
427.83	1724.39
428.04	1855.46
428.25	1710.05
428.45	1767.40
428.66	1773.54
428.86	1703.91
429.07	1744.87
429.28	1683.43
429.48	1630.18
429.69	1675.24
429.89	1746.92
430.10	1656.81
430.30	1703.91
430.51	1812.45
430.71	1695.72
430.92	1722.34
431.13	1753.06
431.33	1726.44
431.54	1720.29
431.74	1869.80
431.95	1820.64
432.15	1667.05
432.36	1638.38
432.56	1757.16
432.77	1777.64
432.98	1834.98
433.18	1681.38
433.39	1718.25
433.59	1693.67
433.80	1841.12
434.00	1822.69
434.21	1767.40
434.41	1714.15
434.62	1888.23
434.82	1710.05
435.03	1607.66
435.23	1755.11
435.44	1660.90
435.64	1722.34
435.85	1785.83
436.06	1757.16
436.26	1757.16
436.47	1728.49
436.67	1665.00
436.88	1701.86
437.08	1796.07
437.29	1791.97
437.49	1783.78
437.70	1730.53
437.90	1763.30
438.11	1896.42
438.31	1816.55
438.52	1886.18
438.72	1867.75
438.93	1914.85
439.13	1777.64
439.34	1798.12
439.54	1642.47
439.75	1744.87
439.95	1769.44
440.16	1699.81
440.36	1761.25
440.57	1744.87
440.77	1861.60
440.98	1748.97
441.18	1800.16
441.39	1705.96
441.59	1642.47
441.80	1845.22
442.00	1726.44
442.21	1744.87
442.41	1683.43
442.62	1826.79
442.82	1640.42
443.02	1728.49
443.23	1765.35
443.43	1759.21
443.64	1851.36
443.84	1794.02
444.05	1867.75
444.25	1716.20
444.46	1695.72
444.66	1791.97
444.87	1845.22
445.07	1650.66
445.28	1738.73
445.48	1847.27
445.69	1841.12
445.89	1949.67
446.09	1757.16
446.30	2103.26
446.50	2592.73
446.71	3698.63
446.91	4265.92
447.12	4790.20
447.32	4769.72
447.53	4419.52
447.73	3942.34
447.93	3604.42
448.14	3276.75
448.34	3223.50
448.55	2985.94
448.75	2854.87
448.96	2772.95
449.16	2471.90
449.36	2260.96
449.57	2045.92
449.77	1908.71
449.98	1722.34
450.18	1808.36
450.39	1884.13
450.59	1775.59
450.79	1726.44
451.00	1740.77
451.20	1746.92
451.41	1714.15
451.61	1791.97
451.81	1730.53
452.02	1716.20
452.22	1722.34
452.43	1748.97
452.63	1703.91
452.84	1785.83
453.04	1697.77
453.24	1677.29
453.45	1691.62
453.65	1712.10
453.86	1740.77
454.06	1771.49
454.26	1728.49
454.47	1691.62
454.67	1873.89
454.87	1740.77
455.08	1703.91
455.28	1884.13
455.49	1755.11
455.69	1613.80
455.89	1875.94
456.10	1828.84
456.30	1751.01
456.51	1781.73
456.71	1697.77
456.91	1763.30
457.12	1820.64
457.32	1779.68
457.52	1677.29
457.73	1789.92
457.93	1800.16
458.14	1742.82
458.34	1640.42
458.54	1769.44
458.75	1705.96
458.95	1808.36
459.15	1753.06
459.36	1775.59
459.56	1818.60
459.76	1855.46
459.97	1728.49
460.17	1728.49
460.37	1820.64
460.58	1748.97
460.78	1826.79
460.99	1734.63
461.19	1669.09
461.39	1718.25
461.60	1730.53
461.80	1812.45
462.00	1689.57
462.21	1665.00
462.41	1611.75
462.61	1689.57
462.82	1658.85
463.02	1722.34
463.22	1787.88
463.43	1763.30
463.63	1697.77
463.83	1798.12
464.04	1822.69
464.24	1693.67
464.44	1751.01
464.64	1679.33
464.85	1804.26
465.05	1816.55
465.25	1699.81
465.46	1738.73
465.66	1718.25
465.86	1779.68
466.07	1726.44
466.27	1726.44
466.47	1734.63
466.68	1671.14
466.88	1824.74
467.08	1798.12
467.29	1820.64
467.49	1761.25
467.69	1738.73
467.89	1712.10
468.10	1761.25
468.30	1697.77
468.50	1789.92
468.71	1708.01
468.91	1767.40
469.11	1894.37
469.31	1802.21
469.52	1701.86
469.72	1902.56
469.92	1873.89
470.13	1710.05
470.33	1767.40
470.53	1816.55
470.73	2107.36
470.94	2301.92
471.14	2361.31
471.34	2594.78
471.54	2394.08
471.75	2297.82
471.95	2164.70
472.15	2070.50
472.36	2142.18
472.56	2033.63
472.76	1968.10
472.96	2039.78
473.17	2035.68
473.37	1904.61
473.57	1880.04
473.77	1898.47
473.98	1763.30
474.18	1718.25
474.38	1900.52
474.58	1673.19
474.79	1730.53
474.99	1763.30
475.19	1791.97
475.39	1650.66
475.60	1673.19
475.80	1759.21
476.00	1689.57
476.20	1697.77
476.41	1732.58
476.61	1814.50
476.81	1777.64
477.01	1789.92
477.21	1867.75
477.42	1800.16
477.62	1710.05
477.82	1742.82
478.02	1804.26
478.23	1757.16
478.43	1710.05
478.63	1740.77
478.83	1734.63
479.03	1785.83
479.24	1757.16
479.44	1820.64
479.64	1656.81
479.84	1578.98
480.04	1673.19
480.25	1710.05
480.45	1708.01
480.65	1765.35
480.85	1722.34
481.06	1708.01
481.26	1718.25
481.46	1767.40
481.66	1703.91
481.86	1683.43
482.06	1832.93
482.27	1642.47
482.47	1789.92
482.67	1748.97
482.87	1746.92
483.07	1783.78
483.28	1636.33
483.48	1640.42
483.68	1777.64
483.88	1648.61
484.08	1593.32
484.29	1662.95
484.49	1699.81
484.69	1634.28
484.89	1787.88
485.09	1787.88
485.29	1830.88
485.50	1849.32
485.70	1699.81
485.90	1753.06
486.10	1767.40
486.30	1796.07
486.50	1763.30
486.71	1691.62
486.91	1748.97
487.11	1800.16
487.31	1728.49
487.51	1724.39
487.71	1662.95
487.91	1714.15
488.12	1642.47
488.32	1554.41
488.52	1652.71
488.72	1667.05
488.92	1736.68
489.12	1779.68
489.32	1781.73
489.53	1787.88
489.73	1667.05
489.93	1822.69
490.13	1652.71
490.33	1679.33
490.53	1755.11
490.73	1814.50
490.94	1675.24
491.14	1779.68
491.34	1923.04
491.54	2138.08
491.74	2539.48
491.94	3053.52
492.14	3098.58
492.34	3004.37
492.54	2842.58
492.75	2531.29
492.95	2488.28
493.15	2435.03
493.35	2359.26
493.55	2275.29
493.75	2144.22
493.95	2174.94
494.15	2004.96
494.35	1847.27
494.56	1943.52
494.76	1830.88
494.96	1796.07
495.16	1763.30
495.36	1718.25
495.56	1751.01
495.76	1681.38
495.96	1736.68
496.16	1736.68
496.36	1820.64
496.56	1781.73
496.77	1761.25
496.97	1714.15
497.17	1802.21
497.37	1640.42
497.57	1732.58
497.77	1761.25
497.97	1669.09
498.17	1808.36
498.37	1818.60
498.57	1734.63
498.77	1660.90
498.97	1789.92
499.17	1849.32
499.38	1679.33
499.58	1822.69
499.78	1843.17
499.98	1796.07
500.18	1779.68
500.38	1753.06
500.58	1859.56
500.78	2625.50
500.98	4466.62
501.18	5904.29
501.38	6797.21
501.58	6993.81
501.78	6754.20
501.98	5447.60
502.18	5066.67
502.38	4532.15
502.58	4196.29
502.78	3946.44
502.98	3661.77
503.18	3446.73
503.38	3223.50
503.59	2832.34
503.79	2729.94
503.99	2455.51
504.19	2250.72
504.39	2222.05
504.59	2318.30
504.79	2115.55
504.99	2074.59
505.19	1986.53
505.39	1914.85
505.59	1974.24
505.79	1961.95
505.99	1847.27
506.19	1867.75
506.39	1892.32
506.59	1716.20
506.79	1640.42
506.99	1765.35
507.19	1660.90
507.39	1808.36
507.59	1695.72
507.79	1740.77
507.99	1681.38
508.19	1757.16
508.39	1730.53
508.59	1734.63
508.79	1847.27
508.99	1855.46
509.19	1730.53
509.39	1781.73
509.59	1730.53
509.79	1689.57
509.99	1769.44
510.19	1761.25
510.39	1841.12
510.59	1785.83
510.79	1708.01
510.99	1681.38
511.19	1738.73
511.39	1841.12
511.59	1820.64
511.79	1832.93
511.99	1728.49
512.19	1869.80
512.38	1740.77
512.58	1669.09
512.78	1701.86
512.98	1779.68
513.18	1861.60
513.38	1667.05
513.58	1822.69
513.78	1689.57
513.98	1814.50
514.18	1740.77
514.38	1699.81
514.58	1816.55
514.78	1656.81
514.98	1665.00
515.18	1656.81
515.38	1710.05
515.58	1902.56
515.78	1736.68
515.98	1736.68
516.18	1765.35
516.38	1734.63
516.57	1765.35
516.77	1689.57
516.97	1808.36
517.17	1722.34
517.37	1570.79
517.57	1785.83
517.77	1777.64
517.97	1703.91
518.17	1765.35
518.37	1705.96
518.57	1705.96
518.77	1759.21
518.97	1763.30
519.16	1746.92
519.36	1877.99
519.56	1697.77
519.76	1802.21
519.96	1708.01
520.16	1820.64
520.36	1650.66
520.56	1810.40
520.76	1726.44
520.96	1738.73
521.16	1804.26
521.35	1824.74
521.55	1898.47
521.75	1763.30
521.95	1695.72
522.15	1728.49
522.35	1656.81
522.55	1689.57
522.75	1783.78
522.95	1736.68
523.14	1681.38
523.34	1771.49
523.54	1716.20
523.74	1794.02
523.94	1814.50
524.14	1650.66
524.34	1777.64
524.54	1818.60
524.73	1771.49
524.93	1751.01
525.13	1779.68
525.33	1652.71
525.53	1972.19
525.73	1814.50
525.93	1818.60
526.13	1742.82
526.32	1787.88
526.52	1834.98
526.72	1746.92
526.92	1746.92
527.12	1677.29
527.32	1658.85
527.52	1728.49
527.71	1753.06
527.91	1726.44
528.11	1660.90
528.31	1722.34
528.51	1683.43
528.71	1753.06
528.90	1722.34
529.10	1904.61
529.30	1818.60
529.50	1562.60
529.70	1660.90
529.90	1675.24
530.09	1718.25
530.29	1732.58
530.49	1679.33
530.69	1865.70
530.89	1847.27
531.09	1814.50
531.28	1714.15
531.48	1837.03
531.68	1759.21
531.88	1773.54
532.08	1847.27
532.28	1765.35
532.47	1877.99
532.67	1890.28
532.87	1753.06
533.07	1660.90
533.27	1734.63
533.46	1708.01
533.66	1757.16
533.86	1738.73
534.06	1728.49
534.26	1798.12
534.45	1712.10
534.65	1826.79
534.85	1800.16
535.05	1732.58
535.25	1783.78
535.44	1662.95
535.64	1757.16
535.84	1714.15
536.04	1779.68
536.24	1742.82
536.43	1699.81
536.63	1740.77
536.83	1775.59
537.03	1748.97
537.22	1667.05
537.42	1591.27
537.62	1742.82
537.82	1730.53
538.02	1822.69
538.21	1814.50
538.41	1863.65
538.61	1726.44
538.81	1730.53
539.00	1800.16
539.20	1710.05
539.40	1738.73
539.60	1665.00
539.79	1787.88
539.99	1699.81
540.19	1732.58
540.39	1765.35
540.58	1769.44
540.78	1755.11
540.98	1738.73
541.18	1763.30
541.37	1740.77
541.57	1744.87
541.77	1822.69
541.97	1724.39
542.16	1634.28
542.36	1710.05
542.56	1773.54
542.76	1855.46
542.95	1787.88
543.15	1800.16
543.35	1771.49
543.54	1697.77
543.74	1681.38
543.94	1923.04
544.14	1740.77
544.33	1779.68
544.53	1677.29
544.73	1763.30
544.93	1619.94
545.12	1720.29
545.32	1771.49
545.52	1710.05
545.71	1650.66
545.91	1662.95
546.11	1716.20
546.30	1662.95
546.50	1800.16
546.70	1812.45
546.90	1722.34
547.09	1734.63
547.29	1791.97
547.49	1802.21
547.68	1710.05
547.88	1787.88
548.08	1763.30
548.27	2211.81
548.47	1681.38
548.67	1785.83
548.87	1789.92
549.06	1751.01
549.26	1732.58
549.46	1736.68
549.65	1746.92
549.85	1796.07
550.05	1818.60
550.24	1742.82
550.44	1746.92
550.64	1685.48
550.83	1828.84
551.03	1820.64
551.23	1738.73
551.42	1736.68
551.62	1671.14
551.82	1755.11
552.01	1763.30
552.21	1755.11
552.41	1771.49
552.60	1865.70
552.80	1783.78
553.00	1652.71
553.19	1746.92
553.39	1783.78
553.59	1710.05
553.78	1779.68
553.98	1804.26
554.17	1699.81
554.37	1794.02
554.57	1820.64
554.76	1673.19
554.96	1808.36
555.16	1718.25
555.35	1814.50
555.55	1759.21
555.75	1771.49
555.94	1828.84
556.14	1646.57
556.33	1732.58
556.53	1714.15
556.73	1724.39
556.92	1738.73
557.12	1812.45
557.32	1832.93
557.51	1837.03
557.71	1787.88
557.90	1804.26
558.10	1763.30
558.30	1697.77
558.49	1679.33
558.69	1712.10
558.88	1783.78
559.08	1738.73
559.28	1732.58
559.47	1652.71
559.67	1820.64
559.86	1869.80
560.06	1820.64
560.26	1708.01
560.45	1789.92
560.65	1689.57
560.84	1832.93
561.04	1734.63
561.24	1751.01
561.43	1716.20
561.63	1787.88
561.82	1783.78
562.02	1761.25
562.22	1722.34
562.41	1738.73
562.61	1681.38
562.80	1763.30
563.00	1943.52
563.19	1820.64
563.39	1787.88
563.59	1800.16
563.78	1648.61
563.98	1658.85
564.17	1699.81
564.37	1671.14
564.56	1789.92
564.76	1665.00
564.96	1857.51
565.15	1787.88
565.35	1853.41
565.54	1720.29
565.74	1859.56
565.93	1710.05
566.13	1718.25
566.32	1769.44
566.52	1828.84
566.71	1755.11
566.91	1812.45
567.11	1710.05
567.30	1695.72
567.50	1783.78
567.69	1746.92
567.89	1726.44
568.08	1796.07
568.28	1857.51
568.47	1714.15
568.67	1753.06
568.86	1777.64
569.06	1832.93
569.25	1796.07
569.45	1611.75
569.64	1738.73
569.84	1744.87
570.04	1716.20
570.23	1697.77
570.43	1722.34
570.62	1798.12
570.82	1814.50
571.01	1763.30
571.21	1693.67
571.40	1736.68
571.60	1783.78
571.79	1730.53
571.99	1787.88
572.18	1714.15
572.38	1746.92
572.57	1714.15
572.77	1726.44
572.96	1925.09
573.16	1765.35
573.35	1746.92
573.55	1857.51
573.74	1814.50
573.94	1732.58
574.13	1693.67
574.33	1820.64
574.52	1818.60
574.71	1736.68
574.91	1822.69
575.10	1732.58
575.30	1761.25
575.49	1656.81
575.69	1781.73
575.88	1701.86
576.08	1746.92
576.27	1824.74
576.47	1714.15
576.66	1871.84
576.86	1853.41
577.05	1869.80
577.25	1826.79
577.44	1894.37
577.64	1740.77
577.83	1826.79
578.02	1712.10
578.22	1861.60
578.41	1757.16
578.61	1820.64
578.80	1679.33
579.00	1828.84
579.19	1810.40
579.39	1849.32
579.58	1855.46
579.77	1787.88
579.97	1781.73
580.16	1820.64
580.36	1853.41
580.55	1877.99
580.75	1775.59
580.94	1681.38
581.13	1906.66
581.33	1888.23
581.52	1773.54
581.72	1865.70
581.91	1890.28
582.11	1726.44
582.30	1816.55
582.49	1791.97
582.69	1824.74
582.88	1796.07
583.08	1812.45
583.27	1740.77
583.47	1773.54
583.66	1783.78
583.85	1705.96
584.05	1806.31
584.24	1763.30
584.44	1759.21
584.63	1775.59
584.82	1847.27
585.02	1920.99
585.21	1804.26
585.41	1828.84
585.60	1841.12
585.79	1900.52
585.99	1984.48
586.18	1933.28
586.37	2199.52
586.57	3475.40
586.76	10114.92
586.96	24667.78
587.15	34328.05
587.34	40734.10
587.54	42220.92
587.73	36546.00
587.93	26177.14
588.12	21503.67
588.31	18278.12
588.51	16342.79
588.70	15165.21
588.89	13995.82
589.09	12615.49
589.28	11034.46
589.47	9310.07
589.67	7993.22
589.86	6344.61
590.06	4931.51
590.25	4005.83
590.44	3051.47
590.64	2525.15
590.83	2275.29
591.02	2111.46
591.22	2033.63
591.41	1923.04
591.60	1820.64
591.80	1947.62
591.99	1816.55
592.18	1769.44
592.38	1867.75
592.57	1806.31
592.76	1789.92
592.96	1775.59
593.15	1791.97
593.34	1789.92
593.54	1783.78
593.73	1775.59
593.92	1791.97
594.12	1722.34
594.31	1763.30
594.50	1853.41
594.70	1767.40
594.89	1877.99
595.08	1685.48
595.28	1753.06
595.47	1947.62
595.66	1691.62
595.86	1695.72
596.05	1753.06
596.24	1757.16
596.43	1894.37
596.63	1820.64
596.82	1767.40
597.01	1794.02
597.21	1822.69
597.40	1810.40
597.59	1748.97
597.79	1748.97
597.98	1775.59
598.17	1824.74
598.36	1753.06
598.56	1712.10
598.75	1755.11
598.94	1757.16
599.14	1763.30
599.33	1771.49
599.52	1816.55
599.71	1738.73
599.91	1853.41
600.10	1832.93
600.29	1767.40
600.48	1753.06
600.68	1832.93
600.87	1816.55
601.06	1726.44
601.26	1767.40
601.45	1759.21
601.64	1759.21
601.83	1789.92
602.03	1746.92
602.22	1650.66
602.41	1724.39
602.60	1800.16
602.80	1816.55
602.99	1789.92
603.18	1757.16
603.37	1785.83
603.57	1769.44
603.76	1816.55
603.95	1757.16
604.14	1716.20
604.34	1712.10
604.53	1742.82
604.72	1660.90
604.91	1779.68
605.10	1775.59
605.30	1691.62
605.49	1920.99
605.68	1800.16
605.87	1759.21
606.07	1728.49
606.26	1763.30
606.45	1777.64
606.64	1783.78
606.84	1730.53
607.03	1783.78
607.22	1755.11
607.41	1742.82
607.60	1667.05
607.80	1800.16
607.99	1746.92
608.18	1742.82
608.37	1685.48
608.56	1640.42
608.76	1806.31
608.95	1826.79
609.14	1794.02
609.33	1787.88
609.52	1693.67
609.72	1728.49
609.91	1812.45
610.10	1757.16
610.29	1814.50
610.48	1746.92
610.68	1789.92
610.87	1650.66
611.06	1755.11
611.25	1712.10
611.44	1847.27
611.63	1687.53
611.83	1832.93
612.02	1732.58
612.21	1806.31
612.40	1644.52
612.59	1701.86
612.79	1740.77
612.98	1699.81
613.17	1808.36
613.36	1753.06
613.55	1847.27
613.74	1634.28
613.93	1791.97
614.13	1763.30
614.32	1751.01
614.51	1746.92
614.70	1804.26
614.89	1689.57
615.08	1744.87
615.28	2099.17
615.47	1728.49
615.66	1751.01
615.85	1765.35
616.04	1837.03
616.23	1712.10
616.42	1730.53
616.62	1732.58
616.81	1841.12
617.00	1732.58
617.19	1791.97
617.38	1648.61
617.57	1714.15
617.76	1789.92
617.95	1777.64
618.15	1761.25
618.34	1910.75
618.53	1662.95
618.72	1761.25
618.91	1826.79
619.10	1785.83
619.29	1767.40
619.48	1800.16
619.68	1630.18
619.87	1740.77
620.06	1646.57
620.25	1810.40
620.44	1736.68
620.63	1708.01
620.82	1726.44
621.01	1744.87
621.20	1779.68
621.39	1665.00
621.59	1710.05
621.78	1773.54
621.97	1712.10
622.16	1796.07
622.35	1726.44
622.54	1812.45
622.73	1826.79
622.92	1650.66
623.11	1748.97
623.30	1673.19
623.49	1759.21
623.68	1705.96
623.88	1882.08
624.07	1740.77
624.26	1673.19
624.45	1777.64
624.64	1701.86
624.83	1734.63
625.02	1777.64
625.21	1730.53
625.40	1742.82
625.59	1757.16
625.78	1777.64
625.97	1787.88
626.16	1728.49
626.35	1705.96
626.54	1767.40
626.74	1857.51
626.93	1699.81
627.12	1746.92
627.31	1730.53
627.50	1708.01
627.69	1777.64
627.88	1703.91
628.07	1757.16
628.26	1673.19
628.45	1726.44
628.64	1701.86
628.83	1734.63
629.02	1712.10
629.21	1691.62
629.40	1812.45
629.59	1691.62
629.78	1703.91
629.97	1742.82
630.16	1763.30
630.35	1652.71
630.54	1687.53
630.73	1734.63
630.92	1701.86
631.11	1652.71
631.30	1765.35
631.49	1806.31
631.68	1746.92
631.87	1763.30
632.06	1716.20
632.25	1857.51
632.44	1667.05
632.63	1800.16
632.82	1730.53
633.01	1642.47
633.20	1751.01
633.39	1669.09
633.58	1671.14
633.77	1738.73
633.96	1736.68
634.15	1791.97
634.34	1785.83
634.53	1722.34
634.72	1765.35
634.91	1660.90
635.10	1796.07
635.29	1802.21
635.48	1718.25
635.67	1726.44
635.86	1669.09
636.05	1810.40
636.24	1693.67
636.43	1783.78
636.62	1800.16
636.81	1624.04
637.00	1732.58
637.19	1796.07
637.38	1761.25
637.57	1742.82
637.76	1748.97
637.95	1773.54
638.14	1654.76
638.33	1689.57
638.52	1689.57
638.71	1662.95
638.89	1703.91
639.08	1779.68
639.27	1804.26
639.46	1708.01
639.65	1810.40
639.84	1759.21
640.03	1759.21
640.22	1708.01
640.41	1828.84
640.60	1693.67
640.79	1714.15
640.98	1665.00
641.17	1746.92
641.36	1726.44
641.55	1703.91
641.74	1656.81
641.92	1650.66
642.11	1630.18
642.30	1800.16
642.49	1708.01
642.68	1714.15
642.87	1736.68
643.06	1734.63
643.25	1685.48
643.44	1603.56
643.63	1832.93
643.82	1732.58
644.00	1605.61
644.19	1806.31
644.38	1656.81
644.57	1759.21
644.76	1787.88
644.95	1705.96
645.14	1697.77
645.33	1746.92
645.52	1636.33
645.71	1658.85
645.89	1660.90
646.08	1716.20
646.27	1718.25
646.46	1816.55
646.65	1611.75
646.84	1753.06
647.03	1699.81
647.22	1775.59
647.40	1744.87
647.59	1783.78
647.78	1687.53
647.97	1667.05
648.16	1658.85
648.35	1765.35
648.54	1791.97
648.73	1705.96
648.91	1701.86
649.10	1724.39
649.29	1609.70
649.48	1718.25
649.67	1828.84
649.86	1781.73
650.05	1751.01
650.23	1796.07
650.42	1695.72
650.61	1728.49
650.80	1736.68
650.99	1855.46
651.18	1767.40
651.36	1789.92
651.55	1679.33
651.74	1779.68
651.93	1738.73
652.12	1705.96
652.31	1789.92
652.49	1691.62
652.68	1652.71
652.87	1705.96
653.06	1775.59
653.25	1871.84
653.44	1738.73
653.62	1828.84
653.81	1720.29
654.00	1708.01
654.19	1744.87
654.38	1869.80
654.56	1726.44
654.75	1740.77
654.94	1753.06
655.13	1800.16
655.32	1785.83
655.51	1789.92
655.69	1751.01
655.88	1753.06
656.07	1591.27
656.26	1814.50
656.45	1685.48
656.63	1665.00
656.82	1738.73
657.01	1759.21
657.20	1642.47
657.38	1806.31
657.57	1728.49
657.76	1724.39
657.95	1755.11
658.14	1679.33
658.32	1740.77
658.51	1687.53
658.70	1738.73
658.89	1722.34
659.08	1746.92
659.26	1824.74
659.45	1738.73
659.64	1718.25
659.83	1654.76
660.01	1920.99
660.20	1677.29
660.39	1779.68
660.58	1568.74
660.76	1775.59
660.95	1619.94
661.14	1826.79
661.33	1628.14
661.51	1714.15
661.70	1685.48
661.89	1691.62
662.08	1751.01
662.26	1658.85
662.45	1667.05
662.64	1816.55
662.83	1826.79
663.01	1714.15
663.20	1820.64
663.39	1751.01
663.58	1714.15
663.76	1734.63
663.95	1753.06
664.14	1648.61
664.32	1691.62
664.51	1669.09
664.70	1642.47
664.89	1746.92
665.07	1695.72
665.26	1767.40
665.45	1701.86
665.64	1757.16
665.82	1738.73
666.01	1837.03
666.20	1726.44
666.38	1726.44
666.57	1814.50
666.76	2181.09
666.95	4685.75
667.13	10483.55
667.32	15193.88
667.51	17950.45
667.69	19287.77
667.88	17710.83
668.07	12183.37
668.25	9604.97
668.44	8083.33
668.63	7497.61
668.81	6899.61
669.00	6272.93
669.19	5787.56
669.38	5162.93
669.56	4646.84
669.75	3895.24
669.94	3471.31
670.12	2906.07
670.31	2494.43
670.50	2328.54
670.68	2031.58
670.87	2000.87
671.06	1857.51
671.24	1824.74
671.43	1847.27
671.62	1738.73
671.80	1708.01
671.99	1724.39
672.18	1716.20
672.36	1800.16
672.55	1767.40
672.74	1757.16
672.92	1708.01
673.11	1779.68
673.29	1581.03
673.48	1773.54
673.67	1662.95
673.85	1779.68
674.04	1753.06
674.23	1740.77
674.41	1826.79
674.60	1675.24
674.79	1585.13
674.97	1730.53
675.16	1757.16
675.34	1775.59
675.53	1671.14
675.72	1732.58
675.90	1820.64
676.09	1730.53
676.28	1736.68
676.46	1669.09
676.65	1740.77
676.83	1650.66
677.02	1714.15
677.21	1775.59
677.39	1748.97
677.58	1714.15
677.77	1712.10
677.95	1736.68
678.14	1738.73
678.32	1794.02
678.51	1640.42
678.70	1875.94
678.88	1683.43
679.07	1796.07
679.25	1748.97
679.44	1746.92
679.63	1660.90
679.81	1759.21
680.00	1830.88
680.18	1798.12
680.37	1771.49
680.55	1720.29
680.74	1693.67
680.93	1658.85
681.11	1763.30
681.30	1714.15
681.48	1728.49
681.67	1773.54
681.85	1705.96
682.04	1683.43
682.23	1787.88
682.41	1667.05
682.60	1712.10
682.78	1695.72
682.97	1726.44
683.15	1679.33
683.34	1685.48
683.53	1800.16
683.71	1568.74
683.90	1837.03
684.08	1775.59
684.27	1738.73
684.45	1740.77
684.64	1839.08
684.82	1605.61
685.01	1732.58
685.19	1697.77
685.38	1861.60
685.57	1638.38
685.75	1665.00
685.94	1755.11
686.12	1689.57
686.31	1677.29
686.49	1730.53
686.68	1701.86
686.86	1763.30
687.05	1710.05
687.23	1873.89
687.42	1697.77
687.60	1589.22
687.79	1722.34
687.97	1751.01
688.16	1845.22
688.34	1742.82
688.53	1671.14
688.71	1779.68
688.90	1783.78
689.08	1691.62
689.27	1644.52
689.45	1820.64
689.64	1665.00
689.82	1734.63
690.01	1695.72
690.19	1689.57
690.38	1675.24
690.56	1765.35
690.75	1757.16
690.93	1691.62
691.12	1673.19
691.30	1724.39
691.49	1708.01
691.67	1746.92
691.86	1847.27
692.04	1681.38
692.23	1665.00
692.41	1693.67
692.60	1849.32
692.78	1761.25
692.97	1718.25
693.15	1740.77
693.34	1812.45
693.52	1871.84
693.71	1720.29
693.89	1716.20
694.08	1632.23
694.26	1826.79
694.44	1865.70
694.63	1763.30
694.81	1726.44
695.00	1693.67
695.18	1781.73
695.37	1804.26
695.55	1757.16
695.74	1654.76
695.92	1669.09
696.10	1777.64
696.29	1701.86
696.47	1679.33
696.66	1658.85
696.84	1728.49
697.03	1714.15
697.21	1808.36
697.40	2365.40
697.58	1806.31
697.76	1705.96
697.95	1624.04
698.13	1703.91
698.32	1767.40
698.50	1689.57
698.68	1742.82
698.87	1755.11
699.05	1781.73
699.24	1791.97
699.42	1660.90
699.61	1765.35
699.79	1652.71
699.97	1779.68
700.16	1640.42
700.34	1691.62
700.53	1691.62
700.71	1828.84
700.89	1703.91
701.08	1669.09
701.26	1751.01
701.45	2105.31
701.63	1675.24
701.81	1746.92
702.00	1681.38
702.18	1714.15
702.37	1644.52
702.55	1722.34
702.73	1693.67
702.92	1701.86
703.10	1810.40
703.28	1718.25
703.47	1650.66
703.65	1816.55
703.84	1757.16
704.02	1767.40
704.20	1869.80
704.39	1675.24
704.57	1695.72
704.75	1773.54
704.94	1837.03
705.12	1798.12
705.30	1740.77
705.49	2258.91
705.67	4425.66
705.86	9404.27
706.04	12674.88
706.22	14397.22
706.41	15202.07
706.59	13850.41
706.77	9301.87
706.96	7233.43
707.14	6600.60
707.32	5978.02
707.51	5615.53
707.69	4847.54
707.87	4229.06
708.06	3495.88
708.24	2928.60
708.42	2422.75
708.61	2273.25
708.79	1880.04
708.97	1830.88
709.16	1787.88
709.34	1742.82
709.52	1685.48
709.71	1705.96
709.89	1767.40
710.07	1720.29
710.26	1677.29
710.44	1757.16
710.62	1800.16
710.80	1765.35
710.99	1796.07
711.17	1781.73
711.35	1689.57
711.54	1730.53
711.72	1828.84
711.90	1656.81
712.09	1740.77
712.27	1624.04
712.45	1748.97
712.63	1759.21
712.82	1742.82
713.00	1759.21
713.18	1810.40
713.37	1710.05
713.55	1775.59
713.73	1722.34
713.91	1753.06
714.10	1685.48
714.28	1798.12
714.46	1734.63
714.65	1689.57
714.83	1761.25
715.01	1773.54
715.19	1705.96
715.38	1617.90
715.56	1689.57
715.74	1648.61
715.92	1755.11
716.11	1789.92
716.29	1638.38
716.47	1695.72
716.65	1740.77
716.84	1644.52
717.02	1761.25
717.20	1654.76
717.38	1642.47
717.57	1734.63
717.75	1773.54
717.93	1665.00
718.11	1773.54
718.30	1589.22
718.48	1685.48
718.66	1796.07
718.84	1722.34
719.03	1757.16
719.21	1658.85
719.39	1771.49
719.57	1796.07
719.75	1767.40
719.94	1697.77
720.12	1701.86
720.30	1734.63
720.48	1775.59
720.67	1689.57
720.85	1740.77
721.03	1736.68
721.21	1689.57
721.39	1798.12
721.58	1761.25
721.76	1742.82
721.94	1781.73
722.12	1740.77
722.30	1794.02
722.49	1662.95
722.67	1740.77
722.85	1763.30
723.03	1669.09
723.21	1652.71
723.40	1742.82
723.58	1718.25
723.76	1755.11
723.94	1800.16
724.12	1738.73
724.30	1775.59
724.49	1708.01
724.67	1660.90
724.85	1808.36
725.03	1675.24
725.21	1738.73
725.40	1800.16
725.58	1730.53
725.76	1791.97
725.94	1759.21
726.12	1771.49
726.30	1716.20
726.49	1736.68
726.67	1785.83
726.85	1755.11
727.03	1787.88
727.21	2148.32
727.39	2973.65
727.57	3823.56
727.76	4237.25
727.94	4573.11
728.12	4466.62
728.30	3805.13
728.48	2963.41
728.66	2809.81
728.84	2562.01
729.03	2332.64
729.21	2109.41
729.39	2023.39
729.57	1888.23
729.75	1871.84
729.93	1900.52
730.11	1710.05
730.30	1802.21
730.48	1699.81
730.66	1781.73
730.84	1806.31
731.02	1681.38
731.20	1791.97
731.38	1673.19
731.56	1642.47
731.74	1689.57
731.93	1769.44
732.11	1685.48
732.29	1650.66
732.47	1687.53
732.65	1691.62
732.83	1794.02
733.01	1755.11
733.19	1630.18
733.37	1759.21
733.56	1816.55
733.74	1677.29
733.92	1748.97
734.10	1675.24
734.28	1779.68
734.46	1679.33
734.64	1701.86
734.82	1753.06
735.00	1703.91
735.18	1652.71
735.36	1683.43
735.54	1695.72
735.73	1689.57
735.91	1796.07
736.09	1724.39
736.27	1708.01
736.45	1800.16
736.63	1644.52
736.81	1771.49
736.99	1765.35
737.17	1812.45
737.35	1689.57
737.53	1834.98
737.71	1683.43
737.89	1851.36
738.07	1677.29
738.25	1738.73
738.43	1654.76
738.61	1724.39
738.80	1705.96
738.98	1564.65
739.16	1607.66
739.34	1667.05
739.52	1759.21
739.70	1726.44
739.88	1791.97
740.06	1800.16
740.24	1601.51
740.42	1751.01
740.60	1632.23
740.78	1632.23
740.96	1642.47
741.14	1751.01
741.32	1679.33
741.50	1593.32
741.68	1869.80
741.86	1820.64
742.04	1724.39
742.22	1630.18
742.40	1708.01
742.58	1720.29
742.76	1677.29
742.94	1722.34
743.12	1669.09
743.30	1648.61
743.48	1759.21
743.66	1765.35
743.84	1689.57
744.02	1669.09
744.20	1720.29
744.38	1701.86
744.56	1681.38
744.74	1853.41
744.92	1814.50
745.10	1810.40
745.28	1767.40
745.46	1787.88
745.64	1699.81
745.82	1820.64
746.00	1681.38
746.18	1781.73
746.36	1652.71
746.54	1724.39
746.72	1685.48
746.90	1728.49
747.08	1746.92
747.26	1710.05
747.44	1765.35
747.62	1789.92
747.80	1740.77
747.98	1751.01
748.15	1640.42
748.33	1830.88
748.51	1673.19
748.69	1769.44
748.87	1681.38
749.05	1685.48
749.23	1679.33
749.41	1757.16
749.59	1710.05
749.77	1773.54
749.95	1650.66
750.13	1675.24
750.31	1746.92
750.49	1732.58
750.67	1755.11
750.85	1798.12
751.03	1716.20
751.20	1845.22
751.38	1734.63
751.56	1798.12
751.74	1732.58
751.92	1724.39
752.10	1675.24
752.28	1740.77
752.46	1728.49
752.64	1671.14
752.82	1679.33
753.00	1746.92
753.18	1642.47
753.35	1658.85
753.53	1705.96
753.71	1685.48
753.89	1755.11
754.07	1646.57
754.25	1757.16
754.43	1740.77
754.61	1669.09
754.79	1734.63
754.97	1665.00
755.14	1791.97
755.32	1679.33
755.50	1665.00
755.68	1765.35
755.86	1652.71
756.04	1693.67
756.22	1597.42
756.40	1798.12
756.57	1794.02
756.75	1685.48
756.93	1720.29
757.11	1787.88
757.29	1697.77
757.47	1693.67
757.65	1654.76
757.82	1587.18
758.00	1617.90
758.18	1630.18
758.36	1654.76
758.54	1775.59
758.72	1615.85
758.90	1722.34
759.07	1718.25
759.25	1662.95
759.43	1763.30
759.61	1650.66
759.79	2189.28
759.97	1837.03
760.15	1644.52
760.32	1675.24
760.50	1718.25
760.68	1705.96
760.86	1626.09
761.04	1806.31
761.22	1777.64
761.39	1738.73
761.57	1765.35
761.75	1687.53
761.93	1748.97
762.11	1679.33
762.28	1740.77
762.46	1703.91
762.64	1744.87
762.82	1644.52
763.00	1761.25
763.18	1728.49
763.35	1656.81
763.53	1740.77
763.71	1746.92
763.89	1691.62
764.07	1683.43
764.24	1669.09
764.42	1771.49
764.60	1656.81
764.78	1755.11
764.96	1789.92
765.13	1763.30
765.31	1732.58
765.49	1742.82
765.67	1705.96
765.84	1734.63
766.02	1714.15
766.20	1626.09
766.38	1683.43
766.56	1720.29
766.73	1798.12
766.91	1785.83
767.09	1814.50
767.27	1767.40
767.44	1613.80
767.62	1773.54
767.80	1716.20
767.98	1763.30
768.15	1648.61
768.33	1746.92
768.51	1791.97
768.69	1675.24
768.87	1744.87
769.04	1767.40
769.22	1855.46
769.40	1865.70
769.58	1888.23
769.75	1755.11
769.93	1839.08
770.11	1693.67
770.28	1699.81
770.46	1773.54
770.64	1730.53
770.82	1632.23
770.99	1708.01
771.17	1759.21
771.35	1634.28
771.53	1755.11
771.70	1636.33
771.88	1730.53
772.06	1710.05
772.23	1662.95
772.41	1714.15
772.59	1781.73
772.77	1593.32
772.94	1683.43
773.12	1765.35
773.30	1716.20
773.47	1675.24
773.65	1697.77
773.83	1839.08
774.01	1720.29
774.18	1583.08
774.36	1746.92
774.54	1683.43
774.71	1687.53
774.89	1644.52
775.07	1669.09
775.24	1753.06
775.42	1554.41
775.60	1882.08
775.78	1695.72
775.95	1695.72
776.13	1601.51
776.31	1648.61
776.48	1710.05
776.66	1812.45
776.84	1714.15
777.01	1654.76
777.19	1675.24
777.37	1615.85
777.54	1791.97
777.72	1806.31
777.90	1705.96
778.07	1710.05
778.25	1892.32
778.43	1736.68
778.60	1716.20
778.78	1822.69
778.96	1771.49
779.13	1652.71
779.31	1718.25
779.49	1724.39
779.66	1650.66
779.84	1701.86
780.01	1665.00
780.19	1570.79
780.37	1783.78
780.54	1705.96
780.72	1705.96
780.90	1681.38
781.07	1683.43
781.25	1595.37
781.43	1802.21
781.60	1773.54
781.78	1798.12
781.95	1779.68
782.13	1644.52
782.31	1699.81
782.48	1679.33
782.66	1701.86
782.83	1845.22
783.01	1699.81
783.19	1753.06
783.36	1689.57
783.54	1697.77
783.72	1740.77
783.89	1701.86
784.07	1675.24
784.24	1769.44
784.42	1765.35
784.60	1736.68
784.77	1726.44
784.95	1628.14
785.12	1675.24
785.30	1687.53
785.47	1619.94
785.65	1673.19
785.83	1693.67
786.00	1697.77
786.18	1804.26
786.35	1679.33
786.53	1648.61
786.71	1730.53
786.88	1738.73
787.06	1705.96
787.23	1679.33
787.41	1662.95
787.58	1744.87
787.76	1646.57
787.94	1650.66
788.11	1689.57
788.29	1683.43
788.46	1699.81
788.64	1589.22
788.81	1718.25
788.99	1695.72
789.16	1724.39
789.34	1677.29
789.52	1658.85
789.69	1683.43
789.87	1621.99
790.04	1681.38
790.22	1742.82
790.39	1816.55
790.57	1621.99
790.74	1656.81
790.92	1755.11
791.09	1642.47
791.27	1673.19
791.44	1771.49
791.62	1705.96
791.79	1755.11
791.97	1708.01
792.15	1832.93
792.32	1814.50
792.50	1708.01
792.67	1812.45
792.85	1724.39
793.02	1759.21
793.20	1689.57
793.37	1667.05
793.55	1763.30
793.72	1662.95
793.90	1783.78
794.07	1644.52
794.25	1683.43
794.42	1742.82
794.60	1722.34
794.77	1693.67
794.95	1759.21
795.12	1748.97
795.30	1681.38
795.47	1652.71
795.65	1898.47
795.82	1775.59
796.00	1679.33
796.17	1652.71
796.34	1722.34
796.52	1724.39
796.69	1796.07
796.87	1732.58
797.04	1693.67
797.22	1742.82
797.39	1671.14
797.57	1656.81
797.74	1679.33
797.92	1753.06
798.09	1779.68
798.27	1802.21
798.44	1675.24
798.62	1671.14
798.79	1771.49
798.96	1746.92
799.14	1681.38
799.31	1834.98
799.49	1671.14
799.66	1742.82
799.84	1691.62
800.01	1708.01
800.19	1794.02
800.36	1658.85
800.53	1689.57
800.71	1712.10
800.88	1779.68
801.06	1689.57
801.23	1746.92
801.41	1734.63
801.58	1697.77
801.75	1759.21
801.93	1783.78
802.10	1685.48
802.28	1701.86
802.45	1736.68
802.63	1656.81
802.80	1738.73
802.97	1773.54
803.15	1783.78
803.32	1679.33
803.50	1681.38
803.67	1652.71
803.84	1650.66
804.02	1685.48
804.19	1636.33
804.37	1599.46
804.54	1656.81
804.71	1705.96
804.89	1730.53
805.06	1658.85
805.24	1738.73
805.41	1681.38
805.58	1730.53
805.76	1812.45
805.93	1726.44
806.10	1796.07
806.28	1775.59
806.45	1710.05
806.63	1748.97
806.80	1763.30
806.97	1751.01
807.15	1761.25
807.32	1742.82
807.49	1667.05
807.67	1665.00
807.84	1740.77
808.01	1624.04
808.19	1898.47
808.36	1769.44
808.54	1691.62
808.71	1650.66
808.88	1753.06
809.06	1718.25
809.23	1847.27
809.40	1736.68
809.58	1736.68
809.75	1695.72
809.92	1687.53
810.10	1812.45
810.27	1779.68
810.44	1794.02
810.62	1671.14
810.79	1742.82
810.96	1656.81
811.14	1705.96
811.31	1740.77
811.48	1673.19
811.66	1746.92
811.83	1789.92
812.00	1779.68
812.18	1769.44
812.35	1751.01
812.52	1613.80
812.69	1679.33
812.87	1746.92
813.04	1687.53
813.21	1738.73
813.39	1722.34
813.56	1728.49
813.73	1785.83
813.91	1621.99
814.08	1718.25
814.25	1714.15
814.42	1634.28
814.60	1650.66
814.77	1734.63
814.94	1753.06
815.12	1658.85
815.29	1826.79
815.46	1771.49
815.63	1728.49
815.81	1673.19
815.98	1697.77
816.15	1722.34
816.33	1677.29
816.50	1714.15
816.67	1699.81
816.84	1691.62
817.02	1669.09
817.19	1724.39
817.36	1679.33
817.53	1759.21
817.71	1695.72
817.88	1763.30
818.05	1697.77
818.22	1640.42
818.40	1794.02
818.57	1718.25
818.74	1755.11
818.91	1695.72
819.09	1714.15
819.26	1712.10
819.43	1699.81
819.60	1697.77
819.78	1681.38
819.95	1785.83
820.12	1611.75
820.29	1677.29
820.47	1779.68
820.64	1671.14
820.81	1716.20
820.98	1634.28
821.15	1683.43
821.33	1722.34
821.50	1654.76
821.67	1722.34
821.84	1730.53
822.02	1769.44
822.19	1800.16
822.36	1656.81
822.53	1759.21
822.70	1662.95
822.88	1677.29
823.05	1748.97
823.22	1701.86
823.39	1744.87
823.56	1722.34
823.74	1859.56
823.91	1630.18
824.08	1624.04
824.25	1638.38
824.42	1808.36
824.60	1650.66
824.77	1763.30
824.94	1724.39
825.11	1748.97
825.28	1642.47
825.45	1716.20
825.63	1769.44
825.80	1714.15
825.97	1732.58
826.14	1724.39
826.31	1621.99
826.48	1755.11
826.66	1574.89
826.83	1697.77
827.00	1685.48
827.17	1628.14
827.34	1646.57
827.51	1685.48
827.69	1708.01
827.86	1673.19
828.03	1648.61
828.20	1689.57
828.37	1685.48
828.54	1677.29
828.71	1636.33
828.89	1775.59
829.06	1726.44
829.23	1759.21
829.40	1695.72
829.57	1662.95
829.74	1669.09
829.91	1671.14
830.09	1722.34
830.26	1796.07
830.43	1816.55
830.60	1734.63
830.77	1705.96
830.94	1775.59
831.11	1814.50
831.28	1673.19
831.46	1794.02
831.63	1722.34
831.80	1742.82
831.97	1673.19
832.14	1685.48
832.31	1759.21
832.48	1726.44
832.65	1755.11
832.82	1804.26
832.99	1685.48
833.17	1660.90
833.34	1845.22
833.51	1724.39
833.68	1648.61
833.85	1693.67
834.02	1656.81
834.19	1652.71
834.36	1677.29
834.53	1662.95
834.70	1751.01
834.87	1806.31
835.04	1683.43
835.22	1681.38
835.39	1667.05
835.56	1695.72
835.73	1693.67
835.90	1767.40
836.07	1642.47
836.24	1728.49
836.41	1609.70
836.58	1648.61
836.75	1759.21
836.92	1699.81
837.09	1708.01
837.26	1728.49
837.43	1722.34
837.60	1769.44
837.77	1667.05
837.94	1744.87
838.12	1781.73
838.29	1716.20
838.46	1675.24
838.63	1638.38
838.80	1845.22
838.97	1693.67
839.14	1716.20
839.31	1638.38
839.48	1810.40
839.65	1675.24
839.82	1859.56
839.99	1753.06
840.16	1675.24
840.33	1687.53
840.50	1718.25
840.67	1687.53
840.84	1527.78
841.01	1789.92
841.18	1634.28
841.35	1626.09
841.52	1755.11
841.69	1875.94
841.86	1667.05
842.03	1693.67
842.20	1771.49
842.37	1691.62
842.54	1728.49
842.71	1712.10
842.88	1626.09
843.05	1722.34
843.22	1654.76
843.39	1740.77
843.56	1730.53
843.73	1613.80
843.90	1691.62
844.07	1783.78
844.24	1740.77
844.41	1753.06
844.58	1652.71
844.75	1705.96
844.92	1753.06
845.09	1679.33
845.26	1665.00
845.43	1759.21
845.60	1691.62
845.77	1738.73
845.94	1759.21
846.10	1728.49
846.27	1640.42
846.44	1640.42
846.61	1667.05
846.78	1714.15
846.95	1736.68
847.12	1732.58
847.29	1693.67
847.46	1626.09
847.63	1779.68
847.80	1607.66
847.97	1730.53
848.14	1859.56
848.31	1689.57
848.48	1656.81
848.65	1738.73
848.82	1685.48
848.98	1861.60
849.15	1730.53
849.32	1800.16
849.49	1773.54
849.66	1722.34
849.83	1673.19
850.00	1662.95
850.17	1699.81
850.34	1751.01
850.51	1685.48
850.68	1673.19
850.85	1843.17
851.01	1814.50
851.18	1714.15
851.35	1726.44
851.52	1689.57
851.69	1869.80
851.86	1648.61
852.03	1691.62
852.20	1783.78
852.37	1738.73
852.53	1677.29
852.70	1671.14
852.87	1660.90
853.04	1726.44
853.21	1689.57
853.38	1738.73
853.55	1708.01
853.72	1714.15
853.89	1705.96
854.05	1726.44
854.22	1605.61
854.39	1665.00
854.56	1748.97
854.73	1763.30
854.90	1683.43
855.07	1679.33
855.23	1687.53
855.40	1714.15
855.57	1718.25
855.74	1628.14
855.91	1847.27
856.08	1593.32
856.25	1685.48
856.41	1687.53
856.58	1716.20
856.75	1677.29
856.92	1648.61
857.09	1769.44
857.26	1523.69
857.42	1722.34
857.59	1716.20
857.76	1656.81
857.93	1708.01
858.10	1697.77
858.27	1632.23
858.43	1761.25
858.60	1714.15
858.77	1667.05
858.94	1746.92
859.11	1753.06
859.27	1708.01
859.44	1673.19
859.61	1810.40
859.78	1724.39
859.95	1746.92
860.12	1703.91
860.28	1837.03
860.45	1871.84
860.62	1658.85
860.79	1789.92
860.95	1738.73
861.12	1673.19
861.29	1728.49
861.46	1679.33
861.63	1730.53
861.79	1714.15
861.96	1554.41
862.13	1718.25
862.30	1763.30
862.47	1658.85
862.63	1673.19
862.80	1765.35
862.97	1708.01
863.14	1816.55
863.30	1669.09
863.47	1683.43
863.64	1751.01
863.81	1755.11
863.97	1683.43
864.14	1720.29
864.31	1681.38
864.48	1671.14
864.65	1693.67
864.81	1681.38
864.98	1710.05
865.15	1724.39
865.32	1763.30
865.48	1681.38
865.65	1824.74
865.82	1697.77
865.98	1732.58
866.15	1759.21
866.32	1650.66
866.49	1660.90
866.65	1775.59
866.82	1624.04
866.99	1705.96
867.16	1701.86
867.32	1638.38
867.49	1744.87
867.66	1748.97
867.83	1675.24
867.99	1681.38
868.16	1644.52
868.33	1621.99
868.49	1681.38
868.66	1640.42
868.83	1734.63
868.99	1718.25
869.16	1748.97
869.33	1765.35
869.50	1736.68
869.66	1740.77
869.83	1689.57
870.00	1595.37
870.16	1763.30
870.33	1742.82
870.50	1771.49
870.66	1654.76
870.83	1894.37
871.00	1656.81
871.17	1722.34
871.33	1730.53
871.50	1646.57
871.67	1775.59
871.83	1609.70
872.00	1751.01
872.17	1699.81
872.33	1816.55
872.50	1732.58
872.67	1701.86
872.83	1755.11
873.00	1687.53
873.17	1716.20
873.33	1681.38
873.50	1812.45
873.67	1662.95
873.83	1665.00
874.00	1726.44
874.16	1841.12
874.33	1712.10
874.50	1675.24
874.66	1787.88
874.83	1718.25
875.00	1738.73
875.16	1759.21
875.33	1726.44
875.50	1591.27
875.66	1660.90
875.83	1648.61
875.99	1791.97
876.16	1716.20
876.33	1701.86
876.49	1646.57
876.66	1757.16
876.83	1740.77
876.99	1636.33
877.16	1718.25
877.32	1658.85
877.49	1665.00
877.66	1759.21
877.82	1806.31
877.99	1771.49
878.15	1716.20
878.32	1613.80
878.49	1773.54
878.65	1697.77
878.82	1802.21
878.98	1640.42
879.15	1677.29
879.32	1701.86
879.48	1701.86
879.65	1693.67
879.81	1730.53
879.98	1689.57
880.15	1658.85
880.31	1775.59
880.48	1675.24
880.64	1765.35
880.81	1710.05
880.97	1861.60
881.14	1732.58
881.31	1652.71
881.47	1863.65
881.64	1650.66
881.80	1615.85
881.97	1708.01
882.13	1849.32
882.30	1681.38
882.47	1681.38
882.63	1675.24
882.80	1699.81
882.96	1681.38
883.13	1765.35
883.29	1708.01
883.46	1781.73
883.62	1679.33
883.79	1689.57
883.95	1783.78
884.12	1665.00
884.29	1832.93
884.45	1652.71
884.62	1804.26
884.78	1630.18
884.95	1771.49
885.11	1695.72
885.28	1738.73
885.44	1621.99
885.61	1685.48
885.77	1759.21
885.94	1777.64
886.10	1736.68
886.27	1662.95
886.43	1810.40
886.60	1757.16
886.76	1675.24
886.93	1701.86
887.09	1734.63
887.26	1591.27
887.42	1708.01
887.59	1714.15
887.75	1757.16
887.92	1753.06
888.08	1773.54
888.25	1820.64
888.41	1730.53
888.58	1722.34
888.74	1665.00
888.91	1660.90
>>>>>End Processed Spectral Data<<<<<
