SpectraSuite Data File
++++++++++++++++++++++++++++++++++++
Date: Mon Jun 06 13:09:57 CEST 2016
User: root
Dark Spectrum Present: No
Reference Spectrum Present: No
Number of Sampled Component Spectra: 1
Spectrometers: USB4C02835
Integration Time (usec): 100000 (USB4C02835)
Spectra Averaged: 1 (USB4C02835)
Boxcar Smoothing: 0 (USB4C02835)
Correct for Electrical Dark: No (USB4C02835)
Strobe/Lamp Enabled: No (USB4C02835)
Correct for Detector Non-linearity: No (USB4C02835)
Correct for Stray Light: No (USB4C02835)
Number of Pixels in Processed Spectrum: 3648
>>>>>Begin Processed Spectral Data<<<<<
177.47	1558.50
177.69	1558.50
177.91	1558.50
178.13	1353.71
178.36	1492.97
178.58	1669.09
178.80	1675.24
179.02	1648.61
179.24	1722.34
179.46	1687.53
179.68	1748.97
179.90	1710.05
180.13	1718.25
180.35	1710.05
180.57	1646.57
180.79	1703.91
181.01	1660.90
181.23	1720.29
181.45	1746.92
181.67	1685.48
181.90	1742.82
182.12	1722.34
182.34	1671.14
182.56	1714.15
182.78	1642.47
183.00	1687.53
183.22	1683.43
183.44	1574.89
183.66	1796.07
183.89	1767.40
184.11	1687.53
184.33	1697.77
184.55	1802.21
184.77	1660.90
184.99	1800.16
185.21	1607.66
185.43	1896.42
185.65	1665.00
185.87	1712.10
186.10	1822.69
186.32	1771.49
186.54	1693.67
186.76	1720.29
186.98	1738.73
187.20	1607.66
187.42	1660.90
187.64	1677.29
187.86	1736.68
188.08	1738.73
188.30	1722.34
188.52	1773.54
188.75	1824.74
188.97	1757.16
189.19	1714.15
189.41	1673.19
189.63	1804.26
189.85	1701.86
190.07	1603.56
190.29	1689.57
190.51	1814.50
190.73	1552.36
190.95	1787.88
191.17	1691.62
191.39	1572.84
191.61	1755.11
191.84	1691.62
192.06	1662.95
192.28	1578.98
192.50	1824.74
192.72	1708.01
192.94	1701.86
193.16	1718.25
193.38	1687.53
193.60	1656.81
193.82	1677.29
194.04	1703.91
194.26	1714.15
194.48	1665.00
194.70	1718.25
194.92	1726.44
195.14	1705.96
195.36	1677.29
195.58	1789.92
195.80	1712.10
196.02	1669.09
196.24	1646.57
196.46	1705.96
196.69	1607.66
196.91	1804.26
197.13	1662.95
197.35	1673.19
197.57	1845.22
197.79	1705.96
198.01	1714.15
198.23	1722.34
198.45	1746.92
198.67	1626.09
198.89	1648.61
199.11	1748.97
199.33	1609.70
199.55	1581.03
199.77	1705.96
199.99	1673.19
200.21	1658.85
200.43	1689.57
200.65	1714.15
200.87	1656.81
201.09	1705.96
201.31	1607.66
201.53	1781.73
201.75	1677.29
201.97	1722.34
202.19	1714.15
202.41	1609.70
202.63	1806.31
202.85	1710.05
203.07	1679.33
203.29	1718.25
203.51	1609.70
203.73	1648.61
203.95	1845.22
204.17	1679.33
204.39	1685.48
204.61	1708.01
204.83	1681.38
205.05	1726.44
205.27	1767.40
205.49	1759.21
205.71	1687.53
205.93	1642.47
206.15	1705.96
206.37	1738.73
206.59	1697.77
206.81	1652.71
207.03	1628.14
207.25	1642.47
207.47	1761.25
207.69	1722.34
207.91	1771.49
208.13	1812.45
208.34	1708.01
208.56	1617.90
208.78	1697.77
209.00	1615.85
209.22	1746.92
209.44	1697.77
209.66	1716.20
209.88	1685.48
210.10	1722.34
210.32	1660.90
210.54	1800.16
210.76	1718.25
210.98	1742.82
211.20	1581.03
211.42	1722.34
211.64	1738.73
211.86	1714.15
212.08	1699.81
212.30	1685.48
212.52	1753.06
212.74	1736.68
212.96	1724.39
213.17	1705.96
213.39	1671.14
213.61	1808.36
213.83	1773.54
214.05	1652.71
214.27	1736.68
214.49	1607.66
214.71	1597.42
214.93	1757.16
215.15	1650.66
215.37	1722.34
215.59	1640.42
215.81	1695.72
216.03	1753.06
216.24	1677.29
216.46	1656.81
216.68	1667.05
216.90	1773.54
217.12	1740.77
217.34	1761.25
217.56	1734.63
217.78	1748.97
218.00	1708.01
218.22	1732.58
218.44	1697.77
218.66	1804.26
218.87	1738.73
219.09	1685.48
219.31	1746.92
219.53	1789.92
219.75	1734.63
219.97	1728.49
220.19	1771.49
220.41	1660.90
220.63	1755.11
220.85	1720.29
221.06	1621.99
221.28	1740.77
221.50	1640.42
221.72	1669.09
221.94	1734.63
222.16	1693.67
222.38	1773.54
222.60	1759.21
222.82	1681.38
223.03	1710.05
223.25	1595.37
223.47	1738.73
223.69	1761.25
223.91	1699.81
224.13	1714.15
224.35	1665.00
224.57	1746.92
224.78	1740.77
225.00	1644.52
225.22	1658.85
225.44	1718.25
225.66	1726.44
225.88	1658.85
226.10	1730.53
226.32	1728.49
226.53	1746.92
226.75	1716.20
226.97	1730.53
227.19	1722.34
227.41	1669.09
227.63	1710.05
227.85	1603.56
228.06	1738.73
228.28	1746.92
228.50	1787.88
228.72	1652.71
228.94	1621.99
229.16	1605.61
229.37	1583.08
229.59	1599.46
229.81	1773.54
230.03	1720.29
230.25	1636.33
230.47	1566.70
230.69	1656.81
230.90	1726.44
231.12	1615.85
231.34	1626.09
231.56	1765.35
231.78	1660.90
232.00	1642.47
232.21	1689.57
232.43	1626.09
232.65	1607.66
232.87	1703.91
233.09	1699.81
233.30	1617.90
233.52	1757.16
233.74	1701.86
233.96	1705.96
234.18	1720.29
234.40	1640.42
234.61	1775.59
234.83	1568.74
235.05	1675.24
235.27	1828.84
235.49	1753.06
235.70	1761.25
235.92	1734.63
236.14	1763.30
236.36	1775.59
236.58	1626.09
236.79	1705.96
237.01	1691.62
237.23	1740.77
237.45	1814.50
237.67	1585.13
237.88	1718.25
238.10	1708.01
238.32	1632.23
238.54	1703.91
238.76	1728.49
238.97	1615.85
239.19	1642.47
239.41	1691.62
239.63	1746.92
239.85	1714.15
240.06	1705.96
240.28	1658.85
240.50	1681.38
240.72	1689.57
240.93	1669.09
241.15	1794.02
241.37	1701.86
241.59	1732.58
241.81	1671.14
242.02	1677.29
242.24	1695.72
242.46	1818.60
242.68	1640.42
242.89	1677.29
243.11	1802.21
243.33	1673.19
243.55	1710.05
243.76	1712.10
243.98	1642.47
244.20	1708.01
244.42	1798.12
244.64	1794.02
244.85	1636.33
245.07	1662.95
245.29	1763.30
245.51	1648.61
245.72	1779.68
245.94	1732.58
246.16	1736.68
246.38	1746.92
246.59	1675.24
246.81	1652.71
247.03	1730.53
247.24	1673.19
247.46	1693.67
247.68	1685.48
247.90	1693.67
248.11	1708.01
248.33	1718.25
248.55	1681.38
248.77	1722.34
248.98	1794.02
249.20	1771.49
249.42	1681.38
249.64	1763.30
249.85	1685.48
250.07	1607.66
250.29	1736.68
250.50	1685.48
250.72	1701.86
250.94	1753.06
251.16	1812.45
251.37	1800.16
251.59	1710.05
251.81	1753.06
252.02	1814.50
252.24	1679.33
252.46	1828.84
252.68	1630.18
252.89	1691.62
253.11	1599.46
253.33	1824.74
253.54	1710.05
253.76	1626.09
253.98	1675.24
254.20	1652.71
254.41	1660.90
254.63	1675.24
254.85	1662.95
255.06	1697.77
255.28	1740.77
255.50	1724.39
255.71	1638.38
255.93	1607.66
256.15	1732.58
256.36	1781.73
256.58	1652.71
256.80	1796.07
257.02	1734.63
257.23	1681.38
257.45	1732.58
257.67	1771.49
257.88	1710.05
258.10	1732.58
258.32	1720.29
258.53	1736.68
258.75	1779.68
258.97	1595.37
259.18	1705.96
259.40	1687.53
259.62	1761.25
259.83	1798.12
260.05	1748.97
260.27	1951.71
260.48	1787.88
260.70	1638.38
260.92	1714.15
261.13	1660.90
261.35	1607.66
261.57	1679.33
261.78	1632.23
262.00	1609.70
262.22	1736.68
262.43	1656.81
262.65	1603.56
262.86	1656.81
263.08	1814.50
263.30	1769.44
263.51	1621.99
263.73	1718.25
263.95	1779.68
264.16	1583.08
264.38	1601.51
264.60	1730.53
264.81	1671.14
265.03	1753.06
265.25	1740.77
265.46	1691.62
265.68	1789.92
265.89	1724.39
266.11	1589.22
266.33	1757.16
266.54	1773.54
266.76	1800.16
266.98	1746.92
267.19	1771.49
267.41	1775.59
267.62	1718.25
267.84	1595.37
268.06	1740.77
268.27	1724.39
268.49	1777.64
268.70	1705.96
268.92	1712.10
269.14	1597.42
269.35	1656.81
269.57	1763.30
269.79	1714.15
270.00	1705.96
270.22	1828.84
270.43	1679.33
270.65	1656.81
270.87	1718.25
271.08	1763.30
271.30	1708.01
271.51	1708.01
271.73	1685.48
271.95	1802.21
272.16	1638.38
272.38	1724.39
272.59	1703.91
272.81	1761.25
273.02	1753.06
273.24	1671.14
273.46	1714.15
273.67	1644.52
273.89	1701.86
274.10	1648.61
274.32	1755.11
274.54	1740.77
274.75	1740.77
274.97	1679.33
275.18	1710.05
275.40	1746.92
275.61	1640.42
275.83	1714.15
276.05	1646.57
276.26	1689.57
276.48	1683.43
276.69	1630.18
276.91	1650.66
277.12	1732.58
277.34	1751.01
277.55	1710.05
277.77	1730.53
277.99	1740.77
278.20	1621.99
278.42	1695.72
278.63	1681.38
278.85	1626.09
279.06	1634.28
279.28	1722.34
279.49	1794.02
279.71	1802.21
279.93	1726.44
280.14	1708.01
280.36	1638.38
280.57	1744.87
280.79	1720.29
281.00	1746.92
281.22	1683.43
281.43	1798.12
281.65	1517.54
281.86	1679.33
282.08	1740.77
282.29	1830.88
282.51	1611.75
282.73	1595.37
282.94	1615.85
283.16	1632.23
283.37	1781.73
283.59	1718.25
283.80	1654.76
284.02	1724.39
284.23	1746.92
284.45	1687.53
284.66	1669.09
284.88	1679.33
285.09	1779.68
285.31	1693.67
285.52	1667.05
285.74	1687.53
285.95	1738.73
286.17	1660.90
286.38	1839.08
286.60	1726.44
286.81	1667.05
287.03	1650.66
287.24	1621.99
287.46	1705.96
287.67	1720.29
287.89	1832.93
288.10	1669.09
288.32	1775.59
288.53	1820.64
288.75	1681.38
288.96	1738.73
289.18	1640.42
289.39	1710.05
289.61	1732.58
289.82	1861.60
290.04	1861.60
290.25	1644.52
290.47	1628.14
290.68	1626.09
290.90	1701.86
291.11	1626.09
291.33	1748.97
291.54	1648.61
291.76	1693.67
291.97	1685.48
292.18	1828.84
292.40	1644.52
292.61	1718.25
292.83	1824.74
293.04	1734.63
293.26	1728.49
293.47	1734.63
293.69	1617.90
293.90	1642.47
294.12	1804.26
294.33	1624.04
294.55	1665.00
294.76	1748.97
294.97	1794.02
295.19	1812.45
295.40	1693.67
295.62	1800.16
295.83	1822.69
296.05	1615.85
296.26	1775.59
296.48	1683.43
296.69	1671.14
296.90	1732.58
297.12	1742.82
297.33	1734.63
297.55	1718.25
297.76	1748.97
297.98	1662.95
298.19	1728.49
298.41	1701.86
298.62	1687.53
298.83	1751.01
299.05	1761.25
299.26	1710.05
299.48	1570.79
299.69	1738.73
299.90	1636.33
300.12	1619.94
300.33	1748.97
300.55	1767.40
300.76	1742.82
300.98	1642.47
301.19	1708.01
301.40	1712.10
301.62	1656.81
301.83	1753.06
302.05	1638.38
302.26	1689.57
302.47	1734.63
302.69	1726.44
302.90	1718.25
303.12	1646.57
303.33	1759.21
303.54	1832.93
303.76	1621.99
303.97	1767.40
304.19	1830.88
304.40	1667.05
304.61	1748.97
304.83	1808.36
305.04	1765.35
305.26	1746.92
305.47	1660.90
305.68	1689.57
305.90	1583.08
306.11	1736.68
306.33	1705.96
306.54	1605.61
306.75	1736.68
306.97	1583.08
307.18	1665.00
307.39	1675.24
307.61	1763.30
307.82	1746.92
308.04	1761.25
308.25	1656.81
308.46	1714.15
308.68	1726.44
308.89	1714.15
309.10	1746.92
309.32	1742.82
309.53	1683.43
309.74	1753.06
309.96	1693.67
310.17	1753.06
310.39	1710.05
310.60	1691.62
310.81	1744.87
311.03	1671.14
311.24	1736.68
311.45	1699.81
311.67	1800.16
311.88	1718.25
312.09	1669.09
312.31	1599.46
312.52	1671.14
312.73	1693.67
312.95	1648.61
313.16	1658.85
313.37	1677.29
313.59	1755.11
313.80	1759.21
314.01	1744.87
314.23	1738.73
314.44	1640.42
314.65	1599.46
314.87	1640.42
315.08	1634.28
315.29	1681.38
315.51	1683.43
315.72	1683.43
315.93	1701.86
316.15	1771.49
316.36	1695.72
316.57	1705.96
316.79	1697.77
317.00	1703.91
317.21	1773.54
317.43	1621.99
317.64	1734.63
317.85	1601.51
318.07	1701.86
318.28	1773.54
318.49	1791.97
318.70	1875.94
318.92	1757.16
319.13	1814.50
319.34	1853.41
319.56	1722.34
319.77	1789.92
319.98	1841.12
320.20	1820.64
320.41	1716.20
320.62	1767.40
320.83	1630.18
321.05	1693.67
321.26	1703.91
321.47	1634.28
321.69	1699.81
321.90	1673.19
322.11	1693.67
322.32	1673.19
322.54	1767.40
322.75	1621.99
322.96	1802.21
323.18	1619.94
323.39	1675.24
323.60	1675.24
323.81	1761.25
324.03	1632.23
324.24	1740.77
324.45	1685.48
324.66	1642.47
324.88	1757.16
325.09	1814.50
325.30	1679.33
325.52	1722.34
325.73	1712.10
325.94	1634.28
326.15	1560.55
326.37	1679.33
326.58	1763.30
326.79	1753.06
327.00	1636.33
327.22	1673.19
327.43	1667.05
327.64	1619.94
327.85	1732.58
328.07	1720.29
328.28	1775.59
328.49	1693.67
328.70	1736.68
328.92	1716.20
329.13	1619.94
329.34	1771.49
329.55	1697.77
329.76	1730.53
329.98	1634.28
330.19	1804.26
330.40	1779.68
330.61	1677.29
330.83	1667.05
331.04	1699.81
331.25	1755.11
331.46	1705.96
331.68	1648.61
331.89	1753.06
332.10	1677.29
332.31	1638.38
332.52	1708.01
332.74	1800.16
332.95	1603.56
333.16	1685.48
333.37	1757.16
333.58	1611.75
333.80	1640.42
334.01	1615.85
334.22	1708.01
334.43	1650.66
334.64	1681.38
334.86	1628.14
335.07	1638.38
335.28	1751.01
335.49	1650.66
335.70	1699.81
335.92	1800.16
336.13	1841.12
336.34	1701.86
336.55	1720.29
336.76	1804.26
336.98	1667.05
337.19	1722.34
337.40	1738.73
337.61	1798.12
337.82	1632.23
338.04	1738.73
338.25	1654.76
338.46	1665.00
338.67	1665.00
338.88	1681.38
339.09	1648.61
339.31	1710.05
339.52	1689.57
339.73	1662.95
339.94	1658.85
340.15	1773.54
340.36	1593.32
340.58	1722.34
340.79	1712.10
341.00	1697.77
341.21	1603.56
341.42	1832.93
341.63	1648.61
341.85	1755.11
342.06	1703.91
342.27	1730.53
342.48	1771.49
342.69	1642.47
342.90	1681.38
343.12	1660.90
343.33	1662.95
343.54	1726.44
343.75	1755.11
343.96	1599.46
344.17	1619.94
344.38	1705.96
344.60	1593.32
344.81	1597.42
345.02	1662.95
345.23	1779.68
345.44	1837.03
345.65	1728.49
345.86	1789.92
346.07	1636.33
346.29	1751.01
346.50	1734.63
346.71	1751.01
346.92	1748.97
347.13	1705.96
347.34	1744.87
347.55	1722.34
347.76	1757.16
347.98	1626.09
348.19	1665.00
348.40	1804.26
348.61	1695.72
348.82	1726.44
349.03	1701.86
349.24	1685.48
349.45	1761.25
349.66	1654.76
349.88	1675.24
350.09	1718.25
350.30	1693.67
350.51	1814.50
350.72	1705.96
350.93	1693.67
351.14	1665.00
351.35	1714.15
351.56	1736.68
351.77	1652.71
351.99	1699.81
352.20	1837.03
352.41	1726.44
352.62	1718.25
352.83	1669.09
353.04	1697.77
353.25	1734.63
353.46	1769.44
353.67	1810.40
353.88	1628.14
354.09	1656.81
354.30	1705.96
354.52	1712.10
354.73	1697.77
354.94	1665.00
355.15	1699.81
355.36	1816.55
355.57	1701.86
355.78	1710.05
355.99	1609.70
356.20	1669.09
356.41	1779.68
356.62	1742.82
356.83	1665.00
357.04	1798.12
357.25	1611.75
357.46	1595.37
357.68	1581.03
357.89	1683.43
358.10	1708.01
358.31	1679.33
358.52	1626.09
358.73	1665.00
358.94	1667.05
359.15	1642.47
359.36	1740.77
359.57	1730.53
359.78	1640.42
359.99	1724.39
360.20	1630.18
360.41	1630.18
360.62	1708.01
360.83	1824.74
361.04	1779.68
361.25	1701.86
361.46	1837.03
361.67	1701.86
361.88	1777.64
362.09	1738.73
362.30	1667.05
362.51	1630.18
362.72	1722.34
362.93	1734.63
363.14	1660.90
363.35	1714.15
363.56	1652.71
363.78	1771.49
363.99	1740.77
364.20	1603.56
364.41	1726.44
364.62	1767.40
364.83	1744.87
365.04	1714.15
365.25	1732.58
365.46	1798.12
365.67	1677.29
365.88	1652.71
366.09	1705.96
366.30	1759.21
366.51	1734.63
366.72	1658.85
366.93	1775.59
367.14	1740.77
367.35	1808.36
367.56	1718.25
367.77	1839.08
367.98	1689.57
368.18	1634.28
368.39	1748.97
368.60	1722.34
368.81	1748.97
369.02	1699.81
369.23	1695.72
369.44	1675.24
369.65	1662.95
369.86	1691.62
370.07	1728.49
370.28	1705.96
370.49	1759.21
370.70	1689.57
370.91	1638.38
371.12	1662.95
371.33	1718.25
371.54	1597.42
371.75	1767.40
371.96	1556.46
372.17	1673.19
372.38	1740.77
372.59	1740.77
372.80	1683.43
373.01	1738.73
373.22	1693.67
373.43	1656.81
373.64	1654.76
373.85	1728.49
374.06	1740.77
374.26	1759.21
374.47	1687.53
374.68	1796.07
374.89	1757.16
375.10	1673.19
375.31	1787.88
375.52	1787.88
375.73	1671.14
375.94	1695.72
376.15	1853.41
376.36	1665.00
376.57	1673.19
376.78	1697.77
376.99	1642.47
377.20	1736.68
377.40	1705.96
377.61	1748.97
377.82	1732.58
378.03	1777.64
378.24	1720.29
378.45	1683.43
378.66	1683.43
378.87	1603.56
379.08	1642.47
379.29	1667.05
379.50	1789.92
379.71	1677.29
379.91	1798.12
380.12	1726.44
380.33	1636.33
380.54	1564.65
380.75	1699.81
380.96	1685.48
381.17	1705.96
381.38	1691.62
381.59	1757.16
381.80	1746.92
382.00	1853.41
382.21	1693.67
382.42	1877.99
382.63	1775.59
382.84	1744.87
383.05	1708.01
383.26	1847.27
383.47	1744.87
383.68	1755.11
383.88	1736.68
384.09	1714.15
384.30	1798.12
384.51	1808.36
384.72	1634.28
384.93	1638.38
385.14	1716.20
385.35	1689.57
385.55	1683.43
385.76	1804.26
385.97	1716.20
386.18	1591.27
386.39	1746.92
386.60	1701.86
386.81	1703.91
387.02	1734.63
387.22	1632.23
387.43	1757.16
387.64	1716.20
387.85	1871.84
388.06	2170.85
388.27	4204.48
388.48	6780.82
388.68	8290.18
388.89	9514.86
389.10	9686.89
389.31	8548.22
389.52	7511.95
389.73	6715.29
389.93	6311.84
390.14	5777.32
390.35	5232.56
390.56	4689.85
390.77	3725.26
390.98	3117.01
391.18	2484.19
391.39	2082.78
391.60	1847.27
391.81	1832.93
392.02	1718.25
392.23	1869.80
392.43	1744.87
392.64	1765.35
392.85	1746.92
393.06	1841.12
393.27	1726.44
393.47	1644.52
393.68	1679.33
393.89	1728.49
394.10	1771.49
394.31	1652.71
394.52	1572.84
394.72	1621.99
394.93	1806.31
395.14	1714.15
395.35	1816.55
395.56	1710.05
395.76	1638.38
395.97	1773.54
396.18	1787.88
396.39	1796.07
396.60	2004.96
396.80	1933.28
397.01	1839.08
397.22	1785.83
397.43	1830.88
397.64	1738.73
397.84	1794.02
398.05	1849.32
398.26	1705.96
398.47	1832.93
398.67	1804.26
398.88	1800.16
399.09	1736.68
399.30	1652.71
399.51	1779.68
399.71	1646.57
399.92	1632.23
400.13	1771.49
400.34	1693.67
400.54	1732.58
400.75	1830.88
400.96	1773.54
401.17	1826.79
401.37	1712.10
401.58	1748.97
401.79	1732.58
402.00	1832.93
402.21	2021.35
402.41	1980.39
402.62	1980.39
402.83	2086.88
403.04	1994.72
403.24	2017.25
403.45	1834.98
403.66	1845.22
403.87	1888.23
404.07	1890.28
404.28	1873.89
404.49	1906.66
404.70	1767.40
404.90	1757.16
405.11	1693.67
405.32	1718.25
405.52	1703.91
405.73	1705.96
405.94	1673.19
406.15	1726.44
406.35	1714.15
406.56	1662.95
406.77	1791.97
406.98	1724.39
407.18	1656.81
407.39	1826.79
407.60	1765.35
407.80	1818.60
408.01	1660.90
408.22	1685.48
408.43	1650.66
408.63	1804.26
408.84	1730.53
409.05	1742.82
409.25	1662.95
409.46	1675.24
409.67	1685.48
409.88	1697.77
410.08	1710.05
410.29	1681.38
410.50	1755.11
410.70	1691.62
410.91	1626.09
411.12	1695.72
411.32	1716.20
411.53	1675.24
411.74	1828.84
411.95	1865.70
412.15	1695.72
412.36	1753.06
412.57	1761.25
412.77	1859.56
412.98	1742.82
413.19	1728.49
413.39	1794.02
413.60	1742.82
413.81	1839.08
414.01	1601.51
414.22	1755.11
414.43	1732.58
414.63	1742.82
414.84	1796.07
415.05	1716.20
415.25	1658.85
415.46	1744.87
415.67	1714.15
415.87	1755.11
416.08	1697.77
416.29	1679.33
416.49	1693.67
416.70	1658.85
416.91	1681.38
417.11	1730.53
417.32	1685.48
417.53	1736.68
417.73	1732.58
417.94	1683.43
418.15	1705.96
418.35	1734.63
418.56	1789.92
418.77	1834.98
418.97	1701.86
419.18	1615.85
419.38	1634.28
419.59	1701.86
419.80	1890.28
420.00	1736.68
420.21	1681.38
420.42	1783.78
420.62	1732.58
420.83	1611.75
421.04	1716.20
421.24	1695.72
421.45	1714.15
421.65	1753.06
421.86	1669.09
422.07	1748.97
422.27	1701.86
422.48	1638.38
422.69	1640.42
422.89	1665.00
423.10	1679.33
423.30	1599.46
423.51	1681.38
423.72	1736.68
423.92	1681.38
424.13	1671.14
424.33	1685.48
424.54	1785.83
424.75	1679.33
424.95	1783.78
425.16	1746.92
425.36	1701.86
425.57	1730.53
425.78	1798.12
425.98	1738.73
426.19	1611.75
426.39	1595.37
426.60	1648.61
426.81	1751.01
427.01	1705.96
427.22	1691.62
427.42	1603.56
427.63	1675.24
427.83	1720.29
428.04	1867.75
428.25	1771.49
428.45	1798.12
428.66	1791.97
428.86	1656.81
429.07	1669.09
429.28	1740.77
429.48	1652.71
429.69	1656.81
429.89	1681.38
430.10	1650.66
430.30	1718.25
430.51	1755.11
430.71	1697.77
430.92	1705.96
431.13	1734.63
431.33	1781.73
431.54	1755.11
431.74	1785.83
431.95	1853.41
432.15	1722.34
432.36	1728.49
432.56	1691.62
432.77	1841.12
432.98	1763.30
433.18	1748.97
433.39	1746.92
433.59	1687.53
433.80	1871.84
434.00	1875.94
434.21	1624.04
434.41	1652.71
434.62	1875.94
434.82	1681.38
435.03	1640.42
435.23	1828.84
435.44	1648.61
435.64	1728.49
435.85	1710.05
436.06	1761.25
436.26	1765.35
436.47	1660.90
436.67	1716.20
436.88	1710.05
437.08	1718.25
437.29	1824.74
437.49	1798.12
437.70	1847.27
437.90	1669.09
438.11	1746.92
438.31	1787.88
438.52	1820.64
438.72	1908.71
438.93	1896.42
439.13	1863.65
439.34	1753.06
439.54	1734.63
439.75	1748.97
439.95	1771.49
440.16	1734.63
440.36	1658.85
440.57	1742.82
440.77	1759.21
440.98	1718.25
441.18	1763.30
441.39	1636.33
441.59	1728.49
441.80	1877.99
442.00	1720.29
442.21	1798.12
442.41	1665.00
442.62	1800.16
442.82	1689.57
443.02	1736.68
443.23	1781.73
443.43	1705.96
443.64	1820.64
443.84	1816.55
444.05	1724.39
444.25	1681.38
444.46	1644.52
444.66	1765.35
444.87	1746.92
445.07	1648.61
445.28	1689.57
445.48	1775.59
445.69	1824.74
445.89	1849.32
446.09	1732.58
446.30	2002.91
446.50	2590.68
446.71	3680.20
446.91	4325.31
447.12	4708.28
447.32	4724.66
447.53	4331.45
447.73	3848.13
447.93	3575.75
448.14	3315.66
448.34	3170.26
448.55	2906.07
448.75	2797.53
448.96	2631.64
449.16	2406.36
449.36	2289.63
449.57	2052.06
449.77	1898.47
449.98	1740.77
450.18	1785.83
450.39	1820.64
450.59	1730.53
450.79	1783.78
451.00	1722.34
451.20	1816.55
451.41	1777.64
451.61	1744.87
451.81	1798.12
452.02	1648.61
452.22	1738.73
452.43	1712.10
452.63	1667.05
452.84	1769.44
453.04	1779.68
453.24	1710.05
453.45	1667.05
453.65	1796.07
453.86	1759.21
454.06	1722.34
454.26	1822.69
454.47	1691.62
454.67	1841.12
454.87	1712.10
455.08	1720.29
455.28	1873.89
455.49	1740.77
455.69	1658.85
455.89	1888.23
456.10	1871.84
456.30	1679.33
456.51	1865.70
456.71	1621.99
456.91	1800.16
457.12	1767.40
457.32	1757.16
457.52	1687.53
457.73	1787.88
457.93	1722.34
458.14	1732.58
458.34	1624.04
458.54	1722.34
458.75	1730.53
458.95	1839.08
459.15	1732.58
459.36	1753.06
459.56	1775.59
459.76	1865.70
459.97	1662.95
460.17	1673.19
460.37	1771.49
460.58	1738.73
460.78	1734.63
460.99	1718.25
461.19	1757.16
461.39	1718.25
461.60	1728.49
461.80	1748.97
462.00	1642.47
462.21	1718.25
462.41	1724.39
462.61	1605.61
462.82	1628.14
463.02	1736.68
463.22	1783.78
463.43	1802.21
463.63	1687.53
463.83	1767.40
464.04	1732.58
464.24	1759.21
464.44	1705.96
464.64	1742.82
464.85	1763.30
465.05	1814.50
465.25	1716.20
465.46	1662.95
465.66	1746.92
465.86	1757.16
466.07	1683.43
466.27	1699.81
466.47	1650.66
466.68	1716.20
466.88	1757.16
467.08	1757.16
467.29	1783.78
467.49	1765.35
467.69	1703.91
467.89	1712.10
468.10	1626.09
468.30	1726.44
468.50	1738.73
468.71	1703.91
468.91	1658.85
469.11	1812.45
469.31	1710.05
469.52	1710.05
469.72	1843.17
469.92	1918.95
470.13	1755.11
470.33	1755.11
470.53	1806.31
470.73	2068.45
470.94	2324.44
471.14	2289.63
471.34	2496.47
471.54	2461.66
471.75	2156.51
471.95	2095.07
472.15	2052.06
472.36	2117.60
472.56	2088.93
472.76	2045.92
472.96	1949.67
473.17	2009.06
473.37	1863.65
473.57	1687.53
473.77	1826.79
473.98	1693.67
474.18	1648.61
474.38	1935.33
474.58	1662.95
474.79	1656.81
474.99	1832.93
475.19	1730.53
475.39	1699.81
475.60	1771.49
475.80	1771.49
476.00	1693.67
476.20	1673.19
476.41	1697.77
476.61	1849.32
476.81	1820.64
477.01	1669.09
477.21	1820.64
477.42	1789.92
477.62	1677.29
477.82	1773.54
478.02	1734.63
478.23	1650.66
478.43	1681.38
478.63	1656.81
478.83	1703.91
479.03	1710.05
479.24	1806.31
479.44	1785.83
479.64	1705.96
479.84	1640.42
480.04	1708.01
480.25	1761.25
480.45	1742.82
480.65	1712.10
480.85	1773.54
481.06	1589.22
481.26	1736.68
481.46	1724.39
481.66	1703.91
481.86	1740.77
482.06	1812.45
482.27	1665.00
482.47	1669.09
482.67	1789.92
482.87	1691.62
483.07	1765.35
483.28	1662.95
483.48	1681.38
483.68	1665.00
483.88	1710.05
484.08	1628.14
484.29	1628.14
484.49	1681.38
484.69	1583.08
484.89	1744.87
485.09	1779.68
485.29	1812.45
485.50	1714.15
485.70	1708.01
485.90	1847.27
486.10	1708.01
486.30	1691.62
486.50	1818.60
486.71	1636.33
486.91	1730.53
487.11	1839.08
487.31	1621.99
487.51	1718.25
487.71	1683.43
487.91	1689.57
488.12	1689.57
488.32	1638.38
488.52	1730.53
488.72	1665.00
488.92	1734.63
489.12	1830.88
489.32	1767.40
489.53	1644.52
489.73	1646.57
489.93	1796.07
490.13	1677.29
490.33	1640.42
490.53	1722.34
490.73	1783.78
490.94	1609.70
491.14	1718.25
491.34	1789.92
491.54	2164.70
491.74	2570.20
491.94	2969.55
492.14	2979.79
492.34	3010.51
492.54	2754.52
492.75	2500.57
492.95	2385.88
493.15	2301.92
493.35	2277.34
493.55	2207.71
493.75	2097.12
493.95	2054.11
494.15	1976.29
494.35	1884.13
494.56	1839.08
494.76	1765.35
494.96	1785.83
495.16	1789.92
495.36	1712.10
495.56	1703.91
495.76	1744.87
495.96	1714.15
496.16	1658.85
496.36	1845.22
496.56	1687.53
496.77	1802.21
496.97	1677.29
497.17	1785.83
497.37	1656.81
497.57	1734.63
497.77	1642.47
497.97	1619.94
498.17	1687.53
498.37	1775.59
498.57	1732.58
498.77	1726.44
498.97	1761.25
499.17	1845.22
499.38	1710.05
499.58	1732.58
499.78	1820.64
499.98	1777.64
500.18	1718.25
500.38	1746.92
500.58	1920.99
500.78	2508.76
500.98	4450.24
501.18	5855.14
501.38	6850.46
501.58	7004.05
501.78	6641.56
501.98	5582.76
502.18	4995.00
502.38	4413.37
502.58	4175.81
502.78	3815.37
502.98	3657.67
503.18	3444.68
503.38	3164.11
503.59	2963.41
503.79	2674.65
503.99	2480.09
504.19	2220.00
504.39	2179.04
504.59	2238.43
504.79	2164.70
504.99	2043.87
505.19	1857.51
505.39	1886.18
505.59	1951.71
505.79	1892.32
505.99	1894.37
506.19	1820.64
506.39	1867.75
506.59	1794.02
506.79	1683.43
506.99	1812.45
507.19	1787.88
507.39	1738.73
507.59	1646.57
507.79	1705.96
507.99	1705.96
508.19	1732.58
508.39	1746.92
508.59	1753.06
508.79	1785.83
508.99	1804.26
509.19	1685.48
509.39	1736.68
509.59	1759.21
509.79	1667.05
509.99	1677.29
510.19	1785.83
510.39	1767.40
510.59	1716.20
510.79	1724.39
510.99	1632.23
511.19	1783.78
511.39	1826.79
511.59	1763.30
511.79	1820.64
511.99	1789.92
512.19	1794.02
512.38	1767.40
512.58	1621.99
512.78	1720.29
512.98	1849.32
513.18	1730.53
513.38	1675.24
513.58	1751.01
513.78	1742.82
513.98	1720.29
514.18	1736.68
514.38	1662.95
514.58	1720.29
514.78	1689.57
514.98	1615.85
515.18	1798.12
515.38	1628.14
515.58	1816.55
515.78	1755.11
515.98	1681.38
516.18	1701.86
516.38	1753.06
516.57	1665.00
516.77	1650.66
516.97	1748.97
517.17	1705.96
517.37	1710.05
517.57	1832.93
517.77	1724.39
517.97	1689.57
518.17	1808.36
518.37	1730.53
518.57	1781.73
518.77	1718.25
518.97	1753.06
519.16	1757.16
519.36	1773.54
519.56	1769.44
519.76	1726.44
519.96	1742.82
520.16	1828.84
520.36	1656.81
520.56	1796.07
520.76	1593.32
520.96	1697.77
521.16	1820.64
521.35	1851.36
521.55	1814.50
521.75	1734.63
521.95	1710.05
522.15	1689.57
522.35	1714.15
522.55	1679.33
522.75	1781.73
522.95	1681.38
523.14	1685.48
523.34	1738.73
523.54	1730.53
523.74	1712.10
523.94	1771.49
524.14	1638.38
524.34	1757.16
524.54	1804.26
524.73	1708.01
524.93	1771.49
525.13	1841.12
525.33	1667.05
525.53	1873.89
525.73	1748.97
525.93	1693.67
526.13	1681.38
526.32	1748.97
526.52	1708.01
526.72	1779.68
526.92	1779.68
527.12	1685.48
527.32	1671.14
527.52	1779.68
527.71	1712.10
527.91	1736.68
528.11	1763.30
528.31	1705.96
528.51	1640.42
528.71	1751.01
528.90	1705.96
529.10	1796.07
529.30	1804.26
529.50	1638.38
529.70	1695.72
529.90	1660.90
530.09	1751.01
530.29	1697.77
530.49	1689.57
530.69	1894.37
530.89	1742.82
531.09	1820.64
531.28	1730.53
531.48	1791.97
531.68	1748.97
531.88	1722.34
532.08	1763.30
532.28	1705.96
532.47	1726.44
532.67	1755.11
532.87	1636.33
533.07	1697.77
533.27	1787.88
533.46	1751.01
533.66	1759.21
533.86	1665.00
534.06	1771.49
534.26	1808.36
534.45	1753.06
534.65	1771.49
534.85	1744.87
535.05	1761.25
535.25	1751.01
535.44	1603.56
535.64	1802.21
535.84	1732.58
536.04	1697.77
536.24	1695.72
536.43	1748.97
536.63	1701.86
536.83	1679.33
537.03	1710.05
537.22	1701.86
537.42	1652.71
537.62	1742.82
537.82	1699.81
538.02	1769.44
538.21	1722.34
538.41	1849.32
538.61	1751.01
538.81	1734.63
539.00	1777.64
539.20	1615.85
539.40	1708.01
539.60	1804.26
539.79	1763.30
539.99	1736.68
540.19	1646.57
540.39	1716.20
540.58	1744.87
540.78	1714.15
540.98	1671.14
541.18	1812.45
541.37	1771.49
541.57	1755.11
541.77	1726.44
541.97	1650.66
542.16	1650.66
542.36	1728.49
542.56	1730.53
542.76	1886.18
542.95	1728.49
543.15	1658.85
543.35	1822.69
543.54	1658.85
543.74	1726.44
543.94	1771.49
544.14	1699.81
544.33	1828.84
544.53	1697.77
544.73	1677.29
544.93	1710.05
545.12	1650.66
545.32	1746.92
545.52	1656.81
545.71	1621.99
545.91	1703.91
546.11	1734.63
546.30	1708.01
546.50	1757.16
546.70	1744.87
546.90	1699.81
547.09	1621.99
547.29	1712.10
547.49	1853.41
547.68	1687.53
547.88	1714.15
548.08	1691.62
548.27	2174.94
548.47	1705.96
548.67	1679.33
548.87	1814.50
549.06	1730.53
549.26	1732.58
549.46	1753.06
549.65	1736.68
549.85	1796.07
550.05	1781.73
550.24	1658.85
550.44	1708.01
550.64	1689.57
550.83	1740.77
551.03	1832.93
551.23	1869.80
551.42	1755.11
551.62	1740.77
551.82	1716.20
552.01	1761.25
552.21	1800.16
552.41	1716.20
552.60	1832.93
552.80	1751.01
553.00	1644.52
553.19	1746.92
553.39	1869.80
553.59	1638.38
553.78	1712.10
553.98	1712.10
554.17	1658.85
554.37	1718.25
554.57	1822.69
554.76	1642.47
554.96	1755.11
555.16	1757.16
555.35	1728.49
555.55	1757.16
555.75	1769.44
555.94	1767.40
556.14	1671.14
556.33	1738.73
556.53	1726.44
556.73	1730.53
556.92	1697.77
557.12	1845.22
557.32	1783.78
557.51	1853.41
557.71	1757.16
557.90	1789.92
558.10	1818.60
558.30	1665.00
558.49	1785.83
558.69	1726.44
558.88	1708.01
559.08	1806.31
559.28	1716.20
559.47	1755.11
559.67	1777.64
559.86	1894.37
560.06	1800.16
560.26	1798.12
560.45	1748.97
560.65	1701.86
560.84	1683.43
561.04	1718.25
561.24	1800.16
561.43	1779.68
561.63	1728.49
561.82	1697.77
562.02	1730.53
562.22	1673.19
562.41	1726.44
562.61	1673.19
562.80	1728.49
563.00	1894.37
563.19	1683.43
563.39	1800.16
563.59	1761.25
563.78	1638.38
563.98	1632.23
564.17	1681.38
564.37	1581.03
564.56	1708.01
564.76	1751.01
564.96	1808.36
565.15	1800.16
565.35	1812.45
565.54	1826.79
565.74	1761.25
565.93	1826.79
566.13	1746.92
566.32	1771.49
566.52	1755.11
566.71	1761.25
566.91	1718.25
567.11	1660.90
567.30	1699.81
567.50	1736.68
567.69	1775.59
567.89	1732.58
568.08	1740.77
568.28	1740.77
568.47	1681.38
568.67	1746.92
568.86	1732.58
569.06	1748.97
569.25	1656.81
569.45	1771.49
569.64	1755.11
569.84	1734.63
570.04	1775.59
570.23	1753.06
570.43	1712.10
570.62	1761.25
570.82	1755.11
571.01	1677.29
571.21	1720.29
571.40	1642.47
571.60	1826.79
571.79	1736.68
571.99	1736.68
572.18	1712.10
572.38	1683.43
572.57	1695.72
572.77	1697.77
572.96	1849.32
573.16	1761.25
573.35	1712.10
573.55	1869.80
573.74	1777.64
573.94	1753.06
574.13	1763.30
574.33	1783.78
574.52	1800.16
574.71	1775.59
574.91	1751.01
575.10	1669.09
575.30	1695.72
575.49	1710.05
575.69	1728.49
575.88	1767.40
576.08	1701.86
576.27	1796.07
576.47	1710.05
576.66	1794.02
576.86	1853.41
577.05	1787.88
577.25	1806.31
577.44	1824.74
577.64	1705.96
577.83	1763.30
578.02	1699.81
578.22	1810.40
578.41	1787.88
578.61	1714.15
578.80	1656.81
579.00	1726.44
579.19	1734.63
579.39	1791.97
579.58	1808.36
579.77	1757.16
579.97	1767.40
580.16	1828.84
580.36	1779.68
580.55	1826.79
580.75	1765.35
580.94	1837.03
581.13	1916.90
581.33	1769.44
581.52	1722.34
581.72	1837.03
581.91	1841.12
582.11	1779.68
582.30	1746.92
582.49	1810.40
582.69	1753.06
582.88	1761.25
583.08	1769.44
583.27	1843.17
583.47	1751.01
583.66	1677.29
583.85	1718.25
584.05	1720.29
584.24	1789.92
584.44	1728.49
584.63	1789.92
584.82	1877.99
585.02	1791.97
585.21	1822.69
585.41	1798.12
585.60	1787.88
585.79	1900.52
585.99	1935.33
586.18	1828.84
586.37	2115.55
586.57	3344.33
586.76	9914.22
586.96	24542.86
587.15	34721.26
587.34	40717.71
587.54	42564.98
587.73	37062.09
587.93	26410.60
588.12	21649.08
588.31	18433.77
588.51	16566.02
588.70	15218.46
588.89	14126.89
589.09	12625.73
589.28	11102.04
589.47	9316.21
589.67	8087.43
589.86	6451.10
590.06	4927.41
590.25	4016.07
590.44	3110.86
590.64	2578.39
590.83	2248.67
591.02	2138.08
591.22	2009.06
591.41	1910.75
591.60	1898.47
591.80	1982.43
591.99	1787.88
592.18	1863.65
592.38	1865.70
592.57	1777.64
592.76	1732.58
592.96	1757.16
593.15	1701.86
593.34	1812.45
593.54	1720.29
593.73	1755.11
593.92	1759.21
594.12	1685.48
594.31	1775.59
594.50	1812.45
594.70	1802.21
594.89	1851.36
595.08	1726.44
595.28	1806.31
595.47	1894.37
595.66	1822.69
595.86	1677.29
596.05	1675.24
596.24	1740.77
596.43	1894.37
596.63	1789.92
596.82	1759.21
597.01	1763.30
597.21	1787.88
597.40	1822.69
597.59	1644.52
597.79	1734.63
597.98	1759.21
598.17	1685.48
598.36	1742.82
598.56	1794.02
598.75	1654.76
598.94	1726.44
599.14	1751.01
599.33	1728.49
599.52	1728.49
599.71	1830.88
599.91	1798.12
600.10	1796.07
600.29	1783.78
600.48	1787.88
600.68	1742.82
600.87	1779.68
601.06	1687.53
601.26	1757.16
601.45	1734.63
601.64	1757.16
601.83	1824.74
602.03	1658.85
602.22	1771.49
602.41	1742.82
602.60	1814.50
602.80	1783.78
602.99	1710.05
603.18	1765.35
603.37	1665.00
603.57	1685.48
603.76	1816.55
603.95	1806.31
604.14	1744.87
604.34	1708.01
604.53	1759.21
604.72	1656.81
604.91	1812.45
605.10	1730.53
605.30	1650.66
605.49	1791.97
605.68	1757.16
605.87	1781.73
606.07	1679.33
606.26	1738.73
606.45	1777.64
606.64	1791.97
606.84	1730.53
607.03	1705.96
607.22	1718.25
607.41	1677.29
607.60	1665.00
607.80	1834.98
607.99	1728.49
608.18	1734.63
608.37	1697.77
608.56	1697.77
608.76	1701.86
608.95	1826.79
609.14	1744.87
609.33	1746.92
609.52	1779.68
609.72	1714.15
609.91	1763.30
610.10	1705.96
610.29	1810.40
610.48	1771.49
610.68	1804.26
610.87	1744.87
611.06	1769.44
611.25	1822.69
611.44	1775.59
611.63	1753.06
611.83	1810.40
612.02	1695.72
612.21	1804.26
612.40	1699.81
612.59	1609.70
612.79	1642.47
612.98	1718.25
613.17	1779.68
613.36	1746.92
613.55	1794.02
613.74	1701.86
613.93	1660.90
614.13	1671.14
614.32	1687.53
614.51	1787.88
614.70	1683.43
614.89	1667.05
615.08	1880.04
615.28	2025.44
615.47	1712.10
615.66	1787.88
615.85	1703.91
616.04	1796.07
616.23	1705.96
616.42	1726.44
616.62	1681.38
616.81	1730.53
617.00	1734.63
617.19	1740.77
617.38	1673.19
617.57	1730.53
617.76	1763.30
617.95	1779.68
618.15	1828.84
618.34	1814.50
618.53	1703.91
618.72	1794.02
618.91	1839.08
619.10	1822.69
619.29	1794.02
619.48	1720.29
619.68	1669.09
619.87	1789.92
620.06	1718.25
620.25	1716.20
620.44	1712.10
620.63	1763.30
620.82	1751.01
621.01	1624.04
621.20	1789.92
621.39	1777.64
621.59	1738.73
621.78	1665.00
621.97	1722.34
622.16	1699.81
622.35	1675.24
622.54	1697.77
622.73	1808.36
622.92	1730.53
623.11	1703.91
623.30	1658.85
623.49	1746.92
623.68	1744.87
623.88	1830.88
624.07	1658.85
624.26	1730.53
624.45	1722.34
624.64	1642.47
624.83	1740.77
625.02	1671.14
625.21	1697.77
625.40	1773.54
625.59	1814.50
625.78	1671.14
625.97	1746.92
626.16	1796.07
626.35	1710.05
626.54	1691.62
626.74	1765.35
626.93	1644.52
627.12	1708.01
627.31	1777.64
627.50	1789.92
627.69	1869.80
627.88	1705.96
628.07	1751.01
628.26	1644.52
628.45	1720.29
628.64	1578.98
628.83	1783.78
629.02	1689.57
629.21	1779.68
629.40	1771.49
629.59	1673.19
629.78	1730.53
629.97	1744.87
630.16	1759.21
630.35	1761.25
630.54	1779.68
630.73	1671.14
630.92	1724.39
631.11	1701.86
631.30	1746.92
631.49	1689.57
631.68	1726.44
631.87	1767.40
632.06	1648.61
632.25	1933.28
632.44	1642.47
632.63	1779.68
632.82	1671.14
633.01	1712.10
633.20	1640.42
633.39	1609.70
633.58	1675.24
633.77	1714.15
633.96	1687.53
634.15	1705.96
634.34	1775.59
634.53	1732.58
634.72	1689.57
634.91	1644.52
635.10	1658.85
635.29	1767.40
635.48	1718.25
635.67	1656.81
635.86	1587.18
636.05	1826.79
636.24	1671.14
636.43	1751.01
636.62	1708.01
636.81	1447.91
637.00	1728.49
637.19	1734.63
637.38	1738.73
637.57	1685.48
637.76	1771.49
637.95	1806.31
638.14	1689.57
638.33	1642.47
638.52	1705.96
638.71	1611.75
638.89	1615.85
639.08	1847.27
639.27	1710.05
639.46	1697.77
639.65	1798.12
639.84	1755.11
640.03	1722.34
640.22	1726.44
640.41	1804.26
640.60	1716.20
640.79	1726.44
640.98	1693.67
641.17	1761.25
641.36	1806.31
641.55	1742.82
641.74	1705.96
641.92	1642.47
642.11	1640.42
642.30	1665.00
642.49	1728.49
642.68	1660.90
642.87	1779.68
643.06	1728.49
643.25	1720.29
643.44	1640.42
643.63	1710.05
643.82	1736.68
644.00	1662.95
644.19	1667.05
644.38	1705.96
644.57	1798.12
644.76	1708.01
644.95	1640.42
645.14	1751.01
645.33	1679.33
645.52	1730.53
645.71	1650.66
645.89	1658.85
646.08	1689.57
646.27	1671.14
646.46	1789.92
646.65	1671.14
646.84	1738.73
647.03	1714.15
647.22	1738.73
647.40	1748.97
647.59	1673.19
647.78	1662.95
647.97	1665.00
648.16	1736.68
648.35	1722.34
648.54	1767.40
648.73	1611.75
648.91	1779.68
649.10	1656.81
649.29	1658.85
649.48	1738.73
649.67	1656.81
649.86	1720.29
650.05	1679.33
650.23	1740.77
650.42	1636.33
650.61	1687.53
650.80	1761.25
650.99	1794.02
651.18	1800.16
651.36	1828.84
651.55	1662.95
651.74	1781.73
651.93	1689.57
652.12	1718.25
652.31	1658.85
652.49	1691.62
652.68	1665.00
652.87	1751.01
653.06	1789.92
653.25	1769.44
653.44	1628.14
653.62	1880.04
653.81	1708.01
654.00	1675.24
654.19	1714.15
654.38	1812.45
654.56	1712.10
654.75	1699.81
654.94	1744.87
655.13	1691.62
655.32	1755.11
655.51	1720.29
655.69	1665.00
655.88	1779.68
656.07	1675.24
656.26	1845.22
656.45	1642.47
656.63	1765.35
656.82	1701.86
657.01	1779.68
657.20	1605.61
657.38	1771.49
657.57	1675.24
657.76	1652.71
657.95	1808.36
658.14	1671.14
658.32	1699.81
658.51	1681.38
658.70	1671.14
658.89	1771.49
659.08	1681.38
659.26	1771.49
659.45	1669.09
659.64	1730.53
659.83	1638.38
660.01	1953.76
660.20	1732.58
660.39	1832.93
660.58	1589.22
660.76	1814.50
660.95	1644.52
661.14	1726.44
661.33	1628.14
661.51	1671.14
661.70	1656.81
661.89	1787.88
662.08	1652.71
662.26	1634.28
662.45	1691.62
662.64	1839.08
662.83	1781.73
663.01	1662.95
663.20	1697.77
663.39	1767.40
663.58	1751.01
663.76	1724.39
663.95	1746.92
664.14	1675.24
664.32	1693.67
664.51	1718.25
664.70	1669.09
664.89	1742.82
665.07	1732.58
665.26	1822.69
665.45	1634.28
665.64	1771.49
665.82	1771.49
666.01	1738.73
666.20	1656.81
666.38	1753.06
666.57	1789.92
666.76	2125.79
666.95	4399.04
667.13	10319.71
667.32	15267.61
667.51	17866.48
667.69	19087.07
667.88	17794.80
668.07	12259.14
668.25	9471.86
668.44	8302.47
668.63	7464.85
668.81	6786.97
669.00	6231.97
669.19	5744.55
669.38	5058.48
669.56	4421.56
669.75	4028.35
669.94	3456.97
670.12	2844.63
670.31	2570.20
670.50	2281.44
670.68	2015.20
670.87	1845.22
671.06	1847.27
671.24	1816.55
671.43	1851.36
671.62	1753.06
671.80	1599.46
671.99	1718.25
672.18	1798.12
672.36	1724.39
672.55	1794.02
672.74	1718.25
672.92	1687.53
673.11	1734.63
673.29	1607.66
673.48	1761.25
673.67	1695.72
673.85	1798.12
674.04	1718.25
674.23	1632.23
674.41	1757.16
674.60	1665.00
674.79	1617.90
674.97	1726.44
675.16	1791.97
675.34	1777.64
675.53	1720.29
675.72	1759.21
675.90	1851.36
676.09	1703.91
676.28	1662.95
676.46	1628.14
676.65	1730.53
676.83	1642.47
677.02	1652.71
677.21	1685.48
677.39	1703.91
677.58	1648.61
677.77	1697.77
677.95	1634.28
678.14	1722.34
678.32	1703.91
678.51	1652.71
678.70	1779.68
678.88	1748.97
679.07	1708.01
679.25	1699.81
679.44	1699.81
679.63	1607.66
679.81	1673.19
680.00	1826.79
680.18	1697.77
680.37	1724.39
680.55	1718.25
680.74	1626.09
680.93	1679.33
681.11	1718.25
681.30	1675.24
681.48	1695.72
681.67	1722.34
681.85	1753.06
682.04	1640.42
682.23	1804.26
682.41	1757.16
682.60	1697.77
682.78	1699.81
682.97	1642.47
683.15	1794.02
683.34	1724.39
683.53	1812.45
683.71	1624.04
683.90	1763.30
684.08	1726.44
684.27	1665.00
684.45	1726.44
684.64	1695.72
684.82	1744.87
685.01	1787.88
685.19	1712.10
685.38	1757.16
685.57	1804.26
685.75	1689.57
685.94	1638.38
686.12	1669.09
686.31	1705.96
686.49	1818.60
686.68	1636.33
686.86	1769.44
687.05	1619.94
687.23	1806.31
687.42	1658.85
687.60	1667.05
687.79	1841.12
687.97	1755.11
688.16	1730.53
688.34	1806.31
688.53	1611.75
688.71	1746.92
688.90	1767.40
689.08	1665.00
689.27	1603.56
689.45	1730.53
689.64	1697.77
689.82	1689.57
690.01	1755.11
690.19	1769.44
690.38	1689.57
690.56	1806.31
690.75	1660.90
690.93	1589.22
691.12	1724.39
691.30	1691.62
691.49	1691.62
691.67	1714.15
691.86	1796.07
692.04	1640.42
692.23	1671.14
692.41	1656.81
692.60	1726.44
692.78	1703.91
692.97	1703.91
693.15	1736.68
693.34	1773.54
693.52	1812.45
693.71	1669.09
693.89	1671.14
694.08	1597.42
694.26	1804.26
694.44	1808.36
694.63	1722.34
694.81	1677.29
695.00	1619.94
695.18	1767.40
695.37	1777.64
695.55	1755.11
695.74	1744.87
695.92	1642.47
696.10	1671.14
696.29	1621.99
696.47	1718.25
696.66	1646.57
696.84	1634.28
697.03	1644.52
697.21	1824.74
697.40	2283.49
697.58	1722.34
697.76	1697.77
697.95	1708.01
698.13	1650.66
698.32	1646.57
698.50	1791.97
698.68	1705.96
698.87	1771.49
699.05	1771.49
699.24	1730.53
699.42	1773.54
699.61	1695.72
699.79	1693.67
699.97	1658.85
700.16	1660.90
700.34	1658.85
700.53	1701.86
700.71	1796.07
700.89	1718.25
701.08	1781.73
701.26	1767.40
701.45	2107.36
701.63	1601.51
701.81	1679.33
702.00	1648.61
702.18	1665.00
702.37	1656.81
702.55	1732.58
702.73	1744.87
702.92	1628.14
703.10	1751.01
703.28	1734.63
703.47	1593.32
703.65	1724.39
703.84	1738.73
704.02	1621.99
704.20	1789.92
704.39	1718.25
704.57	1742.82
704.75	1689.57
704.94	1740.77
705.12	1646.57
705.30	1757.16
705.49	2152.42
705.67	4417.47
705.86	9473.90
706.04	12627.78
706.22	14602.02
706.41	15406.87
706.59	13948.72
706.77	9598.83
706.96	7544.72
707.14	6565.79
707.32	6109.09
707.51	5517.23
707.69	4964.28
707.87	4149.18
708.06	3524.55
708.24	2938.84
708.42	2346.97
708.61	2158.56
708.79	1904.61
708.97	1812.45
709.16	1800.16
709.34	1816.55
709.52	1732.58
709.71	1697.77
709.89	1708.01
710.07	1724.39
710.26	1665.00
710.44	1781.73
710.62	1800.16
710.80	1689.57
710.99	1691.62
711.17	1691.62
711.35	1685.48
711.54	1658.85
711.72	1789.92
711.90	1701.86
712.09	1722.34
712.27	1658.85
712.45	1722.34
712.63	1730.53
712.82	1759.21
713.00	1712.10
713.18	1683.43
713.37	1751.01
713.55	1699.81
713.73	1751.01
713.91	1755.11
714.10	1730.53
714.28	1697.77
714.46	1767.40
714.65	1740.77
714.83	1691.62
715.01	1757.16
715.19	1662.95
715.38	1642.47
715.56	1775.59
715.74	1744.87
715.92	1669.09
716.11	1734.63
716.29	1648.61
716.47	1761.25
716.65	1628.14
716.84	1603.56
717.02	1691.62
717.20	1615.85
717.38	1615.85
717.57	1753.06
717.75	1648.61
717.93	1677.29
718.11	1771.49
718.30	1603.56
718.48	1763.30
718.66	1757.16
718.84	1767.40
719.03	1775.59
719.21	1626.09
719.39	1849.32
719.57	1705.96
719.75	1714.15
719.94	1603.56
720.12	1669.09
720.30	1765.35
720.48	1812.45
720.67	1693.67
720.85	1632.23
721.03	1626.09
721.21	1683.43
721.39	1806.31
721.58	1740.77
721.76	1671.14
721.94	1730.53
722.12	1703.91
722.30	1810.40
722.49	1640.42
722.67	1675.24
722.85	1705.96
723.03	1689.57
723.21	1607.66
723.40	1693.67
723.58	1767.40
723.76	1755.11
723.94	1755.11
724.12	1746.92
724.30	1720.29
724.49	1703.91
724.67	1615.85
724.85	1771.49
725.03	1714.15
725.21	1804.26
725.40	1734.63
725.58	1697.77
725.76	1751.01
725.94	1703.91
726.12	1730.53
726.30	1730.53
726.49	1609.70
726.67	1712.10
726.85	1701.86
727.03	1759.21
727.21	2082.78
727.39	2924.50
727.57	3809.22
727.76	4063.17
727.94	4440.00
728.12	4370.37
728.30	3639.24
728.48	3004.37
728.66	2832.34
728.84	2590.68
729.03	2279.39
729.21	2125.79
729.39	1964.00
729.57	1890.28
729.75	1851.36
729.93	1748.97
730.11	1673.19
730.30	1689.57
730.48	1673.19
730.66	1861.60
730.84	1665.00
731.02	1740.77
731.20	1705.96
731.38	1675.24
731.56	1681.38
731.74	1628.14
731.93	1685.48
732.11	1697.77
732.29	1708.01
732.47	1697.77
732.65	1669.09
732.83	1738.73
733.01	1738.73
733.19	1634.28
733.37	1742.82
733.56	1751.01
733.74	1718.25
733.92	1722.34
734.10	1644.52
734.28	1642.47
734.46	1611.75
734.64	1662.95
734.82	1654.76
735.00	1689.57
735.18	1751.01
735.36	1636.33
735.54	1703.91
735.73	1730.53
735.91	1755.11
736.09	1751.01
736.27	1712.10
736.45	1759.21
736.63	1609.70
736.81	1742.82
736.99	1806.31
737.17	1677.29
737.35	1677.29
737.53	1658.85
737.71	1728.49
737.89	1763.30
738.07	1685.48
738.25	1708.01
738.43	1540.07
738.61	1718.25
738.80	1671.14
738.98	1699.81
739.16	1652.71
739.34	1648.61
739.52	1806.31
739.70	1634.28
739.88	1712.10
740.06	1746.92
740.24	1515.50
740.42	1822.69
740.60	1615.85
740.78	1703.91
740.96	1642.47
741.14	1624.04
741.32	1718.25
741.50	1597.42
741.68	1849.32
741.86	1714.15
742.04	1681.38
742.22	1617.90
742.40	1632.23
742.58	1701.86
742.76	1615.85
742.94	1716.20
743.12	1638.38
743.30	1712.10
743.48	1685.48
743.66	1650.66
743.84	1671.14
744.02	1722.34
744.20	1644.52
744.38	1648.61
744.56	1685.48
744.74	1736.68
744.92	1796.07
745.10	1796.07
745.28	1675.24
745.46	1736.68
745.64	1736.68
745.82	1722.34
746.00	1714.15
746.18	1753.06
746.36	1621.99
746.54	1777.64
746.72	1689.57
746.90	1691.62
747.08	1853.41
747.26	1665.00
747.44	1730.53
747.62	1728.49
747.80	1720.29
747.98	1781.73
748.15	1695.72
748.33	1726.44
748.51	1732.58
748.69	1771.49
748.87	1613.80
749.05	1609.70
749.23	1701.86
749.41	1726.44
749.59	1691.62
749.77	1857.51
749.95	1736.68
750.13	1701.86
750.31	1746.92
750.49	1714.15
750.67	1785.83
750.85	1804.26
751.03	1648.61
751.20	1806.31
751.38	1695.72
751.56	1644.52
751.74	1679.33
751.92	1748.97
752.10	1599.46
752.28	1777.64
752.46	1665.00
752.64	1660.90
752.82	1753.06
753.00	1673.19
753.18	1751.01
753.35	1677.29
753.53	1669.09
753.71	1736.68
753.89	1757.16
754.07	1722.34
754.25	1759.21
754.43	1738.73
754.61	1658.85
754.79	1691.62
754.97	1732.58
755.14	1755.11
755.32	1609.70
755.50	1759.21
755.68	1665.00
755.86	1630.18
756.04	1732.58
756.22	1560.55
756.40	1814.50
756.57	1789.92
756.75	1724.39
756.93	1681.38
757.11	1759.21
757.29	1621.99
757.47	1632.23
757.65	1630.18
757.82	1683.43
758.00	1662.95
758.18	1642.47
758.36	1630.18
758.54	1789.92
758.72	1568.74
758.90	1740.77
759.07	1681.38
759.25	1624.04
759.43	1677.29
759.61	1624.04
759.79	2195.42
759.97	1775.59
760.15	1705.96
760.32	1681.38
760.50	1708.01
760.68	1714.15
760.86	1617.90
761.04	1769.44
761.22	1736.68
761.39	1748.97
761.57	1665.00
761.75	1658.85
761.93	1718.25
762.11	1601.51
762.28	1726.44
762.46	1636.33
762.64	1794.02
762.82	1632.23
763.00	1751.01
763.18	1787.88
763.35	1611.75
763.53	1757.16
763.71	1611.75
763.89	1736.68
764.07	1693.67
764.24	1742.82
764.42	1742.82
764.60	1667.05
764.78	1673.19
764.96	1736.68
765.13	1736.68
765.31	1642.47
765.49	1671.14
765.67	1624.04
765.84	1603.56
766.02	1697.77
766.20	1640.42
766.38	1654.76
766.56	1804.26
766.73	1691.62
766.91	1648.61
767.09	1748.97
767.27	1824.74
767.44	1654.76
767.62	1710.05
767.80	1730.53
767.98	1644.52
768.15	1705.96
768.33	1738.73
768.51	1746.92
768.69	1734.63
768.87	1796.07
769.04	1695.72
769.22	1814.50
769.40	1755.11
769.58	1908.71
769.75	1703.91
769.93	1722.34
770.11	1742.82
770.28	1665.00
770.46	1767.40
770.64	1748.97
770.82	1703.91
770.99	1701.86
771.17	1712.10
771.35	1652.71
771.53	1634.28
771.70	1667.05
771.88	1648.61
772.06	1609.70
772.23	1667.05
772.41	1720.29
772.59	1621.99
772.77	1595.37
772.94	1716.20
773.12	1689.57
773.30	1722.34
773.47	1757.16
773.65	1685.48
773.83	1830.88
774.01	1716.20
774.18	1597.42
774.36	1734.63
774.54	1732.58
774.71	1683.43
774.89	1624.04
775.07	1615.85
775.24	1615.85
775.42	1701.86
775.60	1785.83
775.78	1648.61
775.95	1591.27
776.13	1636.33
776.31	1624.04
776.48	1716.20
776.66	1794.02
776.84	1669.09
777.01	1624.04
777.19	1691.62
777.37	1701.86
777.54	1742.82
777.72	1789.92
777.90	1712.10
778.07	1636.33
778.25	1865.70
778.43	1781.73
778.60	1636.33
778.78	1675.24
778.96	1802.21
779.13	1613.80
779.31	1734.63
779.49	1736.68
779.66	1716.20
779.84	1736.68
780.01	1656.81
780.19	1728.49
780.37	1763.30
780.54	1724.39
780.72	1660.90
780.90	1687.53
781.07	1662.95
781.25	1660.90
781.43	1699.81
781.60	1773.54
781.78	1771.49
781.95	1650.66
782.13	1675.24
782.31	1652.71
782.48	1624.04
782.66	1708.01
782.83	1857.51
783.01	1722.34
783.19	1699.81
783.36	1675.24
783.54	1636.33
783.72	1757.16
783.89	1665.00
784.07	1703.91
784.24	1681.38
784.42	1859.56
784.60	1632.23
784.77	1665.00
784.95	1624.04
785.12	1714.15
785.30	1699.81
785.47	1722.34
785.65	1636.33
785.83	1679.33
786.00	1628.14
786.18	1710.05
786.35	1683.43
786.53	1652.71
786.71	1691.62
786.88	1701.86
787.06	1613.80
787.23	1679.33
787.41	1568.74
787.58	1685.48
787.76	1683.43
787.94	1697.77
788.11	1675.24
788.29	1587.18
788.46	1669.09
788.64	1624.04
788.81	1636.33
788.99	1574.89
789.16	1687.53
789.34	1777.64
789.52	1667.05
789.69	1675.24
789.87	1624.04
790.04	1669.09
790.22	1662.95
790.39	1798.12
790.57	1677.29
790.74	1619.94
790.92	1734.63
791.09	1597.42
791.27	1746.92
791.44	1757.16
791.62	1681.38
791.79	1679.33
791.97	1667.05
792.15	1871.84
792.32	1740.77
792.50	1724.39
792.67	1886.18
792.85	1785.83
793.02	1722.34
793.20	1617.90
793.37	1632.23
793.55	1665.00
793.72	1648.61
793.90	1802.21
794.07	1619.94
794.25	1632.23
794.42	1669.09
794.60	1687.53
794.77	1662.95
794.95	1765.35
795.12	1673.19
795.30	1720.29
795.47	1644.52
795.65	1812.45
795.82	1759.21
796.00	1667.05
796.17	1693.67
796.34	1714.15
796.52	1695.72
796.69	1763.30
796.87	1701.86
797.04	1736.68
797.22	1665.00
797.39	1722.34
797.57	1755.11
797.74	1656.81
797.92	1679.33
798.09	1607.66
798.27	1744.87
798.44	1746.92
798.62	1699.81
798.79	1701.86
798.96	1712.10
799.14	1718.25
799.31	1789.92
799.49	1638.38
799.66	1689.57
799.84	1757.16
800.01	1714.15
800.19	1765.35
800.36	1578.98
800.53	1705.96
800.71	1669.09
800.88	1837.03
801.06	1689.57
801.23	1658.85
801.41	1632.23
801.58	1642.47
801.75	1640.42
801.93	1751.01
802.10	1767.40
802.28	1703.91
802.45	1748.97
802.63	1679.33
802.80	1738.73
802.97	1691.62
803.15	1679.33
803.32	1728.49
803.50	1656.81
803.67	1634.28
803.84	1630.18
804.02	1742.82
804.19	1617.90
804.37	1566.70
804.54	1675.24
804.71	1726.44
804.89	1656.81
805.06	1646.57
805.24	1644.52
805.41	1566.70
805.58	1658.85
805.76	1771.49
805.93	1646.57
806.10	1853.41
806.28	1710.05
806.45	1732.58
806.63	1748.97
806.80	1697.77
806.97	1681.38
807.15	1726.44
807.32	1673.19
807.49	1783.78
807.67	1603.56
807.84	1746.92
808.01	1626.09
808.19	1806.31
808.36	1761.25
808.54	1693.67
808.71	1636.33
808.88	1722.34
809.06	1642.47
809.23	1759.21
809.40	1681.38
809.58	1773.54
809.75	1673.19
809.92	1619.94
810.10	1814.50
810.27	1716.20
810.44	1722.34
810.62	1714.15
810.79	1759.21
810.96	1730.53
811.14	1703.91
811.31	1728.49
811.48	1763.30
811.66	1712.10
811.83	1673.19
812.00	1716.20
812.18	1708.01
812.35	1794.02
812.52	1714.15
812.69	1650.66
812.87	1701.86
813.04	1632.23
813.21	1648.61
813.39	1675.24
813.56	1662.95
813.73	1718.25
813.91	1603.56
814.08	1646.57
814.25	1722.34
814.42	1615.85
814.60	1718.25
814.77	1675.24
814.94	1689.57
815.12	1738.73
815.29	1761.25
815.46	1687.53
815.63	1687.53
815.81	1687.53
815.98	1683.43
816.15	1701.86
816.33	1718.25
816.50	1650.66
816.67	1785.83
816.84	1642.47
817.02	1605.61
817.19	1654.76
817.36	1681.38
817.53	1695.72
817.71	1632.23
817.88	1796.07
818.05	1662.95
818.22	1734.63
818.40	1806.31
818.57	1687.53
818.74	1761.25
818.91	1685.48
819.09	1740.77
819.26	1816.55
819.43	1689.57
819.60	1714.15
819.78	1777.64
819.95	1757.16
820.12	1591.27
820.29	1753.06
820.47	1634.28
820.64	1638.38
820.81	1677.29
820.98	1662.95
821.15	1681.38
821.33	1736.68
821.50	1609.70
821.67	1732.58
821.84	1693.67
822.02	1742.82
822.19	1693.67
822.36	1691.62
822.53	1640.42
822.70	1591.27
822.88	1638.38
823.05	1796.07
823.22	1683.43
823.39	1787.88
823.56	1636.33
823.74	1888.23
823.91	1636.33
824.08	1665.00
824.25	1671.14
824.42	1783.78
824.60	1667.05
824.77	1656.81
824.94	1681.38
825.11	1667.05
825.28	1568.74
825.45	1722.34
825.63	1699.81
825.80	1634.28
825.97	1689.57
826.14	1679.33
826.31	1646.57
826.48	1714.15
826.66	1654.76
826.83	1697.77
827.00	1763.30
827.17	1517.54
827.34	1667.05
827.51	1652.71
827.69	1693.67
827.86	1585.13
828.03	1703.91
828.20	1705.96
828.37	1701.86
828.54	1712.10
828.71	1689.57
828.89	1773.54
829.06	1705.96
829.23	1724.39
829.40	1576.94
829.57	1630.18
829.74	1650.66
829.91	1675.24
830.09	1581.03
830.26	1718.25
830.43	1783.78
830.60	1720.29
830.77	1759.21
830.94	1818.60
831.11	1722.34
831.28	1699.81
831.46	1683.43
831.63	1722.34
831.80	1886.18
831.97	1703.91
832.14	1624.04
832.31	1683.43
832.48	1695.72
832.65	1669.09
832.82	1746.92
832.99	1738.73
833.17	1669.09
833.34	1789.92
833.51	1671.14
833.68	1636.33
833.85	1804.26
834.02	1636.33
834.19	1644.52
834.36	1646.57
834.53	1699.81
834.70	1738.73
834.87	1763.30
835.04	1624.04
835.22	1671.14
835.39	1665.00
835.56	1556.46
835.73	1722.34
835.90	1759.21
836.07	1667.05
836.24	1693.67
836.41	1603.56
836.58	1667.05
836.75	1767.40
836.92	1712.10
837.09	1669.09
837.26	1732.58
837.43	1708.01
837.60	1687.53
837.77	1638.38
837.94	1751.01
838.12	1859.56
838.29	1689.57
838.46	1525.74
838.63	1562.60
838.80	1781.73
838.97	1726.44
839.14	1689.57
839.31	1634.28
839.48	1783.78
839.65	1691.62
839.82	1708.01
839.99	1683.43
840.16	1703.91
840.33	1628.14
840.50	1730.53
840.67	1619.94
840.84	1599.46
841.01	1736.68
841.18	1689.57
841.35	1675.24
841.52	1738.73
841.69	1820.64
841.86	1673.19
842.03	1703.91
842.20	1693.67
842.37	1615.85
842.54	1742.82
842.71	1603.56
842.88	1673.19
843.05	1785.83
843.22	1748.97
843.39	1691.62
843.56	1626.09
843.73	1675.24
843.90	1677.29
844.07	1685.48
844.24	1789.92
844.41	1681.38
844.58	1730.53
844.75	1720.29
844.92	1728.49
845.09	1654.76
845.26	1630.18
845.43	1671.14
845.60	1753.06
845.77	1718.25
845.94	1781.73
846.10	1787.88
846.27	1642.47
846.44	1656.81
846.61	1644.52
846.78	1742.82
846.95	1624.04
847.12	1621.99
847.29	1708.01
847.46	1587.18
847.63	1781.73
847.80	1662.95
847.97	1685.48
848.14	1824.74
848.31	1708.01
848.48	1640.42
848.65	1671.14
848.82	1646.57
848.98	1798.12
849.15	1798.12
849.32	1761.25
849.49	1708.01
849.66	1691.62
849.83	1681.38
850.00	1626.09
850.17	1765.35
850.34	1640.42
850.51	1742.82
850.68	1740.77
850.85	1828.84
851.01	1714.15
851.18	1722.34
851.35	1628.14
851.52	1796.07
851.69	1746.92
851.86	1519.59
852.03	1710.05
852.20	1736.68
852.37	1656.81
852.53	1613.80
852.70	1654.76
852.87	1654.76
853.04	1751.01
853.21	1728.49
853.38	1744.87
853.55	1849.32
853.72	1820.64
853.89	1695.72
854.05	1628.14
854.22	1681.38
854.39	1687.53
854.56	1718.25
854.73	1839.08
854.90	1705.96
855.07	1736.68
855.23	1683.43
855.40	1705.96
855.57	1753.06
855.74	1535.98
855.91	1900.52
856.08	1687.53
856.25	1652.71
856.41	1675.24
856.58	1724.39
856.75	1738.73
856.92	1652.71
857.09	1806.31
857.26	1644.52
857.42	1665.00
857.59	1742.82
857.76	1718.25
857.93	1736.68
858.10	1619.94
858.27	1595.37
858.43	1665.00
858.60	1636.33
858.77	1562.60
858.94	1716.20
859.11	1720.29
859.27	1703.91
859.44	1683.43
859.61	1828.84
859.78	1652.71
859.95	1685.48
860.12	1648.61
860.28	1730.53
860.45	1808.36
860.62	1636.33
860.79	1720.29
860.95	1679.33
861.12	1652.71
861.29	1665.00
861.46	1615.85
861.63	1693.67
861.79	1677.29
861.96	1558.50
862.13	1662.95
862.30	1816.55
862.47	1662.95
862.63	1644.52
862.80	1708.01
862.97	1734.63
863.14	1728.49
863.30	1726.44
863.47	1687.53
863.64	1763.30
863.81	1742.82
863.97	1714.15
864.14	1687.53
864.31	1671.14
864.48	1728.49
864.65	1673.19
864.81	1740.77
864.98	1796.07
865.15	1763.30
865.32	1677.29
865.48	1794.02
865.65	1734.63
865.82	1644.52
865.98	1679.33
866.15	1791.97
866.32	1662.95
866.49	1652.71
866.65	1730.53
866.82	1669.09
866.99	1665.00
867.16	1660.90
867.32	1722.34
867.49	1710.05
867.66	1728.49
867.83	1628.14
867.99	1660.90
868.16	1669.09
868.33	1685.48
868.49	1681.38
868.66	1621.99
868.83	1753.06
868.99	1751.01
869.16	1689.57
869.33	1781.73
869.50	1816.55
869.66	1683.43
869.83	1718.25
870.00	1566.70
870.16	1722.34
870.33	1646.57
870.50	1703.91
870.66	1681.38
870.83	1814.50
871.00	1710.05
871.17	1757.16
871.33	1757.16
871.50	1679.33
871.67	1683.43
871.83	1624.04
872.00	1832.93
872.17	1669.09
872.33	1791.97
872.50	1695.72
872.67	1685.48
872.83	1669.09
873.00	1726.44
873.17	1732.58
873.33	1783.78
873.50	1669.09
873.67	1619.94
873.83	1624.04
874.00	1669.09
874.16	1783.78
874.33	1656.81
874.50	1624.04
874.66	1693.67
874.83	1718.25
875.00	1751.01
875.16	1746.92
875.33	1738.73
875.50	1578.98
875.66	1689.57
875.83	1669.09
875.99	1679.33
876.16	1714.15
876.33	1640.42
876.49	1693.67
876.66	1777.64
876.83	1703.91
876.99	1589.22
877.16	1665.00
877.32	1671.14
877.49	1626.09
877.66	1722.34
877.82	1865.70
877.99	1705.96
878.15	1726.44
878.32	1687.53
878.49	1730.53
878.65	1665.00
878.82	1798.12
878.98	1701.86
879.15	1710.05
879.32	1751.01
879.48	1683.43
879.65	1675.24
879.81	1734.63
879.98	1658.85
880.15	1626.09
880.31	1759.21
880.48	1632.23
880.64	1820.64
880.81	1683.43
880.97	1810.40
881.14	1755.11
881.31	1595.37
881.47	1849.32
881.64	1671.14
881.80	1587.18
881.97	1689.57
882.13	1779.68
882.30	1667.05
882.47	1644.52
882.63	1665.00
882.80	1681.38
882.96	1689.57
883.13	1816.55
883.29	1775.59
883.46	1693.67
883.62	1738.73
883.79	1697.77
883.95	1771.49
884.12	1656.81
884.29	1773.54
884.45	1744.87
884.62	1759.21
884.78	1675.24
884.95	1785.83
885.11	1611.75
885.28	1753.06
885.44	1591.27
885.61	1785.83
885.77	1796.07
885.94	1677.29
886.10	1699.81
886.27	1681.38
886.43	1767.40
886.60	1755.11
886.76	1693.67
886.93	1683.43
887.09	1718.25
887.26	1605.61
887.42	1742.82
887.59	1746.92
887.75	1820.64
887.92	1789.92
888.08	1738.73
888.25	1730.53
888.41	1755.11
888.58	1724.39
888.74	1677.29
888.91	1630.18
>>>>>End Processed Spectral Data<<<<<
