SpectraSuite Data File
++++++++++++++++++++++++++++++++++++
Date: Mon Jun 06 15:25:17 CEST 2016
User: root
Dark Spectrum Present: No
Reference Spectrum Present: No
Number of Sampled Component Spectra: 1
Spectrometers: USB4C02835
Integration Time (usec): 100000 (USB4C02835)
Spectra Averaged: 1 (USB4C02835)
Boxcar Smoothing: 0 (USB4C02835)
Correct for Electrical Dark: No (USB4C02835)
Strobe/Lamp Enabled: No (USB4C02835)
Correct for Detector Non-linearity: No (USB4C02835)
Correct for Stray Light: No (USB4C02835)
Number of Pixels in Processed Spectrum: 3648
>>>>>Begin Processed Spectral Data<<<<<
177.47	1452.01
177.69	1452.01
177.91	1452.01
178.13	1425.39
178.36	1484.78
178.58	1681.38
178.80	1675.24
179.02	1683.43
179.24	1662.95
179.46	1667.05
179.68	1771.49
179.90	1687.53
180.13	1660.90
180.35	1658.85
180.57	1742.82
180.79	1705.96
181.01	1816.55
181.23	1763.30
181.45	1767.40
181.67	1730.53
181.90	1761.25
182.12	1699.81
182.34	1681.38
182.56	1753.06
182.78	1791.97
183.00	1599.46
183.22	1722.34
183.44	1583.08
183.66	1886.18
183.89	1814.50
184.11	1748.97
184.33	1697.77
184.55	1728.49
184.77	1724.39
184.99	1800.16
185.21	1753.06
185.43	1877.99
185.65	1634.28
185.87	1816.55
186.10	1865.70
186.32	1820.64
186.54	1722.34
186.76	1675.24
186.98	1785.83
187.20	1708.01
187.42	1681.38
187.64	1691.62
187.86	1703.91
188.08	1740.77
188.30	1701.86
188.52	1742.82
188.75	1804.26
188.97	1763.30
189.19	1665.00
189.41	1742.82
189.63	1775.59
189.85	1712.10
190.07	1611.75
190.29	1597.42
190.51	1755.11
190.73	1740.77
190.95	1800.16
191.17	1705.96
191.39	1634.28
191.61	1671.14
191.84	1634.28
192.06	1740.77
192.28	1683.43
192.50	1910.75
192.72	1697.77
192.94	1642.47
193.16	1763.30
193.38	1777.64
193.60	1605.61
193.82	1677.29
194.04	1742.82
194.26	1789.92
194.48	1742.82
194.70	1716.20
194.92	1699.81
195.14	1722.34
195.36	1773.54
195.58	1632.23
195.80	1609.70
196.02	1656.81
196.24	1665.00
196.46	1636.33
196.69	1718.25
196.91	1759.21
197.13	1658.85
197.35	1681.38
197.57	1826.79
197.79	1703.91
198.01	1656.81
198.23	1771.49
198.45	1751.01
198.67	1634.28
198.89	1710.05
199.11	1755.11
199.33	1681.38
199.55	1619.94
199.77	1689.57
199.99	1810.40
200.21	1769.44
200.43	1757.16
200.65	1650.66
200.87	1634.28
201.09	1689.57
201.31	1685.48
201.53	1726.44
201.75	1740.77
201.97	1716.20
202.19	1755.11
202.41	1701.86
202.63	1789.92
202.85	1726.44
203.07	1667.05
203.29	1693.67
203.51	1675.24
203.73	1681.38
203.95	1861.60
204.17	1757.16
204.39	1718.25
204.61	1714.15
204.83	1730.53
205.05	1753.06
205.27	1796.07
205.49	1826.79
205.71	1716.20
205.93	1687.53
206.15	1712.10
206.37	1746.92
206.59	1675.24
206.81	1619.94
207.03	1693.67
207.25	1624.04
207.47	1693.67
207.69	1759.21
207.91	1748.97
208.13	1722.34
208.34	1708.01
208.56	1609.70
208.78	1726.44
209.00	1628.14
209.22	1693.67
209.44	1687.53
209.66	1681.38
209.88	1767.40
210.10	1685.48
210.32	1708.01
210.54	1738.73
210.76	1662.95
210.98	1767.40
211.20	1611.75
211.42	1748.97
211.64	1751.01
211.86	1740.77
212.08	1699.81
212.30	1738.73
212.52	1613.80
212.74	1720.29
212.96	1695.72
213.17	1798.12
213.39	1748.97
213.61	1812.45
213.83	1714.15
214.05	1726.44
214.27	1759.21
214.49	1683.43
214.71	1646.57
214.93	1787.88
215.15	1662.95
215.37	1751.01
215.59	1703.91
215.81	1726.44
216.03	1779.68
216.24	1652.71
216.46	1683.43
216.68	1732.58
216.90	1798.12
217.12	1779.68
217.34	1734.63
217.56	1744.87
217.78	1804.26
218.00	1714.15
218.22	1701.86
218.44	1791.97
218.66	1726.44
218.87	1806.31
219.09	1724.39
219.31	1699.81
219.53	1748.97
219.75	1607.66
219.97	1724.39
220.19	1726.44
220.41	1720.29
220.63	1691.62
220.85	1687.53
221.06	1652.71
221.28	1767.40
221.50	1730.53
221.72	1753.06
221.94	1665.00
222.16	1730.53
222.38	1806.31
222.60	1701.86
222.82	1705.96
223.03	1798.12
223.25	1701.86
223.47	1781.73
223.69	1882.08
223.91	1710.05
224.13	1669.09
224.35	1683.43
224.57	1837.03
224.78	1697.77
225.00	1716.20
225.22	1755.11
225.44	1736.68
225.66	1783.78
225.88	1712.10
226.10	1695.72
226.32	1800.16
226.53	1847.27
226.75	1746.92
226.97	1714.15
227.19	1744.87
227.41	1697.77
227.63	1640.42
227.85	1687.53
228.06	1748.97
228.28	1746.92
228.50	1804.26
228.72	1640.42
228.94	1720.29
229.16	1669.09
229.37	1708.01
229.59	1681.38
229.81	1837.03
230.03	1763.30
230.25	1609.70
230.47	1630.18
230.69	1632.23
230.90	1705.96
231.12	1609.70
231.34	1720.29
231.56	1746.92
231.78	1630.18
232.00	1660.90
232.21	1787.88
232.43	1751.01
232.65	1632.23
232.87	1697.77
233.09	1599.46
233.30	1705.96
233.52	1744.87
233.74	1708.01
233.96	1769.44
234.18	1722.34
234.40	1677.29
234.61	1826.79
234.83	1591.27
235.05	1619.94
235.27	1875.94
235.49	1824.74
235.70	1804.26
235.92	1785.83
236.14	1763.30
236.36	1859.56
236.58	1636.33
236.79	1691.62
237.01	1683.43
237.23	1691.62
237.45	1902.56
237.67	1648.61
237.88	1654.76
238.10	1789.92
238.32	1632.23
238.54	1681.38
238.76	1726.44
238.97	1660.90
239.19	1687.53
239.41	1779.68
239.63	1781.73
239.85	1705.96
240.06	1746.92
240.28	1728.49
240.50	1779.68
240.72	1675.24
240.93	1722.34
241.15	1794.02
241.37	1701.86
241.59	1771.49
241.81	1710.05
242.02	1566.70
242.24	1697.77
242.46	1720.29
242.68	1660.90
242.89	1720.29
243.11	1810.40
243.33	1738.73
243.55	1753.06
243.76	1722.34
243.98	1607.66
244.20	1685.48
244.42	1783.78
244.64	1732.58
244.85	1640.42
245.07	1695.72
245.29	1691.62
245.51	1705.96
245.72	1787.88
245.94	1806.31
246.16	1701.86
246.38	1779.68
246.59	1714.15
246.81	1724.39
247.03	1781.73
247.24	1583.08
247.46	1724.39
247.68	1746.92
247.90	1736.68
248.11	1701.86
248.33	1742.82
248.55	1712.10
248.77	1724.39
248.98	1697.77
249.20	1789.92
249.42	1761.25
249.64	1773.54
249.85	1660.90
250.07	1691.62
250.29	1767.40
250.50	1751.01
250.72	1691.62
250.94	1751.01
251.16	1804.26
251.37	1781.73
251.59	1771.49
251.81	1683.43
252.02	1818.60
252.24	1763.30
252.46	1751.01
252.68	1677.29
252.89	1654.76
253.11	1656.81
253.33	1728.49
253.54	1763.30
253.76	1626.09
253.98	1703.91
254.20	1634.28
254.41	1669.09
254.63	1775.59
254.85	1648.61
255.06	1732.58
255.28	1742.82
255.50	1685.48
255.71	1613.80
255.93	1613.80
256.15	1720.29
256.36	1703.91
256.58	1699.81
256.80	1841.12
257.02	1669.09
257.23	1724.39
257.45	1644.52
257.67	1761.25
257.88	1699.81
258.10	1714.15
258.32	1671.14
258.53	1716.20
258.75	1843.17
258.97	1689.57
259.18	1826.79
259.40	1736.68
259.62	1851.36
259.83	1820.64
260.05	1746.92
260.27	1947.62
260.48	1769.44
260.70	1660.90
260.92	1703.91
261.13	1730.53
261.35	1716.20
261.57	1732.58
261.78	1665.00
262.00	1703.91
262.22	1716.20
262.43	1763.30
262.65	1634.28
262.86	1689.57
263.08	1781.73
263.30	1748.97
263.51	1548.26
263.73	1642.47
263.95	1769.44
264.16	1736.68
264.38	1595.37
264.60	1781.73
264.81	1730.53
265.03	1753.06
265.25	1787.88
265.46	1734.63
265.68	1798.12
265.89	1845.22
266.11	1632.23
266.33	1699.81
266.54	1755.11
266.76	1703.91
266.98	1771.49
267.19	1744.87
267.41	1822.69
267.62	1748.97
267.84	1617.90
268.06	1730.53
268.27	1617.90
268.49	1753.06
268.70	1689.57
268.92	1673.19
269.14	1638.38
269.35	1658.85
269.57	1720.29
269.79	1777.64
270.00	1722.34
270.22	1794.02
270.43	1693.67
270.65	1593.32
270.87	1667.05
271.08	1755.11
271.30	1742.82
271.51	1683.43
271.73	1742.82
271.95	1841.12
272.16	1777.64
272.38	1716.20
272.59	1652.71
272.81	1757.16
273.02	1808.36
273.24	1712.10
273.46	1761.25
273.67	1681.38
273.89	1675.24
274.10	1765.35
274.32	1742.82
274.54	1681.38
274.75	1759.21
274.97	1740.77
275.18	1705.96
275.40	1665.00
275.61	1679.33
275.83	1755.11
276.05	1628.14
276.26	1624.04
276.48	1839.08
276.69	1757.16
276.91	1687.53
277.12	1791.97
277.34	1748.97
277.55	1722.34
277.77	1730.53
277.99	1669.09
278.20	1675.24
278.42	1646.57
278.63	1699.81
278.85	1656.81
279.06	1621.99
279.28	1712.10
279.49	1722.34
279.71	1738.73
279.93	1697.77
280.14	1714.15
280.36	1685.48
280.57	1734.63
280.79	1751.01
281.00	1724.39
281.22	1656.81
281.43	1853.41
281.65	1581.03
281.86	1744.87
282.08	1738.73
282.29	1732.58
282.51	1603.56
282.73	1667.05
282.94	1665.00
283.16	1738.73
283.37	1748.97
283.59	1662.95
283.80	1703.91
284.02	1761.25
284.23	1695.72
284.45	1781.73
284.66	1734.63
284.88	1695.72
285.09	1710.05
285.31	1730.53
285.52	1767.40
285.74	1640.42
285.95	1808.36
286.17	1751.01
286.38	1798.12
286.60	1626.09
286.81	1685.48
287.03	1712.10
287.24	1662.95
287.46	1703.91
287.67	1669.09
287.89	1837.03
288.10	1665.00
288.32	1736.68
288.53	1779.68
288.75	1650.66
288.96	1710.05
289.18	1626.09
289.39	1691.62
289.61	1757.16
289.82	1808.36
290.04	1806.31
290.25	1697.77
290.47	1763.30
290.68	1710.05
290.90	1732.58
291.11	1716.20
291.33	1779.68
291.54	1646.57
291.76	1732.58
291.97	1705.96
292.18	1751.01
292.40	1730.53
292.61	1734.63
292.83	1880.04
293.04	1740.77
293.26	1685.48
293.47	1705.96
293.69	1671.14
293.90	1673.19
294.12	1845.22
294.33	1705.96
294.55	1699.81
294.76	1757.16
294.97	1796.07
295.19	1814.50
295.40	1712.10
295.62	1748.97
295.83	1849.32
296.05	1599.46
296.26	1757.16
296.48	1591.27
296.69	1628.14
296.90	1728.49
297.12	1728.49
297.33	1834.98
297.55	1763.30
297.76	1761.25
297.98	1834.98
298.19	1742.82
298.41	1714.15
298.62	1726.44
298.83	1824.74
299.05	1751.01
299.26	1669.09
299.48	1687.53
299.69	1736.68
299.90	1710.05
300.12	1644.52
300.33	1810.40
300.55	1771.49
300.76	1753.06
300.98	1673.19
301.19	1671.14
301.40	1626.09
301.62	1693.67
301.83	1705.96
302.05	1753.06
302.26	1654.76
302.47	1689.57
302.69	1693.67
302.90	1673.19
303.12	1640.42
303.33	1705.96
303.54	1806.31
303.76	1722.34
303.97	1742.82
304.19	1855.46
304.40	1683.43
304.61	1736.68
304.83	1859.56
305.04	1767.40
305.26	1738.73
305.47	1677.29
305.68	1662.95
305.90	1703.91
306.11	1767.40
306.33	1738.73
306.54	1660.90
306.75	1644.52
306.97	1650.66
307.18	1734.63
307.39	1705.96
307.61	1748.97
307.82	1742.82
308.04	1769.44
308.25	1628.14
308.46	1755.11
308.68	1738.73
308.89	1726.44
309.10	1794.02
309.32	1701.86
309.53	1667.05
309.74	1675.24
309.96	1677.29
310.17	1845.22
310.39	1654.76
310.60	1787.88
310.81	1658.85
311.03	1705.96
311.24	1787.88
311.45	1695.72
311.67	1837.03
311.88	1699.81
312.09	1697.77
312.31	1601.51
312.52	1779.68
312.73	1703.91
312.95	1595.37
313.16	1634.28
313.37	1746.92
313.59	1726.44
313.80	1767.40
314.01	1861.60
314.23	1722.34
314.44	1699.81
314.65	1568.74
314.87	1654.76
315.08	1634.28
315.29	1652.71
315.51	1607.66
315.72	1644.52
315.93	1755.11
316.15	1849.32
316.36	1662.95
316.57	1789.92
316.79	1751.01
317.00	1710.05
317.21	1722.34
317.43	1667.05
317.64	1714.15
317.85	1699.81
318.07	1621.99
318.28	1730.53
318.49	1816.55
318.70	1955.81
318.92	1800.16
319.13	1779.68
319.34	1830.88
319.56	1759.21
319.77	1816.55
319.98	1779.68
320.20	1722.34
320.41	1705.96
320.62	1763.30
320.83	1710.05
321.05	1832.93
321.26	1712.10
321.47	1728.49
321.69	1736.68
321.90	1613.80
322.11	1697.77
322.32	1640.42
322.54	1798.12
322.75	1638.38
322.96	1789.92
323.18	1648.61
323.39	1609.70
323.60	1646.57
323.81	1822.69
324.03	1658.85
324.24	1763.30
324.45	1724.39
324.66	1695.72
324.88	1777.64
325.09	1759.21
325.30	1662.95
325.52	1654.76
325.73	1722.34
325.94	1624.04
326.15	1591.27
326.37	1660.90
326.58	1769.44
326.79	1796.07
327.00	1730.53
327.22	1814.50
327.43	1689.57
327.64	1689.57
327.85	1763.30
328.07	1669.09
328.28	1826.79
328.49	1695.72
328.70	1769.44
328.92	1722.34
329.13	1677.29
329.34	1716.20
329.55	1777.64
329.76	1796.07
329.98	1804.26
330.19	1724.39
330.40	1757.16
330.61	1701.86
330.83	1705.96
331.04	1720.29
331.25	1660.90
331.46	1677.29
331.68	1691.62
331.89	1705.96
332.10	1689.57
332.31	1658.85
332.52	1681.38
332.74	1712.10
332.95	1654.76
333.16	1654.76
333.37	1769.44
333.58	1646.57
333.80	1757.16
334.01	1632.23
334.22	1753.06
334.43	1658.85
334.64	1652.71
334.86	1644.52
335.07	1685.48
335.28	1853.41
335.49	1665.00
335.70	1742.82
335.92	1767.40
336.13	1880.04
336.34	1800.16
336.55	1710.05
336.76	1699.81
336.98	1656.81
337.19	1732.58
337.40	1783.78
337.61	1843.17
337.82	1687.53
338.04	1757.16
338.25	1640.42
338.46	1705.96
338.67	1671.14
338.88	1640.42
339.09	1578.98
339.31	1730.53
339.52	1587.18
339.73	1658.85
339.94	1726.44
340.15	1748.97
340.36	1615.85
340.58	1701.86
340.79	1681.38
341.00	1714.15
341.21	1603.56
341.42	1812.45
341.63	1656.81
341.85	1736.68
342.06	1783.78
342.27	1705.96
342.48	1800.16
342.69	1673.19
342.90	1699.81
343.12	1818.60
343.33	1630.18
343.54	1775.59
343.75	1828.84
343.96	1660.90
344.17	1681.38
344.38	1701.86
344.60	1738.73
344.81	1710.05
345.02	1691.62
345.23	1746.92
345.44	1808.36
345.65	1708.01
345.86	1734.63
346.07	1648.61
346.29	1626.09
346.50	1669.09
346.71	1677.29
346.92	1738.73
347.13	1755.11
347.34	1701.86
347.55	1701.86
347.76	1794.02
347.98	1593.32
348.19	1714.15
348.40	1796.07
348.61	1583.08
348.82	1837.03
349.03	1679.33
349.24	1644.52
349.45	1748.97
349.66	1630.18
349.88	1718.25
350.09	1677.29
350.30	1734.63
350.51	1812.45
350.72	1607.66
350.93	1783.78
351.14	1726.44
351.35	1751.01
351.56	1742.82
351.77	1628.14
351.99	1742.82
352.20	1726.44
352.41	1800.16
352.62	1607.66
352.83	1695.72
353.04	1675.24
353.25	1669.09
353.46	1802.21
353.67	1806.31
353.88	1574.89
354.09	1701.86
354.30	1687.53
354.52	1798.12
354.73	1691.62
354.94	1720.29
355.15	1767.40
355.36	1832.93
355.57	1697.77
355.78	1820.64
355.99	1693.67
356.20	1718.25
356.41	1804.26
356.62	1695.72
356.83	1751.01
357.04	1794.02
357.25	1593.32
357.46	1683.43
357.68	1589.22
357.89	1716.20
358.10	1722.34
358.31	1736.68
358.52	1675.24
358.73	1677.29
358.94	1687.53
359.15	1652.71
359.36	1773.54
359.57	1714.15
359.78	1681.38
359.99	1759.21
360.20	1650.66
360.41	1736.68
360.62	1736.68
360.83	1755.11
361.04	1761.25
361.25	1730.53
361.46	1880.04
361.67	1804.26
361.88	1699.81
362.09	1759.21
362.30	1683.43
362.51	1687.53
362.72	1757.16
362.93	1787.88
363.14	1783.78
363.35	1769.44
363.56	1648.61
363.78	1722.34
363.99	1812.45
364.20	1703.91
364.41	1728.49
364.62	1877.99
364.83	1751.01
365.04	1800.16
365.25	1730.53
365.46	1806.31
365.67	1665.00
365.88	1609.70
366.09	1699.81
366.30	1712.10
366.51	1714.15
366.72	1675.24
366.93	1619.94
367.14	1738.73
367.35	1822.69
367.56	1718.25
367.77	1783.78
367.98	1765.35
368.18	1755.11
368.39	1691.62
368.60	1689.57
368.81	1822.69
369.02	1689.57
369.23	1701.86
369.44	1673.19
369.65	1671.14
369.86	1796.07
370.07	1718.25
370.28	1689.57
370.49	1667.05
370.70	1703.91
370.91	1669.09
371.12	1705.96
371.33	1796.07
371.54	1724.39
371.75	1794.02
371.96	1607.66
372.17	1669.09
372.38	1705.96
372.59	1722.34
372.80	1671.14
373.01	1701.86
373.22	1742.82
373.43	1800.16
373.64	1675.24
373.85	1757.16
374.06	1740.77
374.26	1730.53
374.47	1742.82
374.68	1845.22
374.89	1673.19
375.10	1705.96
375.31	1759.21
375.52	1720.29
375.73	1703.91
375.94	1603.56
376.15	1777.64
376.36	1648.61
376.57	1656.81
376.78	1701.86
376.99	1710.05
377.20	1759.21
377.40	1722.34
377.61	1832.93
377.82	1656.81
378.03	1877.99
378.24	1691.62
378.45	1701.86
378.66	1724.39
378.87	1595.37
379.08	1609.70
379.29	1732.58
379.50	1796.07
379.71	1732.58
379.91	1800.16
380.12	1705.96
380.33	1730.53
380.54	1724.39
380.75	1705.96
380.96	1798.12
381.17	1837.03
381.38	1753.06
381.59	1757.16
381.80	1744.87
382.00	1845.22
382.21	1769.44
382.42	1877.99
382.63	1847.27
382.84	1658.85
383.05	1773.54
383.26	1787.88
383.47	1781.73
383.68	1796.07
383.88	1722.34
384.09	1798.12
384.30	1830.88
384.51	1724.39
384.72	1695.72
384.93	1669.09
385.14	1687.53
385.35	1742.82
385.55	1658.85
385.76	1826.79
385.97	1726.44
386.18	1738.73
386.39	1656.81
386.60	1685.48
386.81	1693.67
387.02	1689.57
387.22	1683.43
387.43	1777.64
387.64	1855.46
387.85	1927.14
388.06	2152.42
388.27	4196.29
388.48	6420.38
388.68	8107.91
388.89	9512.81
389.10	9658.22
389.31	8300.42
389.52	7231.38
389.73	6619.04
389.93	6238.11
390.14	5685.16
390.35	5066.67
390.56	4429.76
390.77	3758.02
390.98	3053.52
391.18	2473.95
391.39	2090.98
391.60	1927.14
391.81	1873.89
392.02	1697.77
392.23	1865.70
392.43	1757.16
392.64	1804.26
392.85	1734.63
393.06	1849.32
393.27	1714.15
393.47	1742.82
393.68	1689.57
393.89	1695.72
394.10	1775.59
394.31	1679.33
394.52	1681.38
394.72	1781.73
394.93	1849.32
395.14	1693.67
395.35	1738.73
395.56	1712.10
395.76	1751.01
395.97	1820.64
396.18	1884.13
396.39	1791.97
396.60	2033.63
396.80	1968.10
397.01	1763.30
397.22	1816.55
397.43	1875.94
397.64	1703.91
397.84	1755.11
398.05	1804.26
398.26	1740.77
398.47	1767.40
398.67	1746.92
398.88	1757.16
399.09	1830.88
399.30	1671.14
399.51	1683.43
399.71	1685.48
399.92	1763.30
400.13	1718.25
400.34	1691.62
400.54	1757.16
400.75	1806.31
400.96	1837.03
401.17	1820.64
401.37	1722.34
401.58	1693.67
401.79	1783.78
402.00	1861.60
402.21	2080.74
402.41	1988.58
402.62	1961.95
402.83	1984.48
403.04	2009.06
403.24	2027.49
403.45	1865.70
403.66	1884.13
403.87	1873.89
404.07	1880.04
404.28	1904.61
404.49	1843.17
404.70	1779.68
404.90	1705.96
405.11	1693.67
405.32	1738.73
405.52	1667.05
405.73	1679.33
405.94	1624.04
406.15	1773.54
406.35	1757.16
406.56	1789.92
406.77	1718.25
406.98	1734.63
407.18	1591.27
407.39	1800.16
407.60	1787.88
407.80	1779.68
408.01	1691.62
408.22	1779.68
408.43	1632.23
408.63	1802.21
408.84	1796.07
409.05	1783.78
409.25	1710.05
409.46	1667.05
409.67	1628.14
409.88	1753.06
410.08	1744.87
410.29	1671.14
410.50	1730.53
410.70	1714.15
410.91	1746.92
411.12	1654.76
411.32	1701.86
411.53	1732.58
411.74	1789.92
411.95	1736.68
412.15	1734.63
412.36	1771.49
412.57	1826.79
412.77	1851.36
412.98	1814.50
413.19	1697.77
413.39	1744.87
413.60	1804.26
413.81	1796.07
414.01	1665.00
414.22	1728.49
414.43	1798.12
414.63	1736.68
414.84	1775.59
415.05	1804.26
415.25	1691.62
415.46	1777.64
415.67	1710.05
415.87	1722.34
416.08	1714.15
416.29	1705.96
416.49	1757.16
416.70	1656.81
416.91	1742.82
417.11	1730.53
417.32	1734.63
417.53	1777.64
417.73	1759.21
417.94	1665.00
418.15	1718.25
418.35	1705.96
418.56	1732.58
418.77	1826.79
418.97	1665.00
419.18	1691.62
419.38	1521.64
419.59	1734.63
419.80	1818.60
420.00	1665.00
420.21	1699.81
420.42	1779.68
420.62	1796.07
420.83	1624.04
421.04	1681.38
421.24	1638.38
421.45	1814.50
421.65	1730.53
421.86	1638.38
422.07	1796.07
422.27	1730.53
422.48	1734.63
422.69	1642.47
422.89	1699.81
423.10	1781.73
423.30	1689.57
423.51	1726.44
423.72	1746.92
423.92	1765.35
424.13	1605.61
424.33	1697.77
424.54	1732.58
424.75	1746.92
424.95	1908.71
425.16	1705.96
425.36	1619.94
425.57	1718.25
425.78	1763.30
425.98	1695.72
426.19	1728.49
426.39	1624.04
426.60	1785.83
426.81	1796.07
427.01	1763.30
427.22	1722.34
427.42	1691.62
427.63	1640.42
427.83	1738.73
428.04	1828.84
428.25	1791.97
428.45	1730.53
428.66	1773.54
428.86	1708.01
429.07	1804.26
429.28	1689.57
429.48	1703.91
429.69	1669.09
429.89	1757.16
430.10	1652.71
430.30	1779.68
430.51	1742.82
430.71	1662.95
430.92	1652.71
431.13	1673.19
431.33	1779.68
431.54	1724.39
431.74	1841.12
431.95	1794.02
432.15	1611.75
432.36	1716.20
432.56	1722.34
432.77	1783.78
432.98	1869.80
433.18	1773.54
433.39	1714.15
433.59	1720.29
433.80	1787.88
434.00	1877.99
434.21	1699.81
434.41	1687.53
434.62	1882.08
434.82	1689.57
435.03	1740.77
435.23	1714.15
435.44	1640.42
435.64	1691.62
435.85	1746.92
436.06	1791.97
436.26	1814.50
436.47	1755.11
436.67	1710.05
436.88	1710.05
437.08	1759.21
437.29	1777.64
437.49	1716.20
437.70	1832.93
437.90	1726.44
438.11	1855.46
438.31	1767.40
438.52	1841.12
438.72	1828.84
438.93	1800.16
439.13	1779.68
439.34	1873.89
439.54	1810.40
439.75	1845.22
439.95	1832.93
440.16	1736.68
440.36	1722.34
440.57	1753.06
440.77	1736.68
440.98	1683.43
441.18	1773.54
441.39	1734.63
441.59	1720.29
441.80	1888.23
442.00	1765.35
442.21	1851.36
442.41	1685.48
442.62	1814.50
442.82	1665.00
443.02	1781.73
443.23	1761.25
443.43	1759.21
443.64	1849.32
443.84	1660.90
444.05	1843.17
444.25	1728.49
444.46	1777.64
444.66	1730.53
444.87	1841.12
445.07	1654.76
445.28	1777.64
445.48	1763.30
445.69	1804.26
445.89	1853.41
446.09	1740.77
446.30	2090.98
446.50	2555.86
446.71	3696.58
446.91	4245.44
447.12	4556.73
447.32	4720.57
447.53	4294.59
447.73	3921.86
447.93	3475.40
448.14	3223.50
448.34	3235.79
448.55	2904.02
448.75	2836.44
448.96	2666.46
449.16	2449.37
449.36	2258.91
449.57	2136.03
449.77	1871.84
449.98	1765.35
450.18	1816.55
450.39	1775.59
450.59	1828.84
450.79	1734.63
451.00	1724.39
451.20	1791.97
451.41	1746.92
451.61	1681.38
451.81	1716.20
452.02	1779.68
452.22	1703.91
452.43	1597.42
452.63	1701.86
452.84	1796.07
453.04	1708.01
453.24	1722.34
453.45	1658.85
453.65	1746.92
453.86	1744.87
454.06	1779.68
454.26	1753.06
454.47	1767.40
454.67	1820.64
454.87	1781.73
455.08	1732.58
455.28	1832.93
455.49	1800.16
455.69	1716.20
455.89	1791.97
456.10	1810.40
456.30	1767.40
456.51	1710.05
456.71	1656.81
456.91	1773.54
457.12	1720.29
457.32	1751.01
457.52	1708.01
457.73	1783.78
457.93	1796.07
458.14	1771.49
458.34	1662.95
458.54	1757.16
458.75	1697.77
458.95	1824.74
459.15	1759.21
459.36	1771.49
459.56	1728.49
459.76	1908.71
459.97	1716.20
460.17	1740.77
460.37	1759.21
460.58	1781.73
460.78	1820.64
460.99	1671.14
461.19	1738.73
461.39	1734.63
461.60	1726.44
461.80	1861.60
462.00	1681.38
462.21	1759.21
462.41	1665.00
462.61	1638.38
462.82	1701.86
463.02	1785.83
463.22	1673.19
463.43	1779.68
463.63	1773.54
463.83	1820.64
464.04	1816.55
464.24	1667.05
464.44	1726.44
464.64	1689.57
464.85	1796.07
465.05	1773.54
465.25	1769.44
465.46	1726.44
465.66	1810.40
465.86	1773.54
466.07	1703.91
466.27	1718.25
466.47	1634.28
466.68	1673.19
466.88	1771.49
467.08	1767.40
467.29	1773.54
467.49	1808.36
467.69	1744.87
467.89	1748.97
468.10	1660.90
468.30	1800.16
468.50	1830.88
468.71	1808.36
468.91	1662.95
469.11	1847.27
469.31	1798.12
469.52	1624.04
469.72	1853.41
469.92	1847.27
470.13	1687.53
470.33	1794.02
470.53	1789.92
470.73	2119.65
470.94	2263.01
471.14	2291.68
471.34	2584.54
471.54	2443.23
471.75	2154.46
471.95	2060.26
472.15	2074.59
472.36	2150.37
472.56	2084.83
472.76	2039.78
472.96	2023.39
473.17	1906.66
473.37	1908.71
473.57	1751.01
473.77	1820.64
473.98	1751.01
474.18	1687.53
474.38	1884.13
474.58	1689.57
474.79	1703.91
474.99	1687.53
475.19	1802.21
475.39	1675.24
475.60	1802.21
475.80	1677.29
476.00	1636.33
476.20	1724.39
476.41	1773.54
476.61	1796.07
476.81	1712.10
477.01	1691.62
477.21	1873.89
477.42	1787.88
477.62	1669.09
477.82	1746.92
478.02	1708.01
478.23	1851.36
478.43	1677.29
478.63	1691.62
478.83	1722.34
479.03	1753.06
479.24	1814.50
479.44	1771.49
479.64	1673.19
479.84	1654.76
480.04	1699.81
480.25	1785.83
480.45	1662.95
480.65	1701.86
480.85	1867.75
481.06	1746.92
481.26	1732.58
481.46	1808.36
481.66	1791.97
481.86	1705.96
482.06	1861.60
482.27	1718.25
482.47	1675.24
482.67	1796.07
482.87	1691.62
483.07	1830.88
483.28	1660.90
483.48	1730.53
483.68	1710.05
483.88	1691.62
484.08	1626.09
484.29	1775.59
484.49	1714.15
484.69	1775.59
484.89	1791.97
485.09	1804.26
485.29	1712.10
485.50	1714.15
485.70	1726.44
485.90	1849.32
486.10	1751.01
486.30	1746.92
486.50	1826.79
486.71	1757.16
486.91	1787.88
487.11	1826.79
487.31	1665.00
487.51	1794.02
487.71	1697.77
487.91	1687.53
488.12	1681.38
488.32	1558.50
488.52	1673.19
488.72	1583.08
488.92	1783.78
489.12	1736.68
489.32	1763.30
489.53	1724.39
489.73	1667.05
489.93	1849.32
490.13	1691.62
490.33	1652.71
490.53	1773.54
490.73	1822.69
490.94	1763.30
491.14	1783.78
491.34	1826.79
491.54	2115.55
491.74	2551.77
491.94	2942.93
492.14	3037.14
492.34	2981.84
492.54	2795.48
492.75	2519.00
492.95	2389.98
493.15	2389.98
493.35	2287.58
493.55	2179.04
493.75	2142.18
493.95	2090.98
494.15	2019.30
494.35	1972.19
494.56	1863.65
494.76	1771.49
494.96	1861.60
495.16	1767.40
495.36	1712.10
495.56	1736.68
495.76	1708.01
495.96	1761.25
496.16	1615.85
496.36	1877.99
496.56	1697.77
496.77	1769.44
496.97	1746.92
497.17	1791.97
497.37	1652.71
497.57	1679.33
497.77	1701.86
497.97	1660.90
498.17	1777.64
498.37	1712.10
498.57	1691.62
498.77	1675.24
498.97	1744.87
499.17	1849.32
499.38	1708.01
499.58	1767.40
499.78	1834.98
499.98	1853.41
500.18	1697.77
500.38	1724.39
500.58	1910.75
500.78	2557.91
500.98	4390.84
501.18	5787.56
501.38	6602.65
501.58	6950.81
501.78	6516.64
501.98	5562.28
502.18	4935.60
502.38	4224.96
502.58	4022.21
502.78	3741.64
502.98	3540.94
503.18	3436.49
503.38	3155.92
503.59	2869.20
503.79	2574.30
503.99	2463.71
504.19	2228.19
504.39	2226.14
504.59	2189.28
504.79	2123.74
504.99	2035.68
505.19	1904.61
505.39	1845.22
505.59	1984.48
505.79	1914.85
505.99	1800.16
506.19	1794.02
506.39	1888.23
506.59	1748.97
506.79	1822.69
506.99	1767.40
507.19	1769.44
507.39	1736.68
507.59	1687.53
507.79	1779.68
507.99	1761.25
508.19	1716.20
508.39	1740.77
508.59	1732.58
508.79	1841.12
508.99	1841.12
509.19	1665.00
509.39	1808.36
509.59	1722.34
509.79	1714.15
509.99	1701.86
510.19	1740.77
510.39	1787.88
510.59	1693.67
510.79	1691.62
510.99	1658.85
511.19	1761.25
511.39	1845.22
511.59	1742.82
511.79	1802.21
511.99	1767.40
512.19	1798.12
512.38	1726.44
512.58	1718.25
512.78	1671.14
512.98	1781.73
513.18	1832.93
513.38	1650.66
513.58	1812.45
513.78	1650.66
513.98	1769.44
514.18	1677.29
514.38	1691.62
514.58	1722.34
514.78	1755.11
514.98	1705.96
515.18	1748.97
515.38	1751.01
515.58	1853.41
515.78	1728.49
515.98	1769.44
516.18	1787.88
516.38	1814.50
516.57	1748.97
516.77	1763.30
516.97	1759.21
517.17	1718.25
517.37	1675.24
517.57	1837.03
517.77	1710.05
517.97	1703.91
518.17	1837.03
518.37	1681.38
518.57	1679.33
518.77	1701.86
518.97	1783.78
519.16	1787.88
519.36	1736.68
519.56	1802.21
519.76	1728.49
519.96	1736.68
520.16	1828.84
520.36	1642.47
520.56	1769.44
520.76	1708.01
520.96	1806.31
521.16	1757.16
521.35	1789.92
521.55	1849.32
521.75	1755.11
521.95	1724.39
522.15	1705.96
522.35	1630.18
522.55	1601.51
522.75	1744.87
522.95	1652.71
523.14	1693.67
523.34	1787.88
523.54	1769.44
523.74	1744.87
523.94	1681.38
524.14	1626.09
524.34	1798.12
524.54	1806.31
524.73	1728.49
524.93	1818.60
525.13	1804.26
525.33	1734.63
525.53	1796.07
525.73	1775.59
525.93	1771.49
526.13	1773.54
526.32	1771.49
526.52	1806.31
526.72	1828.84
526.92	1796.07
527.12	1744.87
527.32	1617.90
527.52	1740.77
527.71	1804.26
527.91	1716.20
528.11	1665.00
528.31	1710.05
528.51	1667.05
528.71	1761.25
528.90	1691.62
529.10	1814.50
529.30	1828.84
529.50	1638.38
529.70	1640.42
529.90	1740.77
530.09	1730.53
530.29	1744.87
530.49	1628.14
530.69	1886.18
530.89	1740.77
531.09	1751.01
531.28	1761.25
531.48	1853.41
531.68	1769.44
531.88	1798.12
532.08	1759.21
532.28	1724.39
532.47	1746.92
532.67	1820.64
532.87	1771.49
533.07	1740.77
533.27	1822.69
533.46	1734.63
533.66	1759.21
533.86	1769.44
534.06	1740.77
534.26	1746.92
534.45	1755.11
534.65	1771.49
534.85	1746.92
535.05	1699.81
535.25	1722.34
535.44	1636.33
535.64	1845.22
535.84	1726.44
536.04	1705.96
536.24	1771.49
536.43	1746.92
536.63	1763.30
536.83	1685.48
537.03	1732.58
537.22	1681.38
537.42	1621.99
537.62	1748.97
537.82	1710.05
538.02	1822.69
538.21	1861.60
538.41	1867.75
538.61	1777.64
538.81	1695.72
539.00	1837.03
539.20	1628.14
539.40	1726.44
539.60	1802.21
539.79	1824.74
539.99	1759.21
540.19	1714.15
540.39	1742.82
540.58	1785.83
540.78	1742.82
540.98	1763.30
541.18	1812.45
541.37	1822.69
541.57	1785.83
541.77	1822.69
541.97	1755.11
542.16	1687.53
542.36	1708.01
542.56	1765.35
542.76	1832.93
542.95	1718.25
543.15	1761.25
543.35	1796.07
543.54	1693.67
543.74	1660.90
543.94	1861.60
544.14	1728.49
544.33	1765.35
544.53	1691.62
544.73	1744.87
544.93	1779.68
545.12	1816.55
545.32	1765.35
545.52	1755.11
545.71	1671.14
545.91	1767.40
546.11	1722.34
546.30	1734.63
546.50	1728.49
546.70	1683.43
546.90	1753.06
547.09	1685.48
547.29	1736.68
547.49	1769.44
547.68	1796.07
547.88	1642.47
548.08	1722.34
548.27	2170.85
548.47	1667.05
548.67	1691.62
548.87	1740.77
549.06	1753.06
549.26	1779.68
549.46	1746.92
549.65	1775.59
549.85	1804.26
550.05	1765.35
550.24	1656.81
550.44	1693.67
550.64	1738.73
550.83	1802.21
551.03	1824.74
551.23	1761.25
551.42	1742.82
551.62	1730.53
551.82	1744.87
552.01	1724.39
552.21	1820.64
552.41	1800.16
552.60	1798.12
552.80	1806.31
553.00	1685.48
553.19	1732.58
553.39	1773.54
553.59	1767.40
553.78	1785.83
553.98	1724.39
554.17	1640.42
554.37	1681.38
554.57	1714.15
554.76	1640.42
554.96	1710.05
555.16	1759.21
555.35	1837.03
555.55	1787.88
555.75	1744.87
555.94	1800.16
556.14	1720.29
556.33	1798.12
556.53	1759.21
556.73	1781.73
556.92	1824.74
557.12	1787.88
557.32	1851.36
557.51	1849.32
557.71	1814.50
557.90	1861.60
558.10	1843.17
558.30	1695.72
558.49	1701.86
558.69	1828.84
558.88	1726.44
559.08	1689.57
559.28	1638.38
559.47	1822.69
559.67	1808.36
559.86	1923.04
560.06	1744.87
560.26	1710.05
560.45	1718.25
560.65	1773.54
560.84	1800.16
561.04	1701.86
561.24	1767.40
561.43	1662.95
561.63	1837.03
561.82	1753.06
562.02	1775.59
562.22	1724.39
562.41	1697.77
562.61	1716.20
562.80	1730.53
563.00	1941.47
563.19	1771.49
563.39	1742.82
563.59	1783.78
563.78	1662.95
563.98	1638.38
564.17	1789.92
564.37	1679.33
564.56	1796.07
564.76	1746.92
564.96	1884.13
565.15	1720.29
565.35	1861.60
565.54	1734.63
565.74	1746.92
565.93	1822.69
566.13	1730.53
566.32	1853.41
566.52	1798.12
566.71	1771.49
566.91	1808.36
567.11	1740.77
567.30	1703.91
567.50	1771.49
567.69	1773.54
567.89	1796.07
568.08	1669.09
568.28	1808.36
568.47	1660.90
568.67	1734.63
568.86	1685.48
569.06	1814.50
569.25	1773.54
569.45	1763.30
569.64	1771.49
569.84	1705.96
570.04	1722.34
570.23	1791.97
570.43	1755.11
570.62	1722.34
570.82	1865.70
571.01	1714.15
571.21	1656.81
571.40	1693.67
571.60	1843.17
571.79	1785.83
571.99	1804.26
572.18	1712.10
572.38	1748.97
572.57	1726.44
572.77	1783.78
572.96	1900.52
573.16	1742.82
573.35	1765.35
573.55	1841.12
573.74	1834.98
573.94	1789.92
574.13	1773.54
574.33	1828.84
574.52	1880.04
574.71	1779.68
574.91	1710.05
575.10	1669.09
575.30	1765.35
575.49	1683.43
575.69	1757.16
575.88	1705.96
576.08	1703.91
576.27	1765.35
576.47	1746.92
576.66	1894.37
576.86	1826.79
577.05	1755.11
577.25	1808.36
577.44	1863.65
577.64	1730.53
577.83	1826.79
578.02	1667.05
578.22	1798.12
578.41	1820.64
578.61	1716.20
578.80	1701.86
579.00	1755.11
579.19	1798.12
579.39	1771.49
579.58	1857.51
579.77	1757.16
579.97	1873.89
580.16	1853.41
580.36	1732.58
580.55	1845.22
580.75	1730.53
580.94	1816.55
581.13	1937.38
581.33	1761.25
581.52	1783.78
581.72	1818.60
581.91	1851.36
582.11	1855.46
582.30	1765.35
582.49	1804.26
582.69	1880.04
582.88	1847.27
583.08	1804.26
583.27	1732.58
583.47	1773.54
583.66	1746.92
583.85	1683.43
584.05	1734.63
584.24	1710.05
584.44	1837.03
584.63	1789.92
584.82	1908.71
585.02	1804.26
585.21	1820.64
585.41	1845.22
585.60	1746.92
585.79	1920.99
585.99	1916.90
586.18	1890.28
586.37	2265.05
586.57	3422.16
586.76	9879.40
586.96	23850.64
587.15	33752.57
587.34	39112.11
587.54	41020.81
587.73	35663.33
587.93	25409.15
588.12	20874.95
588.31	17592.05
588.51	15836.94
588.70	14864.16
588.89	13805.36
589.09	12203.85
589.28	10655.58
589.47	9035.64
589.67	7561.10
589.86	6270.88
590.06	4853.69
590.25	3903.43
590.44	3012.56
590.64	2539.48
590.83	2226.14
591.02	2113.50
591.22	1988.58
591.41	1880.04
591.60	1871.84
591.80	1914.85
591.99	1771.49
592.18	1882.08
592.38	1810.40
592.57	1800.16
592.76	1851.36
592.96	1802.21
593.15	1746.92
593.34	1746.92
593.54	1789.92
593.73	1765.35
593.92	1742.82
594.12	1794.02
594.31	1802.21
594.50	1849.32
594.70	1808.36
594.89	1908.71
595.08	1722.34
595.28	1751.01
595.47	1929.19
595.66	1779.68
595.86	1759.21
596.05	1697.77
596.24	1730.53
596.43	1861.60
596.63	1759.21
596.82	1775.59
597.01	1734.63
597.21	1888.23
597.40	1796.07
597.59	1830.88
597.79	1726.44
597.98	1855.46
598.17	1720.29
598.36	1751.01
598.56	1822.69
598.75	1728.49
598.94	1906.66
599.14	1673.19
599.33	1714.15
599.52	1753.06
599.71	1726.44
599.91	1701.86
600.10	1865.70
600.29	1773.54
600.48	1796.07
600.68	1828.84
600.87	1757.16
601.06	1656.81
601.26	1751.01
601.45	1738.73
601.64	1796.07
601.83	1810.40
602.03	1818.60
602.22	1658.85
602.41	1804.26
602.60	1863.65
602.80	1736.68
602.99	1724.39
603.18	1705.96
603.37	1847.27
603.57	1769.44
603.76	1728.49
603.95	1775.59
604.14	1763.30
604.34	1660.90
604.53	1759.21
604.72	1755.11
604.91	1785.83
605.10	1740.77
605.30	1652.71
605.49	1828.84
605.68	1806.31
605.87	1738.73
606.07	1746.92
606.26	1794.02
606.45	1830.88
606.64	1888.23
606.84	1671.14
607.03	1681.38
607.22	1822.69
607.41	1636.33
607.60	1677.29
607.80	1779.68
607.99	1748.97
608.18	1753.06
608.37	1710.05
608.56	1767.40
608.76	1785.83
608.95	1816.55
609.14	1738.73
609.33	1726.44
609.52	1787.88
609.72	1804.26
609.91	1837.03
610.10	1703.91
610.29	1851.36
610.48	1814.50
610.68	1689.57
610.87	1716.20
611.06	1855.46
611.25	1691.62
611.44	1816.55
611.63	1808.36
611.83	1861.60
612.02	1708.01
612.21	1728.49
612.40	1660.90
612.59	1691.62
612.79	1708.01
612.98	1845.22
613.17	1914.85
613.36	1621.99
613.55	1763.30
613.74	1744.87
613.93	1705.96
614.13	1681.38
614.32	1746.92
614.51	1802.21
614.70	1746.92
614.89	1691.62
615.08	1789.92
615.28	2123.74
615.47	1701.86
615.66	1746.92
615.85	1757.16
616.04	1851.36
616.23	1646.57
616.42	1712.10
616.62	1734.63
616.81	1767.40
617.00	1734.63
617.19	1812.45
617.38	1656.81
617.57	1791.97
617.76	1802.21
617.95	1773.54
618.15	1781.73
618.34	1843.17
618.53	1646.57
618.72	1853.41
618.91	1826.79
619.10	1863.65
619.29	1783.78
619.48	1761.25
619.68	1697.77
619.87	1695.72
620.06	1642.47
620.25	1751.01
620.44	1679.33
620.63	1681.38
620.82	1730.53
621.01	1771.49
621.20	1724.39
621.39	1755.11
621.59	1736.68
621.78	1806.31
621.97	1748.97
622.16	1814.50
622.35	1652.71
622.54	1757.16
622.73	1796.07
622.92	1642.47
623.11	1802.21
623.30	1755.11
623.49	1779.68
623.68	1695.72
623.88	1832.93
624.07	1740.77
624.26	1714.15
624.45	1804.26
624.64	1679.33
624.83	1691.62
625.02	1693.67
625.21	1718.25
625.40	1720.29
625.59	1736.68
625.78	1740.77
625.97	1816.55
626.16	1765.35
626.35	1834.98
626.54	1742.82
626.74	1873.89
626.93	1703.91
627.12	1748.97
627.31	1769.44
627.50	1742.82
627.69	1699.81
627.88	1730.53
628.07	1683.43
628.26	1693.67
628.45	1753.06
628.64	1708.01
628.83	1753.06
629.02	1599.46
629.21	1798.12
629.40	1824.74
629.59	1714.15
629.78	1681.38
629.97	1699.81
630.16	1783.78
630.35	1677.29
630.54	1751.01
630.73	1656.81
630.92	1687.53
631.11	1748.97
631.30	1771.49
631.49	1712.10
631.68	1773.54
631.87	1755.11
632.06	1714.15
632.25	1855.46
632.44	1751.01
632.63	1740.77
632.82	1701.86
633.01	1687.53
633.20	1716.20
633.39	1693.67
633.58	1697.77
633.77	1828.84
633.96	1800.16
634.15	1796.07
634.34	1730.53
634.53	1816.55
634.72	1607.66
634.91	1689.57
635.10	1753.06
635.29	1824.74
635.48	1718.25
635.67	1710.05
635.86	1681.38
636.05	1816.55
636.24	1783.78
636.43	1765.35
636.62	1722.34
636.81	1570.79
637.00	1798.12
637.19	1775.59
637.38	1755.11
637.57	1652.71
637.76	1691.62
637.95	1693.67
638.14	1632.23
638.33	1687.53
638.52	1732.58
638.71	1656.81
638.89	1607.66
639.08	1845.22
639.27	1734.63
639.46	1720.29
639.65	1769.44
639.84	1687.53
640.03	1757.16
640.22	1722.34
640.41	1830.88
640.60	1632.23
640.79	1689.57
640.98	1710.05
641.17	1783.78
641.36	1693.67
641.55	1736.68
641.74	1624.04
641.92	1665.00
642.11	1638.38
642.30	1718.25
642.49	1654.76
642.68	1679.33
642.87	1732.58
643.06	1677.29
643.25	1695.72
643.44	1634.28
643.63	1679.33
643.82	1800.16
644.00	1607.66
644.19	1759.21
644.38	1634.28
644.57	1720.29
644.76	1714.15
644.95	1718.25
645.14	1718.25
645.33	1642.47
645.52	1742.82
645.71	1746.92
645.89	1675.24
646.08	1681.38
646.27	1701.86
646.46	1800.16
646.65	1640.42
646.84	1791.97
647.03	1642.47
647.22	1769.44
647.40	1712.10
647.59	1787.88
647.78	1679.33
647.97	1763.30
648.16	1636.33
648.35	1773.54
648.54	1796.07
648.73	1662.95
648.91	1800.16
649.10	1689.57
649.29	1652.71
649.48	1769.44
649.67	1716.20
649.86	1658.85
650.05	1679.33
650.23	1828.84
650.42	1685.48
650.61	1781.73
650.80	1740.77
650.99	1882.08
651.18	1738.73
651.36	1787.88
651.55	1736.68
651.74	1701.86
651.93	1722.34
652.12	1677.29
652.31	1712.10
652.49	1701.86
652.68	1671.14
652.87	1789.92
653.06	1710.05
653.25	1787.88
653.44	1701.86
653.62	1757.16
653.81	1740.77
654.00	1730.53
654.19	1804.26
654.38	1843.17
654.56	1783.78
654.75	1742.82
654.94	1699.81
655.13	1718.25
655.32	1714.15
655.51	1789.92
655.69	1646.57
655.88	1828.84
656.07	1710.05
656.26	1751.01
656.45	1701.86
656.63	1720.29
656.82	1798.12
657.01	1812.45
657.20	1712.10
657.38	1845.22
657.57	1716.20
657.76	1574.89
657.95	1775.59
658.14	1755.11
658.32	1732.58
658.51	1613.80
658.70	1816.55
658.89	1775.59
659.08	1769.44
659.26	1949.67
659.45	1630.18
659.64	1828.84
659.83	1742.82
660.01	1929.19
660.20	1771.49
660.39	1755.11
660.58	1679.33
660.76	1667.05
660.95	1695.72
661.14	1642.47
661.33	1650.66
661.51	1683.43
661.70	1697.77
661.89	1771.49
662.08	1687.53
662.26	1718.25
662.45	1771.49
662.64	1843.17
662.83	1783.78
663.01	1705.96
663.20	1722.34
663.39	1818.60
663.58	1683.43
663.76	1738.73
663.95	1740.77
664.14	1685.48
664.32	1712.10
664.51	1722.34
664.70	1650.66
664.89	1705.96
665.07	1683.43
665.26	1785.83
665.45	1638.38
665.64	1761.25
665.82	1755.11
666.01	1681.38
666.20	1738.73
666.38	1763.30
666.57	1873.89
666.76	2209.76
666.95	4429.76
667.13	10284.90
667.32	15058.71
667.51	17524.47
667.69	18392.81
667.88	17209.08
668.07	11806.54
668.25	9400.18
668.44	7923.59
668.63	7092.12
668.81	6688.67
669.00	6158.24
669.19	5556.14
669.38	5015.48
669.56	4446.14
669.75	3964.87
669.94	3291.09
670.12	2754.52
670.31	2521.05
670.50	2256.86
670.68	2101.22
670.87	1871.84
671.06	1773.54
671.24	1732.58
671.43	1863.65
671.62	1681.38
671.80	1755.11
671.99	1716.20
672.18	1732.58
672.36	1800.16
672.55	1765.35
672.74	1759.21
672.92	1701.86
673.11	1787.88
673.29	1679.33
673.48	1796.07
673.67	1677.29
673.85	1810.40
674.04	1744.87
674.23	1697.77
674.41	1812.45
674.60	1689.57
674.79	1605.61
674.97	1697.77
675.16	1806.31
675.34	1777.64
675.53	1728.49
675.72	1708.01
675.90	1855.46
676.09	1734.63
676.28	1703.91
676.46	1722.34
676.65	1798.12
676.83	1636.33
677.02	1732.58
677.21	1695.72
677.39	1748.97
677.58	1665.00
677.77	1724.39
677.95	1683.43
678.14	1734.63
678.32	1722.34
678.51	1695.72
678.70	1814.50
678.88	1744.87
679.07	1712.10
679.25	1687.53
679.44	1740.77
679.63	1646.57
679.81	1640.42
680.00	1849.32
680.18	1730.53
680.37	1839.08
680.55	1691.62
680.74	1644.52
680.93	1632.23
681.11	1738.73
681.30	1710.05
681.48	1695.72
681.67	1638.38
681.85	1742.82
682.04	1683.43
682.23	1816.55
682.41	1736.68
682.60	1687.53
682.78	1726.44
682.97	1601.51
683.15	1697.77
683.34	1791.97
683.53	1755.11
683.71	1665.00
683.90	1787.88
684.08	1826.79
684.27	1718.25
684.45	1808.36
684.64	1796.07
684.82	1724.39
685.01	1714.15
685.19	1669.09
685.38	1843.17
685.57	1767.40
685.75	1708.01
685.94	1732.58
686.12	1732.58
686.31	1652.71
686.49	1832.93
686.68	1615.85
686.86	1685.48
687.05	1650.66
687.23	1841.12
687.42	1710.05
687.60	1597.42
687.79	1759.21
687.97	1822.69
688.16	1728.49
688.34	1765.35
688.53	1656.81
688.71	1736.68
688.90	1851.36
689.08	1796.07
689.27	1669.09
689.45	1742.82
689.64	1783.78
689.82	1685.48
690.01	1697.77
690.19	1722.34
690.38	1767.40
690.56	1824.74
690.75	1714.15
690.93	1748.97
691.12	1648.61
691.30	1714.15
691.49	1722.34
691.67	1746.92
691.86	1826.79
692.04	1703.91
692.23	1654.76
692.41	1714.15
692.60	1832.93
692.78	1732.58
692.97	1714.15
693.15	1650.66
693.34	1806.31
693.52	1755.11
693.71	1742.82
693.89	1738.73
694.08	1648.61
694.26	1757.16
694.44	1755.11
694.63	1763.30
694.81	1630.18
695.00	1673.19
695.18	1816.55
695.37	1853.41
695.55	1820.64
695.74	1656.81
695.92	1654.76
696.10	1767.40
696.29	1642.47
696.47	1634.28
696.66	1619.94
696.84	1646.57
697.03	1714.15
697.21	1937.38
697.40	2277.34
697.58	1791.97
697.76	1724.39
697.95	1591.27
698.13	1599.46
698.32	1697.77
698.50	1771.49
698.68	1705.96
698.87	1730.53
699.05	1826.79
699.24	1662.95
699.42	1689.57
699.61	1789.92
699.79	1726.44
699.97	1771.49
700.16	1660.90
700.34	1634.28
700.53	1767.40
700.71	1828.84
700.89	1802.21
701.08	1708.01
701.26	1697.77
701.45	2136.03
701.63	1583.08
701.81	1650.66
702.00	1665.00
702.18	1769.44
702.37	1665.00
702.55	1800.16
702.73	1730.53
702.92	1554.41
703.10	1779.68
703.28	1751.01
703.47	1669.09
703.65	1765.35
703.84	1828.84
704.02	1673.19
704.20	1775.59
704.39	1669.09
704.57	1695.72
704.75	1689.57
704.94	1820.64
705.12	1712.10
705.30	1730.53
705.49	2283.49
705.67	4358.08
705.86	9383.79
706.04	12224.33
706.22	14186.28
706.41	15046.43
706.59	13522.74
706.77	9193.33
706.96	7124.88
707.14	6508.44
707.32	5900.20
707.51	5396.40
707.69	4681.66
707.87	4091.84
708.06	3512.27
708.24	2955.22
708.42	2394.08
708.61	2273.25
708.79	1939.43
708.97	1828.84
709.16	1849.32
709.34	1824.74
709.52	1779.68
709.71	1644.52
709.89	1794.02
710.07	1669.09
710.26	1681.38
710.44	1708.01
710.62	1783.78
710.80	1730.53
710.99	1812.45
711.17	1800.16
711.35	1728.49
711.54	1644.52
711.72	1810.40
711.90	1787.88
712.09	1712.10
712.27	1669.09
712.45	1820.64
712.63	1703.91
712.82	1693.67
713.00	1724.39
713.18	1714.15
713.37	1744.87
713.55	1771.49
713.73	1802.21
713.91	1828.84
714.10	1683.43
714.28	1701.86
714.46	1730.53
714.65	1730.53
714.83	1755.11
715.01	1667.05
715.19	1804.26
715.38	1701.86
715.56	1771.49
715.74	1708.01
715.92	1650.66
716.11	1789.92
716.29	1587.18
716.47	1654.76
716.65	1673.19
716.84	1611.75
717.02	1800.16
717.20	1636.33
717.38	1667.05
717.57	1732.58
717.75	1734.63
717.93	1708.01
718.11	1769.44
718.30	1648.61
718.48	1769.44
718.66	1783.78
718.84	1724.39
719.03	1669.09
719.21	1652.71
719.39	1787.88
719.57	1863.65
719.75	1808.36
719.94	1630.18
720.12	1703.91
720.30	1693.67
720.48	1718.25
720.67	1687.53
720.85	1716.20
721.03	1759.21
721.21	1640.42
721.39	1763.30
721.58	1732.58
721.76	1742.82
721.94	1740.77
722.12	1697.77
722.30	1740.77
722.49	1695.72
722.67	1789.92
722.85	1710.05
723.03	1681.38
723.21	1615.85
723.40	1800.16
723.58	1857.51
723.76	1775.59
723.94	1693.67
724.12	1757.16
724.30	1765.35
724.49	1791.97
724.67	1669.09
724.85	1808.36
725.03	1656.81
725.21	1724.39
725.40	1748.97
725.58	1683.43
725.76	1687.53
725.94	1742.82
726.12	1652.71
726.30	1738.73
726.49	1667.05
726.67	1685.48
726.85	1800.16
727.03	1761.25
727.21	2217.95
727.39	2983.89
727.57	3760.07
727.76	4196.29
727.94	4231.10
728.12	4327.36
728.30	3657.67
728.48	2942.93
728.66	2727.89
728.84	2572.25
729.03	2273.25
729.21	2103.26
729.39	1955.81
729.57	1892.32
729.75	1804.26
729.93	1894.37
730.11	1712.10
730.30	1718.25
730.48	1642.47
730.66	1804.26
730.84	1689.57
731.02	1765.35
731.20	1697.77
731.38	1699.81
731.56	1691.62
731.74	1656.81
731.93	1685.48
732.11	1757.16
732.29	1652.71
732.47	1783.78
732.65	1742.82
732.83	1755.11
733.01	1800.16
733.19	1716.20
733.37	1708.01
733.56	1804.26
733.74	1732.58
733.92	1851.36
734.10	1769.44
734.28	1669.09
734.46	1554.41
734.64	1794.02
734.82	1603.56
735.00	1695.72
735.18	1667.05
735.36	1679.33
735.54	1675.24
735.73	1705.96
735.91	1693.67
736.09	1718.25
736.27	1648.61
736.45	1812.45
736.63	1628.14
736.81	1652.71
736.99	1773.54
737.17	1785.83
737.35	1675.24
737.53	1691.62
737.71	1662.95
737.89	1800.16
738.07	1703.91
738.25	1654.76
738.43	1607.66
738.61	1734.63
738.80	1708.01
738.98	1617.90
739.16	1669.09
739.34	1687.53
739.52	1804.26
739.70	1681.38
739.88	1808.36
740.06	1777.64
740.24	1626.09
740.42	1693.67
740.60	1591.27
740.78	1708.01
740.96	1671.14
741.14	1691.62
741.32	1720.29
741.50	1683.43
741.68	1873.89
741.86	1736.68
742.04	1646.57
742.22	1632.23
742.40	1697.77
742.58	1800.16
742.76	1728.49
742.94	1746.92
743.12	1650.66
743.30	1759.21
743.48	1697.77
743.66	1689.57
743.84	1781.73
744.02	1703.91
744.20	1718.25
744.38	1673.19
744.56	1710.05
744.74	1816.55
744.92	1763.30
745.10	1759.21
745.28	1742.82
745.46	1777.64
745.64	1701.86
745.82	1738.73
746.00	1746.92
746.18	1730.53
746.36	1656.81
746.54	1687.53
746.72	1656.81
746.90	1724.39
747.08	1804.26
747.26	1632.23
747.44	1789.92
747.62	1697.77
747.80	1722.34
747.98	1775.59
748.15	1677.29
748.33	1753.06
748.51	1718.25
748.69	1787.88
748.87	1646.57
749.05	1701.86
749.23	1703.91
749.41	1773.54
749.59	1751.01
749.77	1703.91
749.95	1667.05
750.13	1646.57
750.31	1726.44
750.49	1685.48
750.67	1769.44
750.85	1779.68
751.03	1665.00
751.20	1867.75
751.38	1800.16
751.56	1736.68
751.74	1708.01
751.92	1650.66
752.10	1626.09
752.28	1794.02
752.46	1669.09
752.64	1669.09
752.82	1732.58
753.00	1685.48
753.18	1595.37
753.35	1632.23
753.53	1718.25
753.71	1705.96
753.89	1779.68
754.07	1685.48
754.25	1746.92
754.43	1701.86
754.61	1609.70
754.79	1751.01
754.97	1691.62
755.14	1787.88
755.32	1562.60
755.50	1619.94
755.68	1724.39
755.86	1695.72
756.04	1705.96
756.22	1583.08
756.40	1681.38
756.57	1841.12
756.75	1697.77
756.93	1789.92
757.11	1738.73
757.29	1685.48
757.47	1708.01
757.65	1648.61
757.82	1617.90
758.00	1683.43
758.18	1662.95
758.36	1716.20
758.54	1808.36
758.72	1615.85
758.90	1787.88
759.07	1742.82
759.25	1744.87
759.43	1675.24
759.61	1685.48
759.79	2209.76
759.97	1771.49
760.15	1665.00
760.32	1689.57
760.50	1734.63
760.68	1777.64
760.86	1531.88
761.04	1824.74
761.22	1767.40
761.39	1748.97
761.57	1726.44
761.75	1691.62
761.93	1691.62
762.11	1669.09
762.28	1705.96
762.46	1662.95
762.64	1781.73
762.82	1665.00
763.00	1658.85
763.18	1822.69
763.35	1656.81
763.53	1689.57
763.71	1718.25
763.89	1710.05
764.07	1685.48
764.24	1667.05
764.42	1808.36
764.60	1726.44
764.78	1671.14
764.96	1794.02
765.13	1730.53
765.31	1722.34
765.49	1781.73
765.67	1697.77
765.84	1669.09
766.02	1660.90
766.20	1599.46
766.38	1685.48
766.56	1789.92
766.73	1728.49
766.91	1705.96
767.09	1710.05
767.27	1722.34
767.44	1673.19
767.62	1804.26
767.80	1771.49
767.98	1699.81
768.15	1755.11
768.33	1767.40
768.51	1734.63
768.69	1802.21
768.87	1671.14
769.04	1652.71
769.22	1886.18
769.40	1816.55
769.58	1826.79
769.75	1732.58
769.93	1875.94
770.11	1703.91
770.28	1636.33
770.46	1710.05
770.64	1718.25
770.82	1669.09
770.99	1685.48
771.17	1763.30
771.35	1695.72
771.53	1714.15
771.70	1722.34
771.88	1814.50
772.06	1701.86
772.23	1746.92
772.41	1755.11
772.59	1730.53
772.77	1615.85
772.94	1685.48
773.12	1755.11
773.30	1705.96
773.47	1667.05
773.65	1646.57
773.83	1746.92
774.01	1697.77
774.18	1599.46
774.36	1716.20
774.54	1626.09
774.71	1716.20
774.89	1550.31
775.07	1671.14
775.24	1642.47
775.42	1656.81
775.60	1800.16
775.78	1648.61
775.95	1699.81
776.13	1640.42
776.31	1613.80
776.48	1636.33
776.66	1744.87
776.84	1656.81
777.01	1710.05
777.19	1572.84
777.37	1652.71
777.54	1710.05
777.72	1734.63
777.90	1728.49
778.07	1667.05
778.25	1888.23
778.43	1769.44
778.60	1679.33
778.78	1757.16
778.96	1673.19
779.13	1681.38
779.31	1755.11
779.49	1791.97
779.66	1730.53
779.84	1736.68
780.01	1722.34
780.19	1689.57
780.37	1832.93
780.54	1814.50
780.72	1667.05
780.90	1771.49
781.07	1728.49
781.25	1708.01
781.43	1742.82
781.60	1755.11
781.78	1832.93
781.95	1712.10
782.13	1716.20
782.31	1748.97
782.48	1560.55
782.66	1710.05
782.83	1865.70
783.01	1673.19
783.19	1777.64
783.36	1650.66
783.54	1724.39
783.72	1755.11
783.89	1738.73
784.07	1714.15
784.24	1697.77
784.42	1761.25
784.60	1777.64
784.77	1746.92
784.95	1585.13
785.12	1648.61
785.30	1722.34
785.47	1626.09
785.65	1652.71
785.83	1708.01
786.00	1691.62
786.18	1695.72
786.35	1689.57
786.53	1673.19
786.71	1669.09
786.88	1701.86
787.06	1789.92
787.23	1703.91
787.41	1669.09
787.58	1689.57
787.76	1624.04
787.94	1755.11
788.11	1683.43
788.29	1650.66
788.46	1677.29
788.64	1640.42
788.81	1742.82
788.99	1660.90
789.16	1632.23
789.34	1722.34
789.52	1638.38
789.69	1720.29
789.87	1619.94
790.04	1652.71
790.22	1685.48
790.39	1763.30
790.57	1628.14
790.74	1574.89
790.92	1722.34
791.09	1673.19
791.27	1714.15
791.44	1785.83
791.62	1697.77
791.79	1751.01
791.97	1656.81
792.15	1812.45
792.32	1779.68
792.50	1730.53
792.67	1789.92
792.85	1771.49
793.02	1615.85
793.20	1740.77
793.37	1671.14
793.55	1755.11
793.72	1701.86
793.90	1828.84
794.07	1652.71
794.25	1650.66
794.42	1671.14
794.60	1685.48
794.77	1736.68
794.95	1753.06
795.12	1769.44
795.30	1632.23
795.47	1589.22
795.65	1865.70
795.82	1689.57
796.00	1650.66
796.17	1718.25
796.34	1656.81
796.52	1759.21
796.69	1812.45
796.87	1755.11
797.04	1773.54
797.22	1763.30
797.39	1708.01
797.57	1728.49
797.74	1665.00
797.92	1724.39
798.09	1667.05
798.27	1777.64
798.44	1837.03
798.62	1667.05
798.79	1652.71
798.96	1763.30
799.14	1724.39
799.31	1884.13
799.49	1654.76
799.66	1626.09
799.84	1779.68
800.01	1636.33
800.19	1632.23
800.36	1574.89
800.53	1740.77
800.71	1734.63
800.88	1804.26
801.06	1699.81
801.23	1683.43
801.41	1734.63
801.58	1685.48
801.75	1636.33
801.93	1734.63
802.10	1736.68
802.28	1628.14
802.45	1691.62
802.63	1708.01
802.80	1830.88
802.97	1679.33
803.15	1738.73
803.32	1660.90
803.50	1697.77
803.67	1724.39
803.84	1705.96
804.02	1742.82
804.19	1640.42
804.37	1652.71
804.54	1675.24
804.71	1771.49
804.89	1789.92
805.06	1679.33
805.24	1648.61
805.41	1640.42
805.58	1621.99
805.76	1794.02
805.93	1613.80
806.10	1837.03
806.28	1738.73
806.45	1675.24
806.63	1834.98
806.80	1722.34
806.97	1755.11
807.15	1695.72
807.32	1728.49
807.49	1714.15
807.67	1644.52
807.84	1691.62
808.01	1609.70
808.19	1808.36
808.36	1839.08
808.54	1669.09
808.71	1626.09
808.88	1763.30
809.06	1763.30
809.23	1802.21
809.40	1650.66
809.58	1765.35
809.75	1611.75
809.92	1683.43
810.10	1841.12
810.27	1662.95
810.44	1724.39
810.62	1761.25
810.79	1720.29
810.96	1679.33
811.14	1689.57
811.31	1738.73
811.48	1675.24
811.66	1769.44
811.83	1736.68
812.00	1626.09
812.18	1755.11
812.35	1853.41
812.52	1742.82
812.69	1683.43
812.87	1689.57
813.04	1667.05
813.21	1771.49
813.39	1658.85
813.56	1605.61
813.73	1818.60
813.91	1669.09
814.08	1804.26
814.25	1654.76
814.42	1638.38
814.60	1718.25
814.77	1708.01
814.94	1591.27
815.12	1753.06
815.29	1781.73
815.46	1667.05
815.63	1708.01
815.81	1728.49
815.98	1671.14
816.15	1681.38
816.33	1728.49
816.50	1669.09
816.67	1662.95
816.84	1708.01
817.02	1669.09
817.19	1646.57
817.36	1691.62
817.53	1751.01
817.71	1748.97
817.88	1800.16
818.05	1791.97
818.22	1648.61
818.40	1777.64
818.57	1656.81
818.74	1714.15
818.91	1650.66
819.09	1769.44
819.26	1748.97
819.43	1681.38
819.60	1636.33
819.78	1703.91
819.95	1812.45
820.12	1705.96
820.29	1732.58
820.47	1798.12
820.64	1771.49
820.81	1712.10
820.98	1669.09
821.15	1746.92
821.33	1773.54
821.50	1613.80
821.67	1767.40
821.84	1736.68
822.02	1818.60
822.19	1773.54
822.36	1665.00
822.53	1658.85
822.70	1621.99
822.88	1658.85
823.05	1814.50
823.22	1744.87
823.39	1718.25
823.56	1751.01
823.74	1820.64
823.91	1728.49
824.08	1677.29
824.25	1562.60
824.42	1787.88
824.60	1660.90
824.77	1714.15
824.94	1724.39
825.11	1695.72
825.28	1656.81
825.45	1767.40
825.63	1753.06
825.80	1679.33
825.97	1712.10
826.14	1748.97
826.31	1705.96
826.48	1734.63
826.66	1599.46
826.83	1697.77
827.00	1730.53
827.17	1755.11
827.34	1617.90
827.51	1632.23
827.69	1675.24
827.86	1667.05
828.03	1693.67
828.20	1751.01
828.37	1753.06
828.54	1796.07
828.71	1728.49
828.89	1843.17
829.06	1701.86
829.23	1794.02
829.40	1738.73
829.57	1662.95
829.74	1734.63
829.91	1662.95
830.09	1724.39
830.26	1736.68
830.43	1832.93
830.60	1718.25
830.77	1712.10
830.94	1757.16
831.11	1785.83
831.28	1640.42
831.46	1818.60
831.63	1746.92
831.80	1791.97
831.97	1703.91
832.14	1656.81
832.31	1746.92
832.48	1681.38
832.65	1779.68
832.82	1652.71
832.99	1828.84
833.17	1675.24
833.34	1720.29
833.51	1734.63
833.68	1587.18
833.85	1732.58
834.02	1603.56
834.19	1665.00
834.36	1648.61
834.53	1718.25
834.70	1718.25
834.87	1677.29
835.04	1732.58
835.22	1607.66
835.39	1740.77
835.56	1585.13
835.73	1705.96
835.90	1755.11
836.07	1574.89
836.24	1759.21
836.41	1656.81
836.58	1656.81
836.75	1742.82
836.92	1648.61
837.09	1593.32
837.26	1740.77
837.43	1728.49
837.60	1785.83
837.77	1712.10
837.94	1802.21
838.12	1783.78
838.29	1675.24
838.46	1669.09
838.63	1611.75
838.80	1757.16
838.97	1777.64
839.14	1662.95
839.31	1746.92
839.48	1714.15
839.65	1714.15
839.82	1779.68
839.99	1642.47
840.16	1759.21
840.33	1644.52
840.50	1703.91
840.67	1769.44
840.84	1574.89
841.01	1708.01
841.18	1644.52
841.35	1699.81
841.52	1789.92
841.69	1808.36
841.86	1693.67
842.03	1701.86
842.20	1789.92
842.37	1656.81
842.54	1738.73
842.71	1687.53
842.88	1613.80
843.05	1779.68
843.22	1640.42
843.39	1640.42
843.56	1628.14
843.73	1665.00
843.90	1765.35
844.07	1730.53
844.24	1857.51
844.41	1812.45
844.58	1742.82
844.75	1742.82
844.92	1693.67
845.09	1716.20
845.26	1677.29
845.43	1763.30
845.60	1726.44
845.77	1810.40
845.94	1671.14
846.10	1806.31
846.27	1603.56
846.44	1644.52
846.61	1708.01
846.78	1818.60
846.95	1763.30
847.12	1701.86
847.29	1767.40
847.46	1644.52
847.63	1767.40
847.80	1699.81
847.97	1675.24
848.14	1771.49
848.31	1736.68
848.48	1654.76
848.65	1671.14
848.82	1673.19
848.98	1785.83
849.15	1718.25
849.32	1812.45
849.49	1687.53
849.66	1722.34
849.83	1701.86
850.00	1648.61
850.17	1681.38
850.34	1712.10
850.51	1685.48
850.68	1640.42
850.85	1759.21
851.01	1683.43
851.18	1742.82
851.35	1656.81
851.52	1689.57
851.69	1806.31
851.86	1630.18
852.03	1742.82
852.20	1693.67
852.37	1738.73
852.53	1603.56
852.70	1748.97
852.87	1718.25
853.04	1683.43
853.21	1740.77
853.38	1724.39
853.55	1775.59
853.72	1757.16
853.89	1624.04
854.05	1705.96
854.22	1763.30
854.39	1685.48
854.56	1748.97
854.73	1693.67
854.90	1650.66
855.07	1730.53
855.23	1710.05
855.40	1671.14
855.57	1691.62
855.74	1607.66
855.91	1908.71
856.08	1679.33
856.25	1564.65
856.41	1798.12
856.58	1705.96
856.75	1746.92
856.92	1697.77
857.09	1804.26
857.26	1615.85
857.42	1695.72
857.59	1779.68
857.76	1665.00
857.93	1730.53
858.10	1724.39
858.27	1695.72
858.43	1697.77
858.60	1693.67
858.77	1656.81
858.94	1728.49
859.11	1798.12
859.27	1669.09
859.44	1654.76
859.61	1812.45
859.78	1728.49
859.95	1662.95
860.12	1742.82
860.28	1789.92
860.45	1755.11
860.62	1646.57
860.79	1757.16
860.95	1722.34
861.12	1669.09
861.29	1728.49
861.46	1656.81
861.63	1679.33
861.79	1742.82
861.96	1660.90
862.13	1703.91
862.30	1818.60
862.47	1628.14
862.63	1689.57
862.80	1722.34
862.97	1732.58
863.14	1796.07
863.30	1652.71
863.47	1601.51
863.64	1845.22
863.81	1705.96
863.97	1648.61
864.14	1689.57
864.31	1673.19
864.48	1677.29
864.65	1589.22
864.81	1746.92
864.98	1755.11
865.15	1783.78
865.32	1771.49
865.48	1783.78
865.65	1773.54
865.82	1662.95
865.98	1695.72
866.15	1736.68
866.32	1675.24
866.49	1636.33
866.65	1728.49
866.82	1699.81
866.99	1705.96
867.16	1701.86
867.32	1681.38
867.49	1734.63
867.66	1726.44
867.83	1722.34
867.99	1619.94
868.16	1720.29
868.33	1626.09
868.49	1716.20
868.66	1783.78
868.83	1802.21
868.99	1708.01
869.16	1626.09
869.33	1714.15
869.50	1748.97
869.66	1734.63
869.83	1703.91
870.00	1624.04
870.16	1779.68
870.33	1789.92
870.50	1785.83
870.66	1769.44
870.83	1791.97
871.00	1724.39
871.17	1732.58
871.33	1787.88
871.50	1703.91
871.67	1693.67
871.83	1662.95
872.00	1814.50
872.17	1636.33
872.33	1757.16
872.50	1683.43
872.67	1697.77
872.83	1675.24
873.00	1771.49
873.17	1658.85
873.33	1708.01
873.50	1794.02
873.67	1640.42
873.83	1662.95
874.00	1738.73
874.16	1789.92
874.33	1734.63
874.50	1708.01
874.66	1718.25
874.83	1665.00
875.00	1693.67
875.16	1755.11
875.33	1783.78
875.50	1667.05
875.66	1617.90
875.83	1787.88
875.99	1773.54
876.16	1675.24
876.33	1681.38
876.49	1691.62
876.66	1751.01
876.83	1730.53
876.99	1583.08
877.16	1716.20
877.32	1665.00
877.49	1660.90
877.66	1748.97
877.82	1798.12
877.99	1712.10
878.15	1722.34
878.32	1738.73
878.49	1742.82
878.65	1689.57
878.82	1791.97
878.98	1736.68
879.15	1783.78
879.32	1675.24
879.48	1798.12
879.65	1679.33
879.81	1667.05
879.98	1703.91
880.15	1699.81
880.31	1695.72
880.48	1665.00
880.64	1789.92
880.81	1644.52
880.97	1732.58
881.14	1656.81
881.31	1669.09
881.47	1822.69
881.64	1716.20
881.80	1626.09
881.97	1714.15
882.13	1742.82
882.30	1613.80
882.47	1697.77
882.63	1691.62
882.80	1720.29
882.96	1685.48
883.13	1740.77
883.29	1742.82
883.46	1724.39
883.62	1779.68
883.79	1708.01
883.95	1773.54
884.12	1726.44
884.29	1822.69
884.45	1677.29
884.62	1693.67
884.78	1660.90
884.95	1804.26
885.11	1636.33
885.28	1695.72
885.44	1669.09
885.61	1712.10
885.77	1742.82
885.94	1771.49
886.10	1734.63
886.27	1746.92
886.43	1804.26
886.60	1806.31
886.76	1705.96
886.93	1605.61
887.09	1708.01
887.26	1660.90
887.42	1609.70
887.59	1771.49
887.75	1828.84
887.92	1802.21
888.08	1751.01
888.25	1828.84
888.41	1740.77
888.58	1716.20
888.74	1585.13
888.91	1720.29
>>>>>End Processed Spectral Data<<<<<
