SpectraSuite Data File
++++++++++++++++++++++++++++++++++++
Date: Mon Jun 06 15:23:37 CEST 2016
User: root
Dark Spectrum Present: No
Reference Spectrum Present: No
Number of Sampled Component Spectra: 1
Spectrometers: USB4C02835
Integration Time (usec): 100000 (USB4C02835)
Spectra Averaged: 1 (USB4C02835)
Boxcar Smoothing: 0 (USB4C02835)
Correct for Electrical Dark: No (USB4C02835)
Strobe/Lamp Enabled: No (USB4C02835)
Correct for Detector Non-linearity: No (USB4C02835)
Correct for Stray Light: No (USB4C02835)
Number of Pixels in Processed Spectrum: 3648
>>>>>Begin Processed Spectral Data<<<<<
177.47	1501.16
177.69	1501.16
177.91	1501.16
178.13	1458.15
178.36	1507.30
178.58	1613.80
178.80	1708.01
179.02	1642.47
179.24	1681.38
179.46	1677.29
179.68	1763.30
179.90	1716.20
180.13	1644.52
180.35	1697.77
180.57	1691.62
180.79	1662.95
181.01	1716.20
181.23	1765.35
181.45	1730.53
181.67	1679.33
181.90	1779.68
182.12	1636.33
182.34	1626.09
182.56	1718.25
182.78	1808.36
183.00	1716.20
183.22	1755.11
183.44	1617.90
183.66	1853.41
183.89	1822.69
184.11	1796.07
184.33	1777.64
184.55	1695.72
184.77	1843.17
184.99	1724.39
185.21	1617.90
185.43	1826.79
185.65	1710.05
185.87	1691.62
186.10	1867.75
186.32	1820.64
186.54	1687.53
186.76	1830.88
186.98	1744.87
187.20	1730.53
187.42	1730.53
187.64	1720.29
187.86	1679.33
188.08	1722.34
188.30	1744.87
188.52	1757.16
188.75	1736.68
188.97	1837.03
189.19	1701.86
189.41	1675.24
189.63	1667.05
189.85	1619.94
190.07	1669.09
190.29	1665.00
190.51	1712.10
190.73	1646.57
190.95	1779.68
191.17	1763.30
191.39	1611.75
191.61	1689.57
191.84	1640.42
192.06	1789.92
192.28	1617.90
192.50	1916.90
192.72	1708.01
192.94	1701.86
193.16	1808.36
193.38	1746.92
193.60	1675.24
193.82	1644.52
194.04	1769.44
194.26	1679.33
194.48	1710.05
194.70	1640.42
194.92	1648.61
195.14	1724.39
195.36	1726.44
195.58	1814.50
195.80	1701.86
196.02	1753.06
196.24	1689.57
196.46	1683.43
196.69	1703.91
196.91	1826.79
197.13	1673.19
197.35	1656.81
197.57	1851.36
197.79	1716.20
198.01	1736.68
198.23	1765.35
198.45	1759.21
198.67	1607.66
198.89	1695.72
199.11	1804.26
199.33	1691.62
199.55	1609.70
199.77	1791.97
199.99	1863.65
200.21	1712.10
200.43	1751.01
200.65	1677.29
200.87	1574.89
201.09	1699.81
201.31	1757.16
201.53	1761.25
201.75	1808.36
201.97	1789.92
202.19	1654.76
202.41	1738.73
202.63	1873.89
202.85	1736.68
203.07	1740.77
203.29	1712.10
203.51	1671.14
203.73	1667.05
203.95	1849.32
204.17	1738.73
204.39	1826.79
204.61	1675.24
204.83	1642.47
205.05	1771.49
205.27	1767.40
205.49	1863.65
205.71	1697.77
205.93	1644.52
206.15	1615.85
206.37	1734.63
206.59	1703.91
206.81	1703.91
207.03	1601.51
207.25	1665.00
207.47	1796.07
207.69	1716.20
207.91	1845.22
208.13	1767.40
208.34	1691.62
208.56	1669.09
208.78	1673.19
209.00	1714.15
209.22	1654.76
209.44	1722.34
209.66	1708.01
209.88	1767.40
210.10	1685.48
210.32	1687.53
210.54	1736.68
210.76	1755.11
210.98	1824.74
211.20	1669.09
211.42	1763.30
211.64	1791.97
211.86	1708.01
212.08	1808.36
212.30	1708.01
212.52	1720.29
212.74	1701.86
212.96	1734.63
213.17	1818.60
213.39	1798.12
213.61	1820.64
213.83	1773.54
214.05	1669.09
214.27	1818.60
214.49	1636.33
214.71	1712.10
214.93	1802.21
215.15	1683.43
215.37	1685.48
215.59	1660.90
215.81	1681.38
216.03	1742.82
216.24	1685.48
216.46	1689.57
216.68	1708.01
216.90	1753.06
217.12	1726.44
217.34	1777.64
217.56	1724.39
217.78	1783.78
218.00	1753.06
218.22	1757.16
218.44	1691.62
218.66	1736.68
218.87	1806.31
219.09	1671.14
219.31	1738.73
219.53	1724.39
219.75	1652.71
219.97	1677.29
220.19	1728.49
220.41	1685.48
220.63	1839.08
220.85	1685.48
221.06	1699.81
221.28	1767.40
221.50	1687.53
221.72	1701.86
221.94	1787.88
222.16	1718.25
222.38	1787.88
222.60	1742.82
222.82	1748.97
223.03	1820.64
223.25	1685.48
223.47	1777.64
223.69	1789.92
223.91	1656.81
224.13	1667.05
224.35	1617.90
224.57	1796.07
224.78	1794.02
225.00	1679.33
225.22	1724.39
225.44	1783.78
225.66	1757.16
225.88	1681.38
226.10	1769.44
226.32	1738.73
226.53	1806.31
226.75	1748.97
226.97	1679.33
227.19	1652.71
227.41	1656.81
227.63	1687.53
227.85	1673.19
228.06	1714.15
228.28	1710.05
228.50	1765.35
228.72	1671.14
228.94	1654.76
229.16	1607.66
229.37	1683.43
229.59	1689.57
229.81	1771.49
230.03	1662.95
230.25	1665.00
230.47	1710.05
230.69	1726.44
230.90	1720.29
231.12	1605.61
231.34	1685.48
231.56	1800.16
231.78	1621.99
232.00	1703.91
232.21	1695.72
232.43	1730.53
232.65	1544.17
232.87	1783.78
233.09	1689.57
233.30	1677.29
233.52	1785.83
233.74	1712.10
233.96	1691.62
234.18	1718.25
234.40	1695.72
234.61	1830.88
234.83	1615.85
235.05	1656.81
235.27	1849.32
235.49	1839.08
235.70	1679.33
235.92	1808.36
236.14	1746.92
236.36	1822.69
236.58	1636.33
236.79	1609.70
237.01	1650.66
237.23	1783.78
237.45	1841.12
237.67	1648.61
237.88	1671.14
238.10	1761.25
238.32	1617.90
238.54	1763.30
238.76	1624.04
238.97	1636.33
239.19	1593.32
239.41	1732.58
239.63	1742.82
239.85	1652.71
240.06	1699.81
240.28	1689.57
240.50	1832.93
240.72	1636.33
240.93	1730.53
241.15	1779.68
241.37	1697.77
241.59	1804.26
241.81	1683.43
242.02	1714.15
242.24	1736.68
242.46	1685.48
242.68	1705.96
242.89	1738.73
243.11	1757.16
243.33	1673.19
243.55	1665.00
243.76	1751.01
243.98	1642.47
244.20	1716.20
244.42	1755.11
244.64	1720.29
244.85	1660.90
245.07	1652.71
245.29	1757.16
245.51	1681.38
245.72	1720.29
245.94	1740.77
246.16	1683.43
246.38	1804.26
246.59	1685.48
246.81	1642.47
247.03	1751.01
247.24	1607.66
247.46	1648.61
247.68	1724.39
247.90	1634.28
248.11	1662.95
248.33	1753.06
248.55	1742.82
248.77	1742.82
248.98	1734.63
249.20	1804.26
249.42	1710.05
249.64	1732.58
249.85	1732.58
250.07	1689.57
250.29	1675.24
250.50	1757.16
250.72	1667.05
250.94	1732.58
251.16	1873.89
251.37	1777.64
251.59	1720.29
251.81	1685.48
252.02	1822.69
252.24	1665.00
252.46	1845.22
252.68	1722.34
252.89	1730.53
253.11	1566.70
253.33	1820.64
253.54	1816.55
253.76	1558.50
253.98	1683.43
254.20	1681.38
254.41	1632.23
254.63	1720.29
254.85	1701.86
255.06	1710.05
255.28	1802.21
255.50	1740.77
255.71	1679.33
255.93	1562.60
256.15	1669.09
256.36	1767.40
256.58	1665.00
256.80	1798.12
257.02	1658.85
257.23	1687.53
257.45	1746.92
257.67	1720.29
257.88	1691.62
258.10	1822.69
258.32	1673.19
258.53	1712.10
258.75	1843.17
258.97	1714.15
259.18	1677.29
259.40	1689.57
259.62	1839.08
259.83	1779.68
260.05	1767.40
260.27	1939.43
260.48	1761.25
260.70	1726.44
260.92	1736.68
261.13	1763.30
261.35	1722.34
261.57	1748.97
261.78	1720.29
262.00	1705.96
262.22	1787.88
262.43	1654.76
262.65	1654.76
262.86	1712.10
263.08	1826.79
263.30	1648.61
263.51	1589.22
263.73	1658.85
263.95	1791.97
264.16	1685.48
264.38	1714.15
264.60	1751.01
264.81	1671.14
265.03	1884.13
265.25	1734.63
265.46	1673.19
265.68	1771.49
265.89	1753.06
266.11	1636.33
266.33	1746.92
266.54	1748.97
266.76	1722.34
266.98	1888.23
267.19	1722.34
267.41	1734.63
267.62	1701.86
267.84	1673.19
268.06	1804.26
268.27	1691.62
268.49	1740.77
268.70	1773.54
268.92	1687.53
269.14	1722.34
269.35	1581.03
269.57	1755.11
269.79	1726.44
270.00	1726.44
270.22	1787.88
270.43	1710.05
270.65	1566.70
270.87	1693.67
271.08	1748.97
271.30	1693.67
271.51	1660.90
271.73	1701.86
271.95	1783.78
272.16	1746.92
272.38	1699.81
272.59	1669.09
272.81	1732.58
273.02	1732.58
273.24	1714.15
273.46	1796.07
273.67	1662.95
273.89	1693.67
274.10	1630.18
274.32	1789.92
274.54	1681.38
274.75	1718.25
274.97	1671.14
275.18	1763.30
275.40	1730.53
275.61	1673.19
275.83	1675.24
276.05	1718.25
276.26	1667.05
276.48	1738.73
276.69	1613.80
276.91	1583.08
277.12	1714.15
277.34	1771.49
277.55	1771.49
277.77	1755.11
277.99	1716.20
278.20	1607.66
278.42	1665.00
278.63	1640.42
278.85	1673.19
279.06	1607.66
279.28	1798.12
279.49	1736.68
279.71	1736.68
279.93	1671.14
280.14	1695.72
280.36	1691.62
280.57	1806.31
280.79	1757.16
281.00	1685.48
281.22	1667.05
281.43	1763.30
281.65	1597.42
281.86	1607.66
282.08	1718.25
282.29	1820.64
282.51	1730.53
282.73	1607.66
282.94	1607.66
283.16	1781.73
283.37	1787.88
283.59	1732.58
283.80	1771.49
284.02	1722.34
284.23	1759.21
284.45	1679.33
284.66	1654.76
284.88	1771.49
285.09	1753.06
285.31	1775.59
285.52	1720.29
285.74	1644.52
285.95	1703.91
286.17	1691.62
286.38	1845.22
286.60	1689.57
286.81	1665.00
287.03	1658.85
287.24	1726.44
287.46	1791.97
287.67	1689.57
287.89	1806.31
288.10	1718.25
288.32	1734.63
288.53	1740.77
288.75	1689.57
288.96	1765.35
289.18	1656.81
289.39	1734.63
289.61	1783.78
289.82	1824.74
290.04	1779.68
290.25	1638.38
290.47	1615.85
290.68	1722.34
290.90	1806.31
291.11	1665.00
291.33	1640.42
291.54	1658.85
291.76	1693.67
291.97	1673.19
292.18	1705.96
292.40	1658.85
292.61	1669.09
292.83	1808.36
293.04	1660.90
293.26	1701.86
293.47	1646.57
293.69	1652.71
293.90	1671.14
294.12	1826.79
294.33	1705.96
294.55	1683.43
294.76	1744.87
294.97	1785.83
295.19	1892.32
295.40	1638.38
295.62	1722.34
295.83	1742.82
296.05	1615.85
296.26	1703.91
296.48	1673.19
296.69	1660.90
296.90	1708.01
297.12	1665.00
297.33	1886.18
297.55	1710.05
297.76	1730.53
297.98	1734.63
298.19	1662.95
298.41	1673.19
298.62	1644.52
298.83	1757.16
299.05	1757.16
299.26	1636.33
299.48	1689.57
299.69	1785.83
299.90	1767.40
300.12	1640.42
300.33	1746.92
300.55	1796.07
300.76	1746.92
300.98	1609.70
301.19	1746.92
301.40	1658.85
301.62	1677.29
301.83	1859.56
302.05	1712.10
302.26	1662.95
302.47	1738.73
302.69	1642.47
302.90	1716.20
303.12	1662.95
303.33	1787.88
303.54	1857.51
303.76	1710.05
303.97	1642.47
304.19	1763.30
304.40	1640.42
304.61	1720.29
304.83	1802.21
305.04	1708.01
305.26	1703.91
305.47	1703.91
305.68	1734.63
305.90	1677.29
306.11	1730.53
306.33	1732.58
306.54	1730.53
306.75	1687.53
306.97	1560.55
307.18	1746.92
307.39	1673.19
307.61	1828.84
307.82	1681.38
308.04	1697.77
308.25	1662.95
308.46	1693.67
308.68	1714.15
308.89	1722.34
309.10	1652.71
309.32	1751.01
309.53	1667.05
309.74	1716.20
309.96	1710.05
310.17	1802.21
310.39	1642.47
310.60	1761.25
310.81	1753.06
311.03	1638.38
311.24	1761.25
311.45	1685.48
311.67	1894.37
311.88	1724.39
312.09	1716.20
312.31	1665.00
312.52	1691.62
312.73	1673.19
312.95	1654.76
313.16	1677.29
313.37	1902.56
313.59	1759.21
313.80	1773.54
314.01	1701.86
314.23	1726.44
314.44	1697.77
314.65	1570.79
314.87	1722.34
315.08	1710.05
315.29	1767.40
315.51	1652.71
315.72	1599.46
315.93	1798.12
316.15	1761.25
316.36	1734.63
316.57	1726.44
316.79	1765.35
317.00	1710.05
317.21	1718.25
317.43	1753.06
317.64	1748.97
317.85	1673.19
318.07	1724.39
318.28	1853.41
318.49	1810.40
318.70	1869.80
318.92	1734.63
319.13	1824.74
319.34	1812.45
319.56	1800.16
319.77	1773.54
319.98	1810.40
320.20	1789.92
320.41	1748.97
320.62	1693.67
320.83	1681.38
321.05	1884.13
321.26	1800.16
321.47	1714.15
321.69	1804.26
321.90	1634.28
322.11	1685.48
322.32	1746.92
322.54	1837.03
322.75	1718.25
322.96	1841.12
323.18	1712.10
323.39	1654.76
323.60	1683.43
323.81	1810.40
324.03	1726.44
324.24	1691.62
324.45	1669.09
324.66	1677.29
324.88	1773.54
325.09	1746.92
325.30	1718.25
325.52	1722.34
325.73	1742.82
325.94	1667.05
326.15	1732.58
326.37	1718.25
326.58	1767.40
326.79	1798.12
327.00	1699.81
327.22	1691.62
327.43	1697.77
327.64	1646.57
327.85	1740.77
328.07	1710.05
328.28	1734.63
328.49	1705.96
328.70	1675.24
328.92	1669.09
329.13	1648.61
329.34	1677.29
329.55	1802.21
329.76	1714.15
329.98	1730.53
330.19	1779.68
330.40	1722.34
330.61	1722.34
330.83	1701.86
331.04	1716.20
331.25	1683.43
331.46	1759.21
331.68	1609.70
331.89	1775.59
332.10	1783.78
332.31	1665.00
332.52	1730.53
332.74	1757.16
332.95	1722.34
333.16	1781.73
333.37	1783.78
333.58	1648.61
333.80	1712.10
334.01	1626.09
334.22	1738.73
334.43	1681.38
334.64	1695.72
334.86	1656.81
335.07	1636.33
335.28	1820.64
335.49	1603.56
335.70	1722.34
335.92	1718.25
336.13	1906.66
336.34	1781.73
336.55	1689.57
336.76	1753.06
336.98	1548.26
337.19	1697.77
337.40	1773.54
337.61	1794.02
337.82	1679.33
338.04	1804.26
338.25	1632.23
338.46	1617.90
338.67	1720.29
338.88	1636.33
339.09	1585.13
339.31	1691.62
339.52	1611.75
339.73	1720.29
339.94	1693.67
340.15	1822.69
340.36	1691.62
340.58	1769.44
340.79	1669.09
341.00	1726.44
341.21	1677.29
341.42	1802.21
341.63	1671.14
341.85	1791.97
342.06	1695.72
342.27	1697.77
342.48	1710.05
342.69	1624.04
342.90	1763.30
343.12	1703.91
343.33	1646.57
343.54	1763.30
343.75	1746.92
343.96	1693.67
344.17	1665.00
344.38	1744.87
344.60	1609.70
344.81	1656.81
345.02	1724.39
345.23	1820.64
345.44	1845.22
345.65	1751.01
345.86	1691.62
346.07	1693.67
346.29	1626.09
346.50	1765.35
346.71	1757.16
346.92	1771.49
347.13	1796.07
347.34	1683.43
347.55	1636.33
347.76	1734.63
347.98	1703.91
348.19	1685.48
348.40	1732.58
348.61	1718.25
348.82	1849.32
349.03	1724.39
349.24	1677.29
349.45	1845.22
349.66	1652.71
349.88	1697.77
350.09	1656.81
350.30	1734.63
350.51	1769.44
350.72	1763.30
350.93	1705.96
351.14	1656.81
351.35	1714.15
351.56	1710.05
351.77	1740.77
351.99	1699.81
352.20	1796.07
352.41	1800.16
352.62	1533.93
352.83	1691.62
353.04	1605.61
353.25	1640.42
353.46	1746.92
353.67	1751.01
353.88	1652.71
354.09	1746.92
354.30	1722.34
354.52	1806.31
354.73	1699.81
354.94	1695.72
355.15	1699.81
355.36	1845.22
355.57	1716.20
355.78	1773.54
355.99	1712.10
356.20	1656.81
356.41	1771.49
356.62	1742.82
356.83	1744.87
357.04	1814.50
357.25	1642.47
357.46	1683.43
357.68	1738.73
357.89	1710.05
358.10	1732.58
358.31	1701.86
358.52	1699.81
358.73	1650.66
358.94	1673.19
359.15	1691.62
359.36	1763.30
359.57	1730.53
359.78	1665.00
359.99	1775.59
360.20	1724.39
360.41	1617.90
360.62	1753.06
360.83	1736.68
361.04	1771.49
361.25	1683.43
361.46	1826.79
361.67	1732.58
361.88	1755.11
362.09	1824.74
362.30	1789.92
362.51	1742.82
362.72	1685.48
362.93	1865.70
363.14	1710.05
363.35	1779.68
363.56	1695.72
363.78	1767.40
363.99	1791.97
364.20	1705.96
364.41	1742.82
364.62	1888.23
364.83	1732.58
365.04	1769.44
365.25	1675.24
365.46	1828.84
365.67	1701.86
365.88	1673.19
366.09	1683.43
366.30	1736.68
366.51	1746.92
366.72	1701.86
366.93	1753.06
367.14	1716.20
367.35	1763.30
367.56	1701.86
367.77	1759.21
367.98	1726.44
368.18	1648.61
368.39	1722.34
368.60	1671.14
368.81	1722.34
369.02	1691.62
369.23	1705.96
369.44	1669.09
369.65	1652.71
369.86	1785.83
370.07	1701.86
370.28	1617.90
370.49	1710.05
370.70	1736.68
370.91	1705.96
371.12	1626.09
371.33	1783.78
371.54	1755.11
371.75	1783.78
371.96	1617.90
372.17	1740.77
372.38	1716.20
372.59	1806.31
372.80	1644.52
373.01	1763.30
373.22	1751.01
373.43	1683.43
373.64	1646.57
373.85	1828.84
374.06	1800.16
374.26	1806.31
374.47	1839.08
374.68	1775.59
374.89	1726.44
375.10	1685.48
375.31	1732.58
375.52	1751.01
375.73	1718.25
375.94	1693.67
376.15	1775.59
376.36	1697.77
376.57	1662.95
376.78	1705.96
376.99	1722.34
377.20	1824.74
377.40	1662.95
377.61	1857.51
377.82	1595.37
378.03	1759.21
378.24	1656.81
378.45	1703.91
378.66	1769.44
378.87	1683.43
379.08	1630.18
379.29	1714.15
379.50	1787.88
379.71	1685.48
379.91	1742.82
380.12	1650.66
380.33	1689.57
380.54	1665.00
380.75	1714.15
380.96	1728.49
381.17	1748.97
381.38	1800.16
381.59	1714.15
381.80	1763.30
382.00	1802.21
382.21	1757.16
382.42	1851.36
382.63	1843.17
382.84	1806.31
383.05	1798.12
383.26	1822.69
383.47	1691.62
383.68	1669.09
383.88	1705.96
384.09	1785.83
384.30	1847.27
384.51	1732.58
384.72	1681.38
384.93	1701.86
385.14	1738.73
385.35	1794.02
385.55	1677.29
385.76	1787.88
385.97	1699.81
386.18	1609.70
386.39	1638.38
386.60	1722.34
386.81	1771.49
387.02	1732.58
387.22	1697.77
387.43	1777.64
387.64	1810.40
387.85	1916.90
388.06	2101.22
388.27	4130.75
388.48	6483.87
388.68	7960.45
388.89	9297.78
389.10	9445.23
389.31	8130.44
389.52	7430.03
389.73	6463.39
389.93	6094.76
390.14	5654.44
390.35	5021.62
390.56	4550.59
390.77	3743.69
390.98	2920.40
391.18	2527.19
391.39	2054.11
391.60	1806.31
391.81	1818.60
392.02	1753.06
392.23	1855.46
392.43	1726.44
392.64	1888.23
392.85	1683.43
393.06	1869.80
393.27	1748.97
393.47	1728.49
393.68	1771.49
393.89	1710.05
394.10	1734.63
394.31	1708.01
394.52	1611.75
394.72	1685.48
394.93	1826.79
395.14	1587.18
395.35	1787.88
395.56	1722.34
395.76	1771.49
395.97	1800.16
396.18	1845.22
396.39	1849.32
396.60	2029.54
396.80	1910.75
397.01	1781.73
397.22	1855.46
397.43	1841.12
397.64	1744.87
397.84	1751.01
398.05	1832.93
398.26	1759.21
398.47	1810.40
398.67	1839.08
398.88	1734.63
399.09	1742.82
399.30	1712.10
399.51	1765.35
399.71	1728.49
399.92	1687.53
400.13	1710.05
400.34	1648.61
400.54	1685.48
400.75	1785.83
400.96	1759.21
401.17	1771.49
401.37	1808.36
401.58	1720.29
401.79	1728.49
402.00	1935.33
402.21	1974.24
402.41	1912.80
402.62	1984.48
402.83	1955.81
403.04	2021.35
403.24	2109.41
403.45	1843.17
403.66	1920.99
403.87	1839.08
404.07	1939.43
404.28	1966.05
404.49	1787.88
404.70	1728.49
404.90	1695.72
405.11	1767.40
405.32	1820.64
405.52	1669.09
405.73	1769.44
405.94	1669.09
406.15	1738.73
406.35	1683.43
406.56	1728.49
406.77	1779.68
406.98	1798.12
407.18	1640.42
407.39	1837.03
407.60	1648.61
407.80	1748.97
408.01	1677.29
408.22	1761.25
408.43	1703.91
408.63	1708.01
408.84	1697.77
409.05	1800.16
409.25	1687.53
409.46	1628.14
409.67	1738.73
409.88	1646.57
410.08	1708.01
410.29	1740.77
410.50	1757.16
410.70	1761.25
410.91	1669.09
411.12	1726.44
411.32	1675.24
411.53	1720.29
411.74	1763.30
411.95	1808.36
412.15	1722.34
412.36	1748.97
412.57	1728.49
412.77	1877.99
412.98	1751.01
413.19	1744.87
413.39	1771.49
413.60	1828.84
413.81	1748.97
414.01	1656.81
414.22	1748.97
414.43	1732.58
414.63	1730.53
414.84	1841.12
415.05	1769.44
415.25	1628.14
415.46	1699.81
415.67	1650.66
415.87	1785.83
416.08	1697.77
416.29	1683.43
416.49	1718.25
416.70	1714.15
416.91	1738.73
417.11	1705.96
417.32	1765.35
417.53	1765.35
417.73	1710.05
417.94	1652.71
418.15	1767.40
418.35	1710.05
418.56	1679.33
418.77	1875.94
418.97	1691.62
419.18	1669.09
419.38	1611.75
419.59	1693.67
419.80	1783.78
420.00	1687.53
420.21	1722.34
420.42	1861.60
420.62	1759.21
420.83	1777.64
421.04	1736.68
421.24	1742.82
421.45	1722.34
421.65	1681.38
421.86	1695.72
422.07	1753.06
422.27	1742.82
422.48	1734.63
422.69	1705.96
422.89	1730.53
423.10	1675.24
423.30	1665.00
423.51	1746.92
423.72	1662.95
423.92	1695.72
424.13	1601.51
424.33	1712.10
424.54	1775.59
424.75	1728.49
424.95	1859.56
425.16	1767.40
425.36	1714.15
425.57	1730.53
425.78	1777.64
425.98	1736.68
426.19	1699.81
426.39	1648.61
426.60	1755.11
426.81	1802.21
427.01	1773.54
427.22	1607.66
427.42	1558.50
427.63	1714.15
427.83	1748.97
428.04	1798.12
428.25	1798.12
428.45	1802.21
428.66	1771.49
428.86	1712.10
429.07	1619.94
429.28	1800.16
429.48	1660.90
429.69	1656.81
429.89	1720.29
430.10	1671.14
430.30	1751.01
430.51	1665.00
430.71	1656.81
430.92	1718.25
431.13	1671.14
431.33	1740.77
431.54	1695.72
431.74	1828.84
431.95	1796.07
432.15	1650.66
432.36	1722.34
432.56	1757.16
432.77	1820.64
432.98	1802.21
433.18	1693.67
433.39	1693.67
433.59	1742.82
433.80	1785.83
434.00	1834.98
434.21	1689.57
434.41	1662.95
434.62	1834.98
434.82	1658.85
435.03	1656.81
435.23	1697.77
435.44	1556.46
435.64	1701.86
435.85	1828.84
436.06	1761.25
436.26	1781.73
436.47	1777.64
436.67	1679.33
436.88	1720.29
437.08	1726.44
437.29	1796.07
437.49	1722.34
437.70	1773.54
437.90	1703.91
438.11	1843.17
438.31	1806.31
438.52	1828.84
438.72	1886.18
438.93	1894.37
439.13	1863.65
439.34	1804.26
439.54	1839.08
439.75	1843.17
439.95	1851.36
440.16	1730.53
440.36	1685.48
440.57	1810.40
440.77	1740.77
440.98	1718.25
441.18	1755.11
441.39	1720.29
441.59	1652.71
441.80	1853.41
442.00	1767.40
442.21	1843.17
442.41	1658.85
442.62	1830.88
442.82	1722.34
443.02	1683.43
443.23	1730.53
443.43	1728.49
443.64	1800.16
443.84	1693.67
444.05	1865.70
444.25	1726.44
444.46	1753.06
444.66	1789.92
444.87	1841.12
445.07	1679.33
445.28	1789.92
445.48	1775.59
445.69	1755.11
445.89	1937.38
446.09	1755.11
446.30	2058.21
446.50	2691.03
446.71	3694.54
446.91	4147.14
447.12	4577.21
447.32	4814.77
447.53	4184.00
447.73	3622.86
447.93	3516.36
448.14	3278.80
448.34	3153.87
448.55	2863.06
448.75	2791.38
448.96	2582.49
449.16	2412.51
449.36	2222.05
449.57	2090.98
449.77	1867.75
449.98	1796.07
450.18	1837.03
450.39	1810.40
450.59	1783.78
450.79	1781.73
451.00	1701.86
451.20	1779.68
451.41	1673.19
451.61	1767.40
451.81	1765.35
452.02	1742.82
452.22	1791.97
452.43	1708.01
452.63	1726.44
452.84	1722.34
453.04	1732.58
453.24	1779.68
453.45	1699.81
453.65	1748.97
453.86	1716.20
454.06	1755.11
454.26	1738.73
454.47	1646.57
454.67	1832.93
454.87	1791.97
455.08	1847.27
455.28	1847.27
455.49	1744.87
455.69	1765.35
455.89	1779.68
456.10	1732.58
456.30	1767.40
456.51	1720.29
456.71	1746.92
456.91	1771.49
457.12	1761.25
457.32	1773.54
457.52	1605.61
457.73	1873.89
457.93	1791.97
458.14	1769.44
458.34	1658.85
458.54	1771.49
458.75	1720.29
458.95	1791.97
459.15	1675.24
459.36	1763.30
459.56	1902.56
459.76	1865.70
459.97	1736.68
460.17	1726.44
460.37	1773.54
460.58	1714.15
460.78	1822.69
460.99	1708.01
461.19	1740.77
461.39	1783.78
461.60	1732.58
461.80	1798.12
462.00	1699.81
462.21	1687.53
462.41	1705.96
462.61	1648.61
462.82	1632.23
463.02	1728.49
463.22	1701.86
463.43	1798.12
463.63	1708.01
463.83	1732.58
464.04	1755.11
464.24	1746.92
464.44	1695.72
464.64	1804.26
464.85	1736.68
465.05	1740.77
465.25	1794.02
465.46	1701.86
465.66	1800.16
465.86	1791.97
466.07	1681.38
466.27	1683.43
466.47	1656.81
466.68	1708.01
466.88	1796.07
467.08	1791.97
467.29	1722.34
467.49	1710.05
467.69	1751.01
467.89	1777.64
468.10	1746.92
468.30	1753.06
468.50	1759.21
468.71	1783.78
468.91	1630.18
469.11	1759.21
469.31	1742.82
469.52	1650.66
469.72	1773.54
469.92	1898.47
470.13	1732.58
470.33	1728.49
470.53	1851.36
470.73	2070.50
470.94	2267.10
471.14	2322.40
471.34	2510.81
471.54	2422.75
471.75	2183.13
471.95	2097.12
472.15	2029.54
472.36	2062.30
472.56	2037.73
472.76	2015.20
472.96	2004.96
473.17	1959.91
473.37	1871.84
473.57	1818.60
473.77	1804.26
473.98	1845.22
474.18	1767.40
474.38	1941.47
474.58	1742.82
474.79	1724.39
474.99	1839.08
475.19	1746.92
475.39	1638.38
475.60	1845.22
475.80	1681.38
476.00	1724.39
476.20	1714.15
476.41	1689.57
476.61	1892.32
476.81	1814.50
477.01	1697.77
477.21	1933.28
477.42	1812.45
477.62	1630.18
477.82	1816.55
478.02	1720.29
478.23	1796.07
478.43	1703.91
478.63	1667.05
478.83	1734.63
479.03	1824.74
479.24	1863.65
479.44	1855.46
479.64	1689.57
479.84	1673.19
480.04	1710.05
480.25	1753.06
480.45	1712.10
480.65	1669.09
480.85	1826.79
481.06	1699.81
481.26	1701.86
481.46	1746.92
481.66	1703.91
481.86	1652.71
482.06	1746.92
482.27	1722.34
482.47	1734.63
482.67	1769.44
482.87	1687.53
483.07	1789.92
483.28	1712.10
483.48	1716.20
483.68	1665.00
483.88	1591.27
484.08	1583.08
484.29	1685.48
484.49	1738.73
484.69	1705.96
484.89	1730.53
485.09	1787.88
485.29	1820.64
485.50	1763.30
485.70	1632.23
485.90	1789.92
486.10	1773.54
486.30	1722.34
486.50	1769.44
486.71	1689.57
486.91	1794.02
487.11	1769.44
487.31	1644.52
487.51	1759.21
487.71	1685.48
487.91	1677.29
488.12	1687.53
488.32	1603.56
488.52	1697.77
488.72	1607.66
488.92	1771.49
489.12	1753.06
489.32	1748.97
489.53	1722.34
489.73	1705.96
489.93	1785.83
490.13	1724.39
490.33	1677.29
490.53	1771.49
490.73	1806.31
490.94	1683.43
491.14	1820.64
491.34	1861.60
491.54	2064.35
491.74	2537.43
491.94	2822.10
492.14	2934.74
492.34	2877.40
492.54	2801.62
492.75	2342.88
492.95	2394.08
493.15	2205.66
493.35	2258.91
493.55	2193.37
493.75	2111.46
493.95	2140.13
494.15	2054.11
494.35	1886.18
494.56	1910.75
494.76	1779.68
494.96	1785.83
495.16	1763.30
495.36	1714.15
495.56	1736.68
495.76	1703.91
495.96	1701.86
496.16	1740.77
496.36	1902.56
496.56	1671.14
496.77	1796.07
496.97	1705.96
497.17	1906.66
497.37	1703.91
497.57	1783.78
497.77	1710.05
497.97	1646.57
498.17	1755.11
498.37	1691.62
498.57	1718.25
498.77	1705.96
498.97	1742.82
499.17	1806.31
499.38	1740.77
499.58	1783.78
499.78	1841.12
499.98	1779.68
500.18	1796.07
500.38	1740.77
500.58	1888.23
500.78	2506.71
500.98	4474.81
501.18	5695.40
501.38	6438.81
501.58	6852.50
501.78	6449.05
501.98	5314.48
502.18	4888.50
502.38	4347.84
502.58	4046.79
502.78	3692.49
502.98	3616.71
503.18	3397.58
503.38	3094.48
503.59	2697.17
503.79	2680.79
503.99	2346.97
504.19	2252.77
504.39	2230.24
504.59	2187.23
504.79	2115.55
504.99	2142.18
505.19	1935.33
505.39	1988.58
505.59	2000.87
505.79	1910.75
505.99	1894.37
506.19	1853.41
506.39	1851.36
506.59	1744.87
506.79	1755.11
506.99	1767.40
507.19	1781.73
507.39	1753.06
507.59	1718.25
507.79	1687.53
507.99	1689.57
508.19	1740.77
508.39	1732.58
508.59	1755.11
508.79	1861.60
508.99	1863.65
509.19	1652.71
509.39	1701.86
509.59	1673.19
509.79	1761.25
509.99	1783.78
510.19	1777.64
510.39	1783.78
510.59	1722.34
510.79	1691.62
510.99	1705.96
511.19	1796.07
511.39	1824.74
511.59	1820.64
511.79	1800.16
511.99	1765.35
512.19	1855.46
512.38	1820.64
512.58	1732.58
512.78	1767.40
512.98	1820.64
513.18	1785.83
513.38	1570.79
513.58	1783.78
513.78	1722.34
513.98	1710.05
514.18	1798.12
514.38	1732.58
514.58	1763.30
514.78	1708.01
514.98	1673.19
515.18	1712.10
515.38	1658.85
515.58	1853.41
515.78	1755.11
515.98	1689.57
516.18	1767.40
516.38	1665.00
516.57	1662.95
516.77	1679.33
516.97	1777.64
517.17	1728.49
517.37	1677.29
517.57	1884.13
517.77	1701.86
517.97	1718.25
518.17	1791.97
518.37	1732.58
518.57	1718.25
518.77	1626.09
518.97	1689.57
519.16	1705.96
519.36	1781.73
519.56	1740.77
519.76	1767.40
519.96	1777.64
520.16	1808.36
520.36	1699.81
520.56	1808.36
520.76	1685.48
520.96	1767.40
521.16	1773.54
521.35	1744.87
521.55	1931.23
521.75	1671.14
521.95	1658.85
522.15	1726.44
522.35	1662.95
522.55	1693.67
522.75	1826.79
522.95	1740.77
523.14	1738.73
523.34	1861.60
523.54	1667.05
523.74	1787.88
523.94	1888.23
524.14	1681.38
524.34	1751.01
524.54	1826.79
524.73	1753.06
524.93	1816.55
525.13	1763.30
525.33	1656.81
525.53	1927.14
525.73	1746.92
525.93	1746.92
526.13	1673.19
526.32	1722.34
526.52	1804.26
526.72	1779.68
526.92	1757.16
527.12	1802.21
527.32	1646.57
527.52	1742.82
527.71	1779.68
527.91	1675.24
528.11	1748.97
528.31	1746.92
528.51	1742.82
528.71	1753.06
528.90	1779.68
529.10	1794.02
529.30	1880.04
529.50	1609.70
529.70	1775.59
529.90	1761.25
530.09	1757.16
530.29	1703.91
530.49	1695.72
530.69	1935.33
530.89	1712.10
531.09	1839.08
531.28	1787.88
531.48	1763.30
531.68	1757.16
531.88	1718.25
532.08	1765.35
532.28	1689.57
532.47	1763.30
532.67	1787.88
532.87	1826.79
533.07	1734.63
533.27	1812.45
533.46	1742.82
533.66	1796.07
533.86	1656.81
534.06	1708.01
534.26	1837.03
534.45	1734.63
534.65	1748.97
534.85	1689.57
535.05	1683.43
535.25	1777.64
535.44	1755.11
535.64	1751.01
535.84	1667.05
536.04	1703.91
536.24	1703.91
536.43	1746.92
536.63	1763.30
536.83	1656.81
537.03	1693.67
537.22	1689.57
537.42	1660.90
537.62	1783.78
537.82	1679.33
538.02	1884.13
538.21	1855.46
538.41	1945.57
538.61	1841.12
538.81	1695.72
539.00	1742.82
539.20	1699.81
539.40	1724.39
539.60	1798.12
539.79	1783.78
539.99	1714.15
540.19	1646.57
540.39	1771.49
540.58	1753.06
540.78	1843.17
540.98	1695.72
541.18	1824.74
541.37	1712.10
541.57	1656.81
541.77	1767.40
541.97	1656.81
542.16	1669.09
542.36	1712.10
542.56	1775.59
542.76	1824.74
542.95	1753.06
543.15	1757.16
543.35	1818.60
543.54	1628.14
543.74	1748.97
543.94	1771.49
544.14	1665.00
544.33	1744.87
544.53	1699.81
544.73	1787.88
544.93	1748.97
545.12	1779.68
545.32	1757.16
545.52	1701.86
545.71	1720.29
545.91	1767.40
546.11	1763.30
546.30	1712.10
546.50	1740.77
546.70	1773.54
546.90	1681.38
547.09	1675.24
547.29	1732.58
547.49	1824.74
547.68	1783.78
547.88	1734.63
548.08	1763.30
548.27	2174.94
548.47	1683.43
548.67	1564.65
548.87	1779.68
549.06	1683.43
549.26	1816.55
549.46	1765.35
549.65	1658.85
549.85	1740.77
550.05	1753.06
550.24	1708.01
550.44	1791.97
550.64	1748.97
550.83	1710.05
551.03	1916.90
551.23	1812.45
551.42	1773.54
551.62	1748.97
551.82	1791.97
552.01	1751.01
552.21	1781.73
552.41	1755.11
552.60	1832.93
552.80	1755.11
553.00	1675.24
553.19	1845.22
553.39	1785.83
553.59	1660.90
553.78	1759.21
553.98	1755.11
554.17	1685.48
554.37	1732.58
554.57	1767.40
554.76	1609.70
554.96	1714.15
555.16	1787.88
555.35	1714.15
555.55	1808.36
555.75	1683.43
555.94	1767.40
556.14	1691.62
556.33	1757.16
556.53	1753.06
556.73	1794.02
556.92	1816.55
557.12	1798.12
557.32	1849.32
557.51	1877.99
557.71	1679.33
557.90	1830.88
558.10	1886.18
558.30	1781.73
558.49	1740.77
558.69	1691.62
558.88	1812.45
559.08	1794.02
559.28	1708.01
559.47	1771.49
559.67	1796.07
559.86	1837.03
560.06	1810.40
560.26	1820.64
560.45	1767.40
560.65	1687.53
560.84	1873.89
561.04	1736.68
561.24	1724.39
561.43	1689.57
561.63	1869.80
561.82	1800.16
562.02	1736.68
562.22	1710.05
562.41	1658.85
562.61	1746.92
562.80	1681.38
563.00	1877.99
563.19	1746.92
563.39	1746.92
563.59	1804.26
563.78	1691.62
563.98	1693.67
564.17	1757.16
564.37	1701.86
564.56	1765.35
564.76	1714.15
564.96	1798.12
565.15	1708.01
565.35	1845.22
565.54	1773.54
565.74	1759.21
565.93	1802.21
566.13	1724.39
566.32	1785.83
566.52	1755.11
566.71	1718.25
566.91	1794.02
567.11	1669.09
567.30	1691.62
567.50	1834.98
567.69	1718.25
567.89	1751.01
568.08	1660.90
568.28	1785.83
568.47	1712.10
568.67	1734.63
568.86	1716.20
569.06	1810.40
569.25	1755.11
569.45	1673.19
569.64	1734.63
569.84	1779.68
570.04	1744.87
570.23	1789.92
570.43	1697.77
570.62	1771.49
570.82	1839.08
571.01	1669.09
571.21	1751.01
571.40	1693.67
571.60	1763.30
571.79	1757.16
571.99	1783.78
572.18	1662.95
572.38	1820.64
572.57	1812.45
572.77	1728.49
572.96	1828.84
573.16	1763.30
573.35	1822.69
573.55	1886.18
573.74	1669.09
573.94	1783.78
574.13	1714.15
574.33	1767.40
574.52	1800.16
574.71	1830.88
574.91	1822.69
575.10	1667.05
575.30	1814.50
575.49	1738.73
575.69	1800.16
575.88	1779.68
576.08	1681.38
576.27	1787.88
576.47	1716.20
576.66	1751.01
576.86	1755.11
577.05	1773.54
577.25	1787.88
577.44	1923.04
577.64	1787.88
577.83	1814.50
578.02	1781.73
578.22	1828.84
578.41	1859.56
578.61	1744.87
578.80	1708.01
579.00	1753.06
579.19	1771.49
579.39	1822.69
579.58	1859.56
579.77	1699.81
579.97	1847.27
580.16	1798.12
580.36	1800.16
580.55	1767.40
580.75	1816.55
580.94	1804.26
581.13	1880.04
581.33	1841.12
581.52	1691.62
581.72	1847.27
581.91	1804.26
582.11	1771.49
582.30	1777.64
582.49	1767.40
582.69	1857.51
582.88	1783.78
583.08	1804.26
583.27	1877.99
583.47	1759.21
583.66	1722.34
583.85	1761.25
584.05	1714.15
584.24	1781.73
584.44	1759.21
584.63	1777.64
584.82	1861.60
585.02	1771.49
585.21	1837.03
585.41	1798.12
585.60	1855.46
585.79	1888.23
585.99	1892.32
586.18	1886.18
586.37	2086.88
586.57	3368.91
586.76	9572.21
586.96	23590.55
587.15	33254.92
587.34	38892.97
587.54	40541.59
587.73	35139.05
587.93	25335.42
588.12	20457.16
588.31	17682.16
588.51	15709.97
588.70	14602.02
588.89	13641.52
589.09	12160.84
589.28	10770.27
589.47	9009.01
589.67	7688.07
589.86	6205.35
590.06	4704.18
590.25	3811.27
590.44	3035.09
590.64	2639.83
590.83	2240.48
591.02	2158.56
591.22	1972.19
591.41	1886.18
591.60	1855.46
591.80	1976.29
591.99	1748.97
592.18	1771.49
592.38	1802.21
592.57	1787.88
592.76	1746.92
592.96	1804.26
593.15	1736.68
593.34	1787.88
593.54	1734.63
593.73	1802.21
593.92	1837.03
594.12	1740.77
594.31	1759.21
594.50	1839.08
594.70	1761.25
594.89	1886.18
595.08	1650.66
595.28	1785.83
595.47	1869.80
595.66	1839.08
595.86	1652.71
596.05	1779.68
596.24	1779.68
596.43	1894.37
596.63	1839.08
596.82	1886.18
597.01	1814.50
597.21	1771.49
597.40	1718.25
597.59	1685.48
597.79	1816.55
597.98	1714.15
598.17	1787.88
598.36	1816.55
598.56	1714.15
598.75	1681.38
598.94	1804.26
599.14	1814.50
599.33	1730.53
599.52	1828.84
599.71	1839.08
599.91	1800.16
600.10	1701.86
600.29	1757.16
600.48	1714.15
600.68	1775.59
600.87	1783.78
601.06	1759.21
601.26	1726.44
601.45	1828.84
601.64	1753.06
601.83	1826.79
602.03	1738.73
602.22	1673.19
602.41	1859.56
602.60	1902.56
602.80	1767.40
602.99	1763.30
603.18	1736.68
603.37	1781.73
603.57	1744.87
603.76	1810.40
603.95	1865.70
604.14	1718.25
604.34	1763.30
604.53	1779.68
604.72	1742.82
604.91	1763.30
605.10	1781.73
605.30	1652.71
605.49	1867.75
605.68	1800.16
605.87	1732.58
606.07	1685.48
606.26	1677.29
606.45	1744.87
606.64	1757.16
606.84	1726.44
607.03	1699.81
607.22	1660.90
607.41	1695.72
607.60	1763.30
607.80	1703.91
607.99	1767.40
608.18	1781.73
608.37	1789.92
608.56	1630.18
608.76	1837.03
608.95	1880.04
609.14	1714.15
609.33	1753.06
609.52	1802.21
609.72	1834.98
609.91	1806.31
610.10	1789.92
610.29	1841.12
610.48	1751.01
610.68	1771.49
610.87	1777.64
611.06	1746.92
611.25	1728.49
611.44	1843.17
611.63	1798.12
611.83	1798.12
612.02	1716.20
612.21	1814.50
612.40	1607.66
612.59	1662.95
612.79	1710.05
612.98	1746.92
613.17	1769.44
613.36	1701.86
613.55	1880.04
613.74	1720.29
613.93	1720.29
614.13	1779.68
614.32	1794.02
614.51	1650.66
614.70	1726.44
614.89	1699.81
615.08	1751.01
615.28	2052.06
615.47	1695.72
615.66	1669.09
615.85	1712.10
616.04	1871.84
616.23	1746.92
616.42	1708.01
616.62	1716.20
616.81	1689.57
617.00	1691.62
617.19	1738.73
617.38	1738.73
617.57	1671.14
617.76	1855.46
617.95	1763.30
618.15	1699.81
618.34	1812.45
618.53	1691.62
618.72	1755.11
618.91	1826.79
619.10	1818.60
619.29	1728.49
619.48	1751.01
619.68	1738.73
619.87	1781.73
620.06	1628.14
620.25	1812.45
620.44	1714.15
620.63	1695.72
620.82	1742.82
621.01	1818.60
621.20	1714.15
621.39	1804.26
621.59	1769.44
621.78	1691.62
621.97	1726.44
622.16	1773.54
622.35	1806.31
622.54	1806.31
622.73	1820.64
622.92	1665.00
623.11	1734.63
623.30	1697.77
623.49	1699.81
623.68	1705.96
623.88	1873.89
624.07	1730.53
624.26	1703.91
624.45	1765.35
624.64	1767.40
624.83	1701.86
625.02	1771.49
625.21	1648.61
625.40	1693.67
625.59	1845.22
625.78	1802.21
625.97	1789.92
626.16	1794.02
626.35	1765.35
626.54	1658.85
626.74	1744.87
626.93	1734.63
627.12	1738.73
627.31	1759.21
627.50	1767.40
627.69	1732.58
627.88	1689.57
628.07	1738.73
628.26	1662.95
628.45	1720.29
628.64	1683.43
628.83	1705.96
629.02	1654.76
629.21	1742.82
629.40	1746.92
629.59	1632.23
629.78	1687.53
629.97	1734.63
630.16	1744.87
630.35	1675.24
630.54	1734.63
630.73	1673.19
630.92	1748.97
631.11	1609.70
631.30	1759.21
631.49	1740.77
631.68	1693.67
631.87	1746.92
632.06	1591.27
632.25	1843.17
632.44	1763.30
632.63	1673.19
632.82	1767.40
633.01	1660.90
633.20	1681.38
633.39	1671.14
633.58	1640.42
633.77	1712.10
633.96	1695.72
634.15	1783.78
634.34	1728.49
634.53	1796.07
634.72	1677.29
634.91	1562.60
635.10	1724.39
635.29	1708.01
635.48	1697.77
635.67	1724.39
635.86	1693.67
636.05	1789.92
636.24	1712.10
636.43	1775.59
636.62	1726.44
636.81	1632.23
637.00	1769.44
637.19	1826.79
637.38	1767.40
637.57	1679.33
637.76	1665.00
637.95	1779.68
638.14	1683.43
638.33	1726.44
638.52	1755.11
638.71	1597.42
638.89	1656.81
639.08	1927.14
639.27	1808.36
639.46	1748.97
639.65	1785.83
639.84	1701.86
640.03	1841.12
640.22	1712.10
640.41	1800.16
640.60	1650.66
640.79	1757.16
640.98	1730.53
641.17	1755.11
641.36	1710.05
641.55	1744.87
641.74	1595.37
641.92	1722.34
642.11	1697.77
642.30	1748.97
642.49	1722.34
642.68	1710.05
642.87	1751.01
643.06	1738.73
643.25	1689.57
643.44	1693.67
643.63	1740.77
643.82	1789.92
644.00	1687.53
644.19	1679.33
644.38	1654.76
644.57	1783.78
644.76	1630.18
644.95	1718.25
645.14	1736.68
645.33	1712.10
645.52	1669.09
645.71	1734.63
645.89	1675.24
646.08	1781.73
646.27	1740.77
646.46	1822.69
646.65	1603.56
646.84	1734.63
647.03	1605.61
647.22	1812.45
647.40	1718.25
647.59	1732.58
647.78	1689.57
647.97	1605.61
648.16	1767.40
648.35	1763.30
648.54	1820.64
648.73	1781.73
648.91	1810.40
649.10	1701.86
649.29	1632.23
649.48	1619.94
649.67	1742.82
649.86	1705.96
650.05	1630.18
650.23	1806.31
650.42	1695.72
650.61	1724.39
650.80	1783.78
650.99	1826.79
651.18	1787.88
651.36	1746.92
651.55	1748.97
651.74	1759.21
651.93	1767.40
652.12	1730.53
652.31	1738.73
652.49	1779.68
652.68	1669.09
652.87	1785.83
653.06	1755.11
653.25	1826.79
653.44	1677.29
653.62	1830.88
653.81	1650.66
654.00	1771.49
654.19	1800.16
654.38	1966.05
654.56	1785.83
654.75	1599.46
654.94	1765.35
655.13	1734.63
655.32	1761.25
655.51	1826.79
655.69	1730.53
655.88	1740.77
656.07	1701.86
656.26	1751.01
656.45	1718.25
656.63	1730.53
656.82	1763.30
657.01	1855.46
657.20	1771.49
657.38	1851.36
657.57	1609.70
657.76	1744.87
657.95	1853.41
658.14	1632.23
658.32	1773.54
658.51	1558.50
658.70	1783.78
658.89	1718.25
659.08	1681.38
659.26	1730.53
659.45	1617.90
659.64	1794.02
659.83	1691.62
660.01	1939.43
660.20	1650.66
660.39	1771.49
660.58	1642.47
660.76	1740.77
660.95	1689.57
661.14	1765.35
661.33	1695.72
661.51	1744.87
661.70	1710.05
661.89	1824.74
662.08	1794.02
662.26	1677.29
662.45	1648.61
662.64	1806.31
662.83	1816.55
663.01	1677.29
663.20	1673.19
663.39	1808.36
663.58	1718.25
663.76	1714.15
663.95	1812.45
664.14	1701.86
664.32	1726.44
664.51	1665.00
664.70	1667.05
664.89	1712.10
665.07	1624.04
665.26	1863.65
665.45	1703.91
665.64	1763.30
665.82	1687.53
666.01	1783.78
666.20	1710.05
666.38	1748.97
666.57	1783.78
666.76	2154.46
666.95	4581.31
667.13	10078.05
667.32	14673.70
667.51	17200.89
667.69	18380.52
667.88	16963.33
668.07	11636.56
668.25	9095.03
668.44	7706.51
668.63	7147.41
668.81	6533.02
669.00	6072.23
669.19	5449.64
669.38	4802.49
669.56	4339.65
669.75	3889.09
669.94	3325.90
670.12	2871.25
670.31	2533.34
670.50	2215.90
670.68	2064.35
670.87	1947.62
671.06	1808.36
671.24	1880.04
671.43	1859.56
671.62	1742.82
671.80	1665.00
671.99	1667.05
672.18	1703.91
672.36	1820.64
672.55	1726.44
672.74	1699.81
672.92	1722.34
673.11	1734.63
673.29	1695.72
673.48	1759.21
673.67	1648.61
673.85	1771.49
674.04	1603.56
674.23	1714.15
674.41	1771.49
674.60	1697.77
674.79	1712.10
674.97	1677.29
675.16	1767.40
675.34	1798.12
675.53	1679.33
675.72	1730.53
675.90	1855.46
676.09	1687.53
676.28	1722.34
676.46	1697.77
676.65	1763.30
676.83	1660.90
677.02	1740.77
677.21	1689.57
677.39	1716.20
677.58	1746.92
677.77	1617.90
677.95	1646.57
678.14	1689.57
678.32	1699.81
678.51	1662.95
678.70	1871.84
678.88	1669.09
679.07	1710.05
679.25	1826.79
679.44	1718.25
679.63	1658.85
679.81	1701.86
680.00	1765.35
680.18	1679.33
680.37	1857.51
680.55	1675.24
680.74	1638.38
680.93	1695.72
681.11	1773.54
681.30	1665.00
681.48	1820.64
681.67	1697.77
681.85	1748.97
682.04	1669.09
682.23	1802.21
682.41	1656.81
682.60	1720.29
682.78	1740.77
682.97	1636.33
683.15	1771.49
683.34	1732.58
683.53	1847.27
683.71	1570.79
683.90	1877.99
684.08	1777.64
684.27	1687.53
684.45	1730.53
684.64	1812.45
684.82	1665.00
685.01	1755.11
685.19	1638.38
685.38	1791.97
685.57	1695.72
685.75	1705.96
685.94	1738.73
686.12	1652.71
686.31	1640.42
686.49	1796.07
686.68	1589.22
686.86	1726.44
687.05	1652.71
687.23	1855.46
687.42	1710.05
687.60	1673.19
687.79	1724.39
687.97	1785.83
688.16	1771.49
688.34	1740.77
688.53	1728.49
688.71	1748.97
688.90	1796.07
689.08	1708.01
689.27	1636.33
689.45	1779.68
689.64	1796.07
689.82	1763.30
690.01	1783.78
690.19	1744.87
690.38	1810.40
690.56	1822.69
690.75	1681.38
690.93	1693.67
691.12	1626.09
691.30	1789.92
691.49	1773.54
691.67	1689.57
691.86	1820.64
692.04	1699.81
692.23	1685.48
692.41	1624.04
692.60	1845.22
692.78	1839.08
692.97	1712.10
693.15	1724.39
693.34	1781.73
693.52	1806.31
693.71	1701.86
693.89	1687.53
694.08	1593.32
694.26	1796.07
694.44	1722.34
694.63	1708.01
694.81	1628.14
695.00	1644.52
695.18	1785.83
695.37	1886.18
695.55	1779.68
695.74	1708.01
695.92	1611.75
696.10	1665.00
696.29	1644.52
696.47	1691.62
696.66	1665.00
696.84	1675.24
697.03	1798.12
697.21	1916.90
697.40	2379.74
697.58	1818.60
697.76	1662.95
697.95	1693.67
698.13	1648.61
698.32	1732.58
698.50	1712.10
698.68	1773.54
698.87	1783.78
699.05	1853.41
699.24	1796.07
699.42	1679.33
699.61	1746.92
699.79	1748.97
699.97	1681.38
700.16	1730.53
700.34	1648.61
700.53	1740.77
700.71	1761.25
700.89	1734.63
701.08	1738.73
701.26	1658.85
701.45	2113.50
701.63	1665.00
701.81	1693.67
702.00	1660.90
702.18	1710.05
702.37	1712.10
702.55	1853.41
702.73	1697.77
702.92	1628.14
703.10	1683.43
703.28	1722.34
703.47	1638.38
703.65	1804.26
703.84	1798.12
704.02	1693.67
704.20	1685.48
704.39	1695.72
704.57	1662.95
704.75	1787.88
704.94	1863.65
705.12	1802.21
705.30	1849.32
705.49	2240.48
705.67	4390.84
705.86	9389.94
706.04	12232.52
706.22	14055.21
706.41	14677.79
706.59	12955.45
706.77	9250.67
706.96	7247.76
707.14	6379.42
707.32	5730.22
707.51	5482.41
707.69	4755.38
707.87	4065.22
708.06	3422.16
708.24	2840.53
708.42	2326.49
708.61	2201.57
708.79	1900.52
708.97	1869.80
709.16	1875.94
709.34	1824.74
709.52	1695.72
709.71	1677.29
709.89	1796.07
710.07	1650.66
710.26	1718.25
710.44	1730.53
710.62	1826.79
710.80	1691.62
710.99	1736.68
711.17	1722.34
711.35	1701.86
711.54	1710.05
711.72	1765.35
711.90	1755.11
712.09	1742.82
712.27	1691.62
712.45	1746.92
712.63	1681.38
712.82	1761.25
713.00	1773.54
713.18	1689.57
713.37	1724.39
713.55	1759.21
713.73	1740.77
713.91	1693.67
714.10	1757.16
714.28	1703.91
714.46	1773.54
714.65	1751.01
714.83	1800.16
715.01	1785.83
715.19	1718.25
715.38	1775.59
715.56	1728.49
715.74	1691.62
715.92	1646.57
716.11	1787.88
716.29	1591.27
716.47	1671.14
716.65	1708.01
716.84	1603.56
717.02	1779.68
717.20	1617.90
717.38	1669.09
717.57	1742.82
717.75	1665.00
717.93	1718.25
718.11	1736.68
718.30	1605.61
718.48	1822.69
718.66	1714.15
718.84	1775.59
719.03	1720.29
719.21	1621.99
719.39	1810.40
719.57	1800.16
719.75	1779.68
719.94	1607.66
720.12	1720.29
720.30	1658.85
720.48	1734.63
720.67	1734.63
720.85	1646.57
721.03	1724.39
721.21	1761.25
721.39	1751.01
721.58	1740.77
721.76	1765.35
721.94	1757.16
722.12	1669.09
722.30	1773.54
722.49	1650.66
722.67	1787.88
722.85	1785.83
723.03	1648.61
723.21	1656.81
723.40	1687.53
723.58	1794.02
723.76	1789.92
723.94	1853.41
724.12	1710.05
724.30	1804.26
724.49	1763.30
724.67	1640.42
724.85	1814.50
725.03	1705.96
725.21	1693.67
725.40	1765.35
725.58	1632.23
725.76	1800.16
725.94	1730.53
726.12	1605.61
726.30	1736.68
726.49	1796.07
726.67	1681.38
726.85	1755.11
727.03	1763.30
727.21	2172.89
727.39	2957.27
727.57	3792.84
727.76	4030.40
727.94	4360.13
728.12	4130.75
728.30	3686.34
728.48	2875.35
728.66	2762.71
728.84	2480.09
729.03	2220.00
729.21	2113.50
729.39	2009.06
729.57	1828.84
729.75	1781.73
729.93	1857.51
730.11	1710.05
730.30	1646.57
730.48	1716.20
730.66	1898.47
730.84	1802.21
731.02	1763.30
731.20	1699.81
731.38	1771.49
731.56	1675.24
731.74	1654.76
731.93	1722.34
732.11	1720.29
732.29	1660.90
732.47	1748.97
732.65	1687.53
732.83	1814.50
733.01	1796.07
733.19	1660.90
733.37	1757.16
733.56	1761.25
733.74	1718.25
733.92	1816.55
734.10	1687.53
734.28	1667.05
734.46	1648.61
734.64	1705.96
734.82	1697.77
735.00	1681.38
735.18	1695.72
735.36	1718.25
735.54	1738.73
735.73	1810.40
735.91	1746.92
736.09	1736.68
736.27	1667.05
736.45	1705.96
736.63	1535.98
736.81	1687.53
736.99	1761.25
737.17	1920.99
737.35	1695.72
737.53	1708.01
737.71	1658.85
737.89	1812.45
738.07	1626.09
738.25	1714.15
738.43	1685.48
738.61	1685.48
738.80	1697.77
738.98	1632.23
739.16	1669.09
739.34	1671.14
739.52	1757.16
739.70	1767.40
739.88	1714.15
740.06	1771.49
740.24	1599.46
740.42	1794.02
740.60	1619.94
740.78	1724.39
740.96	1581.03
741.14	1681.38
741.32	1679.33
741.50	1650.66
741.68	1892.32
741.86	1816.55
742.04	1648.61
742.22	1679.33
742.40	1697.77
742.58	1722.34
742.76	1714.15
742.94	1701.86
743.12	1568.74
743.30	1689.57
743.48	1722.34
743.66	1724.39
743.84	1669.09
744.02	1671.14
744.20	1738.73
744.38	1746.92
744.56	1703.91
744.74	1787.88
744.92	1710.05
745.10	1791.97
745.28	1732.58
745.46	1783.78
745.64	1703.91
745.82	1783.78
746.00	1679.33
746.18	1765.35
746.36	1701.86
746.54	1789.92
746.72	1683.43
746.90	1669.09
747.08	1894.37
747.26	1691.62
747.44	1761.25
747.62	1755.11
747.80	1751.01
747.98	1798.12
748.15	1689.57
748.33	1722.34
748.51	1759.21
748.69	1712.10
748.87	1636.33
749.05	1697.77
749.23	1763.30
749.41	1742.82
749.59	1728.49
749.77	1816.55
749.95	1724.39
750.13	1687.53
750.31	1800.16
750.49	1708.01
750.67	1779.68
750.85	1810.40
751.03	1728.49
751.20	1777.64
751.38	1746.92
751.56	1693.67
751.74	1679.33
751.92	1675.24
752.10	1652.71
752.28	1806.31
752.46	1648.61
752.64	1705.96
752.82	1728.49
753.00	1845.22
753.18	1673.19
753.35	1748.97
753.53	1636.33
753.71	1632.23
753.89	1716.20
754.07	1714.15
754.25	1738.73
754.43	1705.96
754.61	1695.72
754.79	1724.39
754.97	1716.20
755.14	1796.07
755.32	1587.18
755.50	1718.25
755.68	1710.05
755.86	1669.09
756.04	1613.80
756.22	1630.18
756.40	1687.53
756.57	1853.41
756.75	1689.57
756.93	1708.01
757.11	1712.10
757.29	1652.71
757.47	1710.05
757.65	1609.70
757.82	1599.46
758.00	1726.44
758.18	1640.42
758.36	1691.62
758.54	1796.07
758.72	1640.42
758.90	1689.57
759.07	1732.58
759.25	1720.29
759.43	1783.78
759.61	1626.09
759.79	2252.77
759.97	1757.16
760.15	1689.57
760.32	1691.62
760.50	1820.64
760.68	1808.36
760.86	1634.28
761.04	1785.83
761.22	1691.62
761.39	1691.62
761.57	1740.77
761.75	1689.57
761.93	1767.40
762.11	1716.20
762.28	1763.30
762.46	1642.47
762.64	1800.16
762.82	1632.23
763.00	1693.67
763.18	1798.12
763.35	1650.66
763.53	1693.67
763.71	1781.73
763.89	1755.11
764.07	1769.44
764.24	1734.63
764.42	1812.45
764.60	1730.53
764.78	1769.44
764.96	1751.01
765.13	1751.01
765.31	1740.77
765.49	1845.22
765.67	1710.05
765.84	1665.00
766.02	1685.48
766.20	1605.61
766.38	1775.59
766.56	1734.63
766.73	1839.08
766.91	1738.73
767.09	1718.25
767.27	1716.20
767.44	1730.53
767.62	1773.54
767.80	1710.05
767.98	1716.20
768.15	1714.15
768.33	1701.86
768.51	1738.73
768.69	1630.18
768.87	1787.88
769.04	1730.53
769.22	1873.89
769.40	1808.36
769.58	1837.03
769.75	1779.68
769.93	1794.02
770.11	1748.97
770.28	1667.05
770.46	1714.15
770.64	1746.92
770.82	1771.49
770.99	1740.77
771.17	1736.68
771.35	1687.53
771.53	1734.63
771.70	1726.44
771.88	1730.53
772.06	1689.57
772.23	1705.96
772.41	1738.73
772.59	1591.27
772.77	1673.19
772.94	1673.19
773.12	1726.44
773.30	1703.91
773.47	1665.00
773.65	1738.73
773.83	1816.55
774.01	1703.91
774.18	1642.47
774.36	1716.20
774.54	1599.46
774.71	1712.10
774.89	1566.70
775.07	1601.51
775.24	1642.47
775.42	1630.18
775.60	1877.99
775.78	1714.15
775.95	1683.43
776.13	1646.57
776.31	1570.79
776.48	1710.05
776.66	1808.36
776.84	1630.18
777.01	1636.33
777.19	1722.34
777.37	1693.67
777.54	1777.64
777.72	1769.44
777.90	1724.39
778.07	1654.76
778.25	1875.94
778.43	1748.97
778.60	1691.62
778.78	1748.97
778.96	1718.25
779.13	1646.57
779.31	1730.53
779.49	1679.33
779.66	1726.44
779.84	1759.21
780.01	1708.01
780.19	1656.81
780.37	1785.83
780.54	1804.26
780.72	1677.29
780.90	1722.34
781.07	1740.77
781.25	1611.75
781.43	1742.82
781.60	1595.37
781.78	1757.16
781.95	1722.34
782.13	1648.61
782.31	1679.33
782.48	1652.71
782.66	1742.82
782.83	1748.97
783.01	1732.58
783.19	1832.93
783.36	1712.10
783.54	1613.80
783.72	1685.48
783.89	1675.24
784.07	1814.50
784.24	1796.07
784.42	1771.49
784.60	1701.86
784.77	1816.55
784.95	1654.76
785.12	1705.96
785.30	1683.43
785.47	1632.23
785.65	1689.57
785.83	1708.01
786.00	1742.82
786.18	1710.05
786.35	1679.33
786.53	1652.71
786.71	1769.44
786.88	1738.73
787.06	1738.73
787.23	1701.86
787.41	1683.43
787.58	1701.86
787.76	1683.43
787.94	1652.71
788.11	1671.14
788.29	1632.23
788.46	1638.38
788.64	1626.09
788.81	1724.39
788.99	1630.18
789.16	1542.12
789.34	1732.58
789.52	1677.29
789.69	1677.29
789.87	1511.40
790.04	1761.25
790.22	1720.29
790.39	1816.55
790.57	1767.40
790.74	1683.43
790.92	1775.59
791.09	1658.85
791.27	1712.10
791.44	1755.11
791.62	1728.49
791.79	1728.49
791.97	1753.06
792.15	1902.56
792.32	1724.39
792.50	1763.30
792.67	1787.88
792.85	1884.13
793.02	1708.01
793.20	1697.77
793.37	1650.66
793.55	1615.85
793.72	1652.71
793.90	1701.86
794.07	1560.55
794.25	1646.57
794.42	1714.15
794.60	1689.57
794.77	1746.92
794.95	1724.39
795.12	1763.30
795.30	1738.73
795.47	1599.46
795.65	1873.89
795.82	1705.96
796.00	1695.72
796.17	1736.68
796.34	1685.48
796.52	1673.19
796.69	1763.30
796.87	1744.87
797.04	1767.40
797.22	1824.74
797.39	1710.05
797.57	1744.87
797.74	1712.10
797.92	1687.53
798.09	1683.43
798.27	1697.77
798.44	1785.83
798.62	1671.14
798.79	1753.06
798.96	1746.92
799.14	1746.92
799.31	1828.84
799.49	1718.25
799.66	1724.39
799.84	1718.25
800.01	1658.85
800.19	1734.63
800.36	1619.94
800.53	1751.01
800.71	1722.34
800.88	1751.01
801.06	1716.20
801.23	1689.57
801.41	1665.00
801.58	1632.23
801.75	1646.57
801.93	1724.39
802.10	1718.25
802.28	1728.49
802.45	1742.82
802.63	1695.72
802.80	1720.29
802.97	1726.44
803.15	1681.38
803.32	1714.15
803.50	1691.62
803.67	1650.66
803.84	1736.68
804.02	1726.44
804.19	1740.77
804.37	1599.46
804.54	1656.81
804.71	1718.25
804.89	1681.38
805.06	1628.14
805.24	1636.33
805.41	1607.66
805.58	1677.29
805.76	1861.60
805.93	1724.39
806.10	1910.75
806.28	1742.82
806.45	1771.49
806.63	1785.83
806.80	1708.01
806.97	1757.16
807.15	1757.16
807.32	1746.92
807.49	1654.76
807.67	1697.77
807.84	1722.34
808.01	1619.94
808.19	1771.49
808.36	1828.84
808.54	1708.01
808.71	1677.29
808.88	1781.73
809.06	1703.91
809.23	1746.92
809.40	1689.57
809.58	1824.74
809.75	1632.23
809.92	1644.52
810.10	1855.46
810.27	1703.91
810.44	1748.97
810.62	1710.05
810.79	1744.87
810.96	1732.58
811.14	1646.57
811.31	1753.06
811.48	1742.82
811.66	1703.91
811.83	1785.83
812.00	1687.53
812.18	1765.35
812.35	1826.79
812.52	1708.01
812.69	1734.63
812.87	1742.82
813.04	1699.81
813.21	1753.06
813.39	1660.90
813.56	1646.57
813.73	1710.05
813.91	1687.53
814.08	1718.25
814.25	1669.09
814.42	1609.70
814.60	1605.61
814.77	1697.77
814.94	1697.77
815.12	1669.09
815.29	1753.06
815.46	1714.15
815.63	1779.68
815.81	1794.02
815.98	1732.58
816.15	1732.58
816.33	1738.73
816.50	1679.33
816.67	1732.58
816.84	1722.34
817.02	1669.09
817.19	1724.39
817.36	1710.05
817.53	1787.88
817.71	1712.10
817.88	1742.82
818.05	1736.68
818.22	1656.81
818.40	1804.26
818.57	1689.57
818.74	1691.62
818.91	1685.48
819.09	1748.97
819.26	1734.63
819.43	1662.95
819.60	1710.05
819.78	1669.09
819.95	1781.73
820.12	1619.94
820.29	1746.92
820.47	1783.78
820.64	1705.96
820.81	1677.29
820.98	1660.90
821.15	1691.62
821.33	1714.15
821.50	1646.57
821.67	1683.43
821.84	1701.86
822.02	1724.39
822.19	1755.11
822.36	1656.81
822.53	1667.05
822.70	1675.24
822.88	1617.90
823.05	1759.21
823.22	1621.99
823.39	1771.49
823.56	1662.95
823.74	1822.69
823.91	1656.81
824.08	1669.09
824.25	1673.19
824.42	1787.88
824.60	1654.76
824.77	1751.01
824.94	1654.76
825.11	1751.01
825.28	1615.85
825.45	1628.14
825.63	1683.43
825.80	1687.53
825.97	1761.25
826.14	1693.67
826.31	1640.42
826.48	1751.01
826.66	1636.33
826.83	1634.28
827.00	1681.38
827.17	1728.49
827.34	1748.97
827.51	1671.14
827.69	1648.61
827.86	1656.81
828.03	1734.63
828.20	1722.34
828.37	1687.53
828.54	1710.05
828.71	1611.75
828.89	1871.84
829.06	1652.71
829.23	1826.79
829.40	1658.85
829.57	1720.29
829.74	1798.12
829.91	1716.20
830.09	1615.85
830.26	1705.96
830.43	1877.99
830.60	1738.73
830.77	1667.05
830.94	1830.88
831.11	1800.16
831.28	1687.53
831.46	1789.92
831.63	1617.90
831.80	1787.88
831.97	1695.72
832.14	1683.43
832.31	1695.72
832.48	1660.90
832.65	1714.15
832.82	1636.33
832.99	1714.15
833.17	1617.90
833.34	1781.73
833.51	1828.84
833.68	1652.71
833.85	1765.35
834.02	1619.94
834.19	1654.76
834.36	1714.15
834.53	1718.25
834.70	1714.15
834.87	1820.64
835.04	1703.91
835.22	1759.21
835.39	1685.48
835.56	1603.56
835.73	1705.96
835.90	1779.68
836.07	1636.33
836.24	1785.83
836.41	1665.00
836.58	1628.14
836.75	1720.29
836.92	1742.82
837.09	1665.00
837.26	1785.83
837.43	1712.10
837.60	1720.29
837.77	1710.05
837.94	1675.24
838.12	1759.21
838.29	1738.73
838.46	1566.70
838.63	1681.38
838.80	1744.87
838.97	1724.39
839.14	1736.68
839.31	1755.11
839.48	1720.29
839.65	1660.90
839.82	1763.30
839.99	1724.39
840.16	1755.11
840.33	1644.52
840.50	1738.73
840.67	1699.81
840.84	1624.04
841.01	1662.95
841.18	1619.94
841.35	1732.58
841.52	1779.68
841.69	1781.73
841.86	1650.66
842.03	1677.29
842.20	1697.77
842.37	1716.20
842.54	1675.24
842.71	1775.59
842.88	1626.09
843.05	1722.34
843.22	1722.34
843.39	1689.57
843.56	1640.42
843.73	1744.87
843.90	1705.96
844.07	1742.82
844.24	1675.24
844.41	1787.88
844.58	1714.15
844.75	1699.81
844.92	1746.92
845.09	1697.77
845.26	1652.71
845.43	1734.63
845.60	1642.47
845.77	1775.59
845.94	1722.34
846.10	1726.44
846.27	1603.56
846.44	1726.44
846.61	1642.47
846.78	1777.64
846.95	1744.87
847.12	1691.62
847.29	1708.01
847.46	1722.34
847.63	1732.58
847.80	1654.76
847.97	1697.77
848.14	1796.07
848.31	1687.53
848.48	1652.71
848.65	1763.30
848.82	1679.33
848.98	1820.64
849.15	1783.78
849.32	1791.97
849.49	1777.64
849.66	1648.61
849.83	1681.38
850.00	1640.42
850.17	1757.16
850.34	1712.10
850.51	1701.86
850.68	1628.14
850.85	1814.50
851.01	1767.40
851.18	1701.86
851.35	1710.05
851.52	1681.38
851.69	1765.35
851.86	1619.94
852.03	1656.81
852.20	1755.11
852.37	1679.33
852.53	1632.23
852.70	1722.34
852.87	1753.06
853.04	1691.62
853.21	1763.30
853.38	1677.29
853.55	1785.83
853.72	1896.42
853.89	1591.27
854.05	1624.04
854.22	1701.86
854.39	1746.92
854.56	1744.87
854.73	1773.54
854.90	1607.66
855.07	1660.90
855.23	1652.71
855.40	1652.71
855.57	1687.53
855.74	1640.42
855.91	1808.36
856.08	1599.46
856.25	1669.09
856.41	1695.72
856.58	1734.63
856.75	1712.10
856.92	1599.46
857.09	1751.01
857.26	1605.61
857.42	1679.33
857.59	1730.53
857.76	1681.38
857.93	1687.53
858.10	1734.63
858.27	1703.91
858.43	1765.35
858.60	1632.23
858.77	1675.24
858.94	1642.47
859.11	1722.34
859.27	1687.53
859.44	1755.11
859.61	1771.49
859.78	1761.25
859.95	1669.09
860.12	1710.05
860.28	1843.17
860.45	1779.68
860.62	1630.18
860.79	1699.81
860.95	1724.39
861.12	1658.85
861.29	1736.68
861.46	1689.57
861.63	1701.86
861.79	1732.58
861.96	1685.48
862.13	1654.76
862.30	1753.06
862.47	1689.57
862.63	1677.29
862.80	1804.26
862.97	1691.62
863.14	1804.26
863.30	1685.48
863.47	1691.62
863.64	1738.73
863.81	1628.14
863.97	1673.19
864.14	1759.21
864.31	1716.20
864.48	1705.96
864.65	1652.71
864.81	1724.39
864.98	1746.92
865.15	1751.01
865.32	1740.77
865.48	1738.73
865.65	1716.20
865.82	1767.40
865.98	1658.85
866.15	1755.11
866.32	1687.53
866.49	1736.68
866.65	1712.10
866.82	1656.81
866.99	1671.14
867.16	1632.23
867.32	1646.57
867.49	1681.38
867.66	1724.39
867.83	1701.86
867.99	1607.66
868.16	1646.57
868.33	1677.29
868.49	1673.19
868.66	1695.72
868.83	1742.82
868.99	1759.21
869.16	1732.58
869.33	1740.77
869.50	1755.11
869.66	1710.05
869.83	1636.33
870.00	1660.90
870.16	1818.60
870.33	1656.81
870.50	1753.06
870.66	1714.15
870.83	1865.70
871.00	1765.35
871.17	1710.05
871.33	1718.25
871.50	1722.34
871.67	1757.16
871.83	1642.47
872.00	1738.73
872.17	1732.58
872.33	1806.31
872.50	1697.77
872.67	1640.42
872.83	1673.19
873.00	1681.38
873.17	1732.58
873.33	1769.44
873.50	1714.15
873.67	1714.15
873.83	1660.90
874.00	1687.53
874.16	1810.40
874.33	1783.78
874.50	1667.05
874.66	1746.92
874.83	1638.38
875.00	1767.40
875.16	1787.88
875.33	1798.12
875.50	1609.70
875.66	1681.38
875.83	1708.01
875.99	1734.63
876.16	1675.24
876.33	1630.18
876.49	1646.57
876.66	1779.68
876.83	1710.05
876.99	1650.66
877.16	1683.43
877.32	1697.77
877.49	1632.23
877.66	1767.40
877.82	1781.73
877.99	1683.43
878.15	1748.97
878.32	1699.81
878.49	1675.24
878.65	1677.29
878.82	1681.38
878.98	1658.85
879.15	1753.06
879.32	1775.59
879.48	1740.77
879.65	1671.14
879.81	1689.57
879.98	1677.29
880.15	1732.58
880.31	1886.18
880.48	1683.43
880.64	1820.64
880.81	1710.05
880.97	1839.08
881.14	1816.55
881.31	1621.99
881.47	1828.84
881.64	1656.81
881.80	1630.18
881.97	1769.44
882.13	1771.49
882.30	1673.19
882.47	1656.81
882.63	1652.71
882.80	1675.24
882.96	1718.25
883.13	1720.29
883.29	1687.53
883.46	1712.10
883.62	1841.12
883.79	1724.39
883.95	1730.53
884.12	1773.54
884.29	1798.12
884.45	1767.40
884.62	1757.16
884.78	1689.57
884.95	1679.33
885.11	1673.19
885.28	1738.73
885.44	1662.95
885.61	1644.52
885.77	1759.21
885.94	1714.15
886.10	1751.01
886.27	1728.49
886.43	1826.79
886.60	1771.49
886.76	1681.38
886.93	1601.51
887.09	1802.21
887.26	1593.32
887.42	1724.39
887.59	1796.07
887.75	1779.68
887.92	1724.39
888.08	1703.91
888.25	1847.27
888.41	1695.72
888.58	1671.14
888.74	1701.86
888.91	1742.82
>>>>>End Processed Spectral Data<<<<<
