SpectraSuite Data File
++++++++++++++++++++++++++++++++++++
Date: Mon Jun 06 15:35:57 CEST 2016
User: root
Dark Spectrum Present: No
Reference Spectrum Present: No
Number of Sampled Component Spectra: 1
Spectrometers: USB4C02835
Integration Time (usec): 100000 (USB4C02835)
Spectra Averaged: 1 (USB4C02835)
Boxcar Smoothing: 0 (USB4C02835)
Correct for Electrical Dark: No (USB4C02835)
Strobe/Lamp Enabled: No (USB4C02835)
Correct for Detector Non-linearity: No (USB4C02835)
Correct for Stray Light: No (USB4C02835)
Number of Pixels in Processed Spectrum: 3648
>>>>>Begin Processed Spectral Data<<<<<
177.47	1454.06
177.69	1454.06
177.91	1454.06
178.13	1499.11
178.36	1507.30
178.58	1630.18
178.80	1705.96
179.02	1619.94
179.24	1626.09
179.46	1681.38
179.68	1734.63
179.90	1714.15
180.13	1701.86
180.35	1671.14
180.57	1730.53
180.79	1761.25
181.01	1665.00
181.23	1787.88
181.45	1800.16
181.67	1822.69
181.90	1746.92
182.12	1726.44
182.34	1722.34
182.56	1724.39
182.78	1732.58
183.00	1689.57
183.22	1751.01
183.44	1626.09
183.66	1845.22
183.89	1748.97
184.11	1701.86
184.33	1699.81
184.55	1814.50
184.77	1732.58
184.99	1714.15
185.21	1671.14
185.43	1789.92
185.65	1683.43
185.87	1804.26
186.10	1880.04
186.32	1853.41
186.54	1738.73
186.76	1769.44
186.98	1785.83
187.20	1718.25
187.42	1665.00
187.64	1701.86
187.86	1775.59
188.08	1787.88
188.30	1665.00
188.52	1789.92
188.75	1738.73
188.97	1812.45
189.19	1636.33
189.41	1669.09
189.63	1753.06
189.85	1724.39
190.07	1597.42
190.29	1679.33
190.51	1746.92
190.73	1665.00
190.95	1726.44
191.17	1705.96
191.39	1617.90
191.61	1597.42
191.84	1665.00
192.06	1755.11
192.28	1669.09
192.50	1863.65
192.72	1703.91
192.94	1726.44
193.16	1679.33
193.38	1761.25
193.60	1640.42
193.82	1609.70
194.04	1734.63
194.26	1751.01
194.48	1687.53
194.70	1683.43
194.92	1675.24
195.14	1804.26
195.36	1560.55
195.58	1769.44
195.80	1693.67
196.02	1685.48
196.24	1650.66
196.46	1763.30
196.69	1685.48
196.91	1791.97
197.13	1683.43
197.35	1669.09
197.57	1769.44
197.79	1834.98
198.01	1744.87
198.23	1736.68
198.45	1773.54
198.67	1660.90
198.89	1665.00
199.11	1712.10
199.33	1697.77
199.55	1546.22
199.77	1798.12
199.99	1794.02
200.21	1656.81
200.43	1705.96
200.65	1662.95
200.87	1599.46
201.09	1703.91
201.31	1681.38
201.53	1681.38
201.75	1779.68
201.97	1712.10
202.19	1759.21
202.41	1669.09
202.63	1855.46
202.85	1779.68
203.07	1753.06
203.29	1644.52
203.51	1634.28
203.73	1714.15
203.95	1912.80
204.17	1718.25
204.39	1748.97
204.61	1714.15
204.83	1748.97
205.05	1810.40
205.27	1800.16
205.49	1767.40
205.71	1673.19
205.93	1675.24
206.15	1609.70
206.37	1740.77
206.59	1681.38
206.81	1572.84
207.03	1691.62
207.25	1667.05
207.47	1767.40
207.69	1652.71
207.91	1783.78
208.13	1683.43
208.34	1648.61
208.56	1673.19
208.78	1757.16
209.00	1671.14
209.22	1658.85
209.44	1636.33
209.66	1652.71
209.88	1734.63
210.10	1701.86
210.32	1650.66
210.54	1791.97
210.76	1677.29
210.98	1673.19
211.20	1519.59
211.42	1771.49
211.64	1796.07
211.86	1718.25
212.08	1669.09
212.30	1665.00
212.52	1683.43
212.74	1783.78
212.96	1656.81
213.17	1755.11
213.39	1716.20
213.61	1763.30
213.83	1716.20
214.05	1626.09
214.27	1753.06
214.49	1687.53
214.71	1665.00
214.93	1734.63
215.15	1724.39
215.37	1685.48
215.59	1611.75
215.81	1724.39
216.03	1804.26
216.24	1667.05
216.46	1712.10
216.68	1746.92
216.90	1730.53
217.12	1796.07
217.34	1712.10
217.56	1732.58
217.78	1798.12
218.00	1781.73
218.22	1714.15
218.44	1722.34
218.66	1683.43
218.87	1822.69
219.09	1640.42
219.31	1738.73
219.53	1634.28
219.75	1628.14
219.97	1693.67
220.19	1767.40
220.41	1701.86
220.63	1736.68
220.85	1812.45
221.06	1673.19
221.28	1757.16
221.50	1763.30
221.72	1677.29
221.94	1777.64
222.16	1677.29
222.38	1699.81
222.60	1701.86
222.82	1693.67
223.03	1765.35
223.25	1581.03
223.47	1804.26
223.69	1734.63
223.91	1714.15
224.13	1701.86
224.35	1691.62
224.57	1773.54
224.78	1728.49
225.00	1691.62
225.22	1671.14
225.44	1662.95
225.66	1734.63
225.88	1679.33
226.10	1791.97
226.32	1720.29
226.53	1853.41
226.75	1693.67
226.97	1718.25
227.19	1705.96
227.41	1734.63
227.63	1669.09
227.85	1615.85
228.06	1755.11
228.28	1665.00
228.50	1822.69
228.72	1654.76
228.94	1703.91
229.16	1648.61
229.37	1574.89
229.59	1642.47
229.81	1728.49
230.03	1722.34
230.25	1628.14
230.47	1662.95
230.69	1636.33
230.90	1777.64
231.12	1662.95
231.34	1757.16
231.56	1781.73
231.78	1652.71
232.00	1703.91
232.21	1755.11
232.43	1689.57
232.65	1638.38
232.87	1755.11
233.09	1673.19
233.30	1675.24
233.52	1734.63
233.74	1736.68
233.96	1763.30
234.18	1703.91
234.40	1732.58
234.61	1877.99
234.83	1638.38
235.05	1589.22
235.27	1843.17
235.49	1787.88
235.70	1738.73
235.92	1781.73
236.14	1755.11
236.36	1869.80
236.58	1613.80
236.79	1820.64
237.01	1744.87
237.23	1771.49
237.45	1863.65
237.67	1656.81
237.88	1791.97
238.10	1806.31
238.32	1624.04
238.54	1732.58
238.76	1722.34
238.97	1691.62
239.19	1654.76
239.41	1765.35
239.63	1732.58
239.85	1689.57
240.06	1755.11
240.28	1624.04
240.50	1796.07
240.72	1726.44
240.93	1656.81
241.15	1722.34
241.37	1744.87
241.59	1796.07
241.81	1714.15
242.02	1722.34
242.24	1722.34
242.46	1839.08
242.68	1667.05
242.89	1699.81
243.11	1710.05
243.33	1738.73
243.55	1714.15
243.76	1689.57
243.98	1634.28
244.20	1722.34
244.42	1724.39
244.64	1812.45
244.85	1658.85
245.07	1671.14
245.29	1710.05
245.51	1724.39
245.72	1726.44
245.94	1728.49
246.16	1736.68
246.38	1740.77
246.59	1705.96
246.81	1738.73
247.03	1701.86
247.24	1665.00
247.46	1660.90
247.68	1728.49
247.90	1642.47
248.11	1738.73
248.33	1812.45
248.55	1796.07
248.77	1640.42
248.98	1806.31
249.20	1845.22
249.42	1822.69
249.64	1720.29
249.85	1779.68
250.07	1648.61
250.29	1771.49
250.50	1748.97
250.72	1683.43
250.94	1685.48
251.16	1830.88
251.37	1730.53
251.59	1740.77
251.81	1710.05
252.02	1699.81
252.24	1671.14
252.46	1767.40
252.68	1669.09
252.89	1665.00
253.11	1611.75
253.33	1800.16
253.54	1759.21
253.76	1703.91
253.98	1714.15
254.20	1728.49
254.41	1615.85
254.63	1669.09
254.85	1697.77
255.06	1722.34
255.28	1640.42
255.50	1705.96
255.71	1632.23
255.93	1636.33
256.15	1726.44
256.36	1779.68
256.58	1640.42
256.80	1669.09
257.02	1648.61
257.23	1708.01
257.45	1699.81
257.67	1718.25
257.88	1718.25
258.10	1777.64
258.32	1648.61
258.53	1689.57
258.75	1775.59
258.97	1753.06
259.18	1710.05
259.40	1742.82
259.62	1841.12
259.83	1757.16
260.05	1820.64
260.27	1961.95
260.48	1800.16
260.70	1681.38
260.92	1734.63
261.13	1665.00
261.35	1710.05
261.57	1789.92
261.78	1593.32
262.00	1660.90
262.22	1763.30
262.43	1665.00
262.65	1755.11
262.86	1714.15
263.08	1853.41
263.30	1746.92
263.51	1603.56
263.73	1691.62
263.95	1845.22
264.16	1718.25
264.38	1701.86
264.60	1695.72
264.81	1763.30
265.03	1820.64
265.25	1765.35
265.46	1675.24
265.68	1734.63
265.89	1697.77
266.11	1570.79
266.33	1796.07
266.54	1763.30
266.76	1753.06
266.98	1777.64
267.19	1769.44
267.41	1738.73
267.62	1773.54
267.84	1621.99
268.06	1665.00
268.27	1656.81
268.49	1738.73
268.70	1757.16
268.92	1738.73
269.14	1613.80
269.35	1626.09
269.57	1820.64
269.79	1677.29
270.00	1640.42
270.22	1816.55
270.43	1632.23
270.65	1634.28
270.87	1724.39
271.08	1804.26
271.30	1740.77
271.51	1693.67
271.73	1724.39
271.95	1710.05
272.16	1734.63
272.38	1724.39
272.59	1671.14
272.81	1763.30
273.02	1734.63
273.24	1689.57
273.46	1753.06
273.67	1703.91
273.89	1603.56
274.10	1753.06
274.32	1832.93
274.54	1712.10
274.75	1679.33
274.97	1617.90
275.18	1806.31
275.40	1710.05
275.61	1681.38
275.83	1728.49
276.05	1693.67
276.26	1691.62
276.48	1736.68
276.69	1607.66
276.91	1636.33
277.12	1773.54
277.34	1826.79
277.55	1712.10
277.77	1656.81
277.99	1652.71
278.20	1683.43
278.42	1640.42
278.63	1599.46
278.85	1681.38
279.06	1615.85
279.28	1734.63
279.49	1761.25
279.71	1746.92
279.93	1699.81
280.14	1675.24
280.36	1638.38
280.57	1769.44
280.79	1818.60
281.00	1642.47
281.22	1642.47
281.43	1818.60
281.65	1595.37
281.86	1681.38
282.08	1763.30
282.29	1796.07
282.51	1689.57
282.73	1624.04
282.94	1665.00
283.16	1781.73
283.37	1785.83
283.59	1724.39
283.80	1683.43
284.02	1775.59
284.23	1753.06
284.45	1689.57
284.66	1665.00
284.88	1611.75
285.09	1751.01
285.31	1765.35
285.52	1859.56
285.74	1576.94
285.95	1669.09
286.17	1738.73
286.38	1736.68
286.60	1648.61
286.81	1574.89
287.03	1732.58
287.24	1755.11
287.46	1789.92
287.67	1712.10
287.89	1871.84
288.10	1665.00
288.32	1652.71
288.53	1855.46
288.75	1656.81
288.96	1740.77
289.18	1675.24
289.39	1699.81
289.61	1824.74
289.82	1804.26
290.04	1828.84
290.25	1716.20
290.47	1757.16
290.68	1603.56
290.90	1794.02
291.11	1671.14
291.33	1767.40
291.54	1658.85
291.76	1660.90
291.97	1693.67
292.18	1777.64
292.40	1753.06
292.61	1578.98
292.83	1826.79
293.04	1730.53
293.26	1781.73
293.47	1708.01
293.69	1673.19
293.90	1683.43
294.12	1744.87
294.33	1703.91
294.55	1628.14
294.76	1816.55
294.97	1845.22
295.19	1871.84
295.40	1667.05
295.62	1757.16
295.83	1759.21
296.05	1693.67
296.26	1775.59
296.48	1660.90
296.69	1779.68
296.90	1742.82
297.12	1773.54
297.33	1802.21
297.55	1728.49
297.76	1787.88
297.98	1800.16
298.19	1738.73
298.41	1759.21
298.62	1626.09
298.83	1804.26
299.05	1679.33
299.26	1722.34
299.48	1669.09
299.69	1728.49
299.90	1705.96
300.12	1669.09
300.33	1818.60
300.55	1726.44
300.76	1710.05
300.98	1632.23
301.19	1738.73
301.40	1738.73
301.62	1738.73
301.83	1615.85
302.05	1685.48
302.26	1695.72
302.47	1734.63
302.69	1703.91
302.90	1744.87
303.12	1716.20
303.33	1798.12
303.54	1791.97
303.76	1740.77
303.97	1796.07
304.19	1830.88
304.40	1712.10
304.61	1722.34
304.83	1847.27
305.04	1798.12
305.26	1767.40
305.47	1644.52
305.68	1708.01
305.90	1589.22
306.11	1779.68
306.33	1675.24
306.54	1656.81
306.75	1685.48
306.97	1642.47
307.18	1683.43
307.39	1701.86
307.61	1775.59
307.82	1624.04
308.04	1695.72
308.25	1628.14
308.46	1753.06
308.68	1710.05
308.89	1693.67
309.10	1771.49
309.32	1677.29
309.53	1640.42
309.74	1808.36
309.96	1689.57
310.17	1761.25
310.39	1677.29
310.60	1656.81
310.81	1714.15
311.03	1595.37
311.24	1699.81
311.45	1699.81
311.67	1828.84
311.88	1675.24
312.09	1701.86
312.31	1738.73
312.52	1701.86
312.73	1730.53
312.95	1646.57
313.16	1652.71
313.37	1814.50
313.59	1671.14
313.80	1800.16
314.01	1804.26
314.23	1693.67
314.44	1740.77
314.65	1621.99
314.87	1705.96
315.08	1640.42
315.29	1765.35
315.51	1654.76
315.72	1593.32
315.93	1773.54
316.15	1787.88
316.36	1648.61
316.57	1660.90
316.79	1712.10
317.00	1730.53
317.21	1841.12
317.43	1714.15
317.64	1722.34
317.85	1732.58
318.07	1673.19
318.28	1710.05
318.49	1929.19
318.70	1886.18
318.92	1935.33
319.13	1855.46
319.34	1865.70
319.56	1806.31
319.77	1763.30
319.98	1732.58
320.20	1761.25
320.41	1701.86
320.62	1755.11
320.83	1685.48
321.05	1933.28
321.26	1787.88
321.47	1689.57
321.69	1791.97
321.90	1650.66
322.11	1777.64
322.32	1763.30
322.54	1736.68
322.75	1675.24
322.96	1931.23
323.18	1648.61
323.39	1574.89
323.60	1720.29
323.81	1695.72
324.03	1665.00
324.24	1683.43
324.45	1736.68
324.66	1708.01
324.88	1783.78
325.09	1753.06
325.30	1708.01
325.52	1714.15
325.73	1785.83
325.94	1667.05
326.15	1593.32
326.37	1673.19
326.58	1773.54
326.79	1798.12
327.00	1695.72
327.22	1722.34
327.43	1746.92
327.64	1587.18
327.85	1761.25
328.07	1691.62
328.28	1816.55
328.49	1611.75
328.70	1736.68
328.92	1755.11
329.13	1775.59
329.34	1779.68
329.55	1810.40
329.76	1763.30
329.98	1656.81
330.19	1738.73
330.40	1679.33
330.61	1726.44
330.83	1763.30
331.04	1595.37
331.25	1736.68
331.46	1757.16
331.68	1632.23
331.89	1705.96
332.10	1697.77
332.31	1626.09
332.52	1716.20
332.74	1763.30
332.95	1646.57
333.16	1671.14
333.37	1673.19
333.58	1675.24
333.80	1648.61
334.01	1636.33
334.22	1669.09
334.43	1654.76
334.64	1648.61
334.86	1644.52
335.07	1611.75
335.28	1751.01
335.49	1593.32
335.70	1710.05
335.92	1808.36
336.13	1853.41
336.34	1726.44
336.55	1740.77
336.76	1734.63
336.98	1665.00
337.19	1665.00
337.40	1810.40
337.61	1867.75
337.82	1724.39
338.04	1736.68
338.25	1542.12
338.46	1648.61
338.67	1699.81
338.88	1636.33
339.09	1685.48
339.31	1783.78
339.52	1615.85
339.73	1705.96
339.94	1724.39
340.15	1757.16
340.36	1673.19
340.58	1665.00
340.79	1667.05
341.00	1722.34
341.21	1656.81
341.42	1767.40
341.63	1740.77
341.85	1734.63
342.06	1722.34
342.27	1683.43
342.48	1697.77
342.69	1630.18
342.90	1705.96
343.12	1759.21
343.33	1718.25
343.54	1804.26
343.75	1763.30
343.96	1728.49
344.17	1640.42
344.38	1712.10
344.60	1691.62
344.81	1708.01
345.02	1716.20
345.23	1806.31
345.44	1775.59
345.65	1695.72
345.86	1828.84
346.07	1755.11
346.29	1675.24
346.50	1730.53
346.71	1714.15
346.92	1832.93
347.13	1796.07
347.34	1708.01
347.55	1632.23
347.76	1689.57
347.98	1701.86
348.19	1681.38
348.40	1773.54
348.61	1695.72
348.82	1810.40
349.03	1730.53
349.24	1681.38
349.45	1736.68
349.66	1656.81
349.88	1646.57
350.09	1665.00
350.30	1863.65
350.51	1757.16
350.72	1712.10
350.93	1763.30
351.14	1656.81
351.35	1789.92
351.56	1732.58
351.77	1697.77
351.99	1755.11
352.20	1791.97
352.41	1804.26
352.62	1695.72
352.83	1679.33
353.04	1705.96
353.25	1728.49
353.46	1808.36
353.67	1710.05
353.88	1609.70
354.09	1689.57
354.30	1740.77
354.52	1701.86
354.73	1648.61
354.94	1640.42
355.15	1726.44
355.36	1808.36
355.57	1673.19
355.78	1701.86
355.99	1738.73
356.20	1652.71
356.41	1771.49
356.62	1718.25
356.83	1644.52
357.04	1832.93
357.25	1601.51
357.46	1673.19
357.68	1648.61
357.89	1605.61
358.10	1744.87
358.31	1703.91
358.52	1705.96
358.73	1697.77
358.94	1677.29
359.15	1626.09
359.36	1746.92
359.57	1730.53
359.78	1722.34
359.99	1748.97
360.20	1605.61
360.41	1695.72
360.62	1697.77
360.83	1644.52
361.04	1730.53
361.25	1712.10
361.46	1771.49
361.67	1736.68
361.88	1806.31
362.09	1720.29
362.30	1796.07
362.51	1677.29
362.72	1697.77
362.93	1775.59
363.14	1687.53
363.35	1693.67
363.56	1701.86
363.78	1757.16
363.99	1767.40
364.20	1669.09
364.41	1654.76
364.62	1873.89
364.83	1726.44
365.04	1693.67
365.25	1757.16
365.46	1867.75
365.67	1652.71
365.88	1644.52
366.09	1683.43
366.30	1751.01
366.51	1710.05
366.72	1574.89
366.93	1714.15
367.14	1732.58
367.35	1814.50
367.56	1740.77
367.77	1710.05
367.98	1689.57
368.18	1767.40
368.39	1718.25
368.60	1705.96
368.81	1662.95
369.02	1673.19
369.23	1730.53
369.44	1673.19
369.65	1701.86
369.86	1832.93
370.07	1738.73
370.28	1640.42
370.49	1755.11
370.70	1734.63
370.91	1648.61
371.12	1660.90
371.33	1816.55
371.54	1677.29
371.75	1765.35
371.96	1564.65
372.17	1705.96
372.38	1695.72
372.59	1755.11
372.80	1730.53
373.01	1712.10
373.22	1761.25
373.43	1714.15
373.64	1654.76
373.85	1746.92
374.06	1755.11
374.26	1794.02
374.47	1761.25
374.68	1873.89
374.89	1800.16
375.10	1714.15
375.31	1705.96
375.52	1755.11
375.73	1677.29
375.94	1603.56
376.15	1789.92
376.36	1681.38
376.57	1718.25
376.78	1736.68
376.99	1796.07
377.20	1761.25
377.40	1703.91
377.61	1882.08
377.82	1669.09
378.03	1740.77
378.24	1714.15
378.45	1716.20
378.66	1705.96
378.87	1665.00
379.08	1665.00
379.29	1732.58
379.50	1746.92
379.71	1669.09
379.91	1716.20
380.12	1675.24
380.33	1734.63
380.54	1720.29
380.75	1755.11
380.96	1671.14
381.17	1794.02
381.38	1738.73
381.59	1708.01
381.80	1755.11
382.00	1806.31
382.21	1783.78
382.42	1843.17
382.63	1814.50
382.84	1718.25
383.05	1787.88
383.26	1855.46
383.47	1755.11
383.68	1755.11
383.88	1718.25
384.09	1697.77
384.30	1787.88
384.51	1728.49
384.72	1697.77
384.93	1677.29
385.14	1738.73
385.35	1839.08
385.55	1640.42
385.76	1785.83
385.97	1794.02
386.18	1642.47
386.39	1703.91
386.60	1640.42
386.81	1701.86
387.02	1636.33
387.22	1679.33
387.43	1716.20
387.64	1789.92
387.85	1869.80
388.06	2205.66
388.27	4163.52
388.48	6700.95
388.68	8081.28
388.89	9396.08
389.10	9717.61
389.31	8507.26
389.52	7194.51
389.73	6754.20
389.93	6154.15
390.14	5740.46
390.35	5121.97
390.56	4487.10
390.77	3700.68
390.98	3010.51
391.18	2580.44
391.39	2090.98
391.60	1841.12
391.81	1834.98
392.02	1705.96
392.23	1816.55
392.43	1669.09
392.64	1824.74
392.85	1681.38
393.06	1894.37
393.27	1794.02
393.47	1599.46
393.68	1806.31
393.89	1714.15
394.10	1744.87
394.31	1718.25
394.52	1738.73
394.72	1720.29
394.93	1734.63
395.14	1583.08
395.35	1761.25
395.56	1732.58
395.76	1746.92
395.97	1841.12
396.18	1871.84
396.39	1882.08
396.60	2031.58
396.80	1890.28
397.01	1877.99
397.22	1855.46
397.43	1849.32
397.64	1771.49
397.84	1822.69
398.05	1875.94
398.26	1804.26
398.47	1761.25
398.67	1818.60
398.88	1720.29
399.09	1722.34
399.30	1705.96
399.51	1708.01
399.71	1679.33
399.92	1720.29
400.13	1777.64
400.34	1746.92
400.54	1656.81
400.75	1779.68
400.96	1726.44
401.17	1783.78
401.37	1703.91
401.58	1740.77
401.79	1689.57
402.00	1849.32
402.21	1988.58
402.41	1927.14
402.62	2043.87
402.83	1976.29
403.04	1908.71
403.24	2037.73
403.45	1804.26
403.66	1904.61
403.87	1828.84
404.07	1847.27
404.28	1906.66
404.49	1877.99
404.70	1777.64
404.90	1787.88
405.11	1755.11
405.32	1726.44
405.52	1699.81
405.73	1708.01
405.94	1597.42
406.15	1673.19
406.35	1701.86
406.56	1738.73
406.77	1744.87
406.98	1720.29
407.18	1697.77
407.39	1787.88
407.60	1689.57
407.80	1705.96
408.01	1740.77
408.22	1720.29
408.43	1714.15
408.63	1755.11
408.84	1726.44
409.05	1791.97
409.25	1611.75
409.46	1716.20
409.67	1658.85
409.88	1667.05
410.08	1710.05
410.29	1658.85
410.50	1726.44
410.70	1722.34
410.91	1628.14
411.12	1814.50
411.32	1656.81
411.53	1652.71
411.74	1853.41
411.95	1771.49
412.15	1732.58
412.36	1767.40
412.57	1845.22
412.77	1806.31
412.98	1755.11
413.19	1705.96
413.39	1820.64
413.60	1798.12
413.81	1834.98
414.01	1740.77
414.22	1775.59
414.43	1755.11
414.63	1714.15
414.84	1775.59
415.05	1779.68
415.25	1638.38
415.46	1691.62
415.67	1662.95
415.87	1744.87
416.08	1695.72
416.29	1636.33
416.49	1693.67
416.70	1630.18
416.91	1769.44
417.11	1724.39
417.32	1789.92
417.53	1742.82
417.73	1665.00
417.94	1742.82
418.15	1732.58
418.35	1830.88
418.56	1683.43
418.77	1849.32
418.97	1683.43
419.18	1660.90
419.38	1642.47
419.59	1697.77
419.80	1902.56
420.00	1691.62
420.21	1738.73
420.42	1783.78
420.62	1722.34
420.83	1636.33
421.04	1708.01
421.24	1687.53
421.45	1748.97
421.65	1775.59
421.86	1720.29
422.07	1736.68
422.27	1755.11
422.48	1732.58
422.69	1624.04
422.89	1681.38
423.10	1712.10
423.30	1652.71
423.51	1718.25
423.72	1796.07
423.92	1812.45
424.13	1640.42
424.33	1818.60
424.54	1775.59
424.75	1724.39
424.95	1783.78
425.16	1718.25
425.36	1685.48
425.57	1804.26
425.78	1740.77
425.98	1822.69
426.19	1689.57
426.39	1699.81
426.60	1716.20
426.81	1865.70
427.01	1806.31
427.22	1689.57
427.42	1701.86
427.63	1712.10
427.83	1728.49
428.04	1789.92
428.25	1753.06
428.45	1757.16
428.66	1810.40
428.86	1724.39
429.07	1699.81
429.28	1800.16
429.48	1726.44
429.69	1726.44
429.89	1779.68
430.10	1621.99
430.30	1736.68
430.51	1771.49
430.71	1665.00
430.92	1695.72
431.13	1701.86
431.33	1728.49
431.54	1671.14
431.74	1740.77
431.95	1802.21
432.15	1644.52
432.36	1740.77
432.56	1834.98
432.77	1791.97
432.98	1816.55
433.18	1773.54
433.39	1732.58
433.59	1751.01
433.80	1804.26
434.00	1845.22
434.21	1712.10
434.41	1665.00
434.62	1880.04
434.82	1605.61
435.03	1654.76
435.23	1730.53
435.44	1673.19
435.64	1691.62
435.85	1722.34
436.06	1837.03
436.26	1742.82
436.47	1757.16
436.67	1728.49
436.88	1720.29
437.08	1802.21
437.29	1751.01
437.49	1744.87
437.70	1796.07
437.90	1802.21
438.11	1849.32
438.31	1796.07
438.52	1839.08
438.72	1857.51
438.93	1859.56
439.13	1746.92
439.34	1886.18
439.54	1855.46
439.75	1736.68
439.95	1789.92
440.16	1730.53
440.36	1746.92
440.57	1775.59
440.77	1746.92
440.98	1767.40
441.18	1701.86
441.39	1724.39
441.59	1654.76
441.80	1869.80
442.00	1685.48
442.21	1826.79
442.41	1714.15
442.62	1824.74
442.82	1732.58
443.02	1800.16
443.23	1779.68
443.43	1636.33
443.64	1802.21
443.84	1689.57
444.05	1740.77
444.25	1748.97
444.46	1673.19
444.66	1761.25
444.87	1804.26
445.07	1638.38
445.28	1781.73
445.48	1804.26
445.69	1847.27
445.89	1865.70
446.09	1785.83
446.30	2103.26
446.50	2576.34
446.71	3647.43
446.91	4290.49
447.12	4650.94
447.32	4863.93
447.53	4276.16
447.73	3719.11
447.93	3430.35
448.14	3295.18
448.34	3198.93
448.55	2906.07
448.75	2813.91
448.96	2639.83
449.16	2371.55
449.36	2285.53
449.57	2080.74
449.77	1906.66
449.98	1804.26
450.18	1910.75
450.39	1834.98
450.59	1751.01
450.79	1789.92
451.00	1677.29
451.20	1834.98
451.41	1720.29
451.61	1820.64
451.81	1677.29
452.02	1734.63
452.22	1806.31
452.43	1730.53
452.63	1640.42
452.84	1697.77
453.04	1757.16
453.24	1738.73
453.45	1683.43
453.65	1660.90
453.86	1683.43
454.06	1751.01
454.26	1726.44
454.47	1710.05
454.67	1851.36
454.87	1867.75
455.08	1730.53
455.28	1923.04
455.49	1710.05
455.69	1648.61
455.89	1886.18
456.10	1849.32
456.30	1691.62
456.51	1769.44
456.71	1726.44
456.91	1740.77
457.12	1779.68
457.32	1724.39
457.52	1665.00
457.73	1806.31
457.93	1701.86
458.14	1759.21
458.34	1667.05
458.54	1744.87
458.75	1736.68
458.95	1863.65
459.15	1783.78
459.36	1736.68
459.56	1808.36
459.76	1785.83
459.97	1751.01
460.17	1748.97
460.37	1894.37
460.58	1738.73
460.78	1843.17
460.99	1710.05
461.19	1720.29
461.39	1705.96
461.60	1808.36
461.80	1791.97
462.00	1665.00
462.21	1736.68
462.41	1751.01
462.61	1732.58
462.82	1671.14
463.02	1726.44
463.22	1779.68
463.43	1820.64
463.63	1771.49
463.83	1861.60
464.04	1783.78
464.24	1763.30
464.44	1703.91
464.64	1701.86
464.85	1718.25
465.05	1730.53
465.25	1687.53
465.46	1730.53
465.66	1746.92
465.86	1748.97
466.07	1767.40
466.27	1650.66
466.47	1642.47
466.68	1675.24
466.88	1902.56
467.08	1761.25
467.29	1759.21
467.49	1722.34
467.69	1783.78
467.89	1736.68
468.10	1710.05
468.30	1730.53
468.50	1763.30
468.71	1744.87
468.91	1726.44
469.11	1828.84
469.31	1755.11
469.52	1705.96
469.72	1816.55
469.92	1826.79
470.13	1767.40
470.33	1769.44
470.53	1841.12
470.73	2095.07
470.94	2312.16
471.14	2254.81
471.34	2504.67
471.54	2379.74
471.75	2244.57
471.95	2205.66
472.15	2166.75
472.36	2101.22
472.56	2064.35
472.76	1945.57
472.96	1974.24
473.17	1972.19
473.37	1957.86
473.57	1796.07
473.77	1796.07
473.98	1765.35
474.18	1683.43
474.38	1826.79
474.58	1689.57
474.79	1738.73
474.99	1751.01
475.19	1773.54
475.39	1648.61
475.60	1765.35
475.80	1787.88
476.00	1652.71
476.20	1798.12
476.41	1800.16
476.61	1839.08
476.81	1791.97
477.01	1669.09
477.21	1820.64
477.42	1791.97
477.62	1685.48
477.82	1814.50
478.02	1781.73
478.23	1824.74
478.43	1677.29
478.63	1722.34
478.83	1759.21
479.03	1677.29
479.24	1775.59
479.44	1808.36
479.64	1683.43
479.84	1712.10
480.04	1738.73
480.25	1693.67
480.45	1751.01
480.65	1732.58
480.85	1781.73
481.06	1683.43
481.26	1812.45
481.46	1712.10
481.66	1767.40
481.86	1665.00
482.06	1832.93
482.27	1683.43
482.47	1738.73
482.67	1781.73
482.87	1789.92
483.07	1800.16
483.28	1638.38
483.48	1699.81
483.68	1636.33
483.88	1642.47
484.08	1589.22
484.29	1667.05
484.49	1708.01
484.69	1642.47
484.89	1701.86
485.09	1783.78
485.29	1773.54
485.50	1748.97
485.70	1673.19
485.90	1828.84
486.10	1808.36
486.30	1724.39
486.50	1757.16
486.71	1763.30
486.91	1757.16
487.11	1751.01
487.31	1728.49
487.51	1767.40
487.71	1654.76
487.91	1613.80
488.12	1695.72
488.32	1660.90
488.52	1732.58
488.72	1607.66
488.92	1714.15
489.12	1779.68
489.32	1804.26
489.53	1751.01
489.73	1669.09
489.93	1830.88
490.13	1689.57
490.33	1669.09
490.53	1705.96
490.73	1771.49
490.94	1630.18
491.14	1871.84
491.34	1894.37
491.54	2183.13
491.74	2502.62
491.94	2826.20
492.14	2975.70
492.34	3059.67
492.54	2734.04
492.75	2527.19
492.95	2410.46
493.15	2256.86
493.35	2312.16
493.55	2207.71
493.75	2109.41
493.95	2199.52
494.15	1976.29
494.35	1925.09
494.56	1845.22
494.76	1812.45
494.96	1726.44
495.16	1775.59
495.36	1714.15
495.56	1765.35
495.76	1761.25
495.96	1705.96
496.16	1632.23
496.36	1841.12
496.56	1728.49
496.77	1796.07
496.97	1796.07
497.17	1798.12
497.37	1675.24
497.57	1748.97
497.77	1779.68
497.97	1712.10
498.17	1767.40
498.37	1708.01
498.57	1824.74
498.77	1755.11
498.97	1763.30
499.17	1859.56
499.38	1785.83
499.58	1794.02
499.78	1771.49
499.98	1787.88
500.18	1720.29
500.38	1722.34
500.58	1929.19
500.78	2527.19
500.98	4372.41
501.18	5760.94
501.38	6619.04
501.58	7124.88
501.78	6520.73
501.98	5457.84
502.18	4937.65
502.38	4460.48
502.58	4009.92
502.78	3653.58
502.98	3672.01
503.18	3354.57
503.38	3090.38
503.59	2854.87
503.79	2656.22
503.99	2492.38
504.19	2234.33
504.39	2166.75
504.59	2154.46
504.79	2099.17
504.99	2007.01
505.19	1894.37
505.39	1863.65
505.59	1998.82
505.79	1898.47
505.99	1804.26
506.19	1824.74
506.39	1771.49
506.59	1710.05
506.79	1724.39
506.99	1767.40
507.19	1800.16
507.39	1791.97
507.59	1656.81
507.79	1720.29
507.99	1714.15
508.19	1763.30
508.39	1687.53
508.59	1724.39
508.79	1828.84
508.99	1796.07
509.19	1654.76
509.39	1789.92
509.59	1755.11
509.79	1634.28
509.99	1755.11
510.19	1818.60
510.39	1877.99
510.59	1673.19
510.79	1671.14
510.99	1703.91
511.19	1845.22
511.39	1802.21
511.59	1851.36
511.79	1900.52
511.99	1714.15
512.19	1832.93
512.38	1773.54
512.58	1669.09
512.78	1695.72
512.98	1832.93
513.18	1757.16
513.38	1736.68
513.58	1753.06
513.78	1701.86
513.98	1689.57
514.18	1773.54
514.38	1730.53
514.58	1800.16
514.78	1716.20
514.98	1665.00
515.18	1675.24
515.38	1636.33
515.58	1935.33
515.78	1722.34
515.98	1708.01
516.18	1767.40
516.38	1767.40
516.57	1683.43
516.77	1744.87
516.97	1849.32
517.17	1685.48
517.37	1689.57
517.57	1818.60
517.77	1798.12
517.97	1683.43
518.17	1820.64
518.37	1734.63
518.57	1671.14
518.77	1673.19
518.97	1677.29
519.16	1841.12
519.36	1869.80
519.56	1742.82
519.76	1714.15
519.96	1781.73
520.16	1796.07
520.36	1689.57
520.56	1740.77
520.76	1781.73
520.96	1763.30
521.16	1857.51
521.35	1814.50
521.55	1824.74
521.75	1742.82
521.95	1714.15
522.15	1751.01
522.35	1669.09
522.55	1675.24
522.75	1849.32
522.95	1765.35
523.14	1689.57
523.34	1775.59
523.54	1730.53
523.74	1812.45
523.94	1794.02
524.14	1728.49
524.34	1765.35
524.54	1884.13
524.73	1779.68
524.93	1853.41
525.13	1759.21
525.33	1751.01
525.53	1920.99
525.73	1806.31
525.93	1671.14
526.13	1722.34
526.32	1787.88
526.52	1824.74
526.72	1681.38
526.92	1742.82
527.12	1722.34
527.32	1693.67
527.52	1730.53
527.71	1777.64
527.91	1695.72
528.11	1748.97
528.31	1701.86
528.51	1642.47
528.71	1820.64
528.90	1791.97
529.10	1779.68
529.30	1736.68
529.50	1624.04
529.70	1738.73
529.90	1722.34
530.09	1775.59
530.29	1673.19
530.49	1683.43
530.69	1886.18
530.89	1648.61
531.09	1820.64
531.28	1744.87
531.48	1871.84
531.68	1738.73
531.88	1763.30
532.08	1849.32
532.28	1732.58
532.47	1775.59
532.67	1781.73
532.87	1767.40
533.07	1703.91
533.27	1834.98
533.46	1742.82
533.66	1738.73
533.86	1718.25
534.06	1730.53
534.26	1732.58
534.45	1759.21
534.65	1798.12
534.85	1738.73
535.05	1759.21
535.25	1769.44
535.44	1736.68
535.64	1785.83
535.84	1714.15
536.04	1734.63
536.24	1671.14
536.43	1720.29
536.63	1789.92
536.83	1714.15
537.03	1849.32
537.22	1650.66
537.42	1710.05
537.62	1783.78
537.82	1697.77
538.02	1843.17
538.21	1847.27
538.41	1925.09
538.61	1755.11
538.81	1726.44
539.00	1820.64
539.20	1701.86
539.40	1755.11
539.60	1687.53
539.79	1773.54
539.99	1710.05
540.19	1689.57
540.39	1753.06
540.58	1724.39
540.78	1740.77
540.98	1726.44
541.18	1804.26
541.37	1816.55
541.57	1808.36
541.77	1814.50
541.97	1722.34
542.16	1689.57
542.36	1746.92
542.56	1759.21
542.76	1867.75
542.95	1812.45
543.15	1796.07
543.35	1751.01
543.54	1716.20
543.74	1665.00
543.94	1767.40
544.14	1783.78
544.33	1804.26
544.53	1761.25
544.73	1791.97
544.93	1755.11
545.12	1714.15
545.32	1736.68
545.52	1716.20
545.71	1650.66
545.91	1742.82
546.11	1691.62
546.30	1724.39
546.50	1787.88
546.70	1822.69
546.90	1720.29
547.09	1689.57
547.29	1777.64
547.49	1783.78
547.68	1722.34
547.88	1660.90
548.08	1736.68
548.27	2164.70
548.47	1730.53
548.67	1753.06
548.87	1783.78
549.06	1761.25
549.26	1820.64
549.46	1779.68
549.65	1685.48
549.85	1755.11
550.05	1773.54
550.24	1644.52
550.44	1761.25
550.64	1714.15
550.83	1740.77
551.03	1828.84
551.23	1789.92
551.42	1746.92
551.62	1740.77
551.82	1730.53
552.01	1736.68
552.21	1841.12
552.41	1738.73
552.60	1906.66
552.80	1712.10
553.00	1720.29
553.19	1742.82
553.39	1806.31
553.59	1681.38
553.78	1830.88
553.98	1730.53
554.17	1726.44
554.37	1783.78
554.57	1716.20
554.76	1724.39
554.96	1691.62
555.16	1755.11
555.35	1736.68
555.55	1742.82
555.75	1732.58
555.94	1775.59
556.14	1595.37
556.33	1728.49
556.53	1781.73
556.73	1796.07
556.92	1761.25
557.12	1802.21
557.32	1927.14
557.51	1781.73
557.71	1800.16
557.90	1931.23
558.10	1839.08
558.30	1658.85
558.49	1775.59
558.69	1726.44
558.88	1875.94
559.08	1720.29
559.28	1818.60
559.47	1769.44
559.67	1769.44
559.86	1824.74
560.06	1783.78
560.26	1734.63
560.45	1738.73
560.65	1699.81
560.84	1812.45
561.04	1716.20
561.24	1804.26
561.43	1820.64
561.63	1851.36
561.82	1787.88
562.02	1738.73
562.22	1652.71
562.41	1656.81
562.61	1665.00
562.80	1710.05
563.00	1869.80
563.19	1695.72
563.39	1804.26
563.59	1695.72
563.78	1714.15
563.98	1662.95
564.17	1744.87
564.37	1628.14
564.56	1667.05
564.76	1691.62
564.96	1851.36
565.15	1775.59
565.35	1888.23
565.54	1675.24
565.74	1777.64
565.93	1722.34
566.13	1769.44
566.32	1837.03
566.52	1751.01
566.71	1738.73
566.91	1796.07
567.11	1720.29
567.30	1689.57
567.50	1765.35
567.69	1814.50
567.89	1757.16
568.08	1695.72
568.28	1724.39
568.47	1693.67
568.67	1806.31
568.86	1781.73
569.06	1734.63
569.25	1689.57
569.45	1632.23
569.64	1665.00
569.84	1763.30
570.04	1746.92
570.23	1753.06
570.43	1701.86
570.62	1826.79
570.82	1802.21
571.01	1695.72
571.21	1720.29
571.40	1699.81
571.60	1728.49
571.79	1808.36
571.99	1820.64
572.18	1705.96
572.38	1808.36
572.57	1714.15
572.77	1904.61
572.96	1912.80
573.16	1779.68
573.35	1726.44
573.55	1861.60
573.74	1779.68
573.94	1712.10
574.13	1691.62
574.33	1855.46
574.52	1769.44
574.71	1789.92
574.91	1642.47
575.10	1703.91
575.30	1740.77
575.49	1648.61
575.69	1761.25
575.88	1730.53
576.08	1703.91
576.27	1775.59
576.47	1746.92
576.66	1871.84
576.86	1863.65
577.05	1775.59
577.25	1841.12
577.44	1853.41
577.64	1763.30
577.83	1822.69
578.02	1630.18
578.22	1865.70
578.41	1828.84
578.61	1791.97
578.80	1671.14
579.00	1843.17
579.19	1779.68
579.39	1785.83
579.58	1802.21
579.77	1730.53
579.97	1751.01
580.16	1830.88
580.36	1804.26
580.55	1845.22
580.75	1777.64
580.94	1845.22
581.13	1867.75
581.33	1834.98
581.52	1791.97
581.72	1822.69
581.91	1824.74
582.11	1712.10
582.30	1820.64
582.49	1763.30
582.69	1818.60
582.88	1855.46
583.08	1769.44
583.27	1857.51
583.47	1753.06
583.66	1689.57
583.85	1716.20
584.05	1806.31
584.24	1804.26
584.44	1769.44
584.63	1820.64
584.82	1851.36
585.02	1734.63
585.21	1800.16
585.41	1800.16
585.60	1892.32
585.79	1814.50
585.99	2009.06
586.18	1812.45
586.37	2238.43
586.57	3452.88
586.76	9914.22
586.96	24153.74
587.15	33400.32
587.34	39370.15
587.54	41254.28
587.73	35886.56
587.93	25405.05
588.12	20956.86
588.31	17792.75
588.51	15970.06
588.70	14933.79
588.89	13823.79
589.09	12181.32
589.28	10856.28
589.47	9232.24
589.67	7726.99
589.86	6225.82
590.06	4859.83
590.25	3770.31
590.44	3065.81
590.64	2570.20
590.83	2267.10
591.02	2047.97
591.22	1849.32
591.41	1851.36
591.60	1769.44
591.80	1961.95
591.99	1732.58
592.18	1771.49
592.38	1783.78
592.57	1765.35
592.76	1832.93
592.96	1828.84
593.15	1699.81
593.34	1904.61
593.54	1716.20
593.73	1847.27
593.92	1800.16
594.12	1712.10
594.31	1787.88
594.50	1812.45
594.70	1830.88
594.89	1845.22
595.08	1724.39
595.28	1757.16
595.47	1851.36
595.66	1812.45
595.86	1703.91
596.05	1679.33
596.24	1740.77
596.43	1908.71
596.63	1808.36
596.82	1730.53
597.01	1816.55
597.21	1830.88
597.40	1746.92
597.59	1751.01
597.79	1710.05
597.98	1742.82
598.17	1853.41
598.36	1765.35
598.56	1734.63
598.75	1734.63
598.94	1800.16
599.14	1779.68
599.33	1738.73
599.52	1791.97
599.71	1794.02
599.91	1744.87
600.10	1796.07
600.29	1744.87
600.48	1773.54
600.68	1802.21
600.87	1734.63
601.06	1751.01
601.26	1804.26
601.45	1751.01
601.64	1802.21
601.83	1785.83
602.03	1699.81
602.22	1740.77
602.41	1757.16
602.60	1857.51
602.80	1806.31
602.99	1787.88
603.18	1773.54
603.37	1771.49
603.57	1748.97
603.76	1808.36
603.95	1744.87
604.14	1718.25
604.34	1701.86
604.53	1736.68
604.72	1771.49
604.91	1748.97
605.10	1841.12
605.30	1701.86
605.49	1871.84
605.68	1726.44
605.87	1761.25
606.07	1757.16
606.26	1740.77
606.45	1763.30
606.64	1744.87
606.84	1744.87
607.03	1738.73
607.22	1701.86
607.41	1697.77
607.60	1675.24
607.80	1765.35
607.99	1665.00
608.18	1763.30
608.37	1714.15
608.56	1705.96
608.76	1779.68
608.95	1800.16
609.14	1736.68
609.33	1875.94
609.52	1830.88
609.72	1828.84
609.91	1814.50
610.10	1748.97
610.29	1834.98
610.48	1794.02
610.68	1777.64
610.87	1695.72
611.06	1820.64
611.25	1746.92
611.44	1822.69
611.63	1773.54
611.83	1791.97
612.02	1619.94
612.21	1875.94
612.40	1662.95
612.59	1693.67
612.79	1687.53
612.98	1767.40
613.17	1722.34
613.36	1763.30
613.55	1779.68
613.74	1697.77
613.93	1689.57
614.13	1697.77
614.32	1728.49
614.51	1726.44
614.70	1689.57
614.89	1751.01
615.08	1695.72
615.28	2013.15
615.47	1720.29
615.66	1837.03
615.85	1753.06
616.04	1763.30
616.23	1687.53
616.42	1710.05
616.62	1716.20
616.81	1746.92
617.00	1648.61
617.19	1877.99
617.38	1734.63
617.57	1740.77
617.76	1767.40
617.95	1771.49
618.15	1773.54
618.34	1808.36
618.53	1660.90
618.72	1753.06
618.91	1837.03
619.10	1804.26
619.29	1753.06
619.48	1812.45
619.68	1662.95
619.87	1722.34
620.06	1679.33
620.25	1812.45
620.44	1767.40
620.63	1791.97
620.82	1718.25
621.01	1697.77
621.20	1767.40
621.39	1738.73
621.59	1820.64
621.78	1683.43
621.97	1732.58
622.16	1740.77
622.35	1716.20
622.54	1701.86
622.73	1826.79
622.92	1683.43
623.11	1791.97
623.30	1703.91
623.49	1742.82
623.68	1669.09
623.88	1763.30
624.07	1695.72
624.26	1726.44
624.45	1783.78
624.64	1685.48
624.83	1748.97
625.02	1748.97
625.21	1718.25
625.40	1767.40
625.59	1789.92
625.78	1650.66
625.97	1828.84
626.16	1761.25
626.35	1796.07
626.54	1804.26
626.74	1746.92
626.93	1705.96
627.12	1775.59
627.31	1783.78
627.50	1701.86
627.69	1861.60
627.88	1685.48
628.07	1724.39
628.26	1705.96
628.45	1757.16
628.64	1652.71
628.83	1726.44
629.02	1748.97
629.21	1802.21
629.40	1675.24
629.59	1671.14
629.78	1730.53
629.97	1671.14
630.16	1787.88
630.35	1757.16
630.54	1669.09
630.73	1724.39
630.92	1652.71
631.11	1781.73
631.30	1759.21
631.49	1808.36
631.68	1650.66
631.87	1716.20
632.06	1740.77
632.25	1857.51
632.44	1748.97
632.63	1650.66
632.82	1644.52
633.01	1681.38
633.20	1753.06
633.39	1710.05
633.58	1667.05
633.77	1763.30
633.96	1798.12
634.15	1771.49
634.34	1744.87
634.53	1720.29
634.72	1574.89
634.91	1640.42
635.10	1753.06
635.29	1734.63
635.48	1708.01
635.67	1703.91
635.86	1626.09
636.05	1828.84
636.24	1765.35
636.43	1791.97
636.62	1779.68
636.81	1546.22
637.00	1662.95
637.19	1798.12
637.38	1681.38
637.57	1660.90
637.76	1701.86
637.95	1744.87
638.14	1699.81
638.33	1726.44
638.52	1757.16
638.71	1667.05
638.89	1632.23
639.08	1855.46
639.27	1734.63
639.46	1718.25
639.65	1787.88
639.84	1769.44
640.03	1751.01
640.22	1675.24
640.41	1847.27
640.60	1746.92
640.79	1718.25
640.98	1724.39
641.17	1771.49
641.36	1818.60
641.55	1718.25
641.74	1640.42
641.92	1720.29
642.11	1689.57
642.30	1673.19
642.49	1687.53
642.68	1730.53
642.87	1783.78
643.06	1804.26
643.25	1708.01
643.44	1656.81
643.63	1751.01
643.82	1826.79
644.00	1669.09
644.19	1763.30
644.38	1656.81
644.57	1765.35
644.76	1740.77
644.95	1722.34
645.14	1763.30
645.33	1658.85
645.52	1779.68
645.71	1699.81
645.89	1697.77
646.08	1716.20
646.27	1691.62
646.46	1804.26
646.65	1724.39
646.84	1789.92
647.03	1724.39
647.22	1722.34
647.40	1718.25
647.59	1728.49
647.78	1685.48
647.97	1685.48
648.16	1691.62
648.35	1810.40
648.54	1783.78
648.73	1652.71
648.91	1798.12
649.10	1708.01
649.29	1796.07
649.48	1802.21
649.67	1642.47
649.86	1656.81
650.05	1683.43
650.23	1834.98
650.42	1650.66
650.61	1796.07
650.80	1755.11
650.99	1816.55
651.18	1812.45
651.36	1753.06
651.55	1681.38
651.74	1763.30
651.93	1748.97
652.12	1703.91
652.31	1714.15
652.49	1701.86
652.68	1685.48
652.87	1781.73
653.06	1767.40
653.25	1783.78
653.44	1712.10
653.62	1830.88
653.81	1728.49
654.00	1794.02
654.19	1722.34
654.38	1796.07
654.56	1791.97
654.75	1771.49
654.94	1751.01
655.13	1740.77
655.32	1679.33
655.51	1828.84
655.69	1720.29
655.88	1800.16
656.07	1691.62
656.26	1751.01
656.45	1679.33
656.63	1705.96
656.82	1701.86
657.01	1744.87
657.20	1656.81
657.38	1804.26
657.57	1679.33
657.76	1683.43
657.95	1791.97
658.14	1703.91
658.32	1701.86
658.51	1671.14
658.70	1734.63
658.89	1734.63
659.08	1673.19
659.26	1810.40
659.45	1636.33
659.64	1763.30
659.83	1662.95
660.01	1871.84
660.20	1767.40
660.39	1820.64
660.58	1675.24
660.76	1812.45
660.95	1656.81
661.14	1642.47
661.33	1626.09
661.51	1751.01
661.70	1808.36
661.89	1710.05
662.08	1699.81
662.26	1640.42
662.45	1687.53
662.64	1820.64
662.83	1779.68
663.01	1667.05
663.20	1742.82
663.39	1789.92
663.58	1755.11
663.76	1736.68
663.95	1722.34
664.14	1724.39
664.32	1722.34
664.51	1662.95
664.70	1669.09
664.89	1771.49
665.07	1681.38
665.26	1773.54
665.45	1691.62
665.64	1785.83
665.82	1822.69
666.01	1728.49
666.20	1689.57
666.38	1839.08
666.57	1765.35
666.76	2203.61
666.95	4493.24
667.13	10377.06
667.32	15220.50
667.51	17569.52
667.69	18788.07
667.88	17366.78
668.07	12003.14
668.25	9262.96
668.44	7948.17
668.63	7192.47
668.81	6725.53
669.00	6211.49
669.19	5566.38
669.38	4825.01
669.56	4591.55
669.75	3870.66
669.94	3377.10
670.12	2824.15
670.31	2537.43
670.50	2265.05
670.68	2050.02
670.87	1853.41
671.06	1816.55
671.24	1810.40
671.43	1785.83
671.62	1691.62
671.80	1755.11
671.99	1794.02
672.18	1695.72
672.36	1796.07
672.55	1759.21
672.74	1697.77
672.92	1716.20
673.11	1650.66
673.29	1675.24
673.48	1755.11
673.67	1701.86
673.85	1765.35
674.04	1660.90
674.23	1806.31
674.41	1810.40
674.60	1691.62
674.79	1691.62
674.97	1675.24
675.16	1783.78
675.34	1724.39
675.53	1748.97
675.72	1708.01
675.90	1841.12
676.09	1736.68
676.28	1740.77
676.46	1640.42
676.65	1773.54
676.83	1656.81
677.02	1757.16
677.21	1800.16
677.39	1671.14
677.58	1644.52
677.77	1695.72
677.95	1722.34
678.14	1773.54
678.32	1765.35
678.51	1693.67
678.70	1794.02
678.88	1632.23
679.07	1705.96
679.25	1701.86
679.44	1712.10
679.63	1712.10
679.81	1714.15
680.00	1732.58
680.18	1830.88
680.37	1734.63
680.55	1816.55
680.74	1669.09
680.93	1628.14
681.11	1652.71
681.30	1777.64
681.48	1796.07
681.67	1669.09
681.85	1697.77
682.04	1654.76
682.23	1767.40
682.41	1687.53
682.60	1701.86
682.78	1761.25
682.97	1689.57
683.15	1722.34
683.34	1671.14
683.53	1806.31
683.71	1665.00
683.90	1798.12
684.08	1787.88
684.27	1660.90
684.45	1736.68
684.64	1781.73
684.82	1740.77
685.01	1732.58
685.19	1765.35
685.38	1832.93
685.57	1728.49
685.75	1675.24
685.94	1740.77
686.12	1697.77
686.31	1675.24
686.49	1808.36
686.68	1626.09
686.86	1714.15
687.05	1783.78
687.23	1892.32
687.42	1673.19
687.60	1660.90
687.79	1730.53
687.97	1849.32
688.16	1734.63
688.34	1755.11
688.53	1628.14
688.71	1650.66
688.90	1748.97
689.08	1732.58
689.27	1660.90
689.45	1718.25
689.64	1697.77
689.82	1810.40
690.01	1683.43
690.19	1830.88
690.38	1734.63
690.56	1847.27
690.75	1681.38
690.93	1660.90
691.12	1714.15
691.30	1746.92
691.49	1701.86
691.67	1734.63
691.86	1826.79
692.04	1646.57
692.23	1673.19
692.41	1712.10
692.60	1853.41
692.78	1748.97
692.97	1710.05
693.15	1751.01
693.34	1853.41
693.52	1841.12
693.71	1710.05
693.89	1728.49
694.08	1671.14
694.26	1787.88
694.44	1751.01
694.63	1736.68
694.81	1685.48
695.00	1705.96
695.18	1834.98
695.37	1861.60
695.55	1736.68
695.74	1685.48
695.92	1703.91
696.10	1740.77
696.29	1658.85
696.47	1734.63
696.66	1724.39
696.84	1665.00
697.03	1736.68
697.21	1888.23
697.40	2375.64
697.58	1748.97
697.76	1716.20
697.95	1689.57
698.13	1652.71
698.32	1656.81
698.50	1728.49
698.68	1767.40
698.87	1726.44
699.05	1875.94
699.24	1783.78
699.42	1675.24
699.61	1687.53
699.79	1757.16
699.97	1720.29
700.16	1667.05
700.34	1638.38
700.53	1667.05
700.71	1839.08
700.89	1722.34
701.08	1728.49
701.26	1826.79
701.45	2170.85
701.63	1681.38
701.81	1718.25
702.00	1748.97
702.18	1720.29
702.37	1724.39
702.55	1673.19
702.73	1722.34
702.92	1697.77
703.10	1703.91
703.28	1757.16
703.47	1691.62
703.65	1828.84
703.84	1738.73
704.02	1722.34
704.20	1794.02
704.39	1671.14
704.57	1705.96
704.75	1783.78
704.94	1802.21
705.12	1726.44
705.30	1783.78
705.49	2316.25
705.67	4417.47
705.86	9369.46
706.04	12345.16
706.22	14196.52
706.41	15011.61
706.59	13451.06
706.77	9217.91
706.96	7229.33
707.14	6516.64
707.32	5953.45
707.51	5480.36
707.69	4779.96
707.87	4302.78
708.06	3471.31
708.24	2949.08
708.42	2346.97
708.61	2232.29
708.79	1929.19
708.97	1837.03
709.16	1812.45
709.34	1757.16
709.52	1773.54
709.71	1753.06
709.89	1798.12
710.07	1697.77
710.26	1744.87
710.44	1685.48
710.62	1791.97
710.80	1714.15
710.99	1796.07
711.17	1734.63
711.35	1609.70
711.54	1665.00
711.72	1726.44
711.90	1675.24
712.09	1722.34
712.27	1640.42
712.45	1783.78
712.63	1644.52
712.82	1742.82
713.00	1740.77
713.18	1708.01
713.37	1759.21
713.55	1720.29
713.73	1738.73
713.91	1732.58
714.10	1705.96
714.28	1689.57
714.46	1806.31
714.65	1726.44
714.83	1744.87
715.01	1732.58
715.19	1720.29
715.38	1751.01
715.56	1726.44
715.74	1652.71
715.92	1599.46
716.11	1798.12
716.29	1587.18
716.47	1746.92
716.65	1675.24
716.84	1681.38
717.02	1724.39
717.20	1605.61
717.38	1628.14
717.57	1714.15
717.75	1779.68
717.93	1636.33
718.11	1738.73
718.30	1638.38
718.48	1718.25
718.66	1693.67
718.84	1740.77
719.03	1775.59
719.21	1601.51
719.39	1796.07
719.57	1697.77
719.75	1771.49
719.94	1685.48
720.12	1652.71
720.30	1755.11
720.48	1767.40
720.67	1724.39
720.85	1695.72
721.03	1708.01
721.21	1677.29
721.39	1757.16
721.58	1748.97
721.76	1806.31
721.94	1814.50
722.12	1720.29
722.30	1736.68
722.49	1722.34
722.67	1681.38
722.85	1771.49
723.03	1685.48
723.21	1757.16
723.40	1683.43
723.58	1738.73
723.76	1675.24
723.94	1859.56
724.12	1712.10
724.30	1730.53
724.49	1718.25
724.67	1683.43
724.85	1845.22
725.03	1652.71
725.21	1820.64
725.40	1755.11
725.58	1691.62
725.76	1658.85
725.94	1787.88
726.12	1703.91
726.30	1665.00
726.49	1732.58
726.67	1634.28
726.85	1718.25
727.03	1857.51
727.21	2248.67
727.39	2908.12
727.57	3698.63
727.76	4118.47
727.94	4384.70
728.12	4261.82
728.30	3694.54
728.48	2914.26
728.66	2633.69
728.84	2484.19
729.03	2273.25
729.21	2181.09
729.39	1927.14
729.57	1800.16
729.75	1849.32
729.93	1812.45
730.11	1757.16
730.30	1746.92
730.48	1755.11
730.66	1767.40
730.84	1712.10
731.02	1648.61
731.20	1759.21
731.38	1722.34
731.56	1640.42
731.74	1722.34
731.93	1775.59
732.11	1746.92
732.29	1744.87
732.47	1789.92
732.65	1796.07
732.83	1843.17
733.01	1712.10
733.19	1630.18
733.37	1751.01
733.56	1679.33
733.74	1714.15
733.92	1757.16
734.10	1650.66
734.28	1751.01
734.46	1597.42
734.64	1730.53
734.82	1705.96
735.00	1679.33
735.18	1701.86
735.36	1763.30
735.54	1746.92
735.73	1703.91
735.91	1767.40
736.09	1761.25
736.27	1699.81
736.45	1796.07
736.63	1613.80
736.81	1687.53
736.99	1751.01
737.17	1787.88
737.35	1673.19
737.53	1746.92
737.71	1720.29
737.89	1759.21
738.07	1738.73
738.25	1693.67
738.43	1617.90
738.61	1697.77
738.80	1644.52
738.98	1699.81
739.16	1701.86
739.34	1648.61
739.52	1783.78
739.70	1755.11
739.88	1765.35
740.06	1708.01
740.24	1658.85
740.42	1763.30
740.60	1595.37
740.78	1712.10
740.96	1652.71
741.14	1599.46
741.32	1611.75
741.50	1626.09
741.68	1849.32
741.86	1763.30
742.04	1685.48
742.22	1630.18
742.40	1675.24
742.58	1775.59
742.76	1677.29
742.94	1726.44
743.12	1611.75
743.30	1699.81
743.48	1722.34
743.66	1677.29
743.84	1728.49
744.02	1699.81
744.20	1718.25
744.38	1701.86
744.56	1648.61
744.74	1736.68
744.92	1656.81
745.10	1708.01
745.28	1816.55
745.46	1873.89
745.64	1677.29
745.82	1730.53
746.00	1767.40
746.18	1710.05
746.36	1628.14
746.54	1708.01
746.72	1716.20
746.90	1687.53
747.08	1830.88
747.26	1685.48
747.44	1714.15
747.62	1781.73
747.80	1730.53
747.98	1804.26
748.15	1714.15
748.33	1847.27
748.51	1683.43
748.69	1726.44
748.87	1683.43
749.05	1691.62
749.23	1701.86
749.41	1742.82
749.59	1693.67
749.77	1765.35
749.95	1652.71
750.13	1720.29
750.31	1732.58
750.49	1701.86
750.67	1847.27
750.85	1824.74
751.03	1705.96
751.20	1787.88
751.38	1787.88
751.56	1697.77
751.74	1675.24
751.92	1673.19
752.10	1660.90
752.28	1785.83
752.46	1634.28
752.64	1708.01
752.82	1714.15
753.00	1755.11
753.18	1667.05
753.35	1746.92
753.53	1699.81
753.71	1660.90
753.89	1691.62
754.07	1691.62
754.25	1724.39
754.43	1689.57
754.61	1636.33
754.79	1777.64
754.97	1710.05
755.14	1736.68
755.32	1695.72
755.50	1689.57
755.68	1667.05
755.86	1693.67
756.04	1728.49
756.22	1628.14
756.40	1783.78
756.57	1839.08
756.75	1712.10
756.93	1724.39
757.11	1794.02
757.29	1685.48
757.47	1730.53
757.65	1656.81
757.82	1585.13
758.00	1722.34
758.18	1712.10
758.36	1630.18
758.54	1789.92
758.72	1581.03
758.90	1775.59
759.07	1767.40
759.25	1669.09
759.43	1710.05
759.61	1722.34
759.79	2213.85
759.97	1742.82
760.15	1689.57
760.32	1673.19
760.50	1736.68
760.68	1863.65
760.86	1638.38
761.04	1781.73
761.22	1720.29
761.39	1757.16
761.57	1734.63
761.75	1718.25
761.93	1740.77
762.11	1722.34
762.28	1753.06
762.46	1650.66
762.64	1798.12
762.82	1562.60
763.00	1685.48
763.18	1753.06
763.35	1673.19
763.53	1814.50
763.71	1751.01
763.89	1751.01
764.07	1726.44
764.24	1683.43
764.42	1724.39
764.60	1695.72
764.78	1804.26
764.96	1755.11
765.13	1761.25
765.31	1724.39
765.49	1708.01
765.67	1624.04
765.84	1677.29
766.02	1748.97
766.20	1656.81
766.38	1751.01
766.56	1789.92
766.73	1746.92
766.91	1701.86
767.09	1753.06
767.27	1675.24
767.44	1644.52
767.62	1785.83
767.80	1675.24
767.98	1736.68
768.15	1681.38
768.33	1734.63
768.51	1718.25
768.69	1834.98
768.87	1685.48
769.04	1705.96
769.22	1816.55
769.40	1832.93
769.58	1828.84
769.75	1728.49
769.93	1855.46
770.11	1728.49
770.28	1662.95
770.46	1785.83
770.64	1714.15
770.82	1703.91
770.99	1710.05
771.17	1734.63
771.35	1710.05
771.53	1726.44
771.70	1722.34
771.88	1779.68
772.06	1712.10
772.23	1662.95
772.41	1730.53
772.59	1701.86
772.77	1626.09
772.94	1705.96
773.12	1718.25
773.30	1791.97
773.47	1695.72
773.65	1689.57
773.83	1886.18
774.01	1730.53
774.18	1669.09
774.36	1671.14
774.54	1669.09
774.71	1703.91
774.89	1615.85
775.07	1687.53
775.24	1652.71
775.42	1640.42
775.60	1869.80
775.78	1681.38
775.95	1636.33
776.13	1619.94
776.31	1601.51
776.48	1779.68
776.66	1773.54
776.84	1753.06
777.01	1738.73
777.19	1673.19
777.37	1677.29
777.54	1759.21
777.72	1861.60
777.90	1712.10
778.07	1699.81
778.25	1814.50
778.43	1761.25
778.60	1628.14
778.78	1732.58
778.96	1820.64
779.13	1603.56
779.31	1779.68
779.49	1669.09
779.66	1609.70
779.84	1701.86
780.01	1759.21
780.19	1679.33
780.37	1804.26
780.54	1722.34
780.72	1705.96
780.90	1636.33
781.07	1689.57
781.25	1642.47
781.43	1791.97
781.60	1679.33
781.78	1755.11
781.95	1777.64
782.13	1642.47
782.31	1675.24
782.48	1675.24
782.66	1767.40
782.83	1824.74
783.01	1759.21
783.19	1769.44
783.36	1673.19
783.54	1650.66
783.72	1681.38
783.89	1683.43
784.07	1740.77
784.24	1714.15
784.42	1781.73
784.60	1677.29
784.77	1705.96
784.95	1572.84
785.12	1769.44
785.30	1773.54
785.47	1761.25
785.65	1644.52
785.83	1667.05
786.00	1669.09
786.18	1710.05
786.35	1611.75
786.53	1658.85
786.71	1812.45
786.88	1740.77
787.06	1697.77
787.23	1728.49
787.41	1644.52
787.58	1824.74
787.76	1732.58
787.94	1685.48
788.11	1703.91
788.29	1667.05
788.46	1738.73
788.64	1685.48
788.81	1751.01
788.99	1640.42
789.16	1710.05
789.34	1755.11
789.52	1718.25
789.69	1734.63
789.87	1578.98
790.04	1667.05
790.22	1650.66
790.39	1841.12
790.57	1683.43
790.74	1656.81
790.92	1771.49
791.09	1677.29
791.27	1710.05
791.44	1730.53
791.62	1665.00
791.79	1773.54
791.97	1699.81
792.15	1875.94
792.32	1736.68
792.50	1658.85
792.67	1767.40
792.85	1806.31
793.02	1718.25
793.20	1687.53
793.37	1609.70
793.55	1658.85
793.72	1697.77
793.90	1722.34
794.07	1769.44
794.25	1673.19
794.42	1748.97
794.60	1726.44
794.77	1703.91
794.95	1769.44
795.12	1748.97
795.30	1626.09
795.47	1589.22
795.65	1816.55
795.82	1734.63
796.00	1662.95
796.17	1726.44
796.34	1652.71
796.52	1714.15
796.69	1779.68
796.87	1759.21
797.04	1773.54
797.22	1730.53
797.39	1720.29
797.57	1761.25
797.74	1730.53
797.92	1759.21
798.09	1658.85
798.27	1843.17
798.44	1708.01
798.62	1644.52
798.79	1708.01
798.96	1824.74
799.14	1693.67
799.31	1812.45
799.49	1675.24
799.66	1652.71
799.84	1722.34
800.01	1736.68
800.19	1724.39
800.36	1542.12
800.53	1685.48
800.71	1751.01
800.88	1787.88
801.06	1701.86
801.23	1716.20
801.41	1693.67
801.58	1728.49
801.75	1669.09
801.93	1689.57
802.10	1738.73
802.28	1640.42
802.45	1677.29
802.63	1796.07
802.80	1740.77
802.97	1683.43
803.15	1781.73
803.32	1687.53
803.50	1665.00
803.67	1695.72
803.84	1611.75
804.02	1761.25
804.19	1742.82
804.37	1595.37
804.54	1640.42
804.71	1714.15
804.89	1722.34
805.06	1615.85
805.24	1718.25
805.41	1689.57
805.58	1695.72
805.76	1869.80
805.93	1697.77
806.10	1853.41
806.28	1757.16
806.45	1742.82
806.63	1796.07
806.80	1767.40
806.97	1738.73
807.15	1738.73
807.32	1724.39
807.49	1753.06
807.67	1626.09
807.84	1748.97
808.01	1609.70
808.19	1851.36
808.36	1802.21
808.54	1691.62
808.71	1621.99
808.88	1689.57
809.06	1746.92
809.23	1787.88
809.40	1757.16
809.58	1722.34
809.75	1722.34
809.92	1607.66
810.10	1763.30
810.27	1703.91
810.44	1744.87
810.62	1718.25
810.79	1779.68
810.96	1687.53
811.14	1687.53
811.31	1785.83
811.48	1796.07
811.66	1800.16
811.83	1720.29
812.00	1726.44
812.18	1720.29
812.35	1804.26
812.52	1665.00
812.69	1644.52
812.87	1736.68
813.04	1630.18
813.21	1687.53
813.39	1636.33
813.56	1652.71
813.73	1714.15
813.91	1673.19
814.08	1718.25
814.25	1687.53
814.42	1673.19
814.60	1701.86
814.77	1677.29
814.94	1763.30
815.12	1656.81
815.29	1744.87
815.46	1697.77
815.63	1751.01
815.81	1753.06
815.98	1595.37
816.15	1751.01
816.33	1732.58
816.50	1679.33
816.67	1646.57
816.84	1730.53
817.02	1638.38
817.19	1679.33
817.36	1687.53
817.53	1697.77
817.71	1728.49
817.88	1800.16
818.05	1617.90
818.22	1736.68
818.40	1867.75
818.57	1701.86
818.74	1695.72
818.91	1732.58
819.09	1767.40
819.26	1808.36
819.43	1697.77
819.60	1615.85
819.78	1699.81
819.95	1746.92
820.12	1609.70
820.29	1771.49
820.47	1796.07
820.64	1648.61
820.81	1619.94
820.98	1619.94
821.15	1730.53
821.33	1783.78
821.50	1630.18
821.67	1740.77
821.84	1662.95
822.02	1773.54
822.19	1730.53
822.36	1667.05
822.53	1624.04
822.70	1710.05
822.88	1652.71
823.05	1796.07
823.22	1751.01
823.39	1843.17
823.56	1730.53
823.74	1785.83
823.91	1640.42
824.08	1652.71
824.25	1683.43
824.42	1818.60
824.60	1695.72
824.77	1689.57
824.94	1738.73
825.11	1748.97
825.28	1662.95
825.45	1638.38
825.63	1734.63
825.80	1638.38
825.97	1714.15
826.14	1722.34
826.31	1626.09
826.48	1748.97
826.66	1689.57
826.83	1701.86
827.00	1726.44
827.17	1658.85
827.34	1636.33
827.51	1695.72
827.69	1769.44
827.86	1665.00
828.03	1693.67
828.20	1708.01
828.37	1662.95
828.54	1759.21
828.71	1617.90
828.89	1787.88
829.06	1773.54
829.23	1843.17
829.40	1603.56
829.57	1693.67
829.74	1669.09
829.91	1642.47
830.09	1638.38
830.26	1677.29
830.43	1808.36
830.60	1658.85
830.77	1779.68
830.94	1804.26
831.11	1841.12
831.28	1724.39
831.46	1656.81
831.63	1677.29
831.80	1714.15
831.97	1652.71
832.14	1646.57
832.31	1738.73
832.48	1738.73
832.65	1736.68
832.82	1669.09
832.99	1638.38
833.17	1648.61
833.34	1746.92
833.51	1619.94
833.68	1607.66
833.85	1832.93
834.02	1665.00
834.19	1609.70
834.36	1626.09
834.53	1744.87
834.70	1773.54
834.87	1798.12
835.04	1681.38
835.22	1656.81
835.39	1685.48
835.56	1621.99
835.73	1658.85
835.90	1808.36
836.07	1593.32
836.24	1804.26
836.41	1654.76
836.58	1660.90
836.75	1761.25
836.92	1687.53
837.09	1667.05
837.26	1677.29
837.43	1779.68
837.60	1720.29
837.77	1675.24
837.94	1783.78
838.12	1818.60
838.29	1789.92
838.46	1658.85
838.63	1671.14
838.80	1816.55
838.97	1703.91
839.14	1708.01
839.31	1791.97
839.48	1783.78
839.65	1681.38
839.82	1804.26
839.99	1755.11
840.16	1708.01
840.33	1671.14
840.50	1722.34
840.67	1640.42
840.84	1593.32
841.01	1757.16
841.18	1697.77
841.35	1708.01
841.52	1794.02
841.69	1804.26
841.86	1718.25
842.03	1720.29
842.20	1744.87
842.37	1763.30
842.54	1751.01
842.71	1699.81
842.88	1609.70
843.05	1777.64
843.22	1724.39
843.39	1683.43
843.56	1675.24
843.73	1794.02
843.90	1757.16
844.07	1681.38
844.24	1730.53
844.41	1671.14
844.58	1714.15
844.75	1720.29
844.92	1732.58
845.09	1716.20
845.26	1693.67
845.43	1732.58
845.60	1759.21
845.77	1785.83
845.94	1710.05
846.10	1773.54
846.27	1609.70
846.44	1701.86
846.61	1738.73
846.78	1609.70
846.95	1728.49
847.12	1701.86
847.29	1742.82
847.46	1611.75
847.63	1783.78
847.80	1660.90
847.97	1726.44
848.14	1880.04
848.31	1736.68
848.48	1665.00
848.65	1634.28
848.82	1603.56
848.98	1910.75
849.15	1746.92
849.32	1757.16
849.49	1767.40
849.66	1722.34
849.83	1804.26
850.00	1648.61
850.17	1753.06
850.34	1714.15
850.51	1632.23
850.68	1617.90
850.85	1789.92
851.01	1728.49
851.18	1759.21
851.35	1718.25
851.52	1701.86
851.69	1826.79
851.86	1652.71
852.03	1691.62
852.20	1763.30
852.37	1648.61
852.53	1644.52
852.70	1761.25
852.87	1703.91
853.04	1789.92
853.21	1679.33
853.38	1814.50
853.55	1767.40
853.72	1783.78
853.89	1718.25
854.05	1615.85
854.22	1705.96
854.39	1763.30
854.56	1685.48
854.73	1814.50
854.90	1695.72
855.07	1728.49
855.23	1607.66
855.40	1673.19
855.57	1640.42
855.74	1554.41
855.91	1902.56
856.08	1724.39
856.25	1619.94
856.41	1714.15
856.58	1683.43
856.75	1767.40
856.92	1660.90
857.09	1783.78
857.26	1662.95
857.42	1701.86
857.59	1775.59
857.76	1650.66
857.93	1751.01
858.10	1738.73
858.27	1779.68
858.43	1710.05
858.60	1716.20
858.77	1650.66
858.94	1730.53
859.11	1779.68
859.27	1675.24
859.44	1652.71
859.61	1818.60
859.78	1755.11
859.95	1673.19
860.12	1656.81
860.28	1830.88
860.45	1828.84
860.62	1648.61
860.79	1712.10
860.95	1679.33
861.12	1640.42
861.29	1665.00
861.46	1654.76
861.63	1628.14
861.79	1687.53
861.96	1660.90
862.13	1677.29
862.30	1830.88
862.47	1652.71
862.63	1689.57
862.80	1697.77
862.97	1738.73
863.14	1724.39
863.30	1755.11
863.47	1644.52
863.64	1781.73
863.81	1761.25
863.97	1681.38
864.14	1746.92
864.31	1681.38
864.48	1812.45
864.65	1710.05
864.81	1742.82
864.98	1826.79
865.15	1636.33
865.32	1746.92
865.48	1746.92
865.65	1877.99
865.82	1697.77
865.98	1734.63
866.15	1722.34
866.32	1613.80
866.49	1757.16
866.65	1791.97
866.82	1611.75
866.99	1691.62
867.16	1718.25
867.32	1689.57
867.49	1667.05
867.66	1734.63
867.83	1726.44
867.99	1533.93
868.16	1730.53
868.33	1642.47
868.49	1769.44
868.66	1718.25
868.83	1794.02
868.99	1718.25
869.16	1718.25
869.33	1779.68
869.50	1765.35
869.66	1599.46
869.83	1734.63
870.00	1658.85
870.16	1779.68
870.33	1669.09
870.50	1763.30
870.66	1714.15
870.83	1783.78
871.00	1755.11
871.17	1765.35
871.33	1751.01
871.50	1665.00
871.67	1693.67
871.83	1619.94
872.00	1773.54
872.17	1753.06
872.33	1769.44
872.50	1730.53
872.67	1710.05
872.83	1712.10
873.00	1742.82
873.17	1691.62
873.33	1716.20
873.50	1781.73
873.67	1683.43
873.83	1683.43
874.00	1697.77
874.16	1693.67
874.33	1705.96
874.50	1703.91
874.66	1730.53
874.83	1710.05
875.00	1761.25
875.16	1773.54
875.33	1744.87
875.50	1591.27
875.66	1662.95
875.83	1730.53
875.99	1755.11
876.16	1701.86
876.33	1687.53
876.49	1685.48
876.66	1712.10
876.83	1691.62
876.99	1634.28
877.16	1689.57
877.32	1693.67
877.49	1607.66
877.66	1617.90
877.82	1730.53
877.99	1714.15
878.15	1757.16
878.32	1675.24
878.49	1685.48
878.65	1695.72
878.82	1785.83
878.98	1667.05
879.15	1724.39
879.32	1851.36
879.48	1787.88
879.65	1710.05
879.81	1722.34
879.98	1673.19
880.15	1685.48
880.31	1777.64
880.48	1757.16
880.64	1718.25
880.81	1671.14
880.97	1787.88
881.14	1732.58
881.31	1636.33
881.47	1902.56
881.64	1705.96
881.80	1695.72
881.97	1718.25
882.13	1742.82
882.30	1683.43
882.47	1665.00
882.63	1589.22
882.80	1730.53
882.96	1662.95
883.13	1759.21
883.29	1710.05
883.46	1714.15
883.62	1857.51
883.79	1662.95
883.95	1794.02
884.12	1605.61
884.29	1824.74
884.45	1722.34
884.62	1830.88
884.78	1656.81
884.95	1794.02
885.11	1642.47
885.28	1773.54
885.44	1632.23
885.61	1742.82
885.77	1849.32
885.94	1660.90
886.10	1714.15
886.27	1730.53
886.43	1783.78
886.60	1818.60
886.76	1644.52
886.93	1675.24
887.09	1689.57
887.26	1644.52
887.42	1701.86
887.59	1853.41
887.75	1740.77
887.92	1843.17
888.08	1828.84
888.25	1806.31
888.41	1814.50
888.58	1658.85
888.74	1683.43
888.91	1644.52
>>>>>End Processed Spectral Data<<<<<
