SpectraSuite Data File
++++++++++++++++++++++++++++++++++++
Date: Mon Jun 06 15:24:57 CEST 2016
User: root
Dark Spectrum Present: No
Reference Spectrum Present: No
Number of Sampled Component Spectra: 1
Spectrometers: USB4C02835
Integration Time (usec): 100000 (USB4C02835)
Spectra Averaged: 1 (USB4C02835)
Boxcar Smoothing: 0 (USB4C02835)
Correct for Electrical Dark: No (USB4C02835)
Strobe/Lamp Enabled: No (USB4C02835)
Correct for Detector Non-linearity: No (USB4C02835)
Correct for Stray Light: No (USB4C02835)
Number of Pixels in Processed Spectrum: 3648
>>>>>Begin Processed Spectral Data<<<<<
177.47	1462.25
177.69	1462.25
177.91	1462.25
178.13	1480.68
178.36	1497.07
178.58	1767.40
178.80	1753.06
179.02	1667.05
179.24	1591.27
179.46	1677.29
179.68	1757.16
179.90	1673.19
180.13	1759.21
180.35	1697.77
180.57	1705.96
180.79	1787.88
181.01	1751.01
181.23	1740.77
181.45	1832.93
181.67	1685.48
181.90	1685.48
182.12	1685.48
182.34	1689.57
182.56	1789.92
182.78	1667.05
183.00	1697.77
183.22	1703.91
183.44	1556.46
183.66	1806.31
183.89	1800.16
184.11	1716.20
184.33	1828.84
184.55	1808.36
184.77	1765.35
184.99	1740.77
185.21	1603.56
185.43	1828.84
185.65	1714.15
185.87	1746.92
186.10	1849.32
186.32	1847.27
186.54	1748.97
186.76	1798.12
186.98	1697.77
187.20	1681.38
187.42	1724.39
187.64	1667.05
187.86	1689.57
188.08	1773.54
188.30	1673.19
188.52	1740.77
188.75	1753.06
188.97	1789.92
189.19	1673.19
189.41	1689.57
189.63	1779.68
189.85	1691.62
190.07	1658.85
190.29	1650.66
190.51	1814.50
190.73	1624.04
190.95	1726.44
191.17	1703.91
191.39	1667.05
191.61	1624.04
191.84	1703.91
192.06	1761.25
192.28	1652.71
192.50	1931.23
192.72	1791.97
192.94	1708.01
193.16	1791.97
193.38	1724.39
193.60	1665.00
193.82	1632.23
194.04	1722.34
194.26	1726.44
194.48	1771.49
194.70	1665.00
194.92	1755.11
195.14	1748.97
195.36	1751.01
195.58	1689.57
195.80	1691.62
196.02	1673.19
196.24	1662.95
196.46	1722.34
196.69	1730.53
196.91	1863.65
197.13	1644.52
197.35	1726.44
197.57	1779.68
197.79	1734.63
198.01	1769.44
198.23	1773.54
198.45	1689.57
198.67	1572.84
198.89	1703.91
199.11	1755.11
199.33	1689.57
199.55	1640.42
199.77	1755.11
199.99	1769.44
200.21	1730.53
200.43	1728.49
200.65	1665.00
200.87	1669.09
201.09	1671.14
201.31	1701.86
201.53	1736.68
201.75	1783.78
201.97	1630.18
202.19	1673.19
202.41	1771.49
202.63	1845.22
202.85	1712.10
203.07	1738.73
203.29	1665.00
203.51	1673.19
203.73	1591.27
203.95	1865.70
204.17	1779.68
204.39	1689.57
204.61	1732.58
204.83	1703.91
205.05	1847.27
205.27	1769.44
205.49	1890.28
205.71	1716.20
205.93	1591.27
206.15	1699.81
206.37	1687.53
206.59	1740.77
206.81	1697.77
207.03	1720.29
207.25	1636.33
207.47	1677.29
207.69	1742.82
207.91	1783.78
208.13	1791.97
208.34	1710.05
208.56	1648.61
208.78	1771.49
209.00	1695.72
209.22	1644.52
209.44	1773.54
209.66	1724.39
209.88	1681.38
210.10	1671.14
210.32	1689.57
210.54	1730.53
210.76	1613.80
210.98	1748.97
211.20	1654.76
211.42	1787.88
211.64	1759.21
211.86	1722.34
212.08	1769.44
212.30	1665.00
212.52	1679.33
212.74	1798.12
212.96	1736.68
213.17	1726.44
213.39	1744.87
213.61	1753.06
213.83	1644.52
214.05	1703.91
214.27	1802.21
214.49	1673.19
214.71	1646.57
214.93	1779.68
215.15	1697.77
215.37	1744.87
215.59	1654.76
215.81	1691.62
216.03	1837.03
216.24	1779.68
216.46	1613.80
216.68	1683.43
216.90	1681.38
217.12	1810.40
217.34	1712.10
217.56	1787.88
217.78	1802.21
218.00	1746.92
218.22	1683.43
218.44	1712.10
218.66	1783.78
218.87	1736.68
219.09	1738.73
219.31	1681.38
219.53	1738.73
219.75	1660.90
219.97	1701.86
220.19	1705.96
220.41	1732.58
220.63	1839.08
220.85	1642.47
221.06	1652.71
221.28	1789.92
221.50	1724.39
221.72	1718.25
221.94	1673.19
222.16	1812.45
222.38	1720.29
222.60	1691.62
222.82	1718.25
223.03	1814.50
223.25	1673.19
223.47	1775.59
223.69	1779.68
223.91	1705.96
224.13	1689.57
224.35	1689.57
224.57	1798.12
224.78	1773.54
225.00	1665.00
225.22	1667.05
225.44	1673.19
225.66	1722.34
225.88	1796.07
226.10	1757.16
226.32	1640.42
226.53	1798.12
226.75	1699.81
226.97	1642.47
227.19	1720.29
227.41	1748.97
227.63	1626.09
227.85	1619.94
228.06	1775.59
228.28	1724.39
228.50	1740.77
228.72	1675.24
228.94	1734.63
229.16	1568.74
229.37	1656.81
229.59	1673.19
229.81	1783.78
230.03	1714.15
230.25	1574.89
230.47	1644.52
230.69	1718.25
230.90	1763.30
231.12	1609.70
231.34	1812.45
231.56	1738.73
231.78	1705.96
232.00	1742.82
232.21	1660.90
232.43	1697.77
232.65	1554.41
232.87	1693.67
233.09	1658.85
233.30	1695.72
233.52	1757.16
233.74	1697.77
233.96	1736.68
234.18	1703.91
234.40	1751.01
234.61	1808.36
234.83	1603.56
235.05	1669.09
235.27	1880.04
235.49	1779.68
235.70	1716.20
235.92	1753.06
236.14	1759.21
236.36	1824.74
236.58	1607.66
236.79	1789.92
237.01	1771.49
237.23	1748.97
237.45	1847.27
237.67	1638.38
237.88	1751.01
238.10	1781.73
238.32	1673.19
238.54	1720.29
238.76	1710.05
238.97	1640.42
239.19	1710.05
239.41	1728.49
239.63	1779.68
239.85	1736.68
240.06	1714.15
240.28	1716.20
240.50	1720.29
240.72	1683.43
240.93	1671.14
241.15	1796.07
241.37	1679.33
241.59	1808.36
241.81	1775.59
242.02	1640.42
242.24	1695.72
242.46	1740.77
242.68	1675.24
242.89	1763.30
243.11	1695.72
243.33	1652.71
243.55	1800.16
243.76	1738.73
243.98	1652.71
244.20	1703.91
244.42	1744.87
244.64	1667.05
244.85	1740.77
245.07	1693.67
245.29	1765.35
245.51	1720.29
245.72	1761.25
245.94	1755.11
246.16	1765.35
246.38	1648.61
246.59	1669.09
246.81	1613.80
247.03	1732.58
247.24	1634.28
247.46	1734.63
247.68	1714.15
247.90	1716.20
248.11	1705.96
248.33	1748.97
248.55	1732.58
248.77	1736.68
248.98	1718.25
249.20	1781.73
249.42	1656.81
249.64	1716.20
249.85	1697.77
250.07	1703.91
250.29	1728.49
250.50	1769.44
250.72	1568.74
250.94	1726.44
251.16	1888.23
251.37	1828.84
251.59	1755.11
251.81	1828.84
252.02	1808.36
252.24	1699.81
252.46	1787.88
252.68	1710.05
252.89	1605.61
253.11	1607.66
253.33	1851.36
253.54	1857.51
253.76	1617.90
253.98	1687.53
254.20	1681.38
254.41	1613.80
254.63	1652.71
254.85	1679.33
255.06	1693.67
255.28	1710.05
255.50	1687.53
255.71	1716.20
255.93	1558.50
256.15	1708.01
256.36	1679.33
256.58	1730.53
256.80	1753.06
257.02	1689.57
257.23	1669.09
257.45	1679.33
257.67	1681.38
257.88	1632.23
258.10	1755.11
258.32	1681.38
258.53	1736.68
258.75	1904.61
258.97	1699.81
259.18	1693.67
259.40	1697.77
259.62	1824.74
259.83	1812.45
260.05	1722.34
260.27	2035.68
260.48	1730.53
260.70	1693.67
260.92	1736.68
261.13	1689.57
261.35	1697.77
261.57	1677.29
261.78	1574.89
262.00	1712.10
262.22	1722.34
262.43	1705.96
262.65	1718.25
262.86	1714.15
263.08	1716.20
263.30	1777.64
263.51	1613.80
263.73	1634.28
263.95	1781.73
264.16	1669.09
264.38	1712.10
264.60	1781.73
264.81	1656.81
265.03	1853.41
265.25	1755.11
265.46	1691.62
265.68	1746.92
265.89	1734.63
266.11	1570.79
266.33	1722.34
266.54	1769.44
266.76	1736.68
266.98	1714.15
267.19	1763.30
267.41	1800.16
267.62	1783.78
267.84	1656.81
268.06	1738.73
268.27	1724.39
268.49	1816.55
268.70	1771.49
268.92	1730.53
269.14	1626.09
269.35	1628.14
269.57	1775.59
269.79	1738.73
270.00	1681.38
270.22	1736.68
270.43	1685.48
270.65	1554.41
270.87	1783.78
271.08	1656.81
271.30	1673.19
271.51	1783.78
271.73	1726.44
271.95	1755.11
272.16	1714.15
272.38	1763.30
272.59	1718.25
272.81	1773.54
273.02	1669.09
273.24	1730.53
273.46	1714.15
273.67	1712.10
273.89	1736.68
274.10	1728.49
274.32	1834.98
274.54	1808.36
274.75	1726.44
274.97	1644.52
275.18	1705.96
275.40	1787.88
275.61	1726.44
275.83	1798.12
276.05	1628.14
276.26	1734.63
276.48	1755.11
276.69	1748.97
276.91	1662.95
277.12	1767.40
277.34	1759.21
277.55	1812.45
277.77	1699.81
277.99	1644.52
278.20	1619.94
278.42	1779.68
278.63	1681.38
278.85	1714.15
279.06	1593.32
279.28	1718.25
279.49	1732.58
279.71	1732.58
279.93	1654.76
280.14	1687.53
280.36	1689.57
280.57	1757.16
280.79	1804.26
281.00	1658.85
281.22	1689.57
281.43	1812.45
281.65	1599.46
281.86	1658.85
282.08	1720.29
282.29	1804.26
282.51	1658.85
282.73	1710.05
282.94	1673.19
283.16	1693.67
283.37	1751.01
283.59	1738.73
283.80	1751.01
284.02	1744.87
284.23	1738.73
284.45	1595.37
284.66	1687.53
284.88	1669.09
285.09	1697.77
285.31	1712.10
285.52	1755.11
285.74	1699.81
285.95	1753.06
286.17	1814.50
286.38	1746.92
286.60	1714.15
286.81	1675.24
287.03	1669.09
287.24	1697.77
287.46	1738.73
287.67	1710.05
287.89	1863.65
288.10	1648.61
288.32	1787.88
288.53	1763.30
288.75	1656.81
288.96	1728.49
289.18	1720.29
289.39	1673.19
289.61	1818.60
289.82	1898.47
290.04	1830.88
290.25	1654.76
290.47	1718.25
290.68	1638.38
290.90	1710.05
291.11	1722.34
291.33	1728.49
291.54	1685.48
291.76	1652.71
291.97	1710.05
292.18	1826.79
292.40	1636.33
292.61	1732.58
292.83	1843.17
293.04	1746.92
293.26	1687.53
293.47	1828.84
293.69	1697.77
293.90	1632.23
294.12	1761.25
294.33	1632.23
294.55	1681.38
294.76	1800.16
294.97	1798.12
295.19	1855.46
295.40	1673.19
295.62	1746.92
295.83	1761.25
296.05	1621.99
296.26	1689.57
296.48	1648.61
296.69	1691.62
296.90	1775.59
297.12	1712.10
297.33	1798.12
297.55	1771.49
297.76	1755.11
297.98	1800.16
298.19	1652.71
298.41	1726.44
298.62	1695.72
298.83	1796.07
299.05	1808.36
299.26	1642.47
299.48	1693.67
299.69	1779.68
299.90	1781.73
300.12	1634.28
300.33	1800.16
300.55	1755.11
300.76	1693.67
300.98	1667.05
301.19	1798.12
301.40	1691.62
301.62	1718.25
301.83	1730.53
302.05	1738.73
302.26	1794.02
302.47	1853.41
302.69	1615.85
302.90	1708.01
303.12	1730.53
303.33	1787.88
303.54	1804.26
303.76	1697.77
303.97	1818.60
304.19	1767.40
304.40	1646.57
304.61	1751.01
304.83	1869.80
305.04	1738.73
305.26	1751.01
305.47	1656.81
305.68	1697.77
305.90	1648.61
306.11	1791.97
306.33	1574.89
306.54	1753.06
306.75	1732.58
306.97	1646.57
307.18	1617.90
307.39	1660.90
307.61	1726.44
307.82	1697.77
308.04	1751.01
308.25	1581.03
308.46	1755.11
308.68	1736.68
308.89	1669.09
309.10	1771.49
309.32	1701.86
309.53	1705.96
309.74	1771.49
309.96	1740.77
310.17	1757.16
310.39	1693.67
310.60	1812.45
310.81	1785.83
311.03	1652.71
311.24	1708.01
311.45	1753.06
311.67	1820.64
311.88	1765.35
312.09	1777.64
312.31	1673.19
312.52	1714.15
312.73	1701.86
312.95	1689.57
313.16	1632.23
313.37	1722.34
313.59	1736.68
313.80	1716.20
314.01	1738.73
314.23	1699.81
314.44	1742.82
314.65	1681.38
314.87	1581.03
315.08	1642.47
315.29	1656.81
315.51	1665.00
315.72	1730.53
315.93	1837.03
316.15	1755.11
316.36	1695.72
316.57	1794.02
316.79	1804.26
317.00	1703.91
317.21	1781.73
317.43	1681.38
317.64	1748.97
317.85	1669.09
318.07	1677.29
318.28	1828.84
318.49	1935.33
318.70	1906.66
318.92	1810.40
319.13	1837.03
319.34	1796.07
319.56	1708.01
319.77	1802.21
319.98	1777.64
320.20	1841.12
320.41	1722.34
320.62	1751.01
320.83	1654.76
321.05	1808.36
321.26	1732.58
321.47	1679.33
321.69	1849.32
321.90	1615.85
322.11	1673.19
322.32	1693.67
322.54	1779.68
322.75	1681.38
322.96	1796.07
323.18	1681.38
323.39	1630.18
323.60	1777.64
323.81	1710.05
324.03	1681.38
324.24	1683.43
324.45	1679.33
324.66	1708.01
324.88	1808.36
325.09	1828.84
325.30	1662.95
325.52	1757.16
325.73	1771.49
325.94	1660.90
326.15	1626.09
326.37	1697.77
326.58	1789.92
326.79	1886.18
327.00	1642.47
327.22	1675.24
327.43	1718.25
327.64	1626.09
327.85	1740.77
328.07	1718.25
328.28	1816.55
328.49	1630.18
328.70	1689.57
328.92	1671.14
329.13	1662.95
329.34	1728.49
329.55	1867.75
329.76	1765.35
329.98	1703.91
330.19	1794.02
330.40	1789.92
330.61	1708.01
330.83	1720.29
331.04	1636.33
331.25	1710.05
331.46	1650.66
331.68	1677.29
331.89	1818.60
332.10	1710.05
332.31	1669.09
332.52	1570.79
332.74	1757.16
332.95	1648.61
333.16	1705.96
333.37	1798.12
333.58	1658.85
333.80	1714.15
334.01	1640.42
334.22	1701.86
334.43	1724.39
334.64	1742.82
334.86	1665.00
335.07	1640.42
335.28	1771.49
335.49	1669.09
335.70	1724.39
335.92	1816.55
336.13	1837.03
336.34	1763.30
336.55	1675.24
336.76	1755.11
336.98	1603.56
337.19	1712.10
337.40	1818.60
337.61	1826.79
337.82	1648.61
338.04	1662.95
338.25	1712.10
338.46	1644.52
338.67	1724.39
338.88	1708.01
339.09	1601.51
339.31	1669.09
339.52	1742.82
339.73	1662.95
339.94	1683.43
340.15	1679.33
340.36	1599.46
340.58	1746.92
340.79	1708.01
341.00	1763.30
341.21	1605.61
341.42	1843.17
341.63	1656.81
341.85	1763.30
342.06	1671.14
342.27	1693.67
342.48	1808.36
342.69	1624.04
342.90	1609.70
343.12	1716.20
343.33	1648.61
343.54	1755.11
343.75	1798.12
343.96	1679.33
344.17	1703.91
344.38	1689.57
344.60	1619.94
344.81	1656.81
345.02	1677.29
345.23	1791.97
345.44	1857.51
345.65	1773.54
345.86	1730.53
346.07	1759.21
346.29	1695.72
346.50	1708.01
346.71	1779.68
346.92	1724.39
347.13	1886.18
347.34	1687.53
347.55	1714.15
347.76	1708.01
347.98	1675.24
348.19	1718.25
348.40	1800.16
348.61	1626.09
348.82	1796.07
349.03	1767.40
349.24	1687.53
349.45	1845.22
349.66	1640.42
349.88	1699.81
350.09	1648.61
350.30	1753.06
350.51	1804.26
350.72	1683.43
350.93	1787.88
351.14	1769.44
351.35	1736.68
351.56	1677.29
351.77	1722.34
351.99	1742.82
352.20	1875.94
352.41	1818.60
352.62	1574.89
352.83	1730.53
353.04	1703.91
353.25	1605.61
353.46	1791.97
353.67	1746.92
353.88	1640.42
354.09	1683.43
354.30	1748.97
354.52	1767.40
354.73	1701.86
354.94	1722.34
355.15	1658.85
355.36	1791.97
355.57	1705.96
355.78	1701.86
355.99	1716.20
356.20	1603.56
356.41	1742.82
356.62	1746.92
356.83	1687.53
357.04	1800.16
357.25	1644.52
357.46	1728.49
357.68	1671.14
357.89	1568.74
358.10	1775.59
358.31	1724.39
358.52	1710.05
358.73	1683.43
358.94	1740.77
359.15	1650.66
359.36	1765.35
359.57	1722.34
359.78	1701.86
359.99	1759.21
360.20	1660.90
360.41	1648.61
360.62	1791.97
360.83	1658.85
361.04	1681.38
361.25	1738.73
361.46	1855.46
361.67	1783.78
361.88	1718.25
362.09	1734.63
362.30	1755.11
362.51	1755.11
362.72	1691.62
362.93	1810.40
363.14	1734.63
363.35	1751.01
363.56	1667.05
363.78	1783.78
363.99	1834.98
364.20	1650.66
364.41	1724.39
364.62	1822.69
364.83	1693.67
365.04	1751.01
365.25	1771.49
365.46	1845.22
365.67	1658.85
365.88	1646.57
366.09	1716.20
366.30	1660.90
366.51	1751.01
366.72	1615.85
366.93	1746.92
367.14	1673.19
367.35	1843.17
367.56	1746.92
367.77	1800.16
367.98	1720.29
368.18	1789.92
368.39	1699.81
368.60	1665.00
368.81	1697.77
369.02	1755.11
369.23	1718.25
369.44	1624.04
369.65	1695.72
369.86	1746.92
370.07	1755.11
370.28	1632.23
370.49	1720.29
370.70	1765.35
370.91	1611.75
371.12	1662.95
371.33	1740.77
371.54	1703.91
371.75	1826.79
371.96	1640.42
372.17	1720.29
372.38	1689.57
372.59	1816.55
372.80	1646.57
373.01	1708.01
373.22	1722.34
373.43	1794.02
373.64	1656.81
373.85	1699.81
374.06	1822.69
374.26	1705.96
374.47	1740.77
374.68	1759.21
374.89	1632.23
375.10	1650.66
375.31	1734.63
375.52	1689.57
375.73	1722.34
375.94	1619.94
376.15	1820.64
376.36	1701.86
376.57	1730.53
376.78	1673.19
376.99	1699.81
377.20	1785.83
377.40	1644.52
377.61	1851.36
377.82	1572.84
378.03	1642.47
378.24	1759.21
378.45	1708.01
378.66	1662.95
378.87	1576.94
379.08	1583.08
379.29	1665.00
379.50	1767.40
379.71	1708.01
379.91	1757.16
380.12	1660.90
380.33	1703.91
380.54	1775.59
380.75	1746.92
380.96	1677.29
381.17	1722.34
381.38	1761.25
381.59	1724.39
381.80	1773.54
382.00	1845.22
382.21	1693.67
382.42	1820.64
382.63	1869.80
382.84	1753.06
383.05	1798.12
383.26	1894.37
383.47	1767.40
383.68	1705.96
383.88	1695.72
384.09	1720.29
384.30	1765.35
384.51	1732.58
384.72	1675.24
384.93	1693.67
385.14	1710.05
385.35	1794.02
385.55	1654.76
385.76	1808.36
385.97	1771.49
386.18	1636.33
386.39	1662.95
386.60	1673.19
386.81	1705.96
387.02	1654.76
387.22	1695.72
387.43	1769.44
387.64	1779.68
387.85	1951.71
388.06	2205.66
388.27	4065.22
388.48	6524.83
388.68	8087.43
388.89	9209.72
389.10	9185.14
389.31	8413.06
389.52	7366.54
389.73	6471.58
389.93	5918.63
390.14	5586.86
390.35	5050.29
390.56	4464.57
390.77	3712.97
390.98	2938.84
391.18	2457.56
391.39	2084.83
391.60	1818.60
391.81	1804.26
392.02	1730.53
392.23	1873.89
392.43	1744.87
392.64	1789.92
392.85	1740.77
393.06	1779.68
393.27	1738.73
393.47	1658.85
393.68	1738.73
393.89	1691.62
394.10	1781.73
394.31	1708.01
394.52	1640.42
394.72	1802.21
394.93	1804.26
395.14	1611.75
395.35	1748.97
395.56	1720.29
395.76	1839.08
395.97	1783.78
396.18	1828.84
396.39	1865.70
396.60	2025.44
396.80	1910.75
397.01	1888.23
397.22	1802.21
397.43	1839.08
397.64	1804.26
397.84	1742.82
398.05	1873.89
398.26	1701.86
398.47	1816.55
398.67	1908.71
398.88	1673.19
399.09	1820.64
399.30	1669.09
399.51	1673.19
399.71	1697.77
399.92	1701.86
400.13	1720.29
400.34	1681.38
400.54	1621.99
400.75	1796.07
400.96	1796.07
401.17	1789.92
401.37	1767.40
401.58	1785.83
401.79	1662.95
402.00	1898.47
402.21	2023.39
402.41	1951.71
402.62	2033.63
402.83	2025.44
403.04	1951.71
403.24	2027.49
403.45	1839.08
403.66	1886.18
403.87	1851.36
404.07	1880.04
404.28	1892.32
404.49	1869.80
404.70	1822.69
404.90	1814.50
405.11	1720.29
405.32	1748.97
405.52	1626.09
405.73	1714.15
405.94	1683.43
406.15	1738.73
406.35	1794.02
406.56	1753.06
406.77	1779.68
406.98	1726.44
407.18	1634.28
407.39	1783.78
407.60	1677.29
407.80	1746.92
408.01	1757.16
408.22	1734.63
408.43	1730.53
408.63	1697.77
408.84	1820.64
409.05	1759.21
409.25	1726.44
409.46	1710.05
409.67	1753.06
409.88	1673.19
410.08	1662.95
410.29	1689.57
410.50	1734.63
410.70	1773.54
410.91	1673.19
411.12	1724.39
411.32	1599.46
411.53	1722.34
411.74	1847.27
411.95	1755.11
412.15	1720.29
412.36	1769.44
412.57	1826.79
412.77	1869.80
412.98	1832.93
413.19	1722.34
413.39	1769.44
413.60	1779.68
413.81	1732.58
414.01	1650.66
414.22	1808.36
414.43	1738.73
414.63	1685.48
414.84	1820.64
415.05	1714.15
415.25	1675.24
415.46	1755.11
415.67	1699.81
415.87	1736.68
416.08	1746.92
416.29	1640.42
416.49	1751.01
416.70	1724.39
416.91	1738.73
417.11	1640.42
417.32	1757.16
417.53	1761.25
417.73	1744.87
417.94	1679.33
418.15	1785.83
418.35	1718.25
418.56	1708.01
418.77	1886.18
418.97	1673.19
419.18	1808.36
419.38	1626.09
419.59	1695.72
419.80	1787.88
420.00	1705.96
420.21	1798.12
420.42	1787.88
420.62	1734.63
420.83	1712.10
421.04	1705.96
421.24	1753.06
421.45	1771.49
421.65	1755.11
421.86	1648.61
422.07	1667.05
422.27	1716.20
422.48	1730.53
422.69	1665.00
422.89	1703.91
423.10	1726.44
423.30	1673.19
423.51	1658.85
423.72	1681.38
423.92	1775.59
424.13	1683.43
424.33	1697.77
424.54	1777.64
424.75	1718.25
424.95	1681.38
425.16	1761.25
425.36	1648.61
425.57	1810.40
425.78	1746.92
425.98	1714.15
426.19	1724.39
426.39	1656.81
426.60	1712.10
426.81	1853.41
427.01	1822.69
427.22	1636.33
427.42	1675.24
427.63	1624.04
427.83	1818.60
428.04	1761.25
428.25	1734.63
428.45	1761.25
428.66	1769.44
428.86	1712.10
429.07	1689.57
429.28	1730.53
429.48	1718.25
429.69	1708.01
429.89	1699.81
430.10	1693.67
430.30	1759.21
430.51	1810.40
430.71	1642.47
430.92	1720.29
431.13	1683.43
431.33	1759.21
431.54	1708.01
431.74	1880.04
431.95	1828.84
432.15	1718.25
432.36	1679.33
432.56	1783.78
432.77	1816.55
432.98	1773.54
433.18	1697.77
433.39	1671.14
433.59	1769.44
433.80	1800.16
434.00	1859.56
434.21	1740.77
434.41	1716.20
434.62	1830.88
434.82	1636.33
435.03	1681.38
435.23	1753.06
435.44	1603.56
435.64	1771.49
435.85	1728.49
436.06	1808.36
436.26	1744.87
436.47	1814.50
436.67	1665.00
436.88	1697.77
437.08	1767.40
437.29	1796.07
437.49	1724.39
437.70	1755.11
437.90	1650.66
438.11	1771.49
438.31	1814.50
438.52	1888.23
438.72	1859.56
438.93	1875.94
439.13	1779.68
439.34	1849.32
439.54	1712.10
439.75	1796.07
439.95	1763.30
440.16	1746.92
440.36	1765.35
440.57	1800.16
440.77	1705.96
440.98	1730.53
441.18	1832.93
441.39	1714.15
441.59	1634.28
441.80	1869.80
442.00	1765.35
442.21	1847.27
442.41	1665.00
442.62	1785.83
442.82	1621.99
443.02	1763.30
443.23	1773.54
443.43	1779.68
443.64	1802.21
443.84	1638.38
444.05	1834.98
444.25	1685.48
444.46	1712.10
444.66	1769.44
444.87	1875.94
445.07	1746.92
445.28	1726.44
445.48	1789.92
445.69	1781.73
445.89	1892.32
446.09	1781.73
446.30	1990.63
446.50	2582.49
446.71	3633.10
446.91	4224.96
447.12	4638.65
447.32	4536.25
447.53	4145.09
447.73	3803.08
447.93	3573.71
448.14	3276.75
448.34	3221.45
448.55	2959.31
448.75	2768.85
448.96	2625.50
449.16	2408.41
449.36	2226.14
449.57	2023.39
449.77	1966.05
449.98	1794.02
450.18	1861.60
450.39	1865.70
450.59	1740.77
450.79	1769.44
451.00	1714.15
451.20	1812.45
451.41	1732.58
451.61	1789.92
451.81	1761.25
452.02	1720.29
452.22	1742.82
452.43	1673.19
452.63	1751.01
452.84	1665.00
453.04	1673.19
453.24	1818.60
453.45	1660.90
453.65	1734.63
453.86	1738.73
454.06	1775.59
454.26	1791.97
454.47	1634.28
454.67	1843.17
454.87	1740.77
455.08	1675.24
455.28	1912.80
455.49	1753.06
455.69	1681.38
455.89	1935.33
456.10	1728.49
456.30	1746.92
456.51	1818.60
456.71	1812.45
456.91	1779.68
457.12	1685.48
457.32	1697.77
457.52	1724.39
457.73	1800.16
457.93	1767.40
458.14	1712.10
458.34	1660.90
458.54	1736.68
458.75	1736.68
458.95	1771.49
459.15	1812.45
459.36	1746.92
459.56	1771.49
459.76	1857.51
459.97	1728.49
460.17	1734.63
460.37	1812.45
460.58	1728.49
460.78	1779.68
460.99	1783.78
461.19	1736.68
461.39	1673.19
461.60	1742.82
461.80	1701.86
462.00	1748.97
462.21	1738.73
462.41	1722.34
462.61	1675.24
462.82	1677.29
463.02	1732.58
463.22	1765.35
463.43	1751.01
463.63	1787.88
463.83	1789.92
464.04	1812.45
464.24	1726.44
464.44	1775.59
464.64	1728.49
464.85	1673.19
465.05	1769.44
465.25	1683.43
465.46	1640.42
465.66	1701.86
465.86	1753.06
466.07	1763.30
466.27	1693.67
466.47	1724.39
466.68	1654.76
466.88	1753.06
467.08	1701.86
467.29	1800.16
467.49	1789.92
467.69	1724.39
467.89	1791.97
468.10	1675.24
468.30	1814.50
468.50	1763.30
468.71	1851.36
468.91	1714.15
469.11	1828.84
469.31	1718.25
469.52	1673.19
469.72	1808.36
469.92	1834.98
470.13	1804.26
470.33	1783.78
470.53	1941.47
470.73	2095.07
470.94	2201.57
471.14	2377.69
471.34	2549.72
471.54	2432.99
471.75	2201.57
471.95	2117.60
472.15	1984.48
472.36	2115.55
472.56	2111.46
472.76	2080.74
472.96	2004.96
473.17	1976.29
473.37	1914.85
473.57	1849.32
473.77	1773.54
473.98	1716.20
474.18	1767.40
474.38	1968.10
474.58	1644.52
474.79	1796.07
474.99	1804.26
475.19	1867.75
475.39	1753.06
475.60	1744.87
475.80	1724.39
476.00	1738.73
476.20	1763.30
476.41	1681.38
476.61	1808.36
476.81	1843.17
477.01	1683.43
477.21	1877.99
477.42	1800.16
477.62	1656.81
477.82	1802.21
478.02	1722.34
478.23	1769.44
478.43	1660.90
478.63	1771.49
478.83	1802.21
479.03	1640.42
479.24	1800.16
479.44	1849.32
479.64	1701.86
479.84	1570.79
480.04	1656.81
480.25	1800.16
480.45	1761.25
480.65	1710.05
480.85	1785.83
481.06	1714.15
481.26	1730.53
481.46	1765.35
481.66	1730.53
481.86	1705.96
482.06	1759.21
482.27	1748.97
482.47	1744.87
482.67	1705.96
482.87	1669.09
483.07	1800.16
483.28	1685.48
483.48	1710.05
483.68	1765.35
483.88	1755.11
484.08	1665.00
484.29	1650.66
484.49	1734.63
484.69	1710.05
484.89	1779.68
485.09	1877.99
485.29	1771.49
485.50	1751.01
485.70	1640.42
485.90	1855.46
486.10	1779.68
486.30	1722.34
486.50	1740.77
486.71	1755.11
486.91	1769.44
487.11	1822.69
487.31	1675.24
487.51	1726.44
487.71	1714.15
487.91	1658.85
488.12	1601.51
488.32	1624.04
488.52	1697.77
488.72	1648.61
488.92	1689.57
489.12	1806.31
489.32	1720.29
489.53	1675.24
489.73	1652.71
489.93	1818.60
490.13	1656.81
490.33	1714.15
490.53	1710.05
490.73	1773.54
490.94	1572.84
491.14	1787.88
491.34	1826.79
491.54	2133.98
491.74	2484.19
491.94	2801.62
492.14	3008.47
492.34	2965.46
492.54	2828.24
492.75	2480.09
492.95	2408.41
493.15	2279.39
493.35	2254.81
493.55	2312.16
493.75	2039.78
493.95	2121.70
494.15	2041.82
494.35	1902.56
494.56	1845.22
494.76	1746.92
494.96	1814.50
495.16	1849.32
495.36	1628.14
495.56	1701.86
495.76	1736.68
495.96	1708.01
496.16	1716.20
496.36	1820.64
496.56	1705.96
496.77	1824.74
496.97	1771.49
497.17	1853.41
497.37	1728.49
497.57	1714.15
497.77	1642.47
497.97	1718.25
498.17	1753.06
498.37	1724.39
498.57	1734.63
498.77	1732.58
498.97	1689.57
499.17	1832.93
499.38	1785.83
499.58	1796.07
499.78	1804.26
499.98	1849.32
500.18	1779.68
500.38	1695.72
500.58	1964.00
500.78	2562.01
500.98	4487.10
501.18	5545.90
501.38	6506.40
501.58	7022.48
501.78	6408.09
501.98	5382.06
502.18	4919.22
502.38	4337.60
502.58	3950.53
502.78	3747.78
502.98	3616.71
503.18	3375.05
503.38	3129.30
503.59	2719.70
503.79	2611.16
503.99	2443.23
504.19	2342.88
504.39	2242.53
504.59	2144.22
504.79	2103.26
504.99	2064.35
505.19	1947.62
505.39	1880.04
505.59	1925.09
505.79	1927.14
505.99	1812.45
506.19	1806.31
506.39	1845.22
506.59	1763.30
506.79	1787.88
506.99	1824.74
507.19	1748.97
507.39	1783.78
507.59	1724.39
507.79	1763.30
507.99	1693.67
508.19	1775.59
508.39	1751.01
508.59	1779.68
508.79	1834.98
508.99	1837.03
509.19	1714.15
509.39	1777.64
509.59	1703.91
509.79	1703.91
509.99	1791.97
510.19	1779.68
510.39	1814.50
510.59	1697.77
510.79	1726.44
510.99	1648.61
511.19	1759.21
511.39	1873.89
511.59	1812.45
511.79	1738.73
511.99	1816.55
512.19	1806.31
512.38	1787.88
512.58	1730.53
512.78	1763.30
512.98	1783.78
513.18	1761.25
513.38	1710.05
513.58	1701.86
513.78	1783.78
513.98	1736.68
514.18	1710.05
514.38	1775.59
514.58	1783.78
514.78	1671.14
514.98	1712.10
515.18	1722.34
515.38	1665.00
515.58	1861.60
515.78	1677.29
515.98	1748.97
516.18	1697.77
516.38	1791.97
516.57	1712.10
516.77	1685.48
516.97	1736.68
517.17	1712.10
517.37	1605.61
517.57	1837.03
517.77	1832.93
517.97	1796.07
518.17	1820.64
518.37	1665.00
518.57	1736.68
518.77	1710.05
518.97	1769.44
519.16	1691.62
519.36	1824.74
519.56	1712.10
519.76	1656.81
519.96	1744.87
520.16	1820.64
520.36	1683.43
520.56	1820.64
520.76	1728.49
520.96	1695.72
521.16	1726.44
521.35	1802.21
521.55	1828.84
521.75	1794.02
521.95	1738.73
522.15	1769.44
522.35	1658.85
522.55	1677.29
522.75	1820.64
522.95	1687.53
523.14	1669.09
523.34	1810.40
523.54	1716.20
523.74	1763.30
523.94	1763.30
524.14	1685.48
524.34	1841.12
524.54	1722.34
524.73	1710.05
524.93	1777.64
525.13	1775.59
525.33	1667.05
525.53	1855.46
525.73	1732.58
525.93	1824.74
526.13	1691.62
526.32	1873.89
526.52	1800.16
526.72	1804.26
526.92	1695.72
527.12	1748.97
527.32	1638.38
527.52	1798.12
527.71	1705.96
527.91	1751.01
528.11	1677.29
528.31	1753.06
528.51	1671.14
528.71	1783.78
528.90	1759.21
529.10	1789.92
529.30	1785.83
529.50	1648.61
529.70	1730.53
529.90	1744.87
530.09	1738.73
530.29	1787.88
530.49	1714.15
530.69	1968.10
530.89	1697.77
531.09	1748.97
531.28	1658.85
531.48	1816.55
531.68	1806.31
531.88	1767.40
532.08	1724.39
532.28	1718.25
532.47	1751.01
532.67	1785.83
532.87	1738.73
533.07	1722.34
533.27	1781.73
533.46	1828.84
533.66	1818.60
533.86	1738.73
534.06	1714.15
534.26	1734.63
534.45	1746.92
534.65	1794.02
534.85	1814.50
535.05	1746.92
535.25	1812.45
535.44	1662.95
535.64	1753.06
535.84	1710.05
536.04	1763.30
536.24	1689.57
536.43	1789.92
536.63	1718.25
536.83	1710.05
537.03	1816.55
537.22	1638.38
537.42	1656.81
537.62	1714.15
537.82	1714.15
538.02	1861.60
538.21	1826.79
538.41	1877.99
538.61	1763.30
538.81	1773.54
539.00	1708.01
539.20	1736.68
539.40	1761.25
539.60	1808.36
539.79	1826.79
539.99	1697.77
540.19	1691.62
540.39	1718.25
540.58	1832.93
540.78	1787.88
540.98	1763.30
541.18	1722.34
541.37	1851.36
541.57	1794.02
541.77	1656.81
541.97	1689.57
542.16	1742.82
542.36	1730.53
542.56	1697.77
542.76	1865.70
542.95	1751.01
543.15	1767.40
543.35	1787.88
543.54	1691.62
543.74	1679.33
543.94	1839.08
544.14	1751.01
544.33	1755.11
544.53	1812.45
544.73	1677.29
544.93	1740.77
545.12	1734.63
545.32	1710.05
545.52	1683.43
545.71	1595.37
545.91	1677.29
546.11	1740.77
546.30	1679.33
546.50	1757.16
546.70	1796.07
546.90	1775.59
547.09	1656.81
547.29	1763.30
547.49	1783.78
547.68	1771.49
547.88	1683.43
548.08	1746.92
548.27	2103.26
548.47	1681.38
548.67	1775.59
548.87	1730.53
549.06	1630.18
549.26	1763.30
549.46	1736.68
549.65	1765.35
549.85	1753.06
550.05	1757.16
550.24	1656.81
550.44	1718.25
550.64	1771.49
550.83	1791.97
551.03	1771.49
551.23	1857.51
551.42	1746.92
551.62	1794.02
551.82	1783.78
552.01	1759.21
552.21	1787.88
552.41	1683.43
552.60	1796.07
552.80	1751.01
553.00	1665.00
553.19	1828.84
553.39	1837.03
553.59	1652.71
553.78	1781.73
553.98	1791.97
554.17	1783.78
554.37	1710.05
554.57	1853.41
554.76	1685.48
554.96	1744.87
555.16	1681.38
555.35	1781.73
555.55	1718.25
555.75	1853.41
555.94	1806.31
556.14	1720.29
556.33	1798.12
556.53	1781.73
556.73	1837.03
556.92	1767.40
557.12	1861.60
557.32	1877.99
557.51	1847.27
557.71	1824.74
557.90	1826.79
558.10	1748.97
558.30	1656.81
558.49	1665.00
558.69	1722.34
558.88	1757.16
559.08	1787.88
559.28	1781.73
559.47	1748.97
559.67	1853.41
559.86	1837.03
560.06	1783.78
560.26	1785.83
560.45	1822.69
560.65	1722.34
560.84	1861.60
561.04	1714.15
561.24	1777.64
561.43	1691.62
561.63	1826.79
561.82	1730.53
562.02	1812.45
562.22	1697.77
562.41	1656.81
562.61	1775.59
562.80	1769.44
563.00	1902.56
563.19	1732.58
563.39	1785.83
563.59	1748.97
563.78	1730.53
563.98	1726.44
564.17	1703.91
564.37	1646.57
564.56	1722.34
564.76	1728.49
564.96	1820.64
565.15	1740.77
565.35	1853.41
565.54	1730.53
565.74	1755.11
565.93	1703.91
566.13	1716.20
566.32	1791.97
566.52	1804.26
566.71	1705.96
566.91	1830.88
567.11	1757.16
567.30	1738.73
567.50	1753.06
567.69	1761.25
567.89	1794.02
568.08	1742.82
568.28	1789.92
568.47	1658.85
568.67	1759.21
568.86	1718.25
569.06	1783.78
569.25	1796.07
569.45	1722.34
569.64	1767.40
569.84	1753.06
570.04	1738.73
570.23	1710.05
570.43	1755.11
570.62	1808.36
570.82	1837.03
571.01	1705.96
571.21	1695.72
571.40	1736.68
571.60	1767.40
571.79	1785.83
571.99	1826.79
572.18	1794.02
572.38	1759.21
572.57	1787.88
572.77	1804.26
572.96	1918.95
573.16	1708.01
573.35	1695.72
573.55	1818.60
573.74	1791.97
573.94	1683.43
574.13	1757.16
574.33	1851.36
574.52	1804.26
574.71	1798.12
574.91	1808.36
575.10	1613.80
575.30	1751.01
575.49	1781.73
575.69	1738.73
575.88	1738.73
576.08	1771.49
576.27	1892.32
576.47	1771.49
576.66	1904.61
576.86	1808.36
577.05	1693.67
577.25	1818.60
577.44	1869.80
577.64	1710.05
577.83	1824.74
578.02	1724.39
578.22	1851.36
578.41	1867.75
578.61	1779.68
578.80	1689.57
579.00	1714.15
579.19	1710.05
579.39	1853.41
579.58	1789.92
579.77	1779.68
579.97	1869.80
580.16	1869.80
580.36	1820.64
580.55	1841.12
580.75	1820.64
580.94	1742.82
581.13	1875.94
581.33	1873.89
581.52	1755.11
581.72	1869.80
581.91	1892.32
582.11	1730.53
582.30	1781.73
582.49	1669.09
582.69	1810.40
582.88	1763.30
583.08	1830.88
583.27	1847.27
583.47	1748.97
583.66	1667.05
583.85	1724.39
584.05	1716.20
584.24	1771.49
584.44	1708.01
584.63	1761.25
584.82	1845.22
585.02	1875.94
585.21	1728.49
585.41	1785.83
585.60	1722.34
585.79	2004.96
585.99	1939.43
586.18	1904.61
586.37	2101.22
586.57	3289.04
586.76	9670.51
586.96	23613.08
587.15	33089.03
587.34	38909.36
587.54	40134.04
587.73	35278.31
587.93	25316.99
588.12	20760.26
588.31	17598.20
588.51	15896.33
588.70	14595.87
588.89	13659.95
589.09	12138.31
589.28	10544.99
589.47	9066.36
589.67	7667.60
589.86	6078.37
590.06	4724.66
590.25	3829.70
590.44	3067.86
590.64	2559.96
590.83	2172.89
591.02	2080.74
591.22	1841.12
591.41	1845.22
591.60	1855.46
591.80	2019.30
591.99	1783.78
592.18	1814.50
592.38	1880.04
592.57	1796.07
592.76	1765.35
592.96	1775.59
593.15	1789.92
593.34	1863.65
593.54	1683.43
593.73	1822.69
593.92	1800.16
594.12	1769.44
594.31	1765.35
594.50	1837.03
594.70	1894.37
594.89	1937.38
595.08	1660.90
595.28	1873.89
595.47	1914.85
595.66	1814.50
595.86	1773.54
596.05	1779.68
596.24	1724.39
596.43	1832.93
596.63	1755.11
596.82	1708.01
597.01	1740.77
597.21	1886.18
597.40	1785.83
597.59	1718.25
597.79	1744.87
597.98	1824.74
598.17	1781.73
598.36	1812.45
598.56	1843.17
598.75	1693.67
598.94	1683.43
599.14	1746.92
599.33	1730.53
599.52	1720.29
599.71	1785.83
599.91	1746.92
600.10	1720.29
600.29	1830.88
600.48	1728.49
600.68	1763.30
600.87	1798.12
601.06	1781.73
601.26	1771.49
601.45	1830.88
601.64	1738.73
601.83	1863.65
602.03	1673.19
602.22	1691.62
602.41	1755.11
602.60	1834.98
602.80	1814.50
602.99	1742.82
603.18	1767.40
603.37	1808.36
603.57	1740.77
603.76	1826.79
603.95	1765.35
604.14	1718.25
604.34	1757.16
604.53	1753.06
604.72	1742.82
604.91	1789.92
605.10	1789.92
605.30	1658.85
605.49	1851.36
605.68	1765.35
605.87	1742.82
606.07	1705.96
606.26	1730.53
606.45	1763.30
606.64	1822.69
606.84	1697.77
607.03	1697.77
607.22	1761.25
607.41	1736.68
607.60	1685.48
607.80	1826.79
607.99	1732.58
608.18	1800.16
608.37	1724.39
608.56	1687.53
608.76	1814.50
608.95	1886.18
609.14	1816.55
609.33	1781.73
609.52	1783.78
609.72	1765.35
609.91	1726.44
610.10	1708.01
610.29	1777.64
610.48	1767.40
610.68	1822.69
610.87	1724.39
611.06	1757.16
611.25	1736.68
611.44	1787.88
611.63	1710.05
611.83	1794.02
612.02	1722.34
612.21	1761.25
612.40	1644.52
612.59	1705.96
612.79	1703.91
612.98	1738.73
613.17	1845.22
613.36	1746.92
613.55	1869.80
613.74	1685.48
613.93	1736.68
614.13	1763.30
614.32	1761.25
614.51	1777.64
614.70	1638.38
614.89	1646.57
615.08	1830.88
615.28	2109.41
615.47	1656.81
615.66	1779.68
615.85	1683.43
616.04	1804.26
616.23	1722.34
616.42	1673.19
616.62	1765.35
616.81	1763.30
617.00	1708.01
617.19	1816.55
617.38	1705.96
617.57	1751.01
617.76	1759.21
617.95	1740.77
618.15	1816.55
618.34	1861.60
618.53	1662.95
618.72	1794.02
618.91	1851.36
619.10	1837.03
619.29	1728.49
619.48	1699.81
619.68	1720.29
619.87	1755.11
620.06	1734.63
620.25	1716.20
620.44	1679.33
620.63	1744.87
620.82	1791.97
621.01	1759.21
621.20	1748.97
621.39	1697.77
621.59	1689.57
621.78	1695.72
621.97	1787.88
622.16	1775.59
622.35	1742.82
622.54	1767.40
622.73	1763.30
622.92	1636.33
623.11	1810.40
623.30	1746.92
623.49	1740.77
623.68	1718.25
623.88	1746.92
624.07	1718.25
624.26	1683.43
624.45	1746.92
624.64	1701.86
624.83	1796.07
625.02	1718.25
625.21	1732.58
625.40	1703.91
625.59	1830.88
625.78	1751.01
625.97	1757.16
626.16	1773.54
626.35	1804.26
626.54	1660.90
626.74	1812.45
626.93	1705.96
627.12	1689.57
627.31	1783.78
627.50	1722.34
627.69	1738.73
627.88	1705.96
628.07	1685.48
628.26	1662.95
628.45	1667.05
628.64	1607.66
628.83	1744.87
629.02	1673.19
629.21	1740.77
629.40	1699.81
629.59	1642.47
629.78	1714.15
629.97	1751.01
630.16	1824.74
630.35	1732.58
630.54	1701.86
630.73	1673.19
630.92	1714.15
631.11	1730.53
631.30	1693.67
631.49	1800.16
631.68	1781.73
631.87	1783.78
632.06	1646.57
632.25	1847.27
632.44	1712.10
632.63	1695.72
632.82	1710.05
633.01	1611.75
633.20	1691.62
633.39	1683.43
633.58	1728.49
633.77	1810.40
633.96	1718.25
634.15	1751.01
634.34	1724.39
634.53	1759.21
634.72	1708.01
634.91	1615.85
635.10	1785.83
635.29	1861.60
635.48	1757.16
635.67	1669.09
635.86	1718.25
636.05	1810.40
636.24	1779.68
636.43	1759.21
636.62	1730.53
636.81	1673.19
637.00	1720.29
637.19	1691.62
637.38	1710.05
637.57	1757.16
637.76	1763.30
637.95	1689.57
638.14	1714.15
638.33	1689.57
638.52	1701.86
638.71	1675.24
638.89	1675.24
639.08	1853.41
639.27	1730.53
639.46	1693.67
639.65	1789.92
639.84	1626.09
640.03	1726.44
640.22	1669.09
640.41	1847.27
640.60	1765.35
640.79	1732.58
640.98	1621.99
641.17	1794.02
641.36	1679.33
641.55	1751.01
641.74	1701.86
641.92	1746.92
642.11	1660.90
642.30	1718.25
642.49	1667.05
642.68	1734.63
642.87	1726.44
643.06	1761.25
643.25	1673.19
643.44	1611.75
643.63	1689.57
643.82	1804.26
644.00	1679.33
644.19	1724.39
644.38	1726.44
644.57	1746.92
644.76	1748.97
644.95	1730.53
645.14	1730.53
645.33	1681.38
645.52	1720.29
645.71	1673.19
645.89	1685.48
646.08	1724.39
646.27	1648.61
646.46	1810.40
646.65	1675.24
646.84	1755.11
647.03	1779.68
647.22	1830.88
647.40	1683.43
647.59	1671.14
647.78	1626.09
647.97	1722.34
648.16	1675.24
648.35	1730.53
648.54	1761.25
648.73	1728.49
648.91	1785.83
649.10	1761.25
649.29	1705.96
649.48	1691.62
649.67	1861.60
649.86	1691.62
650.05	1669.09
650.23	1818.60
650.42	1630.18
650.61	1787.88
650.80	1738.73
650.99	1796.07
651.18	1744.87
651.36	1740.77
651.55	1712.10
651.74	1742.82
651.93	1699.81
652.12	1740.77
652.31	1736.68
652.49	1718.25
652.68	1767.40
652.87	1738.73
653.06	1779.68
653.25	1832.93
653.44	1701.86
653.62	1812.45
653.81	1650.66
654.00	1687.53
654.19	1802.21
654.38	1773.54
654.56	1675.24
654.75	1730.53
654.94	1705.96
655.13	1742.82
655.32	1738.73
655.51	1771.49
655.69	1677.29
655.88	1789.92
656.07	1673.19
656.26	1777.64
656.45	1685.48
656.63	1718.25
656.82	1751.01
657.01	1828.84
657.20	1726.44
657.38	1787.88
657.57	1644.52
657.76	1624.04
657.95	1773.54
658.14	1687.53
658.32	1748.97
658.51	1658.85
658.70	1832.93
658.89	1734.63
659.08	1712.10
659.26	1771.49
659.45	1693.67
659.64	1757.16
659.83	1693.67
660.01	1912.80
660.20	1701.86
660.39	1834.98
660.58	1591.27
660.76	1808.36
660.95	1689.57
661.14	1796.07
661.33	1660.90
661.51	1701.86
661.70	1687.53
661.89	1726.44
662.08	1703.91
662.26	1681.38
662.45	1685.48
662.64	1806.31
662.83	1759.21
663.01	1720.29
663.20	1695.72
663.39	1908.71
663.58	1781.73
663.76	1726.44
663.95	1865.70
664.14	1722.34
664.32	1740.77
664.51	1751.01
664.70	1585.13
664.89	1705.96
665.07	1748.97
665.26	1828.84
665.45	1665.00
665.64	1763.30
665.82	1683.43
666.01	1751.01
666.20	1652.71
666.38	1767.40
666.57	1812.45
666.76	2133.98
666.95	4347.84
667.13	10026.86
667.32	14939.93
667.51	17391.35
667.69	18489.06
667.88	16805.63
668.07	11798.35
668.25	9238.39
668.44	7839.62
668.63	7210.90
668.81	6655.90
669.00	5990.31
669.19	5584.81
669.38	4923.32
669.56	4513.72
669.75	3950.53
669.94	3416.01
670.12	2805.72
670.31	2461.66
670.50	2299.87
670.68	2090.98
670.87	1955.81
671.06	1841.12
671.24	1761.25
671.43	1787.88
671.62	1673.19
671.80	1728.49
671.99	1728.49
672.18	1826.79
672.36	1783.78
672.55	1755.11
672.74	1746.92
672.92	1679.33
673.11	1837.03
673.29	1716.20
673.48	1812.45
673.67	1734.63
673.85	1824.74
674.04	1671.14
674.23	1763.30
674.41	1802.21
674.60	1681.38
674.79	1636.33
674.97	1722.34
675.16	1751.01
675.34	1781.73
675.53	1689.57
675.72	1810.40
675.90	1794.02
676.09	1660.90
676.28	1665.00
676.46	1652.71
676.65	1755.11
676.83	1650.66
677.02	1800.16
677.21	1742.82
677.39	1736.68
677.58	1722.34
677.77	1740.77
677.95	1652.71
678.14	1728.49
678.32	1607.66
678.51	1652.71
678.70	1880.04
678.88	1634.28
679.07	1769.44
679.25	1671.14
679.44	1701.86
679.63	1667.05
679.81	1697.77
680.00	1728.49
680.18	1724.39
680.37	1812.45
680.55	1808.36
680.74	1660.90
680.93	1652.71
681.11	1691.62
681.30	1744.87
681.48	1765.35
681.67	1654.76
681.85	1650.66
682.04	1673.19
682.23	1726.44
682.41	1771.49
682.60	1734.63
682.78	1748.97
682.97	1767.40
683.15	1775.59
683.34	1763.30
683.53	1800.16
683.71	1654.76
683.90	1759.21
684.08	1841.12
684.27	1720.29
684.45	1781.73
684.64	1849.32
684.82	1796.07
685.01	1755.11
685.19	1708.01
685.38	1816.55
685.57	1726.44
685.75	1728.49
685.94	1765.35
686.12	1712.10
686.31	1669.09
686.49	1802.21
686.68	1691.62
686.86	1751.01
687.05	1665.00
687.23	1802.21
687.42	1705.96
687.60	1679.33
687.79	1767.40
687.97	1757.16
688.16	1810.40
688.34	1816.55
688.53	1697.77
688.71	1769.44
688.90	1705.96
689.08	1691.62
689.27	1634.28
689.45	1818.60
689.64	1742.82
689.82	1697.77
690.01	1689.57
690.19	1761.25
690.38	1708.01
690.56	1808.36
690.75	1697.77
690.93	1667.05
691.12	1714.15
691.30	1718.25
691.49	1656.81
691.67	1744.87
691.86	1849.32
692.04	1697.77
692.23	1662.95
692.41	1728.49
692.60	1820.64
692.78	1714.15
692.97	1734.63
693.15	1746.92
693.34	1826.79
693.52	1740.77
693.71	1765.35
693.89	1722.34
694.08	1691.62
694.26	1738.73
694.44	1779.68
694.63	1705.96
694.81	1654.76
695.00	1730.53
695.18	1839.08
695.37	1888.23
695.55	1751.01
695.74	1746.92
695.92	1683.43
696.10	1755.11
696.29	1660.90
696.47	1773.54
696.66	1667.05
696.84	1675.24
697.03	1708.01
697.21	1820.64
697.40	2289.63
697.58	1763.30
697.76	1683.43
697.95	1665.00
698.13	1691.62
698.32	1757.16
698.50	1755.11
698.68	1714.15
698.87	1763.30
699.05	1800.16
699.24	1761.25
699.42	1730.53
699.61	1742.82
699.79	1753.06
699.97	1710.05
700.16	1632.23
700.34	1611.75
700.53	1724.39
700.71	1794.02
700.89	1753.06
701.08	1755.11
701.26	1738.73
701.45	2176.99
701.63	1671.14
701.81	1697.77
702.00	1699.81
702.18	1724.39
702.37	1650.66
702.55	1740.77
702.73	1685.48
702.92	1660.90
703.10	1708.01
703.28	1708.01
703.47	1646.57
703.65	1740.77
703.84	1691.62
704.02	1656.81
704.20	1845.22
704.39	1599.46
704.57	1742.82
704.75	1757.16
704.94	1701.86
705.12	1748.97
705.30	1763.30
705.49	2336.73
705.67	4429.76
705.86	9015.16
706.04	12169.03
706.22	14061.35
706.41	15095.58
706.59	13342.52
706.77	9056.12
706.96	7022.48
707.14	6342.56
707.32	5822.38
707.51	5345.20
707.69	4671.42
707.87	4083.65
708.06	3454.92
708.24	2908.12
708.42	2492.38
708.61	2234.33
708.79	1855.46
708.97	1882.08
709.16	1763.30
709.34	1777.64
709.52	1755.11
709.71	1744.87
709.89	1763.30
710.07	1701.86
710.26	1730.53
710.44	1740.77
710.62	1783.78
710.80	1732.58
710.99	1810.40
711.17	1845.22
711.35	1693.67
711.54	1697.77
711.72	1843.17
711.90	1746.92
712.09	1710.05
712.27	1693.67
712.45	1724.39
712.63	1699.81
712.82	1722.34
713.00	1718.25
713.18	1738.73
713.37	1744.87
713.55	1886.18
713.73	1693.67
713.91	1689.57
714.10	1705.96
714.28	1671.14
714.46	1701.86
714.65	1781.73
714.83	1751.01
715.01	1761.25
715.19	1748.97
715.38	1619.94
715.56	1767.40
715.74	1652.71
715.92	1658.85
716.11	1787.88
716.29	1634.28
716.47	1621.99
716.65	1669.09
716.84	1656.81
717.02	1748.97
717.20	1605.61
717.38	1689.57
717.57	1642.47
717.75	1710.05
717.93	1718.25
718.11	1722.34
718.30	1595.37
718.48	1720.29
718.66	1816.55
718.84	1779.68
719.03	1710.05
719.21	1693.67
719.39	1828.84
719.57	1714.15
719.75	1767.40
719.94	1658.85
720.12	1658.85
720.30	1724.39
720.48	1744.87
720.67	1595.37
720.85	1642.47
721.03	1708.01
721.21	1695.72
721.39	1687.53
721.58	1771.49
721.76	1736.68
721.94	1857.51
722.12	1705.96
722.30	1820.64
722.49	1683.43
722.67	1800.16
722.85	1814.50
723.03	1705.96
723.21	1681.38
723.40	1703.91
723.58	1816.55
723.76	1675.24
723.94	1787.88
724.12	1820.64
724.30	1789.92
724.49	1712.10
724.67	1734.63
724.85	1718.25
725.03	1621.99
725.21	1669.09
725.40	1781.73
725.58	1660.90
725.76	1763.30
725.94	1753.06
726.12	1705.96
726.30	1691.62
726.49	1603.56
726.67	1648.61
726.85	1787.88
727.03	1736.68
727.21	2168.80
727.39	2920.40
727.57	3672.01
727.76	4091.84
727.94	4331.45
728.12	4210.62
728.30	3663.82
728.48	2858.96
728.66	2707.41
728.84	2666.46
729.03	2207.71
729.21	2174.94
729.39	1935.33
729.57	1884.13
729.75	1816.55
729.93	1857.51
730.11	1701.86
730.30	1771.49
730.48	1791.97
730.66	1816.55
730.84	1744.87
731.02	1748.97
731.20	1667.05
731.38	1785.83
731.56	1654.76
731.74	1710.05
731.93	1771.49
732.11	1767.40
732.29	1757.16
732.47	1755.11
732.65	1712.10
732.83	1816.55
733.01	1695.72
733.19	1660.90
733.37	1660.90
733.56	1775.59
733.74	1714.15
733.92	1812.45
734.10	1703.91
734.28	1783.78
734.46	1591.27
734.64	1753.06
734.82	1714.15
735.00	1681.38
735.18	1640.42
735.36	1777.64
735.54	1742.82
735.73	1757.16
735.91	1755.11
736.09	1763.30
736.27	1683.43
736.45	1751.01
736.63	1689.57
736.81	1644.52
736.99	1761.25
737.17	1781.73
737.35	1652.71
737.53	1679.33
737.71	1755.11
737.89	1759.21
738.07	1681.38
738.25	1607.66
738.43	1642.47
738.61	1699.81
738.80	1665.00
738.98	1632.23
739.16	1712.10
739.34	1652.71
739.52	1767.40
739.70	1703.91
739.88	1730.53
740.06	1740.77
740.24	1593.32
740.42	1779.68
740.60	1591.27
740.78	1636.33
740.96	1658.85
741.14	1683.43
741.32	1699.81
741.50	1652.71
741.68	1851.36
741.86	1812.45
742.04	1601.51
742.22	1654.76
742.40	1708.01
742.58	1759.21
742.76	1650.66
742.94	1841.12
743.12	1644.52
743.30	1714.15
743.48	1665.00
743.66	1658.85
743.84	1808.36
744.02	1751.01
744.20	1722.34
744.38	1632.23
744.56	1601.51
744.74	1769.44
744.92	1808.36
745.10	1837.03
745.28	1789.92
745.46	1832.93
745.64	1640.42
745.82	1787.88
746.00	1775.59
746.18	1722.34
746.36	1710.05
746.54	1740.77
746.72	1738.73
746.90	1730.53
747.08	1824.74
747.26	1697.77
747.44	1771.49
747.62	1746.92
747.80	1769.44
747.98	1765.35
748.15	1673.19
748.33	1767.40
748.51	1714.15
748.69	1759.21
748.87	1693.67
749.05	1656.81
749.23	1677.29
749.41	1775.59
749.59	1650.66
749.77	1759.21
749.95	1728.49
750.13	1677.29
750.31	1640.42
750.49	1673.19
750.67	1875.94
750.85	1802.21
751.03	1843.17
751.20	1832.93
751.38	1677.29
751.56	1718.25
751.74	1744.87
751.92	1632.23
752.10	1667.05
752.28	1746.92
752.46	1691.62
752.64	1662.95
752.82	1714.15
753.00	1755.11
753.18	1685.48
753.35	1699.81
753.53	1726.44
753.71	1765.35
753.89	1759.21
754.07	1718.25
754.25	1773.54
754.43	1695.72
754.61	1593.32
754.79	1705.96
754.97	1841.12
755.14	1863.65
755.32	1681.38
755.50	1763.30
755.68	1691.62
755.86	1691.62
756.04	1632.23
756.22	1595.37
756.40	1781.73
756.57	1820.64
756.75	1761.25
756.93	1812.45
757.11	1787.88
757.29	1689.57
757.47	1685.48
757.65	1585.13
757.82	1630.18
758.00	1714.15
758.18	1656.81
758.36	1621.99
758.54	1796.07
758.72	1662.95
758.90	1755.11
759.07	1748.97
759.25	1578.98
759.43	1755.11
759.61	1628.14
759.79	2176.99
759.97	1697.77
760.15	1693.67
760.32	1613.80
760.50	1730.53
760.68	1744.87
760.86	1634.28
761.04	1722.34
761.22	1785.83
761.39	1748.97
761.57	1718.25
761.75	1689.57
761.93	1765.35
762.11	1726.44
762.28	1724.39
762.46	1665.00
762.64	1732.58
762.82	1681.38
763.00	1656.81
763.18	1791.97
763.35	1640.42
763.53	1789.92
763.71	1748.97
763.89	1722.34
764.07	1722.34
764.24	1740.77
764.42	1763.30
764.60	1683.43
764.78	1738.73
764.96	1767.40
765.13	1820.64
765.31	1691.62
765.49	1716.20
765.67	1689.57
765.84	1769.44
766.02	1705.96
766.20	1671.14
766.38	1765.35
766.56	1755.11
766.73	1789.92
766.91	1736.68
767.09	1757.16
767.27	1720.29
767.44	1689.57
767.62	1744.87
767.80	1673.19
767.98	1644.52
768.15	1638.38
768.33	1732.58
768.51	1740.77
768.69	1736.68
768.87	1769.44
769.04	1699.81
769.22	1816.55
769.40	1853.41
769.58	1832.93
769.75	1681.38
769.93	1736.68
770.11	1669.09
770.28	1658.85
770.46	1812.45
770.64	1763.30
770.82	1765.35
770.99	1732.58
771.17	1740.77
771.35	1699.81
771.53	1681.38
771.70	1640.42
771.88	1765.35
772.06	1753.06
772.23	1722.34
772.41	1712.10
772.59	1761.25
772.77	1632.23
772.94	1740.77
773.12	1771.49
773.30	1679.33
773.47	1736.68
773.65	1683.43
773.83	1820.64
774.01	1644.52
774.18	1634.28
774.36	1658.85
774.54	1650.66
774.71	1673.19
774.89	1619.94
775.07	1703.91
775.24	1693.67
775.42	1703.91
775.60	1767.40
775.78	1683.43
775.95	1738.73
776.13	1677.29
776.31	1550.31
776.48	1726.44
776.66	1765.35
776.84	1656.81
777.01	1667.05
777.19	1609.70
777.37	1710.05
777.54	1734.63
777.72	1746.92
777.90	1791.97
778.07	1742.82
778.25	1898.47
778.43	1816.55
778.60	1685.48
778.78	1701.86
778.96	1714.15
779.13	1648.61
779.31	1665.00
779.49	1652.71
779.66	1660.90
779.84	1665.00
780.01	1708.01
780.19	1734.63
780.37	1822.69
780.54	1775.59
780.72	1646.57
780.90	1744.87
781.07	1703.91
781.25	1667.05
781.43	1685.48
781.60	1687.53
781.78	1802.21
781.95	1642.47
782.13	1667.05
782.31	1691.62
782.48	1609.70
782.66	1681.38
782.83	1818.60
783.01	1710.05
783.19	1736.68
783.36	1679.33
783.54	1691.62
783.72	1796.07
783.89	1757.16
784.07	1751.01
784.24	1767.40
784.42	1794.02
784.60	1748.97
784.77	1773.54
784.95	1605.61
785.12	1656.81
785.30	1726.44
785.47	1681.38
785.65	1595.37
785.83	1681.38
786.00	1671.14
786.18	1720.29
786.35	1685.48
786.53	1613.80
786.71	1777.64
786.88	1611.75
787.06	1712.10
787.23	1689.57
787.41	1685.48
787.58	1746.92
787.76	1667.05
787.94	1800.16
788.11	1656.81
788.29	1628.14
788.46	1589.22
788.64	1609.70
788.81	1728.49
788.99	1607.66
789.16	1697.77
789.34	1744.87
789.52	1671.14
789.69	1746.92
789.87	1624.04
790.04	1591.27
790.22	1720.29
790.39	1841.12
790.57	1609.70
790.74	1675.24
790.92	1767.40
791.09	1701.86
791.27	1724.39
791.44	1810.40
791.62	1669.09
791.79	1726.44
791.97	1683.43
792.15	1863.65
792.32	1753.06
792.50	1701.86
792.67	1785.83
792.85	1804.26
793.02	1777.64
793.20	1624.04
793.37	1642.47
793.55	1703.91
793.72	1652.71
793.90	1820.64
794.07	1634.28
794.25	1652.71
794.42	1787.88
794.60	1742.82
794.77	1708.01
794.95	1734.63
795.12	1712.10
795.30	1716.20
795.47	1615.85
795.65	1925.09
795.82	1708.01
796.00	1679.33
796.17	1728.49
796.34	1710.05
796.52	1693.67
796.69	1816.55
796.87	1755.11
797.04	1738.73
797.22	1714.15
797.39	1728.49
797.57	1718.25
797.74	1720.29
797.92	1748.97
798.09	1716.20
798.27	1808.36
798.44	1656.81
798.62	1648.61
798.79	1757.16
798.96	1693.67
799.14	1757.16
799.31	1841.12
799.49	1683.43
799.66	1644.52
799.84	1769.44
800.01	1621.99
800.19	1730.53
800.36	1558.50
800.53	1726.44
800.71	1751.01
800.88	1791.97
801.06	1640.42
801.23	1710.05
801.41	1693.67
801.58	1652.71
801.75	1701.86
801.93	1705.96
802.10	1738.73
802.28	1716.20
802.45	1728.49
802.63	1724.39
802.80	1847.27
802.97	1689.57
803.15	1726.44
803.32	1630.18
803.50	1648.61
803.67	1644.52
803.84	1679.33
804.02	1701.86
804.19	1716.20
804.37	1591.27
804.54	1636.33
804.71	1748.97
804.89	1701.86
805.06	1673.19
805.24	1660.90
805.41	1710.05
805.58	1730.53
805.76	1888.23
805.93	1708.01
806.10	1757.16
806.28	1742.82
806.45	1832.93
806.63	1642.47
806.80	1834.98
806.97	1665.00
807.15	1640.42
807.32	1652.71
807.49	1734.63
807.67	1701.86
807.84	1738.73
808.01	1642.47
808.19	1800.16
808.36	1738.73
808.54	1691.62
808.71	1693.67
808.88	1705.96
809.06	1675.24
809.23	1845.22
809.40	1671.14
809.58	1714.15
809.75	1699.81
809.92	1679.33
810.10	1830.88
810.27	1673.19
810.44	1726.44
810.62	1775.59
810.79	1736.68
810.96	1705.96
811.14	1732.58
811.31	1714.15
811.48	1738.73
811.66	1738.73
811.83	1724.39
812.00	1724.39
812.18	1675.24
812.35	1714.15
812.52	1699.81
812.69	1667.05
812.87	1804.26
813.04	1640.42
813.21	1675.24
813.39	1763.30
813.56	1640.42
813.73	1808.36
813.91	1644.52
814.08	1710.05
814.25	1689.57
814.42	1638.38
814.60	1703.91
814.77	1636.33
814.94	1699.81
815.12	1646.57
815.29	1818.60
815.46	1667.05
815.63	1675.24
815.81	1746.92
815.98	1753.06
816.15	1716.20
816.33	1738.73
816.50	1746.92
816.67	1617.90
816.84	1681.38
817.02	1589.22
817.19	1691.62
817.36	1800.16
817.53	1701.86
817.71	1724.39
817.88	1679.33
818.05	1654.76
818.22	1660.90
818.40	1763.30
818.57	1693.67
818.74	1689.57
818.91	1685.48
819.09	1712.10
819.26	1724.39
819.43	1714.15
819.60	1724.39
819.78	1722.34
819.95	1796.07
820.12	1640.42
820.29	1779.68
820.47	1767.40
820.64	1669.09
820.81	1673.19
820.98	1730.53
821.15	1712.10
821.33	1726.44
821.50	1605.61
821.67	1757.16
821.84	1714.15
822.02	1763.30
822.19	1742.82
822.36	1722.34
822.53	1693.67
822.70	1632.23
822.88	1716.20
823.05	1796.07
823.22	1699.81
823.39	1683.43
823.56	1687.53
823.74	1757.16
823.91	1669.09
824.08	1619.94
824.25	1673.19
824.42	1767.40
824.60	1611.75
824.77	1730.53
824.94	1624.04
825.11	1746.92
825.28	1599.46
825.45	1708.01
825.63	1701.86
825.80	1654.76
825.97	1742.82
826.14	1718.25
826.31	1609.70
826.48	1785.83
826.66	1705.96
826.83	1724.39
827.00	1779.68
827.17	1648.61
827.34	1705.96
827.51	1738.73
827.69	1681.38
827.86	1634.28
828.03	1683.43
828.20	1714.15
828.37	1734.63
828.54	1695.72
828.71	1703.91
828.89	1886.18
829.06	1703.91
829.23	1769.44
829.40	1683.43
829.57	1677.29
829.74	1738.73
829.91	1695.72
830.09	1658.85
830.26	1738.73
830.43	1726.44
830.60	1648.61
830.77	1732.58
830.94	1837.03
831.11	1732.58
831.28	1720.29
831.46	1783.78
831.63	1683.43
831.80	1705.96
831.97	1724.39
832.14	1722.34
832.31	1777.64
832.48	1710.05
832.65	1794.02
832.82	1730.53
832.99	1722.34
833.17	1677.29
833.34	1712.10
833.51	1714.15
833.68	1583.08
833.85	1853.41
834.02	1705.96
834.19	1716.20
834.36	1640.42
834.53	1785.83
834.70	1830.88
834.87	1728.49
835.04	1734.63
835.22	1585.13
835.39	1689.57
835.56	1646.57
835.73	1699.81
835.90	1738.73
836.07	1679.33
836.24	1732.58
836.41	1701.86
836.58	1685.48
836.75	1724.39
836.92	1697.77
837.09	1619.94
837.26	1681.38
837.43	1757.16
837.60	1767.40
837.77	1693.67
837.94	1759.21
838.12	1773.54
838.29	1703.91
838.46	1640.42
838.63	1667.05
838.80	1871.84
838.97	1759.21
839.14	1689.57
839.31	1607.66
839.48	1667.05
839.65	1689.57
839.82	1783.78
839.99	1757.16
840.16	1755.11
840.33	1656.81
840.50	1673.19
840.67	1669.09
840.84	1566.70
841.01	1761.25
841.18	1658.85
841.35	1687.53
841.52	1785.83
841.69	1841.12
841.86	1710.05
842.03	1638.38
842.20	1796.07
842.37	1687.53
842.54	1718.25
842.71	1687.53
842.88	1624.04
843.05	1755.11
843.22	1667.05
843.39	1746.92
843.56	1587.18
843.73	1683.43
843.90	1718.25
844.07	1714.15
844.24	1783.78
844.41	1771.49
844.58	1673.19
844.75	1736.68
844.92	1679.33
845.09	1683.43
845.26	1679.33
845.43	1716.20
845.60	1701.86
845.77	1775.59
845.94	1691.62
846.10	1773.54
846.27	1619.94
846.44	1677.29
846.61	1652.71
846.78	1726.44
846.95	1824.74
847.12	1685.48
847.29	1765.35
847.46	1595.37
847.63	1804.26
847.80	1605.61
847.97	1732.58
848.14	1871.84
848.31	1642.47
848.48	1667.05
848.65	1744.87
848.82	1677.29
848.98	1857.51
849.15	1648.61
849.32	1808.36
849.49	1767.40
849.66	1746.92
849.83	1755.11
850.00	1568.74
850.17	1787.88
850.34	1738.73
850.51	1679.33
850.68	1695.72
850.85	1789.92
851.01	1769.44
851.18	1638.38
851.35	1611.75
851.52	1728.49
851.69	1767.40
851.86	1630.18
852.03	1683.43
852.20	1818.60
852.37	1722.34
852.53	1710.05
852.70	1769.44
852.87	1685.48
853.04	1763.30
853.21	1722.34
853.38	1794.02
853.55	1769.44
853.72	1808.36
853.89	1699.81
854.05	1683.43
854.22	1685.48
854.39	1701.86
854.56	1732.58
854.73	1802.21
854.90	1761.25
855.07	1732.58
855.23	1787.88
855.40	1648.61
855.57	1691.62
855.74	1605.61
855.91	1937.38
856.08	1611.75
856.25	1677.29
856.41	1726.44
856.58	1746.92
856.75	1675.24
856.92	1583.08
857.09	1796.07
857.26	1617.90
857.42	1642.47
857.59	1701.86
857.76	1675.24
857.93	1669.09
858.10	1722.34
858.27	1689.57
858.43	1695.72
858.60	1642.47
858.77	1601.51
858.94	1746.92
859.11	1798.12
859.27	1669.09
859.44	1691.62
859.61	1857.51
859.78	1722.34
859.95	1697.77
860.12	1710.05
860.28	1818.60
860.45	1845.22
860.62	1675.24
860.79	1763.30
860.95	1660.90
861.12	1619.94
861.29	1705.96
861.46	1718.25
861.63	1718.25
861.79	1759.21
861.96	1636.33
862.13	1642.47
862.30	1701.86
862.47	1650.66
862.63	1687.53
862.80	1740.77
862.97	1759.21
863.14	1677.29
863.30	1771.49
863.47	1642.47
863.64	1898.47
863.81	1798.12
863.97	1669.09
864.14	1738.73
864.31	1632.23
864.48	1755.11
864.65	1660.90
864.81	1816.55
864.98	1783.78
865.15	1746.92
865.32	1806.31
865.48	1714.15
865.65	1720.29
865.82	1615.85
865.98	1705.96
866.15	1718.25
866.32	1693.67
866.49	1738.73
866.65	1761.25
866.82	1710.05
866.99	1736.68
867.16	1669.09
867.32	1726.44
867.49	1611.75
867.66	1726.44
867.83	1730.53
867.99	1685.48
868.16	1675.24
868.33	1685.48
868.49	1628.14
868.66	1724.39
868.83	1759.21
868.99	1671.14
869.16	1724.39
869.33	1814.50
869.50	1783.78
869.66	1689.57
869.83	1660.90
870.00	1630.18
870.16	1757.16
870.33	1771.49
870.50	1744.87
870.66	1712.10
870.83	1822.69
871.00	1734.63
871.17	1746.92
871.33	1730.53
871.50	1675.24
871.67	1656.81
871.83	1574.89
872.00	1826.79
872.17	1732.58
872.33	1775.59
872.50	1693.67
872.67	1691.62
872.83	1648.61
873.00	1683.43
873.17	1648.61
873.33	1775.59
873.50	1789.92
873.67	1667.05
873.83	1689.57
874.00	1730.53
874.16	1880.04
874.33	1681.38
874.50	1626.09
874.66	1716.20
874.83	1714.15
875.00	1810.40
875.16	1798.12
875.33	1742.82
875.50	1601.51
875.66	1705.96
875.83	1705.96
875.99	1748.97
876.16	1687.53
876.33	1667.05
876.49	1691.62
876.66	1662.95
876.83	1693.67
876.99	1658.85
877.16	1802.21
877.32	1748.97
877.49	1736.68
877.66	1714.15
877.82	1755.11
877.99	1734.63
878.15	1736.68
878.32	1746.92
878.49	1699.81
878.65	1697.77
878.82	1806.31
878.98	1669.09
879.15	1777.64
879.32	1744.87
879.48	1775.59
879.65	1685.48
879.81	1679.33
879.98	1681.38
880.15	1673.19
880.31	1720.29
880.48	1734.63
880.64	1675.24
880.81	1779.68
880.97	1841.12
881.14	1742.82
881.31	1644.52
881.47	1851.36
881.64	1681.38
881.80	1624.04
881.97	1716.20
882.13	1767.40
882.30	1570.79
882.47	1701.86
882.63	1611.75
882.80	1665.00
882.96	1640.42
883.13	1740.77
883.29	1763.30
883.46	1748.97
883.62	1744.87
883.79	1720.29
883.95	1722.34
884.12	1691.62
884.29	1791.97
884.45	1630.18
884.62	1814.50
884.78	1667.05
884.95	1746.92
885.11	1665.00
885.28	1781.73
885.44	1779.68
885.61	1726.44
885.77	1677.29
885.94	1681.38
886.10	1732.58
886.27	1669.09
886.43	1820.64
886.60	1730.53
886.76	1611.75
886.93	1568.74
887.09	1679.33
887.26	1636.33
887.42	1632.23
887.59	1753.06
887.75	1834.98
887.92	1761.25
888.08	1820.64
888.25	1767.40
888.41	1806.31
888.58	1660.90
888.74	1648.61
888.91	1640.42
>>>>>End Processed Spectral Data<<<<<
