SpectraSuite Data File
++++++++++++++++++++++++++++++++++++
Date: Mon Jun 06 13:04:37 CEST 2016
User: root
Dark Spectrum Present: No
Reference Spectrum Present: No
Number of Sampled Component Spectra: 1
Spectrometers: USB4C02835
Integration Time (usec): 100000 (USB4C02835)
Spectra Averaged: 1 (USB4C02835)
Boxcar Smoothing: 0 (USB4C02835)
Correct for Electrical Dark: No (USB4C02835)
Strobe/Lamp Enabled: No (USB4C02835)
Correct for Detector Non-linearity: No (USB4C02835)
Correct for Stray Light: No (USB4C02835)
Number of Pixels in Processed Spectrum: 3648
>>>>>Begin Processed Spectral Data<<<<<
177.47	1460.20
177.69	1460.20
177.91	1460.20
178.13	1437.67
178.36	1503.21
178.58	1613.80
178.80	1708.01
179.02	1705.96
179.24	1562.60
179.46	1679.33
179.68	1763.30
179.90	1644.52
180.13	1730.53
180.35	1665.00
180.57	1626.09
180.79	1712.10
181.01	1681.38
181.23	1800.16
181.45	1816.55
181.67	1781.73
181.90	1738.73
182.12	1644.52
182.34	1654.76
182.56	1601.51
182.78	1701.86
183.00	1701.86
183.22	1714.15
183.44	1656.81
183.66	1857.51
183.89	1767.40
184.11	1695.72
184.33	1697.77
184.55	1767.40
184.77	1675.24
184.99	1693.67
185.21	1705.96
185.43	1812.45
185.65	1658.85
185.87	1650.66
186.10	1826.79
186.32	1837.03
186.54	1851.36
186.76	1667.05
186.98	1761.25
187.20	1695.72
187.42	1566.70
187.64	1734.63
187.86	1679.33
188.08	1767.40
188.30	1685.48
188.52	1759.21
188.75	1771.49
188.97	1789.92
189.19	1716.20
189.41	1757.16
189.63	1777.64
189.85	1773.54
190.07	1658.85
190.29	1640.42
190.51	1726.44
190.73	1617.90
190.95	1796.07
191.17	1665.00
191.39	1640.42
191.61	1699.81
191.84	1685.48
192.06	1730.53
192.28	1648.61
192.50	1839.08
192.72	1701.86
192.94	1636.33
193.16	1742.82
193.38	1730.53
193.60	1636.33
193.82	1665.00
194.04	1783.78
194.26	1732.58
194.48	1726.44
194.70	1658.85
194.92	1652.71
195.14	1765.35
195.36	1671.14
195.58	1720.29
195.80	1732.58
196.02	1642.47
196.24	1662.95
196.46	1738.73
196.69	1619.94
196.91	1773.54
197.13	1591.27
197.35	1740.77
197.57	1787.88
197.79	1732.58
198.01	1734.63
198.23	1685.48
198.45	1685.48
198.67	1675.24
198.89	1693.67
199.11	1730.53
199.33	1681.38
199.55	1499.11
199.77	1685.48
199.99	1746.92
200.21	1613.80
200.43	1626.09
200.65	1617.90
200.87	1527.78
201.09	1669.09
201.31	1705.96
201.53	1765.35
201.75	1724.39
201.97	1753.06
202.19	1736.68
202.41	1710.05
202.63	1865.70
202.85	1708.01
203.07	1613.80
203.29	1626.09
203.51	1609.70
203.73	1656.81
203.95	1888.23
204.17	1671.14
204.39	1738.73
204.61	1669.09
204.83	1683.43
205.05	1683.43
205.27	1738.73
205.49	1773.54
205.71	1697.77
205.93	1560.55
206.15	1701.86
206.37	1665.00
206.59	1677.29
206.81	1640.42
207.03	1667.05
207.25	1619.94
207.47	1693.67
207.69	1744.87
207.91	1726.44
208.13	1771.49
208.34	1650.66
208.56	1671.14
208.78	1771.49
209.00	1677.29
209.22	1662.95
209.44	1712.10
209.66	1673.19
209.88	1710.05
210.10	1748.97
210.32	1636.33
210.54	1730.53
210.76	1644.52
210.98	1773.54
211.20	1550.31
211.42	1681.38
211.64	1839.08
211.86	1734.63
212.08	1714.15
212.30	1726.44
212.52	1593.32
212.74	1681.38
212.96	1656.81
213.17	1708.01
213.39	1714.15
213.61	1767.40
213.83	1771.49
214.05	1615.85
214.27	1757.16
214.49	1675.24
214.71	1615.85
214.93	1783.78
215.15	1757.16
215.37	1730.53
215.59	1636.33
215.81	1703.91
216.03	1763.30
216.24	1726.44
216.46	1624.04
216.68	1658.85
216.90	1701.86
217.12	1787.88
217.34	1730.53
217.56	1714.15
217.78	1783.78
218.00	1712.10
218.22	1730.53
218.44	1681.38
218.66	1730.53
218.87	1873.89
219.09	1656.81
219.31	1730.53
219.53	1744.87
219.75	1624.04
219.97	1714.15
220.19	1720.29
220.41	1691.62
220.63	1814.50
220.85	1691.62
221.06	1669.09
221.28	1705.96
221.50	1722.34
221.72	1677.29
221.94	1761.25
222.16	1710.05
222.38	1773.54
222.60	1777.64
222.82	1701.86
223.03	1685.48
223.25	1644.52
223.47	1714.15
223.69	1769.44
223.91	1730.53
224.13	1710.05
224.35	1728.49
224.57	1714.15
224.78	1771.49
225.00	1640.42
225.22	1697.77
225.44	1726.44
225.66	1751.01
225.88	1683.43
226.10	1748.97
226.32	1742.82
226.53	1794.02
226.75	1636.33
226.97	1722.34
227.19	1722.34
227.41	1660.90
227.63	1671.14
227.85	1601.51
228.06	1677.29
228.28	1656.81
228.50	1798.12
228.72	1603.56
228.94	1681.38
229.16	1630.18
229.37	1619.94
229.59	1701.86
229.81	1808.36
230.03	1691.62
230.25	1630.18
230.47	1669.09
230.69	1652.71
230.90	1693.67
231.12	1677.29
231.34	1718.25
231.56	1769.44
231.78	1591.27
232.00	1650.66
232.21	1724.39
232.43	1673.19
232.65	1562.60
232.87	1736.68
233.09	1638.38
233.30	1665.00
233.52	1736.68
233.74	1673.19
233.96	1642.47
234.18	1781.73
234.40	1646.57
234.61	1806.31
234.83	1705.96
235.05	1609.70
235.27	1859.56
235.49	1665.00
235.70	1699.81
235.92	1796.07
236.14	1685.48
236.36	1873.89
236.58	1624.04
236.79	1675.24
237.01	1671.14
237.23	1648.61
237.45	1765.35
237.67	1697.77
237.88	1740.77
238.10	1714.15
238.32	1671.14
238.54	1673.19
238.76	1648.61
238.97	1665.00
239.19	1611.75
239.41	1697.77
239.63	1834.98
239.85	1650.66
240.06	1650.66
240.28	1705.96
240.50	1732.58
240.72	1591.27
240.93	1710.05
241.15	1734.63
241.37	1710.05
241.59	1779.68
241.81	1730.53
242.02	1597.42
242.24	1724.39
242.46	1710.05
242.68	1695.72
242.89	1652.71
243.11	1789.92
243.33	1689.57
243.55	1767.40
243.76	1726.44
243.98	1699.81
244.20	1724.39
244.42	1716.20
244.64	1718.25
244.85	1705.96
245.07	1685.48
245.29	1687.53
245.51	1724.39
245.72	1654.76
245.94	1722.34
246.16	1685.48
246.38	1689.57
246.59	1683.43
246.81	1722.34
247.03	1724.39
247.24	1615.85
247.46	1605.61
247.68	1753.06
247.90	1693.67
248.11	1673.19
248.33	1701.86
248.55	1689.57
248.77	1738.73
248.98	1740.77
249.20	1824.74
249.42	1734.63
249.64	1779.68
249.85	1722.34
250.07	1636.33
250.29	1767.40
250.50	1738.73
250.72	1619.94
250.94	1708.01
251.16	1757.16
251.37	1716.20
251.59	1662.95
251.81	1710.05
252.02	1746.92
252.24	1624.04
252.46	1728.49
252.68	1671.14
252.89	1665.00
253.11	1605.61
253.33	1693.67
253.54	1724.39
253.76	1656.81
253.98	1720.29
254.20	1697.77
254.41	1665.00
254.63	1597.42
254.85	1617.90
255.06	1669.09
255.28	1656.81
255.50	1722.34
255.71	1701.86
255.93	1626.09
256.15	1763.30
256.36	1740.77
256.58	1669.09
256.80	1724.39
257.02	1689.57
257.23	1730.53
257.45	1697.77
257.67	1794.02
257.88	1634.28
258.10	1722.34
258.32	1714.15
258.53	1720.29
258.75	1777.64
258.97	1662.95
259.18	1652.71
259.40	1705.96
259.62	1818.60
259.83	1726.44
260.05	1726.44
260.27	1906.66
260.48	1742.82
260.70	1705.96
260.92	1679.33
261.13	1701.86
261.35	1728.49
261.57	1724.39
261.78	1626.09
262.00	1640.42
262.22	1759.21
262.43	1615.85
262.65	1574.89
262.86	1697.77
263.08	1880.04
263.30	1773.54
263.51	1632.23
263.73	1617.90
263.95	1757.16
264.16	1701.86
264.38	1619.94
264.60	1763.30
264.81	1701.86
265.03	1679.33
265.25	1763.30
265.46	1648.61
265.68	1738.73
265.89	1767.40
266.11	1552.36
266.33	1695.72
266.54	1800.16
266.76	1634.28
266.98	1744.87
267.19	1828.84
267.41	1757.16
267.62	1769.44
267.84	1617.90
268.06	1744.87
268.27	1695.72
268.49	1763.30
268.70	1800.16
268.92	1683.43
269.14	1595.37
269.35	1656.81
269.57	1742.82
269.79	1714.15
270.00	1589.22
270.22	1830.88
270.43	1753.06
270.65	1601.51
270.87	1681.38
271.08	1787.88
271.30	1724.39
271.51	1722.34
271.73	1675.24
271.95	1732.58
272.16	1673.19
272.38	1755.11
272.59	1699.81
272.81	1783.78
273.02	1689.57
273.24	1775.59
273.46	1708.01
273.67	1685.48
273.89	1644.52
274.10	1585.13
274.32	1730.53
274.54	1726.44
274.75	1773.54
274.97	1695.72
275.18	1773.54
275.40	1705.96
275.61	1705.96
275.83	1699.81
276.05	1581.03
276.26	1656.81
276.48	1710.05
276.69	1640.42
276.91	1613.80
277.12	1759.21
277.34	1730.53
277.55	1675.24
277.77	1681.38
277.99	1703.91
278.20	1609.70
278.42	1687.53
278.63	1636.33
278.85	1648.61
279.06	1656.81
279.28	1718.25
279.49	1761.25
279.71	1796.07
279.93	1716.20
280.14	1740.77
280.36	1687.53
280.57	1722.34
280.79	1705.96
281.00	1726.44
281.22	1646.57
281.43	1681.38
281.65	1597.42
281.86	1660.90
282.08	1757.16
282.29	1783.78
282.51	1640.42
282.73	1685.48
282.94	1607.66
283.16	1736.68
283.37	1841.12
283.59	1689.57
283.80	1742.82
284.02	1697.77
284.23	1730.53
284.45	1621.99
284.66	1646.57
284.88	1671.14
285.09	1763.30
285.31	1720.29
285.52	1679.33
285.74	1560.55
285.95	1753.06
286.17	1714.15
286.38	1773.54
286.60	1626.09
286.81	1710.05
287.03	1712.10
287.24	1679.33
287.46	1800.16
287.67	1703.91
287.89	1820.64
288.10	1675.24
288.32	1697.77
288.53	1791.97
288.75	1724.39
288.96	1775.59
289.18	1621.99
289.39	1697.77
289.61	1703.91
289.82	1877.99
290.04	1808.36
290.25	1617.90
290.47	1742.82
290.68	1667.05
290.90	1789.92
291.11	1652.71
291.33	1648.61
291.54	1701.86
291.76	1681.38
291.97	1708.01
292.18	1775.59
292.40	1669.09
292.61	1642.47
292.83	1855.46
293.04	1751.01
293.26	1683.43
293.47	1724.39
293.69	1744.87
293.90	1736.68
294.12	1710.05
294.33	1652.71
294.55	1665.00
294.76	1708.01
294.97	1683.43
295.19	1810.40
295.40	1628.14
295.62	1744.87
295.83	1722.34
296.05	1605.61
296.26	1701.86
296.48	1667.05
296.69	1671.14
296.90	1691.62
297.12	1738.73
297.33	1751.01
297.55	1742.82
297.76	1849.32
297.98	1832.93
298.19	1695.72
298.41	1673.19
298.62	1587.18
298.83	1742.82
299.05	1757.16
299.26	1685.48
299.48	1656.81
299.69	1710.05
299.90	1714.15
300.12	1599.46
300.33	1722.34
300.55	1767.40
300.76	1791.97
300.98	1552.36
301.19	1738.73
301.40	1626.09
301.62	1669.09
301.83	1689.57
302.05	1718.25
302.26	1697.77
302.47	1701.86
302.69	1609.70
302.90	1755.11
303.12	1611.75
303.33	1824.74
303.54	1820.64
303.76	1607.66
303.97	1710.05
304.19	1830.88
304.40	1646.57
304.61	1703.91
304.83	1849.32
305.04	1716.20
305.26	1671.14
305.47	1714.15
305.68	1757.16
305.90	1581.03
306.11	1697.77
306.33	1751.01
306.54	1675.24
306.75	1587.18
306.97	1576.94
307.18	1689.57
307.39	1685.48
307.61	1769.44
307.82	1693.67
308.04	1765.35
308.25	1669.09
308.46	1718.25
308.68	1677.29
308.89	1687.53
309.10	1757.16
309.32	1783.78
309.53	1767.40
309.74	1746.92
309.96	1722.34
310.17	1798.12
310.39	1642.47
310.60	1714.15
310.81	1718.25
311.03	1667.05
311.24	1708.01
311.45	1710.05
311.67	1839.08
311.88	1699.81
312.09	1671.14
312.31	1624.04
312.52	1671.14
312.73	1691.62
312.95	1624.04
313.16	1642.47
313.37	1751.01
313.59	1658.85
313.80	1804.26
314.01	1708.01
314.23	1685.48
314.44	1624.04
314.65	1632.23
314.87	1656.81
315.08	1581.03
315.29	1712.10
315.51	1642.47
315.72	1703.91
315.93	1755.11
316.15	1759.21
316.36	1648.61
316.57	1675.24
316.79	1689.57
317.00	1732.58
317.21	1697.77
317.43	1646.57
317.64	1763.30
317.85	1646.57
318.07	1662.95
318.28	1701.86
318.49	1785.83
318.70	1955.81
318.92	1796.07
319.13	1689.57
319.34	1777.64
319.56	1794.02
319.77	1761.25
319.98	1740.77
320.20	1753.06
320.41	1701.86
320.62	1705.96
320.83	1640.42
321.05	1816.55
321.26	1693.67
321.47	1697.77
321.69	1796.07
321.90	1667.05
322.11	1640.42
322.32	1794.02
322.54	1705.96
322.75	1669.09
322.96	1828.84
323.18	1640.42
323.39	1574.89
323.60	1628.14
323.81	1765.35
324.03	1796.07
324.24	1753.06
324.45	1689.57
324.66	1714.15
324.88	1757.16
325.09	1736.68
325.30	1697.77
325.52	1685.48
325.73	1779.68
325.94	1632.23
326.15	1634.28
326.37	1675.24
326.58	1734.63
326.79	1828.84
327.00	1652.71
327.22	1761.25
327.43	1679.33
327.64	1660.90
327.85	1685.48
328.07	1662.95
328.28	1787.88
328.49	1685.48
328.70	1665.00
328.92	1685.48
329.13	1703.91
329.34	1683.43
329.55	1798.12
329.76	1742.82
329.98	1779.68
330.19	1734.63
330.40	1740.77
330.61	1724.39
330.83	1730.53
331.04	1675.24
331.25	1730.53
331.46	1599.46
331.68	1554.41
331.89	1802.21
332.10	1644.52
332.31	1632.23
332.52	1695.72
332.74	1718.25
332.95	1615.85
333.16	1669.09
333.37	1687.53
333.58	1689.57
333.80	1751.01
334.01	1675.24
334.22	1640.42
334.43	1708.01
334.64	1632.23
334.86	1603.56
335.07	1595.37
335.28	1804.26
335.49	1564.65
335.70	1654.76
335.92	1718.25
336.13	1804.26
336.34	1726.44
336.55	1687.53
336.76	1648.61
336.98	1595.37
337.19	1753.06
337.40	1785.83
337.61	1800.16
337.82	1689.57
338.04	1775.59
338.25	1677.29
338.46	1648.61
338.67	1669.09
338.88	1669.09
339.09	1642.47
339.31	1644.52
339.52	1632.23
339.73	1644.52
339.94	1601.51
340.15	1812.45
340.36	1695.72
340.58	1701.86
340.79	1646.57
341.00	1716.20
341.21	1621.99
341.42	1822.69
341.63	1599.46
341.85	1767.40
342.06	1603.56
342.27	1619.94
342.48	1779.68
342.69	1601.51
342.90	1642.47
343.12	1763.30
343.33	1728.49
343.54	1734.63
343.75	1751.01
343.96	1685.48
344.17	1656.81
344.38	1615.85
344.60	1683.43
344.81	1626.09
345.02	1753.06
345.23	1812.45
345.44	1834.98
345.65	1742.82
345.86	1689.57
346.07	1708.01
346.29	1570.79
346.50	1767.40
346.71	1730.53
346.92	1691.62
347.13	1855.46
347.34	1658.85
347.55	1722.34
347.76	1775.59
347.98	1603.56
348.19	1617.90
348.40	1757.16
348.61	1652.71
348.82	1791.97
349.03	1796.07
349.24	1640.42
349.45	1767.40
349.66	1605.61
349.88	1656.81
350.09	1638.38
350.30	1791.97
350.51	1722.34
350.72	1642.47
350.93	1636.33
351.14	1617.90
351.35	1824.74
351.56	1662.95
351.77	1699.81
351.99	1654.76
352.20	1789.92
352.41	1812.45
352.62	1630.18
352.83	1628.14
353.04	1720.29
353.25	1669.09
353.46	1718.25
353.67	1716.20
353.88	1658.85
354.09	1691.62
354.30	1646.57
354.52	1761.25
354.73	1609.70
354.94	1718.25
355.15	1683.43
355.36	1824.74
355.57	1656.81
355.78	1765.35
355.99	1658.85
356.20	1662.95
356.41	1779.68
356.62	1730.53
356.83	1722.34
357.04	1695.72
357.25	1585.13
357.46	1646.57
357.68	1673.19
357.89	1632.23
358.10	1675.24
358.31	1699.81
358.52	1691.62
358.73	1626.09
358.94	1632.23
359.15	1624.04
359.36	1740.77
359.57	1621.99
359.78	1708.01
359.99	1769.44
360.20	1685.48
360.41	1660.90
360.62	1705.96
360.83	1669.09
361.04	1751.01
361.25	1708.01
361.46	1763.30
361.67	1712.10
361.88	1773.54
362.09	1783.78
362.30	1746.92
362.51	1662.95
362.72	1744.87
362.93	1732.58
363.14	1732.58
363.35	1665.00
363.56	1658.85
363.78	1767.40
363.99	1720.29
364.20	1681.38
364.41	1683.43
364.62	1796.07
364.83	1724.39
365.04	1660.90
365.25	1740.77
365.46	1748.97
365.67	1593.32
365.88	1712.10
366.09	1763.30
366.30	1673.19
366.51	1695.72
366.72	1667.05
366.93	1773.54
367.14	1746.92
367.35	1726.44
367.56	1759.21
367.77	1800.16
367.98	1724.39
368.18	1724.39
368.39	1779.68
368.60	1589.22
368.81	1697.77
369.02	1681.38
369.23	1650.66
369.44	1617.90
369.65	1617.90
369.86	1763.30
370.07	1730.53
370.28	1708.01
370.49	1714.15
370.70	1767.40
370.91	1677.29
371.12	1656.81
371.33	1701.86
371.54	1703.91
371.75	1832.93
371.96	1624.04
372.17	1765.35
372.38	1710.05
372.59	1828.84
372.80	1685.48
373.01	1638.38
373.22	1773.54
373.43	1746.92
373.64	1595.37
373.85	1808.36
374.06	1818.60
374.26	1677.29
374.47	1701.86
374.68	1775.59
374.89	1730.53
375.10	1636.33
375.31	1753.06
375.52	1710.05
375.73	1703.91
375.94	1689.57
376.15	1751.01
376.36	1691.62
376.57	1638.38
376.78	1615.85
376.99	1791.97
377.20	1697.77
377.40	1683.43
377.61	1744.87
377.82	1650.66
378.03	1849.32
378.24	1673.19
378.45	1685.48
378.66	1710.05
378.87	1570.79
379.08	1605.61
379.29	1710.05
379.50	1689.57
379.71	1718.25
379.91	1771.49
380.12	1665.00
380.33	1691.62
380.54	1708.01
380.75	1691.62
380.96	1644.52
381.17	1714.15
381.38	1640.42
381.59	1730.53
381.80	1677.29
382.00	1791.97
382.21	1724.39
382.42	1828.84
382.63	1845.22
382.84	1722.34
383.05	1720.29
383.26	1755.11
383.47	1683.43
383.68	1763.30
383.88	1759.21
384.09	1710.05
384.30	1816.55
384.51	1665.00
384.72	1570.79
384.93	1648.61
385.14	1683.43
385.35	1804.26
385.55	1660.90
385.76	1796.07
385.97	1673.19
386.18	1603.56
386.39	1630.18
386.60	1619.94
386.81	1677.29
387.02	1632.23
387.22	1669.09
387.43	1779.68
387.64	1746.92
387.85	1882.08
388.06	2174.94
388.27	4124.61
388.48	6668.19
388.68	8218.50
388.89	9631.60
389.10	10002.28
389.31	8591.23
389.52	7382.93
389.73	6737.82
389.93	6234.02
390.14	5836.71
390.35	5228.46
390.56	4538.30
390.77	3747.78
390.98	3000.27
391.18	2508.76
391.39	2115.55
391.60	1869.80
391.81	1771.49
392.02	1708.01
392.23	1890.28
392.43	1757.16
392.64	1779.68
392.85	1683.43
393.06	1742.82
393.27	1628.14
393.47	1677.29
393.68	1732.58
393.89	1701.86
394.10	1744.87
394.31	1701.86
394.52	1667.05
394.72	1703.91
394.93	1806.31
395.14	1675.24
395.35	1777.64
395.56	1656.81
395.76	1695.72
395.97	1775.59
396.18	1806.31
396.39	1789.92
396.60	2103.26
396.80	1906.66
397.01	1849.32
397.22	1808.36
397.43	1882.08
397.64	1755.11
397.84	1841.12
398.05	1791.97
398.26	1714.15
398.47	1818.60
398.67	1755.11
398.88	1669.09
399.09	1751.01
399.30	1708.01
399.51	1755.11
399.71	1634.28
399.92	1658.85
400.13	1685.48
400.34	1746.92
400.54	1665.00
400.75	1796.07
400.96	1742.82
401.17	1849.32
401.37	1796.07
401.58	1748.97
401.79	1804.26
402.00	1777.64
402.21	1992.67
402.41	1916.90
402.62	1968.10
402.83	2054.11
403.04	2035.68
403.24	2107.36
403.45	1794.02
403.66	1904.61
403.87	1894.37
404.07	1853.41
404.28	1869.80
404.49	1767.40
404.70	1886.18
404.90	1755.11
405.11	1771.49
405.32	1730.53
405.52	1687.53
405.73	1720.29
405.94	1679.33
406.15	1708.01
406.35	1667.05
406.56	1708.01
406.77	1726.44
406.98	1632.23
407.18	1597.42
407.39	1796.07
407.60	1734.63
407.80	1759.21
408.01	1675.24
408.22	1695.72
408.43	1681.38
408.63	1763.30
408.84	1703.91
409.05	1763.30
409.25	1669.09
409.46	1697.77
409.67	1691.62
409.88	1646.57
410.08	1769.44
410.29	1718.25
410.50	1740.77
410.70	1632.23
410.91	1654.76
411.12	1667.05
411.32	1742.82
411.53	1677.29
411.74	1787.88
411.95	1753.06
412.15	1777.64
412.36	1812.45
412.57	1773.54
412.77	1824.74
412.98	1753.06
413.19	1658.85
413.39	1746.92
413.60	1771.49
413.81	1693.67
414.01	1646.57
414.22	1714.15
414.43	1705.96
414.63	1605.61
414.84	1804.26
415.05	1814.50
415.25	1665.00
415.46	1755.11
415.67	1611.75
415.87	1753.06
416.08	1665.00
416.29	1705.96
416.49	1691.62
416.70	1679.33
416.91	1621.99
417.11	1701.86
417.32	1789.92
417.53	1734.63
417.73	1736.68
417.94	1724.39
418.15	1779.68
418.35	1712.10
418.56	1755.11
418.77	1841.12
418.97	1746.92
419.18	1628.14
419.38	1601.51
419.59	1697.77
419.80	1703.91
420.00	1718.25
420.21	1728.49
420.42	1746.92
420.62	1705.96
420.83	1695.72
421.04	1703.91
421.24	1671.14
421.45	1726.44
421.65	1789.92
421.86	1675.24
422.07	1791.97
422.27	1705.96
422.48	1763.30
422.69	1675.24
422.89	1703.91
423.10	1652.71
423.30	1689.57
423.51	1732.58
423.72	1613.80
423.92	1722.34
424.13	1673.19
424.33	1771.49
424.54	1789.92
424.75	1665.00
424.95	1796.07
425.16	1716.20
425.36	1701.86
425.57	1742.82
425.78	1767.40
425.98	1705.96
426.19	1732.58
426.39	1605.61
426.60	1742.82
426.81	1767.40
427.01	1742.82
427.22	1675.24
427.42	1611.75
427.63	1667.05
427.83	1787.88
428.04	1779.68
428.25	1775.59
428.45	1767.40
428.66	1865.70
428.86	1599.46
429.07	1730.53
429.28	1744.87
429.48	1703.91
429.69	1589.22
429.89	1720.29
430.10	1656.81
430.30	1761.25
430.51	1769.44
430.71	1671.14
430.92	1730.53
431.13	1755.11
431.33	1644.52
431.54	1619.94
431.74	1816.55
431.95	1738.73
432.15	1652.71
432.36	1685.48
432.56	1736.68
432.77	1865.70
432.98	1832.93
433.18	1775.59
433.39	1699.81
433.59	1701.86
433.80	1812.45
434.00	1841.12
434.21	1619.94
434.41	1753.06
434.62	1859.56
434.82	1624.04
435.03	1624.04
435.23	1689.57
435.44	1701.86
435.64	1744.87
435.85	1648.61
436.06	1787.88
436.26	1775.59
436.47	1710.05
436.67	1656.81
436.88	1642.47
437.08	1763.30
437.29	1794.02
437.49	1716.20
437.70	1845.22
437.90	1779.68
438.11	1851.36
438.31	1830.88
438.52	1722.34
438.72	1845.22
438.93	1849.32
439.13	1734.63
439.34	1787.88
439.54	1755.11
439.75	1740.77
439.95	1761.25
440.16	1757.16
440.36	1744.87
440.57	1767.40
440.77	1746.92
440.98	1777.64
441.18	1808.36
441.39	1705.96
441.59	1675.24
441.80	1873.89
442.00	1675.24
442.21	1808.36
442.41	1628.14
442.62	1755.11
442.82	1687.53
443.02	1738.73
443.23	1763.30
443.43	1632.23
443.64	1859.56
443.84	1693.67
444.05	1789.92
444.25	1765.35
444.46	1705.96
444.66	1642.47
444.87	1849.32
445.07	1703.91
445.28	1689.57
445.48	1814.50
445.69	1771.49
445.89	1841.12
446.09	1783.78
446.30	1970.15
446.50	2637.78
446.71	3837.89
446.91	4265.92
447.12	4802.49
447.32	4681.66
447.53	4151.23
447.73	3839.94
447.93	3456.97
448.14	3278.80
448.34	3127.25
448.55	2930.64
448.75	2695.13
448.96	2680.79
449.16	2418.65
449.36	2269.15
449.57	2000.87
449.77	1902.56
449.98	1742.82
450.18	1804.26
450.39	1820.64
450.59	1742.82
450.79	1759.21
451.00	1665.00
451.20	1816.55
451.41	1769.44
451.61	1753.06
451.81	1757.16
452.02	1738.73
452.22	1761.25
452.43	1673.19
452.63	1730.53
452.84	1738.73
453.04	1726.44
453.24	1685.48
453.45	1677.29
453.65	1681.38
453.86	1730.53
454.06	1773.54
454.26	1804.26
454.47	1638.38
454.67	1806.31
454.87	1753.06
455.08	1687.53
455.28	1837.03
455.49	1812.45
455.69	1697.77
455.89	1781.73
456.10	1816.55
456.30	1753.06
456.51	1761.25
456.71	1779.68
456.91	1763.30
457.12	1765.35
457.32	1787.88
457.52	1751.01
457.73	1742.82
457.93	1757.16
458.14	1726.44
458.34	1673.19
458.54	1726.44
458.75	1773.54
458.95	1740.77
459.15	1734.63
459.36	1744.87
459.56	1765.35
459.76	1900.52
459.97	1712.10
460.17	1708.01
460.37	1757.16
460.58	1685.48
460.78	1824.74
460.99	1648.61
461.19	1785.83
461.39	1742.82
461.60	1728.49
461.80	1751.01
462.00	1642.47
462.21	1714.15
462.41	1636.33
462.61	1673.19
462.82	1665.00
463.02	1701.86
463.22	1693.67
463.43	1775.59
463.63	1708.01
463.83	1759.21
464.04	1751.01
464.24	1769.44
464.44	1759.21
464.64	1816.55
464.85	1787.88
465.05	1767.40
465.25	1656.81
465.46	1716.20
465.66	1730.53
465.86	1701.86
466.07	1751.01
466.27	1656.81
466.47	1683.43
466.68	1576.94
466.88	1751.01
467.08	1751.01
467.29	1828.84
467.49	1740.77
467.69	1619.94
467.89	1753.06
468.10	1777.64
468.30	1744.87
468.50	1798.12
468.71	1755.11
468.91	1701.86
469.11	1738.73
469.31	1722.34
469.52	1667.05
469.72	1859.56
469.92	1796.07
470.13	1667.05
470.33	1691.62
470.53	1820.64
470.73	2115.55
470.94	2271.20
471.14	2258.91
471.34	2500.57
471.54	2408.41
471.75	2179.04
471.95	2119.65
472.15	2050.02
472.36	2045.92
472.56	2002.91
472.76	2082.78
472.96	2011.11
473.17	1968.10
473.37	1964.00
473.57	1890.28
473.77	1791.97
473.98	1738.73
474.18	1718.25
474.38	1916.90
474.58	1675.24
474.79	1626.09
474.99	1783.78
475.19	1730.53
475.39	1640.42
475.60	1679.33
475.80	1679.33
476.00	1748.97
476.20	1656.81
476.41	1740.77
476.61	1812.45
476.81	1763.30
477.01	1665.00
477.21	1877.99
477.42	1849.32
477.62	1640.42
477.82	1730.53
478.02	1761.25
478.23	1744.87
478.43	1675.24
478.63	1718.25
478.83	1660.90
479.03	1738.73
479.24	1789.92
479.44	1867.75
479.64	1697.77
479.84	1679.33
480.04	1654.76
480.25	1730.53
480.45	1683.43
480.65	1701.86
480.85	1814.50
481.06	1699.81
481.26	1726.44
481.46	1746.92
481.66	1722.34
481.86	1617.90
482.06	1812.45
482.27	1732.58
482.47	1650.66
482.67	1761.25
482.87	1652.71
483.07	1765.35
483.28	1722.34
483.48	1667.05
483.68	1671.14
483.88	1695.72
484.08	1609.70
484.29	1703.91
484.49	1646.57
484.69	1671.14
484.89	1847.27
485.09	1787.88
485.29	1677.29
485.50	1796.07
485.70	1710.05
485.90	1863.65
486.10	1787.88
486.30	1845.22
486.50	1824.74
486.71	1722.34
486.91	1714.15
487.11	1779.68
487.31	1652.71
487.51	1791.97
487.71	1753.06
487.91	1609.70
488.12	1701.86
488.32	1652.71
488.52	1665.00
488.72	1703.91
488.92	1679.33
489.12	1771.49
489.32	1771.49
489.53	1777.64
489.73	1675.24
489.93	1779.68
490.13	1708.01
490.33	1675.24
490.53	1777.64
490.73	1759.21
490.94	1646.57
491.14	1789.92
491.34	1865.70
491.54	2121.70
491.74	2605.02
491.94	2852.82
492.14	2959.31
492.34	3037.14
492.54	2725.85
492.75	2475.99
492.95	2510.81
493.15	2342.88
493.35	2336.73
493.55	2191.33
493.75	2142.18
493.95	2133.98
494.15	1943.52
494.35	1869.80
494.56	1742.82
494.76	1789.92
494.96	1738.73
495.16	1789.92
495.36	1708.01
495.56	1705.96
495.76	1755.11
495.96	1675.24
496.16	1675.24
496.36	1812.45
496.56	1738.73
496.77	1757.16
496.97	1755.11
497.17	1798.12
497.37	1716.20
497.57	1769.44
497.77	1822.69
497.97	1730.53
498.17	1714.15
498.37	1746.92
498.57	1814.50
498.77	1673.19
498.97	1742.82
499.17	1820.64
499.38	1742.82
499.58	1673.19
499.78	1800.16
499.98	1871.84
500.18	1712.10
500.38	1689.57
500.58	1869.80
500.78	2533.34
500.98	4487.10
501.18	5726.12
501.38	6776.73
501.58	7118.74
501.78	6674.33
501.98	5470.12
502.18	5001.14
502.38	4270.01
502.58	4044.74
502.78	3702.73
502.98	3643.34
503.18	3434.44
503.38	3084.24
503.59	2781.14
503.79	2627.54
503.99	2451.42
504.19	2267.10
504.39	2193.37
504.59	2172.89
504.79	2152.42
504.99	1976.29
505.19	1947.62
505.39	1892.32
505.59	1964.00
505.79	1837.03
505.99	1873.89
506.19	1816.55
506.39	1863.65
506.59	1748.97
506.79	1771.49
506.99	1841.12
507.19	1718.25
507.39	1769.44
507.59	1685.48
507.79	1744.87
507.99	1689.57
508.19	1738.73
508.39	1720.29
508.59	1755.11
508.79	1882.08
508.99	1890.28
509.19	1730.53
509.39	1828.84
509.59	1677.29
509.79	1671.14
509.99	1714.15
510.19	1726.44
510.39	1742.82
510.59	1724.39
510.79	1746.92
510.99	1679.33
511.19	1689.57
511.39	1859.56
511.59	1753.06
511.79	1847.27
511.99	1775.59
512.19	1828.84
512.38	1763.30
512.58	1693.67
512.78	1687.53
512.98	1769.44
513.18	1855.46
513.38	1675.24
513.58	1779.68
513.78	1724.39
513.98	1771.49
514.18	1720.29
514.38	1705.96
514.58	1794.02
514.78	1722.34
514.98	1779.68
515.18	1798.12
515.38	1683.43
515.58	1771.49
515.78	1695.72
515.98	1730.53
516.18	1771.49
516.38	1808.36
516.57	1783.78
516.77	1691.62
516.97	1794.02
517.17	1683.43
517.37	1568.74
517.57	1775.59
517.77	1683.43
517.97	1662.95
518.17	1726.44
518.37	1656.81
518.57	1710.05
518.77	1755.11
518.97	1695.72
519.16	1755.11
519.36	1822.69
519.56	1755.11
519.76	1730.53
519.96	1714.15
520.16	1847.27
520.36	1650.66
520.56	1783.78
520.76	1742.82
520.96	1714.15
521.16	1824.74
521.35	1851.36
521.55	1824.74
521.75	1763.30
521.95	1738.73
522.15	1742.82
522.35	1685.48
522.55	1652.71
522.75	1759.21
522.95	1701.86
523.14	1712.10
523.34	1697.77
523.54	1656.81
523.74	1757.16
523.94	1796.07
524.14	1665.00
524.34	1730.53
524.54	1851.36
524.73	1695.72
524.93	1796.07
525.13	1736.68
525.33	1689.57
525.53	1886.18
525.73	1779.68
525.93	1853.41
526.13	1693.67
526.32	1763.30
526.52	1791.97
526.72	1734.63
526.92	1757.16
527.12	1710.05
527.32	1681.38
527.52	1761.25
527.71	1781.73
527.91	1837.03
528.11	1720.29
528.31	1669.09
528.51	1701.86
528.71	1857.51
528.90	1832.93
529.10	1751.01
529.30	1724.39
529.50	1617.90
529.70	1683.43
529.90	1773.54
530.09	1791.97
530.29	1679.33
530.49	1699.81
530.69	1906.66
530.89	1705.96
531.09	1806.31
531.28	1691.62
531.48	1816.55
531.68	1791.97
531.88	1748.97
532.08	1779.68
532.28	1685.48
532.47	1701.86
532.67	1779.68
532.87	1779.68
533.07	1669.09
533.27	1734.63
533.46	1810.40
533.66	1724.39
533.86	1738.73
534.06	1708.01
534.26	1769.44
534.45	1703.91
534.65	1783.78
534.85	1748.97
535.05	1714.15
535.25	1761.25
535.44	1667.05
535.64	1773.54
535.84	1810.40
536.04	1753.06
536.24	1705.96
536.43	1716.20
536.63	1812.45
536.83	1693.67
537.03	1673.19
537.22	1665.00
537.42	1630.18
537.62	1730.53
537.82	1636.33
538.02	1818.60
538.21	1800.16
538.41	1939.43
538.61	1714.15
538.81	1740.77
539.00	1722.34
539.20	1636.33
539.40	1687.53
539.60	1779.68
539.79	1695.72
539.99	1712.10
540.19	1640.42
540.39	1732.58
540.58	1724.39
540.78	1767.40
540.98	1781.73
541.18	1755.11
541.37	1787.88
541.57	1673.19
541.77	1806.31
541.97	1597.42
542.16	1732.58
542.36	1730.53
542.56	1826.79
542.76	1845.22
542.95	1765.35
543.15	1761.25
543.35	1777.64
543.54	1738.73
543.74	1665.00
543.94	1839.08
544.14	1710.05
544.33	1730.53
544.53	1732.58
544.73	1638.38
544.93	1662.95
545.12	1755.11
545.32	1777.64
545.52	1718.25
545.71	1656.81
545.91	1679.33
546.11	1724.39
546.30	1650.66
546.50	1794.02
546.70	1791.97
546.90	1802.21
547.09	1634.28
547.29	1662.95
547.49	1781.73
547.68	1689.57
547.88	1714.15
548.08	1761.25
548.27	2215.90
548.47	1632.23
548.67	1632.23
548.87	1691.62
549.06	1691.62
549.26	1736.68
549.46	1738.73
549.65	1642.47
549.85	1722.34
550.05	1753.06
550.24	1683.43
550.44	1699.81
550.64	1720.29
550.83	1744.87
551.03	1746.92
551.23	1753.06
551.42	1755.11
551.62	1763.30
551.82	1773.54
552.01	1746.92
552.21	1755.11
552.41	1689.57
552.60	1851.36
552.80	1689.57
553.00	1724.39
553.19	1742.82
553.39	1740.77
553.59	1660.90
553.78	1830.88
553.98	1699.81
554.17	1660.90
554.37	1724.39
554.57	1726.44
554.76	1665.00
554.96	1701.86
555.16	1730.53
555.35	1751.01
555.55	1796.07
555.75	1785.83
555.94	1759.21
556.14	1650.66
556.33	1705.96
556.53	1732.58
556.73	1652.71
556.92	1726.44
557.12	1771.49
557.32	1820.64
557.51	1851.36
557.71	1714.15
557.90	1853.41
558.10	1814.50
558.30	1665.00
558.49	1695.72
558.69	1718.25
558.88	1785.83
559.08	1789.92
559.28	1755.11
559.47	1810.40
559.67	1714.15
559.86	1849.32
560.06	1726.44
560.26	1677.29
560.45	1783.78
560.65	1730.53
560.84	1845.22
561.04	1767.40
561.24	1716.20
561.43	1718.25
561.63	1789.92
561.82	1695.72
562.02	1753.06
562.22	1593.32
562.41	1652.71
562.61	1708.01
562.80	1648.61
563.00	1886.18
563.19	1734.63
563.39	1796.07
563.59	1808.36
563.78	1810.40
563.98	1687.53
564.17	1671.14
564.37	1677.29
564.56	1767.40
564.76	1644.52
564.96	1859.56
565.15	1720.29
565.35	1841.12
565.54	1732.58
565.74	1804.26
565.93	1771.49
566.13	1648.61
566.32	1763.30
566.52	1808.36
566.71	1767.40
566.91	1816.55
567.11	1740.77
567.30	1593.32
567.50	1726.44
567.69	1783.78
567.89	1728.49
568.08	1693.67
568.28	1812.45
568.47	1644.52
568.67	1755.11
568.86	1665.00
569.06	1822.69
569.25	1716.20
569.45	1720.29
569.64	1730.53
569.84	1675.24
570.04	1771.49
570.23	1699.81
570.43	1781.73
570.62	1771.49
570.82	1779.68
571.01	1755.11
571.21	1726.44
571.40	1697.77
571.60	1751.01
571.79	1615.85
571.99	1716.20
572.18	1759.21
572.38	1785.83
572.57	1679.33
572.77	1755.11
572.96	1961.95
573.16	1767.40
573.35	1738.73
573.55	1820.64
573.74	1695.72
573.94	1732.58
574.13	1759.21
574.33	1791.97
574.52	1839.08
574.71	1718.25
574.91	1779.68
575.10	1755.11
575.30	1662.95
575.49	1648.61
575.69	1699.81
575.88	1742.82
576.08	1714.15
576.27	1728.49
576.47	1738.73
576.66	1794.02
576.86	1869.80
577.05	1708.01
577.25	1781.73
577.44	1845.22
577.64	1712.10
577.83	1751.01
578.02	1779.68
578.22	1869.80
578.41	1949.67
578.61	1763.30
578.80	1630.18
579.00	1730.53
579.19	1781.73
579.39	1865.70
579.58	1685.48
579.77	1720.29
579.97	1826.79
580.16	1822.69
580.36	1783.78
580.55	1806.31
580.75	1814.50
580.94	1746.92
581.13	1806.31
581.33	1861.60
581.52	1716.20
581.72	1892.32
581.91	1845.22
582.11	1746.92
582.30	1849.32
582.49	1697.77
582.69	1849.32
582.88	1726.44
583.08	1841.12
583.27	1828.84
583.47	1759.21
583.66	1695.72
583.85	1781.73
584.05	1697.77
584.24	1783.78
584.44	1751.01
584.63	1816.55
584.82	1810.40
585.02	1830.88
585.21	1898.47
585.41	1783.78
585.60	1822.69
585.79	1923.04
585.99	1890.28
586.18	1841.12
586.37	2191.33
586.57	3350.48
586.76	9971.56
586.96	24422.03
587.15	34321.91
587.34	40146.33
587.54	41571.72
587.73	36160.98
587.93	25945.72
588.12	21395.13
588.31	17884.91
588.51	16158.47
588.70	15249.18
588.89	14114.60
589.09	12433.22
589.28	10999.64
589.47	9437.04
589.67	7866.25
589.86	6420.38
590.06	4982.71
590.25	3878.85
590.44	3112.91
590.64	2619.35
590.83	2226.14
591.02	2070.50
591.22	1972.19
591.41	1841.12
591.60	1884.13
591.80	1925.09
591.99	1767.40
592.18	1697.77
592.38	1800.16
592.57	1720.29
592.76	1724.39
592.96	1822.69
593.15	1722.34
593.34	1773.54
593.54	1734.63
593.73	1800.16
593.92	1775.59
594.12	1755.11
594.31	1763.30
594.50	1796.07
594.70	1796.07
594.89	1896.42
595.08	1689.57
595.28	1708.01
595.47	1888.23
595.66	1738.73
595.86	1640.42
596.05	1726.44
596.24	1687.53
596.43	1759.21
596.63	1783.78
596.82	1742.82
597.01	1716.20
597.21	1765.35
597.40	1794.02
597.59	1712.10
597.79	1759.21
597.98	1759.21
598.17	1687.53
598.36	1683.43
598.56	1798.12
598.75	1718.25
598.94	1701.86
599.14	1726.44
599.33	1628.14
599.52	1773.54
599.71	1800.16
599.91	1775.59
600.10	1701.86
600.29	1736.68
600.48	1818.60
600.68	1746.92
600.87	1730.53
601.06	1730.53
601.26	1712.10
601.45	1806.31
601.64	1777.64
601.83	1789.92
602.03	1714.15
602.22	1634.28
602.41	1775.59
602.60	1882.08
602.80	1781.73
602.99	1667.05
603.18	1714.15
603.37	1730.53
603.57	1783.78
603.76	1796.07
603.95	1779.68
604.14	1689.57
604.34	1632.23
604.53	1710.05
604.72	1705.96
604.91	1730.53
605.10	1742.82
605.30	1638.38
605.49	1904.61
605.68	1759.21
605.87	1791.97
606.07	1703.91
606.26	1712.10
606.45	1724.39
606.64	1722.34
606.84	1746.92
607.03	1689.57
607.22	1847.27
607.41	1683.43
607.60	1716.20
607.80	1808.36
607.99	1669.09
608.18	1798.12
608.37	1732.58
608.56	1679.33
608.76	1861.60
608.95	1820.64
609.14	1794.02
609.33	1751.01
609.52	1767.40
609.72	1714.15
609.91	1794.02
610.10	1705.96
610.29	1720.29
610.48	1763.30
610.68	1773.54
610.87	1798.12
611.06	1771.49
611.25	1683.43
611.44	1839.08
611.63	1697.77
611.83	1826.79
612.02	1757.16
612.21	1804.26
612.40	1624.04
612.59	1720.29
612.79	1705.96
612.98	1748.97
613.17	1769.44
613.36	1681.38
613.55	1865.70
613.74	1720.29
613.93	1660.90
614.13	1730.53
614.32	1767.40
614.51	1763.30
614.70	1705.96
614.89	1677.29
615.08	1816.55
615.28	2086.88
615.47	1624.04
615.66	1722.34
615.85	1699.81
616.04	1865.70
616.23	1714.15
616.42	1736.68
616.62	1798.12
616.81	1714.15
617.00	1675.24
617.19	1779.68
617.38	1742.82
617.57	1732.58
617.76	1667.05
617.95	1710.05
618.15	1763.30
618.34	1861.60
618.53	1658.85
618.72	1759.21
618.91	1767.40
619.10	1804.26
619.29	1751.01
619.48	1755.11
619.68	1716.20
619.87	1681.38
620.06	1732.58
620.25	1699.81
620.44	1693.67
620.63	1718.25
620.82	1683.43
621.01	1726.44
621.20	1697.77
621.39	1736.68
621.59	1730.53
621.78	1812.45
621.97	1673.19
622.16	1724.39
622.35	1740.77
622.54	1710.05
622.73	1763.30
622.92	1701.86
623.11	1734.63
623.30	1689.57
623.49	1837.03
623.68	1697.77
623.88	1787.88
624.07	1726.44
624.26	1667.05
624.45	1791.97
624.64	1654.76
624.83	1746.92
625.02	1759.21
625.21	1673.19
625.40	1720.29
625.59	1783.78
625.78	1703.91
625.97	1783.78
626.16	1769.44
626.35	1746.92
626.54	1679.33
626.74	1759.21
626.93	1701.86
627.12	1683.43
627.31	1771.49
627.50	1761.25
627.69	1720.29
627.88	1718.25
628.07	1673.19
628.26	1652.71
628.45	1689.57
628.64	1628.14
628.83	1753.06
629.02	1703.91
629.21	1763.30
629.40	1761.25
629.59	1603.56
629.78	1673.19
629.97	1767.40
630.16	1708.01
630.35	1699.81
630.54	1757.16
630.73	1732.58
630.92	1691.62
631.11	1742.82
631.30	1724.39
631.49	1728.49
631.68	1708.01
631.87	1763.30
632.06	1587.18
632.25	1861.60
632.44	1689.57
632.63	1681.38
632.82	1636.33
633.01	1636.33
633.20	1675.24
633.39	1656.81
633.58	1570.79
633.77	1699.81
633.96	1740.77
634.15	1775.59
634.34	1755.11
634.53	1671.14
634.72	1671.14
634.91	1626.09
635.10	1746.92
635.29	1804.26
635.48	1730.53
635.67	1671.14
635.86	1638.38
636.05	1783.78
636.24	1701.86
636.43	1683.43
636.62	1740.77
636.81	1624.04
637.00	1732.58
637.19	1748.97
637.38	1634.28
637.57	1689.57
637.76	1746.92
637.95	1738.73
638.14	1755.11
638.33	1662.95
638.52	1701.86
638.71	1685.48
638.89	1628.14
639.08	1880.04
639.27	1787.88
639.46	1720.29
639.65	1722.34
639.84	1691.62
640.03	1783.78
640.22	1722.34
640.41	1820.64
640.60	1648.61
640.79	1724.39
640.98	1677.29
641.17	1744.87
641.36	1722.34
641.55	1765.35
641.74	1714.15
641.92	1673.19
642.11	1593.32
642.30	1658.85
642.49	1644.52
642.68	1671.14
642.87	1734.63
643.06	1738.73
643.25	1607.66
643.44	1597.42
643.63	1695.72
643.82	1800.16
644.00	1617.90
644.19	1658.85
644.38	1642.47
644.57	1728.49
644.76	1665.00
644.95	1691.62
645.14	1708.01
645.33	1703.91
645.52	1736.68
645.71	1658.85
645.89	1572.84
646.08	1673.19
646.27	1740.77
646.46	1789.92
646.65	1630.18
646.84	1716.20
647.03	1642.47
647.22	1769.44
647.40	1734.63
647.59	1691.62
647.78	1679.33
647.97	1695.72
648.16	1656.81
648.35	1826.79
648.54	1791.97
648.73	1650.66
648.91	1783.78
649.10	1708.01
649.29	1695.72
649.48	1730.53
649.67	1804.26
649.86	1730.53
650.05	1642.47
650.23	1816.55
650.42	1699.81
650.61	1804.26
650.80	1755.11
650.99	1896.42
651.18	1767.40
651.36	1763.30
651.55	1746.92
651.74	1789.92
651.93	1683.43
652.12	1656.81
652.31	1660.90
652.49	1652.71
652.68	1658.85
652.87	1744.87
653.06	1703.91
653.25	1851.36
653.44	1632.23
653.62	1777.64
653.81	1671.14
654.00	1681.38
654.19	1796.07
654.38	1886.18
654.56	1785.83
654.75	1701.86
654.94	1830.88
655.13	1673.19
655.32	1779.68
655.51	1771.49
655.69	1654.76
655.88	1798.12
656.07	1669.09
656.26	1710.05
656.45	1601.51
656.63	1789.92
656.82	1671.14
657.01	1703.91
657.20	1689.57
657.38	1751.01
657.57	1716.20
657.76	1669.09
657.95	1794.02
658.14	1683.43
658.32	1800.16
658.51	1665.00
658.70	1691.62
658.89	1662.95
659.08	1775.59
659.26	1816.55
659.45	1632.23
659.64	1701.86
659.83	1665.00
660.01	1898.47
660.20	1654.76
660.39	1794.02
660.58	1617.90
660.76	1777.64
660.95	1705.96
661.14	1738.73
661.33	1701.86
661.51	1701.86
661.70	1753.06
661.89	1701.86
662.08	1724.39
662.26	1636.33
662.45	1703.91
662.64	1822.69
662.83	1804.26
663.01	1615.85
663.20	1736.68
663.39	1783.78
663.58	1740.77
663.76	1697.77
663.95	1732.58
664.14	1667.05
664.32	1611.75
664.51	1673.19
664.70	1626.09
664.89	1722.34
665.07	1685.48
665.26	1796.07
665.45	1603.56
665.64	1822.69
665.82	1755.11
666.01	1773.54
666.20	1665.00
666.38	1808.36
666.57	1841.12
666.76	2185.18
666.95	4470.72
667.13	10061.67
667.32	15296.28
667.51	17534.71
667.69	18796.26
667.88	17303.29
668.07	12058.44
668.25	9478.00
668.44	8048.52
668.63	7319.44
668.81	6729.63
669.00	6217.63
669.19	5648.30
669.38	5191.60
669.56	4505.53
669.75	3819.46
669.94	3362.76
670.12	2938.84
670.31	2529.24
670.50	2222.05
670.68	2105.31
670.87	1884.13
671.06	1732.58
671.24	1837.03
671.43	1828.84
671.62	1796.07
671.80	1701.86
671.99	1787.88
672.18	1744.87
672.36	1716.20
672.55	1722.34
672.74	1777.64
672.92	1695.72
673.11	1730.53
673.29	1648.61
673.48	1714.15
673.67	1714.15
673.85	1789.92
674.04	1644.52
674.23	1652.71
674.41	1820.64
674.60	1732.58
674.79	1574.89
674.97	1685.48
675.16	1759.21
675.34	1787.88
675.53	1767.40
675.72	1724.39
675.90	1769.44
676.09	1697.77
676.28	1736.68
676.46	1617.90
676.65	1775.59
676.83	1677.29
677.02	1740.77
677.21	1689.57
677.39	1697.77
677.58	1626.09
677.77	1636.33
677.95	1705.96
678.14	1611.75
678.32	1761.25
678.51	1650.66
678.70	1877.99
678.88	1681.38
679.07	1740.77
679.25	1691.62
679.44	1673.19
679.63	1617.90
679.81	1675.24
680.00	1777.64
680.18	1755.11
680.37	1822.69
680.55	1685.48
680.74	1595.37
680.93	1609.70
681.11	1714.15
681.30	1697.77
681.48	1701.86
681.67	1697.77
681.85	1701.86
682.04	1667.05
682.23	1751.01
682.41	1705.96
682.60	1673.19
682.78	1726.44
682.97	1607.66
683.15	1708.01
683.34	1699.81
683.53	1771.49
683.71	1605.61
683.90	1738.73
684.08	1800.16
684.27	1640.42
684.45	1681.38
684.64	1740.77
684.82	1716.20
685.01	1652.71
685.19	1744.87
685.38	1736.68
685.57	1765.35
685.75	1675.24
685.94	1685.48
686.12	1656.81
686.31	1658.85
686.49	1859.56
686.68	1658.85
686.86	1765.35
687.05	1755.11
687.23	1769.44
687.42	1671.14
687.60	1607.66
687.79	1757.16
687.97	1757.16
688.16	1761.25
688.34	1794.02
688.53	1630.18
688.71	1771.49
688.90	1761.25
689.08	1646.57
689.27	1626.09
689.45	1681.38
689.64	1791.97
689.82	1705.96
690.01	1753.06
690.19	1771.49
690.38	1677.29
690.56	1845.22
690.75	1689.57
690.93	1689.57
691.12	1683.43
691.30	1695.72
691.49	1699.81
691.67	1708.01
691.86	1722.34
692.04	1648.61
692.23	1712.10
692.41	1675.24
692.60	1890.28
692.78	1771.49
692.97	1640.42
693.15	1730.53
693.34	1834.98
693.52	1734.63
693.71	1662.95
693.89	1716.20
694.08	1607.66
694.26	1769.44
694.44	1800.16
694.63	1738.73
694.81	1644.52
695.00	1624.04
695.18	1779.68
695.37	1849.32
695.55	1779.68
695.74	1648.61
695.92	1665.00
696.10	1716.20
696.29	1578.98
696.47	1648.61
696.66	1671.14
696.84	1634.28
697.03	1665.00
697.21	1812.45
697.40	2357.21
697.58	1763.30
697.76	1656.81
697.95	1689.57
698.13	1628.14
698.32	1685.48
698.50	1665.00
698.68	1734.63
698.87	1757.16
699.05	1755.11
699.24	1783.78
699.42	1603.56
699.61	1691.62
699.79	1726.44
699.97	1759.21
700.16	1671.14
700.34	1697.77
700.53	1712.10
700.71	1724.39
700.89	1751.01
701.08	1652.71
701.26	1708.01
701.45	2072.54
701.63	1673.19
701.81	1714.15
702.00	1689.57
702.18	1771.49
702.37	1619.94
702.55	1761.25
702.73	1714.15
702.92	1593.32
703.10	1740.77
703.28	1773.54
703.47	1597.42
703.65	1685.48
703.84	1720.29
704.02	1703.91
704.20	1736.68
704.39	1697.77
704.57	1679.33
704.75	1755.11
704.94	1820.64
705.12	1751.01
705.30	1800.16
705.49	2260.96
705.67	4474.81
705.86	9346.93
706.04	12345.16
706.22	14167.85
706.41	15271.70
706.59	13723.44
706.77	9596.78
706.96	7417.74
707.14	6514.59
707.32	5754.79
707.51	5681.07
707.69	4939.70
707.87	4155.33
708.06	3426.25
708.24	3002.32
708.42	2414.56
708.61	2168.80
708.79	1865.70
708.97	1890.28
709.16	1742.82
709.34	1748.97
709.52	1767.40
709.71	1708.01
709.89	1820.64
710.07	1634.28
710.26	1652.71
710.44	1736.68
710.62	1744.87
710.80	1644.52
710.99	1710.05
711.17	1779.68
711.35	1695.72
711.54	1705.96
711.72	1742.82
711.90	1812.45
712.09	1728.49
712.27	1703.91
712.45	1779.68
712.63	1705.96
712.82	1656.81
713.00	1767.40
713.18	1714.15
713.37	1708.01
713.55	1730.53
713.73	1697.77
713.91	1679.33
714.10	1689.57
714.28	1763.30
714.46	1716.20
714.65	1763.30
714.83	1771.49
715.01	1675.24
715.19	1667.05
715.38	1703.91
715.56	1748.97
715.74	1669.09
715.92	1642.47
716.11	1785.83
716.29	1621.99
716.47	1753.06
716.65	1697.77
716.84	1574.89
717.02	1841.12
717.20	1648.61
717.38	1703.91
717.57	1765.35
717.75	1710.05
717.93	1689.57
718.11	1693.67
718.30	1650.66
718.48	1736.68
718.66	1791.97
718.84	1769.44
719.03	1689.57
719.21	1740.77
719.39	1697.77
719.57	1763.30
719.75	1718.25
719.94	1675.24
720.12	1677.29
720.30	1660.90
720.48	1742.82
720.67	1705.96
720.85	1624.04
721.03	1683.43
721.21	1716.20
721.39	1806.31
721.58	1671.14
721.76	1691.62
721.94	1665.00
722.12	1740.77
722.30	1734.63
722.49	1675.24
722.67	1667.05
722.85	1798.12
723.03	1681.38
723.21	1730.53
723.40	1728.49
723.58	1714.15
723.76	1703.91
723.94	1816.55
724.12	1640.42
724.30	1765.35
724.49	1746.92
724.67	1724.39
724.85	1863.65
725.03	1621.99
725.21	1765.35
725.40	1783.78
725.58	1712.10
725.76	1765.35
725.94	1603.56
726.12	1650.66
726.30	1714.15
726.49	1640.42
726.67	1724.39
726.85	1748.97
727.03	1812.45
727.21	2189.28
727.39	2789.33
727.57	3710.92
727.76	4126.66
727.94	4401.08
728.12	4235.20
728.30	3520.46
728.48	2904.02
728.66	2705.37
728.84	2605.02
729.03	2250.72
729.21	2150.37
729.39	2011.11
729.57	1841.12
729.75	1834.98
729.93	1849.32
730.11	1654.76
730.30	1714.15
730.48	1644.52
730.66	1832.93
730.84	1710.05
731.02	1736.68
731.20	1746.92
731.38	1726.44
731.56	1695.72
731.74	1687.53
731.93	1744.87
732.11	1701.86
732.29	1677.29
732.47	1701.86
732.65	1697.77
732.83	1763.30
733.01	1724.39
733.19	1648.61
733.37	1748.97
733.56	1781.73
733.74	1710.05
733.92	1783.78
734.10	1726.44
734.28	1714.15
734.46	1642.47
734.64	1628.14
734.82	1662.95
735.00	1673.19
735.18	1679.33
735.36	1738.73
735.54	1726.44
735.73	1753.06
735.91	1787.88
736.09	1656.81
736.27	1695.72
736.45	1714.15
736.63	1644.52
736.81	1734.63
736.99	1714.15
737.17	1748.97
737.35	1654.76
737.53	1781.73
737.71	1673.19
737.89	1761.25
738.07	1677.29
738.25	1662.95
738.43	1628.14
738.61	1591.27
738.80	1656.81
738.98	1691.62
739.16	1691.62
739.34	1632.23
739.52	1794.02
739.70	1662.95
739.88	1781.73
740.06	1820.64
740.24	1562.60
740.42	1710.05
740.60	1691.62
740.78	1677.29
740.96	1638.38
741.14	1708.01
741.32	1724.39
741.50	1613.80
741.68	1804.26
741.86	1720.29
742.04	1712.10
742.22	1638.38
742.40	1630.18
742.58	1726.44
742.76	1695.72
742.94	1763.30
743.12	1615.85
743.30	1705.96
743.48	1720.29
743.66	1757.16
743.84	1732.58
744.02	1595.37
744.20	1716.20
744.38	1734.63
744.56	1630.18
744.74	1841.12
744.92	1724.39
745.10	1767.40
745.28	1818.60
745.46	1818.60
745.64	1695.72
745.82	1652.71
746.00	1679.33
746.18	1730.53
746.36	1699.81
746.54	1665.00
746.72	1681.38
746.90	1701.86
747.08	1773.54
747.26	1714.15
747.44	1757.16
747.62	1650.66
747.80	1689.57
747.98	1765.35
748.15	1677.29
748.33	1753.06
748.51	1681.38
748.69	1753.06
748.87	1701.86
749.05	1660.90
749.23	1640.42
749.41	1763.30
749.59	1703.91
749.77	1695.72
749.95	1724.39
750.13	1701.86
750.31	1734.63
750.49	1677.29
750.67	1779.68
750.85	1753.06
751.03	1755.11
751.20	1759.21
751.38	1738.73
751.56	1628.14
751.74	1681.38
751.92	1669.09
752.10	1599.46
752.28	1839.08
752.46	1695.72
752.64	1660.90
752.82	1777.64
753.00	1761.25
753.18	1716.20
753.35	1568.74
753.53	1714.15
753.71	1626.09
753.89	1779.68
754.07	1753.06
754.25	1718.25
754.43	1671.14
754.61	1605.61
754.79	1736.68
754.97	1656.81
755.14	1832.93
755.32	1613.80
755.50	1753.06
755.68	1726.44
755.86	1652.71
756.04	1693.67
756.22	1568.74
756.40	1746.92
756.57	1773.54
756.75	1673.19
756.93	1671.14
757.11	1746.92
757.29	1660.90
757.47	1667.05
757.65	1621.99
757.82	1540.07
758.00	1656.81
758.18	1681.38
758.36	1685.48
758.54	1781.73
758.72	1720.29
758.90	1783.78
759.07	1669.09
759.25	1624.04
759.43	1808.36
759.61	1589.22
759.79	2119.65
759.97	1691.62
760.15	1722.34
760.32	1638.38
760.50	1710.05
760.68	1810.40
760.86	1585.13
761.04	1740.77
761.22	1804.26
761.39	1642.47
761.57	1734.63
761.75	1685.48
761.93	1763.30
762.11	1667.05
762.28	1716.20
762.46	1619.94
762.64	1722.34
762.82	1679.33
763.00	1695.72
763.18	1861.60
763.35	1648.61
763.53	1728.49
763.71	1734.63
763.89	1724.39
764.07	1734.63
764.24	1697.77
764.42	1740.77
764.60	1730.53
764.78	1738.73
764.96	1787.88
765.13	1791.97
765.31	1673.19
765.49	1742.82
765.67	1675.24
765.84	1669.09
766.02	1656.81
766.20	1640.42
766.38	1769.44
766.56	1812.45
766.73	1722.34
766.91	1718.25
767.09	1742.82
767.27	1722.34
767.44	1652.71
767.62	1665.00
767.80	1718.25
767.98	1712.10
768.15	1648.61
768.33	1701.86
768.51	1699.81
768.69	1730.53
768.87	1705.96
769.04	1640.42
769.22	1859.56
769.40	1800.16
769.58	1896.42
769.75	1691.62
769.93	1740.77
770.11	1771.49
770.28	1665.00
770.46	1738.73
770.64	1765.35
770.82	1685.48
770.99	1669.09
771.17	1779.68
771.35	1753.06
771.53	1546.22
771.70	1730.53
771.88	1718.25
772.06	1703.91
772.23	1716.20
772.41	1730.53
772.59	1703.91
772.77	1583.08
772.94	1646.57
773.12	1732.58
773.30	1656.81
773.47	1726.44
773.65	1626.09
773.83	1773.54
774.01	1648.61
774.18	1632.23
774.36	1689.57
774.54	1648.61
774.71	1691.62
774.89	1611.75
775.07	1648.61
775.24	1677.29
775.42	1667.05
775.60	1822.69
775.78	1691.62
775.95	1675.24
776.13	1578.98
776.31	1509.35
776.48	1714.15
776.66	1755.11
776.84	1691.62
777.01	1650.66
777.19	1722.34
777.37	1673.19
777.54	1687.53
777.72	1767.40
777.90	1667.05
778.07	1628.14
778.25	1873.89
778.43	1755.11
778.60	1650.66
778.78	1824.74
778.96	1691.62
779.13	1650.66
779.31	1742.82
779.49	1718.25
779.66	1687.53
779.84	1638.38
780.01	1695.72
780.19	1607.66
780.37	1781.73
780.54	1748.97
780.72	1642.47
780.90	1691.62
781.07	1771.49
781.25	1642.47
781.43	1802.21
781.60	1681.38
781.78	1681.38
781.95	1703.91
782.13	1720.29
782.31	1730.53
782.48	1587.18
782.66	1705.96
782.83	1789.92
783.01	1732.58
783.19	1656.81
783.36	1673.19
783.54	1656.81
783.72	1798.12
783.89	1699.81
784.07	1693.67
784.24	1738.73
784.42	1794.02
784.60	1669.09
784.77	1734.63
784.95	1533.93
785.12	1662.95
785.30	1720.29
785.47	1701.86
785.65	1703.91
785.83	1652.71
786.00	1744.87
786.18	1726.44
786.35	1591.27
786.53	1646.57
786.71	1800.16
786.88	1689.57
787.06	1726.44
787.23	1773.54
787.41	1630.18
787.58	1665.00
787.76	1703.91
787.94	1751.01
788.11	1703.91
788.29	1621.99
788.46	1656.81
788.64	1640.42
788.81	1656.81
788.99	1652.71
789.16	1603.56
789.34	1710.05
789.52	1687.53
789.69	1632.23
789.87	1626.09
790.04	1761.25
790.22	1689.57
790.39	1884.13
790.57	1683.43
790.74	1638.38
790.92	1675.24
791.09	1599.46
791.27	1746.92
791.44	1724.39
791.62	1634.28
791.79	1736.68
791.97	1701.86
792.15	1851.36
792.32	1642.47
792.50	1744.87
792.67	1894.37
792.85	1820.64
793.02	1728.49
793.20	1681.38
793.37	1642.47
793.55	1652.71
793.72	1636.33
793.90	1781.73
794.07	1572.84
794.25	1671.14
794.42	1671.14
794.60	1718.25
794.77	1691.62
794.95	1818.60
795.12	1771.49
795.30	1648.61
795.47	1658.85
795.65	1857.51
795.82	1720.29
796.00	1634.28
796.17	1705.96
796.34	1679.33
796.52	1732.58
796.69	1783.78
796.87	1742.82
797.04	1679.33
797.22	1691.62
797.39	1732.58
797.57	1812.45
797.74	1708.01
797.92	1681.38
798.09	1673.19
798.27	1769.44
798.44	1705.96
798.62	1578.98
798.79	1642.47
798.96	1775.59
799.14	1675.24
799.31	1787.88
799.49	1673.19
799.66	1669.09
799.84	1732.58
800.01	1652.71
800.19	1712.10
800.36	1681.38
800.53	1710.05
800.71	1740.77
800.88	1802.21
801.06	1615.85
801.23	1681.38
801.41	1660.90
801.58	1681.38
801.75	1603.56
801.93	1710.05
802.10	1634.28
802.28	1695.72
802.45	1624.04
802.63	1708.01
802.80	1775.59
802.97	1685.48
803.15	1665.00
803.32	1714.15
803.50	1628.14
803.67	1609.70
803.84	1570.79
804.02	1718.25
804.19	1710.05
804.37	1550.31
804.54	1642.47
804.71	1654.76
804.89	1646.57
805.06	1660.90
805.24	1697.77
805.41	1636.33
805.58	1675.24
805.76	1871.84
805.93	1685.48
806.10	1800.16
806.28	1708.01
806.45	1748.97
806.63	1701.86
806.80	1718.25
806.97	1761.25
807.15	1689.57
807.32	1675.24
807.49	1665.00
807.67	1597.42
807.84	1675.24
808.01	1558.50
808.19	1787.88
808.36	1808.36
808.54	1652.71
808.71	1615.85
808.88	1624.04
809.06	1804.26
809.23	1834.98
809.40	1652.71
809.58	1716.20
809.75	1716.20
809.92	1695.72
810.10	1884.13
810.27	1683.43
810.44	1681.38
810.62	1744.87
810.79	1759.21
810.96	1697.77
811.14	1683.43
811.31	1771.49
811.48	1759.21
811.66	1697.77
811.83	1785.83
812.00	1718.25
812.18	1687.53
812.35	1830.88
812.52	1599.46
812.69	1718.25
812.87	1662.95
813.04	1589.22
813.21	1650.66
813.39	1593.32
813.56	1609.70
813.73	1699.81
813.91	1658.85
814.08	1681.38
814.25	1652.71
814.42	1605.61
814.60	1767.40
814.77	1667.05
814.94	1660.90
815.12	1679.33
815.29	1685.48
815.46	1613.80
815.63	1675.24
815.81	1773.54
815.98	1630.18
816.15	1681.38
816.33	1771.49
816.50	1621.99
816.67	1746.92
816.84	1705.96
817.02	1650.66
817.19	1660.90
817.36	1714.15
817.53	1691.62
817.71	1636.33
817.88	1708.01
818.05	1671.14
818.22	1658.85
818.40	1714.15
818.57	1665.00
818.74	1683.43
818.91	1683.43
819.09	1718.25
819.26	1716.20
819.43	1595.37
819.60	1658.85
819.78	1712.10
819.95	1787.88
820.12	1716.20
820.29	1798.12
820.47	1767.40
820.64	1675.24
820.81	1546.22
820.98	1679.33
821.15	1714.15
821.33	1716.20
821.50	1562.60
821.67	1708.01
821.84	1724.39
822.02	1730.53
822.19	1726.44
822.36	1787.88
822.53	1626.09
822.70	1658.85
822.88	1630.18
823.05	1693.67
823.22	1658.85
823.39	1708.01
823.56	1738.73
823.74	1732.58
823.91	1648.61
824.08	1662.95
824.25	1621.99
824.42	1732.58
824.60	1624.04
824.77	1736.68
824.94	1740.77
825.11	1730.53
825.28	1611.75
825.45	1734.63
825.63	1732.58
825.80	1632.23
825.97	1720.29
826.14	1705.96
826.31	1593.32
826.48	1691.62
826.66	1634.28
826.83	1644.52
827.00	1742.82
827.17	1624.04
827.34	1693.67
827.51	1650.66
827.69	1632.23
827.86	1613.80
828.03	1714.15
828.20	1665.00
828.37	1669.09
828.54	1665.00
828.71	1720.29
828.89	1806.31
829.06	1697.77
829.23	1837.03
829.40	1648.61
829.57	1701.86
829.74	1759.21
829.91	1646.57
830.09	1695.72
830.26	1722.34
830.43	1728.49
830.60	1740.77
830.77	1730.53
830.94	1771.49
831.11	1791.97
831.28	1648.61
831.46	1808.36
831.63	1693.67
831.80	1771.49
831.97	1587.18
832.14	1662.95
832.31	1726.44
832.48	1689.57
832.65	1728.49
832.82	1751.01
832.99	1730.53
833.17	1703.91
833.34	1748.97
833.51	1744.87
833.68	1587.18
833.85	1722.34
834.02	1701.86
834.19	1671.14
834.36	1714.15
834.53	1697.77
834.70	1738.73
834.87	1769.44
835.04	1708.01
835.22	1628.14
835.39	1636.33
835.56	1628.14
835.73	1611.75
835.90	1748.97
836.07	1689.57
836.24	1738.73
836.41	1638.38
836.58	1675.24
836.75	1730.53
836.92	1775.59
837.09	1716.20
837.26	1705.96
837.43	1619.94
837.60	1718.25
837.77	1683.43
837.94	1773.54
838.12	1771.49
838.29	1734.63
838.46	1714.15
838.63	1667.05
838.80	1722.34
838.97	1720.29
839.14	1726.44
839.31	1738.73
839.48	1689.57
839.65	1650.66
839.82	1748.97
839.99	1683.43
840.16	1687.53
840.33	1630.18
840.50	1714.15
840.67	1644.52
840.84	1513.45
841.01	1730.53
841.18	1675.24
841.35	1669.09
841.52	1767.40
841.69	1804.26
841.86	1632.23
842.03	1708.01
842.20	1667.05
842.37	1683.43
842.54	1722.34
842.71	1714.15
842.88	1667.05
843.05	1728.49
843.22	1685.48
843.39	1769.44
843.56	1685.48
843.73	1742.82
843.90	1691.62
844.07	1705.96
844.24	1734.63
844.41	1755.11
844.58	1634.28
844.75	1691.62
844.92	1679.33
845.09	1728.49
845.26	1687.53
845.43	1742.82
845.60	1667.05
845.77	1718.25
845.94	1652.71
846.10	1746.92
846.27	1619.94
846.44	1699.81
846.61	1667.05
846.78	1716.20
846.95	1728.49
847.12	1611.75
847.29	1712.10
847.46	1714.15
847.63	1755.11
847.80	1712.10
847.97	1734.63
848.14	1783.78
848.31	1626.09
848.48	1699.81
848.65	1705.96
848.82	1621.99
848.98	1810.40
849.15	1761.25
849.32	1755.11
849.49	1800.16
849.66	1710.05
849.83	1695.72
850.00	1589.22
850.17	1742.82
850.34	1677.29
850.51	1640.42
850.68	1763.30
850.85	1785.83
851.01	1718.25
851.18	1691.62
851.35	1658.85
851.52	1744.87
851.69	1816.55
851.86	1605.61
852.03	1724.39
852.20	1763.30
852.37	1736.68
852.53	1597.42
852.70	1734.63
852.87	1689.57
853.04	1691.62
853.21	1710.05
853.38	1734.63
853.55	1761.25
853.72	1726.44
853.89	1630.18
854.05	1656.81
854.22	1714.15
854.39	1640.42
854.56	1654.76
854.73	1718.25
854.90	1654.76
855.07	1714.15
855.23	1630.18
855.40	1740.77
855.57	1697.77
855.74	1583.08
855.91	1853.41
856.08	1697.77
856.25	1632.23
856.41	1636.33
856.58	1693.67
856.75	1708.01
856.92	1591.27
857.09	1769.44
857.26	1621.99
857.42	1710.05
857.59	1789.92
857.76	1673.19
857.93	1662.95
858.10	1699.81
858.27	1650.66
858.43	1691.62
858.60	1634.28
858.77	1665.00
858.94	1656.81
859.11	1699.81
859.27	1703.91
859.44	1691.62
859.61	1742.82
859.78	1753.06
859.95	1691.62
860.12	1660.90
860.28	1816.55
860.45	1794.02
860.62	1636.33
860.79	1665.00
860.95	1656.81
861.12	1634.28
861.29	1708.01
861.46	1640.42
861.63	1681.38
861.79	1714.15
861.96	1675.24
862.13	1667.05
862.30	1781.73
862.47	1611.75
862.63	1619.94
862.80	1828.84
862.97	1710.05
863.14	1722.34
863.30	1689.57
863.47	1673.19
863.64	1794.02
863.81	1728.49
863.97	1652.71
864.14	1669.09
864.31	1632.23
864.48	1738.73
864.65	1673.19
864.81	1746.92
864.98	1665.00
865.15	1714.15
865.32	1697.77
865.48	1802.21
865.65	1718.25
865.82	1632.23
865.98	1761.25
866.15	1726.44
866.32	1644.52
866.49	1652.71
866.65	1730.53
866.82	1716.20
866.99	1703.91
867.16	1638.38
867.32	1648.61
867.49	1697.77
867.66	1740.77
867.83	1611.75
867.99	1624.04
868.16	1685.48
868.33	1665.00
868.49	1718.25
868.66	1630.18
868.83	1693.67
868.99	1687.53
869.16	1744.87
869.33	1751.01
869.50	1781.73
869.66	1701.86
869.83	1642.47
870.00	1685.48
870.16	1689.57
870.33	1642.47
870.50	1773.54
870.66	1691.62
870.83	1806.31
871.00	1660.90
871.17	1708.01
871.33	1716.20
871.50	1712.10
871.67	1673.19
871.83	1755.11
872.00	1783.78
872.17	1621.99
872.33	1759.21
872.50	1763.30
872.67	1656.81
872.83	1695.72
873.00	1769.44
873.17	1665.00
873.33	1685.48
873.50	1734.63
873.67	1624.04
873.83	1634.28
874.00	1652.71
874.16	1705.96
874.33	1734.63
874.50	1578.98
874.66	1710.05
874.83	1673.19
875.00	1748.97
875.16	1748.97
875.33	1773.54
875.50	1568.74
875.66	1685.48
875.83	1734.63
875.99	1705.96
876.16	1656.81
876.33	1630.18
876.49	1638.38
876.66	1748.97
876.83	1691.62
876.99	1638.38
877.16	1757.16
877.32	1597.42
877.49	1685.48
877.66	1714.15
877.82	1759.21
877.99	1691.62
878.15	1697.77
878.32	1681.38
878.49	1703.91
878.65	1679.33
878.82	1742.82
878.98	1677.29
879.15	1765.35
879.32	1748.97
879.48	1689.57
879.65	1763.30
879.81	1595.37
879.98	1662.95
880.15	1693.67
880.31	1679.33
880.48	1658.85
880.64	1775.59
880.81	1697.77
880.97	1746.92
881.14	1757.16
881.31	1601.51
881.47	1755.11
881.64	1665.00
881.80	1656.81
881.97	1755.11
882.13	1705.96
882.30	1628.14
882.47	1693.67
882.63	1634.28
882.80	1624.04
882.96	1658.85
883.13	1791.97
883.29	1708.01
883.46	1703.91
883.62	1726.44
883.79	1724.39
883.95	1798.12
884.12	1693.67
884.29	1732.58
884.45	1632.23
884.62	1734.63
884.78	1656.81
884.95	1763.30
885.11	1591.27
885.28	1724.39
885.44	1724.39
885.61	1736.68
885.77	1849.32
885.94	1755.11
886.10	1746.92
886.27	1636.33
886.43	1763.30
886.60	1685.48
886.76	1738.73
886.93	1689.57
887.09	1742.82
887.26	1591.27
887.42	1703.91
887.59	1783.78
887.75	1851.36
887.92	1726.44
888.08	1767.40
888.25	1863.65
888.41	1710.05
888.58	1759.21
888.74	1652.71
888.91	1648.61
>>>>>End Processed Spectral Data<<<<<
