SpectraSuite Data File
++++++++++++++++++++++++++++++++++++
Date: Mon Jun 06 16:52:37 CEST 2016
User: root
Dark Spectrum Present: No
Reference Spectrum Present: No
Number of Sampled Component Spectra: 1
Spectrometers: USB4C02835
Integration Time (usec): 100000 (USB4C02835)
Spectra Averaged: 1 (USB4C02835)
Boxcar Smoothing: 0 (USB4C02835)
Correct for Electrical Dark: No (USB4C02835)
Strobe/Lamp Enabled: No (USB4C02835)
Correct for Detector Non-linearity: No (USB4C02835)
Correct for Stray Light: No (USB4C02835)
Number of Pixels in Processed Spectrum: 3648
>>>>>Begin Processed Spectral Data<<<<<
177.47	1456.11
177.69	1456.11
177.91	1456.11
178.13	1445.87
178.36	1476.59
178.58	1675.24
178.80	1732.58
179.02	1665.00
179.24	1660.90
179.46	1703.91
179.68	1787.88
179.90	1689.57
180.13	1691.62
180.35	1720.29
180.57	1632.23
180.79	1714.15
181.01	1730.53
181.23	1787.88
181.45	1765.35
181.67	1740.77
181.90	1667.05
182.12	1628.14
182.34	1603.56
182.56	1777.64
182.78	1738.73
183.00	1710.05
183.22	1773.54
183.44	1646.57
183.66	1894.37
183.89	1771.49
184.11	1734.63
184.33	1740.77
184.55	1714.15
184.77	1708.01
184.99	1699.81
185.21	1677.29
185.43	1882.08
185.65	1638.38
185.87	1787.88
186.10	1746.92
186.32	1896.42
186.54	1767.40
186.76	1705.96
186.98	1683.43
187.20	1714.15
187.42	1605.61
187.64	1744.87
187.86	1726.44
188.08	1740.77
188.30	1673.19
188.52	1814.50
188.75	1744.87
188.97	1791.97
189.19	1621.99
189.41	1687.53
189.63	1703.91
189.85	1738.73
190.07	1626.09
190.29	1689.57
190.51	1712.10
190.73	1673.19
190.95	1783.78
191.17	1628.14
191.39	1646.57
191.61	1699.81
191.84	1755.11
192.06	1765.35
192.28	1581.03
192.50	1886.18
192.72	1746.92
192.94	1699.81
193.16	1753.06
193.38	1718.25
193.60	1636.33
193.82	1705.96
194.04	1800.16
194.26	1714.15
194.48	1775.59
194.70	1669.09
194.92	1640.42
195.14	1671.14
195.36	1718.25
195.58	1734.63
195.80	1714.15
196.02	1609.70
196.24	1714.15
196.46	1695.72
196.69	1708.01
196.91	1904.61
197.13	1648.61
197.35	1681.38
197.57	1871.84
197.79	1691.62
198.01	1722.34
198.23	1853.41
198.45	1705.96
198.67	1630.18
198.89	1773.54
199.11	1789.92
199.33	1710.05
199.55	1636.33
199.77	1568.74
199.99	1806.31
200.21	1710.05
200.43	1767.40
200.65	1646.57
200.87	1626.09
201.09	1667.05
201.31	1753.06
201.53	1681.38
201.75	1728.49
201.97	1767.40
202.19	1699.81
202.41	1783.78
202.63	1804.26
202.85	1724.39
203.07	1728.49
203.29	1685.48
203.51	1638.38
203.73	1665.00
203.95	1837.03
204.17	1734.63
204.39	1816.55
204.61	1695.72
204.83	1705.96
205.05	1728.49
205.27	1697.77
205.49	1841.12
205.71	1724.39
205.93	1683.43
206.15	1654.76
206.37	1785.83
206.59	1730.53
206.81	1642.47
207.03	1624.04
207.25	1658.85
207.47	1796.07
207.69	1714.15
207.91	1769.44
208.13	1789.92
208.34	1701.86
208.56	1638.38
208.78	1708.01
209.00	1693.67
209.22	1703.91
209.44	1751.01
209.66	1685.48
209.88	1712.10
210.10	1673.19
210.32	1718.25
210.54	1845.22
210.76	1726.44
210.98	1718.25
211.20	1550.31
211.42	1689.57
211.64	1722.34
211.86	1763.30
212.08	1697.77
212.30	1728.49
212.52	1742.82
212.74	1701.86
212.96	1730.53
213.17	1722.34
213.39	1746.92
213.61	1738.73
213.83	1724.39
214.05	1701.86
214.27	1787.88
214.49	1728.49
214.71	1699.81
214.93	1765.35
215.15	1687.53
215.37	1783.78
215.59	1714.15
215.81	1775.59
216.03	1765.35
216.24	1648.61
216.46	1701.86
216.68	1734.63
216.90	1726.44
217.12	1705.96
217.34	1773.54
217.56	1675.24
217.78	1771.49
218.00	1753.06
218.22	1718.25
218.44	1662.95
218.66	1693.67
218.87	1789.92
219.09	1722.34
219.31	1841.12
219.53	1757.16
219.75	1716.20
219.97	1683.43
220.19	1705.96
220.41	1724.39
220.63	1808.36
220.85	1722.34
221.06	1697.77
221.28	1828.84
221.50	1789.92
221.72	1644.52
221.94	1736.68
222.16	1693.67
222.38	1818.60
222.60	1812.45
222.82	1718.25
223.03	1746.92
223.25	1605.61
223.47	1753.06
223.69	1787.88
223.91	1767.40
224.13	1669.09
224.35	1699.81
224.57	1791.97
224.78	1732.58
225.00	1726.44
225.22	1710.05
225.44	1730.53
225.66	1697.77
225.88	1746.92
226.10	1632.23
226.32	1765.35
226.53	1771.49
226.75	1714.15
226.97	1779.68
227.19	1718.25
227.41	1695.72
227.63	1671.14
227.85	1546.22
228.06	1703.91
228.28	1712.10
228.50	1777.64
228.72	1681.38
228.94	1640.42
229.16	1542.12
229.37	1720.29
229.59	1730.53
229.81	1794.02
230.03	1685.48
230.25	1652.71
230.47	1611.75
230.69	1652.71
230.90	1705.96
231.12	1679.33
231.34	1691.62
231.56	1775.59
231.78	1617.90
232.00	1722.34
232.21	1708.01
232.43	1730.53
232.65	1601.51
232.87	1683.43
233.09	1660.90
233.30	1689.57
233.52	1748.97
233.74	1722.34
233.96	1722.34
234.18	1714.15
234.40	1710.05
234.61	1890.28
234.83	1566.70
235.05	1679.33
235.27	1802.21
235.49	1796.07
235.70	1691.62
235.92	1843.17
236.14	1740.77
236.36	1828.84
236.58	1693.67
236.79	1802.21
237.01	1720.29
237.23	1705.96
237.45	1828.84
237.67	1607.66
237.88	1740.77
238.10	1806.31
238.32	1638.38
238.54	1632.23
238.76	1703.91
238.97	1626.09
239.19	1693.67
239.41	1722.34
239.63	1816.55
239.85	1705.96
240.06	1691.62
240.28	1779.68
240.50	1701.86
240.72	1705.96
240.93	1734.63
241.15	1783.78
241.37	1648.61
241.59	1814.50
241.81	1767.40
242.02	1654.76
242.24	1734.63
242.46	1755.11
242.68	1632.23
242.89	1683.43
243.11	1763.30
243.33	1742.82
243.55	1791.97
243.76	1761.25
243.98	1677.29
244.20	1783.78
244.42	1740.77
244.64	1761.25
244.85	1660.90
245.07	1665.00
245.29	1734.63
245.51	1675.24
245.72	1810.40
245.94	1777.64
246.16	1845.22
246.38	1689.57
246.59	1708.01
246.81	1634.28
247.03	1710.05
247.24	1703.91
247.46	1683.43
247.68	1695.72
247.90	1648.61
248.11	1669.09
248.33	1744.87
248.55	1691.62
248.77	1665.00
248.98	1757.16
249.20	1779.68
249.42	1660.90
249.64	1732.58
249.85	1708.01
250.07	1609.70
250.29	1714.15
250.50	1699.81
250.72	1591.27
250.94	1744.87
251.16	1826.79
251.37	1843.17
251.59	1787.88
251.81	1763.30
252.02	1742.82
252.24	1660.90
252.46	1755.11
252.68	1662.95
252.89	1744.87
253.11	1609.70
253.33	1796.07
253.54	1701.86
253.76	1650.66
253.98	1656.81
254.20	1675.24
254.41	1656.81
254.63	1722.34
254.85	1630.18
255.06	1673.19
255.28	1683.43
255.50	1740.77
255.71	1724.39
255.93	1673.19
256.15	1615.85
256.36	1843.17
256.58	1673.19
256.80	1755.11
257.02	1701.86
257.23	1683.43
257.45	1736.68
257.67	1746.92
257.88	1599.46
258.10	1787.88
258.32	1701.86
258.53	1691.62
258.75	1720.29
258.97	1638.38
259.18	1744.87
259.40	1718.25
259.62	1855.46
259.83	1802.21
260.05	1798.12
260.27	2027.49
260.48	1828.84
260.70	1591.27
260.92	1701.86
261.13	1718.25
261.35	1736.68
261.57	1744.87
261.78	1581.03
262.00	1667.05
262.22	1644.52
262.43	1619.94
262.65	1714.15
262.86	1695.72
263.08	1826.79
263.30	1654.76
263.51	1654.76
263.73	1685.48
263.95	1832.93
264.16	1617.90
264.38	1708.01
264.60	1703.91
264.81	1646.57
265.03	1746.92
265.25	1701.86
265.46	1665.00
265.68	1740.77
265.89	1771.49
266.11	1617.90
266.33	1753.06
266.54	1847.27
266.76	1796.07
266.98	1775.59
267.19	1787.88
267.41	1791.97
267.62	1693.67
267.84	1683.43
268.06	1710.05
268.27	1658.85
268.49	1746.92
268.70	1740.77
268.92	1673.19
269.14	1601.51
269.35	1650.66
269.57	1726.44
269.79	1779.68
270.00	1740.77
270.22	1753.06
270.43	1673.19
270.65	1607.66
270.87	1662.95
271.08	1794.02
271.30	1681.38
271.51	1695.72
271.73	1730.53
271.95	1683.43
272.16	1767.40
272.38	1720.29
272.59	1730.53
272.81	1699.81
273.02	1734.63
273.24	1767.40
273.46	1763.30
273.67	1609.70
273.89	1644.52
274.10	1656.81
274.32	1789.92
274.54	1703.91
274.75	1802.21
274.97	1716.20
275.18	1777.64
275.40	1779.68
275.61	1656.81
275.83	1738.73
276.05	1642.47
276.26	1679.33
276.48	1744.87
276.69	1691.62
276.91	1691.62
277.12	1761.25
277.34	1771.49
277.55	1773.54
277.77	1759.21
277.99	1701.86
278.20	1597.42
278.42	1646.57
278.63	1617.90
278.85	1679.33
279.06	1675.24
279.28	1755.11
279.49	1773.54
279.71	1691.62
279.93	1685.48
280.14	1699.81
280.36	1611.75
280.57	1746.92
280.79	1755.11
281.00	1701.86
281.22	1697.77
281.43	1763.30
281.65	1538.02
281.86	1601.51
282.08	1712.10
282.29	1820.64
282.51	1710.05
282.73	1726.44
282.94	1656.81
283.16	1695.72
283.37	1683.43
283.59	1730.53
283.80	1714.15
284.02	1746.92
284.23	1669.09
284.45	1755.11
284.66	1634.28
284.88	1660.90
285.09	1687.53
285.31	1738.73
285.52	1710.05
285.74	1605.61
285.95	1714.15
286.17	1798.12
286.38	1712.10
286.60	1669.09
286.81	1675.24
287.03	1675.24
287.24	1701.86
287.46	1724.39
287.67	1701.86
287.89	1863.65
288.10	1720.29
288.32	1755.11
288.53	1746.92
288.75	1738.73
288.96	1683.43
289.18	1683.43
289.39	1650.66
289.61	1726.44
289.82	1796.07
290.04	1765.35
290.25	1660.90
290.47	1734.63
290.68	1665.00
290.90	1802.21
291.11	1540.07
291.33	1734.63
291.54	1632.23
291.76	1650.66
291.97	1673.19
292.18	1806.31
292.40	1722.34
292.61	1667.05
292.83	1884.13
293.04	1712.10
293.26	1718.25
293.47	1712.10
293.69	1695.72
293.90	1693.67
294.12	1742.82
294.33	1742.82
294.55	1705.96
294.76	1714.15
294.97	1789.92
295.19	1798.12
295.40	1740.77
295.62	1691.62
295.83	1851.36
296.05	1656.81
296.26	1791.97
296.48	1658.85
296.69	1699.81
296.90	1718.25
297.12	1703.91
297.33	1742.82
297.55	1634.28
297.76	1730.53
297.98	1740.77
298.19	1751.01
298.41	1720.29
298.62	1658.85
298.83	1794.02
299.05	1718.25
299.26	1638.38
299.48	1693.67
299.69	1714.15
299.90	1714.15
300.12	1669.09
300.33	1779.68
300.55	1687.53
300.76	1716.20
300.98	1746.92
301.19	1734.63
301.40	1802.21
301.62	1675.24
301.83	1728.49
302.05	1734.63
302.26	1767.40
302.47	1742.82
302.69	1691.62
302.90	1751.01
303.12	1652.71
303.33	1779.68
303.54	1882.08
303.76	1693.67
303.97	1662.95
304.19	1822.69
304.40	1591.27
304.61	1701.86
304.83	1837.03
305.04	1746.92
305.26	1832.93
305.47	1652.71
305.68	1708.01
305.90	1628.14
306.11	1748.97
306.33	1703.91
306.54	1693.67
306.75	1671.14
306.97	1599.46
307.18	1708.01
307.39	1675.24
307.61	1728.49
307.82	1665.00
308.04	1716.20
308.25	1705.96
308.46	1685.48
308.68	1757.16
308.89	1728.49
309.10	1710.05
309.32	1781.73
309.53	1742.82
309.74	1765.35
309.96	1714.15
310.17	1740.77
310.39	1685.48
310.60	1804.26
310.81	1728.49
311.03	1665.00
311.24	1685.48
311.45	1781.73
311.67	1800.16
311.88	1789.92
312.09	1634.28
312.31	1703.91
312.52	1681.38
312.73	1675.24
312.95	1652.71
313.16	1613.80
313.37	1800.16
313.59	1726.44
313.80	1781.73
314.01	1820.64
314.23	1665.00
314.44	1697.77
314.65	1642.47
314.87	1619.94
315.08	1605.61
315.29	1705.96
315.51	1603.56
315.72	1673.19
315.93	1810.40
316.15	1812.45
316.36	1607.66
316.57	1697.77
316.79	1779.68
317.00	1660.90
317.21	1722.34
317.43	1654.76
317.64	1757.16
317.85	1656.81
318.07	1712.10
318.28	1763.30
318.49	1742.82
318.70	1906.66
318.92	1804.26
319.13	1783.78
319.34	1804.26
319.56	1787.88
319.77	1802.21
319.98	1785.83
320.20	1765.35
320.41	1751.01
320.62	1837.03
320.83	1621.99
321.05	1837.03
321.26	1771.49
321.47	1601.51
321.69	1732.58
321.90	1683.43
322.11	1689.57
322.32	1658.85
322.54	1769.44
322.75	1695.72
322.96	1904.61
323.18	1701.86
323.39	1595.37
323.60	1671.14
323.81	1755.11
324.03	1652.71
324.24	1689.57
324.45	1722.34
324.66	1646.57
324.88	1845.22
325.09	1804.26
325.30	1730.53
325.52	1693.67
325.73	1683.43
325.94	1681.38
326.15	1603.56
326.37	1687.53
326.58	1726.44
326.79	1779.68
327.00	1710.05
327.22	1695.72
327.43	1714.15
327.64	1671.14
327.85	1771.49
328.07	1728.49
328.28	1834.98
328.49	1705.96
328.70	1705.96
328.92	1720.29
329.13	1728.49
329.34	1753.06
329.55	1777.64
329.76	1710.05
329.98	1671.14
330.19	1734.63
330.40	1673.19
330.61	1789.92
330.83	1755.11
331.04	1697.77
331.25	1755.11
331.46	1683.43
331.68	1662.95
331.89	1722.34
332.10	1660.90
332.31	1615.85
332.52	1675.24
332.74	1751.01
332.95	1617.90
333.16	1730.53
333.37	1738.73
333.58	1677.29
333.80	1705.96
334.01	1640.42
334.22	1673.19
334.43	1675.24
334.64	1662.95
334.86	1650.66
335.07	1746.92
335.28	1753.06
335.49	1593.32
335.70	1808.36
335.92	1755.11
336.13	1820.64
336.34	1748.97
336.55	1738.73
336.76	1734.63
336.98	1603.56
337.19	1730.53
337.40	1830.88
337.61	1765.35
337.82	1685.48
338.04	1800.16
338.25	1585.13
338.46	1777.64
338.67	1619.94
338.88	1628.14
339.09	1662.95
339.31	1630.18
339.52	1591.27
339.73	1677.29
339.94	1595.37
340.15	1806.31
340.36	1720.29
340.58	1658.85
340.79	1605.61
341.00	1671.14
341.21	1660.90
341.42	1746.92
341.63	1677.29
341.85	1814.50
342.06	1818.60
342.27	1695.72
342.48	1759.21
342.69	1628.14
342.90	1669.09
343.12	1783.78
343.33	1642.47
343.54	1771.49
343.75	1810.40
343.96	1742.82
344.17	1617.90
344.38	1720.29
344.60	1691.62
344.81	1636.33
345.02	1724.39
345.23	1705.96
345.44	1771.49
345.65	1794.02
345.86	1773.54
346.07	1703.91
346.29	1712.10
346.50	1808.36
346.71	1759.21
346.92	1783.78
347.13	1857.51
347.34	1705.96
347.55	1689.57
347.76	1755.11
347.98	1652.71
348.19	1662.95
348.40	1839.08
348.61	1685.48
348.82	1767.40
349.03	1691.62
349.24	1683.43
349.45	1855.46
349.66	1585.13
349.88	1718.25
350.09	1730.53
350.30	1794.02
350.51	1806.31
350.72	1685.48
350.93	1830.88
351.14	1718.25
351.35	1736.68
351.56	1722.34
351.77	1650.66
351.99	1683.43
352.20	1849.32
352.41	1822.69
352.62	1552.36
352.83	1712.10
353.04	1738.73
353.25	1675.24
353.46	1751.01
353.67	1744.87
353.88	1605.61
354.09	1689.57
354.30	1736.68
354.52	1720.29
354.73	1675.24
354.94	1648.61
355.15	1718.25
355.36	1777.64
355.57	1714.15
355.78	1755.11
355.99	1693.67
356.20	1716.20
356.41	1742.82
356.62	1677.29
356.83	1722.34
357.04	1746.92
357.25	1650.66
357.46	1660.90
357.68	1605.61
357.89	1640.42
358.10	1728.49
358.31	1677.29
358.52	1728.49
358.73	1621.99
358.94	1660.90
359.15	1619.94
359.36	1710.05
359.57	1716.20
359.78	1744.87
359.99	1718.25
360.20	1671.14
360.41	1781.73
360.62	1759.21
360.83	1742.82
361.04	1759.21
361.25	1779.68
361.46	1785.83
361.67	1697.77
361.88	1720.29
362.09	1771.49
362.30	1724.39
362.51	1687.53
362.72	1722.34
362.93	1722.34
363.14	1701.86
363.35	1787.88
363.56	1634.28
363.78	1742.82
363.99	1806.31
364.20	1681.38
364.41	1683.43
364.62	1794.02
364.83	1726.44
365.04	1751.01
365.25	1685.48
365.46	1865.70
365.67	1632.23
365.88	1576.94
366.09	1697.77
366.30	1671.14
366.51	1748.97
366.72	1644.52
366.93	1746.92
367.14	1685.48
367.35	1765.35
367.56	1673.19
367.77	1843.17
367.98	1722.34
368.18	1769.44
368.39	1753.06
368.60	1685.48
368.81	1714.15
369.02	1761.25
369.23	1632.23
369.44	1611.75
369.65	1732.58
369.86	1675.24
370.07	1673.19
370.28	1644.52
370.49	1728.49
370.70	1812.45
370.91	1705.96
371.12	1660.90
371.33	1761.25
371.54	1630.18
371.75	1748.97
371.96	1636.33
372.17	1695.72
372.38	1642.47
372.59	1722.34
372.80	1708.01
373.01	1650.66
373.22	1753.06
373.43	1763.30
373.64	1763.30
373.85	1806.31
374.06	1814.50
374.26	1708.01
374.47	1757.16
374.68	1746.92
374.89	1671.14
375.10	1648.61
375.31	1769.44
375.52	1724.39
375.73	1675.24
375.94	1574.89
376.15	1867.75
376.36	1773.54
376.57	1656.81
376.78	1646.57
376.99	1751.01
377.20	1810.40
377.40	1783.78
377.61	1785.83
377.82	1640.42
378.03	1771.49
378.24	1665.00
378.45	1724.39
378.66	1695.72
378.87	1640.42
379.08	1628.14
379.29	1675.24
379.50	1779.68
379.71	1644.52
379.91	1779.68
380.12	1677.29
380.33	1671.14
380.54	1732.58
380.75	1714.15
380.96	1660.90
381.17	1701.86
381.38	1660.90
381.59	1712.10
381.80	1767.40
382.00	1869.80
382.21	1736.68
382.42	1832.93
382.63	1865.70
382.84	1779.68
383.05	1818.60
383.26	1896.42
383.47	1787.88
383.68	1806.31
383.88	1658.85
384.09	1740.77
384.30	1896.42
384.51	1718.25
384.72	1732.58
384.93	1701.86
385.14	1708.01
385.35	1761.25
385.55	1632.23
385.76	1798.12
385.97	1658.85
386.18	1673.19
386.39	1589.22
386.60	1779.68
386.81	1720.29
387.02	1712.10
387.22	1636.33
387.43	1800.16
387.64	1800.16
387.85	1855.46
388.06	2281.44
388.27	4329.41
388.48	6707.10
388.68	8103.81
388.89	9623.41
389.10	9838.44
389.31	8554.37
389.52	7610.25
389.73	6729.63
389.93	6309.79
390.14	5930.92
390.35	5275.57
390.56	4552.63
390.77	3846.09
390.98	3092.43
391.18	2492.38
391.39	2107.36
391.60	1834.98
391.81	1851.36
392.02	1667.05
392.23	1867.75
392.43	1724.39
392.64	1834.98
392.85	1665.00
393.06	1800.16
393.27	1710.05
393.47	1624.04
393.68	1757.16
393.89	1667.05
394.10	1814.50
394.31	1687.53
394.52	1654.76
394.72	1736.68
394.93	1855.46
395.14	1673.19
395.35	1748.97
395.56	1701.86
395.76	1751.01
395.97	1853.41
396.18	1771.49
396.39	1826.79
396.60	2050.02
396.80	1900.52
397.01	1859.56
397.22	1877.99
397.43	1822.69
397.64	1761.25
397.84	1796.07
398.05	1818.60
398.26	1742.82
398.47	1769.44
398.67	1759.21
398.88	1730.53
399.09	1718.25
399.30	1697.77
399.51	1724.39
399.71	1683.43
399.92	1732.58
400.13	1722.34
400.34	1683.43
400.54	1757.16
400.75	1753.06
400.96	1679.33
401.17	1759.21
401.37	1755.11
401.58	1675.24
401.79	1755.11
402.00	1837.03
402.21	2097.12
402.41	1964.00
402.62	2019.30
402.83	2035.68
403.04	1998.82
403.24	2072.54
403.45	1804.26
403.66	1947.62
403.87	1812.45
404.07	1957.86
404.28	1910.75
404.49	1875.94
404.70	1757.16
404.90	1765.35
405.11	1736.68
405.32	1791.97
405.52	1705.96
405.73	1767.40
405.94	1681.38
406.15	1746.92
406.35	1804.26
406.56	1753.06
406.77	1701.86
406.98	1656.81
407.18	1628.14
407.39	1845.22
407.60	1683.43
407.80	1671.14
408.01	1708.01
408.22	1771.49
408.43	1691.62
408.63	1730.53
408.84	1794.02
409.05	1759.21
409.25	1591.27
409.46	1691.62
409.67	1574.89
409.88	1665.00
410.08	1748.97
410.29	1656.81
410.50	1718.25
410.70	1791.97
410.91	1708.01
411.12	1667.05
411.32	1726.44
411.53	1687.53
411.74	1867.75
411.95	1789.92
412.15	1687.53
412.36	1716.20
412.57	1886.18
412.77	1798.12
412.98	1742.82
413.19	1738.73
413.39	1816.55
413.60	1767.40
413.81	1775.59
414.01	1656.81
414.22	1800.16
414.43	1806.31
414.63	1742.82
414.84	1814.50
415.05	1689.57
415.25	1599.46
415.46	1751.01
415.67	1652.71
415.87	1705.96
416.08	1730.53
416.29	1642.47
416.49	1796.07
416.70	1679.33
416.91	1759.21
417.11	1656.81
417.32	1847.27
417.53	1791.97
417.73	1716.20
417.94	1714.15
418.15	1804.26
418.35	1771.49
418.56	1732.58
418.77	1759.21
418.97	1652.71
419.18	1736.68
419.38	1546.22
419.59	1669.09
419.80	1804.26
420.00	1646.57
420.21	1634.28
420.42	1728.49
420.62	1638.38
420.83	1660.90
421.04	1671.14
421.24	1656.81
421.45	1810.40
421.65	1734.63
421.86	1697.77
422.07	1841.12
422.27	1757.16
422.48	1746.92
422.69	1652.71
422.89	1673.19
423.10	1767.40
423.30	1650.66
423.51	1718.25
423.72	1714.15
423.92	1798.12
424.13	1656.81
424.33	1673.19
424.54	1759.21
424.75	1701.86
424.95	1808.36
425.16	1812.45
425.36	1726.44
425.57	1714.15
425.78	1726.44
425.98	1720.29
426.19	1712.10
426.39	1650.66
426.60	1769.44
426.81	1757.16
427.01	1726.44
427.22	1677.29
427.42	1624.04
427.63	1656.81
427.83	1861.60
428.04	1806.31
428.25	1822.69
428.45	1832.93
428.66	1771.49
428.86	1761.25
429.07	1703.91
429.28	1734.63
429.48	1683.43
429.69	1646.57
429.89	1665.00
430.10	1685.48
430.30	1705.96
430.51	1714.15
430.71	1773.54
430.92	1675.24
431.13	1662.95
431.33	1718.25
431.54	1759.21
431.74	1822.69
431.95	1845.22
432.15	1695.72
432.36	1701.86
432.56	1732.58
432.77	1820.64
432.98	1787.88
433.18	1718.25
433.39	1697.77
433.59	1755.11
433.80	1841.12
434.00	1861.60
434.21	1689.57
434.41	1648.61
434.62	1849.32
434.82	1679.33
435.03	1695.72
435.23	1755.11
435.44	1689.57
435.64	1746.92
435.85	1710.05
436.06	1742.82
436.26	1828.84
436.47	1748.97
436.67	1826.79
436.88	1714.15
437.08	1730.53
437.29	1841.12
437.49	1757.16
437.70	1873.89
437.90	1714.15
438.11	1826.79
438.31	1787.88
438.52	1873.89
438.72	1882.08
438.93	1828.84
439.13	1806.31
439.34	1832.93
439.54	1697.77
439.75	1779.68
439.95	1794.02
440.16	1820.64
440.36	1736.68
440.57	1761.25
440.77	1798.12
440.98	1738.73
441.18	1767.40
441.39	1683.43
441.59	1665.00
441.80	1839.08
442.00	1697.77
442.21	1753.06
442.41	1673.19
442.62	1777.64
442.82	1646.57
443.02	1740.77
443.23	1834.98
443.43	1720.29
443.64	1882.08
443.84	1695.72
444.05	1863.65
444.25	1763.30
444.46	1695.72
444.66	1726.44
444.87	1789.92
445.07	1681.38
445.28	1765.35
445.48	1791.97
445.69	1761.25
445.89	1865.70
446.09	1679.33
446.30	1998.82
446.50	2703.32
446.71	3723.21
446.91	4399.04
447.12	4736.95
447.32	4837.30
447.53	4292.54
447.73	4069.31
447.93	3555.27
448.14	3350.48
448.34	3209.17
448.55	2893.78
448.75	2805.72
448.96	2598.87
449.16	2410.46
449.36	2318.30
449.57	2041.82
449.77	1818.60
449.98	1828.84
450.18	1804.26
450.39	1818.60
450.59	1783.78
450.79	1753.06
451.00	1636.33
451.20	1703.91
451.41	1722.34
451.61	1748.97
451.81	1691.62
452.02	1712.10
452.22	1691.62
452.43	1736.68
452.63	1746.92
452.84	1732.58
453.04	1693.67
453.24	1781.73
453.45	1689.57
453.65	1771.49
453.86	1748.97
454.06	1748.97
454.26	1718.25
454.47	1742.82
454.67	1812.45
454.87	1773.54
455.08	1789.92
455.28	1798.12
455.49	1759.21
455.69	1726.44
455.89	1816.55
456.10	1804.26
456.30	1757.16
456.51	1773.54
456.71	1787.88
456.91	1767.40
457.12	1796.07
457.32	1791.97
457.52	1665.00
457.73	1763.30
457.93	1730.53
458.14	1646.57
458.34	1626.09
458.54	1740.77
458.75	1685.48
458.95	1728.49
459.15	1726.44
459.36	1740.77
459.56	1771.49
459.76	1865.70
459.97	1734.63
460.17	1824.74
460.37	1767.40
460.58	1697.77
460.78	1777.64
460.99	1728.49
461.19	1791.97
461.39	1740.77
461.60	1791.97
461.80	1830.88
462.00	1738.73
462.21	1646.57
462.41	1710.05
462.61	1662.95
462.82	1652.71
463.02	1861.60
463.22	1781.73
463.43	1789.92
463.63	1724.39
463.83	1804.26
464.04	1740.77
464.24	1812.45
464.44	1697.77
464.64	1771.49
464.85	1720.29
465.05	1751.01
465.25	1820.64
465.46	1748.97
465.66	1763.30
465.86	1779.68
466.07	1791.97
466.27	1714.15
466.47	1644.52
466.68	1630.18
466.88	1808.36
467.08	1804.26
467.29	1802.21
467.49	1834.98
467.69	1679.33
467.89	1755.11
468.10	1746.92
468.30	1722.34
468.50	1802.21
468.71	1777.64
468.91	1632.23
469.11	1882.08
469.31	1779.68
469.52	1607.66
469.72	1845.22
469.92	1871.84
470.13	1736.68
470.33	1722.34
470.53	1853.41
470.73	2041.82
470.94	2226.14
471.14	2308.06
471.34	2564.06
471.54	2367.45
471.75	2318.30
471.95	2150.37
472.15	2050.02
472.36	2109.41
472.56	1988.58
472.76	2113.50
472.96	2074.59
473.17	2000.87
473.37	1880.04
473.57	1775.59
473.77	1814.50
473.98	1769.44
474.18	1726.44
474.38	1861.60
474.58	1740.77
474.79	1724.39
474.99	1824.74
475.19	1839.08
475.39	1724.39
475.60	1812.45
475.80	1810.40
476.00	1802.21
476.20	1738.73
476.41	1777.64
476.61	1839.08
476.81	1796.07
477.01	1697.77
477.21	1871.84
477.42	1820.64
477.62	1667.05
477.82	1812.45
478.02	1660.90
478.23	1804.26
478.43	1665.00
478.63	1648.61
478.83	1673.19
479.03	1720.29
479.24	1796.07
479.44	1767.40
479.64	1638.38
479.84	1617.90
480.04	1570.79
480.25	1773.54
480.45	1726.44
480.65	1753.06
480.85	1806.31
481.06	1683.43
481.26	1712.10
481.46	1757.16
481.66	1767.40
481.86	1646.57
482.06	1759.21
482.27	1683.43
482.47	1734.63
482.67	1728.49
482.87	1650.66
483.07	1763.30
483.28	1714.15
483.48	1685.48
483.68	1697.77
483.88	1679.33
484.08	1667.05
484.29	1714.15
484.49	1777.64
484.69	1665.00
484.89	1751.01
485.09	1779.68
485.29	1775.59
485.50	1740.77
485.70	1654.76
485.90	1746.92
486.10	1767.40
486.30	1808.36
486.50	1761.25
486.71	1738.73
486.91	1800.16
487.11	1859.56
487.31	1691.62
487.51	1779.68
487.71	1724.39
487.91	1652.71
488.12	1687.53
488.32	1570.79
488.52	1695.72
488.72	1648.61
488.92	1644.52
489.12	1738.73
489.32	1761.25
489.53	1771.49
489.73	1632.23
489.93	1796.07
490.13	1757.16
490.33	1667.05
490.53	1710.05
490.73	1851.36
490.94	1656.81
491.14	1822.69
491.34	1925.09
491.54	2123.74
491.74	2723.80
491.94	2944.98
492.14	3080.14
492.34	2973.65
492.54	2793.43
492.75	2529.24
492.95	2353.12
493.15	2355.16
493.35	2267.10
493.55	2199.52
493.75	2201.57
493.95	2095.07
494.15	1990.63
494.35	1880.04
494.56	1898.47
494.76	1812.45
494.96	1791.97
495.16	1769.44
495.36	1806.31
495.56	1789.92
495.76	1794.02
495.96	1701.86
496.16	1710.05
496.36	1789.92
496.56	1767.40
496.77	1767.40
496.97	1726.44
497.17	1814.50
497.37	1683.43
497.57	1820.64
497.77	1697.77
497.97	1746.92
498.17	1726.44
498.37	1722.34
498.57	1824.74
498.77	1722.34
498.97	1744.87
499.17	1830.88
499.38	1773.54
499.58	1771.49
499.78	1763.30
499.98	1871.84
500.18	1714.15
500.38	1722.34
500.58	1904.61
500.78	2656.22
500.98	4579.26
501.18	5832.62
501.38	7024.53
501.58	7131.03
501.78	6604.70
501.98	5539.76
502.18	4966.32
502.38	4505.53
502.58	4132.80
502.78	3815.37
502.98	3629.00
503.18	3497.93
503.38	3223.50
503.59	2936.79
503.79	2672.60
503.99	2418.65
504.19	2371.55
504.39	2185.18
504.59	2209.76
504.79	2197.47
504.99	2064.35
505.19	1886.18
505.39	1873.89
505.59	1992.67
505.79	1923.04
505.99	1869.80
506.19	1779.68
506.39	1886.18
506.59	1716.20
506.79	1746.92
506.99	1812.45
507.19	1775.59
507.39	1742.82
507.59	1667.05
507.79	1714.15
507.99	1652.71
508.19	1722.34
508.39	1665.00
508.59	1740.77
508.79	1785.83
508.99	1861.60
509.19	1687.53
509.39	1732.58
509.59	1687.53
509.79	1628.14
509.99	1794.02
510.19	1759.21
510.39	1740.77
510.59	1744.87
510.79	1728.49
510.99	1728.49
511.19	1771.49
511.39	1837.03
511.59	1828.84
511.79	1810.40
511.99	1828.84
512.19	1800.16
512.38	1685.48
512.58	1738.73
512.78	1757.16
512.98	1791.97
513.18	1794.02
513.38	1671.14
513.58	1755.11
513.78	1714.15
513.98	1771.49
514.18	1638.38
514.38	1740.77
514.58	1796.07
514.78	1697.77
514.98	1683.43
515.18	1718.25
515.38	1740.77
515.58	1818.60
515.78	1712.10
515.98	1732.58
516.18	1873.89
516.38	1685.48
516.57	1718.25
516.77	1726.44
516.97	1693.67
517.17	1689.57
517.37	1642.47
517.57	1820.64
517.77	1714.15
517.97	1675.24
518.17	1791.97
518.37	1724.39
518.57	1710.05
518.77	1681.38
518.97	1757.16
519.16	1798.12
519.36	1755.11
519.56	1734.63
519.76	1746.92
519.96	1779.68
520.16	1820.64
520.36	1701.86
520.56	1767.40
520.76	1640.42
520.96	1671.14
521.16	1724.39
521.35	1816.55
521.55	1841.12
521.75	1845.22
521.95	1589.22
522.15	1798.12
522.35	1646.57
522.55	1660.90
522.75	1783.78
522.95	1748.97
523.14	1701.86
523.34	1751.01
523.54	1576.94
523.74	1777.64
523.94	1722.34
524.14	1730.53
524.34	1738.73
524.54	1816.55
524.73	1722.34
524.93	1746.92
525.13	1751.01
525.33	1669.09
525.53	1865.70
525.73	1814.50
525.93	1691.62
526.13	1712.10
526.32	1734.63
526.52	1816.55
526.72	1800.16
526.92	1738.73
527.12	1789.92
527.32	1699.81
527.52	1808.36
527.71	1757.16
527.91	1740.77
528.11	1736.68
528.31	1765.35
528.51	1628.14
528.71	1802.21
528.90	1736.68
529.10	1783.78
529.30	1886.18
529.50	1593.32
529.70	1746.92
529.90	1771.49
530.09	1703.91
530.29	1665.00
530.49	1667.05
530.69	1812.45
530.89	1800.16
531.09	1796.07
531.28	1665.00
531.48	1765.35
531.68	1771.49
531.88	1724.39
532.08	1802.21
532.28	1697.77
532.47	1785.83
532.67	1796.07
532.87	1703.91
533.07	1740.77
533.27	1814.50
533.46	1681.38
533.66	1669.09
533.86	1757.16
534.06	1757.16
534.26	1855.46
534.45	1767.40
534.65	1769.44
534.85	1728.49
535.05	1732.58
535.25	1775.59
535.44	1742.82
535.64	1804.26
535.84	1722.34
536.04	1701.86
536.24	1761.25
536.43	1675.24
536.63	1775.59
536.83	1701.86
537.03	1744.87
537.22	1693.67
537.42	1654.76
537.62	1646.57
537.82	1701.86
538.02	1845.22
538.21	1820.64
538.41	1886.18
538.61	1736.68
538.81	1722.34
539.00	1820.64
539.20	1607.66
539.40	1769.44
539.60	1832.93
539.79	1767.40
539.99	1775.59
540.19	1736.68
540.39	1748.97
540.58	1787.88
540.78	1783.78
540.98	1716.20
541.18	1796.07
541.37	1810.40
541.57	1724.39
541.77	1667.05
541.97	1685.48
542.16	1697.77
542.36	1660.90
542.56	1701.86
542.76	1896.42
542.95	1826.79
543.15	1732.58
543.35	1794.02
543.54	1736.68
543.74	1718.25
543.94	1841.12
544.14	1751.01
544.33	1771.49
544.53	1804.26
544.73	1626.09
544.93	1763.30
545.12	1710.05
545.32	1724.39
545.52	1683.43
545.71	1662.95
545.91	1720.29
546.11	1720.29
546.30	1669.09
546.50	1724.39
546.70	1718.25
546.90	1775.59
547.09	1705.96
547.29	1751.01
547.49	1810.40
547.68	1755.11
547.88	1687.53
548.08	1757.16
548.27	2127.84
548.47	1720.29
548.67	1732.58
548.87	1796.07
549.06	1687.53
549.26	1665.00
549.46	1718.25
549.65	1771.49
549.85	1746.92
550.05	1777.64
550.24	1660.90
550.44	1798.12
550.64	1816.55
550.83	1728.49
551.03	1871.84
551.23	1806.31
551.42	1779.68
551.62	1736.68
551.82	1851.36
552.01	1665.00
552.21	1777.64
552.41	1744.87
552.60	1828.84
552.80	1779.68
553.00	1771.49
553.19	1861.60
553.39	1775.59
553.59	1658.85
553.78	1693.67
553.98	1726.44
554.17	1650.66
554.37	1761.25
554.57	1714.15
554.76	1708.01
554.96	1759.21
555.16	1855.46
555.35	1740.77
555.55	1794.02
555.75	1787.88
555.94	1779.68
556.14	1689.57
556.33	1722.34
556.53	1744.87
556.73	1751.01
556.92	1791.97
557.12	1875.94
557.32	1882.08
557.51	1828.84
557.71	1763.30
557.90	1865.70
558.10	1886.18
558.30	1740.77
558.49	1705.96
558.69	1791.97
558.88	1732.58
559.08	1757.16
559.28	1755.11
559.47	1724.39
559.67	1814.50
559.86	1853.41
560.06	1761.25
560.26	1767.40
560.45	1755.11
560.65	1701.86
560.84	1882.08
561.04	1730.53
561.24	1773.54
561.43	1705.96
561.63	1802.21
561.82	1810.40
562.02	1771.49
562.22	1703.91
562.41	1769.44
562.61	1763.30
562.80	1710.05
563.00	1851.36
563.19	1824.74
563.39	1748.97
563.59	1714.15
563.78	1753.06
563.98	1681.38
564.17	1738.73
564.37	1648.61
564.56	1798.12
564.76	1652.71
564.96	1851.36
565.15	1761.25
565.35	1755.11
565.54	1757.16
565.74	1675.24
565.93	1818.60
566.13	1714.15
566.32	1763.30
566.52	1853.41
566.71	1738.73
566.91	1812.45
567.11	1810.40
567.30	1701.86
567.50	1716.20
567.69	1738.73
567.89	1738.73
568.08	1796.07
568.28	1773.54
568.47	1701.86
568.67	1775.59
568.86	1712.10
569.06	1763.30
569.25	1783.78
569.45	1734.63
569.64	1654.76
569.84	1691.62
570.04	1748.97
570.23	1683.43
570.43	1808.36
570.62	1734.63
570.82	1828.84
571.01	1730.53
571.21	1712.10
571.40	1744.87
571.60	1886.18
571.79	1689.57
571.99	1734.63
572.18	1667.05
572.38	1751.01
572.57	1632.23
572.77	1826.79
572.96	1931.23
573.16	1787.88
573.35	1783.78
573.55	1841.12
573.74	1761.25
573.94	1761.25
574.13	1798.12
574.33	1757.16
574.52	1812.45
574.71	1841.12
574.91	1746.92
575.10	1701.86
575.30	1695.72
575.49	1765.35
575.69	1695.72
575.88	1789.92
576.08	1771.49
576.27	1800.16
576.47	1769.44
576.66	1783.78
576.86	1904.61
577.05	1722.34
577.25	1744.87
577.44	1855.46
577.64	1683.43
577.83	1869.80
578.02	1697.77
578.22	1781.73
578.41	1871.84
578.61	1765.35
578.80	1693.67
579.00	1773.54
579.19	1755.11
579.39	1783.78
579.58	1796.07
579.77	1759.21
579.97	1767.40
580.16	1857.51
580.36	1755.11
580.55	1888.23
580.75	1806.31
580.94	1765.35
581.13	1851.36
581.33	1871.84
581.52	1759.21
581.72	1945.57
581.91	1847.27
582.11	1730.53
582.30	1859.56
582.49	1757.16
582.69	1845.22
582.88	1822.69
583.08	1816.55
583.27	1820.64
583.47	1828.84
583.66	1665.00
583.85	1712.10
584.05	1775.59
584.24	1796.07
584.44	1859.56
584.63	1839.08
584.82	1847.27
585.02	1873.89
585.21	1808.36
585.41	1787.88
585.60	1789.92
585.79	2033.63
585.99	1882.08
586.18	1865.70
586.37	2246.62
586.57	3459.02
586.76	10022.76
586.96	24346.25
587.15	34690.54
587.34	40537.49
587.54	42251.64
587.73	36832.72
587.93	26252.91
588.12	21857.97
588.31	18341.61
588.51	16307.98
588.70	15322.90
588.89	14237.48
589.09	12566.34
589.28	11161.43
589.47	9580.40
589.67	7985.03
589.86	6559.64
590.06	4921.27
590.25	3991.49
590.44	3127.25
590.64	2529.24
590.83	2242.53
591.02	2164.70
591.22	1966.05
591.41	1931.23
591.60	1798.12
591.80	1918.95
591.99	1738.73
592.18	1822.69
592.38	1865.70
592.57	1710.05
592.76	1789.92
592.96	1824.74
593.15	1779.68
593.34	1886.18
593.54	1761.25
593.73	1808.36
593.92	1787.88
594.12	1763.30
594.31	1751.01
594.50	1853.41
594.70	1763.30
594.89	1873.89
595.08	1628.14
595.28	1828.84
595.47	1990.63
595.66	1845.22
595.86	1685.48
596.05	1744.87
596.24	1687.53
596.43	1877.99
596.63	1785.83
596.82	1677.29
597.01	1789.92
597.21	1798.12
597.40	1769.44
597.59	1705.96
597.79	1710.05
597.98	1779.68
598.17	1734.63
598.36	1720.29
598.56	1828.84
598.75	1636.33
598.94	1771.49
599.14	1763.30
599.33	1703.91
599.52	1701.86
599.71	1757.16
599.91	1748.97
600.10	1724.39
600.29	1734.63
600.48	1824.74
600.68	1779.68
600.87	1779.68
601.06	1726.44
601.26	1673.19
601.45	1816.55
601.64	1777.64
601.83	1853.41
602.03	1685.48
602.22	1714.15
602.41	1796.07
602.60	1849.32
602.80	1777.64
602.99	1759.21
603.18	1705.96
603.37	1730.53
603.57	1761.25
603.76	1779.68
603.95	1771.49
604.14	1759.21
604.34	1732.58
604.53	1738.73
604.72	1738.73
604.91	1796.07
605.10	1785.83
605.30	1656.81
605.49	1832.93
605.68	1773.54
605.87	1830.88
606.07	1738.73
606.26	1812.45
606.45	1751.01
606.64	1736.68
606.84	1681.38
607.03	1736.68
607.22	1808.36
607.41	1712.10
607.60	1673.19
607.80	1783.78
607.99	1697.77
608.18	1726.44
608.37	1689.57
608.56	1652.71
608.76	1826.79
608.95	1824.74
609.14	1820.64
609.33	1806.31
609.52	1724.39
609.72	1720.29
609.91	1742.82
610.10	1828.84
610.29	1894.37
610.48	1767.40
610.68	1783.78
610.87	1730.53
611.06	1757.16
611.25	1822.69
611.44	1718.25
611.63	1703.91
611.83	1789.92
612.02	1630.18
612.21	1900.52
612.40	1677.29
612.59	1742.82
612.79	1722.34
612.98	1724.39
613.17	1849.32
613.36	1748.97
613.55	1857.51
613.74	1677.29
613.93	1753.06
614.13	1648.61
614.32	1734.63
614.51	1806.31
614.70	1685.48
614.89	1722.34
615.08	1806.31
615.28	2054.11
615.47	1662.95
615.66	1734.63
615.85	1679.33
616.04	1794.02
616.23	1765.35
616.42	1718.25
616.62	1767.40
616.81	1740.77
617.00	1712.10
617.19	1783.78
617.38	1728.49
617.57	1757.16
617.76	1800.16
617.95	1757.16
618.15	1753.06
618.34	1857.51
618.53	1650.66
618.72	1806.31
618.91	1757.16
619.10	1925.09
619.29	1742.82
619.48	1654.76
619.68	1665.00
619.87	1791.97
620.06	1669.09
620.25	1763.30
620.44	1759.21
620.63	1683.43
620.82	1742.82
621.01	1724.39
621.20	1751.01
621.39	1716.20
621.59	1738.73
621.78	1738.73
621.97	1734.63
622.16	1724.39
622.35	1763.30
622.54	1769.44
622.73	1773.54
622.92	1660.90
623.11	1863.65
623.30	1705.96
623.49	1826.79
623.68	1708.01
623.88	1837.03
624.07	1712.10
624.26	1720.29
624.45	1685.48
624.64	1720.29
624.83	1740.77
625.02	1724.39
625.21	1716.20
625.40	1734.63
625.59	1865.70
625.78	1669.09
625.97	1855.46
626.16	1755.11
626.35	1673.19
626.54	1701.86
626.74	1806.31
626.93	1671.14
627.12	1808.36
627.31	1779.68
627.50	1712.10
627.69	1808.36
627.88	1697.77
628.07	1695.72
628.26	1652.71
628.45	1703.91
628.64	1705.96
628.83	1765.35
629.02	1738.73
629.21	1773.54
629.40	1751.01
629.59	1685.48
629.78	1654.76
629.97	1738.73
630.16	1730.53
630.35	1718.25
630.54	1773.54
630.73	1705.96
630.92	1736.68
631.11	1611.75
631.30	1748.97
631.49	1785.83
631.68	1695.72
631.87	1814.50
632.06	1697.77
632.25	1832.93
632.44	1714.15
632.63	1675.24
632.82	1642.47
633.01	1761.25
633.20	1748.97
633.39	1619.94
633.58	1595.37
633.77	1726.44
633.96	1730.53
634.15	1710.05
634.34	1767.40
634.53	1759.21
634.72	1677.29
634.91	1658.85
635.10	1720.29
635.29	1794.02
635.48	1687.53
635.67	1693.67
635.86	1718.25
636.05	1722.34
636.24	1689.57
636.43	1669.09
636.62	1691.62
636.81	1640.42
637.00	1685.48
637.19	1824.74
637.38	1712.10
637.57	1587.18
637.76	1697.77
637.95	1673.19
638.14	1675.24
638.33	1742.82
638.52	1726.44
638.71	1685.48
638.89	1718.25
639.08	1798.12
639.27	1714.15
639.46	1671.14
639.65	1853.41
639.84	1714.15
640.03	1699.81
640.22	1746.92
640.41	1863.65
640.60	1732.58
640.79	1771.49
640.98	1736.68
641.17	1677.29
641.36	1775.59
641.55	1769.44
641.74	1570.79
641.92	1611.75
642.11	1628.14
642.30	1744.87
642.49	1691.62
642.68	1714.15
642.87	1779.68
643.06	1789.92
643.25	1748.97
643.44	1638.38
643.63	1736.68
643.82	1796.07
644.00	1718.25
644.19	1751.01
644.38	1634.28
644.57	1636.33
644.76	1689.57
644.95	1724.39
645.14	1748.97
645.33	1683.43
645.52	1771.49
645.71	1716.20
645.89	1656.81
646.08	1683.43
646.27	1736.68
646.46	1843.17
646.65	1611.75
646.84	1724.39
647.03	1638.38
647.22	1722.34
647.40	1734.63
647.59	1710.05
647.78	1609.70
647.97	1685.48
648.16	1675.24
648.35	1738.73
648.54	1763.30
648.73	1730.53
648.91	1789.92
649.10	1693.67
649.29	1720.29
649.48	1658.85
649.67	1828.84
649.86	1662.95
650.05	1753.06
650.23	1667.05
650.42	1587.18
650.61	1781.73
650.80	1802.21
650.99	1865.70
651.18	1748.97
651.36	1714.15
651.55	1726.44
651.74	1742.82
651.93	1714.15
652.12	1644.52
652.31	1716.20
652.49	1695.72
652.68	1738.73
652.87	1722.34
653.06	1701.86
653.25	1810.40
653.44	1738.73
653.62	1763.30
653.81	1705.96
654.00	1787.88
654.19	1810.40
654.38	1898.47
654.56	1791.97
654.75	1757.16
654.94	1791.97
655.13	1787.88
655.32	1685.48
655.51	1808.36
655.69	1683.43
655.88	1771.49
656.07	1650.66
656.26	1783.78
656.45	1640.42
656.63	1689.57
656.82	1791.97
657.01	1800.16
657.20	1654.76
657.38	1755.11
657.57	1710.05
657.76	1642.47
657.95	1834.98
658.14	1691.62
658.32	1662.95
658.51	1632.23
658.70	1689.57
658.89	1773.54
659.08	1783.78
659.26	1730.53
659.45	1609.70
659.64	1773.54
659.83	1638.38
660.01	1925.09
660.20	1773.54
660.39	1847.27
660.58	1574.89
660.76	1763.30
660.95	1662.95
661.14	1724.39
661.33	1595.37
661.51	1705.96
661.70	1691.62
661.89	1783.78
662.08	1763.30
662.26	1621.99
662.45	1736.68
662.64	1751.01
662.83	1740.77
663.01	1615.85
663.20	1738.73
663.39	1806.31
663.58	1765.35
663.76	1685.48
663.95	1759.21
664.14	1642.47
664.32	1781.73
664.51	1673.19
664.70	1607.66
664.89	1736.68
665.07	1607.66
665.26	1755.11
665.45	1695.72
665.64	1796.07
665.82	1755.11
666.01	1804.26
666.20	1683.43
666.38	1777.64
666.57	1798.12
666.76	2189.28
666.95	4390.84
667.13	10608.48
667.32	15089.43
667.51	18034.41
667.69	19140.32
667.88	17669.87
668.07	12552.00
668.25	9643.88
668.44	8232.83
668.63	7192.47
668.81	6930.33
669.00	6387.61
669.19	5922.73
669.38	5169.07
669.56	4552.63
669.75	3983.30
669.94	3450.83
670.12	2852.82
670.31	2578.39
670.50	2316.25
670.68	1982.43
670.87	2004.96
671.06	1869.80
671.24	1845.22
671.43	1757.16
671.62	1730.53
671.80	1624.04
671.99	1763.30
672.18	1718.25
672.36	1722.34
672.55	1791.97
672.74	1714.15
672.92	1595.37
673.11	1841.12
673.29	1599.46
673.48	1751.01
673.67	1748.97
673.85	1751.01
674.04	1662.95
674.23	1689.57
674.41	1828.84
674.60	1689.57
674.79	1753.06
674.97	1789.92
675.16	1789.92
675.34	1757.16
675.53	1720.29
675.72	1763.30
675.90	1814.50
676.09	1714.15
676.28	1656.81
676.46	1681.38
676.65	1751.01
676.83	1662.95
677.02	1716.20
677.21	1785.83
677.39	1701.86
677.58	1718.25
677.77	1724.39
677.95	1660.90
678.14	1710.05
678.32	1746.92
678.51	1632.23
678.70	1882.08
678.88	1689.57
679.07	1730.53
679.25	1660.90
679.44	1697.77
679.63	1593.32
679.81	1667.05
680.00	1820.64
680.18	1703.91
680.37	1753.06
680.55	1751.01
680.74	1640.42
680.93	1603.56
681.11	1757.16
681.30	1697.77
681.48	1757.16
681.67	1697.77
681.85	1695.72
682.04	1695.72
682.23	1796.07
682.41	1730.53
682.60	1587.18
682.78	1710.05
682.97	1619.94
683.15	1675.24
683.34	1738.73
683.53	1789.92
683.71	1665.00
683.90	1740.77
684.08	1814.50
684.27	1710.05
684.45	1677.29
684.64	1755.11
684.82	1693.67
685.01	1757.16
685.19	1679.33
685.38	1783.78
685.57	1689.57
685.75	1650.66
685.94	1662.95
686.12	1689.57
686.31	1730.53
686.49	1787.88
686.68	1615.85
686.86	1781.73
687.05	1736.68
687.23	1695.72
687.42	1720.29
687.60	1687.53
687.79	1722.34
687.97	1796.07
688.16	1773.54
688.34	1728.49
688.53	1658.85
688.71	1748.97
688.90	1736.68
689.08	1705.96
689.27	1570.79
689.45	1767.40
689.64	1761.25
689.82	1751.01
690.01	1789.92
690.19	1787.88
690.38	1699.81
690.56	1667.05
690.75	1718.25
690.93	1718.25
691.12	1656.81
691.30	1779.68
691.49	1642.47
691.67	1767.40
691.86	1738.73
692.04	1732.58
692.23	1642.47
692.41	1662.95
692.60	1814.50
692.78	1769.44
692.97	1699.81
693.15	1691.62
693.34	1839.08
693.52	1740.77
693.71	1714.15
693.89	1654.76
694.08	1687.53
694.26	1767.40
694.44	1798.12
694.63	1740.77
694.81	1652.71
695.00	1648.61
695.18	1839.08
695.37	1837.03
695.55	1716.20
695.74	1746.92
695.92	1679.33
696.10	1724.39
696.29	1669.09
696.47	1714.15
696.66	1693.67
696.84	1681.38
697.03	1691.62
697.21	1882.08
697.40	2314.20
697.58	1851.36
697.76	1695.72
697.95	1701.86
698.13	1710.05
698.32	1708.01
698.50	1683.43
698.68	1732.58
698.87	1732.58
699.05	1837.03
699.24	1701.86
699.42	1685.48
699.61	1646.57
699.79	1708.01
699.97	1763.30
700.16	1693.67
700.34	1703.91
700.53	1687.53
700.71	1906.66
700.89	1722.34
701.08	1781.73
701.26	1765.35
701.45	2148.32
701.63	1665.00
701.81	1726.44
702.00	1681.38
702.18	1656.81
702.37	1669.09
702.55	1724.39
702.73	1736.68
702.92	1701.86
703.10	1787.88
703.28	1720.29
703.47	1624.04
703.65	1818.60
703.84	1718.25
704.02	1673.19
704.20	1757.16
704.39	1652.71
704.57	1689.57
704.75	1798.12
704.94	1744.87
705.12	1728.49
705.30	1773.54
705.49	2242.53
705.67	4335.55
705.86	9521.01
706.04	12386.12
706.22	14624.54
706.41	15486.74
706.59	13764.40
706.77	9777.00
706.96	7374.74
707.14	6467.49
707.32	6047.65
707.51	5599.15
707.69	4917.17
707.87	4270.01
708.06	3432.40
708.24	2924.50
708.42	2377.69
708.61	2324.44
708.79	1953.76
708.97	1880.04
709.16	1822.69
709.34	1720.29
709.52	1746.92
709.71	1732.58
709.89	1828.84
710.07	1677.29
710.26	1697.77
710.44	1796.07
710.62	1689.57
710.80	1628.14
710.99	1751.01
711.17	1761.25
711.35	1599.46
711.54	1708.01
711.72	1740.77
711.90	1816.55
712.09	1740.77
712.27	1699.81
712.45	1781.73
712.63	1714.15
712.82	1738.73
713.00	1730.53
713.18	1767.40
713.37	1812.45
713.55	1755.11
713.73	1775.59
713.91	1697.77
714.10	1671.14
714.28	1769.44
714.46	1757.16
714.65	1724.39
714.83	1806.31
715.01	1804.26
715.19	1730.53
715.38	1734.63
715.56	1773.54
715.74	1601.51
715.92	1638.38
716.11	1794.02
716.29	1542.12
716.47	1689.57
716.65	1673.19
716.84	1673.19
717.02	1802.21
717.20	1656.81
717.38	1718.25
717.57	1769.44
717.75	1748.97
717.93	1628.14
718.11	1765.35
718.30	1636.33
718.48	1775.59
718.66	1746.92
718.84	1841.12
719.03	1665.00
719.21	1689.57
719.39	1818.60
719.57	1648.61
719.75	1779.68
719.94	1720.29
720.12	1654.76
720.30	1667.05
720.48	1816.55
720.67	1652.71
720.85	1681.38
721.03	1726.44
721.21	1603.56
721.39	1779.68
721.58	1755.11
721.76	1804.26
721.94	1718.25
722.12	1710.05
722.30	1773.54
722.49	1736.68
722.67	1761.25
722.85	1726.44
723.03	1640.42
723.21	1697.77
723.40	1712.10
723.58	1714.15
723.76	1665.00
723.94	1824.74
724.12	1791.97
724.30	1720.29
724.49	1785.83
724.67	1656.81
724.85	1822.69
725.03	1667.05
725.21	1732.58
725.40	1789.92
725.58	1681.38
725.76	1869.80
725.94	1638.38
726.12	1697.77
726.30	1714.15
726.49	1748.97
726.67	1730.53
726.85	1720.29
727.03	1740.77
727.21	2090.98
727.39	3022.80
727.57	3864.52
727.76	4204.48
727.94	4485.05
728.12	4360.13
728.30	3667.91
728.48	2910.16
728.66	2781.14
728.84	2553.82
729.03	2281.44
729.21	2220.00
729.39	2045.92
729.57	1783.78
729.75	1800.16
729.93	1765.35
730.11	1662.95
730.30	1716.20
730.48	1708.01
730.66	1859.56
730.84	1740.77
731.02	1683.43
731.20	1654.76
731.38	1695.72
731.56	1603.56
731.74	1611.75
731.93	1722.34
732.11	1701.86
732.29	1697.77
732.47	1734.63
732.65	1738.73
732.83	1812.45
733.01	1787.88
733.19	1660.90
733.37	1708.01
733.56	1761.25
733.74	1724.39
733.92	1810.40
734.10	1689.57
734.28	1693.67
734.46	1677.29
734.64	1718.25
734.82	1673.19
735.00	1695.72
735.18	1632.23
735.36	1734.63
735.54	1716.20
735.73	1665.00
735.91	1759.21
736.09	1697.77
736.27	1687.53
736.45	1812.45
736.63	1626.09
736.81	1665.00
736.99	1763.30
737.17	1744.87
737.35	1720.29
737.53	1703.91
737.71	1671.14
737.89	1720.29
738.07	1636.33
738.25	1665.00
738.43	1681.38
738.61	1671.14
738.80	1679.33
738.98	1636.33
739.16	1646.57
739.34	1603.56
739.52	1806.31
739.70	1681.38
739.88	1753.06
740.06	1781.73
740.24	1646.57
740.42	1767.40
740.60	1634.28
740.78	1656.81
740.96	1615.85
741.14	1722.34
741.32	1736.68
741.50	1656.81
741.68	1783.78
741.86	1759.21
742.04	1595.37
742.22	1593.32
742.40	1734.63
742.58	1773.54
742.76	1634.28
742.94	1769.44
743.12	1617.90
743.30	1710.05
743.48	1730.53
743.66	1619.94
743.84	1689.57
744.02	1708.01
744.20	1751.01
744.38	1642.47
744.56	1683.43
744.74	1839.08
744.92	1714.15
745.10	1746.92
745.28	1746.92
745.46	1834.98
745.64	1675.24
745.82	1796.07
746.00	1681.38
746.18	1728.49
746.36	1615.85
746.54	1718.25
746.72	1724.39
746.90	1615.85
747.08	1732.58
747.26	1677.29
747.44	1798.12
747.62	1726.44
747.80	1726.44
747.98	1761.25
748.15	1644.52
748.33	1843.17
748.51	1744.87
748.69	1722.34
748.87	1648.61
749.05	1751.01
749.23	1628.14
749.41	1816.55
749.59	1699.81
749.77	1781.73
749.95	1665.00
750.13	1671.14
750.31	1755.11
750.49	1654.76
750.67	1744.87
750.85	1748.97
751.03	1746.92
751.20	1781.73
751.38	1619.94
751.56	1699.81
751.74	1751.01
751.92	1697.77
752.10	1652.71
752.28	1787.88
752.46	1658.85
752.64	1708.01
752.82	1675.24
753.00	1859.56
753.18	1685.48
753.35	1652.71
753.53	1648.61
753.71	1701.86
753.89	1738.73
754.07	1736.68
754.25	1767.40
754.43	1744.87
754.61	1710.05
754.79	1683.43
754.97	1720.29
755.14	1812.45
755.32	1714.15
755.50	1787.88
755.68	1689.57
755.86	1665.00
756.04	1736.68
756.22	1585.13
756.40	1806.31
756.57	1898.47
756.75	1697.77
756.93	1798.12
757.11	1794.02
757.29	1642.47
757.47	1662.95
757.65	1685.48
757.82	1568.74
758.00	1738.73
758.18	1656.81
758.36	1601.51
758.54	1767.40
758.72	1599.46
758.90	1830.88
759.07	1730.53
759.25	1642.47
759.43	1751.01
759.61	1679.33
759.79	2152.42
759.97	1744.87
760.15	1734.63
760.32	1658.85
760.50	1679.33
760.68	1796.07
760.86	1652.71
761.04	1791.97
761.22	1759.21
761.39	1691.62
761.57	1753.06
761.75	1748.97
761.93	1730.53
762.11	1738.73
762.28	1777.64
762.46	1714.15
762.64	1751.01
762.82	1689.57
763.00	1646.57
763.18	1734.63
763.35	1617.90
763.53	1679.33
763.71	1697.77
763.89	1701.86
764.07	1806.31
764.24	1691.62
764.42	1759.21
764.60	1687.53
764.78	1724.39
764.96	1732.58
765.13	1763.30
765.31	1658.85
765.49	1818.60
765.67	1619.94
765.84	1677.29
766.02	1626.09
766.20	1593.32
766.38	1746.92
766.56	1687.53
766.73	1773.54
766.91	1697.77
767.09	1746.92
767.27	1763.30
767.44	1669.09
767.62	1738.73
767.80	1789.92
767.98	1708.01
768.15	1642.47
768.33	1710.05
768.51	1769.44
768.69	1787.88
768.87	1708.01
769.04	1816.55
769.22	1779.68
769.40	1751.01
769.58	1820.64
769.75	1634.28
769.93	1751.01
770.11	1624.04
770.28	1630.18
770.46	1763.30
770.64	1722.34
770.82	1671.14
770.99	1673.19
771.17	1701.86
771.35	1740.77
771.53	1691.62
771.70	1732.58
771.88	1720.29
772.06	1712.10
772.23	1662.95
772.41	1693.67
772.59	1621.99
772.77	1648.61
772.94	1718.25
773.12	1751.01
773.30	1693.67
773.47	1693.67
773.65	1675.24
773.83	1841.12
774.01	1720.29
774.18	1587.18
774.36	1798.12
774.54	1650.66
774.71	1716.20
774.89	1636.33
775.07	1660.90
775.24	1634.28
775.42	1652.71
775.60	1779.68
775.78	1578.98
775.95	1609.70
776.13	1570.79
776.31	1642.47
776.48	1685.48
776.66	1853.41
776.84	1708.01
777.01	1601.51
777.19	1703.91
777.37	1742.82
777.54	1759.21
777.72	1824.74
777.90	1726.44
778.07	1669.09
778.25	1857.51
778.43	1781.73
778.60	1724.39
778.78	1787.88
778.96	1757.16
779.13	1615.85
779.31	1689.57
779.49	1728.49
779.66	1677.29
779.84	1691.62
780.01	1703.91
780.19	1648.61
780.37	1728.49
780.54	1740.77
780.72	1679.33
780.90	1728.49
781.07	1751.01
781.25	1636.33
781.43	1710.05
781.60	1689.57
781.78	1748.97
781.95	1775.59
782.13	1617.90
782.31	1677.29
782.48	1568.74
782.66	1771.49
782.83	1857.51
783.01	1730.53
783.19	1763.30
783.36	1714.15
783.54	1591.27
783.72	1832.93
783.89	1675.24
784.07	1712.10
784.24	1683.43
784.42	1652.71
784.60	1748.97
784.77	1759.21
784.95	1560.55
785.12	1646.57
785.30	1757.16
785.47	1667.05
785.65	1697.77
785.83	1650.66
786.00	1683.43
786.18	1763.30
786.35	1619.94
786.53	1677.29
786.71	1730.53
786.88	1785.83
787.06	1763.30
787.23	1648.61
787.41	1603.56
787.58	1699.81
787.76	1654.76
787.94	1701.86
788.11	1693.67
788.29	1607.66
788.46	1658.85
788.64	1640.42
788.81	1648.61
788.99	1587.18
789.16	1568.74
789.34	1714.15
789.52	1642.47
789.69	1660.90
789.87	1630.18
790.04	1734.63
790.22	1685.48
790.39	1832.93
790.57	1632.23
790.74	1634.28
790.92	1712.10
791.09	1667.05
791.27	1785.83
791.44	1753.06
791.62	1656.81
791.79	1738.73
791.97	1675.24
792.15	1910.75
792.32	1746.92
792.50	1714.15
792.67	1730.53
792.85	1738.73
793.02	1755.11
793.20	1695.72
793.37	1675.24
793.55	1771.49
793.72	1587.18
793.90	1732.58
794.07	1656.81
794.25	1697.77
794.42	1697.77
794.60	1685.48
794.77	1671.14
794.95	1705.96
795.12	1773.54
795.30	1650.66
795.47	1638.38
795.65	1832.93
795.82	1734.63
796.00	1703.91
796.17	1673.19
796.34	1691.62
796.52	1740.77
796.69	1746.92
796.87	1757.16
797.04	1789.92
797.22	1718.25
797.39	1808.36
797.57	1697.77
797.74	1669.09
797.92	1757.16
798.09	1658.85
798.27	1763.30
798.44	1714.15
798.62	1607.66
798.79	1779.68
798.96	1746.92
799.14	1738.73
799.31	1857.51
799.49	1708.01
799.66	1716.20
799.84	1699.81
800.01	1658.85
800.19	1710.05
800.36	1587.18
800.53	1718.25
800.71	1730.53
800.88	1820.64
801.06	1705.96
801.23	1675.24
801.41	1726.44
801.58	1689.57
801.75	1652.71
801.93	1775.59
802.10	1691.62
802.28	1730.53
802.45	1720.29
802.63	1708.01
802.80	1796.07
802.97	1689.57
803.15	1669.09
803.32	1703.91
803.50	1687.53
803.67	1667.05
803.84	1658.85
804.02	1726.44
804.19	1669.09
804.37	1554.41
804.54	1632.23
804.71	1654.76
804.89	1708.01
805.06	1587.18
805.24	1603.56
805.41	1681.38
805.58	1660.90
805.76	1859.56
805.93	1640.42
806.10	1765.35
806.28	1697.77
806.45	1734.63
806.63	1660.90
806.80	1669.09
806.97	1708.01
807.15	1718.25
807.32	1650.66
807.49	1738.73
807.67	1660.90
807.84	1787.88
808.01	1628.14
808.19	1828.84
808.36	1810.40
808.54	1732.58
808.71	1611.75
808.88	1679.33
809.06	1787.88
809.23	1791.97
809.40	1644.52
809.58	1773.54
809.75	1628.14
809.92	1656.81
810.10	1761.25
810.27	1720.29
810.44	1650.66
810.62	1716.20
810.79	1824.74
810.96	1685.48
811.14	1691.62
811.31	1736.68
811.48	1738.73
811.66	1691.62
811.83	1826.79
812.00	1703.91
812.18	1837.03
812.35	1816.55
812.52	1658.85
812.69	1714.15
812.87	1665.00
813.04	1648.61
813.21	1734.63
813.39	1652.71
813.56	1589.22
813.73	1738.73
813.91	1603.56
814.08	1769.44
814.25	1699.81
814.42	1609.70
814.60	1699.81
814.77	1708.01
814.94	1662.95
815.12	1697.77
815.29	1773.54
815.46	1626.09
815.63	1687.53
815.81	1675.24
815.98	1665.00
816.15	1699.81
816.33	1730.53
816.50	1669.09
816.67	1742.82
816.84	1677.29
817.02	1710.05
817.19	1660.90
817.36	1677.29
817.53	1710.05
817.71	1726.44
817.88	1705.96
818.05	1677.29
818.22	1667.05
818.40	1800.16
818.57	1677.29
818.74	1728.49
818.91	1742.82
819.09	1697.77
819.26	1742.82
819.43	1617.90
819.60	1652.71
819.78	1781.73
819.95	1785.83
820.12	1660.90
820.29	1810.40
820.47	1748.97
820.64	1648.61
820.81	1636.33
820.98	1673.19
821.15	1662.95
821.33	1834.98
821.50	1613.80
821.67	1814.50
821.84	1697.77
822.02	1726.44
822.19	1746.92
822.36	1654.76
822.53	1703.91
822.70	1591.27
822.88	1697.77
823.05	1683.43
823.22	1710.05
823.39	1824.74
823.56	1626.09
823.74	1910.75
823.91	1695.72
824.08	1656.81
824.25	1683.43
824.42	1814.50
824.60	1656.81
824.77	1742.82
824.94	1665.00
825.11	1726.44
825.28	1626.09
825.45	1734.63
825.63	1691.62
825.80	1662.95
825.97	1779.68
826.14	1693.67
826.31	1576.94
826.48	1732.58
826.66	1697.77
826.83	1665.00
827.00	1740.77
827.17	1748.97
827.34	1665.00
827.51	1728.49
827.69	1685.48
827.86	1626.09
828.03	1650.66
828.20	1685.48
828.37	1652.71
828.54	1714.15
828.71	1636.33
828.89	1787.88
829.06	1722.34
829.23	1724.39
829.40	1669.09
829.57	1685.48
829.74	1730.53
829.91	1738.73
830.09	1681.38
830.26	1843.17
830.43	1794.02
830.60	1746.92
830.77	1632.23
830.94	1822.69
831.11	1751.01
831.28	1687.53
831.46	1761.25
831.63	1708.01
831.80	1753.06
831.97	1708.01
832.14	1662.95
832.31	1767.40
832.48	1701.86
832.65	1675.24
832.82	1660.90
832.99	1744.87
833.17	1558.50
833.34	1857.51
833.51	1689.57
833.68	1544.17
833.85	1691.62
834.02	1630.18
834.19	1632.23
834.36	1630.18
834.53	1685.48
834.70	1748.97
834.87	1769.44
835.04	1714.15
835.22	1648.61
835.39	1642.47
835.56	1603.56
835.73	1695.72
835.90	1712.10
836.07	1632.23
836.24	1742.82
836.41	1697.77
836.58	1656.81
836.75	1744.87
836.92	1722.34
837.09	1597.42
837.26	1724.39
837.43	1755.11
837.60	1734.63
837.77	1714.15
837.94	1814.50
838.12	1732.58
838.29	1722.34
838.46	1621.99
838.63	1613.80
838.80	1806.31
838.97	1689.57
839.14	1726.44
839.31	1656.81
839.48	1712.10
839.65	1609.70
839.82	1751.01
839.99	1742.82
840.16	1791.97
840.33	1697.77
840.50	1703.91
840.67	1671.14
840.84	1570.79
841.01	1693.67
841.18	1679.33
841.35	1736.68
841.52	1710.05
841.69	1871.84
841.86	1734.63
842.03	1697.77
842.20	1763.30
842.37	1669.09
842.54	1738.73
842.71	1691.62
842.88	1636.33
843.05	1785.83
843.22	1673.19
843.39	1783.78
843.56	1626.09
843.73	1714.15
843.90	1777.64
844.07	1652.71
844.24	1738.73
844.41	1771.49
844.58	1722.34
844.75	1816.55
844.92	1738.73
845.09	1753.06
845.26	1691.62
845.43	1732.58
845.60	1652.71
845.77	1744.87
845.94	1644.52
846.10	1697.77
846.27	1710.05
846.44	1654.76
846.61	1656.81
846.78	1765.35
846.95	1763.30
847.12	1617.90
847.29	1738.73
847.46	1732.58
847.63	1746.92
847.80	1675.24
847.97	1695.72
848.14	1757.16
848.31	1687.53
848.48	1687.53
848.65	1730.53
848.82	1667.05
848.98	1884.13
849.15	1669.09
849.32	1738.73
849.49	1751.01
849.66	1746.92
849.83	1759.21
850.00	1634.28
850.17	1779.68
850.34	1673.19
850.51	1617.90
850.68	1658.85
850.85	1890.28
851.01	1681.38
851.18	1736.68
851.35	1722.34
851.52	1767.40
851.69	1771.49
851.86	1662.95
852.03	1748.97
852.20	1777.64
852.37	1656.81
852.53	1617.90
852.70	1683.43
852.87	1761.25
853.04	1740.77
853.21	1669.09
853.38	1689.57
853.55	1791.97
853.72	1796.07
853.89	1650.66
854.05	1718.25
854.22	1705.96
854.39	1697.77
854.56	1720.29
854.73	1781.73
854.90	1656.81
855.07	1732.58
855.23	1646.57
855.40	1677.29
855.57	1685.48
855.74	1570.79
855.91	1830.88
856.08	1634.28
856.25	1603.56
856.41	1640.42
856.58	1732.58
856.75	1712.10
856.92	1636.33
857.09	1812.45
857.26	1679.33
857.42	1658.85
857.59	1767.40
857.76	1681.38
857.93	1738.73
858.10	1796.07
858.27	1617.90
858.43	1714.15
858.60	1656.81
858.77	1660.90
858.94	1718.25
859.11	1763.30
859.27	1656.81
859.44	1718.25
859.61	1755.11
859.78	1746.92
859.95	1697.77
860.12	1689.57
860.28	1814.50
860.45	1822.69
860.62	1585.13
860.79	1779.68
860.95	1669.09
861.12	1732.58
861.29	1626.09
861.46	1755.11
861.63	1720.29
861.79	1681.38
861.96	1665.00
862.13	1660.90
862.30	1746.92
862.47	1744.87
862.63	1714.15
862.80	1714.15
862.97	1681.38
863.14	1757.16
863.30	1759.21
863.47	1714.15
863.64	1718.25
863.81	1773.54
863.97	1677.29
864.14	1730.53
864.31	1697.77
864.48	1732.58
864.65	1763.30
864.81	1679.33
864.98	1779.68
865.15	1734.63
865.32	1724.39
865.48	1800.16
865.65	1794.02
865.82	1636.33
865.98	1851.36
866.15	1794.02
866.32	1724.39
866.49	1755.11
866.65	1806.31
866.82	1619.94
866.99	1685.48
867.16	1626.09
867.32	1646.57
867.49	1724.39
867.66	1705.96
867.83	1617.90
867.99	1673.19
868.16	1640.42
868.33	1669.09
868.49	1720.29
868.66	1654.76
868.83	1755.11
868.99	1689.57
869.16	1728.49
869.33	1755.11
869.50	1728.49
869.66	1695.72
869.83	1689.57
870.00	1621.99
870.16	1751.01
870.33	1708.01
870.50	1771.49
870.66	1679.33
870.83	1771.49
871.00	1632.23
871.17	1767.40
871.33	1773.54
871.50	1730.53
871.67	1751.01
871.83	1607.66
872.00	1779.68
872.17	1597.42
872.33	1769.44
872.50	1722.34
872.67	1714.15
872.83	1720.29
873.00	1736.68
873.17	1740.77
873.33	1736.68
873.50	1744.87
873.67	1656.81
873.83	1628.14
874.00	1624.04
874.16	1708.01
874.33	1671.14
874.50	1638.38
874.66	1718.25
874.83	1626.09
875.00	1701.86
875.16	1855.46
875.33	1742.82
875.50	1615.85
875.66	1785.83
875.83	1734.63
875.99	1718.25
876.16	1675.24
876.33	1671.14
876.49	1714.15
876.66	1710.05
876.83	1699.81
876.99	1624.04
877.16	1710.05
877.32	1695.72
877.49	1683.43
877.66	1716.20
877.82	1738.73
877.99	1642.47
878.15	1832.93
878.32	1683.43
878.49	1730.53
878.65	1683.43
878.82	1787.88
878.98	1677.29
879.15	1720.29
879.32	1781.73
879.48	1732.58
879.65	1701.86
879.81	1617.90
879.98	1644.52
880.15	1714.15
880.31	1834.98
880.48	1638.38
880.64	1763.30
880.81	1667.05
880.97	1892.32
881.14	1783.78
881.31	1673.19
881.47	1849.32
881.64	1679.33
881.80	1636.33
881.97	1693.67
882.13	1822.69
882.30	1632.23
882.47	1636.33
882.63	1697.77
882.80	1658.85
882.96	1665.00
883.13	1740.77
883.29	1642.47
883.46	1726.44
883.62	1843.17
883.79	1742.82
883.95	1718.25
884.12	1689.57
884.29	1720.29
884.45	1826.79
884.62	1734.63
884.78	1708.01
884.95	1798.12
885.11	1626.09
885.28	1638.38
885.44	1708.01
885.61	1730.53
885.77	1757.16
885.94	1769.44
886.10	1730.53
886.27	1753.06
886.43	1757.16
886.60	1757.16
886.76	1789.92
886.93	1681.38
887.09	1683.43
887.26	1632.23
887.42	1681.38
887.59	1744.87
887.75	1779.68
887.92	1701.86
888.08	1779.68
888.25	1798.12
888.41	1730.53
888.58	1757.16
888.74	1669.09
888.91	1763.30
>>>>>End Processed Spectral Data<<<<<
