SpectraSuite Data File
++++++++++++++++++++++++++++++++++++
Date: Mon Jun 06 12:50:17 CEST 2016
User: root
Dark Spectrum Present: No
Reference Spectrum Present: No
Number of Sampled Component Spectra: 1
Spectrometers: USB4C02835
Integration Time (usec): 100000 (USB4C02835)
Spectra Averaged: 1 (USB4C02835)
Boxcar Smoothing: 0 (USB4C02835)
Correct for Electrical Dark: No (USB4C02835)
Strobe/Lamp Enabled: No (USB4C02835)
Correct for Detector Non-linearity: No (USB4C02835)
Correct for Stray Light: No (USB4C02835)
Number of Pixels in Processed Spectrum: 3648
>>>>>Begin Processed Spectral Data<<<<<
177.47	1472.49
177.69	1472.49
177.91	1472.49
178.13	1435.63
178.36	1456.11
178.58	1550.31
178.80	1708.01
179.02	1658.85
179.24	1648.61
179.46	1656.81
179.68	1757.16
179.90	1763.30
180.13	1726.44
180.35	1630.18
180.57	1701.86
180.79	1693.67
181.01	1679.33
181.23	1673.19
181.45	1662.95
181.67	1751.01
181.90	1822.69
182.12	1660.90
182.34	1681.38
182.56	1671.14
182.78	1785.83
183.00	1734.63
183.22	1708.01
183.44	1683.43
183.66	1865.70
183.89	1808.36
184.11	1744.87
184.33	1644.52
184.55	1767.40
184.77	1697.77
184.99	1736.68
185.21	1662.95
185.43	1820.64
185.65	1615.85
185.87	1744.87
186.10	1834.98
186.32	1853.41
186.54	1652.71
186.76	1810.40
186.98	1791.97
187.20	1640.42
187.42	1628.14
187.64	1730.53
187.86	1755.11
188.08	1714.15
188.30	1720.29
188.52	1675.24
188.75	1769.44
188.97	1740.77
189.19	1662.95
189.41	1656.81
189.63	1722.34
189.85	1630.18
190.07	1640.42
190.29	1634.28
190.51	1738.73
190.73	1587.18
190.95	1806.31
191.17	1730.53
191.39	1617.90
191.61	1681.38
191.84	1644.52
192.06	1740.77
192.28	1538.02
192.50	1837.03
192.72	1687.53
192.94	1667.05
193.16	1763.30
193.38	1699.81
193.60	1662.95
193.82	1611.75
194.04	1826.79
194.26	1763.30
194.48	1699.81
194.70	1689.57
194.92	1712.10
195.14	1736.68
195.36	1613.80
195.58	1712.10
195.80	1662.95
196.02	1697.77
196.24	1724.39
196.46	1759.21
196.69	1724.39
196.91	1861.60
197.13	1767.40
197.35	1726.44
197.57	1740.77
197.79	1658.85
198.01	1705.96
198.23	1748.97
198.45	1738.73
198.67	1650.66
198.89	1730.53
199.11	1703.91
199.33	1646.57
199.55	1609.70
199.77	1654.76
199.99	1783.78
200.21	1652.71
200.43	1673.19
200.65	1636.33
200.87	1599.46
201.09	1681.38
201.31	1693.67
201.53	1753.06
201.75	1648.61
201.97	1708.01
202.19	1722.34
202.41	1724.39
202.63	1787.88
202.85	1751.01
203.07	1720.29
203.29	1761.25
203.51	1701.86
203.73	1691.62
203.95	1880.04
204.17	1724.39
204.39	1751.01
204.61	1681.38
204.83	1607.66
205.05	1673.19
205.27	1755.11
205.49	1826.79
205.71	1660.90
205.93	1599.46
206.15	1650.66
206.37	1710.05
206.59	1669.09
206.81	1769.44
207.03	1626.09
207.25	1673.19
207.47	1697.77
207.69	1820.64
207.91	1761.25
208.13	1701.86
208.34	1679.33
208.56	1648.61
208.78	1755.11
209.00	1644.52
209.22	1689.57
209.44	1640.42
209.66	1665.00
209.88	1832.93
210.10	1648.61
210.32	1638.38
210.54	1695.72
210.76	1607.66
210.98	1740.77
211.20	1570.79
211.42	1753.06
211.64	1685.48
211.86	1738.73
212.08	1738.73
212.30	1714.15
212.52	1693.67
212.74	1691.62
212.96	1714.15
213.17	1685.48
213.39	1814.50
213.61	1759.21
213.83	1683.43
214.05	1697.77
214.27	1802.21
214.49	1583.08
214.71	1611.75
214.93	1751.01
215.15	1697.77
215.37	1769.44
215.59	1601.51
215.81	1689.57
216.03	1714.15
216.24	1654.76
216.46	1710.05
216.68	1738.73
216.90	1751.01
217.12	1712.10
217.34	1748.97
217.56	1658.85
217.78	1818.60
218.00	1779.68
218.22	1667.05
218.44	1701.86
218.66	1744.87
218.87	1822.69
219.09	1658.85
219.31	1744.87
219.53	1738.73
219.75	1703.91
219.97	1671.14
220.19	1730.53
220.41	1673.19
220.63	1789.92
220.85	1730.53
221.06	1714.15
221.28	1775.59
221.50	1714.15
221.72	1742.82
221.94	1695.72
222.16	1767.40
222.38	1695.72
222.60	1701.86
222.82	1773.54
223.03	1701.86
223.25	1626.09
223.47	1710.05
223.69	1763.30
223.91	1757.16
224.13	1667.05
224.35	1634.28
224.57	1773.54
224.78	1673.19
225.00	1605.61
225.22	1685.48
225.44	1632.23
225.66	1689.57
225.88	1609.70
226.10	1824.74
226.32	1714.15
226.53	1779.68
226.75	1677.29
226.97	1683.43
227.19	1703.91
227.41	1630.18
227.63	1576.94
227.85	1574.89
228.06	1671.14
228.28	1693.67
228.50	1794.02
228.72	1660.90
228.94	1662.95
229.16	1568.74
229.37	1632.23
229.59	1626.09
229.81	1732.58
230.03	1656.81
230.25	1578.98
230.47	1607.66
230.69	1611.75
230.90	1730.53
231.12	1665.00
231.34	1748.97
231.56	1761.25
231.78	1665.00
232.00	1658.85
232.21	1708.01
232.43	1617.90
232.65	1517.54
232.87	1685.48
233.09	1675.24
233.30	1740.77
233.52	1771.49
233.74	1667.05
233.96	1677.29
234.18	1777.64
234.40	1650.66
234.61	1771.49
234.83	1621.99
235.05	1644.52
235.27	1896.42
235.49	1771.49
235.70	1687.53
235.92	1765.35
236.14	1662.95
236.36	1849.32
236.58	1675.24
236.79	1810.40
237.01	1667.05
237.23	1617.90
237.45	1849.32
237.67	1581.03
237.88	1708.01
238.10	1810.40
238.32	1705.96
238.54	1650.66
238.76	1654.76
238.97	1701.86
239.19	1671.14
239.41	1748.97
239.63	1683.43
239.85	1650.66
240.06	1648.61
240.28	1665.00
240.50	1773.54
240.72	1716.20
240.93	1671.14
241.15	1701.86
241.37	1667.05
241.59	1726.44
241.81	1689.57
242.02	1748.97
242.24	1726.44
242.46	1748.97
242.68	1621.99
242.89	1630.18
243.11	1720.29
243.33	1585.13
243.55	1722.34
243.76	1730.53
243.98	1656.81
244.20	1644.52
244.42	1712.10
244.64	1746.92
244.85	1640.42
245.07	1646.57
245.29	1751.01
245.51	1632.23
245.72	1679.33
245.94	1828.84
246.16	1697.77
246.38	1722.34
246.59	1720.29
246.81	1669.09
247.03	1660.90
247.24	1624.04
247.46	1681.38
247.68	1744.87
247.90	1654.76
248.11	1714.15
248.33	1671.14
248.55	1701.86
248.77	1734.63
248.98	1722.34
249.20	1699.81
249.42	1673.19
249.64	1794.02
249.85	1632.23
250.07	1687.53
250.29	1665.00
250.50	1748.97
250.72	1695.72
250.94	1746.92
251.16	1898.47
251.37	1744.87
251.59	1736.68
251.81	1660.90
252.02	1826.79
252.24	1603.56
252.46	1812.45
252.68	1687.53
252.89	1703.91
253.11	1638.38
253.33	1777.64
253.54	1740.77
253.76	1675.24
253.98	1652.71
254.20	1710.05
254.41	1638.38
254.63	1712.10
254.85	1619.94
255.06	1744.87
255.28	1708.01
255.50	1740.77
255.71	1736.68
255.93	1658.85
256.15	1621.99
256.36	1738.73
256.58	1689.57
256.80	1660.90
257.02	1669.09
257.23	1775.59
257.45	1718.25
257.67	1685.48
257.88	1638.38
258.10	1744.87
258.32	1683.43
258.53	1697.77
258.75	1789.92
258.97	1611.75
259.18	1665.00
259.40	1695.72
259.62	1847.27
259.83	1714.15
260.05	1783.78
260.27	1980.39
260.48	1755.11
260.70	1609.70
260.92	1650.66
261.13	1753.06
261.35	1667.05
261.57	1722.34
261.78	1648.61
262.00	1572.84
262.22	1689.57
262.43	1660.90
262.65	1652.71
262.86	1722.34
263.08	1802.21
263.30	1628.14
263.51	1585.13
263.73	1638.38
263.95	1847.27
264.16	1554.41
264.38	1597.42
264.60	1710.05
264.81	1705.96
265.03	1804.26
265.25	1761.25
265.46	1665.00
265.68	1746.92
265.89	1748.97
266.11	1607.66
266.33	1765.35
266.54	1742.82
266.76	1699.81
266.98	1763.30
267.19	1740.77
267.41	1775.59
267.62	1755.11
267.84	1660.90
268.06	1744.87
268.27	1652.71
268.49	1748.97
268.70	1777.64
268.92	1732.58
269.14	1744.87
269.35	1603.56
269.57	1681.38
269.79	1665.00
270.00	1722.34
270.22	1759.21
270.43	1683.43
270.65	1652.71
270.87	1660.90
271.08	1722.34
271.30	1699.81
271.51	1691.62
271.73	1691.62
271.95	1767.40
272.16	1658.85
272.38	1714.15
272.59	1642.47
272.81	1763.30
273.02	1710.05
273.24	1761.25
273.46	1732.58
273.67	1583.08
273.89	1611.75
274.10	1626.09
274.32	1748.97
274.54	1671.14
274.75	1751.01
274.97	1701.86
275.18	1732.58
275.40	1685.48
275.61	1722.34
275.83	1673.19
276.05	1578.98
276.26	1699.81
276.48	1726.44
276.69	1658.85
276.91	1632.23
277.12	1785.83
277.34	1775.59
277.55	1785.83
277.77	1667.05
277.99	1708.01
278.20	1636.33
278.42	1695.72
278.63	1609.70
278.85	1660.90
279.06	1581.03
279.28	1755.11
279.49	1775.59
279.71	1720.29
279.93	1679.33
280.14	1634.28
280.36	1652.71
280.57	1699.81
280.79	1763.30
281.00	1607.66
281.22	1640.42
281.43	1816.55
281.65	1621.99
281.86	1691.62
282.08	1734.63
282.29	1847.27
282.51	1660.90
282.73	1652.71
282.94	1626.09
283.16	1751.01
283.37	1806.31
283.59	1650.66
283.80	1683.43
284.02	1648.61
284.23	1789.92
284.45	1665.00
284.66	1624.04
284.88	1652.71
285.09	1808.36
285.31	1755.11
285.52	1673.19
285.74	1587.18
285.95	1755.11
286.17	1703.91
286.38	1742.82
286.60	1642.47
286.81	1687.53
287.03	1755.11
287.24	1685.48
287.46	1767.40
287.67	1683.43
287.89	1804.26
288.10	1656.81
288.32	1708.01
288.53	1755.11
288.75	1681.38
288.96	1773.54
289.18	1716.20
289.39	1658.85
289.61	1751.01
289.82	1824.74
290.04	1740.77
290.25	1607.66
290.47	1693.67
290.68	1648.61
290.90	1759.21
291.11	1640.42
291.33	1703.91
291.54	1679.33
291.76	1648.61
291.97	1697.77
292.18	1716.20
292.40	1738.73
292.61	1681.38
292.83	1810.40
293.04	1767.40
293.26	1632.23
293.47	1611.75
293.69	1701.86
293.90	1681.38
294.12	1716.20
294.33	1710.05
294.55	1708.01
294.76	1730.53
294.97	1763.30
295.19	1841.12
295.40	1736.68
295.62	1726.44
295.83	1783.78
296.05	1581.03
296.26	1712.10
296.48	1675.24
296.69	1630.18
296.90	1724.39
297.12	1736.68
297.33	1806.31
297.55	1671.14
297.76	1665.00
297.98	1759.21
298.19	1746.92
298.41	1679.33
298.62	1669.09
298.83	1814.50
299.05	1685.48
299.26	1621.99
299.48	1759.21
299.69	1738.73
299.90	1705.96
300.12	1708.01
300.33	1730.53
300.55	1656.81
300.76	1710.05
300.98	1638.38
301.19	1732.58
301.40	1724.39
301.62	1769.44
301.83	1765.35
302.05	1730.53
302.26	1765.35
302.47	1650.66
302.69	1687.53
302.90	1685.48
303.12	1591.27
303.33	1699.81
303.54	1767.40
303.76	1671.14
303.97	1791.97
304.19	1744.87
304.40	1673.19
304.61	1746.92
304.83	1759.21
305.04	1681.38
305.26	1769.44
305.47	1648.61
305.68	1732.58
305.90	1613.80
306.11	1748.97
306.33	1634.28
306.54	1720.29
306.75	1736.68
306.97	1652.71
307.18	1599.46
307.39	1675.24
307.61	1746.92
307.82	1679.33
308.04	1689.57
308.25	1658.85
308.46	1724.39
308.68	1775.59
308.89	1695.72
309.10	1877.99
309.32	1722.34
309.53	1613.80
309.74	1665.00
309.96	1656.81
310.17	1726.44
310.39	1701.86
310.60	1734.63
310.81	1654.76
311.03	1667.05
311.24	1722.34
311.45	1755.11
311.67	1796.07
311.88	1714.15
312.09	1630.18
312.31	1624.04
312.52	1677.29
312.73	1605.61
312.95	1591.27
313.16	1693.67
313.37	1798.12
313.59	1775.59
313.80	1703.91
314.01	1808.36
314.23	1695.72
314.44	1644.52
314.65	1671.14
314.87	1714.15
315.08	1607.66
315.29	1699.81
315.51	1691.62
315.72	1589.22
315.93	1822.69
316.15	1701.86
316.36	1613.80
316.57	1658.85
316.79	1724.39
317.00	1662.95
317.21	1699.81
317.43	1785.83
317.64	1720.29
317.85	1718.25
318.07	1609.70
318.28	1691.62
318.49	1787.88
318.70	1810.40
318.92	1794.02
319.13	1845.22
319.34	1841.12
319.56	1841.12
319.77	1746.92
319.98	1796.07
320.20	1812.45
320.41	1765.35
320.62	1722.34
320.83	1656.81
321.05	1798.12
321.26	1601.51
321.47	1822.69
321.69	1759.21
321.90	1652.71
322.11	1761.25
322.32	1724.39
322.54	1796.07
322.75	1763.30
322.96	1873.89
323.18	1619.94
323.39	1644.52
323.60	1714.15
323.81	1751.01
324.03	1675.24
324.24	1746.92
324.45	1658.85
324.66	1677.29
324.88	1675.24
325.09	1763.30
325.30	1734.63
325.52	1677.29
325.73	1722.34
325.94	1585.13
326.15	1638.38
326.37	1646.57
326.58	1685.48
326.79	1830.88
327.00	1679.33
327.22	1603.56
327.43	1740.77
327.64	1652.71
327.85	1705.96
328.07	1669.09
328.28	1804.26
328.49	1660.90
328.70	1712.10
328.92	1732.58
329.13	1654.76
329.34	1648.61
329.55	1810.40
329.76	1742.82
329.98	1669.09
330.19	1738.73
330.40	1761.25
330.61	1658.85
330.83	1771.49
331.04	1660.90
331.25	1675.24
331.46	1669.09
331.68	1595.37
331.89	1761.25
332.10	1703.91
332.31	1605.61
332.52	1771.49
332.74	1789.92
332.95	1652.71
333.16	1675.24
333.37	1806.31
333.58	1642.47
333.80	1703.91
334.01	1656.81
334.22	1619.94
334.43	1755.11
334.64	1722.34
334.86	1683.43
335.07	1619.94
335.28	1812.45
335.49	1624.04
335.70	1701.86
335.92	1779.68
336.13	1869.80
336.34	1832.93
336.55	1693.67
336.76	1722.34
336.98	1699.81
337.19	1734.63
337.40	1744.87
337.61	1828.84
337.82	1691.62
338.04	1744.87
338.25	1626.09
338.46	1595.37
338.67	1730.53
338.88	1667.05
339.09	1607.66
339.31	1626.09
339.52	1587.18
339.73	1701.86
339.94	1742.82
340.15	1755.11
340.36	1583.08
340.58	1685.48
340.79	1718.25
341.00	1767.40
341.21	1593.32
341.42	1882.08
341.63	1648.61
341.85	1697.77
342.06	1753.06
342.27	1685.48
342.48	1736.68
342.69	1599.46
342.90	1800.16
343.12	1740.77
343.33	1687.53
343.54	1783.78
343.75	1804.26
343.96	1726.44
344.17	1673.19
344.38	1689.57
344.60	1708.01
344.81	1677.29
345.02	1691.62
345.23	1695.72
345.44	1806.31
345.65	1630.18
345.86	1708.01
346.07	1718.25
346.29	1650.66
346.50	1730.53
346.71	1734.63
346.92	1734.63
347.13	1808.36
347.34	1705.96
347.55	1691.62
347.76	1660.90
347.98	1634.28
348.19	1701.86
348.40	1806.31
348.61	1710.05
348.82	1751.01
349.03	1742.82
349.24	1693.67
349.45	1841.12
349.66	1550.31
349.88	1681.38
350.09	1593.32
350.30	1708.01
350.51	1804.26
350.72	1693.67
350.93	1769.44
351.14	1697.77
351.35	1736.68
351.56	1697.77
351.77	1667.05
351.99	1683.43
352.20	1746.92
352.41	1617.90
352.62	1640.42
352.83	1730.53
353.04	1767.40
353.25	1726.44
353.46	1755.11
353.67	1759.21
353.88	1607.66
354.09	1697.77
354.30	1761.25
354.52	1665.00
354.73	1697.77
354.94	1679.33
355.15	1730.53
355.36	1804.26
355.57	1701.86
355.78	1742.82
355.99	1681.38
356.20	1673.19
356.41	1742.82
356.62	1755.11
356.83	1722.34
357.04	1791.97
357.25	1632.23
357.46	1691.62
357.68	1601.51
357.89	1689.57
358.10	1730.53
358.31	1699.81
358.52	1642.47
358.73	1679.33
358.94	1605.61
359.15	1701.86
359.36	1656.81
359.57	1716.20
359.78	1689.57
359.99	1740.77
360.20	1687.53
360.41	1593.32
360.62	1769.44
360.83	1708.01
361.04	1746.92
361.25	1644.52
361.46	1769.44
361.67	1724.39
361.88	1753.06
362.09	1712.10
362.30	1699.81
362.51	1681.38
362.72	1708.01
362.93	1718.25
363.14	1841.12
363.35	1722.34
363.56	1615.85
363.78	1761.25
363.99	1744.87
364.20	1675.24
364.41	1724.39
364.62	1810.40
364.83	1687.53
365.04	1677.29
365.25	1640.42
365.46	1755.11
365.67	1689.57
365.88	1669.09
366.09	1675.24
366.30	1712.10
366.51	1638.38
366.72	1640.42
366.93	1681.38
367.14	1720.29
367.35	1800.16
367.56	1703.91
367.77	1816.55
367.98	1722.34
368.18	1746.92
368.39	1796.07
368.60	1581.03
368.81	1738.73
369.02	1662.95
369.23	1685.48
369.44	1603.56
369.65	1710.05
369.86	1710.05
370.07	1746.92
370.28	1660.90
370.49	1654.76
370.70	1746.92
370.91	1644.52
371.12	1638.38
371.33	1755.11
371.54	1689.57
371.75	1794.02
371.96	1558.50
372.17	1681.38
372.38	1726.44
372.59	1724.39
372.80	1738.73
373.01	1687.53
373.22	1677.29
373.43	1720.29
373.64	1646.57
373.85	1763.30
374.06	1857.51
374.26	1740.77
374.47	1718.25
374.68	1818.60
374.89	1732.58
375.10	1656.81
375.31	1796.07
375.52	1763.30
375.73	1722.34
375.94	1689.57
376.15	1738.73
376.36	1578.98
376.57	1761.25
376.78	1662.95
376.99	1689.57
377.20	1775.59
377.40	1656.81
377.61	1761.25
377.82	1718.25
378.03	1791.97
378.24	1732.58
378.45	1748.97
378.66	1785.83
378.87	1636.33
379.08	1615.85
379.29	1697.77
379.50	1775.59
379.71	1708.01
379.91	1837.03
380.12	1689.57
380.33	1736.68
380.54	1648.61
380.75	1726.44
380.96	1681.38
381.17	1687.53
381.38	1744.87
381.59	1742.82
381.80	1742.82
382.00	1843.17
382.21	1730.53
382.42	1873.89
382.63	1877.99
382.84	1787.88
383.05	1779.68
383.26	1683.43
383.47	1720.29
383.68	1771.49
383.88	1761.25
384.09	1681.38
384.30	1871.84
384.51	1724.39
384.72	1712.10
384.93	1677.29
385.14	1658.85
385.35	1744.87
385.55	1587.18
385.76	1751.01
385.97	1687.53
386.18	1708.01
386.39	1693.67
386.60	1751.01
386.81	1730.53
387.02	1730.53
387.22	1728.49
387.43	1785.83
387.64	1777.64
387.85	1933.28
388.06	2295.77
388.27	4188.10
388.48	6741.91
388.68	8279.94
388.89	9621.36
389.10	9922.41
389.31	8718.20
389.52	7585.68
389.73	6741.91
389.93	6307.74
390.14	5840.81
390.35	5091.25
390.56	4601.79
390.77	3700.68
390.98	3035.09
391.18	2519.00
391.39	2138.08
391.60	1812.45
391.81	1843.17
392.02	1714.15
392.23	1861.60
392.43	1720.29
392.64	1746.92
392.85	1689.57
393.06	1820.64
393.27	1591.27
393.47	1724.39
393.68	1740.77
393.89	1662.95
394.10	1779.68
394.31	1708.01
394.52	1593.32
394.72	1695.72
394.93	1732.58
395.14	1566.70
395.35	1691.62
395.56	1601.51
395.76	1755.11
395.97	1779.68
396.18	1830.88
396.39	1873.89
396.60	2025.44
396.80	1865.70
397.01	1855.46
397.22	1834.98
397.43	1785.83
397.64	1716.20
397.84	1808.36
398.05	1824.74
398.26	1804.26
398.47	1765.35
398.67	1808.36
398.88	1724.39
399.09	1697.77
399.30	1687.53
399.51	1763.30
399.71	1705.96
399.92	1671.14
400.13	1755.11
400.34	1626.09
400.54	1718.25
400.75	1789.92
400.96	1718.25
401.17	1863.65
401.37	1640.42
401.58	1705.96
401.79	1761.25
402.00	1906.66
402.21	2050.02
402.41	1884.13
402.62	1984.48
402.83	2050.02
403.04	1986.53
403.24	2078.69
403.45	1802.21
403.66	1886.18
403.87	1853.41
404.07	1947.62
404.28	1855.46
404.49	1886.18
404.70	1834.98
404.90	1705.96
405.11	1671.14
405.32	1708.01
405.52	1638.38
405.73	1603.56
405.94	1636.33
406.15	1601.51
406.35	1857.51
406.56	1777.64
406.77	1724.39
406.98	1738.73
407.18	1669.09
407.39	1769.44
407.60	1656.81
407.80	1720.29
408.01	1665.00
408.22	1779.68
408.43	1681.38
408.63	1791.97
408.84	1679.33
409.05	1771.49
409.25	1691.62
409.46	1687.53
409.67	1677.29
409.88	1693.67
410.08	1687.53
410.29	1722.34
410.50	1720.29
410.70	1738.73
410.91	1654.76
411.12	1679.33
411.32	1665.00
411.53	1687.53
411.74	1767.40
411.95	1771.49
412.15	1791.97
412.36	1828.84
412.57	1796.07
412.77	1812.45
412.98	1802.21
413.19	1691.62
413.39	1765.35
413.60	1665.00
413.81	1802.21
414.01	1736.68
414.22	1759.21
414.43	1771.49
414.63	1669.09
414.84	1832.93
415.05	1705.96
415.25	1585.13
415.46	1769.44
415.67	1701.86
415.87	1697.77
416.08	1718.25
416.29	1656.81
416.49	1759.21
416.70	1669.09
416.91	1660.90
417.11	1710.05
417.32	1765.35
417.53	1703.91
417.73	1691.62
417.94	1710.05
418.15	1730.53
418.35	1699.81
418.56	1771.49
418.77	1826.79
418.97	1732.58
419.18	1679.33
419.38	1570.79
419.59	1691.62
419.80	1785.83
420.00	1689.57
420.21	1746.92
420.42	1701.86
420.62	1673.19
420.83	1585.13
421.04	1716.20
421.24	1771.49
421.45	1718.25
421.65	1728.49
421.86	1681.38
422.07	1759.21
422.27	1632.23
422.48	1746.92
422.69	1595.37
422.89	1679.33
423.10	1753.06
423.30	1669.09
423.51	1763.30
423.72	1783.78
423.92	1767.40
424.13	1632.23
424.33	1755.11
424.54	1748.97
424.75	1712.10
424.95	1914.85
425.16	1761.25
425.36	1619.94
425.57	1820.64
425.78	1755.11
425.98	1759.21
426.19	1665.00
426.39	1697.77
426.60	1757.16
426.81	1759.21
427.01	1687.53
427.22	1708.01
427.42	1599.46
427.63	1587.18
427.83	1789.92
428.04	1773.54
428.25	1722.34
428.45	1763.30
428.66	1738.73
428.86	1673.19
429.07	1708.01
429.28	1656.81
429.48	1744.87
429.69	1591.27
429.89	1693.67
430.10	1660.90
430.30	1718.25
430.51	1796.07
430.71	1636.33
430.92	1689.57
431.13	1677.29
431.33	1771.49
431.54	1705.96
431.74	1839.08
431.95	1853.41
432.15	1636.33
432.36	1712.10
432.56	1675.24
432.77	1726.44
432.98	1783.78
433.18	1720.29
433.39	1734.63
433.59	1626.09
433.80	1773.54
434.00	1779.68
434.21	1728.49
434.41	1660.90
434.62	1826.79
434.82	1726.44
435.03	1648.61
435.23	1693.67
435.44	1609.70
435.64	1720.29
435.85	1738.73
436.06	1701.86
436.26	1755.11
436.47	1675.24
436.67	1679.33
436.88	1703.91
437.08	1761.25
437.29	1820.64
437.49	1695.72
437.70	1771.49
437.90	1796.07
438.11	1767.40
438.31	1812.45
438.52	1826.79
438.72	1900.52
438.93	1947.62
439.13	1777.64
439.34	1839.08
439.54	1781.73
439.75	1783.78
439.95	1779.68
440.16	1667.05
440.36	1736.68
440.57	1699.81
440.77	1640.42
440.98	1798.12
441.18	1738.73
441.39	1732.58
441.59	1628.14
441.80	1824.74
442.00	1681.38
442.21	1787.88
442.41	1669.09
442.62	1759.21
442.82	1675.24
443.02	1738.73
443.23	1689.57
443.43	1624.04
443.64	1757.16
443.84	1748.97
444.05	1777.64
444.25	1662.95
444.46	1775.59
444.66	1767.40
444.87	1847.27
445.07	1710.05
445.28	1771.49
445.48	1806.31
445.69	1730.53
445.89	1912.80
446.09	1804.26
446.30	1988.58
446.50	2731.99
446.71	3602.38
446.91	4306.88
447.12	4796.34
447.32	4763.58
447.53	4347.84
447.73	3934.15
447.93	3522.51
448.14	3342.28
448.34	3114.96
448.55	2942.93
448.75	2893.78
448.96	2664.41
449.16	2414.56
449.36	2254.81
449.57	2074.59
449.77	1857.51
449.98	1820.64
450.18	1746.92
450.39	1785.83
450.59	1785.83
450.79	1722.34
451.00	1636.33
451.20	1771.49
451.41	1732.58
451.61	1724.39
451.81	1691.62
452.02	1722.34
452.22	1734.63
452.43	1720.29
452.63	1738.73
452.84	1724.39
453.04	1693.67
453.24	1751.01
453.45	1736.68
453.65	1742.82
453.86	1714.15
454.06	1796.07
454.26	1804.26
454.47	1683.43
454.67	1728.49
454.87	1736.68
455.08	1708.01
455.28	1781.73
455.49	1710.05
455.69	1744.87
455.89	1828.84
456.10	1822.69
456.30	1673.19
456.51	1865.70
456.71	1617.90
456.91	1687.53
457.12	1740.77
457.32	1796.07
457.52	1667.05
457.73	1781.73
457.93	1796.07
458.14	1744.87
458.34	1687.53
458.54	1773.54
458.75	1779.68
458.95	1734.63
459.15	1779.68
459.36	1751.01
459.56	1740.77
459.76	1816.55
459.97	1759.21
460.17	1703.91
460.37	1828.84
460.58	1681.38
460.78	1738.73
460.99	1714.15
461.19	1679.33
461.39	1708.01
461.60	1708.01
461.80	1804.26
462.00	1654.76
462.21	1738.73
462.41	1646.57
462.61	1673.19
462.82	1669.09
463.02	1665.00
463.22	1689.57
463.43	1742.82
463.63	1736.68
463.83	1802.21
464.04	1746.92
464.24	1722.34
464.44	1669.09
464.64	1714.15
464.85	1791.97
465.05	1806.31
465.25	1691.62
465.46	1708.01
465.66	1767.40
465.86	1734.63
466.07	1714.15
466.27	1693.67
466.47	1619.94
466.68	1740.77
466.88	1877.99
467.08	1824.74
467.29	1802.21
467.49	1789.92
467.69	1691.62
467.89	1738.73
468.10	1746.92
468.30	1730.53
468.50	1818.60
468.71	1794.02
468.91	1656.81
469.11	1828.84
469.31	1781.73
469.52	1730.53
469.72	1808.36
469.92	1859.56
470.13	1820.64
470.33	1701.86
470.53	1822.69
470.73	2084.83
470.94	2365.40
471.14	2344.92
471.34	2516.95
471.54	2314.20
471.75	2228.19
471.95	2191.33
472.15	2052.06
472.36	2215.90
472.56	1984.48
472.76	1998.82
472.96	2037.73
473.17	1978.34
473.37	1923.04
473.57	1796.07
473.77	1839.08
473.98	1769.44
474.18	1734.63
474.38	1931.23
474.58	1677.29
474.79	1703.91
474.99	1771.49
475.19	1839.08
475.39	1654.76
475.60	1771.49
475.80	1724.39
476.00	1810.40
476.20	1681.38
476.41	1736.68
476.61	1820.64
476.81	1777.64
477.01	1640.42
477.21	1759.21
477.42	1812.45
477.62	1624.04
477.82	1701.86
478.02	1705.96
478.23	1761.25
478.43	1621.99
478.63	1730.53
478.83	1738.73
479.03	1648.61
479.24	1800.16
479.44	1820.64
479.64	1621.99
479.84	1626.09
480.04	1634.28
480.25	1804.26
480.45	1710.05
480.65	1720.29
480.85	1828.84
481.06	1738.73
481.26	1695.72
481.46	1761.25
481.66	1652.71
481.86	1699.81
482.06	1839.08
482.27	1681.38
482.47	1675.24
482.67	1732.58
482.87	1716.20
483.07	1673.19
483.28	1699.81
483.48	1583.08
483.68	1673.19
483.88	1626.09
484.08	1591.27
484.29	1691.62
484.49	1726.44
484.69	1697.77
484.89	1779.68
485.09	1785.83
485.29	1736.68
485.50	1767.40
485.70	1665.00
485.90	1775.59
486.10	1759.21
486.30	1744.87
486.50	1726.44
486.71	1728.49
486.91	1744.87
487.11	1748.97
487.31	1691.62
487.51	1751.01
487.71	1640.42
487.91	1609.70
488.12	1757.16
488.32	1560.55
488.52	1685.48
488.72	1578.98
488.92	1714.15
489.12	1755.11
489.32	1794.02
489.53	1705.96
489.73	1626.09
489.93	1798.12
490.13	1677.29
490.33	1669.09
490.53	1669.09
490.73	1783.78
490.94	1638.38
491.14	1675.24
491.34	1806.31
491.54	2154.46
491.74	2586.58
491.94	2852.82
492.14	2994.13
492.34	2955.22
492.54	2715.61
492.75	2459.61
492.95	2439.13
493.15	2351.07
493.35	2291.68
493.55	2209.76
493.75	2213.85
493.95	2056.16
494.15	2037.73
494.35	1941.47
494.56	1886.18
494.76	1710.05
494.96	1849.32
495.16	1755.11
495.36	1712.10
495.56	1738.73
495.76	1771.49
495.96	1757.16
496.16	1665.00
496.36	1849.32
496.56	1701.86
496.77	1742.82
496.97	1679.33
497.17	1779.68
497.37	1722.34
497.57	1744.87
497.77	1615.85
497.97	1693.67
498.17	1701.86
498.37	1685.48
498.57	1738.73
498.77	1761.25
498.97	1648.61
499.17	1861.60
499.38	1755.11
499.58	1753.06
499.78	1818.60
499.98	1796.07
500.18	1765.35
500.38	1701.86
500.58	1939.43
500.78	2621.40
500.98	4581.31
501.18	5814.18
501.38	6653.85
501.58	7245.71
501.78	6594.46
501.98	5404.59
502.18	4968.37
502.38	4368.32
502.58	4050.88
502.78	3770.31
502.98	3581.90
503.18	3379.15
503.38	3205.07
503.59	2826.20
503.79	2623.45
503.99	2459.61
504.19	2234.33
504.39	2265.05
504.59	2228.19
504.79	2086.88
504.99	2017.25
505.19	1914.85
505.39	1888.23
505.59	1873.89
505.79	1828.84
505.99	1886.18
506.19	1845.22
506.39	1877.99
506.59	1730.53
506.79	1746.92
506.99	1898.47
507.19	1849.32
507.39	1740.77
507.59	1636.33
507.79	1710.05
507.99	1697.77
508.19	1724.39
508.39	1660.90
508.59	1753.06
508.79	1765.35
508.99	1863.65
509.19	1671.14
509.39	1736.68
509.59	1734.63
509.79	1701.86
509.99	1716.20
510.19	1728.49
510.39	1796.07
510.59	1759.21
510.79	1720.29
510.99	1656.81
511.19	1763.30
511.39	1810.40
511.59	1857.51
511.79	1812.45
511.99	1785.83
512.19	1861.60
512.38	1714.15
512.58	1705.96
512.78	1751.01
512.98	1718.25
513.18	1888.23
513.38	1679.33
513.58	1796.07
513.78	1753.06
513.98	1728.49
514.18	1718.25
514.38	1656.81
514.58	1730.53
514.78	1665.00
514.98	1701.86
515.18	1740.77
515.38	1621.99
515.58	1787.88
515.78	1708.01
515.98	1681.38
516.18	1828.84
516.38	1761.25
516.57	1669.09
516.77	1675.24
516.97	1740.77
517.17	1660.90
517.37	1662.95
517.57	1816.55
517.77	1685.48
517.97	1681.38
518.17	1757.16
518.37	1751.01
518.57	1640.42
518.77	1718.25
518.97	1701.86
519.16	1759.21
519.36	1787.88
519.56	1738.73
519.76	1697.77
519.96	1796.07
520.16	1761.25
520.36	1705.96
520.56	1769.44
520.76	1705.96
520.96	1771.49
521.16	1794.02
521.35	1837.03
521.55	1834.98
521.75	1687.53
521.95	1658.85
522.15	1705.96
522.35	1683.43
522.55	1740.77
522.75	1773.54
522.95	1757.16
523.14	1708.01
523.34	1736.68
523.54	1677.29
523.74	1802.21
523.94	1818.60
524.14	1611.75
524.34	1796.07
524.54	1869.80
524.73	1667.05
524.93	1746.92
525.13	1693.67
525.33	1626.09
525.53	1882.08
525.73	1798.12
525.93	1697.77
526.13	1699.81
526.32	1705.96
526.52	1744.87
526.72	1712.10
526.92	1726.44
527.12	1726.44
527.32	1652.71
527.52	1726.44
527.71	1804.26
527.91	1755.11
528.11	1701.86
528.31	1679.33
528.51	1607.66
528.71	1712.10
528.90	1665.00
529.10	1683.43
529.30	1845.22
529.50	1691.62
529.70	1738.73
529.90	1691.62
530.09	1722.34
530.29	1691.62
530.49	1689.57
530.69	1839.08
530.89	1751.01
531.09	1716.20
531.28	1742.82
531.48	1820.64
531.68	1761.25
531.88	1722.34
532.08	1728.49
532.28	1689.57
532.47	1734.63
532.67	1796.07
532.87	1781.73
533.07	1722.34
533.27	1753.06
533.46	1697.77
533.66	1826.79
533.86	1677.29
534.06	1652.71
534.26	1634.28
534.45	1742.82
534.65	1755.11
534.85	1755.11
535.05	1667.05
535.25	1886.18
535.44	1609.70
535.64	1732.58
535.84	1798.12
536.04	1734.63
536.24	1732.58
536.43	1695.72
536.63	1722.34
536.83	1673.19
537.03	1703.91
537.22	1791.97
537.42	1671.14
537.62	1722.34
537.82	1691.62
538.02	1841.12
538.21	1779.68
538.41	1853.41
538.61	1748.97
538.81	1710.05
539.00	1800.16
539.20	1746.92
539.40	1652.71
539.60	1798.12
539.79	1751.01
539.99	1748.97
540.19	1724.39
540.39	1675.24
540.58	1783.78
540.78	1767.40
540.98	1763.30
541.18	1748.97
541.37	1767.40
541.57	1742.82
541.77	1722.34
541.97	1640.42
542.16	1683.43
542.36	1710.05
542.56	1746.92
542.76	1818.60
542.95	1771.49
543.15	1794.02
543.35	1808.36
543.54	1740.77
543.74	1726.44
543.94	1824.74
544.14	1665.00
544.33	1746.92
544.53	1742.82
544.73	1783.78
544.93	1722.34
545.12	1742.82
545.32	1746.92
545.52	1767.40
545.71	1748.97
545.91	1665.00
546.11	1699.81
546.30	1683.43
546.50	1775.59
546.70	1699.81
546.90	1718.25
547.09	1621.99
547.29	1730.53
547.49	1773.54
547.68	1675.24
547.88	1685.48
548.08	1794.02
548.27	2170.85
548.47	1708.01
548.67	1736.68
548.87	1728.49
549.06	1728.49
549.26	1685.48
549.46	1763.30
549.65	1689.57
549.85	1830.88
550.05	1697.77
550.24	1689.57
550.44	1822.69
550.64	1691.62
550.83	1734.63
551.03	1841.12
551.23	1732.58
551.42	1757.16
551.62	1658.85
551.82	1695.72
552.01	1736.68
552.21	1806.31
552.41	1687.53
552.60	1785.83
552.80	1800.16
553.00	1708.01
553.19	1806.31
553.39	1806.31
553.59	1738.73
553.78	1814.50
553.98	1691.62
554.17	1689.57
554.37	1748.97
554.57	1814.50
554.76	1646.57
554.96	1708.01
555.16	1775.59
555.35	1660.90
555.55	1779.68
555.75	1781.73
555.94	1796.07
556.14	1636.33
556.33	1757.16
556.53	1767.40
556.73	1718.25
556.92	1837.03
557.12	1820.64
557.32	1820.64
557.51	1755.11
557.71	1828.84
557.90	1804.26
558.10	1853.41
558.30	1718.25
558.49	1675.24
558.69	1726.44
558.88	1769.44
559.08	1834.98
559.28	1773.54
559.47	1712.10
559.67	1746.92
559.86	1775.59
560.06	1685.48
560.26	1714.15
560.45	1701.86
560.65	1757.16
560.84	1875.94
561.04	1779.68
561.24	1757.16
561.43	1710.05
561.63	1820.64
561.82	1724.39
562.02	1779.68
562.22	1683.43
562.41	1638.38
562.61	1728.49
562.80	1693.67
563.00	1886.18
563.19	1771.49
563.39	1708.01
563.59	1757.16
563.78	1619.94
563.98	1638.38
564.17	1763.30
564.37	1638.38
564.56	1697.77
564.76	1621.99
564.96	1814.50
565.15	1673.19
565.35	1800.16
565.54	1628.14
565.74	1720.29
565.93	1740.77
566.13	1740.77
566.32	1708.01
566.52	1748.97
566.71	1675.24
566.91	1785.83
567.11	1665.00
567.30	1681.38
567.50	1695.72
567.69	1779.68
567.89	1724.39
568.08	1695.72
568.28	1736.68
568.47	1669.09
568.67	1794.02
568.86	1740.77
569.06	1796.07
569.25	1689.57
569.45	1632.23
569.64	1761.25
569.84	1697.77
570.04	1722.34
570.23	1710.05
570.43	1734.63
570.62	1726.44
570.82	1859.56
571.01	1660.90
571.21	1693.67
571.40	1693.67
571.60	1693.67
571.79	1804.26
571.99	1755.11
572.18	1705.96
572.38	1738.73
572.57	1660.90
572.77	1699.81
572.96	1785.83
573.16	1742.82
573.35	1644.52
573.55	1832.93
573.74	1746.92
573.94	1714.15
574.13	1705.96
574.33	1748.97
574.52	1875.94
574.71	1734.63
574.91	1703.91
575.10	1599.46
575.30	1738.73
575.49	1716.20
575.69	1658.85
575.88	1816.55
576.08	1697.77
576.27	1789.92
576.47	1744.87
576.66	1880.04
576.86	1789.92
577.05	1783.78
577.25	1791.97
577.44	1890.28
577.64	1665.00
577.83	1839.08
578.02	1781.73
578.22	1775.59
578.41	1853.41
578.61	1712.10
578.80	1701.86
579.00	1720.29
579.19	1744.87
579.39	1751.01
579.58	1800.16
579.77	1699.81
579.97	1875.94
580.16	1892.32
580.36	1871.84
580.55	1861.60
580.75	1800.16
580.94	1769.44
581.13	1867.75
581.33	1847.27
581.52	1703.91
581.72	1783.78
581.91	1761.25
582.11	1759.21
582.30	1787.88
582.49	1730.53
582.69	1839.08
582.88	1738.73
583.08	1791.97
583.27	1763.30
583.47	1734.63
583.66	1751.01
583.85	1740.77
584.05	1746.92
584.24	1816.55
584.44	1791.97
584.63	1853.41
584.82	1726.44
585.02	1843.17
585.21	1826.79
585.41	1820.64
585.60	1900.52
585.79	1953.76
585.99	1914.85
586.18	1886.18
586.37	2189.28
586.57	3332.05
586.76	9998.18
586.96	24929.92
587.15	34508.27
587.34	41166.22
587.54	42464.63
587.73	36832.72
587.93	26646.12
588.12	21503.67
588.31	18622.18
588.51	16426.76
588.70	15234.84
588.89	14098.22
589.09	12867.39
589.28	10950.49
589.47	9594.73
589.67	8155.01
589.86	6530.97
590.06	4849.59
590.25	3882.95
590.44	3106.77
590.64	2547.67
590.83	2226.14
591.02	2000.87
591.22	1949.67
591.41	1937.38
591.60	1828.84
591.80	1939.43
591.99	1712.10
592.18	1769.44
592.38	1810.40
592.57	1767.40
592.76	1818.60
592.96	1767.40
593.15	1705.96
593.34	1814.50
593.54	1656.81
593.73	1785.83
593.92	1824.74
594.12	1734.63
594.31	1748.97
594.50	1886.18
594.70	1763.30
594.89	1824.74
595.08	1689.57
595.28	1697.77
595.47	1949.67
595.66	1775.59
595.86	1689.57
596.05	1732.58
596.24	1671.14
596.43	1798.12
596.63	1816.55
596.82	1779.68
597.01	1736.68
597.21	1806.31
597.40	1728.49
597.59	1671.14
597.79	1734.63
597.98	1710.05
598.17	1757.16
598.36	1699.81
598.56	1716.20
598.75	1767.40
598.94	1736.68
599.14	1681.38
599.33	1701.86
599.52	1763.30
599.71	1722.34
599.91	1779.68
600.10	1724.39
600.29	1755.11
600.48	1753.06
600.68	1767.40
600.87	1755.11
601.06	1656.81
601.26	1763.30
601.45	1773.54
601.64	1732.58
601.83	1830.88
602.03	1705.96
602.22	1646.57
602.41	1777.64
602.60	1877.99
602.80	1810.40
602.99	1744.87
603.18	1699.81
603.37	1705.96
603.57	1697.77
603.76	1726.44
603.95	1714.15
604.14	1724.39
604.34	1636.33
604.53	1800.16
604.72	1783.78
604.91	1785.83
605.10	1726.44
605.30	1691.62
605.49	1857.51
605.68	1834.98
605.87	1718.25
606.07	1669.09
606.26	1734.63
606.45	1710.05
606.64	1751.01
606.84	1695.72
607.03	1744.87
607.22	1734.63
607.41	1648.61
607.60	1751.01
607.80	1857.51
607.99	1675.24
608.18	1746.92
608.37	1730.53
608.56	1699.81
608.76	1742.82
608.95	1746.92
609.14	1769.44
609.33	1779.68
609.52	1820.64
609.72	1726.44
609.91	1791.97
610.10	1783.78
610.29	1794.02
610.48	1834.98
610.68	1785.83
610.87	1685.48
611.06	1796.07
611.25	1689.57
611.44	1796.07
611.63	1781.73
611.83	1861.60
612.02	1687.53
612.21	1789.92
612.40	1619.94
612.59	1648.61
612.79	1593.32
612.98	1658.85
613.17	1818.60
613.36	1656.81
613.55	1894.37
613.74	1683.43
613.93	1685.48
614.13	1712.10
614.32	1837.03
614.51	1728.49
614.70	1724.39
614.89	1710.05
615.08	1724.39
615.28	2058.21
615.47	1656.81
615.66	1740.77
615.85	1685.48
616.04	1787.88
616.23	1761.25
616.42	1734.63
616.62	1722.34
616.81	1761.25
617.00	1785.83
617.19	1824.74
617.38	1744.87
617.57	1796.07
617.76	1742.82
617.95	1779.68
618.15	1675.24
618.34	1798.12
618.53	1646.57
618.72	1798.12
618.91	1714.15
619.10	1826.79
619.29	1738.73
619.48	1769.44
619.68	1742.82
619.87	1669.09
620.06	1669.09
620.25	1740.77
620.44	1656.81
620.63	1746.92
620.82	1732.58
621.01	1769.44
621.20	1658.85
621.39	1693.67
621.59	1722.34
621.78	1740.77
621.97	1748.97
622.16	1849.32
622.35	1734.63
622.54	1732.58
622.73	1722.34
622.92	1695.72
623.11	1710.05
623.30	1753.06
623.49	1787.88
623.68	1669.09
623.88	1822.69
624.07	1728.49
624.26	1687.53
624.45	1753.06
624.64	1695.72
624.83	1681.38
625.02	1718.25
625.21	1740.77
625.40	1699.81
625.59	1810.40
625.78	1667.05
625.97	1771.49
626.16	1814.50
626.35	1787.88
626.54	1703.91
626.74	1738.73
626.93	1728.49
627.12	1746.92
627.31	1828.84
627.50	1734.63
627.69	1796.07
627.88	1685.48
628.07	1716.20
628.26	1640.42
628.45	1652.71
628.64	1722.34
628.83	1685.48
629.02	1646.57
629.21	1730.53
629.40	1742.82
629.59	1646.57
629.78	1648.61
629.97	1683.43
630.16	1722.34
630.35	1728.49
630.54	1675.24
630.73	1660.90
630.92	1705.96
631.11	1636.33
631.30	1779.68
631.49	1744.87
631.68	1632.23
631.87	1771.49
632.06	1650.66
632.25	1855.46
632.44	1714.15
632.63	1732.58
632.82	1667.05
633.01	1599.46
633.20	1708.01
633.39	1675.24
633.58	1646.57
633.77	1728.49
633.96	1777.64
634.15	1808.36
634.34	1767.40
634.53	1736.68
634.72	1701.86
634.91	1566.70
635.10	1712.10
635.29	1785.83
635.48	1710.05
635.67	1732.58
635.86	1669.09
636.05	1687.53
636.24	1697.77
636.43	1748.97
636.62	1703.91
636.81	1665.00
637.00	1738.73
637.19	1767.40
637.38	1730.53
637.57	1710.05
637.76	1722.34
637.95	1693.67
638.14	1675.24
638.33	1683.43
638.52	1642.47
638.71	1683.43
638.89	1617.90
639.08	1837.03
639.27	1783.78
639.46	1667.05
639.65	1779.68
639.84	1765.35
640.03	1855.46
640.22	1759.21
640.41	1820.64
640.60	1607.66
640.79	1644.52
640.98	1599.46
641.17	1736.68
641.36	1675.24
641.55	1759.21
641.74	1683.43
641.92	1660.90
642.11	1638.38
642.30	1632.23
642.49	1708.01
642.68	1689.57
642.87	1798.12
643.06	1740.77
643.25	1697.77
643.44	1673.19
643.63	1667.05
643.82	1720.29
644.00	1632.23
644.19	1726.44
644.38	1656.81
644.57	1730.53
644.76	1714.15
644.95	1710.05
645.14	1720.29
645.33	1728.49
645.52	1685.48
645.71	1566.70
645.89	1714.15
646.08	1687.53
646.27	1662.95
646.46	1816.55
646.65	1621.99
646.84	1716.20
647.03	1675.24
647.22	1732.58
647.40	1714.15
647.59	1703.91
647.78	1634.28
647.97	1640.42
648.16	1716.20
648.35	1691.62
648.54	1814.50
648.73	1658.85
648.91	1716.20
649.10	1697.77
649.29	1691.62
649.48	1648.61
649.67	1705.96
649.86	1738.73
650.05	1654.76
650.23	1732.58
650.42	1648.61
650.61	1705.96
650.80	1736.68
650.99	1865.70
651.18	1734.63
651.36	1716.20
651.55	1683.43
651.74	1734.63
651.93	1695.72
652.12	1705.96
652.31	1652.71
652.49	1681.38
652.68	1656.81
652.87	1673.19
653.06	1718.25
653.25	1732.58
653.44	1742.82
653.62	1693.67
653.81	1673.19
654.00	1665.00
654.19	1787.88
654.38	1910.75
654.56	1746.92
654.75	1697.77
654.94	1742.82
655.13	1751.01
655.32	1697.77
655.51	1757.16
655.69	1689.57
655.88	1748.97
656.07	1601.51
656.26	1765.35
656.45	1748.97
656.63	1665.00
656.82	1761.25
657.01	1746.92
657.20	1701.86
657.38	1802.21
657.57	1744.87
657.76	1617.90
657.95	1759.21
658.14	1660.90
658.32	1716.20
658.51	1656.81
658.70	1621.99
658.89	1773.54
659.08	1677.29
659.26	1738.73
659.45	1615.85
659.64	1763.30
659.83	1624.04
660.01	1855.46
660.20	1708.01
660.39	1837.03
660.58	1624.04
660.76	1763.30
660.95	1669.09
661.14	1685.48
661.33	1581.03
661.51	1710.05
661.70	1667.05
661.89	1771.49
662.08	1767.40
662.26	1673.19
662.45	1701.86
662.64	1869.80
662.83	1703.91
663.01	1687.53
663.20	1669.09
663.39	1800.16
663.58	1675.24
663.76	1720.29
663.95	1734.63
664.14	1615.85
664.32	1714.15
664.51	1671.14
664.70	1650.66
664.89	1714.15
665.07	1667.05
665.26	1714.15
665.45	1699.81
665.64	1834.98
665.82	1757.16
666.01	1763.30
666.20	1644.52
666.38	1789.92
666.57	1845.22
666.76	2144.22
666.95	4519.87
667.13	10319.71
667.32	15267.61
667.51	18112.24
667.69	19156.70
667.88	17602.29
668.07	12365.64
668.25	9764.72
668.44	8052.61
668.63	7403.41
668.81	6715.29
669.00	6178.72
669.19	5590.95
669.38	5140.40
669.56	4618.17
669.75	3944.39
669.94	3321.81
670.12	2824.15
670.31	2578.39
670.50	2289.63
670.68	2021.35
670.87	1861.60
671.06	1789.92
671.24	1832.93
671.43	1806.31
671.62	1814.50
671.80	1648.61
671.99	1673.19
672.18	1746.92
672.36	1685.48
672.55	1781.73
672.74	1671.14
672.92	1716.20
673.11	1765.35
673.29	1665.00
673.48	1818.60
673.67	1673.19
673.85	1798.12
674.04	1693.67
674.23	1671.14
674.41	1791.97
674.60	1599.46
674.79	1613.80
674.97	1710.05
675.16	1798.12
675.34	1699.81
675.53	1630.18
675.72	1708.01
675.90	1845.22
676.09	1636.33
676.28	1771.49
676.46	1648.61
676.65	1728.49
676.83	1634.28
677.02	1681.38
677.21	1724.39
677.39	1689.57
677.58	1595.37
677.77	1675.24
677.95	1720.29
678.14	1730.53
678.32	1767.40
678.51	1640.42
678.70	1828.84
678.88	1626.09
679.07	1695.72
679.25	1708.01
679.44	1677.29
679.63	1644.52
679.81	1689.57
680.00	1742.82
680.18	1763.30
680.37	1787.88
680.55	1724.39
680.74	1675.24
680.93	1615.85
681.11	1656.81
681.30	1716.20
681.48	1714.15
681.67	1613.80
681.85	1714.15
682.04	1581.03
682.23	1785.83
682.41	1683.43
682.60	1681.38
682.78	1759.21
682.97	1644.52
683.15	1765.35
683.34	1730.53
683.53	1820.64
683.71	1628.14
683.90	1837.03
684.08	1841.12
684.27	1775.59
684.45	1771.49
684.64	1767.40
684.82	1585.13
685.01	1662.95
685.19	1677.29
685.38	1867.75
685.57	1728.49
685.75	1685.48
685.94	1636.33
686.12	1669.09
686.31	1685.48
686.49	1800.16
686.68	1595.37
686.86	1685.48
687.05	1626.09
687.23	1746.92
687.42	1669.09
687.60	1638.38
687.79	1785.83
687.97	1826.79
688.16	1744.87
688.34	1724.39
688.53	1621.99
688.71	1757.16
688.90	1730.53
689.08	1658.85
689.27	1624.04
689.45	1816.55
689.64	1677.29
689.82	1720.29
690.01	1757.16
690.19	1785.83
690.38	1675.24
690.56	1667.05
690.75	1656.81
690.93	1660.90
691.12	1677.29
691.30	1689.57
691.49	1660.90
691.67	1683.43
691.86	1822.69
692.04	1587.18
692.23	1716.20
692.41	1683.43
692.60	1832.93
692.78	1771.49
692.97	1712.10
693.15	1761.25
693.34	1875.94
693.52	1701.86
693.71	1660.90
693.89	1681.38
694.08	1621.99
694.26	1781.73
694.44	1652.71
694.63	1677.29
694.81	1695.72
695.00	1714.15
695.18	1767.40
695.37	1888.23
695.55	1773.54
695.74	1624.04
695.92	1669.09
696.10	1734.63
696.29	1615.85
696.47	1738.73
696.66	1617.90
696.84	1667.05
697.03	1751.01
697.21	1806.31
697.40	2258.91
697.58	1755.11
697.76	1611.75
697.95	1697.77
698.13	1599.46
698.32	1685.48
698.50	1742.82
698.68	1748.97
698.87	1726.44
699.05	1812.45
699.24	1746.92
699.42	1712.10
699.61	1753.06
699.79	1689.57
699.97	1693.67
700.16	1615.85
700.34	1691.62
700.53	1732.58
700.71	1841.12
700.89	1730.53
701.08	1701.86
701.26	1726.44
701.45	2123.74
701.63	1673.19
701.81	1753.06
702.00	1525.74
702.18	1718.25
702.37	1673.19
702.55	1724.39
702.73	1730.53
702.92	1632.23
703.10	1742.82
703.28	1665.00
703.47	1624.04
703.65	1759.21
703.84	1744.87
704.02	1677.29
704.20	1787.88
704.39	1689.57
704.57	1677.29
704.75	1742.82
704.94	1751.01
705.12	1746.92
705.30	1765.35
705.49	2191.33
705.67	4577.21
705.86	9336.69
706.04	12691.26
706.22	14593.83
706.41	15521.56
706.59	13899.56
706.77	9693.04
706.96	7495.57
707.14	6760.34
707.32	5883.81
707.51	5707.69
707.69	4888.50
707.87	4313.02
708.06	3569.61
708.24	2969.55
708.42	2459.61
708.61	2285.53
708.79	1929.19
708.97	1834.98
709.16	1834.98
709.34	1708.01
709.52	1730.53
709.71	1665.00
709.89	1849.32
710.07	1669.09
710.26	1679.33
710.44	1763.30
710.62	1771.49
710.80	1697.77
710.99	1726.44
711.17	1763.30
711.35	1714.15
711.54	1695.72
711.72	1816.55
711.90	1753.06
712.09	1787.88
712.27	1675.24
712.45	1730.53
712.63	1679.33
712.82	1701.86
713.00	1787.88
713.18	1781.73
713.37	1746.92
713.55	1771.49
713.73	1697.77
713.91	1732.58
714.10	1669.09
714.28	1613.80
714.46	1689.57
714.65	1753.06
714.83	1763.30
715.01	1650.66
715.19	1705.96
715.38	1730.53
715.56	1708.01
715.74	1687.53
715.92	1578.98
716.11	1787.88
716.29	1589.22
716.47	1703.91
716.65	1699.81
716.84	1699.81
717.02	1796.07
717.20	1615.85
717.38	1679.33
717.57	1697.77
717.75	1718.25
717.93	1646.57
718.11	1708.01
718.30	1665.00
718.48	1708.01
718.66	1855.46
718.84	1779.68
719.03	1693.67
719.21	1642.47
719.39	1789.92
719.57	1699.81
719.75	1771.49
719.94	1591.27
720.12	1685.48
720.30	1677.29
720.48	1761.25
720.67	1632.23
720.85	1632.23
721.03	1701.86
721.21	1665.00
721.39	1699.81
721.58	1783.78
721.76	1640.42
721.94	1675.24
722.12	1705.96
722.30	1714.15
722.49	1665.00
722.67	1646.57
722.85	1755.11
723.03	1615.85
723.21	1710.05
723.40	1703.91
723.58	1755.11
723.76	1722.34
723.94	1771.49
724.12	1697.77
724.30	1767.40
724.49	1771.49
724.67	1636.33
724.85	1757.16
725.03	1654.76
725.21	1787.88
725.40	1712.10
725.58	1685.48
725.76	1769.44
725.94	1716.20
726.12	1685.48
726.30	1748.97
726.49	1683.43
726.67	1695.72
726.85	1746.92
727.03	1785.83
727.21	2095.07
727.39	2867.16
727.57	3885.00
727.76	4298.69
727.94	4378.56
728.12	4458.43
728.30	3626.95
728.48	3026.90
728.66	2764.76
728.84	2502.62
729.03	2344.92
729.21	2193.37
729.39	1943.52
729.57	1873.89
729.75	1736.68
729.93	1826.79
730.11	1730.53
730.30	1693.67
730.48	1777.64
730.66	1800.16
730.84	1695.72
731.02	1761.25
731.20	1683.43
731.38	1638.38
731.56	1656.81
731.74	1665.00
731.93	1757.16
732.11	1697.77
732.29	1636.33
732.47	1679.33
732.65	1710.05
732.83	1816.55
733.01	1712.10
733.19	1624.04
733.37	1740.77
733.56	1748.97
733.74	1726.44
733.92	1728.49
734.10	1708.01
734.28	1757.16
734.46	1650.66
734.64	1675.24
734.82	1708.01
735.00	1751.01
735.18	1693.67
735.36	1703.91
735.54	1742.82
735.73	1685.48
735.91	1677.29
736.09	1771.49
736.27	1726.44
736.45	1761.25
736.63	1628.14
736.81	1714.15
736.99	1716.20
737.17	1794.02
737.35	1601.51
737.53	1644.52
737.71	1648.61
737.89	1726.44
738.07	1650.66
738.25	1626.09
738.43	1617.90
738.61	1644.52
738.80	1597.42
738.98	1699.81
739.16	1695.72
739.34	1769.44
739.52	1726.44
739.70	1710.05
739.88	1759.21
740.06	1759.21
740.24	1599.46
740.42	1728.49
740.60	1630.18
740.78	1648.61
740.96	1634.28
741.14	1695.72
741.32	1724.39
741.50	1710.05
741.68	1783.78
741.86	1761.25
742.04	1665.00
742.22	1665.00
742.40	1740.77
742.58	1693.67
742.76	1714.15
742.94	1794.02
743.12	1599.46
743.30	1720.29
743.48	1697.77
743.66	1714.15
743.84	1732.58
744.02	1648.61
744.20	1691.62
744.38	1689.57
744.56	1619.94
744.74	1820.64
744.92	1738.73
745.10	1843.17
745.28	1767.40
745.46	1753.06
745.64	1732.58
745.82	1763.30
746.00	1732.58
746.18	1814.50
746.36	1705.96
746.54	1716.20
746.72	1744.87
746.90	1691.62
747.08	1832.93
747.26	1675.24
747.44	1716.20
747.62	1716.20
747.80	1740.77
747.98	1757.16
748.15	1681.38
748.33	1814.50
748.51	1677.29
748.69	1675.24
748.87	1660.90
749.05	1759.21
749.23	1701.86
749.41	1712.10
749.59	1611.75
749.77	1808.36
749.95	1626.09
750.13	1634.28
750.31	1736.68
750.49	1660.90
750.67	1755.11
750.85	1755.11
751.03	1796.07
751.20	1859.56
751.38	1703.91
751.56	1570.79
751.74	1734.63
751.92	1665.00
752.10	1617.90
752.28	1796.07
752.46	1722.34
752.64	1703.91
752.82	1683.43
753.00	1843.17
753.18	1638.38
753.35	1660.90
753.53	1671.14
753.71	1675.24
753.89	1730.53
754.07	1746.92
754.25	1722.34
754.43	1673.19
754.61	1615.85
754.79	1697.77
754.97	1718.25
755.14	1751.01
755.32	1722.34
755.50	1619.94
755.68	1673.19
755.86	1699.81
756.04	1732.58
756.22	1544.17
756.40	1751.01
756.57	1789.92
756.75	1726.44
756.93	1806.31
757.11	1665.00
757.29	1658.85
757.47	1701.86
757.65	1599.46
757.82	1609.70
758.00	1665.00
758.18	1705.96
758.36	1648.61
758.54	1814.50
758.72	1568.74
758.90	1777.64
759.07	1671.14
759.25	1585.13
759.43	1740.77
759.61	1515.50
759.79	2185.18
759.97	1697.77
760.15	1718.25
760.32	1660.90
760.50	1740.77
760.68	1724.39
760.86	1660.90
761.04	1796.07
761.22	1767.40
761.39	1751.01
761.57	1632.23
761.75	1656.81
761.93	1753.06
762.11	1673.19
762.28	1679.33
762.46	1617.90
762.64	1781.73
762.82	1615.85
763.00	1736.68
763.18	1718.25
763.35	1677.29
763.53	1759.21
763.71	1683.43
763.89	1660.90
764.07	1673.19
764.24	1683.43
764.42	1718.25
764.60	1771.49
764.78	1712.10
764.96	1775.59
765.13	1834.98
765.31	1693.67
765.49	1724.39
765.67	1705.96
765.84	1662.95
766.02	1689.57
766.20	1576.94
766.38	1720.29
766.56	1761.25
766.73	1753.06
766.91	1726.44
767.09	1736.68
767.27	1722.34
767.44	1744.87
767.62	1691.62
767.80	1734.63
767.98	1689.57
768.15	1689.57
768.33	1716.20
768.51	1791.97
768.69	1730.53
768.87	1722.34
769.04	1687.53
769.22	1912.80
769.40	1820.64
769.58	1767.40
769.75	1652.71
769.93	1748.97
770.11	1765.35
770.28	1660.90
770.46	1708.01
770.64	1697.77
770.82	1677.29
770.99	1722.34
771.17	1675.24
771.35	1613.80
771.53	1689.57
771.70	1691.62
771.88	1802.21
772.06	1710.05
772.23	1775.59
772.41	1796.07
772.59	1652.71
772.77	1685.48
772.94	1652.71
773.12	1685.48
773.30	1640.42
773.47	1759.21
773.65	1734.63
773.83	1802.21
774.01	1636.33
774.18	1603.56
774.36	1718.25
774.54	1652.71
774.71	1779.68
774.89	1599.46
775.07	1679.33
775.24	1609.70
775.42	1726.44
775.60	1763.30
775.78	1632.23
775.95	1619.94
776.13	1548.26
776.31	1609.70
776.48	1734.63
776.66	1724.39
776.84	1599.46
777.01	1591.27
777.19	1681.38
777.37	1689.57
777.54	1759.21
777.72	1785.83
777.90	1701.86
778.07	1695.72
778.25	1824.74
778.43	1691.62
778.60	1632.23
778.78	1830.88
778.96	1779.68
779.13	1607.66
779.31	1708.01
779.49	1691.62
779.66	1701.86
779.84	1671.14
780.01	1691.62
780.19	1636.33
780.37	1736.68
780.54	1755.11
780.72	1644.52
780.90	1681.38
781.07	1681.38
781.25	1681.38
781.43	1755.11
781.60	1689.57
781.78	1669.09
781.95	1648.61
782.13	1636.33
782.31	1701.86
782.48	1581.03
782.66	1642.47
782.83	1714.15
783.01	1751.01
783.19	1705.96
783.36	1714.15
783.54	1720.29
783.72	1708.01
783.89	1724.39
784.07	1681.38
784.24	1748.97
784.42	1789.92
784.60	1691.62
784.77	1654.76
784.95	1572.84
785.12	1617.90
785.30	1675.24
785.47	1705.96
785.65	1701.86
785.83	1738.73
786.00	1683.43
786.18	1689.57
786.35	1607.66
786.53	1656.81
786.71	1781.73
786.88	1744.87
787.06	1658.85
787.23	1675.24
787.41	1650.66
787.58	1652.71
787.76	1701.86
787.94	1728.49
788.11	1708.01
788.29	1710.05
788.46	1619.94
788.64	1619.94
788.81	1693.67
788.99	1695.72
789.16	1660.90
789.34	1720.29
789.52	1681.38
789.69	1667.05
789.87	1587.18
790.04	1660.90
790.22	1771.49
790.39	1841.12
790.57	1636.33
790.74	1724.39
790.92	1693.67
791.09	1632.23
791.27	1665.00
791.44	1767.40
791.62	1611.75
791.79	1773.54
791.97	1720.29
792.15	1851.36
792.32	1685.48
792.50	1720.29
792.67	1851.36
792.85	1802.21
793.02	1695.72
793.20	1656.81
793.37	1546.22
793.55	1683.43
793.72	1681.38
793.90	1705.96
794.07	1658.85
794.25	1644.52
794.42	1701.86
794.60	1699.81
794.77	1644.52
794.95	1726.44
795.12	1843.17
795.30	1642.47
795.47	1648.61
795.65	1863.65
795.82	1726.44
796.00	1556.46
796.17	1695.72
796.34	1630.18
796.52	1738.73
796.69	1779.68
796.87	1734.63
797.04	1705.96
797.22	1773.54
797.39	1673.19
797.57	1714.15
797.74	1640.42
797.92	1732.58
798.09	1687.53
798.27	1701.86
798.44	1748.97
798.62	1695.72
798.79	1697.77
798.96	1708.01
799.14	1779.68
799.31	1910.75
799.49	1662.95
799.66	1669.09
799.84	1708.01
800.01	1634.28
800.19	1693.67
800.36	1679.33
800.53	1710.05
800.71	1718.25
800.88	1828.84
801.06	1644.52
801.23	1632.23
801.41	1642.47
801.58	1673.19
801.75	1689.57
801.93	1701.86
802.10	1671.14
802.28	1693.67
802.45	1640.42
802.63	1689.57
802.80	1820.64
802.97	1632.23
803.15	1769.44
803.32	1679.33
803.50	1738.73
803.67	1669.09
803.84	1640.42
804.02	1673.19
804.19	1673.19
804.37	1626.09
804.54	1648.61
804.71	1685.48
804.89	1675.24
805.06	1654.76
805.24	1656.81
805.41	1628.14
805.58	1603.56
805.76	1837.03
805.93	1730.53
806.10	1816.55
806.28	1744.87
806.45	1697.77
806.63	1671.14
806.80	1710.05
806.97	1728.49
807.15	1759.21
807.32	1689.57
807.49	1654.76
807.67	1605.61
807.84	1681.38
808.01	1638.38
808.19	1789.92
808.36	1818.60
808.54	1722.34
808.71	1648.61
808.88	1689.57
809.06	1712.10
809.23	1796.07
809.40	1716.20
809.58	1814.50
809.75	1675.24
809.92	1576.94
810.10	1824.74
810.27	1603.56
810.44	1693.67
810.62	1722.34
810.79	1714.15
810.96	1808.36
811.14	1619.94
811.31	1685.48
811.48	1746.92
811.66	1720.29
811.83	1773.54
812.00	1705.96
812.18	1744.87
812.35	1837.03
812.52	1685.48
812.69	1652.71
812.87	1671.14
813.04	1716.20
813.21	1640.42
813.39	1665.00
813.56	1685.48
813.73	1787.88
813.91	1632.23
814.08	1714.15
814.25	1714.15
814.42	1642.47
814.60	1746.92
814.77	1650.66
814.94	1701.86
815.12	1658.85
815.29	1787.88
815.46	1673.19
815.63	1734.63
815.81	1705.96
815.98	1730.53
816.15	1650.66
816.33	1705.96
816.50	1677.29
816.67	1675.24
816.84	1710.05
817.02	1640.42
817.19	1703.91
817.36	1689.57
817.53	1665.00
817.71	1671.14
817.88	1798.12
818.05	1695.72
818.22	1681.38
818.40	1734.63
818.57	1632.23
818.74	1767.40
818.91	1708.01
819.09	1695.72
819.26	1765.35
819.43	1679.33
819.60	1701.86
819.78	1679.33
819.95	1742.82
820.12	1662.95
820.29	1783.78
820.47	1802.21
820.64	1642.47
820.81	1699.81
820.98	1665.00
821.15	1621.99
821.33	1759.21
821.50	1652.71
821.67	1714.15
821.84	1650.66
822.02	1726.44
822.19	1742.82
822.36	1636.33
822.53	1679.33
822.70	1673.19
822.88	1681.38
823.05	1746.92
823.22	1644.52
823.39	1710.05
823.56	1677.29
823.74	1812.45
823.91	1753.06
824.08	1607.66
824.25	1683.43
824.42	1798.12
824.60	1667.05
824.77	1785.83
824.94	1726.44
825.11	1716.20
825.28	1673.19
825.45	1708.01
825.63	1624.04
825.80	1689.57
825.97	1773.54
826.14	1701.86
826.31	1587.18
826.48	1701.86
826.66	1685.48
826.83	1675.24
827.00	1710.05
827.17	1644.52
827.34	1662.95
827.51	1630.18
827.69	1648.61
827.86	1671.14
828.03	1638.38
828.20	1699.81
828.37	1632.23
828.54	1738.73
828.71	1658.85
828.89	1826.79
829.06	1685.48
829.23	1730.53
829.40	1609.70
829.57	1699.81
829.74	1734.63
829.91	1681.38
830.09	1636.33
830.26	1724.39
830.43	1828.84
830.60	1677.29
830.77	1714.15
830.94	1763.30
831.11	1732.58
831.28	1648.61
831.46	1736.68
831.63	1673.19
831.80	1755.11
831.97	1617.90
832.14	1705.96
832.31	1685.48
832.48	1675.24
832.65	1802.21
832.82	1763.30
832.99	1662.95
833.17	1712.10
833.34	1785.83
833.51	1720.29
833.68	1533.93
833.85	1751.01
834.02	1685.48
834.19	1589.22
834.36	1611.75
834.53	1693.67
834.70	1744.87
834.87	1705.96
835.04	1722.34
835.22	1646.57
835.39	1621.99
835.56	1675.24
835.73	1656.81
835.90	1695.72
836.07	1679.33
836.24	1742.82
836.41	1615.85
836.58	1718.25
836.75	1746.92
836.92	1691.62
837.09	1673.19
837.26	1722.34
837.43	1705.96
837.60	1701.86
837.77	1712.10
837.94	1718.25
838.12	1669.09
838.29	1718.25
838.46	1587.18
838.63	1621.99
838.80	1714.15
838.97	1787.88
839.14	1685.48
839.31	1665.00
839.48	1724.39
839.65	1669.09
839.82	1791.97
839.99	1712.10
840.16	1722.34
840.33	1613.80
840.50	1746.92
840.67	1658.85
840.84	1597.42
841.01	1722.34
841.18	1597.42
841.35	1742.82
841.52	1736.68
841.69	1841.12
841.86	1699.81
842.03	1718.25
842.20	1802.21
842.37	1667.05
842.54	1669.09
842.71	1665.00
842.88	1574.89
843.05	1728.49
843.22	1714.15
843.39	1705.96
843.56	1710.05
843.73	1695.72
843.90	1705.96
844.07	1744.87
844.24	1691.62
844.41	1695.72
844.58	1665.00
844.75	1683.43
844.92	1722.34
845.09	1681.38
845.26	1634.28
845.43	1791.97
845.60	1701.86
845.77	1804.26
845.94	1671.14
846.10	1728.49
846.27	1699.81
846.44	1789.92
846.61	1675.24
846.78	1718.25
846.95	1740.77
847.12	1669.09
847.29	1781.73
847.46	1652.71
847.63	1759.21
847.80	1681.38
847.97	1632.23
848.14	1791.97
848.31	1675.24
848.48	1687.53
848.65	1708.01
848.82	1681.38
848.98	1847.27
849.15	1697.77
849.32	1746.92
849.49	1773.54
849.66	1669.09
849.83	1701.86
850.00	1554.41
850.17	1681.38
850.34	1759.21
850.51	1701.86
850.68	1685.48
850.85	1789.92
851.01	1746.92
851.18	1734.63
851.35	1646.57
851.52	1665.00
851.69	1759.21
851.86	1581.03
852.03	1640.42
852.20	1734.63
852.37	1697.77
852.53	1636.33
852.70	1683.43
852.87	1763.30
853.04	1759.21
853.21	1720.29
853.38	1689.57
853.55	1654.76
853.72	1658.85
853.89	1644.52
854.05	1665.00
854.22	1703.91
854.39	1648.61
854.56	1736.68
854.73	1724.39
854.90	1652.71
855.07	1716.20
855.23	1697.77
855.40	1697.77
855.57	1689.57
855.74	1607.66
855.91	1834.98
856.08	1597.42
856.25	1632.23
856.41	1658.85
856.58	1630.18
856.75	1648.61
856.92	1642.47
857.09	1736.68
857.26	1589.22
857.42	1796.07
857.59	1751.01
857.76	1744.87
857.93	1710.05
858.10	1656.81
858.27	1687.53
858.43	1677.29
858.60	1607.66
858.77	1640.42
858.94	1705.96
859.11	1724.39
859.27	1724.39
859.44	1685.48
859.61	1828.84
859.78	1720.29
859.95	1648.61
860.12	1658.85
860.28	1740.77
860.45	1867.75
860.62	1677.29
860.79	1689.57
860.95	1671.14
861.12	1634.28
861.29	1589.22
861.46	1710.05
861.63	1665.00
861.79	1705.96
861.96	1656.81
862.13	1685.48
862.30	1771.49
862.47	1638.38
862.63	1701.86
862.80	1681.38
862.97	1705.96
863.14	1724.39
863.30	1730.53
863.47	1642.47
863.64	1826.79
863.81	1638.38
863.97	1693.67
864.14	1806.31
864.31	1693.67
864.48	1746.92
864.65	1656.81
864.81	1714.15
864.98	1691.62
865.15	1789.92
865.32	1783.78
865.48	1781.73
865.65	1806.31
865.82	1693.67
865.98	1781.73
866.15	1767.40
866.32	1744.87
866.49	1675.24
866.65	1722.34
866.82	1630.18
866.99	1728.49
867.16	1652.71
867.32	1705.96
867.49	1677.29
867.66	1652.71
867.83	1652.71
867.99	1603.56
868.16	1712.10
868.33	1576.94
868.49	1628.14
868.66	1708.01
868.83	1656.81
868.99	1660.90
869.16	1697.77
869.33	1787.88
869.50	1767.40
869.66	1708.01
869.83	1693.67
870.00	1605.61
870.16	1667.05
870.33	1667.05
870.50	1691.62
870.66	1730.53
870.83	1896.42
871.00	1628.14
871.17	1697.77
871.33	1728.49
871.50	1658.85
871.67	1632.23
871.83	1638.38
872.00	1779.68
872.17	1652.71
872.33	1744.87
872.50	1769.44
872.67	1611.75
872.83	1705.96
873.00	1708.01
873.17	1693.67
873.33	1744.87
873.50	1734.63
873.67	1730.53
873.83	1640.42
874.00	1716.20
874.16	1783.78
874.33	1626.09
874.50	1624.04
874.66	1701.86
874.83	1687.53
875.00	1824.74
875.16	1730.53
875.33	1791.97
875.50	1605.61
875.66	1679.33
875.83	1597.42
875.99	1753.06
876.16	1755.11
876.33	1685.48
876.49	1673.19
876.66	1683.43
876.83	1701.86
876.99	1640.42
877.16	1677.29
877.32	1712.10
877.49	1613.80
877.66	1718.25
877.82	1742.82
877.99	1742.82
878.15	1724.39
878.32	1701.86
878.49	1658.85
878.65	1665.00
878.82	1736.68
878.98	1712.10
879.15	1794.02
879.32	1701.86
879.48	1667.05
879.65	1662.95
879.81	1648.61
879.98	1646.57
880.15	1611.75
880.31	1781.73
880.48	1638.38
880.64	1810.40
880.81	1677.29
880.97	1783.78
881.14	1759.21
881.31	1673.19
881.47	1888.23
881.64	1673.19
881.80	1624.04
881.97	1662.95
882.13	1685.48
882.30	1636.33
882.47	1736.68
882.63	1667.05
882.80	1624.04
882.96	1662.95
883.13	1773.54
883.29	1595.37
883.46	1714.15
883.62	1785.83
883.79	1761.25
883.95	1730.53
884.12	1705.96
884.29	1763.30
884.45	1740.77
884.62	1736.68
884.78	1585.13
884.95	1808.36
885.11	1605.61
885.28	1837.03
885.44	1701.86
885.61	1675.24
885.77	1757.16
885.94	1759.21
886.10	1759.21
886.27	1689.57
886.43	1748.97
886.60	1724.39
886.76	1722.34
886.93	1669.09
887.09	1744.87
887.26	1605.61
887.42	1665.00
887.59	1769.44
887.75	1837.03
887.92	1740.77
888.08	1800.16
888.25	1828.84
888.41	1734.63
888.58	1705.96
888.74	1658.85
888.91	1699.81
>>>>>End Processed Spectral Data<<<<<
