SpectraSuite Data File
++++++++++++++++++++++++++++++++++++
Date: Mon Jun 06 15:29:37 CEST 2016
User: root
Dark Spectrum Present: No
Reference Spectrum Present: No
Number of Sampled Component Spectra: 1
Spectrometers: USB4C02835
Integration Time (usec): 100000 (USB4C02835)
Spectra Averaged: 1 (USB4C02835)
Boxcar Smoothing: 0 (USB4C02835)
Correct for Electrical Dark: No (USB4C02835)
Strobe/Lamp Enabled: No (USB4C02835)
Correct for Detector Non-linearity: No (USB4C02835)
Correct for Stray Light: No (USB4C02835)
Number of Pixels in Processed Spectrum: 3648
>>>>>Begin Processed Spectral Data<<<<<
177.47	1433.58
177.69	1433.58
177.91	1433.58
178.13	1452.01
178.36	1431.53
178.58	1734.63
178.80	1699.81
179.02	1671.14
179.24	1568.74
179.46	1683.43
179.68	1849.32
179.90	1728.49
180.13	1705.96
180.35	1724.39
180.57	1779.68
180.79	1744.87
181.01	1615.85
181.23	1740.77
181.45	1744.87
181.67	1734.63
181.90	1800.16
182.12	1734.63
182.34	1607.66
182.56	1742.82
182.78	1695.72
183.00	1650.66
183.22	1771.49
183.44	1578.98
183.66	1865.70
183.89	1791.97
184.11	1732.58
184.33	1800.16
184.55	1744.87
184.77	1742.82
184.99	1667.05
185.21	1632.23
185.43	1863.65
185.65	1703.91
185.87	1746.92
186.10	1812.45
186.32	1791.97
186.54	1669.09
186.76	1839.08
186.98	1753.06
187.20	1751.01
187.42	1705.96
187.64	1687.53
187.86	1703.91
188.08	1757.16
188.30	1740.77
188.52	1701.86
188.75	1796.07
188.97	1773.54
189.19	1738.73
189.41	1738.73
189.63	1794.02
189.85	1619.94
190.07	1722.34
190.29	1634.28
190.51	1761.25
190.73	1650.66
190.95	1732.58
191.17	1734.63
191.39	1562.60
191.61	1677.29
191.84	1619.94
192.06	1759.21
192.28	1660.90
192.50	1863.65
192.72	1726.44
192.94	1718.25
193.16	1785.83
193.38	1697.77
193.60	1636.33
193.82	1669.09
194.04	1812.45
194.26	1675.24
194.48	1685.48
194.70	1615.85
194.92	1636.33
195.14	1703.91
195.36	1759.21
195.58	1714.15
195.80	1732.58
196.02	1650.66
196.24	1738.73
196.46	1732.58
196.69	1683.43
196.91	1787.88
197.13	1648.61
197.35	1695.72
197.57	1736.68
197.79	1740.77
198.01	1761.25
198.23	1730.53
198.45	1753.06
198.67	1638.38
198.89	1685.48
199.11	1720.29
199.33	1660.90
199.55	1603.56
199.77	1726.44
199.99	1734.63
200.21	1697.77
200.43	1716.20
200.65	1626.09
200.87	1583.08
201.09	1781.73
201.31	1687.53
201.53	1765.35
201.75	1771.49
201.97	1691.62
202.19	1708.01
202.41	1787.88
202.63	1783.78
202.85	1728.49
203.07	1742.82
203.29	1658.85
203.51	1589.22
203.73	1576.94
203.95	1931.23
204.17	1726.44
204.39	1720.29
204.61	1712.10
204.83	1689.57
205.05	1701.86
205.27	1722.34
205.49	1871.84
205.71	1714.15
205.93	1628.14
206.15	1595.37
206.37	1751.01
206.59	1748.97
206.81	1601.51
207.03	1667.05
207.25	1675.24
207.47	1759.21
207.69	1667.05
207.91	1744.87
208.13	1853.41
208.34	1697.77
208.56	1724.39
208.78	1722.34
209.00	1669.09
209.22	1660.90
209.44	1716.20
209.66	1740.77
209.88	1814.50
210.10	1646.57
210.32	1746.92
210.54	1804.26
210.76	1624.04
210.98	1812.45
211.20	1605.61
211.42	1693.67
211.64	1753.06
211.86	1738.73
212.08	1742.82
212.30	1732.58
212.52	1720.29
212.74	1761.25
212.96	1730.53
213.17	1748.97
213.39	1714.15
213.61	1824.74
213.83	1822.69
214.05	1617.90
214.27	1761.25
214.49	1615.85
214.71	1751.01
214.93	1820.64
215.15	1724.39
215.37	1726.44
215.59	1583.08
215.81	1738.73
216.03	1779.68
216.24	1742.82
216.46	1740.77
216.68	1759.21
216.90	1796.07
217.12	1783.78
217.34	1703.91
217.56	1734.63
217.78	1759.21
218.00	1765.35
218.22	1701.86
218.44	1771.49
218.66	1751.01
218.87	1787.88
219.09	1699.81
219.31	1714.15
219.53	1687.53
219.75	1726.44
219.97	1746.92
220.19	1757.16
220.41	1642.47
220.63	1769.44
220.85	1773.54
221.06	1634.28
221.28	1777.64
221.50	1761.25
221.72	1675.24
221.94	1734.63
222.16	1675.24
222.38	1748.97
222.60	1755.11
222.82	1665.00
223.03	1769.44
223.25	1665.00
223.47	1724.39
223.69	1837.03
223.91	1787.88
224.13	1738.73
224.35	1673.19
224.57	1744.87
224.78	1773.54
225.00	1685.48
225.22	1759.21
225.44	1671.14
225.66	1748.97
225.88	1658.85
226.10	1755.11
226.32	1746.92
226.53	1802.21
226.75	1679.33
226.97	1636.33
227.19	1724.39
227.41	1667.05
227.63	1669.09
227.85	1701.86
228.06	1609.70
228.28	1742.82
228.50	1779.68
228.72	1720.29
228.94	1746.92
229.16	1609.70
229.37	1722.34
229.59	1703.91
229.81	1753.06
230.03	1708.01
230.25	1638.38
230.47	1708.01
230.69	1689.57
230.90	1716.20
231.12	1681.38
231.34	1693.67
231.56	1730.53
231.78	1726.44
232.00	1677.29
232.21	1652.71
232.43	1603.56
232.65	1576.94
232.87	1746.92
233.09	1673.19
233.30	1642.47
233.52	1697.77
233.74	1718.25
233.96	1714.15
234.18	1687.53
234.40	1677.29
234.61	1812.45
234.83	1716.20
235.05	1611.75
235.27	1837.03
235.49	1859.56
235.70	1736.68
235.92	1748.97
236.14	1701.86
236.36	1808.36
236.58	1644.52
236.79	1787.88
237.01	1626.09
237.23	1755.11
237.45	1779.68
237.67	1703.91
237.88	1730.53
238.10	1886.18
238.32	1705.96
238.54	1619.94
238.76	1683.43
238.97	1654.76
239.19	1699.81
239.41	1757.16
239.63	1769.44
239.85	1673.19
240.06	1736.68
240.28	1640.42
240.50	1771.49
240.72	1755.11
240.93	1705.96
241.15	1771.49
241.37	1703.91
241.59	1806.31
241.81	1722.34
242.02	1710.05
242.24	1695.72
242.46	1779.68
242.68	1716.20
242.89	1710.05
243.11	1787.88
243.33	1730.53
243.55	1626.09
243.76	1714.15
243.98	1646.57
244.20	1751.01
244.42	1796.07
244.64	1751.01
244.85	1691.62
245.07	1605.61
245.29	1683.43
245.51	1677.29
245.72	1730.53
245.94	1699.81
246.16	1648.61
246.38	1781.73
246.59	1726.44
246.81	1730.53
247.03	1714.15
247.24	1630.18
247.46	1755.11
247.68	1798.12
247.90	1742.82
248.11	1738.73
248.33	1691.62
248.55	1732.58
248.77	1742.82
248.98	1791.97
249.20	1845.22
249.42	1710.05
249.64	1732.58
249.85	1656.81
250.07	1681.38
250.29	1769.44
250.50	1718.25
250.72	1656.81
250.94	1697.77
251.16	1804.26
251.37	1767.40
251.59	1775.59
251.81	1777.64
252.02	1853.41
252.24	1691.62
252.46	1810.40
252.68	1675.24
252.89	1742.82
253.11	1656.81
253.33	1796.07
253.54	1736.68
253.76	1744.87
253.98	1685.48
254.20	1687.53
254.41	1589.22
254.63	1685.48
254.85	1585.13
255.06	1685.48
255.28	1660.90
255.50	1714.15
255.71	1595.37
255.93	1646.57
256.15	1701.86
256.36	1714.15
256.58	1599.46
256.80	1744.87
257.02	1679.33
257.23	1628.14
257.45	1753.06
257.67	1791.97
257.88	1591.27
258.10	1755.11
258.32	1746.92
258.53	1705.96
258.75	1751.01
258.97	1718.25
259.18	1689.57
259.40	1728.49
259.62	1751.01
259.83	1789.92
260.05	1828.84
260.27	1992.67
260.48	1791.97
260.70	1705.96
260.92	1732.58
261.13	1691.62
261.35	1648.61
261.57	1789.92
261.78	1587.18
262.00	1609.70
262.22	1658.85
262.43	1710.05
262.65	1751.01
262.86	1638.38
263.08	1841.12
263.30	1665.00
263.51	1609.70
263.73	1689.57
263.95	1802.21
264.16	1804.26
264.38	1755.11
264.60	1703.91
264.81	1677.29
265.03	1773.54
265.25	1800.16
265.46	1722.34
265.68	1755.11
265.89	1734.63
266.11	1644.52
266.33	1669.09
266.54	1791.97
266.76	1732.58
266.98	1775.59
267.19	1861.60
267.41	1736.68
267.62	1689.57
267.84	1626.09
268.06	1785.83
268.27	1705.96
268.49	1759.21
268.70	1732.58
268.92	1755.11
269.14	1681.38
269.35	1628.14
269.57	1734.63
269.79	1722.34
270.00	1736.68
270.22	1724.39
270.43	1757.16
270.65	1605.61
270.87	1730.53
271.08	1757.16
271.30	1751.01
271.51	1755.11
271.73	1712.10
271.95	1773.54
272.16	1701.86
272.38	1712.10
272.59	1648.61
272.81	1734.63
273.02	1771.49
273.24	1732.58
273.46	1740.77
273.67	1605.61
273.89	1638.38
274.10	1695.72
274.32	1734.63
274.54	1748.97
274.75	1757.16
274.97	1667.05
275.18	1734.63
275.40	1740.77
275.61	1648.61
275.83	1767.40
276.05	1665.00
276.26	1759.21
276.48	1775.59
276.69	1689.57
276.91	1669.09
277.12	1716.20
277.34	1781.73
277.55	1744.87
277.77	1732.58
277.99	1683.43
278.20	1644.52
278.42	1705.96
278.63	1669.09
278.85	1654.76
279.06	1626.09
279.28	1720.29
279.49	1769.44
279.71	1779.68
279.93	1726.44
280.14	1744.87
280.36	1660.90
280.57	1783.78
280.79	1742.82
281.00	1640.42
281.22	1703.91
281.43	1820.64
281.65	1679.33
281.86	1656.81
282.08	1662.95
282.29	1824.74
282.51	1656.81
282.73	1644.52
282.94	1626.09
283.16	1740.77
283.37	1828.84
283.59	1775.59
283.80	1685.48
284.02	1705.96
284.23	1718.25
284.45	1701.86
284.66	1697.77
284.88	1667.05
285.09	1640.42
285.31	1730.53
285.52	1798.12
285.74	1703.91
285.95	1763.30
286.17	1738.73
286.38	1802.21
286.60	1619.94
286.81	1693.67
287.03	1685.48
287.24	1726.44
287.46	1656.81
287.67	1734.63
287.89	1824.74
288.10	1763.30
288.32	1759.21
288.53	1800.16
288.75	1624.04
288.96	1724.39
289.18	1740.77
289.39	1695.72
289.61	1787.88
289.82	1849.32
290.04	1865.70
290.25	1638.38
290.47	1667.05
290.68	1757.16
290.90	1751.01
291.11	1570.79
291.33	1757.16
291.54	1636.33
291.76	1720.29
291.97	1765.35
292.18	1677.29
292.40	1699.81
292.61	1720.29
292.83	1927.14
293.04	1726.44
293.26	1722.34
293.47	1691.62
293.69	1665.00
293.90	1746.92
294.12	1771.49
294.33	1679.33
294.55	1736.68
294.76	1810.40
294.97	1759.21
295.19	1837.03
295.40	1767.40
295.62	1728.49
295.83	1812.45
296.05	1732.58
296.26	1796.07
296.48	1695.72
296.69	1669.09
296.90	1757.16
297.12	1656.81
297.33	1789.92
297.55	1744.87
297.76	1761.25
297.98	1734.63
298.19	1665.00
298.41	1703.91
298.62	1679.33
298.83	1796.07
299.05	1734.63
299.26	1718.25
299.48	1648.61
299.69	1779.68
299.90	1769.44
300.12	1642.47
300.33	1814.50
300.55	1712.10
300.76	1794.02
300.98	1562.60
301.19	1769.44
301.40	1712.10
301.62	1642.47
301.83	1800.16
302.05	1712.10
302.26	1742.82
302.47	1712.10
302.69	1611.75
302.90	1636.33
303.12	1599.46
303.33	1708.01
303.54	1812.45
303.76	1695.72
303.97	1722.34
304.19	1834.98
304.40	1681.38
304.61	1738.73
304.83	1796.07
305.04	1804.26
305.26	1699.81
305.47	1705.96
305.68	1705.96
305.90	1624.04
306.11	1798.12
306.33	1681.38
306.54	1701.86
306.75	1677.29
306.97	1705.96
307.18	1701.86
307.39	1628.14
307.61	1767.40
307.82	1656.81
308.04	1751.01
308.25	1710.05
308.46	1767.40
308.68	1751.01
308.89	1716.20
309.10	1810.40
309.32	1710.05
309.53	1771.49
309.74	1705.96
309.96	1687.53
310.17	1712.10
310.39	1675.24
310.60	1736.68
310.81	1755.11
311.03	1679.33
311.24	1765.35
311.45	1689.57
311.67	1839.08
311.88	1738.73
312.09	1716.20
312.31	1701.86
312.52	1679.33
312.73	1669.09
312.95	1605.61
313.16	1722.34
313.37	1773.54
313.59	1802.21
313.80	1769.44
314.01	1832.93
314.23	1701.86
314.44	1632.23
314.65	1669.09
314.87	1785.83
315.08	1703.91
315.29	1710.05
315.51	1724.39
315.72	1613.80
315.93	1839.08
316.15	1828.84
316.36	1705.96
316.57	1656.81
316.79	1785.83
317.00	1705.96
317.21	1734.63
317.43	1673.19
317.64	1652.71
317.85	1632.23
318.07	1697.77
318.28	1671.14
318.49	1771.49
318.70	1853.41
318.92	1804.26
319.13	1814.50
319.34	1925.09
319.56	1771.49
319.77	1877.99
319.98	1855.46
320.20	1751.01
320.41	1765.35
320.62	1771.49
320.83	1689.57
321.05	1859.56
321.26	1718.25
321.47	1751.01
321.69	1744.87
321.90	1636.33
322.11	1718.25
322.32	1771.49
322.54	1779.68
322.75	1699.81
322.96	1718.25
323.18	1638.38
323.39	1646.57
323.60	1685.48
323.81	1636.33
324.03	1683.43
324.24	1789.92
324.45	1738.73
324.66	1705.96
324.88	1781.73
325.09	1748.97
325.30	1662.95
325.52	1740.77
325.73	1783.78
325.94	1652.71
326.15	1595.37
326.37	1689.57
326.58	1753.06
326.79	1791.97
327.00	1665.00
327.22	1718.25
327.43	1687.53
327.64	1675.24
327.85	1845.22
328.07	1726.44
328.28	1798.12
328.49	1718.25
328.70	1703.91
328.92	1675.24
329.13	1669.09
329.34	1683.43
329.55	1812.45
329.76	1886.18
329.98	1691.62
330.19	1828.84
330.40	1775.59
330.61	1705.96
330.83	1767.40
331.04	1662.95
331.25	1740.77
331.46	1642.47
331.68	1617.90
331.89	1779.68
332.10	1683.43
332.31	1656.81
332.52	1730.53
332.74	1718.25
332.95	1669.09
333.16	1753.06
333.37	1765.35
333.58	1730.53
333.80	1691.62
334.01	1605.61
334.22	1679.33
334.43	1710.05
334.64	1693.67
334.86	1683.43
335.07	1607.66
335.28	1693.67
335.49	1611.75
335.70	1730.53
335.92	1736.68
336.13	1802.21
336.34	1753.06
336.55	1808.36
336.76	1705.96
336.98	1654.76
337.19	1687.53
337.40	1781.73
337.61	1892.32
337.82	1699.81
338.04	1808.36
338.25	1669.09
338.46	1677.29
338.67	1710.05
338.88	1656.81
339.09	1613.80
339.31	1726.44
339.52	1640.42
339.73	1654.76
339.94	1794.02
340.15	1685.48
340.36	1701.86
340.58	1701.86
340.79	1689.57
341.00	1714.15
341.21	1654.76
341.42	1843.17
341.63	1652.71
341.85	1708.01
342.06	1685.48
342.27	1677.29
342.48	1708.01
342.69	1619.94
342.90	1753.06
343.12	1703.91
343.33	1687.53
343.54	1755.11
343.75	1791.97
343.96	1740.77
344.17	1669.09
344.38	1730.53
344.60	1665.00
344.81	1628.14
345.02	1814.50
345.23	1781.73
345.44	1828.84
345.65	1751.01
345.86	1736.68
346.07	1798.12
346.29	1671.14
346.50	1814.50
346.71	1705.96
346.92	1851.36
347.13	1851.36
347.34	1779.68
347.55	1746.92
347.76	1701.86
347.98	1624.04
348.19	1642.47
348.40	1759.21
348.61	1763.30
348.82	1834.98
349.03	1779.68
349.24	1669.09
349.45	1875.94
349.66	1642.47
349.88	1730.53
350.09	1708.01
350.30	1751.01
350.51	1800.16
350.72	1722.34
350.93	1746.92
351.14	1716.20
351.35	1757.16
351.56	1791.97
351.77	1658.85
351.99	1775.59
352.20	1826.79
352.41	1753.06
352.62	1615.85
352.83	1751.01
353.04	1726.44
353.25	1689.57
353.46	1767.40
353.67	1708.01
353.88	1644.52
354.09	1701.86
354.30	1708.01
354.52	1769.44
354.73	1697.77
354.94	1648.61
355.15	1765.35
355.36	1871.84
355.57	1681.38
355.78	1699.81
355.99	1710.05
356.20	1699.81
356.41	1734.63
356.62	1761.25
356.83	1662.95
357.04	1740.77
357.25	1621.99
357.46	1748.97
357.68	1652.71
357.89	1736.68
358.10	1712.10
358.31	1726.44
358.52	1669.09
358.73	1669.09
358.94	1644.52
359.15	1746.92
359.36	1785.83
359.57	1742.82
359.78	1728.49
359.99	1757.16
360.20	1710.05
360.41	1644.52
360.62	1802.21
360.83	1730.53
361.04	1720.29
361.25	1669.09
361.46	1783.78
361.67	1783.78
361.88	1732.58
362.09	1779.68
362.30	1769.44
362.51	1638.38
362.72	1730.53
362.93	1767.40
363.14	1722.34
363.35	1710.05
363.56	1716.20
363.78	1705.96
363.99	1855.46
364.20	1708.01
364.41	1740.77
364.62	1787.88
364.83	1699.81
365.04	1720.29
365.25	1710.05
365.46	1818.60
365.67	1587.18
365.88	1705.96
366.09	1693.67
366.30	1644.52
366.51	1744.87
366.72	1695.72
366.93	1718.25
367.14	1697.77
367.35	1849.32
367.56	1748.97
367.77	1763.30
367.98	1636.33
368.18	1644.52
368.39	1691.62
368.60	1669.09
368.81	1779.68
369.02	1642.47
369.23	1732.58
369.44	1615.85
369.65	1710.05
369.86	1763.30
370.07	1804.26
370.28	1662.95
370.49	1705.96
370.70	1826.79
370.91	1697.77
371.12	1619.94
371.33	1798.12
371.54	1751.01
371.75	1806.31
371.96	1480.68
372.17	1703.91
372.38	1689.57
372.59	1755.11
372.80	1701.86
373.01	1617.90
373.22	1685.48
373.43	1730.53
373.64	1644.52
373.85	1775.59
374.06	1726.44
374.26	1759.21
374.47	1787.88
374.68	1779.68
374.89	1722.34
375.10	1689.57
375.31	1738.73
375.52	1716.20
375.73	1751.01
375.94	1681.38
376.15	1871.84
376.36	1705.96
376.57	1634.28
376.78	1716.20
376.99	1730.53
377.20	1830.88
377.40	1691.62
377.61	1783.78
377.82	1675.24
378.03	1794.02
378.24	1740.77
378.45	1744.87
378.66	1736.68
378.87	1648.61
379.08	1617.90
379.29	1787.88
379.50	1861.60
379.71	1671.14
379.91	1783.78
380.12	1714.15
380.33	1667.05
380.54	1740.77
380.75	1744.87
380.96	1697.77
381.17	1855.46
381.38	1722.34
381.59	1683.43
381.80	1724.39
382.00	1853.41
382.21	1785.83
382.42	1826.79
382.63	1806.31
382.84	1806.31
383.05	1812.45
383.26	1775.59
383.47	1697.77
383.68	1736.68
383.88	1794.02
384.09	1730.53
384.30	1822.69
384.51	1712.10
384.72	1687.53
384.93	1748.97
385.14	1701.86
385.35	1814.50
385.55	1730.53
385.76	1802.21
385.97	1710.05
386.18	1656.81
386.39	1722.34
386.60	1820.64
386.81	1675.24
387.02	1656.81
387.22	1542.12
387.43	1818.60
387.64	1738.73
387.85	1869.80
388.06	2238.43
388.27	4116.42
388.48	6639.51
388.68	8071.04
388.89	9576.30
389.10	9713.52
389.31	8492.93
389.52	7583.63
389.73	6526.88
389.93	6066.08
390.14	5750.70
390.35	4980.66
390.56	4497.34
390.77	3717.06
390.98	3133.39
391.18	2426.84
391.39	2072.54
391.60	1955.81
391.81	1837.03
392.02	1746.92
392.23	1849.32
392.43	1732.58
392.64	1834.98
392.85	1734.63
393.06	1837.03
393.27	1703.91
393.47	1699.81
393.68	1673.19
393.89	1773.54
394.10	1724.39
394.31	1708.01
394.52	1619.94
394.72	1638.38
394.93	1828.84
395.14	1646.57
395.35	1779.68
395.56	1730.53
395.76	1734.63
395.97	1812.45
396.18	1855.46
396.39	1826.79
396.60	1994.72
396.80	1875.94
397.01	1812.45
397.22	1847.27
397.43	1837.03
397.64	1769.44
397.84	1832.93
398.05	1828.84
398.26	1703.91
398.47	1761.25
398.67	1781.73
398.88	1701.86
399.09	1687.53
399.30	1660.90
399.51	1802.21
399.71	1632.23
399.92	1738.73
400.13	1722.34
400.34	1744.87
400.54	1726.44
400.75	1775.59
400.96	1791.97
401.17	1908.71
401.37	1824.74
401.58	1665.00
401.79	1771.49
402.00	1931.23
402.21	1923.04
402.41	1910.75
402.62	2074.59
402.83	2070.50
403.04	2029.54
403.24	2066.40
403.45	1802.21
403.66	1945.57
403.87	1947.62
404.07	1935.33
404.28	2029.54
404.49	1861.60
404.70	1759.21
404.90	1751.01
405.11	1783.78
405.32	1763.30
405.52	1660.90
405.73	1701.86
405.94	1650.66
406.15	1779.68
406.35	1783.78
406.56	1781.73
406.77	1673.19
406.98	1759.21
407.18	1703.91
407.39	1812.45
407.60	1665.00
407.80	1685.48
408.01	1644.52
408.22	1787.88
408.43	1662.95
408.63	1738.73
408.84	1808.36
409.05	1794.02
409.25	1683.43
409.46	1701.86
409.67	1636.33
409.88	1697.77
410.08	1763.30
410.29	1673.19
410.50	1746.92
410.70	1730.53
410.91	1636.33
411.12	1808.36
411.32	1720.29
411.53	1658.85
411.74	1744.87
411.95	1783.78
412.15	1656.81
412.36	1771.49
412.57	1773.54
412.77	1763.30
412.98	1779.68
413.19	1617.90
413.39	1730.53
413.60	1763.30
413.81	1783.78
414.01	1763.30
414.22	1787.88
414.43	1771.49
414.63	1783.78
414.84	1824.74
415.05	1693.67
415.25	1667.05
415.46	1818.60
415.67	1738.73
415.87	1781.73
416.08	1751.01
416.29	1712.10
416.49	1669.09
416.70	1646.57
416.91	1722.34
417.11	1751.01
417.32	1779.68
417.53	1767.40
417.73	1773.54
417.94	1658.85
418.15	1742.82
418.35	1619.94
418.56	1705.96
418.77	1896.42
418.97	1759.21
419.18	1701.86
419.38	1595.37
419.59	1652.71
419.80	1761.25
420.00	1712.10
420.21	1652.71
420.42	1775.59
420.62	1708.01
420.83	1660.90
421.04	1626.09
421.24	1593.32
421.45	1705.96
421.65	1738.73
421.86	1755.11
422.07	1767.40
422.27	1826.79
422.48	1746.92
422.69	1675.24
422.89	1708.01
423.10	1712.10
423.30	1714.15
423.51	1771.49
423.72	1673.19
423.92	1769.44
424.13	1630.18
424.33	1660.90
424.54	1699.81
424.75	1722.34
424.95	1820.64
425.16	1736.68
425.36	1763.30
425.57	1763.30
425.78	1730.53
425.98	1787.88
426.19	1665.00
426.39	1693.67
426.60	1810.40
426.81	1820.64
427.01	1742.82
427.22	1734.63
427.42	1669.09
427.63	1619.94
427.83	1812.45
428.04	1888.23
428.25	1802.21
428.45	1845.22
428.66	1808.36
428.86	1703.91
429.07	1681.38
429.28	1742.82
429.48	1665.00
429.69	1646.57
429.89	1736.68
430.10	1650.66
430.30	1759.21
430.51	1796.07
430.71	1642.47
430.92	1738.73
431.13	1628.14
431.33	1773.54
431.54	1732.58
431.74	1785.83
431.95	1812.45
432.15	1601.51
432.36	1736.68
432.56	1773.54
432.77	1794.02
432.98	1859.56
433.18	1718.25
433.39	1738.73
433.59	1783.78
433.80	1832.93
434.00	1890.28
434.21	1720.29
434.41	1755.11
434.62	1898.47
434.82	1644.52
435.03	1648.61
435.23	1724.39
435.44	1593.32
435.64	1757.16
435.85	1812.45
436.06	1769.44
436.26	1816.55
436.47	1714.15
436.67	1710.05
436.88	1800.16
437.08	1806.31
437.29	1781.73
437.49	1755.11
437.70	1826.79
437.90	1677.29
438.11	1902.56
438.31	1841.12
438.52	1877.99
438.72	1869.80
438.93	1877.99
439.13	1748.97
439.34	1865.70
439.54	1730.53
439.75	1771.49
439.95	1820.64
440.16	1726.44
440.36	1828.84
440.57	1834.98
440.77	1738.73
440.98	1708.01
441.18	1734.63
441.39	1665.00
441.59	1742.82
441.80	1841.12
442.00	1722.34
442.21	1773.54
442.41	1644.52
442.62	1722.34
442.82	1703.91
443.02	1757.16
443.23	1751.01
443.43	1751.01
443.64	1865.70
443.84	1701.86
444.05	1877.99
444.25	1806.31
444.46	1781.73
444.66	1763.30
444.87	1806.31
445.07	1683.43
445.28	1804.26
445.48	1822.69
445.69	1777.64
445.89	1843.17
446.09	1738.73
446.30	2035.68
446.50	2570.20
446.71	3665.86
446.91	4327.36
447.12	4698.04
447.32	4759.48
447.53	4304.83
447.73	3831.75
447.93	3467.21
448.14	3280.85
448.34	3186.64
448.55	2856.92
448.75	2856.92
448.96	2691.03
449.16	2394.08
449.36	2193.37
449.57	2129.89
449.77	1898.47
449.98	1806.31
450.18	1841.12
450.39	1769.44
450.59	1753.06
450.79	1671.14
451.00	1683.43
451.20	1761.25
451.41	1744.87
451.61	1818.60
451.81	1710.05
452.02	1744.87
452.22	1705.96
452.43	1730.53
452.63	1714.15
452.84	1681.38
453.04	1673.19
453.24	1738.73
453.45	1689.57
453.65	1847.27
453.86	1787.88
454.06	1771.49
454.26	1708.01
454.47	1710.05
454.67	1816.55
454.87	1744.87
455.08	1714.15
455.28	1894.37
455.49	1746.92
455.69	1681.38
455.89	1824.74
456.10	1841.12
456.30	1767.40
456.51	1796.07
456.71	1777.64
456.91	1785.83
457.12	1712.10
457.32	1783.78
457.52	1724.39
457.73	1767.40
457.93	1730.53
458.14	1646.57
458.34	1769.44
458.54	1740.77
458.75	1738.73
458.95	1771.49
459.15	1751.01
459.36	1763.30
459.56	1722.34
459.76	1890.28
459.97	1759.21
460.17	1738.73
460.37	1746.92
460.58	1757.16
460.78	1685.48
460.99	1736.68
461.19	1705.96
461.39	1726.44
461.60	1675.24
461.80	1828.84
462.00	1695.72
462.21	1712.10
462.41	1644.52
462.61	1740.77
462.82	1648.61
463.02	1812.45
463.22	1755.11
463.43	1767.40
463.63	1755.11
463.83	1796.07
464.04	1710.05
464.24	1724.39
464.44	1757.16
464.64	1744.87
464.85	1771.49
465.05	1779.68
465.25	1779.68
465.46	1738.73
465.66	1755.11
465.86	1773.54
466.07	1689.57
466.27	1685.48
466.47	1656.81
466.68	1550.31
466.88	1824.74
467.08	1800.16
467.29	1873.89
467.49	1748.97
467.69	1763.30
467.89	1802.21
468.10	1755.11
468.30	1779.68
468.50	1808.36
468.71	1796.07
468.91	1615.85
469.11	1904.61
469.31	1710.05
469.52	1599.46
469.72	1814.50
469.92	1869.80
470.13	1712.10
470.33	1802.21
470.53	1902.56
470.73	2041.82
470.94	2297.82
471.14	2281.44
471.34	2510.81
471.54	2346.97
471.75	2240.48
471.95	2172.89
472.15	2062.30
472.36	2148.32
472.56	2031.58
472.76	2097.12
472.96	1945.57
473.17	1931.23
473.37	1931.23
473.57	1824.74
473.77	1787.88
473.98	1798.12
474.18	1722.34
474.38	1902.56
474.58	1640.42
474.79	1761.25
474.99	1818.60
475.19	1771.49
475.39	1697.77
475.60	1769.44
475.80	1830.88
476.00	1744.87
476.20	1662.95
476.41	1769.44
476.61	1796.07
476.81	1794.02
477.01	1728.49
477.21	1898.47
477.42	1820.64
477.62	1609.70
477.82	1726.44
478.02	1695.72
478.23	1755.11
478.43	1714.15
478.63	1648.61
478.83	1681.38
479.03	1662.95
479.24	1722.34
479.44	1781.73
479.64	1738.73
479.84	1652.71
480.04	1710.05
480.25	1806.31
480.45	1732.58
480.65	1734.63
480.85	1828.84
481.06	1673.19
481.26	1785.83
481.46	1787.88
481.66	1800.16
481.86	1703.91
482.06	1800.16
482.27	1753.06
482.47	1626.09
482.67	1681.38
482.87	1796.07
483.07	1806.31
483.28	1722.34
483.48	1712.10
483.68	1751.01
483.88	1705.96
484.08	1611.75
484.29	1689.57
484.49	1759.21
484.69	1648.61
484.89	1751.01
485.09	1837.03
485.29	1841.12
485.50	1769.44
485.70	1726.44
485.90	1845.22
486.10	1677.29
486.30	1777.64
486.50	1775.59
486.71	1730.53
486.91	1785.83
487.11	1742.82
487.31	1650.66
487.51	1734.63
487.71	1710.05
487.91	1718.25
488.12	1685.48
488.32	1658.85
488.52	1716.20
488.72	1675.24
488.92	1759.21
489.12	1802.21
489.32	1783.78
489.53	1802.21
489.73	1683.43
489.93	1812.45
490.13	1722.34
490.33	1697.77
490.53	1708.01
490.73	1841.12
490.94	1656.81
491.14	1779.68
491.34	1843.17
491.54	2138.08
491.74	2631.64
491.94	2895.83
492.14	3024.85
492.34	2893.78
492.54	2742.23
492.75	2576.34
492.95	2449.37
493.15	2265.05
493.35	2326.49
493.55	2275.29
493.75	2201.57
493.95	2078.69
494.15	2011.11
494.35	1957.86
494.56	1863.65
494.76	1685.48
494.96	1830.88
495.16	1861.60
495.36	1738.73
495.56	1742.82
495.76	1742.82
495.96	1669.09
496.16	1662.95
496.36	1869.80
496.56	1724.39
496.77	1714.15
496.97	1726.44
497.17	1806.31
497.37	1681.38
497.57	1794.02
497.77	1738.73
497.97	1640.42
498.17	1722.34
498.37	1691.62
498.57	1730.53
498.77	1777.64
498.97	1740.77
499.17	1787.88
499.38	1757.16
499.58	1837.03
499.78	1796.07
499.98	1759.21
500.18	1726.44
500.38	1771.49
500.58	1884.13
500.78	2535.39
500.98	4421.56
501.18	5752.74
501.38	6651.80
501.58	6936.47
501.78	6670.23
501.98	5533.61
502.18	4827.06
502.38	4487.10
502.58	4202.43
502.78	3643.34
502.98	3624.90
503.18	3413.96
503.38	3221.45
503.59	2805.72
503.79	2623.45
503.99	2408.41
504.19	2316.25
504.39	2269.15
504.59	2136.03
504.79	2179.04
504.99	2074.59
505.19	1914.85
505.39	1867.75
505.59	1966.05
505.79	1886.18
505.99	1871.84
506.19	1812.45
506.39	1947.62
506.59	1775.59
506.79	1796.07
506.99	1871.84
507.19	1765.35
507.39	1761.25
507.59	1638.38
507.79	1665.00
507.99	1742.82
508.19	1701.86
508.39	1679.33
508.59	1804.26
508.79	1761.25
508.99	1761.25
509.19	1726.44
509.39	1757.16
509.59	1683.43
509.79	1798.12
509.99	1818.60
510.19	1771.49
510.39	1800.16
510.59	1652.71
510.79	1691.62
510.99	1677.29
511.19	1726.44
511.39	1888.23
511.59	1890.28
511.79	1824.74
511.99	1773.54
512.19	1800.16
512.38	1697.77
512.58	1738.73
512.78	1722.34
512.98	1791.97
513.18	1804.26
513.38	1638.38
513.58	1777.64
513.78	1732.58
513.98	1705.96
514.18	1716.20
514.38	1746.92
514.58	1783.78
514.78	1728.49
514.98	1718.25
515.18	1748.97
515.38	1708.01
515.58	1890.28
515.78	1701.86
515.98	1759.21
516.18	1763.30
516.38	1726.44
516.57	1753.06
516.77	1718.25
516.97	1820.64
517.17	1734.63
517.37	1611.75
517.57	1714.15
517.77	1800.16
517.97	1599.46
518.17	1822.69
518.37	1705.96
518.57	1673.19
518.77	1732.58
518.97	1734.63
519.16	1794.02
519.36	1822.69
519.56	1720.29
519.76	1753.06
519.96	1724.39
520.16	1839.08
520.36	1667.05
520.56	1785.83
520.76	1755.11
520.96	1730.53
521.16	1771.49
521.35	1751.01
521.55	1804.26
521.75	1742.82
521.95	1693.67
522.15	1763.30
522.35	1587.18
522.55	1757.16
522.75	1804.26
522.95	1816.55
523.14	1652.71
523.34	1677.29
523.54	1761.25
523.74	1837.03
523.94	1732.58
524.14	1630.18
524.34	1734.63
524.54	1902.56
524.73	1673.19
524.93	1812.45
525.13	1779.68
525.33	1697.77
525.53	1927.14
525.73	1841.12
525.93	1708.01
526.13	1736.68
526.32	1718.25
526.52	1818.60
526.72	1843.17
526.92	1765.35
527.12	1748.97
527.32	1656.81
527.52	1695.72
527.71	1755.11
527.91	1681.38
528.11	1636.33
528.31	1787.88
528.51	1665.00
528.71	1812.45
528.90	1808.36
529.10	1771.49
529.30	1834.98
529.50	1605.61
529.70	1767.40
529.90	1718.25
530.09	1769.44
530.29	1742.82
530.49	1705.96
530.69	1902.56
530.89	1759.21
531.09	1789.92
531.28	1734.63
531.48	1822.69
531.68	1730.53
531.88	1814.50
532.08	1789.92
532.28	1736.68
532.47	1787.88
532.67	1787.88
532.87	1755.11
533.07	1646.57
533.27	1759.21
533.46	1755.11
533.66	1849.32
533.86	1693.67
534.06	1759.21
534.26	1757.16
534.45	1677.29
534.65	1771.49
534.85	1775.59
535.05	1744.87
535.25	1701.86
535.44	1665.00
535.64	1789.92
535.84	1753.06
536.04	1746.92
536.24	1689.57
536.43	1681.38
536.63	1734.63
536.83	1658.85
537.03	1773.54
537.22	1714.15
537.42	1624.04
537.62	1773.54
537.82	1775.59
538.02	1830.88
538.21	1861.60
538.41	1937.38
538.61	1759.21
538.81	1755.11
539.00	1845.22
539.20	1656.81
539.40	1685.48
539.60	1763.30
539.79	1779.68
539.99	1804.26
540.19	1724.39
540.39	1791.97
540.58	1767.40
540.78	1808.36
540.98	1769.44
541.18	1738.73
541.37	1714.15
541.57	1730.53
541.77	1804.26
541.97	1640.42
542.16	1667.05
542.36	1796.07
542.56	1732.58
542.76	1904.61
542.95	1757.16
543.15	1748.97
543.35	1779.68
543.54	1662.95
543.74	1738.73
543.94	1765.35
544.14	1697.77
544.33	1851.36
544.53	1714.15
544.73	1808.36
544.93	1761.25
545.12	1720.29
545.32	1732.58
545.52	1714.15
545.71	1753.06
545.91	1738.73
546.11	1748.97
546.30	1671.14
546.50	1724.39
546.70	1796.07
546.90	1777.64
547.09	1652.71
547.29	1828.84
547.49	1791.97
547.68	1767.40
547.88	1718.25
548.08	1787.88
548.27	2222.05
548.47	1742.82
548.67	1785.83
548.87	1794.02
549.06	1710.05
549.26	1746.92
549.46	1787.88
549.65	1703.91
549.85	1806.31
550.05	1708.01
550.24	1722.34
550.44	1796.07
550.64	1757.16
550.83	1748.97
551.03	1812.45
551.23	1732.58
551.42	1705.96
551.62	1673.19
551.82	1837.03
552.01	1796.07
552.21	1832.93
552.41	1751.01
552.60	1855.46
552.80	1785.83
553.00	1738.73
553.19	1683.43
553.39	1783.78
553.59	1634.28
553.78	1693.67
553.98	1730.53
554.17	1621.99
554.37	1826.79
554.57	1746.92
554.76	1662.95
554.96	1679.33
555.16	1701.86
555.35	1671.14
555.55	1820.64
555.75	1757.16
555.94	1783.78
556.14	1767.40
556.33	1816.55
556.53	1742.82
556.73	1714.15
556.92	1742.82
557.12	1871.84
557.32	1849.32
557.51	1830.88
557.71	1918.95
557.90	1839.08
558.10	1796.07
558.30	1730.53
558.49	1681.38
558.69	1773.54
558.88	1693.67
559.08	1777.64
559.28	1800.16
559.47	1847.27
559.67	1802.21
559.86	1828.84
560.06	1730.53
560.26	1755.11
560.45	1808.36
560.65	1740.77
560.84	1828.84
561.04	1665.00
561.24	1890.28
561.43	1691.62
561.63	1779.68
561.82	1820.64
562.02	1798.12
562.22	1708.01
562.41	1658.85
562.61	1771.49
562.80	1701.86
563.00	1845.22
563.19	1728.49
563.39	1814.50
563.59	1728.49
563.78	1755.11
563.98	1568.74
564.17	1763.30
564.37	1662.95
564.56	1771.49
564.76	1761.25
564.96	1708.01
565.15	1804.26
565.35	1853.41
565.54	1740.77
565.74	1771.49
565.93	1761.25
566.13	1783.78
566.32	1742.82
566.52	1787.88
566.71	1710.05
566.91	1742.82
567.11	1650.66
567.30	1734.63
567.50	1763.30
567.69	1736.68
567.89	1718.25
568.08	1734.63
568.28	1703.91
568.47	1779.68
568.67	1798.12
568.86	1718.25
569.06	1869.80
569.25	1722.34
569.45	1716.20
569.64	1728.49
569.84	1755.11
570.04	1771.49
570.23	1724.39
570.43	1703.91
570.62	1841.12
570.82	1865.70
571.01	1689.57
571.21	1732.58
571.40	1740.77
571.60	1763.30
571.79	1767.40
571.99	1869.80
572.18	1736.68
572.38	1703.91
572.57	1796.07
572.77	1783.78
572.96	1832.93
573.16	1712.10
573.35	1722.34
573.55	1789.92
573.74	1816.55
573.94	1693.67
574.13	1726.44
574.33	1849.32
574.52	1849.32
574.71	1712.10
574.91	1746.92
575.10	1652.71
575.30	1683.43
575.49	1714.15
575.69	1751.01
575.88	1783.78
576.08	1779.68
576.27	1826.79
576.47	1751.01
576.66	1873.89
576.86	1759.21
577.05	1705.96
577.25	1818.60
577.44	1839.08
577.64	1738.73
577.83	1851.36
578.02	1685.48
578.22	1888.23
578.41	1796.07
578.61	1689.57
578.80	1656.81
579.00	1763.30
579.19	1734.63
579.39	1794.02
579.58	1755.11
579.77	1755.11
579.97	1834.98
580.16	1802.21
580.36	1845.22
580.55	1853.41
580.75	1744.87
580.94	1759.21
581.13	1929.19
581.33	1818.60
581.52	1753.06
581.72	1933.28
581.91	1875.94
582.11	1673.19
582.30	1789.92
582.49	1753.06
582.69	1912.80
582.88	1810.40
583.08	1812.45
583.27	1779.68
583.47	1841.12
583.66	1675.24
583.85	1720.29
584.05	1812.45
584.24	1775.59
584.44	1777.64
584.63	1886.18
584.82	1789.92
585.02	1908.71
585.21	1834.98
585.41	1826.79
585.60	1773.54
585.79	1892.32
585.99	1986.53
586.18	1834.98
586.37	2162.66
586.57	3424.20
586.76	9787.24
586.96	23813.78
587.15	33797.63
587.34	39488.93
587.54	41282.95
587.73	35585.50
587.93	25568.89
588.12	20950.72
588.31	17858.29
588.51	16051.98
588.70	14739.23
588.89	13561.65
589.09	12355.40
589.28	10815.32
589.47	9187.19
589.67	7581.58
589.86	6332.32
590.06	4732.86
590.25	3798.98
590.44	2922.45
590.64	2611.16
590.83	2281.44
591.02	2101.22
591.22	1994.72
591.41	1884.13
591.60	1873.89
591.80	1976.29
591.99	1783.78
592.18	1708.01
592.38	1820.64
592.57	1730.53
592.76	1751.01
592.96	1777.64
593.15	1748.97
593.34	1869.80
593.54	1757.16
593.73	1746.92
593.92	1816.55
594.12	1714.15
594.31	1718.25
594.50	1759.21
594.70	1775.59
594.89	1937.38
595.08	1673.19
595.28	1832.93
595.47	1871.84
595.66	1798.12
595.86	1605.61
596.05	1722.34
596.24	1718.25
596.43	1832.93
596.63	1779.68
596.82	1755.11
597.01	1834.98
597.21	1861.60
597.40	1796.07
597.59	1783.78
597.79	1748.97
597.98	1853.41
598.17	1796.07
598.36	1757.16
598.56	1800.16
598.75	1783.78
598.94	1732.58
599.14	1755.11
599.33	1763.30
599.52	1898.47
599.71	1742.82
599.91	1839.08
600.10	1693.67
600.29	1714.15
600.48	1785.83
600.68	1687.53
600.87	1783.78
601.06	1746.92
601.26	1757.16
601.45	1689.57
601.64	1685.48
601.83	1804.26
602.03	1673.19
602.22	1669.09
602.41	1777.64
602.60	1861.60
602.80	1808.36
602.99	1730.53
603.18	1718.25
603.37	1730.53
603.57	1808.36
603.76	1771.49
603.95	1796.07
604.14	1679.33
604.34	1757.16
604.53	1671.14
604.72	1767.40
604.91	1763.30
605.10	1808.36
605.30	1632.23
605.49	1894.37
605.68	1794.02
605.87	1812.45
606.07	1669.09
606.26	1751.01
606.45	1761.25
606.64	1787.88
606.84	1693.67
607.03	1730.53
607.22	1718.25
607.41	1705.96
607.60	1687.53
607.80	1738.73
607.99	1718.25
608.18	1798.12
608.37	1773.54
608.56	1712.10
608.76	1763.30
608.95	1816.55
609.14	1679.33
609.33	1814.50
609.52	1769.44
609.72	1781.73
609.91	1787.88
610.10	1697.77
610.29	1873.89
610.48	1853.41
610.68	1791.97
610.87	1669.09
611.06	1779.68
611.25	1691.62
611.44	1826.79
611.63	1740.77
611.83	1771.49
612.02	1697.77
612.21	1861.60
612.40	1628.14
612.59	1724.39
612.79	1701.86
612.98	1773.54
613.17	1824.74
613.36	1751.01
613.55	1791.97
613.74	1736.68
613.93	1740.77
614.13	1775.59
614.32	1759.21
614.51	1837.03
614.70	1800.16
614.89	1710.05
615.08	1773.54
615.28	2133.98
615.47	1595.37
615.66	1748.97
615.85	1724.39
616.04	1873.89
616.23	1796.07
616.42	1732.58
616.62	1718.25
616.81	1791.97
617.00	1761.25
617.19	1724.39
617.38	1693.67
617.57	1802.21
617.76	1820.64
617.95	1775.59
618.15	1689.57
618.34	1777.64
618.53	1699.81
618.72	1822.69
618.91	1818.60
619.10	1877.99
619.29	1695.72
619.48	1710.05
619.68	1726.44
619.87	1734.63
620.06	1650.66
620.25	1779.68
620.44	1728.49
620.63	1730.53
620.82	1787.88
621.01	1648.61
621.20	1714.15
621.39	1804.26
621.59	1693.67
621.78	1705.96
621.97	1746.92
622.16	1781.73
622.35	1738.73
622.54	1748.97
622.73	1746.92
622.92	1673.19
623.11	1794.02
623.30	1683.43
623.49	1804.26
623.68	1716.20
623.88	1822.69
624.07	1656.81
624.26	1683.43
624.45	1718.25
624.64	1730.53
624.83	1761.25
625.02	1687.53
625.21	1794.02
625.40	1722.34
625.59	1763.30
625.78	1759.21
625.97	1765.35
626.16	1736.68
626.35	1699.81
626.54	1738.73
626.74	1765.35
626.93	1724.39
627.12	1724.39
627.31	1757.16
627.50	1794.02
627.69	1779.68
627.88	1722.34
628.07	1738.73
628.26	1671.14
628.45	1675.24
628.64	1685.48
628.83	1748.97
629.02	1714.15
629.21	1802.21
629.40	1800.16
629.59	1673.19
629.78	1738.73
629.97	1722.34
630.16	1681.38
630.35	1665.00
630.54	1667.05
630.73	1718.25
630.92	1767.40
631.11	1716.20
631.30	1710.05
631.49	1779.68
631.68	1738.73
631.87	1841.12
632.06	1669.09
632.25	1841.12
632.44	1685.48
632.63	1765.35
632.82	1593.32
633.01	1724.39
633.20	1730.53
633.39	1710.05
633.58	1677.29
633.77	1755.11
633.96	1777.64
634.15	1761.25
634.34	1810.40
634.53	1775.59
634.72	1736.68
634.91	1578.98
635.10	1824.74
635.29	1808.36
635.48	1777.64
635.67	1705.96
635.86	1595.37
636.05	1890.28
636.24	1722.34
636.43	1665.00
636.62	1755.11
636.81	1630.18
637.00	1812.45
637.19	1753.06
637.38	1734.63
637.57	1658.85
637.76	1742.82
637.95	1767.40
638.14	1677.29
638.33	1658.85
638.52	1798.12
638.71	1714.15
638.89	1640.42
639.08	1914.85
639.27	1765.35
639.46	1691.62
639.65	1871.84
639.84	1701.86
640.03	1746.92
640.22	1640.42
640.41	1880.04
640.60	1648.61
640.79	1746.92
640.98	1665.00
641.17	1775.59
641.36	1783.78
641.55	1744.87
641.74	1646.57
641.92	1759.21
642.11	1687.53
642.30	1693.67
642.49	1617.90
642.68	1669.09
642.87	1734.63
643.06	1841.12
643.25	1712.10
643.44	1734.63
643.63	1650.66
643.82	1632.23
644.00	1624.04
644.19	1738.73
644.38	1572.84
644.57	1796.07
644.76	1724.39
644.95	1654.76
645.14	1718.25
645.33	1710.05
645.52	1621.99
645.71	1699.81
645.89	1613.80
646.08	1720.29
646.27	1722.34
646.46	1865.70
646.65	1636.33
646.84	1732.58
647.03	1701.86
647.22	1763.30
647.40	1708.01
647.59	1755.11
647.78	1667.05
647.97	1644.52
648.16	1619.94
648.35	1804.26
648.54	1804.26
648.73	1718.25
648.91	1802.21
649.10	1697.77
649.29	1728.49
649.48	1732.58
649.67	1753.06
649.86	1759.21
650.05	1714.15
650.23	1781.73
650.42	1673.19
650.61	1761.25
650.80	1802.21
650.99	1861.60
651.18	1783.78
651.36	1800.16
651.55	1667.05
651.74	1757.16
651.93	1681.38
652.12	1734.63
652.31	1683.43
652.49	1712.10
652.68	1726.44
652.87	1767.40
653.06	1722.34
653.25	1896.42
653.44	1781.73
653.62	1804.26
653.81	1681.38
654.00	1642.47
654.19	1708.01
654.38	1890.28
654.56	1767.40
654.75	1800.16
654.94	1796.07
655.13	1785.83
655.32	1738.73
655.51	1736.68
655.69	1697.77
655.88	1806.31
656.07	1693.67
656.26	1746.92
656.45	1615.85
656.63	1742.82
656.82	1738.73
657.01	1683.43
657.20	1660.90
657.38	1761.25
657.57	1665.00
657.76	1634.28
657.95	1740.77
658.14	1626.09
658.32	1783.78
658.51	1675.24
658.70	1679.33
658.89	1710.05
659.08	1669.09
659.26	1796.07
659.45	1624.04
659.64	1691.62
659.83	1724.39
660.01	1978.34
660.20	1691.62
660.39	1787.88
660.58	1566.70
660.76	1771.49
660.95	1652.71
661.14	1714.15
661.33	1650.66
661.51	1687.53
661.70	1712.10
661.89	1714.15
662.08	1693.67
662.26	1687.53
662.45	1697.77
662.64	1761.25
662.83	1785.83
663.01	1632.23
663.20	1644.52
663.39	1802.21
663.58	1746.92
663.76	1662.95
663.95	1849.32
664.14	1656.81
664.32	1689.57
664.51	1671.14
664.70	1628.14
664.89	1740.77
665.07	1669.09
665.26	1763.30
665.45	1650.66
665.64	1791.97
665.82	1734.63
666.01	1820.64
666.20	1722.34
666.38	1789.92
666.57	1789.92
666.76	2258.91
666.95	4648.89
667.13	10286.95
667.32	15046.43
667.51	17295.10
667.69	18544.36
667.88	17245.94
668.07	12042.06
668.25	9156.47
668.44	7997.32
668.63	7313.30
668.81	6817.69
669.00	6195.11
669.19	5541.80
669.38	4937.65
669.56	4351.93
669.75	3901.38
669.94	3438.54
670.12	2920.40
670.31	2506.71
670.50	2287.58
670.68	2099.17
670.87	1933.28
671.06	1785.83
671.24	1800.16
671.43	1877.99
671.62	1759.21
671.80	1689.57
671.99	1703.91
672.18	1765.35
672.36	1736.68
672.55	1763.30
672.74	1732.58
672.92	1648.61
673.11	1742.82
673.29	1693.67
673.48	1779.68
673.67	1697.77
673.85	1900.52
674.04	1708.01
674.23	1708.01
674.41	1824.74
674.60	1714.15
674.79	1689.57
674.97	1740.77
675.16	1796.07
675.34	1802.21
675.53	1626.09
675.72	1732.58
675.90	1826.79
676.09	1765.35
676.28	1873.89
676.46	1624.04
676.65	1820.64
676.83	1626.09
677.02	1759.21
677.21	1761.25
677.39	1740.77
677.58	1705.96
677.77	1685.48
677.95	1708.01
678.14	1675.24
678.32	1632.23
678.51	1650.66
678.70	1814.50
678.88	1673.19
679.07	1789.92
679.25	1662.95
679.44	1771.49
679.63	1681.38
679.81	1759.21
680.00	1775.59
680.18	1732.58
680.37	1841.12
680.55	1787.88
680.74	1667.05
680.93	1615.85
681.11	1722.34
681.30	1693.67
681.48	1699.81
681.67	1744.87
681.85	1665.00
682.04	1744.87
682.23	1738.73
682.41	1814.50
682.60	1705.96
682.78	1638.38
682.97	1667.05
683.15	1675.24
683.34	1683.43
683.53	1746.92
683.71	1685.48
683.90	1855.46
684.08	1804.26
684.27	1755.11
684.45	1769.44
684.64	1677.29
684.82	1740.77
685.01	1714.15
685.19	1783.78
685.38	1849.32
685.57	1708.01
685.75	1652.71
685.94	1738.73
686.12	1644.52
686.31	1673.19
686.49	1783.78
686.68	1665.00
686.86	1732.58
687.05	1732.58
687.23	1779.68
687.42	1718.25
687.60	1599.46
687.79	1775.59
687.97	1804.26
688.16	1742.82
688.34	1740.77
688.53	1624.04
688.71	1767.40
688.90	1705.96
689.08	1730.53
689.27	1626.09
689.45	1708.01
689.64	1746.92
689.82	1720.29
690.01	1789.92
690.19	1816.55
690.38	1744.87
690.56	1820.64
690.75	1634.28
690.93	1734.63
691.12	1599.46
691.30	1802.21
691.49	1746.92
691.67	1796.07
691.86	1847.27
692.04	1656.81
692.23	1675.24
692.41	1652.71
692.60	1828.84
692.78	1748.97
692.97	1699.81
693.15	1677.29
693.34	1873.89
693.52	1779.68
693.71	1710.05
693.89	1646.57
694.08	1632.23
694.26	1765.35
694.44	1722.34
694.63	1746.92
694.81	1671.14
695.00	1681.38
695.18	1816.55
695.37	1816.55
695.55	1701.86
695.74	1693.67
695.92	1712.10
696.10	1742.82
696.29	1685.48
696.47	1673.19
696.66	1697.77
696.84	1705.96
697.03	1769.44
697.21	1767.40
697.40	2410.46
697.58	1755.11
697.76	1667.05
697.95	1720.29
698.13	1621.99
698.32	1650.66
698.50	1708.01
698.68	1742.82
698.87	1695.72
699.05	1808.36
699.24	1738.73
699.42	1687.53
699.61	1730.53
699.79	1701.86
699.97	1753.06
700.16	1632.23
700.34	1646.57
700.53	1677.29
700.71	1800.16
700.89	1734.63
701.08	1718.25
701.26	1763.30
701.45	2117.60
701.63	1673.19
701.81	1679.33
702.00	1632.23
702.18	1665.00
702.37	1648.61
702.55	1763.30
702.73	1759.21
702.92	1599.46
703.10	1746.92
703.28	1796.07
703.47	1675.24
703.65	1791.97
703.84	1753.06
704.02	1626.09
704.20	1773.54
704.39	1714.15
704.57	1701.86
704.75	1810.40
704.94	1763.30
705.12	1742.82
705.30	1873.89
705.49	2320.35
705.67	4458.43
705.86	9265.01
706.04	12261.19
706.22	14241.57
706.41	14931.74
706.59	13436.72
706.77	9449.33
706.96	7143.32
707.14	6371.23
707.32	5834.66
707.51	5310.38
707.69	4868.02
707.87	4091.84
708.06	3536.84
708.24	2873.30
708.42	2410.46
708.61	2248.67
708.79	1923.04
708.97	1882.08
709.16	1875.94
709.34	1800.16
709.52	1751.01
709.71	1699.81
709.89	1732.58
710.07	1753.06
710.26	1701.86
710.44	1697.77
710.62	1753.06
710.80	1808.36
710.99	1794.02
711.17	1769.44
711.35	1677.29
711.54	1677.29
711.72	1791.97
711.90	1767.40
712.09	1802.21
712.27	1726.44
712.45	1726.44
712.63	1708.01
712.82	1740.77
713.00	1714.15
713.18	1712.10
713.37	1853.41
713.55	1787.88
713.73	1718.25
713.91	1746.92
714.10	1695.72
714.28	1710.05
714.46	1787.88
714.65	1736.68
714.83	1730.53
715.01	1769.44
715.19	1746.92
715.38	1708.01
715.56	1724.39
715.74	1617.90
715.92	1718.25
716.11	1769.44
716.29	1593.32
716.47	1755.11
716.65	1652.71
716.84	1611.75
717.02	1724.39
717.20	1644.52
717.38	1701.86
717.57	1742.82
717.75	1691.62
717.93	1730.53
718.11	1714.15
718.30	1671.14
718.48	1812.45
718.66	1810.40
718.84	1808.36
719.03	1732.58
719.21	1716.20
719.39	1875.94
719.57	1736.68
719.75	1791.97
719.94	1601.51
720.12	1675.24
720.30	1720.29
720.48	1730.53
720.67	1771.49
720.85	1740.77
721.03	1726.44
721.21	1660.90
721.39	1789.92
721.58	1703.91
721.76	1720.29
721.94	1796.07
722.12	1681.38
722.30	1816.55
722.49	1687.53
722.67	1708.01
722.85	1826.79
723.03	1619.94
723.21	1693.67
723.40	1769.44
723.58	1779.68
723.76	1671.14
723.94	1751.01
724.12	1740.77
724.30	1806.31
724.49	1726.44
724.67	1712.10
724.85	1714.15
725.03	1699.81
725.21	1855.46
725.40	1738.73
725.58	1642.47
725.76	1755.11
725.94	1738.73
726.12	1738.73
726.30	1738.73
726.49	1789.92
726.67	1724.39
726.85	1794.02
727.03	1779.68
727.21	2174.94
727.39	3016.66
727.57	3841.99
727.76	4069.31
727.94	4405.18
728.12	4337.60
728.30	3528.65
728.48	2869.20
728.66	2719.70
728.84	2533.34
729.03	2379.74
729.21	2226.14
729.39	2080.74
729.57	1863.65
729.75	1798.12
729.93	1822.69
730.11	1693.67
730.30	1691.62
730.48	1757.16
730.66	1806.31
730.84	1775.59
731.02	1755.11
731.20	1691.62
731.38	1832.93
731.56	1607.66
731.74	1660.90
731.93	1687.53
732.11	1763.30
732.29	1775.59
732.47	1718.25
732.65	1724.39
732.83	1812.45
733.01	1726.44
733.19	1671.14
733.37	1757.16
733.56	1781.73
733.74	1699.81
733.92	1849.32
734.10	1714.15
734.28	1732.58
734.46	1630.18
734.64	1746.92
734.82	1675.24
735.00	1654.76
735.18	1669.09
735.36	1714.15
735.54	1742.82
735.73	1720.29
735.91	1748.97
736.09	1814.50
736.27	1683.43
736.45	1798.12
736.63	1689.57
736.81	1640.42
736.99	1781.73
737.17	1773.54
737.35	1708.01
737.53	1703.91
737.71	1691.62
737.89	1712.10
738.07	1714.15
738.25	1615.85
738.43	1626.09
738.61	1798.12
738.80	1726.44
738.98	1673.19
739.16	1644.52
739.34	1636.33
739.52	1822.69
739.70	1699.81
739.88	1767.40
740.06	1802.21
740.24	1624.04
740.42	1769.44
740.60	1619.94
740.78	1658.85
740.96	1703.91
741.14	1705.96
741.32	1685.48
741.50	1710.05
741.68	1890.28
741.86	1837.03
742.04	1640.42
742.22	1689.57
742.40	1775.59
742.58	1705.96
742.76	1677.29
742.94	1806.31
743.12	1681.38
743.30	1697.77
743.48	1722.34
743.66	1644.52
743.84	1771.49
744.02	1656.81
744.20	1705.96
744.38	1652.71
744.56	1654.76
744.74	1834.98
744.92	1728.49
745.10	1810.40
745.28	1689.57
745.46	1859.56
745.64	1789.92
745.82	1732.58
746.00	1796.07
746.18	1646.57
746.36	1648.61
746.54	1718.25
746.72	1746.92
746.90	1650.66
747.08	1773.54
747.26	1679.33
747.44	1820.64
747.62	1763.30
747.80	1732.58
747.98	1892.32
748.15	1630.18
748.33	1808.36
748.51	1683.43
748.69	1693.67
748.87	1578.98
749.05	1714.15
749.23	1722.34
749.41	1748.97
749.59	1681.38
749.77	1703.91
749.95	1714.15
750.13	1611.75
750.31	1755.11
750.49	1744.87
750.67	1744.87
750.85	1814.50
751.03	1722.34
751.20	1873.89
751.38	1722.34
751.56	1705.96
751.74	1720.29
751.92	1730.53
752.10	1800.16
752.28	1755.11
752.46	1662.95
752.64	1701.86
752.82	1773.54
753.00	1773.54
753.18	1648.61
753.35	1716.20
753.53	1667.05
753.71	1708.01
753.89	1767.40
754.07	1761.25
754.25	1667.05
754.43	1771.49
754.61	1654.76
754.79	1763.30
754.97	1726.44
755.14	1763.30
755.32	1658.85
755.50	1722.34
755.68	1644.52
755.86	1673.19
756.04	1728.49
756.22	1650.66
756.40	1660.90
756.57	1824.74
756.75	1714.15
756.93	1798.12
757.11	1812.45
757.29	1609.70
757.47	1703.91
757.65	1660.90
757.82	1626.09
758.00	1697.77
758.18	1740.77
758.36	1683.43
758.54	1802.21
758.72	1656.81
758.90	1734.63
759.07	1734.63
759.25	1697.77
759.43	1818.60
759.61	1667.05
759.79	2164.70
759.97	1763.30
760.15	1683.43
760.32	1660.90
760.50	1689.57
760.68	1828.84
760.86	1654.76
761.04	1796.07
761.22	1740.77
761.39	1718.25
761.57	1699.81
761.75	1734.63
761.93	1783.78
762.11	1685.48
762.28	1701.86
762.46	1705.96
762.64	1755.11
762.82	1619.94
763.00	1763.30
763.18	1775.59
763.35	1615.85
763.53	1697.77
763.71	1669.09
763.89	1800.16
764.07	1755.11
764.24	1685.48
764.42	1839.08
764.60	1708.01
764.78	1703.91
764.96	1708.01
765.13	1853.41
765.31	1712.10
765.49	1742.82
765.67	1683.43
765.84	1691.62
766.02	1679.33
766.20	1658.85
766.38	1722.34
766.56	1841.12
766.73	1744.87
766.91	1621.99
767.09	1708.01
767.27	1767.40
767.44	1708.01
767.62	1738.73
767.80	1710.05
767.98	1687.53
768.15	1701.86
768.33	1785.83
768.51	1734.63
768.69	1722.34
768.87	1746.92
769.04	1734.63
769.22	1834.98
769.40	1802.21
769.58	1884.13
769.75	1763.30
769.93	1787.88
770.11	1722.34
770.28	1626.09
770.46	1775.59
770.64	1742.82
770.82	1693.67
770.99	1755.11
771.17	1753.06
771.35	1724.39
771.53	1777.64
771.70	1726.44
771.88	1701.86
772.06	1591.27
772.23	1673.19
772.41	1742.82
772.59	1603.56
772.77	1636.33
772.94	1705.96
773.12	1759.21
773.30	1751.01
773.47	1779.68
773.65	1619.94
773.83	1820.64
774.01	1763.30
774.18	1619.94
774.36	1679.33
774.54	1613.80
774.71	1720.29
774.89	1656.81
775.07	1683.43
775.24	1660.90
775.42	1724.39
775.60	1757.16
775.78	1771.49
775.95	1650.66
776.13	1601.51
776.31	1595.37
776.48	1734.63
776.66	1753.06
776.84	1652.71
777.01	1730.53
777.19	1669.09
777.37	1705.96
777.54	1810.40
777.72	1765.35
777.90	1740.77
778.07	1601.51
778.25	1896.42
778.43	1755.11
778.60	1658.85
778.78	1716.20
778.96	1847.27
779.13	1624.04
779.31	1843.17
779.49	1705.96
779.66	1775.59
779.84	1648.61
780.01	1681.38
780.19	1626.09
780.37	1738.73
780.54	1705.96
780.72	1650.66
780.90	1748.97
781.07	1720.29
781.25	1695.72
781.43	1769.44
781.60	1679.33
781.78	1718.25
781.95	1701.86
782.13	1656.81
782.31	1742.82
782.48	1583.08
782.66	1734.63
782.83	1781.73
783.01	1759.21
783.19	1751.01
783.36	1677.29
783.54	1654.76
783.72	1800.16
783.89	1705.96
784.07	1683.43
784.24	1759.21
784.42	1708.01
784.60	1695.72
784.77	1734.63
784.95	1665.00
785.12	1654.76
785.30	1695.72
785.47	1621.99
785.65	1681.38
785.83	1650.66
786.00	1634.28
786.18	1695.72
786.35	1621.99
786.53	1683.43
786.71	1789.92
786.88	1748.97
787.06	1763.30
787.23	1718.25
787.41	1656.81
787.58	1691.62
787.76	1648.61
787.94	1724.39
788.11	1730.53
788.29	1630.18
788.46	1712.10
788.64	1665.00
788.81	1665.00
788.99	1646.57
789.16	1691.62
789.34	1730.53
789.52	1621.99
789.69	1677.29
789.87	1562.60
790.04	1763.30
790.22	1710.05
790.39	1855.46
790.57	1720.29
790.74	1644.52
790.92	1751.01
791.09	1603.56
791.27	1734.63
791.44	1816.55
791.62	1683.43
791.79	1712.10
791.97	1767.40
792.15	1882.08
792.32	1753.06
792.50	1785.83
792.67	1847.27
792.85	1804.26
793.02	1703.91
793.20	1681.38
793.37	1599.46
793.55	1685.48
793.72	1683.43
793.90	1712.10
794.07	1615.85
794.25	1685.48
794.42	1718.25
794.60	1781.73
794.77	1701.86
794.95	1722.34
795.12	1691.62
795.30	1699.81
795.47	1710.05
795.65	1783.78
795.82	1773.54
796.00	1624.04
796.17	1722.34
796.34	1724.39
796.52	1751.01
796.69	1798.12
796.87	1703.91
797.04	1695.72
797.22	1791.97
797.39	1691.62
797.57	1652.71
797.74	1683.43
797.92	1742.82
798.09	1771.49
798.27	1802.21
798.44	1748.97
798.62	1742.82
798.79	1695.72
798.96	1742.82
799.14	1693.67
799.31	1898.47
799.49	1640.42
799.66	1691.62
799.84	1683.43
800.01	1646.57
800.19	1695.72
800.36	1650.66
800.53	1665.00
800.71	1722.34
800.88	1865.70
801.06	1701.86
801.23	1611.75
801.41	1671.14
801.58	1701.86
801.75	1683.43
801.93	1658.85
802.10	1705.96
802.28	1761.25
802.45	1691.62
802.63	1738.73
802.80	1728.49
802.97	1761.25
803.15	1753.06
803.32	1671.14
803.50	1685.48
803.67	1722.34
803.84	1669.09
804.02	1701.86
804.19	1644.52
804.37	1568.74
804.54	1654.76
804.71	1658.85
804.89	1662.95
805.06	1628.14
805.24	1714.15
805.41	1630.18
805.58	1665.00
805.76	1863.65
805.93	1720.29
806.10	1763.30
806.28	1742.82
806.45	1734.63
806.63	1714.15
806.80	1771.49
806.97	1683.43
807.15	1822.69
807.32	1722.34
807.49	1726.44
807.67	1722.34
807.84	1742.82
808.01	1630.18
808.19	1826.79
808.36	1791.97
808.54	1634.28
808.71	1695.72
808.88	1720.29
809.06	1765.35
809.23	1775.59
809.40	1671.14
809.58	1755.11
809.75	1675.24
809.92	1691.62
810.10	1880.04
810.27	1738.73
810.44	1665.00
810.62	1779.68
810.79	1734.63
810.96	1673.19
811.14	1687.53
811.31	1714.15
811.48	1728.49
811.66	1746.92
811.83	1765.35
812.00	1755.11
812.18	1734.63
812.35	1781.73
812.52	1640.42
812.69	1708.01
812.87	1724.39
813.04	1681.38
813.21	1746.92
813.39	1701.86
813.56	1705.96
813.73	1759.21
813.91	1705.96
814.08	1701.86
814.25	1779.68
814.42	1628.14
814.60	1806.31
814.77	1681.38
814.94	1738.73
815.12	1730.53
815.29	1724.39
815.46	1703.91
815.63	1740.77
815.81	1685.48
815.98	1691.62
816.15	1738.73
816.33	1679.33
816.50	1656.81
816.67	1624.04
816.84	1644.52
817.02	1726.44
817.19	1722.34
817.36	1744.87
817.53	1742.82
817.71	1673.19
817.88	1785.83
818.05	1667.05
818.22	1648.61
818.40	1789.92
818.57	1617.90
818.74	1732.58
818.91	1759.21
819.09	1765.35
819.26	1724.39
819.43	1658.85
819.60	1691.62
819.78	1779.68
819.95	1816.55
820.12	1671.14
820.29	1740.77
820.47	1738.73
820.64	1744.87
820.81	1640.42
820.98	1722.34
821.15	1695.72
821.33	1796.07
821.50	1648.61
821.67	1744.87
821.84	1640.42
822.02	1791.97
822.19	1703.91
822.36	1642.47
822.53	1705.96
822.70	1708.01
822.88	1689.57
823.05	1822.69
823.22	1677.29
823.39	1796.07
823.56	1662.95
823.74	1767.40
823.91	1724.39
824.08	1716.20
824.25	1656.81
824.42	1808.36
824.60	1589.22
824.77	1724.39
824.94	1728.49
825.11	1736.68
825.28	1574.89
825.45	1701.86
825.63	1677.29
825.80	1675.24
825.97	1808.36
826.14	1681.38
826.31	1646.57
826.48	1732.58
826.66	1656.81
826.83	1693.67
827.00	1748.97
827.17	1650.66
827.34	1710.05
827.51	1677.29
827.69	1757.16
827.86	1681.38
828.03	1763.30
828.20	1732.58
828.37	1634.28
828.54	1796.07
828.71	1693.67
828.89	1798.12
829.06	1695.72
829.23	1816.55
829.40	1632.23
829.57	1658.85
829.74	1662.95
829.91	1626.09
830.09	1740.77
830.26	1759.21
830.43	1794.02
830.60	1773.54
830.77	1802.21
830.94	1705.96
831.11	1808.36
831.28	1742.82
831.46	1794.02
831.63	1646.57
831.80	1740.77
831.97	1677.29
832.14	1697.77
832.31	1779.68
832.48	1681.38
832.65	1753.06
832.82	1738.73
832.99	1751.01
833.17	1644.52
833.34	1746.92
833.51	1744.87
833.68	1615.85
833.85	1781.73
834.02	1779.68
834.19	1689.57
834.36	1656.81
834.53	1699.81
834.70	1751.01
834.87	1843.17
835.04	1671.14
835.22	1654.76
835.39	1685.48
835.56	1697.77
835.73	1763.30
835.90	1738.73
836.07	1685.48
836.24	1787.88
836.41	1695.72
836.58	1628.14
836.75	1759.21
836.92	1816.55
837.09	1679.33
837.26	1775.59
837.43	1759.21
837.60	1708.01
837.77	1640.42
837.94	1734.63
838.12	1738.73
838.29	1779.68
838.46	1634.28
838.63	1640.42
838.80	1818.60
838.97	1785.83
839.14	1763.30
839.31	1611.75
839.48	1824.74
839.65	1746.92
839.82	1740.77
839.99	1730.53
840.16	1757.16
840.33	1609.70
840.50	1746.92
840.67	1746.92
840.84	1581.03
841.01	1685.48
841.18	1677.29
841.35	1732.58
841.52	1767.40
841.69	1861.60
841.86	1689.57
842.03	1703.91
842.20	1753.06
842.37	1705.96
842.54	1714.15
842.71	1701.86
842.88	1585.13
843.05	1722.34
843.22	1658.85
843.39	1740.77
843.56	1681.38
843.73	1689.57
843.90	1767.40
844.07	1740.77
844.24	1667.05
844.41	1740.77
844.58	1665.00
844.75	1746.92
844.92	1783.78
845.09	1712.10
845.26	1634.28
845.43	1701.86
845.60	1683.43
845.77	1820.64
845.94	1716.20
846.10	1742.82
846.27	1648.61
846.44	1644.52
846.61	1675.24
846.78	1748.97
846.95	1677.29
847.12	1658.85
847.29	1679.33
847.46	1689.57
847.63	1779.68
847.80	1708.01
847.97	1677.29
848.14	1875.94
848.31	1740.77
848.48	1601.51
848.65	1634.28
848.82	1679.33
848.98	1849.32
849.15	1759.21
849.32	1755.11
849.49	1699.81
849.66	1773.54
849.83	1705.96
850.00	1658.85
850.17	1724.39
850.34	1738.73
850.51	1658.85
850.68	1656.81
850.85	1849.32
851.01	1693.67
851.18	1722.34
851.35	1736.68
851.52	1662.95
851.69	1818.60
851.86	1658.85
852.03	1724.39
852.20	1751.01
852.37	1759.21
852.53	1626.09
852.70	1652.71
852.87	1777.64
853.04	1740.77
853.21	1628.14
853.38	1757.16
853.55	1820.64
853.72	1816.55
853.89	1708.01
854.05	1615.85
854.22	1665.00
854.39	1738.73
854.56	1691.62
854.73	1841.12
854.90	1656.81
855.07	1730.53
855.23	1656.81
855.40	1638.38
855.57	1718.25
855.74	1615.85
855.91	1853.41
856.08	1646.57
856.25	1673.19
856.41	1658.85
856.58	1720.29
856.75	1732.58
856.92	1632.23
857.09	1697.77
857.26	1613.80
857.42	1736.68
857.59	1796.07
857.76	1695.72
857.93	1732.58
858.10	1826.79
858.27	1691.62
858.43	1761.25
858.60	1681.38
858.77	1701.86
858.94	1705.96
859.11	1740.77
859.27	1746.92
859.44	1718.25
859.61	1816.55
859.78	1728.49
859.95	1722.34
860.12	1714.15
860.28	1798.12
860.45	1814.50
860.62	1703.91
860.79	1660.90
860.95	1677.29
861.12	1679.33
861.29	1617.90
861.46	1757.16
861.63	1691.62
861.79	1667.05
861.96	1734.63
862.13	1650.66
862.30	1746.92
862.47	1640.42
862.63	1726.44
862.80	1761.25
862.97	1826.79
863.14	1744.87
863.30	1691.62
863.47	1732.58
863.64	1767.40
863.81	1738.73
863.97	1705.96
864.14	1634.28
864.31	1617.90
864.48	1744.87
864.65	1730.53
864.81	1722.34
864.98	1732.58
865.15	1798.12
865.32	1734.63
865.48	1765.35
865.65	1777.64
865.82	1626.09
865.98	1822.69
866.15	1744.87
866.32	1656.81
866.49	1679.33
866.65	1775.59
866.82	1699.81
866.99	1769.44
867.16	1722.34
867.32	1726.44
867.49	1679.33
867.66	1683.43
867.83	1662.95
867.99	1619.94
868.16	1705.96
868.33	1654.76
868.49	1736.68
868.66	1681.38
868.83	1734.63
868.99	1673.19
869.16	1769.44
869.33	1765.35
869.50	1642.47
869.66	1658.85
869.83	1724.39
870.00	1644.52
870.16	1726.44
870.33	1712.10
870.50	1738.73
870.66	1685.48
870.83	1847.27
871.00	1689.57
871.17	1736.68
871.33	1757.16
871.50	1720.29
871.67	1757.16
871.83	1734.63
872.00	1812.45
872.17	1669.09
872.33	1777.64
872.50	1818.60
872.67	1701.86
872.83	1759.21
873.00	1720.29
873.17	1714.15
873.33	1650.66
873.50	1677.29
873.67	1712.10
873.83	1595.37
874.00	1683.43
874.16	1734.63
874.33	1740.77
874.50	1636.33
874.66	1771.49
874.83	1650.66
875.00	1822.69
875.16	1783.78
875.33	1744.87
875.50	1650.66
875.66	1705.96
875.83	1761.25
875.99	1730.53
876.16	1619.94
876.33	1648.61
876.49	1675.24
876.66	1791.97
876.83	1697.77
876.99	1568.74
877.16	1730.53
877.32	1730.53
877.49	1724.39
877.66	1796.07
877.82	1738.73
877.99	1673.19
878.15	1689.57
878.32	1652.71
878.49	1699.81
878.65	1712.10
878.82	1804.26
878.98	1712.10
879.15	1736.68
879.32	1744.87
879.48	1728.49
879.65	1632.23
879.81	1544.17
879.98	1638.38
880.15	1675.24
880.31	1728.49
880.48	1632.23
880.64	1802.21
880.81	1732.58
880.97	1746.92
881.14	1761.25
881.31	1630.18
881.47	1814.50
881.64	1689.57
881.80	1665.00
881.97	1728.49
882.13	1755.11
882.30	1644.52
882.47	1648.61
882.63	1667.05
882.80	1665.00
882.96	1714.15
883.13	1685.48
883.29	1697.77
883.46	1804.26
883.62	1753.06
883.79	1767.40
883.95	1785.83
884.12	1718.25
884.29	1730.53
884.45	1679.33
884.62	1826.79
884.78	1718.25
884.95	1742.82
885.11	1683.43
885.28	1806.31
885.44	1662.95
885.61	1796.07
885.77	1765.35
885.94	1691.62
886.10	1699.81
886.27	1742.82
886.43	1748.97
886.60	1800.16
886.76	1759.21
886.93	1669.09
887.09	1746.92
887.26	1646.57
887.42	1736.68
887.59	1763.30
887.75	1787.88
887.92	1824.74
888.08	1767.40
888.25	1798.12
888.41	1769.44
888.58	1660.90
888.74	1652.71
888.91	1650.66
>>>>>End Processed Spectral Data<<<<<
