SpectraSuite Data File
++++++++++++++++++++++++++++++++++++
Date: Mon Jun 06 13:44:37 CEST 2016
User: root
Dark Spectrum Present: No
Reference Spectrum Present: No
Number of Sampled Component Spectra: 1
Spectrometers: USB4C02835
Integration Time (usec): 100000 (USB4C02835)
Spectra Averaged: 1 (USB4C02835)
Boxcar Smoothing: 0 (USB4C02835)
Correct for Electrical Dark: No (USB4C02835)
Strobe/Lamp Enabled: No (USB4C02835)
Correct for Detector Non-linearity: No (USB4C02835)
Correct for Stray Light: No (USB4C02835)
Number of Pixels in Processed Spectrum: 3648
>>>>>Begin Processed Spectral Data<<<<<
177.47	1462.25
177.69	1462.25
177.91	1462.25
178.13	1445.87
178.36	1402.86
178.58	1746.92
178.80	1740.77
179.02	1632.23
179.24	1578.98
179.46	1683.43
179.68	1724.39
179.90	1703.91
180.13	1669.09
180.35	1621.99
180.57	1648.61
180.79	1669.09
181.01	1710.05
181.23	1718.25
181.45	1738.73
181.67	1722.34
181.90	1712.10
182.12	1617.90
182.34	1646.57
182.56	1701.86
182.78	1681.38
183.00	1714.15
183.22	1630.18
183.44	1636.33
183.66	1853.41
183.89	1802.21
184.11	1675.24
184.33	1761.25
184.55	1744.87
184.77	1740.77
184.99	1716.20
185.21	1662.95
185.43	1804.26
185.65	1636.33
185.87	1714.15
186.10	1789.92
186.32	1744.87
186.54	1769.44
186.76	1701.86
186.98	1695.72
187.20	1714.15
187.42	1660.90
187.64	1705.96
187.86	1685.48
188.08	1716.20
188.30	1691.62
188.52	1628.14
188.75	1783.78
188.97	1841.12
189.19	1640.42
189.41	1685.48
189.63	1714.15
189.85	1626.09
190.07	1638.38
190.29	1595.37
190.51	1699.81
190.73	1671.14
190.95	1775.59
191.17	1697.77
191.39	1599.46
191.61	1660.90
191.84	1591.27
192.06	1771.49
192.28	1644.52
192.50	1863.65
192.72	1710.05
192.94	1603.56
193.16	1757.16
193.38	1667.05
193.60	1658.85
193.82	1705.96
194.04	1796.07
194.26	1740.77
194.48	1736.68
194.70	1652.71
194.92	1689.57
195.14	1736.68
195.36	1621.99
195.58	1695.72
195.80	1615.85
196.02	1583.08
196.24	1662.95
196.46	1710.05
196.69	1757.16
196.91	1839.08
197.13	1689.57
197.35	1658.85
197.57	1775.59
197.79	1798.12
198.01	1683.43
198.23	1847.27
198.45	1808.36
198.67	1669.09
198.89	1744.87
199.11	1718.25
199.33	1656.81
199.55	1632.23
199.77	1673.19
199.99	1726.44
200.21	1636.33
200.43	1755.11
200.65	1609.70
200.87	1560.55
201.09	1667.05
201.31	1755.11
201.53	1718.25
201.75	1669.09
201.97	1673.19
202.19	1691.62
202.41	1746.92
202.63	1834.98
202.85	1667.05
203.07	1685.48
203.29	1693.67
203.51	1648.61
203.73	1683.43
203.95	1869.80
204.17	1755.11
204.39	1742.82
204.61	1642.47
204.83	1644.52
205.05	1802.21
205.27	1712.10
205.49	1839.08
205.71	1695.72
205.93	1636.33
206.15	1642.47
206.37	1791.97
206.59	1701.86
206.81	1718.25
207.03	1638.38
207.25	1701.86
207.47	1798.12
207.69	1714.15
207.91	1800.16
208.13	1783.78
208.34	1607.66
208.56	1640.42
208.78	1779.68
209.00	1638.38
209.22	1638.38
209.44	1638.38
209.66	1675.24
209.88	1724.39
210.10	1574.89
210.32	1669.09
210.54	1781.73
210.76	1640.42
210.98	1746.92
211.20	1578.98
211.42	1685.48
211.64	1695.72
211.86	1683.43
212.08	1730.53
212.30	1761.25
212.52	1660.90
212.74	1728.49
212.96	1699.81
213.17	1726.44
213.39	1765.35
213.61	1796.07
213.83	1701.86
214.05	1636.33
214.27	1742.82
214.49	1701.86
214.71	1679.33
214.93	1804.26
215.15	1759.21
215.37	1714.15
215.59	1529.83
215.81	1765.35
216.03	1716.20
216.24	1656.81
216.46	1675.24
216.68	1738.73
216.90	1783.78
217.12	1693.67
217.34	1773.54
217.56	1746.92
217.78	1804.26
218.00	1757.16
218.22	1757.16
218.44	1753.06
218.66	1683.43
218.87	1828.84
219.09	1662.95
219.31	1738.73
219.53	1683.43
219.75	1697.77
219.97	1675.24
220.19	1732.58
220.41	1773.54
220.63	1710.05
220.85	1683.43
221.06	1669.09
221.28	1763.30
221.50	1779.68
221.72	1710.05
221.94	1689.57
222.16	1669.09
222.38	1744.87
222.60	1767.40
222.82	1734.63
223.03	1751.01
223.25	1652.71
223.47	1730.53
223.69	1773.54
223.91	1726.44
224.13	1693.67
224.35	1583.08
224.57	1765.35
224.78	1746.92
225.00	1642.47
225.22	1681.38
225.44	1628.14
225.66	1746.92
225.88	1765.35
226.10	1757.16
226.32	1767.40
226.53	1720.29
226.75	1656.81
226.97	1648.61
227.19	1734.63
227.41	1691.62
227.63	1652.71
227.85	1605.61
228.06	1689.57
228.28	1701.86
228.50	1730.53
228.72	1593.32
228.94	1724.39
229.16	1660.90
229.37	1634.28
229.59	1710.05
229.81	1775.59
230.03	1671.14
230.25	1568.74
230.47	1607.66
230.69	1642.47
230.90	1751.01
231.12	1695.72
231.34	1681.38
231.56	1730.53
231.78	1611.75
232.00	1685.48
232.21	1716.20
232.43	1640.42
232.65	1566.70
232.87	1779.68
233.09	1607.66
233.30	1755.11
233.52	1681.38
233.74	1677.29
233.96	1685.48
234.18	1714.15
234.40	1730.53
234.61	1877.99
234.83	1640.42
235.05	1626.09
235.27	1791.97
235.49	1689.57
235.70	1726.44
235.92	1732.58
236.14	1681.38
236.36	1802.21
236.58	1685.48
236.79	1757.16
237.01	1703.91
237.23	1710.05
237.45	1785.83
237.67	1644.52
237.88	1654.76
238.10	1814.50
238.32	1634.28
238.54	1714.15
238.76	1660.90
238.97	1656.81
239.19	1652.71
239.41	1722.34
239.63	1804.26
239.85	1619.94
240.06	1646.57
240.28	1615.85
240.50	1759.21
240.72	1679.33
240.93	1673.19
241.15	1753.06
241.37	1665.00
241.59	1785.83
241.81	1759.21
242.02	1705.96
242.24	1783.78
242.46	1640.42
242.68	1671.14
242.89	1648.61
243.11	1738.73
243.33	1648.61
243.55	1769.44
243.76	1601.51
243.98	1658.85
244.20	1697.77
244.42	1658.85
244.64	1699.81
244.85	1613.80
245.07	1585.13
245.29	1771.49
245.51	1722.34
245.72	1658.85
245.94	1753.06
246.16	1703.91
246.38	1800.16
246.59	1652.71
246.81	1599.46
247.03	1736.68
247.24	1589.22
247.46	1693.67
247.68	1703.91
247.90	1656.81
248.11	1681.38
248.33	1824.74
248.55	1667.05
248.77	1726.44
248.98	1763.30
249.20	1771.49
249.42	1710.05
249.64	1771.49
249.85	1662.95
250.07	1673.19
250.29	1679.33
250.50	1779.68
250.72	1599.46
250.94	1685.48
251.16	1783.78
251.37	1798.12
251.59	1740.77
251.81	1714.15
252.02	1761.25
252.24	1621.99
252.46	1705.96
252.68	1714.15
252.89	1624.04
253.11	1597.42
253.33	1742.82
253.54	1787.88
253.76	1607.66
253.98	1701.86
254.20	1734.63
254.41	1617.90
254.63	1685.48
254.85	1685.48
255.06	1638.38
255.28	1738.73
255.50	1667.05
255.71	1648.61
255.93	1578.98
256.15	1648.61
256.36	1744.87
256.58	1712.10
256.80	1681.38
257.02	1644.52
257.23	1658.85
257.45	1646.57
257.67	1718.25
257.88	1640.42
258.10	1697.77
258.32	1763.30
258.53	1685.48
258.75	1769.44
258.97	1644.52
259.18	1716.20
259.40	1705.96
259.62	1748.97
259.83	1888.23
260.05	1654.76
260.27	1902.56
260.48	1806.31
260.70	1673.19
260.92	1726.44
261.13	1677.29
261.35	1693.67
261.57	1773.54
261.78	1650.66
262.00	1607.66
262.22	1759.21
262.43	1683.43
262.65	1656.81
262.86	1669.09
263.08	1806.31
263.30	1636.33
263.51	1578.98
263.73	1667.05
263.95	1785.83
264.16	1677.29
264.38	1605.61
264.60	1736.68
264.81	1628.14
265.03	1810.40
265.25	1740.77
265.46	1714.15
265.68	1794.02
265.89	1736.68
266.11	1572.84
266.33	1705.96
266.54	1746.92
266.76	1761.25
266.98	1693.67
267.19	1804.26
267.41	1738.73
267.62	1662.95
267.84	1587.18
268.06	1722.34
268.27	1712.10
268.49	1738.73
268.70	1718.25
268.92	1726.44
269.14	1628.14
269.35	1599.46
269.57	1697.77
269.79	1740.77
270.00	1681.38
270.22	1820.64
270.43	1703.91
270.65	1636.33
270.87	1722.34
271.08	1779.68
271.30	1767.40
271.51	1683.43
271.73	1757.16
271.95	1687.53
272.16	1656.81
272.38	1712.10
272.59	1691.62
272.81	1732.58
273.02	1691.62
273.24	1726.44
273.46	1689.57
273.67	1665.00
273.89	1654.76
274.10	1714.15
274.32	1808.36
274.54	1705.96
274.75	1773.54
274.97	1658.85
275.18	1683.43
275.40	1701.86
275.61	1665.00
275.83	1669.09
276.05	1644.52
276.26	1689.57
276.48	1734.63
276.69	1673.19
276.91	1705.96
277.12	1732.58
277.34	1742.82
277.55	1714.15
277.77	1724.39
277.99	1671.14
278.20	1667.05
278.42	1626.09
278.63	1587.18
278.85	1669.09
279.06	1638.38
279.28	1648.61
279.49	1761.25
279.71	1791.97
279.93	1681.38
280.14	1673.19
280.36	1697.77
280.57	1763.30
280.79	1705.96
281.00	1611.75
281.22	1710.05
281.43	1724.39
281.65	1613.80
281.86	1599.46
282.08	1722.34
282.29	1753.06
282.51	1613.80
282.73	1628.14
282.94	1652.71
283.16	1705.96
283.37	1763.30
283.59	1720.29
283.80	1781.73
284.02	1732.58
284.23	1746.92
284.45	1726.44
284.66	1652.71
284.88	1708.01
285.09	1726.44
285.31	1746.92
285.52	1773.54
285.74	1638.38
285.95	1779.68
286.17	1710.05
286.38	1783.78
286.60	1640.42
286.81	1675.24
287.03	1740.77
287.24	1691.62
287.46	1708.01
287.67	1708.01
287.89	1796.07
288.10	1722.34
288.32	1710.05
288.53	1769.44
288.75	1738.73
288.96	1665.00
289.18	1638.38
289.39	1718.25
289.61	1703.91
289.82	1714.15
290.04	1769.44
290.25	1611.75
290.47	1648.61
290.68	1763.30
290.90	1755.11
291.11	1654.76
291.33	1728.49
291.54	1642.47
291.76	1652.71
291.97	1710.05
292.18	1718.25
292.40	1681.38
292.61	1636.33
292.83	1828.84
293.04	1714.15
293.26	1734.63
293.47	1665.00
293.69	1701.86
293.90	1677.29
294.12	1781.73
294.33	1730.53
294.55	1714.15
294.76	1757.16
294.97	1734.63
295.19	1802.21
295.40	1677.29
295.62	1781.73
295.83	1720.29
296.05	1636.33
296.26	1759.21
296.48	1624.04
296.69	1689.57
296.90	1650.66
297.12	1734.63
297.33	1757.16
297.55	1691.62
297.76	1763.30
297.98	1775.59
298.19	1775.59
298.41	1691.62
298.62	1603.56
298.83	1787.88
299.05	1675.24
299.26	1607.66
299.48	1662.95
299.69	1710.05
299.90	1716.20
300.12	1726.44
300.33	1730.53
300.55	1671.14
300.76	1722.34
300.98	1638.38
301.19	1714.15
301.40	1701.86
301.62	1632.23
301.83	1763.30
302.05	1679.33
302.26	1734.63
302.47	1705.96
302.69	1679.33
302.90	1708.01
303.12	1597.42
303.33	1703.91
303.54	1763.30
303.76	1710.05
303.97	1656.81
304.19	1849.32
304.40	1675.24
304.61	1771.49
304.83	1875.94
305.04	1710.05
305.26	1742.82
305.47	1632.23
305.68	1779.68
305.90	1650.66
306.11	1804.26
306.33	1703.91
306.54	1712.10
306.75	1638.38
306.97	1581.03
307.18	1648.61
307.39	1673.19
307.61	1683.43
307.82	1716.20
308.04	1636.33
308.25	1607.66
308.46	1794.02
308.68	1695.72
308.89	1667.05
309.10	1724.39
309.32	1673.19
309.53	1705.96
309.74	1683.43
309.96	1761.25
310.17	1771.49
310.39	1718.25
310.60	1732.58
310.81	1773.54
311.03	1615.85
311.24	1726.44
311.45	1650.66
311.67	1826.79
311.88	1675.24
312.09	1701.86
312.31	1640.42
312.52	1708.01
312.73	1581.03
312.95	1650.66
313.16	1615.85
313.37	1800.16
313.59	1665.00
313.80	1738.73
314.01	1759.21
314.23	1660.90
314.44	1638.38
314.65	1628.14
314.87	1660.90
315.08	1574.89
315.29	1646.57
315.51	1615.85
315.72	1611.75
315.93	1785.83
316.15	1748.97
316.36	1755.11
316.57	1751.01
316.79	1714.15
317.00	1716.20
317.21	1736.68
317.43	1568.74
317.64	1689.57
317.85	1658.85
318.07	1662.95
318.28	1720.29
318.49	1773.54
318.70	1935.33
318.92	1779.68
319.13	1744.87
319.34	1837.03
319.56	1716.20
319.77	1818.60
319.98	1785.83
320.20	1722.34
320.41	1689.57
320.62	1759.21
320.83	1638.38
321.05	1877.99
321.26	1759.21
321.47	1697.77
321.69	1812.45
321.90	1607.66
322.11	1656.81
322.32	1740.77
322.54	1820.64
322.75	1654.76
322.96	1855.46
323.18	1636.33
323.39	1589.22
323.60	1628.14
323.81	1736.68
324.03	1603.56
324.24	1712.10
324.45	1775.59
324.66	1693.67
324.88	1697.77
325.09	1783.78
325.30	1681.38
325.52	1724.39
325.73	1687.53
325.94	1632.23
326.15	1619.94
326.37	1660.90
326.58	1794.02
326.79	1763.30
327.00	1605.61
327.22	1687.53
327.43	1638.38
327.64	1611.75
327.85	1726.44
328.07	1753.06
328.28	1812.45
328.49	1652.71
328.70	1640.42
328.92	1726.44
329.13	1687.53
329.34	1679.33
329.55	1783.78
329.76	1746.92
329.98	1677.29
330.19	1769.44
330.40	1734.63
330.61	1718.25
330.83	1730.53
331.04	1689.57
331.25	1697.77
331.46	1722.34
331.68	1605.61
331.89	1740.77
332.10	1632.23
332.31	1646.57
332.52	1660.90
332.74	1771.49
332.95	1581.03
333.16	1703.91
333.37	1726.44
333.58	1701.86
333.80	1708.01
334.01	1634.28
334.22	1640.42
334.43	1675.24
334.64	1642.47
334.86	1624.04
335.07	1591.27
335.28	1820.64
335.49	1652.71
335.70	1679.33
335.92	1755.11
336.13	1808.36
336.34	1830.88
336.55	1691.62
336.76	1691.62
336.98	1609.70
337.19	1710.05
337.40	1746.92
337.61	1882.08
337.82	1595.37
338.04	1705.96
338.25	1648.61
338.46	1673.19
338.67	1771.49
338.88	1716.20
339.09	1658.85
339.31	1654.76
339.52	1673.19
339.73	1708.01
339.94	1648.61
340.15	1687.53
340.36	1689.57
340.58	1714.15
340.79	1665.00
341.00	1724.39
341.21	1583.08
341.42	1785.83
341.63	1658.85
341.85	1755.11
342.06	1708.01
342.27	1648.61
342.48	1699.81
342.69	1619.94
342.90	1673.19
343.12	1665.00
343.33	1646.57
343.54	1746.92
343.75	1851.36
343.96	1662.95
344.17	1578.98
344.38	1705.96
344.60	1642.47
344.81	1609.70
345.02	1609.70
345.23	1726.44
345.44	1794.02
345.65	1757.16
345.86	1746.92
346.07	1693.67
346.29	1701.86
346.50	1748.97
346.71	1736.68
346.92	1779.68
347.13	1755.11
347.34	1632.23
347.55	1728.49
347.76	1755.11
347.98	1642.47
348.19	1718.25
348.40	1775.59
348.61	1720.29
348.82	1777.64
349.03	1763.30
349.24	1722.34
349.45	1757.16
349.66	1665.00
349.88	1718.25
350.09	1634.28
350.30	1820.64
350.51	1746.92
350.72	1718.25
350.93	1685.48
351.14	1714.15
351.35	1777.64
351.56	1701.86
351.77	1693.67
351.99	1710.05
352.20	1781.73
352.41	1798.12
352.62	1581.03
352.83	1718.25
353.04	1697.77
353.25	1714.15
353.46	1728.49
353.67	1794.02
353.88	1583.08
354.09	1662.95
354.30	1705.96
354.52	1753.06
354.73	1736.68
354.94	1689.57
355.15	1728.49
355.36	1789.92
355.57	1673.19
355.78	1652.71
355.99	1640.42
356.20	1705.96
356.41	1710.05
356.62	1658.85
356.83	1697.77
357.04	1789.92
357.25	1642.47
357.46	1728.49
357.68	1599.46
357.89	1650.66
358.10	1751.01
358.31	1640.42
358.52	1681.38
358.73	1646.57
358.94	1667.05
359.15	1636.33
359.36	1689.57
359.57	1714.15
359.78	1697.77
359.99	1757.16
360.20	1691.62
360.41	1624.04
360.62	1748.97
360.83	1644.52
361.04	1701.86
361.25	1624.04
361.46	1755.11
361.67	1765.35
361.88	1722.34
362.09	1826.79
362.30	1773.54
362.51	1638.38
362.72	1746.92
362.93	1722.34
363.14	1753.06
363.35	1736.68
363.56	1667.05
363.78	1806.31
363.99	1738.73
364.20	1673.19
364.41	1607.66
364.62	1851.36
364.83	1718.25
365.04	1667.05
365.25	1665.00
365.46	1828.84
365.67	1677.29
365.88	1568.74
366.09	1638.38
366.30	1701.86
366.51	1808.36
366.72	1619.94
366.93	1783.78
367.14	1757.16
367.35	1730.53
367.56	1599.46
367.77	1806.31
367.98	1769.44
368.18	1705.96
368.39	1757.16
368.60	1656.81
368.81	1710.05
369.02	1689.57
369.23	1689.57
369.44	1679.33
369.65	1642.47
369.86	1732.58
370.07	1748.97
370.28	1685.48
370.49	1679.33
370.70	1734.63
370.91	1667.05
371.12	1570.79
371.33	1751.01
371.54	1685.48
371.75	1867.75
371.96	1609.70
372.17	1720.29
372.38	1671.14
372.59	1720.29
372.80	1708.01
373.01	1728.49
373.22	1746.92
373.43	1624.04
373.64	1626.09
373.85	1755.11
374.06	1806.31
374.26	1767.40
374.47	1667.05
374.68	1763.30
374.89	1660.90
375.10	1669.09
375.31	1769.44
375.52	1669.09
375.73	1730.53
375.94	1687.53
376.15	1828.84
376.36	1685.48
376.57	1693.67
376.78	1689.57
376.99	1691.62
377.20	1732.58
377.40	1626.09
377.61	1771.49
377.82	1556.46
378.03	1783.78
378.24	1853.41
378.45	1662.95
378.66	1740.77
378.87	1568.74
379.08	1640.42
379.29	1634.28
379.50	1771.49
379.71	1626.09
379.91	1726.44
380.12	1697.77
380.33	1660.90
380.54	1675.24
380.75	1742.82
380.96	1687.53
381.17	1785.83
381.38	1638.38
381.59	1705.96
381.80	1705.96
382.00	1834.98
382.21	1775.59
382.42	1869.80
382.63	1839.08
382.84	1755.11
383.05	1716.20
383.26	1794.02
383.47	1701.86
383.68	1724.39
383.88	1730.53
384.09	1708.01
384.30	1834.98
384.51	1720.29
384.72	1632.23
384.93	1642.47
385.14	1720.29
385.35	1837.03
385.55	1648.61
385.76	1771.49
385.97	1701.86
386.18	1650.66
386.39	1642.47
386.60	1665.00
386.81	1671.14
387.02	1722.34
387.22	1603.56
387.43	1800.16
387.64	1777.64
387.85	1959.91
388.06	2146.27
388.27	4347.84
388.48	6823.83
388.68	8212.35
388.89	9633.64
389.10	10106.73
389.31	8634.24
389.52	7649.16
389.73	6674.33
389.93	6240.16
390.14	5924.77
390.35	5232.56
390.56	4544.44
390.77	3923.91
390.98	3063.76
391.18	2439.13
391.39	2109.41
391.60	1849.32
391.81	1837.03
392.02	1740.77
392.23	1859.56
392.43	1783.78
392.64	1843.17
392.85	1695.72
393.06	1777.64
393.27	1712.10
393.47	1777.64
393.68	1748.97
393.89	1654.76
394.10	1847.27
394.31	1691.62
394.52	1669.09
394.72	1681.38
394.93	1804.26
395.14	1673.19
395.35	1734.63
395.56	1648.61
395.76	1701.86
395.97	1884.13
396.18	1869.80
396.39	1777.64
396.60	2027.49
396.80	1894.37
397.01	1828.84
397.22	1800.16
397.43	1871.84
397.64	1791.97
397.84	1931.23
398.05	1814.50
398.26	1763.30
398.47	1816.55
398.67	1755.11
398.88	1716.20
399.09	1652.71
399.30	1744.87
399.51	1742.82
399.71	1617.90
399.92	1658.85
400.13	1726.44
400.34	1699.81
400.54	1736.68
400.75	1816.55
400.96	1728.49
401.17	1837.03
401.37	1767.40
401.58	1681.38
401.79	1691.62
402.00	1914.85
402.21	1980.39
402.41	2041.82
402.62	1998.82
402.83	2013.15
403.04	2009.06
403.24	2035.68
403.45	1841.12
403.66	1841.12
403.87	1867.75
404.07	1832.93
404.28	1861.60
404.49	1894.37
404.70	1730.53
404.90	1730.53
405.11	1814.50
405.32	1753.06
405.52	1722.34
405.73	1654.76
405.94	1677.29
406.15	1636.33
406.35	1748.97
406.56	1777.64
406.77	1697.77
406.98	1759.21
407.18	1667.05
407.39	1746.92
407.60	1685.48
407.80	1781.73
408.01	1761.25
408.22	1660.90
408.43	1609.70
408.63	1730.53
408.84	1734.63
409.05	1775.59
409.25	1669.09
409.46	1705.96
409.67	1718.25
409.88	1701.86
410.08	1708.01
410.29	1740.77
410.50	1732.58
410.70	1689.57
410.91	1673.19
411.12	1761.25
411.32	1689.57
411.53	1609.70
411.74	1798.12
411.95	1695.72
412.15	1738.73
412.36	1748.97
412.57	1775.59
412.77	1814.50
412.98	1767.40
413.19	1591.27
413.39	1771.49
413.60	1755.11
413.81	1800.16
414.01	1675.24
414.22	1736.68
414.43	1808.36
414.63	1689.57
414.84	1763.30
415.05	1728.49
415.25	1687.53
415.46	1765.35
415.67	1669.09
415.87	1814.50
416.08	1689.57
416.29	1640.42
416.49	1718.25
416.70	1634.28
416.91	1660.90
417.11	1699.81
417.32	1677.29
417.53	1710.05
417.73	1677.29
417.94	1697.77
418.15	1726.44
418.35	1677.29
418.56	1753.06
418.77	1794.02
418.97	1738.73
419.18	1687.53
419.38	1624.04
419.59	1722.34
419.80	1804.26
420.00	1714.15
420.21	1734.63
420.42	1730.53
420.62	1712.10
420.83	1605.61
421.04	1738.73
421.24	1644.52
421.45	1808.36
421.65	1787.88
421.86	1708.01
422.07	1808.36
422.27	1724.39
422.48	1746.92
422.69	1701.86
422.89	1693.67
423.10	1626.09
423.30	1660.90
423.51	1738.73
423.72	1714.15
423.92	1773.54
424.13	1677.29
424.33	1781.73
424.54	1757.16
424.75	1742.82
424.95	1781.73
425.16	1757.16
425.36	1710.05
425.57	1720.29
425.78	1669.09
425.98	1722.34
426.19	1712.10
426.39	1654.76
426.60	1753.06
426.81	1777.64
427.01	1648.61
427.22	1665.00
427.42	1601.51
427.63	1667.05
427.83	1763.30
428.04	1900.52
428.25	1783.78
428.45	1777.64
428.66	1746.92
428.86	1716.20
429.07	1705.96
429.28	1787.88
429.48	1634.28
429.69	1650.66
429.89	1730.53
430.10	1621.99
430.30	1785.83
430.51	1767.40
430.71	1621.99
430.92	1757.16
431.13	1683.43
431.33	1714.15
431.54	1710.05
431.74	1810.40
431.95	1841.12
432.15	1650.66
432.36	1751.01
432.56	1708.01
432.77	1812.45
432.98	1769.44
433.18	1710.05
433.39	1667.05
433.59	1665.00
433.80	1859.56
434.00	1923.04
434.21	1687.53
434.41	1632.23
434.62	1814.50
434.82	1613.80
435.03	1718.25
435.23	1634.28
435.44	1619.94
435.64	1720.29
435.85	1726.44
436.06	1796.07
436.26	1701.86
436.47	1656.81
436.67	1669.09
436.88	1726.44
437.08	1775.59
437.29	1748.97
437.49	1746.92
437.70	1796.07
437.90	1687.53
438.11	1871.84
438.31	1732.58
438.52	1912.80
438.72	1880.04
438.93	1951.71
439.13	1757.16
439.34	1861.60
439.54	1789.92
439.75	1767.40
439.95	1810.40
440.16	1718.25
440.36	1783.78
440.57	1789.92
440.77	1779.68
440.98	1785.83
441.18	1769.44
441.39	1718.25
441.59	1712.10
441.80	1744.87
442.00	1734.63
442.21	1820.64
442.41	1734.63
442.62	1763.30
442.82	1726.44
443.02	1712.10
443.23	1779.68
443.43	1697.77
443.64	1798.12
443.84	1615.85
444.05	1769.44
444.25	1781.73
444.46	1669.09
444.66	1808.36
444.87	1898.47
445.07	1669.09
445.28	1757.16
445.48	1746.92
445.69	1724.39
445.89	1828.84
446.09	1841.12
446.30	2025.44
446.50	2607.06
446.71	3807.17
446.91	4276.16
447.12	4802.49
447.32	4855.73
447.53	4306.88
447.73	3966.92
447.93	3532.75
448.14	3360.72
448.34	3338.19
448.55	2848.72
448.75	2824.15
448.96	2756.57
449.16	2412.51
449.36	2293.72
449.57	2074.59
449.77	1894.37
449.98	1804.26
450.18	1824.74
450.39	1765.35
450.59	1763.30
450.79	1667.05
451.00	1681.38
451.20	1685.48
451.41	1699.81
451.61	1775.59
451.81	1677.29
452.02	1677.29
452.22	1781.73
452.43	1716.20
452.63	1726.44
452.84	1689.57
453.04	1798.12
453.24	1773.54
453.45	1755.11
453.65	1724.39
453.86	1730.53
454.06	1679.33
454.26	1757.16
454.47	1705.96
454.67	1851.36
454.87	1744.87
455.08	1695.72
455.28	1775.59
455.49	1777.64
455.69	1640.42
455.89	1826.79
456.10	1834.98
456.30	1697.77
456.51	1802.21
456.71	1701.86
456.91	1726.44
457.12	1730.53
457.32	1728.49
457.52	1724.39
457.73	1781.73
457.93	1767.40
458.14	1710.05
458.34	1669.09
458.54	1624.04
458.75	1691.62
458.95	1787.88
459.15	1714.15
459.36	1781.73
459.56	1667.05
459.76	1839.08
459.97	1783.78
460.17	1849.32
460.37	1759.21
460.58	1683.43
460.78	1742.82
460.99	1775.59
461.19	1742.82
461.39	1791.97
461.60	1726.44
461.80	1806.31
462.00	1642.47
462.21	1683.43
462.41	1656.81
462.61	1591.27
462.82	1681.38
463.02	1783.78
463.22	1767.40
463.43	1841.12
463.63	1798.12
463.83	1861.60
464.04	1683.43
464.24	1738.73
464.44	1697.77
464.64	1683.43
464.85	1724.39
465.05	1800.16
465.25	1722.34
465.46	1710.05
465.66	1794.02
465.86	1677.29
466.07	1746.92
466.27	1665.00
466.47	1593.32
466.68	1564.65
466.88	1718.25
467.08	1759.21
467.29	1769.44
467.49	1781.73
467.69	1718.25
467.89	1808.36
468.10	1716.20
468.30	1712.10
468.50	1814.50
468.71	1697.77
468.91	1681.38
469.11	1808.36
469.31	1779.68
469.52	1708.01
469.72	1834.98
469.92	1853.41
470.13	1708.01
470.33	1798.12
470.53	1816.55
470.73	2117.60
470.94	2222.05
471.14	2238.43
471.34	2568.15
471.54	2371.55
471.75	2232.29
471.95	2121.70
472.15	2123.74
472.36	2107.36
472.56	2000.87
472.76	2099.17
472.96	1941.47
473.17	1849.32
473.37	1900.52
473.57	1779.68
473.77	1800.16
473.98	1800.16
474.18	1730.53
474.38	1882.08
474.58	1697.77
474.79	1648.61
474.99	1757.16
475.19	1734.63
475.39	1748.97
475.60	1697.77
475.80	1800.16
476.00	1757.16
476.20	1699.81
476.41	1644.52
476.61	1779.68
476.81	1789.92
477.01	1632.23
477.21	1808.36
477.42	1814.50
477.62	1628.14
477.82	1789.92
478.02	1693.67
478.23	1716.20
478.43	1669.09
478.63	1656.81
478.83	1687.53
479.03	1697.77
479.24	1787.88
479.44	1785.83
479.64	1726.44
479.84	1601.51
480.04	1658.85
480.25	1738.73
480.45	1708.01
480.65	1705.96
480.85	1787.88
481.06	1642.47
481.26	1701.86
481.46	1787.88
481.66	1712.10
481.86	1617.90
482.06	1787.88
482.27	1769.44
482.47	1644.52
482.67	1691.62
482.87	1603.56
483.07	1779.68
483.28	1697.77
483.48	1691.62
483.68	1624.04
483.88	1665.00
484.08	1595.37
484.29	1615.85
484.49	1679.33
484.69	1617.90
484.89	1808.36
485.09	1693.67
485.29	1667.05
485.50	1730.53
485.70	1599.46
485.90	1785.83
486.10	1751.01
486.30	1724.39
486.50	1757.16
486.71	1705.96
486.91	1794.02
487.11	1771.49
487.31	1632.23
487.51	1742.82
487.71	1738.73
487.91	1628.14
488.12	1660.90
488.32	1624.04
488.52	1669.09
488.72	1550.31
488.92	1726.44
489.12	1742.82
489.32	1724.39
489.53	1734.63
489.73	1603.56
489.93	1824.74
490.13	1746.92
490.33	1609.70
490.53	1734.63
490.73	1828.84
490.94	1687.53
491.14	1806.31
491.34	1910.75
491.54	2064.35
491.74	2523.10
491.94	2803.67
492.14	3082.19
492.34	2949.08
492.54	2695.13
492.75	2459.61
492.95	2398.17
493.15	2297.82
493.35	2246.62
493.55	2260.96
493.75	2168.80
493.95	2127.84
494.15	1970.15
494.35	1931.23
494.56	1877.99
494.76	1720.29
494.96	1853.41
495.16	1765.35
495.36	1787.88
495.56	1736.68
495.76	1693.67
495.96	1667.05
496.16	1638.38
496.36	1820.64
496.56	1705.96
496.77	1800.16
496.97	1720.29
497.17	1857.51
497.37	1673.19
497.57	1779.68
497.77	1701.86
497.97	1687.53
498.17	1775.59
498.37	1724.39
498.57	1763.30
498.77	1683.43
498.97	1753.06
499.17	1845.22
499.38	1656.81
499.58	1687.53
499.78	1837.03
499.98	1753.06
500.18	1740.77
500.38	1699.81
500.58	1982.43
500.78	2541.53
500.98	4485.05
501.18	5894.05
501.38	6856.60
501.58	7065.49
501.78	6616.99
501.98	5531.56
502.18	5138.35
502.38	4444.09
502.58	4157.38
502.78	3696.58
502.98	3848.13
503.18	3450.83
503.38	3190.74
503.59	2795.48
503.79	2645.98
503.99	2521.05
504.19	2357.21
504.39	2207.71
504.59	2170.85
504.79	2176.99
504.99	2045.92
505.19	1912.80
505.39	1927.14
505.59	2007.01
505.79	1947.62
505.99	1839.08
506.19	1816.55
506.39	1910.75
506.59	1730.53
506.79	1730.53
506.99	1697.77
507.19	1824.74
507.39	1687.53
507.59	1689.57
507.79	1648.61
507.99	1765.35
508.19	1701.86
508.39	1718.25
508.59	1748.97
508.79	1804.26
508.99	1832.93
509.19	1693.67
509.39	1683.43
509.59	1699.81
509.79	1693.67
509.99	1759.21
510.19	1796.07
510.39	1796.07
510.59	1642.47
510.79	1636.33
510.99	1705.96
511.19	1722.34
511.39	1789.92
511.59	1755.11
511.79	1816.55
511.99	1765.35
512.19	1748.97
512.38	1658.85
512.58	1708.01
512.78	1660.90
512.98	1808.36
513.18	1826.79
513.38	1708.01
513.58	1794.02
513.78	1751.01
513.98	1689.57
514.18	1667.05
514.38	1710.05
514.58	1701.86
514.78	1689.57
514.98	1597.42
515.18	1650.66
515.38	1642.47
515.58	1863.65
515.78	1689.57
515.98	1718.25
516.18	1732.58
516.38	1681.38
516.57	1683.43
516.77	1656.81
516.97	1751.01
517.17	1679.33
517.37	1740.77
517.57	1861.60
517.77	1716.20
517.97	1673.19
518.17	1695.72
518.37	1757.16
518.57	1708.01
518.77	1746.92
518.97	1662.95
519.16	1740.77
519.36	1861.60
519.56	1710.05
519.76	1722.34
519.96	1738.73
520.16	1744.87
520.36	1660.90
520.56	1746.92
520.76	1669.09
520.96	1701.86
521.16	1812.45
521.35	1742.82
521.55	1816.55
521.75	1789.92
521.95	1732.58
522.15	1677.29
522.35	1650.66
522.55	1658.85
522.75	1771.49
522.95	1765.35
523.14	1701.86
523.34	1828.84
523.54	1611.75
523.74	1800.16
523.94	1683.43
524.14	1636.33
524.34	1763.30
524.54	1794.02
524.73	1708.01
524.93	1720.29
525.13	1814.50
525.33	1710.05
525.53	1892.32
525.73	1789.92
525.93	1691.62
526.13	1665.00
526.32	1755.11
526.52	1804.26
526.72	1730.53
526.92	1734.63
527.12	1683.43
527.32	1695.72
527.52	1755.11
527.71	1738.73
527.91	1783.78
528.11	1701.86
528.31	1806.31
528.51	1591.27
528.71	1748.97
528.90	1736.68
529.10	1744.87
529.30	1777.64
529.50	1581.03
529.70	1716.20
529.90	1675.24
530.09	1697.77
530.29	1671.14
530.49	1660.90
530.69	1851.36
530.89	1712.10
531.09	1708.01
531.28	1630.18
531.48	1816.55
531.68	1757.16
531.88	1765.35
532.08	1773.54
532.28	1693.67
532.47	1701.86
532.67	1771.49
532.87	1665.00
533.07	1654.76
533.27	1800.16
533.46	1763.30
533.66	1718.25
533.86	1722.34
534.06	1687.53
534.26	1716.20
534.45	1656.81
534.65	1771.49
534.85	1726.44
535.05	1757.16
535.25	1822.69
535.44	1656.81
535.64	1820.64
535.84	1705.96
536.04	1697.77
536.24	1718.25
536.43	1636.33
536.63	1734.63
536.83	1687.53
537.03	1695.72
537.22	1722.34
537.42	1632.23
537.62	1767.40
537.82	1671.14
538.02	1789.92
538.21	1791.97
538.41	1871.84
538.61	1804.26
538.81	1689.57
539.00	1806.31
539.20	1632.23
539.40	1710.05
539.60	1718.25
539.79	1783.78
539.99	1687.53
540.19	1744.87
540.39	1658.85
540.58	1691.62
540.78	1808.36
540.98	1796.07
541.18	1761.25
541.37	1806.31
541.57	1746.92
541.77	1728.49
541.97	1660.90
542.16	1634.28
542.36	1765.35
542.56	1720.29
542.76	1826.79
542.95	1808.36
543.15	1691.62
543.35	1757.16
543.54	1701.86
543.74	1746.92
543.94	1812.45
544.14	1771.49
544.33	1710.05
544.53	1720.29
544.73	1695.72
544.93	1755.11
545.12	1746.92
545.32	1693.67
545.52	1722.34
545.71	1609.70
545.91	1673.19
546.11	1660.90
546.30	1703.91
546.50	1705.96
546.70	1787.88
546.90	1730.53
547.09	1708.01
547.29	1705.96
547.49	1751.01
547.68	1689.57
547.88	1662.95
548.08	1738.73
548.27	2172.89
548.47	1636.33
548.67	1650.66
548.87	1828.84
549.06	1724.39
549.26	1701.86
549.46	1644.52
549.65	1720.29
549.85	1763.30
550.05	1693.67
550.24	1701.86
550.44	1722.34
550.64	1728.49
550.83	1677.29
551.03	1818.60
551.23	1728.49
551.42	1787.88
551.62	1705.96
551.82	1730.53
552.01	1648.61
552.21	1697.77
552.41	1767.40
552.60	1882.08
552.80	1787.88
553.00	1761.25
553.19	1834.98
553.39	1812.45
553.59	1638.38
553.78	1775.59
553.98	1763.30
554.17	1601.51
554.37	1824.74
554.57	1796.07
554.76	1755.11
554.96	1681.38
555.16	1740.77
555.35	1800.16
555.55	1699.81
555.75	1765.35
555.94	1791.97
556.14	1628.14
556.33	1816.55
556.53	1824.74
556.73	1804.26
556.92	1779.68
557.12	1820.64
557.32	1908.71
557.51	1804.26
557.71	1814.50
557.90	1828.84
558.10	1798.12
558.30	1716.20
558.49	1751.01
558.69	1710.05
558.88	1775.59
559.08	1669.09
559.28	1701.86
559.47	1787.88
559.67	1794.02
559.86	1855.46
560.06	1826.79
560.26	1679.33
560.45	1783.78
560.65	1665.00
560.84	1818.60
561.04	1705.96
561.24	1814.50
561.43	1677.29
561.63	1834.98
561.82	1783.78
562.02	1736.68
562.22	1689.57
562.41	1734.63
562.61	1738.73
562.80	1648.61
563.00	1724.39
563.19	1691.62
563.39	1826.79
563.59	1687.53
563.78	1677.29
563.98	1648.61
564.17	1693.67
564.37	1632.23
564.56	1705.96
564.76	1677.29
564.96	1791.97
565.15	1798.12
565.35	1945.57
565.54	1738.73
565.74	1800.16
565.93	1724.39
566.13	1744.87
566.32	1773.54
566.52	1787.88
566.71	1759.21
566.91	1701.86
567.11	1738.73
567.30	1722.34
567.50	1781.73
567.69	1763.30
567.89	1771.49
568.08	1677.29
568.28	1761.25
568.47	1697.77
568.67	1701.86
568.86	1669.09
569.06	1798.12
569.25	1701.86
569.45	1665.00
569.64	1753.06
569.84	1660.90
570.04	1771.49
570.23	1732.58
570.43	1720.29
570.62	1738.73
570.82	1808.36
571.01	1703.91
571.21	1685.48
571.40	1679.33
571.60	1767.40
571.79	1773.54
571.99	1761.25
572.18	1605.61
572.38	1708.01
572.57	1732.58
572.77	1763.30
572.96	1871.84
573.16	1736.68
573.35	1720.29
573.55	1822.69
573.74	1794.02
573.94	1677.29
574.13	1746.92
574.33	1794.02
574.52	1785.83
574.71	1820.64
574.91	1763.30
575.10	1722.34
575.30	1673.19
575.49	1708.01
575.69	1673.19
575.88	1751.01
576.08	1734.63
576.27	1800.16
576.47	1744.87
576.66	1818.60
576.86	1796.07
577.05	1699.81
577.25	1787.88
577.44	1847.27
577.64	1689.57
577.83	1769.44
578.02	1751.01
578.22	1789.92
578.41	1886.18
578.61	1683.43
578.80	1759.21
579.00	1701.86
579.19	1757.16
579.39	1753.06
579.58	1740.77
579.77	1771.49
579.97	1791.97
580.16	1910.75
580.36	1789.92
580.55	1804.26
580.75	1755.11
580.94	1738.73
581.13	1785.83
581.33	1810.40
581.52	1683.43
581.72	1888.23
581.91	1828.84
582.11	1726.44
582.30	1787.88
582.49	1738.73
582.69	1841.12
582.88	1877.99
583.08	1740.77
583.27	1722.34
583.47	1736.68
583.66	1779.68
583.85	1656.81
584.05	1789.92
584.24	1804.26
584.44	1796.07
584.63	1812.45
584.82	1920.99
585.02	1740.77
585.21	1875.94
585.41	1857.51
585.60	1808.36
585.79	1931.23
585.99	1951.71
586.18	1834.98
586.37	2199.52
586.57	3381.20
586.76	10102.63
586.96	24700.55
587.15	35077.61
587.34	41026.96
587.54	42581.37
587.73	36953.55
587.93	26908.26
588.12	21700.28
588.31	18538.21
588.51	16373.51
588.70	15492.88
588.89	14448.42
589.09	12621.63
589.28	11077.46
589.47	9486.19
589.67	8140.68
589.86	6522.78
590.06	4986.80
590.25	3956.68
590.44	3071.95
590.64	2619.35
590.83	2228.19
591.02	2068.45
591.22	2033.63
591.41	1882.08
591.60	1804.26
591.80	1914.85
591.99	1740.77
592.18	1802.21
592.38	1851.36
592.57	1785.83
592.76	1814.50
592.96	1738.73
593.15	1779.68
593.34	1841.12
593.54	1681.38
593.73	1796.07
593.92	1771.49
594.12	1685.48
594.31	1726.44
594.50	1802.21
594.70	1806.31
594.89	1875.94
595.08	1667.05
595.28	1773.54
595.47	1949.67
595.66	1730.53
595.86	1630.18
596.05	1730.53
596.24	1738.73
596.43	1763.30
596.63	1843.17
596.82	1757.16
597.01	1718.25
597.21	1818.60
597.40	1816.55
597.59	1761.25
597.79	1675.24
597.98	1724.39
598.17	1787.88
598.36	1726.44
598.56	1701.86
598.75	1693.67
598.94	1681.38
599.14	1771.49
599.33	1753.06
599.52	1771.49
599.71	1738.73
599.91	1785.83
600.10	1783.78
600.29	1716.20
600.48	1650.66
600.68	1755.11
600.87	1708.01
601.06	1701.86
601.26	1718.25
601.45	1763.30
601.64	1800.16
601.83	1910.75
602.03	1789.92
602.22	1689.57
602.41	1751.01
602.60	1830.88
602.80	1671.14
602.99	1800.16
603.18	1685.48
603.37	1736.68
603.57	1708.01
603.76	1783.78
603.95	1853.41
604.14	1718.25
604.34	1755.11
604.53	1798.12
604.72	1751.01
604.91	1726.44
605.10	1845.22
605.30	1656.81
605.49	1861.60
605.68	1722.34
605.87	1728.49
606.07	1634.28
606.26	1669.09
606.45	1714.15
606.64	1691.62
606.84	1806.31
607.03	1665.00
607.22	1820.64
607.41	1654.76
607.60	1705.96
607.80	1740.77
607.99	1728.49
608.18	1734.63
608.37	1742.82
608.56	1628.14
608.76	1714.15
608.95	1767.40
609.14	1740.77
609.33	1765.35
609.52	1779.68
609.72	1697.77
609.91	1812.45
610.10	1755.11
610.29	1843.17
610.48	1834.98
610.68	1796.07
610.87	1669.09
611.06	1826.79
611.25	1714.15
611.44	1710.05
611.63	1703.91
611.83	1839.08
612.02	1673.19
612.21	1800.16
612.40	1583.08
612.59	1730.53
612.79	1644.52
612.98	1722.34
613.17	1834.98
613.36	1724.39
613.55	1855.46
613.74	1634.28
613.93	1701.86
614.13	1626.09
614.32	1789.92
614.51	1755.11
614.70	1699.81
614.89	1683.43
615.08	1761.25
615.28	2041.82
615.47	1611.75
615.66	1685.48
615.85	1681.38
616.04	1810.40
616.23	1740.77
616.42	1640.42
616.62	1703.91
616.81	1779.68
617.00	1673.19
617.19	1767.40
617.38	1736.68
617.57	1720.29
617.76	1757.16
617.95	1755.11
618.15	1757.16
618.34	1769.44
618.53	1652.71
618.72	1777.64
618.91	1837.03
619.10	1865.70
619.29	1796.07
619.48	1748.97
619.68	1658.85
619.87	1671.14
620.06	1695.72
620.25	1736.68
620.44	1720.29
620.63	1654.76
620.82	1728.49
621.01	1732.58
621.20	1679.33
621.39	1695.72
621.59	1693.67
621.78	1710.05
621.97	1746.92
622.16	1771.49
622.35	1730.53
622.54	1824.74
622.73	1832.93
622.92	1583.08
623.11	1816.55
623.30	1787.88
623.49	1673.19
623.68	1701.86
623.88	1802.21
624.07	1757.16
624.26	1722.34
624.45	1804.26
624.64	1742.82
624.83	1761.25
625.02	1732.58
625.21	1755.11
625.40	1718.25
625.59	1859.56
625.78	1755.11
625.97	1779.68
626.16	1820.64
626.35	1753.06
626.54	1693.67
626.74	1771.49
626.93	1748.97
627.12	1738.73
627.31	1759.21
627.50	1705.96
627.69	1787.88
627.88	1654.76
628.07	1677.29
628.26	1662.95
628.45	1632.23
628.64	1630.18
628.83	1685.48
629.02	1662.95
629.21	1822.69
629.40	1693.67
629.59	1734.63
629.78	1644.52
629.97	1736.68
630.16	1673.19
630.35	1705.96
630.54	1777.64
630.73	1789.92
630.92	1761.25
631.11	1648.61
631.30	1734.63
631.49	1789.92
631.68	1626.09
631.87	1675.24
632.06	1691.62
632.25	1771.49
632.44	1687.53
632.63	1697.77
632.82	1675.24
633.01	1634.28
633.20	1691.62
633.39	1634.28
633.58	1638.38
633.77	1742.82
633.96	1748.97
634.15	1726.44
634.34	1779.68
634.53	1794.02
634.72	1744.87
634.91	1677.29
635.10	1796.07
635.29	1726.44
635.48	1755.11
635.67	1712.10
635.86	1685.48
636.05	1785.83
636.24	1710.05
636.43	1671.14
636.62	1740.77
636.81	1626.09
637.00	1771.49
637.19	1693.67
637.38	1708.01
637.57	1648.61
637.76	1665.00
637.95	1642.47
638.14	1673.19
638.33	1744.87
638.52	1656.81
638.71	1611.75
638.89	1624.04
639.08	1849.32
639.27	1708.01
639.46	1662.95
639.65	1845.22
639.84	1753.06
640.03	1722.34
640.22	1714.15
640.41	1796.07
640.60	1662.95
640.79	1746.92
640.98	1656.81
641.17	1748.97
641.36	1777.64
641.55	1730.53
641.74	1585.13
641.92	1699.81
642.11	1681.38
642.30	1705.96
642.49	1632.23
642.68	1724.39
642.87	1683.43
643.06	1734.63
643.25	1599.46
643.44	1742.82
643.63	1734.63
643.82	1751.01
644.00	1628.14
644.19	1748.97
644.38	1683.43
644.57	1796.07
644.76	1763.30
644.95	1681.38
645.14	1699.81
645.33	1716.20
645.52	1662.95
645.71	1634.28
645.89	1697.77
646.08	1726.44
646.27	1634.28
646.46	1757.16
646.65	1734.63
646.84	1763.30
647.03	1630.18
647.22	1830.88
647.40	1722.34
647.59	1691.62
647.78	1634.28
647.97	1681.38
648.16	1654.76
648.35	1775.59
648.54	1812.45
648.73	1716.20
648.91	1740.77
649.10	1675.24
649.29	1689.57
649.48	1738.73
649.67	1771.49
649.86	1632.23
650.05	1626.09
650.23	1783.78
650.42	1660.90
650.61	1748.97
650.80	1714.15
650.99	1779.68
651.18	1755.11
651.36	1789.92
651.55	1669.09
651.74	1789.92
651.93	1677.29
652.12	1685.48
652.31	1632.23
652.49	1734.63
652.68	1691.62
652.87	1771.49
653.06	1667.05
653.25	1779.68
653.44	1751.01
653.62	1787.88
653.81	1740.77
654.00	1691.62
654.19	1830.88
654.38	1828.84
654.56	1789.92
654.75	1644.52
654.94	1759.21
655.13	1714.15
655.32	1736.68
655.51	1734.63
655.69	1652.71
655.88	1804.26
656.07	1683.43
656.26	1689.57
656.45	1638.38
656.63	1742.82
656.82	1697.77
657.01	1832.93
657.20	1787.88
657.38	1798.12
657.57	1638.38
657.76	1673.19
657.95	1767.40
658.14	1705.96
658.32	1755.11
658.51	1673.19
658.70	1816.55
658.89	1699.81
659.08	1722.34
659.26	1771.49
659.45	1724.39
659.64	1693.67
659.83	1638.38
660.01	1867.75
660.20	1673.19
660.39	1794.02
660.58	1703.91
660.76	1759.21
660.95	1683.43
661.14	1693.67
661.33	1576.94
661.51	1669.09
661.70	1685.48
661.89	1720.29
662.08	1718.25
662.26	1669.09
662.45	1691.62
662.64	1841.12
662.83	1761.25
663.01	1619.94
663.20	1724.39
663.39	1869.80
663.58	1660.90
663.76	1767.40
663.95	1730.53
664.14	1656.81
664.32	1701.86
664.51	1652.71
664.70	1583.08
664.89	1769.44
665.07	1662.95
665.26	1771.49
665.45	1646.57
665.64	1736.68
665.82	1736.68
666.01	1767.40
666.20	1644.52
666.38	1789.92
666.57	1761.25
666.76	2148.32
666.95	4450.24
667.13	10495.84
667.32	15542.03
667.51	18145.00
667.69	19252.95
667.88	17899.25
668.07	12586.82
668.25	9670.51
668.44	8337.28
668.63	7452.56
668.81	7038.87
669.00	6307.74
669.19	5769.13
669.38	5207.98
669.56	4560.83
669.75	3983.30
669.94	3465.16
670.12	2951.12
670.31	2566.10
670.50	2320.35
670.68	2076.64
670.87	1896.42
671.06	1804.26
671.24	1800.16
671.43	1873.89
671.62	1710.05
671.80	1716.20
671.99	1701.86
672.18	1728.49
672.36	1843.17
672.55	1714.15
672.74	1703.91
672.92	1662.95
673.11	1667.05
673.29	1671.14
673.48	1730.53
673.67	1697.77
673.85	1812.45
674.04	1697.77
674.23	1683.43
674.41	1824.74
674.60	1624.04
674.79	1650.66
674.97	1697.77
675.16	1822.69
675.34	1804.26
675.53	1644.52
675.72	1705.96
675.90	1810.40
676.09	1675.24
676.28	1703.91
676.46	1746.92
676.65	1771.49
676.83	1697.77
677.02	1791.97
677.21	1705.96
677.39	1675.24
677.58	1753.06
677.77	1693.67
677.95	1667.05
678.14	1665.00
678.32	1705.96
678.51	1677.29
678.70	1816.55
678.88	1708.01
679.07	1673.19
679.25	1642.47
679.44	1673.19
679.63	1605.61
679.81	1714.15
680.00	1734.63
680.18	1791.97
680.37	1820.64
680.55	1718.25
680.74	1699.81
680.93	1654.76
681.11	1710.05
681.30	1693.67
681.48	1779.68
681.67	1656.81
681.85	1751.01
682.04	1607.66
682.23	1781.73
682.41	1755.11
682.60	1636.33
682.78	1685.48
682.97	1624.04
683.15	1736.68
683.34	1712.10
683.53	1775.59
683.71	1603.56
683.90	1759.21
684.08	1816.55
684.27	1675.24
684.45	1718.25
684.64	1738.73
684.82	1716.20
685.01	1779.68
685.19	1677.29
685.38	1787.88
685.57	1755.11
685.75	1671.14
685.94	1611.75
686.12	1626.09
686.31	1738.73
686.49	1798.12
686.68	1583.08
686.86	1775.59
687.05	1691.62
687.23	1789.92
687.42	1658.85
687.60	1558.50
687.79	1734.63
687.97	1781.73
688.16	1708.01
688.34	1726.44
688.53	1656.81
688.71	1761.25
688.90	1755.11
689.08	1650.66
689.27	1665.00
689.45	1736.68
689.64	1673.19
689.82	1761.25
690.01	1773.54
690.19	1763.30
690.38	1662.95
690.56	1740.77
690.75	1615.85
690.93	1626.09
691.12	1619.94
691.30	1708.01
691.49	1722.34
691.67	1724.39
691.86	1757.16
692.04	1654.76
692.23	1710.05
692.41	1693.67
692.60	1755.11
692.78	1734.63
692.97	1679.33
693.15	1685.48
693.34	1837.03
693.52	1689.57
693.71	1677.29
693.89	1628.14
694.08	1640.42
694.26	1757.16
694.44	1773.54
694.63	1742.82
694.81	1619.94
695.00	1679.33
695.18	1828.84
695.37	1720.29
695.55	1708.01
695.74	1757.16
695.92	1697.77
696.10	1802.21
696.29	1681.38
696.47	1652.71
696.66	1679.33
696.84	1624.04
697.03	1697.77
697.21	1755.11
697.40	2324.44
697.58	1832.93
697.76	1693.67
697.95	1634.28
698.13	1591.27
698.32	1630.18
698.50	1742.82
698.68	1716.20
698.87	1730.53
699.05	1904.61
699.24	1687.53
699.42	1609.70
699.61	1697.77
699.79	1697.77
699.97	1802.21
700.16	1658.85
700.34	1642.47
700.53	1652.71
700.71	1767.40
700.89	1681.38
701.08	1701.86
701.26	1730.53
701.45	2088.93
701.63	1630.18
701.81	1753.06
702.00	1677.29
702.18	1638.38
702.37	1603.56
702.55	1730.53
702.73	1683.43
702.92	1603.56
703.10	1753.06
703.28	1785.83
703.47	1626.09
703.65	1804.26
703.84	1685.48
704.02	1540.07
704.20	1763.30
704.39	1687.53
704.57	1730.53
704.75	1746.92
704.94	1718.25
705.12	1665.00
705.30	1818.60
705.49	2353.12
705.67	4331.45
705.86	9418.61
706.04	12990.27
706.22	14649.12
706.41	15617.81
706.59	13954.86
706.77	9643.88
706.96	7481.23
707.14	6784.92
707.32	6176.67
707.51	5595.05
707.69	4906.93
707.87	4263.87
708.06	3499.98
708.24	2920.40
708.42	2408.41
708.61	2203.61
708.79	1931.23
708.97	1857.51
709.16	1804.26
709.34	1757.16
709.52	1751.01
709.71	1703.91
709.89	1767.40
710.07	1705.96
710.26	1624.04
710.44	1697.77
710.62	1843.17
710.80	1689.57
710.99	1751.01
711.17	1794.02
711.35	1626.09
711.54	1671.14
711.72	1761.25
711.90	1740.77
712.09	1740.77
712.27	1691.62
712.45	1798.12
712.63	1640.42
712.82	1742.82
713.00	1689.57
713.18	1677.29
713.37	1746.92
713.55	1757.16
713.73	1742.82
713.91	1685.48
714.10	1675.24
714.28	1710.05
714.46	1804.26
714.65	1669.09
714.83	1822.69
715.01	1734.63
715.19	1765.35
715.38	1683.43
715.56	1787.88
715.74	1615.85
715.92	1617.90
716.11	1791.97
716.29	1705.96
716.47	1796.07
716.65	1665.00
716.84	1621.99
717.02	1787.88
717.20	1566.70
717.38	1634.28
717.57	1761.25
717.75	1740.77
717.93	1636.33
718.11	1660.90
718.30	1660.90
718.48	1701.86
718.66	1738.73
718.84	1779.68
719.03	1710.05
719.21	1523.69
719.39	1673.19
719.57	1685.48
719.75	1742.82
719.94	1703.91
720.12	1648.61
720.30	1714.15
720.48	1781.73
720.67	1665.00
720.85	1566.70
721.03	1654.76
721.21	1726.44
721.39	1810.40
721.58	1699.81
721.76	1730.53
721.94	1656.81
722.12	1732.58
722.30	1837.03
722.49	1681.38
722.67	1720.29
722.85	1658.85
723.03	1636.33
723.21	1634.28
723.40	1693.67
723.58	1732.58
723.76	1675.24
723.94	1712.10
724.12	1771.49
724.30	1755.11
724.49	1662.95
724.67	1685.48
724.85	1800.16
725.03	1673.19
725.21	1714.15
725.40	1732.58
725.58	1695.72
725.76	1753.06
725.94	1824.74
726.12	1642.47
726.30	1646.57
726.49	1689.57
726.67	1632.23
726.85	1708.01
727.03	1767.40
727.21	2115.55
727.39	2934.74
727.57	3827.65
727.76	4100.03
727.94	4452.28
728.12	4343.74
728.30	3659.72
728.48	2949.08
728.66	2779.09
728.84	2496.47
729.03	2328.54
729.21	2168.80
729.39	2002.91
729.57	1767.40
729.75	1755.11
729.93	1794.02
730.11	1699.81
730.30	1732.58
730.48	1681.38
730.66	1810.40
730.84	1755.11
731.02	1710.05
731.20	1658.85
731.38	1677.29
731.56	1681.38
731.74	1636.33
731.93	1736.68
732.11	1744.87
732.29	1753.06
732.47	1751.01
732.65	1769.44
732.83	1689.57
733.01	1742.82
733.19	1662.95
733.37	1734.63
733.56	1720.29
733.74	1689.57
733.92	1710.05
734.10	1677.29
734.28	1746.92
734.46	1640.42
734.64	1652.71
734.82	1660.90
735.00	1669.09
735.18	1658.85
735.36	1701.86
735.54	1771.49
735.73	1685.48
735.91	1742.82
736.09	1687.53
736.27	1648.61
736.45	1787.88
736.63	1640.42
736.81	1675.24
736.99	1806.31
737.17	1755.11
737.35	1658.85
737.53	1685.48
737.71	1724.39
737.89	1777.64
738.07	1656.81
738.25	1677.29
738.43	1617.90
738.61	1671.14
738.80	1679.33
738.98	1744.87
739.16	1689.57
739.34	1636.33
739.52	1753.06
739.70	1691.62
739.88	1693.67
740.06	1796.07
740.24	1632.23
740.42	1796.07
740.60	1599.46
740.78	1708.01
740.96	1619.94
741.14	1624.04
741.32	1732.58
741.50	1642.47
741.68	1849.32
741.86	1738.73
742.04	1609.70
742.22	1667.05
742.40	1708.01
742.58	1705.96
742.76	1656.81
742.94	1675.24
743.12	1607.66
743.30	1667.05
743.48	1736.68
743.66	1675.24
743.84	1689.57
744.02	1732.58
744.20	1609.70
744.38	1689.57
744.56	1656.81
744.74	1824.74
744.92	1708.01
745.10	1785.83
745.28	1730.53
745.46	1753.06
745.64	1632.23
745.82	1740.77
746.00	1724.39
746.18	1718.25
746.36	1695.72
746.54	1746.92
746.72	1724.39
746.90	1658.85
747.08	1820.64
747.26	1658.85
747.44	1677.29
747.62	1761.25
747.80	1716.20
747.98	1726.44
748.15	1673.19
748.33	1783.78
748.51	1724.39
748.69	1738.73
748.87	1681.38
749.05	1720.29
749.23	1710.05
749.41	1705.96
749.59	1736.68
749.77	1734.63
749.95	1708.01
750.13	1619.94
750.31	1697.77
750.49	1720.29
750.67	1679.33
750.85	1832.93
751.03	1714.15
751.20	1751.01
751.38	1720.29
751.56	1685.48
751.74	1708.01
751.92	1753.06
752.10	1665.00
752.28	1777.64
752.46	1638.38
752.64	1712.10
752.82	1724.39
753.00	1685.48
753.18	1685.48
753.35	1738.73
753.53	1751.01
753.71	1679.33
753.89	1734.63
754.07	1730.53
754.25	1812.45
754.43	1681.38
754.61	1660.90
754.79	1761.25
754.97	1656.81
755.14	1742.82
755.32	1619.94
755.50	1724.39
755.68	1679.33
755.86	1648.61
756.04	1673.19
756.22	1675.24
756.40	1687.53
756.57	1779.68
756.75	1714.15
756.93	1822.69
757.11	1695.72
757.29	1656.81
757.47	1642.47
757.65	1634.28
757.82	1597.42
758.00	1570.79
758.18	1705.96
758.36	1669.09
758.54	1812.45
758.72	1662.95
758.90	1794.02
759.07	1730.53
759.25	1593.32
759.43	1677.29
759.61	1609.70
759.79	2230.24
759.97	1689.57
760.15	1669.09
760.32	1646.57
760.50	1634.28
760.68	1753.06
760.86	1621.99
761.04	1724.39
761.22	1732.58
761.39	1681.38
761.57	1669.09
761.75	1689.57
761.93	1708.01
762.11	1710.05
762.28	1781.73
762.46	1630.18
762.64	1691.62
762.82	1667.05
763.00	1714.15
763.18	1738.73
763.35	1638.38
763.53	1839.08
763.71	1705.96
763.89	1691.62
764.07	1703.91
764.24	1751.01
764.42	1748.97
764.60	1640.42
764.78	1673.19
764.96	1761.25
765.13	1781.73
765.31	1761.25
765.49	1765.35
765.67	1626.09
765.84	1642.47
766.02	1691.62
766.20	1681.38
766.38	1732.58
766.56	1773.54
766.73	1730.53
766.91	1669.09
767.09	1689.57
767.27	1681.38
767.44	1603.56
767.62	1671.14
767.80	1648.61
767.98	1681.38
768.15	1689.57
768.33	1722.34
768.51	1808.36
768.69	1718.25
768.87	1656.81
769.04	1679.33
769.22	1845.22
769.40	1804.26
769.58	1877.99
769.75	1681.38
769.93	1748.97
770.11	1697.77
770.28	1693.67
770.46	1683.43
770.64	1669.09
770.82	1667.05
770.99	1683.43
771.17	1796.07
771.35	1681.38
771.53	1720.29
771.70	1755.11
771.88	1738.73
772.06	1718.25
772.23	1607.66
772.41	1763.30
772.59	1740.77
772.77	1642.47
772.94	1656.81
773.12	1689.57
773.30	1667.05
773.47	1689.57
773.65	1667.05
773.83	1849.32
774.01	1644.52
774.18	1634.28
774.36	1740.77
774.54	1558.50
774.71	1746.92
774.89	1624.04
775.07	1654.76
775.24	1574.89
775.42	1673.19
775.60	1837.03
775.78	1699.81
775.95	1583.08
776.13	1609.70
776.31	1576.94
776.48	1708.01
776.66	1834.98
776.84	1636.33
777.01	1753.06
777.19	1746.92
777.37	1644.52
777.54	1712.10
777.72	1755.11
777.90	1732.58
778.07	1673.19
778.25	1902.56
778.43	1800.16
778.60	1673.19
778.78	1806.31
778.96	1779.68
779.13	1603.56
779.31	1716.20
779.49	1761.25
779.66	1712.10
779.84	1644.52
780.01	1673.19
780.19	1669.09
780.37	1767.40
780.54	1767.40
780.72	1740.77
780.90	1644.52
781.07	1671.14
781.25	1615.85
781.43	1708.01
781.60	1683.43
781.78	1773.54
781.95	1755.11
782.13	1634.28
782.31	1718.25
782.48	1632.23
782.66	1681.38
782.83	1787.88
783.01	1701.86
783.19	1693.67
783.36	1689.57
783.54	1615.85
783.72	1751.01
783.89	1675.24
784.07	1673.19
784.24	1734.63
784.42	1742.82
784.60	1685.48
784.77	1853.41
784.95	1576.94
785.12	1669.09
785.30	1718.25
785.47	1632.23
785.65	1593.32
785.83	1675.24
786.00	1660.90
786.18	1744.87
786.35	1650.66
786.53	1611.75
786.71	1789.92
786.88	1685.48
787.06	1703.91
787.23	1714.15
787.41	1566.70
787.58	1697.77
787.76	1632.23
787.94	1748.97
788.11	1705.96
788.29	1609.70
788.46	1650.66
788.64	1624.04
788.81	1662.95
788.99	1705.96
789.16	1660.90
789.34	1673.19
789.52	1619.94
789.69	1683.43
789.87	1609.70
790.04	1660.90
790.22	1619.94
790.39	1798.12
790.57	1730.53
790.74	1671.14
790.92	1755.11
791.09	1667.05
791.27	1683.43
791.44	1763.30
791.62	1660.90
791.79	1710.05
791.97	1763.30
792.15	1867.75
792.32	1724.39
792.50	1757.16
792.67	1834.98
792.85	1757.16
793.02	1746.92
793.20	1652.71
793.37	1562.60
793.55	1654.76
793.72	1576.94
793.90	1724.39
794.07	1634.28
794.25	1609.70
794.42	1742.82
794.60	1705.96
794.77	1724.39
794.95	1734.63
795.12	1763.30
795.30	1677.29
795.47	1644.52
795.65	1898.47
795.82	1796.07
796.00	1644.52
796.17	1726.44
796.34	1693.67
796.52	1740.77
796.69	1705.96
796.87	1779.68
797.04	1816.55
797.22	1703.91
797.39	1759.21
797.57	1779.68
797.74	1712.10
797.92	1669.09
798.09	1677.29
798.27	1771.49
798.44	1705.96
798.62	1693.67
798.79	1646.57
798.96	1701.86
799.14	1718.25
799.31	1834.98
799.49	1665.00
799.66	1714.15
799.84	1714.15
800.01	1648.61
800.19	1673.19
800.36	1607.66
800.53	1738.73
800.71	1689.57
800.88	1773.54
801.06	1656.81
801.23	1685.48
801.41	1720.29
801.58	1699.81
801.75	1716.20
801.93	1757.16
802.10	1740.77
802.28	1728.49
802.45	1648.61
802.63	1691.62
802.80	1732.58
802.97	1619.94
803.15	1613.80
803.32	1675.24
803.50	1703.91
803.67	1699.81
803.84	1695.72
804.02	1642.47
804.19	1642.47
804.37	1576.94
804.54	1712.10
804.71	1660.90
804.89	1667.05
805.06	1648.61
805.24	1626.09
805.41	1687.53
805.58	1654.76
805.76	1849.32
805.93	1685.48
806.10	1722.34
806.28	1705.96
806.45	1755.11
806.63	1724.39
806.80	1740.77
806.97	1691.62
807.15	1755.11
807.32	1689.57
807.49	1658.85
807.67	1669.09
807.84	1685.48
808.01	1624.04
808.19	1740.77
808.36	1830.88
808.54	1724.39
808.71	1648.61
808.88	1691.62
809.06	1705.96
809.23	1845.22
809.40	1640.42
809.58	1767.40
809.75	1626.09
809.92	1703.91
810.10	1779.68
810.27	1746.92
810.44	1726.44
810.62	1763.30
810.79	1748.97
810.96	1669.09
811.14	1685.48
811.31	1789.92
811.48	1652.71
811.66	1714.15
811.83	1800.16
812.00	1746.92
812.18	1732.58
812.35	1763.30
812.52	1652.71
812.69	1699.81
812.87	1730.53
813.04	1648.61
813.21	1732.58
813.39	1693.67
813.56	1624.04
813.73	1751.01
813.91	1621.99
814.08	1722.34
814.25	1701.86
814.42	1617.90
814.60	1644.52
814.77	1673.19
814.94	1693.67
815.12	1693.67
815.29	1785.83
815.46	1646.57
815.63	1722.34
815.81	1662.95
815.98	1632.23
816.15	1697.77
816.33	1679.33
816.50	1662.95
816.67	1703.91
816.84	1695.72
817.02	1685.48
817.19	1671.14
817.36	1665.00
817.53	1669.09
817.71	1634.28
817.88	1755.11
818.05	1648.61
818.22	1755.11
818.40	1798.12
818.57	1724.39
818.74	1669.09
818.91	1689.57
819.09	1753.06
819.26	1718.25
819.43	1607.66
819.60	1667.05
819.78	1794.02
819.95	1761.25
820.12	1630.18
820.29	1726.44
820.47	1806.31
820.64	1640.42
820.81	1656.81
820.98	1634.28
821.15	1658.85
821.33	1740.77
821.50	1560.55
821.67	1644.52
821.84	1632.23
822.02	1798.12
822.19	1783.78
822.36	1624.04
822.53	1644.52
822.70	1650.66
822.88	1611.75
823.05	1759.21
823.22	1701.86
823.39	1705.96
823.56	1677.29
823.74	1789.92
823.91	1656.81
824.08	1652.71
824.25	1691.62
824.42	1744.87
824.60	1624.04
824.77	1636.33
824.94	1654.76
825.11	1740.77
825.28	1658.85
825.45	1714.15
825.63	1662.95
825.80	1697.77
825.97	1734.63
826.14	1808.36
826.31	1599.46
826.48	1691.62
826.66	1648.61
826.83	1658.85
827.00	1644.52
827.17	1693.67
827.34	1644.52
827.51	1681.38
827.69	1675.24
827.86	1634.28
828.03	1716.20
828.20	1716.20
828.37	1654.76
828.54	1656.81
828.71	1638.38
828.89	1777.64
829.06	1720.29
829.23	1820.64
829.40	1607.66
829.57	1601.51
829.74	1726.44
829.91	1726.44
830.09	1611.75
830.26	1808.36
830.43	1654.76
830.60	1751.01
830.77	1755.11
830.94	1777.64
831.11	1728.49
831.28	1730.53
831.46	1753.06
831.63	1703.91
831.80	1734.63
831.97	1662.95
832.14	1681.38
832.31	1757.16
832.48	1640.42
832.65	1796.07
832.82	1789.92
832.99	1667.05
833.17	1591.27
833.34	1683.43
833.51	1763.30
833.68	1542.12
833.85	1746.92
834.02	1669.09
834.19	1671.14
834.36	1675.24
834.53	1734.63
834.70	1689.57
834.87	1656.81
835.04	1718.25
835.22	1630.18
835.39	1796.07
835.56	1642.47
835.73	1695.72
835.90	1736.68
836.07	1734.63
836.24	1650.66
836.41	1681.38
836.58	1609.70
836.75	1765.35
836.92	1755.11
837.09	1660.90
837.26	1644.52
837.43	1665.00
837.60	1736.68
837.77	1581.03
837.94	1769.44
838.12	1804.26
838.29	1759.21
838.46	1617.90
838.63	1654.76
838.80	1767.40
838.97	1669.09
839.14	1748.97
839.31	1705.96
839.48	1748.97
839.65	1677.29
839.82	1779.68
839.99	1779.68
840.16	1679.33
840.33	1660.90
840.50	1773.54
840.67	1642.47
840.84	1642.47
841.01	1738.73
841.18	1685.48
841.35	1773.54
841.52	1658.85
841.69	1822.69
841.86	1763.30
842.03	1693.67
842.20	1675.24
842.37	1693.67
842.54	1708.01
842.71	1640.42
842.88	1632.23
843.05	1751.01
843.22	1667.05
843.39	1757.16
843.56	1689.57
843.73	1689.57
843.90	1740.77
844.07	1720.29
844.24	1724.39
844.41	1753.06
844.58	1652.71
844.75	1720.29
844.92	1769.44
845.09	1652.71
845.26	1697.77
845.43	1716.20
845.60	1654.76
845.77	1673.19
845.94	1677.29
846.10	1697.77
846.27	1607.66
846.44	1636.33
846.61	1660.90
846.78	1732.58
846.95	1718.25
847.12	1648.61
847.29	1728.49
847.46	1681.38
847.63	1687.53
847.80	1673.19
847.97	1732.58
848.14	1816.55
848.31	1712.10
848.48	1597.42
848.65	1718.25
848.82	1687.53
848.98	1902.56
849.15	1714.15
849.32	1746.92
849.49	1736.68
849.66	1705.96
849.83	1751.01
850.00	1578.98
850.17	1714.15
850.34	1695.72
850.51	1695.72
850.68	1673.19
850.85	1845.22
851.01	1726.44
851.18	1734.63
851.35	1722.34
851.52	1734.63
851.69	1779.68
851.86	1677.29
852.03	1677.29
852.20	1767.40
852.37	1607.66
852.53	1574.89
852.70	1726.44
852.87	1738.73
853.04	1818.60
853.21	1726.44
853.38	1697.77
853.55	1773.54
853.72	1732.58
853.89	1705.96
854.05	1665.00
854.22	1685.48
854.39	1693.67
854.56	1697.77
854.73	1677.29
854.90	1665.00
855.07	1714.15
855.23	1710.05
855.40	1740.77
855.57	1673.19
855.74	1585.13
855.91	1880.04
856.08	1636.33
856.25	1665.00
856.41	1595.37
856.58	1650.66
856.75	1693.67
856.92	1585.13
857.09	1757.16
857.26	1640.42
857.42	1640.42
857.59	1746.92
857.76	1656.81
857.93	1708.01
858.10	1671.14
858.27	1650.66
858.43	1673.19
858.60	1712.10
858.77	1574.89
858.94	1681.38
859.11	1738.73
859.27	1714.15
859.44	1699.81
859.61	1826.79
859.78	1761.25
859.95	1689.57
860.12	1693.67
860.28	1714.15
860.45	1845.22
860.62	1728.49
860.79	1722.34
860.95	1697.77
861.12	1636.33
861.29	1712.10
861.46	1644.52
861.63	1560.55
861.79	1634.28
861.96	1701.86
862.13	1710.05
862.30	1849.32
862.47	1681.38
862.63	1669.09
862.80	1804.26
862.97	1832.93
863.14	1732.58
863.30	1671.14
863.47	1677.29
863.64	1738.73
863.81	1722.34
863.97	1658.85
864.14	1746.92
864.31	1611.75
864.48	1718.25
864.65	1742.82
864.81	1722.34
864.98	1701.86
865.15	1714.15
865.32	1738.73
865.48	1806.31
865.65	1804.26
865.82	1667.05
865.98	1783.78
866.15	1765.35
866.32	1701.86
866.49	1673.19
866.65	1785.83
866.82	1630.18
866.99	1613.80
867.16	1718.25
867.32	1617.90
867.49	1665.00
867.66	1638.38
867.83	1644.52
867.99	1599.46
868.16	1656.81
868.33	1611.75
868.49	1716.20
868.66	1624.04
868.83	1740.77
868.99	1691.62
869.16	1667.05
869.33	1759.21
869.50	1746.92
869.66	1685.48
869.83	1767.40
870.00	1695.72
870.16	1759.21
870.33	1755.11
870.50	1726.44
870.66	1615.85
870.83	1796.07
871.00	1642.47
871.17	1722.34
871.33	1728.49
871.50	1744.87
871.67	1726.44
871.83	1617.90
872.00	1744.87
872.17	1591.27
872.33	1777.64
872.50	1722.34
872.67	1730.53
872.83	1665.00
873.00	1660.90
873.17	1613.80
873.33	1771.49
873.50	1730.53
873.67	1652.71
873.83	1675.24
874.00	1730.53
874.16	1718.25
874.33	1761.25
874.50	1615.85
874.66	1656.81
874.83	1699.81
875.00	1685.48
875.16	1755.11
875.33	1781.73
875.50	1566.70
875.66	1726.44
875.83	1701.86
875.99	1638.38
876.16	1722.34
876.33	1675.24
876.49	1710.05
876.66	1646.57
876.83	1552.36
876.99	1583.08
877.16	1689.57
877.32	1660.90
877.49	1675.24
877.66	1638.38
877.82	1712.10
877.99	1716.20
878.15	1773.54
878.32	1691.62
878.49	1677.29
878.65	1662.95
878.82	1730.53
878.98	1658.85
879.15	1779.68
879.32	1722.34
879.48	1812.45
879.65	1677.29
879.81	1714.15
879.98	1675.24
880.15	1560.55
880.31	1701.86
880.48	1677.29
880.64	1695.72
880.81	1787.88
880.97	1853.41
881.14	1789.92
881.31	1609.70
881.47	1800.16
881.64	1646.57
881.80	1634.28
881.97	1685.48
882.13	1771.49
882.30	1656.81
882.47	1617.90
882.63	1642.47
882.80	1626.09
882.96	1650.66
883.13	1808.36
883.29	1640.42
883.46	1724.39
883.62	1785.83
883.79	1652.71
883.95	1748.97
884.12	1665.00
884.29	1736.68
884.45	1656.81
884.62	1710.05
884.78	1689.57
884.95	1744.87
885.11	1638.38
885.28	1697.77
885.44	1716.20
885.61	1718.25
885.77	1798.12
885.94	1701.86
886.10	1730.53
886.27	1740.77
886.43	1775.59
886.60	1712.10
886.76	1662.95
886.93	1642.47
887.09	1730.53
887.26	1640.42
887.42	1638.38
887.59	1732.58
887.75	1867.75
887.92	1665.00
888.08	1722.34
888.25	1748.97
888.41	1740.77
888.58	1710.05
888.74	1675.24
888.91	1662.95
>>>>>End Processed Spectral Data<<<<<
