SpectraSuite Data File
++++++++++++++++++++++++++++++++++++
Date: Mon Jun 06 17:36:57 CEST 2016
User: root
Dark Spectrum Present: No
Reference Spectrum Present: No
Number of Sampled Component Spectra: 1
Spectrometers: USB4C02835
Integration Time (usec): 100000 (USB4C02835)
Spectra Averaged: 1 (USB4C02835)
Boxcar Smoothing: 0 (USB4C02835)
Correct for Electrical Dark: No (USB4C02835)
Strobe/Lamp Enabled: No (USB4C02835)
Correct for Detector Non-linearity: No (USB4C02835)
Correct for Stray Light: No (USB4C02835)
Number of Pixels in Processed Spectrum: 3648
>>>>>Begin Processed Spectral Data<<<<<
177.47	1486.83
177.69	1486.83
177.91	1486.83
178.13	1466.35
178.36	1452.01
178.58	1722.34
178.80	1748.97
179.02	1628.14
179.24	1667.05
179.46	1687.53
179.68	1761.25
179.90	1677.29
180.13	1746.92
180.35	1621.99
180.57	1751.01
180.79	1726.44
181.01	1718.25
181.23	1791.97
181.45	1744.87
181.67	1730.53
181.90	1738.73
182.12	1720.29
182.34	1656.81
182.56	1775.59
182.78	1716.20
183.00	1712.10
183.22	1753.06
183.44	1644.52
183.66	1880.04
183.89	1763.30
184.11	1669.09
184.33	1699.81
184.55	1783.78
184.77	1714.15
184.99	1722.34
185.21	1656.81
185.43	1875.94
185.65	1699.81
185.87	1705.96
186.10	1875.94
186.32	1841.12
186.54	1673.19
186.76	1714.15
186.98	1783.78
187.20	1734.63
187.42	1744.87
187.64	1667.05
187.86	1746.92
188.08	1730.53
188.30	1669.09
188.52	1718.25
188.75	1837.03
188.97	1804.26
189.19	1730.53
189.41	1718.25
189.63	1730.53
189.85	1619.94
190.07	1662.95
190.29	1603.56
190.51	1703.91
190.73	1644.52
190.95	1785.83
191.17	1746.92
191.39	1644.52
191.61	1673.19
191.84	1701.86
192.06	1697.77
192.28	1630.18
192.50	1898.47
192.72	1742.82
192.94	1755.11
193.16	1753.06
193.38	1730.53
193.60	1689.57
193.82	1800.16
194.04	1796.07
194.26	1767.40
194.48	1816.55
194.70	1697.77
194.92	1644.52
195.14	1791.97
195.36	1753.06
195.58	1701.86
195.80	1658.85
196.02	1677.29
196.24	1734.63
196.46	1710.05
196.69	1640.42
196.91	1869.80
197.13	1718.25
197.35	1718.25
197.57	1888.23
197.79	1732.58
198.01	1693.67
198.23	1728.49
198.45	1695.72
198.67	1556.46
198.89	1740.77
199.11	1738.73
199.33	1724.39
199.55	1675.24
199.77	1681.38
199.99	1767.40
200.21	1705.96
200.43	1755.11
200.65	1671.14
200.87	1570.79
201.09	1761.25
201.31	1740.77
201.53	1748.97
201.75	1691.62
201.97	1730.53
202.19	1701.86
202.41	1755.11
202.63	1775.59
202.85	1734.63
203.07	1787.88
203.29	1683.43
203.51	1626.09
203.73	1628.14
203.95	1867.75
204.17	1802.21
204.39	1771.49
204.61	1660.90
204.83	1689.57
205.05	1736.68
205.27	1724.39
205.49	1918.95
205.71	1722.34
205.93	1648.61
206.15	1640.42
206.37	1708.01
206.59	1738.73
206.81	1591.27
207.03	1595.37
207.25	1673.19
207.47	1777.64
207.69	1824.74
207.91	1812.45
208.13	1757.16
208.34	1667.05
208.56	1660.90
208.78	1685.48
209.00	1732.58
209.22	1714.15
209.44	1716.20
209.66	1665.00
209.88	1701.86
210.10	1708.01
210.32	1769.44
210.54	1767.40
210.76	1683.43
210.98	1751.01
211.20	1517.54
211.42	1740.77
211.64	1753.06
211.86	1722.34
212.08	1779.68
212.30	1675.24
212.52	1724.39
212.74	1738.73
212.96	1697.77
213.17	1781.73
213.39	1755.11
213.61	1839.08
213.83	1761.25
214.05	1593.32
214.27	1761.25
214.49	1638.38
214.71	1650.66
214.93	1746.92
215.15	1773.54
215.37	1773.54
215.59	1626.09
215.81	1746.92
216.03	1847.27
216.24	1605.61
216.46	1697.77
216.68	1726.44
216.90	1767.40
217.12	1787.88
217.34	1773.54
217.56	1744.87
217.78	1712.10
218.00	1767.40
218.22	1714.15
218.44	1769.44
218.66	1734.63
218.87	1888.23
219.09	1732.58
219.31	1798.12
219.53	1730.53
219.75	1685.48
219.97	1703.91
220.19	1826.79
220.41	1714.15
220.63	1804.26
220.85	1757.16
221.06	1732.58
221.28	1759.21
221.50	1736.68
221.72	1689.57
221.94	1679.33
222.16	1789.92
222.38	1738.73
222.60	1742.82
222.82	1691.62
223.03	1867.75
223.25	1667.05
223.47	1736.68
223.69	1808.36
223.91	1718.25
224.13	1652.71
224.35	1740.77
224.57	1832.93
224.78	1777.64
225.00	1609.70
225.22	1736.68
225.44	1615.85
225.66	1832.93
225.88	1726.44
226.10	1789.92
226.32	1751.01
226.53	1908.71
226.75	1656.81
226.97	1744.87
227.19	1748.97
227.41	1671.14
227.63	1691.62
227.85	1626.09
228.06	1761.25
228.28	1681.38
228.50	1804.26
228.72	1640.42
228.94	1660.90
229.16	1703.91
229.37	1730.53
229.59	1763.30
229.81	1730.53
230.03	1673.19
230.25	1671.14
230.47	1677.29
230.69	1587.18
230.90	1822.69
231.12	1703.91
231.34	1708.01
231.56	1730.53
231.78	1652.71
232.00	1755.11
232.21	1705.96
232.43	1708.01
232.65	1708.01
232.87	1710.05
233.09	1656.81
233.30	1695.72
233.52	1742.82
233.74	1724.39
233.96	1662.95
234.18	1738.73
234.40	1753.06
234.61	1869.80
234.83	1703.91
235.05	1628.14
235.27	1812.45
235.49	1882.08
235.70	1685.48
235.92	1753.06
236.14	1761.25
236.36	1877.99
236.58	1695.72
236.79	1771.49
237.01	1746.92
237.23	1720.29
237.45	1789.92
237.67	1652.71
237.88	1681.38
238.10	1779.68
238.32	1673.19
238.54	1689.57
238.76	1718.25
238.97	1615.85
239.19	1650.66
239.41	1767.40
239.63	1865.70
239.85	1730.53
240.06	1716.20
240.28	1662.95
240.50	1744.87
240.72	1724.39
240.93	1652.71
241.15	1763.30
241.37	1689.57
241.59	1853.41
241.81	1710.05
242.02	1738.73
242.24	1744.87
242.46	1744.87
242.68	1609.70
242.89	1742.82
243.11	1748.97
243.33	1687.53
243.55	1783.78
243.76	1753.06
243.98	1699.81
244.20	1662.95
244.42	1728.49
244.64	1791.97
244.85	1689.57
245.07	1697.77
245.29	1783.78
245.51	1691.62
245.72	1710.05
245.94	1834.98
246.16	1777.64
246.38	1785.83
246.59	1699.81
246.81	1773.54
247.03	1720.29
247.24	1656.81
247.46	1619.94
247.68	1710.05
247.90	1710.05
248.11	1658.85
248.33	1722.34
248.55	1648.61
248.77	1710.05
248.98	1771.49
249.20	1802.21
249.42	1654.76
249.64	1691.62
249.85	1728.49
250.07	1681.38
250.29	1726.44
250.50	1755.11
250.72	1683.43
250.94	1800.16
251.16	1814.50
251.37	1802.21
251.59	1734.63
251.81	1755.11
252.02	1785.83
252.24	1710.05
252.46	1746.92
252.68	1599.46
252.89	1726.44
253.11	1638.38
253.33	1820.64
253.54	1757.16
253.76	1630.18
253.98	1644.52
254.20	1685.48
254.41	1638.38
254.63	1710.05
254.85	1703.91
255.06	1718.25
255.28	1705.96
255.50	1734.63
255.71	1679.33
255.93	1650.66
256.15	1767.40
256.36	1667.05
256.58	1703.91
256.80	1818.60
257.02	1755.11
257.23	1726.44
257.45	1693.67
257.67	1777.64
257.88	1669.09
258.10	1742.82
258.32	1759.21
258.53	1695.72
258.75	1794.02
258.97	1748.97
259.18	1697.77
259.40	1681.38
259.62	1824.74
259.83	1800.16
260.05	1830.88
260.27	2029.54
260.48	1796.07
260.70	1683.43
260.92	1665.00
261.13	1726.44
261.35	1703.91
261.57	1728.49
261.78	1683.43
262.00	1697.77
262.22	1742.82
262.43	1648.61
262.65	1658.85
262.86	1656.81
263.08	1787.88
263.30	1681.38
263.51	1527.78
263.73	1701.86
263.95	1787.88
264.16	1697.77
264.38	1648.61
264.60	1849.32
264.81	1691.62
265.03	1765.35
265.25	1812.45
265.46	1712.10
265.68	1773.54
265.89	1802.21
266.11	1636.33
266.33	1748.97
266.54	1771.49
266.76	1738.73
266.98	1757.16
267.19	1828.84
267.41	1802.21
267.62	1714.15
267.84	1660.90
268.06	1718.25
268.27	1779.68
268.49	1800.16
268.70	1794.02
268.92	1656.81
269.14	1697.77
269.35	1617.90
269.57	1675.24
269.79	1730.53
270.00	1691.62
270.22	1875.94
270.43	1621.99
270.65	1609.70
270.87	1718.25
271.08	1748.97
271.30	1777.64
271.51	1689.57
271.73	1775.59
271.95	1771.49
272.16	1757.16
272.38	1732.58
272.59	1685.48
272.81	1689.57
273.02	1744.87
273.24	1886.18
273.46	1746.92
273.67	1669.09
273.89	1646.57
274.10	1626.09
274.32	1777.64
274.54	1687.53
274.75	1691.62
274.97	1703.91
275.18	1779.68
275.40	1708.01
275.61	1738.73
275.83	1710.05
276.05	1646.57
276.26	1677.29
276.48	1761.25
276.69	1660.90
276.91	1628.14
277.12	1769.44
277.34	1742.82
277.55	1796.07
277.77	1724.39
277.99	1658.85
278.20	1687.53
278.42	1691.62
278.63	1683.43
278.85	1746.92
279.06	1673.19
279.28	1775.59
279.49	1824.74
279.71	1701.86
279.93	1746.92
280.14	1765.35
280.36	1718.25
280.57	1759.21
280.79	1783.78
281.00	1683.43
281.22	1689.57
281.43	1806.31
281.65	1578.98
281.86	1662.95
282.08	1785.83
282.29	1800.16
282.51	1689.57
282.73	1681.38
282.94	1644.52
283.16	1681.38
283.37	1796.07
283.59	1775.59
283.80	1687.53
284.02	1673.19
284.23	1808.36
284.45	1740.77
284.66	1665.00
284.88	1744.87
285.09	1714.15
285.31	1775.59
285.52	1736.68
285.74	1615.85
285.95	1808.36
286.17	1730.53
286.38	1755.11
286.60	1650.66
286.81	1689.57
287.03	1791.97
287.24	1775.59
287.46	1701.86
287.67	1720.29
287.89	1865.70
288.10	1765.35
288.32	1708.01
288.53	1861.60
288.75	1720.29
288.96	1703.91
289.18	1646.57
289.39	1742.82
289.61	1794.02
289.82	1884.13
290.04	1712.10
290.25	1621.99
290.47	1656.81
290.68	1685.48
290.90	1775.59
291.11	1642.47
291.33	1769.44
291.54	1628.14
291.76	1656.81
291.97	1781.73
292.18	1767.40
292.40	1759.21
292.61	1613.80
292.83	1802.21
293.04	1736.68
293.26	1742.82
293.47	1765.35
293.69	1667.05
293.90	1716.20
294.12	1800.16
294.33	1705.96
294.55	1687.53
294.76	1789.92
294.97	1757.16
295.19	1867.75
295.40	1691.62
295.62	1724.39
295.83	1822.69
296.05	1699.81
296.26	1816.55
296.48	1710.05
296.69	1767.40
296.90	1660.90
297.12	1763.30
297.33	1769.44
297.55	1722.34
297.76	1742.82
297.98	1818.60
298.19	1765.35
298.41	1648.61
298.62	1675.24
298.83	1777.64
299.05	1738.73
299.26	1646.57
299.48	1607.66
299.69	1816.55
299.90	1753.06
300.12	1667.05
300.33	1693.67
300.55	1755.11
300.76	1796.07
300.98	1699.81
301.19	1816.55
301.40	1738.73
301.62	1683.43
301.83	1849.32
302.05	1634.28
302.26	1736.68
302.47	1757.16
302.69	1724.39
302.90	1691.62
303.12	1595.37
303.33	1716.20
303.54	1882.08
303.76	1644.52
303.97	1734.63
304.19	1724.39
304.40	1677.29
304.61	1775.59
304.83	1837.03
305.04	1796.07
305.26	1730.53
305.47	1726.44
305.68	1695.72
305.90	1681.38
306.11	1798.12
306.33	1632.23
306.54	1665.00
306.75	1681.38
306.97	1632.23
307.18	1646.57
307.39	1705.96
307.61	1841.12
307.82	1691.62
308.04	1757.16
308.25	1697.77
308.46	1753.06
308.68	1751.01
308.89	1804.26
309.10	1832.93
309.32	1687.53
309.53	1722.34
309.74	1775.59
309.96	1638.38
310.17	1691.62
310.39	1708.01
310.60	1744.87
310.81	1722.34
311.03	1628.14
311.24	1779.68
311.45	1683.43
311.67	1789.92
311.88	1785.83
312.09	1724.39
312.31	1660.90
312.52	1613.80
312.73	1783.78
312.95	1591.27
313.16	1761.25
313.37	1742.82
313.59	1724.39
313.80	1736.68
314.01	1751.01
314.23	1634.28
314.44	1738.73
314.65	1609.70
314.87	1656.81
315.08	1650.66
315.29	1722.34
315.51	1630.18
315.72	1648.61
315.93	1824.74
316.15	1789.92
316.36	1673.19
316.57	1667.05
316.79	1746.92
317.00	1576.94
317.21	1746.92
317.43	1621.99
317.64	1705.96
317.85	1669.09
318.07	1705.96
318.28	1771.49
318.49	1880.04
318.70	1959.91
318.92	1806.31
319.13	1769.44
319.34	1923.04
319.56	1822.69
319.77	1808.36
319.98	1808.36
320.20	1759.21
320.41	1732.58
320.62	1763.30
320.83	1738.73
321.05	1839.08
321.26	1759.21
321.47	1665.00
321.69	1783.78
321.90	1720.29
322.11	1685.48
322.32	1761.25
322.54	1814.50
322.75	1697.77
322.96	1896.42
323.18	1615.85
323.39	1626.09
323.60	1665.00
323.81	1746.92
324.03	1791.97
324.24	1732.58
324.45	1748.97
324.66	1687.53
324.88	1734.63
325.09	1804.26
325.30	1708.01
325.52	1718.25
325.73	1732.58
325.94	1589.22
326.15	1656.81
326.37	1720.29
326.58	1802.21
326.79	1814.50
327.00	1605.61
327.22	1705.96
327.43	1648.61
327.64	1650.66
327.85	1716.20
328.07	1751.01
328.28	1738.73
328.49	1746.92
328.70	1763.30
328.92	1652.71
329.13	1736.68
329.34	1777.64
329.55	1781.73
329.76	1773.54
329.98	1679.33
330.19	1765.35
330.40	1769.44
330.61	1726.44
330.83	1753.06
331.04	1683.43
331.25	1669.09
331.46	1710.05
331.68	1675.24
331.89	1720.29
332.10	1751.01
332.31	1660.90
332.52	1734.63
332.74	1787.88
332.95	1701.86
333.16	1652.71
333.37	1839.08
333.58	1757.16
333.80	1695.72
334.01	1636.33
334.22	1738.73
334.43	1732.58
334.64	1783.78
334.86	1734.63
335.07	1716.20
335.28	1804.26
335.49	1628.14
335.70	1693.67
335.92	1824.74
336.13	1720.29
336.34	1701.86
336.55	1726.44
336.76	1738.73
336.98	1552.36
337.19	1695.72
337.40	1763.30
337.61	1918.95
337.82	1648.61
338.04	1722.34
338.25	1626.09
338.46	1644.52
338.67	1720.29
338.88	1630.18
339.09	1652.71
339.31	1742.82
339.52	1648.61
339.73	1650.66
339.94	1728.49
340.15	1787.88
340.36	1685.48
340.58	1677.29
340.79	1736.68
341.00	1730.53
341.21	1683.43
341.42	1882.08
341.63	1677.29
341.85	1761.25
342.06	1755.11
342.27	1730.53
342.48	1697.77
342.69	1673.19
342.90	1738.73
343.12	1775.59
343.33	1705.96
343.54	1720.29
343.75	1791.97
343.96	1771.49
344.17	1673.19
344.38	1656.81
344.60	1697.77
344.81	1660.90
345.02	1763.30
345.23	1832.93
345.44	1843.17
345.65	1763.30
345.86	1734.63
346.07	1652.71
346.29	1654.76
346.50	1775.59
346.71	1759.21
346.92	1716.20
347.13	1740.77
347.34	1609.70
347.55	1714.15
347.76	1746.92
347.98	1632.23
348.19	1753.06
348.40	1779.68
348.61	1734.63
348.82	1722.34
349.03	1722.34
349.24	1693.67
349.45	1822.69
349.66	1601.51
349.88	1679.33
350.09	1689.57
350.30	1746.92
350.51	1757.16
350.72	1751.01
350.93	1710.05
351.14	1710.05
351.35	1767.40
351.56	1800.16
351.77	1714.15
351.99	1734.63
352.20	1810.40
352.41	1734.63
352.62	1613.80
352.83	1673.19
353.04	1693.67
353.25	1689.57
353.46	1855.46
353.67	1834.98
353.88	1564.65
354.09	1716.20
354.30	1744.87
354.52	1830.88
354.73	1681.38
354.94	1722.34
355.15	1742.82
355.36	1757.16
355.57	1714.15
355.78	1720.29
355.99	1767.40
356.20	1763.30
356.41	1761.25
356.62	1794.02
356.83	1736.68
357.04	1855.46
357.25	1640.42
357.46	1740.77
357.68	1648.61
357.89	1636.33
358.10	1785.83
358.31	1703.91
358.52	1712.10
358.73	1636.33
358.94	1673.19
359.15	1724.39
359.36	1775.59
359.57	1695.72
359.78	1705.96
359.99	1763.30
360.20	1665.00
360.41	1722.34
360.62	1767.40
360.83	1773.54
361.04	1816.55
361.25	1775.59
361.46	1828.84
361.67	1730.53
361.88	1777.64
362.09	1767.40
362.30	1685.48
362.51	1619.94
362.72	1746.92
362.93	1863.65
363.14	1822.69
363.35	1779.68
363.56	1660.90
363.78	1845.22
363.99	1689.57
364.20	1689.57
364.41	1718.25
364.62	1843.17
364.83	1660.90
365.04	1767.40
365.25	1677.29
365.46	1820.64
365.67	1636.33
365.88	1619.94
366.09	1730.53
366.30	1714.15
366.51	1689.57
366.72	1673.19
366.93	1687.53
367.14	1798.12
367.35	1765.35
367.56	1720.29
367.77	1818.60
367.98	1732.58
368.18	1740.77
368.39	1783.78
368.60	1681.38
368.81	1783.78
369.02	1742.82
369.23	1710.05
369.44	1681.38
369.65	1742.82
369.86	1769.44
370.07	1787.88
370.28	1648.61
370.49	1798.12
370.70	1757.16
370.91	1671.14
371.12	1681.38
371.33	1777.64
371.54	1730.53
371.75	1765.35
371.96	1578.98
372.17	1710.05
372.38	1765.35
372.59	1818.60
372.80	1660.90
373.01	1650.66
373.22	1818.60
373.43	1685.48
373.64	1681.38
373.85	1724.39
374.06	1812.45
374.26	1828.84
374.47	1699.81
374.68	1822.69
374.89	1746.92
375.10	1757.16
375.31	1744.87
375.52	1677.29
375.73	1693.67
375.94	1673.19
376.15	1781.73
376.36	1671.14
376.57	1689.57
376.78	1701.86
376.99	1681.38
377.20	1789.92
377.40	1677.29
377.61	1736.68
377.82	1712.10
378.03	1773.54
378.24	1699.81
378.45	1720.29
378.66	1757.16
378.87	1648.61
379.08	1628.14
379.29	1708.01
379.50	1796.07
379.71	1632.23
379.91	1800.16
380.12	1744.87
380.33	1726.44
380.54	1742.82
380.75	1718.25
380.96	1687.53
381.17	1751.01
381.38	1734.63
381.59	1773.54
381.80	1740.77
382.00	1849.32
382.21	1734.63
382.42	1802.21
382.63	1886.18
382.84	1755.11
383.05	1744.87
383.26	1886.18
383.47	1800.16
383.68	1824.74
383.88	1767.40
384.09	1630.18
384.30	1853.41
384.51	1753.06
384.72	1660.90
384.93	1701.86
385.14	1697.77
385.35	1773.54
385.55	1636.33
385.76	1771.49
385.97	1695.72
386.18	1591.27
386.39	1687.53
386.60	1695.72
386.81	1685.48
387.02	1701.86
387.22	1689.57
387.43	1775.59
387.64	1738.73
387.85	1869.80
388.06	2172.89
388.27	4284.35
388.48	6643.61
388.68	8359.81
388.89	9635.69
389.10	9781.10
389.31	8673.15
389.52	7606.16
389.73	6842.26
389.93	6342.56
390.14	5990.31
390.35	5244.85
390.56	4685.75
390.77	3731.40
390.98	3008.47
391.18	2535.39
391.39	2179.04
391.60	1796.07
391.81	1861.60
392.02	1722.34
392.23	1818.60
392.43	1748.97
392.64	1800.16
392.85	1787.88
393.06	1863.65
393.27	1691.62
393.47	1710.05
393.68	1794.02
393.89	1630.18
394.10	1802.21
394.31	1724.39
394.52	1714.15
394.72	1757.16
394.93	1765.35
395.14	1638.38
395.35	1787.88
395.56	1734.63
395.76	1787.88
395.97	1798.12
396.18	1888.23
396.39	1820.64
396.60	1980.39
396.80	1918.95
397.01	1908.71
397.22	1863.65
397.43	1955.81
397.64	1763.30
397.84	1882.08
398.05	1925.09
398.26	1738.73
398.47	1732.58
398.67	1802.21
398.88	1726.44
399.09	1695.72
399.30	1656.81
399.51	1810.40
399.71	1634.28
399.92	1783.78
400.13	1771.49
400.34	1732.58
400.54	1775.59
400.75	1849.32
400.96	1714.15
401.17	1771.49
401.37	1671.14
401.58	1779.68
401.79	1726.44
402.00	1841.12
402.21	1953.76
402.41	1927.14
402.62	2009.06
402.83	2013.15
403.04	2064.35
403.24	2058.21
403.45	1923.04
403.66	1933.28
403.87	1974.24
404.07	1978.34
404.28	1871.84
404.49	1902.56
404.70	1730.53
404.90	1728.49
405.11	1720.29
405.32	1759.21
405.52	1693.67
405.73	1677.29
405.94	1654.76
406.15	1718.25
406.35	1841.12
406.56	1808.36
406.77	1767.40
406.98	1755.11
407.18	1751.01
407.39	1773.54
407.60	1734.63
407.80	1703.91
408.01	1708.01
408.22	1724.39
408.43	1665.00
408.63	1732.58
408.84	1693.67
409.05	1861.60
409.25	1656.81
409.46	1689.57
409.67	1638.38
409.88	1712.10
410.08	1744.87
410.29	1683.43
410.50	1695.72
410.70	1730.53
410.91	1675.24
411.12	1726.44
411.32	1791.97
411.53	1632.23
411.74	1832.93
411.95	1798.12
412.15	1738.73
412.36	1736.68
412.57	1791.97
412.77	1791.97
412.98	1746.92
413.19	1740.77
413.39	1804.26
413.60	1714.15
413.81	1845.22
414.01	1746.92
414.22	1759.21
414.43	1710.05
414.63	1703.91
414.84	1769.44
415.05	1767.40
415.25	1607.66
415.46	1822.69
415.67	1705.96
415.87	1722.34
416.08	1691.62
416.29	1689.57
416.49	1691.62
416.70	1800.16
416.91	1724.39
417.11	1740.77
417.32	1789.92
417.53	1714.15
417.73	1718.25
417.94	1701.86
418.15	1763.30
418.35	1820.64
418.56	1638.38
418.77	1904.61
418.97	1703.91
419.18	1734.63
419.38	1533.93
419.59	1738.73
419.80	1802.21
420.00	1738.73
420.21	1779.68
420.42	1783.78
420.62	1779.68
420.83	1677.29
421.04	1724.39
421.24	1714.15
421.45	1796.07
421.65	1775.59
421.86	1685.48
422.07	1781.73
422.27	1732.58
422.48	1695.72
422.69	1763.30
422.89	1689.57
423.10	1658.85
423.30	1699.81
423.51	1744.87
423.72	1705.96
423.92	1728.49
424.13	1621.99
424.33	1726.44
424.54	1751.01
424.75	1746.92
424.95	1740.77
425.16	1759.21
425.36	1746.92
425.57	1761.25
425.78	1712.10
425.98	1779.68
426.19	1718.25
426.39	1695.72
426.60	1740.77
426.81	1822.69
427.01	1726.44
427.22	1730.53
427.42	1705.96
427.63	1648.61
427.83	1716.20
428.04	1886.18
428.25	1845.22
428.45	1822.69
428.66	1789.92
428.86	1650.66
429.07	1724.39
429.28	1720.29
429.48	1708.01
429.69	1705.96
429.89	1773.54
430.10	1658.85
430.30	1753.06
430.51	1773.54
430.71	1701.86
430.92	1703.91
431.13	1693.67
431.33	1740.77
431.54	1746.92
431.74	1808.36
431.95	1853.41
432.15	1654.76
432.36	1673.19
432.56	1814.50
432.77	1882.08
432.98	1832.93
433.18	1728.49
433.39	1726.44
433.59	1720.29
433.80	1789.92
434.00	1847.27
434.21	1650.66
434.41	1738.73
434.62	1871.84
434.82	1640.42
435.03	1755.11
435.23	1759.21
435.44	1615.85
435.64	1652.71
435.85	1697.77
436.06	1742.82
436.26	1753.06
436.47	1730.53
436.67	1648.61
436.88	1662.95
437.08	1730.53
437.29	1847.27
437.49	1779.68
437.70	1816.55
437.90	1796.07
438.11	1890.28
438.31	1767.40
438.52	1802.21
438.72	1845.22
438.93	1886.18
439.13	1837.03
439.34	1773.54
439.54	1818.60
439.75	1779.68
439.95	1767.40
440.16	1722.34
440.36	1744.87
440.57	1757.16
440.77	1832.93
440.98	1722.34
441.18	1724.39
441.39	1734.63
441.59	1691.62
441.80	1900.52
442.00	1765.35
442.21	1769.44
442.41	1718.25
442.62	1837.03
442.82	1708.01
443.02	1761.25
443.23	1800.16
443.43	1714.15
443.64	1857.51
443.84	1662.95
444.05	1855.46
444.25	1845.22
444.46	1714.15
444.66	1681.38
444.87	1861.60
445.07	1619.94
445.28	1730.53
445.48	1853.41
445.69	1796.07
445.89	1855.46
446.09	1755.11
446.30	2041.82
446.50	2703.32
446.71	3735.50
446.91	4202.43
447.12	4693.94
447.32	4806.58
447.53	4337.60
447.73	3952.58
447.93	3555.27
448.14	3246.03
448.34	3289.04
448.55	2899.92
448.75	2875.35
448.96	2701.27
449.16	2441.18
449.36	2213.85
449.57	2138.08
449.77	1937.38
449.98	1787.88
450.18	1791.97
450.39	1947.62
450.59	1814.50
450.79	1769.44
451.00	1724.39
451.20	1886.18
451.41	1632.23
451.61	1791.97
451.81	1753.06
452.02	1742.82
452.22	1695.72
452.43	1767.40
452.63	1683.43
452.84	1730.53
453.04	1726.44
453.24	1740.77
453.45	1681.38
453.65	1724.39
453.86	1716.20
454.06	1697.77
454.26	1810.40
454.47	1669.09
454.67	1781.73
454.87	1804.26
455.08	1800.16
455.28	1880.04
455.49	1810.40
455.69	1632.23
455.89	1914.85
456.10	1865.70
456.30	1742.82
456.51	1748.97
456.71	1781.73
456.91	1740.77
457.12	1714.15
457.32	1804.26
457.52	1671.14
457.73	1765.35
457.93	1816.55
458.14	1712.10
458.34	1662.95
458.54	1683.43
458.75	1665.00
458.95	1755.11
459.15	1738.73
459.36	1740.77
459.56	1785.83
459.76	1925.09
459.97	1736.68
460.17	1683.43
460.37	1779.68
460.58	1751.01
460.78	1802.21
460.99	1730.53
461.19	1757.16
461.39	1751.01
461.60	1746.92
461.80	1808.36
462.00	1634.28
462.21	1783.78
462.41	1712.10
462.61	1656.81
462.82	1665.00
463.02	1748.97
463.22	1665.00
463.43	1845.22
463.63	1705.96
463.83	1810.40
464.04	1781.73
464.24	1716.20
464.44	1695.72
464.64	1746.92
464.85	1736.68
465.05	1777.64
465.25	1710.05
465.46	1673.19
465.66	1716.20
465.86	1736.68
466.07	1757.16
466.27	1728.49
466.47	1683.43
466.68	1787.88
466.88	1894.37
467.08	1791.97
467.29	1683.43
467.49	1746.92
467.69	1714.15
467.89	1789.92
468.10	1685.48
468.30	1775.59
468.50	1871.84
468.71	1775.59
468.91	1693.67
469.11	1810.40
469.31	1757.16
469.52	1693.67
469.72	1830.88
469.92	1939.43
470.13	1789.92
470.33	1740.77
470.53	1916.90
470.73	2095.07
470.94	2308.06
471.14	2281.44
471.34	2564.06
471.54	2361.31
471.75	2260.96
471.95	2111.46
472.15	2088.93
472.36	2060.26
472.56	2033.63
472.76	2047.97
472.96	1980.39
473.17	1947.62
473.37	1966.05
473.57	1738.73
473.77	1904.61
473.98	1787.88
474.18	1775.59
474.38	1871.84
474.58	1712.10
474.79	1677.29
474.99	1744.87
475.19	1742.82
475.39	1789.92
475.60	1843.17
475.80	1816.55
476.00	1771.49
476.20	1671.14
476.41	1757.16
476.61	1849.32
476.81	1839.08
477.01	1708.01
477.21	1796.07
477.42	1849.32
477.62	1730.53
477.82	1871.84
478.02	1710.05
478.23	1689.57
478.43	1699.81
478.63	1685.48
478.83	1695.72
479.03	1771.49
479.24	1841.12
479.44	1912.80
479.64	1654.76
479.84	1669.09
480.04	1726.44
480.25	1800.16
480.45	1722.34
480.65	1628.14
480.85	1828.84
481.06	1646.57
481.26	1796.07
481.46	1765.35
481.66	1773.54
481.86	1726.44
482.06	1834.98
482.27	1783.78
482.47	1724.39
482.67	1773.54
482.87	1703.91
483.07	1812.45
483.28	1677.29
483.48	1646.57
483.68	1742.82
483.88	1634.28
484.08	1617.90
484.29	1685.48
484.49	1728.49
484.69	1710.05
484.89	1767.40
485.09	1873.89
485.29	1796.07
485.50	1757.16
485.70	1736.68
485.90	1816.55
486.10	1693.67
486.30	1726.44
486.50	1806.31
486.71	1722.34
486.91	1748.97
487.11	1849.32
487.31	1726.44
487.51	1755.11
487.71	1662.95
487.91	1769.44
488.12	1607.66
488.32	1675.24
488.52	1740.77
488.72	1597.42
488.92	1703.91
489.12	1806.31
489.32	1810.40
489.53	1767.40
489.73	1601.51
489.93	1859.56
490.13	1673.19
490.33	1654.76
490.53	1751.01
490.73	1789.92
490.94	1648.61
491.14	1773.54
491.34	1894.37
491.54	2095.07
491.74	2648.02
491.94	3028.95
492.14	3049.43
492.34	3045.33
492.54	2846.68
492.75	2482.14
492.95	2402.27
493.15	2285.53
493.35	2320.35
493.55	2263.01
493.75	2183.13
493.95	2174.94
494.15	2017.25
494.35	1910.75
494.56	1910.75
494.76	1796.07
494.96	1923.04
495.16	1802.21
495.36	1785.83
495.56	1705.96
495.76	1730.53
495.96	1767.40
496.16	1677.29
496.36	1828.84
496.56	1785.83
496.77	1722.34
496.97	1695.72
497.17	1849.32
497.37	1746.92
497.57	1757.16
497.77	1695.72
497.97	1738.73
498.17	1644.52
498.37	1728.49
498.57	1751.01
498.77	1712.10
498.97	1849.32
499.17	1800.16
499.38	1724.39
499.58	1751.01
499.78	1841.12
499.98	1787.88
500.18	1687.53
500.38	1796.07
500.58	1906.66
500.78	2613.21
500.98	4603.83
501.18	5982.12
501.38	6721.43
501.58	7225.23
501.78	6852.50
501.98	5693.35
502.18	5007.28
502.38	4310.97
502.58	4165.57
502.78	3878.85
502.98	3676.10
503.18	3528.65
503.38	3155.92
503.59	2752.47
503.79	2680.79
503.99	2445.27
504.19	2291.68
504.39	2283.49
504.59	2185.18
504.79	2158.56
504.99	2023.39
505.19	1959.91
505.39	1927.14
505.59	2000.87
505.79	1877.99
505.99	1800.16
506.19	1796.07
506.39	1886.18
506.59	1818.60
506.79	1753.06
506.99	1791.97
507.19	1798.12
507.39	1755.11
507.59	1697.77
507.79	1710.05
507.99	1753.06
508.19	1777.64
508.39	1751.01
508.59	1767.40
508.79	1822.69
508.99	1828.84
509.19	1740.77
509.39	1767.40
509.59	1683.43
509.79	1636.33
509.99	1765.35
510.19	1751.01
510.39	1763.30
510.59	1740.77
510.79	1691.62
510.99	1763.30
511.19	1832.93
511.39	1894.37
511.59	1806.31
511.79	1832.93
511.99	1796.07
512.19	1812.45
512.38	1738.73
512.58	1740.77
512.78	1751.01
512.98	1806.31
513.18	1789.92
513.38	1742.82
513.58	1781.73
513.78	1718.25
513.98	1765.35
514.18	1720.29
514.38	1718.25
514.58	1742.82
514.78	1716.20
514.98	1691.62
515.18	1693.67
515.38	1683.43
515.58	1787.88
515.78	1687.53
515.98	1689.57
516.18	1765.35
516.38	1718.25
516.57	1691.62
516.77	1705.96
516.97	1814.50
517.17	1720.29
517.37	1710.05
517.57	1779.68
517.77	1691.62
517.97	1691.62
518.17	1748.97
518.37	1746.92
518.57	1730.53
518.77	1689.57
518.97	1763.30
519.16	1798.12
519.36	1808.36
519.56	1665.00
519.76	1665.00
519.96	1796.07
520.16	1843.17
520.36	1847.27
520.56	1902.56
520.76	1669.09
520.96	1708.01
521.16	1814.50
521.35	1890.28
521.55	1830.88
521.75	1820.64
521.95	1699.81
522.15	1755.11
522.35	1679.33
522.55	1722.34
522.75	1763.30
522.95	1724.39
523.14	1736.68
523.34	1716.20
523.54	1746.92
523.74	1763.30
523.94	1728.49
524.14	1611.75
524.34	1845.22
524.54	1810.40
524.73	1652.71
524.93	1763.30
525.13	1789.92
525.33	1673.19
525.53	1882.08
525.73	1779.68
525.93	1724.39
526.13	1712.10
526.32	1734.63
526.52	1867.75
526.72	1834.98
526.92	1701.86
527.12	1699.81
527.32	1640.42
527.52	1761.25
527.71	1804.26
527.91	1761.25
528.11	1648.61
528.31	1802.21
528.51	1681.38
528.71	1798.12
528.90	1773.54
529.10	1816.55
529.30	1773.54
529.50	1691.62
529.70	1746.92
529.90	1779.68
530.09	1871.84
530.29	1802.21
530.49	1742.82
530.69	1880.04
530.89	1818.60
531.09	1804.26
531.28	1742.82
531.48	1742.82
531.68	1773.54
531.88	1873.89
532.08	1804.26
532.28	1718.25
532.47	1748.97
532.67	1845.22
532.87	1810.40
533.07	1697.77
533.27	1777.64
533.46	1787.88
533.66	1808.36
533.86	1796.07
534.06	1714.15
534.26	1710.05
534.45	1724.39
534.65	1787.88
534.85	1769.44
535.05	1701.86
535.25	1718.25
535.44	1675.24
535.64	1828.84
535.84	1759.21
536.04	1703.91
536.24	1705.96
536.43	1603.56
536.63	1763.30
536.83	1794.02
537.03	1746.92
537.22	1675.24
537.42	1685.48
537.62	1736.68
537.82	1722.34
538.02	1822.69
538.21	1865.70
538.41	1992.67
538.61	1710.05
538.81	1794.02
539.00	1783.78
539.20	1660.90
539.40	1724.39
539.60	1839.08
539.79	1802.21
539.99	1763.30
540.19	1708.01
540.39	1673.19
540.58	1820.64
540.78	1820.64
540.98	1763.30
541.18	1771.49
541.37	1759.21
541.57	1777.64
541.77	1816.55
541.97	1730.53
542.16	1656.81
542.36	1734.63
542.56	1665.00
542.76	1837.03
542.95	1794.02
543.15	1808.36
543.35	1767.40
543.54	1669.09
543.74	1714.15
543.94	1877.99
544.14	1761.25
544.33	1847.27
544.53	1701.86
544.73	1714.15
544.93	1751.01
545.12	1736.68
545.32	1757.16
545.52	1644.52
545.71	1640.42
545.91	1708.01
546.11	1693.67
546.30	1665.00
546.50	1755.11
546.70	1789.92
546.90	1732.58
547.09	1687.53
547.29	1691.62
547.49	1837.03
547.68	1783.78
547.88	1650.66
548.08	1775.59
548.27	2181.09
548.47	1746.92
548.67	1691.62
548.87	1730.53
549.06	1796.07
549.26	1789.92
549.46	1767.40
549.65	1746.92
549.85	1763.30
550.05	1806.31
550.24	1716.20
550.44	1763.30
550.64	1761.25
550.83	1753.06
551.03	1791.97
551.23	1767.40
551.42	1812.45
551.62	1791.97
551.82	1687.53
552.01	1806.31
552.21	1882.08
552.41	1740.77
552.60	1779.68
552.80	1769.44
553.00	1791.97
553.19	1730.53
553.39	1871.84
553.59	1695.72
553.78	1738.73
553.98	1718.25
554.17	1716.20
554.37	1828.84
554.57	1767.40
554.76	1660.90
554.96	1708.01
555.16	1720.29
555.35	1789.92
555.55	1691.62
555.75	1771.49
555.94	1845.22
556.14	1683.43
556.33	1718.25
556.53	1765.35
556.73	1767.40
556.92	1816.55
557.12	1847.27
557.32	1849.32
557.51	1820.64
557.71	1779.68
557.90	1783.78
558.10	1779.68
558.30	1775.59
558.49	1744.87
558.69	1689.57
558.88	1765.35
559.08	1798.12
559.28	1861.60
559.47	1783.78
559.67	1763.30
559.86	1800.16
560.06	1779.68
560.26	1773.54
560.45	1734.63
560.65	1734.63
560.84	1755.11
561.04	1691.62
561.24	1734.63
561.43	1722.34
561.63	1845.22
561.82	1757.16
562.02	1812.45
562.22	1753.06
562.41	1763.30
562.61	1720.29
562.80	1712.10
563.00	1861.60
563.19	1724.39
563.39	1763.30
563.59	1777.64
563.78	1757.16
563.98	1660.90
564.17	1681.38
564.37	1726.44
564.56	1798.12
564.76	1742.82
564.96	1839.08
565.15	1789.92
565.35	1882.08
565.54	1705.96
565.74	1787.88
565.93	1757.16
566.13	1705.96
566.32	1751.01
566.52	1804.26
566.71	1841.12
566.91	1828.84
567.11	1716.20
567.30	1714.15
567.50	1814.50
567.69	1767.40
567.89	1834.98
568.08	1730.53
568.28	1802.21
568.47	1685.48
568.67	1742.82
568.86	1669.09
569.06	1740.77
569.25	1708.01
569.45	1720.29
569.64	1757.16
569.84	1763.30
570.04	1806.31
570.23	1687.53
570.43	1724.39
570.62	1740.77
570.82	1847.27
571.01	1728.49
571.21	1771.49
571.40	1691.62
571.60	1806.31
571.79	1830.88
571.99	1755.11
572.18	1667.05
572.38	1787.88
572.57	1746.92
572.77	1726.44
572.96	1888.23
573.16	1718.25
573.35	1757.16
573.55	1826.79
573.74	1769.44
573.94	1783.78
574.13	1759.21
574.33	1845.22
574.52	1804.26
574.71	1738.73
574.91	1779.68
575.10	1689.57
575.30	1751.01
575.49	1681.38
575.69	1734.63
575.88	1820.64
576.08	1794.02
576.27	1736.68
576.47	1716.20
576.66	1847.27
576.86	1796.07
577.05	1726.44
577.25	1806.31
577.44	1804.26
577.64	1671.14
577.83	1832.93
578.02	1738.73
578.22	1884.13
578.41	1898.47
578.61	1767.40
578.80	1701.86
579.00	1742.82
579.19	1775.59
579.39	1785.83
579.58	1861.60
579.77	1724.39
579.97	1810.40
580.16	1886.18
580.36	1794.02
580.55	1783.78
580.75	1744.87
580.94	1843.17
581.13	1877.99
581.33	1906.66
581.52	1740.77
581.72	1888.23
581.91	1837.03
582.11	1812.45
582.30	1888.23
582.49	1755.11
582.69	1859.56
582.88	1841.12
583.08	1781.73
583.27	1820.64
583.47	1753.06
583.66	1675.24
583.85	1624.04
584.05	1691.62
584.24	1763.30
584.44	1865.70
584.63	1728.49
584.82	1816.55
585.02	1877.99
585.21	1814.50
585.41	1861.60
585.60	1791.97
585.79	1949.67
585.99	1875.94
586.18	1869.80
586.37	2131.94
586.57	3319.76
586.76	9928.55
586.96	24616.58
587.15	34225.65
587.34	40457.62
587.54	42472.82
587.73	36660.69
587.93	26123.89
588.12	21462.71
588.31	18351.85
588.51	16248.58
588.70	15068.95
588.89	14030.63
589.09	12408.64
589.28	11054.94
589.47	9484.14
589.67	7921.54
589.86	6338.46
590.06	4968.37
590.25	3827.65
590.44	3022.80
590.64	2674.65
590.83	2238.43
591.02	2054.11
591.22	1976.29
591.41	1896.42
591.60	1777.64
591.80	1984.48
591.99	1734.63
592.18	1830.88
592.38	1845.22
592.57	1847.27
592.76	1875.94
592.96	1861.60
593.15	1763.30
593.34	1798.12
593.54	1763.30
593.73	1894.37
593.92	1884.13
594.12	1763.30
594.31	1708.01
594.50	1845.22
594.70	1773.54
594.89	1847.27
595.08	1740.77
595.28	1808.36
595.47	1984.48
595.66	1779.68
595.86	1697.77
596.05	1791.97
596.24	1802.21
596.43	1910.75
596.63	1808.36
596.82	1834.98
597.01	1791.97
597.21	1920.99
597.40	1802.21
597.59	1746.92
597.79	1773.54
597.98	1730.53
598.17	1818.60
598.36	1824.74
598.56	1822.69
598.75	1720.29
598.94	1693.67
599.14	1757.16
599.33	1703.91
599.52	1789.92
599.71	1759.21
599.91	1886.18
600.10	1824.74
600.29	1703.91
600.48	1851.36
600.68	1804.26
600.87	1857.51
601.06	1726.44
601.26	1785.83
601.45	1779.68
601.64	1710.05
601.83	1839.08
602.03	1740.77
602.22	1714.15
602.41	1820.64
602.60	1890.28
602.80	1787.88
602.99	1728.49
603.18	1703.91
603.37	1783.78
603.57	1763.30
603.76	1787.88
603.95	1834.98
604.14	1830.88
604.34	1652.71
604.53	1703.91
604.72	1812.45
604.91	1697.77
605.10	1791.97
605.30	1751.01
605.49	1877.99
605.68	1748.97
605.87	1755.11
606.07	1691.62
606.26	1687.53
606.45	1763.30
606.64	1701.86
606.84	1720.29
607.03	1763.30
607.22	1771.49
607.41	1679.33
607.60	1714.15
607.80	1828.84
607.99	1783.78
608.18	1759.21
608.37	1814.50
608.56	1775.59
608.76	1751.01
608.95	1845.22
609.14	1693.67
609.33	1744.87
609.52	1769.44
609.72	1763.30
609.91	1751.01
610.10	1791.97
610.29	1796.07
610.48	1785.83
610.68	1830.88
610.87	1662.95
611.06	1785.83
611.25	1732.58
611.44	1810.40
611.63	1685.48
611.83	1841.12
612.02	1687.53
612.21	1837.03
612.40	1644.52
612.59	1605.61
612.79	1699.81
612.98	1763.30
613.17	1796.07
613.36	1665.00
613.55	1841.12
613.74	1724.39
613.93	1755.11
614.13	1757.16
614.32	1767.40
614.51	1824.74
614.70	1748.97
614.89	1695.72
615.08	1767.40
615.28	2033.63
615.47	1701.86
615.66	1779.68
615.85	1748.97
616.04	1898.47
616.23	1669.09
616.42	1681.38
616.62	1734.63
616.81	1798.12
617.00	1726.44
617.19	1773.54
617.38	1708.01
617.57	1724.39
617.76	1765.35
617.95	1779.68
618.15	1757.16
618.34	1828.84
618.53	1658.85
618.72	1845.22
618.91	1853.41
619.10	1783.78
619.29	1720.29
619.48	1722.34
619.68	1710.05
619.87	1738.73
620.06	1656.81
620.25	1771.49
620.44	1765.35
620.63	1755.11
620.82	1726.44
621.01	1826.79
621.20	1771.49
621.39	1822.69
621.59	1751.01
621.78	1765.35
621.97	1728.49
622.16	1814.50
622.35	1800.16
622.54	1716.20
622.73	1804.26
622.92	1687.53
623.11	1787.88
623.30	1689.57
623.49	1843.17
623.68	1689.57
623.88	1843.17
624.07	1705.96
624.26	1740.77
624.45	1761.25
624.64	1660.90
624.83	1777.64
625.02	1748.97
625.21	1771.49
625.40	1742.82
625.59	1808.36
625.78	1791.97
625.97	1804.26
626.16	1828.84
626.35	1718.25
626.54	1761.25
626.74	1814.50
626.93	1751.01
627.12	1746.92
627.31	1761.25
627.50	1834.98
627.69	1783.78
627.88	1699.81
628.07	1714.15
628.26	1761.25
628.45	1722.34
628.64	1705.96
628.83	1740.77
629.02	1710.05
629.21	1761.25
629.40	1691.62
629.59	1642.47
629.78	1697.77
629.97	1681.38
630.16	1806.31
630.35	1742.82
630.54	1730.53
630.73	1710.05
630.92	1726.44
631.11	1677.29
631.30	1800.16
631.49	1810.40
631.68	1689.57
631.87	1765.35
632.06	1615.85
632.25	1822.69
632.44	1816.55
632.63	1828.84
632.82	1728.49
633.01	1665.00
633.20	1695.72
633.39	1736.68
633.58	1748.97
633.77	1683.43
633.96	1783.78
634.15	1800.16
634.34	1726.44
634.53	1757.16
634.72	1665.00
634.91	1656.81
635.10	1771.49
635.29	1775.59
635.48	1724.39
635.67	1669.09
635.86	1624.04
636.05	1767.40
636.24	1714.15
636.43	1738.73
636.62	1843.17
636.81	1605.61
637.00	1775.59
637.19	1703.91
637.38	1763.30
637.57	1673.19
637.76	1703.91
637.95	1744.87
638.14	1742.82
638.33	1837.03
638.52	1757.16
638.71	1624.04
638.89	1583.08
639.08	1902.56
639.27	1800.16
639.46	1658.85
639.65	1796.07
639.84	1787.88
640.03	1830.88
640.22	1789.92
640.41	1837.03
640.60	1640.42
640.79	1656.81
640.98	1753.06
641.17	1796.07
641.36	1738.73
641.55	1773.54
641.74	1699.81
641.92	1779.68
642.11	1689.57
642.30	1777.64
642.49	1642.47
642.68	1619.94
642.87	1730.53
643.06	1808.36
643.25	1722.34
643.44	1705.96
643.63	1677.29
643.82	1785.83
644.00	1726.44
644.19	1710.05
644.38	1628.14
644.57	1693.67
644.76	1642.47
644.95	1744.87
645.14	1738.73
645.33	1673.19
645.52	1720.29
645.71	1640.42
645.89	1679.33
646.08	1789.92
646.27	1681.38
646.46	1818.60
646.65	1665.00
646.84	1710.05
647.03	1681.38
647.22	1812.45
647.40	1652.71
647.59	1689.57
647.78	1660.90
647.97	1693.67
648.16	1689.57
648.35	1785.83
648.54	1783.78
648.73	1644.52
648.91	1826.79
649.10	1691.62
649.29	1697.77
649.48	1757.16
649.67	1763.30
649.86	1783.78
650.05	1679.33
650.23	1765.35
650.42	1640.42
650.61	1691.62
650.80	1726.44
650.99	1863.65
651.18	1796.07
651.36	1767.40
651.55	1767.40
651.74	1767.40
651.93	1673.19
652.12	1705.96
652.31	1722.34
652.49	1705.96
652.68	1775.59
652.87	1730.53
653.06	1724.39
653.25	1843.17
653.44	1757.16
653.62	1755.11
653.81	1697.77
654.00	1751.01
654.19	1710.05
654.38	1892.32
654.56	1773.54
654.75	1730.53
654.94	1818.60
655.13	1681.38
655.32	1740.77
655.51	1837.03
655.69	1660.90
655.88	1732.58
656.07	1650.66
656.26	1818.60
656.45	1677.29
656.63	1677.29
656.82	1771.49
657.01	1773.54
657.20	1705.96
657.38	1863.65
657.57	1708.01
657.76	1695.72
657.95	1791.97
658.14	1720.29
658.32	1744.87
658.51	1689.57
658.70	1798.12
658.89	1769.44
659.08	1746.92
659.26	1853.41
659.45	1722.34
659.64	1757.16
659.83	1693.67
660.01	1994.72
660.20	1720.29
660.39	1822.69
660.58	1578.98
660.76	1834.98
660.95	1683.43
661.14	1689.57
661.33	1679.33
661.51	1761.25
661.70	1767.40
661.89	1759.21
662.08	1646.57
662.26	1687.53
662.45	1640.42
662.64	1814.50
662.83	1738.73
663.01	1656.81
663.20	1787.88
663.39	1800.16
663.58	1712.10
663.76	1705.96
663.95	1839.08
664.14	1662.95
664.32	1789.92
664.51	1724.39
664.70	1605.61
664.89	1808.36
665.07	1630.18
665.26	1818.60
665.45	1656.81
665.64	1753.06
665.82	1671.14
666.01	1800.16
666.20	1726.44
666.38	1837.03
666.57	1865.70
666.76	2232.29
666.95	4528.06
667.13	10669.92
667.32	15533.84
667.51	18044.65
667.69	19420.89
667.88	17882.86
668.07	12316.48
668.25	9504.62
668.44	8269.70
668.63	7493.52
668.81	6881.18
669.00	6145.95
669.19	5703.59
669.38	5054.39
669.56	4593.59
669.75	3854.28
669.94	3385.29
670.12	3016.66
670.31	2516.95
670.50	2176.99
670.68	2054.11
670.87	1912.80
671.06	1869.80
671.24	1816.55
671.43	1898.47
671.62	1720.29
671.80	1693.67
671.99	1794.02
672.18	1769.44
672.36	1763.30
672.55	1804.26
672.74	1746.92
672.92	1712.10
673.11	1781.73
673.29	1626.09
673.48	1736.68
673.67	1665.00
673.85	1826.79
674.04	1687.53
674.23	1759.21
674.41	1830.88
674.60	1695.72
674.79	1722.34
674.97	1757.16
675.16	1837.03
675.34	1771.49
675.53	1652.71
675.72	1724.39
675.90	1744.87
676.09	1726.44
676.28	1757.16
676.46	1607.66
676.65	1773.54
676.83	1714.15
677.02	1744.87
677.21	1726.44
677.39	1667.05
677.58	1593.32
677.77	1714.15
677.95	1718.25
678.14	1708.01
678.32	1734.63
678.51	1671.14
678.70	1851.36
678.88	1810.40
679.07	1689.57
679.25	1714.15
679.44	1701.86
679.63	1705.96
679.81	1796.07
680.00	1802.21
680.18	1794.02
680.37	1812.45
680.55	1740.77
680.74	1675.24
680.93	1617.90
681.11	1740.77
681.30	1744.87
681.48	1769.44
681.67	1728.49
681.85	1710.05
682.04	1689.57
682.23	1843.17
682.41	1785.83
682.60	1681.38
682.78	1767.40
682.97	1636.33
683.15	1820.64
683.34	1699.81
683.53	1814.50
683.71	1632.23
683.90	1841.12
684.08	1712.10
684.27	1720.29
684.45	1722.34
684.64	1800.16
684.82	1728.49
685.01	1751.01
685.19	1724.39
685.38	1873.89
685.57	1722.34
685.75	1685.48
685.94	1746.92
686.12	1656.81
686.31	1742.82
686.49	1753.06
686.68	1648.61
686.86	1708.01
687.05	1703.91
687.23	1828.84
687.42	1593.32
687.60	1732.58
687.79	1767.40
687.97	1843.17
688.16	1804.26
688.34	1744.87
688.53	1671.14
688.71	1728.49
688.90	1828.84
689.08	1667.05
689.27	1634.28
689.45	1791.97
689.64	1775.59
689.82	1796.07
690.01	1767.40
690.19	1740.77
690.38	1783.78
690.56	1687.53
690.75	1636.33
690.93	1656.81
691.12	1677.29
691.30	1689.57
691.49	1742.82
691.67	1716.20
691.86	1820.64
692.04	1673.19
692.23	1742.82
692.41	1660.90
692.60	1888.23
692.78	1843.17
692.97	1763.30
693.15	1740.77
693.34	1726.44
693.52	1767.40
693.71	1712.10
693.89	1658.85
694.08	1638.38
694.26	1753.06
694.44	1763.30
694.63	1785.83
694.81	1667.05
695.00	1681.38
695.18	1787.88
695.37	1832.93
695.55	1765.35
695.74	1642.47
695.92	1718.25
696.10	1775.59
696.29	1660.90
696.47	1697.77
696.66	1687.53
696.84	1683.43
697.03	1779.68
697.21	1837.03
697.40	2320.35
697.58	1849.32
697.76	1753.06
697.95	1675.24
698.13	1683.43
698.32	1779.68
698.50	1697.77
698.68	1794.02
698.87	1779.68
699.05	1847.27
699.24	1730.53
699.42	1644.52
699.61	1714.15
699.79	1755.11
699.97	1757.16
700.16	1697.77
700.34	1691.62
700.53	1730.53
700.71	1837.03
700.89	1800.16
701.08	1738.73
701.26	1783.78
701.45	2246.62
701.63	1673.19
701.81	1671.14
702.00	1714.15
702.18	1677.29
702.37	1636.33
702.55	1726.44
702.73	1685.48
702.92	1652.71
703.10	1775.59
703.28	1595.37
703.47	1718.25
703.65	1746.92
703.84	1746.92
704.02	1718.25
704.20	1834.98
704.39	1705.96
704.57	1701.86
704.75	1763.30
704.94	1796.07
705.12	1779.68
705.30	1855.46
705.49	2265.05
705.67	4528.06
705.86	9693.04
706.04	12795.71
706.22	14487.33
706.41	15427.35
706.59	13555.51
706.77	9299.83
706.96	7491.47
707.14	6553.50
707.32	6057.89
707.51	5506.99
707.69	4911.03
707.87	4224.96
708.06	3454.92
708.24	2838.48
708.42	2303.96
708.61	2287.58
708.79	1910.75
708.97	1796.07
709.16	1812.45
709.34	1804.26
709.52	1832.93
709.71	1701.86
709.89	1748.97
710.07	1701.86
710.26	1775.59
710.44	1775.59
710.62	1665.00
710.80	1775.59
710.99	1847.27
711.17	1798.12
711.35	1714.15
711.54	1708.01
711.72	1802.21
711.90	1761.25
712.09	1777.64
712.27	1718.25
712.45	1755.11
712.63	1712.10
712.82	1767.40
713.00	1724.39
713.18	1824.74
713.37	1771.49
713.55	1794.02
713.73	1763.30
713.91	1728.49
714.10	1716.20
714.28	1767.40
714.46	1734.63
714.65	1751.01
714.83	1677.29
715.01	1742.82
715.19	1734.63
715.38	1693.67
715.56	1712.10
715.74	1624.04
715.92	1646.57
716.11	1798.12
716.29	1648.61
716.47	1783.78
716.65	1705.96
716.84	1617.90
717.02	1855.46
717.20	1615.85
717.38	1599.46
717.57	1714.15
717.75	1728.49
717.93	1617.90
718.11	1748.97
718.30	1640.42
718.48	1757.16
718.66	1837.03
718.84	1775.59
719.03	1716.20
719.21	1601.51
719.39	1804.26
719.57	1699.81
719.75	1714.15
719.94	1730.53
720.12	1705.96
720.30	1710.05
720.48	1765.35
720.67	1687.53
720.85	1683.43
721.03	1728.49
721.21	1673.19
721.39	1812.45
721.58	1828.84
721.76	1705.96
721.94	1814.50
722.12	1691.62
722.30	1777.64
722.49	1703.91
722.67	1822.69
722.85	1748.97
723.03	1669.09
723.21	1611.75
723.40	1660.90
723.58	1753.06
723.76	1761.25
723.94	1781.73
724.12	1759.21
724.30	1812.45
724.49	1765.35
724.67	1652.71
724.85	1818.60
725.03	1650.66
725.21	1748.97
725.40	1787.88
725.58	1720.29
725.76	1808.36
725.94	1722.34
726.12	1699.81
726.30	1705.96
726.49	1732.58
726.67	1697.77
726.85	1720.29
727.03	1810.40
727.21	2189.28
727.39	2934.74
727.57	3794.89
727.76	4249.54
727.94	4538.30
728.12	4499.39
728.30	3729.35
728.48	3020.75
728.66	2818.00
728.84	2549.72
729.03	2283.49
729.21	2160.61
729.39	1980.39
729.57	1830.88
729.75	1785.83
729.93	1814.50
730.11	1726.44
730.30	1746.92
730.48	1679.33
730.66	1779.68
730.84	1699.81
731.02	1775.59
731.20	1746.92
731.38	1734.63
731.56	1705.96
731.74	1734.63
731.93	1748.97
732.11	1710.05
732.29	1757.16
732.47	1794.02
732.65	1748.97
732.83	1808.36
733.01	1755.11
733.19	1714.15
733.37	1726.44
733.56	1716.20
733.74	1734.63
733.92	1841.12
734.10	1701.86
734.28	1732.58
734.46	1693.67
734.64	1710.05
734.82	1718.25
735.00	1617.90
735.18	1794.02
735.36	1660.90
735.54	1814.50
735.73	1720.29
735.91	1744.87
736.09	1834.98
736.27	1703.91
736.45	1734.63
736.63	1665.00
736.81	1695.72
736.99	1753.06
737.17	1781.73
737.35	1665.00
737.53	1755.11
737.71	1734.63
737.89	1796.07
738.07	1601.51
738.25	1650.66
738.43	1703.91
738.61	1726.44
738.80	1568.74
738.98	1697.77
739.16	1677.29
739.34	1767.40
739.52	1767.40
739.70	1685.48
739.88	1759.21
740.06	1789.92
740.24	1632.23
740.42	1791.97
740.60	1626.09
740.78	1683.43
740.96	1658.85
741.14	1624.04
741.32	1712.10
741.50	1677.29
741.68	1775.59
741.86	1787.88
742.04	1691.62
742.22	1609.70
742.40	1771.49
742.58	1787.88
742.76	1640.42
742.94	1757.16
743.12	1605.61
743.30	1675.24
743.48	1734.63
743.66	1675.24
743.84	1744.87
744.02	1720.29
744.20	1748.97
744.38	1677.29
744.56	1693.67
744.74	1843.17
744.92	1751.01
745.10	1730.53
745.28	1802.21
745.46	1841.12
745.64	1689.57
745.82	1812.45
746.00	1720.29
746.18	1693.67
746.36	1652.71
746.54	1679.33
746.72	1730.53
746.90	1685.48
747.08	1875.94
747.26	1642.47
747.44	1755.11
747.62	1695.72
747.80	1734.63
747.98	1794.02
748.15	1679.33
748.33	1818.60
748.51	1718.25
748.69	1771.49
748.87	1626.09
749.05	1732.58
749.23	1636.33
749.41	1732.58
749.59	1652.71
749.77	1755.11
749.95	1693.67
750.13	1660.90
750.31	1796.07
750.49	1701.86
750.67	1789.92
750.85	1802.21
751.03	1794.02
751.20	1796.07
751.38	1771.49
751.56	1679.33
751.74	1738.73
751.92	1738.73
752.10	1691.62
752.28	1759.21
752.46	1642.47
752.64	1697.77
752.82	1693.67
753.00	1824.74
753.18	1687.53
753.35	1640.42
753.53	1624.04
753.71	1654.76
753.89	1714.15
754.07	1654.76
754.25	1796.07
754.43	1777.64
754.61	1615.85
754.79	1808.36
754.97	1742.82
755.14	1751.01
755.32	1638.38
755.50	1761.25
755.68	1626.09
755.86	1705.96
756.04	1796.07
756.22	1654.76
756.40	1726.44
756.57	1851.36
756.75	1685.48
756.93	1787.88
757.11	1779.68
757.29	1724.39
757.47	1677.29
757.65	1650.66
757.82	1603.56
758.00	1693.67
758.18	1671.14
758.36	1740.77
758.54	1751.01
758.72	1687.53
758.90	1785.83
759.07	1789.92
759.25	1591.27
759.43	1761.25
759.61	1650.66
759.79	2217.95
759.97	1802.21
760.15	1720.29
760.32	1654.76
760.50	1761.25
760.68	1767.40
760.86	1665.00
761.04	1746.92
761.22	1742.82
761.39	1769.44
761.57	1759.21
761.75	1716.20
761.93	1689.57
762.11	1689.57
762.28	1656.81
762.46	1660.90
762.64	1771.49
762.82	1626.09
763.00	1722.34
763.18	1734.63
763.35	1640.42
763.53	1781.73
763.71	1724.39
763.89	1751.01
764.07	1662.95
764.24	1689.57
764.42	1734.63
764.60	1734.63
764.78	1794.02
764.96	1746.92
765.13	1763.30
765.31	1736.68
765.49	1710.05
765.67	1589.22
765.84	1695.72
766.02	1669.09
766.20	1630.18
766.38	1763.30
766.56	1765.35
766.73	1751.01
766.91	1740.77
767.09	1726.44
767.27	1785.83
767.44	1648.61
767.62	1791.97
767.80	1705.96
767.98	1677.29
768.15	1701.86
768.33	1710.05
768.51	1769.44
768.69	1802.21
768.87	1740.77
769.04	1683.43
769.22	1865.70
769.40	1894.37
769.58	1806.31
769.75	1755.11
769.93	1849.32
770.11	1722.34
770.28	1748.97
770.46	1800.16
770.64	1687.53
770.82	1744.87
770.99	1695.72
771.17	1773.54
771.35	1671.14
771.53	1814.50
771.70	1742.82
771.88	1730.53
772.06	1738.73
772.23	1648.61
772.41	1740.77
772.59	1662.95
772.77	1677.29
772.94	1742.82
773.12	1771.49
773.30	1703.91
773.47	1785.83
773.65	1615.85
773.83	1892.32
774.01	1681.38
774.18	1640.42
774.36	1687.53
774.54	1660.90
774.71	1761.25
774.89	1705.96
775.07	1710.05
775.24	1714.15
775.42	1724.39
775.60	1814.50
775.78	1751.01
775.95	1640.42
776.13	1675.24
776.31	1621.99
776.48	1720.29
776.66	1806.31
776.84	1708.01
777.01	1601.51
777.19	1699.81
777.37	1687.53
777.54	1734.63
777.72	1865.70
777.90	1763.30
778.07	1712.10
778.25	1900.52
778.43	1769.44
778.60	1730.53
778.78	1757.16
778.96	1841.12
779.13	1677.29
779.31	1720.29
779.49	1673.19
779.66	1710.05
779.84	1685.48
780.01	1705.96
780.19	1660.90
780.37	1794.02
780.54	1716.20
780.72	1689.57
780.90	1695.72
781.07	1714.15
781.25	1681.38
781.43	1773.54
781.60	1697.77
781.78	1724.39
781.95	1757.16
782.13	1677.29
782.31	1648.61
782.48	1685.48
782.66	1748.97
782.83	1804.26
783.01	1744.87
783.19	1714.15
783.36	1693.67
783.54	1742.82
783.72	1765.35
783.89	1703.91
784.07	1607.66
784.24	1628.14
784.42	1849.32
784.60	1710.05
784.77	1753.06
784.95	1685.48
785.12	1716.20
785.30	1744.87
785.47	1746.92
785.65	1656.81
785.83	1716.20
786.00	1689.57
786.18	1722.34
786.35	1619.94
786.53	1720.29
786.71	1683.43
786.88	1742.82
787.06	1757.16
787.23	1765.35
787.41	1605.61
787.58	1679.33
787.76	1689.57
787.94	1773.54
788.11	1724.39
788.29	1671.14
788.46	1621.99
788.64	1638.38
788.81	1687.53
788.99	1734.63
789.16	1638.38
789.34	1685.48
789.52	1699.81
789.69	1607.66
789.87	1568.74
790.04	1654.76
790.22	1691.62
790.39	1800.16
790.57	1744.87
790.74	1751.01
790.92	1789.92
791.09	1677.29
791.27	1669.09
791.44	1812.45
791.62	1683.43
791.79	1726.44
791.97	1726.44
792.15	1888.23
792.32	1740.77
792.50	1740.77
792.67	1859.56
792.85	1802.21
793.02	1742.82
793.20	1746.92
793.37	1658.85
793.55	1681.38
793.72	1681.38
793.90	1742.82
794.07	1673.19
794.25	1656.81
794.42	1710.05
794.60	1673.19
794.77	1722.34
794.95	1769.44
795.12	1781.73
795.30	1689.57
795.47	1660.90
795.65	1898.47
795.82	1773.54
796.00	1630.18
796.17	1683.43
796.34	1781.73
796.52	1746.92
796.69	1814.50
796.87	1787.88
797.04	1730.53
797.22	1787.88
797.39	1794.02
797.57	1808.36
797.74	1746.92
797.92	1738.73
798.09	1576.94
798.27	1738.73
798.44	1685.48
798.62	1667.05
798.79	1730.53
798.96	1755.11
799.14	1716.20
799.31	1837.03
799.49	1730.53
799.66	1675.24
799.84	1773.54
800.01	1660.90
800.19	1652.71
800.36	1595.37
800.53	1742.82
800.71	1736.68
800.88	1830.88
801.06	1660.90
801.23	1705.96
801.41	1693.67
801.58	1693.67
801.75	1683.43
801.93	1734.63
802.10	1740.77
802.28	1740.77
802.45	1681.38
802.63	1769.44
802.80	1791.97
802.97	1644.52
803.15	1714.15
803.32	1685.48
803.50	1665.00
803.67	1669.09
803.84	1697.77
804.02	1755.11
804.19	1730.53
804.37	1607.66
804.54	1632.23
804.71	1677.29
804.89	1701.86
805.06	1654.76
805.24	1665.00
805.41	1634.28
805.58	1718.25
805.76	1869.80
805.93	1699.81
806.10	1781.73
806.28	1748.97
806.45	1697.77
806.63	1763.30
806.80	1636.33
806.97	1740.77
807.15	1740.77
807.32	1738.73
807.49	1800.16
807.67	1644.52
807.84	1677.29
808.01	1636.33
808.19	1847.27
808.36	1896.42
808.54	1697.77
808.71	1691.62
808.88	1691.62
809.06	1708.01
809.23	1863.65
809.40	1738.73
809.58	1822.69
809.75	1703.91
809.92	1710.05
810.10	1869.80
810.27	1755.11
810.44	1787.88
810.62	1783.78
810.79	1619.94
810.96	1630.18
811.14	1755.11
811.31	1802.21
811.48	1763.30
811.66	1691.62
811.83	1712.10
812.00	1724.39
812.18	1740.77
812.35	1882.08
812.52	1671.14
812.69	1679.33
812.87	1712.10
813.04	1654.76
813.21	1677.29
813.39	1665.00
813.56	1648.61
813.73	1757.16
813.91	1589.22
814.08	1767.40
814.25	1726.44
814.42	1607.66
814.60	1665.00
814.77	1736.68
814.94	1689.57
815.12	1693.67
815.29	1765.35
815.46	1705.96
815.63	1773.54
815.81	1738.73
815.98	1660.90
816.15	1740.77
816.33	1751.01
816.50	1650.66
816.67	1718.25
816.84	1718.25
817.02	1677.29
817.19	1673.19
817.36	1724.39
817.53	1693.67
817.71	1650.66
817.88	1775.59
818.05	1703.91
818.22	1699.81
818.40	1837.03
818.57	1703.91
818.74	1755.11
818.91	1665.00
819.09	1757.16
819.26	1783.78
819.43	1693.67
819.60	1656.81
819.78	1820.64
819.95	1765.35
820.12	1624.04
820.29	1839.08
820.47	1806.31
820.64	1658.85
820.81	1605.61
820.98	1628.14
821.15	1662.95
821.33	1808.36
821.50	1646.57
821.67	1834.98
821.84	1607.66
822.02	1726.44
822.19	1783.78
822.36	1644.52
822.53	1753.06
822.70	1681.38
822.88	1675.24
823.05	1851.36
823.22	1783.78
823.39	1789.92
823.56	1710.05
823.74	1828.84
823.91	1677.29
824.08	1626.09
824.25	1656.81
824.42	1763.30
824.60	1648.61
824.77	1763.30
824.94	1695.72
825.11	1734.63
825.28	1683.43
825.45	1738.73
825.63	1669.09
825.80	1693.67
825.97	1751.01
826.14	1724.39
826.31	1595.37
826.48	1771.49
826.66	1603.56
826.83	1757.16
827.00	1732.58
827.17	1701.86
827.34	1728.49
827.51	1675.24
827.69	1730.53
827.86	1734.63
828.03	1701.86
828.20	1701.86
828.37	1740.77
828.54	1769.44
828.71	1642.47
828.89	1816.55
829.06	1730.53
829.23	1816.55
829.40	1708.01
829.57	1669.09
829.74	1755.11
829.91	1691.62
830.09	1640.42
830.26	1769.44
830.43	1744.87
830.60	1652.71
830.77	1796.07
830.94	1787.88
831.11	1800.16
831.28	1658.85
831.46	1763.30
831.63	1730.53
831.80	1757.16
831.97	1714.15
832.14	1560.55
832.31	1765.35
832.48	1736.68
832.65	1691.62
832.82	1718.25
832.99	1804.26
833.17	1656.81
833.34	1773.54
833.51	1755.11
833.68	1648.61
833.85	1804.26
834.02	1669.09
834.19	1654.76
834.36	1708.01
834.53	1740.77
834.70	1751.01
834.87	1732.58
835.04	1724.39
835.22	1667.05
835.39	1738.73
835.56	1697.77
835.73	1665.00
835.90	1677.29
836.07	1679.33
836.24	1777.64
836.41	1732.58
836.58	1730.53
836.75	1736.68
836.92	1779.68
837.09	1679.33
837.26	1791.97
837.43	1669.09
837.60	1740.77
837.77	1701.86
837.94	1650.66
838.12	1787.88
838.29	1753.06
838.46	1619.94
838.63	1652.71
838.80	1714.15
838.97	1759.21
839.14	1767.40
839.31	1767.40
839.48	1791.97
839.65	1689.57
839.82	1720.29
839.99	1804.26
840.16	1646.57
840.33	1710.05
840.50	1748.97
840.67	1656.81
840.84	1591.27
841.01	1740.77
841.18	1685.48
841.35	1689.57
841.52	1791.97
841.69	1920.99
841.86	1773.54
842.03	1669.09
842.20	1695.72
842.37	1753.06
842.54	1742.82
842.71	1701.86
842.88	1652.71
843.05	1691.62
843.22	1697.77
843.39	1787.88
843.56	1722.34
843.73	1689.57
843.90	1681.38
844.07	1728.49
844.24	1771.49
844.41	1746.92
844.58	1740.77
844.75	1701.86
844.92	1732.58
845.09	1712.10
845.26	1669.09
845.43	1746.92
845.60	1695.72
845.77	1767.40
845.94	1679.33
846.10	1787.88
846.27	1662.95
846.44	1615.85
846.61	1677.29
846.78	1710.05
846.95	1714.15
847.12	1626.09
847.29	1773.54
847.46	1658.85
847.63	1720.29
847.80	1691.62
847.97	1699.81
848.14	1779.68
848.31	1714.15
848.48	1595.37
848.65	1722.34
848.82	1705.96
848.98	1902.56
849.15	1718.25
849.32	1787.88
849.49	1798.12
849.66	1720.29
849.83	1697.77
850.00	1646.57
850.17	1730.53
850.34	1712.10
850.51	1665.00
850.68	1638.38
850.85	1820.64
851.01	1728.49
851.18	1748.97
851.35	1667.05
851.52	1755.11
851.69	1847.27
851.86	1660.90
852.03	1736.68
852.20	1783.78
852.37	1681.38
852.53	1587.18
852.70	1671.14
852.87	1755.11
853.04	1697.77
853.21	1624.04
853.38	1751.01
853.55	1787.88
853.72	1765.35
853.89	1617.90
854.05	1710.05
854.22	1730.53
854.39	1710.05
854.56	1724.39
854.73	1751.01
854.90	1691.62
855.07	1689.57
855.23	1730.53
855.40	1638.38
855.57	1726.44
855.74	1626.09
855.91	1970.15
856.08	1691.62
856.25	1662.95
856.41	1617.90
856.58	1732.58
856.75	1693.67
856.92	1701.86
857.09	1820.64
857.26	1665.00
857.42	1705.96
857.59	1783.78
857.76	1683.43
857.93	1732.58
858.10	1730.53
858.27	1716.20
858.43	1746.92
858.60	1681.38
858.77	1587.18
858.94	1703.91
859.11	1824.74
859.27	1712.10
859.44	1720.29
859.61	1847.27
859.78	1757.16
859.95	1642.47
860.12	1677.29
860.28	1822.69
860.45	1861.60
860.62	1679.33
860.79	1673.19
860.95	1738.73
861.12	1628.14
861.29	1652.71
861.46	1638.38
861.63	1611.75
861.79	1685.48
861.96	1753.06
862.13	1718.25
862.30	1753.06
862.47	1685.48
862.63	1660.90
862.80	1759.21
862.97	1771.49
863.14	1712.10
863.30	1757.16
863.47	1656.81
863.64	1787.88
863.81	1714.15
863.97	1648.61
864.14	1667.05
864.31	1718.25
864.48	1765.35
864.65	1705.96
864.81	1712.10
864.98	1789.92
865.15	1730.53
865.32	1769.44
865.48	1804.26
865.65	1802.21
865.82	1654.76
865.98	1669.09
866.15	1789.92
866.32	1775.59
866.49	1718.25
866.65	1847.27
866.82	1671.14
866.99	1759.21
867.16	1683.43
867.32	1714.15
867.49	1730.53
867.66	1652.71
867.83	1730.53
867.99	1630.18
868.16	1755.11
868.33	1640.42
868.49	1751.01
868.66	1720.29
868.83	1697.77
868.99	1638.38
869.16	1712.10
869.33	1755.11
869.50	1884.13
869.66	1644.52
869.83	1675.24
870.00	1675.24
870.16	1714.15
870.33	1617.90
870.50	1779.68
870.66	1652.71
870.83	1824.74
871.00	1669.09
871.17	1759.21
871.33	1724.39
871.50	1667.05
871.67	1720.29
871.83	1652.71
872.00	1783.78
872.17	1636.33
872.33	1755.11
872.50	1806.31
872.67	1726.44
872.83	1785.83
873.00	1757.16
873.17	1761.25
873.33	1748.97
873.50	1789.92
873.67	1671.14
873.83	1667.05
874.00	1714.15
874.16	1826.79
874.33	1832.93
874.50	1683.43
874.66	1714.15
874.83	1761.25
875.00	1730.53
875.16	1691.62
875.33	1818.60
875.50	1566.70
875.66	1693.67
875.83	1734.63
875.99	1755.11
876.16	1718.25
876.33	1632.23
876.49	1693.67
876.66	1787.88
876.83	1697.77
876.99	1685.48
877.16	1740.77
877.32	1740.77
877.49	1595.37
877.66	1783.78
877.82	1796.07
877.99	1748.97
878.15	1830.88
878.32	1732.58
878.49	1669.09
878.65	1687.53
878.82	1798.12
878.98	1683.43
879.15	1794.02
879.32	1728.49
879.48	1814.50
879.65	1744.87
879.81	1681.38
879.98	1658.85
880.15	1722.34
880.31	1800.16
880.48	1638.38
880.64	1761.25
880.81	1716.20
880.97	1841.12
881.14	1800.16
881.31	1705.96
881.47	1890.28
881.64	1665.00
881.80	1687.53
881.97	1724.39
882.13	1787.88
882.30	1691.62
882.47	1589.22
882.63	1636.33
882.80	1759.21
882.96	1732.58
883.13	1720.29
883.29	1716.20
883.46	1740.77
883.62	1769.44
883.79	1693.67
883.95	1677.29
884.12	1703.91
884.29	1841.12
884.45	1736.68
884.62	1781.73
884.78	1658.85
884.95	1718.25
885.11	1699.81
885.28	1763.30
885.44	1619.94
885.61	1779.68
885.77	1800.16
885.94	1699.81
886.10	1746.92
886.27	1722.34
886.43	1798.12
886.60	1775.59
886.76	1728.49
886.93	1603.56
887.09	1730.53
887.26	1634.28
887.42	1669.09
887.59	1705.96
887.75	1787.88
887.92	1781.73
888.08	1755.11
888.25	1771.49
888.41	1716.20
888.58	1773.54
888.74	1603.56
888.91	1728.49
>>>>>End Processed Spectral Data<<<<<
