SpectraSuite Data File
++++++++++++++++++++++++++++++++++++
Date: Mon Jun 06 12:46:37 CEST 2016
User: root
Dark Spectrum Present: No
Reference Spectrum Present: No
Number of Sampled Component Spectra: 1
Spectrometers: USB4C02835
Integration Time (usec): 100000 (USB4C02835)
Spectra Averaged: 1 (USB4C02835)
Boxcar Smoothing: 0 (USB4C02835)
Correct for Electrical Dark: No (USB4C02835)
Strobe/Lamp Enabled: No (USB4C02835)
Correct for Detector Non-linearity: No (USB4C02835)
Correct for Stray Light: No (USB4C02835)
Number of Pixels in Processed Spectrum: 3648
>>>>>Begin Processed Spectral Data<<<<<
177.47	1533.93
177.69	1533.93
177.91	1533.93
178.13	1505.26
178.36	1447.91
178.58	1650.66
178.80	1732.58
179.02	1628.14
179.24	1648.61
179.46	1712.10
179.68	1800.16
179.90	1671.14
180.13	1732.58
180.35	1662.95
180.57	1726.44
180.79	1705.96
181.01	1681.38
181.23	1718.25
181.45	1771.49
181.67	1757.16
181.90	1755.11
182.12	1687.53
182.34	1650.66
182.56	1714.15
182.78	1755.11
183.00	1652.71
183.22	1740.77
183.44	1558.50
183.66	1812.45
183.89	1746.92
184.11	1720.29
184.33	1742.82
184.55	1798.12
184.77	1746.92
184.99	1648.61
185.21	1675.24
185.43	1884.13
185.65	1617.90
185.87	1681.38
186.10	1755.11
186.32	1828.84
186.54	1710.05
186.76	1765.35
186.98	1658.85
187.20	1744.87
187.42	1660.90
187.64	1742.82
187.86	1781.73
188.08	1673.19
188.30	1648.61
188.52	1728.49
188.75	1699.81
188.97	1808.36
189.19	1656.81
189.41	1677.29
189.63	1697.77
189.85	1681.38
190.07	1681.38
190.29	1646.57
190.51	1802.21
190.73	1630.18
190.95	1787.88
191.17	1683.43
191.39	1660.90
191.61	1646.57
191.84	1683.43
192.06	1718.25
192.28	1640.42
192.50	1923.04
192.72	1681.38
192.94	1662.95
193.16	1701.86
193.38	1765.35
193.60	1654.76
193.82	1689.57
194.04	1773.54
194.26	1685.48
194.48	1767.40
194.70	1681.38
194.92	1685.48
195.14	1681.38
195.36	1642.47
195.58	1697.77
195.80	1669.09
196.02	1658.85
196.24	1691.62
196.46	1722.34
196.69	1665.00
196.91	1865.70
197.13	1613.80
197.35	1697.77
197.57	1841.12
197.79	1722.34
198.01	1699.81
198.23	1738.73
198.45	1738.73
198.67	1531.88
198.89	1683.43
199.11	1685.48
199.33	1628.14
199.55	1576.94
199.77	1636.33
199.99	1773.54
200.21	1640.42
200.43	1642.47
200.65	1652.71
200.87	1630.18
201.09	1654.76
201.31	1669.09
201.53	1753.06
201.75	1757.16
201.97	1710.05
202.19	1648.61
202.41	1658.85
202.63	1761.25
202.85	1740.77
203.07	1693.67
203.29	1681.38
203.51	1624.04
203.73	1652.71
203.95	1914.85
204.17	1693.67
204.39	1808.36
204.61	1681.38
204.83	1662.95
205.05	1669.09
205.27	1677.29
205.49	1779.68
205.71	1701.86
205.93	1587.18
206.15	1652.71
206.37	1703.91
206.59	1679.33
206.81	1656.81
207.03	1652.71
207.25	1677.29
207.47	1763.30
207.69	1693.67
207.91	1751.01
208.13	1783.78
208.34	1679.33
208.56	1619.94
208.78	1652.71
209.00	1677.29
209.22	1736.68
209.44	1712.10
209.66	1650.66
209.88	1730.53
210.10	1689.57
210.32	1697.77
210.54	1759.21
210.76	1691.62
210.98	1722.34
211.20	1609.70
211.42	1656.81
211.64	1796.07
211.86	1714.15
212.08	1660.90
212.30	1783.78
212.52	1675.24
212.74	1689.57
212.96	1761.25
213.17	1708.01
213.39	1705.96
213.61	1806.31
213.83	1718.25
214.05	1642.47
214.27	1775.59
214.49	1583.08
214.71	1648.61
214.93	1773.54
215.15	1693.67
215.37	1708.01
215.59	1667.05
215.81	1699.81
216.03	1718.25
216.24	1726.44
216.46	1665.00
216.68	1652.71
216.90	1781.73
217.12	1798.12
217.34	1665.00
217.56	1677.29
217.78	1763.30
218.00	1763.30
218.22	1656.81
218.44	1667.05
218.66	1660.90
218.87	1761.25
219.09	1644.52
219.31	1689.57
219.53	1697.77
219.75	1673.19
219.97	1689.57
220.19	1675.24
220.41	1658.85
220.63	1800.16
220.85	1667.05
221.06	1658.85
221.28	1744.87
221.50	1685.48
221.72	1710.05
221.94	1828.84
222.16	1701.86
222.38	1671.14
222.60	1691.62
222.82	1662.95
223.03	1673.19
223.25	1665.00
223.47	1718.25
223.69	1759.21
223.91	1814.50
224.13	1736.68
224.35	1691.62
224.57	1710.05
224.78	1726.44
225.00	1613.80
225.22	1677.29
225.44	1667.05
225.66	1742.82
225.88	1675.24
226.10	1789.92
226.32	1701.86
226.53	1720.29
226.75	1710.05
226.97	1677.29
227.19	1771.49
227.41	1771.49
227.63	1671.14
227.85	1546.22
228.06	1720.29
228.28	1660.90
228.50	1697.77
228.72	1718.25
228.94	1646.57
229.16	1599.46
229.37	1613.80
229.59	1691.62
229.81	1779.68
230.03	1693.67
230.25	1617.90
230.47	1628.14
230.69	1611.75
230.90	1697.77
231.12	1681.38
231.34	1712.10
231.56	1804.26
231.78	1681.38
232.00	1753.06
232.21	1693.67
232.43	1705.96
232.65	1599.46
232.87	1685.48
233.09	1621.99
233.30	1669.09
233.52	1775.59
233.74	1736.68
233.96	1636.33
234.18	1667.05
234.40	1695.72
234.61	1761.25
234.83	1673.19
235.05	1658.85
235.27	1871.84
235.49	1841.12
235.70	1673.19
235.92	1826.79
236.14	1695.72
236.36	1804.26
236.58	1689.57
236.79	1703.91
237.01	1699.81
237.23	1669.09
237.45	1783.78
237.67	1597.42
237.88	1673.19
238.10	1873.89
238.32	1660.90
238.54	1630.18
238.76	1691.62
238.97	1665.00
239.19	1650.66
239.41	1775.59
239.63	1855.46
239.85	1650.66
240.06	1728.49
240.28	1744.87
240.50	1779.68
240.72	1732.58
240.93	1728.49
241.15	1732.58
241.37	1681.38
241.59	1773.54
241.81	1701.86
242.02	1632.23
242.24	1751.01
242.46	1710.05
242.68	1638.38
242.89	1732.58
243.11	1697.77
243.33	1675.24
243.55	1732.58
243.76	1705.96
243.98	1636.33
244.20	1656.81
244.42	1697.77
244.64	1681.38
244.85	1658.85
245.07	1615.85
245.29	1683.43
245.51	1679.33
245.72	1687.53
245.94	1751.01
246.16	1748.97
246.38	1753.06
246.59	1640.42
246.81	1728.49
247.03	1718.25
247.24	1681.38
247.46	1736.68
247.68	1673.19
247.90	1656.81
248.11	1650.66
248.33	1763.30
248.55	1724.39
248.77	1722.34
248.98	1757.16
249.20	1814.50
249.42	1724.39
249.64	1783.78
249.85	1654.76
250.07	1628.14
250.29	1816.55
250.50	1708.01
250.72	1638.38
250.94	1658.85
251.16	1845.22
251.37	1775.59
251.59	1675.24
251.81	1640.42
252.02	1726.44
252.24	1722.34
252.46	1722.34
252.68	1566.70
252.89	1685.48
253.11	1650.66
253.33	1771.49
253.54	1753.06
253.76	1703.91
253.98	1621.99
254.20	1742.82
254.41	1605.61
254.63	1695.72
254.85	1675.24
255.06	1691.62
255.28	1705.96
255.50	1640.42
255.71	1640.42
255.93	1591.27
256.15	1691.62
256.36	1724.39
256.58	1617.90
256.80	1773.54
257.02	1732.58
257.23	1632.23
257.45	1705.96
257.67	1726.44
257.88	1654.76
258.10	1779.68
258.32	1689.57
258.53	1742.82
258.75	1755.11
258.97	1656.81
259.18	1755.11
259.40	1734.63
259.62	1828.84
259.83	1837.03
260.05	1658.85
260.27	2009.06
260.48	1662.95
260.70	1669.09
260.92	1658.85
261.13	1679.33
261.35	1675.24
261.57	1681.38
261.78	1658.85
262.00	1714.15
262.22	1718.25
262.43	1638.38
262.65	1667.05
262.86	1646.57
263.08	1830.88
263.30	1720.29
263.51	1660.90
263.73	1669.09
263.95	1771.49
264.16	1726.44
264.38	1691.62
264.60	1746.92
264.81	1589.22
265.03	1871.84
265.25	1746.92
265.46	1726.44
265.68	1763.30
265.89	1746.92
266.11	1615.85
266.33	1777.64
266.54	1681.38
266.76	1718.25
266.98	1783.78
267.19	1814.50
267.41	1736.68
267.62	1705.96
267.84	1593.32
268.06	1695.72
268.27	1716.20
268.49	1734.63
268.70	1839.08
268.92	1701.86
269.14	1634.28
269.35	1611.75
269.57	1658.85
269.79	1714.15
270.00	1703.91
270.22	1783.78
270.43	1675.24
270.65	1634.28
270.87	1728.49
271.08	1761.25
271.30	1730.53
271.51	1734.63
271.73	1699.81
271.95	1767.40
272.16	1759.21
272.38	1728.49
272.59	1660.90
272.81	1730.53
273.02	1771.49
273.24	1759.21
273.46	1730.53
273.67	1679.33
273.89	1724.39
274.10	1644.52
274.32	1744.87
274.54	1691.62
274.75	1777.64
274.97	1621.99
275.18	1718.25
275.40	1753.06
275.61	1705.96
275.83	1722.34
276.05	1617.90
276.26	1679.33
276.48	1732.58
276.69	1675.24
276.91	1703.91
277.12	1765.35
277.34	1761.25
277.55	1781.73
277.77	1691.62
277.99	1691.62
278.20	1656.81
278.42	1722.34
278.63	1646.57
278.85	1720.29
279.06	1630.18
279.28	1705.96
279.49	1755.11
279.71	1705.96
279.93	1634.28
280.14	1736.68
280.36	1650.66
280.57	1798.12
280.79	1783.78
281.00	1566.70
281.22	1617.90
281.43	1705.96
281.65	1607.66
281.86	1708.01
282.08	1787.88
282.29	1742.82
282.51	1701.86
282.73	1628.14
282.94	1562.60
283.16	1648.61
283.37	1816.55
283.59	1789.92
283.80	1685.48
284.02	1648.61
284.23	1611.75
284.45	1634.28
284.66	1650.66
284.88	1658.85
285.09	1693.67
285.31	1767.40
285.52	1679.33
285.74	1589.22
285.95	1732.58
286.17	1724.39
286.38	1775.59
286.60	1697.77
286.81	1638.38
287.03	1693.67
287.24	1748.97
287.46	1748.97
287.67	1771.49
287.89	1765.35
288.10	1673.19
288.32	1724.39
288.53	1755.11
288.75	1763.30
288.96	1779.68
289.18	1740.77
289.39	1665.00
289.61	1677.29
289.82	1851.36
290.04	1820.64
290.25	1572.84
290.47	1755.11
290.68	1714.15
290.90	1716.20
291.11	1638.38
291.33	1765.35
291.54	1624.04
291.76	1652.71
291.97	1691.62
292.18	1730.53
292.40	1718.25
292.61	1644.52
292.83	1826.79
293.04	1726.44
293.26	1820.64
293.47	1751.01
293.69	1656.81
293.90	1660.90
294.12	1767.40
294.33	1701.86
294.55	1728.49
294.76	1703.91
294.97	1742.82
295.19	1828.84
295.40	1613.80
295.62	1720.29
295.83	1742.82
296.05	1662.95
296.26	1726.44
296.48	1644.52
296.69	1697.77
296.90	1665.00
297.12	1804.26
297.33	1796.07
297.55	1744.87
297.76	1724.39
297.98	1806.31
298.19	1728.49
298.41	1728.49
298.62	1593.32
298.83	1734.63
299.05	1796.07
299.26	1658.85
299.48	1685.48
299.69	1726.44
299.90	1636.33
300.12	1638.38
300.33	1804.26
300.55	1734.63
300.76	1824.74
300.98	1648.61
301.19	1722.34
301.40	1685.48
301.62	1646.57
301.83	1703.91
302.05	1701.86
302.26	1708.01
302.47	1763.30
302.69	1656.81
302.90	1714.15
303.12	1634.28
303.33	1730.53
303.54	1787.88
303.76	1740.77
303.97	1812.45
304.19	1787.88
304.40	1650.66
304.61	1753.06
304.83	1802.21
305.04	1732.58
305.26	1708.01
305.47	1648.61
305.68	1669.09
305.90	1615.85
306.11	1744.87
306.33	1607.66
306.54	1642.47
306.75	1693.67
306.97	1679.33
307.18	1593.32
307.39	1601.51
307.61	1767.40
307.82	1689.57
308.04	1734.63
308.25	1685.48
308.46	1781.73
308.68	1744.87
308.89	1626.09
309.10	1742.82
309.32	1638.38
309.53	1718.25
309.74	1755.11
309.96	1630.18
310.17	1746.92
310.39	1685.48
310.60	1718.25
310.81	1787.88
311.03	1677.29
311.24	1697.77
311.45	1732.58
311.67	1789.92
311.88	1689.57
312.09	1732.58
312.31	1722.34
312.52	1671.14
312.73	1689.57
312.95	1605.61
313.16	1658.85
313.37	1757.16
313.59	1732.58
313.80	1673.19
314.01	1746.92
314.23	1615.85
314.44	1708.01
314.65	1701.86
314.87	1638.38
315.08	1638.38
315.29	1669.09
315.51	1712.10
315.72	1630.18
315.93	1816.55
316.15	1767.40
316.36	1607.66
316.57	1667.05
316.79	1673.19
317.00	1689.57
317.21	1705.96
317.43	1703.91
317.64	1673.19
317.85	1675.24
318.07	1636.33
318.28	1658.85
318.49	1791.97
318.70	1916.90
318.92	1816.55
319.13	1822.69
319.34	1847.27
319.56	1763.30
319.77	1746.92
319.98	1671.14
320.20	1746.92
320.41	1687.53
320.62	1746.92
320.83	1615.85
321.05	1877.99
321.26	1675.24
321.47	1695.72
321.69	1863.65
321.90	1689.57
322.11	1677.29
322.32	1746.92
322.54	1779.68
322.75	1705.96
322.96	1761.25
323.18	1591.27
323.39	1595.37
323.60	1646.57
323.81	1757.16
324.03	1693.67
324.24	1697.77
324.45	1697.77
324.66	1615.85
324.88	1806.31
325.09	1742.82
325.30	1718.25
325.52	1695.72
325.73	1689.57
325.94	1660.90
326.15	1611.75
326.37	1665.00
326.58	1726.44
326.79	1720.29
327.00	1609.70
327.22	1722.34
327.43	1564.65
327.64	1689.57
327.85	1767.40
328.07	1705.96
328.28	1806.31
328.49	1689.57
328.70	1734.63
328.92	1628.14
329.13	1697.77
329.34	1761.25
329.55	1773.54
329.76	1757.16
329.98	1697.77
330.19	1751.01
330.40	1769.44
330.61	1775.59
330.83	1679.33
331.04	1634.28
331.25	1677.29
331.46	1746.92
331.68	1642.47
331.89	1705.96
332.10	1689.57
332.31	1593.32
332.52	1650.66
332.74	1779.68
332.95	1644.52
333.16	1658.85
333.37	1769.44
333.58	1712.10
333.80	1681.38
334.01	1636.33
334.22	1654.76
334.43	1634.28
334.64	1652.71
334.86	1617.90
335.07	1673.19
335.28	1818.60
335.49	1597.42
335.70	1712.10
335.92	1802.21
336.13	1746.92
336.34	1683.43
336.55	1720.29
336.76	1658.85
336.98	1595.37
337.19	1665.00
337.40	1824.74
337.61	1855.46
337.82	1703.91
338.04	1724.39
338.25	1519.59
338.46	1593.32
338.67	1656.81
338.88	1640.42
339.09	1615.85
339.31	1634.28
339.52	1681.38
339.73	1669.09
339.94	1652.71
340.15	1724.39
340.36	1665.00
340.58	1767.40
340.79	1677.29
341.00	1697.77
341.21	1634.28
341.42	1808.36
341.63	1665.00
341.85	1742.82
342.06	1746.92
342.27	1634.28
342.48	1767.40
342.69	1699.81
342.90	1650.66
343.12	1685.48
343.33	1658.85
343.54	1765.35
343.75	1744.87
343.96	1699.81
344.17	1673.19
344.38	1673.19
344.60	1667.05
344.81	1654.76
345.02	1591.27
345.23	1746.92
345.44	1822.69
345.65	1773.54
345.86	1673.19
346.07	1720.29
346.29	1722.34
346.50	1767.40
346.71	1716.20
346.92	1769.44
347.13	1873.89
347.34	1644.52
347.55	1669.09
347.76	1695.72
347.98	1628.14
348.19	1677.29
348.40	1712.10
348.61	1640.42
348.82	1736.68
349.03	1693.67
349.24	1650.66
349.45	1826.79
349.66	1703.91
349.88	1775.59
350.09	1683.43
350.30	1757.16
350.51	1761.25
350.72	1773.54
350.93	1677.29
351.14	1628.14
351.35	1724.39
351.56	1667.05
351.77	1691.62
351.99	1685.48
352.20	1779.68
352.41	1761.25
352.62	1626.09
352.83	1660.90
353.04	1763.30
353.25	1685.48
353.46	1665.00
353.67	1720.29
353.88	1581.03
354.09	1746.92
354.30	1720.29
354.52	1732.58
354.73	1738.73
354.94	1701.86
355.15	1691.62
355.36	1765.35
355.57	1712.10
355.78	1773.54
355.99	1632.23
356.20	1705.96
356.41	1832.93
356.62	1695.72
356.83	1675.24
357.04	1857.51
357.25	1605.61
357.46	1640.42
357.68	1617.90
357.89	1673.19
358.10	1697.77
358.31	1699.81
358.52	1691.62
358.73	1658.85
358.94	1613.80
359.15	1705.96
359.36	1783.78
359.57	1703.91
359.78	1665.00
359.99	1771.49
360.20	1642.47
360.41	1697.77
360.62	1761.25
360.83	1740.77
361.04	1675.24
361.25	1779.68
361.46	1761.25
361.67	1722.34
361.88	1779.68
362.09	1738.73
362.30	1746.92
362.51	1716.20
362.72	1619.94
362.93	1722.34
363.14	1689.57
363.35	1738.73
363.56	1665.00
363.78	1712.10
363.99	1728.49
364.20	1632.23
364.41	1748.97
364.62	1755.11
364.83	1693.67
365.04	1716.20
365.25	1699.81
365.46	1763.30
365.67	1708.01
365.88	1691.62
366.09	1685.48
366.30	1581.03
366.51	1691.62
366.72	1646.57
366.93	1685.48
367.14	1599.46
367.35	1738.73
367.56	1697.77
367.77	1824.74
367.98	1705.96
368.18	1677.29
368.39	1724.39
368.60	1656.81
368.81	1705.96
369.02	1615.85
369.23	1699.81
369.44	1669.09
369.65	1710.05
369.86	1771.49
370.07	1718.25
370.28	1656.81
370.49	1724.39
370.70	1767.40
370.91	1619.94
371.12	1630.18
371.33	1677.29
371.54	1656.81
371.75	1834.98
371.96	1540.07
372.17	1640.42
372.38	1658.85
372.59	1722.34
372.80	1636.33
373.01	1695.72
373.22	1724.39
373.43	1683.43
373.64	1681.38
373.85	1722.34
374.06	1738.73
374.26	1806.31
374.47	1681.38
374.68	1779.68
374.89	1787.88
375.10	1587.18
375.31	1714.15
375.52	1648.61
375.73	1796.07
375.94	1615.85
376.15	1787.88
376.36	1708.01
376.57	1697.77
376.78	1560.55
376.99	1779.68
377.20	1834.98
377.40	1714.15
377.61	1820.64
377.82	1708.01
378.03	1880.04
378.24	1685.48
378.45	1683.43
378.66	1679.33
378.87	1667.05
379.08	1591.27
379.29	1603.56
379.50	1730.53
379.71	1712.10
379.91	1685.48
380.12	1699.81
380.33	1685.48
380.54	1714.15
380.75	1689.57
380.96	1718.25
381.17	1771.49
381.38	1693.67
381.59	1669.09
381.80	1759.21
382.00	1828.84
382.21	1810.40
382.42	1830.88
382.63	1837.03
382.84	1722.34
383.05	1710.05
383.26	1804.26
383.47	1773.54
383.68	1714.15
383.88	1765.35
384.09	1748.97
384.30	1857.51
384.51	1742.82
384.72	1732.58
384.93	1656.81
385.14	1642.47
385.35	1789.92
385.55	1703.91
385.76	1789.92
385.97	1712.10
386.18	1689.57
386.39	1609.70
386.60	1640.42
386.81	1710.05
387.02	1734.63
387.22	1640.42
387.43	1818.60
387.64	1787.88
387.85	1914.85
388.06	2254.81
388.27	4286.40
388.48	6805.40
388.68	8238.98
388.89	9779.05
389.10	9959.27
389.31	8638.33
389.52	7667.60
389.73	6860.70
389.93	6457.25
390.14	5889.96
390.35	5146.55
390.56	4624.31
390.77	3778.50
390.98	2930.64
391.18	2537.43
391.39	2127.84
391.60	1861.60
391.81	1841.12
392.02	1708.01
392.23	1826.79
392.43	1755.11
392.64	1787.88
392.85	1744.87
393.06	1810.40
393.27	1677.29
393.47	1658.85
393.68	1755.11
393.89	1785.83
394.10	1773.54
394.31	1669.09
394.52	1581.03
394.72	1650.66
394.93	1804.26
395.14	1673.19
395.35	1775.59
395.56	1626.09
395.76	1697.77
395.97	1763.30
396.18	1746.92
396.39	1845.22
396.60	1990.63
396.80	1900.52
397.01	1779.68
397.22	1877.99
397.43	1855.46
397.64	1689.57
397.84	1765.35
398.05	1783.78
398.26	1697.77
398.47	1759.21
398.67	1775.59
398.88	1652.71
399.09	1701.86
399.30	1716.20
399.51	1777.64
399.71	1626.09
399.92	1742.82
400.13	1671.14
400.34	1748.97
400.54	1634.28
400.75	1802.21
400.96	1742.82
401.17	1853.41
401.37	1767.40
401.58	1705.96
401.79	1705.96
402.00	1880.04
402.21	2068.45
402.41	1890.28
402.62	1945.57
402.83	2066.40
403.04	1968.10
403.24	2043.87
403.45	1816.55
403.66	1982.43
403.87	1834.98
404.07	1884.13
404.28	1832.93
404.49	1824.74
404.70	1701.86
404.90	1751.01
405.11	1728.49
405.32	1789.92
405.52	1699.81
405.73	1638.38
405.94	1656.81
406.15	1691.62
406.35	1753.06
406.56	1703.91
406.77	1718.25
406.98	1701.86
407.18	1683.43
407.39	1787.88
407.60	1656.81
407.80	1765.35
408.01	1658.85
408.22	1693.67
408.43	1697.77
408.63	1703.91
408.84	1755.11
409.05	1832.93
409.25	1675.24
409.46	1640.42
409.67	1578.98
409.88	1648.61
410.08	1665.00
410.29	1765.35
410.50	1763.30
410.70	1800.16
410.91	1697.77
411.12	1736.68
411.32	1689.57
411.53	1761.25
411.74	1812.45
411.95	1814.50
412.15	1837.03
412.36	1712.10
412.57	1777.64
412.77	1783.78
412.98	1714.15
413.19	1677.29
413.39	1800.16
413.60	1751.01
413.81	1824.74
414.01	1697.77
414.22	1681.38
414.43	1728.49
414.63	1718.25
414.84	1810.40
415.05	1736.68
415.25	1609.70
415.46	1753.06
415.67	1730.53
415.87	1810.40
416.08	1701.86
416.29	1662.95
416.49	1609.70
416.70	1638.38
416.91	1617.90
417.11	1665.00
417.32	1771.49
417.53	1845.22
417.73	1679.33
417.94	1628.14
418.15	1716.20
418.35	1712.10
418.56	1699.81
418.77	1834.98
418.97	1685.48
419.18	1710.05
419.38	1615.85
419.59	1685.48
419.80	1753.06
420.00	1619.94
420.21	1685.48
420.42	1681.38
420.62	1689.57
420.83	1626.09
421.04	1724.39
421.24	1701.86
421.45	1701.86
421.65	1677.29
421.86	1634.28
422.07	1716.20
422.27	1705.96
422.48	1748.97
422.69	1642.47
422.89	1759.21
423.10	1693.67
423.30	1611.75
423.51	1705.96
423.72	1718.25
423.92	1738.73
424.13	1728.49
424.33	1732.58
424.54	1714.15
424.75	1691.62
424.95	1802.21
425.16	1699.81
425.36	1710.05
425.57	1785.83
425.78	1712.10
425.98	1738.73
426.19	1681.38
426.39	1685.48
426.60	1736.68
426.81	1751.01
427.01	1679.33
427.22	1656.81
427.42	1642.47
427.63	1705.96
427.83	1724.39
428.04	1779.68
428.25	1779.68
428.45	1830.88
428.66	1773.54
428.86	1742.82
429.07	1730.53
429.28	1665.00
429.48	1675.24
429.69	1708.01
429.89	1728.49
430.10	1634.28
430.30	1718.25
430.51	1816.55
430.71	1761.25
430.92	1703.91
431.13	1701.86
431.33	1736.68
431.54	1669.09
431.74	1820.64
431.95	1769.44
432.15	1679.33
432.36	1681.38
432.56	1732.58
432.77	1865.70
432.98	1789.92
433.18	1662.95
433.39	1722.34
433.59	1685.48
433.80	1802.21
434.00	1945.57
434.21	1642.47
434.41	1695.72
434.62	1841.12
434.82	1671.14
435.03	1658.85
435.23	1667.05
435.44	1632.23
435.64	1669.09
435.85	1675.24
436.06	1755.11
436.26	1742.82
436.47	1777.64
436.67	1646.57
436.88	1730.53
437.08	1718.25
437.29	1851.36
437.49	1708.01
437.70	1751.01
437.90	1675.24
438.11	1841.12
438.31	1746.92
438.52	1775.59
438.72	1845.22
438.93	1857.51
439.13	1808.36
439.34	1787.88
439.54	1781.73
439.75	1812.45
439.95	1757.16
440.16	1683.43
440.36	1775.59
440.57	1693.67
440.77	1746.92
440.98	1761.25
441.18	1765.35
441.39	1714.15
441.59	1681.38
441.80	1839.08
442.00	1667.05
442.21	1757.16
442.41	1658.85
442.62	1777.64
442.82	1646.57
443.02	1714.15
443.23	1714.15
443.43	1748.97
443.64	1714.15
443.84	1759.21
444.05	1771.49
444.25	1675.24
444.46	1705.96
444.66	1767.40
444.87	1777.64
445.07	1630.18
445.28	1765.35
445.48	1771.49
445.69	1746.92
445.89	1863.65
446.09	1699.81
446.30	2023.39
446.50	2787.29
446.71	3780.55
446.91	4368.32
447.12	4829.11
447.32	4810.68
447.53	4368.32
447.73	3946.44
447.93	3536.84
448.14	3338.19
448.34	3178.45
448.55	2936.79
448.75	2832.34
448.96	2680.79
449.16	2418.65
449.36	2316.25
449.57	2017.25
449.77	1884.13
449.98	1820.64
450.18	1789.92
450.39	1832.93
450.59	1783.78
450.79	1759.21
451.00	1716.20
451.20	1785.83
451.41	1806.31
451.61	1691.62
451.81	1808.36
452.02	1630.18
452.22	1759.21
452.43	1603.56
452.63	1697.77
452.84	1746.92
453.04	1724.39
453.24	1798.12
453.45	1746.92
453.65	1720.29
453.86	1689.57
454.06	1789.92
454.26	1716.20
454.47	1777.64
454.67	1767.40
454.87	1732.58
455.08	1634.28
455.28	1802.21
455.49	1779.68
455.69	1720.29
455.89	1904.61
456.10	1925.09
456.30	1650.66
456.51	1769.44
456.71	1736.68
456.91	1812.45
457.12	1861.60
457.32	1751.01
457.52	1703.91
457.73	1746.92
457.93	1775.59
458.14	1722.34
458.34	1542.12
458.54	1681.38
458.75	1736.68
458.95	1765.35
459.15	1748.97
459.36	1759.21
459.56	1763.30
459.76	1884.13
459.97	1714.15
460.17	1724.39
460.37	1771.49
460.58	1673.19
460.78	1781.73
460.99	1683.43
461.19	1722.34
461.39	1685.48
461.60	1691.62
461.80	1759.21
462.00	1695.72
462.21	1710.05
462.41	1671.14
462.61	1703.91
462.82	1685.48
463.02	1798.12
463.22	1708.01
463.43	1796.07
463.63	1714.15
463.83	1794.02
464.04	1722.34
464.24	1697.77
464.44	1708.01
464.64	1681.38
464.85	1736.68
465.05	1775.59
465.25	1796.07
465.46	1601.51
465.66	1746.92
465.86	1763.30
466.07	1691.62
466.27	1781.73
466.47	1660.90
466.68	1632.23
466.88	1720.29
467.08	1759.21
467.29	1699.81
467.49	1800.16
467.69	1716.20
467.89	1775.59
468.10	1720.29
468.30	1837.03
468.50	1783.78
468.71	1800.16
468.91	1708.01
469.11	1841.12
469.31	1759.21
469.52	1677.29
469.72	1769.44
469.92	1861.60
470.13	1710.05
470.33	1708.01
470.53	1720.29
470.73	2062.30
470.94	2187.23
471.14	2371.55
471.34	2467.80
471.54	2408.41
471.75	2265.05
471.95	2181.09
472.15	2015.20
472.36	2043.87
472.56	2033.63
472.76	2109.41
472.96	2101.22
473.17	1886.18
473.37	1834.98
473.57	1808.36
473.77	1796.07
473.98	1802.21
474.18	1687.53
474.38	1939.43
474.58	1722.34
474.79	1701.86
474.99	1771.49
475.19	1785.83
475.39	1716.20
475.60	1732.58
475.80	1689.57
476.00	1701.86
476.20	1691.62
476.41	1736.68
476.61	1798.12
476.81	1789.92
477.01	1730.53
477.21	1804.26
477.42	1783.78
477.62	1705.96
477.82	1720.29
478.02	1683.43
478.23	1785.83
478.43	1644.52
478.63	1691.62
478.83	1744.87
479.03	1714.15
479.24	1834.98
479.44	1751.01
479.64	1695.72
479.84	1591.27
480.04	1687.53
480.25	1800.16
480.45	1656.81
480.65	1726.44
480.85	1820.64
481.06	1726.44
481.26	1691.62
481.46	1677.29
481.66	1740.77
481.86	1689.57
482.06	1712.10
482.27	1761.25
482.47	1630.18
482.67	1789.92
482.87	1726.44
483.07	1763.30
483.28	1753.06
483.48	1665.00
483.68	1734.63
483.88	1734.63
484.08	1636.33
484.29	1681.38
484.49	1740.77
484.69	1681.38
484.89	1810.40
485.09	1757.16
485.29	1730.53
485.50	1755.11
485.70	1595.37
485.90	1796.07
486.10	1785.83
486.30	1708.01
486.50	1798.12
486.71	1720.29
486.91	1718.25
487.11	1806.31
487.31	1636.33
487.51	1746.92
487.71	1654.76
487.91	1665.00
488.12	1673.19
488.32	1632.23
488.52	1652.71
488.72	1630.18
488.92	1656.81
489.12	1718.25
489.32	1796.07
489.53	1732.58
489.73	1681.38
489.93	1818.60
490.13	1695.72
490.33	1634.28
490.53	1660.90
490.73	1927.14
490.94	1679.33
491.14	1755.11
491.34	1875.94
491.54	2144.22
491.74	2492.38
491.94	2975.70
492.14	3016.66
492.34	2977.75
492.54	2688.98
492.75	2596.82
492.95	2443.23
493.15	2371.55
493.35	2205.66
493.55	2222.05
493.75	2084.83
493.95	2129.89
494.15	1980.39
494.35	1953.76
494.56	1871.84
494.76	1744.87
494.96	1773.54
495.16	1763.30
495.36	1777.64
495.56	1667.05
495.76	1748.97
495.96	1769.44
496.16	1693.67
496.36	1863.65
496.56	1689.57
496.77	1894.37
496.97	1759.21
497.17	1877.99
497.37	1726.44
497.57	1679.33
497.77	1730.53
497.97	1619.94
498.17	1736.68
498.37	1712.10
498.57	1794.02
498.77	1644.52
498.97	1804.26
499.17	1853.41
499.38	1763.30
499.58	1755.11
499.78	1822.69
499.98	1791.97
500.18	1687.53
500.38	1701.86
500.58	1964.00
500.78	2574.30
500.98	4517.82
501.18	5834.66
501.38	6754.20
501.58	7169.94
501.78	6815.64
501.98	5623.72
502.18	4898.74
502.38	4478.91
502.58	4186.05
502.78	3723.21
502.98	3692.49
503.18	3467.21
503.38	3207.12
503.59	2861.01
503.79	2660.31
503.99	2490.33
504.19	2297.82
504.39	2168.80
504.59	2215.90
504.79	2170.85
504.99	2062.30
505.19	1939.43
505.39	1925.09
505.59	1896.42
505.79	1877.99
505.99	1865.70
506.19	1779.68
506.39	1896.42
506.59	1712.10
506.79	1771.49
506.99	1775.59
507.19	1763.30
507.39	1755.11
507.59	1667.05
507.79	1753.06
507.99	1660.90
508.19	1724.39
508.39	1732.58
508.59	1730.53
508.79	1812.45
508.99	1834.98
509.19	1671.14
509.39	1736.68
509.59	1712.10
509.79	1761.25
509.99	1740.77
510.19	1724.39
510.39	1701.86
510.59	1679.33
510.79	1724.39
510.99	1677.29
511.19	1767.40
511.39	1783.78
511.59	1794.02
511.79	1740.77
511.99	1738.73
512.19	1898.47
512.38	1763.30
512.58	1753.06
512.78	1730.53
512.98	1824.74
513.18	1789.92
513.38	1615.85
513.58	1705.96
513.78	1730.53
513.98	1740.77
514.18	1585.13
514.38	1656.81
514.58	1796.07
514.78	1675.24
514.98	1712.10
515.18	1630.18
515.38	1685.48
515.58	1800.16
515.78	1636.33
515.98	1736.68
516.18	1720.29
516.38	1777.64
516.57	1681.38
516.77	1693.67
516.97	1697.77
517.17	1779.68
517.37	1632.23
517.57	1785.83
517.77	1761.25
517.97	1607.66
518.17	1783.78
518.37	1669.09
518.57	1689.57
518.77	1724.39
518.97	1787.88
519.16	1771.49
519.36	1738.73
519.56	1677.29
519.76	1757.16
519.96	1705.96
520.16	1841.12
520.36	1646.57
520.56	1693.67
520.76	1708.01
520.96	1677.29
521.16	1730.53
521.35	1712.10
521.55	1822.69
521.75	1730.53
521.95	1650.66
522.15	1634.28
522.35	1681.38
522.55	1648.61
522.75	1830.88
522.95	1701.86
523.14	1710.05
523.34	1710.05
523.54	1728.49
523.74	1824.74
523.94	1802.21
524.14	1683.43
524.34	1714.15
524.54	1765.35
524.73	1757.16
524.93	1736.68
525.13	1720.29
525.33	1648.61
525.53	1873.89
525.73	1734.63
525.93	1804.26
526.13	1755.11
526.32	1757.16
526.52	1777.64
526.72	1755.11
526.92	1671.14
527.12	1681.38
527.32	1701.86
527.52	1781.73
527.71	1810.40
527.91	1683.43
528.11	1759.21
528.31	1744.87
528.51	1705.96
528.71	1816.55
528.90	1742.82
529.10	1804.26
529.30	1771.49
529.50	1671.14
529.70	1716.20
529.90	1699.81
530.09	1716.20
530.29	1617.90
530.49	1708.01
530.69	1873.89
530.89	1757.16
531.09	1705.96
531.28	1705.96
531.48	1812.45
531.68	1726.44
531.88	1753.06
532.08	1781.73
532.28	1671.14
532.47	1718.25
532.67	1816.55
532.87	1722.34
533.07	1675.24
533.27	1759.21
533.46	1738.73
533.66	1845.22
533.86	1718.25
534.06	1734.63
534.26	1746.92
534.45	1699.81
534.65	1746.92
534.85	1677.29
535.05	1755.11
535.25	1796.07
535.44	1730.53
535.64	1722.34
535.84	1730.53
536.04	1767.40
536.24	1748.97
536.43	1798.12
536.63	1720.29
536.83	1800.16
537.03	1695.72
537.22	1665.00
537.42	1613.80
537.62	1671.14
537.82	1751.01
538.02	1845.22
538.21	1773.54
538.41	1886.18
538.61	1794.02
538.81	1683.43
539.00	1779.68
539.20	1632.23
539.40	1683.43
539.60	1794.02
539.79	1800.16
539.99	1652.71
540.19	1697.77
540.39	1648.61
540.58	1775.59
540.78	1794.02
540.98	1779.68
541.18	1716.20
541.37	1824.74
541.57	1681.38
541.77	1705.96
541.97	1634.28
542.16	1730.53
542.36	1716.20
542.56	1695.72
542.76	1873.89
542.95	1755.11
543.15	1796.07
543.35	1757.16
543.54	1693.67
543.74	1689.57
543.94	1832.93
544.14	1718.25
544.33	1787.88
544.53	1763.30
544.73	1667.05
544.93	1738.73
545.12	1699.81
545.32	1691.62
545.52	1734.63
545.71	1646.57
545.91	1716.20
546.11	1779.68
546.30	1693.67
546.50	1675.24
546.70	1777.64
546.90	1746.92
547.09	1683.43
547.29	1728.49
547.49	1761.25
547.68	1734.63
547.88	1636.33
548.08	1714.15
548.27	2199.52
548.47	1708.01
548.67	1710.05
548.87	1726.44
549.06	1705.96
549.26	1718.25
549.46	1742.82
549.65	1626.09
549.85	1798.12
550.05	1794.02
550.24	1652.71
550.44	1673.19
550.64	1755.11
550.83	1777.64
551.03	1853.41
551.23	1816.55
551.42	1851.36
551.62	1681.38
551.82	1775.59
552.01	1708.01
552.21	1746.92
552.41	1734.63
552.60	1783.78
552.80	1734.63
553.00	1757.16
553.19	1724.39
553.39	1757.16
553.59	1681.38
553.78	1775.59
553.98	1787.88
554.17	1583.08
554.37	1767.40
554.57	1738.73
554.76	1621.99
554.96	1679.33
555.16	1730.53
555.35	1802.21
555.55	1769.44
555.75	1753.06
555.94	1738.73
556.14	1624.04
556.33	1757.16
556.53	1701.86
556.73	1798.12
556.92	1740.77
557.12	1843.17
557.32	1849.32
557.51	1816.55
557.71	1753.06
557.90	1832.93
558.10	1810.40
558.30	1722.34
558.49	1722.34
558.69	1716.20
558.88	1759.21
559.08	1773.54
559.28	1728.49
559.47	1697.77
559.67	1851.36
559.86	1767.40
560.06	1708.01
560.26	1736.68
560.45	1718.25
560.65	1751.01
560.84	1828.84
561.04	1673.19
561.24	1828.84
561.43	1699.81
561.63	1781.73
561.82	1834.98
562.02	1767.40
562.22	1771.49
562.41	1636.33
562.61	1738.73
562.80	1708.01
563.00	1845.22
563.19	1808.36
563.39	1726.44
563.59	1837.03
563.78	1732.58
563.98	1603.56
564.17	1699.81
564.37	1712.10
564.56	1789.92
564.76	1675.24
564.96	1832.93
565.15	1828.84
565.35	1863.65
565.54	1718.25
565.74	1781.73
565.93	1751.01
566.13	1732.58
566.32	1734.63
566.52	1800.16
566.71	1808.36
566.91	1820.64
567.11	1703.91
567.30	1681.38
567.50	1769.44
567.69	1705.96
567.89	1701.86
568.08	1687.53
568.28	1693.67
568.47	1669.09
568.67	1730.53
568.86	1714.15
569.06	1740.77
569.25	1685.48
569.45	1685.48
569.64	1687.53
569.84	1687.53
570.04	1693.67
570.23	1718.25
570.43	1742.82
570.62	1734.63
570.82	1804.26
571.01	1712.10
571.21	1767.40
571.40	1681.38
571.60	1783.78
571.79	1785.83
571.99	1744.87
572.18	1648.61
572.38	1771.49
572.57	1701.86
572.77	1806.31
572.96	1898.47
573.16	1783.78
573.35	1732.58
573.55	1796.07
573.74	1779.68
573.94	1679.33
574.13	1681.38
574.33	1841.12
574.52	1769.44
574.71	1693.67
574.91	1779.68
575.10	1665.00
575.30	1771.49
575.49	1699.81
575.69	1697.77
575.88	1685.48
576.08	1705.96
576.27	1816.55
576.47	1732.58
576.66	1804.26
576.86	1916.90
577.05	1748.97
577.25	1822.69
577.44	1877.99
577.64	1767.40
577.83	1839.08
578.02	1734.63
578.22	1837.03
578.41	1757.16
578.61	1728.49
578.80	1728.49
579.00	1771.49
579.19	1652.71
579.39	1871.84
579.58	1880.04
579.77	1716.20
579.97	1902.56
580.16	1834.98
580.36	1816.55
580.55	1863.65
580.75	1794.02
580.94	1738.73
581.13	1867.75
581.33	1894.37
581.52	1753.06
581.72	1865.70
581.91	1902.56
582.11	1705.96
582.30	1814.50
582.49	1763.30
582.69	1859.56
582.88	1787.88
583.08	1841.12
583.27	1832.93
583.47	1705.96
583.66	1783.78
583.85	1703.91
584.05	1834.98
584.24	1818.60
584.44	1810.40
584.63	1751.01
584.82	1851.36
585.02	1800.16
585.21	1787.88
585.41	1806.31
585.60	1949.67
585.79	1882.08
585.99	1929.19
586.18	1849.32
586.37	2238.43
586.57	3426.25
586.76	10141.54
586.96	24737.41
587.15	35155.43
587.34	41293.19
587.54	43046.26
587.73	37285.32
587.93	26644.07
588.12	21829.30
588.31	18466.53
588.51	16490.24
588.70	15476.50
588.89	14319.40
589.09	12787.52
589.28	11110.23
589.47	9754.48
589.67	7937.93
589.86	6406.05
590.06	5044.15
590.25	3936.20
590.44	3164.11
590.64	2570.20
590.83	2201.57
591.02	2033.63
591.22	1961.95
591.41	1863.65
591.60	1759.21
591.80	2015.20
591.99	1705.96
592.18	1753.06
592.38	1812.45
592.57	1683.43
592.76	1748.97
592.96	1806.31
593.15	1804.26
593.34	1849.32
593.54	1746.92
593.73	1767.40
593.92	1886.18
594.12	1757.16
594.31	1771.49
594.50	1853.41
594.70	1773.54
594.89	1923.04
595.08	1761.25
595.28	1734.63
595.47	1837.03
595.66	1789.92
595.86	1716.20
596.05	1648.61
596.24	1734.63
596.43	1820.64
596.63	1763.30
596.82	1724.39
597.01	1740.77
597.21	1861.60
597.40	1722.34
597.59	1736.68
597.79	1691.62
597.98	1787.88
598.17	1730.53
598.36	1665.00
598.56	1730.53
598.75	1718.25
598.94	1769.44
599.14	1714.15
599.33	1644.52
599.52	1822.69
599.71	1789.92
599.91	1832.93
600.10	1771.49
600.29	1748.97
600.48	1845.22
600.68	1732.58
600.87	1763.30
601.06	1679.33
601.26	1759.21
601.45	1755.11
601.64	1689.57
601.83	1814.50
602.03	1675.24
602.22	1593.32
602.41	1800.16
602.60	1796.07
602.80	1765.35
602.99	1683.43
603.18	1716.20
603.37	1703.91
603.57	1728.49
603.76	1771.49
603.95	1755.11
604.14	1654.76
604.34	1697.77
604.53	1843.17
604.72	1851.36
604.91	1808.36
605.10	1779.68
605.30	1636.33
605.49	1834.98
605.68	1742.82
605.87	1740.77
606.07	1658.85
606.26	1814.50
606.45	1681.38
606.64	1726.44
606.84	1689.57
607.03	1746.92
607.22	1730.53
607.41	1740.77
607.60	1681.38
607.80	1775.59
607.99	1665.00
608.18	1695.72
608.37	1732.58
608.56	1656.81
608.76	1804.26
608.95	1828.84
609.14	1710.05
609.33	1783.78
609.52	1726.44
609.72	1730.53
609.91	1763.30
610.10	1720.29
610.29	1845.22
610.48	1759.21
610.68	1767.40
610.87	1687.53
611.06	1802.21
611.25	1720.29
611.44	1730.53
611.63	1738.73
611.83	1818.60
612.02	1632.23
612.21	1757.16
612.40	1626.09
612.59	1687.53
612.79	1742.82
612.98	1642.47
613.17	1855.46
613.36	1718.25
613.55	1816.55
613.74	1753.06
613.93	1728.49
614.13	1781.73
614.32	1656.81
614.51	1789.92
614.70	1681.38
614.89	1685.48
615.08	1755.11
615.28	2097.12
615.47	1679.33
615.66	1748.97
615.85	1701.86
616.04	1800.16
616.23	1685.48
616.42	1781.73
616.62	1701.86
616.81	1753.06
617.00	1751.01
617.19	1728.49
617.38	1765.35
617.57	1683.43
617.76	1718.25
617.95	1808.36
618.15	1785.83
618.34	1783.78
618.53	1654.76
618.72	1798.12
618.91	1861.60
619.10	1849.32
619.29	1736.68
619.48	1736.68
619.68	1675.24
619.87	1642.47
620.06	1617.90
620.25	1728.49
620.44	1701.86
620.63	1683.43
620.82	1708.01
621.01	1716.20
621.20	1751.01
621.39	1742.82
621.59	1773.54
621.78	1693.67
621.97	1724.39
622.16	1738.73
622.35	1675.24
622.54	1732.58
622.73	1828.84
622.92	1564.65
623.11	1755.11
623.30	1658.85
623.49	1880.04
623.68	1703.91
623.88	1824.74
624.07	1740.77
624.26	1695.72
624.45	1742.82
624.64	1691.62
624.83	1718.25
625.02	1677.29
625.21	1748.97
625.40	1718.25
625.59	1834.98
625.78	1738.73
625.97	1773.54
626.16	1763.30
626.35	1748.97
626.54	1732.58
626.74	1761.25
626.93	1710.05
627.12	1697.77
627.31	1834.98
627.50	1789.92
627.69	1816.55
627.88	1648.61
628.07	1705.96
628.26	1640.42
628.45	1669.09
628.64	1648.61
628.83	1744.87
629.02	1691.62
629.21	1753.06
629.40	1730.53
629.59	1730.53
629.78	1730.53
629.97	1660.90
630.16	1691.62
630.35	1665.00
630.54	1697.77
630.73	1656.81
630.92	1726.44
631.11	1699.81
631.30	1775.59
631.49	1740.77
631.68	1691.62
631.87	1802.21
632.06	1640.42
632.25	1791.97
632.44	1712.10
632.63	1746.92
632.82	1697.77
633.01	1656.81
633.20	1716.20
633.39	1609.70
633.58	1632.23
633.77	1691.62
633.96	1722.34
634.15	1718.25
634.34	1726.44
634.53	1748.97
634.72	1718.25
634.91	1640.42
635.10	1796.07
635.29	1794.02
635.48	1722.34
635.67	1677.29
635.86	1701.86
636.05	1787.88
636.24	1728.49
636.43	1751.01
636.62	1732.58
636.81	1630.18
637.00	1675.24
637.19	1771.49
637.38	1642.47
637.57	1607.66
637.76	1746.92
637.95	1683.43
638.14	1671.14
638.33	1701.86
638.52	1746.92
638.71	1648.61
638.89	1574.89
639.08	1869.80
639.27	1761.25
639.46	1640.42
639.65	1814.50
639.84	1716.20
640.03	1882.08
640.22	1636.33
640.41	1824.74
640.60	1615.85
640.79	1732.58
640.98	1767.40
641.17	1775.59
641.36	1685.48
641.55	1755.11
641.74	1619.94
641.92	1714.15
642.11	1621.99
642.30	1765.35
642.49	1722.34
642.68	1599.46
642.87	1726.44
643.06	1734.63
643.25	1669.09
643.44	1640.42
643.63	1654.76
643.82	1757.16
644.00	1646.57
644.19	1693.67
644.38	1683.43
644.57	1736.68
644.76	1730.53
644.95	1652.71
645.14	1689.57
645.33	1759.21
645.52	1671.14
645.71	1654.76
645.89	1634.28
646.08	1665.00
646.27	1675.24
646.46	1804.26
646.65	1738.73
646.84	1798.12
647.03	1591.27
647.22	1771.49
647.40	1697.77
647.59	1777.64
647.78	1587.18
647.97	1677.29
648.16	1662.95
648.35	1763.30
648.54	1738.73
648.73	1687.53
648.91	1755.11
649.10	1744.87
649.29	1660.90
649.48	1738.73
649.67	1738.73
649.86	1751.01
650.05	1730.53
650.23	1841.12
650.42	1685.48
650.61	1654.76
650.80	1826.79
650.99	1877.99
651.18	1738.73
651.36	1818.60
651.55	1638.38
651.74	1738.73
651.93	1671.14
652.12	1736.68
652.31	1740.77
652.49	1632.23
652.68	1673.19
652.87	1763.30
653.06	1705.96
653.25	1791.97
653.44	1701.86
653.62	1845.22
653.81	1693.67
654.00	1794.02
654.19	1699.81
654.38	1820.64
654.56	1718.25
654.75	1742.82
654.94	1724.39
655.13	1724.39
655.32	1710.05
655.51	1730.53
655.69	1744.87
655.88	1675.24
656.07	1562.60
656.26	1740.77
656.45	1640.42
656.63	1642.47
656.82	1699.81
657.01	1761.25
657.20	1656.81
657.38	1777.64
657.57	1703.91
657.76	1656.81
657.95	1753.06
658.14	1632.23
658.32	1769.44
658.51	1714.15
658.70	1742.82
658.89	1734.63
659.08	1718.25
659.26	1808.36
659.45	1630.18
659.64	1665.00
659.83	1746.92
660.01	1875.94
660.20	1755.11
660.39	1826.79
660.58	1617.90
660.76	1767.40
660.95	1679.33
661.14	1738.73
661.33	1693.67
661.51	1736.68
661.70	1636.33
661.89	1714.15
662.08	1683.43
662.26	1648.61
662.45	1701.86
662.64	1763.30
662.83	1734.63
663.01	1716.20
663.20	1667.05
663.39	1806.31
663.58	1652.71
663.76	1685.48
663.95	1748.97
664.14	1646.57
664.32	1603.56
664.51	1630.18
664.70	1540.07
664.89	1796.07
665.07	1753.06
665.26	1712.10
665.45	1636.33
665.64	1746.92
665.82	1728.49
666.01	1826.79
666.20	1724.39
666.38	1798.12
666.57	1791.97
666.76	2258.91
666.95	4693.94
667.13	10448.74
667.32	15413.01
667.51	18194.15
667.69	19263.19
667.88	17905.39
668.07	12586.82
668.25	9533.29
668.44	8189.83
668.63	7409.55
668.81	6932.37
669.00	6258.59
669.19	5779.37
669.38	5224.37
669.56	4609.98
669.75	4020.16
669.94	3479.50
670.12	2895.83
670.31	2494.43
670.50	2248.67
670.68	2058.21
670.87	1935.33
671.06	1816.55
671.24	1781.73
671.43	1914.85
671.62	1781.73
671.80	1726.44
671.99	1763.30
672.18	1796.07
672.36	1761.25
672.55	1693.67
672.74	1695.72
672.92	1669.09
673.11	1712.10
673.29	1732.58
673.48	1722.34
673.67	1671.14
673.85	1718.25
674.04	1691.62
674.23	1712.10
674.41	1804.26
674.60	1687.53
674.79	1585.13
674.97	1642.47
675.16	1697.77
675.34	1767.40
675.53	1687.53
675.72	1832.93
675.90	1812.45
676.09	1656.81
676.28	1681.38
676.46	1642.47
676.65	1716.20
676.83	1619.94
677.02	1726.44
677.21	1677.29
677.39	1660.90
677.58	1617.90
677.77	1689.57
677.95	1667.05
678.14	1648.61
678.32	1693.67
678.51	1658.85
678.70	1869.80
678.88	1742.82
679.07	1695.72
679.25	1748.97
679.44	1660.90
679.63	1642.47
679.81	1662.95
680.00	1650.66
680.18	1726.44
680.37	1796.07
680.55	1648.61
680.74	1638.38
680.93	1644.52
681.11	1744.87
681.30	1697.77
681.48	1712.10
681.67	1687.53
681.85	1744.87
682.04	1597.42
682.23	1785.83
682.41	1759.21
682.60	1714.15
682.78	1632.23
682.97	1644.52
683.15	1798.12
683.34	1757.16
683.53	1783.78
683.71	1652.71
683.90	1718.25
684.08	1832.93
684.27	1673.19
684.45	1705.96
684.64	1746.92
684.82	1683.43
685.01	1720.29
685.19	1691.62
685.38	1851.36
685.57	1708.01
685.75	1615.85
685.94	1654.76
686.12	1658.85
686.31	1697.77
686.49	1779.68
686.68	1595.37
686.86	1724.39
687.05	1742.82
687.23	1763.30
687.42	1574.89
687.60	1607.66
687.79	1787.88
687.97	1802.21
688.16	1843.17
688.34	1748.97
688.53	1583.08
688.71	1767.40
688.90	1742.82
689.08	1761.25
689.27	1632.23
689.45	1822.69
689.64	1765.35
689.82	1699.81
690.01	1738.73
690.19	1744.87
690.38	1740.77
690.56	1775.59
690.75	1724.39
690.93	1699.81
691.12	1656.81
691.30	1693.67
691.49	1669.09
691.67	1691.62
691.86	1808.36
692.04	1650.66
692.23	1722.34
692.41	1683.43
692.60	1863.65
692.78	1660.90
692.97	1656.81
693.15	1683.43
693.34	1802.21
693.52	1755.11
693.71	1669.09
693.89	1695.72
694.08	1617.90
694.26	1689.57
694.44	1701.86
694.63	1751.01
694.81	1632.23
695.00	1689.57
695.18	1800.16
695.37	1902.56
695.55	1742.82
695.74	1726.44
695.92	1667.05
696.10	1714.15
696.29	1640.42
696.47	1640.42
696.66	1578.98
696.84	1630.18
697.03	1691.62
697.21	1918.95
697.40	2367.45
697.58	1716.20
697.76	1732.58
697.95	1660.90
698.13	1595.37
698.32	1730.53
698.50	1751.01
698.68	1773.54
698.87	1710.05
699.05	1814.50
699.24	1697.77
699.42	1671.14
699.61	1665.00
699.79	1718.25
699.97	1736.68
700.16	1634.28
700.34	1677.29
700.53	1705.96
700.71	1871.84
700.89	1820.64
701.08	1695.72
701.26	1695.72
701.45	2084.83
701.63	1660.90
701.81	1714.15
702.00	1658.85
702.18	1689.57
702.37	1617.90
702.55	1808.36
702.73	1703.91
702.92	1564.65
703.10	1718.25
703.28	1697.77
703.47	1628.14
703.65	1746.92
703.84	1708.01
704.02	1601.51
704.20	1722.34
704.39	1697.77
704.57	1695.72
704.75	1757.16
704.94	1710.05
705.12	1804.26
705.30	1771.49
705.49	2193.37
705.67	4609.98
705.86	9623.41
706.04	12791.61
706.22	14759.71
706.41	15724.30
706.59	13958.96
706.77	9629.55
706.96	7466.89
707.14	6737.82
707.32	5961.64
707.51	5822.38
707.69	4995.00
707.87	4353.98
708.06	3620.81
708.24	2951.12
708.42	2512.86
708.61	2275.29
708.79	1918.95
708.97	1857.51
709.16	1796.07
709.34	1791.97
709.52	1726.44
709.71	1710.05
709.89	1767.40
710.07	1646.57
710.26	1626.09
710.44	1658.85
710.62	1718.25
710.80	1669.09
710.99	1787.88
711.17	1744.87
711.35	1720.29
711.54	1769.44
711.72	1810.40
711.90	1755.11
712.09	1644.52
712.27	1722.34
712.45	1718.25
712.63	1615.85
712.82	1705.96
713.00	1720.29
713.18	1703.91
713.37	1730.53
713.55	1771.49
713.73	1759.21
713.91	1677.29
714.10	1689.57
714.28	1693.67
714.46	1728.49
714.65	1683.43
714.83	1611.75
715.01	1675.24
715.19	1689.57
715.38	1689.57
715.56	1787.88
715.74	1689.57
715.92	1624.04
716.11	1802.21
716.29	1671.14
716.47	1665.00
716.65	1665.00
716.84	1662.95
717.02	1720.29
717.20	1652.71
717.38	1675.24
717.57	1730.53
717.75	1753.06
717.93	1689.57
718.11	1779.68
718.30	1685.48
718.48	1732.58
718.66	1724.39
718.84	1775.59
719.03	1716.20
719.21	1640.42
719.39	1732.58
719.57	1771.49
719.75	1787.88
719.94	1607.66
720.12	1681.38
720.30	1710.05
720.48	1757.16
720.67	1640.42
720.85	1613.80
721.03	1759.21
721.21	1636.33
721.39	1732.58
721.58	1669.09
721.76	1693.67
721.94	1738.73
722.12	1755.11
722.30	1810.40
722.49	1699.81
722.67	1738.73
722.85	1740.77
723.03	1695.72
723.21	1601.51
723.40	1689.57
723.58	1802.21
723.76	1691.62
723.94	1763.30
724.12	1714.15
724.30	1761.25
724.49	1794.02
724.67	1656.81
724.85	1779.68
725.03	1611.75
725.21	1810.40
725.40	1779.68
725.58	1693.67
725.76	1740.77
725.94	1757.16
726.12	1667.05
726.30	1781.73
726.49	1693.67
726.67	1701.86
726.85	1718.25
727.03	1748.97
727.21	2162.66
727.39	2926.55
727.57	3755.97
727.76	4243.39
727.94	4499.39
728.12	4368.32
728.30	3598.28
728.48	2996.18
728.66	2736.09
728.84	2508.76
729.03	2263.01
729.21	2162.66
729.39	2070.50
729.57	1779.68
729.75	1822.69
729.93	1818.60
730.11	1763.30
730.30	1644.52
730.48	1701.86
730.66	1779.68
730.84	1728.49
731.02	1716.20
731.20	1687.53
731.38	1691.62
731.56	1648.61
731.74	1599.46
731.93	1751.01
732.11	1665.00
732.29	1705.96
732.47	1742.82
732.65	1708.01
732.83	1748.97
733.01	1697.77
733.19	1658.85
733.37	1751.01
733.56	1802.21
733.74	1710.05
733.92	1818.60
734.10	1681.38
734.28	1722.34
734.46	1640.42
734.64	1714.15
734.82	1660.90
735.00	1759.21
735.18	1615.85
735.36	1683.43
735.54	1708.01
735.73	1738.73
735.91	1771.49
736.09	1742.82
736.27	1667.05
736.45	1802.21
736.63	1685.48
736.81	1673.19
736.99	1751.01
737.17	1757.16
737.35	1587.18
737.53	1667.05
737.71	1710.05
737.89	1828.84
738.07	1605.61
738.25	1632.23
738.43	1646.57
738.61	1613.80
738.80	1685.48
738.98	1568.74
739.16	1609.70
739.34	1675.24
739.52	1722.34
739.70	1689.57
739.88	1771.49
740.06	1742.82
740.24	1648.61
740.42	1791.97
740.60	1603.56
740.78	1699.81
740.96	1630.18
741.14	1662.95
741.32	1712.10
741.50	1574.89
741.68	1837.03
741.86	1748.97
742.04	1718.25
742.22	1570.79
742.40	1673.19
742.58	1757.16
742.76	1738.73
742.94	1808.36
743.12	1632.23
743.30	1583.08
743.48	1767.40
743.66	1589.22
743.84	1726.44
744.02	1613.80
744.20	1595.37
744.38	1654.76
744.56	1671.14
744.74	1834.98
744.92	1695.72
745.10	1789.92
745.28	1787.88
745.46	1783.78
745.64	1732.58
745.82	1812.45
746.00	1667.05
746.18	1740.77
746.36	1699.81
746.54	1708.01
746.72	1634.28
746.90	1681.38
747.08	1822.69
747.26	1669.09
747.44	1720.29
747.62	1728.49
747.80	1708.01
747.98	1734.63
748.15	1701.86
748.33	1841.12
748.51	1617.90
748.69	1732.58
748.87	1656.81
749.05	1626.09
749.23	1646.57
749.41	1695.72
749.59	1665.00
749.77	1703.91
749.95	1695.72
750.13	1667.05
750.31	1767.40
750.49	1642.47
750.67	1761.25
750.85	1830.88
751.03	1726.44
751.20	1849.32
751.38	1687.53
751.56	1679.33
751.74	1681.38
751.92	1724.39
752.10	1646.57
752.28	1759.21
752.46	1632.23
752.64	1703.91
752.82	1699.81
753.00	1779.68
753.18	1644.52
753.35	1669.09
753.53	1736.68
753.71	1642.47
753.89	1701.86
754.07	1687.53
754.25	1695.72
754.43	1730.53
754.61	1603.56
754.79	1738.73
754.97	1619.94
755.14	1716.20
755.32	1712.10
755.50	1730.53
755.68	1730.53
755.86	1718.25
756.04	1691.62
756.22	1593.32
756.40	1638.38
756.57	1753.06
756.75	1689.57
756.93	1765.35
757.11	1722.34
757.29	1646.57
757.47	1650.66
757.65	1675.24
757.82	1611.75
758.00	1660.90
758.18	1669.09
758.36	1716.20
758.54	1767.40
758.72	1632.23
758.90	1773.54
759.07	1703.91
759.25	1665.00
759.43	1730.53
759.61	1585.13
759.79	2209.76
759.97	1722.34
760.15	1693.67
760.32	1763.30
760.50	1720.29
760.68	1810.40
760.86	1540.07
761.04	1722.34
761.22	1699.81
761.39	1644.52
761.57	1703.91
761.75	1667.05
761.93	1726.44
762.11	1662.95
762.28	1685.48
762.46	1705.96
762.64	1714.15
762.82	1681.38
763.00	1603.56
763.18	1783.78
763.35	1687.53
763.53	1755.11
763.71	1708.01
763.89	1697.77
764.07	1720.29
764.24	1685.48
764.42	1714.15
764.60	1626.09
764.78	1673.19
764.96	1791.97
765.13	1753.06
765.31	1740.77
765.49	1683.43
765.67	1595.37
765.84	1617.90
766.02	1785.83
766.20	1626.09
766.38	1720.29
766.56	1667.05
766.73	1781.73
766.91	1652.71
767.09	1771.49
767.27	1785.83
767.44	1624.04
767.62	1783.78
767.80	1675.24
767.98	1673.19
768.15	1658.85
768.33	1712.10
768.51	1701.86
768.69	1765.35
768.87	1695.72
769.04	1665.00
769.22	1853.41
769.40	1806.31
769.58	1777.64
769.75	1667.05
769.93	1785.83
770.11	1695.72
770.28	1718.25
770.46	1669.09
770.64	1757.16
770.82	1630.18
770.99	1570.79
771.17	1697.77
771.35	1771.49
771.53	1785.83
771.70	1581.03
771.88	1644.52
772.06	1763.30
772.23	1697.77
772.41	1699.81
772.59	1740.77
772.77	1621.99
772.94	1724.39
773.12	1710.05
773.30	1757.16
773.47	1691.62
773.65	1601.51
773.83	1806.31
774.01	1650.66
774.18	1675.24
774.36	1658.85
774.54	1624.04
774.71	1644.52
774.89	1601.51
775.07	1636.33
775.24	1705.96
775.42	1736.68
775.60	1796.07
775.78	1677.29
775.95	1634.28
776.13	1681.38
776.31	1589.22
776.48	1660.90
776.66	1791.97
776.84	1699.81
777.01	1634.28
777.19	1697.77
777.37	1765.35
777.54	1732.58
777.72	1753.06
777.90	1685.48
778.07	1630.18
778.25	1920.99
778.43	1755.11
778.60	1658.85
778.78	1753.06
778.96	1755.11
779.13	1624.04
779.31	1744.87
779.49	1714.15
779.66	1660.90
779.84	1632.23
780.01	1697.77
780.19	1683.43
780.37	1746.92
780.54	1765.35
780.72	1652.71
780.90	1728.49
781.07	1628.14
781.25	1708.01
781.43	1748.97
781.60	1691.62
781.78	1759.21
781.95	1730.53
782.13	1630.18
782.31	1683.43
782.48	1617.90
782.66	1685.48
782.83	1816.55
783.01	1638.38
783.19	1728.49
783.36	1736.68
783.54	1667.05
783.72	1777.64
783.89	1671.14
784.07	1699.81
784.24	1779.68
784.42	1738.73
784.60	1734.63
784.77	1693.67
784.95	1611.75
785.12	1751.01
785.30	1705.96
785.47	1617.90
785.65	1619.94
785.83	1681.38
786.00	1615.85
786.18	1738.73
786.35	1689.57
786.53	1658.85
786.71	1757.16
786.88	1720.29
787.06	1693.67
787.23	1746.92
787.41	1628.14
787.58	1722.34
787.76	1673.19
787.94	1753.06
788.11	1736.68
788.29	1652.71
788.46	1667.05
788.64	1587.18
788.81	1642.47
788.99	1640.42
789.16	1685.48
789.34	1697.77
789.52	1617.90
789.69	1658.85
789.87	1621.99
790.04	1681.38
790.22	1687.53
790.39	1779.68
790.57	1691.62
790.74	1699.81
790.92	1775.59
791.09	1626.09
791.27	1671.14
791.44	1732.58
791.62	1705.96
791.79	1705.96
791.97	1724.39
792.15	1826.79
792.32	1681.38
792.50	1791.97
792.67	1837.03
792.85	1734.63
793.02	1730.53
793.20	1665.00
793.37	1624.04
793.55	1681.38
793.72	1675.24
793.90	1736.68
794.07	1665.00
794.25	1673.19
794.42	1742.82
794.60	1648.61
794.77	1714.15
794.95	1759.21
795.12	1710.05
795.30	1640.42
795.47	1611.75
795.65	1933.28
795.82	1757.16
796.00	1689.57
796.17	1644.52
796.34	1677.29
796.52	1667.05
796.69	1757.16
796.87	1712.10
797.04	1724.39
797.22	1732.58
797.39	1808.36
797.57	1697.77
797.74	1728.49
797.92	1667.05
798.09	1691.62
798.27	1726.44
798.44	1730.53
798.62	1581.03
798.79	1736.68
798.96	1681.38
799.14	1755.11
799.31	1738.73
799.49	1656.81
799.66	1779.68
799.84	1724.39
800.01	1634.28
800.19	1658.85
800.36	1605.61
800.53	1773.54
800.71	1712.10
800.88	1851.36
801.06	1736.68
801.23	1640.42
801.41	1701.86
801.58	1652.71
801.75	1644.52
801.93	1703.91
802.10	1773.54
802.28	1718.25
802.45	1638.38
802.63	1736.68
802.80	1753.06
802.97	1665.00
803.15	1693.67
803.32	1677.29
803.50	1675.24
803.67	1681.38
803.84	1628.14
804.02	1724.39
804.19	1675.24
804.37	1550.31
804.54	1615.85
804.71	1673.19
804.89	1742.82
805.06	1599.46
805.24	1671.14
805.41	1615.85
805.58	1660.90
805.76	1937.38
805.93	1679.33
806.10	1767.40
806.28	1767.40
806.45	1708.01
806.63	1730.53
806.80	1765.35
806.97	1701.86
807.15	1757.16
807.32	1675.24
807.49	1648.61
807.67	1597.42
807.84	1738.73
808.01	1722.34
808.19	1806.31
808.36	1724.39
808.54	1621.99
808.71	1601.51
808.88	1693.67
809.06	1701.86
809.23	1765.35
809.40	1699.81
809.58	1767.40
809.75	1751.01
809.92	1624.04
810.10	1880.04
810.27	1683.43
810.44	1744.87
810.62	1701.86
810.79	1726.44
810.96	1665.00
811.14	1673.19
811.31	1681.38
811.48	1785.83
811.66	1722.34
811.83	1705.96
812.00	1767.40
812.18	1609.70
812.35	1834.98
812.52	1636.33
812.69	1669.09
812.87	1652.71
813.04	1642.47
813.21	1734.63
813.39	1699.81
813.56	1583.08
813.73	1710.05
813.91	1558.50
814.08	1806.31
814.25	1701.86
814.42	1699.81
814.60	1675.24
814.77	1718.25
814.94	1705.96
815.12	1679.33
815.29	1771.49
815.46	1640.42
815.63	1746.92
815.81	1691.62
815.98	1673.19
816.15	1617.90
816.33	1699.81
816.50	1691.62
816.67	1667.05
816.84	1630.18
817.02	1689.57
817.19	1644.52
817.36	1695.72
817.53	1720.29
817.71	1677.29
817.88	1775.59
818.05	1671.14
818.22	1640.42
818.40	1816.55
818.57	1714.15
818.74	1763.30
818.91	1751.01
819.09	1775.59
819.26	1796.07
819.43	1617.90
819.60	1658.85
819.78	1710.05
819.95	1787.88
820.12	1630.18
820.29	1845.22
820.47	1800.16
820.64	1632.23
820.81	1665.00
820.98	1667.05
821.15	1660.90
821.33	1746.92
821.50	1667.05
821.67	1798.12
821.84	1691.62
822.02	1648.61
822.19	1693.67
822.36	1665.00
822.53	1636.33
822.70	1638.38
822.88	1685.48
823.05	1755.11
823.22	1705.96
823.39	1708.01
823.56	1697.77
823.74	1796.07
823.91	1687.53
824.08	1634.28
824.25	1624.04
824.42	1810.40
824.60	1644.52
824.77	1705.96
824.94	1660.90
825.11	1779.68
825.28	1611.75
825.45	1669.09
825.63	1701.86
825.80	1632.23
825.97	1767.40
826.14	1621.99
826.31	1638.38
826.48	1720.29
826.66	1669.09
826.83	1656.81
827.00	1746.92
827.17	1628.14
827.34	1656.81
827.51	1665.00
827.69	1683.43
827.86	1638.38
828.03	1681.38
828.20	1726.44
828.37	1671.14
828.54	1826.79
828.71	1669.09
828.89	1888.23
829.06	1687.53
829.23	1796.07
829.40	1603.56
829.57	1708.01
829.74	1656.81
829.91	1605.61
830.09	1558.50
830.26	1703.91
830.43	1783.78
830.60	1667.05
830.77	1628.14
830.94	1751.01
831.11	1740.77
831.28	1683.43
831.46	1714.15
831.63	1677.29
831.80	1742.82
831.97	1681.38
832.14	1640.42
832.31	1751.01
832.48	1783.78
832.65	1757.16
832.82	1714.15
832.99	1695.72
833.17	1683.43
833.34	1742.82
833.51	1581.03
833.68	1665.00
833.85	1710.05
834.02	1613.80
834.19	1632.23
834.36	1585.13
834.53	1765.35
834.70	1712.10
834.87	1751.01
835.04	1716.20
835.22	1724.39
835.39	1677.29
835.56	1587.18
835.73	1705.96
835.90	1710.05
836.07	1697.77
836.24	1732.58
836.41	1685.48
836.58	1716.20
836.75	1775.59
836.92	1685.48
837.09	1652.71
837.26	1796.07
837.43	1701.86
837.60	1761.25
837.77	1652.71
837.94	1728.49
838.12	1714.15
838.29	1710.05
838.46	1699.81
838.63	1615.85
838.80	1849.32
838.97	1732.58
839.14	1665.00
839.31	1679.33
839.48	1759.21
839.65	1687.53
839.82	1794.02
839.99	1765.35
840.16	1767.40
840.33	1695.72
840.50	1652.71
840.67	1595.37
840.84	1597.42
841.01	1687.53
841.18	1695.72
841.35	1578.98
841.52	1703.91
841.69	1822.69
841.86	1585.13
842.03	1667.05
842.20	1744.87
842.37	1701.86
842.54	1650.66
842.71	1695.72
842.88	1583.08
843.05	1791.97
843.22	1740.77
843.39	1718.25
843.56	1675.24
843.73	1695.72
843.90	1710.05
844.07	1710.05
844.24	1730.53
844.41	1806.31
844.58	1759.21
844.75	1687.53
844.92	1695.72
845.09	1746.92
845.26	1601.51
845.43	1701.86
845.60	1632.23
845.77	1734.63
845.94	1722.34
846.10	1771.49
846.27	1626.09
846.44	1619.94
846.61	1669.09
846.78	1718.25
846.95	1740.77
847.12	1730.53
847.29	1613.80
847.46	1683.43
847.63	1720.29
847.80	1636.33
847.97	1697.77
848.14	1785.83
848.31	1712.10
848.48	1685.48
848.65	1718.25
848.82	1689.57
848.98	1869.80
849.15	1701.86
849.32	1740.77
849.49	1716.20
849.66	1751.01
849.83	1701.86
850.00	1660.90
850.17	1689.57
850.34	1636.33
850.51	1628.14
850.68	1705.96
850.85	1822.69
851.01	1740.77
851.18	1693.67
851.35	1673.19
851.52	1673.19
851.69	1839.08
851.86	1587.18
852.03	1697.77
852.20	1791.97
852.37	1677.29
852.53	1624.04
852.70	1724.39
852.87	1681.38
853.04	1689.57
853.21	1652.71
853.38	1726.44
853.55	1624.04
853.72	1681.38
853.89	1646.57
854.05	1566.70
854.22	1736.68
854.39	1650.66
854.56	1753.06
854.73	1861.60
854.90	1615.85
855.07	1742.82
855.23	1687.53
855.40	1628.14
855.57	1703.91
855.74	1605.61
855.91	1875.94
856.08	1693.67
856.25	1615.85
856.41	1685.48
856.58	1648.61
856.75	1681.38
856.92	1607.66
857.09	1761.25
857.26	1581.03
857.42	1720.29
857.59	1701.86
857.76	1656.81
857.93	1669.09
858.10	1751.01
858.27	1679.33
858.43	1677.29
858.60	1591.27
858.77	1607.66
858.94	1630.18
859.11	1767.40
859.27	1621.99
859.44	1591.27
859.61	1787.88
859.78	1779.68
859.95	1722.34
860.12	1667.05
860.28	1734.63
860.45	1726.44
860.62	1650.66
860.79	1660.90
860.95	1701.86
861.12	1677.29
861.29	1603.56
861.46	1660.90
861.63	1742.82
861.79	1726.44
861.96	1644.52
862.13	1685.48
862.30	1759.21
862.47	1615.85
862.63	1621.99
862.80	1773.54
862.97	1775.59
863.14	1738.73
863.30	1681.38
863.47	1671.14
863.64	1789.92
863.81	1697.77
863.97	1722.34
864.14	1675.24
864.31	1673.19
864.48	1695.72
864.65	1724.39
864.81	1685.48
864.98	1720.29
865.15	1679.33
865.32	1701.86
865.48	1763.30
865.65	1822.69
865.82	1654.76
865.98	1757.16
866.15	1814.50
866.32	1669.09
866.49	1646.57
866.65	1724.39
866.82	1705.96
866.99	1671.14
867.16	1632.23
867.32	1613.80
867.49	1714.15
867.66	1697.77
867.83	1660.90
867.99	1593.32
868.16	1636.33
868.33	1636.33
868.49	1648.61
868.66	1732.58
868.83	1798.12
868.99	1708.01
869.16	1619.94
869.33	1753.06
869.50	1773.54
869.66	1714.15
869.83	1632.23
870.00	1630.18
870.16	1730.53
870.33	1722.34
870.50	1720.29
870.66	1695.72
870.83	1808.36
871.00	1714.15
871.17	1662.95
871.33	1685.48
871.50	1665.00
871.67	1716.20
871.83	1617.90
872.00	1783.78
872.17	1660.90
872.33	1808.36
872.50	1726.44
872.67	1720.29
872.83	1748.97
873.00	1667.05
873.17	1691.62
873.33	1671.14
873.50	1732.58
873.67	1658.85
873.83	1644.52
874.00	1648.61
874.16	1759.21
874.33	1695.72
874.50	1609.70
874.66	1736.68
874.83	1736.68
875.00	1806.31
875.16	1814.50
875.33	1753.06
875.50	1548.26
875.66	1697.77
875.83	1705.96
875.99	1716.20
876.16	1648.61
876.33	1667.05
876.49	1681.38
876.66	1689.57
876.83	1693.67
876.99	1626.09
877.16	1671.14
877.32	1656.81
877.49	1679.33
877.66	1720.29
877.82	1798.12
877.99	1761.25
878.15	1775.59
878.32	1681.38
878.49	1708.01
878.65	1679.33
878.82	1705.96
878.98	1601.51
879.15	1796.07
879.32	1824.74
879.48	1738.73
879.65	1673.19
879.81	1667.05
879.98	1644.52
880.15	1642.47
880.31	1697.77
880.48	1595.37
880.64	1744.87
880.81	1740.77
880.97	1794.02
881.14	1771.49
881.31	1648.61
881.47	1804.26
881.64	1730.53
881.80	1640.42
881.97	1705.96
882.13	1751.01
882.30	1701.86
882.47	1656.81
882.63	1658.85
882.80	1699.81
882.96	1621.99
883.13	1796.07
883.29	1662.95
883.46	1783.78
883.62	1814.50
883.79	1673.19
883.95	1783.78
884.12	1697.77
884.29	1675.24
884.45	1648.61
884.62	1665.00
884.78	1626.09
884.95	1734.63
885.11	1607.66
885.28	1779.68
885.44	1632.23
885.61	1738.73
885.77	1777.64
885.94	1730.53
886.10	1746.92
886.27	1699.81
886.43	1730.53
886.60	1804.26
886.76	1681.38
886.93	1642.47
887.09	1673.19
887.26	1574.89
887.42	1650.66
887.59	1767.40
887.75	1757.16
887.92	1716.20
888.08	1751.01
888.25	1779.68
888.41	1703.91
888.58	1667.05
888.74	1734.63
888.91	1740.77
>>>>>End Processed Spectral Data<<<<<
