SpectraSuite Data File
++++++++++++++++++++++++++++++++++++
Date: Mon Jun 06 15:20:57 CEST 2016
User: root
Dark Spectrum Present: No
Reference Spectrum Present: No
Number of Sampled Component Spectra: 1
Spectrometers: USB4C02835
Integration Time (usec): 100000 (USB4C02835)
Spectra Averaged: 1 (USB4C02835)
Boxcar Smoothing: 0 (USB4C02835)
Correct for Electrical Dark: No (USB4C02835)
Strobe/Lamp Enabled: No (USB4C02835)
Correct for Detector Non-linearity: No (USB4C02835)
Correct for Stray Light: No (USB4C02835)
Number of Pixels in Processed Spectrum: 3648
>>>>>Begin Processed Spectral Data<<<<<
177.47	1509.35
177.69	1509.35
177.91	1509.35
178.13	1503.21
178.36	1423.34
178.58	1564.65
178.80	1765.35
179.02	1656.81
179.24	1650.66
179.46	1714.15
179.68	1796.07
179.90	1716.20
180.13	1716.20
180.35	1621.99
180.57	1665.00
180.79	1730.53
181.01	1605.61
181.23	1718.25
181.45	1779.68
181.67	1695.72
181.90	1736.68
182.12	1650.66
182.34	1566.70
182.56	1751.01
182.78	1685.48
183.00	1689.57
183.22	1708.01
183.44	1621.99
183.66	1851.36
183.89	1755.11
184.11	1703.91
184.33	1736.68
184.55	1763.30
184.77	1714.15
184.99	1708.01
185.21	1693.67
185.43	1863.65
185.65	1767.40
185.87	1689.57
186.10	1869.80
186.32	1847.27
186.54	1787.88
186.76	1767.40
186.98	1804.26
187.20	1673.19
187.42	1701.86
187.64	1716.20
187.86	1708.01
188.08	1761.25
188.30	1640.42
188.52	1697.77
188.75	1800.16
188.97	1789.92
189.19	1636.33
189.41	1718.25
189.63	1785.83
189.85	1603.56
190.07	1640.42
190.29	1611.75
190.51	1665.00
190.73	1681.38
190.95	1773.54
191.17	1748.97
191.39	1632.23
191.61	1697.77
191.84	1603.56
192.06	1714.15
192.28	1648.61
192.50	1849.32
192.72	1738.73
192.94	1667.05
193.16	1857.51
193.38	1755.11
193.60	1615.85
193.82	1722.34
194.04	1845.22
194.26	1751.01
194.48	1673.19
194.70	1697.77
194.92	1738.73
195.14	1777.64
195.36	1679.33
195.58	1814.50
195.80	1734.63
196.02	1699.81
196.24	1759.21
196.46	1665.00
196.69	1626.09
196.91	1906.66
197.13	1687.53
197.35	1691.62
197.57	1783.78
197.79	1679.33
198.01	1705.96
198.23	1810.40
198.45	1800.16
198.67	1683.43
198.89	1744.87
199.11	1740.77
199.33	1673.19
199.55	1595.37
199.77	1699.81
199.99	1736.68
200.21	1701.86
200.43	1724.39
200.65	1624.04
200.87	1624.04
201.09	1712.10
201.31	1748.97
201.53	1734.63
201.75	1687.53
201.97	1751.01
202.19	1695.72
202.41	1753.06
202.63	1769.44
202.85	1677.29
203.07	1683.43
203.29	1654.76
203.51	1710.05
203.73	1734.63
203.95	1841.12
204.17	1728.49
204.39	1796.07
204.61	1660.90
204.83	1748.97
205.05	1804.26
205.27	1816.55
205.49	1853.41
205.71	1697.77
205.93	1630.18
206.15	1667.05
206.37	1650.66
206.59	1714.15
206.81	1660.90
207.03	1576.94
207.25	1626.09
207.47	1755.11
207.69	1781.73
207.91	1806.31
208.13	1863.65
208.34	1671.14
208.56	1609.70
208.78	1769.44
209.00	1738.73
209.22	1669.09
209.44	1693.67
209.66	1724.39
209.88	1712.10
210.10	1718.25
210.32	1775.59
210.54	1757.16
210.76	1675.24
210.98	1740.77
211.20	1538.02
211.42	1765.35
211.64	1845.22
211.86	1818.60
212.08	1789.92
212.30	1779.68
212.52	1734.63
212.74	1769.44
212.96	1763.30
213.17	1665.00
213.39	1714.15
213.61	1800.16
213.83	1656.81
214.05	1658.85
214.27	1765.35
214.49	1705.96
214.71	1681.38
214.93	1818.60
215.15	1751.01
215.37	1687.53
215.59	1626.09
215.81	1765.35
216.03	1769.44
216.24	1806.31
216.46	1695.72
216.68	1718.25
216.90	1779.68
217.12	1724.39
217.34	1771.49
217.56	1751.01
217.78	1732.58
218.00	1681.38
218.22	1665.00
218.44	1755.11
218.66	1675.24
218.87	1894.37
219.09	1648.61
219.31	1685.48
219.53	1748.97
219.75	1730.53
219.97	1730.53
220.19	1742.82
220.41	1650.66
220.63	1785.83
220.85	1753.06
221.06	1714.15
221.28	1863.65
221.50	1771.49
221.72	1740.77
221.94	1748.97
222.16	1708.01
222.38	1726.44
222.60	1796.07
222.82	1693.67
223.03	1771.49
223.25	1660.90
223.47	1742.82
223.69	1841.12
223.91	1742.82
224.13	1736.68
224.35	1636.33
224.57	1818.60
224.78	1660.90
225.00	1644.52
225.22	1720.29
225.44	1697.77
225.66	1761.25
225.88	1679.33
226.10	1781.73
226.32	1708.01
226.53	1751.01
226.75	1714.15
226.97	1705.96
227.19	1728.49
227.41	1597.42
227.63	1705.96
227.85	1644.52
228.06	1763.30
228.28	1697.77
228.50	1828.84
228.72	1677.29
228.94	1681.38
229.16	1599.46
229.37	1705.96
229.59	1675.24
229.81	1751.01
230.03	1654.76
230.25	1642.47
230.47	1677.29
230.69	1587.18
230.90	1718.25
231.12	1624.04
231.34	1738.73
231.56	1744.87
231.78	1626.09
232.00	1683.43
232.21	1714.15
232.43	1617.90
232.65	1640.42
232.87	1714.15
233.09	1671.14
233.30	1751.01
233.52	1720.29
233.74	1724.39
233.96	1681.38
234.18	1593.32
234.40	1550.31
234.61	1818.60
234.83	1691.62
235.05	1587.18
235.27	1781.73
235.49	1763.30
235.70	1677.29
235.92	1742.82
236.14	1822.69
236.36	1820.64
236.58	1632.23
236.79	1767.40
237.01	1710.05
237.23	1722.34
237.45	1742.82
237.67	1681.38
237.88	1710.05
238.10	1761.25
238.32	1628.14
238.54	1740.77
238.76	1753.06
238.97	1673.19
239.19	1701.86
239.41	1714.15
239.63	1818.60
239.85	1738.73
240.06	1732.58
240.28	1710.05
240.50	1748.97
240.72	1691.62
240.93	1648.61
241.15	1744.87
241.37	1697.77
241.59	1677.29
241.81	1716.20
242.02	1757.16
242.24	1667.05
242.46	1710.05
242.68	1652.71
242.89	1716.20
243.11	1806.31
243.33	1701.86
243.55	1789.92
243.76	1796.07
243.98	1638.38
244.20	1705.96
244.42	1722.34
244.64	1697.77
244.85	1679.33
245.07	1636.33
245.29	1705.96
245.51	1730.53
245.72	1685.48
245.94	1779.68
246.16	1671.14
246.38	1705.96
246.59	1632.23
246.81	1697.77
247.03	1716.20
247.24	1642.47
247.46	1632.23
247.68	1710.05
247.90	1728.49
248.11	1624.04
248.33	1753.06
248.55	1695.72
248.77	1665.00
248.98	1691.62
249.20	1894.37
249.42	1718.25
249.64	1687.53
249.85	1705.96
250.07	1699.81
250.29	1738.73
250.50	1662.95
250.72	1650.66
250.94	1705.96
251.16	1843.17
251.37	1806.31
251.59	1755.11
251.81	1667.05
252.02	1785.83
252.24	1769.44
252.46	1685.48
252.68	1726.44
252.89	1705.96
253.11	1689.57
253.33	1824.74
253.54	1759.21
253.76	1701.86
253.98	1701.86
254.20	1665.00
254.41	1648.61
254.63	1722.34
254.85	1648.61
255.06	1624.04
255.28	1689.57
255.50	1724.39
255.71	1679.33
255.93	1617.90
256.15	1720.29
256.36	1753.06
256.58	1683.43
256.80	1636.33
257.02	1638.38
257.23	1658.85
257.45	1712.10
257.67	1703.91
257.88	1691.62
258.10	1710.05
258.32	1744.87
258.53	1769.44
258.75	1722.34
258.97	1705.96
259.18	1699.81
259.40	1742.82
259.62	1853.41
259.83	1710.05
260.05	1775.59
260.27	1959.91
260.48	1742.82
260.70	1732.58
260.92	1742.82
261.13	1689.57
261.35	1646.57
261.57	1804.26
261.78	1638.38
262.00	1675.24
262.22	1736.68
262.43	1642.47
262.65	1701.86
262.86	1722.34
263.08	1851.36
263.30	1671.14
263.51	1615.85
263.73	1634.28
263.95	1734.63
264.16	1708.01
264.38	1699.81
264.60	1744.87
264.81	1699.81
265.03	1738.73
265.25	1755.11
265.46	1605.61
265.68	1771.49
265.89	1701.86
266.11	1654.76
266.33	1687.53
266.54	1861.60
266.76	1730.53
266.98	1789.92
267.19	1816.55
267.41	1755.11
267.62	1724.39
267.84	1601.51
268.06	1695.72
268.27	1667.05
268.49	1877.99
268.70	1718.25
268.92	1701.86
269.14	1718.25
269.35	1615.85
269.57	1714.15
269.79	1757.16
270.00	1597.42
270.22	1837.03
270.43	1697.77
270.65	1576.94
270.87	1765.35
271.08	1732.58
271.30	1832.93
271.51	1796.07
271.73	1767.40
271.95	1759.21
272.16	1773.54
272.38	1738.73
272.59	1611.75
272.81	1746.92
273.02	1671.14
273.24	1759.21
273.46	1777.64
273.67	1658.85
273.89	1662.95
274.10	1748.97
274.32	1777.64
274.54	1785.83
274.75	1695.72
274.97	1617.90
275.18	1773.54
275.40	1753.06
275.61	1720.29
275.83	1693.67
276.05	1644.52
276.26	1681.38
276.48	1691.62
276.69	1722.34
276.91	1638.38
277.12	1740.77
277.34	1757.16
277.55	1771.49
277.77	1744.87
277.99	1671.14
278.20	1681.38
278.42	1640.42
278.63	1722.34
278.85	1718.25
279.06	1681.38
279.28	1685.48
279.49	1775.59
279.71	1724.39
279.93	1660.90
280.14	1710.05
280.36	1581.03
280.57	1736.68
280.79	1767.40
281.00	1744.87
281.22	1718.25
281.43	1699.81
281.65	1621.99
281.86	1683.43
282.08	1703.91
282.29	1849.32
282.51	1613.80
282.73	1613.80
282.94	1714.15
283.16	1769.44
283.37	1785.83
283.59	1701.86
283.80	1837.03
284.02	1656.81
284.23	1759.21
284.45	1695.72
284.66	1695.72
284.88	1652.71
285.09	1808.36
285.31	1738.73
285.52	1701.86
285.74	1558.50
285.95	1794.02
286.17	1720.29
286.38	1767.40
286.60	1648.61
286.81	1677.29
287.03	1738.73
287.24	1716.20
287.46	1705.96
287.67	1705.96
287.89	1892.32
288.10	1619.94
288.32	1789.92
288.53	1824.74
288.75	1679.33
288.96	1722.34
289.18	1728.49
289.39	1751.01
289.61	1837.03
289.82	1796.07
290.04	1777.64
290.25	1734.63
290.47	1658.85
290.68	1669.09
290.90	1796.07
291.11	1734.63
291.33	1798.12
291.54	1599.46
291.76	1665.00
291.97	1791.97
292.18	1718.25
292.40	1585.13
292.61	1560.55
292.83	1853.41
293.04	1708.01
293.26	1816.55
293.47	1699.81
293.69	1644.52
293.90	1693.67
294.12	1796.07
294.33	1697.77
294.55	1763.30
294.76	1785.83
294.97	1777.64
295.19	1755.11
295.40	1726.44
295.62	1740.77
295.83	1746.92
296.05	1621.99
296.26	1773.54
296.48	1697.77
296.69	1734.63
296.90	1673.19
297.12	1718.25
297.33	1802.21
297.55	1748.97
297.76	1710.05
297.98	1818.60
298.19	1697.77
298.41	1681.38
298.62	1644.52
298.83	1781.73
299.05	1744.87
299.26	1685.48
299.48	1689.57
299.69	1771.49
299.90	1812.45
300.12	1708.01
300.33	1724.39
300.55	1781.73
300.76	1765.35
300.98	1646.57
301.19	1730.53
301.40	1677.29
301.62	1642.47
301.83	1804.26
302.05	1691.62
302.26	1624.04
302.47	1705.96
302.69	1669.09
302.90	1697.77
303.12	1505.26
303.33	1755.11
303.54	1746.92
303.76	1705.96
303.97	1685.48
304.19	1773.54
304.40	1667.05
304.61	1730.53
304.83	1789.92
305.04	1773.54
305.26	1710.05
305.47	1708.01
305.68	1705.96
305.90	1693.67
306.11	1771.49
306.33	1638.38
306.54	1744.87
306.75	1640.42
306.97	1648.61
307.18	1710.05
307.39	1597.42
307.61	1714.15
307.82	1654.76
308.04	1730.53
308.25	1685.48
308.46	1652.71
308.68	1705.96
308.89	1638.38
309.10	1765.35
309.32	1667.05
309.53	1761.25
309.74	1720.29
309.96	1726.44
310.17	1753.06
310.39	1712.10
310.60	1781.73
310.81	1701.86
311.03	1685.48
311.24	1689.57
311.45	1687.53
311.67	1834.98
311.88	1718.25
312.09	1695.72
312.31	1728.49
312.52	1705.96
312.73	1697.77
312.95	1671.14
313.16	1632.23
313.37	1767.40
313.59	1765.35
313.80	1751.01
314.01	1796.07
314.23	1695.72
314.44	1662.95
314.65	1650.66
314.87	1658.85
315.08	1722.34
315.29	1710.05
315.51	1630.18
315.72	1675.24
315.93	1863.65
316.15	1794.02
316.36	1630.18
316.57	1644.52
316.79	1769.44
317.00	1665.00
317.21	1693.67
317.43	1654.76
317.64	1613.80
317.85	1628.14
318.07	1669.09
318.28	1777.64
318.49	1818.60
318.70	1904.61
318.92	1863.65
319.13	1806.31
319.34	1787.88
319.56	1806.31
319.77	1806.31
319.98	1777.64
320.20	1761.25
320.41	1734.63
320.62	1718.25
320.83	1640.42
321.05	1841.12
321.26	1726.44
321.47	1654.76
321.69	1765.35
321.90	1628.14
322.11	1640.42
322.32	1708.01
322.54	1847.27
322.75	1775.59
322.96	1843.17
323.18	1648.61
323.39	1597.42
323.60	1753.06
323.81	1755.11
324.03	1722.34
324.24	1728.49
324.45	1697.77
324.66	1669.09
324.88	1800.16
325.09	1710.05
325.30	1712.10
325.52	1736.68
325.73	1693.67
325.94	1685.48
326.15	1566.70
326.37	1722.34
326.58	1812.45
326.79	1746.92
327.00	1638.38
327.22	1775.59
327.43	1660.90
327.64	1624.04
327.85	1730.53
328.07	1697.77
328.28	1775.59
328.49	1718.25
328.70	1675.24
328.92	1708.01
329.13	1638.38
329.34	1740.77
329.55	1812.45
329.76	1712.10
329.98	1722.34
330.19	1761.25
330.40	1683.43
330.61	1775.59
330.83	1724.39
331.04	1732.58
331.25	1740.77
331.46	1716.20
331.68	1632.23
331.89	1781.73
332.10	1689.57
332.31	1660.90
332.52	1748.97
332.74	1738.73
332.95	1681.38
333.16	1751.01
333.37	1820.64
333.58	1609.70
333.80	1789.92
334.01	1552.36
334.22	1642.47
334.43	1673.19
334.64	1683.43
334.86	1615.85
335.07	1581.03
335.28	1773.54
335.49	1662.95
335.70	1744.87
335.92	1759.21
336.13	1818.60
336.34	1775.59
336.55	1695.72
336.76	1718.25
336.98	1660.90
337.19	1728.49
337.40	1787.88
337.61	1894.37
337.82	1654.76
338.04	1781.73
338.25	1673.19
338.46	1779.68
338.67	1697.77
338.88	1564.65
339.09	1650.66
339.31	1712.10
339.52	1712.10
339.73	1646.57
339.94	1656.81
340.15	1703.91
340.36	1703.91
340.58	1712.10
340.79	1667.05
341.00	1701.86
341.21	1597.42
341.42	1755.11
341.63	1751.01
341.85	1677.29
342.06	1714.15
342.27	1669.09
342.48	1798.12
342.69	1554.41
342.90	1779.68
343.12	1732.58
343.33	1757.16
343.54	1761.25
343.75	1855.46
343.96	1810.40
344.17	1722.34
344.38	1701.86
344.60	1681.38
344.81	1607.66
345.02	1748.97
345.23	1736.68
345.44	1757.16
345.65	1751.01
345.86	1765.35
346.07	1638.38
346.29	1722.34
346.50	1814.50
346.71	1701.86
346.92	1695.72
347.13	1843.17
347.34	1796.07
347.55	1730.53
347.76	1720.29
347.98	1605.61
348.19	1701.86
348.40	1748.97
348.61	1718.25
348.82	1748.97
349.03	1767.40
349.24	1632.23
349.45	1830.88
349.66	1574.89
349.88	1751.01
350.09	1609.70
350.30	1738.73
350.51	1798.12
350.72	1791.97
350.93	1685.48
351.14	1734.63
351.35	1722.34
351.56	1718.25
351.77	1697.77
351.99	1755.11
352.20	1785.83
352.41	1769.44
352.62	1658.85
352.83	1722.34
353.04	1724.39
353.25	1591.27
353.46	1804.26
353.67	1759.21
353.88	1607.66
354.09	1689.57
354.30	1746.92
354.52	1789.92
354.73	1726.44
354.94	1753.06
355.15	1699.81
355.36	1849.32
355.57	1718.25
355.78	1740.77
355.99	1652.71
356.20	1687.53
356.41	1837.03
356.62	1740.77
356.83	1732.58
357.04	1775.59
357.25	1652.71
357.46	1691.62
357.68	1587.18
357.89	1673.19
358.10	1714.15
358.31	1767.40
358.52	1583.08
358.73	1648.61
358.94	1621.99
359.15	1708.01
359.36	1746.92
359.57	1710.05
359.78	1718.25
359.99	1746.92
360.20	1640.42
360.41	1714.15
360.62	1730.53
360.83	1765.35
361.04	1804.26
361.25	1648.61
361.46	1789.92
361.67	1734.63
361.88	1705.96
362.09	1812.45
362.30	1783.78
362.51	1601.51
362.72	1693.67
362.93	1738.73
363.14	1775.59
363.35	1724.39
363.56	1646.57
363.78	1732.58
363.99	1746.92
364.20	1650.66
364.41	1710.05
364.62	1804.26
364.83	1755.11
365.04	1671.14
365.25	1710.05
365.46	1847.27
365.67	1689.57
365.88	1593.32
366.09	1660.90
366.30	1710.05
366.51	1730.53
366.72	1665.00
366.93	1736.68
367.14	1757.16
367.35	1773.54
367.56	1714.15
367.77	1791.97
367.98	1712.10
368.18	1769.44
368.39	1673.19
368.60	1683.43
368.81	1765.35
369.02	1681.38
369.23	1744.87
369.44	1656.81
369.65	1728.49
369.86	1699.81
370.07	1736.68
370.28	1646.57
370.49	1791.97
370.70	1789.92
370.91	1716.20
371.12	1630.18
371.33	1740.77
371.54	1687.53
371.75	1847.27
371.96	1607.66
372.17	1691.62
372.38	1763.30
372.59	1789.92
372.80	1718.25
373.01	1798.12
373.22	1751.01
373.43	1705.96
373.64	1683.43
373.85	1814.50
374.06	1732.58
374.26	1720.29
374.47	1603.56
374.68	1845.22
374.89	1730.53
375.10	1662.95
375.31	1845.22
375.52	1646.57
375.73	1771.49
375.94	1732.58
376.15	1820.64
376.36	1718.25
376.57	1658.85
376.78	1734.63
376.99	1769.44
377.20	1757.16
377.40	1771.49
377.61	1869.80
377.82	1689.57
378.03	1849.32
378.24	1787.88
378.45	1748.97
378.66	1677.29
378.87	1603.56
379.08	1607.66
379.29	1605.61
379.50	1705.96
379.71	1669.09
379.91	1781.73
380.12	1626.09
380.33	1773.54
380.54	1701.86
380.75	1734.63
380.96	1701.86
381.17	1736.68
381.38	1728.49
381.59	1744.87
381.80	1689.57
382.00	1877.99
382.21	1726.44
382.42	1755.11
382.63	1923.04
382.84	1724.39
383.05	1761.25
383.26	1804.26
383.47	1734.63
383.68	1818.60
383.88	1808.36
384.09	1810.40
384.30	1943.52
384.51	1687.53
384.72	1681.38
384.93	1613.80
385.14	1753.06
385.35	1834.98
385.55	1697.77
385.76	1822.69
385.97	1728.49
386.18	1705.96
386.39	1685.48
386.60	1681.38
386.81	1787.88
387.02	1658.85
387.22	1769.44
387.43	1699.81
387.64	1843.17
387.85	1875.94
388.06	2228.19
388.27	4159.42
388.48	6582.17
388.68	8163.20
388.89	9434.99
389.10	9506.67
389.31	8275.84
389.52	7427.98
389.73	6700.95
389.93	6184.87
390.14	5832.62
390.35	5050.29
390.56	4564.92
390.77	3727.30
390.98	2965.46
391.18	2484.19
391.39	2201.57
391.60	1822.69
391.81	1867.75
392.02	1730.53
392.23	1875.94
392.43	1701.86
392.64	1814.50
392.85	1757.16
393.06	1798.12
393.27	1748.97
393.47	1710.05
393.68	1738.73
393.89	1736.68
394.10	1767.40
394.31	1640.42
394.52	1660.90
394.72	1658.85
394.93	1832.93
395.14	1693.67
395.35	1685.48
395.56	1705.96
395.76	1728.49
395.97	1806.31
396.18	1841.12
396.39	1910.75
396.60	2013.15
396.80	1814.50
397.01	1822.69
397.22	1808.36
397.43	1765.35
397.64	1755.11
397.84	1757.16
398.05	1900.52
398.26	1794.02
398.47	1802.21
398.67	1738.73
398.88	1763.30
399.09	1697.77
399.30	1744.87
399.51	1757.16
399.71	1640.42
399.92	1683.43
400.13	1714.15
400.34	1679.33
400.54	1796.07
400.75	1806.31
400.96	1720.29
401.17	1794.02
401.37	1720.29
401.58	1673.19
401.79	1779.68
402.00	1865.70
402.21	1959.91
402.41	1964.00
402.62	1978.34
402.83	2027.49
403.04	2004.96
403.24	2115.55
403.45	1822.69
403.66	1947.62
403.87	1890.28
404.07	1933.28
404.28	1933.28
404.49	1994.72
404.70	1796.07
404.90	1837.03
405.11	1730.53
405.32	1728.49
405.52	1761.25
405.73	1685.48
405.94	1726.44
406.15	1693.67
406.35	1791.97
406.56	1773.54
406.77	1671.14
406.98	1742.82
407.18	1673.19
407.39	1767.40
407.60	1789.92
407.80	1683.43
408.01	1679.33
408.22	1656.81
408.43	1683.43
408.63	1767.40
408.84	1804.26
409.05	1806.31
409.25	1642.47
409.46	1665.00
409.67	1677.29
409.88	1648.61
410.08	1730.53
410.29	1753.06
410.50	1736.68
410.70	1746.92
410.91	1566.70
411.12	1757.16
411.32	1699.81
411.53	1775.59
411.74	1857.51
411.95	1798.12
412.15	1779.68
412.36	1763.30
412.57	1777.64
412.77	1839.08
412.98	1708.01
413.19	1675.24
413.39	1830.88
413.60	1718.25
413.81	1837.03
414.01	1619.94
414.22	1662.95
414.43	1755.11
414.63	1699.81
414.84	1785.83
415.05	1644.52
415.25	1697.77
415.46	1785.83
415.67	1705.96
415.87	1740.77
416.08	1732.58
416.29	1691.62
416.49	1789.92
416.70	1654.76
416.91	1662.95
417.11	1699.81
417.32	1712.10
417.53	1771.49
417.73	1708.01
417.94	1675.24
418.15	1738.73
418.35	1703.91
418.56	1718.25
418.77	1824.74
418.97	1705.96
419.18	1720.29
419.38	1595.37
419.59	1703.91
419.80	1689.57
420.00	1773.54
420.21	1671.14
420.42	1726.44
420.62	1726.44
420.83	1705.96
421.04	1806.31
421.24	1705.96
421.45	1765.35
421.65	1785.83
421.86	1681.38
422.07	1665.00
422.27	1820.64
422.48	1714.15
422.69	1626.09
422.89	1679.33
423.10	1787.88
423.30	1771.49
423.51	1732.58
423.72	1783.78
423.92	1654.76
424.13	1660.90
424.33	1722.34
424.54	1798.12
424.75	1746.92
424.95	1796.07
425.16	1751.01
425.36	1734.63
425.57	1763.30
425.78	1716.20
425.98	1755.11
426.19	1689.57
426.39	1652.71
426.60	1724.39
426.81	1757.16
427.01	1640.42
427.22	1669.09
427.42	1730.53
427.63	1665.00
427.83	1720.29
428.04	1810.40
428.25	1814.50
428.45	1798.12
428.66	1744.87
428.86	1710.05
429.07	1751.01
429.28	1726.44
429.48	1728.49
429.69	1656.81
429.89	1705.96
430.10	1763.30
430.30	1761.25
430.51	1804.26
430.71	1697.77
430.92	1708.01
431.13	1716.20
431.33	1716.20
431.54	1773.54
431.74	1845.22
431.95	1798.12
432.15	1656.81
432.36	1740.77
432.56	1771.49
432.77	1789.92
432.98	1867.75
433.18	1761.25
433.39	1705.96
433.59	1761.25
433.80	1818.60
434.00	1820.64
434.21	1689.57
434.41	1716.20
434.62	1822.69
434.82	1589.22
435.03	1685.48
435.23	1744.87
435.44	1652.71
435.64	1732.58
435.85	1763.30
436.06	1794.02
436.26	1798.12
436.47	1681.38
436.67	1691.62
436.88	1736.68
437.08	1765.35
437.29	1755.11
437.49	1722.34
437.70	1834.98
437.90	1751.01
438.11	1822.69
438.31	1763.30
438.52	1748.97
438.72	1834.98
438.93	1898.47
439.13	1763.30
439.34	1845.22
439.54	1746.92
439.75	1755.11
439.95	1859.56
440.16	1699.81
440.36	1746.92
440.57	1753.06
440.77	1746.92
440.98	1763.30
441.18	1757.16
441.39	1697.77
441.59	1703.91
441.80	1867.75
442.00	1761.25
442.21	1861.60
442.41	1699.81
442.62	1808.36
442.82	1744.87
443.02	1761.25
443.23	1744.87
443.43	1755.11
443.64	1806.31
443.84	1665.00
444.05	1806.31
444.25	1705.96
444.46	1806.31
444.66	1771.49
444.87	1839.08
445.07	1714.15
445.28	1751.01
445.48	1863.65
445.69	1806.31
445.89	1841.12
446.09	1714.15
446.30	2025.44
446.50	2666.46
446.71	3590.09
446.91	4218.82
447.12	4685.75
447.32	4650.94
447.53	4208.58
447.73	3792.84
447.93	3602.38
448.14	3250.13
448.34	3172.30
448.55	2908.12
448.75	2908.12
448.96	2684.89
449.16	2443.23
449.36	2301.92
449.57	2058.21
449.77	1863.65
449.98	1789.92
450.18	1884.13
450.39	1800.16
450.59	1802.21
450.79	1714.15
451.00	1673.19
451.20	1724.39
451.41	1726.44
451.61	1697.77
451.81	1718.25
452.02	1712.10
452.22	1665.00
452.43	1748.97
452.63	1683.43
452.84	1820.64
453.04	1701.86
453.24	1730.53
453.45	1656.81
453.65	1814.50
453.86	1689.57
454.06	1701.86
454.26	1777.64
454.47	1648.61
454.67	1843.17
454.87	1832.93
455.08	1697.77
455.28	1902.56
455.49	1730.53
455.69	1738.73
455.89	1824.74
456.10	1869.80
456.30	1703.91
456.51	1800.16
456.71	1746.92
456.91	1730.53
457.12	1736.68
457.32	1794.02
457.52	1654.76
457.73	1791.97
457.93	1804.26
458.14	1742.82
458.34	1626.09
458.54	1806.31
458.75	1738.73
458.95	1791.97
459.15	1761.25
459.36	1773.54
459.56	1705.96
459.76	1865.70
459.97	1767.40
460.17	1714.15
460.37	1798.12
460.58	1734.63
460.78	1757.16
460.99	1703.91
461.19	1746.92
461.39	1703.91
461.60	1757.16
461.80	1826.79
462.00	1751.01
462.21	1693.67
462.41	1687.53
462.61	1671.14
462.82	1665.00
463.02	1734.63
463.22	1777.64
463.43	1767.40
463.63	1757.16
463.83	1832.93
464.04	1841.12
464.24	1697.77
464.44	1697.77
464.64	1720.29
464.85	1742.82
465.05	1814.50
465.25	1640.42
465.46	1742.82
465.66	1718.25
465.86	1824.74
466.07	1767.40
466.27	1744.87
466.47	1626.09
466.68	1705.96
466.88	1812.45
467.08	1716.20
467.29	1763.30
467.49	1746.92
467.69	1732.58
467.89	1798.12
468.10	1720.29
468.30	1783.78
468.50	1849.32
468.71	1814.50
468.91	1658.85
469.11	1908.71
469.31	1740.77
469.52	1654.76
469.72	1818.60
469.92	1904.61
470.13	1728.49
470.33	1720.29
470.53	1906.66
470.73	2105.31
470.94	2301.92
471.14	2342.88
471.34	2471.90
471.54	2430.94
471.75	2191.33
471.95	2064.35
472.15	2095.07
472.36	2093.02
472.56	2039.78
472.76	2095.07
472.96	1947.62
473.17	1931.23
473.37	1873.89
473.57	1800.16
473.77	1826.79
473.98	1773.54
474.18	1689.57
474.38	1923.04
474.58	1736.68
474.79	1734.63
474.99	1746.92
475.19	1763.30
475.39	1642.47
475.60	1722.34
475.80	1798.12
476.00	1794.02
476.20	1736.68
476.41	1650.66
476.61	1767.40
476.81	1863.65
477.01	1753.06
477.21	1882.08
477.42	1839.08
477.62	1630.18
477.82	1773.54
478.02	1712.10
478.23	1703.91
478.43	1591.27
478.63	1701.86
478.83	1665.00
479.03	1787.88
479.24	1734.63
479.44	1796.07
479.64	1722.34
479.84	1615.85
480.04	1730.53
480.25	1722.34
480.45	1695.72
480.65	1746.92
480.85	1757.16
481.06	1738.73
481.26	1673.19
481.46	1822.69
481.66	1771.49
481.86	1673.19
482.06	1816.55
482.27	1685.48
482.47	1705.96
482.67	1744.87
482.87	1660.90
483.07	1814.50
483.28	1730.53
483.48	1665.00
483.68	1703.91
483.88	1654.76
484.08	1636.33
484.29	1626.09
484.49	1736.68
484.69	1677.29
484.89	1759.21
485.09	1775.59
485.29	1726.44
485.50	1767.40
485.70	1662.95
485.90	1828.84
486.10	1769.44
486.30	1748.97
486.50	1777.64
486.71	1708.01
486.91	1779.68
487.11	1818.60
487.31	1693.67
487.51	1705.96
487.71	1718.25
487.91	1675.24
488.12	1656.81
488.32	1589.22
488.52	1753.06
488.72	1671.14
488.92	1785.83
489.12	1763.30
489.32	1791.97
489.53	1826.79
489.73	1710.05
489.93	1746.92
490.13	1716.20
490.33	1667.05
490.53	1763.30
490.73	1806.31
490.94	1658.85
491.14	1837.03
491.34	1849.32
491.54	2131.94
491.74	2512.86
491.94	2858.96
492.14	2938.84
492.34	3059.67
492.54	2779.09
492.75	2500.57
492.95	2449.37
493.15	2320.35
493.35	2232.29
493.55	2164.70
493.75	2099.17
493.95	2123.74
494.15	2027.49
494.35	1890.28
494.56	1896.42
494.76	1826.79
494.96	1816.55
495.16	1759.21
495.36	1722.34
495.56	1728.49
495.76	1675.24
495.96	1640.42
496.16	1757.16
496.36	1908.71
496.56	1714.15
496.77	1769.44
496.97	1691.62
497.17	1804.26
497.37	1621.99
497.57	1738.73
497.77	1734.63
497.97	1681.38
498.17	1740.77
498.37	1712.10
498.57	1787.88
498.77	1685.48
498.97	1857.51
499.17	1857.51
499.38	1765.35
499.58	1765.35
499.78	1781.73
499.98	1777.64
500.18	1703.91
500.38	1708.01
500.58	1902.56
500.78	2435.03
500.98	4521.92
501.18	5644.20
501.38	6858.65
501.58	7030.68
501.78	6481.82
501.98	5435.31
502.18	4884.41
502.38	4382.65
502.58	4077.51
502.78	3770.31
502.98	3649.48
503.18	3422.16
503.38	3117.01
503.59	2758.61
503.79	2600.92
503.99	2355.16
504.19	2263.01
504.39	2252.77
504.59	2193.37
504.79	2054.11
504.99	2050.02
505.19	1873.89
505.39	1959.91
505.59	1959.91
505.79	1912.80
505.99	1834.98
506.19	1828.84
506.39	1916.90
506.59	1722.34
506.79	1783.78
506.99	1812.45
507.19	1728.49
507.39	1783.78
507.59	1705.96
507.79	1691.62
507.99	1703.91
508.19	1710.05
508.39	1695.72
508.59	1718.25
508.79	1814.50
508.99	1814.50
509.19	1746.92
509.39	1837.03
509.59	1665.00
509.79	1718.25
509.99	1806.31
510.19	1873.89
510.39	1785.83
510.59	1794.02
510.79	1720.29
510.99	1728.49
511.19	1701.86
511.39	1800.16
511.59	1794.02
511.79	1742.82
511.99	1701.86
512.19	1847.27
512.38	1796.07
512.58	1705.96
512.78	1730.53
512.98	1748.97
513.18	1890.28
513.38	1685.48
513.58	1810.40
513.78	1703.91
513.98	1771.49
514.18	1714.15
514.38	1638.38
514.58	1791.97
514.78	1662.95
514.98	1658.85
515.18	1738.73
515.38	1726.44
515.58	1888.23
515.78	1660.90
515.98	1787.88
516.18	1734.63
516.38	1693.67
516.57	1720.29
516.77	1753.06
516.97	1751.01
517.17	1669.09
517.37	1642.47
517.57	1794.02
517.77	1755.11
517.97	1681.38
518.17	1773.54
518.37	1763.30
518.57	1785.83
518.77	1775.59
518.97	1701.86
519.16	1703.91
519.36	1808.36
519.56	1693.67
519.76	1794.02
519.96	1781.73
520.16	1806.31
520.36	1691.62
520.56	1787.88
520.76	1669.09
520.96	1697.77
521.16	1808.36
521.35	1828.84
521.55	1810.40
521.75	1744.87
521.95	1712.10
522.15	1748.97
522.35	1648.61
522.55	1742.82
522.75	1703.91
522.95	1710.05
523.14	1658.85
523.34	1736.68
523.54	1628.14
523.74	1755.11
523.94	1746.92
524.14	1673.19
524.34	1763.30
524.54	1820.64
524.73	1691.62
524.93	1767.40
525.13	1763.30
525.33	1658.85
525.53	1916.90
525.73	1722.34
525.93	1734.63
526.13	1769.44
526.32	1816.55
526.52	1810.40
526.72	1783.78
526.92	1779.68
527.12	1734.63
527.32	1570.79
527.52	1785.83
527.71	1820.64
527.91	1695.72
528.11	1701.86
528.31	1671.14
528.51	1695.72
528.71	1888.23
528.90	1697.77
529.10	1849.32
529.30	1787.88
529.50	1548.26
529.70	1787.88
529.90	1689.57
530.09	1693.67
530.29	1665.00
530.49	1712.10
530.69	1873.89
530.89	1791.97
531.09	1748.97
531.28	1755.11
531.48	1861.60
531.68	1769.44
531.88	1800.16
532.08	1753.06
532.28	1665.00
532.47	1773.54
532.67	1742.82
532.87	1751.01
533.07	1738.73
533.27	1761.25
533.46	1787.88
533.66	1730.53
533.86	1675.24
534.06	1728.49
534.26	1769.44
534.45	1730.53
534.65	1777.64
534.85	1794.02
535.05	1705.96
535.25	1761.25
535.44	1640.42
535.64	1837.03
535.84	1671.14
536.04	1697.77
536.24	1775.59
536.43	1728.49
536.63	1718.25
536.83	1757.16
537.03	1763.30
537.22	1615.85
537.42	1697.77
537.62	1740.77
537.82	1671.14
538.02	1769.44
538.21	1755.11
538.41	1916.90
538.61	1771.49
538.81	1656.81
539.00	1777.64
539.20	1656.81
539.40	1703.91
539.60	1722.34
539.79	1779.68
539.99	1812.45
540.19	1642.47
540.39	1791.97
540.58	1808.36
540.78	1753.06
540.98	1748.97
541.18	1748.97
541.37	1810.40
541.57	1775.59
541.77	1748.97
541.97	1759.21
542.16	1716.20
542.36	1685.48
542.56	1730.53
542.76	1867.75
542.95	1814.50
543.15	1791.97
543.35	1718.25
543.54	1726.44
543.74	1673.19
543.94	1746.92
544.14	1665.00
544.33	1800.16
544.53	1742.82
544.73	1691.62
544.93	1787.88
545.12	1681.38
545.32	1738.73
545.52	1738.73
545.71	1675.24
545.91	1716.20
546.11	1669.09
546.30	1617.90
546.50	1759.21
546.70	1773.54
546.90	1785.83
547.09	1683.43
547.29	1757.16
547.49	1744.87
547.68	1748.97
547.88	1716.20
548.08	1736.68
548.27	2183.13
548.47	1718.25
548.67	1742.82
548.87	1751.01
549.06	1763.30
549.26	1705.96
549.46	1757.16
549.65	1728.49
549.85	1826.79
550.05	1736.68
550.24	1736.68
550.44	1751.01
550.64	1787.88
550.83	1726.44
551.03	1779.68
551.23	1804.26
551.42	1697.77
551.62	1832.93
551.82	1744.87
552.01	1724.39
552.21	1791.97
552.41	1771.49
552.60	1761.25
552.80	1652.71
553.00	1677.29
553.19	1798.12
553.39	1806.31
553.59	1624.04
553.78	1773.54
553.98	1810.40
554.17	1740.77
554.37	1771.49
554.57	1806.31
554.76	1640.42
554.96	1759.21
555.16	1794.02
555.35	1753.06
555.55	1769.44
555.75	1767.40
555.94	1740.77
556.14	1673.19
556.33	1654.76
556.53	1742.82
556.73	1769.44
556.92	1783.78
557.12	1873.89
557.32	1880.04
557.51	1830.88
557.71	1736.68
557.90	1837.03
558.10	1839.08
558.30	1796.07
558.49	1755.11
558.69	1656.81
558.88	1697.77
559.08	1808.36
559.28	1824.74
559.47	1712.10
559.67	1892.32
559.86	1857.51
560.06	1753.06
560.26	1699.81
560.45	1806.31
560.65	1755.11
560.84	1841.12
561.04	1642.47
561.24	1871.84
561.43	1738.73
561.63	1791.97
561.82	1773.54
562.02	1814.50
562.22	1701.86
562.41	1681.38
562.61	1652.71
562.80	1708.01
563.00	1898.47
563.19	1708.01
563.39	1822.69
563.59	1828.84
563.78	1781.73
563.98	1591.27
564.17	1691.62
564.37	1619.94
564.56	1839.08
564.76	1699.81
564.96	1818.60
565.15	1742.82
565.35	1822.69
565.54	1673.19
565.74	1791.97
565.93	1787.88
566.13	1773.54
566.32	1822.69
566.52	1714.15
566.71	1869.80
566.91	1697.77
567.11	1673.19
567.30	1691.62
567.50	1832.93
567.69	1759.21
567.89	1689.57
568.08	1677.29
568.28	1748.97
568.47	1656.81
568.67	1746.92
568.86	1705.96
569.06	1740.77
569.25	1742.82
569.45	1660.90
569.64	1722.34
569.84	1759.21
570.04	1722.34
570.23	1767.40
570.43	1773.54
570.62	1783.78
570.82	1859.56
571.01	1724.39
571.21	1736.68
571.40	1710.05
571.60	1773.54
571.79	1732.58
571.99	1755.11
572.18	1701.86
572.38	1746.92
572.57	1779.68
572.77	1845.22
572.96	1988.58
573.16	1720.29
573.35	1779.68
573.55	1824.74
573.74	1839.08
573.94	1732.58
574.13	1701.86
574.33	1746.92
574.52	1834.98
574.71	1701.86
574.91	1789.92
575.10	1701.86
575.30	1785.83
575.49	1687.53
575.69	1730.53
575.88	1724.39
576.08	1642.47
576.27	1763.30
576.47	1734.63
576.66	1832.93
576.86	1796.07
577.05	1839.08
577.25	1763.30
577.44	1851.36
577.64	1689.57
577.83	1771.49
578.02	1773.54
578.22	1853.41
578.41	1822.69
578.61	1705.96
578.80	1636.33
579.00	1689.57
579.19	1755.11
579.39	1830.88
579.58	1880.04
579.77	1718.25
579.97	1845.22
580.16	1867.75
580.36	1826.79
580.55	1808.36
580.75	1800.16
580.94	1828.84
581.13	1943.52
581.33	1861.60
581.52	1718.25
581.72	1843.17
581.91	1869.80
582.11	1804.26
582.30	1855.46
582.49	1798.12
582.69	1785.83
582.88	1845.22
583.08	1785.83
583.27	1767.40
583.47	1738.73
583.66	1746.92
583.85	1611.75
584.05	1708.01
584.24	1816.55
584.44	1798.12
584.63	1875.94
584.82	1822.69
585.02	1877.99
585.21	1837.03
585.41	1832.93
585.60	1837.03
585.79	1945.57
585.99	1910.75
586.18	1869.80
586.37	2093.02
586.57	3360.72
586.76	9828.20
586.96	23926.42
587.15	33742.33
587.34	39693.73
587.54	41454.98
587.73	35874.27
587.93	25785.97
588.12	21223.10
588.31	17778.42
588.51	16144.14
588.70	14827.29
588.89	13815.60
589.09	12158.79
589.28	10731.36
589.47	9209.72
589.67	7776.14
589.86	6270.88
590.06	4894.65
590.25	3866.56
590.44	3112.91
590.64	2586.58
590.83	2244.57
591.02	2152.42
591.22	1986.53
591.41	1951.71
591.60	1869.80
591.80	1953.76
591.99	1724.39
592.18	1894.37
592.38	1900.52
592.57	1714.15
592.76	1785.83
592.96	1843.17
593.15	1808.36
593.34	1853.41
593.54	1767.40
593.73	1859.56
593.92	1775.59
594.12	1746.92
594.31	1724.39
594.50	1800.16
594.70	1845.22
594.89	1867.75
595.08	1665.00
595.28	1804.26
595.47	1886.18
595.66	1800.16
595.86	1701.86
596.05	1767.40
596.24	1763.30
596.43	1828.84
596.63	1880.04
596.82	1761.25
597.01	1773.54
597.21	1800.16
597.40	1832.93
597.59	1806.31
597.79	1689.57
597.98	1806.31
598.17	1777.64
598.36	1804.26
598.56	1759.21
598.75	1753.06
598.94	1734.63
599.14	1708.01
599.33	1701.86
599.52	1789.92
599.71	1726.44
599.91	1779.68
600.10	1732.58
600.29	1718.25
600.48	1746.92
600.68	1771.49
600.87	1724.39
601.06	1718.25
601.26	1736.68
601.45	1773.54
601.64	1724.39
601.83	1849.32
602.03	1755.11
602.22	1683.43
602.41	1751.01
602.60	1841.12
602.80	1789.92
602.99	1753.06
603.18	1703.91
603.37	1730.53
603.57	1755.11
603.76	1787.88
603.95	1748.97
604.14	1767.40
604.34	1755.11
604.53	1712.10
604.72	1732.58
604.91	1839.08
605.10	1785.83
605.30	1638.38
605.49	1865.70
605.68	1806.31
605.87	1716.20
606.07	1757.16
606.26	1834.98
606.45	1755.11
606.64	1777.64
606.84	1716.20
607.03	1746.92
607.22	1765.35
607.41	1689.57
607.60	1806.31
607.80	1740.77
607.99	1689.57
608.18	1718.25
608.37	1744.87
608.56	1675.24
608.76	1779.68
608.95	1890.28
609.14	1701.86
609.33	1779.68
609.52	1767.40
609.72	1800.16
609.91	1734.63
610.10	1722.34
610.29	1816.55
610.48	1726.44
610.68	1779.68
610.87	1689.57
611.06	1753.06
611.25	1728.49
611.44	1798.12
611.63	1687.53
611.83	1861.60
612.02	1695.72
612.21	1798.12
612.40	1671.14
612.59	1697.77
612.79	1656.81
612.98	1703.91
613.17	1820.64
613.36	1738.73
613.55	1847.27
613.74	1673.19
613.93	1748.97
614.13	1685.48
614.32	1734.63
614.51	1791.97
614.70	1714.15
614.89	1734.63
615.08	1738.73
615.28	2152.42
615.47	1693.67
615.66	1746.92
615.85	1714.15
616.04	1841.12
616.23	1714.15
616.42	1673.19
616.62	1714.15
616.81	1804.26
617.00	1685.48
617.19	1816.55
617.38	1734.63
617.57	1736.68
617.76	1796.07
617.95	1710.05
618.15	1787.88
618.34	1861.60
618.53	1675.24
618.72	1767.40
618.91	1796.07
619.10	1791.97
619.29	1722.34
619.48	1701.86
619.68	1697.77
619.87	1689.57
620.06	1714.15
620.25	1726.44
620.44	1685.48
620.63	1814.50
620.82	1742.82
621.01	1714.15
621.20	1740.77
621.39	1730.53
621.59	1779.68
621.78	1716.20
621.97	1689.57
622.16	1767.40
622.35	1710.05
622.54	1855.46
622.73	1804.26
622.92	1617.90
623.11	1673.19
623.30	1769.44
623.49	1736.68
623.68	1615.85
623.88	1832.93
624.07	1744.87
624.26	1691.62
624.45	1763.30
624.64	1646.57
624.83	1714.15
625.02	1751.01
625.21	1775.59
625.40	1687.53
625.59	1761.25
625.78	1767.40
625.97	1794.02
626.16	1728.49
626.35	1732.58
626.54	1724.39
626.74	1736.68
626.93	1738.73
627.12	1714.15
627.31	1775.59
627.50	1701.86
627.69	1796.07
627.88	1710.05
628.07	1665.00
628.26	1632.23
628.45	1726.44
628.64	1665.00
628.83	1689.57
629.02	1632.23
629.21	1744.87
629.40	1783.78
629.59	1685.48
629.78	1751.01
629.97	1726.44
630.16	1734.63
630.35	1748.97
630.54	1763.30
630.73	1722.34
630.92	1714.15
631.11	1734.63
631.30	1701.86
631.49	1822.69
631.68	1755.11
631.87	1726.44
632.06	1673.19
632.25	1873.89
632.44	1705.96
632.63	1703.91
632.82	1828.84
633.01	1652.71
633.20	1779.68
633.39	1689.57
633.58	1687.53
633.77	1802.21
633.96	1796.07
634.15	1705.96
634.34	1712.10
634.53	1681.38
634.72	1660.90
634.91	1650.66
635.10	1787.88
635.29	1765.35
635.48	1716.20
635.67	1734.63
635.86	1640.42
636.05	1753.06
636.24	1732.58
636.43	1689.57
636.62	1771.49
636.81	1583.08
637.00	1759.21
637.19	1665.00
637.38	1705.96
637.57	1691.62
637.76	1787.88
637.95	1726.44
638.14	1667.05
638.33	1812.45
638.52	1705.96
638.71	1626.09
638.89	1603.56
639.08	1804.26
639.27	1695.72
639.46	1703.91
639.65	1837.03
639.84	1759.21
640.03	1730.53
640.22	1759.21
640.41	1830.88
640.60	1714.15
640.79	1763.30
640.98	1759.21
641.17	1828.84
641.36	1738.73
641.55	1796.07
641.74	1632.23
641.92	1714.15
642.11	1658.85
642.30	1658.85
642.49	1648.61
642.68	1689.57
642.87	1787.88
643.06	1781.73
643.25	1613.80
643.44	1689.57
643.63	1675.24
643.82	1685.48
644.00	1632.23
644.19	1716.20
644.38	1712.10
644.57	1810.40
644.76	1771.49
644.95	1742.82
645.14	1814.50
645.33	1726.44
645.52	1665.00
645.71	1646.57
645.89	1708.01
646.08	1767.40
646.27	1755.11
646.46	1873.89
646.65	1662.95
646.84	1779.68
647.03	1660.90
647.22	1683.43
647.40	1646.57
647.59	1763.30
647.78	1671.14
647.97	1740.77
648.16	1726.44
648.35	1763.30
648.54	1757.16
648.73	1640.42
648.91	1755.11
649.10	1769.44
649.29	1732.58
649.48	1685.48
649.67	1695.72
649.86	1726.44
650.05	1728.49
650.23	1738.73
650.42	1660.90
650.61	1818.60
650.80	1781.73
650.99	1820.64
651.18	1771.49
651.36	1740.77
651.55	1714.15
651.74	1726.44
651.93	1724.39
652.12	1751.01
652.31	1718.25
652.49	1751.01
652.68	1671.14
652.87	1888.23
653.06	1724.39
653.25	1867.75
653.44	1693.67
653.62	1796.07
653.81	1755.11
654.00	1781.73
654.19	1794.02
654.38	1816.55
654.56	1789.92
654.75	1628.14
654.94	1724.39
655.13	1800.16
655.32	1732.58
655.51	1814.50
655.69	1681.38
655.88	1699.81
656.07	1640.42
656.26	1755.11
656.45	1648.61
656.63	1775.59
656.82	1773.54
657.01	1744.87
657.20	1626.09
657.38	1802.21
657.57	1708.01
657.76	1640.42
657.95	1787.88
658.14	1705.96
658.32	1734.63
658.51	1691.62
658.70	1703.91
658.89	1677.29
659.08	1656.81
659.26	1869.80
659.45	1712.10
659.64	1775.59
659.83	1677.29
660.01	1916.90
660.20	1775.59
660.39	1830.88
660.58	1634.28
660.76	1767.40
660.95	1687.53
661.14	1658.85
661.33	1681.38
661.51	1742.82
661.70	1753.06
661.89	1755.11
662.08	1660.90
662.26	1656.81
662.45	1675.24
662.64	1796.07
662.83	1791.97
663.01	1642.47
663.20	1720.29
663.39	1849.32
663.58	1681.38
663.76	1785.83
663.95	1675.24
664.14	1624.04
664.32	1679.33
664.51	1675.24
664.70	1648.61
664.89	1755.11
665.07	1638.38
665.26	1730.53
665.45	1669.09
665.64	1738.73
665.82	1724.39
666.01	1851.36
666.20	1671.14
666.38	1816.55
666.57	1841.12
666.76	2269.15
666.95	4523.96
667.13	10616.67
667.32	14946.08
667.51	17598.20
667.69	18681.57
667.88	17329.91
668.07	11910.99
668.25	9238.39
668.44	7888.78
668.63	7249.81
668.81	6612.89
669.00	6100.90
669.19	5486.51
669.38	4906.93
669.56	4560.83
669.75	3870.66
669.94	3399.63
670.12	2912.21
670.31	2467.80
670.50	2279.39
670.68	2025.44
670.87	1998.82
671.06	1732.58
671.24	1837.03
671.43	1820.64
671.62	1718.25
671.80	1703.91
671.99	1800.16
672.18	1814.50
672.36	1802.21
672.55	1761.25
672.74	1658.85
672.92	1708.01
673.11	1787.88
673.29	1681.38
673.48	1816.55
673.67	1679.33
673.85	1837.03
674.04	1705.96
674.23	1740.77
674.41	1748.97
674.60	1673.19
674.79	1658.85
674.97	1746.92
675.16	1777.64
675.34	1744.87
675.53	1746.92
675.72	1701.86
675.90	1800.16
676.09	1724.39
676.28	1681.38
676.46	1628.14
676.65	1775.59
676.83	1626.09
677.02	1742.82
677.21	1689.57
677.39	1720.29
677.58	1687.53
677.77	1624.04
677.95	1638.38
678.14	1720.29
678.32	1703.91
678.51	1755.11
678.70	1820.64
678.88	1621.99
679.07	1701.86
679.25	1742.82
679.44	1730.53
679.63	1695.72
679.81	1753.06
680.00	1767.40
680.18	1779.68
680.37	1746.92
680.55	1761.25
680.74	1652.71
680.93	1669.09
681.11	1697.77
681.30	1812.45
681.48	1740.77
681.67	1687.53
681.85	1687.53
682.04	1708.01
682.23	1740.77
682.41	1773.54
682.60	1683.43
682.78	1675.24
682.97	1718.25
683.15	1738.73
683.34	1787.88
683.53	1837.03
683.71	1634.28
683.90	1785.83
684.08	1767.40
684.27	1697.77
684.45	1701.86
684.64	1757.16
684.82	1781.73
685.01	1800.16
685.19	1714.15
685.38	1728.49
685.57	1806.31
685.75	1617.90
685.94	1681.38
686.12	1652.71
686.31	1656.81
686.49	1859.56
686.68	1636.33
686.86	1789.92
687.05	1695.72
687.23	1753.06
687.42	1599.46
687.60	1650.66
687.79	1812.45
687.97	1812.45
688.16	1755.11
688.34	1726.44
688.53	1648.61
688.71	1695.72
688.90	1767.40
689.08	1658.85
689.27	1644.52
689.45	1765.35
689.64	1697.77
689.82	1789.92
690.01	1699.81
690.19	1759.21
690.38	1665.00
690.56	1812.45
690.75	1650.66
690.93	1716.20
691.12	1570.79
691.30	1673.19
691.49	1730.53
691.67	1714.15
691.86	1828.84
692.04	1701.86
692.23	1738.73
692.41	1689.57
692.60	1777.64
692.78	1771.49
692.97	1767.40
693.15	1734.63
693.34	1880.04
693.52	1757.16
693.71	1640.42
693.89	1722.34
694.08	1626.09
694.26	1744.87
694.44	1804.26
694.63	1746.92
694.81	1613.80
695.00	1763.30
695.18	1763.30
695.37	1837.03
695.55	1699.81
695.74	1640.42
695.92	1644.52
696.10	1748.97
696.29	1710.05
696.47	1691.62
696.66	1615.85
696.84	1710.05
697.03	1724.39
697.21	1855.46
697.40	2289.63
697.58	1771.49
697.76	1660.90
697.95	1712.10
698.13	1628.14
698.32	1705.96
698.50	1740.77
698.68	1755.11
698.87	1693.67
699.05	1832.93
699.24	1767.40
699.42	1673.19
699.61	1683.43
699.79	1621.99
699.97	1814.50
700.16	1611.75
700.34	1681.38
700.53	1732.58
700.71	1806.31
700.89	1789.92
701.08	1783.78
701.26	1738.73
701.45	2142.18
701.63	1740.77
701.81	1628.14
702.00	1570.79
702.18	1665.00
702.37	1650.66
702.55	1871.84
702.73	1619.94
702.92	1693.67
703.10	1720.29
703.28	1736.68
703.47	1697.77
703.65	1732.58
703.84	1693.67
704.02	1695.72
704.20	1808.36
704.39	1685.48
704.57	1740.77
704.75	1808.36
704.94	1769.44
705.12	1716.20
705.30	1826.79
705.49	2205.66
705.67	4499.39
705.86	9271.15
706.04	12113.74
706.22	14501.67
706.41	15054.62
706.59	13401.91
706.77	9265.01
706.96	7231.38
707.14	6516.64
707.32	5742.50
707.51	5515.18
707.69	4739.00
707.87	4120.51
708.06	3510.22
708.24	2914.26
708.42	2385.88
708.61	2240.48
708.79	1888.23
708.97	1869.80
709.16	1877.99
709.34	1751.01
709.52	1742.82
709.71	1701.86
709.89	1767.40
710.07	1691.62
710.26	1705.96
710.44	1720.29
710.62	1834.98
710.80	1687.53
710.99	1748.97
711.17	1779.68
711.35	1687.53
711.54	1652.71
711.72	1761.25
711.90	1757.16
712.09	1730.53
712.27	1701.86
712.45	1759.21
712.63	1681.38
712.82	1683.43
713.00	1722.34
713.18	1658.85
713.37	1701.86
713.55	1789.92
713.73	1714.15
713.91	1759.21
714.10	1703.91
714.28	1718.25
714.46	1796.07
714.65	1708.01
714.83	1722.34
715.01	1755.11
715.19	1769.44
715.38	1667.05
715.56	1787.88
715.74	1652.71
715.92	1669.09
716.11	1822.69
716.29	1613.80
716.47	1757.16
716.65	1685.48
716.84	1630.18
717.02	1710.05
717.20	1599.46
717.38	1701.86
717.57	1761.25
717.75	1712.10
717.93	1691.62
718.11	1765.35
718.30	1669.09
718.48	1685.48
718.66	1826.79
718.84	1804.26
719.03	1667.05
719.21	1691.62
719.39	1796.07
719.57	1816.55
719.75	1783.78
719.94	1703.91
720.12	1675.24
720.30	1771.49
720.48	1789.92
720.67	1681.38
720.85	1665.00
721.03	1722.34
721.21	1697.77
721.39	1849.32
721.58	1716.20
721.76	1669.09
721.94	1677.29
722.12	1652.71
722.30	1800.16
722.49	1656.81
722.67	1708.01
722.85	1730.53
723.03	1665.00
723.21	1644.52
723.40	1679.33
723.58	1787.88
723.76	1728.49
723.94	1783.78
724.12	1734.63
724.30	1767.40
724.49	1710.05
724.67	1665.00
724.85	1730.53
725.03	1654.76
725.21	1804.26
725.40	1726.44
725.58	1648.61
725.76	1785.83
725.94	1734.63
726.12	1634.28
726.30	1724.39
726.49	1742.82
726.67	1634.28
726.85	1794.02
727.03	1806.31
727.21	2191.33
727.39	2922.45
727.57	3749.83
727.76	4169.66
727.94	4431.80
728.12	4339.65
728.30	3567.56
728.48	2971.60
728.66	2750.42
728.84	2541.53
729.03	2273.25
729.21	2152.42
729.39	1982.43
729.57	1818.60
729.75	1845.22
729.93	1822.69
730.11	1712.10
730.30	1759.21
730.48	1720.29
730.66	1849.32
730.84	1771.49
731.02	1712.10
731.20	1689.57
731.38	1794.02
731.56	1650.66
731.74	1683.43
731.93	1818.60
732.11	1683.43
732.29	1644.52
732.47	1783.78
732.65	1740.77
732.83	1718.25
733.01	1736.68
733.19	1679.33
733.37	1781.73
733.56	1699.81
733.74	1705.96
733.92	1761.25
734.10	1691.62
734.28	1716.20
734.46	1576.94
734.64	1632.23
734.82	1708.01
735.00	1740.77
735.18	1675.24
735.36	1755.11
735.54	1683.43
735.73	1738.73
735.91	1761.25
736.09	1740.77
736.27	1710.05
736.45	1753.06
736.63	1638.38
736.81	1665.00
736.99	1769.44
737.17	1802.21
737.35	1689.57
737.53	1705.96
737.71	1665.00
737.89	1820.64
738.07	1591.27
738.25	1685.48
738.43	1687.53
738.61	1687.53
738.80	1607.66
738.98	1619.94
739.16	1724.39
739.34	1644.52
739.52	1775.59
739.70	1736.68
739.88	1705.96
740.06	1867.75
740.24	1611.75
740.42	1767.40
740.60	1667.05
740.78	1703.91
740.96	1685.48
741.14	1765.35
741.32	1701.86
741.50	1642.47
741.68	1867.75
741.86	1775.59
742.04	1675.24
742.22	1542.12
742.40	1736.68
742.58	1722.34
742.76	1697.77
742.94	1757.16
743.12	1658.85
743.30	1665.00
743.48	1705.96
743.66	1697.77
743.84	1751.01
744.02	1708.01
744.20	1730.53
744.38	1691.62
744.56	1693.67
744.74	1775.59
744.92	1667.05
745.10	1804.26
745.28	1740.77
745.46	1845.22
745.64	1705.96
745.82	1744.87
746.00	1708.01
746.18	1775.59
746.36	1691.62
746.54	1734.63
746.72	1708.01
746.90	1648.61
747.08	1773.54
747.26	1665.00
747.44	1783.78
747.62	1744.87
747.80	1724.39
747.98	1748.97
748.15	1671.14
748.33	1759.21
748.51	1695.72
748.69	1783.78
748.87	1693.67
749.05	1640.42
749.23	1646.57
749.41	1773.54
749.59	1730.53
749.77	1746.92
749.95	1699.81
750.13	1669.09
750.31	1699.81
750.49	1763.30
750.67	1742.82
750.85	1816.55
751.03	1722.34
751.20	1748.97
751.38	1742.82
751.56	1638.38
751.74	1677.29
751.92	1763.30
752.10	1669.09
752.28	1714.15
752.46	1607.66
752.64	1724.39
752.82	1650.66
753.00	1783.78
753.18	1648.61
753.35	1658.85
753.53	1796.07
753.71	1677.29
753.89	1744.87
754.07	1742.82
754.25	1804.26
754.43	1742.82
754.61	1726.44
754.79	1726.44
754.97	1669.09
755.14	1816.55
755.32	1619.94
755.50	1757.16
755.68	1722.34
755.86	1572.84
756.04	1626.09
756.22	1671.14
756.40	1757.16
756.57	1845.22
756.75	1660.90
756.93	1787.88
757.11	1777.64
757.29	1570.79
757.47	1619.94
757.65	1611.75
757.82	1617.90
758.00	1660.90
758.18	1712.10
758.36	1703.91
758.54	1822.69
758.72	1628.14
758.90	1697.77
759.07	1771.49
759.25	1660.90
759.43	1798.12
759.61	1611.75
759.79	2232.29
759.97	1783.78
760.15	1640.42
760.32	1652.71
760.50	1687.53
760.68	1775.59
760.86	1656.81
761.04	1832.93
761.22	1732.58
761.39	1697.77
761.57	1781.73
761.75	1667.05
761.93	1771.49
762.11	1703.91
762.28	1710.05
762.46	1662.95
762.64	1808.36
762.82	1660.90
763.00	1693.67
763.18	1779.68
763.35	1662.95
763.53	1701.86
763.71	1751.01
763.89	1773.54
764.07	1720.29
764.24	1708.01
764.42	1812.45
764.60	1732.58
764.78	1720.29
764.96	1726.44
765.13	1789.92
765.31	1718.25
765.49	1730.53
765.67	1730.53
765.84	1628.14
766.02	1597.42
766.20	1587.18
766.38	1753.06
766.56	1769.44
766.73	1794.02
766.91	1679.33
767.09	1708.01
767.27	1710.05
767.44	1640.42
767.62	1730.53
767.80	1751.01
767.98	1644.52
768.15	1693.67
768.33	1763.30
768.51	1779.68
768.69	1800.16
768.87	1781.73
769.04	1734.63
769.22	1791.97
769.40	1857.51
769.58	1888.23
769.75	1638.38
769.93	1818.60
770.11	1714.15
770.28	1634.28
770.46	1679.33
770.64	1798.12
770.82	1732.58
770.99	1718.25
771.17	1751.01
771.35	1673.19
771.53	1765.35
771.70	1777.64
771.88	1726.44
772.06	1732.58
772.23	1677.29
772.41	1734.63
772.59	1710.05
772.77	1650.66
772.94	1679.33
773.12	1775.59
773.30	1722.34
773.47	1775.59
773.65	1744.87
773.83	1751.01
774.01	1673.19
774.18	1581.03
774.36	1689.57
774.54	1662.95
774.71	1738.73
774.89	1589.22
775.07	1681.38
775.24	1609.70
775.42	1675.24
775.60	1791.97
775.78	1730.53
775.95	1667.05
776.13	1681.38
776.31	1568.74
776.48	1746.92
776.66	1757.16
776.84	1716.20
777.01	1609.70
777.19	1650.66
777.37	1697.77
777.54	1791.97
777.72	1898.47
777.90	1693.67
778.07	1642.47
778.25	1951.71
778.43	1775.59
778.60	1740.77
778.78	1732.58
778.96	1742.82
779.13	1675.24
779.31	1787.88
779.49	1617.90
779.66	1673.19
779.84	1705.96
780.01	1675.24
780.19	1716.20
780.37	1728.49
780.54	1751.01
780.72	1691.62
780.90	1722.34
781.07	1613.80
781.25	1613.80
781.43	1746.92
781.60	1726.44
781.78	1773.54
781.95	1779.68
782.13	1638.38
782.31	1624.04
782.48	1589.22
782.66	1681.38
782.83	1808.36
783.01	1718.25
783.19	1785.83
783.36	1732.58
783.54	1683.43
783.72	1753.06
783.89	1679.33
784.07	1734.63
784.24	1742.82
784.42	1863.65
784.60	1814.50
784.77	1722.34
784.95	1597.42
785.12	1650.66
785.30	1681.38
785.47	1669.09
785.65	1669.09
785.83	1734.63
786.00	1751.01
786.18	1720.29
786.35	1685.48
786.53	1677.29
786.71	1697.77
786.88	1769.44
787.06	1732.58
787.23	1667.05
787.41	1640.42
787.58	1703.91
787.76	1681.38
787.94	1642.47
788.11	1705.96
788.29	1605.61
788.46	1644.52
788.64	1533.93
788.81	1697.77
788.99	1671.14
789.16	1669.09
789.34	1685.48
789.52	1634.28
789.69	1646.57
789.87	1599.46
790.04	1689.57
790.22	1665.00
790.39	1761.25
790.57	1611.75
790.74	1638.38
790.92	1736.68
791.09	1619.94
791.27	1708.01
791.44	1734.63
791.62	1755.11
791.79	1771.49
791.97	1687.53
792.15	1943.52
792.32	1685.48
792.50	1804.26
792.67	1849.32
792.85	1816.55
793.02	1712.10
793.20	1716.20
793.37	1642.47
793.55	1705.96
793.72	1589.22
793.90	1757.16
794.07	1685.48
794.25	1742.82
794.42	1751.01
794.60	1708.01
794.77	1718.25
794.95	1699.81
795.12	1738.73
795.30	1724.39
795.47	1581.03
795.65	1861.60
795.82	1703.91
796.00	1724.39
796.17	1652.71
796.34	1691.62
796.52	1712.10
796.69	1755.11
796.87	1695.72
797.04	1671.14
797.22	1773.54
797.39	1765.35
797.57	1726.44
797.74	1804.26
797.92	1708.01
798.09	1736.68
798.27	1714.15
798.44	1779.68
798.62	1648.61
798.79	1763.30
798.96	1667.05
799.14	1658.85
799.31	1763.30
799.49	1697.77
799.66	1650.66
799.84	1714.15
800.01	1640.42
800.19	1681.38
800.36	1585.13
800.53	1708.01
800.71	1767.40
800.88	1828.84
801.06	1603.56
801.23	1740.77
801.41	1671.14
801.58	1644.52
801.75	1626.09
801.93	1740.77
802.10	1736.68
802.28	1681.38
802.45	1683.43
802.63	1710.05
802.80	1820.64
802.97	1675.24
803.15	1798.12
803.32	1714.15
803.50	1677.29
803.67	1675.24
803.84	1699.81
804.02	1628.14
804.19	1675.24
804.37	1587.18
804.54	1677.29
804.71	1673.19
804.89	1708.01
805.06	1583.08
805.24	1685.48
805.41	1578.98
805.58	1650.66
805.76	1783.78
805.93	1683.43
806.10	1757.16
806.28	1687.53
806.45	1599.46
806.63	1732.58
806.80	1660.90
806.97	1753.06
807.15	1648.61
807.32	1718.25
807.49	1658.85
807.67	1603.56
807.84	1662.95
808.01	1626.09
808.19	1859.56
808.36	1816.55
808.54	1634.28
808.71	1593.32
808.88	1724.39
809.06	1804.26
809.23	1775.59
809.40	1644.52
809.58	1759.21
809.75	1595.37
809.92	1677.29
810.10	1810.40
810.27	1689.57
810.44	1679.33
810.62	1699.81
810.79	1763.30
810.96	1685.48
811.14	1640.42
811.31	1673.19
811.48	1783.78
811.66	1724.39
811.83	1695.72
812.00	1726.44
812.18	1697.77
812.35	1814.50
812.52	1771.49
812.69	1728.49
812.87	1687.53
813.04	1650.66
813.21	1667.05
813.39	1615.85
813.56	1675.24
813.73	1761.25
813.91	1703.91
814.08	1732.58
814.25	1851.36
814.42	1685.48
814.60	1683.43
814.77	1703.91
814.94	1697.77
815.12	1691.62
815.29	1812.45
815.46	1656.81
815.63	1773.54
815.81	1683.43
815.98	1681.38
816.15	1738.73
816.33	1712.10
816.50	1628.14
816.67	1677.29
816.84	1619.94
817.02	1683.43
817.19	1656.81
817.36	1712.10
817.53	1712.10
817.71	1687.53
817.88	1771.49
818.05	1724.39
818.22	1726.44
818.40	1806.31
818.57	1617.90
818.74	1769.44
818.91	1650.66
819.09	1755.11
819.26	1740.77
819.43	1605.61
819.60	1699.81
819.78	1718.25
819.95	1802.21
820.12	1693.67
820.29	1730.53
820.47	1742.82
820.64	1662.95
820.81	1667.05
820.98	1673.19
821.15	1753.06
821.33	1802.21
821.50	1658.85
821.67	1759.21
821.84	1740.77
822.02	1710.05
822.19	1730.53
822.36	1730.53
822.53	1757.16
822.70	1691.62
822.88	1667.05
823.05	1771.49
823.22	1734.63
823.39	1724.39
823.56	1740.77
823.74	1787.88
823.91	1660.90
824.08	1642.47
824.25	1665.00
824.42	1892.32
824.60	1669.09
824.77	1753.06
824.94	1677.29
825.11	1681.38
825.28	1617.90
825.45	1757.16
825.63	1734.63
825.80	1705.96
825.97	1689.57
826.14	1669.09
826.31	1617.90
826.48	1705.96
826.66	1720.29
826.83	1669.09
827.00	1742.82
827.17	1759.21
827.34	1681.38
827.51	1673.19
827.69	1724.39
827.86	1603.56
828.03	1712.10
828.20	1654.76
828.37	1679.33
828.54	1751.01
828.71	1669.09
828.89	1753.06
829.06	1732.58
829.23	1779.68
829.40	1740.77
829.57	1673.19
829.74	1734.63
829.91	1697.77
830.09	1671.14
830.26	1681.38
830.43	1759.21
830.60	1681.38
830.77	1775.59
830.94	1722.34
831.11	1705.96
831.28	1654.76
831.46	1767.40
831.63	1703.91
831.80	1716.20
831.97	1697.77
832.14	1662.95
832.31	1751.01
832.48	1714.15
832.65	1779.68
832.82	1658.85
832.99	1703.91
833.17	1636.33
833.34	1834.98
833.51	1677.29
833.68	1665.00
833.85	1701.86
834.02	1662.95
834.19	1679.33
834.36	1640.42
834.53	1753.06
834.70	1738.73
834.87	1705.96
835.04	1714.15
835.22	1624.04
835.39	1730.53
835.56	1691.62
835.73	1683.43
835.90	1751.01
836.07	1695.72
836.24	1769.44
836.41	1628.14
836.58	1701.86
836.75	1771.49
836.92	1634.28
837.09	1673.19
837.26	1687.53
837.43	1763.30
837.60	1728.49
837.77	1587.18
837.94	1740.77
838.12	1714.15
838.29	1714.15
838.46	1687.53
838.63	1662.95
838.80	1753.06
838.97	1746.92
839.14	1718.25
839.31	1708.01
839.48	1789.92
839.65	1703.91
839.82	1744.87
839.99	1634.28
840.16	1710.05
840.33	1679.33
840.50	1687.53
840.67	1677.29
840.84	1595.37
841.01	1718.25
841.18	1677.29
841.35	1683.43
841.52	1753.06
841.69	1804.26
841.86	1714.15
842.03	1712.10
842.20	1757.16
842.37	1648.61
842.54	1771.49
842.71	1693.67
842.88	1619.94
843.05	1783.78
843.22	1705.96
843.39	1746.92
843.56	1693.67
843.73	1732.58
843.90	1734.63
844.07	1677.29
844.24	1705.96
844.41	1753.06
844.58	1751.01
844.75	1675.24
844.92	1779.68
845.09	1656.81
845.26	1658.85
845.43	1699.81
845.60	1681.38
845.77	1710.05
845.94	1710.05
846.10	1777.64
846.27	1630.18
846.44	1712.10
846.61	1665.00
846.78	1718.25
846.95	1736.68
847.12	1695.72
847.29	1683.43
847.46	1638.38
847.63	1757.16
847.80	1697.77
847.97	1751.01
848.14	1869.80
848.31	1705.96
848.48	1640.42
848.65	1765.35
848.82	1619.94
848.98	1851.36
849.15	1667.05
849.32	1828.84
849.49	1796.07
849.66	1708.01
849.83	1681.38
850.00	1744.87
850.17	1710.05
850.34	1665.00
850.51	1701.86
850.68	1646.57
850.85	1796.07
851.01	1746.92
851.18	1712.10
851.35	1734.63
851.52	1740.77
851.69	1789.92
851.86	1607.66
852.03	1630.18
852.20	1689.57
852.37	1738.73
852.53	1603.56
852.70	1718.25
852.87	1667.05
853.04	1734.63
853.21	1708.01
853.38	1757.16
853.55	1726.44
853.72	1701.86
853.89	1583.08
854.05	1656.81
854.22	1718.25
854.39	1767.40
854.56	1734.63
854.73	1755.11
854.90	1636.33
855.07	1724.39
855.23	1646.57
855.40	1746.92
855.57	1714.15
855.74	1589.22
855.91	1877.99
856.08	1669.09
856.25	1585.13
856.41	1681.38
856.58	1617.90
856.75	1667.05
856.92	1624.04
857.09	1753.06
857.26	1669.09
857.42	1701.86
857.59	1730.53
857.76	1628.14
857.93	1765.35
858.10	1695.72
858.27	1650.66
858.43	1771.49
858.60	1675.24
858.77	1544.17
858.94	1652.71
859.11	1830.88
859.27	1656.81
859.44	1669.09
859.61	1779.68
859.78	1746.92
859.95	1671.14
860.12	1689.57
860.28	1802.21
860.45	1812.45
860.62	1624.04
860.79	1681.38
860.95	1726.44
861.12	1652.71
861.29	1677.29
861.46	1714.15
861.63	1705.96
861.79	1765.35
861.96	1691.62
862.13	1740.77
862.30	1769.44
862.47	1626.09
862.63	1693.67
862.80	1798.12
862.97	1751.01
863.14	1744.87
863.30	1742.82
863.47	1742.82
863.64	1828.84
863.81	1640.42
863.97	1650.66
864.14	1699.81
864.31	1677.29
864.48	1701.86
864.65	1660.90
864.81	1736.68
864.98	1705.96
865.15	1779.68
865.32	1798.12
865.48	1765.35
865.65	1787.88
865.82	1626.09
865.98	1775.59
866.15	1701.86
866.32	1728.49
866.49	1767.40
866.65	1769.44
866.82	1658.85
866.99	1714.15
867.16	1710.05
867.32	1650.66
867.49	1660.90
867.66	1730.53
867.83	1632.23
867.99	1636.33
868.16	1724.39
868.33	1703.91
868.49	1689.57
868.66	1681.38
868.83	1785.83
868.99	1648.61
869.16	1685.48
869.33	1705.96
869.50	1775.59
869.66	1703.91
869.83	1687.53
870.00	1658.85
870.16	1736.68
870.33	1722.34
870.50	1695.72
870.66	1728.49
870.83	1804.26
871.00	1703.91
871.17	1730.53
871.33	1746.92
871.50	1714.15
871.67	1681.38
871.83	1695.72
872.00	1744.87
872.17	1642.47
872.33	1761.25
872.50	1763.30
872.67	1699.81
872.83	1794.02
873.00	1748.97
873.17	1751.01
873.33	1759.21
873.50	1783.78
873.67	1677.29
873.83	1617.90
874.00	1755.11
874.16	1755.11
874.33	1730.53
874.50	1632.23
874.66	1744.87
874.83	1679.33
875.00	1736.68
875.16	1697.77
875.33	1744.87
875.50	1560.55
875.66	1705.96
875.83	1689.57
875.99	1742.82
876.16	1800.16
876.33	1728.49
876.49	1671.14
876.66	1757.16
876.83	1697.77
876.99	1671.14
877.16	1744.87
877.32	1753.06
877.49	1662.95
877.66	1687.53
877.82	1834.98
877.99	1697.77
878.15	1699.81
878.32	1738.73
878.49	1671.14
878.65	1636.33
878.82	1812.45
878.98	1640.42
879.15	1845.22
879.32	1775.59
879.48	1693.67
879.65	1697.77
879.81	1632.23
879.98	1708.01
880.15	1689.57
880.31	1722.34
880.48	1656.81
880.64	1804.26
880.81	1720.29
880.97	1820.64
881.14	1787.88
881.31	1626.09
881.47	1814.50
881.64	1681.38
881.80	1593.32
881.97	1669.09
882.13	1787.88
882.30	1675.24
882.47	1617.90
882.63	1697.77
882.80	1658.85
882.96	1710.05
883.13	1804.26
883.29	1722.34
883.46	1710.05
883.62	1763.30
883.79	1642.47
883.95	1699.81
884.12	1742.82
884.29	1806.31
884.45	1681.38
884.62	1785.83
884.78	1605.61
884.95	1712.10
885.11	1691.62
885.28	1755.11
885.44	1665.00
885.61	1757.16
885.77	1757.16
885.94	1781.73
886.10	1691.62
886.27	1751.01
886.43	1855.46
886.60	1806.31
886.76	1671.14
886.93	1677.29
887.09	1640.42
887.26	1652.71
887.42	1740.77
887.59	1783.78
887.75	1857.51
887.92	1796.07
888.08	1753.06
888.25	1826.79
888.41	1800.16
888.58	1671.14
888.74	1740.77
888.91	1730.53
>>>>>End Processed Spectral Data<<<<<
