SpectraSuite Data File
++++++++++++++++++++++++++++++++++++
Date: Mon Jun 06 12:12:37 CEST 2016
User: root
Dark Spectrum Present: No
Reference Spectrum Present: No
Number of Sampled Component Spectra: 1
Spectrometers: USB4C02835
Integration Time (usec): 100000 (USB4C02835)
Spectra Averaged: 1 (USB4C02835)
Boxcar Smoothing: 0 (USB4C02835)
Correct for Electrical Dark: No (USB4C02835)
Strobe/Lamp Enabled: No (USB4C02835)
Correct for Detector Non-linearity: No (USB4C02835)
Correct for Stray Light: No (USB4C02835)
Number of Pixels in Processed Spectrum: 3648
>>>>>Begin Processed Spectral Data<<<<<
177.47	1482.73
177.69	1482.73
177.91	1482.73
178.13	1419.24
178.36	1456.11
178.58	1636.33
178.80	1699.81
179.02	1697.77
179.24	1601.51
179.46	1656.81
179.68	1834.98
179.90	1667.05
180.13	1730.53
180.35	1634.28
180.57	1675.24
180.79	1679.33
181.01	1640.42
181.23	1714.15
181.45	1730.53
181.67	1685.48
181.90	1775.59
182.12	1648.61
182.34	1558.50
182.56	1669.09
182.78	1740.77
183.00	1681.38
183.22	1703.91
183.44	1601.51
183.66	1834.98
183.89	1802.21
184.11	1638.38
184.33	1718.25
184.55	1826.79
184.77	1703.91
184.99	1697.77
185.21	1628.14
185.43	1777.64
185.65	1593.32
185.87	1632.23
186.10	1849.32
186.32	1888.23
186.54	1751.01
186.76	1789.92
186.98	1748.97
187.20	1689.57
187.42	1615.85
187.64	1699.81
187.86	1746.92
188.08	1665.00
188.30	1703.91
188.52	1720.29
188.75	1748.97
188.97	1804.26
189.19	1634.28
189.41	1753.06
189.63	1736.68
189.85	1615.85
190.07	1535.98
190.29	1650.66
190.51	1736.68
190.73	1564.65
190.95	1740.77
191.17	1660.90
191.39	1630.18
191.61	1642.47
191.84	1677.29
192.06	1732.58
192.28	1667.05
192.50	1802.21
192.72	1751.01
192.94	1642.47
193.16	1730.53
193.38	1742.82
193.60	1642.47
193.82	1675.24
194.04	1765.35
194.26	1720.29
194.48	1718.25
194.70	1656.81
194.92	1656.81
195.14	1722.34
195.36	1652.71
195.58	1685.48
195.80	1667.05
196.02	1638.38
196.24	1638.38
196.46	1675.24
196.69	1656.81
196.91	1808.36
197.13	1648.61
197.35	1538.02
197.57	1761.25
197.79	1636.33
198.01	1789.92
198.23	1724.39
198.45	1671.14
198.67	1665.00
198.89	1683.43
199.11	1765.35
199.33	1638.38
199.55	1552.36
199.77	1742.82
199.99	1744.87
200.21	1566.70
200.43	1669.09
200.65	1658.85
200.87	1601.51
201.09	1691.62
201.31	1660.90
201.53	1660.90
201.75	1742.82
201.97	1646.57
202.19	1734.63
202.41	1681.38
202.63	1826.79
202.85	1746.92
203.07	1759.21
203.29	1693.67
203.51	1621.99
203.73	1591.27
203.95	1853.41
204.17	1695.72
204.39	1695.72
204.61	1687.53
204.83	1689.57
205.05	1695.72
205.27	1724.39
205.49	1787.88
205.71	1660.90
205.93	1650.66
206.15	1648.61
206.37	1722.34
206.59	1658.85
206.81	1662.95
207.03	1638.38
207.25	1667.05
207.47	1642.47
207.69	1687.53
207.91	1722.34
208.13	1800.16
208.34	1662.95
208.56	1576.94
208.78	1769.44
209.00	1640.42
209.22	1701.86
209.44	1669.09
209.66	1679.33
209.88	1656.81
210.10	1669.09
210.32	1619.94
210.54	1691.62
210.76	1689.57
210.98	1746.92
211.20	1591.27
211.42	1656.81
211.64	1820.64
211.86	1697.77
212.08	1746.92
212.30	1671.14
212.52	1732.58
212.74	1699.81
212.96	1673.19
213.17	1650.66
213.39	1652.71
213.61	1724.39
213.83	1701.86
214.05	1599.46
214.27	1810.40
214.49	1644.52
214.71	1691.62
214.93	1767.40
215.15	1705.96
215.37	1730.53
215.59	1599.46
215.81	1712.10
216.03	1738.73
216.24	1796.07
216.46	1621.99
216.68	1771.49
216.90	1757.16
217.12	1708.01
217.34	1617.90
217.56	1744.87
217.78	1767.40
218.00	1710.05
218.22	1701.86
218.44	1697.77
218.66	1732.58
218.87	1722.34
219.09	1718.25
219.31	1671.14
219.53	1742.82
219.75	1619.94
219.97	1648.61
220.19	1757.16
220.41	1675.24
220.63	1748.97
220.85	1621.99
221.06	1607.66
221.28	1738.73
221.50	1734.63
221.72	1679.33
221.94	1685.48
222.16	1730.53
222.38	1683.43
222.60	1697.77
222.82	1740.77
223.03	1701.86
223.25	1566.70
223.47	1746.92
223.69	1789.92
223.91	1724.39
224.13	1667.05
224.35	1660.90
224.57	1718.25
224.78	1636.33
225.00	1671.14
225.22	1644.52
225.44	1681.38
225.66	1675.24
225.88	1712.10
226.10	1763.30
226.32	1697.77
226.53	1828.84
226.75	1648.61
226.97	1677.29
227.19	1660.90
227.41	1765.35
227.63	1730.53
227.85	1591.27
228.06	1734.63
228.28	1585.13
228.50	1716.20
228.72	1632.23
228.94	1640.42
229.16	1603.56
229.37	1656.81
229.59	1615.85
229.81	1734.63
230.03	1724.39
230.25	1619.94
230.47	1556.46
230.69	1619.94
230.90	1753.06
231.12	1636.33
231.34	1689.57
231.56	1703.91
231.78	1638.38
232.00	1705.96
232.21	1638.38
232.43	1687.53
232.65	1599.46
232.87	1720.29
233.09	1646.57
233.30	1597.42
233.52	1697.77
233.74	1660.90
233.96	1665.00
234.18	1648.61
234.40	1687.53
234.61	1800.16
234.83	1728.49
235.05	1568.74
235.27	1777.64
235.49	1773.54
235.70	1689.57
235.92	1767.40
236.14	1771.49
236.36	1832.93
236.58	1703.91
236.79	1722.34
237.01	1656.81
237.23	1654.76
237.45	1822.69
237.67	1607.66
237.88	1667.05
238.10	1738.73
238.32	1642.47
238.54	1626.09
238.76	1710.05
238.97	1644.52
239.19	1683.43
239.41	1669.09
239.63	1765.35
239.85	1669.09
240.06	1697.77
240.28	1689.57
240.50	1701.86
240.72	1714.15
240.93	1726.44
241.15	1806.31
241.37	1665.00
241.59	1738.73
241.81	1671.14
242.02	1728.49
242.24	1751.01
242.46	1738.73
242.68	1673.19
242.89	1742.82
243.11	1726.44
243.33	1656.81
243.55	1734.63
243.76	1751.01
243.98	1722.34
244.20	1728.49
244.42	1646.57
244.64	1689.57
244.85	1669.09
245.07	1701.86
245.29	1722.34
245.51	1751.01
245.72	1705.96
245.94	1783.78
246.16	1718.25
246.38	1701.86
246.59	1636.33
246.81	1701.86
247.03	1669.09
247.24	1574.89
247.46	1650.66
247.68	1621.99
247.90	1703.91
248.11	1714.15
248.33	1683.43
248.55	1665.00
248.77	1640.42
248.98	1777.64
249.20	1839.08
249.42	1761.25
249.64	1650.66
249.85	1615.85
250.07	1574.89
250.29	1773.54
250.50	1765.35
250.72	1634.28
250.94	1673.19
251.16	1798.12
251.37	1763.30
251.59	1730.53
251.81	1734.63
252.02	1740.77
252.24	1619.94
252.46	1767.40
252.68	1677.29
252.89	1632.23
253.11	1646.57
253.33	1859.56
253.54	1701.86
253.76	1574.89
253.98	1656.81
254.20	1689.57
254.41	1599.46
254.63	1746.92
254.85	1587.18
255.06	1630.18
255.28	1685.48
255.50	1697.77
255.71	1605.61
255.93	1626.09
256.15	1660.90
256.36	1718.25
256.58	1697.77
256.80	1673.19
257.02	1710.05
257.23	1658.85
257.45	1650.66
257.67	1681.38
257.88	1648.61
258.10	1634.28
258.32	1689.57
258.53	1595.37
258.75	1689.57
258.97	1669.09
259.18	1746.92
259.40	1742.82
259.62	1714.15
259.83	1738.73
260.05	1718.25
260.27	1957.86
260.48	1730.53
260.70	1675.24
260.92	1767.40
261.13	1685.48
261.35	1761.25
261.57	1818.60
261.78	1640.42
262.00	1718.25
262.22	1730.53
262.43	1619.94
262.65	1699.81
262.86	1685.48
263.08	1808.36
263.30	1738.73
263.51	1615.85
263.73	1673.19
263.95	1820.64
264.16	1560.55
264.38	1644.52
264.60	1732.58
264.81	1601.51
265.03	1679.33
265.25	1699.81
265.46	1693.67
265.68	1775.59
265.89	1755.11
266.11	1632.23
266.33	1740.77
266.54	1693.67
266.76	1722.34
266.98	1728.49
267.19	1767.40
267.41	1718.25
267.62	1724.39
267.84	1617.90
268.06	1738.73
268.27	1722.34
268.49	1775.59
268.70	1771.49
268.92	1691.62
269.14	1669.09
269.35	1640.42
269.57	1691.62
269.79	1708.01
270.00	1669.09
270.22	1810.40
270.43	1626.09
270.65	1519.59
270.87	1724.39
271.08	1712.10
271.30	1796.07
271.51	1669.09
271.73	1728.49
271.95	1812.45
272.16	1708.01
272.38	1734.63
272.59	1660.90
272.81	1673.19
273.02	1775.59
273.24	1720.29
273.46	1703.91
273.67	1687.53
273.89	1615.85
274.10	1681.38
274.32	1886.18
274.54	1662.95
274.75	1671.14
274.97	1681.38
275.18	1710.05
275.40	1765.35
275.61	1628.14
275.83	1644.52
276.05	1730.53
276.26	1669.09
276.48	1671.14
276.69	1628.14
276.91	1652.71
277.12	1751.01
277.34	1806.31
277.55	1708.01
277.77	1687.53
277.99	1687.53
278.20	1679.33
278.42	1742.82
278.63	1722.34
278.85	1736.68
279.06	1605.61
279.28	1708.01
279.49	1697.77
279.71	1744.87
279.93	1669.09
280.14	1722.34
280.36	1718.25
280.57	1767.40
280.79	1656.81
281.00	1677.29
281.22	1667.05
281.43	1742.82
281.65	1642.47
281.86	1574.89
282.08	1734.63
282.29	1851.36
282.51	1673.19
282.73	1658.85
282.94	1662.95
283.16	1658.85
283.37	1757.16
283.59	1738.73
283.80	1705.96
284.02	1667.05
284.23	1662.95
284.45	1744.87
284.66	1634.28
284.88	1677.29
285.09	1716.20
285.31	1693.67
285.52	1675.24
285.74	1550.31
285.95	1699.81
286.17	1640.42
286.38	1728.49
286.60	1681.38
286.81	1677.29
287.03	1650.66
287.24	1714.15
287.46	1677.29
287.67	1667.05
287.89	1798.12
288.10	1634.28
288.32	1669.09
288.53	1781.73
288.75	1642.47
288.96	1732.58
289.18	1613.80
289.39	1677.29
289.61	1806.31
289.82	1781.73
290.04	1746.92
290.25	1601.51
290.47	1658.85
290.68	1693.67
290.90	1757.16
291.11	1619.94
291.33	1718.25
291.54	1634.28
291.76	1634.28
291.97	1740.77
292.18	1761.25
292.40	1722.34
292.61	1687.53
292.83	1859.56
293.04	1679.33
293.26	1665.00
293.47	1662.95
293.69	1691.62
293.90	1669.09
294.12	1732.58
294.33	1703.91
294.55	1685.48
294.76	1798.12
294.97	1851.36
295.19	1816.55
295.40	1634.28
295.62	1685.48
295.83	1724.39
296.05	1701.86
296.26	1791.97
296.48	1646.57
296.69	1648.61
296.90	1683.43
297.12	1703.91
297.33	1732.58
297.55	1748.97
297.76	1693.67
297.98	1716.20
298.19	1673.19
298.41	1621.99
298.62	1597.42
298.83	1755.11
299.05	1763.30
299.26	1644.52
299.48	1673.19
299.69	1742.82
299.90	1753.06
300.12	1611.75
300.33	1693.67
300.55	1669.09
300.76	1681.38
300.98	1595.37
301.19	1787.88
301.40	1681.38
301.62	1710.05
301.83	1730.53
302.05	1669.09
302.26	1753.06
302.47	1703.91
302.69	1583.08
302.90	1705.96
303.12	1603.56
303.33	1804.26
303.54	1746.92
303.76	1654.76
303.97	1693.67
304.19	1773.54
304.40	1642.47
304.61	1751.01
304.83	1767.40
305.04	1732.58
305.26	1662.95
305.47	1673.19
305.68	1708.01
305.90	1656.81
306.11	1677.29
306.33	1693.67
306.54	1677.29
306.75	1708.01
306.97	1570.79
307.18	1665.00
307.39	1724.39
307.61	1765.35
307.82	1667.05
308.04	1734.63
308.25	1695.72
308.46	1589.22
308.68	1736.68
308.89	1705.96
309.10	1722.34
309.32	1673.19
309.53	1697.77
309.74	1722.34
309.96	1658.85
310.17	1763.30
310.39	1656.81
310.60	1751.01
310.81	1689.57
311.03	1601.51
311.24	1734.63
311.45	1685.48
311.67	1798.12
311.88	1759.21
312.09	1714.15
312.31	1650.66
312.52	1673.19
312.73	1683.43
312.95	1613.80
313.16	1673.19
313.37	1765.35
313.59	1757.16
313.80	1783.78
314.01	1798.12
314.23	1654.76
314.44	1677.29
314.65	1734.63
314.87	1710.05
315.08	1712.10
315.29	1705.96
315.51	1546.22
315.72	1689.57
315.93	1730.53
316.15	1738.73
316.36	1634.28
316.57	1746.92
316.79	1683.43
317.00	1783.78
317.21	1714.15
317.43	1599.46
317.64	1697.77
317.85	1652.71
318.07	1632.23
318.28	1658.85
318.49	1800.16
318.70	1912.80
318.92	1771.49
319.13	1763.30
319.34	1826.79
319.56	1763.30
319.77	1710.05
319.98	1738.73
320.20	1796.07
320.41	1751.01
320.62	1802.21
320.83	1628.14
321.05	1867.75
321.26	1759.21
321.47	1683.43
321.69	1746.92
321.90	1605.61
322.11	1734.63
322.32	1742.82
322.54	1732.58
322.75	1656.81
322.96	1806.31
323.18	1615.85
323.39	1566.70
323.60	1626.09
323.81	1757.16
324.03	1759.21
324.24	1726.44
324.45	1632.23
324.66	1691.62
324.88	1695.72
325.09	1712.10
325.30	1734.63
325.52	1681.38
325.73	1603.56
325.94	1652.71
326.15	1636.33
326.37	1652.71
326.58	1787.88
326.79	1830.88
327.00	1617.90
327.22	1673.19
327.43	1609.70
327.64	1605.61
327.85	1687.53
328.07	1734.63
328.28	1843.17
328.49	1667.05
328.70	1722.34
328.92	1660.90
329.13	1726.44
329.34	1816.55
329.55	1796.07
329.76	1681.38
329.98	1724.39
330.19	1755.11
330.40	1689.57
330.61	1671.14
330.83	1808.36
331.04	1626.09
331.25	1691.62
331.46	1642.47
331.68	1652.71
331.89	1730.53
332.10	1685.48
332.31	1642.47
332.52	1591.27
332.74	1714.15
332.95	1540.07
333.16	1640.42
333.37	1691.62
333.58	1697.77
333.80	1791.97
334.01	1626.09
334.22	1597.42
334.43	1687.53
334.64	1605.61
334.86	1685.48
335.07	1673.19
335.28	1779.68
335.49	1611.75
335.70	1746.92
335.92	1759.21
336.13	1814.50
336.34	1767.40
336.55	1689.57
336.76	1697.77
336.98	1558.50
337.19	1710.05
337.40	1800.16
337.61	1828.84
337.82	1648.61
338.04	1787.88
338.25	1599.46
338.46	1710.05
338.67	1632.23
338.88	1562.60
339.09	1648.61
339.31	1722.34
339.52	1591.27
339.73	1617.90
339.94	1685.48
340.15	1771.49
340.36	1679.33
340.58	1656.81
340.79	1671.14
341.00	1716.20
341.21	1591.27
341.42	1800.16
341.63	1658.85
341.85	1767.40
342.06	1679.33
342.27	1658.85
342.48	1693.67
342.69	1665.00
342.90	1646.57
343.12	1732.58
343.33	1669.09
343.54	1783.78
343.75	1777.64
343.96	1751.01
344.17	1675.24
344.38	1658.85
344.60	1624.04
344.81	1624.04
345.02	1669.09
345.23	1742.82
345.44	1781.73
345.65	1730.53
345.86	1646.57
346.07	1730.53
346.29	1716.20
346.50	1685.48
346.71	1691.62
346.92	1718.25
347.13	1861.60
347.34	1658.85
347.55	1626.09
347.76	1730.53
347.98	1609.70
348.19	1591.27
348.40	1808.36
348.61	1703.91
348.82	1757.16
349.03	1800.16
349.24	1642.47
349.45	1808.36
349.66	1587.18
349.88	1746.92
350.09	1720.29
350.30	1759.21
350.51	1787.88
350.72	1712.10
350.93	1691.62
351.14	1708.01
351.35	1705.96
351.56	1687.53
351.77	1742.82
351.99	1714.15
352.20	1826.79
352.41	1748.97
352.62	1521.64
352.83	1681.38
353.04	1636.33
353.25	1662.95
353.46	1763.30
353.67	1746.92
353.88	1554.41
354.09	1708.01
354.30	1755.11
354.52	1722.34
354.73	1656.81
354.94	1691.62
355.15	1646.57
355.36	1728.49
355.57	1710.05
355.78	1744.87
355.99	1619.94
356.20	1630.18
356.41	1826.79
356.62	1642.47
356.83	1669.09
357.04	1722.34
357.25	1585.13
357.46	1695.72
357.68	1642.47
357.89	1673.19
358.10	1746.92
358.31	1646.57
358.52	1673.19
358.73	1591.27
358.94	1621.99
359.15	1665.00
359.36	1730.53
359.57	1716.20
359.78	1673.19
359.99	1755.11
360.20	1660.90
360.41	1738.73
360.62	1773.54
360.83	1738.73
361.04	1699.81
361.25	1765.35
361.46	1763.30
361.67	1689.57
361.88	1691.62
362.09	1716.20
362.30	1708.01
362.51	1724.39
362.72	1652.71
362.93	1757.16
363.14	1740.77
363.35	1718.25
363.56	1595.37
363.78	1693.67
363.99	1751.01
364.20	1603.56
364.41	1761.25
364.62	1773.54
364.83	1703.91
365.04	1595.37
365.25	1722.34
365.46	1882.08
365.67	1712.10
365.88	1630.18
366.09	1701.86
366.30	1630.18
366.51	1734.63
366.72	1605.61
366.93	1574.89
367.14	1677.29
367.35	1814.50
367.56	1675.24
367.77	1771.49
367.98	1685.48
368.18	1681.38
368.39	1744.87
368.60	1644.52
368.81	1683.43
369.02	1654.76
369.23	1695.72
369.44	1572.84
369.65	1689.57
369.86	1699.81
370.07	1683.43
370.28	1673.19
370.49	1644.52
370.70	1658.85
370.91	1656.81
371.12	1611.75
371.33	1798.12
371.54	1591.27
371.75	1746.92
371.96	1632.23
372.17	1605.61
372.38	1685.48
372.59	1691.62
372.80	1677.29
373.01	1660.90
373.22	1734.63
373.43	1697.77
373.64	1632.23
373.85	1765.35
374.06	1814.50
374.26	1751.01
374.47	1667.05
374.68	1775.59
374.89	1658.85
375.10	1658.85
375.31	1681.38
375.52	1718.25
375.73	1656.81
375.94	1656.81
376.15	1861.60
376.36	1648.61
376.57	1648.61
376.78	1691.62
376.99	1689.57
377.20	1708.01
377.40	1673.19
377.61	1789.92
377.82	1607.66
378.03	1740.77
378.24	1699.81
378.45	1644.52
378.66	1693.67
378.87	1624.04
379.08	1634.28
379.29	1646.57
379.50	1693.67
379.71	1732.58
379.91	1697.77
380.12	1730.53
380.33	1667.05
380.54	1720.29
380.75	1716.20
380.96	1722.34
381.17	1710.05
381.38	1695.72
381.59	1783.78
381.80	1673.19
382.00	1820.64
382.21	1779.68
382.42	1716.20
382.63	1787.88
382.84	1742.82
383.05	1767.40
383.26	1806.31
383.47	1718.25
383.68	1757.16
383.88	1722.34
384.09	1734.63
384.30	1789.92
384.51	1665.00
384.72	1619.94
384.93	1632.23
385.14	1703.91
385.35	1761.25
385.55	1626.09
385.76	1724.39
385.97	1728.49
386.18	1581.03
386.39	1710.05
386.60	1650.66
386.81	1685.48
387.02	1638.38
387.22	1701.86
387.43	1744.87
387.64	1742.82
387.85	1834.98
388.06	2189.28
388.27	4392.89
388.48	6735.77
388.68	8376.19
388.89	9719.66
389.10	9910.12
389.31	8669.05
389.52	7647.12
389.73	6756.25
389.93	6115.23
390.14	5877.67
390.35	5285.81
390.56	4782.01
390.77	3870.66
390.98	3096.53
391.18	2488.28
391.39	2117.60
391.60	1861.60
391.81	1814.50
392.02	1767.40
392.23	1832.93
392.43	1679.33
392.64	1834.98
392.85	1708.01
393.06	1755.11
393.27	1638.38
393.47	1603.56
393.68	1724.39
393.89	1646.57
394.10	1734.63
394.31	1744.87
394.52	1621.99
394.72	1695.72
394.93	1730.53
395.14	1650.66
395.35	1734.63
395.56	1669.09
395.76	1699.81
395.97	1742.82
396.18	1865.70
396.39	1843.17
396.60	2009.06
396.80	1869.80
397.01	1779.68
397.22	1816.55
397.43	1818.60
397.64	1734.63
397.84	1814.50
398.05	1918.95
398.26	1677.29
398.47	1777.64
398.67	1816.55
398.88	1701.86
399.09	1679.33
399.30	1632.23
399.51	1740.77
399.71	1599.46
399.92	1671.14
400.13	1697.77
400.34	1652.71
400.54	1662.95
400.75	1761.25
400.96	1695.72
401.17	1791.97
401.37	1705.96
401.58	1716.20
401.79	1626.09
402.00	1798.12
402.21	2002.91
402.41	1867.75
402.62	1998.82
402.83	2062.30
403.04	1982.43
403.24	2054.11
403.45	1869.80
403.66	1937.38
403.87	1828.84
404.07	1906.66
404.28	1804.26
404.49	1861.60
404.70	1671.14
404.90	1816.55
405.11	1730.53
405.32	1775.59
405.52	1681.38
405.73	1624.04
405.94	1636.33
406.15	1619.94
406.35	1673.19
406.56	1730.53
406.77	1775.59
406.98	1775.59
407.18	1626.09
407.39	1794.02
407.60	1689.57
407.80	1703.91
408.01	1804.26
408.22	1732.58
408.43	1693.67
408.63	1712.10
408.84	1779.68
409.05	1732.58
409.25	1697.77
409.46	1650.66
409.67	1746.92
409.88	1718.25
410.08	1751.01
410.29	1650.66
410.50	1734.63
410.70	1732.58
410.91	1716.20
411.12	1712.10
411.32	1626.09
411.53	1673.19
411.74	1767.40
411.95	1828.84
412.15	1742.82
412.36	1742.82
412.57	1689.57
412.77	1744.87
412.98	1671.14
413.19	1701.86
413.39	1753.06
413.60	1748.97
413.81	1767.40
414.01	1619.94
414.22	1736.68
414.43	1740.77
414.63	1662.95
414.84	1779.68
415.05	1748.97
415.25	1685.48
415.46	1748.97
415.67	1697.77
415.87	1751.01
416.08	1748.97
416.29	1673.19
416.49	1658.85
416.70	1677.29
416.91	1689.57
417.11	1708.01
417.32	1740.77
417.53	1714.15
417.73	1755.11
417.94	1691.62
418.15	1705.96
418.35	1710.05
418.56	1667.05
418.77	1726.44
418.97	1652.71
419.18	1636.33
419.38	1562.60
419.59	1708.01
419.80	1742.82
420.00	1701.86
420.21	1673.19
420.42	1830.88
420.62	1765.35
420.83	1689.57
421.04	1738.73
421.24	1697.77
421.45	1714.15
421.65	1738.73
421.86	1681.38
422.07	1720.29
422.27	1732.58
422.48	1660.90
422.69	1632.23
422.89	1677.29
423.10	1757.16
423.30	1716.20
423.51	1761.25
423.72	1738.73
423.92	1691.62
424.13	1624.04
424.33	1650.66
424.54	1720.29
424.75	1705.96
424.95	1757.16
425.16	1685.48
425.36	1693.67
425.57	1763.30
425.78	1681.38
425.98	1746.92
426.19	1685.48
426.39	1636.33
426.60	1675.24
426.81	1822.69
427.01	1724.39
427.22	1646.57
427.42	1552.36
427.63	1632.23
427.83	1765.35
428.04	1775.59
428.25	1814.50
428.45	1738.73
428.66	1802.21
428.86	1718.25
429.07	1689.57
429.28	1763.30
429.48	1708.01
429.69	1626.09
429.89	1734.63
430.10	1552.36
430.30	1742.82
430.51	1767.40
430.71	1597.42
430.92	1689.57
431.13	1638.38
431.33	1703.91
431.54	1673.19
431.74	1710.05
431.95	1810.40
432.15	1591.27
432.36	1730.53
432.56	1669.09
432.77	1822.69
432.98	1804.26
433.18	1724.39
433.39	1685.48
433.59	1644.52
433.80	1802.21
434.00	1832.93
434.21	1665.00
434.41	1665.00
434.62	1886.18
434.82	1591.27
435.03	1671.14
435.23	1689.57
435.44	1554.41
435.64	1710.05
435.85	1748.97
436.06	1757.16
436.26	1771.49
436.47	1640.42
436.67	1665.00
436.88	1746.92
437.08	1722.34
437.29	1857.51
437.49	1787.88
437.70	1779.68
437.90	1716.20
438.11	1865.70
438.31	1798.12
438.52	1902.56
438.72	1839.08
438.93	1894.37
439.13	1837.03
439.34	1787.88
439.54	1730.53
439.75	1732.58
439.95	1751.01
440.16	1718.25
440.36	1730.53
440.57	1703.91
440.77	1722.34
440.98	1746.92
441.18	1806.31
441.39	1712.10
441.59	1728.49
441.80	1863.65
442.00	1681.38
442.21	1841.12
442.41	1646.57
442.62	1695.72
442.82	1701.86
443.02	1716.20
443.23	1736.68
443.43	1738.73
443.64	1798.12
443.84	1624.04
444.05	1775.59
444.25	1789.92
444.46	1734.63
444.66	1759.21
444.87	1808.36
445.07	1640.42
445.28	1720.29
445.48	1755.11
445.69	1724.39
445.89	1890.28
446.09	1748.97
446.30	2023.39
446.50	2662.36
446.71	3774.41
446.91	4394.94
447.12	4704.18
447.32	4925.36
447.53	4288.45
447.73	3796.93
447.93	3479.50
448.14	3362.76
448.34	3364.81
448.55	2947.03
448.75	2838.48
448.96	2625.50
449.16	2426.84
449.36	2199.52
449.57	2043.87
449.77	1912.80
449.98	1820.64
450.18	1757.16
450.39	1740.77
450.59	1742.82
450.79	1734.63
451.00	1701.86
451.20	1742.82
451.41	1710.05
451.61	1718.25
451.81	1718.25
452.02	1695.72
452.22	1697.77
452.43	1763.30
452.63	1724.39
452.84	1701.86
453.04	1734.63
453.24	1787.88
453.45	1632.23
453.65	1693.67
453.86	1738.73
454.06	1722.34
454.26	1701.86
454.47	1632.23
454.67	1783.78
454.87	1771.49
455.08	1679.33
455.28	1873.89
455.49	1724.39
455.69	1718.25
455.89	1886.18
456.10	1714.15
456.30	1785.83
456.51	1738.73
456.71	1761.25
456.91	1775.59
457.12	1712.10
457.32	1763.30
457.52	1675.24
457.73	1757.16
457.93	1796.07
458.14	1685.48
458.34	1624.04
458.54	1755.11
458.75	1748.97
458.95	1785.83
459.15	1705.96
459.36	1775.59
459.56	1699.81
459.76	1810.40
459.97	1701.86
460.17	1687.53
460.37	1783.78
460.58	1744.87
460.78	1746.92
460.99	1644.52
461.19	1665.00
461.39	1712.10
461.60	1671.14
461.80	1753.06
462.00	1732.58
462.21	1820.64
462.41	1626.09
462.61	1611.75
462.82	1538.02
463.02	1767.40
463.22	1687.53
463.43	1748.97
463.63	1771.49
463.83	1751.01
464.04	1757.16
464.24	1722.34
464.44	1695.72
464.64	1742.82
464.85	1783.78
465.05	1757.16
465.25	1671.14
465.46	1757.16
465.66	1763.30
465.86	1767.40
466.07	1783.78
466.27	1710.05
466.47	1665.00
466.68	1662.95
466.88	1802.21
467.08	1708.01
467.29	1824.74
467.49	1732.58
467.69	1755.11
467.89	1761.25
468.10	1742.82
468.30	1703.91
468.50	1755.11
468.71	1787.88
468.91	1646.57
469.11	1908.71
469.31	1730.53
469.52	1699.81
469.72	1767.40
469.92	1863.65
470.13	1720.29
470.33	1759.21
470.53	1826.79
470.73	1986.53
470.94	2275.29
471.14	2299.87
471.34	2531.29
471.54	2346.97
471.75	2283.49
471.95	2154.46
472.15	2025.44
472.36	2070.50
472.56	2093.02
472.76	2025.44
472.96	1964.00
473.17	1998.82
473.37	1832.93
473.57	1787.88
473.77	1834.98
473.98	1742.82
474.18	1626.09
474.38	1869.80
474.58	1708.01
474.79	1701.86
474.99	1708.01
475.19	1794.02
475.39	1744.87
475.60	1720.29
475.80	1689.57
476.00	1701.86
476.20	1755.11
476.41	1738.73
476.61	1718.25
476.81	1763.30
477.01	1669.09
477.21	1834.98
477.42	1712.10
477.62	1652.71
477.82	1718.25
478.02	1691.62
478.23	1781.73
478.43	1763.30
478.63	1705.96
478.83	1742.82
479.03	1638.38
479.24	1769.44
479.44	1820.64
479.64	1628.14
479.84	1578.98
480.04	1615.85
480.25	1710.05
480.45	1646.57
480.65	1697.77
480.85	1722.34
481.06	1697.77
481.26	1748.97
481.46	1787.88
481.66	1757.16
481.86	1595.37
482.06	1779.68
482.27	1722.34
482.47	1720.29
482.67	1710.05
482.87	1724.39
483.07	1716.20
483.28	1611.75
483.48	1640.42
483.68	1689.57
483.88	1640.42
484.08	1619.94
484.29	1624.04
484.49	1671.14
484.69	1660.90
484.89	1800.16
485.09	1814.50
485.29	1767.40
485.50	1767.40
485.70	1648.61
485.90	1763.30
486.10	1755.11
486.30	1767.40
486.50	1734.63
486.71	1730.53
486.91	1705.96
487.11	1744.87
487.31	1646.57
487.51	1689.57
487.71	1597.42
487.91	1597.42
488.12	1673.19
488.32	1638.38
488.52	1607.66
488.72	1611.75
488.92	1693.67
489.12	1781.73
489.32	1693.67
489.53	1699.81
489.73	1646.57
489.93	1781.73
490.13	1718.25
490.33	1646.57
490.53	1716.20
490.73	1796.07
490.94	1607.66
491.14	1796.07
491.34	1849.32
491.54	2111.46
491.74	2492.38
491.94	2959.31
492.14	3055.57
492.34	3086.29
492.54	2744.28
492.75	2398.17
492.95	2418.65
493.15	2226.14
493.35	2320.35
493.55	2215.90
493.75	2119.65
493.95	2076.64
494.15	2009.06
494.35	1937.38
494.56	1841.12
494.76	1710.05
494.96	1824.74
495.16	1816.55
495.36	1755.11
495.56	1697.77
495.76	1718.25
495.96	1695.72
496.16	1658.85
496.36	1832.93
496.56	1642.47
496.77	1746.92
496.97	1728.49
497.17	1775.59
497.37	1595.37
497.57	1730.53
497.77	1691.62
497.97	1677.29
498.17	1744.87
498.37	1679.33
498.57	1693.67
498.77	1710.05
498.97	1781.73
499.17	1775.59
499.38	1728.49
499.58	1804.26
499.78	1738.73
499.98	1738.73
500.18	1769.44
500.38	1701.86
500.58	1839.08
500.78	2564.06
500.98	4523.96
501.18	6000.55
501.38	6895.51
501.58	7098.26
501.78	6909.85
501.98	5586.86
502.18	5105.59
502.38	4519.87
502.58	4173.76
502.78	3829.70
502.98	3616.71
503.18	3395.53
503.38	3278.80
503.59	2828.24
503.79	2699.22
503.99	2527.19
504.19	2306.01
504.39	2222.05
504.59	2275.29
504.79	2154.46
504.99	2047.97
505.19	1935.33
505.39	1865.70
505.59	1947.62
505.79	1900.52
505.99	1880.04
506.19	1769.44
506.39	1935.33
506.59	1779.68
506.79	1757.16
506.99	1753.06
507.19	1779.68
507.39	1738.73
507.59	1679.33
507.79	1621.99
507.99	1665.00
508.19	1705.96
508.39	1685.48
508.59	1710.05
508.79	1804.26
508.99	1841.12
509.19	1712.10
509.39	1757.16
509.59	1708.01
509.79	1667.05
509.99	1816.55
510.19	1796.07
510.39	1744.87
510.59	1701.86
510.79	1761.25
510.99	1693.67
511.19	1703.91
511.39	1851.36
511.59	1734.63
511.79	1832.93
511.99	1759.21
512.19	1824.74
512.38	1781.73
512.58	1736.68
512.78	1697.77
512.98	1796.07
513.18	1763.30
513.38	1673.19
513.58	1769.44
513.78	1630.18
513.98	1691.62
514.18	1771.49
514.38	1665.00
514.58	1769.44
514.78	1730.53
514.98	1578.98
515.18	1681.38
515.38	1652.71
515.58	1771.49
515.78	1640.42
515.98	1716.20
516.18	1740.77
516.38	1691.62
516.57	1798.12
516.77	1744.87
516.97	1769.44
517.17	1703.91
517.37	1652.71
517.57	1746.92
517.77	1777.64
517.97	1693.67
518.17	1781.73
518.37	1744.87
518.57	1689.57
518.77	1730.53
518.97	1687.53
519.16	1738.73
519.36	1779.68
519.56	1738.73
519.76	1648.61
519.96	1734.63
520.16	1738.73
520.36	1701.86
520.56	1779.68
520.76	1708.01
520.96	1701.86
521.16	1855.46
521.35	1769.44
521.55	1736.68
521.75	1714.15
521.95	1751.01
522.15	1669.09
522.35	1601.51
522.55	1570.79
522.75	1781.73
522.95	1679.33
523.14	1650.66
523.34	1732.58
523.54	1708.01
523.74	1769.44
523.94	1730.53
524.14	1615.85
524.34	1791.97
524.54	1718.25
524.73	1697.77
524.93	1705.96
525.13	1736.68
525.33	1599.46
525.53	1804.26
525.73	1773.54
525.93	1791.97
526.13	1705.96
526.32	1726.44
526.52	1785.83
526.72	1767.40
526.92	1728.49
527.12	1689.57
527.32	1679.33
527.52	1683.43
527.71	1726.44
527.91	1708.01
528.11	1683.43
528.31	1765.35
528.51	1652.71
528.71	1763.30
528.90	1726.44
529.10	1742.82
529.30	1738.73
529.50	1605.61
529.70	1822.69
529.90	1660.90
530.09	1746.92
530.29	1648.61
530.49	1667.05
530.69	1834.98
530.89	1650.66
531.09	1755.11
531.28	1626.09
531.48	1808.36
531.68	1753.06
531.88	1705.96
532.08	1763.30
532.28	1665.00
532.47	1755.11
532.67	1748.97
532.87	1800.16
533.07	1652.71
533.27	1781.73
533.46	1759.21
533.66	1677.29
533.86	1675.24
534.06	1708.01
534.26	1765.35
534.45	1640.42
534.65	1722.34
534.85	1718.25
535.05	1710.05
535.25	1802.21
535.44	1521.64
535.64	1781.73
535.84	1656.81
536.04	1748.97
536.24	1708.01
536.43	1693.67
536.63	1763.30
536.83	1687.53
537.03	1734.63
537.22	1619.94
537.42	1630.18
537.62	1681.38
537.82	1679.33
538.02	1787.88
538.21	1806.31
538.41	1812.45
538.61	1773.54
538.81	1726.44
539.00	1773.54
539.20	1646.57
539.40	1673.19
539.60	1693.67
539.79	1781.73
539.99	1798.12
540.19	1617.90
540.39	1685.48
540.58	1738.73
540.78	1726.44
540.98	1732.58
541.18	1722.34
541.37	1699.81
541.57	1736.68
541.77	1783.78
541.97	1665.00
542.16	1646.57
542.36	1767.40
542.56	1785.83
542.76	1767.40
542.95	1826.79
543.15	1740.77
543.35	1732.58
543.54	1748.97
543.74	1730.53
543.94	1812.45
544.14	1638.38
544.33	1808.36
544.53	1751.01
544.73	1685.48
544.93	1675.24
545.12	1695.72
545.32	1765.35
545.52	1654.76
545.71	1679.33
545.91	1691.62
546.11	1644.52
546.30	1708.01
546.50	1781.73
546.70	1796.07
546.90	1771.49
547.09	1685.48
547.29	1753.06
547.49	1716.20
547.68	1619.94
547.88	1701.86
548.08	1787.88
548.27	2138.08
548.47	1699.81
548.67	1646.57
548.87	1697.77
549.06	1730.53
549.26	1767.40
549.46	1804.26
549.65	1699.81
549.85	1796.07
550.05	1753.06
550.24	1611.75
550.44	1640.42
550.64	1701.86
550.83	1714.15
551.03	1789.92
551.23	1773.54
551.42	1771.49
551.62	1681.38
551.82	1744.87
552.01	1673.19
552.21	1748.97
552.41	1740.77
552.60	1761.25
552.80	1755.11
553.00	1728.49
553.19	1673.19
553.39	1800.16
553.59	1681.38
553.78	1761.25
553.98	1683.43
554.17	1667.05
554.37	1763.30
554.57	1761.25
554.76	1628.14
554.96	1734.63
555.16	1683.43
555.35	1697.77
555.55	1853.41
555.75	1693.67
555.94	1744.87
556.14	1603.56
556.33	1744.87
556.53	1689.57
556.73	1765.35
556.92	1777.64
557.12	1814.50
557.32	1816.55
557.51	1699.81
557.71	1753.06
557.90	1834.98
558.10	1841.12
558.30	1759.21
558.49	1736.68
558.69	1683.43
558.88	1757.16
559.08	1734.63
559.28	1609.70
559.47	1716.20
559.67	1775.59
559.86	1843.17
560.06	1783.78
560.26	1665.00
560.45	1646.57
560.65	1763.30
560.84	1843.17
561.04	1769.44
561.24	1757.16
561.43	1650.66
561.63	1785.83
561.82	1689.57
562.02	1787.88
562.22	1654.76
562.41	1646.57
562.61	1685.48
562.80	1652.71
563.00	1834.98
563.19	1759.21
563.39	1720.29
563.59	1703.91
563.78	1695.72
563.98	1673.19
564.17	1689.57
564.37	1619.94
564.56	1738.73
564.76	1724.39
564.96	1804.26
565.15	1675.24
565.35	1787.88
565.54	1685.48
565.74	1693.67
565.93	1714.15
566.13	1734.63
566.32	1740.77
566.52	1808.36
566.71	1736.68
566.91	1759.21
567.11	1699.81
567.30	1644.52
567.50	1771.49
567.69	1708.01
567.89	1673.19
568.08	1644.52
568.28	1773.54
568.47	1628.14
568.67	1818.60
568.86	1677.29
569.06	1773.54
569.25	1697.77
569.45	1732.58
569.64	1685.48
569.84	1693.67
570.04	1734.63
570.23	1687.53
570.43	1667.05
570.62	1660.90
570.82	1849.32
571.01	1646.57
571.21	1656.81
571.40	1646.57
571.60	1755.11
571.79	1689.57
571.99	1720.29
572.18	1708.01
572.38	1746.92
572.57	1673.19
572.77	1757.16
572.96	1904.61
573.16	1824.74
573.35	1699.81
573.55	1812.45
573.74	1718.25
573.94	1710.05
574.13	1751.01
574.33	1787.88
574.52	1771.49
574.71	1712.10
574.91	1785.83
575.10	1591.27
575.30	1714.15
575.49	1687.53
575.69	1683.43
575.88	1771.49
576.08	1771.49
576.27	1781.73
576.47	1734.63
576.66	1738.73
576.86	1796.07
577.05	1755.11
577.25	1689.57
577.44	1775.59
577.64	1636.33
577.83	1769.44
578.02	1714.15
578.22	1873.89
578.41	1804.26
578.61	1722.34
578.80	1697.77
579.00	1789.92
579.19	1783.78
579.39	1671.14
579.58	1763.30
579.77	1759.21
579.97	1781.73
580.16	1837.03
580.36	1806.31
580.55	1841.12
580.75	1710.05
580.94	1681.38
581.13	1839.08
581.33	1871.84
581.52	1771.49
581.72	1849.32
581.91	1855.46
582.11	1703.91
582.30	1697.77
582.49	1781.73
582.69	1783.78
582.88	1777.64
583.08	1753.06
583.27	1765.35
583.47	1820.64
583.66	1679.33
583.85	1695.72
584.05	1828.84
584.24	1738.73
584.44	1822.69
584.63	1783.78
584.82	1869.80
585.02	1765.35
585.21	1740.77
585.41	1863.65
585.60	1775.59
585.79	1968.10
585.99	1908.71
586.18	1810.40
586.37	2172.89
586.57	3401.68
586.76	9926.50
586.96	24886.92
587.15	35171.82
587.34	41684.36
587.54	43408.75
587.73	37277.13
587.93	26857.06
588.12	21986.99
588.31	18716.39
588.51	16692.99
588.70	15648.53
588.89	14188.33
589.09	12779.32
589.28	11226.96
589.47	9506.67
589.67	8353.66
589.86	6524.83
590.06	4978.61
590.25	4073.41
590.44	3119.06
590.64	2613.21
590.83	2236.38
591.02	2076.64
591.22	1925.09
591.41	1939.43
591.60	1853.41
591.80	1916.90
591.99	1732.58
592.18	1730.53
592.38	1834.98
592.57	1730.53
592.76	1771.49
592.96	1767.40
593.15	1777.64
593.34	1849.32
593.54	1751.01
593.73	1767.40
593.92	1832.93
594.12	1863.65
594.31	1738.73
594.50	1806.31
594.70	1771.49
594.89	1857.51
595.08	1722.34
595.28	1710.05
595.47	1910.75
595.66	1724.39
595.86	1714.15
596.05	1722.34
596.24	1705.96
596.43	1845.22
596.63	1816.55
596.82	1771.49
597.01	1658.85
597.21	1794.02
597.40	1751.01
597.59	1652.71
597.79	1742.82
597.98	1769.44
598.17	1746.92
598.36	1748.97
598.56	1728.49
598.75	1720.29
598.94	1699.81
599.14	1705.96
599.33	1687.53
599.52	1720.29
599.71	1814.50
599.91	1785.83
600.10	1769.44
600.29	1732.58
600.48	1728.49
600.68	1757.16
600.87	1734.63
601.06	1691.62
601.26	1726.44
601.45	1665.00
601.64	1710.05
601.83	1841.12
602.03	1660.90
602.22	1683.43
602.41	1751.01
602.60	1851.36
602.80	1763.30
602.99	1849.32
603.18	1701.86
603.37	1742.82
603.57	1714.15
603.76	1714.15
603.95	1828.84
604.14	1708.01
604.34	1697.77
604.53	1753.06
604.72	1759.21
604.91	1705.96
605.10	1791.97
605.30	1601.51
605.49	1853.41
605.68	1771.49
605.87	1732.58
606.07	1753.06
606.26	1687.53
606.45	1843.17
606.64	1677.29
606.84	1656.81
607.03	1734.63
607.22	1757.16
607.41	1597.42
607.60	1714.15
607.80	1832.93
607.99	1722.34
608.18	1773.54
608.37	1763.30
608.56	1710.05
608.76	1740.77
608.95	1798.12
609.14	1716.20
609.33	1748.97
609.52	1775.59
609.72	1730.53
609.91	1724.39
610.10	1751.01
610.29	1824.74
610.48	1726.44
610.68	1748.97
610.87	1669.09
611.06	1791.97
611.25	1695.72
611.44	1804.26
611.63	1669.09
611.83	1656.81
612.02	1710.05
612.21	1789.92
612.40	1556.46
612.59	1671.14
612.79	1689.57
612.98	1697.77
613.17	1740.77
613.36	1699.81
613.55	1775.59
613.74	1662.95
613.93	1730.53
614.13	1683.43
614.32	1654.76
614.51	1785.83
614.70	1697.77
614.89	1689.57
615.08	1669.09
615.28	2082.78
615.47	1724.39
615.66	1767.40
615.85	1718.25
616.04	1849.32
616.23	1716.20
616.42	1656.81
616.62	1761.25
616.81	1718.25
617.00	1677.29
617.19	1724.39
617.38	1718.25
617.57	1761.25
617.76	1730.53
617.95	1759.21
618.15	1720.29
618.34	1714.15
618.53	1599.46
618.72	1726.44
618.91	1812.45
619.10	1816.55
619.29	1742.82
619.48	1728.49
619.68	1611.75
619.87	1665.00
620.06	1648.61
620.25	1820.64
620.44	1691.62
620.63	1689.57
620.82	1714.15
621.01	1705.96
621.20	1658.85
621.39	1687.53
621.59	1748.97
621.78	1673.19
621.97	1589.22
622.16	1685.48
622.35	1665.00
622.54	1849.32
622.73	1767.40
622.92	1626.09
623.11	1736.68
623.30	1775.59
623.49	1820.64
623.68	1644.52
623.88	1867.75
624.07	1648.61
624.26	1716.20
624.45	1763.30
624.64	1710.05
624.83	1742.82
625.02	1681.38
625.21	1724.39
625.40	1759.21
625.59	1751.01
625.78	1703.91
625.97	1796.07
626.16	1791.97
626.35	1732.58
626.54	1654.76
626.74	1746.92
626.93	1777.64
627.12	1714.15
627.31	1728.49
627.50	1751.01
627.69	1775.59
627.88	1685.48
628.07	1646.57
628.26	1597.42
628.45	1761.25
628.64	1677.29
628.83	1806.31
629.02	1613.80
629.21	1740.77
629.40	1732.58
629.59	1609.70
629.78	1607.66
629.97	1703.91
630.16	1675.24
630.35	1681.38
630.54	1798.12
630.73	1705.96
630.92	1720.29
631.11	1581.03
631.30	1703.91
631.49	1724.39
631.68	1740.77
631.87	1748.97
632.06	1593.32
632.25	1873.89
632.44	1740.77
632.63	1728.49
632.82	1660.90
633.01	1740.77
633.20	1716.20
633.39	1667.05
633.58	1658.85
633.77	1656.81
633.96	1699.81
634.15	1693.67
634.34	1726.44
634.53	1767.40
634.72	1603.56
634.91	1601.51
635.10	1751.01
635.29	1808.36
635.48	1703.91
635.67	1650.66
635.86	1617.90
636.05	1839.08
636.24	1685.48
636.43	1742.82
636.62	1751.01
636.81	1607.66
637.00	1724.39
637.19	1740.77
637.38	1693.67
637.57	1753.06
637.76	1728.49
637.95	1681.38
638.14	1638.38
638.33	1738.73
638.52	1742.82
638.71	1587.18
638.89	1652.71
639.08	1904.61
639.27	1695.72
639.46	1642.47
639.65	1847.27
639.84	1718.25
640.03	1761.25
640.22	1650.66
640.41	1796.07
640.60	1685.48
640.79	1689.57
640.98	1746.92
641.17	1708.01
641.36	1722.34
641.55	1730.53
641.74	1705.96
641.92	1669.09
642.11	1642.47
642.30	1699.81
642.49	1636.33
642.68	1789.92
642.87	1742.82
643.06	1757.16
643.25	1734.63
643.44	1626.09
643.63	1681.38
643.82	1744.87
644.00	1769.44
644.19	1683.43
644.38	1677.29
644.57	1701.86
644.76	1736.68
644.95	1683.43
645.14	1650.66
645.33	1642.47
645.52	1738.73
645.71	1595.37
645.89	1740.77
646.08	1665.00
646.27	1683.43
646.46	1851.36
646.65	1613.80
646.84	1701.86
647.03	1597.42
647.22	1751.01
647.40	1779.68
647.59	1699.81
647.78	1546.22
647.97	1726.44
648.16	1681.38
648.35	1718.25
648.54	1734.63
648.73	1746.92
648.91	1740.77
649.10	1726.44
649.29	1683.43
649.48	1701.86
649.67	1736.68
649.86	1693.67
650.05	1630.18
650.23	1748.97
650.42	1644.52
650.61	1732.58
650.80	1619.94
650.99	1826.79
651.18	1742.82
651.36	1765.35
651.55	1642.47
651.74	1763.30
651.93	1660.90
652.12	1675.24
652.31	1714.15
652.49	1691.62
652.68	1710.05
652.87	1771.49
653.06	1757.16
653.25	1783.78
653.44	1703.91
653.62	1845.22
653.81	1656.81
654.00	1624.04
654.19	1746.92
654.38	1869.80
654.56	1742.82
654.75	1689.57
654.94	1742.82
655.13	1701.86
655.32	1632.23
655.51	1705.96
655.69	1691.62
655.88	1648.61
656.07	1644.52
656.26	1759.21
656.45	1613.80
656.63	1724.39
656.82	1669.09
657.01	1771.49
657.20	1685.48
657.38	1712.10
657.57	1595.37
657.76	1576.94
657.95	1722.34
658.14	1738.73
658.32	1695.72
658.51	1667.05
658.70	1738.73
658.89	1677.29
659.08	1701.86
659.26	1755.11
659.45	1607.66
659.64	1769.44
659.83	1617.90
660.01	1810.40
660.20	1718.25
660.39	1798.12
660.58	1640.42
660.76	1773.54
660.95	1626.09
661.14	1716.20
661.33	1595.37
661.51	1695.72
661.70	1695.72
661.89	1695.72
662.08	1740.77
662.26	1667.05
662.45	1632.23
662.64	1777.64
662.83	1757.16
663.01	1599.46
663.20	1769.44
663.39	1796.07
663.58	1685.48
663.76	1693.67
663.95	1781.73
664.14	1667.05
664.32	1748.97
664.51	1705.96
664.70	1665.00
664.89	1759.21
665.07	1603.56
665.26	1751.01
665.45	1656.81
665.64	1732.58
665.82	1765.35
666.01	1701.86
666.20	1656.81
666.38	1882.08
666.57	1830.88
666.76	2191.33
666.95	4566.97
667.13	10600.29
667.32	15453.97
667.51	18097.90
667.69	19437.27
667.88	18134.76
668.07	12681.02
668.25	9658.22
668.44	8343.42
668.63	7497.61
668.81	6733.72
669.00	6285.22
669.19	5752.74
669.38	5253.04
669.56	4528.06
669.75	3966.92
669.94	3420.11
670.12	2904.02
670.31	2512.86
670.50	2385.88
670.68	2086.88
670.87	1869.80
671.06	1820.64
671.24	1746.92
671.43	1843.17
671.62	1740.77
671.80	1722.34
671.99	1699.81
672.18	1716.20
672.36	1755.11
672.55	1775.59
672.74	1648.61
672.92	1681.38
673.11	1730.53
673.29	1671.14
673.48	1740.77
673.67	1710.05
673.85	1710.05
674.04	1628.14
674.23	1646.57
674.41	1890.28
674.60	1695.72
674.79	1595.37
674.97	1728.49
675.16	1740.77
675.34	1701.86
675.53	1695.72
675.72	1705.96
675.90	1818.60
676.09	1679.33
676.28	1705.96
676.46	1636.33
676.65	1783.78
676.83	1638.38
677.02	1705.96
677.21	1718.25
677.39	1626.09
677.58	1689.57
677.77	1667.05
677.95	1708.01
678.14	1677.29
678.32	1630.18
678.51	1665.00
678.70	1802.21
678.88	1757.16
679.07	1742.82
679.25	1742.82
679.44	1656.81
679.63	1634.28
679.81	1724.39
680.00	1746.92
680.18	1714.15
680.37	1687.53
680.55	1640.42
680.74	1613.80
680.93	1595.37
681.11	1665.00
681.30	1701.86
681.48	1732.58
681.67	1669.09
681.85	1681.38
682.04	1667.05
682.23	1757.16
682.41	1794.02
682.60	1681.38
682.78	1705.96
682.97	1619.94
683.15	1773.54
683.34	1728.49
683.53	1808.36
683.71	1665.00
683.90	1777.64
684.08	1808.36
684.27	1683.43
684.45	1685.48
684.64	1708.01
684.82	1697.77
685.01	1681.38
685.19	1732.58
685.38	1771.49
685.57	1761.25
685.75	1691.62
685.94	1691.62
686.12	1626.09
686.31	1621.99
686.49	1796.07
686.68	1624.04
686.86	1736.68
687.05	1683.43
687.23	1824.74
687.42	1701.86
687.60	1640.42
687.79	1738.73
687.97	1822.69
688.16	1765.35
688.34	1769.44
688.53	1599.46
688.71	1679.33
688.90	1789.92
689.08	1705.96
689.27	1566.70
689.45	1781.73
689.64	1779.68
689.82	1681.38
690.01	1673.19
690.19	1718.25
690.38	1724.39
690.56	1791.97
690.75	1621.99
690.93	1640.42
691.12	1701.86
691.30	1679.33
691.49	1634.28
691.67	1695.72
691.86	1814.50
692.04	1619.94
692.23	1660.90
692.41	1628.14
692.60	1775.59
692.78	1638.38
692.97	1619.94
693.15	1734.63
693.34	1794.02
693.52	1751.01
693.71	1671.14
693.89	1632.23
694.08	1685.48
694.26	1714.15
694.44	1757.16
694.63	1708.01
694.81	1634.28
695.00	1759.21
695.18	1693.67
695.37	1912.80
695.55	1695.72
695.74	1800.16
695.92	1570.79
696.10	1751.01
696.29	1638.38
696.47	1665.00
696.66	1648.61
696.84	1701.86
697.03	1667.05
697.21	1783.78
697.40	2312.16
697.58	1759.21
697.76	1730.53
697.95	1636.33
698.13	1718.25
698.32	1636.33
698.50	1726.44
698.68	1744.87
698.87	1617.90
699.05	1783.78
699.24	1734.63
699.42	1656.81
699.61	1701.86
699.79	1685.48
699.97	1710.05
700.16	1599.46
700.34	1644.52
700.53	1685.48
700.71	1714.15
700.89	1687.53
701.08	1642.47
701.26	1689.57
701.45	2058.21
701.63	1650.66
701.81	1740.77
702.00	1673.19
702.18	1769.44
702.37	1669.09
702.55	1730.53
702.73	1708.01
702.92	1644.52
703.10	1712.10
703.28	1791.97
703.47	1558.50
703.65	1771.49
703.84	1759.21
704.02	1689.57
704.20	1773.54
704.39	1689.57
704.57	1689.57
704.75	1789.92
704.94	1777.64
705.12	1722.34
705.30	1787.88
705.49	2236.38
705.67	4523.96
705.86	9650.03
706.04	12834.62
706.22	14851.87
706.41	15677.20
706.59	14196.52
706.77	9883.50
706.96	7501.71
707.14	6752.15
707.32	6238.11
707.51	5672.87
707.69	5119.92
707.87	4171.71
708.06	3542.99
708.24	3094.48
708.42	2488.28
708.61	2207.71
708.79	1865.70
708.97	1914.85
709.16	1841.12
709.34	1806.31
709.52	1781.73
709.71	1740.77
709.89	1810.40
710.07	1681.38
710.26	1730.53
710.44	1669.09
710.62	1802.21
710.80	1642.47
710.99	1695.72
711.17	1736.68
711.35	1638.38
711.54	1724.39
711.72	1777.64
711.90	1701.86
712.09	1675.24
712.27	1744.87
712.45	1730.53
712.63	1609.70
712.82	1660.90
713.00	1660.90
713.18	1775.59
713.37	1779.68
713.55	1724.39
713.73	1673.19
713.91	1759.21
714.10	1669.09
714.28	1695.72
714.46	1773.54
714.65	1718.25
714.83	1693.67
715.01	1697.77
715.19	1726.44
715.38	1755.11
715.56	1681.38
715.74	1720.29
715.92	1640.42
716.11	1771.49
716.29	1634.28
716.47	1677.29
716.65	1656.81
716.84	1611.75
717.02	1724.39
717.20	1613.80
717.38	1658.85
717.57	1695.72
717.75	1681.38
717.93	1687.53
718.11	1660.90
718.30	1632.23
718.48	1626.09
718.66	1765.35
718.84	1744.87
719.03	1718.25
719.21	1624.04
719.39	1781.73
719.57	1679.33
719.75	1761.25
719.94	1624.04
720.12	1617.90
720.30	1722.34
720.48	1787.88
720.67	1710.05
720.85	1658.85
721.03	1652.71
721.21	1640.42
721.39	1773.54
721.58	1689.57
721.76	1667.05
721.94	1748.97
722.12	1691.62
722.30	1845.22
722.49	1654.76
722.67	1640.42
722.85	1748.97
723.03	1681.38
723.21	1650.66
723.40	1695.72
723.58	1728.49
723.76	1705.96
723.94	1789.92
724.12	1681.38
724.30	1808.36
724.49	1820.64
724.67	1619.94
724.85	1738.73
725.03	1601.51
725.21	1789.92
725.40	1730.53
725.58	1710.05
725.76	1755.11
725.94	1722.34
726.12	1624.04
726.30	1710.05
726.49	1755.11
726.67	1648.61
726.85	1767.40
727.03	1742.82
727.21	2136.03
727.39	2875.35
727.57	3862.47
727.76	4327.36
727.94	4464.57
728.12	4323.26
728.30	3815.37
728.48	2975.70
728.66	2865.11
728.84	2527.19
729.03	2303.96
729.21	2170.85
729.39	1984.48
729.57	1849.32
729.75	1810.40
729.93	1834.98
730.11	1626.09
730.30	1652.71
730.48	1638.38
730.66	1714.15
730.84	1730.53
731.02	1697.77
731.20	1732.58
731.38	1630.18
731.56	1615.85
731.74	1726.44
731.93	1722.34
732.11	1779.68
732.29	1595.37
732.47	1697.77
732.65	1691.62
732.83	1740.77
733.01	1765.35
733.19	1689.57
733.37	1681.38
733.56	1640.42
733.74	1671.14
733.92	1732.58
734.10	1708.01
734.28	1710.05
734.46	1609.70
734.64	1667.05
734.82	1738.73
735.00	1665.00
735.18	1619.94
735.36	1677.29
735.54	1697.77
735.73	1753.06
735.91	1724.39
736.09	1753.06
736.27	1697.77
736.45	1783.78
736.63	1621.99
736.81	1732.58
736.99	1710.05
737.17	1763.30
737.35	1679.33
737.53	1693.67
737.71	1703.91
737.89	1738.73
738.07	1654.76
738.25	1581.03
738.43	1654.76
738.61	1683.43
738.80	1669.09
738.98	1656.81
739.16	1652.71
739.34	1660.90
739.52	1810.40
739.70	1740.77
739.88	1722.34
740.06	1740.77
740.24	1656.81
740.42	1744.87
740.60	1619.94
740.78	1701.86
740.96	1591.27
741.14	1636.33
741.32	1712.10
741.50	1716.20
741.68	1812.45
741.86	1812.45
742.04	1669.09
742.22	1603.56
742.40	1759.21
742.58	1728.49
742.76	1585.13
742.94	1757.16
743.12	1615.85
743.30	1671.14
743.48	1691.62
743.66	1722.34
743.84	1714.15
744.02	1695.72
744.20	1660.90
744.38	1638.38
744.56	1685.48
744.74	1804.26
744.92	1689.57
745.10	1738.73
745.28	1763.30
745.46	1759.21
745.64	1697.77
745.82	1773.54
746.00	1644.52
746.18	1705.96
746.36	1687.53
746.54	1705.96
746.72	1689.57
746.90	1601.51
747.08	1802.21
747.26	1710.05
747.44	1695.72
747.62	1652.71
747.80	1712.10
747.98	1710.05
748.15	1652.71
748.33	1712.10
748.51	1697.77
748.69	1658.85
748.87	1624.04
749.05	1626.09
749.23	1640.42
749.41	1748.97
749.59	1716.20
749.77	1832.93
749.95	1689.57
750.13	1642.47
750.31	1660.90
750.49	1722.34
750.67	1724.39
750.85	1763.30
751.03	1734.63
751.20	1748.97
751.38	1693.67
751.56	1701.86
751.74	1730.53
751.92	1638.38
752.10	1593.32
752.28	1744.87
752.46	1617.90
752.64	1730.53
752.82	1697.77
753.00	1822.69
753.18	1677.29
753.35	1535.98
753.53	1701.86
753.71	1644.52
753.89	1742.82
754.07	1628.14
754.25	1773.54
754.43	1720.29
754.61	1652.71
754.79	1767.40
754.97	1662.95
755.14	1798.12
755.32	1599.46
755.50	1669.09
755.68	1703.91
755.86	1578.98
756.04	1683.43
756.22	1683.43
756.40	1728.49
756.57	1853.41
756.75	1671.14
756.93	1828.84
757.11	1695.72
757.29	1601.51
757.47	1660.90
757.65	1681.38
757.82	1568.74
758.00	1628.14
758.18	1665.00
758.36	1685.48
758.54	1753.06
758.72	1621.99
758.90	1742.82
759.07	1624.04
759.25	1738.73
759.43	1751.01
759.61	1636.33
759.79	2168.80
759.97	1708.01
760.15	1681.38
760.32	1619.94
760.50	1685.48
760.68	1826.79
760.86	1607.66
761.04	1708.01
761.22	1734.63
761.39	1667.05
761.57	1675.24
761.75	1677.29
761.93	1689.57
762.11	1724.39
762.28	1697.77
762.46	1708.01
762.64	1787.88
762.82	1665.00
763.00	1740.77
763.18	1708.01
763.35	1558.50
763.53	1710.05
763.71	1763.30
763.89	1660.90
764.07	1753.06
764.24	1724.39
764.42	1712.10
764.60	1626.09
764.78	1734.63
764.96	1667.05
765.13	1730.53
765.31	1617.90
765.49	1685.48
765.67	1632.23
765.84	1703.91
766.02	1681.38
766.20	1589.22
766.38	1773.54
766.56	1738.73
766.73	1650.66
766.91	1679.33
767.09	1767.40
767.27	1691.62
767.44	1648.61
767.62	1722.34
767.80	1679.33
767.98	1689.57
768.15	1683.43
768.33	1716.20
768.51	1730.53
768.69	1701.86
768.87	1687.53
769.04	1718.25
769.22	1894.37
769.40	1761.25
769.58	1730.53
769.75	1785.83
769.93	1738.73
770.11	1652.71
770.28	1677.29
770.46	1738.73
770.64	1693.67
770.82	1708.01
770.99	1630.18
771.17	1740.77
771.35	1716.20
771.53	1720.29
771.70	1662.95
771.88	1755.11
772.06	1621.99
772.23	1728.49
772.41	1759.21
772.59	1656.81
772.77	1701.86
772.94	1640.42
773.12	1763.30
773.30	1681.38
773.47	1738.73
773.65	1630.18
773.83	1765.35
774.01	1652.71
774.18	1591.27
774.36	1726.44
774.54	1624.04
774.71	1724.39
774.89	1585.13
775.07	1544.17
775.24	1640.42
775.42	1693.67
775.60	1779.68
775.78	1705.96
775.95	1615.85
776.13	1601.51
776.31	1581.03
776.48	1710.05
776.66	1710.05
776.84	1648.61
777.01	1718.25
777.19	1701.86
777.37	1697.77
777.54	1718.25
777.72	1712.10
777.90	1646.57
778.07	1781.73
778.25	1890.28
778.43	1740.77
778.60	1693.67
778.78	1742.82
778.96	1714.15
779.13	1681.38
779.31	1783.78
779.49	1671.14
779.66	1718.25
779.84	1646.57
780.01	1697.77
780.19	1679.33
780.37	1728.49
780.54	1675.24
780.72	1789.92
780.90	1687.53
781.07	1621.99
781.25	1767.40
781.43	1667.05
781.60	1665.00
781.78	1785.83
781.95	1654.76
782.13	1681.38
782.31	1669.09
782.48	1613.80
782.66	1708.01
782.83	1810.40
783.01	1671.14
783.19	1728.49
783.36	1638.38
783.54	1679.33
783.72	1757.16
783.89	1640.42
784.07	1748.97
784.24	1697.77
784.42	1730.53
784.60	1701.86
784.77	1624.04
784.95	1570.79
785.12	1771.49
785.30	1728.49
785.47	1689.57
785.65	1624.04
785.83	1779.68
786.00	1679.33
786.18	1677.29
786.35	1617.90
786.53	1642.47
786.71	1695.72
786.88	1779.68
787.06	1665.00
787.23	1677.29
787.41	1638.38
787.58	1726.44
787.76	1662.95
787.94	1724.39
788.11	1755.11
788.29	1578.98
788.46	1613.80
788.64	1652.71
788.81	1630.18
788.99	1535.98
789.16	1632.23
789.34	1775.59
789.52	1712.10
789.69	1638.38
789.87	1624.04
790.04	1597.42
790.22	1726.44
790.39	1765.35
790.57	1658.85
790.74	1609.70
790.92	1730.53
791.09	1691.62
791.27	1697.77
791.44	1781.73
791.62	1681.38
791.79	1730.53
791.97	1740.77
792.15	1896.42
792.32	1722.34
792.50	1691.62
792.67	1773.54
792.85	1724.39
793.02	1712.10
793.20	1708.01
793.37	1624.04
793.55	1718.25
793.72	1642.47
793.90	1728.49
794.07	1581.03
794.25	1681.38
794.42	1746.92
794.60	1671.14
794.77	1744.87
794.95	1722.34
795.12	1734.63
795.30	1712.10
795.47	1552.36
795.65	1910.75
795.82	1705.96
796.00	1566.70
796.17	1617.90
796.34	1621.99
796.52	1742.82
796.69	1732.58
796.87	1718.25
797.04	1689.57
797.22	1773.54
797.39	1785.83
797.57	1675.24
797.74	1759.21
797.92	1693.67
798.09	1658.85
798.27	1748.97
798.44	1720.29
798.62	1712.10
798.79	1761.25
798.96	1603.56
799.14	1697.77
799.31	1791.97
799.49	1708.01
799.66	1740.77
799.84	1689.57
800.01	1697.77
800.19	1685.48
800.36	1673.19
800.53	1671.14
800.71	1724.39
800.88	1771.49
801.06	1681.38
801.23	1695.72
801.41	1701.86
801.58	1660.90
801.75	1667.05
801.93	1740.77
802.10	1726.44
802.28	1669.09
802.45	1626.09
802.63	1785.83
802.80	1765.35
802.97	1708.01
803.15	1667.05
803.32	1656.81
803.50	1662.95
803.67	1611.75
803.84	1654.76
804.02	1714.15
804.19	1695.72
804.37	1587.18
804.54	1595.37
804.71	1679.33
804.89	1742.82
805.06	1665.00
805.24	1585.13
805.41	1697.77
805.58	1728.49
805.76	1845.22
805.93	1751.01
806.10	1667.05
806.28	1705.96
806.45	1755.11
806.63	1662.95
806.80	1705.96
806.97	1736.68
807.15	1759.21
807.32	1710.05
807.49	1712.10
807.67	1734.63
807.84	1705.96
808.01	1654.76
808.19	1800.16
808.36	1873.89
808.54	1648.61
808.71	1640.42
808.88	1677.29
809.06	1746.92
809.23	1812.45
809.40	1697.77
809.58	1744.87
809.75	1601.51
809.92	1656.81
810.10	1765.35
810.27	1636.33
810.44	1746.92
810.62	1714.15
810.79	1736.68
810.96	1687.53
811.14	1671.14
811.31	1669.09
811.48	1705.96
811.66	1789.92
811.83	1802.21
812.00	1640.42
812.18	1710.05
812.35	1783.78
812.52	1685.48
812.69	1679.33
812.87	1681.38
813.04	1648.61
813.21	1730.53
813.39	1697.77
813.56	1677.29
813.73	1748.97
813.91	1613.80
814.08	1677.29
814.25	1675.24
814.42	1658.85
814.60	1761.25
814.77	1691.62
814.94	1671.14
815.12	1742.82
815.29	1806.31
815.46	1673.19
815.63	1708.01
815.81	1667.05
815.98	1755.11
816.15	1683.43
816.33	1677.29
816.50	1718.25
816.67	1681.38
816.84	1665.00
817.02	1701.86
817.19	1638.38
817.36	1701.86
817.53	1720.29
817.71	1677.29
817.88	1722.34
818.05	1652.71
818.22	1738.73
818.40	1746.92
818.57	1634.28
818.74	1703.91
818.91	1660.90
819.09	1759.21
819.26	1710.05
819.43	1751.01
819.60	1652.71
819.78	1705.96
819.95	1734.63
820.12	1626.09
820.29	1771.49
820.47	1718.25
820.64	1685.48
820.81	1564.65
820.98	1636.33
821.15	1697.77
821.33	1802.21
821.50	1628.14
821.67	1697.77
821.84	1642.47
822.02	1734.63
822.19	1724.39
822.36	1697.77
822.53	1662.95
822.70	1640.42
822.88	1691.62
823.05	1822.69
823.22	1603.56
823.39	1656.81
823.56	1705.96
823.74	1726.44
823.91	1677.29
824.08	1615.85
824.25	1626.09
824.42	1716.20
824.60	1642.47
824.77	1736.68
824.94	1677.29
825.11	1658.85
825.28	1591.27
825.45	1744.87
825.63	1632.23
825.80	1628.14
825.97	1767.40
826.14	1718.25
826.31	1669.09
826.48	1675.24
826.66	1640.42
826.83	1617.90
827.00	1722.34
827.17	1675.24
827.34	1689.57
827.51	1601.51
827.69	1642.47
827.86	1642.47
828.03	1718.25
828.20	1675.24
828.37	1689.57
828.54	1697.77
828.71	1624.04
828.89	1681.38
829.06	1648.61
829.23	1837.03
829.40	1640.42
829.57	1646.57
829.74	1669.09
829.91	1658.85
830.09	1689.57
830.26	1683.43
830.43	1746.92
830.60	1701.86
830.77	1765.35
830.94	1773.54
831.11	1638.38
831.28	1693.67
831.46	1789.92
831.63	1640.42
831.80	1705.96
831.97	1685.48
832.14	1646.57
832.31	1652.71
832.48	1724.39
832.65	1744.87
832.82	1708.01
832.99	1716.20
833.17	1654.76
833.34	1771.49
833.51	1742.82
833.68	1607.66
833.85	1748.97
834.02	1630.18
834.19	1617.90
834.36	1624.04
834.53	1642.47
834.70	1732.58
834.87	1691.62
835.04	1665.00
835.22	1636.33
835.39	1621.99
835.56	1628.14
835.73	1619.94
835.90	1726.44
836.07	1650.66
836.24	1699.81
836.41	1656.81
836.58	1693.67
836.75	1769.44
836.92	1677.29
837.09	1615.85
837.26	1656.81
837.43	1738.73
837.60	1662.95
837.77	1568.74
837.94	1701.86
838.12	1732.58
838.29	1740.77
838.46	1671.14
838.63	1638.38
838.80	1808.36
838.97	1697.77
839.14	1710.05
839.31	1648.61
839.48	1748.97
839.65	1605.61
839.82	1791.97
839.99	1720.29
840.16	1673.19
840.33	1640.42
840.50	1689.57
840.67	1636.33
840.84	1519.59
841.01	1679.33
841.18	1609.70
841.35	1662.95
841.52	1755.11
841.69	1845.22
841.86	1710.05
842.03	1667.05
842.20	1740.77
842.37	1683.43
842.54	1642.47
842.71	1687.53
842.88	1587.18
843.05	1701.86
843.22	1677.29
843.39	1720.29
843.56	1699.81
843.73	1699.81
843.90	1714.15
844.07	1679.33
844.24	1675.24
844.41	1734.63
844.58	1718.25
844.75	1667.05
844.92	1697.77
845.09	1701.86
845.26	1626.09
845.43	1755.11
845.60	1650.66
845.77	1746.92
845.94	1679.33
846.10	1691.62
846.27	1662.95
846.44	1646.57
846.61	1671.14
846.78	1773.54
846.95	1705.96
847.12	1746.92
847.29	1621.99
847.46	1617.90
847.63	1646.57
847.80	1646.57
847.97	1617.90
848.14	1802.21
848.31	1685.48
848.48	1658.85
848.65	1701.86
848.82	1640.42
848.98	1757.16
849.15	1718.25
849.32	1699.81
849.49	1740.77
849.66	1699.81
849.83	1695.72
850.00	1615.85
850.17	1710.05
850.34	1638.38
850.51	1697.77
850.68	1697.77
850.85	1816.55
851.01	1652.71
851.18	1726.44
851.35	1656.81
851.52	1724.39
851.69	1734.63
851.86	1603.56
852.03	1628.14
852.20	1681.38
852.37	1687.53
852.53	1621.99
852.70	1615.85
852.87	1665.00
853.04	1693.67
853.21	1724.39
853.38	1773.54
853.55	1695.72
853.72	1828.84
853.89	1716.20
854.05	1638.38
854.22	1712.10
854.39	1722.34
854.56	1710.05
854.73	1726.44
854.90	1681.38
855.07	1650.66
855.23	1687.53
855.40	1708.01
855.57	1646.57
855.74	1574.89
855.91	1818.60
856.08	1669.09
856.25	1521.64
856.41	1603.56
856.58	1640.42
856.75	1728.49
856.92	1615.85
857.09	1771.49
857.26	1589.22
857.42	1621.99
857.59	1701.86
857.76	1671.14
857.93	1638.38
858.10	1660.90
858.27	1613.80
858.43	1701.86
858.60	1658.85
858.77	1607.66
858.94	1632.23
859.11	1716.20
859.27	1695.72
859.44	1718.25
859.61	1787.88
859.78	1681.38
859.95	1695.72
860.12	1687.53
860.28	1812.45
860.45	1800.16
860.62	1675.24
860.79	1662.95
860.95	1697.77
861.12	1714.15
861.29	1691.62
861.46	1591.27
861.63	1644.52
861.79	1763.30
861.96	1695.72
862.13	1671.14
862.30	1755.11
862.47	1648.61
862.63	1703.91
862.80	1779.68
862.97	1744.87
863.14	1722.34
863.30	1693.67
863.47	1656.81
863.64	1757.16
863.81	1685.48
863.97	1697.77
864.14	1761.25
864.31	1683.43
864.48	1673.19
864.65	1667.05
864.81	1724.39
864.98	1695.72
865.15	1708.01
865.32	1755.11
865.48	1787.88
865.65	1746.92
865.82	1693.67
865.98	1738.73
866.15	1755.11
866.32	1712.10
866.49	1624.04
866.65	1759.21
866.82	1669.09
866.99	1681.38
867.16	1724.39
867.32	1648.61
867.49	1642.47
867.66	1693.67
867.83	1689.57
867.99	1566.70
868.16	1656.81
868.33	1656.81
868.49	1673.19
868.66	1665.00
868.83	1779.68
868.99	1626.09
869.16	1697.77
869.33	1783.78
869.50	1800.16
869.66	1632.23
869.83	1689.57
870.00	1636.33
870.16	1697.77
870.33	1646.57
870.50	1703.91
870.66	1689.57
870.83	1822.69
871.00	1656.81
871.17	1720.29
871.33	1732.58
871.50	1724.39
871.67	1638.38
871.83	1761.25
872.00	1808.36
872.17	1665.00
872.33	1742.82
872.50	1730.53
872.67	1609.70
872.83	1681.38
873.00	1632.23
873.17	1689.57
873.33	1714.15
873.50	1677.29
873.67	1560.55
873.83	1560.55
874.00	1683.43
874.16	1689.57
874.33	1636.33
874.50	1640.42
874.66	1779.68
874.83	1736.68
875.00	1765.35
875.16	1765.35
875.33	1734.63
875.50	1607.66
875.66	1665.00
875.83	1722.34
875.99	1628.14
876.16	1611.75
876.33	1572.84
876.49	1601.51
876.66	1695.72
876.83	1685.48
876.99	1574.89
877.16	1648.61
877.32	1638.38
877.49	1636.33
877.66	1796.07
877.82	1771.49
877.99	1679.33
878.15	1703.91
878.32	1701.86
878.49	1679.33
878.65	1669.09
878.82	1705.96
878.98	1730.53
879.15	1669.09
879.32	1748.97
879.48	1673.19
879.65	1646.57
879.81	1671.14
879.98	1640.42
880.15	1703.91
880.31	1714.15
880.48	1583.08
880.64	1753.06
880.81	1673.19
880.97	1824.74
881.14	1722.34
881.31	1597.42
881.47	1855.46
881.64	1642.47
881.80	1667.05
881.97	1683.43
882.13	1714.15
882.30	1701.86
882.47	1679.33
882.63	1626.09
882.80	1689.57
882.96	1632.23
883.13	1755.11
883.29	1591.27
883.46	1691.62
883.62	1775.59
883.79	1687.53
883.95	1609.70
884.12	1656.81
884.29	1759.21
884.45	1734.63
884.62	1722.34
884.78	1591.27
884.95	1771.49
885.11	1665.00
885.28	1738.73
885.44	1646.57
885.61	1681.38
885.77	1714.15
885.94	1726.44
886.10	1638.38
886.27	1705.96
886.43	1781.73
886.60	1757.16
886.76	1656.81
886.93	1677.29
887.09	1814.50
887.26	1621.99
887.42	1701.86
887.59	1720.29
887.75	1767.40
887.92	1804.26
888.08	1744.87
888.25	1722.34
888.41	1658.85
888.58	1669.09
888.74	1656.81
888.91	1603.56
>>>>>End Processed Spectral Data<<<<<
