SpectraSuite Data File
++++++++++++++++++++++++++++++++++++
Date: Mon Jun 06 13:33:37 CEST 2016
User: root
Dark Spectrum Present: No
Reference Spectrum Present: No
Number of Sampled Component Spectra: 1
Spectrometers: USB4C02835
Integration Time (usec): 100000 (USB4C02835)
Spectra Averaged: 1 (USB4C02835)
Boxcar Smoothing: 0 (USB4C02835)
Correct for Electrical Dark: No (USB4C02835)
Strobe/Lamp Enabled: No (USB4C02835)
Correct for Detector Non-linearity: No (USB4C02835)
Correct for Stray Light: No (USB4C02835)
Number of Pixels in Processed Spectrum: 3648
>>>>>Begin Processed Spectral Data<<<<<
177.47	1470.44
177.69	1470.44
177.91	1470.44
178.13	1439.72
178.36	1476.59
178.58	1624.04
178.80	1710.05
179.02	1552.36
179.24	1650.66
179.46	1638.38
179.68	1765.35
179.90	1693.67
180.13	1658.85
180.35	1730.53
180.57	1675.24
180.79	1769.44
181.01	1683.43
181.23	1779.68
181.45	1736.68
181.67	1753.06
181.90	1734.63
182.12	1724.39
182.34	1583.08
182.56	1787.88
182.78	1701.86
183.00	1683.43
183.22	1710.05
183.44	1613.80
183.66	1773.54
183.89	1722.34
184.11	1800.16
184.33	1767.40
184.55	1822.69
184.77	1697.77
184.99	1726.44
185.21	1658.85
185.43	1828.84
185.65	1646.57
185.87	1726.44
186.10	1779.68
186.32	1834.98
186.54	1802.21
186.76	1705.96
186.98	1765.35
187.20	1658.85
187.42	1685.48
187.64	1722.34
187.86	1701.86
188.08	1665.00
188.30	1677.29
188.52	1691.62
188.75	1738.73
188.97	1691.62
189.19	1689.57
189.41	1699.81
189.63	1660.90
189.85	1634.28
190.07	1572.84
190.29	1619.94
190.51	1705.96
190.73	1650.66
190.95	1783.78
191.17	1724.39
191.39	1626.09
191.61	1648.61
191.84	1705.96
192.06	1714.15
192.28	1624.04
192.50	1832.93
192.72	1814.50
192.94	1724.39
193.16	1691.62
193.38	1755.11
193.60	1687.53
193.82	1685.48
194.04	1806.31
194.26	1697.77
194.48	1626.09
194.70	1644.52
194.92	1705.96
195.14	1691.62
195.36	1632.23
195.58	1755.11
195.80	1716.20
196.02	1638.38
196.24	1718.25
196.46	1748.97
196.69	1673.19
196.91	1802.21
197.13	1669.09
197.35	1621.99
197.57	1814.50
197.79	1726.44
198.01	1679.33
198.23	1650.66
198.45	1701.86
198.67	1665.00
198.89	1699.81
199.11	1724.39
199.33	1730.53
199.55	1527.78
199.77	1667.05
199.99	1720.29
200.21	1585.13
200.43	1708.01
200.65	1605.61
200.87	1611.75
201.09	1722.34
201.31	1691.62
201.53	1814.50
201.75	1714.15
201.97	1722.34
202.19	1701.86
202.41	1687.53
202.63	1798.12
202.85	1640.42
203.07	1718.25
203.29	1724.39
203.51	1656.81
203.73	1611.75
203.95	1951.71
204.17	1636.33
204.39	1685.48
204.61	1708.01
204.83	1611.75
205.05	1775.59
205.27	1796.07
205.49	1730.53
205.71	1722.34
205.93	1652.71
206.15	1683.43
206.37	1718.25
206.59	1724.39
206.81	1656.81
207.03	1683.43
207.25	1677.29
207.47	1646.57
207.69	1683.43
207.91	1791.97
208.13	1818.60
208.34	1624.04
208.56	1617.90
208.78	1753.06
209.00	1611.75
209.22	1613.80
209.44	1695.72
209.66	1691.62
209.88	1697.77
210.10	1624.04
210.32	1767.40
210.54	1810.40
210.76	1722.34
210.98	1802.21
211.20	1640.42
211.42	1701.86
211.64	1779.68
211.86	1667.05
212.08	1703.91
212.30	1695.72
212.52	1744.87
212.74	1716.20
212.96	1701.86
213.17	1716.20
213.39	1767.40
213.61	1710.05
213.83	1656.81
214.05	1638.38
214.27	1771.49
214.49	1667.05
214.71	1689.57
214.93	1828.84
215.15	1742.82
215.37	1681.38
215.59	1669.09
215.81	1757.16
216.03	1816.55
216.24	1740.77
216.46	1701.86
216.68	1638.38
216.90	1712.10
217.12	1773.54
217.34	1683.43
217.56	1765.35
217.78	1730.53
218.00	1632.23
218.22	1716.20
218.44	1755.11
218.66	1769.44
218.87	1804.26
219.09	1683.43
219.31	1703.91
219.53	1697.77
219.75	1685.48
219.97	1705.96
220.19	1710.05
220.41	1640.42
220.63	1769.44
220.85	1613.80
221.06	1701.86
221.28	1800.16
221.50	1722.34
221.72	1693.67
221.94	1710.05
222.16	1701.86
222.38	1714.15
222.60	1728.49
222.82	1718.25
223.03	1761.25
223.25	1667.05
223.47	1693.67
223.69	1822.69
223.91	1693.67
224.13	1753.06
224.35	1660.90
224.57	1720.29
224.78	1734.63
225.00	1669.09
225.22	1671.14
225.44	1662.95
225.66	1748.97
225.88	1667.05
226.10	1736.68
226.32	1769.44
226.53	1730.53
226.75	1648.61
226.97	1718.25
227.19	1708.01
227.41	1570.79
227.63	1613.80
227.85	1683.43
228.06	1642.47
228.28	1687.53
228.50	1777.64
228.72	1644.52
228.94	1662.95
229.16	1636.33
229.37	1677.29
229.59	1644.52
229.81	1787.88
230.03	1652.71
230.25	1697.77
230.47	1644.52
230.69	1595.37
230.90	1734.63
231.12	1673.19
231.34	1763.30
231.56	1718.25
231.78	1675.24
232.00	1697.77
232.21	1742.82
232.43	1726.44
232.65	1583.08
232.87	1781.73
233.09	1714.15
233.30	1636.33
233.52	1724.39
233.74	1665.00
233.96	1753.06
234.18	1705.96
234.40	1685.48
234.61	1808.36
234.83	1640.42
235.05	1599.46
235.27	1746.92
235.49	1753.06
235.70	1636.33
235.92	1751.01
236.14	1624.04
236.36	1861.60
236.58	1689.57
236.79	1751.01
237.01	1726.44
237.23	1665.00
237.45	1785.83
237.67	1611.75
237.88	1722.34
238.10	1699.81
238.32	1691.62
238.54	1710.05
238.76	1667.05
238.97	1714.15
239.19	1683.43
239.41	1738.73
239.63	1767.40
239.85	1611.75
240.06	1722.34
240.28	1722.34
240.50	1830.88
240.72	1718.25
240.93	1703.91
241.15	1812.45
241.37	1712.10
241.59	1746.92
241.81	1703.91
242.02	1683.43
242.24	1701.86
242.46	1798.12
242.68	1671.14
242.89	1705.96
243.11	1738.73
243.33	1673.19
243.55	1636.33
243.76	1710.05
243.98	1638.38
244.20	1695.72
244.42	1763.30
244.64	1701.86
244.85	1634.28
245.07	1726.44
245.29	1722.34
245.51	1644.52
245.72	1669.09
245.94	1742.82
246.16	1699.81
246.38	1654.76
246.59	1613.80
246.81	1642.47
247.03	1667.05
247.24	1562.60
247.46	1634.28
247.68	1730.53
247.90	1658.85
248.11	1587.18
248.33	1675.24
248.55	1673.19
248.77	1642.47
248.98	1730.53
249.20	1820.64
249.42	1650.66
249.64	1675.24
249.85	1595.37
250.07	1652.71
250.29	1742.82
250.50	1730.53
250.72	1626.09
250.94	1718.25
251.16	1794.02
251.37	1738.73
251.59	1669.09
251.81	1738.73
252.02	1771.49
252.24	1730.53
252.46	1755.11
252.68	1621.99
252.89	1642.47
253.11	1599.46
253.33	1857.51
253.54	1755.11
253.76	1566.70
253.98	1705.96
254.20	1693.67
254.41	1677.29
254.63	1658.85
254.85	1646.57
255.06	1705.96
255.28	1714.15
255.50	1662.95
255.71	1660.90
255.93	1609.70
256.15	1683.43
256.36	1746.92
256.58	1748.97
256.80	1697.77
257.02	1654.76
257.23	1683.43
257.45	1656.81
257.67	1712.10
257.88	1683.43
258.10	1714.15
258.32	1728.49
258.53	1730.53
258.75	1773.54
258.97	1687.53
259.18	1695.72
259.40	1779.68
259.62	1771.49
259.83	1751.01
260.05	1716.20
260.27	1951.71
260.48	1710.05
260.70	1628.14
260.92	1748.97
261.13	1708.01
261.35	1726.44
261.57	1751.01
261.78	1658.85
262.00	1689.57
262.22	1771.49
262.43	1624.04
262.65	1685.48
262.86	1689.57
263.08	1755.11
263.30	1718.25
263.51	1599.46
263.73	1673.19
263.95	1722.34
264.16	1642.47
264.38	1652.71
264.60	1757.16
264.81	1669.09
265.03	1667.05
265.25	1667.05
265.46	1665.00
265.68	1767.40
265.89	1642.47
266.11	1632.23
266.33	1798.12
266.54	1812.45
266.76	1804.26
266.98	1689.57
267.19	1705.96
267.41	1755.11
267.62	1640.42
267.84	1624.04
268.06	1685.48
268.27	1724.39
268.49	1691.62
268.70	1748.97
268.92	1708.01
269.14	1642.47
269.35	1708.01
269.57	1728.49
269.79	1718.25
270.00	1687.53
270.22	1714.15
270.43	1673.19
270.65	1599.46
270.87	1662.95
271.08	1675.24
271.30	1773.54
271.51	1728.49
271.73	1708.01
271.95	1699.81
272.16	1685.48
272.38	1710.05
272.59	1583.08
272.81	1730.53
273.02	1656.81
273.24	1767.40
273.46	1748.97
273.67	1585.13
273.89	1658.85
274.10	1665.00
274.32	1769.44
274.54	1685.48
274.75	1757.16
274.97	1628.14
275.18	1759.21
275.40	1748.97
275.61	1677.29
275.83	1673.19
276.05	1607.66
276.26	1701.86
276.48	1738.73
276.69	1654.76
276.91	1693.67
277.12	1722.34
277.34	1783.78
277.55	1697.77
277.77	1689.57
277.99	1636.33
278.20	1613.80
278.42	1634.28
278.63	1667.05
278.85	1667.05
279.06	1648.61
279.28	1753.06
279.49	1691.62
279.71	1724.39
279.93	1742.82
280.14	1656.81
280.36	1701.86
280.57	1759.21
280.79	1734.63
281.00	1699.81
281.22	1710.05
281.43	1708.01
281.65	1542.12
281.86	1611.75
282.08	1740.77
282.29	1763.30
282.51	1595.37
282.73	1656.81
282.94	1589.22
283.16	1685.48
283.37	1779.68
283.59	1636.33
283.80	1648.61
284.02	1626.09
284.23	1771.49
284.45	1703.91
284.66	1665.00
284.88	1607.66
285.09	1730.53
285.31	1722.34
285.52	1669.09
285.74	1677.29
285.95	1789.92
286.17	1683.43
286.38	1691.62
286.60	1644.52
286.81	1605.61
287.03	1632.23
287.24	1677.29
287.46	1730.53
287.67	1716.20
287.89	1759.21
288.10	1658.85
288.32	1693.67
288.53	1779.68
288.75	1736.68
288.96	1724.39
289.18	1638.38
289.39	1732.58
289.61	1730.53
289.82	1800.16
290.04	1832.93
290.25	1611.75
290.47	1687.53
290.68	1667.05
290.90	1765.35
291.11	1574.89
291.33	1736.68
291.54	1699.81
291.76	1652.71
291.97	1576.94
292.18	1685.48
292.40	1667.05
292.61	1632.23
292.83	1796.07
293.04	1746.92
293.26	1630.18
293.47	1705.96
293.69	1677.29
293.90	1667.05
294.12	1681.38
294.33	1626.09
294.55	1712.10
294.76	1665.00
294.97	1722.34
295.19	1775.59
295.40	1662.95
295.62	1708.01
295.83	1722.34
296.05	1716.20
296.26	1695.72
296.48	1624.04
296.69	1658.85
296.90	1669.09
297.12	1714.15
297.33	1779.68
297.55	1697.77
297.76	1738.73
297.98	1783.78
298.19	1681.38
298.41	1724.39
298.62	1679.33
298.83	1804.26
299.05	1701.86
299.26	1658.85
299.48	1736.68
299.69	1791.97
299.90	1681.38
300.12	1685.48
300.33	1798.12
300.55	1734.63
300.76	1806.31
300.98	1697.77
301.19	1646.57
301.40	1705.96
301.62	1642.47
301.83	1720.29
302.05	1716.20
302.26	1642.47
302.47	1705.96
302.69	1632.23
302.90	1673.19
303.12	1570.79
303.33	1652.71
303.54	1859.56
303.76	1667.05
303.97	1751.01
304.19	1650.66
304.40	1585.13
304.61	1728.49
304.83	1798.12
305.04	1834.98
305.26	1687.53
305.47	1642.47
305.68	1781.73
305.90	1626.09
306.11	1763.30
306.33	1617.90
306.54	1652.71
306.75	1685.48
306.97	1624.04
307.18	1576.94
307.39	1689.57
307.61	1757.16
307.82	1708.01
308.04	1632.23
308.25	1658.85
308.46	1744.87
308.68	1802.21
308.89	1732.58
309.10	1695.72
309.32	1716.20
309.53	1761.25
309.74	1697.77
309.96	1689.57
310.17	1738.73
310.39	1683.43
310.60	1791.97
310.81	1759.21
311.03	1574.89
311.24	1695.72
311.45	1798.12
311.67	1777.64
311.88	1689.57
312.09	1712.10
312.31	1656.81
312.52	1732.58
312.73	1677.29
312.95	1632.23
313.16	1624.04
313.37	1734.63
313.59	1789.92
313.80	1710.05
314.01	1798.12
314.23	1628.14
314.44	1615.85
314.65	1669.09
314.87	1621.99
315.08	1650.66
315.29	1695.72
315.51	1646.57
315.72	1552.36
315.93	1800.16
316.15	1753.06
316.36	1681.38
316.57	1751.01
316.79	1697.77
317.00	1628.14
317.21	1673.19
317.43	1626.09
317.64	1679.33
317.85	1658.85
318.07	1681.38
318.28	1708.01
318.49	1834.98
318.70	1972.19
318.92	1791.97
319.13	1804.26
319.34	1855.46
319.56	1740.77
319.77	1763.30
319.98	1794.02
320.20	1681.38
320.41	1722.34
320.62	1796.07
320.83	1619.94
321.05	1853.41
321.26	1624.04
321.47	1648.61
321.69	1763.30
321.90	1654.76
322.11	1654.76
322.32	1736.68
322.54	1708.01
322.75	1634.28
322.96	1845.22
323.18	1605.61
323.39	1617.90
323.60	1689.57
323.81	1783.78
324.03	1693.67
324.24	1712.10
324.45	1656.81
324.66	1671.14
324.88	1755.11
325.09	1818.60
325.30	1705.96
325.52	1748.97
325.73	1691.62
325.94	1558.50
326.15	1576.94
326.37	1597.42
326.58	1712.10
326.79	1843.17
327.00	1669.09
327.22	1734.63
327.43	1691.62
327.64	1632.23
327.85	1660.90
328.07	1763.30
328.28	1851.36
328.49	1722.34
328.70	1726.44
328.92	1734.63
329.13	1642.47
329.34	1787.88
329.55	1802.21
329.76	1691.62
329.98	1662.95
330.19	1748.97
330.40	1708.01
330.61	1689.57
330.83	1689.57
331.04	1636.33
331.25	1683.43
331.46	1714.15
331.68	1628.14
331.89	1742.82
332.10	1697.77
332.31	1656.81
332.52	1718.25
332.74	1726.44
332.95	1671.14
333.16	1681.38
333.37	1771.49
333.58	1656.81
333.80	1654.76
334.01	1634.28
334.22	1671.14
334.43	1642.47
334.64	1691.62
334.86	1589.22
335.07	1693.67
335.28	1695.72
335.49	1650.66
335.70	1662.95
335.92	1697.77
336.13	1818.60
336.34	1740.77
336.55	1746.92
336.76	1669.09
336.98	1595.37
337.19	1638.38
337.40	1757.16
337.61	1744.87
337.82	1701.86
338.04	1716.20
338.25	1638.38
338.46	1675.24
338.67	1660.90
338.88	1611.75
339.09	1619.94
339.31	1667.05
339.52	1617.90
339.73	1578.98
339.94	1648.61
340.15	1738.73
340.36	1652.71
340.58	1710.05
340.79	1619.94
341.00	1744.87
341.21	1679.33
341.42	1748.97
341.63	1652.71
341.85	1757.16
342.06	1728.49
342.27	1660.90
342.48	1810.40
342.69	1595.37
342.90	1673.19
343.12	1773.54
343.33	1695.72
343.54	1777.64
343.75	1757.16
343.96	1685.48
344.17	1679.33
344.38	1685.48
344.60	1630.18
344.81	1640.42
345.02	1740.77
345.23	1738.73
345.44	1761.25
345.65	1744.87
345.86	1785.83
346.07	1746.92
346.29	1642.47
346.50	1691.62
346.71	1701.86
346.92	1841.12
347.13	1730.53
347.34	1683.43
347.55	1716.20
347.76	1705.96
347.98	1617.90
348.19	1685.48
348.40	1730.53
348.61	1617.90
348.82	1798.12
349.03	1726.44
349.24	1724.39
349.45	1814.50
349.66	1636.33
349.88	1748.97
350.09	1685.48
350.30	1767.40
350.51	1812.45
350.72	1740.77
350.93	1757.16
351.14	1732.58
351.35	1732.58
351.56	1646.57
351.77	1685.48
351.99	1693.67
352.20	1753.06
352.41	1734.63
352.62	1546.22
352.83	1746.92
353.04	1742.82
353.25	1652.71
353.46	1812.45
353.67	1759.21
353.88	1570.79
354.09	1720.29
354.30	1640.42
354.52	1691.62
354.73	1685.48
354.94	1662.95
355.15	1720.29
355.36	1855.46
355.57	1644.52
355.78	1767.40
355.99	1609.70
356.20	1646.57
356.41	1726.44
356.62	1650.66
356.83	1751.01
357.04	1705.96
357.25	1589.22
357.46	1742.82
357.68	1652.71
357.89	1615.85
358.10	1681.38
358.31	1673.19
358.52	1722.34
358.73	1615.85
358.94	1695.72
359.15	1677.29
359.36	1779.68
359.57	1748.97
359.78	1650.66
359.99	1740.77
360.20	1685.48
360.41	1699.81
360.62	1701.86
360.83	1656.81
361.04	1718.25
361.25	1669.09
361.46	1800.16
361.67	1763.30
361.88	1656.81
362.09	1808.36
362.30	1759.21
362.51	1654.76
362.72	1705.96
362.93	1783.78
363.14	1742.82
363.35	1783.78
363.56	1662.95
363.78	1787.88
363.99	1787.88
364.20	1648.61
364.41	1746.92
364.62	1779.68
364.83	1773.54
365.04	1648.61
365.25	1744.87
365.46	1773.54
365.67	1591.27
365.88	1636.33
366.09	1722.34
366.30	1705.96
366.51	1746.92
366.72	1665.00
366.93	1638.38
367.14	1691.62
367.35	1726.44
367.56	1703.91
367.77	1871.84
367.98	1665.00
368.18	1730.53
368.39	1757.16
368.60	1630.18
368.81	1734.63
369.02	1718.25
369.23	1665.00
369.44	1648.61
369.65	1681.38
369.86	1726.44
370.07	1785.83
370.28	1632.23
370.49	1775.59
370.70	1740.77
370.91	1601.51
371.12	1558.50
371.33	1712.10
371.54	1716.20
371.75	1693.67
371.96	1597.42
372.17	1712.10
372.38	1755.11
372.59	1693.67
372.80	1703.91
373.01	1642.47
373.22	1804.26
373.43	1697.77
373.64	1667.05
373.85	1736.68
374.06	1834.98
374.26	1785.83
374.47	1710.05
374.68	1769.44
374.89	1648.61
375.10	1730.53
375.31	1740.77
375.52	1630.18
375.73	1718.25
375.94	1685.48
376.15	1761.25
376.36	1669.09
376.57	1738.73
376.78	1728.49
376.99	1757.16
377.20	1759.21
377.40	1652.71
377.61	1771.49
377.82	1656.81
378.03	1703.91
378.24	1712.10
378.45	1667.05
378.66	1738.73
378.87	1630.18
379.08	1617.90
379.29	1712.10
379.50	1755.11
379.71	1724.39
379.91	1722.34
380.12	1675.24
380.33	1757.16
380.54	1634.28
380.75	1708.01
380.96	1755.11
381.17	1806.31
381.38	1759.21
381.59	1689.57
381.80	1714.15
382.00	1802.21
382.21	1765.35
382.42	1812.45
382.63	1834.98
382.84	1785.83
383.05	1751.01
383.26	1808.36
383.47	1796.07
383.68	1714.15
383.88	1761.25
384.09	1787.88
384.30	1841.12
384.51	1728.49
384.72	1669.09
384.93	1630.18
385.14	1685.48
385.35	1699.81
385.55	1650.66
385.76	1730.53
385.97	1732.58
386.18	1621.99
386.39	1681.38
386.60	1722.34
386.81	1673.19
387.02	1628.14
387.22	1708.01
387.43	1742.82
387.64	1798.12
387.85	1855.46
388.06	2199.52
388.27	4292.54
388.48	6856.60
388.68	8130.44
388.89	9664.36
389.10	9881.45
389.31	8421.25
389.52	7450.51
389.73	6807.45
389.93	6158.24
390.14	5851.05
390.35	5222.32
390.56	4460.48
390.77	3758.02
390.98	3020.75
391.18	2596.82
391.39	2088.93
391.60	1826.79
391.81	1806.31
392.02	1722.34
392.23	1882.08
392.43	1701.86
392.64	1798.12
392.85	1759.21
393.06	1771.49
393.27	1718.25
393.47	1638.38
393.68	1724.39
393.89	1693.67
394.10	1779.68
394.31	1621.99
394.52	1560.55
394.72	1640.42
394.93	1796.07
395.14	1656.81
395.35	1771.49
395.56	1730.53
395.76	1769.44
395.97	1845.22
396.18	1853.41
396.39	1865.70
396.60	2019.30
396.80	1822.69
397.01	1861.60
397.22	1787.88
397.43	1759.21
397.64	1714.15
397.84	1742.82
398.05	1865.70
398.26	1720.29
398.47	1759.21
398.67	1773.54
398.88	1718.25
399.09	1755.11
399.30	1681.38
399.51	1751.01
399.71	1585.13
399.92	1683.43
400.13	1671.14
400.34	1701.86
400.54	1687.53
400.75	1748.97
400.96	1644.52
401.17	1673.19
401.37	1662.95
401.58	1730.53
401.79	1728.49
402.00	1855.46
402.21	1980.39
402.41	1898.47
402.62	1929.19
402.83	1986.53
403.04	1959.91
403.24	2156.51
403.45	1882.08
403.66	1818.60
403.87	1869.80
404.07	1859.56
404.28	1880.04
404.49	1900.52
404.70	1732.58
404.90	1755.11
405.11	1773.54
405.32	1658.85
405.52	1734.63
405.73	1619.94
405.94	1630.18
406.15	1708.01
406.35	1708.01
406.56	1724.39
406.77	1753.06
406.98	1738.73
407.18	1591.27
407.39	1695.72
407.60	1654.76
407.80	1716.20
408.01	1742.82
408.22	1765.35
408.43	1665.00
408.63	1689.57
408.84	1804.26
409.05	1720.29
409.25	1693.67
409.46	1624.04
409.67	1722.34
409.88	1687.53
410.08	1708.01
410.29	1689.57
410.50	1789.92
410.70	1701.86
410.91	1751.01
411.12	1697.77
411.32	1701.86
411.53	1716.20
411.74	1751.01
411.95	1820.64
412.15	1730.53
412.36	1759.21
412.57	1771.49
412.77	1834.98
412.98	1775.59
413.19	1703.91
413.39	1673.19
413.60	1693.67
413.81	1814.50
414.01	1656.81
414.22	1716.20
414.43	1722.34
414.63	1632.23
414.84	1726.44
415.05	1800.16
415.25	1642.47
415.46	1744.87
415.67	1681.38
415.87	1718.25
416.08	1636.33
416.29	1656.81
416.49	1732.58
416.70	1683.43
416.91	1689.57
417.11	1656.81
417.32	1730.53
417.53	1769.44
417.73	1697.77
417.94	1740.77
418.15	1667.05
418.35	1730.53
418.56	1697.77
418.77	1818.60
418.97	1697.77
419.18	1751.01
419.38	1642.47
419.59	1687.53
419.80	1771.49
420.00	1652.71
420.21	1699.81
420.42	1730.53
420.62	1787.88
420.83	1581.03
421.04	1671.14
421.24	1619.94
421.45	1724.39
421.65	1826.79
421.86	1738.73
422.07	1824.74
422.27	1722.34
422.48	1689.57
422.69	1669.09
422.89	1679.33
423.10	1710.05
423.30	1667.05
423.51	1642.47
423.72	1767.40
423.92	1732.58
424.13	1662.95
424.33	1665.00
424.54	1734.63
424.75	1730.53
424.95	1753.06
425.16	1771.49
425.36	1642.47
425.57	1718.25
425.78	1802.21
425.98	1665.00
426.19	1708.01
426.39	1673.19
426.60	1667.05
426.81	1757.16
427.01	1728.49
427.22	1601.51
427.42	1640.42
427.63	1656.81
427.83	1714.15
428.04	1773.54
428.25	1808.36
428.45	1800.16
428.66	1771.49
428.86	1716.20
429.07	1669.09
429.28	1716.20
429.48	1748.97
429.69	1669.09
429.89	1648.61
430.10	1656.81
430.30	1804.26
430.51	1771.49
430.71	1658.85
430.92	1724.39
431.13	1640.42
431.33	1769.44
431.54	1660.90
431.74	1802.21
431.95	1791.97
432.15	1609.70
432.36	1718.25
432.56	1615.85
432.77	1771.49
432.98	1775.59
433.18	1751.01
433.39	1728.49
433.59	1632.23
433.80	1806.31
434.00	1755.11
434.21	1746.92
434.41	1660.90
434.62	1830.88
434.82	1662.95
435.03	1667.05
435.23	1775.59
435.44	1656.81
435.64	1738.73
435.85	1718.25
436.06	1763.30
436.26	1738.73
436.47	1767.40
436.67	1568.74
436.88	1796.07
437.08	1722.34
437.29	1744.87
437.49	1746.92
437.70	1712.10
437.90	1646.57
438.11	1789.92
438.31	1814.50
438.52	1875.94
438.72	1851.36
438.93	1941.47
439.13	1720.29
439.34	1869.80
439.54	1740.77
439.75	1767.40
439.95	1806.31
440.16	1656.81
440.36	1746.92
440.57	1746.92
440.77	1773.54
440.98	1742.82
441.18	1738.73
441.39	1640.42
441.59	1673.19
441.80	1869.80
442.00	1730.53
442.21	1855.46
442.41	1613.80
442.62	1755.11
442.82	1648.61
443.02	1798.12
443.23	1718.25
443.43	1660.90
443.64	1828.84
443.84	1730.53
444.05	1755.11
444.25	1726.44
444.46	1787.88
444.66	1710.05
444.87	1798.12
445.07	1648.61
445.28	1748.97
445.48	1781.73
445.69	1783.78
445.89	1920.99
446.09	1787.88
446.30	1992.67
446.50	2631.64
446.71	3610.57
446.91	4315.07
447.12	4708.28
447.32	4820.92
447.53	4339.65
447.73	3905.48
447.93	3383.24
448.14	3282.89
448.34	3235.79
448.55	2895.83
448.75	2838.48
448.96	2648.02
449.16	2379.74
449.36	2338.78
449.57	1984.48
449.77	1906.66
449.98	1744.87
450.18	1839.08
450.39	1800.16
450.59	1771.49
450.79	1753.06
451.00	1742.82
451.20	1736.68
451.41	1658.85
451.61	1722.34
451.81	1718.25
452.02	1660.90
452.22	1691.62
452.43	1646.57
452.63	1769.44
452.84	1794.02
453.04	1716.20
453.24	1710.05
453.45	1714.15
453.65	1703.91
453.86	1703.91
454.06	1779.68
454.26	1789.92
454.47	1665.00
454.67	1869.80
454.87	1765.35
455.08	1677.29
455.28	1830.88
455.49	1722.34
455.69	1693.67
455.89	1884.13
456.10	1759.21
456.30	1710.05
456.51	1679.33
456.71	1726.44
456.91	1769.44
457.12	1787.88
457.32	1681.38
457.52	1619.94
457.73	1767.40
457.93	1804.26
458.14	1726.44
458.34	1634.28
458.54	1708.01
458.75	1646.57
458.95	1767.40
459.15	1744.87
459.36	1734.63
459.56	1800.16
459.76	1877.99
459.97	1744.87
460.17	1685.48
460.37	1757.16
460.58	1699.81
460.78	1777.64
460.99	1669.09
461.19	1722.34
461.39	1734.63
461.60	1724.39
461.80	1847.27
462.00	1677.29
462.21	1742.82
462.41	1703.91
462.61	1626.09
462.82	1669.09
463.02	1779.68
463.22	1677.29
463.43	1761.25
463.63	1748.97
463.83	1791.97
464.04	1720.29
464.24	1781.73
464.44	1722.34
464.64	1777.64
464.85	1781.73
465.05	1765.35
465.25	1703.91
465.46	1728.49
465.66	1677.29
465.86	1757.16
466.07	1740.77
466.27	1656.81
466.47	1595.37
466.68	1615.85
466.88	1728.49
467.08	1716.20
467.29	1767.40
467.49	1679.33
467.69	1689.57
467.89	1726.44
468.10	1746.92
468.30	1722.34
468.50	1841.12
468.71	1736.68
468.91	1652.71
469.11	1791.97
469.31	1675.24
469.52	1615.85
469.72	1808.36
469.92	1855.46
470.13	1689.57
470.33	1710.05
470.53	1763.30
470.73	2076.64
470.94	2277.34
471.14	2357.21
471.34	2525.15
471.54	2435.03
471.75	2258.91
471.95	2131.94
472.15	2013.15
472.36	2136.03
472.56	2183.13
472.76	2037.73
472.96	1949.67
473.17	1972.19
473.37	1925.09
473.57	1802.21
473.77	1816.55
473.98	1763.30
474.18	1642.47
474.38	1859.56
474.58	1746.92
474.79	1626.09
474.99	1728.49
475.19	1746.92
475.39	1667.05
475.60	1697.77
475.80	1787.88
476.00	1716.20
476.20	1681.38
476.41	1687.53
476.61	1796.07
476.81	1769.44
477.01	1636.33
477.21	1812.45
477.42	1738.73
477.62	1628.14
477.82	1777.64
478.02	1710.05
478.23	1781.73
478.43	1632.23
478.63	1697.77
478.83	1693.67
479.03	1712.10
479.24	1746.92
479.44	1787.88
479.64	1654.76
479.84	1517.54
480.04	1619.94
480.25	1697.77
480.45	1734.63
480.65	1718.25
480.85	1845.22
481.06	1701.86
481.26	1673.19
481.46	1714.15
481.66	1740.77
481.86	1677.29
482.06	1791.97
482.27	1667.05
482.47	1691.62
482.67	1738.73
482.87	1689.57
483.07	1753.06
483.28	1726.44
483.48	1767.40
483.68	1712.10
483.88	1708.01
484.08	1626.09
484.29	1640.42
484.49	1685.48
484.69	1640.42
484.89	1775.59
485.09	1812.45
485.29	1810.40
485.50	1724.39
485.70	1648.61
485.90	1783.78
486.10	1722.34
486.30	1773.54
486.50	1818.60
486.71	1742.82
486.91	1789.92
487.11	1800.16
487.31	1615.85
487.51	1738.73
487.71	1650.66
487.91	1628.14
488.12	1697.77
488.32	1548.26
488.52	1665.00
488.72	1638.38
488.92	1728.49
489.12	1714.15
489.32	1787.88
489.53	1718.25
489.73	1697.77
489.93	1818.60
490.13	1646.57
490.33	1693.67
490.53	1748.97
490.73	1710.05
490.94	1615.85
491.14	1751.01
491.34	1834.98
491.54	2068.45
491.74	2592.73
491.94	3016.66
492.14	3037.14
492.34	2873.30
492.54	2756.57
492.75	2422.75
492.95	2508.76
493.15	2340.83
493.35	2271.20
493.55	2314.20
493.75	2164.70
493.95	2082.78
494.15	1964.00
494.35	1847.27
494.56	1824.74
494.76	1736.68
494.96	1837.03
495.16	1765.35
495.36	1734.63
495.56	1654.76
495.76	1691.62
495.96	1654.76
496.16	1628.14
496.36	1818.60
496.56	1691.62
496.77	1779.68
496.97	1701.86
497.17	1830.88
497.37	1656.81
497.57	1806.31
497.77	1705.96
497.97	1681.38
498.17	1701.86
498.37	1699.81
498.57	1734.63
498.77	1675.24
498.97	1785.83
499.17	1865.70
499.38	1812.45
499.58	1753.06
499.78	1751.01
499.98	1751.01
500.18	1773.54
500.38	1683.43
500.58	1931.23
500.78	2555.86
500.98	4353.98
501.18	5863.33
501.38	6731.67
501.58	7194.51
501.78	6592.41
501.98	5466.03
502.18	4872.12
502.38	4386.75
502.58	4126.66
502.78	3751.88
502.98	3667.91
503.18	3508.17
503.38	3205.07
503.59	2748.37
503.79	2697.17
503.99	2527.19
504.19	2285.53
504.39	2160.61
504.59	2166.75
504.79	1984.48
504.99	2013.15
505.19	1853.41
505.39	1912.80
505.59	1949.67
505.79	1955.81
505.99	1814.50
506.19	1812.45
506.39	1845.22
506.59	1800.16
506.79	1716.20
506.99	1785.83
507.19	1746.92
507.39	1759.21
507.59	1648.61
507.79	1691.62
507.99	1705.96
508.19	1738.73
508.39	1753.06
508.59	1662.95
508.79	1791.97
508.99	1910.75
509.19	1734.63
509.39	1742.82
509.59	1667.05
509.79	1751.01
509.99	1748.97
510.19	1787.88
510.39	1771.49
510.59	1726.44
510.79	1658.85
510.99	1597.42
511.19	1755.11
511.39	1791.97
511.59	1804.26
511.79	1816.55
511.99	1701.86
512.19	1812.45
512.38	1724.39
512.58	1746.92
512.78	1689.57
512.98	1800.16
513.18	1839.08
513.38	1652.71
513.58	1744.87
513.78	1697.77
513.98	1763.30
514.18	1703.91
514.38	1667.05
514.58	1724.39
514.78	1738.73
514.98	1685.48
515.18	1687.53
515.38	1660.90
515.58	1875.94
515.78	1775.59
515.98	1710.05
516.18	1691.62
516.38	1699.81
516.57	1638.38
516.77	1689.57
516.97	1685.48
517.17	1617.90
517.37	1607.66
517.57	1763.30
517.77	1767.40
517.97	1705.96
518.17	1716.20
518.37	1716.20
518.57	1597.42
518.77	1767.40
518.97	1757.16
519.16	1710.05
519.36	1748.97
519.56	1679.33
519.76	1701.86
519.96	1714.15
520.16	1865.70
520.36	1718.25
520.56	1705.96
520.76	1697.77
520.96	1695.72
521.16	1812.45
521.35	1765.35
521.55	1777.64
521.75	1648.61
521.95	1687.53
522.15	1642.47
522.35	1632.23
522.55	1617.90
522.75	1769.44
522.95	1710.05
523.14	1656.81
523.34	1720.29
523.54	1734.63
523.74	1791.97
523.94	1720.29
524.14	1644.52
524.34	1740.77
524.54	1828.84
524.73	1761.25
524.93	1777.64
525.13	1824.74
525.33	1578.98
525.53	1935.33
525.73	1773.54
525.93	1671.14
526.13	1685.48
526.32	1662.95
526.52	1830.88
526.72	1757.16
526.92	1677.29
527.12	1742.82
527.32	1621.99
527.52	1689.57
527.71	1734.63
527.91	1714.15
528.11	1734.63
528.31	1802.21
528.51	1695.72
528.71	1769.44
528.90	1767.40
529.10	1742.82
529.30	1804.26
529.50	1566.70
529.70	1671.14
529.90	1683.43
530.09	1714.15
530.29	1671.14
530.49	1716.20
530.69	1888.23
530.89	1783.78
531.09	1791.97
531.28	1685.48
531.48	1857.51
531.68	1822.69
531.88	1710.05
532.08	1800.16
532.28	1705.96
532.47	1800.16
532.67	1771.49
532.87	1751.01
533.07	1638.38
533.27	1708.01
533.46	1708.01
533.66	1775.59
533.86	1689.57
534.06	1742.82
534.26	1669.09
534.45	1732.58
534.65	1767.40
534.85	1693.67
535.05	1738.73
535.25	1779.68
535.44	1689.57
535.64	1759.21
535.84	1712.10
536.04	1695.72
536.24	1628.14
536.43	1740.77
536.63	1738.73
536.83	1734.63
537.03	1679.33
537.22	1624.04
537.42	1652.71
537.62	1769.44
537.82	1701.86
538.02	1865.70
538.21	1867.75
538.41	1904.61
538.61	1787.88
538.81	1777.64
539.00	1765.35
539.20	1585.13
539.40	1726.44
539.60	1796.07
539.79	1736.68
539.99	1742.82
540.19	1697.77
540.39	1693.67
540.58	1714.15
540.78	1863.65
540.98	1730.53
541.18	1718.25
541.37	1822.69
541.57	1730.53
541.77	1779.68
541.97	1656.81
542.16	1656.81
542.36	1720.29
542.56	1791.97
542.76	1847.27
542.95	1798.12
543.15	1691.62
543.35	1710.05
543.54	1683.43
543.74	1724.39
543.94	1777.64
544.14	1677.29
544.33	1720.29
544.53	1748.97
544.73	1726.44
544.93	1724.39
545.12	1779.68
545.32	1798.12
545.52	1720.29
545.71	1689.57
545.91	1710.05
546.11	1814.50
546.30	1675.24
546.50	1640.42
546.70	1775.59
546.90	1787.88
547.09	1673.19
547.29	1763.30
547.49	1861.60
547.68	1755.11
547.88	1615.85
548.08	1689.57
548.27	2199.52
548.47	1710.05
548.67	1732.58
548.87	1773.54
549.06	1705.96
549.26	1771.49
549.46	1724.39
549.65	1710.05
549.85	1693.67
550.05	1736.68
550.24	1673.19
550.44	1828.84
550.64	1728.49
550.83	1724.39
551.03	1789.92
551.23	1861.60
551.42	1775.59
551.62	1726.44
551.82	1773.54
552.01	1693.67
552.21	1849.32
552.41	1699.81
552.60	1783.78
552.80	1712.10
553.00	1693.67
553.19	1779.68
553.39	1863.65
553.59	1626.09
553.78	1822.69
553.98	1779.68
554.17	1689.57
554.37	1814.50
554.57	1775.59
554.76	1621.99
554.96	1630.18
555.16	1679.33
555.35	1708.01
555.55	1781.73
555.75	1761.25
555.94	1744.87
556.14	1642.47
556.33	1728.49
556.53	1757.16
556.73	1720.29
556.92	1769.44
557.12	1839.08
557.32	1845.22
557.51	1804.26
557.71	1791.97
557.90	1845.22
558.10	1810.40
558.30	1724.39
558.49	1738.73
558.69	1677.29
558.88	1665.00
559.08	1849.32
559.28	1742.82
559.47	1681.38
559.67	1845.22
559.86	1785.83
560.06	1761.25
560.26	1712.10
560.45	1771.49
560.65	1763.30
560.84	1775.59
561.04	1730.53
561.24	1828.84
561.43	1728.49
561.63	1810.40
561.82	1763.30
562.02	1697.77
562.22	1732.58
562.41	1677.29
562.61	1650.66
562.80	1677.29
563.00	1886.18
563.19	1751.01
563.39	1757.16
563.59	1730.53
563.78	1718.25
563.98	1656.81
564.17	1640.42
564.37	1595.37
564.56	1730.53
564.76	1644.52
564.96	1834.98
565.15	1730.53
565.35	1925.09
565.54	1642.47
565.74	1759.21
565.93	1665.00
566.13	1708.01
566.32	1761.25
566.52	1773.54
566.71	1708.01
566.91	1791.97
567.11	1730.53
567.30	1660.90
567.50	1794.02
567.69	1730.53
567.89	1734.63
568.08	1650.66
568.28	1755.11
568.47	1660.90
568.67	1753.06
568.86	1677.29
569.06	1769.44
569.25	1708.01
569.45	1732.58
569.64	1679.33
569.84	1697.77
570.04	1779.68
570.23	1720.29
570.43	1681.38
570.62	1665.00
570.82	1816.55
571.01	1681.38
571.21	1660.90
571.40	1730.53
571.60	1742.82
571.79	1734.63
571.99	1769.44
572.18	1626.09
572.38	1816.55
572.57	1716.20
572.77	1777.64
572.96	1902.56
573.16	1763.30
573.35	1789.92
573.55	1800.16
573.74	1777.64
573.94	1701.86
574.13	1689.57
574.33	1781.73
574.52	1800.16
574.71	1837.03
574.91	1753.06
575.10	1699.81
575.30	1726.44
575.49	1720.29
575.69	1693.67
575.88	1779.68
576.08	1656.81
576.27	1718.25
576.47	1738.73
576.66	1902.56
576.86	1789.92
577.05	1798.12
577.25	1767.40
577.44	1802.21
577.64	1679.33
577.83	1847.27
578.02	1738.73
578.22	1828.84
578.41	1931.23
578.61	1755.11
578.80	1665.00
579.00	1746.92
579.19	1718.25
579.39	1761.25
579.58	1791.97
579.77	1751.01
579.97	1841.12
580.16	1839.08
580.36	1820.64
580.55	1841.12
580.75	1736.68
580.94	1804.26
581.13	1871.84
581.33	1853.41
581.52	1767.40
581.72	1759.21
581.91	1898.47
582.11	1742.82
582.30	1794.02
582.49	1746.92
582.69	1796.07
582.88	1851.36
583.08	1718.25
583.27	1804.26
583.47	1695.72
583.66	1632.23
583.85	1705.96
584.05	1708.01
584.24	1765.35
584.44	1738.73
584.63	1767.40
584.82	1705.96
585.02	1777.64
585.21	1800.16
585.41	1822.69
585.60	1718.25
585.79	1970.15
585.99	1964.00
586.18	1816.55
586.37	2158.56
586.57	3401.68
586.76	9590.64
586.96	24407.69
587.15	34379.25
587.34	40281.50
587.54	42167.68
587.73	36724.18
587.93	26103.41
588.12	21966.51
588.31	18589.41
588.51	16248.58
588.70	15093.53
588.89	14303.01
589.09	12760.89
589.28	11186.01
589.47	9467.76
589.67	8140.68
589.86	6475.68
590.06	4806.58
590.25	3934.15
590.44	3076.05
590.64	2543.58
590.83	2217.95
591.02	2060.26
591.22	1939.43
591.41	1875.94
591.60	1861.60
591.80	1937.38
591.99	1665.00
592.18	1785.83
592.38	1822.69
592.57	1718.25
592.76	1800.16
592.96	1775.59
593.15	1767.40
593.34	1810.40
593.54	1837.03
593.73	1828.84
593.92	1787.88
594.12	1726.44
594.31	1800.16
594.50	1777.64
594.70	1757.16
594.89	1951.71
595.08	1611.75
595.28	1785.83
595.47	1974.24
595.66	1751.01
595.86	1648.61
596.05	1687.53
596.24	1771.49
596.43	1822.69
596.63	1798.12
596.82	1796.07
597.01	1746.92
597.21	1834.98
597.40	1769.44
597.59	1734.63
597.79	1724.39
597.98	1738.73
598.17	1748.97
598.36	1710.05
598.56	1751.01
598.75	1732.58
598.94	1738.73
599.14	1736.68
599.33	1697.77
599.52	1740.77
599.71	1726.44
599.91	1755.11
600.10	1710.05
600.29	1708.01
600.48	1814.50
600.68	1798.12
600.87	1759.21
601.06	1710.05
601.26	1683.43
601.45	1710.05
601.64	1740.77
601.83	1781.73
602.03	1814.50
602.22	1705.96
602.41	1732.58
602.60	1816.55
602.80	1773.54
602.99	1722.34
603.18	1775.59
603.37	1658.85
603.57	1746.92
603.76	1755.11
603.95	1834.98
604.14	1716.20
604.34	1681.38
604.53	1732.58
604.72	1710.05
604.91	1767.40
605.10	1787.88
605.30	1673.19
605.49	1959.91
605.68	1697.77
605.87	1724.39
606.07	1685.48
606.26	1736.68
606.45	1742.82
606.64	1779.68
606.84	1767.40
607.03	1742.82
607.22	1755.11
607.41	1712.10
607.60	1712.10
607.80	1779.68
607.99	1755.11
608.18	1732.58
608.37	1808.36
608.56	1705.96
608.76	1812.45
608.95	1873.89
609.14	1720.29
609.33	1785.83
609.52	1775.59
609.72	1794.02
609.91	1849.32
610.10	1755.11
610.29	1748.97
610.48	1669.09
610.68	1767.40
610.87	1763.30
611.06	1722.34
611.25	1691.62
611.44	1804.26
611.63	1781.73
611.83	1708.01
612.02	1683.43
612.21	1781.73
612.40	1724.39
612.59	1646.57
612.79	1662.95
612.98	1746.92
613.17	1730.53
613.36	1761.25
613.55	1845.22
613.74	1751.01
613.93	1759.21
614.13	1658.85
614.32	1759.21
614.51	1728.49
614.70	1765.35
614.89	1701.86
615.08	1791.97
615.28	2082.78
615.47	1591.27
615.66	1751.01
615.85	1628.14
616.04	1757.16
616.23	1759.21
616.42	1763.30
616.62	1740.77
616.81	1736.68
617.00	1734.63
617.19	1757.16
617.38	1703.91
617.57	1763.30
617.76	1722.34
617.95	1755.11
618.15	1699.81
618.34	1783.78
618.53	1650.66
618.72	1791.97
618.91	1798.12
619.10	1730.53
619.29	1736.68
619.48	1718.25
619.68	1619.94
619.87	1763.30
620.06	1710.05
620.25	1802.21
620.44	1687.53
620.63	1732.58
620.82	1697.77
621.01	1740.77
621.20	1699.81
621.39	1738.73
621.59	1728.49
621.78	1730.53
621.97	1673.19
622.16	1724.39
622.35	1667.05
622.54	1800.16
622.73	1884.13
622.92	1642.47
623.11	1683.43
623.30	1710.05
623.49	1802.21
623.68	1660.90
623.88	1650.66
624.07	1642.47
624.26	1720.29
624.45	1708.01
624.64	1701.86
624.83	1783.78
625.02	1720.29
625.21	1742.82
625.40	1742.82
625.59	1748.97
625.78	1724.39
625.97	1798.12
626.16	1716.20
626.35	1699.81
626.54	1656.81
626.74	1787.88
626.93	1710.05
627.12	1734.63
627.31	1761.25
627.50	1753.06
627.69	1785.83
627.88	1648.61
628.07	1697.77
628.26	1646.57
628.45	1681.38
628.64	1634.28
628.83	1701.86
629.02	1662.95
629.21	1906.66
629.40	1802.21
629.59	1701.86
629.78	1640.42
629.97	1701.86
630.16	1761.25
630.35	1689.57
630.54	1740.77
630.73	1652.71
630.92	1759.21
631.11	1630.18
631.30	1730.53
631.49	1722.34
631.68	1730.53
631.87	1753.06
632.06	1703.91
632.25	1873.89
632.44	1724.39
632.63	1671.14
632.82	1671.14
633.01	1726.44
633.20	1720.29
633.39	1587.18
633.58	1599.46
633.77	1714.15
633.96	1746.92
634.15	1683.43
634.34	1771.49
634.53	1701.86
634.72	1724.39
634.91	1599.46
635.10	1705.96
635.29	1722.34
635.48	1652.71
635.67	1669.09
635.86	1693.67
636.05	1800.16
636.24	1716.20
636.43	1781.73
636.62	1757.16
636.81	1587.18
637.00	1759.21
637.19	1722.34
637.38	1705.96
637.57	1730.53
637.76	1775.59
637.95	1712.10
638.14	1687.53
638.33	1740.77
638.52	1683.43
638.71	1673.19
638.89	1619.94
639.08	1851.36
639.27	1777.64
639.46	1730.53
639.65	1751.01
639.84	1681.38
640.03	1751.01
640.22	1646.57
640.41	1759.21
640.60	1689.57
640.79	1724.39
640.98	1718.25
641.17	1710.05
641.36	1683.43
641.55	1771.49
641.74	1648.61
641.92	1714.15
642.11	1675.24
642.30	1763.30
642.49	1705.96
642.68	1646.57
642.87	1800.16
643.06	1675.24
643.25	1673.19
643.44	1648.61
643.63	1716.20
643.82	1779.68
644.00	1624.04
644.19	1673.19
644.38	1640.42
644.57	1814.50
644.76	1673.19
644.95	1681.38
645.14	1820.64
645.33	1720.29
645.52	1771.49
645.71	1660.90
645.89	1716.20
646.08	1771.49
646.27	1697.77
646.46	1830.88
646.65	1689.57
646.84	1656.81
647.03	1685.48
647.22	1746.92
647.40	1732.58
647.59	1671.14
647.78	1636.33
647.97	1624.04
648.16	1728.49
648.35	1777.64
648.54	1791.97
648.73	1646.57
648.91	1714.15
649.10	1695.72
649.29	1669.09
649.48	1648.61
649.67	1755.11
649.86	1687.53
650.05	1585.13
650.23	1755.11
650.42	1703.91
650.61	1757.16
650.80	1787.88
650.99	1814.50
651.18	1722.34
651.36	1783.78
651.55	1677.29
651.74	1783.78
651.93	1673.19
652.12	1708.01
652.31	1681.38
652.49	1681.38
652.68	1720.29
652.87	1748.97
653.06	1751.01
653.25	1724.39
653.44	1753.06
653.62	1800.16
653.81	1701.86
654.00	1724.39
654.19	1777.64
654.38	1888.23
654.56	1759.21
654.75	1736.68
654.94	1775.59
655.13	1724.39
655.32	1671.14
655.51	1773.54
655.69	1665.00
655.88	1777.64
656.07	1695.72
656.26	1716.20
656.45	1767.40
656.63	1753.06
656.82	1763.30
657.01	1742.82
657.20	1710.05
657.38	1880.04
657.57	1673.19
657.76	1632.23
657.95	1695.72
658.14	1652.71
658.32	1652.71
658.51	1730.53
658.70	1714.15
658.89	1763.30
659.08	1630.18
659.26	1746.92
659.45	1609.70
659.64	1697.77
659.83	1712.10
660.01	1908.71
660.20	1714.15
660.39	1849.32
660.58	1632.23
660.76	1699.81
660.95	1708.01
661.14	1679.33
661.33	1712.10
661.51	1665.00
661.70	1701.86
661.89	1658.85
662.08	1671.14
662.26	1611.75
662.45	1732.58
662.64	1845.22
662.83	1789.92
663.01	1675.24
663.20	1716.20
663.39	1810.40
663.58	1624.04
663.76	1714.15
663.95	1726.44
664.14	1677.29
664.32	1720.29
664.51	1652.71
664.70	1562.60
664.89	1748.97
665.07	1615.85
665.26	1898.47
665.45	1652.71
665.64	1746.92
665.82	1630.18
666.01	1789.92
666.20	1638.38
666.38	1779.68
666.57	1845.22
666.76	2174.94
666.95	4464.57
667.13	10356.58
667.32	15189.78
667.51	17626.87
667.69	18966.24
667.88	17706.74
668.07	12363.59
668.25	9467.76
668.44	8208.26
668.63	7538.57
668.81	6680.47
669.00	6297.50
669.19	5631.91
669.38	5173.17
669.56	4521.92
669.75	3950.53
669.94	3319.76
670.12	3018.71
670.31	2529.24
670.50	2332.64
670.68	2043.87
670.87	1974.24
671.06	1757.16
671.24	1839.08
671.43	1877.99
671.62	1755.11
671.80	1730.53
671.99	1734.63
672.18	1730.53
672.36	1740.77
672.55	1765.35
672.74	1740.77
672.92	1642.47
673.11	1755.11
673.29	1660.90
673.48	1652.71
673.67	1628.14
673.85	1781.73
674.04	1732.58
674.23	1695.72
674.41	1861.60
674.60	1599.46
674.79	1624.04
674.97	1615.85
675.16	1718.25
675.34	1773.54
675.53	1708.01
675.72	1714.15
675.90	1779.68
676.09	1689.57
676.28	1726.44
676.46	1613.80
676.65	1826.79
676.83	1675.24
677.02	1761.25
677.21	1718.25
677.39	1763.30
677.58	1685.48
677.77	1624.04
677.95	1630.18
678.14	1732.58
678.32	1671.14
678.51	1640.42
678.70	1818.60
678.88	1658.85
679.07	1759.21
679.25	1718.25
679.44	1658.85
679.63	1681.38
679.81	1765.35
680.00	1761.25
680.18	1773.54
680.37	1796.07
680.55	1748.97
680.74	1660.90
680.93	1658.85
681.11	1726.44
681.30	1765.35
681.48	1767.40
681.67	1701.86
681.85	1753.06
682.04	1650.66
682.23	1769.44
682.41	1718.25
682.60	1705.96
682.78	1740.77
682.97	1652.71
683.15	1710.05
683.34	1693.67
683.53	1832.93
683.71	1691.62
683.90	1849.32
684.08	1812.45
684.27	1724.39
684.45	1652.71
684.64	1761.25
684.82	1693.67
685.01	1722.34
685.19	1701.86
685.38	1765.35
685.57	1720.29
685.75	1632.23
685.94	1712.10
686.12	1675.24
686.31	1667.05
686.49	1802.21
686.68	1619.94
686.86	1689.57
687.05	1683.43
687.23	1751.01
687.42	1697.77
687.60	1628.14
687.79	1787.88
687.97	1781.73
688.16	1779.68
688.34	1806.31
688.53	1626.09
688.71	1757.16
688.90	1794.02
689.08	1665.00
689.27	1632.23
689.45	1726.44
689.64	1814.50
689.82	1705.96
690.01	1685.48
690.19	1724.39
690.38	1636.33
690.56	1695.72
690.75	1595.37
690.93	1732.58
691.12	1667.05
691.30	1712.10
691.49	1689.57
691.67	1738.73
691.86	1789.92
692.04	1693.67
692.23	1771.49
692.41	1617.90
692.60	1865.70
692.78	1789.92
692.97	1705.96
693.15	1705.96
693.34	1785.83
693.52	1681.38
693.71	1705.96
693.89	1751.01
694.08	1609.70
694.26	1755.11
694.44	1697.77
694.63	1826.79
694.81	1712.10
695.00	1732.58
695.18	1726.44
695.37	1814.50
695.55	1740.77
695.74	1656.81
695.92	1665.00
696.10	1763.30
696.29	1591.27
696.47	1685.48
696.66	1654.76
696.84	1701.86
697.03	1753.06
697.21	1847.27
697.40	2328.54
697.58	1804.26
697.76	1617.90
697.95	1669.09
698.13	1687.53
698.32	1691.62
698.50	1687.53
698.68	1642.47
698.87	1701.86
699.05	1791.97
699.24	1765.35
699.42	1634.28
699.61	1683.43
699.79	1677.29
699.97	1673.19
700.16	1640.42
700.34	1726.44
700.53	1746.92
700.71	1785.83
700.89	1761.25
701.08	1720.29
701.26	1656.81
701.45	2074.59
701.63	1691.62
701.81	1654.76
702.00	1626.09
702.18	1632.23
702.37	1724.39
702.55	1785.83
702.73	1662.95
702.92	1628.14
703.10	1742.82
703.28	1642.47
703.47	1583.08
703.65	1691.62
703.84	1732.58
704.02	1712.10
704.20	1828.84
704.39	1599.46
704.57	1708.01
704.75	1781.73
704.94	1753.06
705.12	1677.29
705.30	1800.16
705.49	2226.14
705.67	4349.89
705.86	9379.70
706.04	12406.59
706.22	14473.00
706.41	15425.30
706.59	13782.83
706.77	9756.52
706.96	7423.89
707.14	6596.51
707.32	5998.50
707.51	5732.26
707.69	5040.05
707.87	4063.17
708.06	3559.37
708.24	3037.14
708.42	2467.80
708.61	2258.91
708.79	1861.60
708.97	1855.46
709.16	1869.80
709.34	1765.35
709.52	1697.77
709.71	1714.15
709.89	1771.49
710.07	1624.04
710.26	1648.61
710.44	1665.00
710.62	1791.97
710.80	1736.68
710.99	1710.05
711.17	1751.01
711.35	1718.25
711.54	1662.95
711.72	1802.21
711.90	1763.30
712.09	1732.58
712.27	1689.57
712.45	1779.68
712.63	1689.57
712.82	1734.63
713.00	1705.96
713.18	1781.73
713.37	1712.10
713.55	1718.25
713.73	1695.72
713.91	1705.96
714.10	1697.77
714.28	1703.91
714.46	1763.30
714.65	1751.01
714.83	1708.01
715.01	1722.34
715.19	1660.90
715.38	1693.67
715.56	1673.19
715.74	1693.67
715.92	1624.04
716.11	1837.03
716.29	1652.71
716.47	1669.09
716.65	1617.90
716.84	1542.12
717.02	1771.49
717.20	1660.90
717.38	1611.75
717.57	1726.44
717.75	1665.00
717.93	1691.62
718.11	1652.71
718.30	1675.24
718.48	1728.49
718.66	1746.92
718.84	1783.78
719.03	1658.85
719.21	1665.00
719.39	1857.51
719.57	1689.57
719.75	1763.30
719.94	1671.14
720.12	1685.48
720.30	1681.38
720.48	1802.21
720.67	1650.66
720.85	1640.42
721.03	1601.51
721.21	1587.18
721.39	1820.64
721.58	1753.06
721.76	1736.68
721.94	1726.44
722.12	1744.87
722.30	1808.36
722.49	1703.91
722.67	1703.91
722.85	1779.68
723.03	1562.60
723.21	1691.62
723.40	1710.05
723.58	1746.92
723.76	1765.35
723.94	1773.54
724.12	1783.78
724.30	1779.68
724.49	1738.73
724.67	1595.37
724.85	1816.55
725.03	1644.52
725.21	1753.06
725.40	1683.43
725.58	1566.70
725.76	1808.36
725.94	1734.63
726.12	1640.42
726.30	1693.67
726.49	1705.96
726.67	1763.30
726.85	1718.25
727.03	1802.21
727.21	2160.61
727.39	2924.50
727.57	3813.32
727.76	4169.66
727.94	4419.52
728.12	4323.26
728.30	3622.86
728.48	3039.19
728.66	2627.54
728.84	2549.72
729.03	2328.54
729.21	2207.71
729.39	2054.11
729.57	1869.80
729.75	1697.77
729.93	1859.56
730.11	1665.00
730.30	1701.86
730.48	1714.15
730.66	1746.92
730.84	1732.58
731.02	1697.77
731.20	1722.34
731.38	1744.87
731.56	1624.04
731.74	1681.38
731.93	1687.53
732.11	1738.73
732.29	1726.44
732.47	1693.67
732.65	1748.97
732.83	1728.49
733.01	1751.01
733.19	1667.05
733.37	1755.11
733.56	1794.02
733.74	1701.86
733.92	1812.45
734.10	1734.63
734.28	1718.25
734.46	1667.05
734.64	1621.99
734.82	1644.52
735.00	1597.42
735.18	1660.90
735.36	1705.96
735.54	1791.97
735.73	1697.77
735.91	1708.01
736.09	1751.01
736.27	1687.53
736.45	1791.97
736.63	1624.04
736.81	1708.01
736.99	1779.68
737.17	1777.64
737.35	1671.14
737.53	1722.34
737.71	1705.96
737.89	1775.59
738.07	1755.11
738.25	1675.24
738.43	1662.95
738.61	1654.76
738.80	1583.08
738.98	1705.96
739.16	1677.29
739.34	1689.57
739.52	1742.82
739.70	1699.81
739.88	1738.73
740.06	1773.54
740.24	1511.40
740.42	1794.02
740.60	1570.79
740.78	1658.85
740.96	1648.61
741.14	1669.09
741.32	1708.01
741.50	1595.37
741.68	1757.16
741.86	1789.92
742.04	1677.29
742.22	1599.46
742.40	1687.53
742.58	1703.91
742.76	1650.66
742.94	1736.68
743.12	1589.22
743.30	1660.90
743.48	1695.72
743.66	1636.33
743.84	1716.20
744.02	1652.71
744.20	1757.16
744.38	1671.14
744.56	1652.71
744.74	1730.53
744.92	1693.67
745.10	1865.70
745.28	1671.14
745.46	1708.01
745.64	1671.14
745.82	1751.01
746.00	1722.34
746.18	1744.87
746.36	1634.28
746.54	1718.25
746.72	1710.05
746.90	1583.08
747.08	1810.40
747.26	1665.00
747.44	1773.54
747.62	1730.53
747.80	1658.85
747.98	1718.25
748.15	1748.97
748.33	1804.26
748.51	1626.09
748.69	1701.86
748.87	1619.94
749.05	1652.71
749.23	1695.72
749.41	1787.88
749.59	1695.72
749.77	1738.73
749.95	1634.28
750.13	1656.81
750.31	1769.44
750.49	1746.92
750.67	1701.86
750.85	1767.40
751.03	1609.70
751.20	1757.16
751.38	1730.53
751.56	1708.01
751.74	1716.20
751.92	1628.14
752.10	1599.46
752.28	1804.26
752.46	1701.86
752.64	1693.67
752.82	1609.70
753.00	1781.73
753.18	1619.94
753.35	1699.81
753.53	1671.14
753.71	1640.42
753.89	1730.53
754.07	1667.05
754.25	1765.35
754.43	1695.72
754.61	1638.38
754.79	1669.09
754.97	1687.53
755.14	1751.01
755.32	1648.61
755.50	1718.25
755.68	1738.73
755.86	1734.63
756.04	1660.90
756.22	1601.51
756.40	1677.29
756.57	1775.59
756.75	1691.62
756.93	1716.20
757.11	1771.49
757.29	1689.57
757.47	1654.76
757.65	1640.42
757.82	1640.42
758.00	1609.70
758.18	1665.00
758.36	1697.77
758.54	1802.21
758.72	1634.28
758.90	1765.35
759.07	1744.87
759.25	1759.21
759.43	1728.49
759.61	1593.32
759.79	2217.95
759.97	1785.83
760.15	1621.99
760.32	1656.81
760.50	1652.71
760.68	1791.97
760.86	1609.70
761.04	1720.29
761.22	1714.15
761.39	1722.34
761.57	1720.29
761.75	1648.61
761.93	1738.73
762.11	1724.39
762.28	1730.53
762.46	1619.94
762.64	1730.53
762.82	1583.08
763.00	1722.34
763.18	1726.44
763.35	1650.66
763.53	1658.85
763.71	1685.48
763.89	1683.43
764.07	1689.57
764.24	1738.73
764.42	1738.73
764.60	1669.09
764.78	1767.40
764.96	1718.25
765.13	1742.82
765.31	1726.44
765.49	1669.09
765.67	1650.66
765.84	1689.57
766.02	1617.90
766.20	1656.81
766.38	1708.01
766.56	1773.54
766.73	1804.26
766.91	1697.77
767.09	1744.87
767.27	1726.44
767.44	1677.29
767.62	1748.97
767.80	1683.43
767.98	1605.61
768.15	1685.48
768.33	1677.29
768.51	1681.38
768.69	1712.10
768.87	1695.72
769.04	1705.96
769.22	1837.03
769.40	1789.92
769.58	1832.93
769.75	1699.81
769.93	1728.49
770.11	1628.14
770.28	1689.57
770.46	1683.43
770.64	1665.00
770.82	1710.05
770.99	1646.57
771.17	1681.38
771.35	1722.34
771.53	1658.85
771.70	1769.44
771.88	1732.58
772.06	1736.68
772.23	1701.86
772.41	1730.53
772.59	1679.33
772.77	1701.86
772.94	1787.88
773.12	1765.35
773.30	1744.87
773.47	1652.71
773.65	1730.53
773.83	1728.49
774.01	1695.72
774.18	1599.46
774.36	1726.44
774.54	1548.26
774.71	1689.57
774.89	1587.18
775.07	1632.23
775.24	1677.29
775.42	1648.61
775.60	1785.83
775.78	1679.33
775.95	1669.09
776.13	1644.52
776.31	1609.70
776.48	1724.39
776.66	1730.53
776.84	1615.85
777.01	1697.77
777.19	1714.15
777.37	1656.81
777.54	1701.86
777.72	1816.55
777.90	1753.06
778.07	1638.38
778.25	1849.32
778.43	1687.53
778.60	1665.00
778.78	1687.53
778.96	1771.49
779.13	1642.47
779.31	1728.49
779.49	1658.85
779.66	1720.29
779.84	1726.44
780.01	1746.92
780.19	1656.81
780.37	1718.25
780.54	1714.15
780.72	1677.29
780.90	1677.29
781.07	1736.68
781.25	1636.33
781.43	1808.36
781.60	1697.77
781.78	1800.16
781.95	1773.54
782.13	1669.09
782.31	1662.95
782.48	1644.52
782.66	1681.38
782.83	1773.54
783.01	1716.20
783.19	1697.77
783.36	1654.76
783.54	1626.09
783.72	1742.82
783.89	1691.62
784.07	1658.85
784.24	1753.06
784.42	1791.97
784.60	1638.38
784.77	1787.88
784.95	1556.46
785.12	1669.09
785.30	1732.58
785.47	1679.33
785.65	1662.95
785.83	1683.43
786.00	1697.77
786.18	1722.34
786.35	1599.46
786.53	1660.90
786.71	1814.50
786.88	1742.82
787.06	1765.35
787.23	1662.95
787.41	1615.85
787.58	1673.19
787.76	1656.81
787.94	1697.77
788.11	1765.35
788.29	1638.38
788.46	1673.19
788.64	1617.90
788.81	1693.67
788.99	1662.95
789.16	1624.04
789.34	1691.62
789.52	1665.00
789.69	1708.01
789.87	1656.81
790.04	1697.77
790.22	1753.06
790.39	1804.26
790.57	1679.33
790.74	1613.80
790.92	1816.55
791.09	1591.27
791.27	1738.73
791.44	1738.73
791.62	1726.44
791.79	1796.07
791.97	1654.76
792.15	1841.12
792.32	1677.29
792.50	1841.12
792.67	1720.29
792.85	1755.11
793.02	1689.57
793.20	1685.48
793.37	1578.98
793.55	1689.57
793.72	1640.42
793.90	1759.21
794.07	1648.61
794.25	1671.14
794.42	1644.52
794.60	1626.09
794.77	1691.62
794.95	1730.53
795.12	1656.81
795.30	1619.94
795.47	1687.53
795.65	1824.74
795.82	1710.05
796.00	1640.42
796.17	1689.57
796.34	1665.00
796.52	1693.67
796.69	1759.21
796.87	1724.39
797.04	1712.10
797.22	1714.15
797.39	1697.77
797.57	1791.97
797.74	1730.53
797.92	1808.36
798.09	1685.48
798.27	1718.25
798.44	1757.16
798.62	1669.09
798.79	1814.50
798.96	1679.33
799.14	1755.11
799.31	1824.74
799.49	1673.19
799.66	1650.66
799.84	1720.29
800.01	1656.81
800.19	1685.48
800.36	1624.04
800.53	1658.85
800.71	1695.72
800.88	1800.16
801.06	1626.09
801.23	1675.24
801.41	1665.00
801.58	1718.25
801.75	1667.05
801.93	1617.90
802.10	1724.39
802.28	1654.76
802.45	1640.42
802.63	1773.54
802.80	1759.21
802.97	1583.08
803.15	1703.91
803.32	1701.86
803.50	1607.66
803.67	1675.24
803.84	1615.85
804.02	1667.05
804.19	1642.47
804.37	1601.51
804.54	1648.61
804.71	1628.14
804.89	1712.10
805.06	1665.00
805.24	1626.09
805.41	1593.32
805.58	1591.27
805.76	1863.65
805.93	1730.53
806.10	1763.30
806.28	1683.43
806.45	1728.49
806.63	1662.95
806.80	1736.68
806.97	1714.15
807.15	1710.05
807.32	1765.35
807.49	1644.52
807.67	1634.28
807.84	1669.09
808.01	1581.03
808.19	1826.79
808.36	1767.40
808.54	1626.09
808.71	1615.85
808.88	1724.39
809.06	1687.53
809.23	1699.81
809.40	1640.42
809.58	1712.10
809.75	1701.86
809.92	1685.48
810.10	1865.70
810.27	1626.09
810.44	1759.21
810.62	1697.77
810.79	1748.97
810.96	1640.42
811.14	1697.77
811.31	1834.98
811.48	1767.40
811.66	1654.76
811.83	1794.02
812.00	1773.54
812.18	1689.57
812.35	1738.73
812.52	1656.81
812.69	1628.14
812.87	1642.47
813.04	1646.57
813.21	1648.61
813.39	1599.46
813.56	1617.90
813.73	1826.79
813.91	1650.66
814.08	1667.05
814.25	1736.68
814.42	1593.32
814.60	1665.00
814.77	1705.96
814.94	1675.24
815.12	1675.24
815.29	1794.02
815.46	1757.16
815.63	1716.20
815.81	1730.53
815.98	1654.76
816.15	1656.81
816.33	1701.86
816.50	1689.57
816.67	1640.42
816.84	1742.82
817.02	1632.23
817.19	1691.62
817.36	1742.82
817.53	1748.97
817.71	1613.80
817.88	1755.11
818.05	1599.46
818.22	1681.38
818.40	1789.92
818.57	1626.09
818.74	1755.11
818.91	1656.81
819.09	1800.16
819.26	1705.96
819.43	1607.66
819.60	1626.09
819.78	1714.15
819.95	1751.01
820.12	1681.38
820.29	1880.04
820.47	1753.06
820.64	1665.00
820.81	1578.98
820.98	1644.52
821.15	1685.48
821.33	1789.92
821.50	1607.66
821.67	1689.57
821.84	1667.05
822.02	1744.87
822.19	1781.73
822.36	1699.81
822.53	1722.34
822.70	1595.37
822.88	1734.63
823.05	1753.06
823.22	1759.21
823.39	1734.63
823.56	1738.73
823.74	1779.68
823.91	1644.52
824.08	1644.52
824.25	1650.66
824.42	1738.73
824.60	1615.85
824.77	1697.77
824.94	1667.05
825.11	1685.48
825.28	1669.09
825.45	1712.10
825.63	1699.81
825.80	1585.13
825.97	1703.91
826.14	1746.92
826.31	1652.71
826.48	1703.91
826.66	1681.38
826.83	1673.19
827.00	1660.90
827.17	1673.19
827.34	1687.53
827.51	1683.43
827.69	1742.82
827.86	1570.79
828.03	1763.30
828.20	1746.92
828.37	1669.09
828.54	1652.71
828.71	1638.38
828.89	1851.36
829.06	1720.29
829.23	1755.11
829.40	1583.08
829.57	1636.33
829.74	1708.01
829.91	1679.33
830.09	1640.42
830.26	1730.53
830.43	1794.02
830.60	1722.34
830.77	1673.19
830.94	1738.73
831.11	1757.16
831.28	1648.61
831.46	1724.39
831.63	1630.18
831.80	1677.29
831.97	1597.42
832.14	1722.34
832.31	1697.77
832.48	1681.38
832.65	1755.11
832.82	1703.91
832.99	1744.87
833.17	1611.75
833.34	1767.40
833.51	1724.39
833.68	1617.90
833.85	1787.88
834.02	1646.57
834.19	1652.71
834.36	1621.99
834.53	1773.54
834.70	1810.40
834.87	1710.05
835.04	1675.24
835.22	1671.14
835.39	1681.38
835.56	1650.66
835.73	1708.01
835.90	1843.17
836.07	1642.47
836.24	1726.44
836.41	1720.29
836.58	1730.53
836.75	1734.63
836.92	1744.87
837.09	1613.80
837.26	1652.71
837.43	1644.52
837.60	1714.15
837.77	1701.86
837.94	1736.68
838.12	1773.54
838.29	1730.53
838.46	1607.66
838.63	1687.53
838.80	1712.10
838.97	1738.73
839.14	1695.72
839.31	1720.29
839.48	1695.72
839.65	1740.77
839.82	1804.26
839.99	1691.62
840.16	1681.38
840.33	1681.38
840.50	1640.42
840.67	1595.37
840.84	1581.03
841.01	1787.88
841.18	1691.62
841.35	1681.38
841.52	1669.09
841.69	1816.55
841.86	1669.09
842.03	1703.91
842.20	1673.19
842.37	1624.04
842.54	1675.24
842.71	1640.42
842.88	1642.47
843.05	1769.44
843.22	1693.67
843.39	1718.25
843.56	1714.15
843.73	1722.34
843.90	1667.05
844.07	1779.68
844.24	1742.82
844.41	1759.21
844.58	1716.20
844.75	1691.62
844.92	1691.62
845.09	1759.21
845.26	1654.76
845.43	1730.53
845.60	1689.57
845.77	1724.39
845.94	1708.01
846.10	1763.30
846.27	1644.52
846.44	1632.23
846.61	1720.29
846.78	1740.77
846.95	1732.58
847.12	1626.09
847.29	1724.39
847.46	1648.61
847.63	1732.58
847.80	1632.23
847.97	1636.33
848.14	1791.97
848.31	1593.32
848.48	1628.14
848.65	1708.01
848.82	1675.24
848.98	1777.64
849.15	1695.72
849.32	1779.68
849.49	1724.39
849.66	1703.91
849.83	1716.20
850.00	1621.99
850.17	1816.55
850.34	1687.53
850.51	1632.23
850.68	1621.99
850.85	1818.60
851.01	1714.15
851.18	1693.67
851.35	1748.97
851.52	1703.91
851.69	1763.30
851.86	1615.85
852.03	1697.77
852.20	1714.15
852.37	1689.57
852.53	1640.42
852.70	1697.77
852.87	1738.73
853.04	1728.49
853.21	1658.85
853.38	1800.16
853.55	1753.06
853.72	1781.73
853.89	1665.00
854.05	1665.00
854.22	1681.38
854.39	1613.80
854.56	1650.66
854.73	1732.58
854.90	1701.86
855.07	1732.58
855.23	1640.42
855.40	1748.97
855.57	1642.47
855.74	1624.04
855.91	1853.41
856.08	1617.90
856.25	1630.18
856.41	1738.73
856.58	1705.96
856.75	1691.62
856.92	1644.52
857.09	1722.34
857.26	1632.23
857.42	1705.96
857.59	1718.25
857.76	1640.42
857.93	1697.77
858.10	1699.81
858.27	1601.51
858.43	1740.77
858.60	1675.24
858.77	1603.56
858.94	1685.48
859.11	1748.97
859.27	1775.59
859.44	1703.91
859.61	1802.21
859.78	1740.77
859.95	1699.81
860.12	1687.53
860.28	1777.64
860.45	1841.12
860.62	1669.09
860.79	1710.05
860.95	1660.90
861.12	1630.18
861.29	1656.81
861.46	1718.25
861.63	1699.81
861.79	1718.25
861.96	1665.00
862.13	1679.33
862.30	1740.77
862.47	1685.48
862.63	1646.57
862.80	1751.01
862.97	1695.72
863.14	1718.25
863.30	1734.63
863.47	1644.52
863.64	1716.20
863.81	1730.53
863.97	1646.57
864.14	1751.01
864.31	1714.15
864.48	1701.86
864.65	1726.44
864.81	1822.69
864.98	1703.91
865.15	1677.29
865.32	1783.78
865.48	1824.74
865.65	1691.62
865.82	1619.94
865.98	1687.53
866.15	1761.25
866.32	1738.73
866.49	1648.61
866.65	1695.72
866.82	1689.57
866.99	1665.00
867.16	1621.99
867.32	1673.19
867.49	1773.54
867.66	1720.29
867.83	1701.86
867.99	1667.05
868.16	1644.52
868.33	1615.85
868.49	1621.99
868.66	1685.48
868.83	1701.86
868.99	1701.86
869.16	1740.77
869.33	1726.44
869.50	1779.68
869.66	1714.15
869.83	1699.81
870.00	1697.77
870.16	1779.68
870.33	1624.04
870.50	1779.68
870.66	1781.73
870.83	1738.73
871.00	1652.71
871.17	1673.19
871.33	1748.97
871.50	1683.43
871.67	1708.01
871.83	1550.31
872.00	1812.45
872.17	1703.91
872.33	1755.11
872.50	1697.77
872.67	1617.90
872.83	1691.62
873.00	1757.16
873.17	1671.14
873.33	1804.26
873.50	1689.57
873.67	1730.53
873.83	1632.23
874.00	1650.66
874.16	1675.24
874.33	1720.29
874.50	1607.66
874.66	1755.11
874.83	1726.44
875.00	1628.14
875.16	1708.01
875.33	1796.07
875.50	1626.09
875.66	1658.85
875.83	1730.53
875.99	1728.49
876.16	1681.38
876.33	1636.33
876.49	1714.15
876.66	1677.29
876.83	1660.90
876.99	1662.95
877.16	1642.47
877.32	1798.12
877.49	1624.04
877.66	1656.81
877.82	1720.29
877.99	1753.06
878.15	1822.69
878.32	1660.90
878.49	1703.91
878.65	1695.72
878.82	1718.25
878.98	1642.47
879.15	1708.01
879.32	1763.30
879.48	1730.53
879.65	1726.44
879.81	1662.95
879.98	1720.29
880.15	1665.00
880.31	1720.29
880.48	1605.61
880.64	1744.87
880.81	1765.35
880.97	1865.70
881.14	1761.25
881.31	1683.43
881.47	1757.16
881.64	1669.09
881.80	1562.60
881.97	1714.15
882.13	1720.29
882.30	1621.99
882.47	1654.76
882.63	1646.57
882.80	1642.47
882.96	1662.95
883.13	1757.16
883.29	1687.53
883.46	1761.25
883.62	1798.12
883.79	1736.68
883.95	1738.73
884.12	1630.18
884.29	1763.30
884.45	1724.39
884.62	1681.38
884.78	1609.70
884.95	1845.22
885.11	1689.57
885.28	1650.66
885.44	1607.66
885.61	1761.25
885.77	1767.40
885.94	1656.81
886.10	1708.01
886.27	1742.82
886.43	1726.44
886.60	1730.53
886.76	1722.34
886.93	1644.52
887.09	1701.86
887.26	1578.98
887.42	1744.87
887.59	1796.07
887.75	1689.57
887.92	1767.40
888.08	1757.16
888.25	1767.40
888.41	1718.25
888.58	1675.24
888.74	1599.46
888.91	1757.16
>>>>>End Processed Spectral Data<<<<<
