SpectraSuite Data File
++++++++++++++++++++++++++++++++++++
Date: Mon Jun 06 16:42:57 CEST 2016
User: root
Dark Spectrum Present: No
Reference Spectrum Present: No
Number of Sampled Component Spectra: 1
Spectrometers: USB4C02835
Integration Time (usec): 100000 (USB4C02835)
Spectra Averaged: 1 (USB4C02835)
Boxcar Smoothing: 0 (USB4C02835)
Correct for Electrical Dark: No (USB4C02835)
Strobe/Lamp Enabled: No (USB4C02835)
Correct for Detector Non-linearity: No (USB4C02835)
Correct for Stray Light: No (USB4C02835)
Number of Pixels in Processed Spectrum: 3648
>>>>>Begin Processed Spectral Data<<<<<
177.47	1476.59
177.69	1476.59
177.91	1476.59
178.13	1447.91
178.36	1468.39
178.58	1646.57
178.80	1794.02
179.02	1677.29
179.24	1650.66
179.46	1726.44
179.68	1763.30
179.90	1701.86
180.13	1753.06
180.35	1665.00
180.57	1699.81
180.79	1679.33
181.01	1681.38
181.23	1808.36
181.45	1769.44
181.67	1763.30
181.90	1732.58
182.12	1640.42
182.34	1613.80
182.56	1748.97
182.78	1701.86
183.00	1665.00
183.22	1728.49
183.44	1607.66
183.66	1839.08
183.89	1748.97
184.11	1734.63
184.33	1763.30
184.55	1777.64
184.77	1681.38
184.99	1726.44
185.21	1683.43
185.43	1929.19
185.65	1626.09
185.87	1730.53
186.10	1806.31
186.32	1841.12
186.54	1683.43
186.76	1791.97
186.98	1783.78
187.20	1644.52
187.42	1703.91
187.64	1695.72
187.86	1794.02
188.08	1796.07
188.30	1611.75
188.52	1730.53
188.75	1810.40
188.97	1765.35
189.19	1671.14
189.41	1648.61
189.63	1734.63
189.85	1703.91
190.07	1576.94
190.29	1603.56
190.51	1791.97
190.73	1646.57
190.95	1724.39
191.17	1720.29
191.39	1611.75
191.61	1673.19
191.84	1683.43
192.06	1714.15
192.28	1583.08
192.50	1873.89
192.72	1662.95
192.94	1697.77
193.16	1718.25
193.38	1785.83
193.60	1630.18
193.82	1648.61
194.04	1777.64
194.26	1757.16
194.48	1597.42
194.70	1615.85
194.92	1683.43
195.14	1806.31
195.36	1701.86
195.58	1701.86
195.80	1609.70
196.02	1648.61
196.24	1787.88
196.46	1736.68
196.69	1757.16
196.91	1931.23
197.13	1757.16
197.35	1755.11
197.57	1791.97
197.79	1734.63
198.01	1689.57
198.23	1755.11
198.45	1726.44
198.67	1648.61
198.89	1632.23
199.11	1742.82
199.33	1681.38
199.55	1576.94
199.77	1722.34
199.99	1767.40
200.21	1683.43
200.43	1763.30
200.65	1681.38
200.87	1624.04
201.09	1640.42
201.31	1656.81
201.53	1791.97
201.75	1744.87
201.97	1722.34
202.19	1759.21
202.41	1683.43
202.63	1812.45
202.85	1802.21
203.07	1738.73
203.29	1667.05
203.51	1699.81
203.73	1683.43
203.95	1925.09
204.17	1800.16
204.39	1701.86
204.61	1593.32
204.83	1638.38
205.05	1791.97
205.27	1697.77
205.49	1822.69
205.71	1644.52
205.93	1613.80
206.15	1699.81
206.37	1646.57
206.59	1611.75
206.81	1652.71
207.03	1634.28
207.25	1615.85
207.47	1665.00
207.69	1736.68
207.91	1830.88
208.13	1757.16
208.34	1697.77
208.56	1759.21
208.78	1675.24
209.00	1693.67
209.22	1681.38
209.44	1705.96
209.66	1755.11
209.88	1691.62
210.10	1652.71
210.32	1730.53
210.54	1775.59
210.76	1687.53
210.98	1701.86
211.20	1626.09
211.42	1718.25
211.64	1726.44
211.86	1736.68
212.08	1769.44
212.30	1779.68
212.52	1642.47
212.74	1730.53
212.96	1767.40
213.17	1822.69
213.39	1738.73
213.61	1791.97
213.83	1695.72
214.05	1638.38
214.27	1800.16
214.49	1636.33
214.71	1708.01
214.93	1789.92
215.15	1691.62
215.37	1687.53
215.59	1583.08
215.81	1722.34
216.03	1794.02
216.24	1724.39
216.46	1644.52
216.68	1701.86
216.90	1755.11
217.12	1761.25
217.34	1783.78
217.56	1712.10
217.78	1744.87
218.00	1710.05
218.22	1742.82
218.44	1669.09
218.66	1744.87
218.87	1830.88
219.09	1724.39
219.31	1722.34
219.53	1767.40
219.75	1728.49
219.97	1746.92
220.19	1738.73
220.41	1730.53
220.63	1759.21
220.85	1781.73
221.06	1675.24
221.28	1812.45
221.50	1783.78
221.72	1685.48
221.94	1646.57
222.16	1726.44
222.38	1787.88
222.60	1753.06
222.82	1626.09
223.03	1742.82
223.25	1644.52
223.47	1726.44
223.69	1877.99
223.91	1734.63
224.13	1673.19
224.35	1699.81
224.57	1710.05
224.78	1789.92
225.00	1683.43
225.22	1695.72
225.44	1728.49
225.66	1662.95
225.88	1673.19
226.10	1796.07
226.32	1703.91
226.53	1830.88
226.75	1681.38
226.97	1718.25
227.19	1648.61
227.41	1632.23
227.63	1699.81
227.85	1595.37
228.06	1775.59
228.28	1697.77
228.50	1806.31
228.72	1695.72
228.94	1699.81
229.16	1593.32
229.37	1677.29
229.59	1712.10
229.81	1820.64
230.03	1699.81
230.25	1591.27
230.47	1601.51
230.69	1671.14
230.90	1712.10
231.12	1710.05
231.34	1685.48
231.56	1728.49
231.78	1605.61
232.00	1751.01
232.21	1652.71
232.43	1652.71
232.65	1628.14
232.87	1779.68
233.09	1699.81
233.30	1691.62
233.52	1769.44
233.74	1677.29
233.96	1652.71
234.18	1669.09
234.40	1638.38
234.61	1820.64
234.83	1671.14
235.05	1640.42
235.27	1863.65
235.49	1822.69
235.70	1730.53
235.92	1834.98
236.14	1779.68
236.36	1834.98
236.58	1691.62
236.79	1724.39
237.01	1722.34
237.23	1644.52
237.45	1791.97
237.67	1697.77
237.88	1777.64
238.10	1781.73
238.32	1667.05
238.54	1742.82
238.76	1671.14
238.97	1732.58
239.19	1746.92
239.41	1708.01
239.63	1771.49
239.85	1681.38
240.06	1681.38
240.28	1691.62
240.50	1699.81
240.72	1642.47
240.93	1677.29
241.15	1746.92
241.37	1705.96
241.59	1808.36
241.81	1705.96
242.02	1654.76
242.24	1669.09
242.46	1724.39
242.68	1699.81
242.89	1787.88
243.11	1740.77
243.33	1667.05
243.55	1775.59
243.76	1765.35
243.98	1724.39
244.20	1650.66
244.42	1669.09
244.64	1730.53
244.85	1718.25
245.07	1695.72
245.29	1748.97
245.51	1722.34
245.72	1748.97
245.94	1798.12
246.16	1673.19
246.38	1779.68
246.59	1705.96
246.81	1693.67
247.03	1667.05
247.24	1607.66
247.46	1658.85
247.68	1759.21
247.90	1669.09
248.11	1705.96
248.33	1695.72
248.55	1787.88
248.77	1744.87
248.98	1718.25
249.20	1822.69
249.42	1751.01
249.64	1773.54
249.85	1703.91
250.07	1677.29
250.29	1712.10
250.50	1712.10
250.72	1681.38
250.94	1742.82
251.16	1857.51
251.37	1775.59
251.59	1744.87
251.81	1708.01
252.02	1794.02
252.24	1619.94
252.46	1789.92
252.68	1646.57
252.89	1703.91
253.11	1607.66
253.33	1794.02
253.54	1734.63
253.76	1626.09
253.98	1699.81
254.20	1720.29
254.41	1652.71
254.63	1740.77
254.85	1583.08
255.06	1800.16
255.28	1712.10
255.50	1671.14
255.71	1650.66
255.93	1679.33
256.15	1662.95
256.36	1673.19
256.58	1632.23
256.80	1714.15
257.02	1732.58
257.23	1740.77
257.45	1781.73
257.67	1722.34
257.88	1699.81
258.10	1683.43
258.32	1697.77
258.53	1759.21
258.75	1785.83
258.97	1658.85
259.18	1716.20
259.40	1689.57
259.62	1824.74
259.83	1857.51
260.05	1748.97
260.27	1984.48
260.48	1757.16
260.70	1611.75
260.92	1562.60
261.13	1755.11
261.35	1787.88
261.57	1687.53
261.78	1681.38
262.00	1669.09
262.22	1697.77
262.43	1648.61
262.65	1699.81
262.86	1751.01
263.08	1841.12
263.30	1685.48
263.51	1607.66
263.73	1646.57
263.95	1785.83
264.16	1603.56
264.38	1681.38
264.60	1724.39
264.81	1693.67
265.03	1779.68
265.25	1814.50
265.46	1683.43
265.68	1775.59
265.89	1708.01
266.11	1621.99
266.33	1738.73
266.54	1830.88
266.76	1665.00
266.98	1777.64
267.19	1771.49
267.41	1779.68
267.62	1681.38
267.84	1638.38
268.06	1775.59
268.27	1744.87
268.49	1787.88
268.70	1767.40
268.92	1652.71
269.14	1656.81
269.35	1595.37
269.57	1693.67
269.79	1734.63
270.00	1724.39
270.22	1742.82
270.43	1673.19
270.65	1572.84
270.87	1734.63
271.08	1673.19
271.30	1724.39
271.51	1726.44
271.73	1736.68
271.95	1796.07
272.16	1689.57
272.38	1732.58
272.59	1744.87
272.81	1738.73
273.02	1705.96
273.24	1714.15
273.46	1728.49
273.67	1679.33
273.89	1671.14
274.10	1652.71
274.32	1812.45
274.54	1699.81
274.75	1746.92
274.97	1708.01
275.18	1757.16
275.40	1769.44
275.61	1695.72
275.83	1705.96
276.05	1671.14
276.26	1691.62
276.48	1757.16
276.69	1699.81
276.91	1742.82
277.12	1794.02
277.34	1783.78
277.55	1755.11
277.77	1687.53
277.99	1669.09
278.20	1626.09
278.42	1697.77
278.63	1744.87
278.85	1611.75
279.06	1650.66
279.28	1783.78
279.49	1732.58
279.71	1697.77
279.93	1710.05
280.14	1736.68
280.36	1683.43
280.57	1771.49
280.79	1779.68
281.00	1671.14
281.22	1669.09
281.43	1853.41
281.65	1533.93
281.86	1634.28
282.08	1681.38
282.29	1808.36
282.51	1669.09
282.73	1691.62
282.94	1689.57
283.16	1746.92
283.37	1908.71
283.59	1718.25
283.80	1689.57
284.02	1619.94
284.23	1734.63
284.45	1671.14
284.66	1671.14
284.88	1636.33
285.09	1767.40
285.31	1726.44
285.52	1677.29
285.74	1740.77
285.95	1767.40
286.17	1679.33
286.38	1703.91
286.60	1642.47
286.81	1742.82
287.03	1681.38
287.24	1763.30
287.46	1699.81
287.67	1767.40
287.89	1699.81
288.10	1665.00
288.32	1738.73
288.53	1802.21
288.75	1724.39
288.96	1716.20
289.18	1535.98
289.39	1695.72
289.61	1755.11
289.82	1802.21
290.04	1826.79
290.25	1585.13
290.47	1640.42
290.68	1701.86
290.90	1777.64
291.11	1685.48
291.33	1773.54
291.54	1662.95
291.76	1648.61
291.97	1705.96
292.18	1669.09
292.40	1628.14
292.61	1742.82
292.83	1822.69
293.04	1767.40
293.26	1751.01
293.47	1681.38
293.69	1609.70
293.90	1658.85
294.12	1794.02
294.33	1685.48
294.55	1730.53
294.76	1718.25
294.97	1810.40
295.19	1841.12
295.40	1642.47
295.62	1681.38
295.83	1691.62
296.05	1636.33
296.26	1769.44
296.48	1656.81
296.69	1703.91
296.90	1726.44
297.12	1824.74
297.33	1814.50
297.55	1712.10
297.76	1714.15
297.98	1767.40
298.19	1615.85
298.41	1689.57
298.62	1638.38
298.83	1755.11
299.05	1722.34
299.26	1603.56
299.48	1660.90
299.69	1736.68
299.90	1693.67
300.12	1705.96
300.33	1740.77
300.55	1738.73
300.76	1751.01
300.98	1601.51
301.19	1712.10
301.40	1681.38
301.62	1644.52
301.83	1740.77
302.05	1730.53
302.26	1687.53
302.47	1708.01
302.69	1701.86
302.90	1667.05
303.12	1599.46
303.33	1763.30
303.54	1826.79
303.76	1732.58
303.97	1710.05
304.19	1785.83
304.40	1705.96
304.61	1732.58
304.83	1783.78
305.04	1701.86
305.26	1787.88
305.47	1626.09
305.68	1665.00
305.90	1726.44
306.11	1757.16
306.33	1673.19
306.54	1701.86
306.75	1703.91
306.97	1603.56
307.18	1648.61
307.39	1648.61
307.61	1781.73
307.82	1685.48
308.04	1736.68
308.25	1710.05
308.46	1722.34
308.68	1755.11
308.89	1705.96
309.10	1816.55
309.32	1757.16
309.53	1730.53
309.74	1734.63
309.96	1710.05
310.17	1785.83
310.39	1665.00
310.60	1660.90
310.81	1726.44
311.03	1665.00
311.24	1701.86
311.45	1662.95
311.67	1781.73
311.88	1695.72
312.09	1691.62
312.31	1699.81
312.52	1687.53
312.73	1681.38
312.95	1626.09
313.16	1601.51
313.37	1800.16
313.59	1775.59
313.80	1734.63
314.01	1761.25
314.23	1689.57
314.44	1697.77
314.65	1720.29
314.87	1751.01
315.08	1673.19
315.29	1693.67
315.51	1759.21
315.72	1679.33
315.93	1820.64
316.15	1828.84
316.36	1710.05
316.57	1755.11
316.79	1769.44
317.00	1673.19
317.21	1751.01
317.43	1636.33
317.64	1738.73
317.85	1705.96
318.07	1640.42
318.28	1744.87
318.49	1853.41
318.70	1894.37
318.92	1720.29
319.13	1837.03
319.34	1871.84
319.56	1765.35
319.77	1816.55
319.98	1761.25
320.20	1779.68
320.41	1718.25
320.62	1759.21
320.83	1722.34
321.05	1894.37
321.26	1757.16
321.47	1724.39
321.69	1830.88
321.90	1648.61
322.11	1583.08
322.32	1703.91
322.54	1722.34
322.75	1712.10
322.96	1775.59
323.18	1662.95
323.39	1603.56
323.60	1685.48
323.81	1714.15
324.03	1613.80
324.24	1681.38
324.45	1742.82
324.66	1677.29
324.88	1718.25
325.09	1877.99
325.30	1703.91
325.52	1748.97
325.73	1732.58
325.94	1595.37
326.15	1636.33
326.37	1714.15
326.58	1726.44
326.79	1812.45
327.00	1650.66
327.22	1665.00
327.43	1683.43
327.64	1564.65
327.85	1685.48
328.07	1683.43
328.28	1783.78
328.49	1673.19
328.70	1718.25
328.92	1738.73
329.13	1716.20
329.34	1734.63
329.55	1800.16
329.76	1771.49
329.98	1689.57
330.19	1808.36
330.40	1705.96
330.61	1781.73
330.83	1714.15
331.04	1656.81
331.25	1712.10
331.46	1673.19
331.68	1628.14
331.89	1656.81
332.10	1701.86
332.31	1619.94
332.52	1720.29
332.74	1777.64
332.95	1630.18
333.16	1718.25
333.37	1769.44
333.58	1599.46
333.80	1742.82
334.01	1624.04
334.22	1691.62
334.43	1714.15
334.64	1699.81
334.86	1669.09
335.07	1669.09
335.28	1791.97
335.49	1691.62
335.70	1693.67
335.92	1804.26
336.13	1865.70
336.34	1726.44
336.55	1671.14
336.76	1699.81
336.98	1587.18
337.19	1683.43
337.40	1877.99
337.61	1886.18
337.82	1679.33
338.04	1753.06
338.25	1722.34
338.46	1658.85
338.67	1759.21
338.88	1621.99
339.09	1632.23
339.31	1685.48
339.52	1656.81
339.73	1691.62
339.94	1751.01
340.15	1710.05
340.36	1734.63
340.58	1734.63
340.79	1605.61
341.00	1746.92
341.21	1714.15
341.42	1808.36
341.63	1697.77
341.85	1761.25
342.06	1810.40
342.27	1712.10
342.48	1744.87
342.69	1613.80
342.90	1701.86
343.12	1744.87
343.33	1718.25
343.54	1757.16
343.75	1800.16
343.96	1691.62
344.17	1691.62
344.38	1658.85
344.60	1632.23
344.81	1673.19
345.02	1806.31
345.23	1710.05
345.44	1818.60
345.65	1740.77
345.86	1673.19
346.07	1652.71
346.29	1746.92
346.50	1722.34
346.71	1771.49
346.92	1697.77
347.13	1837.03
347.34	1730.53
347.55	1720.29
347.76	1660.90
347.98	1632.23
348.19	1693.67
348.40	1751.01
348.61	1687.53
348.82	1746.92
349.03	1791.97
349.24	1701.86
349.45	1877.99
349.66	1636.33
349.88	1722.34
350.09	1701.86
350.30	1765.35
350.51	1763.30
350.72	1740.77
350.93	1716.20
351.14	1722.34
351.35	1796.07
351.56	1718.25
351.77	1701.86
351.99	1712.10
352.20	1892.32
352.41	1742.82
352.62	1642.47
352.83	1701.86
353.04	1693.67
353.25	1699.81
353.46	1791.97
353.67	1742.82
353.88	1658.85
354.09	1759.21
354.30	1699.81
354.52	1783.78
354.73	1763.30
354.94	1726.44
355.15	1759.21
355.36	1730.53
355.57	1705.96
355.78	1714.15
355.99	1638.38
356.20	1644.52
356.41	1814.50
356.62	1757.16
356.83	1710.05
357.04	1806.31
357.25	1718.25
357.46	1742.82
357.68	1640.42
357.89	1665.00
358.10	1724.39
358.31	1740.77
358.52	1685.48
358.73	1693.67
358.94	1650.66
359.15	1671.14
359.36	1730.53
359.57	1665.00
359.78	1695.72
359.99	1681.38
360.20	1650.66
360.41	1691.62
360.62	1789.92
360.83	1724.39
361.04	1734.63
361.25	1636.33
361.46	1791.97
361.67	1740.77
361.88	1773.54
362.09	1708.01
362.30	1732.58
362.51	1624.04
362.72	1685.48
362.93	1742.82
363.14	1748.97
363.35	1753.06
363.56	1630.18
363.78	1832.93
363.99	1814.50
364.20	1640.42
364.41	1755.11
364.62	1779.68
364.83	1689.57
365.04	1720.29
365.25	1691.62
365.46	1839.08
365.67	1689.57
365.88	1660.90
366.09	1708.01
366.30	1753.06
366.51	1726.44
366.72	1644.52
366.93	1689.57
367.14	1724.39
367.35	1787.88
367.56	1720.29
367.77	1779.68
367.98	1794.02
368.18	1691.62
368.39	1796.07
368.60	1673.19
368.81	1812.45
369.02	1738.73
369.23	1695.72
369.44	1587.18
369.65	1644.52
369.86	1777.64
370.07	1689.57
370.28	1634.28
370.49	1771.49
370.70	1746.92
370.91	1619.94
371.12	1605.61
371.33	1705.96
371.54	1687.53
371.75	1796.07
371.96	1609.70
372.17	1763.30
372.38	1724.39
372.59	1724.39
372.80	1632.23
373.01	1699.81
373.22	1796.07
373.43	1611.75
373.64	1648.61
373.85	1761.25
374.06	1914.85
374.26	1759.21
374.47	1787.88
374.68	1746.92
374.89	1677.29
375.10	1810.40
375.31	1767.40
375.52	1708.01
375.73	1640.42
375.94	1667.05
376.15	1834.98
376.36	1679.33
376.57	1734.63
376.78	1603.56
376.99	1646.57
377.20	1783.78
377.40	1710.05
377.61	1777.64
377.82	1640.42
378.03	1685.48
378.24	1691.62
378.45	1789.92
378.66	1640.42
378.87	1669.09
379.08	1650.66
379.29	1773.54
379.50	1789.92
379.71	1757.16
379.91	1773.54
380.12	1681.38
380.33	1759.21
380.54	1630.18
380.75	1632.23
380.96	1683.43
381.17	1710.05
381.38	1798.12
381.59	1718.25
381.80	1738.73
382.00	1853.41
382.21	1751.01
382.42	1861.60
382.63	1867.75
382.84	1695.72
383.05	1773.54
383.26	1794.02
383.47	1665.00
383.68	1806.31
383.88	1718.25
384.09	1708.01
384.30	1765.35
384.51	1701.86
384.72	1683.43
384.93	1634.28
385.14	1720.29
385.35	1720.29
385.55	1658.85
385.76	1853.41
385.97	1701.86
386.18	1644.52
386.39	1687.53
386.60	1769.44
386.81	1656.81
387.02	1632.23
387.22	1744.87
387.43	1677.29
387.64	1779.68
387.85	1904.61
388.06	2250.72
388.27	4210.62
388.48	6703.00
388.68	8292.23
388.89	9516.91
389.10	9873.26
389.31	8722.30
389.52	7526.29
389.73	6829.98
389.93	6094.76
390.14	6025.12
390.35	5201.84
390.56	4505.53
390.77	3796.93
390.98	3098.58
391.18	2500.57
391.39	2101.22
391.60	1816.55
391.81	1863.65
392.02	1779.68
392.23	1875.94
392.43	1775.59
392.64	1820.64
392.85	1701.86
393.06	1796.07
393.27	1667.05
393.47	1669.09
393.68	1746.92
393.89	1714.15
394.10	1789.92
394.31	1697.77
394.52	1724.39
394.72	1714.15
394.93	1822.69
395.14	1654.76
395.35	1779.68
395.56	1652.71
395.76	1683.43
395.97	1781.73
396.18	1812.45
396.39	1853.41
396.60	2002.91
396.80	1873.89
397.01	1908.71
397.22	1865.70
397.43	1863.65
397.64	1730.53
397.84	1763.30
398.05	1953.76
398.26	1732.58
398.47	1828.84
398.67	1736.68
398.88	1648.61
399.09	1697.77
399.30	1691.62
399.51	1789.92
399.71	1718.25
399.92	1751.01
400.13	1738.73
400.34	1724.39
400.54	1738.73
400.75	1751.01
400.96	1691.62
401.17	1853.41
401.37	1794.02
401.58	1683.43
401.79	1726.44
402.00	1824.74
402.21	2047.97
402.41	1988.58
402.62	2056.16
402.83	2047.97
403.04	1986.53
403.24	2086.88
403.45	1853.41
403.66	1943.52
403.87	1943.52
404.07	1855.46
404.28	1966.05
404.49	2004.96
404.70	1826.79
404.90	1744.87
405.11	1765.35
405.32	1810.40
405.52	1724.39
405.73	1671.14
405.94	1675.24
406.15	1714.15
406.35	1697.77
406.56	1808.36
406.77	1695.72
406.98	1742.82
407.18	1720.29
407.39	1771.49
407.60	1705.96
407.80	1802.21
408.01	1638.38
408.22	1712.10
408.43	1652.71
408.63	1708.01
408.84	1798.12
409.05	1771.49
409.25	1683.43
409.46	1703.91
409.67	1728.49
409.88	1710.05
410.08	1693.67
410.29	1685.48
410.50	1652.71
410.70	1701.86
410.91	1667.05
411.12	1712.10
411.32	1820.64
411.53	1701.86
411.74	1800.16
411.95	1689.57
412.15	1730.53
412.36	1853.41
412.57	1828.84
412.77	1796.07
412.98	1771.49
413.19	1724.39
413.39	1730.53
413.60	1761.25
413.81	1814.50
414.01	1744.87
414.22	1777.64
414.43	1761.25
414.63	1761.25
414.84	1791.97
415.05	1732.58
415.25	1615.85
415.46	1845.22
415.67	1671.14
415.87	1705.96
416.08	1679.33
416.29	1669.09
416.49	1783.78
416.70	1646.57
416.91	1665.00
417.11	1656.81
417.32	1783.78
417.53	1757.16
417.73	1730.53
417.94	1761.25
418.15	1626.09
418.35	1742.82
418.56	1757.16
418.77	1802.21
418.97	1675.24
419.18	1757.16
419.38	1552.36
419.59	1708.01
419.80	1822.69
420.00	1734.63
420.21	1714.15
420.42	1755.11
420.62	1722.34
420.83	1630.18
421.04	1675.24
421.24	1734.63
421.45	1800.16
421.65	1767.40
421.86	1791.97
422.07	1665.00
422.27	1728.49
422.48	1785.83
422.69	1714.15
422.89	1677.29
423.10	1730.53
423.30	1615.85
423.51	1724.39
423.72	1769.44
423.92	1779.68
424.13	1714.15
424.33	1712.10
424.54	1767.40
424.75	1732.58
424.95	1816.55
425.16	1728.49
425.36	1761.25
425.57	1720.29
425.78	1730.53
425.98	1806.31
426.19	1683.43
426.39	1615.85
426.60	1718.25
426.81	1839.08
427.01	1687.53
427.22	1683.43
427.42	1628.14
427.63	1703.91
427.83	1734.63
428.04	1775.59
428.25	1822.69
428.45	1828.84
428.66	1697.77
428.86	1730.53
429.07	1734.63
429.28	1742.82
429.48	1744.87
429.69	1660.90
429.89	1732.58
430.10	1652.71
430.30	1669.09
430.51	1757.16
430.71	1665.00
430.92	1744.87
431.13	1656.81
431.33	1720.29
431.54	1759.21
431.74	1773.54
431.95	1769.44
432.15	1660.90
432.36	1734.63
432.56	1771.49
432.77	1906.66
432.98	1849.32
433.18	1654.76
433.39	1697.77
433.59	1685.48
433.80	1824.74
434.00	1800.16
434.21	1640.42
434.41	1654.76
434.62	1884.13
434.82	1566.70
435.03	1708.01
435.23	1693.67
435.44	1613.80
435.64	1720.29
435.85	1728.49
436.06	1791.97
436.26	1679.33
436.47	1722.34
436.67	1642.47
436.88	1697.77
437.08	1822.69
437.29	1759.21
437.49	1720.29
437.70	1804.26
437.90	1800.16
438.11	1837.03
438.31	1800.16
438.52	1804.26
438.72	1845.22
438.93	1945.57
439.13	1806.31
439.34	1906.66
439.54	1693.67
439.75	1834.98
439.95	1812.45
440.16	1748.97
440.36	1861.60
440.57	1734.63
440.77	1816.55
440.98	1744.87
441.18	1740.77
441.39	1656.81
441.59	1724.39
441.80	1816.55
442.00	1658.85
442.21	1822.69
442.41	1662.95
442.62	1742.82
442.82	1699.81
443.02	1734.63
443.23	1744.87
443.43	1761.25
443.64	1843.17
443.84	1656.81
444.05	1787.88
444.25	1701.86
444.46	1730.53
444.66	1675.24
444.87	1918.95
445.07	1607.66
445.28	1796.07
445.48	1781.73
445.69	1759.21
445.89	1867.75
446.09	1736.68
446.30	1970.15
446.50	2693.08
446.71	3692.49
446.91	4413.37
447.12	4761.53
447.32	4808.63
447.53	4296.64
447.73	3837.89
447.93	3561.42
448.14	3321.81
448.34	3149.78
448.55	2848.72
448.75	2836.44
448.96	2672.60
449.16	2402.27
449.36	2322.40
449.57	2047.97
449.77	1937.38
449.98	1781.73
450.18	1810.40
450.39	1828.84
450.59	1716.20
450.79	1771.49
451.00	1781.73
451.20	1837.03
451.41	1728.49
451.61	1761.25
451.81	1789.92
452.02	1716.20
452.22	1777.64
452.43	1794.02
452.63	1652.71
452.84	1746.92
453.04	1701.86
453.24	1755.11
453.45	1617.90
453.65	1726.44
453.86	1804.26
454.06	1798.12
454.26	1712.10
454.47	1691.62
454.67	1855.46
454.87	1748.97
455.08	1697.77
455.28	1859.56
455.49	1773.54
455.69	1712.10
455.89	1826.79
456.10	1779.68
456.30	1658.85
456.51	1748.97
456.71	1683.43
456.91	1783.78
457.12	1759.21
457.32	1740.77
457.52	1726.44
457.73	1775.59
457.93	1767.40
458.14	1714.15
458.34	1656.81
458.54	1718.25
458.75	1691.62
458.95	1841.12
459.15	1667.05
459.36	1789.92
459.56	1822.69
459.76	1845.22
459.97	1722.34
460.17	1654.76
460.37	1724.39
460.58	1787.88
460.78	1787.88
460.99	1695.72
461.19	1791.97
461.39	1662.95
461.60	1734.63
461.80	1761.25
462.00	1689.57
462.21	1705.96
462.41	1734.63
462.61	1605.61
462.82	1615.85
463.02	1724.39
463.22	1771.49
463.43	1783.78
463.63	1744.87
463.83	1791.97
464.04	1728.49
464.24	1761.25
464.44	1658.85
464.64	1847.27
464.85	1738.73
465.05	1738.73
465.25	1798.12
465.46	1728.49
465.66	1812.45
465.86	1687.53
466.07	1724.39
466.27	1710.05
466.47	1595.37
466.68	1677.29
466.88	1882.08
467.08	1746.92
467.29	1767.40
467.49	1710.05
467.69	1755.11
467.89	1800.16
468.10	1716.20
468.30	1753.06
468.50	1902.56
468.71	1796.07
468.91	1619.94
469.11	1877.99
469.31	1699.81
469.52	1607.66
469.72	1812.45
469.92	1816.55
470.13	1773.54
470.33	1767.40
470.53	1890.28
470.73	2074.59
470.94	2295.77
471.14	2377.69
471.34	2453.47
471.54	2443.23
471.75	2273.25
471.95	2140.13
472.15	2070.50
472.36	2058.21
472.56	2068.45
472.76	1931.23
472.96	2002.91
473.17	1988.58
473.37	1935.33
473.57	1779.68
473.77	1849.32
473.98	1722.34
474.18	1642.47
474.38	1875.94
474.58	1679.33
474.79	1685.48
474.99	1736.68
475.19	1861.60
475.39	1652.71
475.60	1755.11
475.80	1728.49
476.00	1730.53
476.20	1710.05
476.41	1746.92
476.61	1814.50
476.81	1773.54
477.01	1669.09
477.21	1798.12
477.42	1814.50
477.62	1701.86
477.82	1738.73
478.02	1669.09
478.23	1781.73
478.43	1654.76
478.63	1732.58
478.83	1722.34
479.03	1708.01
479.24	1742.82
479.44	1853.41
479.64	1644.52
479.84	1630.18
480.04	1675.24
480.25	1806.31
480.45	1679.33
480.65	1837.03
480.85	1802.21
481.06	1681.38
481.26	1751.01
481.46	1740.77
481.66	1710.05
481.86	1726.44
482.06	1796.07
482.27	1791.97
482.47	1740.77
482.67	1691.62
482.87	1708.01
483.07	1773.54
483.28	1716.20
483.48	1681.38
483.68	1751.01
483.88	1746.92
484.08	1611.75
484.29	1607.66
484.49	1779.68
484.69	1732.58
484.89	1794.02
485.09	1763.30
485.29	1767.40
485.50	1697.77
485.70	1689.57
485.90	1767.40
486.10	1730.53
486.30	1734.63
486.50	1755.11
486.71	1730.53
486.91	1857.51
487.11	1816.55
487.31	1644.52
487.51	1730.53
487.71	1714.15
487.91	1757.16
488.12	1669.09
488.32	1566.70
488.52	1742.82
488.72	1667.05
488.92	1712.10
489.12	1777.64
489.32	1798.12
489.53	1763.30
489.73	1642.47
489.93	1837.03
490.13	1619.94
490.33	1681.38
490.53	1763.30
490.73	1771.49
490.94	1691.62
491.14	1865.70
491.34	1931.23
491.54	2150.37
491.74	2637.78
491.94	2975.70
492.14	3037.14
492.34	2985.94
492.54	2756.57
492.75	2510.81
492.95	2486.23
493.15	2346.97
493.35	2215.90
493.55	2238.43
493.75	2066.40
493.95	2172.89
494.15	2029.54
494.35	1927.14
494.56	1869.80
494.76	1783.78
494.96	1806.31
495.16	1837.03
495.36	1746.92
495.56	1726.44
495.76	1761.25
495.96	1712.10
496.16	1636.33
496.36	1822.69
496.56	1734.63
496.77	1714.15
496.97	1716.20
497.17	1849.32
497.37	1617.90
497.57	1832.93
497.77	1658.85
497.97	1640.42
498.17	1708.01
498.37	1730.53
498.57	1828.84
498.77	1726.44
498.97	1798.12
499.17	1855.46
499.38	1783.78
499.58	1800.16
499.78	1853.41
499.98	1802.21
500.18	1787.88
500.38	1695.72
500.58	1931.23
500.78	2580.44
500.98	4517.82
501.18	5879.72
501.38	6803.35
501.58	7124.88
501.78	6721.43
501.98	5418.93
502.18	5052.34
502.38	4425.66
502.58	4128.70
502.78	3770.31
502.98	3606.47
503.18	3368.91
503.38	3239.89
503.59	2867.16
503.79	2738.13
503.99	2412.51
504.19	2394.08
504.39	2215.90
504.59	2136.03
504.79	2090.98
504.99	2072.54
505.19	1945.57
505.39	1910.75
505.59	2021.35
505.79	1859.56
505.99	1912.80
506.19	1824.74
506.39	1849.32
506.59	1763.30
506.79	1771.49
506.99	1818.60
507.19	1773.54
507.39	1763.30
507.59	1677.29
507.79	1726.44
507.99	1693.67
508.19	1783.78
508.39	1697.77
508.59	1656.81
508.79	1763.30
508.99	1816.55
509.19	1673.19
509.39	1826.79
509.59	1710.05
509.79	1705.96
509.99	1783.78
510.19	1787.88
510.39	1812.45
510.59	1777.64
510.79	1667.05
510.99	1665.00
511.19	1779.68
511.39	1783.78
511.59	1847.27
511.79	1820.64
511.99	1732.58
512.19	1826.79
512.38	1761.25
512.58	1648.61
512.78	1748.97
512.98	1744.87
513.18	1865.70
513.38	1693.67
513.58	1855.46
513.78	1781.73
513.98	1746.92
514.18	1716.20
514.38	1724.39
514.58	1671.14
514.78	1708.01
514.98	1617.90
515.18	1732.58
515.38	1634.28
515.58	1837.03
515.78	1703.91
515.98	1818.60
516.18	1763.30
516.38	1785.83
516.57	1722.34
516.77	1634.28
516.97	1777.64
517.17	1691.62
517.37	1710.05
517.57	1787.88
517.77	1638.38
517.97	1638.38
518.17	1796.07
518.37	1753.06
518.57	1705.96
518.77	1667.05
518.97	1748.97
519.16	1736.68
519.36	1808.36
519.56	1722.34
519.76	1751.01
519.96	1746.92
520.16	1798.12
520.36	1736.68
520.56	1783.78
520.76	1650.66
520.96	1693.67
521.16	1748.97
521.35	1806.31
521.55	1779.68
521.75	1703.91
521.95	1710.05
522.15	1665.00
522.35	1730.53
522.55	1710.05
522.75	1820.64
522.95	1746.92
523.14	1722.34
523.34	1708.01
523.54	1683.43
523.74	1738.73
523.94	1714.15
524.14	1714.15
524.34	1722.34
524.54	1789.92
524.73	1693.67
524.93	1804.26
525.13	1755.11
525.33	1628.14
525.53	1927.14
525.73	1712.10
525.93	1710.05
526.13	1630.18
526.32	1738.73
526.52	1804.26
526.72	1855.46
526.92	1730.53
527.12	1746.92
527.32	1722.34
527.52	1763.30
527.71	1746.92
527.91	1751.01
528.11	1816.55
528.31	1757.16
528.51	1771.49
528.71	1806.31
528.90	1818.60
529.10	1730.53
529.30	1841.12
529.50	1619.94
529.70	1769.44
529.90	1714.15
530.09	1757.16
530.29	1685.48
530.49	1648.61
530.69	1810.40
530.89	1701.86
531.09	1798.12
531.28	1671.14
531.48	1701.86
531.68	1710.05
531.88	1730.53
532.08	1800.16
532.28	1714.15
532.47	1769.44
532.67	1722.34
532.87	1763.30
533.07	1755.11
533.27	1804.26
533.46	1722.34
533.66	1728.49
533.86	1701.86
534.06	1658.85
534.26	1773.54
534.45	1767.40
534.65	1798.12
534.85	1726.44
535.05	1693.67
535.25	1751.01
535.44	1615.85
535.64	1843.17
535.84	1650.66
536.04	1693.67
536.24	1742.82
536.43	1658.85
536.63	1810.40
536.83	1720.29
537.03	1695.72
537.22	1673.19
537.42	1611.75
537.62	1757.16
537.82	1716.20
538.02	1853.41
538.21	1871.84
538.41	1886.18
538.61	1806.31
538.81	1652.71
539.00	1796.07
539.20	1665.00
539.40	1640.42
539.60	1787.88
539.79	1755.11
539.99	1619.94
540.19	1736.68
540.39	1681.38
540.58	1730.53
540.78	1728.49
540.98	1791.97
541.18	1794.02
541.37	1789.92
541.57	1744.87
541.77	1781.73
541.97	1665.00
542.16	1621.99
542.36	1769.44
542.56	1751.01
542.76	1902.56
542.95	1732.58
543.15	1783.78
543.35	1714.15
543.54	1718.25
543.74	1697.77
543.94	1845.22
544.14	1683.43
544.33	1865.70
544.53	1656.81
544.73	1687.53
544.93	1736.68
545.12	1658.85
545.32	1730.53
545.52	1710.05
545.71	1701.86
545.91	1767.40
546.11	1742.82
546.30	1683.43
546.50	1695.72
546.70	1861.60
546.90	1785.83
547.09	1703.91
547.29	1673.19
547.49	1796.07
547.68	1820.64
547.88	1734.63
548.08	1738.73
548.27	2103.26
548.47	1738.73
548.67	1740.77
548.87	1738.73
549.06	1726.44
549.26	1757.16
549.46	1847.27
549.65	1697.77
549.85	1726.44
550.05	1777.64
550.24	1671.14
550.44	1697.77
550.64	1744.87
550.83	1691.62
551.03	1822.69
551.23	1781.73
551.42	1724.39
551.62	1681.38
551.82	1705.96
552.01	1734.63
552.21	1847.27
552.41	1755.11
552.60	1800.16
552.80	1720.29
553.00	1660.90
553.19	1767.40
553.39	1886.18
553.59	1732.58
553.78	1875.94
553.98	1828.84
554.17	1644.52
554.37	1757.16
554.57	1724.39
554.76	1632.23
554.96	1718.25
555.16	1746.92
555.35	1763.30
555.55	1753.06
555.75	1783.78
555.94	1773.54
556.14	1740.77
556.33	1765.35
556.53	1755.11
556.73	1724.39
556.92	1718.25
557.12	1755.11
557.32	1863.65
557.51	1830.88
557.71	1722.34
557.90	1794.02
558.10	1796.07
558.30	1660.90
558.49	1765.35
558.69	1691.62
558.88	1738.73
559.08	1654.76
559.28	1738.73
559.47	1746.92
559.67	1783.78
559.86	1867.75
560.06	1773.54
560.26	1701.86
560.45	1744.87
560.65	1748.97
560.84	1832.93
561.04	1703.91
561.24	1734.63
561.43	1648.61
561.63	1812.45
561.82	1757.16
562.02	1837.03
562.22	1685.48
562.41	1695.72
562.61	1734.63
562.80	1708.01
563.00	1900.52
563.19	1808.36
563.39	1798.12
563.59	1759.21
563.78	1679.33
563.98	1589.22
564.17	1734.63
564.37	1615.85
564.56	1832.93
564.76	1728.49
564.96	1808.36
565.15	1705.96
565.35	1912.80
565.54	1791.97
565.74	1736.68
565.93	1773.54
566.13	1744.87
566.32	1794.02
566.52	1794.02
566.71	1705.96
566.91	1834.98
567.11	1822.69
567.30	1689.57
567.50	1765.35
567.69	1837.03
567.89	1775.59
568.08	1665.00
568.28	1730.53
568.47	1689.57
568.67	1767.40
568.86	1830.88
569.06	1828.84
569.25	1689.57
569.45	1677.29
569.64	1705.96
569.84	1714.15
570.04	1826.79
570.23	1810.40
570.43	1751.01
570.62	1771.49
570.82	1841.12
571.01	1693.67
571.21	1753.06
571.40	1710.05
571.60	1730.53
571.79	1789.92
571.99	1708.01
572.18	1691.62
572.38	1775.59
572.57	1730.53
572.77	1730.53
572.96	1789.92
573.16	1718.25
573.35	1708.01
573.55	1839.08
573.74	1761.25
573.94	1781.73
574.13	1769.44
574.33	1763.30
574.52	1802.21
574.71	1794.02
574.91	1777.64
575.10	1687.53
575.30	1763.30
575.49	1726.44
575.69	1769.44
575.88	1748.97
576.08	1714.15
576.27	1783.78
576.47	1759.21
576.66	1834.98
576.86	1789.92
577.05	1714.15
577.25	1832.93
577.44	1806.31
577.64	1683.43
577.83	1861.60
578.02	1722.34
578.22	1890.28
578.41	1826.79
578.61	1834.98
578.80	1759.21
579.00	1751.01
579.19	1775.59
579.39	1730.53
579.58	1826.79
579.77	1771.49
579.97	1777.64
580.16	1839.08
580.36	1796.07
580.55	1869.80
580.75	1816.55
580.94	1798.12
581.13	1845.22
581.33	1931.23
581.52	1687.53
581.72	1886.18
581.91	1851.36
582.11	1763.30
582.30	1787.88
582.49	1710.05
582.69	1890.28
582.88	1773.54
583.08	1728.49
583.27	1755.11
583.47	1849.32
583.66	1699.81
583.85	1761.25
584.05	1787.88
584.24	1824.74
584.44	1730.53
584.63	1761.25
584.82	1931.23
585.02	1820.64
585.21	1861.60
585.41	1828.84
585.60	1867.75
585.79	1896.42
585.99	1959.91
586.18	1841.12
586.37	2271.20
586.57	3438.54
586.76	9830.25
586.96	24405.64
587.15	34389.49
587.34	40803.73
587.54	42175.87
587.73	36681.17
587.93	26586.73
588.12	21833.39
588.31	18579.17
588.51	16326.41
588.70	15300.37
588.89	14153.51
589.09	12660.54
589.28	11175.77
589.47	9580.40
589.67	8105.86
589.86	6504.35
590.06	4966.32
590.25	3913.67
590.44	3092.43
590.64	2541.53
590.83	2236.38
591.02	2150.37
591.22	1931.23
591.41	1869.80
591.60	1824.74
591.80	1912.80
591.99	1769.44
592.18	1820.64
592.38	1875.94
592.57	1751.01
592.76	1791.97
592.96	1763.30
593.15	1773.54
593.34	1863.65
593.54	1812.45
593.73	1767.40
593.92	1773.54
594.12	1730.53
594.31	1767.40
594.50	1814.50
594.70	1818.60
594.89	1927.14
595.08	1726.44
595.28	1751.01
595.47	1976.29
595.66	1722.34
595.86	1632.23
596.05	1712.10
596.24	1730.53
596.43	1845.22
596.63	1859.56
596.82	1787.88
597.01	1806.31
597.21	1859.56
597.40	1775.59
597.59	1808.36
597.79	1669.09
597.98	1787.88
598.17	1787.88
598.36	1710.05
598.56	1705.96
598.75	1742.82
598.94	1708.01
599.14	1689.57
599.33	1777.64
599.52	1771.49
599.71	1730.53
599.91	1687.53
600.10	1769.44
600.29	1685.48
600.48	1765.35
600.68	1759.21
600.87	1720.29
601.06	1814.50
601.26	1730.53
601.45	1839.08
601.64	1744.87
601.83	1845.22
602.03	1800.16
602.22	1673.19
602.41	1753.06
602.60	1804.26
602.80	1869.80
602.99	1777.64
603.18	1728.49
603.37	1757.16
603.57	1802.21
603.76	1822.69
603.95	1802.21
604.14	1689.57
604.34	1710.05
604.53	1828.84
604.72	1755.11
604.91	1822.69
605.10	1787.88
605.30	1708.01
605.49	1816.55
605.68	1773.54
605.87	1800.16
606.07	1693.67
606.26	1703.91
606.45	1767.40
606.64	1718.25
606.84	1765.35
607.03	1775.59
607.22	1837.03
607.41	1714.15
607.60	1718.25
607.80	1767.40
607.99	1726.44
608.18	1771.49
608.37	1734.63
608.56	1632.23
608.76	1773.54
608.95	1855.46
609.14	1779.68
609.33	1751.01
609.52	1853.41
609.72	1726.44
609.91	1802.21
610.10	1800.16
610.29	1861.60
610.48	1753.06
610.68	1726.44
610.87	1773.54
611.06	1824.74
611.25	1789.92
611.44	1804.26
611.63	1669.09
611.83	1882.08
612.02	1701.86
612.21	1804.26
612.40	1628.14
612.59	1720.29
612.79	1740.77
612.98	1759.21
613.17	1779.68
613.36	1794.02
613.55	1834.98
613.74	1732.58
613.93	1669.09
614.13	1771.49
614.32	1714.15
614.51	1738.73
614.70	1695.72
614.89	1689.57
615.08	1748.97
615.28	2156.51
615.47	1570.79
615.66	1779.68
615.85	1693.67
616.04	1818.60
616.23	1746.92
616.42	1769.44
616.62	1789.92
616.81	1683.43
617.00	1771.49
617.19	1701.86
617.38	1740.77
617.57	1759.21
617.76	1783.78
617.95	1814.50
618.15	1771.49
618.34	1769.44
618.53	1634.28
618.72	1742.82
618.91	1800.16
619.10	1798.12
619.29	1673.19
619.48	1701.86
619.68	1687.53
619.87	1677.29
620.06	1683.43
620.25	1730.53
620.44	1751.01
620.63	1722.34
620.82	1763.30
621.01	1708.01
621.20	1771.49
621.39	1730.53
621.59	1794.02
621.78	1771.49
621.97	1718.25
622.16	1716.20
622.35	1724.39
622.54	1748.97
622.73	1859.56
622.92	1714.15
623.11	1716.20
623.30	1730.53
623.49	1708.01
623.68	1722.34
623.88	1783.78
624.07	1763.30
624.26	1746.92
624.45	1701.86
624.64	1654.76
624.83	1712.10
625.02	1675.24
625.21	1759.21
625.40	1726.44
625.59	1771.49
625.78	1738.73
625.97	1677.29
626.16	1757.16
626.35	1822.69
626.54	1767.40
626.74	1798.12
626.93	1763.30
627.12	1669.09
627.31	1822.69
627.50	1689.57
627.69	1767.40
627.88	1624.04
628.07	1705.96
628.26	1677.29
628.45	1673.19
628.64	1714.15
628.83	1771.49
629.02	1642.47
629.21	1839.08
629.40	1806.31
629.59	1634.28
629.78	1650.66
629.97	1708.01
630.16	1732.58
630.35	1722.34
630.54	1699.81
630.73	1769.44
630.92	1763.30
631.11	1677.29
631.30	1685.48
631.49	1771.49
631.68	1728.49
631.87	1736.68
632.06	1630.18
632.25	1800.16
632.44	1779.68
632.63	1812.45
632.82	1783.78
633.01	1724.39
633.20	1730.53
633.39	1662.95
633.58	1681.38
633.77	1771.49
633.96	1708.01
634.15	1683.43
634.34	1730.53
634.53	1837.03
634.72	1632.23
634.91	1585.13
635.10	1751.01
635.29	1732.58
635.48	1656.81
635.67	1654.76
635.86	1658.85
636.05	1777.64
636.24	1732.58
636.43	1675.24
636.62	1673.19
636.81	1669.09
637.00	1753.06
637.19	1734.63
637.38	1748.97
637.57	1689.57
637.76	1701.86
637.95	1765.35
638.14	1722.34
638.33	1708.01
638.52	1650.66
638.71	1650.66
638.89	1624.04
639.08	1837.03
639.27	1771.49
639.46	1665.00
639.65	1763.30
639.84	1767.40
640.03	1738.73
640.22	1675.24
640.41	1861.60
640.60	1730.53
640.79	1724.39
640.98	1728.49
641.17	1763.30
641.36	1779.68
641.55	1748.97
641.74	1644.52
641.92	1720.29
642.11	1677.29
642.30	1632.23
642.49	1693.67
642.68	1640.42
642.87	1685.48
643.06	1740.77
643.25	1613.80
643.44	1662.95
643.63	1724.39
643.82	1834.98
644.00	1660.90
644.19	1781.73
644.38	1607.66
644.57	1748.97
644.76	1816.55
644.95	1748.97
645.14	1814.50
645.33	1701.86
645.52	1720.29
645.71	1621.99
645.89	1654.76
646.08	1685.48
646.27	1771.49
646.46	1861.60
646.65	1673.19
646.84	1705.96
647.03	1671.14
647.22	1796.07
647.40	1738.73
647.59	1673.19
647.78	1679.33
647.97	1712.10
648.16	1710.05
648.35	1767.40
648.54	1746.92
648.73	1644.52
648.91	1753.06
649.10	1796.07
649.29	1699.81
649.48	1699.81
649.67	1794.02
649.86	1755.11
650.05	1669.09
650.23	1755.11
650.42	1681.38
650.61	1818.60
650.80	1767.40
650.99	1867.75
651.18	1806.31
651.36	1837.03
651.55	1646.57
651.74	1751.01
651.93	1716.20
652.12	1722.34
652.31	1734.63
652.49	1677.29
652.68	1636.33
652.87	1763.30
653.06	1789.92
653.25	1886.18
653.44	1742.82
653.62	1736.68
653.81	1689.57
654.00	1703.91
654.19	1802.21
654.38	1898.47
654.56	1759.21
654.75	1662.95
654.94	1738.73
655.13	1779.68
655.32	1730.53
655.51	1740.77
655.69	1683.43
655.88	1871.84
656.07	1662.95
656.26	1763.30
656.45	1654.76
656.63	1701.86
656.82	1705.96
657.01	1769.44
657.20	1785.83
657.38	1834.98
657.57	1660.90
657.76	1712.10
657.95	1734.63
658.14	1728.49
658.32	1755.11
658.51	1599.46
658.70	1677.29
658.89	1755.11
659.08	1691.62
659.26	1847.27
659.45	1578.98
659.64	1687.53
659.83	1640.42
660.01	1927.14
660.20	1710.05
660.39	1873.89
660.58	1638.38
660.76	1712.10
660.95	1662.95
661.14	1718.25
661.33	1703.91
661.51	1738.73
661.70	1701.86
661.89	1728.49
662.08	1710.05
662.26	1703.91
662.45	1683.43
662.64	1785.83
662.83	1787.88
663.01	1634.28
663.20	1658.85
663.39	1777.64
663.58	1675.24
663.76	1726.44
663.95	1746.92
664.14	1697.77
664.32	1732.58
664.51	1658.85
664.70	1660.90
664.89	1728.49
665.07	1640.42
665.26	1845.22
665.45	1718.25
665.64	1755.11
665.82	1804.26
666.01	1787.88
666.20	1714.15
666.38	1785.83
666.57	1726.44
666.76	2193.37
666.95	4501.44
667.13	10477.41
667.32	15425.30
667.51	18136.81
667.69	19287.77
667.88	17927.92
668.07	12314.44
668.25	9621.36
668.44	8179.59
668.63	7354.26
668.81	6879.13
669.00	6348.70
669.19	5701.54
669.38	5220.27
669.56	4550.59
669.75	3954.63
669.94	3442.64
670.12	2930.64
670.31	2592.73
670.50	2338.78
670.68	2052.06
670.87	1992.67
671.06	1847.27
671.24	1791.97
671.43	1871.84
671.62	1765.35
671.80	1691.62
671.99	1773.54
672.18	1804.26
672.36	1753.06
672.55	1740.77
672.74	1765.35
672.92	1685.48
673.11	1757.16
673.29	1716.20
673.48	1777.64
673.67	1710.05
673.85	1830.88
674.04	1701.86
674.23	1685.48
674.41	1718.25
674.60	1695.72
674.79	1595.37
674.97	1589.22
675.16	1712.10
675.34	1728.49
675.53	1685.48
675.72	1787.88
675.90	1779.68
676.09	1658.85
676.28	1787.88
676.46	1583.08
676.65	1751.01
676.83	1652.71
677.02	1720.29
677.21	1740.77
677.39	1814.50
677.58	1607.66
677.77	1691.62
677.95	1710.05
678.14	1665.00
678.32	1710.05
678.51	1767.40
678.70	1875.94
678.88	1681.38
679.07	1691.62
679.25	1667.05
679.44	1798.12
679.63	1626.09
679.81	1710.05
680.00	1751.01
680.18	1703.91
680.37	1781.73
680.55	1695.72
680.74	1701.86
680.93	1628.14
681.11	1695.72
681.30	1748.97
681.48	1701.86
681.67	1775.59
681.85	1685.48
682.04	1681.38
682.23	1763.30
682.41	1773.54
682.60	1708.01
682.78	1701.86
682.97	1624.04
683.15	1714.15
683.34	1742.82
683.53	1828.84
683.71	1648.61
683.90	1789.92
684.08	1810.40
684.27	1701.86
684.45	1689.57
684.64	1841.12
684.82	1767.40
685.01	1720.29
685.19	1716.20
685.38	1712.10
685.57	1808.36
685.75	1691.62
685.94	1738.73
686.12	1613.80
686.31	1720.29
686.49	1828.84
686.68	1642.47
686.86	1685.48
687.05	1736.68
687.23	1841.12
687.42	1689.57
687.60	1687.53
687.79	1736.68
687.97	1826.79
688.16	1751.01
688.34	1837.03
688.53	1632.23
688.71	1722.34
688.90	1804.26
689.08	1738.73
689.27	1671.14
689.45	1800.16
689.64	1781.73
689.82	1642.47
690.01	1748.97
690.19	1753.06
690.38	1708.01
690.56	1755.11
690.75	1689.57
690.93	1650.66
691.12	1669.09
691.30	1755.11
691.49	1662.95
691.67	1757.16
691.86	1837.03
692.04	1746.92
692.23	1624.04
692.41	1679.33
692.60	1802.21
692.78	1742.82
692.97	1671.14
693.15	1744.87
693.34	1789.92
693.52	1718.25
693.71	1722.34
693.89	1650.66
694.08	1699.81
694.26	1736.68
694.44	1751.01
694.63	1703.91
694.81	1681.38
695.00	1726.44
695.18	1779.68
695.37	1791.97
695.55	1722.34
695.74	1720.29
695.92	1634.28
696.10	1742.82
696.29	1665.00
696.47	1646.57
696.66	1613.80
696.84	1738.73
697.03	1669.09
697.21	1888.23
697.40	2291.68
697.58	1785.83
697.76	1740.77
697.95	1720.29
698.13	1648.61
698.32	1669.09
698.50	1730.53
698.68	1738.73
698.87	1798.12
699.05	1865.70
699.24	1730.53
699.42	1662.95
699.61	1744.87
699.79	1753.06
699.97	1732.58
700.16	1757.16
700.34	1662.95
700.53	1806.31
700.71	1837.03
700.89	1755.11
701.08	1689.57
701.26	1705.96
701.45	2047.97
701.63	1609.70
701.81	1681.38
702.00	1693.67
702.18	1701.86
702.37	1660.90
702.55	1796.07
702.73	1730.53
702.92	1626.09
703.10	1714.15
703.28	1693.67
703.47	1640.42
703.65	1820.64
703.84	1757.16
704.02	1677.29
704.20	1861.60
704.39	1667.05
704.57	1708.01
704.75	1769.44
704.94	1701.86
705.12	1755.11
705.30	1814.50
705.49	2295.77
705.67	4347.84
705.86	9324.40
706.04	12769.09
706.22	14481.19
706.41	15396.63
706.59	13739.82
706.77	9633.64
706.96	7458.70
707.14	6637.47
707.32	5853.09
707.51	5636.01
707.69	4847.54
707.87	4151.23
708.06	3559.37
708.24	3000.27
708.42	2469.85
708.61	2242.53
708.79	1984.48
708.97	1890.28
709.16	1771.49
709.34	1802.21
709.52	1789.92
709.71	1751.01
709.89	1742.82
710.07	1675.24
710.26	1593.32
710.44	1675.24
710.62	1826.79
710.80	1677.29
710.99	1695.72
711.17	1685.48
711.35	1611.75
711.54	1714.15
711.72	1787.88
711.90	1722.34
712.09	1783.78
712.27	1665.00
712.45	1796.07
712.63	1691.62
712.82	1736.68
713.00	1767.40
713.18	1787.88
713.37	1808.36
713.55	1757.16
713.73	1740.77
713.91	1773.54
714.10	1710.05
714.28	1761.25
714.46	1703.91
714.65	1781.73
714.83	1814.50
715.01	1662.95
715.19	1714.15
715.38	1652.71
715.56	1761.25
715.74	1677.29
715.92	1642.47
716.11	1769.44
716.29	1667.05
716.47	1701.86
716.65	1724.39
716.84	1701.86
717.02	1716.20
717.20	1595.37
717.38	1685.48
717.57	1644.52
717.75	1710.05
717.93	1642.47
718.11	1746.92
718.30	1728.49
718.48	1656.81
718.66	1769.44
718.84	1820.64
719.03	1691.62
719.21	1667.05
719.39	1777.64
719.57	1765.35
719.75	1802.21
719.94	1710.05
720.12	1726.44
720.30	1691.62
720.48	1806.31
720.67	1691.62
720.85	1693.67
721.03	1708.01
721.21	1603.56
721.39	1779.68
721.58	1703.91
721.76	1697.77
721.94	1730.53
722.12	1738.73
722.30	1763.30
722.49	1703.91
722.67	1703.91
722.85	1644.52
723.03	1632.23
723.21	1681.38
723.40	1751.01
723.58	1767.40
723.76	1744.87
723.94	1810.40
724.12	1695.72
724.30	1781.73
724.49	1787.88
724.67	1644.52
724.85	1791.97
725.03	1687.53
725.21	1681.38
725.40	1791.97
725.58	1662.95
725.76	1753.06
725.94	1722.34
726.12	1660.90
726.30	1677.29
726.49	1773.54
726.67	1736.68
726.85	1763.30
727.03	1820.64
727.21	2082.78
727.39	2928.60
727.57	3706.82
727.76	4216.77
727.94	4495.29
728.12	4358.08
728.30	3753.93
728.48	2949.08
728.66	2707.41
728.84	2525.15
729.03	2330.59
729.21	2193.37
729.39	2035.68
729.57	1832.93
729.75	1820.64
729.93	1783.78
730.11	1703.91
730.30	1716.20
730.48	1687.53
730.66	1808.36
730.84	1779.68
731.02	1712.10
731.20	1615.85
731.38	1751.01
731.56	1667.05
731.74	1669.09
731.93	1679.33
732.11	1667.05
732.29	1685.48
732.47	1744.87
732.65	1738.73
732.83	1804.26
733.01	1701.86
733.19	1732.58
733.37	1748.97
733.56	1802.21
733.74	1710.05
733.92	1761.25
734.10	1648.61
734.28	1773.54
734.46	1683.43
734.64	1681.38
734.82	1710.05
735.00	1658.85
735.18	1714.15
735.36	1691.62
735.54	1724.39
735.73	1734.63
735.91	1710.05
736.09	1757.16
736.27	1734.63
736.45	1685.48
736.63	1648.61
736.81	1675.24
736.99	1734.63
737.17	1775.59
737.35	1726.44
737.53	1746.92
737.71	1703.91
737.89	1767.40
738.07	1687.53
738.25	1669.09
738.43	1685.48
738.61	1753.06
738.80	1714.15
738.98	1636.33
739.16	1646.57
739.34	1714.15
739.52	1769.44
739.70	1660.90
739.88	1802.21
740.06	1779.68
740.24	1570.79
740.42	1832.93
740.60	1621.99
740.78	1599.46
740.96	1640.42
741.14	1656.81
741.32	1705.96
741.50	1658.85
741.68	1863.65
741.86	1800.16
742.04	1640.42
742.22	1689.57
742.40	1656.81
742.58	1751.01
742.76	1693.67
742.94	1765.35
743.12	1617.90
743.30	1687.53
743.48	1755.11
743.66	1708.01
743.84	1705.96
744.02	1742.82
744.20	1681.38
744.38	1640.42
744.56	1665.00
744.74	1732.58
744.92	1693.67
745.10	1791.97
745.28	1740.77
745.46	1863.65
745.64	1689.57
745.82	1791.97
746.00	1687.53
746.18	1755.11
746.36	1697.77
746.54	1677.29
746.72	1681.38
746.90	1658.85
747.08	1748.97
747.26	1646.57
747.44	1771.49
747.62	1734.63
747.80	1697.77
747.98	1773.54
748.15	1691.62
748.33	1814.50
748.51	1738.73
748.69	1773.54
748.87	1669.09
749.05	1685.48
749.23	1730.53
749.41	1712.10
749.59	1712.10
749.77	1804.26
749.95	1687.53
750.13	1705.96
750.31	1777.64
750.49	1652.71
750.67	1794.02
750.85	1771.49
751.03	1738.73
751.20	1847.27
751.38	1712.10
751.56	1665.00
751.74	1730.53
751.92	1681.38
752.10	1720.29
752.28	1746.92
752.46	1693.67
752.64	1683.43
752.82	1662.95
753.00	1732.58
753.18	1671.14
753.35	1734.63
753.53	1722.34
753.71	1662.95
753.89	1787.88
754.07	1742.82
754.25	1732.58
754.43	1730.53
754.61	1621.99
754.79	1726.44
754.97	1722.34
755.14	1814.50
755.32	1660.90
755.50	1679.33
755.68	1746.92
755.86	1691.62
756.04	1650.66
756.22	1595.37
756.40	1742.82
756.57	1845.22
756.75	1687.53
756.93	1732.58
757.11	1763.30
757.29	1662.95
757.47	1660.90
757.65	1613.80
757.82	1572.84
758.00	1683.43
758.18	1632.23
758.36	1652.71
758.54	1818.60
758.72	1650.66
758.90	1728.49
759.07	1716.20
759.25	1636.33
759.43	1730.53
759.61	1748.97
759.79	2191.33
759.97	1759.21
760.15	1619.94
760.32	1701.86
760.50	1738.73
760.68	1798.12
760.86	1609.70
761.04	1808.36
761.22	1826.79
761.39	1720.29
761.57	1728.49
761.75	1673.19
761.93	1738.73
762.11	1658.85
762.28	1736.68
762.46	1665.00
762.64	1779.68
762.82	1626.09
763.00	1689.57
763.18	1779.68
763.35	1626.09
763.53	1859.56
763.71	1701.86
763.89	1697.77
764.07	1716.20
764.24	1652.71
764.42	1777.64
764.60	1693.67
764.78	1675.24
764.96	1855.46
765.13	1820.64
765.31	1708.01
765.49	1781.73
765.67	1673.19
765.84	1691.62
766.02	1677.29
766.20	1640.42
766.38	1673.19
766.56	1761.25
766.73	1738.73
766.91	1673.19
767.09	1742.82
767.27	1773.54
767.44	1636.33
767.62	1732.58
767.80	1724.39
767.98	1660.90
768.15	1712.10
768.33	1800.16
768.51	1765.35
768.69	1789.92
768.87	1777.64
769.04	1689.57
769.22	1867.75
769.40	1812.45
769.58	1810.40
769.75	1669.09
769.93	1755.11
770.11	1636.33
770.28	1683.43
770.46	1742.82
770.64	1759.21
770.82	1656.81
770.99	1734.63
771.17	1789.92
771.35	1658.85
771.53	1693.67
771.70	1718.25
771.88	1730.53
772.06	1650.66
772.23	1675.24
772.41	1775.59
772.59	1683.43
772.77	1681.38
772.94	1710.05
773.12	1746.92
773.30	1685.48
773.47	1714.15
773.65	1671.14
773.83	1728.49
774.01	1646.57
774.18	1601.51
774.36	1718.25
774.54	1673.19
774.71	1726.44
774.89	1681.38
775.07	1669.09
775.24	1681.38
775.42	1705.96
775.60	1839.08
775.78	1650.66
775.95	1595.37
776.13	1597.42
776.31	1603.56
776.48	1712.10
776.66	1808.36
776.84	1695.72
777.01	1640.42
777.19	1677.29
777.37	1677.29
777.54	1763.30
777.72	1779.68
777.90	1738.73
778.07	1652.71
778.25	1910.75
778.43	1693.67
778.60	1669.09
778.78	1746.92
778.96	1757.16
779.13	1660.90
779.31	1720.29
779.49	1718.25
779.66	1773.54
779.84	1753.06
780.01	1669.09
780.19	1689.57
780.37	1763.30
780.54	1781.73
780.72	1708.01
780.90	1755.11
781.07	1654.76
781.25	1665.00
781.43	1781.73
781.60	1648.61
781.78	1796.07
781.95	1759.21
782.13	1662.95
782.31	1804.26
782.48	1665.00
782.66	1751.01
782.83	1822.69
783.01	1714.15
783.19	1759.21
783.36	1597.42
783.54	1652.71
783.72	1746.92
783.89	1724.39
784.07	1763.30
784.24	1730.53
784.42	1812.45
784.60	1722.34
784.77	1779.68
784.95	1611.75
785.12	1638.38
785.30	1742.82
785.47	1632.23
785.65	1683.43
785.83	1642.47
786.00	1673.19
786.18	1718.25
786.35	1650.66
786.53	1681.38
786.71	1796.07
786.88	1744.87
787.06	1775.59
787.23	1730.53
787.41	1656.81
787.58	1716.20
787.76	1640.42
787.94	1732.58
788.11	1734.63
788.29	1703.91
788.46	1656.81
788.64	1644.52
788.81	1689.57
788.99	1632.23
789.16	1591.27
789.34	1662.95
789.52	1642.47
789.69	1652.71
789.87	1595.37
790.04	1646.57
790.22	1665.00
790.39	1806.31
790.57	1656.81
790.74	1665.00
790.92	1748.97
791.09	1605.61
791.27	1763.30
791.44	1839.08
791.62	1705.96
791.79	1843.17
791.97	1720.29
792.15	1898.47
792.32	1746.92
792.50	1697.77
792.67	1859.56
792.85	1734.63
793.02	1681.38
793.20	1638.38
793.37	1556.46
793.55	1722.34
793.72	1605.61
793.90	1714.15
794.07	1689.57
794.25	1705.96
794.42	1732.58
794.60	1701.86
794.77	1775.59
794.95	1759.21
795.12	1738.73
795.30	1718.25
795.47	1673.19
795.65	1943.52
795.82	1759.21
796.00	1681.38
796.17	1751.01
796.34	1632.23
796.52	1724.39
796.69	1726.44
796.87	1724.39
797.04	1757.16
797.22	1779.68
797.39	1718.25
797.57	1691.62
797.74	1695.72
797.92	1746.92
798.09	1755.11
798.27	1771.49
798.44	1759.21
798.62	1691.62
798.79	1728.49
798.96	1738.73
799.14	1724.39
799.31	1798.12
799.49	1687.53
799.66	1619.94
799.84	1697.77
800.01	1669.09
800.19	1724.39
800.36	1667.05
800.53	1732.58
800.71	1710.05
800.88	1771.49
801.06	1685.48
801.23	1640.42
801.41	1648.61
801.58	1714.15
801.75	1669.09
801.93	1699.81
802.10	1669.09
802.28	1708.01
802.45	1722.34
802.63	1691.62
802.80	1740.77
802.97	1679.33
803.15	1722.34
803.32	1712.10
803.50	1656.81
803.67	1617.90
803.84	1660.90
804.02	1695.72
804.19	1697.77
804.37	1599.46
804.54	1613.80
804.71	1656.81
804.89	1701.86
805.06	1599.46
805.24	1673.19
805.41	1669.09
805.58	1701.86
805.76	1859.56
805.93	1683.43
806.10	1789.92
806.28	1744.87
806.45	1705.96
806.63	1662.95
806.80	1669.09
806.97	1714.15
807.15	1718.25
807.32	1779.68
807.49	1761.25
807.67	1665.00
807.84	1724.39
808.01	1683.43
808.19	1892.32
808.36	1767.40
808.54	1611.75
808.71	1648.61
808.88	1724.39
809.06	1703.91
809.23	1765.35
809.40	1701.86
809.58	1744.87
809.75	1660.90
809.92	1636.33
810.10	1820.64
810.27	1671.14
810.44	1771.49
810.62	1748.97
810.79	1691.62
810.96	1640.42
811.14	1673.19
811.31	1691.62
811.48	1798.12
811.66	1683.43
811.83	1673.19
812.00	1701.86
812.18	1804.26
812.35	1789.92
812.52	1724.39
812.69	1697.77
812.87	1693.67
813.04	1669.09
813.21	1705.96
813.39	1683.43
813.56	1609.70
813.73	1689.57
813.91	1619.94
814.08	1714.15
814.25	1658.85
814.42	1658.85
814.60	1685.48
814.77	1679.33
814.94	1710.05
815.12	1718.25
815.29	1794.02
815.46	1730.53
815.63	1718.25
815.81	1714.15
815.98	1728.49
816.15	1712.10
816.33	1675.24
816.50	1667.05
816.67	1716.20
816.84	1695.72
817.02	1673.19
817.19	1669.09
817.36	1728.49
817.53	1746.92
817.71	1648.61
817.88	1714.15
818.05	1734.63
818.22	1734.63
818.40	1789.92
818.57	1751.01
818.74	1720.29
818.91	1746.92
819.09	1677.29
819.26	1757.16
819.43	1667.05
819.60	1642.47
819.78	1689.57
819.95	1779.68
820.12	1669.09
820.29	1796.07
820.47	1701.86
820.64	1607.66
820.81	1708.01
820.98	1665.00
821.15	1703.91
821.33	1757.16
821.50	1640.42
821.67	1720.29
821.84	1722.34
822.02	1703.91
822.19	1773.54
822.36	1695.72
822.53	1748.97
822.70	1675.24
822.88	1681.38
823.05	1757.16
823.22	1665.00
823.39	1781.73
823.56	1701.86
823.74	1740.77
823.91	1628.14
824.08	1607.66
824.25	1626.09
824.42	1859.56
824.60	1683.43
824.77	1703.91
824.94	1703.91
825.11	1726.44
825.28	1558.50
825.45	1746.92
825.63	1802.21
825.80	1689.57
825.97	1771.49
826.14	1685.48
826.31	1597.42
826.48	1722.34
826.66	1710.05
826.83	1683.43
827.00	1656.81
827.17	1621.99
827.34	1685.48
827.51	1642.47
827.69	1656.81
827.86	1595.37
828.03	1761.25
828.20	1751.01
828.37	1763.30
828.54	1732.58
828.71	1701.86
828.89	1759.21
829.06	1628.14
829.23	1669.09
829.40	1646.57
829.57	1689.57
829.74	1714.15
829.91	1658.85
830.09	1652.71
830.26	1744.87
830.43	1816.55
830.60	1724.39
830.77	1718.25
830.94	1843.17
831.11	1720.29
831.28	1656.81
831.46	1755.11
831.63	1736.68
831.80	1730.53
831.97	1667.05
832.14	1677.29
832.31	1712.10
832.48	1726.44
832.65	1802.21
832.82	1701.86
832.99	1697.77
833.17	1693.67
833.34	1757.16
833.51	1660.90
833.68	1609.70
833.85	1759.21
834.02	1710.05
834.19	1677.29
834.36	1665.00
834.53	1781.73
834.70	1718.25
834.87	1775.59
835.04	1755.11
835.22	1652.71
835.39	1673.19
835.56	1601.51
835.73	1619.94
835.90	1781.73
836.07	1621.99
836.24	1773.54
836.41	1634.28
836.58	1648.61
836.75	1759.21
836.92	1730.53
837.09	1726.44
837.26	1714.15
837.43	1685.48
837.60	1699.81
837.77	1705.96
837.94	1697.77
838.12	1880.04
838.29	1695.72
838.46	1646.57
838.63	1679.33
838.80	1742.82
838.97	1785.83
839.14	1638.38
839.31	1714.15
839.48	1732.58
839.65	1691.62
839.82	1744.87
839.99	1748.97
840.16	1693.67
840.33	1609.70
840.50	1703.91
840.67	1685.48
840.84	1632.23
841.01	1624.04
841.18	1714.15
841.35	1673.19
841.52	1755.11
841.69	1824.74
841.86	1757.16
842.03	1697.77
842.20	1781.73
842.37	1785.83
842.54	1708.01
842.71	1753.06
842.88	1615.85
843.05	1734.63
843.22	1640.42
843.39	1693.67
843.56	1746.92
843.73	1730.53
843.90	1734.63
844.07	1720.29
844.24	1736.68
844.41	1732.58
844.58	1701.86
844.75	1777.64
844.92	1753.06
845.09	1716.20
845.26	1667.05
845.43	1765.35
845.60	1642.47
845.77	1714.15
845.94	1751.01
846.10	1705.96
846.27	1609.70
846.44	1640.42
846.61	1724.39
846.78	1724.39
846.95	1693.67
847.12	1718.25
847.29	1652.71
847.46	1626.09
847.63	1841.12
847.80	1757.16
847.97	1673.19
848.14	1791.97
848.31	1726.44
848.48	1617.90
848.65	1728.49
848.82	1671.14
848.98	1839.08
849.15	1693.67
849.32	1882.08
849.49	1744.87
849.66	1769.44
849.83	1673.19
850.00	1644.52
850.17	1787.88
850.34	1693.67
850.51	1677.29
850.68	1683.43
850.85	1808.36
851.01	1714.15
851.18	1777.64
851.35	1665.00
851.52	1748.97
851.69	1730.53
851.86	1636.33
852.03	1722.34
852.20	1728.49
852.37	1738.73
852.53	1624.04
852.70	1658.85
852.87	1714.15
853.04	1810.40
853.21	1695.72
853.38	1779.68
853.55	1708.01
853.72	1804.26
853.89	1636.33
854.05	1638.38
854.22	1611.75
854.39	1714.15
854.56	1839.08
854.73	1787.88
854.90	1638.38
855.07	1607.66
855.23	1656.81
855.40	1701.86
855.57	1693.67
855.74	1611.75
855.91	1935.33
856.08	1691.62
856.25	1611.75
856.41	1701.86
856.58	1660.90
856.75	1771.49
856.92	1693.67
857.09	1730.53
857.26	1671.14
857.42	1683.43
857.59	1691.62
857.76	1673.19
857.93	1738.73
858.10	1665.00
858.27	1613.80
858.43	1781.73
858.60	1673.19
858.77	1603.56
858.94	1703.91
859.11	1767.40
859.27	1673.19
859.44	1730.53
859.61	1773.54
859.78	1773.54
859.95	1738.73
860.12	1697.77
860.28	1785.83
860.45	1753.06
860.62	1679.33
860.79	1652.71
860.95	1751.01
861.12	1658.85
861.29	1644.52
861.46	1644.52
861.63	1693.67
861.79	1681.38
861.96	1660.90
862.13	1640.42
862.30	1755.11
862.47	1673.19
862.63	1638.38
862.80	1757.16
862.97	1732.58
863.14	1710.05
863.30	1757.16
863.47	1658.85
863.64	1814.50
863.81	1705.96
863.97	1689.57
864.14	1773.54
864.31	1712.10
864.48	1785.83
864.65	1665.00
864.81	1714.15
864.98	1712.10
865.15	1679.33
865.32	1708.01
865.48	1722.34
865.65	1753.06
865.82	1691.62
865.98	1683.43
866.15	1722.34
866.32	1738.73
866.49	1662.95
866.65	1742.82
866.82	1683.43
866.99	1705.96
867.16	1755.11
867.32	1697.77
867.49	1726.44
867.66	1677.29
867.83	1771.49
867.99	1671.14
868.16	1687.53
868.33	1638.38
868.49	1789.92
868.66	1683.43
868.83	1691.62
868.99	1771.49
869.16	1787.88
869.33	1746.92
869.50	1742.82
869.66	1720.29
869.83	1638.38
870.00	1677.29
870.16	1769.44
870.33	1757.16
870.50	1738.73
870.66	1695.72
870.83	1816.55
871.00	1695.72
871.17	1732.58
871.33	1730.53
871.50	1634.28
871.67	1720.29
871.83	1558.50
872.00	1828.84
872.17	1695.72
872.33	1816.55
872.50	1708.01
872.67	1687.53
872.83	1722.34
873.00	1689.57
873.17	1728.49
873.33	1738.73
873.50	1804.26
873.67	1619.94
873.83	1640.42
874.00	1652.71
874.16	1677.29
874.33	1726.44
874.50	1671.14
874.66	1757.16
874.83	1695.72
875.00	1775.59
875.16	1804.26
875.33	1800.16
875.50	1611.75
875.66	1685.48
875.83	1740.77
875.99	1785.83
876.16	1695.72
876.33	1617.90
876.49	1636.33
876.66	1796.07
876.83	1740.77
876.99	1562.60
877.16	1619.94
877.32	1648.61
877.49	1642.47
877.66	1720.29
877.82	1810.40
877.99	1685.48
878.15	1763.30
878.32	1681.38
878.49	1652.71
878.65	1701.86
878.82	1798.12
878.98	1697.77
879.15	1767.40
879.32	1751.01
879.48	1697.77
879.65	1673.19
879.81	1693.67
879.98	1648.61
880.15	1763.30
880.31	1826.79
880.48	1644.52
880.64	1787.88
880.81	1658.85
880.97	1781.73
881.14	1693.67
881.31	1681.38
881.47	1816.55
881.64	1662.95
881.80	1656.81
881.97	1656.81
882.13	1736.68
882.30	1757.16
882.47	1572.84
882.63	1615.85
882.80	1667.05
882.96	1742.82
883.13	1800.16
883.29	1763.30
883.46	1759.21
883.62	1933.28
883.79	1708.01
883.95	1712.10
884.12	1691.62
884.29	1794.02
884.45	1814.50
884.62	1675.24
884.78	1703.91
884.95	1834.98
885.11	1683.43
885.28	1712.10
885.44	1628.14
885.61	1642.47
885.77	1732.58
885.94	1798.12
886.10	1699.81
886.27	1708.01
886.43	1794.02
886.60	1740.77
886.76	1648.61
886.93	1726.44
887.09	1765.35
887.26	1642.47
887.42	1710.05
887.59	1796.07
887.75	1853.41
887.92	1736.68
888.08	1779.68
888.25	1785.83
888.41	1738.73
888.58	1710.05
888.74	1673.19
888.91	1644.52
>>>>>End Processed Spectral Data<<<<<
