SpectraSuite Data File
++++++++++++++++++++++++++++++++++++
Date: Mon Jun 06 16:37:57 CEST 2016
User: root
Dark Spectrum Present: No
Reference Spectrum Present: No
Number of Sampled Component Spectra: 1
Spectrometers: USB4C02835
Integration Time (usec): 100000 (USB4C02835)
Spectra Averaged: 1 (USB4C02835)
Boxcar Smoothing: 0 (USB4C02835)
Correct for Electrical Dark: No (USB4C02835)
Strobe/Lamp Enabled: No (USB4C02835)
Correct for Detector Non-linearity: No (USB4C02835)
Correct for Stray Light: No (USB4C02835)
Number of Pixels in Processed Spectrum: 3648
>>>>>Begin Processed Spectral Data<<<<<
177.47	1486.83
177.69	1486.83
177.91	1486.83
178.13	1452.01
178.36	1462.25
178.58	1728.49
178.80	1695.72
179.02	1556.46
179.24	1681.38
179.46	1675.24
179.68	1802.21
179.90	1738.73
180.13	1642.47
180.35	1658.85
180.57	1675.24
180.79	1832.93
181.01	1724.39
181.23	1738.73
181.45	1787.88
181.67	1742.82
181.90	1783.78
182.12	1693.67
182.34	1679.33
182.56	1763.30
182.78	1759.21
183.00	1695.72
183.22	1755.11
183.44	1632.23
183.66	1839.08
183.89	1738.73
184.11	1630.18
184.33	1837.03
184.55	1818.60
184.77	1699.81
184.99	1687.53
185.21	1652.71
185.43	1849.32
185.65	1701.86
185.87	1732.58
186.10	1789.92
186.32	1763.30
186.54	1742.82
186.76	1742.82
186.98	1724.39
187.20	1804.26
187.42	1679.33
187.64	1714.15
187.86	1744.87
188.08	1773.54
188.30	1738.73
188.52	1619.94
188.75	1701.86
188.97	1779.68
189.19	1689.57
189.41	1718.25
189.63	1751.01
189.85	1660.90
190.07	1632.23
190.29	1624.04
190.51	1685.48
190.73	1609.70
190.95	1808.36
191.17	1710.05
191.39	1660.90
191.61	1675.24
191.84	1654.76
192.06	1761.25
192.28	1644.52
192.50	1810.40
192.72	1730.53
192.94	1751.01
193.16	1730.53
193.38	1708.01
193.60	1624.04
193.82	1710.05
194.04	1783.78
194.26	1667.05
194.48	1738.73
194.70	1662.95
194.92	1648.61
195.14	1802.21
195.36	1650.66
195.58	1705.96
195.80	1624.04
196.02	1712.10
196.24	1705.96
196.46	1787.88
196.69	1607.66
196.91	1845.22
197.13	1767.40
197.35	1701.86
197.57	1851.36
197.79	1794.02
198.01	1832.93
198.23	1685.48
198.45	1722.34
198.67	1560.55
198.89	1687.53
199.11	1710.05
199.33	1619.94
199.55	1591.27
199.77	1712.10
199.99	1751.01
200.21	1619.94
200.43	1722.34
200.65	1624.04
200.87	1583.08
201.09	1759.21
201.31	1642.47
201.53	1751.01
201.75	1718.25
201.97	1705.96
202.19	1708.01
202.41	1738.73
202.63	1771.49
202.85	1787.88
203.07	1789.92
203.29	1613.80
203.51	1632.23
203.73	1683.43
203.95	1859.56
204.17	1734.63
204.39	1779.68
204.61	1748.97
204.83	1734.63
205.05	1693.67
205.27	1755.11
205.49	1832.93
205.71	1671.14
205.93	1605.61
206.15	1599.46
206.37	1677.29
206.59	1726.44
206.81	1656.81
207.03	1683.43
207.25	1593.32
207.47	1773.54
207.69	1683.43
207.91	1867.75
208.13	1867.75
208.34	1652.71
208.56	1591.27
208.78	1800.16
209.00	1705.96
209.22	1781.73
209.44	1675.24
209.66	1628.14
209.88	1705.96
210.10	1683.43
210.32	1789.92
210.54	1789.92
210.76	1703.91
210.98	1773.54
211.20	1583.08
211.42	1703.91
211.64	1742.82
211.86	1765.35
212.08	1703.91
212.30	1710.05
212.52	1689.57
212.74	1740.77
212.96	1710.05
213.17	1708.01
213.39	1724.39
213.61	1808.36
213.83	1701.86
214.05	1636.33
214.27	1757.16
214.49	1665.00
214.71	1638.38
214.93	1837.03
215.15	1695.72
215.37	1705.96
215.59	1619.94
215.81	1771.49
216.03	1787.88
216.24	1691.62
216.46	1755.11
216.68	1665.00
216.90	1775.59
217.12	1826.79
217.34	1656.81
217.56	1802.21
217.78	1785.83
218.00	1714.15
218.22	1650.66
218.44	1667.05
218.66	1767.40
218.87	1761.25
219.09	1718.25
219.31	1808.36
219.53	1748.97
219.75	1665.00
219.97	1703.91
220.19	1626.09
220.41	1685.48
220.63	1722.34
220.85	1755.11
221.06	1691.62
221.28	1787.88
221.50	1787.88
221.72	1654.76
221.94	1679.33
222.16	1712.10
222.38	1658.85
222.60	1767.40
222.82	1669.09
223.03	1773.54
223.25	1679.33
223.47	1773.54
223.69	1742.82
223.91	1767.40
224.13	1689.57
224.35	1669.09
224.57	1804.26
224.78	1804.26
225.00	1617.90
225.22	1660.90
225.44	1736.68
225.66	1753.06
225.88	1714.15
226.10	1787.88
226.32	1771.49
226.53	1808.36
226.75	1673.19
226.97	1722.34
227.19	1669.09
227.41	1638.38
227.63	1724.39
227.85	1613.80
228.06	1722.34
228.28	1691.62
228.50	1748.97
228.72	1624.04
228.94	1693.67
229.16	1630.18
229.37	1656.81
229.59	1708.01
229.81	1865.70
230.03	1665.00
230.25	1628.14
230.47	1603.56
230.69	1607.66
230.90	1816.55
231.12	1738.73
231.34	1779.68
231.56	1767.40
231.78	1619.94
232.00	1751.01
232.21	1785.83
232.43	1767.40
232.65	1593.32
232.87	1783.78
233.09	1601.51
233.30	1679.33
233.52	1779.68
233.74	1691.62
233.96	1738.73
234.18	1751.01
234.40	1669.09
234.61	1875.94
234.83	1597.42
235.05	1613.80
235.27	1841.12
235.49	1769.44
235.70	1705.96
235.92	1783.78
236.14	1660.90
236.36	1859.56
236.58	1611.75
236.79	1771.49
237.01	1746.92
237.23	1710.05
237.45	1791.97
237.67	1652.71
237.88	1667.05
238.10	1849.32
238.32	1697.77
238.54	1669.09
238.76	1665.00
238.97	1689.57
239.19	1640.42
239.41	1742.82
239.63	1738.73
239.85	1691.62
240.06	1636.33
240.28	1724.39
240.50	1763.30
240.72	1769.44
240.93	1716.20
241.15	1806.31
241.37	1646.57
241.59	1796.07
241.81	1681.38
242.02	1656.81
242.24	1701.86
242.46	1771.49
242.68	1710.05
242.89	1714.15
243.11	1722.34
243.33	1687.53
243.55	1736.68
243.76	1738.73
243.98	1695.72
244.20	1710.05
244.42	1705.96
244.64	1722.34
244.85	1613.80
245.07	1705.96
245.29	1755.11
245.51	1744.87
245.72	1787.88
245.94	1730.53
246.16	1812.45
246.38	1783.78
246.59	1654.76
246.81	1642.47
247.03	1658.85
247.24	1634.28
247.46	1597.42
247.68	1755.11
247.90	1669.09
248.11	1734.63
248.33	1783.78
248.55	1677.29
248.77	1712.10
248.98	1783.78
249.20	1865.70
249.42	1708.01
249.64	1705.96
249.85	1722.34
250.07	1636.33
250.29	1705.96
250.50	1759.21
250.72	1615.85
250.94	1748.97
251.16	1863.65
251.37	1763.30
251.59	1705.96
251.81	1755.11
252.02	1767.40
252.24	1646.57
252.46	1781.73
252.68	1654.76
252.89	1628.14
253.11	1714.15
253.33	1824.74
253.54	1769.44
253.76	1611.75
253.98	1705.96
254.20	1740.77
254.41	1636.33
254.63	1742.82
254.85	1652.71
255.06	1701.86
255.28	1738.73
255.50	1611.75
255.71	1740.77
255.93	1624.04
256.15	1656.81
256.36	1697.77
256.58	1640.42
256.80	1728.49
257.02	1714.15
257.23	1673.19
257.45	1744.87
257.67	1685.48
257.88	1667.05
258.10	1748.97
258.32	1718.25
258.53	1679.33
258.75	1740.77
258.97	1703.91
259.18	1720.29
259.40	1722.34
259.62	1781.73
259.83	1802.21
260.05	1791.97
260.27	2045.92
260.48	1726.44
260.70	1757.16
260.92	1642.47
261.13	1705.96
261.35	1746.92
261.57	1724.39
261.78	1701.86
262.00	1665.00
262.22	1724.39
262.43	1685.48
262.65	1726.44
262.86	1769.44
263.08	1834.98
263.30	1714.15
263.51	1628.14
263.73	1693.67
263.95	1832.93
264.16	1679.33
264.38	1705.96
264.60	1699.81
264.81	1767.40
265.03	1759.21
265.25	1742.82
265.46	1705.96
265.68	1816.55
265.89	1689.57
266.11	1662.95
266.33	1771.49
266.54	1783.78
266.76	1779.68
266.98	1742.82
267.19	1767.40
267.41	1789.92
267.62	1675.24
267.84	1597.42
268.06	1781.73
268.27	1660.90
268.49	1781.73
268.70	1716.20
268.92	1714.15
269.14	1652.71
269.35	1626.09
269.57	1722.34
269.79	1759.21
270.00	1714.15
270.22	1873.89
270.43	1714.15
270.65	1605.61
270.87	1767.40
271.08	1708.01
271.30	1775.59
271.51	1746.92
271.73	1753.06
271.95	1777.64
272.16	1685.48
272.38	1699.81
272.59	1734.63
272.81	1742.82
273.02	1712.10
273.24	1722.34
273.46	1689.57
273.67	1693.67
273.89	1626.09
274.10	1705.96
274.32	1738.73
274.54	1759.21
274.75	1775.59
274.97	1722.34
275.18	1816.55
275.40	1730.53
275.61	1683.43
275.83	1734.63
276.05	1708.01
276.26	1718.25
276.48	1734.63
276.69	1671.14
276.91	1712.10
277.12	1761.25
277.34	1761.25
277.55	1839.08
277.77	1650.66
277.99	1669.09
278.20	1701.86
278.42	1728.49
278.63	1644.52
278.85	1675.24
279.06	1615.85
279.28	1740.77
279.49	1759.21
279.71	1736.68
279.93	1697.77
280.14	1753.06
280.36	1644.52
280.57	1845.22
280.79	1773.54
281.00	1669.09
281.22	1730.53
281.43	1787.88
281.65	1648.61
281.86	1621.99
282.08	1753.06
282.29	1755.11
282.51	1691.62
282.73	1695.72
282.94	1656.81
283.16	1785.83
283.37	1791.97
283.59	1783.78
283.80	1738.73
284.02	1728.49
284.23	1667.05
284.45	1654.76
284.66	1736.68
284.88	1699.81
285.09	1734.63
285.31	1763.30
285.52	1740.77
285.74	1656.81
285.95	1791.97
286.17	1697.77
286.38	1718.25
286.60	1660.90
286.81	1720.29
287.03	1746.92
287.24	1595.37
287.46	1759.21
287.67	1714.15
287.89	1869.80
288.10	1794.02
288.32	1736.68
288.53	1767.40
288.75	1708.01
288.96	1806.31
289.18	1697.77
289.39	1650.66
289.61	1767.40
289.82	1748.97
290.04	1761.25
290.25	1599.46
290.47	1681.38
290.68	1683.43
290.90	1746.92
291.11	1564.65
291.33	1812.45
291.54	1652.71
291.76	1685.48
291.97	1667.05
292.18	1734.63
292.40	1699.81
292.61	1675.24
292.83	1804.26
293.04	1732.58
293.26	1755.11
293.47	1699.81
293.69	1671.14
293.90	1728.49
294.12	1789.92
294.33	1771.49
294.55	1730.53
294.76	1806.31
294.97	1781.73
295.19	1748.97
295.40	1675.24
295.62	1705.96
295.83	1748.97
296.05	1644.52
296.26	1820.64
296.48	1671.14
296.69	1769.44
296.90	1693.67
297.12	1734.63
297.33	1806.31
297.55	1658.85
297.76	1648.61
297.98	1753.06
298.19	1765.35
298.41	1759.21
298.62	1576.94
298.83	1806.31
299.05	1708.01
299.26	1677.29
299.48	1787.88
299.69	1748.97
299.90	1697.77
300.12	1695.72
300.33	1744.87
300.55	1705.96
300.76	1763.30
300.98	1611.75
301.19	1755.11
301.40	1740.77
301.62	1699.81
301.83	1779.68
302.05	1740.77
302.26	1689.57
302.47	1677.29
302.69	1646.57
302.90	1650.66
303.12	1515.50
303.33	1611.75
303.54	1830.88
303.76	1658.85
303.97	1742.82
304.19	1763.30
304.40	1679.33
304.61	1736.68
304.83	1789.92
305.04	1738.73
305.26	1726.44
305.47	1646.57
305.68	1730.53
305.90	1673.19
306.11	1730.53
306.33	1648.61
306.54	1662.95
306.75	1646.57
306.97	1652.71
307.18	1671.14
307.39	1732.58
307.61	1757.16
307.82	1685.48
308.04	1804.26
308.25	1710.05
308.46	1718.25
308.68	1736.68
308.89	1757.16
309.10	1791.97
309.32	1695.72
309.53	1726.44
309.74	1699.81
309.96	1710.05
310.17	1800.16
310.39	1720.29
310.60	1783.78
310.81	1689.57
311.03	1742.82
311.24	1763.30
311.45	1726.44
311.67	1787.88
311.88	1779.68
312.09	1603.56
312.31	1714.15
312.52	1673.19
312.73	1736.68
312.95	1738.73
313.16	1691.62
313.37	1832.93
313.59	1677.29
313.80	1730.53
314.01	1777.64
314.23	1677.29
314.44	1710.05
314.65	1685.48
314.87	1646.57
315.08	1640.42
315.29	1652.71
315.51	1611.75
315.72	1650.66
315.93	1798.12
316.15	1779.68
316.36	1701.86
316.57	1701.86
316.79	1699.81
317.00	1693.67
317.21	1771.49
317.43	1654.76
317.64	1730.53
317.85	1728.49
318.07	1742.82
318.28	1683.43
318.49	1808.36
318.70	1853.41
318.92	1886.18
319.13	1779.68
319.34	1906.66
319.56	1804.26
319.77	1816.55
319.98	1800.16
320.20	1714.15
320.41	1800.16
320.62	1787.88
320.83	1679.33
321.05	1839.08
321.26	1757.16
321.47	1728.49
321.69	1742.82
321.90	1652.71
322.11	1685.48
322.32	1722.34
322.54	1773.54
322.75	1687.53
322.96	1783.78
323.18	1626.09
323.39	1695.72
323.60	1669.09
323.81	1701.86
324.03	1652.71
324.24	1656.81
324.45	1718.25
324.66	1708.01
324.88	1791.97
325.09	1832.93
325.30	1667.05
325.52	1755.11
325.73	1699.81
325.94	1675.24
326.15	1628.14
326.37	1650.66
326.58	1732.58
326.79	1830.88
327.00	1679.33
327.22	1665.00
327.43	1662.95
327.64	1609.70
327.85	1683.43
328.07	1757.16
328.28	1779.68
328.49	1720.29
328.70	1675.24
328.92	1738.73
329.13	1669.09
329.34	1726.44
329.55	1746.92
329.76	1820.64
329.98	1730.53
330.19	1820.64
330.40	1830.88
330.61	1671.14
330.83	1751.01
331.04	1603.56
331.25	1804.26
331.46	1691.62
331.68	1628.14
331.89	1771.49
332.10	1794.02
332.31	1675.24
332.52	1693.67
332.74	1763.30
332.95	1665.00
333.16	1703.91
333.37	1794.02
333.58	1673.19
333.80	1767.40
334.01	1644.52
334.22	1759.21
334.43	1656.81
334.64	1685.48
334.86	1621.99
335.07	1718.25
335.28	1787.88
335.49	1621.99
335.70	1757.16
335.92	1791.97
336.13	1849.32
336.34	1759.21
336.55	1648.61
336.76	1757.16
336.98	1638.38
337.19	1726.44
337.40	1759.21
337.61	1843.17
337.82	1687.53
338.04	1703.91
338.25	1619.94
338.46	1677.29
338.67	1697.77
338.88	1755.11
339.09	1644.52
339.31	1677.29
339.52	1546.22
339.73	1652.71
339.94	1665.00
340.15	1779.68
340.36	1658.85
340.58	1714.15
340.79	1699.81
341.00	1740.77
341.21	1656.81
341.42	1853.41
341.63	1685.48
341.85	1705.96
342.06	1667.05
342.27	1677.29
342.48	1837.03
342.69	1603.56
342.90	1708.01
343.12	1785.83
343.33	1650.66
343.54	1763.30
343.75	1728.49
343.96	1683.43
344.17	1714.15
344.38	1705.96
344.60	1671.14
344.81	1675.24
345.02	1720.29
345.23	1744.87
345.44	1794.02
345.65	1681.38
345.86	1695.72
346.07	1777.64
346.29	1771.49
346.50	1740.77
346.71	1771.49
346.92	1787.88
347.13	1855.46
347.34	1673.19
347.55	1689.57
347.76	1777.64
347.98	1535.98
348.19	1695.72
348.40	1794.02
348.61	1640.42
348.82	1820.64
349.03	1783.78
349.24	1648.61
349.45	1841.12
349.66	1644.52
349.88	1722.34
350.09	1769.44
350.30	1822.69
350.51	1753.06
350.72	1744.87
350.93	1740.77
351.14	1683.43
351.35	1761.25
351.56	1701.86
351.77	1710.05
351.99	1705.96
352.20	1820.64
352.41	1789.92
352.62	1673.19
352.83	1689.57
353.04	1759.21
353.25	1681.38
353.46	1761.25
353.67	1740.77
353.88	1634.28
354.09	1644.52
354.30	1773.54
354.52	1722.34
354.73	1779.68
354.94	1677.29
355.15	1642.47
355.36	1814.50
355.57	1730.53
355.78	1767.40
355.99	1683.43
356.20	1732.58
356.41	1755.11
356.62	1703.91
356.83	1658.85
357.04	1779.68
357.25	1681.38
357.46	1660.90
357.68	1689.57
357.89	1728.49
358.10	1689.57
358.31	1599.46
358.52	1738.73
358.73	1646.57
358.94	1669.09
359.15	1605.61
359.36	1730.53
359.57	1748.97
359.78	1677.29
359.99	1759.21
360.20	1662.95
360.41	1644.52
360.62	1769.44
360.83	1681.38
361.04	1671.14
361.25	1773.54
361.46	1865.70
361.67	1669.09
361.88	1724.39
362.09	1777.64
362.30	1738.73
362.51	1695.72
362.72	1732.58
362.93	1798.12
363.14	1734.63
363.35	1712.10
363.56	1689.57
363.78	1746.92
363.99	1802.21
364.20	1720.29
364.41	1730.53
364.62	1810.40
364.83	1726.44
365.04	1710.05
365.25	1691.62
365.46	1767.40
365.67	1660.90
365.88	1624.04
366.09	1689.57
366.30	1724.39
366.51	1742.82
366.72	1607.66
366.93	1587.18
367.14	1671.14
367.35	1794.02
367.56	1683.43
367.77	1789.92
367.98	1728.49
368.18	1658.85
368.39	1742.82
368.60	1605.61
368.81	1779.68
369.02	1789.92
369.23	1746.92
369.44	1581.03
369.65	1685.48
369.86	1665.00
370.07	1765.35
370.28	1691.62
370.49	1718.25
370.70	1724.39
370.91	1658.85
371.12	1626.09
371.33	1763.30
371.54	1656.81
371.75	1798.12
371.96	1595.37
372.17	1834.98
372.38	1695.72
372.59	1751.01
372.80	1753.06
373.01	1724.39
373.22	1724.39
373.43	1746.92
373.64	1646.57
373.85	1761.25
374.06	1796.07
374.26	1767.40
374.47	1679.33
374.68	1789.92
374.89	1738.73
375.10	1742.82
375.31	1714.15
375.52	1744.87
375.73	1718.25
375.94	1710.05
376.15	1783.78
376.36	1660.90
376.57	1665.00
376.78	1687.53
376.99	1796.07
377.20	1759.21
377.40	1734.63
377.61	1794.02
377.82	1630.18
378.03	1798.12
378.24	1785.83
378.45	1677.29
378.66	1787.88
378.87	1632.23
379.08	1636.33
379.29	1673.19
379.50	1818.60
379.71	1810.40
379.91	1726.44
380.12	1658.85
380.33	1710.05
380.54	1736.68
380.75	1732.58
380.96	1712.10
381.17	1796.07
381.38	1665.00
381.59	1624.04
381.80	1691.62
382.00	1871.84
382.21	1759.21
382.42	1861.60
382.63	1918.95
382.84	1763.30
383.05	1843.17
383.26	1806.31
383.47	1667.05
383.68	1714.15
383.88	1773.54
384.09	1687.53
384.30	1871.84
384.51	1724.39
384.72	1685.48
384.93	1660.90
385.14	1740.77
385.35	1734.63
385.55	1607.66
385.76	1798.12
385.97	1738.73
386.18	1681.38
386.39	1581.03
386.60	1656.81
386.81	1665.00
387.02	1617.90
387.22	1642.47
387.43	1816.55
387.64	1640.42
387.85	1871.84
388.06	2222.05
388.27	4368.32
388.48	6721.43
388.68	8171.40
388.89	9592.69
389.10	9754.48
389.31	8535.93
389.52	7550.86
389.73	6731.67
389.93	6326.18
390.14	5875.62
390.35	5277.62
390.56	4609.98
390.77	3827.65
390.98	3043.28
391.18	2574.30
391.39	2054.11
391.60	1859.56
391.81	1873.89
392.02	1712.10
392.23	1796.07
392.43	1796.07
392.64	1865.70
392.85	1812.45
393.06	1777.64
393.27	1693.67
393.47	1708.01
393.68	1751.01
393.89	1714.15
394.10	1779.68
394.31	1716.20
394.52	1669.09
394.72	1767.40
394.93	1845.22
395.14	1699.81
395.35	1748.97
395.56	1699.81
395.76	1734.63
395.97	1863.65
396.18	1880.04
396.39	1863.65
396.60	2050.02
396.80	1923.04
397.01	1814.50
397.22	1877.99
397.43	1867.75
397.64	1687.53
397.84	1814.50
398.05	1828.84
398.26	1658.85
398.47	1789.92
398.67	1877.99
398.88	1738.73
399.09	1712.10
399.30	1708.01
399.51	1681.38
399.71	1665.00
399.92	1710.05
400.13	1703.91
400.34	1763.30
400.54	1720.29
400.75	1779.68
400.96	1746.92
401.17	1859.56
401.37	1693.67
401.58	1724.39
401.79	1718.25
402.00	1906.66
402.21	2007.01
402.41	2027.49
402.62	2000.87
402.83	1976.29
403.04	2052.06
403.24	2090.98
403.45	1828.84
403.66	1920.99
403.87	1904.61
404.07	1964.00
404.28	2002.91
404.49	1884.13
404.70	1732.58
404.90	1808.36
405.11	1693.67
405.32	1740.77
405.52	1648.61
405.73	1656.81
405.94	1660.90
406.15	1708.01
406.35	1744.87
406.56	1726.44
406.77	1675.24
406.98	1767.40
407.18	1648.61
407.39	1751.01
407.60	1716.20
407.80	1746.92
408.01	1638.38
408.22	1712.10
408.43	1730.53
408.63	1775.59
408.84	1806.31
409.05	1828.84
409.25	1695.72
409.46	1650.66
409.67	1716.20
409.88	1701.86
410.08	1810.40
410.29	1701.86
410.50	1658.85
410.70	1687.53
410.91	1669.09
411.12	1744.87
411.32	1671.14
411.53	1683.43
411.74	1828.84
411.95	1839.08
412.15	1804.26
412.36	1804.26
412.57	1753.06
412.77	1816.55
412.98	1611.75
413.19	1746.92
413.39	1738.73
413.60	1828.84
413.81	1775.59
414.01	1689.57
414.22	1751.01
414.43	1800.16
414.63	1654.76
414.84	1771.49
415.05	1718.25
415.25	1640.42
415.46	1751.01
415.67	1675.24
415.87	1791.97
416.08	1755.11
416.29	1687.53
416.49	1757.16
416.70	1662.95
416.91	1634.28
417.11	1689.57
417.32	1837.03
417.53	1787.88
417.73	1683.43
417.94	1679.33
418.15	1742.82
418.35	1802.21
418.56	1732.58
418.77	1880.04
418.97	1718.25
419.18	1679.33
419.38	1673.19
419.59	1679.33
419.80	1867.75
420.00	1665.00
420.21	1705.96
420.42	1746.92
420.62	1701.86
420.83	1689.57
421.04	1746.92
421.24	1705.96
421.45	1736.68
421.65	1744.87
421.86	1703.91
422.07	1677.29
422.27	1710.05
422.48	1740.77
422.69	1748.97
422.89	1667.05
423.10	1697.77
423.30	1621.99
423.51	1785.83
423.72	1773.54
423.92	1699.81
424.13	1640.42
424.33	1683.43
424.54	1703.91
424.75	1796.07
424.95	1824.74
425.16	1720.29
425.36	1699.81
425.57	1751.01
425.78	1648.61
425.98	1759.21
426.19	1701.86
426.39	1691.62
426.60	1662.95
426.81	1791.97
427.01	1767.40
427.22	1681.38
427.42	1695.72
427.63	1746.92
427.83	1755.11
428.04	1800.16
428.25	1781.73
428.45	1828.84
428.66	1755.11
428.86	1765.35
429.07	1755.11
429.28	1669.09
429.48	1722.34
429.69	1656.81
429.89	1722.34
430.10	1677.29
430.30	1708.01
430.51	1697.77
430.71	1701.86
430.92	1673.19
431.13	1654.76
431.33	1724.39
431.54	1714.15
431.74	1771.49
431.95	1791.97
432.15	1673.19
432.36	1683.43
432.56	1697.77
432.77	1779.68
432.98	1857.51
433.18	1742.82
433.39	1806.31
433.59	1732.58
433.80	1824.74
434.00	1847.27
434.21	1746.92
434.41	1714.15
434.62	1888.23
434.82	1665.00
435.03	1738.73
435.23	1720.29
435.44	1656.81
435.64	1769.44
435.85	1658.85
436.06	1783.78
436.26	1753.06
436.47	1726.44
436.67	1738.73
436.88	1656.81
437.08	1685.48
437.29	1865.70
437.49	1746.92
437.70	1775.59
437.90	1742.82
438.11	1925.09
438.31	1761.25
438.52	1906.66
438.72	1812.45
438.93	1894.37
439.13	1763.30
439.34	1824.74
439.54	1808.36
439.75	1798.12
439.95	1738.73
440.16	1634.28
440.36	1685.48
440.57	1818.60
440.77	1734.63
440.98	1697.77
441.18	1683.43
441.39	1742.82
441.59	1697.77
441.80	1900.52
442.00	1740.77
442.21	1902.56
442.41	1669.09
442.62	1789.92
442.82	1718.25
443.02	1742.82
443.23	1732.58
443.43	1648.61
443.64	1748.97
443.84	1693.67
444.05	1789.92
444.25	1724.39
444.46	1753.06
444.66	1824.74
444.87	1775.59
445.07	1716.20
445.28	1771.49
445.48	1738.73
445.69	1787.88
445.89	1863.65
446.09	1796.07
446.30	2019.30
446.50	2617.30
446.71	3753.93
446.91	4413.37
447.12	4794.29
447.32	4859.83
447.53	4253.63
447.73	3829.70
447.93	3741.64
448.14	3375.05
448.34	3209.17
448.55	2836.44
448.75	2779.09
448.96	2699.22
449.16	2363.36
449.36	2232.29
449.57	2068.45
449.77	1925.09
449.98	1789.92
450.18	1837.03
450.39	1847.27
450.59	1820.64
450.79	1753.06
451.00	1738.73
451.20	1759.21
451.41	1722.34
451.61	1794.02
451.81	1722.34
452.02	1763.30
452.22	1634.28
452.43	1712.10
452.63	1697.77
452.84	1724.39
453.04	1763.30
453.24	1769.44
453.45	1718.25
453.65	1697.77
453.86	1757.16
454.06	1765.35
454.26	1732.58
454.47	1628.14
454.67	1763.30
454.87	1820.64
455.08	1779.68
455.28	1902.56
455.49	1730.53
455.69	1716.20
455.89	1890.28
456.10	1802.21
456.30	1687.53
456.51	1669.09
456.71	1705.96
456.91	1748.97
457.12	1753.06
457.32	1781.73
457.52	1693.67
457.73	1814.50
457.93	1851.36
458.14	1691.62
458.34	1607.66
458.54	1746.92
458.75	1673.19
458.95	1773.54
459.15	1673.19
459.36	1804.26
459.56	1812.45
459.76	1865.70
459.97	1681.38
460.17	1810.40
460.37	1746.92
460.58	1720.29
460.78	1724.39
460.99	1744.87
461.19	1789.92
461.39	1789.92
461.60	1705.96
461.80	1785.83
462.00	1724.39
462.21	1744.87
462.41	1667.05
462.61	1669.09
462.82	1738.73
463.02	1822.69
463.22	1718.25
463.43	1845.22
463.63	1738.73
463.83	1742.82
464.04	1718.25
464.24	1726.44
464.44	1636.33
464.64	1775.59
464.85	1822.69
465.05	1759.21
465.25	1685.48
465.46	1746.92
465.66	1746.92
465.86	1763.30
466.07	1654.76
466.27	1671.14
466.47	1679.33
466.68	1671.14
466.88	1781.73
467.08	1728.49
467.29	1626.09
467.49	1800.16
467.69	1720.29
467.89	1779.68
468.10	1730.53
468.30	1710.05
468.50	1787.88
468.71	1730.53
468.91	1632.23
469.11	1884.13
469.31	1763.30
469.52	1644.52
469.72	1781.73
469.92	1857.51
470.13	1730.53
470.33	1818.60
470.53	1812.45
470.73	2136.03
470.94	2308.06
471.14	2291.68
471.34	2531.29
471.54	2389.98
471.75	2324.44
471.95	2099.17
472.15	2047.97
472.36	2072.54
472.56	2162.66
472.76	2023.39
472.96	1974.24
473.17	1945.57
473.37	1882.08
473.57	1837.03
473.77	1841.12
473.98	1779.68
474.18	1613.80
474.38	1933.28
474.58	1751.01
474.79	1687.53
474.99	1738.73
475.19	1814.50
475.39	1665.00
475.60	1751.01
475.80	1785.83
476.00	1693.67
476.20	1681.38
476.41	1734.63
476.61	1812.45
476.81	1839.08
477.01	1675.24
477.21	1800.16
477.42	1828.84
477.62	1638.38
477.82	1816.55
478.02	1640.42
478.23	1763.30
478.43	1675.24
478.63	1630.18
478.83	1683.43
479.03	1734.63
479.24	1816.55
479.44	1849.32
479.64	1597.42
479.84	1638.38
480.04	1691.62
480.25	1783.78
480.45	1662.95
480.65	1812.45
480.85	1785.83
481.06	1699.81
481.26	1810.40
481.46	1757.16
481.66	1726.44
481.86	1716.20
482.06	1759.21
482.27	1734.63
482.47	1656.81
482.67	1783.78
482.87	1734.63
483.07	1781.73
483.28	1705.96
483.48	1722.34
483.68	1687.53
483.88	1621.99
484.08	1599.46
484.29	1718.25
484.49	1726.44
484.69	1621.99
484.89	1769.44
485.09	1708.01
485.29	1718.25
485.50	1771.49
485.70	1669.09
485.90	1888.23
486.10	1724.39
486.30	1734.63
486.50	1830.88
486.71	1697.77
486.91	1789.92
487.11	1843.17
487.31	1648.61
487.51	1796.07
487.71	1710.05
487.91	1667.05
488.12	1699.81
488.32	1652.71
488.52	1699.81
488.72	1609.70
488.92	1736.68
489.12	1804.26
489.32	1806.31
489.53	1812.45
489.73	1703.91
489.93	1834.98
490.13	1748.97
490.33	1738.73
490.53	1712.10
490.73	1748.97
490.94	1636.33
491.14	1796.07
491.34	1892.32
491.54	2148.32
491.74	2584.54
491.94	2920.40
492.14	3039.19
492.34	2949.08
492.54	2754.52
492.75	2471.90
492.95	2527.19
493.15	2330.59
493.35	2310.11
493.55	2160.61
493.75	2144.22
493.95	2201.57
494.15	2113.50
494.35	1912.80
494.56	1779.68
494.76	1736.68
494.96	1794.02
495.16	1712.10
495.36	1771.49
495.56	1785.83
495.76	1689.57
495.96	1712.10
496.16	1755.11
496.36	1855.46
496.56	1675.24
496.77	1732.58
496.97	1662.95
497.17	1753.06
497.37	1665.00
497.57	1755.11
497.77	1732.58
497.97	1783.78
498.17	1701.86
498.37	1712.10
498.57	1787.88
498.77	1720.29
498.97	1828.84
499.17	1875.94
499.38	1804.26
499.58	1755.11
499.78	1816.55
499.98	1779.68
500.18	1724.39
500.38	1767.40
500.58	1996.77
500.78	2582.49
500.98	4571.07
501.18	5961.64
501.38	6819.74
501.58	7116.69
501.78	6733.72
501.98	5646.25
502.18	5136.31
502.38	4501.44
502.58	4179.90
502.78	3895.24
502.98	3729.35
503.18	3524.55
503.38	3221.45
503.59	2863.06
503.79	2664.41
503.99	2451.42
504.19	2340.83
504.39	2191.33
504.59	2185.18
504.79	2152.42
504.99	1972.19
505.19	1937.38
505.39	1802.21
505.59	2017.25
505.79	1941.47
505.99	1867.75
506.19	1781.73
506.39	1822.69
506.59	1806.31
506.79	1701.86
506.99	1800.16
507.19	1765.35
507.39	1781.73
507.59	1658.85
507.79	1716.20
507.99	1730.53
508.19	1701.86
508.39	1740.77
508.59	1796.07
508.79	1771.49
508.99	1877.99
509.19	1644.52
509.39	1771.49
509.59	1759.21
509.79	1671.14
509.99	1787.88
510.19	1777.64
510.39	1791.97
510.59	1712.10
510.79	1679.33
510.99	1738.73
511.19	1767.40
511.39	1861.60
511.59	1771.49
511.79	1787.88
511.99	1691.62
512.19	1800.16
512.38	1714.15
512.58	1652.71
512.78	1724.39
512.98	1839.08
513.18	1806.31
513.38	1671.14
513.58	1746.92
513.78	1712.10
513.98	1718.25
514.18	1697.77
514.38	1724.39
514.58	1683.43
514.78	1705.96
514.98	1757.16
515.18	1701.86
515.38	1662.95
515.58	1849.32
515.78	1746.92
515.98	1759.21
516.18	1757.16
516.38	1699.81
516.57	1685.48
516.77	1759.21
516.97	1771.49
517.17	1751.01
517.37	1662.95
517.57	1724.39
517.77	1730.53
517.97	1703.91
518.17	1665.00
518.37	1714.15
518.57	1744.87
518.77	1720.29
518.97	1708.01
519.16	1732.58
519.36	1753.06
519.56	1691.62
519.76	1699.81
519.96	1708.01
520.16	1796.07
520.36	1744.87
520.56	1789.92
520.76	1611.75
520.96	1650.66
521.16	1800.16
521.35	1775.59
521.55	1816.55
521.75	1720.29
521.95	1710.05
522.15	1734.63
522.35	1640.42
522.55	1724.39
522.75	1769.44
522.95	1767.40
523.14	1652.71
523.34	1724.39
523.54	1716.20
523.74	1820.64
523.94	1804.26
524.14	1705.96
524.34	1703.91
524.54	1804.26
524.73	1626.09
524.93	1753.06
525.13	1740.77
525.33	1656.81
525.53	1904.61
525.73	1800.16
525.93	1746.92
526.13	1701.86
526.32	1718.25
526.52	1757.16
526.72	1724.39
526.92	1763.30
527.12	1646.57
527.32	1714.15
527.52	1751.01
527.71	1726.44
527.91	1767.40
528.11	1775.59
528.31	1740.77
528.51	1658.85
528.71	1771.49
528.90	1744.87
529.10	1894.37
529.30	1871.84
529.50	1683.43
529.70	1748.97
529.90	1687.53
530.09	1769.44
530.29	1642.47
530.49	1703.91
530.69	1896.42
530.89	1738.73
531.09	1775.59
531.28	1763.30
531.48	1787.88
531.68	1812.45
531.88	1787.88
532.08	1832.93
532.28	1708.01
532.47	1767.40
532.67	1791.97
532.87	1763.30
533.07	1732.58
533.27	1810.40
533.46	1748.97
533.66	1767.40
533.86	1769.44
534.06	1718.25
534.26	1787.88
534.45	1693.67
534.65	1855.46
534.85	1730.53
535.05	1665.00
535.25	1789.92
535.44	1564.65
535.64	1791.97
535.84	1777.64
536.04	1710.05
536.24	1703.91
536.43	1734.63
536.63	1742.82
536.83	1693.67
537.03	1748.97
537.22	1722.34
537.42	1703.91
537.62	1873.89
537.82	1714.15
538.02	1861.60
538.21	1873.89
538.41	1949.67
538.61	1699.81
538.81	1773.54
539.00	1814.50
539.20	1636.33
539.40	1689.57
539.60	1726.44
539.79	1779.68
539.99	1734.63
540.19	1724.39
540.39	1630.18
540.58	1810.40
540.78	1720.29
540.98	1693.67
541.18	1775.59
541.37	1763.30
541.57	1732.58
541.77	1697.77
541.97	1740.77
542.16	1658.85
542.36	1646.57
542.56	1767.40
542.76	1857.51
542.95	1732.58
543.15	1773.54
543.35	1763.30
543.54	1779.68
543.74	1640.42
543.94	1865.70
544.14	1697.77
544.33	1734.63
544.53	1748.97
544.73	1656.81
544.93	1722.34
545.12	1710.05
545.32	1714.15
545.52	1742.82
545.71	1699.81
545.91	1734.63
546.11	1728.49
546.30	1679.33
546.50	1697.77
546.70	1791.97
546.90	1689.57
547.09	1607.66
547.29	1771.49
547.49	1804.26
547.68	1720.29
547.88	1722.34
548.08	1710.05
548.27	2197.47
548.47	1763.30
548.67	1724.39
548.87	1783.78
549.06	1710.05
549.26	1757.16
549.46	1757.16
549.65	1716.20
549.85	1744.87
550.05	1832.93
550.24	1701.86
550.44	1767.40
550.64	1742.82
550.83	1705.96
551.03	1794.02
551.23	1791.97
551.42	1794.02
551.62	1673.19
551.82	1798.12
552.01	1757.16
552.21	1798.12
552.41	1734.63
552.60	1824.74
552.80	1757.16
553.00	1683.43
553.19	1740.77
553.39	1841.12
553.59	1644.52
553.78	1824.74
553.98	1748.97
554.17	1648.61
554.37	1734.63
554.57	1814.50
554.76	1718.25
554.96	1806.31
555.16	1759.21
555.35	1757.16
555.55	1740.77
555.75	1748.97
555.94	1796.07
556.14	1722.34
556.33	1757.16
556.53	1726.44
556.73	1742.82
556.92	1742.82
557.12	1796.07
557.32	1843.17
557.51	1873.89
557.71	1773.54
557.90	1787.88
558.10	1818.60
558.30	1783.78
558.49	1687.53
558.69	1712.10
558.88	1738.73
559.08	1783.78
559.28	1740.77
559.47	1685.48
559.67	1814.50
559.86	1822.69
560.06	1777.64
560.26	1748.97
560.45	1726.44
560.65	1740.77
560.84	1783.78
561.04	1677.29
561.24	1800.16
561.43	1603.56
561.63	1804.26
561.82	1755.11
562.02	1712.10
562.22	1763.30
562.41	1665.00
562.61	1746.92
562.80	1781.73
563.00	1968.10
563.19	1800.16
563.39	1787.88
563.59	1718.25
563.78	1673.19
563.98	1755.11
564.17	1705.96
564.37	1753.06
564.56	1761.25
564.76	1646.57
564.96	1796.07
565.15	1763.30
565.35	1837.03
565.54	1722.34
565.74	1857.51
565.93	1820.64
566.13	1791.97
566.32	1787.88
566.52	1765.35
566.71	1767.40
566.91	1837.03
567.11	1740.77
567.30	1650.66
567.50	1779.68
567.69	1746.92
567.89	1718.25
568.08	1710.05
568.28	1769.44
568.47	1669.09
568.67	1775.59
568.86	1777.64
569.06	1722.34
569.25	1773.54
569.45	1691.62
569.64	1738.73
569.84	1759.21
570.04	1787.88
570.23	1728.49
570.43	1691.62
570.62	1804.26
570.82	1865.70
571.01	1697.77
571.21	1685.48
571.40	1699.81
571.60	1857.51
571.79	1718.25
571.99	1746.92
572.18	1693.67
572.38	1837.03
572.57	1738.73
572.77	1746.92
572.96	1873.89
573.16	1822.69
573.35	1660.90
573.55	1818.60
573.74	1732.58
573.94	1746.92
574.13	1710.05
574.33	1751.01
574.52	1761.25
574.71	1808.36
574.91	1751.01
575.10	1708.01
575.30	1777.64
575.49	1691.62
575.69	1667.05
575.88	1761.25
576.08	1685.48
576.27	1869.80
576.47	1716.20
576.66	1849.32
576.86	1769.44
577.05	1722.34
577.25	1806.31
577.44	1863.65
577.64	1769.44
577.83	1806.31
578.02	1796.07
578.22	1882.08
578.41	1859.56
578.61	1787.88
578.80	1660.90
579.00	1847.27
579.19	1691.62
579.39	1746.92
579.58	1732.58
579.77	1763.30
579.97	1820.64
580.16	1812.45
580.36	1806.31
580.55	1861.60
580.75	1796.07
580.94	1759.21
581.13	1851.36
581.33	1814.50
581.52	1753.06
581.72	1855.46
581.91	1914.85
582.11	1759.21
582.30	1771.49
582.49	1804.26
582.69	1863.65
582.88	1853.41
583.08	1775.59
583.27	1779.68
583.47	1740.77
583.66	1724.39
583.85	1710.05
584.05	1693.67
584.24	1849.32
584.44	1867.75
584.63	1853.41
584.82	1845.22
585.02	1871.84
585.21	1757.16
585.41	1853.41
585.60	1787.88
585.79	1986.53
585.99	1937.38
586.18	1873.89
586.37	2213.85
586.57	3356.62
586.76	9942.89
586.96	24745.61
587.15	34319.86
587.34	40805.78
587.54	42241.40
587.73	36580.82
587.93	26287.73
588.12	21694.13
588.31	18495.21
588.51	16512.77
588.70	15109.91
588.89	14219.05
589.09	12465.99
589.28	11067.22
589.47	9656.17
589.67	7976.84
589.86	6508.44
590.06	4960.18
590.25	4057.03
590.44	3047.38
590.64	2615.26
590.83	2269.15
591.02	2088.93
591.22	1968.10
591.41	1943.52
591.60	1828.84
591.80	2047.97
591.99	1710.05
592.18	1824.74
592.38	1843.17
592.57	1701.86
592.76	1712.10
592.96	1755.11
593.15	1845.22
593.34	1771.49
593.54	1703.91
593.73	1755.11
593.92	1773.54
594.12	1779.68
594.31	1720.29
594.50	1867.75
594.70	1910.75
594.89	1859.56
595.08	1701.86
595.28	1800.16
595.47	1964.00
595.66	1738.73
595.86	1681.38
596.05	1779.68
596.24	1720.29
596.43	1920.99
596.63	1867.75
596.82	1748.97
597.01	1775.59
597.21	1865.70
597.40	1724.39
597.59	1767.40
597.79	1718.25
597.98	1757.16
598.17	1777.64
598.36	1673.19
598.56	1769.44
598.75	1740.77
598.94	1759.21
599.14	1708.01
599.33	1726.44
599.52	1757.16
599.71	1781.73
599.91	1806.31
600.10	1771.49
600.29	1710.05
600.48	1728.49
600.68	1832.93
600.87	1787.88
601.06	1755.11
601.26	1712.10
601.45	1783.78
601.64	1722.34
601.83	1863.65
602.03	1693.67
602.22	1660.90
602.41	1781.73
602.60	1859.56
602.80	1705.96
602.99	1814.50
603.18	1746.92
603.37	1771.49
603.57	1791.97
603.76	1775.59
603.95	1767.40
604.14	1652.71
604.34	1693.67
604.53	1759.21
604.72	1759.21
604.91	1724.39
605.10	1824.74
605.30	1689.57
605.49	1888.23
605.68	1775.59
605.87	1783.78
606.07	1640.42
606.26	1826.79
606.45	1757.16
606.64	1761.25
606.84	1785.83
607.03	1708.01
607.22	1814.50
607.41	1626.09
607.60	1681.38
607.80	1769.44
607.99	1771.49
608.18	1689.57
608.37	1759.21
608.56	1669.09
608.76	1732.58
608.95	1873.89
609.14	1705.96
609.33	1724.39
609.52	1744.87
609.72	1669.09
609.91	1796.07
610.10	1714.15
610.29	1791.97
610.48	1824.74
610.68	1767.40
610.87	1687.53
611.06	1822.69
611.25	1626.09
611.44	1798.12
611.63	1804.26
611.83	1826.79
612.02	1699.81
612.21	1796.07
612.40	1615.85
612.59	1718.25
612.79	1744.87
612.98	1804.26
613.17	1816.55
613.36	1767.40
613.55	1843.17
613.74	1714.15
613.93	1683.43
614.13	1699.81
614.32	1738.73
614.51	1828.84
614.70	1677.29
614.89	1738.73
615.08	1730.53
615.28	2017.25
615.47	1685.48
615.66	1705.96
615.85	1722.34
616.04	1779.68
616.23	1763.30
616.42	1683.43
616.62	1834.98
616.81	1761.25
617.00	1665.00
617.19	1744.87
617.38	1710.05
617.57	1785.83
617.76	1830.88
617.95	1832.93
618.15	1695.72
618.34	1769.44
618.53	1708.01
618.72	1757.16
618.91	1818.60
619.10	1839.08
619.29	1716.20
619.48	1757.16
619.68	1626.09
619.87	1710.05
620.06	1759.21
620.25	1765.35
620.44	1669.09
620.63	1826.79
620.82	1726.44
621.01	1730.53
621.20	1769.44
621.39	1755.11
621.59	1753.06
621.78	1703.91
621.97	1677.29
622.16	1789.92
622.35	1720.29
622.54	1738.73
622.73	1830.88
622.92	1597.42
623.11	1753.06
623.30	1732.58
623.49	1820.64
623.68	1736.68
623.88	1845.22
624.07	1714.15
624.26	1738.73
624.45	1779.68
624.64	1732.58
624.83	1724.39
625.02	1761.25
625.21	1693.67
625.40	1705.96
625.59	1787.88
625.78	1736.68
625.97	1826.79
626.16	1730.53
626.35	1753.06
626.54	1726.44
626.74	1742.82
626.93	1710.05
627.12	1712.10
627.31	1824.74
627.50	1708.01
627.69	1771.49
627.88	1638.38
628.07	1720.29
628.26	1603.56
628.45	1687.53
628.64	1654.76
628.83	1695.72
629.02	1636.33
629.21	1755.11
629.40	1746.92
629.59	1646.57
629.78	1744.87
629.97	1708.01
630.16	1763.30
630.35	1724.39
630.54	1804.26
630.73	1638.38
630.92	1722.34
631.11	1697.77
631.30	1791.97
631.49	1773.54
631.68	1726.44
631.87	1826.79
632.06	1675.24
632.25	1892.32
632.44	1681.38
632.63	1791.97
632.82	1648.61
633.01	1718.25
633.20	1728.49
633.39	1673.19
633.58	1656.81
633.77	1720.29
633.96	1826.79
634.15	1740.77
634.34	1697.77
634.53	1720.29
634.72	1703.91
634.91	1638.38
635.10	1689.57
635.29	1779.68
635.48	1755.11
635.67	1722.34
635.86	1681.38
636.05	1820.64
636.24	1738.73
636.43	1746.92
636.62	1763.30
636.81	1599.46
637.00	1783.78
637.19	1726.44
637.38	1791.97
637.57	1652.71
637.76	1726.44
637.95	1689.57
638.14	1773.54
638.33	1716.20
638.52	1763.30
638.71	1607.66
638.89	1640.42
639.08	1861.60
639.27	1714.15
639.46	1658.85
639.65	1740.77
639.84	1734.63
640.03	1759.21
640.22	1759.21
640.41	1775.59
640.60	1687.53
640.79	1740.77
640.98	1652.71
641.17	1687.53
641.36	1757.16
641.55	1757.16
641.74	1665.00
641.92	1626.09
642.11	1677.29
642.30	1648.61
642.49	1697.77
642.68	1806.31
642.87	1697.77
643.06	1837.03
643.25	1763.30
643.44	1767.40
643.63	1740.77
643.82	1789.92
644.00	1667.05
644.19	1734.63
644.38	1660.90
644.57	1730.53
644.76	1691.62
644.95	1689.57
645.14	1732.58
645.33	1763.30
645.52	1734.63
645.71	1656.81
645.89	1669.09
646.08	1669.09
646.27	1685.48
646.46	1791.97
646.65	1738.73
646.84	1787.88
647.03	1761.25
647.22	1779.68
647.40	1697.77
647.59	1728.49
647.78	1638.38
647.97	1693.67
648.16	1667.05
648.35	1794.02
648.54	1785.83
648.73	1722.34
648.91	1845.22
649.10	1789.92
649.29	1605.61
649.48	1689.57
649.67	1736.68
649.86	1751.01
650.05	1697.77
650.23	1751.01
650.42	1628.14
650.61	1759.21
650.80	1800.16
650.99	1890.28
651.18	1734.63
651.36	1822.69
651.55	1703.91
651.74	1777.64
651.93	1720.29
652.12	1789.92
652.31	1675.24
652.49	1720.29
652.68	1759.21
652.87	1845.22
653.06	1771.49
653.25	1867.75
653.44	1683.43
653.62	1812.45
653.81	1681.38
654.00	1736.68
654.19	1808.36
654.38	1890.28
654.56	1781.73
654.75	1654.76
654.94	1736.68
655.13	1724.39
655.32	1675.24
655.51	1808.36
655.69	1744.87
655.88	1791.97
656.07	1771.49
656.26	1736.68
656.45	1691.62
656.63	1781.73
656.82	1751.01
657.01	1736.68
657.20	1603.56
657.38	1777.64
657.57	1748.97
657.76	1607.66
657.95	1822.69
658.14	1755.11
658.32	1722.34
658.51	1626.09
658.70	1755.11
658.89	1781.73
659.08	1679.33
659.26	1837.03
659.45	1669.09
659.64	1796.07
659.83	1628.14
660.01	1951.71
660.20	1812.45
660.39	1828.84
660.58	1572.84
660.76	1783.78
660.95	1621.99
661.14	1771.49
661.33	1679.33
661.51	1687.53
661.70	1693.67
661.89	1763.30
662.08	1742.82
662.26	1650.66
662.45	1679.33
662.64	1859.56
662.83	1755.11
663.01	1691.62
663.20	1720.29
663.39	1714.15
663.58	1724.39
663.76	1755.11
663.95	1785.83
664.14	1724.39
664.32	1677.29
664.51	1732.58
664.70	1593.32
664.89	1781.73
665.07	1679.33
665.26	1765.35
665.45	1714.15
665.64	1779.68
665.82	1685.48
666.01	1773.54
666.20	1687.53
666.38	1855.46
666.57	1783.78
666.76	2154.46
666.95	4483.00
667.13	10422.11
667.32	15361.81
667.51	17909.49
667.69	19349.21
667.88	17622.77
668.07	12625.73
668.25	9688.94
668.44	8130.44
668.63	7423.89
668.81	6985.62
669.00	6317.98
669.19	5746.60
669.38	5093.30
669.56	4499.39
669.75	4028.35
669.94	3516.36
670.12	2930.64
670.31	2516.95
670.50	2301.92
670.68	2017.25
670.87	1904.61
671.06	1841.12
671.24	1816.55
671.43	1865.70
671.62	1742.82
671.80	1683.43
671.99	1806.31
672.18	1746.92
672.36	1847.27
672.55	1708.01
672.74	1703.91
672.92	1806.31
673.11	1658.85
673.29	1730.53
673.48	1742.82
673.67	1636.33
673.85	1744.87
674.04	1673.19
674.23	1746.92
674.41	1814.50
674.60	1654.76
674.79	1619.94
674.97	1662.95
675.16	1718.25
675.34	1751.01
675.53	1621.99
675.72	1720.29
675.90	1828.84
676.09	1648.61
676.28	1705.96
676.46	1593.32
676.65	1699.81
676.83	1632.23
677.02	1660.90
677.21	1669.09
677.39	1738.73
677.58	1742.82
677.77	1689.57
677.95	1648.61
678.14	1685.48
678.32	1693.67
678.51	1673.19
678.70	1791.97
678.88	1738.73
679.07	1724.39
679.25	1650.66
679.44	1691.62
679.63	1656.81
679.81	1740.77
680.00	1820.64
680.18	1738.73
680.37	1785.83
680.55	1751.01
680.74	1695.72
680.93	1615.85
681.11	1701.86
681.30	1755.11
681.48	1685.48
681.67	1742.82
681.85	1775.59
682.04	1695.72
682.23	1814.50
682.41	1738.73
682.60	1763.30
682.78	1771.49
682.97	1763.30
683.15	1722.34
683.34	1726.44
683.53	1853.41
683.71	1654.76
683.90	1789.92
684.08	1822.69
684.27	1636.33
684.45	1785.83
684.64	1783.78
684.82	1710.05
685.01	1736.68
685.19	1685.48
685.38	1802.21
685.57	1695.72
685.75	1748.97
685.94	1683.43
686.12	1607.66
686.31	1722.34
686.49	1865.70
686.68	1630.18
686.86	1787.88
687.05	1656.81
687.23	1755.11
687.42	1603.56
687.60	1726.44
687.79	1738.73
687.97	1757.16
688.16	1820.64
688.34	1763.30
688.53	1621.99
688.71	1744.87
688.90	1841.12
689.08	1642.47
689.27	1576.94
689.45	1834.98
689.64	1736.68
689.82	1757.16
690.01	1763.30
690.19	1796.07
690.38	1720.29
690.56	1806.31
690.75	1691.62
690.93	1642.47
691.12	1724.39
691.30	1730.53
691.49	1667.05
691.67	1734.63
691.86	1804.26
692.04	1705.96
692.23	1648.61
692.41	1699.81
692.60	1857.51
692.78	1828.84
692.97	1685.48
693.15	1730.53
693.34	1892.32
693.52	1730.53
693.71	1693.67
693.89	1751.01
694.08	1671.14
694.26	1728.49
694.44	1726.44
694.63	1771.49
694.81	1671.14
695.00	1687.53
695.18	1812.45
695.37	1859.56
695.55	1781.73
695.74	1705.96
695.92	1595.37
696.10	1665.00
696.29	1583.08
696.47	1679.33
696.66	1572.84
696.84	1691.62
697.03	1703.91
697.21	1796.07
697.40	2424.80
697.58	1716.20
697.76	1652.71
697.95	1691.62
698.13	1705.96
698.32	1646.57
698.50	1765.35
698.68	1734.63
698.87	1740.77
699.05	1748.97
699.24	1662.95
699.42	1681.38
699.61	1748.97
699.79	1693.67
699.97	1701.86
700.16	1656.81
700.34	1634.28
700.53	1767.40
700.71	1806.31
700.89	1822.69
701.08	1722.34
701.26	1681.38
701.45	2107.36
701.63	1669.09
701.81	1705.96
702.00	1673.19
702.18	1744.87
702.37	1701.86
702.55	1773.54
702.73	1730.53
702.92	1708.01
703.10	1763.30
703.28	1785.83
703.47	1615.85
703.65	1771.49
703.84	1738.73
704.02	1732.58
704.20	1759.21
704.39	1658.85
704.57	1714.15
704.75	1667.05
704.94	1751.01
705.12	1677.29
705.30	1810.40
705.49	2318.30
705.67	4360.13
705.86	9361.27
706.04	12656.45
706.22	14669.60
706.41	15496.98
706.59	13942.57
706.77	9633.64
706.96	7423.89
707.14	6510.49
707.32	6010.79
707.51	5580.71
707.69	4984.76
707.87	4196.29
708.06	3612.62
708.24	2955.22
708.42	2381.79
708.61	2340.83
708.79	1968.10
708.97	1910.75
709.16	1845.22
709.34	1814.50
709.52	1730.53
709.71	1732.58
709.89	1736.68
710.07	1626.09
710.26	1738.73
710.44	1730.53
710.62	1789.92
710.80	1769.44
710.99	1757.16
711.17	1724.39
711.35	1697.77
711.54	1744.87
711.72	1857.51
711.90	1767.40
712.09	1701.86
712.27	1687.53
712.45	1722.34
712.63	1699.81
712.82	1658.85
713.00	1705.96
713.18	1757.16
713.37	1783.78
713.55	1777.64
713.73	1679.33
713.91	1732.58
714.10	1701.86
714.28	1671.14
714.46	1837.03
714.65	1742.82
714.83	1738.73
715.01	1718.25
715.19	1716.20
715.38	1667.05
715.56	1660.90
715.74	1748.97
715.92	1632.23
716.11	1794.02
716.29	1626.09
716.47	1734.63
716.65	1695.72
716.84	1671.14
717.02	1826.79
717.20	1671.14
717.38	1656.81
717.57	1714.15
717.75	1691.62
717.93	1687.53
718.11	1712.10
718.30	1632.23
718.48	1708.01
718.66	1781.73
718.84	1757.16
719.03	1677.29
719.21	1603.56
719.39	1763.30
719.57	1753.06
719.75	1755.11
719.94	1652.71
720.12	1693.67
720.30	1802.21
720.48	1804.26
720.67	1607.66
720.85	1710.05
721.03	1669.09
721.21	1615.85
721.39	1851.36
721.58	1748.97
721.76	1730.53
721.94	1695.72
722.12	1757.16
722.30	1755.11
722.49	1658.85
722.67	1730.53
722.85	1742.82
723.03	1626.09
723.21	1679.33
723.40	1738.73
723.58	1738.73
723.76	1726.44
723.94	1783.78
724.12	1716.20
724.30	1697.77
724.49	1837.03
724.67	1693.67
724.85	1728.49
725.03	1644.52
725.21	1775.59
725.40	1744.87
725.58	1650.66
725.76	1732.58
725.94	1687.53
726.12	1685.48
726.30	1697.77
726.49	1669.09
726.67	1667.05
726.85	1738.73
727.03	1746.92
727.21	2121.70
727.39	2928.60
727.57	3940.29
727.76	4247.49
727.94	4450.24
728.12	4405.18
728.30	3721.16
728.48	2928.60
728.66	2834.39
728.84	2633.69
729.03	2342.88
729.21	2168.80
729.39	2004.96
729.57	1925.09
729.75	1755.11
729.93	1841.12
730.11	1708.01
730.30	1642.47
730.48	1683.43
730.66	1806.31
730.84	1785.83
731.02	1765.35
731.20	1710.05
731.38	1697.77
731.56	1667.05
731.74	1656.81
731.93	1714.15
732.11	1703.91
732.29	1773.54
732.47	1736.68
732.65	1751.01
732.83	1785.83
733.01	1689.57
733.19	1714.15
733.37	1759.21
733.56	1695.72
733.74	1691.62
733.92	1830.88
734.10	1658.85
734.28	1673.19
734.46	1695.72
734.64	1667.05
734.82	1783.78
735.00	1640.42
735.18	1679.33
735.36	1708.01
735.54	1734.63
735.73	1695.72
735.91	1724.39
736.09	1724.39
736.27	1656.81
736.45	1767.40
736.63	1597.42
736.81	1708.01
736.99	1675.24
737.17	1822.69
737.35	1716.20
737.53	1708.01
737.71	1755.11
737.89	1755.11
738.07	1654.76
738.25	1685.48
738.43	1601.51
738.61	1765.35
738.80	1619.94
738.98	1642.47
739.16	1640.42
739.34	1710.05
739.52	1755.11
739.70	1710.05
739.88	1744.87
740.06	1800.16
740.24	1609.70
740.42	1777.64
740.60	1556.46
740.78	1646.57
740.96	1624.04
741.14	1720.29
741.32	1710.05
741.50	1695.72
741.68	1837.03
741.86	1787.88
742.04	1685.48
742.22	1621.99
742.40	1738.73
742.58	1798.12
742.76	1656.81
742.94	1789.92
743.12	1697.77
743.30	1687.53
743.48	1794.02
743.66	1697.77
743.84	1765.35
744.02	1695.72
744.20	1781.73
744.38	1705.96
744.56	1654.76
744.74	1783.78
744.92	1791.97
745.10	1783.78
745.28	1765.35
745.46	1761.25
745.64	1701.86
745.82	1800.16
746.00	1673.19
746.18	1755.11
746.36	1726.44
746.54	1730.53
746.72	1720.29
746.90	1712.10
747.08	1738.73
747.26	1724.39
747.44	1794.02
747.62	1775.59
747.80	1736.68
747.98	1667.05
748.15	1740.77
748.33	1832.93
748.51	1798.12
748.69	1730.53
748.87	1654.76
749.05	1589.22
749.23	1648.61
749.41	1695.72
749.59	1648.61
749.77	1777.64
749.95	1699.81
750.13	1714.15
750.31	1681.38
750.49	1693.67
750.67	1722.34
750.85	1787.88
751.03	1710.05
751.20	1806.31
751.38	1699.81
751.56	1757.16
751.74	1732.58
751.92	1738.73
752.10	1656.81
752.28	1814.50
752.46	1681.38
752.64	1681.38
752.82	1693.67
753.00	1810.40
753.18	1636.33
753.35	1697.77
753.53	1689.57
753.71	1636.33
753.89	1753.06
754.07	1769.44
754.25	1718.25
754.43	1738.73
754.61	1638.38
754.79	1710.05
754.97	1736.68
755.14	1802.21
755.32	1601.51
755.50	1710.05
755.68	1710.05
755.86	1646.57
756.04	1675.24
756.22	1677.29
756.40	1783.78
756.57	1845.22
756.75	1640.42
756.93	1783.78
757.11	1800.16
757.29	1763.30
757.47	1605.61
757.65	1683.43
757.82	1562.60
758.00	1621.99
758.18	1695.72
758.36	1759.21
758.54	1826.79
758.72	1609.70
758.90	1724.39
759.07	1697.77
759.25	1708.01
759.43	1671.14
759.61	1642.47
759.79	2131.94
759.97	1755.11
760.15	1695.72
760.32	1646.57
760.50	1722.34
760.68	1742.82
760.86	1671.14
761.04	1837.03
761.22	1820.64
761.39	1681.38
761.57	1757.16
761.75	1736.68
761.93	1787.88
762.11	1683.43
762.28	1708.01
762.46	1656.81
762.64	1810.40
762.82	1636.33
763.00	1705.96
763.18	1771.49
763.35	1578.98
763.53	1691.62
763.71	1689.57
763.89	1689.57
764.07	1636.33
764.24	1771.49
764.42	1771.49
764.60	1708.01
764.78	1714.15
764.96	1730.53
765.13	1755.11
765.31	1693.67
765.49	1839.08
765.67	1609.70
765.84	1634.28
766.02	1726.44
766.20	1613.80
766.38	1716.20
766.56	1763.30
766.73	1757.16
766.91	1681.38
767.09	1669.09
767.27	1730.53
767.44	1695.72
767.62	1736.68
767.80	1787.88
767.98	1624.04
768.15	1789.92
768.33	1763.30
768.51	1748.97
768.69	1720.29
768.87	1783.78
769.04	1689.57
769.22	1777.64
769.40	1748.97
769.58	1798.12
769.75	1689.57
769.93	1802.21
770.11	1687.53
770.28	1656.81
770.46	1689.57
770.64	1681.38
770.82	1683.43
770.99	1677.29
771.17	1736.68
771.35	1683.43
771.53	1763.30
771.70	1658.85
771.88	1673.19
772.06	1703.91
772.23	1697.77
772.41	1773.54
772.59	1681.38
772.77	1669.09
772.94	1628.14
773.12	1697.77
773.30	1718.25
773.47	1648.61
773.65	1687.53
773.83	1800.16
774.01	1791.97
774.18	1650.66
774.36	1720.29
774.54	1609.70
774.71	1767.40
774.89	1601.51
775.07	1660.90
775.24	1652.71
775.42	1642.47
775.60	1849.32
775.78	1646.57
775.95	1593.32
776.13	1644.52
776.31	1632.23
776.48	1761.25
776.66	1681.38
776.84	1662.95
777.01	1685.48
777.19	1671.14
777.37	1718.25
777.54	1712.10
777.72	1834.98
777.90	1753.06
778.07	1617.90
778.25	1945.57
778.43	1724.39
778.60	1679.33
778.78	1718.25
778.96	1753.06
779.13	1669.09
779.31	1722.34
779.49	1755.11
779.66	1658.85
779.84	1767.40
780.01	1763.30
780.19	1677.29
780.37	1726.44
780.54	1783.78
780.72	1587.18
780.90	1773.54
781.07	1746.92
781.25	1703.91
781.43	1710.05
781.60	1722.34
781.78	1787.88
781.95	1738.73
782.13	1687.53
782.31	1693.67
782.48	1671.14
782.66	1708.01
782.83	1845.22
783.01	1703.91
783.19	1751.01
783.36	1708.01
783.54	1619.94
783.72	1753.06
783.89	1714.15
784.07	1755.11
784.24	1751.01
784.42	1787.88
784.60	1740.77
784.77	1763.30
784.95	1611.75
785.12	1628.14
785.30	1705.96
785.47	1665.00
785.65	1609.70
785.83	1693.67
786.00	1671.14
786.18	1746.92
786.35	1560.55
786.53	1634.28
786.71	1734.63
786.88	1730.53
787.06	1669.09
787.23	1746.92
787.41	1652.71
787.58	1730.53
787.76	1683.43
787.94	1673.19
788.11	1736.68
788.29	1656.81
788.46	1626.09
788.64	1619.94
788.81	1656.81
788.99	1705.96
789.16	1738.73
789.34	1732.58
789.52	1679.33
789.69	1654.76
789.87	1613.80
790.04	1710.05
790.22	1689.57
790.39	1777.64
790.57	1652.71
790.74	1675.24
790.92	1794.02
791.09	1646.57
791.27	1697.77
791.44	1736.68
791.62	1763.30
791.79	1796.07
791.97	1710.05
792.15	1951.71
792.32	1802.21
792.50	1695.72
792.67	1708.01
792.85	1781.73
793.02	1667.05
793.20	1681.38
793.37	1634.28
793.55	1665.00
793.72	1656.81
793.90	1712.10
794.07	1685.48
794.25	1564.65
794.42	1763.30
794.60	1646.57
794.77	1781.73
794.95	1761.25
795.12	1777.64
795.30	1673.19
795.47	1687.53
795.65	1908.71
795.82	1718.25
796.00	1644.52
796.17	1730.53
796.34	1691.62
796.52	1699.81
796.69	1732.58
796.87	1677.29
797.04	1710.05
797.22	1718.25
797.39	1679.33
797.57	1796.07
797.74	1757.16
797.92	1742.82
798.09	1697.77
798.27	1761.25
798.44	1742.82
798.62	1621.99
798.79	1712.10
798.96	1740.77
799.14	1697.77
799.31	1818.60
799.49	1644.52
799.66	1765.35
799.84	1736.68
800.01	1714.15
800.19	1722.34
800.36	1681.38
800.53	1740.77
800.71	1746.92
800.88	1826.79
801.06	1755.11
801.23	1650.66
801.41	1712.10
801.58	1597.42
801.75	1646.57
801.93	1726.44
802.10	1777.64
802.28	1662.95
802.45	1726.44
802.63	1763.30
802.80	1796.07
802.97	1712.10
803.15	1734.63
803.32	1716.20
803.50	1654.76
803.67	1667.05
803.84	1658.85
804.02	1621.99
804.19	1691.62
804.37	1646.57
804.54	1638.38
804.71	1734.63
804.89	1691.62
805.06	1626.09
805.24	1701.86
805.41	1658.85
805.58	1665.00
805.76	1820.64
805.93	1775.59
806.10	1837.03
806.28	1648.61
806.45	1615.85
806.63	1751.01
806.80	1773.54
806.97	1755.11
807.15	1722.34
807.32	1683.43
807.49	1650.66
807.67	1578.98
807.84	1679.33
808.01	1626.09
808.19	1834.98
808.36	1830.88
808.54	1677.29
808.71	1640.42
808.88	1753.06
809.06	1824.74
809.23	1839.08
809.40	1683.43
809.58	1824.74
809.75	1734.63
809.92	1748.97
810.10	1847.27
810.27	1708.01
810.44	1699.81
810.62	1751.01
810.79	1660.90
810.96	1681.38
811.14	1624.04
811.31	1767.40
811.48	1714.15
811.66	1730.53
811.83	1798.12
812.00	1757.16
812.18	1753.06
812.35	1845.22
812.52	1617.90
812.69	1652.71
812.87	1656.81
813.04	1617.90
813.21	1740.77
813.39	1632.23
813.56	1628.14
813.73	1701.86
813.91	1560.55
814.08	1718.25
814.25	1705.96
814.42	1650.66
814.60	1669.09
814.77	1736.68
814.94	1710.05
815.12	1685.48
815.29	1798.12
815.46	1681.38
815.63	1716.20
815.81	1693.67
815.98	1697.77
816.15	1712.10
816.33	1808.36
816.50	1724.39
816.67	1665.00
816.84	1716.20
817.02	1669.09
817.19	1660.90
817.36	1753.06
817.53	1722.34
817.71	1705.96
817.88	1779.68
818.05	1665.00
818.22	1689.57
818.40	1753.06
818.57	1652.71
818.74	1691.62
818.91	1679.33
819.09	1738.73
819.26	1787.88
819.43	1613.80
819.60	1703.91
819.78	1779.68
819.95	1810.40
820.12	1642.47
820.29	1812.45
820.47	1800.16
820.64	1636.33
820.81	1646.57
820.98	1677.29
821.15	1656.81
821.33	1822.69
821.50	1611.75
821.67	1742.82
821.84	1644.52
822.02	1744.87
822.19	1800.16
822.36	1673.19
822.53	1658.85
822.70	1671.14
822.88	1689.57
823.05	1855.46
823.22	1695.72
823.39	1724.39
823.56	1677.29
823.74	1779.68
823.91	1638.38
824.08	1628.14
824.25	1693.67
824.42	1787.88
824.60	1660.90
824.77	1730.53
824.94	1630.18
825.11	1730.53
825.28	1624.04
825.45	1667.05
825.63	1736.68
825.80	1714.15
825.97	1808.36
826.14	1730.53
826.31	1634.28
826.48	1773.54
826.66	1650.66
826.83	1626.09
827.00	1757.16
827.17	1624.04
827.34	1712.10
827.51	1724.39
827.69	1681.38
827.86	1636.33
828.03	1671.14
828.20	1685.48
828.37	1703.91
828.54	1722.34
828.71	1736.68
828.89	1783.78
829.06	1738.73
829.23	1771.49
829.40	1714.15
829.57	1660.90
829.74	1748.97
829.91	1705.96
830.09	1652.71
830.26	1744.87
830.43	1744.87
830.60	1746.92
830.77	1708.01
830.94	1759.21
831.11	1757.16
831.28	1665.00
831.46	1705.96
831.63	1685.48
831.80	1734.63
831.97	1691.62
832.14	1665.00
832.31	1673.19
832.48	1695.72
832.65	1712.10
832.82	1767.40
832.99	1746.92
833.17	1658.85
833.34	1794.02
833.51	1734.63
833.68	1615.85
833.85	1732.58
834.02	1646.57
834.19	1689.57
834.36	1708.01
834.53	1730.53
834.70	1718.25
834.87	1796.07
835.04	1761.25
835.22	1632.23
835.39	1734.63
835.56	1634.28
835.73	1673.19
835.90	1722.34
836.07	1669.09
836.24	1708.01
836.41	1533.93
836.58	1660.90
836.75	1808.36
836.92	1705.96
837.09	1685.48
837.26	1808.36
837.43	1732.58
837.60	1716.20
837.77	1646.57
837.94	1779.68
838.12	1708.01
838.29	1767.40
838.46	1701.86
838.63	1673.19
838.80	1789.92
838.97	1738.73
839.14	1734.63
839.31	1689.57
839.48	1728.49
839.65	1703.91
839.82	1779.68
839.99	1634.28
840.16	1687.53
840.33	1652.71
840.50	1771.49
840.67	1667.05
840.84	1613.80
841.01	1669.09
841.18	1650.66
841.35	1726.44
841.52	1695.72
841.69	1882.08
841.86	1726.44
842.03	1693.67
842.20	1781.73
842.37	1677.29
842.54	1753.06
842.71	1742.82
842.88	1662.95
843.05	1746.92
843.22	1673.19
843.39	1718.25
843.56	1708.01
843.73	1746.92
843.90	1759.21
844.07	1736.68
844.24	1738.73
844.41	1800.16
844.58	1679.33
844.75	1626.09
844.92	1761.25
845.09	1742.82
845.26	1638.38
845.43	1652.71
845.60	1699.81
845.77	1748.97
845.94	1718.25
846.10	1763.30
846.27	1568.74
846.44	1685.48
846.61	1654.76
846.78	1769.44
846.95	1787.88
847.12	1662.95
847.29	1691.62
847.46	1648.61
847.63	1716.20
847.80	1693.67
847.97	1624.04
848.14	1832.93
848.31	1665.00
848.48	1603.56
848.65	1783.78
848.82	1640.42
848.98	1853.41
849.15	1681.38
849.32	1806.31
849.49	1728.49
849.66	1712.10
849.83	1730.53
850.00	1617.90
850.17	1744.87
850.34	1697.77
850.51	1720.29
850.68	1665.00
850.85	1820.64
851.01	1767.40
851.18	1765.35
851.35	1626.09
851.52	1726.44
851.69	1816.55
851.86	1662.95
852.03	1697.77
852.20	1771.49
852.37	1681.38
852.53	1615.85
852.70	1767.40
852.87	1714.15
853.04	1708.01
853.21	1671.14
853.38	1759.21
853.55	1703.91
853.72	1724.39
853.89	1615.85
854.05	1667.05
854.22	1699.81
854.39	1673.19
854.56	1708.01
854.73	1757.16
854.90	1638.38
855.07	1685.48
855.23	1691.62
855.40	1669.09
855.57	1632.23
855.74	1578.98
855.91	1851.36
856.08	1626.09
856.25	1724.39
856.41	1681.38
856.58	1669.09
856.75	1718.25
856.92	1685.48
857.09	1730.53
857.26	1601.51
857.42	1667.05
857.59	1796.07
857.76	1712.10
857.93	1646.57
858.10	1771.49
858.27	1632.23
858.43	1714.15
858.60	1665.00
858.77	1648.61
858.94	1722.34
859.11	1730.53
859.27	1695.72
859.44	1738.73
859.61	1779.68
859.78	1830.88
859.95	1722.34
860.12	1687.53
860.28	1781.73
860.45	1816.55
860.62	1677.29
860.79	1751.01
860.95	1726.44
861.12	1683.43
861.29	1648.61
861.46	1693.67
861.63	1697.77
861.79	1728.49
861.96	1636.33
862.13	1710.05
862.30	1808.36
862.47	1675.24
862.63	1705.96
862.80	1771.49
862.97	1705.96
863.14	1742.82
863.30	1761.25
863.47	1621.99
863.64	1789.92
863.81	1759.21
863.97	1734.63
864.14	1716.20
864.31	1665.00
864.48	1714.15
864.65	1697.77
864.81	1712.10
864.98	1748.97
865.15	1783.78
865.32	1703.91
865.48	1832.93
865.65	1781.73
865.82	1673.19
865.98	1708.01
866.15	1742.82
866.32	1746.92
866.49	1736.68
866.65	1816.55
866.82	1658.85
866.99	1681.38
867.16	1669.09
867.32	1699.81
867.49	1677.29
867.66	1632.23
867.83	1697.77
867.99	1591.27
868.16	1673.19
868.33	1589.22
868.49	1644.52
868.66	1722.34
868.83	1730.53
868.99	1689.57
869.16	1761.25
869.33	1800.16
869.50	1734.63
869.66	1734.63
869.83	1699.81
870.00	1607.66
870.16	1773.54
870.33	1763.30
870.50	1781.73
870.66	1660.90
870.83	1890.28
871.00	1687.53
871.17	1722.34
871.33	1765.35
871.50	1746.92
871.67	1648.61
871.83	1660.90
872.00	1888.23
872.17	1609.70
872.33	1761.25
872.50	1730.53
872.67	1710.05
872.83	1779.68
873.00	1769.44
873.17	1767.40
873.33	1810.40
873.50	1777.64
873.67	1615.85
873.83	1675.24
874.00	1613.80
874.16	1730.53
874.33	1742.82
874.50	1710.05
874.66	1755.11
874.83	1677.29
875.00	1785.83
875.16	1824.74
875.33	1808.36
875.50	1562.60
875.66	1685.48
875.83	1652.71
875.99	1785.83
876.16	1675.24
876.33	1677.29
876.49	1689.57
876.66	1695.72
876.83	1648.61
876.99	1628.14
877.16	1757.16
877.32	1730.53
877.49	1665.00
877.66	1638.38
877.82	1781.73
877.99	1712.10
878.15	1755.11
878.32	1705.96
878.49	1730.53
878.65	1652.71
878.82	1787.88
878.98	1640.42
879.15	1847.27
879.32	1783.78
879.48	1740.77
879.65	1744.87
879.81	1687.53
879.98	1712.10
880.15	1697.77
880.31	1775.59
880.48	1708.01
880.64	1839.08
880.81	1759.21
880.97	1843.17
881.14	1794.02
881.31	1681.38
881.47	1832.93
881.64	1669.09
881.80	1638.38
881.97	1708.01
882.13	1689.57
882.30	1634.28
882.47	1722.34
882.63	1736.68
882.80	1673.19
882.96	1695.72
883.13	1708.01
883.29	1757.16
883.46	1712.10
883.62	1751.01
883.79	1703.91
883.95	1681.38
884.12	1705.96
884.29	1771.49
884.45	1779.68
884.62	1691.62
884.78	1624.04
884.95	1722.34
885.11	1685.48
885.28	1751.01
885.44	1689.57
885.61	1730.53
885.77	1812.45
885.94	1796.07
886.10	1693.67
886.27	1742.82
886.43	1802.21
886.60	1867.75
886.76	1669.09
886.93	1667.05
887.09	1722.34
887.26	1615.85
887.42	1662.95
887.59	1773.54
887.75	1851.36
887.92	1771.49
888.08	1722.34
888.25	1816.55
888.41	1705.96
888.58	1683.43
888.74	1705.96
888.91	1644.52
>>>>>End Processed Spectral Data<<<<<
