SpectraSuite Data File
++++++++++++++++++++++++++++++++++++
Date: Mon Jun 06 14:03:37 CEST 2016
User: root
Dark Spectrum Present: No
Reference Spectrum Present: No
Number of Sampled Component Spectra: 1
Spectrometers: USB4C02835
Integration Time (usec): 100000 (USB4C02835)
Spectra Averaged: 1 (USB4C02835)
Boxcar Smoothing: 0 (USB4C02835)
Correct for Electrical Dark: No (USB4C02835)
Strobe/Lamp Enabled: No (USB4C02835)
Correct for Detector Non-linearity: No (USB4C02835)
Correct for Stray Light: No (USB4C02835)
Number of Pixels in Processed Spectrum: 3648
>>>>>Begin Processed Spectral Data<<<<<
177.47	1378.28
177.69	1378.28
177.91	1378.28
178.13	1421.29
178.36	1396.71
178.58	1720.29
178.80	1691.62
179.02	1638.38
179.24	1595.37
179.46	1679.33
179.68	1791.97
179.90	1632.23
180.13	1767.40
180.35	1632.23
180.57	1603.56
180.79	1785.83
181.01	1617.90
181.23	1716.20
181.45	1779.68
181.67	1751.01
181.90	1771.49
182.12	1673.19
182.34	1603.56
182.56	1777.64
182.78	1681.38
183.00	1724.39
183.22	1736.68
183.44	1613.80
183.66	1896.42
183.89	1746.92
184.11	1675.24
184.33	1718.25
184.55	1830.88
184.77	1695.72
184.99	1673.19
185.21	1632.23
185.43	1873.89
185.65	1718.25
185.87	1669.09
186.10	1859.56
186.32	1798.12
186.54	1710.05
186.76	1742.82
186.98	1783.78
187.20	1642.47
187.42	1683.43
187.64	1716.20
187.86	1738.73
188.08	1691.62
188.30	1667.05
188.52	1679.33
188.75	1779.68
188.97	1812.45
189.19	1685.48
189.41	1652.71
189.63	1671.14
189.85	1699.81
190.07	1652.71
190.29	1681.38
190.51	1673.19
190.73	1597.42
190.95	1791.97
191.17	1726.44
191.39	1640.42
191.61	1669.09
191.84	1685.48
192.06	1691.62
192.28	1652.71
192.50	1882.08
192.72	1708.01
192.94	1718.25
193.16	1712.10
193.38	1650.66
193.60	1619.94
193.82	1759.21
194.04	1765.35
194.26	1669.09
194.48	1687.53
194.70	1675.24
194.92	1708.01
195.14	1736.68
195.36	1701.86
195.58	1662.95
195.80	1712.10
196.02	1581.03
196.24	1697.77
196.46	1742.82
196.69	1683.43
196.91	1863.65
197.13	1683.43
197.35	1683.43
197.57	1796.07
197.79	1763.30
198.01	1673.19
198.23	1761.25
198.45	1730.53
198.67	1689.57
198.89	1759.21
199.11	1734.63
199.33	1634.28
199.55	1636.33
199.77	1720.29
199.99	1722.34
200.21	1607.66
200.43	1714.15
200.65	1656.81
200.87	1609.70
201.09	1724.39
201.31	1703.91
201.53	1708.01
201.75	1796.07
201.97	1689.57
202.19	1783.78
202.41	1665.00
202.63	1863.65
202.85	1775.59
203.07	1708.01
203.29	1691.62
203.51	1599.46
203.73	1591.27
203.95	1869.80
204.17	1697.77
204.39	1759.21
204.61	1691.62
204.83	1626.09
205.05	1769.44
205.27	1775.59
205.49	1830.88
205.71	1644.52
205.93	1652.71
206.15	1654.76
206.37	1722.34
206.59	1644.52
206.81	1628.14
207.03	1630.18
207.25	1628.14
207.47	1779.68
207.69	1722.34
207.91	1765.35
208.13	1703.91
208.34	1658.85
208.56	1599.46
208.78	1732.58
209.00	1697.77
209.22	1576.94
209.44	1699.81
209.66	1708.01
209.88	1708.01
210.10	1689.57
210.32	1693.67
210.54	1779.68
210.76	1601.51
210.98	1757.16
211.20	1517.54
211.42	1726.44
211.64	1771.49
211.86	1691.62
212.08	1726.44
212.30	1744.87
212.52	1685.48
212.74	1699.81
212.96	1730.53
213.17	1736.68
213.39	1734.63
213.61	1746.92
213.83	1685.48
214.05	1626.09
214.27	1824.74
214.49	1595.37
214.71	1607.66
214.93	1708.01
215.15	1714.15
215.37	1759.21
215.59	1589.22
215.81	1773.54
216.03	1814.50
216.24	1720.29
216.46	1738.73
216.68	1724.39
216.90	1738.73
217.12	1765.35
217.34	1720.29
217.56	1751.01
217.78	1787.88
218.00	1712.10
218.22	1708.01
218.44	1697.77
218.66	1744.87
218.87	1785.83
219.09	1669.09
219.31	1724.39
219.53	1726.44
219.75	1724.39
219.97	1751.01
220.19	1673.19
220.41	1683.43
220.63	1763.30
220.85	1724.39
221.06	1667.05
221.28	1771.49
221.50	1767.40
221.72	1669.09
221.94	1699.81
222.16	1665.00
222.38	1740.77
222.60	1732.58
222.82	1687.53
223.03	1742.82
223.25	1609.70
223.47	1759.21
223.69	1796.07
223.91	1791.97
224.13	1697.77
224.35	1681.38
224.57	1748.97
224.78	1701.86
225.00	1667.05
225.22	1665.00
225.44	1759.21
225.66	1669.09
225.88	1646.57
226.10	1726.44
226.32	1703.91
226.53	1882.08
226.75	1640.42
226.97	1712.10
227.19	1732.58
227.41	1705.96
227.63	1656.81
227.85	1642.47
228.06	1677.29
228.28	1638.38
228.50	1726.44
228.72	1611.75
228.94	1662.95
229.16	1576.94
229.37	1632.23
229.59	1658.85
229.81	1757.16
230.03	1718.25
230.25	1660.90
230.47	1695.72
230.69	1701.86
230.90	1744.87
231.12	1636.33
231.34	1722.34
231.56	1755.11
231.78	1630.18
232.00	1716.20
232.21	1685.48
232.43	1648.61
232.65	1544.17
232.87	1779.68
233.09	1650.66
233.30	1726.44
233.52	1693.67
233.74	1669.09
233.96	1765.35
234.18	1783.78
234.40	1665.00
234.61	1861.60
234.83	1665.00
235.05	1630.18
235.27	1757.16
235.49	1775.59
235.70	1730.53
235.92	1794.02
236.14	1650.66
236.36	1877.99
236.58	1652.71
236.79	1728.49
237.01	1744.87
237.23	1757.16
237.45	1783.78
237.67	1650.66
237.88	1699.81
238.10	1824.74
238.32	1701.86
238.54	1708.01
238.76	1693.67
238.97	1722.34
239.19	1667.05
239.41	1716.20
239.63	1689.57
239.85	1638.38
240.06	1708.01
240.28	1705.96
240.50	1785.83
240.72	1679.33
240.93	1753.06
241.15	1755.11
241.37	1681.38
241.59	1767.40
241.81	1730.53
242.02	1689.57
242.24	1738.73
242.46	1820.64
242.68	1621.99
242.89	1726.44
243.11	1773.54
243.33	1716.20
243.55	1718.25
243.76	1740.77
243.98	1691.62
244.20	1675.24
244.42	1630.18
244.64	1742.82
244.85	1634.28
245.07	1621.99
245.29	1716.20
245.51	1685.48
245.72	1697.77
245.94	1763.30
246.16	1718.25
246.38	1777.64
246.59	1613.80
246.81	1574.89
247.03	1689.57
247.24	1644.52
247.46	1677.29
247.68	1634.28
247.90	1675.24
248.11	1634.28
248.33	1695.72
248.55	1748.97
248.77	1675.24
248.98	1781.73
249.20	1763.30
249.42	1656.81
249.64	1728.49
249.85	1683.43
250.07	1617.90
250.29	1742.82
250.50	1710.05
250.72	1695.72
250.94	1667.05
251.16	1761.25
251.37	1771.49
251.59	1789.92
251.81	1642.47
252.02	1665.00
252.24	1716.20
252.46	1765.35
252.68	1624.04
252.89	1636.33
253.11	1640.42
253.33	1771.49
253.54	1765.35
253.76	1632.23
253.98	1648.61
254.20	1673.19
254.41	1585.13
254.63	1765.35
254.85	1681.38
255.06	1753.06
255.28	1697.77
255.50	1626.09
255.71	1681.38
255.93	1621.99
256.15	1605.61
256.36	1748.97
256.58	1705.96
256.80	1724.39
257.02	1671.14
257.23	1703.91
257.45	1675.24
257.67	1779.68
257.88	1716.20
258.10	1662.95
258.32	1669.09
258.53	1687.53
258.75	1796.07
258.97	1654.76
259.18	1724.39
259.40	1708.01
259.62	1830.88
259.83	1765.35
260.05	1718.25
260.27	1986.53
260.48	1742.82
260.70	1615.85
260.92	1693.67
261.13	1705.96
261.35	1638.38
261.57	1728.49
261.78	1697.77
262.00	1677.29
262.22	1732.58
262.43	1724.39
262.65	1640.42
262.86	1689.57
263.08	1865.70
263.30	1740.77
263.51	1607.66
263.73	1615.85
263.95	1794.02
264.16	1660.90
264.38	1679.33
264.60	1757.16
264.81	1687.53
265.03	1691.62
265.25	1720.29
265.46	1740.77
265.68	1716.20
265.89	1796.07
266.11	1617.90
266.33	1789.92
266.54	1753.06
266.76	1775.59
266.98	1708.01
267.19	1775.59
267.41	1718.25
267.62	1665.00
267.84	1619.94
268.06	1714.15
268.27	1806.31
268.49	1748.97
268.70	1722.34
268.92	1660.90
269.14	1658.85
269.35	1624.04
269.57	1660.90
269.79	1726.44
270.00	1705.96
270.22	1873.89
270.43	1712.10
270.65	1652.71
270.87	1744.87
271.08	1757.16
271.30	1777.64
271.51	1683.43
271.73	1699.81
271.95	1814.50
272.16	1660.90
272.38	1683.43
272.59	1736.68
272.81	1624.04
273.02	1740.77
273.24	1679.33
273.46	1636.33
273.67	1675.24
273.89	1626.09
274.10	1667.05
274.32	1810.40
274.54	1724.39
274.75	1681.38
274.97	1667.05
275.18	1734.63
275.40	1794.02
275.61	1669.09
275.83	1624.04
276.05	1654.76
276.26	1667.05
276.48	1755.11
276.69	1759.21
276.91	1746.92
277.12	1761.25
277.34	1722.34
277.55	1736.68
277.77	1695.72
277.99	1611.75
278.20	1648.61
278.42	1687.53
278.63	1628.14
278.85	1660.90
279.06	1673.19
279.28	1767.40
279.49	1736.68
279.71	1771.49
279.93	1748.97
280.14	1716.20
280.36	1650.66
280.57	1765.35
280.79	1716.20
281.00	1699.81
281.22	1660.90
281.43	1808.36
281.65	1583.08
281.86	1650.66
282.08	1771.49
282.29	1806.31
282.51	1632.23
282.73	1570.79
282.94	1601.51
283.16	1710.05
283.37	1818.60
283.59	1665.00
283.80	1765.35
284.02	1720.29
284.23	1736.68
284.45	1685.48
284.66	1624.04
284.88	1640.42
285.09	1675.24
285.31	1804.26
285.52	1746.92
285.74	1615.85
285.95	1763.30
286.17	1691.62
286.38	1718.25
286.60	1636.33
286.81	1708.01
287.03	1691.62
287.24	1665.00
287.46	1591.27
287.67	1697.77
287.89	1853.41
288.10	1691.62
288.32	1781.73
288.53	1806.31
288.75	1751.01
288.96	1738.73
289.18	1632.23
289.39	1628.14
289.61	1763.30
289.82	1841.12
290.04	1787.88
290.25	1638.38
290.47	1705.96
290.68	1650.66
290.90	1718.25
291.11	1652.71
291.33	1773.54
291.54	1654.76
291.76	1689.57
291.97	1794.02
292.18	1738.73
292.40	1658.85
292.61	1660.90
292.83	1884.13
293.04	1783.78
293.26	1693.67
293.47	1689.57
293.69	1683.43
293.90	1677.29
294.12	1730.53
294.33	1783.78
294.55	1632.23
294.76	1744.87
294.97	1769.44
295.19	1765.35
295.40	1718.25
295.62	1705.96
295.83	1726.44
296.05	1574.89
296.26	1826.79
296.48	1720.29
296.69	1738.73
296.90	1681.38
297.12	1761.25
297.33	1738.73
297.55	1728.49
297.76	1738.73
297.98	1796.07
298.19	1656.81
298.41	1624.04
298.62	1683.43
298.83	1800.16
299.05	1751.01
299.26	1714.15
299.48	1634.28
299.69	1748.97
299.90	1738.73
300.12	1662.95
300.33	1771.49
300.55	1785.83
300.76	1771.49
300.98	1632.23
301.19	1757.16
301.40	1689.57
301.62	1619.94
301.83	1779.68
302.05	1732.58
302.26	1648.61
302.47	1783.78
302.69	1695.72
302.90	1755.11
303.12	1595.37
303.33	1769.44
303.54	1806.31
303.76	1615.85
303.97	1665.00
304.19	1892.32
304.40	1689.57
304.61	1748.97
304.83	1689.57
305.04	1761.25
305.26	1757.16
305.47	1619.94
305.68	1687.53
305.90	1660.90
306.11	1753.06
306.33	1677.29
306.54	1665.00
306.75	1687.53
306.97	1611.75
307.18	1640.42
307.39	1718.25
307.61	1730.53
307.82	1712.10
308.04	1669.09
308.25	1640.42
308.46	1677.29
308.68	1675.24
308.89	1712.10
309.10	1689.57
309.32	1697.77
309.53	1697.77
309.74	1767.40
309.96	1699.81
310.17	1775.59
310.39	1689.57
310.60	1697.77
310.81	1658.85
311.03	1724.39
311.24	1683.43
311.45	1765.35
311.67	1736.68
311.88	1716.20
312.09	1640.42
312.31	1656.81
312.52	1689.57
312.73	1697.77
312.95	1687.53
313.16	1650.66
313.37	1802.21
313.59	1714.15
313.80	1744.87
314.01	1783.78
314.23	1599.46
314.44	1718.25
314.65	1621.99
314.87	1673.19
315.08	1720.29
315.29	1712.10
315.51	1677.29
315.72	1560.55
315.93	1785.83
316.15	1734.63
316.36	1746.92
316.57	1617.90
316.79	1695.72
317.00	1695.72
317.21	1724.39
317.43	1621.99
317.64	1671.14
317.85	1697.77
318.07	1714.15
318.28	1695.72
318.49	1806.31
318.70	1904.61
318.92	1746.92
319.13	1869.80
319.34	1873.89
319.56	1771.49
319.77	1812.45
319.98	1787.88
320.20	1781.73
320.41	1789.92
320.62	1705.96
320.83	1712.10
321.05	1781.73
321.26	1742.82
321.47	1740.77
321.69	1785.83
321.90	1685.48
322.11	1705.96
322.32	1681.38
322.54	1763.30
322.75	1716.20
322.96	1820.64
323.18	1642.47
323.39	1583.08
323.60	1673.19
323.81	1710.05
324.03	1617.90
324.24	1642.47
324.45	1708.01
324.66	1660.90
324.88	1734.63
325.09	1746.92
325.30	1734.63
325.52	1755.11
325.73	1619.94
325.94	1673.19
326.15	1599.46
326.37	1675.24
326.58	1761.25
326.79	1812.45
327.00	1650.66
327.22	1634.28
327.43	1656.81
327.64	1665.00
327.85	1714.15
328.07	1693.67
328.28	1820.64
328.49	1689.57
328.70	1697.77
328.92	1740.77
329.13	1724.39
329.34	1638.38
329.55	1748.97
329.76	1742.82
329.98	1693.67
330.19	1728.49
330.40	1746.92
330.61	1681.38
330.83	1720.29
331.04	1689.57
331.25	1689.57
331.46	1650.66
331.68	1685.48
331.89	1746.92
332.10	1703.91
332.31	1644.52
332.52	1662.95
332.74	1755.11
332.95	1669.09
333.16	1683.43
333.37	1738.73
333.58	1609.70
333.80	1701.86
334.01	1605.61
334.22	1701.86
334.43	1595.37
334.64	1681.38
334.86	1615.85
335.07	1658.85
335.28	1746.92
335.49	1638.38
335.70	1751.01
335.92	1826.79
336.13	1861.60
336.34	1665.00
336.55	1705.96
336.76	1720.29
336.98	1599.46
337.19	1761.25
337.40	1771.49
337.61	1808.36
337.82	1669.09
338.04	1705.96
338.25	1599.46
338.46	1650.66
338.67	1691.62
338.88	1656.81
339.09	1689.57
339.31	1679.33
339.52	1650.66
339.73	1695.72
339.94	1687.53
340.15	1734.63
340.36	1718.25
340.58	1660.90
340.79	1640.42
341.00	1734.63
341.21	1603.56
341.42	1855.46
341.63	1648.61
341.85	1679.33
342.06	1773.54
342.27	1642.47
342.48	1748.97
342.69	1587.18
342.90	1677.29
343.12	1699.81
343.33	1734.63
343.54	1714.15
343.75	1773.54
343.96	1712.10
344.17	1705.96
344.38	1654.76
344.60	1669.09
344.81	1638.38
345.02	1693.67
345.23	1767.40
345.44	1816.55
345.65	1697.77
345.86	1728.49
346.07	1693.67
346.29	1732.58
346.50	1771.49
346.71	1761.25
346.92	1716.20
347.13	1683.43
347.34	1656.81
347.55	1683.43
347.76	1732.58
347.98	1613.80
348.19	1609.70
348.40	1802.21
348.61	1671.14
348.82	1748.97
349.03	1683.43
349.24	1695.72
349.45	1800.16
349.66	1587.18
349.88	1724.39
350.09	1675.24
350.30	1759.21
350.51	1789.92
350.72	1710.05
350.93	1712.10
351.14	1714.15
351.35	1734.63
351.56	1759.21
351.77	1644.52
351.99	1710.05
352.20	1783.78
352.41	1830.88
352.62	1660.90
352.83	1744.87
353.04	1681.38
353.25	1736.68
353.46	1763.30
353.67	1767.40
353.88	1660.90
354.09	1765.35
354.30	1615.85
354.52	1769.44
354.73	1722.34
354.94	1632.23
355.15	1685.48
355.36	1775.59
355.57	1619.94
355.78	1724.39
355.99	1658.85
356.20	1683.43
356.41	1765.35
356.62	1712.10
356.83	1699.81
357.04	1806.31
357.25	1722.34
357.46	1658.85
357.68	1675.24
357.89	1730.53
358.10	1693.67
358.31	1687.53
358.52	1708.01
358.73	1611.75
358.94	1544.17
359.15	1730.53
359.36	1804.26
359.57	1669.09
359.78	1722.34
359.99	1769.44
360.20	1658.85
360.41	1671.14
360.62	1621.99
360.83	1665.00
361.04	1722.34
361.25	1673.19
361.46	1789.92
361.67	1710.05
361.88	1734.63
362.09	1751.01
362.30	1714.15
362.51	1685.48
362.72	1708.01
362.93	1736.68
363.14	1755.11
363.35	1744.87
363.56	1671.14
363.78	1769.44
363.99	1728.49
364.20	1673.19
364.41	1662.95
364.62	1837.03
364.83	1656.81
365.04	1693.67
365.25	1726.44
365.46	1851.36
365.67	1714.15
365.88	1646.57
366.09	1683.43
366.30	1716.20
366.51	1691.62
366.72	1630.18
366.93	1708.01
367.14	1644.52
367.35	1761.25
367.56	1638.38
367.77	1832.93
367.98	1693.67
368.18	1751.01
368.39	1781.73
368.60	1648.61
368.81	1738.73
369.02	1695.72
369.23	1669.09
369.44	1503.21
369.65	1685.48
369.86	1826.79
370.07	1742.82
370.28	1550.31
370.49	1714.15
370.70	1712.10
370.91	1595.37
371.12	1648.61
371.33	1693.67
371.54	1705.96
371.75	1789.92
371.96	1535.98
372.17	1671.14
372.38	1697.77
372.59	1775.59
372.80	1724.39
373.01	1671.14
373.22	1701.86
373.43	1697.77
373.64	1667.05
373.85	1787.88
374.06	1832.93
374.26	1673.19
374.47	1720.29
374.68	1832.93
374.89	1681.38
375.10	1611.75
375.31	1759.21
375.52	1732.58
375.73	1695.72
375.94	1671.14
376.15	1804.26
376.36	1603.56
376.57	1675.24
376.78	1693.67
376.99	1673.19
377.20	1748.97
377.40	1662.95
377.61	1781.73
377.82	1603.56
378.03	1789.92
378.24	1796.07
378.45	1658.85
378.66	1730.53
378.87	1624.04
379.08	1624.04
379.29	1681.38
379.50	1824.74
379.71	1705.96
379.91	1720.29
380.12	1683.43
380.33	1710.05
380.54	1652.71
380.75	1669.09
380.96	1675.24
381.17	1753.06
381.38	1728.49
381.59	1695.72
381.80	1712.10
382.00	1892.32
382.21	1714.15
382.42	1796.07
382.63	1857.51
382.84	1716.20
383.05	1767.40
383.26	1775.59
383.47	1744.87
383.68	1726.44
383.88	1695.72
384.09	1703.91
384.30	1832.93
384.51	1701.86
384.72	1763.30
384.93	1607.66
385.14	1718.25
385.35	1718.25
385.55	1624.04
385.76	1855.46
385.97	1732.58
386.18	1654.76
386.39	1593.32
386.60	1726.44
386.81	1728.49
387.02	1662.95
387.22	1675.24
387.43	1796.07
387.64	1779.68
387.85	1802.21
388.06	2168.80
388.27	4224.96
388.48	6852.50
388.68	8105.86
388.89	9629.55
389.10	9815.91
389.31	8380.29
389.52	7704.46
389.73	6666.14
389.93	6223.78
390.14	5777.32
390.35	5248.94
390.56	4476.86
390.77	3866.56
390.98	3002.32
391.18	2467.80
391.39	2107.36
391.60	1826.79
391.81	1755.11
392.02	1691.62
392.23	1847.27
392.43	1705.96
392.64	1796.07
392.85	1798.12
393.06	1789.92
393.27	1671.14
393.47	1685.48
393.68	1708.01
393.89	1665.00
394.10	1794.02
394.31	1652.71
394.52	1673.19
394.72	1730.53
394.93	1755.11
395.14	1673.19
395.35	1697.77
395.56	1705.96
395.76	1734.63
395.97	1708.01
396.18	1863.65
396.39	1767.40
396.60	2033.63
396.80	1826.79
397.01	1896.42
397.22	1824.74
397.43	1882.08
397.64	1726.44
397.84	1773.54
398.05	1873.89
398.26	1755.11
398.47	1712.10
398.67	1816.55
398.88	1705.96
399.09	1753.06
399.30	1763.30
399.51	1734.63
399.71	1675.24
399.92	1640.42
400.13	1708.01
400.34	1718.25
400.54	1695.72
400.75	1837.03
400.96	1636.33
401.17	1808.36
401.37	1728.49
401.58	1689.57
401.79	1732.58
402.00	1886.18
402.21	2023.39
402.41	1961.95
402.62	1935.33
402.83	2041.82
403.04	1984.48
403.24	2041.82
403.45	1898.47
403.66	1951.71
403.87	1820.64
404.07	1888.23
404.28	1898.47
404.49	1816.55
404.70	1738.73
404.90	1757.16
405.11	1763.30
405.32	1679.33
405.52	1648.61
405.73	1728.49
405.94	1646.57
406.15	1699.81
406.35	1714.15
406.56	1773.54
406.77	1705.96
406.98	1685.48
407.18	1630.18
407.39	1757.16
407.60	1628.14
407.80	1732.58
408.01	1671.14
408.22	1755.11
408.43	1714.15
408.63	1730.53
408.84	1714.15
409.05	1769.44
409.25	1697.77
409.46	1636.33
409.67	1736.68
409.88	1667.05
410.08	1628.14
410.29	1656.81
410.50	1761.25
410.70	1697.77
410.91	1671.14
411.12	1691.62
411.32	1724.39
411.53	1685.48
411.74	1812.45
411.95	1732.58
412.15	1789.92
412.36	1765.35
412.57	1802.21
412.77	1765.35
412.98	1662.95
413.19	1660.90
413.39	1775.59
413.60	1714.15
413.81	1812.45
414.01	1656.81
414.22	1779.68
414.43	1701.86
414.63	1671.14
414.84	1724.39
415.05	1732.58
415.25	1675.24
415.46	1757.16
415.67	1648.61
415.87	1724.39
416.08	1748.97
416.29	1677.29
416.49	1755.11
416.70	1687.53
416.91	1701.86
417.11	1703.91
417.32	1746.92
417.53	1681.38
417.73	1716.20
417.94	1662.95
418.15	1656.81
418.35	1730.53
418.56	1705.96
418.77	1847.27
418.97	1640.42
419.18	1714.15
419.38	1593.32
419.59	1681.38
419.80	1828.84
420.00	1732.58
420.21	1769.44
420.42	1755.11
420.62	1757.16
420.83	1585.13
421.04	1687.53
421.24	1665.00
421.45	1693.67
421.65	1734.63
421.86	1605.61
422.07	1736.68
422.27	1757.16
422.48	1669.09
422.69	1583.08
422.89	1765.35
423.10	1724.39
423.30	1662.95
423.51	1636.33
423.72	1710.05
423.92	1681.38
424.13	1652.71
424.33	1775.59
424.54	1740.77
424.75	1730.53
424.95	1818.60
425.16	1759.21
425.36	1761.25
425.57	1705.96
425.78	1705.96
425.98	1757.16
426.19	1701.86
426.39	1667.05
426.60	1724.39
426.81	1779.68
427.01	1703.91
427.22	1603.56
427.42	1671.14
427.63	1624.04
427.83	1693.67
428.04	1796.07
428.25	1751.01
428.45	1796.07
428.66	1740.77
428.86	1699.81
429.07	1685.48
429.28	1673.19
429.48	1720.29
429.69	1599.46
429.89	1738.73
430.10	1589.22
430.30	1669.09
430.51	1697.77
430.71	1644.52
430.92	1722.34
431.13	1712.10
431.33	1699.81
431.54	1761.25
431.74	1828.84
431.95	1783.78
432.15	1691.62
432.36	1634.28
432.56	1703.91
432.77	1832.93
432.98	1744.87
433.18	1742.82
433.39	1703.91
433.59	1751.01
433.80	1787.88
434.00	1839.08
434.21	1705.96
434.41	1630.18
434.62	1751.01
434.82	1658.85
435.03	1662.95
435.23	1800.16
435.44	1624.04
435.64	1710.05
435.85	1742.82
436.06	1775.59
436.26	1767.40
436.47	1724.39
436.67	1619.94
436.88	1662.95
437.08	1662.95
437.29	1763.30
437.49	1708.01
437.70	1748.97
437.90	1730.53
438.11	1837.03
438.31	1820.64
438.52	1785.83
438.72	1861.60
438.93	1914.85
439.13	1769.44
439.34	1837.03
439.54	1812.45
439.75	1800.16
439.95	1812.45
440.16	1675.24
440.36	1746.92
440.57	1734.63
440.77	1662.95
440.98	1800.16
441.18	1734.63
441.39	1660.90
441.59	1689.57
441.80	1847.27
442.00	1675.24
442.21	1824.74
442.41	1689.57
442.62	1765.35
442.82	1705.96
443.02	1761.25
443.23	1763.30
443.43	1699.81
443.64	1765.35
443.84	1671.14
444.05	1800.16
444.25	1708.01
444.46	1705.96
444.66	1740.77
444.87	1832.93
445.07	1617.90
445.28	1691.62
445.48	1806.31
445.69	1765.35
445.89	1816.55
446.09	1779.68
446.30	2045.92
446.50	2582.49
446.71	3694.54
446.91	4343.74
447.12	4761.53
447.32	4900.79
447.53	4257.73
447.73	3876.80
447.93	3581.90
448.14	3330.00
448.34	3248.08
448.55	2918.36
448.75	2838.48
448.96	2740.18
449.16	2338.78
449.36	2201.57
449.57	2070.50
449.77	1904.61
449.98	1822.69
450.18	1861.60
450.39	1812.45
450.59	1734.63
450.79	1687.53
451.00	1736.68
451.20	1755.11
451.41	1699.81
451.61	1828.84
451.81	1718.25
452.02	1738.73
452.22	1714.15
452.43	1720.29
452.63	1703.91
452.84	1769.44
453.04	1734.63
453.24	1748.97
453.45	1667.05
453.65	1742.82
453.86	1730.53
454.06	1687.53
454.26	1726.44
454.47	1722.34
454.67	1775.59
454.87	1724.39
455.08	1693.67
455.28	1849.32
455.49	1667.05
455.69	1689.57
455.89	1855.46
456.10	1732.58
456.30	1693.67
456.51	1830.88
456.71	1708.01
456.91	1714.15
457.12	1673.19
457.32	1687.53
457.52	1701.86
457.73	1742.82
457.93	1804.26
458.14	1685.48
458.34	1722.34
458.54	1763.30
458.75	1708.01
458.95	1773.54
459.15	1791.97
459.36	1734.63
459.56	1841.12
459.76	1769.44
459.97	1755.11
460.17	1734.63
460.37	1783.78
460.58	1748.97
460.78	1771.49
460.99	1730.53
461.19	1683.43
461.39	1665.00
461.60	1691.62
461.80	1763.30
462.00	1599.46
462.21	1691.62
462.41	1648.61
462.61	1667.05
462.82	1677.29
463.02	1804.26
463.22	1687.53
463.43	1810.40
463.63	1705.96
463.83	1763.30
464.04	1761.25
464.24	1718.25
464.44	1701.86
464.64	1716.20
464.85	1804.26
465.05	1806.31
465.25	1789.92
465.46	1671.14
465.66	1787.88
465.86	1847.27
466.07	1753.06
466.27	1722.34
466.47	1603.56
466.68	1681.38
466.88	1834.98
467.08	1812.45
467.29	1675.24
467.49	1701.86
467.69	1757.16
467.89	1660.90
468.10	1697.77
468.30	1765.35
468.50	1779.68
468.71	1744.87
468.91	1589.22
469.11	1814.50
469.31	1759.21
469.52	1703.91
469.72	1794.02
469.92	1791.97
470.13	1775.59
470.33	1796.07
470.53	1802.21
470.73	2133.98
470.94	2273.25
471.14	2287.58
471.34	2525.15
471.54	2482.14
471.75	2232.29
471.95	2090.98
472.15	2152.42
472.36	2062.30
472.56	2074.59
472.76	2029.54
472.96	1966.05
473.17	1904.61
473.37	1933.28
473.57	1849.32
473.77	1794.02
473.98	1746.92
474.18	1744.87
474.38	1871.84
474.58	1609.70
474.79	1718.25
474.99	1832.93
475.19	1722.34
475.39	1675.24
475.60	1634.28
475.80	1746.92
476.00	1667.05
476.20	1675.24
476.41	1722.34
476.61	1839.08
476.81	1769.44
477.01	1681.38
477.21	1865.70
477.42	1804.26
477.62	1660.90
477.82	1783.78
478.02	1714.15
478.23	1716.20
478.43	1621.99
478.63	1761.25
478.83	1654.76
479.03	1697.77
479.24	1775.59
479.44	1863.65
479.64	1712.10
479.84	1658.85
480.04	1681.38
480.25	1800.16
480.45	1683.43
480.65	1634.28
480.85	1753.06
481.06	1714.15
481.26	1804.26
481.46	1726.44
481.66	1759.21
481.86	1703.91
482.06	1769.44
482.27	1632.23
482.47	1652.71
482.67	1697.77
482.87	1701.86
483.07	1777.64
483.28	1673.19
483.48	1665.00
483.68	1710.05
483.88	1619.94
484.08	1671.14
484.29	1701.86
484.49	1736.68
484.69	1658.85
484.89	1800.16
485.09	1701.86
485.29	1748.97
485.50	1849.32
485.70	1689.57
485.90	1808.36
486.10	1763.30
486.30	1681.38
486.50	1830.88
486.71	1810.40
486.91	1812.45
487.11	1843.17
487.31	1646.57
487.51	1779.68
487.71	1626.09
487.91	1646.57
488.12	1615.85
488.32	1644.52
488.52	1648.61
488.72	1599.46
488.92	1755.11
489.12	1724.39
489.32	1742.82
489.53	1751.01
489.73	1687.53
489.93	1796.07
490.13	1689.57
490.33	1615.85
490.53	1708.01
490.73	1755.11
490.94	1597.42
491.14	1777.64
491.34	1824.74
491.54	2193.37
491.74	2607.06
491.94	2875.35
492.14	2975.70
492.34	2996.18
492.54	2789.33
492.75	2504.67
492.95	2426.84
493.15	2279.39
493.35	2240.48
493.55	2213.85
493.75	2107.36
493.95	2058.21
494.15	2023.39
494.35	1908.71
494.56	1853.41
494.76	1701.86
494.96	1699.81
495.16	1824.74
495.36	1748.97
495.56	1769.44
495.76	1738.73
495.96	1726.44
496.16	1595.37
496.36	1767.40
496.56	1697.77
496.77	1705.96
496.97	1697.77
497.17	1837.03
497.37	1642.47
497.57	1728.49
497.77	1751.01
497.97	1691.62
498.17	1697.77
498.37	1691.62
498.57	1691.62
498.77	1669.09
498.97	1769.44
499.17	1802.21
499.38	1816.55
499.58	1746.92
499.78	1794.02
499.98	1810.40
500.18	1746.92
500.38	1697.77
500.58	1998.82
500.78	2592.73
500.98	4349.89
501.18	5865.38
501.38	6883.22
501.58	7108.50
501.78	6510.49
501.98	5482.41
502.18	5099.44
502.38	4384.70
502.58	4149.18
502.78	3809.22
502.98	3575.75
503.18	3373.00
503.38	3082.19
503.59	2865.11
503.79	2641.88
503.99	2533.34
504.19	2314.20
504.39	2148.32
504.59	2215.90
504.79	2183.13
504.99	2064.35
505.19	1953.76
505.39	1841.12
505.59	1920.99
505.79	1859.56
505.99	1861.60
506.19	1783.78
506.39	1853.41
506.59	1681.38
506.79	1701.86
506.99	1906.66
507.19	1746.92
507.39	1730.53
507.59	1695.72
507.79	1724.39
507.99	1656.81
508.19	1644.52
508.39	1697.77
508.59	1730.53
508.79	1861.60
508.99	1828.84
509.19	1755.11
509.39	1855.46
509.59	1662.95
509.79	1720.29
509.99	1714.15
510.19	1789.92
510.39	1787.88
510.59	1652.71
510.79	1716.20
510.99	1656.81
511.19	1779.68
511.39	1759.21
511.59	1830.88
511.79	1806.31
511.99	1738.73
512.19	1824.74
512.38	1640.42
512.58	1751.01
512.78	1718.25
512.98	1716.20
513.18	1822.69
513.38	1710.05
513.58	1779.68
513.78	1734.63
513.98	1738.73
514.18	1705.96
514.38	1673.19
514.58	1697.77
514.78	1738.73
514.98	1581.03
515.18	1746.92
515.38	1642.47
515.58	1886.18
515.78	1693.67
515.98	1748.97
516.18	1796.07
516.38	1720.29
516.57	1732.58
516.77	1681.38
516.97	1716.20
517.17	1669.09
517.37	1632.23
517.57	1783.78
517.77	1742.82
517.97	1632.23
518.17	1755.11
518.37	1755.11
518.57	1665.00
518.77	1640.42
518.97	1687.53
519.16	1796.07
519.36	1755.11
519.56	1669.09
519.76	1718.25
519.96	1775.59
520.16	1849.32
520.36	1626.09
520.56	1871.84
520.76	1722.34
520.96	1712.10
521.16	1828.84
521.35	1837.03
521.55	1763.30
521.75	1751.01
521.95	1662.95
522.15	1695.72
522.35	1691.62
522.55	1695.72
522.75	1822.69
522.95	1683.43
523.14	1626.09
523.34	1757.16
523.54	1746.92
523.74	1722.34
523.94	1689.57
524.14	1708.01
524.34	1759.21
524.54	1822.69
524.73	1708.01
524.93	1785.83
525.13	1746.92
525.33	1581.03
525.53	1861.60
525.73	1789.92
525.93	1685.48
526.13	1703.91
526.32	1732.58
526.52	1763.30
526.72	1722.34
526.92	1691.62
527.12	1669.09
527.32	1648.61
527.52	1771.49
527.71	1804.26
527.91	1781.73
528.11	1695.72
528.31	1763.30
528.51	1644.52
528.71	1714.15
528.90	1847.27
529.10	1824.74
529.30	1755.11
529.50	1705.96
529.70	1748.97
529.90	1724.39
530.09	1767.40
530.29	1708.01
530.49	1585.13
530.69	1861.60
530.89	1755.11
531.09	1755.11
531.28	1740.77
531.48	1830.88
531.68	1716.20
531.88	1640.42
532.08	1791.97
532.28	1755.11
532.47	1751.01
532.67	1740.77
532.87	1781.73
533.07	1701.86
533.27	1779.68
533.46	1755.11
533.66	1687.53
533.86	1677.29
534.06	1697.77
534.26	1810.40
534.45	1662.95
534.65	1726.44
534.85	1703.91
535.05	1722.34
535.25	1710.05
535.44	1603.56
535.64	1738.73
535.84	1675.24
536.04	1751.01
536.24	1640.42
536.43	1648.61
536.63	1708.01
536.83	1708.01
537.03	1722.34
537.22	1660.90
537.42	1593.32
537.62	1785.83
537.82	1720.29
538.02	1818.60
538.21	1785.83
538.41	1886.18
538.61	1804.26
538.81	1697.77
539.00	1861.60
539.20	1736.68
539.40	1695.72
539.60	1718.25
539.79	1834.98
539.99	1724.39
540.19	1730.53
540.39	1697.77
540.58	1781.73
540.78	1851.36
540.98	1703.91
541.18	1746.92
541.37	1751.01
541.57	1763.30
541.77	1796.07
541.97	1617.90
542.16	1572.84
542.36	1669.09
542.56	1652.71
542.76	1882.08
542.95	1812.45
543.15	1804.26
543.35	1771.49
543.54	1673.19
543.74	1675.24
543.94	1763.30
544.14	1748.97
544.33	1748.97
544.53	1744.87
544.73	1714.15
544.93	1708.01
545.12	1716.20
545.32	1675.24
545.52	1746.92
545.71	1699.81
545.91	1697.77
546.11	1759.21
546.30	1712.10
546.50	1673.19
546.70	1734.63
546.90	1757.16
547.09	1669.09
547.29	1705.96
547.49	1685.48
547.68	1767.40
547.88	1628.14
548.08	1828.84
548.27	2115.55
548.47	1763.30
548.67	1732.58
548.87	1732.58
549.06	1703.91
549.26	1722.34
549.46	1761.25
549.65	1705.96
549.85	1738.73
550.05	1820.64
550.24	1609.70
550.44	1773.54
550.64	1785.83
550.83	1687.53
551.03	1785.83
551.23	1701.86
551.42	1751.01
551.62	1740.77
551.82	1755.11
552.01	1695.72
552.21	1816.55
552.41	1761.25
552.60	1832.93
552.80	1824.74
553.00	1728.49
553.19	1673.19
553.39	1785.83
553.59	1710.05
553.78	1789.92
553.98	1724.39
554.17	1681.38
554.37	1765.35
554.57	1753.06
554.76	1638.38
554.96	1673.19
555.16	1724.39
555.35	1699.81
555.55	1806.31
555.75	1767.40
555.94	1802.21
556.14	1621.99
556.33	1732.58
556.53	1742.82
556.73	1720.29
556.92	1736.68
557.12	1798.12
557.32	1826.79
557.51	1837.03
557.71	1853.41
557.90	1857.51
558.10	1798.12
558.30	1763.30
558.49	1734.63
558.69	1648.61
558.88	1779.68
559.08	1746.92
559.28	1755.11
559.47	1742.82
559.67	1789.92
559.86	1794.02
560.06	1736.68
560.26	1718.25
560.45	1757.16
560.65	1693.67
560.84	1810.40
561.04	1714.15
561.24	1777.64
561.43	1736.68
561.63	1830.88
561.82	1748.97
562.02	1789.92
562.22	1601.51
562.41	1619.94
562.61	1755.11
562.80	1658.85
563.00	1816.55
563.19	1798.12
563.39	1773.54
563.59	1808.36
563.78	1660.90
563.98	1624.04
564.17	1697.77
564.37	1708.01
564.56	1708.01
564.76	1648.61
564.96	1789.92
565.15	1705.96
565.35	1902.56
565.54	1748.97
565.74	1746.92
565.93	1834.98
566.13	1730.53
566.32	1779.68
566.52	1802.21
566.71	1732.58
566.91	1832.93
567.11	1703.91
567.30	1689.57
567.50	1804.26
567.69	1773.54
567.89	1734.63
568.08	1675.24
568.28	1701.86
568.47	1621.99
568.67	1689.57
568.86	1730.53
569.06	1738.73
569.25	1716.20
569.45	1746.92
569.64	1708.01
569.84	1714.15
570.04	1732.58
570.23	1705.96
570.43	1662.95
570.62	1728.49
570.82	1855.46
571.01	1726.44
571.21	1650.66
571.40	1703.91
571.60	1757.16
571.79	1689.57
571.99	1787.88
572.18	1628.14
572.38	1742.82
572.57	1691.62
572.77	1808.36
572.96	1865.70
573.16	1751.01
573.35	1775.59
573.55	1785.83
573.74	1695.72
573.94	1759.21
574.13	1742.82
574.33	1837.03
574.52	1787.88
574.71	1726.44
574.91	1834.98
575.10	1699.81
575.30	1744.87
575.49	1665.00
575.69	1697.77
575.88	1703.91
576.08	1767.40
576.27	1763.30
576.47	1699.81
576.66	1832.93
576.86	1791.97
577.05	1826.79
577.25	1777.64
577.44	1826.79
577.64	1644.52
577.83	1763.30
578.02	1730.53
578.22	1818.60
578.41	1853.41
578.61	1710.05
578.80	1654.76
579.00	1771.49
579.19	1665.00
579.39	1822.69
579.58	1769.44
579.77	1761.25
579.97	1804.26
580.16	1847.27
580.36	1794.02
580.55	1851.36
580.75	1800.16
580.94	1826.79
581.13	1877.99
581.33	1849.32
581.52	1683.43
581.72	1861.60
581.91	1859.56
582.11	1722.34
582.30	1763.30
582.49	1857.51
582.69	1757.16
582.88	1845.22
583.08	1806.31
583.27	1832.93
583.47	1800.16
583.66	1619.94
583.85	1714.15
584.05	1751.01
584.24	1701.86
584.44	1771.49
584.63	1806.31
584.82	1828.84
585.02	1859.56
585.21	1884.13
585.41	1843.17
585.60	1912.80
585.79	1976.29
585.99	1947.62
586.18	1820.64
586.37	2258.91
586.57	3241.93
586.76	9754.48
586.96	24460.94
587.15	34858.48
587.34	40471.96
587.54	42661.24
587.73	36969.93
587.93	26719.85
588.12	21814.96
588.31	18341.61
588.51	16611.07
588.70	15320.85
588.89	14300.97
589.09	12513.09
589.28	11120.47
589.47	9525.10
589.67	8134.53
589.86	6594.46
590.06	4949.94
590.25	3944.39
590.44	3117.01
590.64	2633.69
590.83	2267.10
591.02	2150.37
591.22	1882.08
591.41	1875.94
591.60	1787.88
591.80	1927.14
591.99	1701.86
592.18	1814.50
592.38	1841.12
592.57	1753.06
592.76	1769.44
592.96	1767.40
593.15	1701.86
593.34	1777.64
593.54	1755.11
593.73	1794.02
593.92	1742.82
594.12	1765.35
594.31	1730.53
594.50	1849.32
594.70	1824.74
594.89	1845.22
595.08	1691.62
595.28	1791.97
595.47	1920.99
595.66	1746.92
595.86	1673.19
596.05	1753.06
596.24	1714.15
596.43	1845.22
596.63	1824.74
596.82	1753.06
597.01	1658.85
597.21	1882.08
597.40	1748.97
597.59	1751.01
597.79	1734.63
597.98	1714.15
598.17	1769.44
598.36	1730.53
598.56	1763.30
598.75	1771.49
598.94	1744.87
599.14	1759.21
599.33	1691.62
599.52	1734.63
599.71	1830.88
599.91	1732.58
600.10	1720.29
600.29	1708.01
600.48	1785.83
600.68	1722.34
600.87	1716.20
601.06	1757.16
601.26	1800.16
601.45	1751.01
601.64	1751.01
601.83	1841.12
602.03	1734.63
602.22	1644.52
602.41	1771.49
602.60	1808.36
602.80	1816.55
602.99	1830.88
603.18	1734.63
603.37	1781.73
603.57	1687.53
603.76	1705.96
603.95	1812.45
604.14	1755.11
604.34	1644.52
604.53	1712.10
604.72	1746.92
604.91	1740.77
605.10	1814.50
605.30	1667.05
605.49	1884.13
605.68	1701.86
605.87	1738.73
606.07	1716.20
606.26	1712.10
606.45	1777.64
606.64	1761.25
606.84	1667.05
607.03	1771.49
607.22	1796.07
607.41	1669.09
607.60	1646.57
607.80	1820.64
607.99	1705.96
608.18	1681.38
608.37	1777.64
608.56	1687.53
608.76	1814.50
608.95	1785.83
609.14	1771.49
609.33	1785.83
609.52	1742.82
609.72	1769.44
609.91	1705.96
610.10	1732.58
610.29	1812.45
610.48	1787.88
610.68	1800.16
610.87	1658.85
611.06	1728.49
611.25	1703.91
611.44	1777.64
611.63	1636.33
611.83	1767.40
612.02	1691.62
612.21	1822.69
612.40	1671.14
612.59	1697.77
612.79	1687.53
612.98	1710.05
613.17	1742.82
613.36	1755.11
613.55	1847.27
613.74	1671.14
613.93	1671.14
614.13	1746.92
614.32	1722.34
614.51	1738.73
614.70	1746.92
614.89	1751.01
615.08	1708.01
615.28	2035.68
615.47	1697.77
615.66	1755.11
615.85	1705.96
616.04	1830.88
616.23	1660.90
616.42	1732.58
616.62	1730.53
616.81	1724.39
617.00	1654.76
617.19	1796.07
617.38	1675.24
617.57	1753.06
617.76	1785.83
617.95	1726.44
618.15	1794.02
618.34	1816.55
618.53	1644.52
618.72	1789.92
618.91	1810.40
619.10	1877.99
619.29	1728.49
619.48	1746.92
619.68	1669.09
619.87	1732.58
620.06	1621.99
620.25	1787.88
620.44	1632.23
620.63	1673.19
620.82	1673.19
621.01	1773.54
621.20	1691.62
621.39	1703.91
621.59	1744.87
621.78	1679.33
621.97	1763.30
622.16	1714.15
622.35	1714.15
622.54	1849.32
622.73	1755.11
622.92	1658.85
623.11	1791.97
623.30	1695.72
623.49	1742.82
623.68	1740.77
623.88	1724.39
624.07	1703.91
624.26	1671.14
624.45	1751.01
624.64	1650.66
624.83	1708.01
625.02	1726.44
625.21	1662.95
625.40	1728.49
625.59	1820.64
625.78	1728.49
625.97	1726.44
626.16	1699.81
626.35	1710.05
626.54	1751.01
626.74	1814.50
626.93	1757.16
627.12	1804.26
627.31	1789.92
627.50	1779.68
627.69	1769.44
627.88	1667.05
628.07	1685.48
628.26	1636.33
628.45	1677.29
628.64	1636.33
628.83	1781.73
629.02	1648.61
629.21	1714.15
629.40	1722.34
629.59	1650.66
629.78	1697.77
629.97	1697.77
630.16	1720.29
630.35	1644.52
630.54	1759.21
630.73	1677.29
630.92	1705.96
631.11	1601.51
631.30	1697.77
631.49	1757.16
631.68	1701.86
631.87	1665.00
632.06	1654.76
632.25	1781.73
632.44	1734.63
632.63	1744.87
632.82	1720.29
633.01	1611.75
633.20	1703.91
633.39	1689.57
633.58	1628.14
633.77	1761.25
633.96	1701.86
634.15	1681.38
634.34	1748.97
634.53	1699.81
634.72	1624.04
634.91	1681.38
635.10	1705.96
635.29	1685.48
635.48	1753.06
635.67	1669.09
635.86	1689.57
636.05	1759.21
636.24	1722.34
636.43	1712.10
636.62	1816.55
636.81	1583.08
637.00	1769.44
637.19	1769.44
637.38	1679.33
637.57	1677.29
637.76	1744.87
637.95	1757.16
638.14	1675.24
638.33	1748.97
638.52	1755.11
638.71	1650.66
638.89	1632.23
639.08	1843.17
639.27	1765.35
639.46	1648.61
639.65	1746.92
639.84	1812.45
640.03	1779.68
640.22	1652.71
640.41	1857.51
640.60	1636.33
640.79	1820.64
640.98	1683.43
641.17	1718.25
641.36	1742.82
641.55	1753.06
641.74	1646.57
641.92	1675.24
642.11	1654.76
642.30	1738.73
642.49	1632.23
642.68	1634.28
642.87	1687.53
643.06	1757.16
643.25	1728.49
643.44	1710.05
643.63	1689.57
643.82	1726.44
644.00	1652.71
644.19	1736.68
644.38	1611.75
644.57	1755.11
644.76	1687.53
644.95	1691.62
645.14	1779.68
645.33	1699.81
645.52	1695.72
645.71	1677.29
645.89	1665.00
646.08	1753.06
646.27	1660.90
646.46	1734.63
646.65	1589.22
646.84	1701.86
647.03	1611.75
647.22	1736.68
647.40	1740.77
647.59	1742.82
647.78	1697.77
647.97	1687.53
648.16	1718.25
648.35	1755.11
648.54	1716.20
648.73	1697.77
648.91	1728.49
649.10	1671.14
649.29	1621.99
649.48	1734.63
649.67	1738.73
649.86	1767.40
650.05	1722.34
650.23	1769.44
650.42	1660.90
650.61	1730.53
650.80	1853.41
650.99	1824.74
651.18	1689.57
651.36	1832.93
651.55	1652.71
651.74	1763.30
651.93	1712.10
652.12	1578.98
652.31	1724.39
652.49	1687.53
652.68	1675.24
652.87	1746.92
653.06	1726.44
653.25	1789.92
653.44	1763.30
653.62	1779.68
653.81	1722.34
654.00	1748.97
654.19	1720.29
654.38	1900.52
654.56	1767.40
654.75	1705.96
654.94	1746.92
655.13	1759.21
655.32	1695.72
655.51	1847.27
655.69	1710.05
655.88	1697.77
656.07	1587.18
656.26	1722.34
656.45	1619.94
656.63	1728.49
656.82	1718.25
657.01	1697.77
657.20	1769.44
657.38	1736.68
657.57	1671.14
657.76	1660.90
657.95	1718.25
658.14	1632.23
658.32	1781.73
658.51	1691.62
658.70	1734.63
658.89	1773.54
659.08	1646.57
659.26	1781.73
659.45	1599.46
659.64	1703.91
659.83	1628.14
660.01	1900.52
660.20	1769.44
660.39	1742.82
660.58	1576.94
660.76	1865.70
660.95	1626.09
661.14	1748.97
661.33	1626.09
661.51	1628.14
661.70	1716.20
661.89	1746.92
662.08	1730.53
662.26	1624.04
662.45	1642.47
662.64	1791.97
662.83	1771.49
663.01	1718.25
663.20	1712.10
663.39	1783.78
663.58	1654.76
663.76	1648.61
663.95	1744.87
664.14	1609.70
664.32	1687.53
664.51	1728.49
664.70	1574.89
664.89	1724.39
665.07	1613.80
665.26	1804.26
665.45	1675.24
665.64	1775.59
665.82	1767.40
666.01	1748.97
666.20	1695.72
666.38	1867.75
666.57	1789.92
666.76	2115.55
666.95	4501.44
667.13	10387.30
667.32	15310.61
667.51	17817.33
667.69	19105.50
667.88	17989.36
668.07	12062.54
668.25	9779.05
668.44	8034.18
668.63	7210.90
668.81	6741.91
669.00	6262.69
669.19	5762.98
669.38	5060.53
669.56	4528.06
669.75	4036.55
669.94	3409.87
670.12	2879.44
670.31	2516.95
670.50	2357.21
670.68	2031.58
670.87	1953.76
671.06	1832.93
671.24	1794.02
671.43	1820.64
671.62	1656.81
671.80	1763.30
671.99	1734.63
672.18	1648.61
672.36	1724.39
672.55	1746.92
672.74	1681.38
672.92	1660.90
673.11	1814.50
673.29	1660.90
673.48	1769.44
673.67	1697.77
673.85	1873.89
674.04	1695.72
674.23	1675.24
674.41	1832.93
674.60	1658.85
674.79	1599.46
674.97	1748.97
675.16	1744.87
675.34	1748.97
675.53	1660.90
675.72	1683.43
675.90	1808.36
676.09	1705.96
676.28	1812.45
676.46	1648.61
676.65	1753.06
676.83	1621.99
677.02	1685.48
677.21	1667.05
677.39	1718.25
677.58	1683.43
677.77	1740.77
677.95	1656.81
678.14	1806.31
678.32	1740.77
678.51	1628.14
678.70	1794.02
678.88	1765.35
679.07	1753.06
679.25	1732.58
679.44	1601.51
679.63	1656.81
679.81	1708.01
680.00	1812.45
680.18	1695.72
680.37	1849.32
680.55	1703.91
680.74	1587.18
680.93	1636.33
681.11	1777.64
681.30	1718.25
681.48	1732.58
681.67	1730.53
681.85	1691.62
682.04	1701.86
682.23	1787.88
682.41	1744.87
682.60	1710.05
682.78	1685.48
682.97	1681.38
683.15	1718.25
683.34	1701.86
683.53	1767.40
683.71	1611.75
683.90	1791.97
684.08	1775.59
684.27	1705.96
684.45	1732.58
684.64	1708.01
684.82	1716.20
685.01	1779.68
685.19	1685.48
685.38	1798.12
685.57	1740.77
685.75	1673.19
685.94	1658.85
686.12	1648.61
686.31	1656.81
686.49	1794.02
686.68	1679.33
686.86	1769.44
687.05	1701.86
687.23	1763.30
687.42	1687.53
687.60	1691.62
687.79	1791.97
687.97	1763.30
688.16	1824.74
688.34	1783.78
688.53	1595.37
688.71	1656.81
688.90	1800.16
689.08	1617.90
689.27	1546.22
689.45	1730.53
689.64	1724.39
689.82	1767.40
690.01	1820.64
690.19	1769.44
690.38	1757.16
690.56	1769.44
690.75	1603.56
690.93	1648.61
691.12	1660.90
691.30	1691.62
691.49	1669.09
691.67	1720.29
691.86	1720.29
692.04	1652.71
692.23	1632.23
692.41	1744.87
692.60	1802.21
692.78	1734.63
692.97	1648.61
693.15	1802.21
693.34	1886.18
693.52	1765.35
693.71	1699.81
693.89	1708.01
694.08	1652.71
694.26	1712.10
694.44	1787.88
694.63	1761.25
694.81	1626.09
695.00	1701.86
695.18	1757.16
695.37	1855.46
695.55	1718.25
695.74	1636.33
695.92	1585.13
696.10	1736.68
696.29	1681.38
696.47	1687.53
696.66	1671.14
696.84	1609.70
697.03	1599.46
697.21	1734.63
697.40	2400.22
697.58	1703.91
697.76	1648.61
697.95	1646.57
698.13	1665.00
698.32	1693.67
698.50	1691.62
698.68	1691.62
698.87	1761.25
699.05	1777.64
699.24	1722.34
699.42	1626.09
699.61	1697.77
699.79	1705.96
699.97	1701.86
700.16	1665.00
700.34	1662.95
700.53	1765.35
700.71	1808.36
700.89	1740.77
701.08	1708.01
701.26	1728.49
701.45	2117.60
701.63	1699.81
701.81	1656.81
702.00	1621.99
702.18	1658.85
702.37	1665.00
702.55	1722.34
702.73	1720.29
702.92	1705.96
703.10	1724.39
703.28	1673.19
703.47	1669.09
703.65	1734.63
703.84	1701.86
704.02	1708.01
704.20	1816.55
704.39	1638.38
704.57	1705.96
704.75	1738.73
704.94	1724.39
705.12	1751.01
705.30	1748.97
705.49	2275.29
705.67	4394.94
705.86	9211.76
706.04	12842.81
706.22	14624.54
706.41	15460.12
706.59	13926.19
706.77	9652.08
706.96	7415.69
707.14	6547.36
707.32	6033.32
707.51	5638.06
707.69	4847.54
707.87	4179.90
708.06	3639.24
708.24	2942.93
708.42	2478.04
708.61	2283.49
708.79	1845.22
708.97	1839.08
709.16	1771.49
709.34	1765.35
709.52	1699.81
709.71	1736.68
709.89	1748.97
710.07	1689.57
710.26	1689.57
710.44	1710.05
710.62	1810.40
710.80	1714.15
710.99	1753.06
711.17	1759.21
711.35	1736.68
711.54	1673.19
711.72	1806.31
711.90	1781.73
712.09	1757.16
712.27	1693.67
712.45	1626.09
712.63	1730.53
712.82	1697.77
713.00	1740.77
713.18	1767.40
713.37	1771.49
713.55	1714.15
713.73	1751.01
713.91	1712.10
714.10	1626.09
714.28	1718.25
714.46	1718.25
714.65	1724.39
714.83	1685.48
715.01	1665.00
715.19	1675.24
715.38	1665.00
715.56	1738.73
715.74	1708.01
715.92	1734.63
716.11	1720.29
716.29	1619.94
716.47	1673.19
716.65	1697.77
716.84	1650.66
717.02	1787.88
717.20	1648.61
717.38	1669.09
717.57	1767.40
717.75	1757.16
717.93	1675.24
718.11	1701.86
718.30	1687.53
718.48	1734.63
718.66	1820.64
718.84	1718.25
719.03	1683.43
719.21	1632.23
719.39	1718.25
719.57	1705.96
719.75	1763.30
719.94	1681.38
720.12	1710.05
720.30	1642.47
720.48	1738.73
720.67	1710.05
720.85	1708.01
721.03	1722.34
721.21	1673.19
721.39	1755.11
721.58	1685.48
721.76	1689.57
721.94	1728.49
722.12	1744.87
722.30	1814.50
722.49	1665.00
722.67	1703.91
722.85	1837.03
723.03	1605.61
723.21	1699.81
723.40	1724.39
723.58	1794.02
723.76	1732.58
723.94	1843.17
724.12	1720.29
724.30	1777.64
724.49	1767.40
724.67	1687.53
724.85	1796.07
725.03	1626.09
725.21	1732.58
725.40	1800.16
725.58	1626.09
725.76	1730.53
725.94	1746.92
726.12	1671.14
726.30	1677.29
726.49	1658.85
726.67	1650.66
726.85	1767.40
727.03	1804.26
727.21	2168.80
727.39	2932.69
727.57	3798.98
727.76	4245.44
727.94	4444.09
728.12	4290.49
728.30	3553.23
728.48	2934.74
728.66	2848.72
728.84	2486.23
729.03	2308.06
729.21	2146.27
729.39	2013.15
729.57	1781.73
729.75	1820.64
729.93	1873.89
730.11	1740.77
730.30	1728.49
730.48	1730.53
730.66	1837.03
730.84	1751.01
731.02	1685.48
731.20	1652.71
731.38	1722.34
731.56	1634.28
731.74	1630.18
731.93	1701.86
732.11	1722.34
732.29	1613.80
732.47	1804.26
732.65	1730.53
732.83	1800.16
733.01	1744.87
733.19	1624.04
733.37	1734.63
733.56	1710.05
733.74	1673.19
733.92	1837.03
734.10	1669.09
734.28	1691.62
734.46	1640.42
734.64	1679.33
734.82	1654.76
735.00	1691.62
735.18	1673.19
735.36	1718.25
735.54	1681.38
735.73	1748.97
735.91	1705.96
736.09	1783.78
736.27	1732.58
736.45	1660.90
736.63	1703.91
736.81	1744.87
736.99	1710.05
737.17	1816.55
737.35	1597.42
737.53	1671.14
737.71	1607.66
737.89	1886.18
738.07	1656.81
738.25	1621.99
738.43	1628.14
738.61	1675.24
738.80	1681.38
738.98	1730.53
739.16	1662.95
739.34	1689.57
739.52	1763.30
739.70	1699.81
739.88	1687.53
740.06	1822.69
740.24	1617.90
740.42	1748.97
740.60	1583.08
740.78	1677.29
740.96	1552.36
741.14	1648.61
741.32	1685.48
741.50	1628.14
741.68	1753.06
741.86	1755.11
742.04	1708.01
742.22	1603.56
742.40	1738.73
742.58	1724.39
742.76	1697.77
742.94	1826.79
743.12	1632.23
743.30	1660.90
743.48	1771.49
743.66	1673.19
743.84	1738.73
744.02	1697.77
744.20	1691.62
744.38	1699.81
744.56	1658.85
744.74	1689.57
744.92	1765.35
745.10	1771.49
745.28	1800.16
745.46	1796.07
745.64	1738.73
745.82	1757.16
746.00	1755.11
746.18	1734.63
746.36	1679.33
746.54	1748.97
746.72	1689.57
746.90	1648.61
747.08	1738.73
747.26	1730.53
747.44	1812.45
747.62	1722.34
747.80	1703.91
747.98	1718.25
748.15	1687.53
748.33	1761.25
748.51	1669.09
748.69	1669.09
748.87	1591.27
749.05	1652.71
749.23	1654.76
749.41	1658.85
749.59	1691.62
749.77	1701.86
749.95	1671.14
750.13	1757.16
750.31	1724.39
750.49	1705.96
750.67	1740.77
750.85	1777.64
751.03	1708.01
751.20	1814.50
751.38	1689.57
751.56	1687.53
751.74	1720.29
751.92	1693.67
752.10	1574.89
752.28	1755.11
752.46	1642.47
752.64	1755.11
752.82	1671.14
753.00	1697.77
753.18	1658.85
753.35	1767.40
753.53	1685.48
753.71	1640.42
753.89	1722.34
754.07	1650.66
754.25	1730.53
754.43	1722.34
754.61	1691.62
754.79	1703.91
754.97	1699.81
755.14	1751.01
755.32	1638.38
755.50	1732.58
755.68	1718.25
755.86	1669.09
756.04	1648.61
756.22	1634.28
756.40	1767.40
756.57	1877.99
756.75	1662.95
756.93	1722.34
757.11	1683.43
757.29	1611.75
757.47	1667.05
757.65	1658.85
757.82	1626.09
758.00	1681.38
758.18	1681.38
758.36	1644.52
758.54	1757.16
758.72	1701.86
758.90	1765.35
759.07	1658.85
759.25	1630.18
759.43	1732.58
759.61	1566.70
759.79	2144.22
759.97	1769.44
760.15	1679.33
760.32	1656.81
760.50	1748.97
760.68	1779.68
760.86	1644.52
761.04	1794.02
761.22	1644.52
761.39	1765.35
761.57	1699.81
761.75	1714.15
761.93	1720.29
762.11	1779.68
762.28	1736.68
762.46	1572.84
762.64	1732.58
762.82	1619.94
763.00	1607.66
763.18	1787.88
763.35	1630.18
763.53	1740.77
763.71	1675.24
763.89	1722.34
764.07	1718.25
764.24	1687.53
764.42	1728.49
764.60	1640.42
764.78	1681.38
764.96	1742.82
765.13	1753.06
765.31	1667.05
765.49	1748.97
765.67	1640.42
765.84	1644.52
766.02	1667.05
766.20	1726.44
766.38	1771.49
766.56	1724.39
766.73	1763.30
766.91	1652.71
767.09	1712.10
767.27	1748.97
767.44	1646.57
767.62	1751.01
767.80	1730.53
767.98	1703.91
768.15	1658.85
768.33	1753.06
768.51	1761.25
768.69	1738.73
768.87	1761.25
769.04	1673.19
769.22	1796.07
769.40	1753.06
769.58	1785.83
769.75	1746.92
769.93	1726.44
770.11	1691.62
770.28	1613.80
770.46	1726.44
770.64	1687.53
770.82	1808.36
770.99	1695.72
771.17	1714.15
771.35	1687.53
771.53	1652.71
771.70	1675.24
771.88	1724.39
772.06	1701.86
772.23	1595.37
772.41	1720.29
772.59	1665.00
772.77	1609.70
772.94	1753.06
773.12	1765.35
773.30	1667.05
773.47	1705.96
773.65	1675.24
773.83	1808.36
774.01	1701.86
774.18	1632.23
774.36	1716.20
774.54	1660.90
774.71	1718.25
774.89	1619.94
775.07	1738.73
775.24	1667.05
775.42	1662.95
775.60	1773.54
775.78	1697.77
775.95	1626.09
776.13	1540.07
776.31	1607.66
776.48	1693.67
776.66	1738.73
776.84	1640.42
777.01	1660.90
777.19	1644.52
777.37	1667.05
777.54	1746.92
777.72	1847.27
777.90	1738.73
778.07	1626.09
778.25	1904.61
778.43	1755.11
778.60	1578.98
778.78	1861.60
778.96	1791.97
779.13	1650.66
779.31	1839.08
779.49	1673.19
779.66	1738.73
779.84	1619.94
780.01	1687.53
780.19	1642.47
780.37	1765.35
780.54	1800.16
780.72	1611.75
780.90	1671.14
781.07	1654.76
781.25	1708.01
781.43	1705.96
781.60	1585.13
781.78	1748.97
781.95	1681.38
782.13	1685.48
782.31	1746.92
782.48	1613.80
782.66	1748.97
782.83	1718.25
783.01	1728.49
783.19	1736.68
783.36	1652.71
783.54	1603.56
783.72	1705.96
783.89	1693.67
784.07	1685.48
784.24	1769.44
784.42	1779.68
784.60	1781.73
784.77	1685.48
784.95	1595.37
785.12	1710.05
785.30	1789.92
785.47	1712.10
785.65	1671.14
785.83	1671.14
786.00	1679.33
786.18	1679.33
786.35	1722.34
786.53	1611.75
786.71	1781.73
786.88	1759.21
787.06	1759.21
787.23	1662.95
787.41	1695.72
787.58	1712.10
787.76	1619.94
787.94	1724.39
788.11	1658.85
788.29	1669.09
788.46	1677.29
788.64	1683.43
788.81	1689.57
788.99	1624.04
789.16	1724.39
789.34	1638.38
789.52	1673.19
789.69	1650.66
789.87	1634.28
790.04	1722.34
790.22	1665.00
790.39	1746.92
790.57	1613.80
790.74	1683.43
790.92	1781.73
791.09	1630.18
791.27	1724.39
791.44	1738.73
791.62	1695.72
791.79	1746.92
791.97	1710.05
792.15	1925.09
792.32	1671.14
792.50	1742.82
792.67	1714.15
792.85	1656.81
793.02	1675.24
793.20	1562.60
793.37	1556.46
793.55	1673.19
793.72	1644.52
793.90	1675.24
794.07	1714.15
794.25	1685.48
794.42	1746.92
794.60	1675.24
794.77	1718.25
794.95	1718.25
795.12	1720.29
795.30	1660.90
795.47	1585.13
795.65	1865.70
795.82	1740.77
796.00	1693.67
796.17	1701.86
796.34	1544.17
796.52	1720.29
796.69	1744.87
796.87	1746.92
797.04	1740.77
797.22	1787.88
797.39	1771.49
797.57	1695.72
797.74	1656.81
797.92	1732.58
798.09	1665.00
798.27	1734.63
798.44	1695.72
798.62	1705.96
798.79	1724.39
798.96	1695.72
799.14	1703.91
799.31	1853.41
799.49	1677.29
799.66	1662.95
799.84	1769.44
800.01	1568.74
800.19	1705.96
800.36	1615.85
800.53	1708.01
800.71	1728.49
800.88	1787.88
801.06	1660.90
801.23	1718.25
801.41	1716.20
801.58	1642.47
801.75	1658.85
801.93	1693.67
802.10	1783.78
802.28	1701.86
802.45	1603.56
802.63	1667.05
802.80	1771.49
802.97	1691.62
803.15	1708.01
803.32	1718.25
803.50	1669.09
803.67	1714.15
803.84	1585.13
804.02	1728.49
804.19	1640.42
804.37	1648.61
804.54	1646.57
804.71	1642.47
804.89	1689.57
805.06	1687.53
805.24	1595.37
805.41	1613.80
805.58	1638.38
805.76	1822.69
805.93	1615.85
806.10	1730.53
806.28	1759.21
806.45	1705.96
806.63	1634.28
806.80	1732.58
806.97	1677.29
807.15	1755.11
807.32	1632.23
807.49	1732.58
807.67	1597.42
807.84	1701.86
808.01	1687.53
808.19	1834.98
808.36	1783.78
808.54	1681.38
808.71	1712.10
808.88	1613.80
809.06	1656.81
809.23	1791.97
809.40	1708.01
809.58	1843.17
809.75	1730.53
809.92	1621.99
810.10	1839.08
810.27	1642.47
810.44	1738.73
810.62	1738.73
810.79	1642.47
810.96	1613.80
811.14	1705.96
811.31	1601.51
811.48	1693.67
811.66	1697.77
811.83	1759.21
812.00	1724.39
812.18	1798.12
812.35	1804.26
812.52	1685.48
812.69	1673.19
812.87	1716.20
813.04	1677.29
813.21	1624.04
813.39	1636.33
813.56	1705.96
813.73	1796.07
813.91	1667.05
814.08	1703.91
814.25	1763.30
814.42	1630.18
814.60	1673.19
814.77	1744.87
814.94	1636.33
815.12	1697.77
815.29	1779.68
815.46	1640.42
815.63	1689.57
815.81	1703.91
815.98	1675.24
816.15	1693.67
816.33	1726.44
816.50	1662.95
816.67	1630.18
816.84	1697.77
817.02	1642.47
817.19	1669.09
817.36	1673.19
817.53	1665.00
817.71	1650.66
817.88	1757.16
818.05	1642.47
818.22	1689.57
818.40	1814.50
818.57	1660.90
818.74	1603.56
818.91	1800.16
819.09	1712.10
819.26	1722.34
819.43	1644.52
819.60	1681.38
819.78	1726.44
819.95	1828.84
820.12	1607.66
820.29	1742.82
820.47	1705.96
820.64	1697.77
820.81	1652.71
820.98	1613.80
821.15	1689.57
821.33	1691.62
821.50	1617.90
821.67	1732.58
821.84	1646.57
822.02	1761.25
822.19	1759.21
822.36	1697.77
822.53	1681.38
822.70	1644.52
822.88	1646.57
823.05	1673.19
823.22	1673.19
823.39	1658.85
823.56	1726.44
823.74	1767.40
823.91	1632.23
824.08	1566.70
824.25	1644.52
824.42	1769.44
824.60	1705.96
824.77	1759.21
824.94	1642.47
825.11	1777.64
825.28	1660.90
825.45	1714.15
825.63	1730.53
825.80	1603.56
825.97	1779.68
826.14	1742.82
826.31	1601.51
826.48	1748.97
826.66	1669.09
826.83	1708.01
827.00	1742.82
827.17	1589.22
827.34	1689.57
827.51	1724.39
827.69	1718.25
827.86	1636.33
828.03	1640.42
828.20	1671.14
828.37	1642.47
828.54	1722.34
828.71	1691.62
828.89	1789.92
829.06	1720.29
829.23	1806.31
829.40	1601.51
829.57	1615.85
829.74	1742.82
829.91	1656.81
830.09	1648.61
830.26	1789.92
830.43	1789.92
830.60	1697.77
830.77	1654.76
830.94	1712.10
831.11	1716.20
831.28	1722.34
831.46	1722.34
831.63	1695.72
831.80	1736.68
831.97	1673.19
832.14	1751.01
832.31	1656.81
832.48	1656.81
832.65	1738.73
832.82	1734.63
832.99	1775.59
833.17	1669.09
833.34	1843.17
833.51	1720.29
833.68	1546.22
833.85	1806.31
834.02	1695.72
834.19	1658.85
834.36	1701.86
834.53	1701.86
834.70	1648.61
834.87	1726.44
835.04	1705.96
835.22	1640.42
835.39	1730.53
835.56	1675.24
835.73	1710.05
835.90	1726.44
836.07	1652.71
836.24	1712.10
836.41	1679.33
836.58	1671.14
836.75	1699.81
836.92	1669.09
837.09	1744.87
837.26	1738.73
837.43	1716.20
837.60	1714.15
837.77	1722.34
837.94	1720.29
838.12	1738.73
838.29	1755.11
838.46	1673.19
838.63	1722.34
838.80	1736.68
838.97	1763.30
839.14	1624.04
839.31	1685.48
839.48	1724.39
839.65	1669.09
839.82	1683.43
839.99	1718.25
840.16	1683.43
840.33	1685.48
840.50	1738.73
840.67	1636.33
840.84	1581.03
841.01	1708.01
841.18	1703.91
841.35	1722.34
841.52	1794.02
841.69	1816.55
841.86	1691.62
842.03	1634.28
842.20	1744.87
842.37	1695.72
842.54	1642.47
842.71	1615.85
842.88	1644.52
843.05	1710.05
843.22	1697.77
843.39	1705.96
843.56	1677.29
843.73	1640.42
843.90	1660.90
844.07	1755.11
844.24	1732.58
844.41	1738.73
844.58	1751.01
844.75	1734.63
844.92	1683.43
845.09	1648.61
845.26	1652.71
845.43	1767.40
845.60	1671.14
845.77	1701.86
845.94	1656.81
846.10	1720.29
846.27	1673.19
846.44	1660.90
846.61	1644.52
846.78	1693.67
846.95	1804.26
847.12	1691.62
847.29	1718.25
847.46	1597.42
847.63	1644.52
847.80	1630.18
847.97	1695.72
848.14	1806.31
848.31	1695.72
848.48	1642.47
848.65	1673.19
848.82	1695.72
848.98	1787.88
849.15	1742.82
849.32	1787.88
849.49	1740.77
849.66	1644.52
849.83	1652.71
850.00	1556.46
850.17	1714.15
850.34	1630.18
850.51	1605.61
850.68	1730.53
850.85	1812.45
851.01	1648.61
851.18	1748.97
851.35	1660.90
851.52	1718.25
851.69	1740.77
851.86	1619.94
852.03	1691.62
852.20	1669.09
852.37	1697.77
852.53	1615.85
852.70	1675.24
852.87	1742.82
853.04	1738.73
853.21	1740.77
853.38	1740.77
853.55	1802.21
853.72	1693.67
853.89	1683.43
854.05	1632.23
854.22	1714.15
854.39	1578.98
854.56	1742.82
854.73	1830.88
854.90	1642.47
855.07	1628.14
855.23	1607.66
855.40	1667.05
855.57	1660.90
855.74	1589.22
855.91	1875.94
856.08	1656.81
856.25	1642.47
856.41	1695.72
856.58	1701.86
856.75	1730.53
856.92	1646.57
857.09	1724.39
857.26	1638.38
857.42	1632.23
857.59	1673.19
857.76	1687.53
857.93	1775.59
858.10	1734.63
858.27	1677.29
858.43	1744.87
858.60	1673.19
858.77	1607.66
858.94	1697.77
859.11	1718.25
859.27	1720.29
859.44	1691.62
859.61	1841.12
859.78	1767.40
859.95	1615.85
860.12	1636.33
860.28	1869.80
860.45	1861.60
860.62	1722.34
860.79	1767.40
860.95	1726.44
861.12	1691.62
861.29	1658.85
861.46	1712.10
861.63	1638.38
861.79	1691.62
861.96	1617.90
862.13	1644.52
862.30	1777.64
862.47	1644.52
862.63	1628.14
862.80	1787.88
862.97	1716.20
863.14	1722.34
863.30	1714.15
863.47	1712.10
863.64	1791.97
863.81	1695.72
863.97	1656.81
864.14	1714.15
864.31	1695.72
864.48	1753.06
864.65	1634.28
864.81	1775.59
864.98	1660.90
865.15	1746.92
865.32	1759.21
865.48	1730.53
865.65	1757.16
865.82	1681.38
865.98	1708.01
866.15	1726.44
866.32	1654.76
866.49	1701.86
866.65	1753.06
866.82	1705.96
866.99	1751.01
867.16	1624.04
867.32	1644.52
867.49	1658.85
867.66	1660.90
867.83	1679.33
867.99	1611.75
868.16	1722.34
868.33	1638.38
868.49	1689.57
868.66	1695.72
868.83	1722.34
868.99	1740.77
869.16	1701.86
869.33	1759.21
869.50	1779.68
869.66	1685.48
869.83	1773.54
870.00	1669.09
870.16	1744.87
870.33	1669.09
870.50	1708.01
870.66	1667.05
870.83	1722.34
871.00	1683.43
871.17	1665.00
871.33	1693.67
871.50	1665.00
871.67	1697.77
871.83	1621.99
872.00	1820.64
872.17	1679.33
872.33	1822.69
872.50	1812.45
872.67	1611.75
872.83	1619.94
873.00	1607.66
873.17	1748.97
873.33	1648.61
873.50	1689.57
873.67	1646.57
873.83	1687.53
874.00	1656.81
874.16	1744.87
874.33	1701.86
874.50	1538.02
874.66	1695.72
874.83	1652.71
875.00	1798.12
875.16	1798.12
875.33	1755.11
875.50	1617.90
875.66	1644.52
875.83	1712.10
875.99	1785.83
876.16	1648.61
876.33	1689.57
876.49	1650.66
876.66	1771.49
876.83	1679.33
876.99	1578.98
877.16	1648.61
877.32	1767.40
877.49	1658.85
877.66	1724.39
877.82	1728.49
877.99	1730.53
878.15	1718.25
878.32	1638.38
878.49	1748.97
878.65	1665.00
878.82	1789.92
878.98	1656.81
879.15	1687.53
879.32	1751.01
879.48	1765.35
879.65	1669.09
879.81	1654.76
879.98	1644.52
880.15	1648.61
880.31	1681.38
880.48	1658.85
880.64	1746.92
880.81	1681.38
880.97	1812.45
881.14	1705.96
881.31	1617.90
881.47	1877.99
881.64	1701.86
881.80	1640.42
881.97	1656.81
882.13	1751.01
882.30	1597.42
882.47	1617.90
882.63	1634.28
882.80	1642.47
882.96	1726.44
883.13	1869.80
883.29	1648.61
883.46	1667.05
883.62	1804.26
883.79	1724.39
883.95	1759.21
884.12	1716.20
884.29	1773.54
884.45	1695.72
884.62	1732.58
884.78	1665.00
884.95	1812.45
885.11	1593.32
885.28	1757.16
885.44	1619.94
885.61	1781.73
885.77	1804.26
885.94	1669.09
886.10	1685.48
886.27	1710.05
886.43	1732.58
886.60	1695.72
886.76	1638.38
886.93	1685.48
887.09	1685.48
887.26	1619.94
887.42	1687.53
887.59	1724.39
887.75	1837.03
887.92	1730.53
888.08	1689.57
888.25	1765.35
888.41	1710.05
888.58	1738.73
888.74	1621.99
888.91	1648.61
>>>>>End Processed Spectral Data<<<<<
