SpectraSuite Data File
++++++++++++++++++++++++++++++++++++
Date: Mon Jun 06 15:55:57 CEST 2016
User: root
Dark Spectrum Present: No
Reference Spectrum Present: No
Number of Sampled Component Spectra: 1
Spectrometers: USB4C02835
Integration Time (usec): 100000 (USB4C02835)
Spectra Averaged: 1 (USB4C02835)
Boxcar Smoothing: 0 (USB4C02835)
Correct for Electrical Dark: No (USB4C02835)
Strobe/Lamp Enabled: No (USB4C02835)
Correct for Detector Non-linearity: No (USB4C02835)
Correct for Stray Light: No (USB4C02835)
Number of Pixels in Processed Spectrum: 3648
>>>>>Begin Processed Spectral Data<<<<<
177.47	1562.60
177.69	1562.60
177.91	1562.60
178.13	1468.39
178.36	1556.46
178.58	1662.95
178.80	1757.16
179.02	1595.37
179.24	1595.37
179.46	1708.01
179.68	1722.34
179.90	1710.05
180.13	1632.23
180.35	1681.38
180.57	1619.94
180.79	1718.25
181.01	1691.62
181.23	1738.73
181.45	1869.80
181.67	1744.87
181.90	1714.15
182.12	1687.53
182.34	1607.66
182.56	1746.92
182.78	1712.10
183.00	1671.14
183.22	1728.49
183.44	1542.12
183.66	1867.75
183.89	1832.93
184.11	1720.29
184.33	1701.86
184.55	1839.08
184.77	1691.62
184.99	1730.53
185.21	1699.81
185.43	1863.65
185.65	1683.43
185.87	1759.21
186.10	1855.46
186.32	1849.32
186.54	1753.06
186.76	1785.83
186.98	1701.86
187.20	1695.72
187.42	1681.38
187.64	1714.15
187.86	1765.35
188.08	1804.26
188.30	1716.20
188.52	1671.14
188.75	1804.26
188.97	1861.60
189.19	1708.01
189.41	1576.94
189.63	1820.64
189.85	1712.10
190.07	1693.67
190.29	1611.75
190.51	1689.57
190.73	1677.29
190.95	1775.59
191.17	1753.06
191.39	1656.81
191.61	1599.46
191.84	1695.72
192.06	1701.86
192.28	1636.33
192.50	1806.31
192.72	1755.11
192.94	1718.25
193.16	1796.07
193.38	1769.44
193.60	1650.66
193.82	1636.33
194.04	1726.44
194.26	1701.86
194.48	1650.66
194.70	1703.91
194.92	1675.24
195.14	1798.12
195.36	1740.77
195.58	1718.25
195.80	1716.20
196.02	1726.44
196.24	1708.01
196.46	1701.86
196.69	1669.09
196.91	1904.61
197.13	1693.67
197.35	1699.81
197.57	1818.60
197.79	1763.30
198.01	1753.06
198.23	1699.81
198.45	1841.12
198.67	1722.34
198.89	1683.43
199.11	1839.08
199.33	1718.25
199.55	1609.70
199.77	1681.38
199.99	1781.73
200.21	1701.86
200.43	1662.95
200.65	1689.57
200.87	1619.94
201.09	1703.91
201.31	1708.01
201.53	1703.91
201.75	1742.82
201.97	1691.62
202.19	1679.33
202.41	1683.43
202.63	1894.37
202.85	1720.29
203.07	1716.20
203.29	1638.38
203.51	1679.33
203.73	1699.81
203.95	1861.60
204.17	1712.10
204.39	1751.01
204.61	1677.29
204.83	1665.00
205.05	1705.96
205.27	1695.72
205.49	1802.21
205.71	1677.29
205.93	1652.71
206.15	1730.53
206.37	1675.24
206.59	1718.25
206.81	1617.90
207.03	1648.61
207.25	1685.48
207.47	1787.88
207.69	1689.57
207.91	1779.68
208.13	1834.98
208.34	1656.81
208.56	1658.85
208.78	1773.54
209.00	1675.24
209.22	1679.33
209.44	1685.48
209.66	1689.57
209.88	1740.77
210.10	1730.53
210.32	1683.43
210.54	1761.25
210.76	1703.91
210.98	1677.29
211.20	1613.80
211.42	1665.00
211.64	1716.20
211.86	1701.86
212.08	1714.15
212.30	1740.77
212.52	1726.44
212.74	1697.77
212.96	1714.15
213.17	1791.97
213.39	1660.90
213.61	1787.88
213.83	1703.91
214.05	1605.61
214.27	1748.97
214.49	1658.85
214.71	1634.28
214.93	1734.63
215.15	1789.92
215.37	1779.68
215.59	1652.71
215.81	1738.73
216.03	1845.22
216.24	1716.20
216.46	1658.85
216.68	1697.77
216.90	1697.77
217.12	1740.77
217.34	1736.68
217.56	1773.54
217.78	1746.92
218.00	1708.01
218.22	1730.53
218.44	1744.87
218.66	1751.01
218.87	1791.97
219.09	1656.81
219.31	1808.36
219.53	1757.16
219.75	1679.33
219.97	1744.87
220.19	1757.16
220.41	1679.33
220.63	1720.29
220.85	1732.58
221.06	1656.81
221.28	1830.88
221.50	1673.19
221.72	1660.90
221.94	1734.63
222.16	1646.57
222.38	1710.05
222.60	1730.53
222.82	1607.66
223.03	1734.63
223.25	1644.52
223.47	1732.58
223.69	1841.12
223.91	1748.97
224.13	1734.63
224.35	1683.43
224.57	1736.68
224.78	1722.34
225.00	1744.87
225.22	1746.92
225.44	1683.43
225.66	1818.60
225.88	1703.91
226.10	1791.97
226.32	1751.01
226.53	1703.91
226.75	1679.33
226.97	1685.48
227.19	1703.91
227.41	1642.47
227.63	1734.63
227.85	1609.70
228.06	1730.53
228.28	1736.68
228.50	1734.63
228.72	1650.66
228.94	1726.44
229.16	1675.24
229.37	1681.38
229.59	1712.10
229.81	1771.49
230.03	1695.72
230.25	1675.24
230.47	1652.71
230.69	1722.34
230.90	1804.26
231.12	1681.38
231.34	1763.30
231.56	1861.60
231.78	1617.90
232.00	1724.39
232.21	1718.25
232.43	1683.43
232.65	1646.57
232.87	1775.59
233.09	1607.66
233.30	1607.66
233.52	1814.50
233.74	1753.06
233.96	1720.29
234.18	1705.96
234.40	1667.05
234.61	1824.74
234.83	1724.39
235.05	1656.81
235.27	1865.70
235.49	1716.20
235.70	1730.53
235.92	1767.40
236.14	1744.87
236.36	1798.12
236.58	1599.46
236.79	1773.54
237.01	1753.06
237.23	1714.15
237.45	1816.55
237.67	1699.81
237.88	1755.11
238.10	1882.08
238.32	1675.24
238.54	1705.96
238.76	1730.53
238.97	1656.81
239.19	1691.62
239.41	1734.63
239.63	1744.87
239.85	1777.64
240.06	1695.72
240.28	1689.57
240.50	1798.12
240.72	1712.10
240.93	1685.48
241.15	1763.30
241.37	1744.87
241.59	1755.11
241.81	1701.86
242.02	1619.94
242.24	1771.49
242.46	1777.64
242.68	1712.10
242.89	1734.63
243.11	1781.73
243.33	1646.57
243.55	1769.44
243.76	1787.88
243.98	1679.33
244.20	1693.67
244.42	1763.30
244.64	1708.01
244.85	1652.71
245.07	1677.29
245.29	1699.81
245.51	1734.63
245.72	1728.49
245.94	1783.78
246.16	1783.78
246.38	1703.91
246.59	1673.19
246.81	1650.66
247.03	1658.85
247.24	1609.70
247.46	1642.47
247.68	1757.16
247.90	1681.38
248.11	1615.85
248.33	1734.63
248.55	1601.51
248.77	1689.57
248.98	1816.55
249.20	1824.74
249.42	1687.53
249.64	1710.05
249.85	1701.86
250.07	1669.09
250.29	1746.92
250.50	1732.58
250.72	1665.00
250.94	1726.44
251.16	1886.18
251.37	1800.16
251.59	1736.68
251.81	1693.67
252.02	1736.68
252.24	1775.59
252.46	1812.45
252.68	1648.61
252.89	1593.32
253.11	1652.71
253.33	1755.11
253.54	1726.44
253.76	1667.05
253.98	1724.39
254.20	1759.21
254.41	1587.18
254.63	1695.72
254.85	1607.66
255.06	1703.91
255.28	1791.97
255.50	1710.05
255.71	1781.73
255.93	1587.18
256.15	1703.91
256.36	1742.82
256.58	1718.25
256.80	1685.48
257.02	1730.53
257.23	1726.44
257.45	1669.09
257.67	1732.58
257.88	1693.67
258.10	1765.35
258.32	1726.44
258.53	1714.15
258.75	1765.35
258.97	1732.58
259.18	1722.34
259.40	1714.15
259.62	1845.22
259.83	1693.67
260.05	1669.09
260.27	1955.81
260.48	1748.97
260.70	1605.61
260.92	1742.82
261.13	1718.25
261.35	1689.57
261.57	1724.39
261.78	1587.18
262.00	1665.00
262.22	1742.82
262.43	1695.72
262.65	1636.33
262.86	1701.86
263.08	1869.80
263.30	1699.81
263.51	1638.38
263.73	1644.52
263.95	1796.07
264.16	1656.81
264.38	1740.77
264.60	1714.15
264.81	1685.48
265.03	1796.07
265.25	1794.02
265.46	1708.01
265.68	1810.40
265.89	1781.73
266.11	1691.62
266.33	1660.90
266.54	1789.92
266.76	1722.34
266.98	1775.59
267.19	1828.84
267.41	1732.58
267.62	1683.43
267.84	1638.38
268.06	1808.36
268.27	1703.91
268.49	1755.11
268.70	1703.91
268.92	1708.01
269.14	1669.09
269.35	1679.33
269.57	1699.81
269.79	1796.07
270.00	1636.33
270.22	1865.70
270.43	1718.25
270.65	1611.75
270.87	1742.82
271.08	1746.92
271.30	1724.39
271.51	1744.87
271.73	1742.82
271.95	1712.10
272.16	1716.20
272.38	1703.91
272.59	1675.24
272.81	1697.77
273.02	1638.38
273.24	1765.35
273.46	1767.40
273.67	1710.05
273.89	1685.48
274.10	1726.44
274.32	1810.40
274.54	1660.90
274.75	1697.77
274.97	1679.33
275.18	1757.16
275.40	1693.67
275.61	1716.20
275.83	1734.63
276.05	1656.81
276.26	1728.49
276.48	1761.25
276.69	1650.66
276.91	1587.18
277.12	1826.79
277.34	1761.25
277.55	1763.30
277.77	1683.43
277.99	1718.25
278.20	1619.94
278.42	1650.66
278.63	1644.52
278.85	1636.33
279.06	1581.03
279.28	1789.92
279.49	1718.25
279.71	1855.46
279.93	1765.35
280.14	1714.15
280.36	1669.09
280.57	1746.92
280.79	1767.40
281.00	1636.33
281.22	1714.15
281.43	1802.21
281.65	1624.04
281.86	1671.14
282.08	1748.97
282.29	1808.36
282.51	1615.85
282.73	1665.00
282.94	1644.52
283.16	1787.88
283.37	1781.73
283.59	1705.96
283.80	1712.10
284.02	1634.28
284.23	1718.25
284.45	1654.76
284.66	1617.90
284.88	1699.81
285.09	1794.02
285.31	1726.44
285.52	1734.63
285.74	1593.32
285.95	1724.39
286.17	1781.73
286.38	1800.16
286.60	1722.34
286.81	1630.18
287.03	1679.33
287.24	1742.82
287.46	1716.20
287.67	1705.96
287.89	1796.07
288.10	1712.10
288.32	1695.72
288.53	1773.54
288.75	1687.53
288.96	1753.06
289.18	1722.34
289.39	1665.00
289.61	1699.81
289.82	1794.02
290.04	1787.88
290.25	1736.68
290.47	1722.34
290.68	1656.81
290.90	1796.07
291.11	1597.42
291.33	1742.82
291.54	1677.29
291.76	1718.25
291.97	1773.54
292.18	1818.60
292.40	1669.09
292.61	1658.85
292.83	1789.92
293.04	1771.49
293.26	1679.33
293.47	1679.33
293.69	1673.19
293.90	1705.96
294.12	1791.97
294.33	1648.61
294.55	1712.10
294.76	1763.30
294.97	1804.26
295.19	1814.50
295.40	1613.80
295.62	1716.20
295.83	1714.15
296.05	1748.97
296.26	1677.29
296.48	1636.33
296.69	1783.78
296.90	1755.11
297.12	1677.29
297.33	1755.11
297.55	1695.72
297.76	1789.92
297.98	1787.88
298.19	1687.53
298.41	1677.29
298.62	1644.52
298.83	1800.16
299.05	1746.92
299.26	1757.16
299.48	1648.61
299.69	1783.78
299.90	1628.14
300.12	1708.01
300.33	1771.49
300.55	1716.20
300.76	1710.05
300.98	1576.94
301.19	1734.63
301.40	1689.57
301.62	1716.20
301.83	1701.86
302.05	1748.97
302.26	1699.81
302.47	1689.57
302.69	1638.38
302.90	1744.87
303.12	1693.67
303.33	1681.38
303.54	1798.12
303.76	1708.01
303.97	1812.45
304.19	1740.77
304.40	1636.33
304.61	1728.49
304.83	1822.69
305.04	1748.97
305.26	1789.92
305.47	1652.71
305.68	1638.38
305.90	1591.27
306.11	1722.34
306.33	1667.05
306.54	1705.96
306.75	1615.85
306.97	1576.94
307.18	1607.66
307.39	1564.65
307.61	1763.30
307.82	1732.58
308.04	1656.81
308.25	1677.29
308.46	1658.85
308.68	1769.44
308.89	1718.25
309.10	1851.36
309.32	1724.39
309.53	1759.21
309.74	1722.34
309.96	1705.96
310.17	1798.12
310.39	1705.96
310.60	1705.96
310.81	1712.10
311.03	1667.05
311.24	1765.35
311.45	1701.86
311.67	1800.16
311.88	1689.57
312.09	1724.39
312.31	1648.61
312.52	1701.86
312.73	1687.53
312.95	1689.57
313.16	1671.14
313.37	1753.06
313.59	1771.49
313.80	1751.01
314.01	1808.36
314.23	1701.86
314.44	1671.14
314.65	1662.95
314.87	1716.20
315.08	1697.77
315.29	1734.63
315.51	1650.66
315.72	1607.66
315.93	1814.50
316.15	1705.96
316.36	1728.49
316.57	1679.33
316.79	1697.77
317.00	1632.23
317.21	1748.97
317.43	1677.29
317.64	1648.61
317.85	1699.81
318.07	1724.39
318.28	1744.87
318.49	1800.16
318.70	1908.71
318.92	1785.83
319.13	1845.22
319.34	1867.75
319.56	1808.36
319.77	1841.12
319.98	1787.88
320.20	1837.03
320.41	1720.29
320.62	1751.01
320.83	1705.96
321.05	1832.93
321.26	1736.68
321.47	1710.05
321.69	1787.88
321.90	1691.62
322.11	1652.71
322.32	1746.92
322.54	1861.60
322.75	1677.29
322.96	1869.80
323.18	1630.18
323.39	1585.13
323.60	1779.68
323.81	1816.55
324.03	1755.11
324.24	1724.39
324.45	1732.58
324.66	1675.24
324.88	1812.45
325.09	1755.11
325.30	1714.15
325.52	1673.19
325.73	1683.43
325.94	1665.00
326.15	1581.03
326.37	1658.85
326.58	1791.97
326.79	1808.36
327.00	1654.76
327.22	1722.34
327.43	1665.00
327.64	1660.90
327.85	1742.82
328.07	1812.45
328.28	1810.40
328.49	1669.09
328.70	1691.62
328.92	1734.63
329.13	1722.34
329.34	1740.77
329.55	1812.45
329.76	1779.68
329.98	1703.91
330.19	1781.73
330.40	1734.63
330.61	1708.01
330.83	1751.01
331.04	1722.34
331.25	1660.90
331.46	1654.76
331.68	1593.32
331.89	1779.68
332.10	1777.64
332.31	1613.80
332.52	1716.20
332.74	1751.01
332.95	1656.81
333.16	1730.53
333.37	1746.92
333.58	1708.01
333.80	1730.53
334.01	1601.51
334.22	1679.33
334.43	1718.25
334.64	1632.23
334.86	1601.51
335.07	1703.91
335.28	1777.64
335.49	1566.70
335.70	1738.73
335.92	1757.16
336.13	1861.60
336.34	1718.25
336.55	1787.88
336.76	1761.25
336.98	1644.52
337.19	1701.86
337.40	1732.58
337.61	1875.94
337.82	1687.53
338.04	1748.97
338.25	1685.48
338.46	1722.34
338.67	1720.29
338.88	1626.09
339.09	1632.23
339.31	1712.10
339.52	1652.71
339.73	1634.28
339.94	1724.39
340.15	1685.48
340.36	1671.14
340.58	1730.53
340.79	1630.18
341.00	1697.77
341.21	1640.42
341.42	1804.26
341.63	1701.86
341.85	1847.27
342.06	1738.73
342.27	1697.77
342.48	1771.49
342.69	1583.08
342.90	1730.53
343.12	1755.11
343.33	1736.68
343.54	1794.02
343.75	1757.16
343.96	1722.34
344.17	1611.75
344.38	1697.77
344.60	1656.81
344.81	1648.61
345.02	1679.33
345.23	1771.49
345.44	1779.68
345.65	1781.73
345.86	1748.97
346.07	1769.44
346.29	1624.04
346.50	1609.70
346.71	1679.33
346.92	1759.21
347.13	1769.44
347.34	1708.01
347.55	1708.01
347.76	1781.73
347.98	1632.23
348.19	1662.95
348.40	1785.83
348.61	1687.53
348.82	1742.82
349.03	1751.01
349.24	1693.67
349.45	1781.73
349.66	1611.75
349.88	1722.34
350.09	1609.70
350.30	1800.16
350.51	1791.97
350.72	1722.34
350.93	1779.68
351.14	1597.42
351.35	1767.40
351.56	1730.53
351.77	1703.91
351.99	1808.36
352.20	1783.78
352.41	1787.88
352.62	1689.57
352.83	1695.72
353.04	1720.29
353.25	1632.23
353.46	1806.31
353.67	1751.01
353.88	1599.46
354.09	1669.09
354.30	1767.40
354.52	1785.83
354.73	1769.44
354.94	1687.53
355.15	1701.86
355.36	1806.31
355.57	1708.01
355.78	1816.55
355.99	1757.16
356.20	1759.21
356.41	1763.30
356.62	1757.16
356.83	1675.24
357.04	1800.16
357.25	1650.66
357.46	1710.05
357.68	1675.24
357.89	1675.24
358.10	1738.73
358.31	1720.29
358.52	1705.96
358.73	1705.96
358.94	1669.09
359.15	1640.42
359.36	1753.06
359.57	1759.21
359.78	1667.05
359.99	1746.92
360.20	1697.77
360.41	1683.43
360.62	1863.65
360.83	1716.20
361.04	1722.34
361.25	1781.73
361.46	1779.68
361.67	1732.58
361.88	1755.11
362.09	1738.73
362.30	1742.82
362.51	1660.90
362.72	1701.86
362.93	1765.35
363.14	1746.92
363.35	1744.87
363.56	1615.85
363.78	1755.11
363.99	1794.02
364.20	1685.48
364.41	1757.16
364.62	1828.84
364.83	1753.06
365.04	1677.29
365.25	1708.01
365.46	1802.21
365.67	1718.25
365.88	1685.48
366.09	1726.44
366.30	1675.24
366.51	1738.73
366.72	1624.04
366.93	1759.21
367.14	1708.01
367.35	1746.92
367.56	1787.88
367.77	1771.49
367.98	1628.14
368.18	1773.54
368.39	1748.97
368.60	1654.76
368.81	1783.78
369.02	1783.78
369.23	1699.81
369.44	1683.43
369.65	1718.25
369.86	1765.35
370.07	1742.82
370.28	1667.05
370.49	1798.12
370.70	1779.68
370.91	1675.24
371.12	1650.66
371.33	1763.30
371.54	1722.34
371.75	1794.02
371.96	1689.57
372.17	1722.34
372.38	1736.68
372.59	1808.36
372.80	1679.33
373.01	1677.29
373.22	1726.44
373.43	1703.91
373.64	1705.96
373.85	1826.79
374.06	1808.36
374.26	1769.44
374.47	1728.49
374.68	1763.30
374.89	1712.10
375.10	1765.35
375.31	1810.40
375.52	1726.44
375.73	1726.44
375.94	1667.05
376.15	1775.59
376.36	1662.95
376.57	1558.50
376.78	1755.11
376.99	1667.05
377.20	1740.77
377.40	1642.47
377.61	1816.55
377.82	1619.94
378.03	1720.29
378.24	1728.49
378.45	1738.73
378.66	1738.73
378.87	1644.52
379.08	1634.28
379.29	1660.90
379.50	1753.06
379.71	1742.82
379.91	1822.69
380.12	1757.16
380.33	1685.48
380.54	1734.63
380.75	1718.25
380.96	1656.81
381.17	1712.10
381.38	1730.53
381.59	1716.20
381.80	1755.11
382.00	1884.13
382.21	1761.25
382.42	1775.59
382.63	1912.80
382.84	1730.53
383.05	1761.25
383.26	1923.04
383.47	1753.06
383.68	1744.87
383.88	1726.44
384.09	1705.96
384.30	1853.41
384.51	1738.73
384.72	1699.81
384.93	1626.09
385.14	1693.67
385.35	1777.64
385.55	1679.33
385.76	1736.68
385.97	1777.64
386.18	1701.86
386.39	1628.14
386.60	1746.92
386.81	1726.44
387.02	1712.10
387.22	1691.62
387.43	1853.41
387.64	1855.46
387.85	1800.16
388.06	2220.00
388.27	4345.79
388.48	6743.96
388.68	8185.73
388.89	9451.38
389.10	9793.39
389.31	8640.38
389.52	7563.15
389.73	6596.51
389.93	6272.93
390.14	5689.26
390.35	5146.55
390.56	4564.92
390.77	3848.13
390.98	3065.81
391.18	2533.34
391.39	2099.17
391.60	1943.52
391.81	1853.41
392.02	1812.45
392.23	1859.56
392.43	1679.33
392.64	1765.35
392.85	1681.38
393.06	1837.03
393.27	1763.30
393.47	1662.95
393.68	1763.30
393.89	1687.53
394.10	1718.25
394.31	1697.77
394.52	1583.08
394.72	1734.63
394.93	1796.07
395.14	1722.34
395.35	1759.21
395.56	1773.54
395.76	1691.62
395.97	1759.21
396.18	1898.47
396.39	1908.71
396.60	1970.15
396.80	1918.95
397.01	1826.79
397.22	1810.40
397.43	1877.99
397.64	1712.10
397.84	1798.12
398.05	1867.75
398.26	1777.64
398.47	1726.44
398.67	1748.97
398.88	1789.92
399.09	1679.33
399.30	1806.31
399.51	1818.60
399.71	1603.56
399.92	1734.63
400.13	1732.58
400.34	1675.24
400.54	1681.38
400.75	1837.03
400.96	1783.78
401.17	1822.69
401.37	1800.16
401.58	1755.11
401.79	1789.92
402.00	1849.32
402.21	2054.11
402.41	1894.37
402.62	2021.35
402.83	2011.11
403.04	2045.92
403.24	2056.16
403.45	1853.41
403.66	1937.38
403.87	1853.41
404.07	1880.04
404.28	1802.21
404.49	1798.12
404.70	1847.27
404.90	1759.21
405.11	1822.69
405.32	1697.77
405.52	1753.06
405.73	1636.33
405.94	1714.15
406.15	1757.16
406.35	1654.76
406.56	1728.49
406.77	1757.16
406.98	1816.55
407.18	1638.38
407.39	1806.31
407.60	1742.82
407.80	1828.84
408.01	1673.19
408.22	1757.16
408.43	1624.04
408.63	1677.29
408.84	1742.82
409.05	1791.97
409.25	1681.38
409.46	1607.66
409.67	1708.01
409.88	1705.96
410.08	1781.73
410.29	1759.21
410.50	1693.67
410.70	1716.20
410.91	1638.38
411.12	1660.90
411.32	1734.63
411.53	1683.43
411.74	1730.53
411.95	1777.64
412.15	1775.59
412.36	1791.97
412.57	1705.96
412.77	1761.25
412.98	1769.44
413.19	1769.44
413.39	1710.05
413.60	1796.07
413.81	1873.89
414.01	1624.04
414.22	1728.49
414.43	1673.19
414.63	1691.62
414.84	1759.21
415.05	1748.97
415.25	1669.09
415.46	1718.25
415.67	1675.24
415.87	1730.53
416.08	1767.40
416.29	1634.28
416.49	1681.38
416.70	1712.10
416.91	1761.25
417.11	1736.68
417.32	1775.59
417.53	1796.07
417.73	1755.11
417.94	1716.20
418.15	1648.61
418.35	1757.16
418.56	1652.71
418.77	1884.13
418.97	1697.77
419.18	1667.05
419.38	1624.04
419.59	1755.11
419.80	1759.21
420.00	1665.00
420.21	1740.77
420.42	1746.92
420.62	1761.25
420.83	1628.14
421.04	1751.01
421.24	1671.14
421.45	1800.16
421.65	1814.50
421.86	1703.91
422.07	1740.77
422.27	1722.34
422.48	1708.01
422.69	1640.42
422.89	1714.15
423.10	1679.33
423.30	1634.28
423.51	1732.58
423.72	1775.59
423.92	1751.01
424.13	1669.09
424.33	1718.25
424.54	1748.97
424.75	1789.92
424.95	1877.99
425.16	1763.30
425.36	1683.43
425.57	1789.92
425.78	1744.87
425.98	1798.12
426.19	1656.81
426.39	1632.23
426.60	1701.86
426.81	1791.97
427.01	1732.58
427.22	1669.09
427.42	1669.09
427.63	1718.25
427.83	1791.97
428.04	1869.80
428.25	1777.64
428.45	1837.03
428.66	1767.40
428.86	1736.68
429.07	1691.62
429.28	1718.25
429.48	1732.58
429.69	1681.38
429.89	1767.40
430.10	1646.57
430.30	1710.05
430.51	1779.68
430.71	1687.53
430.92	1726.44
431.13	1714.15
431.33	1763.30
431.54	1716.20
431.74	1767.40
431.95	1875.94
432.15	1662.95
432.36	1671.14
432.56	1705.96
432.77	1789.92
432.98	1859.56
433.18	1748.97
433.39	1695.72
433.59	1746.92
433.80	1871.84
434.00	1855.46
434.21	1732.58
434.41	1646.57
434.62	1806.31
434.82	1730.53
435.03	1710.05
435.23	1746.92
435.44	1642.47
435.64	1726.44
435.85	1742.82
436.06	1742.82
436.26	1791.97
436.47	1675.24
436.67	1693.67
436.88	1789.92
437.08	1804.26
437.29	1755.11
437.49	1734.63
437.70	1857.51
437.90	1710.05
438.11	1853.41
438.31	1787.88
438.52	1888.23
438.72	1843.17
438.93	1931.23
439.13	1751.01
439.34	1779.68
439.54	1675.24
439.75	1826.79
439.95	1816.55
440.16	1732.58
440.36	1828.84
440.57	1798.12
440.77	1728.49
440.98	1726.44
441.18	1746.92
441.39	1748.97
441.59	1652.71
441.80	1828.84
442.00	1736.68
442.21	1812.45
442.41	1728.49
442.62	1783.78
442.82	1722.34
443.02	1802.21
443.23	1667.05
443.43	1759.21
443.64	1888.23
443.84	1667.05
444.05	1814.50
444.25	1796.07
444.46	1714.15
444.66	1728.49
444.87	1808.36
445.07	1660.90
445.28	1691.62
445.48	1759.21
445.69	1753.06
445.89	1892.32
446.09	1712.10
446.30	1955.81
446.50	2691.03
446.71	3743.69
446.91	4472.76
447.12	4712.38
447.32	4863.93
447.53	4214.72
447.73	3876.80
447.93	3569.61
448.14	3422.16
448.34	3098.58
448.55	2897.88
448.75	2807.77
448.96	2652.12
449.16	2426.84
449.36	2279.39
449.57	2117.60
449.77	1861.60
449.98	1828.84
450.18	1777.64
450.39	1820.64
450.59	1847.27
450.79	1812.45
451.00	1718.25
451.20	1761.25
451.41	1814.50
451.61	1742.82
451.81	1748.97
452.02	1634.28
452.22	1751.01
452.43	1759.21
452.63	1714.15
452.84	1691.62
453.04	1703.91
453.24	1759.21
453.45	1689.57
453.65	1712.10
453.86	1755.11
454.06	1777.64
454.26	1769.44
454.47	1755.11
454.67	1771.49
454.87	1722.34
455.08	1654.76
455.28	1806.31
455.49	1804.26
455.69	1720.29
455.89	1904.61
456.10	1820.64
456.30	1714.15
456.51	1759.21
456.71	1812.45
456.91	1783.78
457.12	1742.82
457.32	1710.05
457.52	1697.77
457.73	1748.97
457.93	1802.21
458.14	1673.19
458.34	1673.19
458.54	1779.68
458.75	1681.38
458.95	1787.88
459.15	1751.01
459.36	1814.50
459.56	1794.02
459.76	1890.28
459.97	1757.16
460.17	1738.73
460.37	1779.68
460.58	1685.48
460.78	1773.54
460.99	1660.90
461.19	1798.12
461.39	1691.62
461.60	1701.86
461.80	1839.08
462.00	1765.35
462.21	1740.77
462.41	1644.52
462.61	1705.96
462.82	1673.19
463.02	1824.74
463.22	1734.63
463.43	1767.40
463.63	1755.11
463.83	1804.26
464.04	1748.97
464.24	1746.92
464.44	1730.53
464.64	1708.01
464.85	1814.50
465.05	1781.73
465.25	1757.16
465.46	1751.01
465.66	1798.12
465.86	1779.68
466.07	1849.32
466.27	1787.88
466.47	1669.09
466.68	1677.29
466.88	1779.68
467.08	1771.49
467.29	1800.16
467.49	1796.07
467.69	1787.88
467.89	1705.96
468.10	1662.95
468.30	1806.31
468.50	1716.20
468.71	1755.11
468.91	1656.81
469.11	1822.69
469.31	1724.39
469.52	1644.52
469.72	1830.88
469.92	1826.79
470.13	1753.06
470.33	1728.49
470.53	1816.55
470.73	2058.21
470.94	2240.48
471.14	2277.34
471.34	2492.38
471.54	2432.99
471.75	2142.18
471.95	2170.85
472.15	2066.40
472.36	2062.30
472.56	2047.97
472.76	2013.15
472.96	1986.53
473.17	2074.59
473.37	1847.27
473.57	1789.92
473.77	1791.97
473.98	1775.59
474.18	1759.21
474.38	1918.95
474.58	1771.49
474.79	1703.91
474.99	1845.22
475.19	1775.59
475.39	1738.73
475.60	1761.25
475.80	1773.54
476.00	1763.30
476.20	1744.87
476.41	1726.44
476.61	1834.98
476.81	1816.55
477.01	1673.19
477.21	1816.55
477.42	1802.21
477.62	1648.61
477.82	1751.01
478.02	1669.09
478.23	1699.81
478.43	1712.10
478.63	1734.63
478.83	1738.73
479.03	1746.92
479.24	1771.49
479.44	1894.37
479.64	1691.62
479.84	1591.27
480.04	1640.42
480.25	1806.31
480.45	1652.71
480.65	1705.96
480.85	1834.98
481.06	1728.49
481.26	1697.77
481.46	1783.78
481.66	1798.12
481.86	1722.34
482.06	1773.54
482.27	1734.63
482.47	1669.09
482.67	1775.59
482.87	1767.40
483.07	1742.82
483.28	1683.43
483.48	1656.81
483.68	1744.87
483.88	1652.71
484.08	1650.66
484.29	1695.72
484.49	1718.25
484.69	1677.29
484.89	1714.15
485.09	1722.34
485.29	1755.11
485.50	1722.34
485.70	1777.64
485.90	1789.92
486.10	1806.31
486.30	1759.21
486.50	1800.16
486.71	1808.36
486.91	1771.49
487.11	1816.55
487.31	1697.77
487.51	1794.02
487.71	1753.06
487.91	1640.42
488.12	1665.00
488.32	1564.65
488.52	1751.01
488.72	1624.04
488.92	1689.57
489.12	1802.21
489.32	1746.92
489.53	1810.40
489.73	1701.86
489.93	1839.08
490.13	1673.19
490.33	1660.90
490.53	1759.21
490.73	1789.92
490.94	1689.57
491.14	1791.97
491.34	1810.40
491.54	2154.46
491.74	2443.23
491.94	2963.41
492.14	3014.61
492.34	2942.93
492.54	2693.08
492.75	2510.81
492.95	2473.95
493.15	2381.79
493.35	2334.68
493.55	2205.66
493.75	2097.12
493.95	2176.99
494.15	2060.26
494.35	1927.14
494.56	1861.60
494.76	1775.59
494.96	1800.16
495.16	1767.40
495.36	1732.58
495.56	1779.68
495.76	1681.38
495.96	1732.58
496.16	1710.05
496.36	1806.31
496.56	1748.97
496.77	1724.39
496.97	1777.64
497.17	1863.65
497.37	1734.63
497.57	1746.92
497.77	1738.73
497.97	1697.77
498.17	1781.73
498.37	1732.58
498.57	1724.39
498.77	1746.92
498.97	1802.21
499.17	1853.41
499.38	1722.34
499.58	1775.59
499.78	1814.50
499.98	1851.36
500.18	1753.06
500.38	1724.39
500.58	1945.57
500.78	2519.00
500.98	4556.73
501.18	5912.49
501.38	6746.01
501.58	7128.98
501.78	6764.44
501.98	5556.14
502.18	4986.80
502.38	4390.84
502.58	3983.30
502.78	3745.73
502.98	3639.24
503.18	3381.20
503.38	3112.91
503.59	2842.58
503.79	2688.98
503.99	2424.80
504.19	2287.58
504.39	2193.37
504.59	2258.91
504.79	2099.17
504.99	1980.39
505.19	1826.79
505.39	1871.84
505.59	1933.28
505.79	1939.43
505.99	1867.75
506.19	1812.45
506.39	1830.88
506.59	1863.65
506.79	1753.06
506.99	1912.80
507.19	1712.10
507.39	1808.36
507.59	1683.43
507.79	1685.48
507.99	1673.19
508.19	1757.16
508.39	1710.05
508.59	1699.81
508.79	1796.07
508.99	1837.03
509.19	1648.61
509.39	1773.54
509.59	1755.11
509.79	1763.30
509.99	1736.68
510.19	1804.26
510.39	1789.92
510.59	1761.25
510.79	1665.00
510.99	1708.01
511.19	1826.79
511.39	1898.47
511.59	1751.01
511.79	1828.84
511.99	1673.19
512.19	1871.84
512.38	1769.44
512.58	1652.71
512.78	1796.07
512.98	1812.45
513.18	1781.73
513.38	1626.09
513.58	1777.64
513.78	1701.86
513.98	1746.92
514.18	1695.72
514.38	1701.86
514.58	1708.01
514.78	1695.72
514.98	1742.82
515.18	1681.38
515.38	1615.85
515.58	1822.69
515.78	1744.87
515.98	1785.83
516.18	1736.68
516.38	1703.91
516.57	1757.16
516.77	1705.96
516.97	1724.39
517.17	1671.14
517.37	1646.57
517.57	1849.32
517.77	1796.07
517.97	1738.73
518.17	1771.49
518.37	1624.04
518.57	1730.53
518.77	1798.12
518.97	1726.44
519.16	1796.07
519.36	1791.97
519.56	1730.53
519.76	1800.16
519.96	1789.92
520.16	1867.75
520.36	1736.68
520.56	1847.27
520.76	1697.77
520.96	1687.53
521.16	1794.02
521.35	1785.83
521.55	1851.36
521.75	1703.91
521.95	1787.88
522.15	1751.01
522.35	1656.81
522.55	1771.49
522.75	1904.61
522.95	1701.86
523.14	1701.86
523.34	1744.87
523.54	1621.99
523.74	1839.08
523.94	1751.01
524.14	1671.14
524.34	1773.54
524.54	1837.03
524.73	1763.30
524.93	1718.25
525.13	1796.07
525.33	1738.73
525.53	1896.42
525.73	1744.87
525.93	1765.35
526.13	1738.73
526.32	1671.14
526.52	1859.56
526.72	1798.12
526.92	1732.58
527.12	1757.16
527.32	1714.15
527.52	1837.03
527.71	1802.21
527.91	1753.06
528.11	1697.77
528.31	1699.81
528.51	1708.01
528.71	1701.86
528.90	1761.25
529.10	1773.54
529.30	1824.74
529.50	1624.04
529.70	1732.58
529.90	1744.87
530.09	1763.30
530.29	1697.77
530.49	1673.19
530.69	1834.98
530.89	1753.06
531.09	1722.34
531.28	1763.30
531.48	1832.93
531.68	1755.11
531.88	1728.49
532.08	1851.36
532.28	1708.01
532.47	1779.68
532.67	1777.64
532.87	1791.97
533.07	1605.61
533.27	1791.97
533.46	1777.64
533.66	1693.67
533.86	1736.68
534.06	1669.09
534.26	1744.87
534.45	1691.62
534.65	1767.40
534.85	1714.15
535.05	1634.28
535.25	1781.73
535.44	1587.18
535.64	1834.98
535.84	1708.01
536.04	1718.25
536.24	1746.92
536.43	1773.54
536.63	1800.16
536.83	1701.86
537.03	1769.44
537.22	1681.38
537.42	1671.14
537.62	1751.01
537.82	1730.53
538.02	1779.68
538.21	1779.68
538.41	1910.75
538.61	1769.44
538.81	1763.30
539.00	1800.16
539.20	1720.29
539.40	1748.97
539.60	1753.06
539.79	1730.53
539.99	1777.64
540.19	1775.59
540.39	1689.57
540.58	1802.21
540.78	1806.31
540.98	1746.92
541.18	1789.92
541.37	1798.12
541.57	1697.77
541.77	1791.97
541.97	1728.49
542.16	1714.15
542.36	1730.53
542.56	1779.68
542.76	1865.70
542.95	1861.60
543.15	1779.68
543.35	1818.60
543.54	1632.23
543.74	1742.82
543.94	1802.21
544.14	1671.14
544.33	1755.11
544.53	1710.05
544.73	1781.73
544.93	1748.97
545.12	1703.91
545.32	1769.44
545.52	1753.06
545.71	1716.20
545.91	1738.73
546.11	1718.25
546.30	1687.53
546.50	1693.67
546.70	1763.30
546.90	1755.11
547.09	1636.33
547.29	1724.39
547.49	1804.26
547.68	1720.29
547.88	1701.86
548.08	1820.64
548.27	2205.66
548.47	1695.72
548.67	1693.67
548.87	1804.26
549.06	1693.67
549.26	1714.15
549.46	1794.02
549.65	1755.11
549.85	1816.55
550.05	1769.44
550.24	1636.33
550.44	1779.68
550.64	1822.69
550.83	1757.16
551.03	1765.35
551.23	1767.40
551.42	1763.30
551.62	1681.38
551.82	1712.10
552.01	1742.82
552.21	1759.21
552.41	1728.49
552.60	1839.08
552.80	1736.68
553.00	1683.43
553.19	1693.67
553.39	1834.98
553.59	1699.81
553.78	1681.38
553.98	1746.92
554.17	1646.57
554.37	1753.06
554.57	1794.02
554.76	1632.23
554.96	1755.11
555.16	1755.11
555.35	1746.92
555.55	1708.01
555.75	1736.68
555.94	1783.78
556.14	1689.57
556.33	1742.82
556.53	1710.05
556.73	1753.06
556.92	1798.12
557.12	1863.65
557.32	1843.17
557.51	1810.40
557.71	1763.30
557.90	1929.19
558.10	1849.32
558.30	1771.49
558.49	1734.63
558.69	1695.72
558.88	1742.82
559.08	1718.25
559.28	1806.31
559.47	1804.26
559.67	1703.91
559.86	1828.84
560.06	1787.88
560.26	1763.30
560.45	1857.51
560.65	1767.40
560.84	1802.21
561.04	1751.01
561.24	1753.06
561.43	1734.63
561.63	1802.21
561.82	1837.03
562.02	1781.73
562.22	1626.09
562.41	1722.34
562.61	1830.88
562.80	1724.39
563.00	1916.90
563.19	1742.82
563.39	1798.12
563.59	1806.31
563.78	1712.10
563.98	1662.95
564.17	1675.24
564.37	1626.09
564.56	1767.40
564.76	1669.09
564.96	1841.12
565.15	1763.30
565.35	1818.60
565.54	1744.87
565.74	1843.17
565.93	1753.06
566.13	1755.11
566.32	1787.88
566.52	1771.49
566.71	1753.06
566.91	1765.35
567.11	1789.92
567.30	1679.33
567.50	1837.03
567.69	1708.01
567.89	1755.11
568.08	1730.53
568.28	1853.41
568.47	1740.77
568.67	1789.92
568.86	1734.63
569.06	1763.30
569.25	1804.26
569.45	1785.83
569.64	1773.54
569.84	1798.12
570.04	1736.68
570.23	1712.10
570.43	1781.73
570.62	1734.63
570.82	1851.36
571.01	1691.62
571.21	1689.57
571.40	1712.10
571.60	1853.41
571.79	1814.50
571.99	1753.06
572.18	1736.68
572.38	1798.12
572.57	1701.86
572.77	1718.25
572.96	1898.47
573.16	1769.44
573.35	1787.88
573.55	1871.84
573.74	1824.74
573.94	1726.44
574.13	1720.29
574.33	1820.64
574.52	1812.45
574.71	1767.40
574.91	1794.02
575.10	1708.01
575.30	1697.77
575.49	1675.24
575.69	1716.20
575.88	1810.40
576.08	1744.87
576.27	1800.16
576.47	1734.63
576.66	1888.23
576.86	1814.50
577.05	1775.59
577.25	1923.04
577.44	1880.04
577.64	1730.53
577.83	1843.17
578.02	1800.16
578.22	1849.32
578.41	1904.61
578.61	1787.88
578.80	1679.33
579.00	1701.86
579.19	1755.11
579.39	1826.79
579.58	1894.37
579.77	1806.31
579.97	1890.28
580.16	1734.63
580.36	1843.17
580.55	1900.52
580.75	1771.49
580.94	1789.92
581.13	1939.43
581.33	1808.36
581.52	1777.64
581.72	1869.80
581.91	1927.14
582.11	1791.97
582.30	1810.40
582.49	1808.36
582.69	1828.84
582.88	1783.78
583.08	1667.05
583.27	1820.64
583.47	1748.97
583.66	1740.77
583.85	1632.23
584.05	1791.97
584.24	1794.02
584.44	1787.88
584.63	1845.22
584.82	1740.77
585.02	1810.40
585.21	1800.16
585.41	1806.31
585.60	1832.93
585.79	1900.52
585.99	1998.82
586.18	1916.90
586.37	2191.33
586.57	3377.10
586.76	9965.42
586.96	24745.61
587.15	34354.68
587.34	39957.92
587.54	41856.39
587.73	36371.92
587.93	26254.96
588.12	21546.68
588.31	18335.46
588.51	16469.76
588.70	15167.26
588.89	13983.53
589.09	12539.71
589.28	10930.01
589.47	9471.86
589.67	7948.17
589.86	6416.29
590.06	4966.32
590.25	3968.96
590.44	3053.52
590.64	2537.43
590.83	2207.71
591.02	2144.22
591.22	1945.57
591.41	1855.46
591.60	1794.02
591.80	1873.89
591.99	1755.11
592.18	1777.64
592.38	1853.41
592.57	1812.45
592.76	1755.11
592.96	1791.97
593.15	1761.25
593.34	1845.22
593.54	1738.73
593.73	1834.98
593.92	1818.60
594.12	1804.26
594.31	1783.78
594.50	1810.40
594.70	1779.68
594.89	1875.94
595.08	1685.48
595.28	1783.78
595.47	1982.43
595.66	1814.50
595.86	1683.43
596.05	1746.92
596.24	1787.88
596.43	1839.08
596.63	1777.64
596.82	1812.45
597.01	1779.68
597.21	1785.83
597.40	1736.68
597.59	1728.49
597.79	1777.64
597.98	1720.29
598.17	1787.88
598.36	1753.06
598.56	1763.30
598.75	1722.34
598.94	1808.36
599.14	1798.12
599.33	1654.76
599.52	1744.87
599.71	1763.30
599.91	1755.11
600.10	1806.31
600.29	1734.63
600.48	1761.25
600.68	1779.68
600.87	1724.39
601.06	1693.67
601.26	1822.69
601.45	1738.73
601.64	1720.29
601.83	1857.51
602.03	1744.87
602.22	1720.29
602.41	1787.88
602.60	1884.13
602.80	1834.98
602.99	1746.92
603.18	1726.44
603.37	1734.63
603.57	1716.20
603.76	1746.92
603.95	1789.92
604.14	1697.77
604.34	1691.62
604.53	1791.97
604.72	1691.62
604.91	1765.35
605.10	1837.03
605.30	1726.44
605.49	1853.41
605.68	1763.30
605.87	1714.15
606.07	1636.33
606.26	1757.16
606.45	1701.86
606.64	1726.44
606.84	1650.66
607.03	1638.38
607.22	1789.92
607.41	1763.30
607.60	1667.05
607.80	1785.83
607.99	1634.28
608.18	1761.25
608.37	1830.88
608.56	1710.05
608.76	1822.69
608.95	1734.63
609.14	1775.59
609.33	1730.53
609.52	1820.64
609.72	1783.78
609.91	1798.12
610.10	1785.83
610.29	1845.22
610.48	1779.68
610.68	1705.96
610.87	1767.40
611.06	1812.45
611.25	1744.87
611.44	1789.92
611.63	1781.73
611.83	1755.11
612.02	1691.62
612.21	1888.23
612.40	1755.11
612.59	1619.94
612.79	1763.30
612.98	1732.58
613.17	1855.46
613.36	1736.68
613.55	1783.78
613.74	1691.62
613.93	1712.10
614.13	1775.59
614.32	1812.45
614.51	1695.72
614.70	1744.87
614.89	1658.85
615.08	1718.25
615.28	2101.22
615.47	1634.28
615.66	1699.81
615.85	1802.21
616.04	1746.92
616.23	1746.92
616.42	1724.39
616.62	1740.77
616.81	1728.49
617.00	1755.11
617.19	1691.62
617.38	1708.01
617.57	1828.84
617.76	1775.59
617.95	1718.25
618.15	1806.31
618.34	1767.40
618.53	1755.11
618.72	1791.97
618.91	1865.70
619.10	1832.93
619.29	1710.05
619.48	1691.62
619.68	1691.62
619.87	1742.82
620.06	1677.29
620.25	1738.73
620.44	1748.97
620.63	1800.16
620.82	1705.96
621.01	1720.29
621.20	1748.97
621.39	1769.44
621.59	1701.86
621.78	1685.48
621.97	1697.77
622.16	1689.57
622.35	1779.68
622.54	1724.39
622.73	1722.34
622.92	1681.38
623.11	1773.54
623.30	1777.64
623.49	1787.88
623.68	1656.81
623.88	1853.41
624.07	1763.30
624.26	1722.34
624.45	1732.58
624.64	1673.19
624.83	1691.62
625.02	1677.29
625.21	1726.44
625.40	1742.82
625.59	1820.64
625.78	1669.09
625.97	1781.73
626.16	1794.02
626.35	1796.07
626.54	1759.21
626.74	1841.12
626.93	1763.30
627.12	1744.87
627.31	1789.92
627.50	1777.64
627.69	1779.68
627.88	1714.15
628.07	1673.19
628.26	1619.94
628.45	1665.00
628.64	1693.67
628.83	1722.34
629.02	1652.71
629.21	1736.68
629.40	1617.90
629.59	1665.00
629.78	1716.20
629.97	1742.82
630.16	1714.15
630.35	1736.68
630.54	1812.45
630.73	1669.09
630.92	1775.59
631.11	1765.35
631.30	1726.44
631.49	1724.39
631.68	1689.57
631.87	1761.25
632.06	1640.42
632.25	1880.04
632.44	1853.41
632.63	1777.64
632.82	1675.24
633.01	1718.25
633.20	1734.63
633.39	1650.66
633.58	1685.48
633.77	1748.97
633.96	1742.82
634.15	1730.53
634.34	1685.48
634.53	1736.68
634.72	1701.86
634.91	1748.97
635.10	1708.01
635.29	1773.54
635.48	1773.54
635.67	1693.67
635.86	1673.19
636.05	1779.68
636.24	1658.85
636.43	1755.11
636.62	1708.01
636.81	1609.70
637.00	1753.06
637.19	1730.53
637.38	1773.54
637.57	1638.38
637.76	1697.77
637.95	1679.33
638.14	1669.09
638.33	1705.96
638.52	1656.81
638.71	1650.66
638.89	1673.19
639.08	1884.13
639.27	1773.54
639.46	1728.49
639.65	1914.85
639.84	1800.16
640.03	1812.45
640.22	1751.01
640.41	1843.17
640.60	1648.61
640.79	1779.68
640.98	1695.72
641.17	1769.44
641.36	1751.01
641.55	1748.97
641.74	1642.47
641.92	1689.57
642.11	1681.38
642.30	1767.40
642.49	1742.82
642.68	1656.81
642.87	1759.21
643.06	1806.31
643.25	1746.92
643.44	1720.29
643.63	1771.49
643.82	1812.45
644.00	1697.77
644.19	1794.02
644.38	1746.92
644.57	1830.88
644.76	1748.97
644.95	1796.07
645.14	1705.96
645.33	1681.38
645.52	1763.30
645.71	1636.33
645.89	1646.57
646.08	1734.63
646.27	1697.77
646.46	1830.88
646.65	1595.37
646.84	1742.82
647.03	1628.14
647.22	1855.46
647.40	1689.57
647.59	1746.92
647.78	1601.51
647.97	1626.09
648.16	1697.77
648.35	1765.35
648.54	1800.16
648.73	1681.38
648.91	1718.25
649.10	1765.35
649.29	1701.86
649.48	1677.29
649.67	1748.97
649.86	1748.97
650.05	1687.53
650.23	1703.91
650.42	1718.25
650.61	1734.63
650.80	1814.50
650.99	1816.55
651.18	1810.40
651.36	1804.26
651.55	1648.61
651.74	1708.01
651.93	1701.86
652.12	1722.34
652.31	1689.57
652.49	1789.92
652.68	1638.38
652.87	1748.97
653.06	1779.68
653.25	1830.88
653.44	1714.15
653.62	1726.44
653.81	1701.86
654.00	1806.31
654.19	1685.48
654.38	1898.47
654.56	1699.81
654.75	1728.49
654.94	1822.69
655.13	1705.96
655.32	1730.53
655.51	1804.26
655.69	1724.39
655.88	1757.16
656.07	1665.00
656.26	1822.69
656.45	1615.85
656.63	1683.43
656.82	1796.07
657.01	1763.30
657.20	1640.42
657.38	1798.12
657.57	1722.34
657.76	1650.66
657.95	1701.86
658.14	1730.53
658.32	1669.09
658.51	1628.14
658.70	1767.40
658.89	1736.68
659.08	1744.87
659.26	1789.92
659.45	1677.29
659.64	1798.12
659.83	1736.68
660.01	1933.28
660.20	1769.44
660.39	1779.68
660.58	1665.00
660.76	1763.30
660.95	1621.99
661.14	1757.16
661.33	1632.23
661.51	1712.10
661.70	1681.38
661.89	1812.45
662.08	1724.39
662.26	1626.09
662.45	1660.90
662.64	1843.17
662.83	1748.97
663.01	1671.14
663.20	1671.14
663.39	1816.55
663.58	1720.29
663.76	1755.11
663.95	1701.86
664.14	1634.28
664.32	1697.77
664.51	1634.28
664.70	1701.86
664.89	1771.49
665.07	1693.67
665.26	1816.55
665.45	1732.58
665.64	1828.84
665.82	1761.25
666.01	1708.01
666.20	1671.14
666.38	1828.84
666.57	1755.11
666.76	2246.62
666.95	4628.41
667.13	10422.11
667.32	15453.97
667.51	17807.09
667.69	19121.88
667.88	17735.41
668.07	12263.24
668.25	9467.76
668.44	8019.85
668.63	7366.54
668.81	6879.13
669.00	6330.27
669.19	5791.66
669.38	5013.43
669.56	4513.72
669.75	4059.07
669.94	3395.53
670.12	2803.67
670.31	2510.81
670.50	2285.53
670.68	2101.22
670.87	1961.95
671.06	1830.88
671.24	1857.51
671.43	1830.88
671.62	1785.83
671.80	1677.29
671.99	1765.35
672.18	1765.35
672.36	1769.44
672.55	1738.73
672.74	1687.53
672.92	1687.53
673.11	1746.92
673.29	1660.90
673.48	1728.49
673.67	1716.20
673.85	1714.15
674.04	1734.63
674.23	1746.92
674.41	1837.03
674.60	1595.37
674.79	1662.95
674.97	1681.38
675.16	1791.97
675.34	1853.41
675.53	1650.66
675.72	1742.82
675.90	1802.21
676.09	1755.11
676.28	1773.54
676.46	1646.57
676.65	1761.25
676.83	1697.77
677.02	1642.47
677.21	1783.78
677.39	1777.64
677.58	1644.52
677.77	1671.14
677.95	1677.29
678.14	1675.24
678.32	1628.14
678.51	1675.24
678.70	1865.70
678.88	1724.39
679.07	1753.06
679.25	1806.31
679.44	1683.43
679.63	1697.77
679.81	1681.38
680.00	1791.97
680.18	1689.57
680.37	1787.88
680.55	1644.52
680.74	1619.94
680.93	1589.22
681.11	1740.77
681.30	1789.92
681.48	1736.68
681.67	1644.52
681.85	1689.57
682.04	1644.52
682.23	1740.77
682.41	1730.53
682.60	1665.00
682.78	1693.67
682.97	1689.57
683.15	1755.11
683.34	1730.53
683.53	1798.12
683.71	1697.77
683.90	1812.45
684.08	1808.36
684.27	1697.77
684.45	1656.81
684.64	1757.16
684.82	1705.96
685.01	1736.68
685.19	1683.43
685.38	1834.98
685.57	1724.39
685.75	1687.53
685.94	1671.14
686.12	1705.96
686.31	1705.96
686.49	1773.54
686.68	1669.09
686.86	1742.82
687.05	1724.39
687.23	1730.53
687.42	1681.38
687.60	1718.25
687.79	1785.83
687.97	1773.54
688.16	1875.94
688.34	1849.32
688.53	1662.95
688.71	1759.21
688.90	1765.35
689.08	1742.82
689.27	1656.81
689.45	1748.97
689.64	1751.01
689.82	1763.30
690.01	1824.74
690.19	1796.07
690.38	1753.06
690.56	1789.92
690.75	1675.24
690.93	1634.28
691.12	1767.40
691.30	1714.15
691.49	1669.09
691.67	1636.33
691.86	1751.01
692.04	1703.91
692.23	1728.49
692.41	1624.04
692.60	1853.41
692.78	1730.53
692.97	1714.15
693.15	1779.68
693.34	1775.59
693.52	1841.12
693.71	1685.48
693.89	1699.81
694.08	1630.18
694.26	1689.57
694.44	1791.97
694.63	1722.34
694.81	1687.53
695.00	1734.63
695.18	1890.28
695.37	1843.17
695.55	1773.54
695.74	1783.78
695.92	1728.49
696.10	1783.78
696.29	1714.15
696.47	1654.76
696.66	1671.14
696.84	1683.43
697.03	1708.01
697.21	1877.99
697.40	2303.96
697.58	1839.08
697.76	1720.29
697.95	1708.01
698.13	1697.77
698.32	1638.38
698.50	1710.05
698.68	1765.35
698.87	1724.39
699.05	1873.89
699.24	1751.01
699.42	1595.37
699.61	1732.58
699.79	1763.30
699.97	1771.49
700.16	1636.33
700.34	1624.04
700.53	1718.25
700.71	1783.78
700.89	1734.63
701.08	1740.77
701.26	1748.97
701.45	2138.08
701.63	1738.73
701.81	1728.49
702.00	1697.77
702.18	1650.66
702.37	1716.20
702.55	1708.01
702.73	1677.29
702.92	1628.14
703.10	1767.40
703.28	1730.53
703.47	1714.15
703.65	1781.73
703.84	1828.84
704.02	1646.57
704.20	1865.70
704.39	1710.05
704.57	1771.49
704.75	1798.12
704.94	1736.68
705.12	1775.59
705.30	1861.60
705.49	2265.05
705.67	4446.14
705.86	9385.84
706.04	12576.58
706.22	14483.24
706.41	15277.85
706.59	13907.76
706.77	9424.75
706.96	7350.16
707.14	6565.79
707.32	5992.36
707.51	5574.57
707.69	4915.12
707.87	4251.58
708.06	3452.88
708.24	2983.89
708.42	2408.41
708.61	2195.42
708.79	1855.46
708.97	1906.66
709.16	1847.27
709.34	1705.96
709.52	1759.21
709.71	1759.21
709.89	1724.39
710.07	1693.67
710.26	1656.81
710.44	1701.86
710.62	1824.74
710.80	1718.25
710.99	1832.93
711.17	1806.31
711.35	1640.42
711.54	1665.00
711.72	1751.01
711.90	1830.88
712.09	1759.21
712.27	1714.15
712.45	1720.29
712.63	1662.95
712.82	1748.97
713.00	1724.39
713.18	1755.11
713.37	1755.11
713.55	1779.68
713.73	1712.10
713.91	1791.97
714.10	1697.77
714.28	1691.62
714.46	1748.97
714.65	1652.71
714.83	1691.62
715.01	1708.01
715.19	1689.57
715.38	1708.01
715.56	1789.92
715.74	1730.53
715.92	1644.52
716.11	1759.21
716.29	1611.75
716.47	1634.28
716.65	1646.57
716.84	1544.17
717.02	1798.12
717.20	1628.14
717.38	1673.19
717.57	1765.35
717.75	1800.16
717.93	1687.53
718.11	1744.87
718.30	1703.91
718.48	1759.21
718.66	1697.77
718.84	1806.31
719.03	1769.44
719.21	1689.57
719.39	1832.93
719.57	1779.68
719.75	1841.12
719.94	1742.82
720.12	1712.10
720.30	1798.12
720.48	1728.49
720.67	1646.57
720.85	1677.29
721.03	1708.01
721.21	1705.96
721.39	1748.97
721.58	1699.81
721.76	1724.39
721.94	1775.59
722.12	1665.00
722.30	1808.36
722.49	1708.01
722.67	1708.01
722.85	1753.06
723.03	1636.33
723.21	1705.96
723.40	1757.16
723.58	1753.06
723.76	1767.40
723.94	1728.49
724.12	1697.77
724.30	1841.12
724.49	1728.49
724.67	1677.29
724.85	1767.40
725.03	1693.67
725.21	1755.11
725.40	1804.26
725.58	1673.19
725.76	1832.93
725.94	1738.73
726.12	1636.33
726.30	1693.67
726.49	1757.16
726.67	1673.19
726.85	1767.40
727.03	1812.45
727.21	2162.66
727.39	2877.40
727.57	3729.35
727.76	4265.92
727.94	4485.05
728.12	4310.97
728.30	3667.91
728.48	2865.11
728.66	2748.37
728.84	2611.16
729.03	2336.73
729.21	2168.80
729.39	1982.43
729.57	1775.59
729.75	1826.79
729.93	1849.32
730.11	1783.78
730.30	1703.91
730.48	1660.90
730.66	1859.56
730.84	1773.54
731.02	1800.16
731.20	1691.62
731.38	1726.44
731.56	1665.00
731.74	1718.25
731.93	1724.39
732.11	1738.73
732.29	1716.20
732.47	1769.44
732.65	1740.77
732.83	1806.31
733.01	1751.01
733.19	1628.14
733.37	1785.83
733.56	1728.49
733.74	1714.15
733.92	1818.60
734.10	1746.92
734.28	1732.58
734.46	1566.70
734.64	1714.15
734.82	1693.67
735.00	1689.57
735.18	1669.09
735.36	1710.05
735.54	1699.81
735.73	1722.34
735.91	1761.25
736.09	1693.67
736.27	1656.81
736.45	1716.20
736.63	1648.61
736.81	1644.52
736.99	1816.55
737.17	1771.49
737.35	1689.57
737.53	1710.05
737.71	1673.19
737.89	1843.17
738.07	1722.34
738.25	1722.34
738.43	1601.51
738.61	1681.38
738.80	1607.66
738.98	1585.13
739.16	1736.68
739.34	1601.51
739.52	1728.49
739.70	1738.73
739.88	1697.77
740.06	1800.16
740.24	1665.00
740.42	1718.25
740.60	1613.80
740.78	1679.33
740.96	1669.09
741.14	1648.61
741.32	1714.15
741.50	1648.61
741.68	1865.70
741.86	1755.11
742.04	1714.15
742.22	1708.01
742.40	1767.40
742.58	1718.25
742.76	1705.96
742.94	1791.97
743.12	1607.66
743.30	1669.09
743.48	1783.78
743.66	1601.51
743.84	1742.82
744.02	1662.95
744.20	1628.14
744.38	1681.38
744.56	1644.52
744.74	1777.64
744.92	1757.16
745.10	1740.77
745.28	1800.16
745.46	1808.36
745.64	1681.38
745.82	1746.92
746.00	1742.82
746.18	1679.33
746.36	1710.05
746.54	1693.67
746.72	1708.01
746.90	1667.05
747.08	1767.40
747.26	1685.48
747.44	1796.07
747.62	1734.63
747.80	1742.82
747.98	1759.21
748.15	1679.33
748.33	1834.98
748.51	1660.90
748.69	1783.78
748.87	1681.38
749.05	1724.39
749.23	1648.61
749.41	1783.78
749.59	1699.81
749.77	1710.05
749.95	1671.14
750.13	1673.19
750.31	1779.68
750.49	1738.73
750.67	1789.92
750.85	1730.53
751.03	1689.57
751.20	1738.73
751.38	1683.43
751.56	1730.53
751.74	1705.96
751.92	1703.91
752.10	1679.33
752.28	1724.39
752.46	1693.67
752.64	1800.16
752.82	1708.01
753.00	1744.87
753.18	1671.14
753.35	1732.58
753.53	1714.15
753.71	1619.94
753.89	1685.48
754.07	1667.05
754.25	1785.83
754.43	1634.28
754.61	1673.19
754.79	1755.11
754.97	1693.67
755.14	1810.40
755.32	1736.68
755.50	1689.57
755.68	1710.05
755.86	1673.19
756.04	1691.62
756.22	1576.94
756.40	1708.01
756.57	1853.41
756.75	1736.68
756.93	1765.35
757.11	1718.25
757.29	1669.09
757.47	1611.75
757.65	1601.51
757.82	1660.90
758.00	1667.05
758.18	1710.05
758.36	1734.63
758.54	1804.26
758.72	1601.51
758.90	1761.25
759.07	1660.90
759.25	1667.05
759.43	1746.92
759.61	1607.66
759.79	2197.47
759.97	1751.01
760.15	1763.30
760.32	1720.29
760.50	1708.01
760.68	1853.41
760.86	1673.19
761.04	1783.78
761.22	1746.92
761.39	1775.59
761.57	1712.10
761.75	1642.47
761.93	1691.62
762.11	1675.24
762.28	1796.07
762.46	1677.29
762.64	1691.62
762.82	1609.70
763.00	1763.30
763.18	1771.49
763.35	1667.05
763.53	1769.44
763.71	1728.49
763.89	1710.05
764.07	1755.11
764.24	1714.15
764.42	1732.58
764.60	1671.14
764.78	1779.68
764.96	1658.85
765.13	1746.92
765.31	1738.73
765.49	1763.30
765.67	1689.57
765.84	1652.71
766.02	1683.43
766.20	1605.61
766.38	1796.07
766.56	1777.64
766.73	1847.27
766.91	1675.24
767.09	1796.07
767.27	1746.92
767.44	1591.27
767.62	1769.44
767.80	1734.63
767.98	1611.75
768.15	1730.53
768.33	1757.16
768.51	1796.07
768.69	1705.96
768.87	1724.39
769.04	1722.34
769.22	1888.23
769.40	1880.04
769.58	1839.08
769.75	1814.50
769.93	1753.06
770.11	1734.63
770.28	1687.53
770.46	1732.58
770.64	1761.25
770.82	1724.39
770.99	1689.57
771.17	1755.11
771.35	1722.34
771.53	1642.47
771.70	1656.81
771.88	1753.06
772.06	1718.25
772.23	1595.37
772.41	1660.90
772.59	1714.15
772.77	1644.52
772.94	1669.09
773.12	1728.49
773.30	1693.67
773.47	1665.00
773.65	1681.38
773.83	1789.92
774.01	1683.43
774.18	1632.23
774.36	1699.81
774.54	1615.85
774.71	1738.73
774.89	1667.05
775.07	1607.66
775.24	1693.67
775.42	1683.43
775.60	1748.97
775.78	1689.57
775.95	1685.48
776.13	1611.75
776.31	1587.18
776.48	1628.14
776.66	1830.88
776.84	1689.57
777.01	1665.00
777.19	1599.46
777.37	1693.67
777.54	1822.69
777.72	1818.60
777.90	1718.25
778.07	1691.62
778.25	1834.98
778.43	1791.97
778.60	1656.81
778.78	1755.11
778.96	1806.31
779.13	1681.38
779.31	1773.54
779.49	1708.01
779.66	1703.91
779.84	1642.47
780.01	1699.81
780.19	1662.95
780.37	1791.97
780.54	1771.49
780.72	1648.61
780.90	1705.96
781.07	1714.15
781.25	1714.15
781.43	1738.73
781.60	1677.29
781.78	1828.84
781.95	1730.53
782.13	1697.77
782.31	1685.48
782.48	1540.07
782.66	1652.71
782.83	1875.94
783.01	1742.82
783.19	1734.63
783.36	1712.10
783.54	1607.66
783.72	1740.77
783.89	1681.38
784.07	1652.71
784.24	1738.73
784.42	1779.68
784.60	1796.07
784.77	1789.92
784.95	1609.70
785.12	1681.38
785.30	1804.26
785.47	1701.86
785.65	1699.81
785.83	1734.63
786.00	1695.72
786.18	1742.82
786.35	1599.46
786.53	1652.71
786.71	1779.68
786.88	1730.53
787.06	1757.16
787.23	1765.35
787.41	1656.81
787.58	1669.09
787.76	1595.37
787.94	1712.10
788.11	1685.48
788.29	1689.57
788.46	1654.76
788.64	1621.99
788.81	1730.53
788.99	1644.52
789.16	1658.85
789.34	1697.77
789.52	1691.62
789.69	1720.29
789.87	1550.31
790.04	1705.96
790.22	1669.09
790.39	1812.45
790.57	1687.53
790.74	1691.62
790.92	1714.15
791.09	1673.19
791.27	1644.52
791.44	1769.44
791.62	1787.88
791.79	1832.93
791.97	1681.38
792.15	1875.94
792.32	1724.39
792.50	1779.68
792.67	1873.89
792.85	1757.16
793.02	1753.06
793.20	1697.77
793.37	1591.27
793.55	1767.40
793.72	1665.00
793.90	1724.39
794.07	1705.96
794.25	1677.29
794.42	1671.14
794.60	1685.48
794.77	1791.97
794.95	1785.83
795.12	1845.22
795.30	1705.96
795.47	1605.61
795.65	1910.75
795.82	1728.49
796.00	1679.33
796.17	1742.82
796.34	1742.82
796.52	1708.01
796.69	1794.02
796.87	1732.58
797.04	1654.76
797.22	1710.05
797.39	1810.40
797.57	1800.16
797.74	1677.29
797.92	1755.11
798.09	1677.29
798.27	1857.51
798.44	1763.30
798.62	1636.33
798.79	1738.73
798.96	1726.44
799.14	1748.97
799.31	1757.16
799.49	1671.14
799.66	1693.67
799.84	1673.19
800.01	1656.81
800.19	1730.53
800.36	1636.33
800.53	1767.40
800.71	1718.25
800.88	1800.16
801.06	1642.47
801.23	1738.73
801.41	1744.87
801.58	1587.18
801.75	1656.81
801.93	1728.49
802.10	1681.38
802.28	1638.38
802.45	1626.09
802.63	1753.06
802.80	1757.16
802.97	1693.67
803.15	1662.95
803.32	1693.67
803.50	1660.90
803.67	1652.71
803.84	1683.43
804.02	1742.82
804.19	1675.24
804.37	1640.42
804.54	1679.33
804.71	1685.48
804.89	1685.48
805.06	1644.52
805.24	1613.80
805.41	1732.58
805.58	1652.71
805.76	1779.68
805.93	1724.39
806.10	1794.02
806.28	1816.55
806.45	1714.15
806.63	1746.92
806.80	1789.92
806.97	1767.40
807.15	1730.53
807.32	1656.81
807.49	1757.16
807.67	1619.94
807.84	1665.00
808.01	1712.10
808.19	1802.21
808.36	1834.98
808.54	1683.43
808.71	1695.72
808.88	1697.77
809.06	1667.05
809.23	1753.06
809.40	1644.52
809.58	1828.84
809.75	1773.54
809.92	1665.00
810.10	1900.52
810.27	1679.33
810.44	1730.53
810.62	1732.58
810.79	1705.96
810.96	1603.56
811.14	1636.33
811.31	1763.30
811.48	1798.12
811.66	1697.77
811.83	1757.16
812.00	1769.44
812.18	1767.40
812.35	1783.78
812.52	1628.14
812.69	1730.53
812.87	1701.86
813.04	1673.19
813.21	1681.38
813.39	1705.96
813.56	1591.27
813.73	1781.73
813.91	1626.09
814.08	1765.35
814.25	1628.14
814.42	1652.71
814.60	1669.09
814.77	1699.81
814.94	1724.39
815.12	1734.63
815.29	1718.25
815.46	1624.04
815.63	1824.74
815.81	1740.77
815.98	1685.48
816.15	1730.53
816.33	1808.36
816.50	1722.34
816.67	1818.60
816.84	1667.05
817.02	1628.14
817.19	1751.01
817.36	1701.86
817.53	1720.29
817.71	1621.99
817.88	1789.92
818.05	1665.00
818.22	1697.77
818.40	1888.23
818.57	1724.39
818.74	1675.24
818.91	1732.58
819.09	1759.21
819.26	1769.44
819.43	1681.38
819.60	1626.09
819.78	1753.06
819.95	1882.08
820.12	1720.29
820.29	1808.36
820.47	1746.92
820.64	1763.30
820.81	1644.52
820.98	1699.81
821.15	1767.40
821.33	1724.39
821.50	1662.95
821.67	1789.92
821.84	1736.68
822.02	1796.07
822.19	1708.01
822.36	1708.01
822.53	1755.11
822.70	1638.38
822.88	1660.90
823.05	1730.53
823.22	1701.86
823.39	1751.01
823.56	1769.44
823.74	1789.92
823.91	1687.53
824.08	1710.05
824.25	1638.38
824.42	1783.78
824.60	1626.09
824.77	1732.58
824.94	1746.92
825.11	1791.97
825.28	1681.38
825.45	1736.68
825.63	1685.48
825.80	1632.23
825.97	1648.61
826.14	1708.01
826.31	1642.47
826.48	1710.05
826.66	1660.90
826.83	1673.19
827.00	1634.28
827.17	1632.23
827.34	1746.92
827.51	1685.48
827.69	1748.97
827.86	1652.71
828.03	1673.19
828.20	1728.49
828.37	1652.71
828.54	1732.58
828.71	1722.34
828.89	1861.60
829.06	1703.91
829.23	1841.12
829.40	1671.14
829.57	1740.77
829.74	1689.57
829.91	1726.44
830.09	1710.05
830.26	1771.49
830.43	1783.78
830.60	1748.97
830.77	1687.53
830.94	1738.73
831.11	1746.92
831.28	1701.86
831.46	1841.12
831.63	1720.29
831.80	1720.29
831.97	1617.90
832.14	1714.15
832.31	1855.46
832.48	1705.96
832.65	1767.40
832.82	1716.20
832.99	1660.90
833.17	1695.72
833.34	1755.11
833.51	1748.97
833.68	1632.23
833.85	1818.60
834.02	1642.47
834.19	1619.94
834.36	1687.53
834.53	1615.85
834.70	1796.07
834.87	1740.77
835.04	1771.49
835.22	1665.00
835.39	1665.00
835.56	1714.15
835.73	1662.95
835.90	1650.66
836.07	1667.05
836.24	1761.25
836.41	1581.03
836.58	1646.57
836.75	1705.96
836.92	1746.92
837.09	1714.15
837.26	1755.11
837.43	1779.68
837.60	1734.63
837.77	1722.34
837.94	1828.84
838.12	1791.97
838.29	1751.01
838.46	1591.27
838.63	1652.71
838.80	1818.60
838.97	1740.77
839.14	1759.21
839.31	1701.86
839.48	1701.86
839.65	1669.09
839.82	1679.33
839.99	1705.96
840.16	1742.82
840.33	1705.96
840.50	1767.40
840.67	1630.18
840.84	1566.70
841.01	1722.34
841.18	1671.14
841.35	1705.96
841.52	1697.77
841.69	1861.60
841.86	1730.53
842.03	1734.63
842.20	1791.97
842.37	1693.67
842.54	1757.16
842.71	1730.53
842.88	1746.92
843.05	1857.51
843.22	1693.67
843.39	1722.34
843.56	1673.19
843.73	1642.47
843.90	1736.68
844.07	1708.01
844.24	1710.05
844.41	1808.36
844.58	1765.35
844.75	1755.11
844.92	1783.78
845.09	1689.57
845.26	1599.46
845.43	1746.92
845.60	1716.20
845.77	1720.29
845.94	1765.35
846.10	1796.07
846.27	1658.85
846.44	1673.19
846.61	1636.33
846.78	1785.83
846.95	1722.34
847.12	1748.97
847.29	1757.16
847.46	1730.53
847.63	1798.12
847.80	1740.77
847.97	1718.25
848.14	1867.75
848.31	1794.02
848.48	1656.81
848.65	1703.91
848.82	1703.91
848.98	1775.59
849.15	1722.34
849.32	1738.73
849.49	1763.30
849.66	1621.99
849.83	1744.87
850.00	1671.14
850.17	1703.91
850.34	1740.77
850.51	1701.86
850.68	1714.15
850.85	1873.89
851.01	1742.82
851.18	1685.48
851.35	1705.96
851.52	1720.29
851.69	1857.51
851.86	1593.32
852.03	1685.48
852.20	1789.92
852.37	1767.40
852.53	1595.37
852.70	1730.53
852.87	1781.73
853.04	1773.54
853.21	1701.86
853.38	1755.11
853.55	1845.22
853.72	1869.80
853.89	1693.67
854.05	1683.43
854.22	1660.90
854.39	1689.57
854.56	1810.40
854.73	1798.12
854.90	1656.81
855.07	1685.48
855.23	1677.29
855.40	1589.22
855.57	1687.53
855.74	1601.51
855.91	1886.18
856.08	1595.37
856.25	1640.42
856.41	1695.72
856.58	1679.33
856.75	1714.15
856.92	1695.72
857.09	1771.49
857.26	1621.99
857.42	1667.05
857.59	1759.21
857.76	1701.86
857.93	1732.58
858.10	1689.57
858.27	1667.05
858.43	1697.77
858.60	1697.77
858.77	1665.00
858.94	1671.14
859.11	1748.97
859.27	1712.10
859.44	1701.86
859.61	1816.55
859.78	1705.96
859.95	1710.05
860.12	1683.43
860.28	1777.64
860.45	1769.44
860.62	1648.61
860.79	1732.58
860.95	1699.81
861.12	1734.63
861.29	1722.34
861.46	1689.57
861.63	1660.90
861.79	1734.63
861.96	1619.94
862.13	1765.35
862.30	1765.35
862.47	1660.90
862.63	1648.61
862.80	1732.58
862.97	1789.92
863.14	1740.77
863.30	1771.49
863.47	1660.90
863.64	1759.21
863.81	1751.01
863.97	1701.86
864.14	1779.68
864.31	1677.29
864.48	1732.58
864.65	1699.81
864.81	1871.84
864.98	1716.20
865.15	1708.01
865.32	1759.21
865.48	1763.30
865.65	1765.35
865.82	1740.77
865.98	1753.06
866.15	1738.73
866.32	1677.29
866.49	1656.81
866.65	1810.40
866.82	1650.66
866.99	1738.73
867.16	1689.57
867.32	1660.90
867.49	1693.67
867.66	1724.39
867.83	1656.81
867.99	1648.61
868.16	1669.09
868.33	1660.90
868.49	1783.78
868.66	1734.63
868.83	1769.44
868.99	1703.91
869.16	1720.29
869.33	1773.54
869.50	1763.30
869.66	1724.39
869.83	1703.91
870.00	1665.00
870.16	1720.29
870.33	1753.06
870.50	1783.78
870.66	1732.58
870.83	1822.69
871.00	1669.09
871.17	1722.34
871.33	1771.49
871.50	1736.68
871.67	1648.61
871.83	1626.09
872.00	1773.54
872.17	1640.42
872.33	1765.35
872.50	1757.16
872.67	1722.34
872.83	1660.90
873.00	1710.05
873.17	1712.10
873.33	1771.49
873.50	1746.92
873.67	1656.81
873.83	1693.67
874.00	1767.40
874.16	1802.21
874.33	1740.77
874.50	1636.33
874.66	1779.68
874.83	1701.86
875.00	1755.11
875.16	1757.16
875.33	1753.06
875.50	1632.23
875.66	1714.15
875.83	1673.19
875.99	1794.02
876.16	1734.63
876.33	1697.77
876.49	1751.01
876.66	1701.86
876.83	1652.71
876.99	1648.61
877.16	1681.38
877.32	1708.01
877.49	1689.57
877.66	1773.54
877.82	1822.69
877.99	1779.68
878.15	1810.40
878.32	1693.67
878.49	1753.06
878.65	1654.76
878.82	1705.96
878.98	1701.86
879.15	1736.68
879.32	1705.96
879.48	1689.57
879.65	1697.77
879.81	1732.58
879.98	1689.57
880.15	1716.20
880.31	1685.48
880.48	1728.49
880.64	1806.31
880.81	1705.96
880.97	1806.31
881.14	1771.49
881.31	1642.47
881.47	1873.89
881.64	1671.14
881.80	1638.38
881.97	1675.24
882.13	1724.39
882.30	1638.38
882.47	1642.47
882.63	1685.48
882.80	1697.77
882.96	1650.66
883.13	1841.12
883.29	1695.72
883.46	1783.78
883.62	1839.08
883.79	1767.40
883.95	1720.29
884.12	1730.53
884.29	1822.69
884.45	1669.09
884.62	1703.91
884.78	1669.09
884.95	1769.44
885.11	1669.09
885.28	1767.40
885.44	1689.57
885.61	1744.87
885.77	1810.40
885.94	1685.48
886.10	1722.34
886.27	1763.30
886.43	1800.16
886.60	1728.49
886.76	1644.52
886.93	1660.90
887.09	1658.85
887.26	1673.19
887.42	1767.40
887.59	1724.39
887.75	1810.40
887.92	1794.02
888.08	1798.12
888.25	1779.68
888.41	1738.73
888.58	1724.39
888.74	1687.53
888.91	1685.48
>>>>>End Processed Spectral Data<<<<<
