SpectraSuite Data File
++++++++++++++++++++++++++++++++++++
Date: Mon Jun 06 14:31:57 CEST 2016
User: root
Dark Spectrum Present: No
Reference Spectrum Present: No
Number of Sampled Component Spectra: 1
Spectrometers: USB4C02835
Integration Time (usec): 100000 (USB4C02835)
Spectra Averaged: 1 (USB4C02835)
Boxcar Smoothing: 0 (USB4C02835)
Correct for Electrical Dark: No (USB4C02835)
Strobe/Lamp Enabled: No (USB4C02835)
Correct for Detector Non-linearity: No (USB4C02835)
Correct for Stray Light: No (USB4C02835)
Number of Pixels in Processed Spectrum: 3648
>>>>>Begin Processed Spectral Data<<<<<
177.47	1460.20
177.69	1460.20
177.91	1460.20
178.13	1480.68
178.36	1458.15
178.58	1675.24
178.80	1689.57
179.02	1730.53
179.24	1611.75
179.46	1724.39
179.68	1804.26
179.90	1662.95
180.13	1703.91
180.35	1697.77
180.57	1683.43
180.79	1703.91
181.01	1705.96
181.23	1753.06
181.45	1785.83
181.67	1714.15
181.90	1759.21
182.12	1648.61
182.34	1607.66
182.56	1757.16
182.78	1726.44
183.00	1675.24
183.22	1753.06
183.44	1560.55
183.66	1832.93
183.89	1837.03
184.11	1683.43
184.33	1744.87
184.55	1759.21
184.77	1720.29
184.99	1732.58
185.21	1665.00
185.43	1824.74
185.65	1703.91
185.87	1685.48
186.10	1769.44
186.32	1877.99
186.54	1753.06
186.76	1726.44
186.98	1812.45
187.20	1734.63
187.42	1689.57
187.64	1642.47
187.86	1708.01
188.08	1714.15
188.30	1701.86
188.52	1671.14
188.75	1830.88
188.97	1789.92
189.19	1679.33
189.41	1654.76
189.63	1740.77
189.85	1736.68
190.07	1611.75
190.29	1681.38
190.51	1800.16
190.73	1578.98
190.95	1769.44
191.17	1742.82
191.39	1673.19
191.61	1736.68
191.84	1697.77
192.06	1640.42
192.28	1560.55
192.50	1896.42
192.72	1697.77
192.94	1679.33
193.16	1695.72
193.38	1701.86
193.60	1652.71
193.82	1697.77
194.04	1763.30
194.26	1681.38
194.48	1697.77
194.70	1708.01
194.92	1712.10
195.14	1734.63
195.36	1671.14
195.58	1695.72
195.80	1673.19
196.02	1640.42
196.24	1665.00
196.46	1705.96
196.69	1724.39
196.91	1884.13
197.13	1724.39
197.35	1642.47
197.57	1751.01
197.79	1769.44
198.01	1746.92
198.23	1685.48
198.45	1681.38
198.67	1671.14
198.89	1689.57
199.11	1757.16
199.33	1593.32
199.55	1583.08
199.77	1714.15
199.99	1720.29
200.21	1665.00
200.43	1730.53
200.65	1574.89
200.87	1542.12
201.09	1681.38
201.31	1615.85
201.53	1771.49
201.75	1708.01
201.97	1730.53
202.19	1751.01
202.41	1810.40
202.63	1812.45
202.85	1779.68
203.07	1783.78
203.29	1593.32
203.51	1699.81
203.73	1607.66
203.95	1880.04
204.17	1759.21
204.39	1699.81
204.61	1712.10
204.83	1685.48
205.05	1753.06
205.27	1662.95
205.49	1767.40
205.71	1658.85
205.93	1613.80
206.15	1712.10
206.37	1628.14
206.59	1591.27
206.81	1660.90
207.03	1613.80
207.25	1685.48
207.47	1667.05
207.69	1714.15
207.91	1755.11
208.13	1828.84
208.34	1689.57
208.56	1642.47
208.78	1763.30
209.00	1734.63
209.22	1679.33
209.44	1703.91
209.66	1665.00
209.88	1648.61
210.10	1691.62
210.32	1712.10
210.54	1714.15
210.76	1720.29
210.98	1697.77
211.20	1517.54
211.42	1652.71
211.64	1767.40
211.86	1710.05
212.08	1732.58
212.30	1669.09
212.52	1773.54
212.74	1697.77
212.96	1716.20
213.17	1656.81
213.39	1759.21
213.61	1781.73
213.83	1687.53
214.05	1607.66
214.27	1724.39
214.49	1638.38
214.71	1644.52
214.93	1724.39
215.15	1697.77
215.37	1710.05
215.59	1673.19
215.81	1779.68
216.03	1771.49
216.24	1779.68
216.46	1748.97
216.68	1624.04
216.90	1791.97
217.12	1771.49
217.34	1701.86
217.56	1714.15
217.78	1783.78
218.00	1697.77
218.22	1742.82
218.44	1677.29
218.66	1677.29
218.87	1812.45
219.09	1656.81
219.31	1720.29
219.53	1802.21
219.75	1679.33
219.97	1662.95
220.19	1828.84
220.41	1701.86
220.63	1830.88
220.85	1742.82
221.06	1681.38
221.28	1736.68
221.50	1722.34
221.72	1689.57
221.94	1738.73
222.16	1769.44
222.38	1767.40
222.60	1689.57
222.82	1761.25
223.03	1708.01
223.25	1611.75
223.47	1720.29
223.69	1832.93
223.91	1751.01
224.13	1685.48
224.35	1638.38
224.57	1726.44
224.78	1730.53
225.00	1660.90
225.22	1705.96
225.44	1748.97
225.66	1740.77
225.88	1640.42
226.10	1720.29
226.32	1699.81
226.53	1816.55
226.75	1652.71
226.97	1703.91
227.19	1697.77
227.41	1636.33
227.63	1708.01
227.85	1667.05
228.06	1742.82
228.28	1665.00
228.50	1730.53
228.72	1644.52
228.94	1650.66
229.16	1646.57
229.37	1726.44
229.59	1636.33
229.81	1779.68
230.03	1687.53
230.25	1681.38
230.47	1607.66
230.69	1648.61
230.90	1742.82
231.12	1632.23
231.34	1738.73
231.56	1830.88
231.78	1595.37
232.00	1763.30
232.21	1701.86
232.43	1695.72
232.65	1595.37
232.87	1759.21
233.09	1638.38
233.30	1687.53
233.52	1722.34
233.74	1757.16
233.96	1634.28
234.18	1652.71
234.40	1685.48
234.61	1841.12
234.83	1644.52
235.05	1724.39
235.27	1769.44
235.49	1763.30
235.70	1755.11
235.92	1751.01
236.14	1708.01
236.36	1830.88
236.58	1587.18
236.79	1652.71
237.01	1681.38
237.23	1669.09
237.45	1808.36
237.67	1736.68
237.88	1693.67
238.10	1834.98
238.32	1634.28
238.54	1693.67
238.76	1695.72
238.97	1689.57
239.19	1673.19
239.41	1736.68
239.63	1818.60
239.85	1714.15
240.06	1738.73
240.28	1701.86
240.50	1781.73
240.72	1763.30
240.93	1699.81
241.15	1828.84
241.37	1742.82
241.59	1718.25
241.81	1716.20
242.02	1724.39
242.24	1683.43
242.46	1791.97
242.68	1675.24
242.89	1722.34
243.11	1798.12
243.33	1683.43
243.55	1730.53
243.76	1728.49
243.98	1650.66
244.20	1740.77
244.42	1710.05
244.64	1728.49
244.85	1562.60
245.07	1644.52
245.29	1775.59
245.51	1708.01
245.72	1691.62
245.94	1796.07
246.16	1763.30
246.38	1740.77
246.59	1767.40
246.81	1695.72
247.03	1675.24
247.24	1654.76
247.46	1644.52
247.68	1722.34
247.90	1767.40
248.11	1660.90
248.33	1689.57
248.55	1740.77
248.77	1744.87
248.98	1724.39
249.20	1775.59
249.42	1699.81
249.64	1681.38
249.85	1638.38
250.07	1712.10
250.29	1697.77
250.50	1765.35
250.72	1658.85
250.94	1693.67
251.16	1732.58
251.37	1736.68
251.59	1679.33
251.81	1720.29
252.02	1763.30
252.24	1673.19
252.46	1738.73
252.68	1597.42
252.89	1654.76
253.11	1640.42
253.33	1744.87
253.54	1794.02
253.76	1724.39
253.98	1679.33
254.20	1734.63
254.41	1591.27
254.63	1724.39
254.85	1652.71
255.06	1724.39
255.28	1714.15
255.50	1634.28
255.71	1669.09
255.93	1634.28
256.15	1728.49
256.36	1685.48
256.58	1691.62
256.80	1724.39
257.02	1722.34
257.23	1652.71
257.45	1689.57
257.67	1714.15
257.88	1724.39
258.10	1757.16
258.32	1742.82
258.53	1705.96
258.75	1755.11
258.97	1697.77
259.18	1648.61
259.40	1714.15
259.62	1859.56
259.83	1771.49
260.05	1740.77
260.27	1986.53
260.48	1697.77
260.70	1648.61
260.92	1779.68
261.13	1697.77
261.35	1689.57
261.57	1695.72
261.78	1583.08
262.00	1673.19
262.22	1759.21
262.43	1718.25
262.65	1714.15
262.86	1638.38
263.08	1828.84
263.30	1697.77
263.51	1624.04
263.73	1685.48
263.95	1740.77
264.16	1689.57
264.38	1705.96
264.60	1722.34
264.81	1669.09
265.03	1753.06
265.25	1779.68
265.46	1689.57
265.68	1734.63
265.89	1710.05
266.11	1687.53
266.33	1779.68
266.54	1822.69
266.76	1695.72
266.98	1748.97
267.19	1816.55
267.41	1753.06
267.62	1708.01
267.84	1634.28
268.06	1783.78
268.27	1742.82
268.49	1759.21
268.70	1744.87
268.92	1705.96
269.14	1593.32
269.35	1574.89
269.57	1744.87
269.79	1650.66
270.00	1636.33
270.22	1771.49
270.43	1673.19
270.65	1656.81
270.87	1722.34
271.08	1806.31
271.30	1712.10
271.51	1773.54
271.73	1779.68
271.95	1814.50
272.16	1619.94
272.38	1710.05
272.59	1675.24
272.81	1763.30
273.02	1714.15
273.24	1708.01
273.46	1777.64
273.67	1648.61
273.89	1671.14
274.10	1650.66
274.32	1730.53
274.54	1746.92
274.75	1712.10
274.97	1642.47
275.18	1742.82
275.40	1755.11
275.61	1742.82
275.83	1701.86
276.05	1632.23
276.26	1746.92
276.48	1701.86
276.69	1658.85
276.91	1708.01
277.12	1787.88
277.34	1767.40
277.55	1740.77
277.77	1730.53
277.99	1705.96
278.20	1652.71
278.42	1632.23
278.63	1642.47
278.85	1681.38
279.06	1671.14
279.28	1710.05
279.49	1736.68
279.71	1726.44
279.93	1712.10
280.14	1642.47
280.36	1693.67
280.57	1759.21
280.79	1736.68
281.00	1626.09
281.22	1640.42
281.43	1812.45
281.65	1554.41
281.86	1583.08
282.08	1722.34
282.29	1708.01
282.51	1617.90
282.73	1681.38
282.94	1523.69
283.16	1714.15
283.37	1746.92
283.59	1708.01
283.80	1689.57
284.02	1693.67
284.23	1675.24
284.45	1718.25
284.66	1695.72
284.88	1665.00
285.09	1712.10
285.31	1736.68
285.52	1652.71
285.74	1630.18
285.95	1755.11
286.17	1730.53
286.38	1722.34
286.60	1716.20
286.81	1714.15
287.03	1656.81
287.24	1726.44
287.46	1681.38
287.67	1599.46
287.89	1845.22
288.10	1646.57
288.32	1705.96
288.53	1779.68
288.75	1712.10
288.96	1683.43
289.18	1603.56
289.39	1626.09
289.61	1681.38
289.82	1773.54
290.04	1828.84
290.25	1677.29
290.47	1691.62
290.68	1632.23
290.90	1765.35
291.11	1587.18
291.33	1693.67
291.54	1601.51
291.76	1718.25
291.97	1728.49
292.18	1705.96
292.40	1671.14
292.61	1599.46
292.83	1779.68
293.04	1732.58
293.26	1732.58
293.47	1646.57
293.69	1746.92
293.90	1800.16
294.12	1783.78
294.33	1708.01
294.55	1724.39
294.76	1660.90
294.97	1712.10
295.19	1857.51
295.40	1656.81
295.62	1777.64
295.83	1734.63
296.05	1650.66
296.26	1732.58
296.48	1650.66
296.69	1697.77
296.90	1658.85
297.12	1705.96
297.33	1798.12
297.55	1787.88
297.76	1740.77
297.98	1753.06
298.19	1646.57
298.41	1685.48
298.62	1583.08
298.83	1769.44
299.05	1751.01
299.26	1728.49
299.48	1591.27
299.69	1660.90
299.90	1718.25
300.12	1681.38
300.33	1751.01
300.55	1646.57
300.76	1767.40
300.98	1630.18
301.19	1667.05
301.40	1701.86
301.62	1640.42
301.83	1703.91
302.05	1726.44
302.26	1634.28
302.47	1691.62
302.69	1628.14
302.90	1693.67
303.12	1638.38
303.33	1730.53
303.54	1726.44
303.76	1611.75
303.97	1767.40
304.19	1726.44
304.40	1544.17
304.61	1730.53
304.83	1775.59
305.04	1712.10
305.26	1671.14
305.47	1652.71
305.68	1685.48
305.90	1599.46
306.11	1740.77
306.33	1675.24
306.54	1652.71
306.75	1714.15
306.97	1562.60
307.18	1734.63
307.39	1687.53
307.61	1718.25
307.82	1726.44
308.04	1761.25
308.25	1632.23
308.46	1804.26
308.68	1695.72
308.89	1738.73
309.10	1644.52
309.32	1726.44
309.53	1644.52
309.74	1718.25
309.96	1669.09
310.17	1751.01
310.39	1679.33
310.60	1763.30
310.81	1724.39
311.03	1658.85
311.24	1791.97
311.45	1626.09
311.67	1849.32
311.88	1724.39
312.09	1615.85
312.31	1603.56
312.52	1722.34
312.73	1705.96
312.95	1603.56
313.16	1691.62
313.37	1818.60
313.59	1652.71
313.80	1726.44
314.01	1789.92
314.23	1722.34
314.44	1656.81
314.65	1638.38
314.87	1574.89
315.08	1775.59
315.29	1716.20
315.51	1626.09
315.72	1695.72
315.93	1781.73
316.15	1757.16
316.36	1621.99
316.57	1724.39
316.79	1693.67
317.00	1734.63
317.21	1789.92
317.43	1626.09
317.64	1742.82
317.85	1564.65
318.07	1617.90
318.28	1710.05
318.49	1837.03
318.70	1902.56
318.92	1726.44
319.13	1771.49
319.34	1843.17
319.56	1837.03
319.77	1787.88
319.98	1816.55
320.20	1834.98
320.41	1710.05
320.62	1808.36
320.83	1705.96
321.05	1839.08
321.26	1675.24
321.47	1665.00
321.69	1712.10
321.90	1572.84
322.11	1654.76
322.32	1677.29
322.54	1732.58
322.75	1656.81
322.96	1781.73
323.18	1636.33
323.39	1568.74
323.60	1638.38
323.81	1791.97
324.03	1638.38
324.24	1705.96
324.45	1665.00
324.66	1736.68
324.88	1746.92
325.09	1712.10
325.30	1789.92
325.52	1748.97
325.73	1738.73
325.94	1693.67
326.15	1617.90
326.37	1665.00
326.58	1765.35
326.79	1734.63
327.00	1691.62
327.22	1685.48
327.43	1632.23
327.64	1662.95
327.85	1742.82
328.07	1722.34
328.28	1773.54
328.49	1638.38
328.70	1773.54
328.92	1671.14
329.13	1716.20
329.34	1689.57
329.55	1857.51
329.76	1775.59
329.98	1607.66
330.19	1763.30
330.40	1732.58
330.61	1677.29
330.83	1716.20
331.04	1720.29
331.25	1679.33
331.46	1628.14
331.68	1667.05
331.89	1742.82
332.10	1710.05
332.31	1646.57
332.52	1679.33
332.74	1746.92
332.95	1665.00
333.16	1718.25
333.37	1775.59
333.58	1722.34
333.80	1683.43
334.01	1677.29
334.22	1662.95
334.43	1628.14
334.64	1624.04
334.86	1615.85
335.07	1697.77
335.28	1748.97
335.49	1585.13
335.70	1720.29
335.92	1722.34
336.13	1861.60
336.34	1757.16
336.55	1751.01
336.76	1708.01
336.98	1632.23
337.19	1681.38
337.40	1775.59
337.61	1845.22
337.82	1667.05
338.04	1740.77
338.25	1574.89
338.46	1673.19
338.67	1697.77
338.88	1683.43
339.09	1644.52
339.31	1695.72
339.52	1624.04
339.73	1628.14
339.94	1687.53
340.15	1681.38
340.36	1662.95
340.58	1648.61
340.79	1681.38
341.00	1746.92
341.21	1640.42
341.42	1783.78
341.63	1710.05
341.85	1628.14
342.06	1712.10
342.27	1667.05
342.48	1710.05
342.69	1617.90
342.90	1734.63
343.12	1720.29
343.33	1705.96
343.54	1740.77
343.75	1681.38
343.96	1683.43
344.17	1607.66
344.38	1714.15
344.60	1642.47
344.81	1648.61
345.02	1765.35
345.23	1761.25
345.44	1839.08
345.65	1761.25
345.86	1685.48
346.07	1722.34
346.29	1691.62
346.50	1708.01
346.71	1644.52
346.92	1767.40
347.13	1726.44
347.34	1687.53
347.55	1634.28
347.76	1673.19
347.98	1583.08
348.19	1648.61
348.40	1851.36
348.61	1710.05
348.82	1732.58
349.03	1757.16
349.24	1718.25
349.45	1824.74
349.66	1611.75
349.88	1665.00
350.09	1714.15
350.30	1779.68
350.51	1773.54
350.72	1730.53
350.93	1697.77
351.14	1722.34
351.35	1736.68
351.56	1763.30
351.77	1757.16
351.99	1689.57
352.20	1783.78
352.41	1736.68
352.62	1540.07
352.83	1632.23
353.04	1671.14
353.25	1615.85
353.46	1724.39
353.67	1791.97
353.88	1587.18
354.09	1794.02
354.30	1691.62
354.52	1802.21
354.73	1656.81
354.94	1671.14
355.15	1650.66
355.36	1779.68
355.57	1742.82
355.78	1714.15
355.99	1705.96
356.20	1660.90
356.41	1734.63
356.62	1722.34
356.83	1701.86
357.04	1763.30
357.25	1642.47
357.46	1738.73
357.68	1568.74
357.89	1654.76
358.10	1732.58
358.31	1708.01
358.52	1675.24
358.73	1650.66
358.94	1669.09
359.15	1734.63
359.36	1753.06
359.57	1726.44
359.78	1628.14
359.99	1697.77
360.20	1599.46
360.41	1662.95
360.62	1712.10
360.83	1701.86
361.04	1679.33
361.25	1730.53
361.46	1796.07
361.67	1785.83
361.88	1693.67
362.09	1742.82
362.30	1689.57
362.51	1697.77
362.72	1732.58
362.93	1748.97
363.14	1693.67
363.35	1650.66
363.56	1613.80
363.78	1746.92
363.99	1744.87
364.20	1656.81
364.41	1687.53
364.62	1812.45
364.83	1660.90
365.04	1705.96
365.25	1648.61
365.46	1888.23
365.67	1652.71
365.88	1585.13
366.09	1630.18
366.30	1648.61
366.51	1767.40
366.72	1650.66
366.93	1646.57
367.14	1705.96
367.35	1787.88
367.56	1703.91
367.77	1794.02
367.98	1617.90
368.18	1718.25
368.39	1671.14
368.60	1615.85
368.81	1714.15
369.02	1675.24
369.23	1697.77
369.44	1632.23
369.65	1654.76
369.86	1703.91
370.07	1693.67
370.28	1642.47
370.49	1701.86
370.70	1658.85
370.91	1591.27
371.12	1628.14
371.33	1761.25
371.54	1710.05
371.75	1800.16
371.96	1542.12
372.17	1708.01
372.38	1685.48
372.59	1816.55
372.80	1644.52
373.01	1703.91
373.22	1667.05
373.43	1662.95
373.64	1650.66
373.85	1710.05
374.06	1779.68
374.26	1703.91
374.47	1687.53
374.68	1777.64
374.89	1708.01
375.10	1662.95
375.31	1779.68
375.52	1755.11
375.73	1740.77
375.94	1568.74
376.15	1775.59
376.36	1662.95
376.57	1726.44
376.78	1689.57
376.99	1673.19
377.20	1767.40
377.40	1667.05
377.61	1818.60
377.82	1621.99
378.03	1755.11
378.24	1718.25
378.45	1720.29
378.66	1677.29
378.87	1540.07
379.08	1624.04
379.29	1722.34
379.50	1785.83
379.71	1703.91
379.91	1732.58
380.12	1695.72
380.33	1720.29
380.54	1697.77
380.75	1644.52
380.96	1714.15
381.17	1763.30
381.38	1720.29
381.59	1740.77
381.80	1740.77
382.00	1839.08
382.21	1714.15
382.42	1839.08
382.63	1832.93
382.84	1779.68
383.05	1742.82
383.26	1779.68
383.47	1703.91
383.68	1800.16
383.88	1720.29
384.09	1728.49
384.30	1769.44
384.51	1744.87
384.72	1660.90
384.93	1611.75
385.14	1730.53
385.35	1779.68
385.55	1611.75
385.76	1798.12
385.97	1665.00
386.18	1658.85
386.39	1701.86
386.60	1699.81
386.81	1718.25
387.02	1712.10
387.22	1679.33
387.43	1734.63
387.64	1845.22
387.85	1841.12
388.06	2234.33
388.27	4302.78
388.48	6670.23
388.68	8159.11
388.89	9502.58
389.10	9715.56
389.31	8474.49
389.52	7546.76
389.73	6727.58
389.93	6250.40
390.14	5765.03
390.35	5113.78
390.56	4536.25
390.77	3653.58
390.98	3026.90
391.18	2426.84
391.39	2076.64
391.60	1875.94
391.81	1804.26
392.02	1738.73
392.23	1828.84
392.43	1697.77
392.64	1736.68
392.85	1665.00
393.06	1800.16
393.27	1691.62
393.47	1683.43
393.68	1730.53
393.89	1658.85
394.10	1783.78
394.31	1677.29
394.52	1636.33
394.72	1626.09
394.93	1771.49
395.14	1693.67
395.35	1683.43
395.56	1652.71
395.76	1718.25
395.97	1818.60
396.18	1886.18
396.39	1865.70
396.60	1996.77
396.80	1890.28
397.01	1816.55
397.22	1755.11
397.43	1742.82
397.64	1634.28
397.84	1761.25
398.05	1865.70
398.26	1722.34
398.47	1794.02
398.67	1779.68
398.88	1703.91
399.09	1740.77
399.30	1636.33
399.51	1763.30
399.71	1667.05
399.92	1748.97
400.13	1665.00
400.34	1802.21
400.54	1689.57
400.75	1738.73
400.96	1703.91
401.17	1789.92
401.37	1755.11
401.58	1730.53
401.79	1730.53
402.00	1822.69
402.21	1961.95
402.41	1927.14
402.62	1964.00
402.83	1982.43
403.04	2025.44
403.24	1984.48
403.45	1877.99
403.66	1834.98
403.87	1898.47
404.07	1830.88
404.28	1873.89
404.49	1839.08
404.70	1722.34
404.90	1738.73
405.11	1751.01
405.32	1687.53
405.52	1667.05
405.73	1660.90
405.94	1660.90
406.15	1677.29
406.35	1767.40
406.56	1705.96
406.77	1759.21
406.98	1746.92
407.18	1705.96
407.39	1773.54
407.60	1701.86
407.80	1843.17
408.01	1673.19
408.22	1728.49
408.43	1632.23
408.63	1769.44
408.84	1746.92
409.05	1796.07
409.25	1660.90
409.46	1626.09
409.67	1677.29
409.88	1642.47
410.08	1744.87
410.29	1656.81
410.50	1789.92
410.70	1720.29
410.91	1665.00
411.12	1697.77
411.32	1681.38
411.53	1624.04
411.74	1865.70
411.95	1744.87
412.15	1724.39
412.36	1710.05
412.57	1722.34
412.77	1791.97
412.98	1714.15
413.19	1644.52
413.39	1748.97
413.60	1751.01
413.81	1886.18
414.01	1673.19
414.22	1660.90
414.43	1734.63
414.63	1714.15
414.84	1722.34
415.05	1767.40
415.25	1658.85
415.46	1697.77
415.67	1730.53
415.87	1656.81
416.08	1656.81
416.29	1617.90
416.49	1732.58
416.70	1685.48
416.91	1677.29
417.11	1626.09
417.32	1753.06
417.53	1736.68
417.73	1722.34
417.94	1665.00
418.15	1763.30
418.35	1710.05
418.56	1642.47
418.77	1781.73
418.97	1724.39
419.18	1675.24
419.38	1603.56
419.59	1730.53
419.80	1787.88
420.00	1714.15
420.21	1693.67
420.42	1701.86
420.62	1724.39
420.83	1662.95
421.04	1695.72
421.24	1730.53
421.45	1705.96
421.65	1689.57
421.86	1746.92
422.07	1767.40
422.27	1718.25
422.48	1677.29
422.69	1615.85
422.89	1681.38
423.10	1683.43
423.30	1626.09
423.51	1748.97
423.72	1712.10
423.92	1767.40
424.13	1667.05
424.33	1697.77
424.54	1798.12
424.75	1789.92
424.95	1841.12
425.16	1748.97
425.36	1697.77
425.57	1740.77
425.78	1791.97
425.98	1771.49
426.19	1677.29
426.39	1673.19
426.60	1673.19
426.81	1765.35
427.01	1710.05
427.22	1701.86
427.42	1636.33
427.63	1667.05
427.83	1710.05
428.04	1740.77
428.25	1710.05
428.45	1867.75
428.66	1773.54
428.86	1740.77
429.07	1613.80
429.28	1738.73
429.48	1648.61
429.69	1732.58
429.89	1771.49
430.10	1599.46
430.30	1744.87
430.51	1771.49
430.71	1648.61
430.92	1708.01
431.13	1644.52
431.33	1798.12
431.54	1744.87
431.74	1785.83
431.95	1853.41
432.15	1665.00
432.36	1734.63
432.56	1775.59
432.77	1810.40
432.98	1802.21
433.18	1708.01
433.39	1683.43
433.59	1646.57
433.80	1820.64
434.00	1857.51
434.21	1697.77
434.41	1667.05
434.62	1777.64
434.82	1660.90
435.03	1697.77
435.23	1736.68
435.44	1634.28
435.64	1724.39
435.85	1658.85
436.06	1722.34
436.26	1800.16
436.47	1734.63
436.67	1730.53
436.88	1669.09
437.08	1744.87
437.29	1791.97
437.49	1789.92
437.70	1810.40
437.90	1742.82
438.11	1877.99
438.31	1730.53
438.52	1834.98
438.72	1789.92
438.93	1884.13
439.13	1755.11
439.34	1814.50
439.54	1845.22
439.75	1724.39
439.95	1785.83
440.16	1722.34
440.36	1728.49
440.57	1773.54
440.77	1742.82
440.98	1738.73
441.18	1671.14
441.39	1671.14
441.59	1738.73
441.80	1843.17
442.00	1714.15
442.21	1767.40
442.41	1613.80
442.62	1771.49
442.82	1798.12
443.02	1665.00
443.23	1656.81
443.43	1695.72
443.64	1826.79
443.84	1667.05
444.05	1771.49
444.25	1720.29
444.46	1722.34
444.66	1767.40
444.87	1863.65
445.07	1609.70
445.28	1724.39
445.48	1816.55
445.69	1708.01
445.89	1845.22
446.09	1712.10
446.30	2070.50
446.50	2648.02
446.71	3727.30
446.91	4224.96
447.12	4736.95
447.32	4937.65
447.53	4339.65
447.73	3844.04
447.93	3422.16
448.14	3266.51
448.34	3250.13
448.55	2920.40
448.75	2805.72
448.96	2656.22
449.16	2383.84
449.36	2316.25
449.57	2025.44
449.77	1832.93
449.98	1718.25
450.18	1902.56
450.39	1812.45
450.59	1701.86
450.79	1722.34
451.00	1658.85
451.20	1824.74
451.41	1718.25
451.61	1777.64
451.81	1802.21
452.02	1646.57
452.22	1718.25
452.43	1736.68
452.63	1683.43
452.84	1769.44
453.04	1691.62
453.24	1712.10
453.45	1693.67
453.65	1683.43
453.86	1748.97
454.06	1744.87
454.26	1777.64
454.47	1728.49
454.67	1781.73
454.87	1796.07
455.08	1726.44
455.28	1869.80
455.49	1742.82
455.69	1681.38
455.89	1814.50
456.10	1765.35
456.30	1689.57
456.51	1742.82
456.71	1699.81
456.91	1746.92
457.12	1769.44
457.32	1765.35
457.52	1656.81
457.73	1730.53
457.93	1757.16
458.14	1771.49
458.34	1650.66
458.54	1693.67
458.75	1701.86
458.95	1740.77
459.15	1710.05
459.36	1687.53
459.56	1736.68
459.76	1837.03
459.97	1759.21
460.17	1779.68
460.37	1777.64
460.58	1716.20
460.78	1730.53
460.99	1671.14
461.19	1730.53
461.39	1712.10
461.60	1656.81
461.80	1730.53
462.00	1677.29
462.21	1714.15
462.41	1665.00
462.61	1730.53
462.82	1619.94
463.02	1816.55
463.22	1712.10
463.43	1849.32
463.63	1775.59
463.83	1724.39
464.04	1730.53
464.24	1701.86
464.44	1628.14
464.64	1765.35
464.85	1724.39
465.05	1720.29
465.25	1736.68
465.46	1617.90
465.66	1689.57
465.86	1708.01
466.07	1740.77
466.27	1660.90
466.47	1630.18
466.68	1691.62
466.88	1787.88
467.08	1810.40
467.29	1701.86
467.49	1787.88
467.69	1726.44
467.89	1755.11
468.10	1728.49
468.30	1824.74
468.50	1794.02
468.71	1740.77
468.91	1679.33
469.11	1767.40
469.31	1755.11
469.52	1689.57
469.72	1845.22
469.92	1796.07
470.13	1712.10
470.33	1755.11
470.53	1824.74
470.73	2111.46
470.94	2263.01
471.14	2367.45
471.34	2473.95
471.54	2338.78
471.75	2254.81
471.95	2115.55
472.15	2121.70
472.36	2054.11
472.56	2035.68
472.76	2070.50
472.96	1947.62
473.17	2011.11
473.37	1935.33
473.57	1744.87
473.77	1753.06
473.98	1781.73
474.18	1697.77
474.38	1882.08
474.58	1767.40
474.79	1615.85
474.99	1755.11
475.19	1765.35
475.39	1705.96
475.60	1724.39
475.80	1722.34
476.00	1726.44
476.20	1724.39
476.41	1800.16
476.61	1859.56
476.81	1746.92
477.01	1730.53
477.21	1841.12
477.42	1830.88
477.62	1677.29
477.82	1730.53
478.02	1703.91
478.23	1660.90
478.43	1685.48
478.63	1662.95
478.83	1660.90
479.03	1681.38
479.24	1765.35
479.44	1849.32
479.64	1794.02
479.84	1562.60
480.04	1699.81
480.25	1769.44
480.45	1718.25
480.65	1775.59
480.85	1839.08
481.06	1591.27
481.26	1675.24
481.46	1755.11
481.66	1761.25
481.86	1654.76
482.06	1824.74
482.27	1636.33
482.47	1755.11
482.67	1775.59
482.87	1646.57
483.07	1757.16
483.28	1746.92
483.48	1679.33
483.68	1673.19
483.88	1677.29
484.08	1578.98
484.29	1644.52
484.49	1703.91
484.69	1613.80
484.89	1755.11
485.09	1751.01
485.29	1736.68
485.50	1738.73
485.70	1679.33
485.90	1812.45
486.10	1765.35
486.30	1771.49
486.50	1755.11
486.71	1736.68
486.91	1781.73
487.11	1730.53
487.31	1656.81
487.51	1656.81
487.71	1683.43
487.91	1652.71
488.12	1720.29
488.32	1570.79
488.52	1732.58
488.72	1636.33
488.92	1718.25
489.12	1785.83
489.32	1826.79
489.53	1697.77
489.73	1691.62
489.93	1777.64
490.13	1689.57
490.33	1560.55
490.53	1673.19
490.73	1798.12
490.94	1669.09
491.14	1796.07
491.34	1841.12
491.54	2179.04
491.74	2678.74
491.94	2881.49
492.14	3002.32
492.34	3016.66
492.54	2793.43
492.75	2508.76
492.95	2402.27
493.15	2338.78
493.35	2303.96
493.55	2265.05
493.75	2195.42
493.95	2097.12
494.15	2078.69
494.35	1929.19
494.56	1875.94
494.76	1742.82
494.96	1800.16
495.16	1757.16
495.36	1687.53
495.56	1724.39
495.76	1767.40
495.96	1626.09
496.16	1734.63
496.36	1791.97
496.56	1714.15
496.77	1691.62
496.97	1679.33
497.17	1779.68
497.37	1570.79
497.57	1748.97
497.77	1703.91
497.97	1624.04
498.17	1851.36
498.37	1738.73
498.57	1765.35
498.77	1685.48
498.97	1757.16
499.17	1808.36
499.38	1734.63
499.58	1730.53
499.78	1675.24
499.98	1800.16
500.18	1710.05
500.38	1662.95
500.58	1935.33
500.78	2580.44
500.98	4517.82
501.18	5834.66
501.38	6772.63
501.58	7026.58
501.78	6711.19
501.98	5302.19
502.18	5015.48
502.38	4394.94
502.58	4011.97
502.78	3755.97
502.98	3698.63
503.18	3368.91
503.38	3160.02
503.59	2824.15
503.79	2688.98
503.99	2498.52
504.19	2267.10
504.39	2242.53
504.59	2146.27
504.79	2082.78
504.99	2043.87
505.19	1935.33
505.39	1839.08
505.59	1935.33
505.79	1951.71
505.99	1857.51
506.19	1775.59
506.39	1896.42
506.59	1820.64
506.79	1785.83
506.99	1871.84
507.19	1810.40
507.39	1783.78
507.59	1681.38
507.79	1665.00
507.99	1658.85
508.19	1693.67
508.39	1730.53
508.59	1742.82
508.79	1816.55
508.99	1839.08
509.19	1677.29
509.39	1779.68
509.59	1691.62
509.79	1703.91
509.99	1751.01
510.19	1810.40
510.39	1763.30
510.59	1802.21
510.79	1701.86
510.99	1687.53
511.19	1740.77
511.39	1806.31
511.59	1779.68
511.79	1765.35
511.99	1781.73
512.19	1794.02
512.38	1632.23
512.58	1648.61
512.78	1816.55
512.98	1763.30
513.18	1697.77
513.38	1720.29
513.58	1730.53
513.78	1710.05
513.98	1720.29
514.18	1722.34
514.38	1736.68
514.58	1757.16
514.78	1746.92
514.98	1691.62
515.18	1716.20
515.38	1640.42
515.58	1814.50
515.78	1683.43
515.98	1722.34
516.18	1738.73
516.38	1726.44
516.57	1644.52
516.77	1624.04
516.97	1720.29
517.17	1689.57
517.37	1654.76
517.57	1695.72
517.77	1755.11
517.97	1681.38
518.17	1755.11
518.37	1685.48
518.57	1671.14
518.77	1640.42
518.97	1714.15
519.16	1763.30
519.36	1820.64
519.56	1814.50
519.76	1683.43
519.96	1757.16
520.16	1785.83
520.36	1679.33
520.56	1820.64
520.76	1746.92
520.96	1691.62
521.16	1779.68
521.35	1812.45
521.55	1832.93
521.75	1753.06
521.95	1722.34
522.15	1683.43
522.35	1619.94
522.55	1726.44
522.75	1697.77
522.95	1595.37
523.14	1642.47
523.34	1720.29
523.54	1724.39
523.74	1791.97
523.94	1728.49
524.14	1646.57
524.34	1746.92
524.54	1765.35
524.73	1673.19
524.93	1779.68
525.13	1783.78
525.33	1642.47
525.53	1871.84
525.73	1837.03
525.93	1751.01
526.13	1646.57
526.32	1722.34
526.52	1726.44
526.72	1796.07
526.92	1724.39
527.12	1740.77
527.32	1632.23
527.52	1783.78
527.71	1650.66
527.91	1779.68
528.11	1693.67
528.31	1705.96
528.51	1652.71
528.71	1787.88
528.90	1718.25
529.10	1845.22
529.30	1875.94
529.50	1695.72
529.70	1724.39
529.90	1783.78
530.09	1708.01
530.29	1654.76
530.49	1691.62
530.69	1800.16
530.89	1765.35
531.09	1761.25
531.28	1728.49
531.48	1812.45
531.68	1595.37
531.88	1787.88
532.08	1820.64
532.28	1705.96
532.47	1767.40
532.67	1822.69
532.87	1753.06
533.07	1683.43
533.27	1804.26
533.46	1814.50
533.66	1708.01
533.86	1796.07
534.06	1689.57
534.26	1775.59
534.45	1748.97
534.65	1777.64
534.85	1726.44
535.05	1759.21
535.25	1834.98
535.44	1644.52
535.64	1851.36
535.84	1708.01
536.04	1773.54
536.24	1665.00
536.43	1662.95
536.63	1699.81
536.83	1644.52
537.03	1763.30
537.22	1593.32
537.42	1636.33
537.62	1687.53
537.82	1716.20
538.02	1785.83
538.21	1847.27
538.41	1847.27
538.61	1732.58
538.81	1703.91
539.00	1783.78
539.20	1640.42
539.40	1689.57
539.60	1779.68
539.79	1773.54
539.99	1632.23
540.19	1640.42
540.39	1738.73
540.58	1773.54
540.78	1791.97
540.98	1824.74
541.18	1789.92
541.37	1757.16
541.57	1769.44
541.77	1808.36
541.97	1695.72
542.16	1710.05
542.36	1669.09
542.56	1828.84
542.76	1769.44
542.95	1861.60
543.15	1796.07
543.35	1771.49
543.54	1669.09
543.74	1730.53
543.94	1843.17
544.14	1669.09
544.33	1779.68
544.53	1691.62
544.73	1720.29
544.93	1726.44
545.12	1708.01
545.32	1738.73
545.52	1671.14
545.71	1656.81
545.91	1642.47
546.11	1681.38
546.30	1673.19
546.50	1687.53
546.70	1763.30
546.90	1804.26
547.09	1675.24
547.29	1794.02
547.49	1808.36
547.68	1679.33
547.88	1648.61
548.08	1742.82
548.27	2240.48
548.47	1734.63
548.67	1689.57
548.87	1734.63
549.06	1767.40
549.26	1787.88
549.46	1728.49
549.65	1740.77
549.85	1742.82
550.05	1742.82
550.24	1673.19
550.44	1718.25
550.64	1734.63
550.83	1716.20
551.03	1804.26
551.23	1746.92
551.42	1722.34
551.62	1683.43
551.82	1689.57
552.01	1677.29
552.21	1818.60
552.41	1736.68
552.60	1755.11
552.80	1763.30
553.00	1705.96
553.19	1695.72
553.39	1861.60
553.59	1703.91
553.78	1734.63
553.98	1763.30
554.17	1751.01
554.37	1681.38
554.57	1779.68
554.76	1621.99
554.96	1734.63
555.16	1701.86
555.35	1740.77
555.55	1716.20
555.75	1712.10
555.94	1837.03
556.14	1705.96
556.33	1705.96
556.53	1705.96
556.73	1767.40
556.92	1710.05
557.12	1820.64
557.32	1875.94
557.51	1798.12
557.71	1837.03
557.90	1851.36
558.10	1814.50
558.30	1689.57
558.49	1740.77
558.69	1779.68
558.88	1791.97
559.08	1738.73
559.28	1746.92
559.47	1738.73
559.67	1744.87
559.86	1839.08
560.06	1804.26
560.26	1712.10
560.45	1773.54
560.65	1691.62
560.84	1785.83
561.04	1765.35
561.24	1748.97
561.43	1714.15
561.63	1812.45
561.82	1816.55
562.02	1806.31
562.22	1656.81
562.41	1683.43
562.61	1757.16
562.80	1675.24
563.00	1877.99
563.19	1751.01
563.39	1726.44
563.59	1849.32
563.78	1599.46
563.98	1660.90
564.17	1681.38
564.37	1681.38
564.56	1675.24
564.76	1611.75
564.96	1740.77
565.15	1738.73
565.35	1923.04
565.54	1785.83
565.74	1796.07
565.93	1744.87
566.13	1687.53
566.32	1785.83
566.52	1798.12
566.71	1716.20
566.91	1763.30
567.11	1685.48
567.30	1691.62
567.50	1624.04
567.69	1722.34
567.89	1671.14
568.08	1699.81
568.28	1665.00
568.47	1728.49
568.67	1777.64
568.86	1724.39
569.06	1832.93
569.25	1693.67
569.45	1701.86
569.64	1673.19
569.84	1771.49
570.04	1722.34
570.23	1716.20
570.43	1742.82
570.62	1763.30
570.82	1767.40
571.01	1656.81
571.21	1701.86
571.40	1662.95
571.60	1798.12
571.79	1787.88
571.99	1722.34
572.18	1673.19
572.38	1755.11
572.57	1691.62
572.77	1765.35
572.96	1906.66
573.16	1722.34
573.35	1681.38
573.55	1818.60
573.74	1771.49
573.94	1724.39
574.13	1726.44
574.33	1806.31
574.52	1810.40
574.71	1757.16
574.91	1775.59
575.10	1644.52
575.30	1652.71
575.49	1658.85
575.69	1642.47
575.88	1730.53
576.08	1734.63
576.27	1812.45
576.47	1730.53
576.66	1777.64
576.86	1794.02
577.05	1763.30
577.25	1851.36
577.44	1869.80
577.64	1732.58
577.83	1773.54
578.02	1751.01
578.22	1759.21
578.41	1816.55
578.61	1710.05
578.80	1701.86
579.00	1769.44
579.19	1710.05
579.39	1755.11
579.58	1753.06
579.77	1800.16
579.97	1851.36
580.16	1806.31
580.36	1765.35
580.55	1880.04
580.75	1781.73
580.94	1703.91
581.13	1841.12
581.33	1910.75
581.52	1826.79
581.72	1877.99
581.91	1845.22
582.11	1738.73
582.30	1763.30
582.49	1779.68
582.69	1779.68
582.88	1800.16
583.08	1763.30
583.27	1783.78
583.47	1718.25
583.66	1685.48
583.85	1693.67
584.05	1837.03
584.24	1822.69
584.44	1787.88
584.63	1728.49
584.82	1826.79
585.02	1802.21
585.21	1769.44
585.41	1861.60
585.60	1808.36
585.79	1957.86
585.99	1918.95
586.18	1767.40
586.37	2162.66
586.57	3362.76
586.76	9865.07
586.96	24323.72
587.15	34606.58
587.34	40560.02
587.54	42370.43
587.73	36392.40
587.93	26375.79
588.12	21407.42
588.31	18343.66
588.51	16373.51
588.70	15050.52
588.89	13995.82
589.09	12406.59
589.28	10944.34
589.47	9373.55
589.67	7923.59
589.86	6447.01
590.06	5121.97
590.25	3991.49
590.44	3080.14
590.64	2549.72
590.83	2242.53
591.02	2060.26
591.22	1955.81
591.41	1886.18
591.60	1920.99
591.80	1902.56
591.99	1726.44
592.18	1806.31
592.38	1798.12
592.57	1767.40
592.76	1818.60
592.96	1798.12
593.15	1744.87
593.34	1865.70
593.54	1761.25
593.73	1802.21
593.92	1736.68
594.12	1738.73
594.31	1753.06
594.50	1771.49
594.70	1806.31
594.89	1857.51
595.08	1681.38
595.28	1794.02
595.47	1839.08
595.66	1830.88
595.86	1724.39
596.05	1689.57
596.24	1697.77
596.43	1771.49
596.63	1779.68
596.82	1738.73
597.01	1746.92
597.21	1859.56
597.40	1785.83
597.59	1736.68
597.79	1609.70
597.98	1814.50
598.17	1722.34
598.36	1693.67
598.56	1820.64
598.75	1683.43
598.94	1785.83
599.14	1742.82
599.33	1720.29
599.52	1791.97
599.71	1679.33
599.91	1779.68
600.10	1755.11
600.29	1796.07
600.48	1775.59
600.68	1748.97
600.87	1695.72
601.06	1697.77
601.26	1705.96
601.45	1763.30
601.64	1718.25
601.83	1847.27
602.03	1712.10
602.22	1650.66
602.41	1783.78
602.60	1834.98
602.80	1796.07
602.99	1806.31
603.18	1712.10
603.37	1765.35
603.57	1718.25
603.76	1802.21
603.95	1771.49
604.14	1728.49
604.34	1765.35
604.53	1734.63
604.72	1791.97
604.91	1753.06
605.10	1779.68
605.30	1654.76
605.49	1865.70
605.68	1779.68
605.87	1767.40
606.07	1722.34
606.26	1746.92
606.45	1746.92
606.64	1753.06
606.84	1667.05
607.03	1791.97
607.22	1685.48
607.41	1660.90
607.60	1738.73
607.80	1783.78
607.99	1759.21
608.18	1722.34
608.37	1714.15
608.56	1746.92
608.76	1781.73
608.95	1820.64
609.14	1771.49
609.33	1710.05
609.52	1722.34
609.72	1726.44
609.91	1710.05
610.10	1699.81
610.29	1814.50
610.48	1742.82
610.68	1808.36
610.87	1746.92
611.06	1886.18
611.25	1673.19
611.44	1748.97
611.63	1781.73
611.83	1728.49
612.02	1681.38
612.21	1787.88
612.40	1693.67
612.59	1699.81
612.79	1615.85
612.98	1748.97
613.17	1777.64
613.36	1740.77
613.55	1794.02
613.74	1642.47
613.93	1724.39
614.13	1755.11
614.32	1802.21
614.51	1673.19
614.70	1691.62
614.89	1695.72
615.08	1771.49
615.28	2095.07
615.47	1673.19
615.66	1748.97
615.85	1662.95
616.04	1843.17
616.23	1677.29
616.42	1773.54
616.62	1757.16
616.81	1771.49
617.00	1677.29
617.19	1673.19
617.38	1716.20
617.57	1718.25
617.76	1736.68
617.95	1775.59
618.15	1761.25
618.34	1789.92
618.53	1660.90
618.72	1728.49
618.91	1828.84
619.10	1763.30
619.29	1738.73
619.48	1648.61
619.68	1626.09
619.87	1730.53
620.06	1617.90
620.25	1753.06
620.44	1705.96
620.63	1730.53
620.82	1720.29
621.01	1671.14
621.20	1746.92
621.39	1695.72
621.59	1720.29
621.78	1728.49
621.97	1746.92
622.16	1714.15
622.35	1785.83
622.54	1751.01
622.73	1837.03
622.92	1630.18
623.11	1742.82
623.30	1748.97
623.49	1705.96
623.68	1687.53
623.88	1798.12
624.07	1681.38
624.26	1738.73
624.45	1783.78
624.64	1683.43
624.83	1751.01
625.02	1722.34
625.21	1740.77
625.40	1628.14
625.59	1851.36
625.78	1728.49
625.97	1832.93
626.16	1787.88
626.35	1732.58
626.54	1667.05
626.74	1777.64
626.93	1669.09
627.12	1691.62
627.31	1714.15
627.50	1757.16
627.69	1730.53
627.88	1718.25
628.07	1650.66
628.26	1628.14
628.45	1748.97
628.64	1681.38
628.83	1714.15
629.02	1767.40
629.21	1724.39
629.40	1759.21
629.59	1646.57
629.78	1671.14
629.97	1787.88
630.16	1722.34
630.35	1722.34
630.54	1751.01
630.73	1658.85
630.92	1689.57
631.11	1613.80
631.30	1708.01
631.49	1777.64
631.68	1681.38
631.87	1748.97
632.06	1689.57
632.25	1820.64
632.44	1673.19
632.63	1783.78
632.82	1751.01
633.01	1656.81
633.20	1685.48
633.39	1671.14
633.58	1630.18
633.77	1751.01
633.96	1738.73
634.15	1775.59
634.34	1763.30
634.53	1783.78
634.72	1714.15
634.91	1683.43
635.10	1755.11
635.29	1761.25
635.48	1697.77
635.67	1693.67
635.86	1652.71
636.05	1802.21
636.24	1738.73
636.43	1701.86
636.62	1708.01
636.81	1540.07
637.00	1746.92
637.19	1748.97
637.38	1722.34
637.57	1730.53
637.76	1693.67
637.95	1734.63
638.14	1738.73
638.33	1660.90
638.52	1751.01
638.71	1679.33
638.89	1667.05
639.08	1781.73
639.27	1843.17
639.46	1701.86
639.65	1857.51
639.84	1716.20
640.03	1740.77
640.22	1691.62
640.41	1804.26
640.60	1662.95
640.79	1718.25
640.98	1753.06
641.17	1740.77
641.36	1689.57
641.55	1708.01
641.74	1632.23
641.92	1667.05
642.11	1671.14
642.30	1673.19
642.49	1697.77
642.68	1734.63
642.87	1791.97
643.06	1746.92
643.25	1671.14
643.44	1665.00
643.63	1708.01
643.82	1736.68
644.00	1650.66
644.19	1697.77
644.38	1648.61
644.57	1734.63
644.76	1763.30
644.95	1794.02
645.14	1712.10
645.33	1710.05
645.52	1802.21
645.71	1677.29
645.89	1609.70
646.08	1753.06
646.27	1732.58
646.46	1871.84
646.65	1722.34
646.84	1714.15
647.03	1654.76
647.22	1761.25
647.40	1705.96
647.59	1673.19
647.78	1687.53
647.97	1695.72
648.16	1681.38
648.35	1744.87
648.54	1804.26
648.73	1728.49
648.91	1777.64
649.10	1703.91
649.29	1708.01
649.48	1738.73
649.67	1685.48
649.86	1714.15
650.05	1712.10
650.23	1769.44
650.42	1626.09
650.61	1679.33
650.80	1726.44
650.99	1910.75
651.18	1798.12
651.36	1779.68
651.55	1665.00
651.74	1781.73
651.93	1654.76
652.12	1722.34
652.31	1734.63
652.49	1718.25
652.68	1722.34
652.87	1812.45
653.06	1703.91
653.25	1804.26
653.44	1755.11
653.62	1773.54
653.81	1626.09
654.00	1755.11
654.19	1710.05
654.38	1837.03
654.56	1726.44
654.75	1755.11
654.94	1726.44
655.13	1775.59
655.32	1712.10
655.51	1763.30
655.69	1722.34
655.88	1763.30
656.07	1689.57
656.26	1662.95
656.45	1660.90
656.63	1665.00
656.82	1814.50
657.01	1716.20
657.20	1714.15
657.38	1777.64
657.57	1691.62
657.76	1619.94
657.95	1728.49
658.14	1679.33
658.32	1689.57
658.51	1705.96
658.70	1730.53
658.89	1705.96
659.08	1679.33
659.26	1794.02
659.45	1671.14
659.64	1738.73
659.83	1675.24
660.01	1855.46
660.20	1701.86
660.39	1763.30
660.58	1601.51
660.76	1738.73
660.95	1705.96
661.14	1675.24
661.33	1689.57
661.51	1691.62
661.70	1673.19
661.89	1859.56
662.08	1671.14
662.26	1636.33
662.45	1640.42
662.64	1812.45
662.83	1794.02
663.01	1632.23
663.20	1656.81
663.39	1775.59
663.58	1660.90
663.76	1718.25
663.95	1748.97
664.14	1687.53
664.32	1701.86
664.51	1697.77
664.70	1683.43
664.89	1687.53
665.07	1568.74
665.26	1769.44
665.45	1691.62
665.64	1759.21
665.82	1683.43
666.01	1789.92
666.20	1685.48
666.38	1820.64
666.57	1775.59
666.76	2156.51
666.95	4501.44
667.13	10391.39
667.32	15316.76
667.51	17663.73
667.69	18972.38
667.88	17606.39
668.07	12492.61
668.25	9564.01
668.44	8132.48
668.63	7425.93
668.81	6924.18
669.00	6162.34
669.19	5717.93
669.38	5054.39
669.56	4538.30
669.75	4018.11
669.94	3426.25
670.12	2996.18
670.31	2592.73
670.50	2222.05
670.68	2127.84
670.87	1968.10
671.06	1769.44
671.24	1757.16
671.43	1832.93
671.62	1701.86
671.80	1730.53
671.99	1851.36
672.18	1677.29
672.36	1808.36
672.55	1761.25
672.74	1683.43
672.92	1669.09
673.11	1755.11
673.29	1611.75
673.48	1720.29
673.67	1714.15
673.85	1791.97
674.04	1675.24
674.23	1800.16
674.41	1693.67
674.60	1691.62
674.79	1624.04
674.97	1652.71
675.16	1767.40
675.34	1708.01
675.53	1621.99
675.72	1734.63
675.90	1728.49
676.09	1665.00
676.28	1742.82
676.46	1624.04
676.65	1779.68
676.83	1624.04
677.02	1699.81
677.21	1708.01
677.39	1673.19
677.58	1675.24
677.77	1662.95
677.95	1603.56
678.14	1677.29
678.32	1648.61
678.51	1632.23
678.70	1800.16
678.88	1665.00
679.07	1757.16
679.25	1710.05
679.44	1665.00
679.63	1603.56
679.81	1732.58
680.00	1761.25
680.18	1751.01
680.37	1841.12
680.55	1744.87
680.74	1613.80
680.93	1626.09
681.11	1697.77
681.30	1677.29
681.48	1810.40
681.67	1746.92
681.85	1730.53
682.04	1624.04
682.23	1814.50
682.41	1738.73
682.60	1755.11
682.78	1671.14
682.97	1679.33
683.15	1800.16
683.34	1687.53
683.53	1734.63
683.71	1624.04
683.90	1847.27
684.08	1826.79
684.27	1679.33
684.45	1763.30
684.64	1744.87
684.82	1716.20
685.01	1769.44
685.19	1673.19
685.38	1712.10
685.57	1712.10
685.75	1665.00
685.94	1705.96
686.12	1708.01
686.31	1687.53
686.49	1843.17
686.68	1677.29
686.86	1660.90
687.05	1724.39
687.23	1714.15
687.42	1679.33
687.60	1613.80
687.79	1650.66
687.97	1798.12
688.16	1742.82
688.34	1753.06
688.53	1583.08
688.71	1779.68
688.90	1839.08
689.08	1714.15
689.27	1630.18
689.45	1691.62
689.64	1789.92
689.82	1755.11
690.01	1740.77
690.19	1714.15
690.38	1701.86
690.56	1810.40
690.75	1734.63
690.93	1640.42
691.12	1656.81
691.30	1714.15
691.49	1720.29
691.67	1667.05
691.86	1751.01
692.04	1636.33
692.23	1662.95
692.41	1566.70
692.60	1785.83
692.78	1730.53
692.97	1669.09
693.15	1654.76
693.34	1828.84
693.52	1804.26
693.71	1689.57
693.89	1646.57
694.08	1603.56
694.26	1748.97
694.44	1755.11
694.63	1697.77
694.81	1595.37
695.00	1673.19
695.18	1708.01
695.37	1837.03
695.55	1775.59
695.74	1689.57
695.92	1699.81
696.10	1646.57
696.29	1593.32
696.47	1658.85
696.66	1646.57
696.84	1703.91
697.03	1665.00
697.21	1884.13
697.40	2154.46
697.58	1763.30
697.76	1677.29
697.95	1751.01
698.13	1636.33
698.32	1665.00
698.50	1636.33
698.68	1720.29
698.87	1714.15
699.05	1818.60
699.24	1708.01
699.42	1619.94
699.61	1785.83
699.79	1691.62
699.97	1712.10
700.16	1650.66
700.34	1601.51
700.53	1693.67
700.71	1738.73
700.89	1798.12
701.08	1644.52
701.26	1658.85
701.45	2185.18
701.63	1642.47
701.81	1697.77
702.00	1755.11
702.18	1779.68
702.37	1687.53
702.55	1761.25
702.73	1757.16
702.92	1607.66
703.10	1669.09
703.28	1669.09
703.47	1720.29
703.65	1755.11
703.84	1755.11
704.02	1730.53
704.20	1736.68
704.39	1714.15
704.57	1624.04
704.75	1785.83
704.94	1673.19
705.12	1761.25
705.30	1675.24
705.49	2230.24
705.67	4331.45
705.86	9271.15
706.04	12547.90
706.22	14327.59
706.41	15376.15
706.59	13758.25
706.77	9471.86
706.96	7223.19
707.14	6639.51
707.32	5840.81
707.51	5427.12
707.69	5040.05
707.87	4317.12
708.06	3514.31
708.24	3010.51
708.42	2490.33
708.61	2183.13
708.79	1900.52
708.97	1828.84
709.16	1779.68
709.34	1818.60
709.52	1761.25
709.71	1740.77
709.89	1791.97
710.07	1624.04
710.26	1636.33
710.44	1710.05
710.62	1845.22
710.80	1738.73
710.99	1748.97
711.17	1818.60
711.35	1662.95
711.54	1791.97
711.72	1841.12
711.90	1755.11
712.09	1755.11
712.27	1609.70
712.45	1697.77
712.63	1716.20
712.82	1689.57
713.00	1730.53
713.18	1804.26
713.37	1798.12
713.55	1818.60
713.73	1757.16
713.91	1730.53
714.10	1765.35
714.28	1710.05
714.46	1732.58
714.65	1718.25
714.83	1777.64
715.01	1746.92
715.19	1724.39
715.38	1701.86
715.56	1675.24
715.74	1722.34
715.92	1703.91
716.11	1681.38
716.29	1640.42
716.47	1763.30
716.65	1757.16
716.84	1630.18
717.02	1773.54
717.20	1638.38
717.38	1636.33
717.57	1648.61
717.75	1763.30
717.93	1720.29
718.11	1724.39
718.30	1648.61
718.48	1718.25
718.66	1796.07
718.84	1675.24
719.03	1753.06
719.21	1671.14
719.39	1710.05
719.57	1730.53
719.75	1736.68
719.94	1656.81
720.12	1689.57
720.30	1679.33
720.48	1724.39
720.67	1634.28
720.85	1656.81
721.03	1636.33
721.21	1640.42
721.39	1822.69
721.58	1781.73
721.76	1671.14
721.94	1767.40
722.12	1677.29
722.30	1787.88
722.49	1718.25
722.67	1755.11
722.85	1728.49
723.03	1589.22
723.21	1607.66
723.40	1628.14
723.58	1781.73
723.76	1652.71
723.94	1744.87
724.12	1679.33
724.30	1824.74
724.49	1751.01
724.67	1634.28
724.85	1761.25
725.03	1642.47
725.21	1742.82
725.40	1726.44
725.58	1654.76
725.76	1755.11
725.94	1738.73
726.12	1646.57
726.30	1697.77
726.49	1701.86
726.67	1740.77
726.85	1802.21
727.03	1724.39
727.21	2084.83
727.39	2838.48
727.57	3815.37
727.76	4034.50
727.94	4450.24
728.12	4308.93
728.30	3649.48
728.48	2938.84
728.66	2672.60
728.84	2504.67
729.03	2328.54
729.21	2113.50
729.39	1974.24
729.57	1824.74
729.75	1791.97
729.93	1812.45
730.11	1746.92
730.30	1748.97
730.48	1689.57
730.66	1822.69
730.84	1724.39
731.02	1716.20
731.20	1705.96
731.38	1726.44
731.56	1730.53
731.74	1681.38
731.93	1695.72
732.11	1724.39
732.29	1671.14
732.47	1716.20
732.65	1730.53
732.83	1748.97
733.01	1724.39
733.19	1669.09
733.37	1751.01
733.56	1630.18
733.74	1630.18
733.92	1769.44
734.10	1687.53
734.28	1726.44
734.46	1595.37
734.64	1695.72
734.82	1613.80
735.00	1665.00
735.18	1683.43
735.36	1638.38
735.54	1619.94
735.73	1724.39
735.91	1695.72
736.09	1779.68
736.27	1781.73
736.45	1789.92
736.63	1595.37
736.81	1675.24
736.99	1751.01
737.17	1802.21
737.35	1615.85
737.53	1695.72
737.71	1705.96
737.89	1755.11
738.07	1732.58
738.25	1722.34
738.43	1667.05
738.61	1681.38
738.80	1656.81
738.98	1681.38
739.16	1710.05
739.34	1693.67
739.52	1693.67
739.70	1722.34
739.88	1812.45
740.06	1767.40
740.24	1603.56
740.42	1748.97
740.60	1681.38
740.78	1611.75
740.96	1538.02
741.14	1671.14
741.32	1736.68
741.50	1613.80
741.68	1822.69
741.86	1761.25
742.04	1646.57
742.22	1677.29
742.40	1699.81
742.58	1779.68
742.76	1652.71
742.94	1724.39
743.12	1556.46
743.30	1734.63
743.48	1714.15
743.66	1732.58
743.84	1734.63
744.02	1650.66
744.20	1689.57
744.38	1656.81
744.56	1710.05
744.74	1787.88
744.92	1685.48
745.10	1765.35
745.28	1730.53
745.46	1845.22
745.64	1718.25
745.82	1697.77
746.00	1611.75
746.18	1712.10
746.36	1550.31
746.54	1757.16
746.72	1767.40
746.90	1662.95
747.08	1884.13
747.26	1669.09
747.44	1779.68
747.62	1681.38
747.80	1708.01
747.98	1705.96
748.15	1746.92
748.33	1736.68
748.51	1710.05
748.69	1685.48
748.87	1650.66
749.05	1683.43
749.23	1689.57
749.41	1679.33
749.59	1695.72
749.77	1689.57
749.95	1714.15
750.13	1675.24
750.31	1730.53
750.49	1681.38
750.67	1689.57
750.85	1779.68
751.03	1736.68
751.20	1828.84
751.38	1742.82
751.56	1675.24
751.74	1730.53
751.92	1689.57
752.10	1710.05
752.28	1675.24
752.46	1712.10
752.64	1718.25
752.82	1708.01
753.00	1769.44
753.18	1699.81
753.35	1621.99
753.53	1714.15
753.71	1675.24
753.89	1740.77
754.07	1771.49
754.25	1730.53
754.43	1677.29
754.61	1652.71
754.79	1644.52
754.97	1757.16
755.14	1785.83
755.32	1638.38
755.50	1648.61
755.68	1742.82
755.86	1669.09
756.04	1642.47
756.22	1595.37
756.40	1710.05
756.57	1826.79
756.75	1603.56
756.93	1681.38
757.11	1763.30
757.29	1685.48
757.47	1675.24
757.65	1576.94
757.82	1603.56
758.00	1689.57
758.18	1714.15
758.36	1658.85
758.54	1828.84
758.72	1523.69
758.90	1736.68
759.07	1687.53
759.25	1660.90
759.43	1710.05
759.61	1716.20
759.79	2191.33
759.97	1708.01
760.15	1644.52
760.32	1734.63
760.50	1669.09
760.68	1824.74
760.86	1591.27
761.04	1787.88
761.22	1773.54
761.39	1734.63
761.57	1771.49
761.75	1681.38
761.93	1677.29
762.11	1689.57
762.28	1669.09
762.46	1691.62
762.64	1701.86
762.82	1632.23
763.00	1671.14
763.18	1773.54
763.35	1605.61
763.53	1779.68
763.71	1665.00
763.89	1724.39
764.07	1710.05
764.24	1722.34
764.42	1812.45
764.60	1656.81
764.78	1703.91
764.96	1787.88
765.13	1744.87
765.31	1701.86
765.49	1722.34
765.67	1685.48
765.84	1609.70
766.02	1716.20
766.20	1617.90
766.38	1736.68
766.56	1751.01
766.73	1732.58
766.91	1693.67
767.09	1681.38
767.27	1732.58
767.44	1779.68
767.62	1691.62
767.80	1771.49
767.98	1740.77
768.15	1693.67
768.33	1761.25
768.51	1714.15
768.69	1634.28
768.87	1720.29
769.04	1755.11
769.22	1822.69
769.40	1806.31
769.58	1832.93
769.75	1671.14
769.93	1769.44
770.11	1593.32
770.28	1648.61
770.46	1628.14
770.64	1644.52
770.82	1677.29
770.99	1687.53
771.17	1765.35
771.35	1644.52
771.53	1640.42
771.70	1665.00
771.88	1681.38
772.06	1607.66
772.23	1660.90
772.41	1783.78
772.59	1742.82
772.77	1658.85
772.94	1761.25
773.12	1728.49
773.30	1652.71
773.47	1667.05
773.65	1665.00
773.83	1783.78
774.01	1677.29
774.18	1556.46
774.36	1771.49
774.54	1673.19
774.71	1603.56
774.89	1599.46
775.07	1560.55
775.24	1730.53
775.42	1638.38
775.60	1814.50
775.78	1677.29
775.95	1628.14
776.13	1578.98
776.31	1626.09
776.48	1738.73
776.66	1806.31
776.84	1703.91
777.01	1683.43
777.19	1648.61
777.37	1656.81
777.54	1705.96
777.72	1755.11
777.90	1699.81
778.07	1673.19
778.25	1837.03
778.43	1791.97
778.60	1646.57
778.78	1798.12
778.96	1742.82
779.13	1675.24
779.31	1796.07
779.49	1726.44
779.66	1716.20
779.84	1677.29
780.01	1734.63
780.19	1615.85
780.37	1716.20
780.54	1765.35
780.72	1654.76
780.90	1673.19
781.07	1677.29
781.25	1660.90
781.43	1771.49
781.60	1722.34
781.78	1738.73
781.95	1632.23
782.13	1738.73
782.31	1689.57
782.48	1581.03
782.66	1689.57
782.83	1845.22
783.01	1681.38
783.19	1812.45
783.36	1611.75
783.54	1605.61
783.72	1791.97
783.89	1687.53
784.07	1703.91
784.24	1744.87
784.42	1851.36
784.60	1746.92
784.77	1779.68
784.95	1585.13
785.12	1638.38
785.30	1665.00
785.47	1656.81
785.65	1644.52
785.83	1665.00
786.00	1630.18
786.18	1734.63
786.35	1619.94
786.53	1632.23
786.71	1744.87
786.88	1738.73
787.06	1728.49
787.23	1654.76
787.41	1660.90
787.58	1646.57
787.76	1708.01
787.94	1732.58
788.11	1763.30
788.29	1677.29
788.46	1638.38
788.64	1656.81
788.81	1679.33
788.99	1648.61
789.16	1652.71
789.34	1665.00
789.52	1646.57
789.69	1730.53
789.87	1544.17
790.04	1722.34
790.22	1642.47
790.39	1791.97
790.57	1656.81
790.74	1644.52
790.92	1681.38
791.09	1591.27
791.27	1763.30
791.44	1769.44
791.62	1662.95
791.79	1728.49
791.97	1728.49
792.15	1900.52
792.32	1767.40
792.50	1767.40
792.67	1765.35
792.85	1714.15
793.02	1697.77
793.20	1669.09
793.37	1689.57
793.55	1730.53
793.72	1640.42
793.90	1732.58
794.07	1658.85
794.25	1675.24
794.42	1732.58
794.60	1722.34
794.77	1724.39
794.95	1740.77
795.12	1671.14
795.30	1662.95
795.47	1615.85
795.65	1859.56
795.82	1667.05
796.00	1648.61
796.17	1667.05
796.34	1710.05
796.52	1609.70
796.69	1726.44
796.87	1714.15
797.04	1703.91
797.22	1753.06
797.39	1705.96
797.57	1716.20
797.74	1667.05
797.92	1738.73
798.09	1726.44
798.27	1759.21
798.44	1748.97
798.62	1636.33
798.79	1732.58
798.96	1701.86
799.14	1679.33
799.31	1908.71
799.49	1673.19
799.66	1656.81
799.84	1699.81
800.01	1650.66
800.19	1677.29
800.36	1656.81
800.53	1712.10
800.71	1646.57
800.88	1851.36
801.06	1687.53
801.23	1652.71
801.41	1708.01
801.58	1687.53
801.75	1687.53
801.93	1775.59
802.10	1802.21
802.28	1681.38
802.45	1710.05
802.63	1789.92
802.80	1820.64
802.97	1662.95
803.15	1695.72
803.32	1748.97
803.50	1681.38
803.67	1640.42
803.84	1638.38
804.02	1660.90
804.19	1683.43
804.37	1636.33
804.54	1630.18
804.71	1697.77
804.89	1658.85
805.06	1671.14
805.24	1669.09
805.41	1605.61
805.58	1685.48
805.76	1787.88
805.93	1667.05
806.10	1771.49
806.28	1708.01
806.45	1720.29
806.63	1687.53
806.80	1730.53
806.97	1771.49
807.15	1679.33
807.32	1687.53
807.49	1710.05
807.67	1695.72
807.84	1775.59
808.01	1583.08
808.19	1851.36
808.36	1824.74
808.54	1726.44
808.71	1615.85
808.88	1716.20
809.06	1757.16
809.23	1820.64
809.40	1656.81
809.58	1779.68
809.75	1675.24
809.92	1683.43
810.10	1810.40
810.27	1710.05
810.44	1630.18
810.62	1693.67
810.79	1695.72
810.96	1683.43
811.14	1701.86
811.31	1724.39
811.48	1781.73
811.66	1722.34
811.83	1779.68
812.00	1746.92
812.18	1656.81
812.35	1839.08
812.52	1736.68
812.69	1642.47
812.87	1701.86
813.04	1628.14
813.21	1703.91
813.39	1636.33
813.56	1593.32
813.73	1728.49
813.91	1640.42
814.08	1730.53
814.25	1722.34
814.42	1628.14
814.60	1708.01
814.77	1736.68
814.94	1697.77
815.12	1685.48
815.29	1697.77
815.46	1656.81
815.63	1722.34
815.81	1681.38
815.98	1689.57
816.15	1759.21
816.33	1669.09
816.50	1644.52
816.67	1677.29
816.84	1638.38
817.02	1646.57
817.19	1695.72
817.36	1710.05
817.53	1724.39
817.71	1581.03
817.88	1728.49
818.05	1705.96
818.22	1669.09
818.40	1849.32
818.57	1667.05
818.74	1671.14
818.91	1716.20
819.09	1697.77
819.26	1816.55
819.43	1656.81
819.60	1695.72
819.78	1705.96
819.95	1837.03
820.12	1667.05
820.29	1693.67
820.47	1791.97
820.64	1679.33
820.81	1652.71
820.98	1587.18
821.15	1703.91
821.33	1748.97
821.50	1603.56
821.67	1740.77
821.84	1673.19
822.02	1669.09
822.19	1689.57
822.36	1693.67
822.53	1701.86
822.70	1636.33
822.88	1734.63
823.05	1796.07
823.22	1703.91
823.39	1800.16
823.56	1679.33
823.74	1783.78
823.91	1665.00
824.08	1626.09
824.25	1656.81
824.42	1730.53
824.60	1626.09
824.77	1787.88
824.94	1615.85
825.11	1699.81
825.28	1624.04
825.45	1683.43
825.63	1720.29
825.80	1568.74
825.97	1714.15
826.14	1687.53
826.31	1595.37
826.48	1691.62
826.66	1609.70
826.83	1630.18
827.00	1691.62
827.17	1667.05
827.34	1665.00
827.51	1673.19
827.69	1665.00
827.86	1603.56
828.03	1691.62
828.20	1685.48
828.37	1648.61
828.54	1697.77
828.71	1644.52
828.89	1785.83
829.06	1744.87
829.23	1728.49
829.40	1689.57
829.57	1650.66
829.74	1759.21
829.91	1724.39
830.09	1615.85
830.26	1738.73
830.43	1779.68
830.60	1646.57
830.77	1730.53
830.94	1714.15
831.11	1757.16
831.28	1652.71
831.46	1763.30
831.63	1660.90
831.80	1716.20
831.97	1681.38
832.14	1718.25
832.31	1687.53
832.48	1693.67
832.65	1742.82
832.82	1708.01
832.99	1644.52
833.17	1675.24
833.34	1759.21
833.51	1777.64
833.68	1552.36
833.85	1763.30
834.02	1669.09
834.19	1632.23
834.36	1679.33
834.53	1714.15
834.70	1716.20
834.87	1689.57
835.04	1691.62
835.22	1609.70
835.39	1716.20
835.56	1609.70
835.73	1667.05
835.90	1757.16
836.07	1626.09
836.24	1742.82
836.41	1595.37
836.58	1759.21
836.75	1761.25
836.92	1740.77
837.09	1648.61
837.26	1662.95
837.43	1728.49
837.60	1619.94
837.77	1652.71
837.94	1767.40
838.12	1748.97
838.29	1693.67
838.46	1675.24
838.63	1683.43
838.80	1763.30
838.97	1724.39
839.14	1705.96
839.31	1615.85
839.48	1738.73
839.65	1683.43
839.82	1609.70
839.99	1773.54
840.16	1746.92
840.33	1685.48
840.50	1665.00
840.67	1619.94
840.84	1628.14
841.01	1726.44
841.18	1732.58
841.35	1703.91
841.52	1701.86
841.69	1773.54
841.86	1683.43
842.03	1701.86
842.20	1791.97
842.37	1730.53
842.54	1730.53
842.71	1685.48
842.88	1669.09
843.05	1730.53
843.22	1734.63
843.39	1732.58
843.56	1640.42
843.73	1718.25
843.90	1728.49
844.07	1693.67
844.24	1681.38
844.41	1728.49
844.58	1716.20
844.75	1710.05
844.92	1736.68
845.09	1619.94
845.26	1621.99
845.43	1648.61
845.60	1732.58
845.77	1763.30
845.94	1763.30
846.10	1726.44
846.27	1722.34
846.44	1648.61
846.61	1591.27
846.78	1687.53
846.95	1834.98
847.12	1607.66
847.29	1691.62
847.46	1677.29
847.63	1691.62
847.80	1613.80
847.97	1718.25
848.14	1822.69
848.31	1685.48
848.48	1613.80
848.65	1681.38
848.82	1617.90
848.98	1808.36
849.15	1681.38
849.32	1699.81
849.49	1718.25
849.66	1689.57
849.83	1730.53
850.00	1609.70
850.17	1681.38
850.34	1660.90
850.51	1652.71
850.68	1748.97
850.85	1820.64
851.01	1730.53
851.18	1716.20
851.35	1746.92
851.52	1783.78
851.69	1773.54
851.86	1617.90
852.03	1693.67
852.20	1785.83
852.37	1646.57
852.53	1578.98
852.70	1734.63
852.87	1634.28
853.04	1742.82
853.21	1742.82
853.38	1757.16
853.55	1794.02
853.72	1724.39
853.89	1644.52
854.05	1748.97
854.22	1624.04
854.39	1673.19
854.56	1722.34
854.73	1767.40
854.90	1593.32
855.07	1683.43
855.23	1679.33
855.40	1712.10
855.57	1683.43
855.74	1597.42
855.91	1898.47
856.08	1660.90
856.25	1570.79
856.41	1581.03
856.58	1601.51
856.75	1705.96
856.92	1628.14
857.09	1724.39
857.26	1621.99
857.42	1724.39
857.59	1755.11
857.76	1615.85
857.93	1761.25
858.10	1697.77
858.27	1689.57
858.43	1662.95
858.60	1677.29
858.77	1640.42
858.94	1660.90
859.11	1730.53
859.27	1718.25
859.44	1730.53
859.61	1740.77
859.78	1718.25
859.95	1714.15
860.12	1708.01
860.28	1787.88
860.45	1804.26
860.62	1662.95
860.79	1777.64
860.95	1736.68
861.12	1705.96
861.29	1675.24
861.46	1730.53
861.63	1673.19
861.79	1662.95
861.96	1599.46
862.13	1632.23
862.30	1789.92
862.47	1669.09
862.63	1605.61
862.80	1820.64
862.97	1755.11
863.14	1736.68
863.30	1675.24
863.47	1693.67
863.64	1791.97
863.81	1665.00
863.97	1628.14
864.14	1697.77
864.31	1746.92
864.48	1761.25
864.65	1681.38
864.81	1753.06
864.98	1675.24
865.15	1759.21
865.32	1718.25
865.48	1742.82
865.65	1757.16
865.82	1624.04
865.98	1675.24
866.15	1767.40
866.32	1791.97
866.49	1681.38
866.65	1718.25
866.82	1628.14
866.99	1730.53
867.16	1626.09
867.32	1619.94
867.49	1714.15
867.66	1712.10
867.83	1708.01
867.99	1607.66
868.16	1642.47
868.33	1689.57
868.49	1679.33
868.66	1699.81
868.83	1779.68
868.99	1722.34
869.16	1691.62
869.33	1765.35
869.50	1775.59
869.66	1705.96
869.83	1722.34
870.00	1648.61
870.16	1701.86
870.33	1677.29
870.50	1669.09
870.66	1726.44
870.83	1783.78
871.00	1642.47
871.17	1720.29
871.33	1736.68
871.50	1572.84
871.67	1681.38
871.83	1607.66
872.00	1800.16
872.17	1634.28
872.33	1828.84
872.50	1779.68
872.67	1640.42
872.83	1728.49
873.00	1687.53
873.17	1693.67
873.33	1744.87
873.50	1697.77
873.67	1634.28
873.83	1652.71
874.00	1701.86
874.16	1708.01
874.33	1730.53
874.50	1648.61
874.66	1738.73
874.83	1740.77
875.00	1802.21
875.16	1742.82
875.33	1710.05
875.50	1601.51
875.66	1677.29
875.83	1744.87
875.99	1703.91
876.16	1773.54
876.33	1624.04
876.49	1671.14
876.66	1837.03
876.83	1589.22
876.99	1652.71
877.16	1697.77
877.32	1679.33
877.49	1619.94
877.66	1769.44
877.82	1781.73
877.99	1867.75
878.15	1751.01
878.32	1701.86
878.49	1699.81
878.65	1697.77
878.82	1755.11
878.98	1638.38
879.15	1777.64
879.32	1779.68
879.48	1724.39
879.65	1718.25
879.81	1673.19
879.98	1605.61
880.15	1671.14
880.31	1740.77
880.48	1681.38
880.64	1742.82
880.81	1734.63
880.97	1748.97
881.14	1746.92
881.31	1624.04
881.47	1826.79
881.64	1675.24
881.80	1583.08
881.97	1751.01
882.13	1730.53
882.30	1613.80
882.47	1609.70
882.63	1755.11
882.80	1626.09
882.96	1656.81
883.13	1728.49
883.29	1669.09
883.46	1779.68
883.62	1806.31
883.79	1646.57
883.95	1736.68
884.12	1730.53
884.29	1695.72
884.45	1708.01
884.62	1734.63
884.78	1677.29
884.95	1773.54
885.11	1638.38
885.28	1687.53
885.44	1621.99
885.61	1728.49
885.77	1755.11
885.94	1691.62
886.10	1685.48
886.27	1751.01
886.43	1744.87
886.60	1769.44
886.76	1714.15
886.93	1634.28
887.09	1683.43
887.26	1591.27
887.42	1681.38
887.59	1673.19
887.75	1822.69
887.92	1834.98
888.08	1708.01
888.25	1804.26
888.41	1751.01
888.58	1718.25
888.74	1628.14
888.91	1665.00
>>>>>End Processed Spectral Data<<<<<
