SpectraSuite Data File
++++++++++++++++++++++++++++++++++++
Date: Mon Jun 06 13:05:57 CEST 2016
User: root
Dark Spectrum Present: No
Reference Spectrum Present: No
Number of Sampled Component Spectra: 1
Spectrometers: USB4C02835
Integration Time (usec): 100000 (USB4C02835)
Spectra Averaged: 1 (USB4C02835)
Boxcar Smoothing: 0 (USB4C02835)
Correct for Electrical Dark: No (USB4C02835)
Strobe/Lamp Enabled: No (USB4C02835)
Correct for Detector Non-linearity: No (USB4C02835)
Correct for Stray Light: No (USB4C02835)
Number of Pixels in Processed Spectrum: 3648
>>>>>Begin Processed Spectral Data<<<<<
177.47	1523.69
177.69	1523.69
177.91	1523.69
178.13	1359.85
178.36	1540.07
178.58	1695.72
178.80	1693.67
179.02	1617.90
179.24	1626.09
179.46	1665.00
179.68	1742.82
179.90	1630.18
180.13	1705.96
180.35	1718.25
180.57	1675.24
180.79	1794.02
181.01	1667.05
181.23	1828.84
181.45	1685.48
181.67	1714.15
181.90	1761.25
182.12	1634.28
182.34	1605.61
182.56	1726.44
182.78	1662.95
183.00	1630.18
183.22	1701.86
183.44	1617.90
183.66	1812.45
183.89	1861.60
184.11	1763.30
184.33	1677.29
184.55	1746.92
184.77	1748.97
184.99	1689.57
185.21	1718.25
185.43	1882.08
185.65	1646.57
185.87	1714.15
186.10	1869.80
186.32	1794.02
186.54	1691.62
186.76	1669.09
186.98	1724.39
187.20	1667.05
187.42	1665.00
187.64	1771.49
187.86	1777.64
188.08	1689.57
188.30	1644.52
188.52	1644.52
188.75	1748.97
188.97	1734.63
189.19	1662.95
189.41	1708.01
189.63	1712.10
189.85	1675.24
190.07	1587.18
190.29	1636.33
190.51	1714.15
190.73	1683.43
190.95	1734.63
191.17	1732.58
191.39	1628.14
191.61	1695.72
191.84	1730.53
192.06	1730.53
192.28	1632.23
192.50	1822.69
192.72	1701.86
192.94	1632.23
193.16	1724.39
193.38	1720.29
193.60	1718.25
193.82	1673.19
194.04	1753.06
194.26	1671.14
194.48	1781.73
194.70	1628.14
194.92	1744.87
195.14	1724.39
195.36	1624.04
195.58	1679.33
195.80	1695.72
196.02	1699.81
196.24	1665.00
196.46	1763.30
196.69	1665.00
196.91	1869.80
197.13	1726.44
197.35	1630.18
197.57	1730.53
197.79	1648.61
198.01	1746.92
198.23	1705.96
198.45	1744.87
198.67	1640.42
198.89	1734.63
199.11	1773.54
199.33	1730.53
199.55	1574.89
199.77	1667.05
199.99	1699.81
200.21	1673.19
200.43	1722.34
200.65	1613.80
200.87	1550.31
201.09	1699.81
201.31	1697.77
201.53	1785.83
201.75	1728.49
201.97	1742.82
202.19	1748.97
202.41	1740.77
202.63	1843.17
202.85	1699.81
203.07	1697.77
203.29	1640.42
203.51	1646.57
203.73	1652.71
203.95	1898.47
204.17	1761.25
204.39	1689.57
204.61	1718.25
204.83	1740.77
205.05	1705.96
205.27	1746.92
205.49	1810.40
205.71	1734.63
205.93	1660.90
206.15	1662.95
206.37	1693.67
206.59	1701.86
206.81	1693.67
207.03	1708.01
207.25	1617.90
207.47	1763.30
207.69	1658.85
207.91	1787.88
208.13	1722.34
208.34	1640.42
208.56	1650.66
208.78	1748.97
209.00	1642.47
209.22	1724.39
209.44	1673.19
209.66	1650.66
209.88	1617.90
210.10	1656.81
210.32	1662.95
210.54	1746.92
210.76	1642.47
210.98	1689.57
211.20	1628.14
211.42	1697.77
211.64	1787.88
211.86	1667.05
212.08	1759.21
212.30	1810.40
212.52	1660.90
212.74	1751.01
212.96	1675.24
213.17	1771.49
213.39	1677.29
213.61	1757.16
213.83	1679.33
214.05	1714.15
214.27	1783.78
214.49	1621.99
214.71	1697.77
214.93	1742.82
215.15	1701.86
215.37	1736.68
215.59	1603.56
215.81	1691.62
216.03	1748.97
216.24	1753.06
216.46	1705.96
216.68	1783.78
216.90	1783.78
217.12	1675.24
217.34	1714.15
217.56	1753.06
217.78	1859.56
218.00	1738.73
218.22	1734.63
218.44	1642.47
218.66	1695.72
218.87	1843.17
219.09	1724.39
219.31	1738.73
219.53	1705.96
219.75	1701.86
219.97	1740.77
220.19	1667.05
220.41	1730.53
220.63	1722.34
220.85	1740.77
221.06	1677.29
221.28	1740.77
221.50	1789.92
221.72	1699.81
221.94	1720.29
222.16	1677.29
222.38	1699.81
222.60	1714.15
222.82	1626.09
223.03	1703.91
223.25	1640.42
223.47	1681.38
223.69	1832.93
223.91	1703.91
224.13	1744.87
224.35	1689.57
224.57	1705.96
224.78	1777.64
225.00	1658.85
225.22	1683.43
225.44	1697.77
225.66	1708.01
225.88	1685.48
226.10	1744.87
226.32	1738.73
226.53	1853.41
226.75	1681.38
226.97	1638.38
227.19	1714.15
227.41	1523.69
227.63	1701.86
227.85	1601.51
228.06	1738.73
228.28	1710.05
228.50	1744.87
228.72	1685.48
228.94	1701.86
229.16	1597.42
229.37	1693.67
229.59	1628.14
229.81	1789.92
230.03	1638.38
230.25	1648.61
230.47	1554.41
230.69	1675.24
230.90	1830.88
231.12	1640.42
231.34	1710.05
231.56	1728.49
231.78	1742.82
232.00	1691.62
232.21	1689.57
232.43	1587.18
232.65	1570.79
232.87	1724.39
233.09	1710.05
233.30	1636.33
233.52	1730.53
233.74	1701.86
233.96	1681.38
234.18	1697.77
234.40	1687.53
234.61	1820.64
234.83	1624.04
235.05	1675.24
235.27	1820.64
235.49	1806.31
235.70	1712.10
235.92	1763.30
236.14	1687.53
236.36	1886.18
236.58	1689.57
236.79	1718.25
237.01	1705.96
237.23	1650.66
237.45	1787.88
237.67	1624.04
237.88	1746.92
238.10	1832.93
238.32	1687.53
238.54	1642.47
238.76	1714.15
238.97	1572.84
239.19	1669.09
239.41	1720.29
239.63	1820.64
239.85	1720.29
240.06	1681.38
240.28	1697.77
240.50	1718.25
240.72	1665.00
240.93	1705.96
241.15	1753.06
241.37	1767.40
241.59	1794.02
241.81	1783.78
242.02	1675.24
242.24	1675.24
242.46	1658.85
242.68	1718.25
242.89	1677.29
243.11	1660.90
243.33	1669.09
243.55	1775.59
243.76	1740.77
243.98	1695.72
244.20	1636.33
244.42	1673.19
244.64	1740.77
244.85	1640.42
245.07	1656.81
245.29	1722.34
245.51	1742.82
245.72	1716.20
245.94	1755.11
246.16	1773.54
246.38	1789.92
246.59	1691.62
246.81	1693.67
247.03	1732.58
247.24	1624.04
247.46	1642.47
247.68	1662.95
247.90	1652.71
248.11	1634.28
248.33	1722.34
248.55	1718.25
248.77	1693.67
248.98	1810.40
249.20	1808.36
249.42	1708.01
249.64	1681.38
249.85	1626.09
250.07	1669.09
250.29	1662.95
250.50	1689.57
250.72	1611.75
250.94	1665.00
251.16	1783.78
251.37	1773.54
251.59	1734.63
251.81	1791.97
252.02	1701.86
252.24	1685.48
252.46	1787.88
252.68	1673.19
252.89	1697.77
253.11	1636.33
253.33	1740.77
253.54	1691.62
253.76	1665.00
253.98	1648.61
254.20	1656.81
254.41	1626.09
254.63	1691.62
254.85	1640.42
255.06	1665.00
255.28	1761.25
255.50	1687.53
255.71	1648.61
255.93	1632.23
256.15	1667.05
256.36	1708.01
256.58	1689.57
256.80	1728.49
257.02	1714.15
257.23	1726.44
257.45	1656.81
257.67	1699.81
257.88	1665.00
258.10	1685.48
258.32	1806.31
258.53	1656.81
258.75	1804.26
258.97	1650.66
259.18	1699.81
259.40	1665.00
259.62	1841.12
259.83	1849.32
260.05	1722.34
260.27	2009.06
260.48	1798.12
260.70	1593.32
260.92	1693.67
261.13	1652.71
261.35	1757.16
261.57	1695.72
261.78	1617.90
262.00	1681.38
262.22	1738.73
262.43	1718.25
262.65	1683.43
262.86	1697.77
263.08	1798.12
263.30	1796.07
263.51	1607.66
263.73	1634.28
263.95	1796.07
264.16	1648.61
264.38	1673.19
264.60	1746.92
264.81	1617.90
265.03	1769.44
265.25	1699.81
265.46	1746.92
265.68	1794.02
265.89	1744.87
266.11	1605.61
266.33	1812.45
266.54	1734.63
266.76	1722.34
266.98	1691.62
267.19	1787.88
267.41	1757.16
267.62	1701.86
267.84	1601.51
268.06	1716.20
268.27	1757.16
268.49	1724.39
268.70	1808.36
268.92	1718.25
269.14	1626.09
269.35	1679.33
269.57	1742.82
269.79	1789.92
270.00	1595.37
270.22	1769.44
270.43	1605.61
270.65	1611.75
270.87	1689.57
271.08	1746.92
271.30	1798.12
271.51	1742.82
271.73	1658.85
271.95	1757.16
272.16	1740.77
272.38	1669.09
272.59	1597.42
272.81	1693.67
273.02	1691.62
273.24	1705.96
273.46	1773.54
273.67	1644.52
273.89	1636.33
274.10	1665.00
274.32	1724.39
274.54	1730.53
274.75	1687.53
274.97	1673.19
275.18	1755.11
275.40	1724.39
275.61	1724.39
275.83	1742.82
276.05	1679.33
276.26	1724.39
276.48	1740.77
276.69	1673.19
276.91	1638.38
277.12	1691.62
277.34	1742.82
277.55	1748.97
277.77	1703.91
277.99	1650.66
278.20	1654.76
278.42	1601.51
278.63	1607.66
278.85	1642.47
279.06	1591.27
279.28	1687.53
279.49	1724.39
279.71	1677.29
279.93	1685.48
280.14	1701.86
280.36	1626.09
280.57	1677.29
280.79	1744.87
281.00	1636.33
281.22	1591.27
281.43	1787.88
281.65	1691.62
281.86	1636.33
282.08	1714.15
282.29	1806.31
282.51	1619.94
282.73	1605.61
282.94	1660.90
283.16	1730.53
283.37	1771.49
283.59	1726.44
283.80	1708.01
284.02	1681.38
284.23	1677.29
284.45	1673.19
284.66	1628.14
284.88	1714.15
285.09	1742.82
285.31	1759.21
285.52	1716.20
285.74	1681.38
285.95	1697.77
286.17	1665.00
286.38	1740.77
286.60	1677.29
286.81	1644.52
287.03	1689.57
287.24	1615.85
287.46	1738.73
287.67	1726.44
287.89	1816.55
288.10	1624.04
288.32	1746.92
288.53	1781.73
288.75	1724.39
288.96	1720.29
289.18	1636.33
289.39	1779.68
289.61	1716.20
289.82	1820.64
290.04	1869.80
290.25	1599.46
290.47	1796.07
290.68	1718.25
290.90	1728.49
291.11	1619.94
291.33	1755.11
291.54	1660.90
291.76	1621.99
291.97	1705.96
292.18	1626.09
292.40	1734.63
292.61	1654.76
292.83	1812.45
293.04	1720.29
293.26	1746.92
293.47	1615.85
293.69	1650.66
293.90	1728.49
294.12	1796.07
294.33	1724.39
294.55	1757.16
294.76	1736.68
294.97	1718.25
295.19	1834.98
295.40	1722.34
295.62	1730.53
295.83	1765.35
296.05	1593.32
296.26	1734.63
296.48	1607.66
296.69	1638.38
296.90	1703.91
297.12	1783.78
297.33	1761.25
297.55	1636.33
297.76	1718.25
297.98	1705.96
298.19	1757.16
298.41	1685.48
298.62	1585.13
298.83	1787.88
299.05	1691.62
299.26	1660.90
299.48	1611.75
299.69	1769.44
299.90	1724.39
300.12	1658.85
300.33	1720.29
300.55	1730.53
300.76	1740.77
300.98	1640.42
301.19	1779.68
301.40	1685.48
301.62	1738.73
301.83	1697.77
302.05	1665.00
302.26	1781.73
302.47	1656.81
302.69	1681.38
302.90	1615.85
303.12	1644.52
303.33	1681.38
303.54	1830.88
303.76	1642.47
303.97	1763.30
304.19	1771.49
304.40	1642.47
304.61	1742.82
304.83	1884.13
305.04	1773.54
305.26	1699.81
305.47	1691.62
305.68	1695.72
305.90	1697.77
306.11	1699.81
306.33	1769.44
306.54	1671.14
306.75	1726.44
306.97	1615.85
307.18	1632.23
307.39	1689.57
307.61	1691.62
307.82	1718.25
308.04	1634.28
308.25	1626.09
308.46	1746.92
308.68	1712.10
308.89	1726.44
309.10	1783.78
309.32	1728.49
309.53	1734.63
309.74	1726.44
309.96	1679.33
310.17	1738.73
310.39	1718.25
310.60	1691.62
310.81	1697.77
311.03	1628.14
311.24	1765.35
311.45	1722.34
311.67	1837.03
311.88	1753.06
312.09	1634.28
312.31	1650.66
312.52	1763.30
312.73	1677.29
312.95	1712.10
313.16	1640.42
313.37	1767.40
313.59	1744.87
313.80	1708.01
314.01	1802.21
314.23	1679.33
314.44	1630.18
314.65	1640.42
314.87	1593.32
315.08	1671.14
315.29	1671.14
315.51	1665.00
315.72	1613.80
315.93	1794.02
316.15	1634.28
316.36	1665.00
316.57	1740.77
316.79	1701.86
317.00	1650.66
317.21	1746.92
317.43	1718.25
317.64	1685.48
317.85	1687.53
318.07	1642.47
318.28	1695.72
318.49	1746.92
318.70	1886.18
318.92	1802.21
319.13	1744.87
319.34	1871.84
319.56	1783.78
319.77	1757.16
319.98	1863.65
320.20	1896.42
320.41	1771.49
320.62	1746.92
320.83	1705.96
321.05	1880.04
321.26	1710.05
321.47	1624.04
321.69	1742.82
321.90	1642.47
322.11	1652.71
322.32	1703.91
322.54	1759.21
322.75	1654.76
322.96	1787.88
323.18	1665.00
323.39	1601.51
323.60	1628.14
323.81	1710.05
324.03	1751.01
324.24	1759.21
324.45	1677.29
324.66	1697.77
324.88	1761.25
325.09	1779.68
325.30	1660.90
325.52	1751.01
325.73	1695.72
325.94	1568.74
326.15	1581.03
326.37	1687.53
326.58	1701.86
326.79	1714.15
327.00	1634.28
327.22	1771.49
327.43	1630.18
327.64	1607.66
327.85	1800.16
328.07	1755.11
328.28	1841.12
328.49	1705.96
328.70	1710.05
328.92	1603.56
329.13	1695.72
329.34	1751.01
329.55	1808.36
329.76	1796.07
329.98	1771.49
330.19	1785.83
330.40	1753.06
330.61	1697.77
330.83	1759.21
331.04	1665.00
331.25	1732.58
331.46	1767.40
331.68	1642.47
331.89	1748.97
332.10	1759.21
332.31	1591.27
332.52	1736.68
332.74	1824.74
332.95	1556.46
333.16	1656.81
333.37	1773.54
333.58	1685.48
333.80	1730.53
334.01	1585.13
334.22	1705.96
334.43	1689.57
334.64	1730.53
334.86	1611.75
335.07	1611.75
335.28	1730.53
335.49	1632.23
335.70	1779.68
335.92	1736.68
336.13	1787.88
336.34	1783.78
336.55	1675.24
336.76	1681.38
336.98	1568.74
337.19	1646.57
337.40	1794.02
337.61	1865.70
337.82	1683.43
338.04	1703.91
338.25	1662.95
338.46	1761.25
338.67	1673.19
338.88	1624.04
339.09	1642.47
339.31	1601.51
339.52	1656.81
339.73	1648.61
339.94	1626.09
340.15	1691.62
340.36	1697.77
340.58	1720.29
340.79	1603.56
341.00	1742.82
341.21	1665.00
341.42	1830.88
341.63	1632.23
341.85	1763.30
342.06	1671.14
342.27	1689.57
342.48	1710.05
342.69	1558.50
342.90	1755.11
343.12	1648.61
343.33	1718.25
343.54	1791.97
343.75	1724.39
343.96	1638.38
344.17	1691.62
344.38	1671.14
344.60	1652.71
344.81	1656.81
345.02	1667.05
345.23	1746.92
345.44	1789.92
345.65	1765.35
345.86	1781.73
346.07	1722.34
346.29	1691.62
346.50	1742.82
346.71	1689.57
346.92	1806.31
347.13	1949.67
347.34	1591.27
347.55	1673.19
347.76	1703.91
347.98	1589.22
348.19	1636.33
348.40	1771.49
348.61	1685.48
348.82	1818.60
349.03	1773.54
349.24	1624.04
349.45	1773.54
349.66	1615.85
349.88	1763.30
350.09	1705.96
350.30	1789.92
350.51	1771.49
350.72	1759.21
350.93	1642.47
351.14	1681.38
351.35	1810.40
351.56	1726.44
351.77	1595.37
351.99	1726.44
352.20	1816.55
352.41	1703.91
352.62	1644.52
352.83	1732.58
353.04	1650.66
353.25	1675.24
353.46	1738.73
353.67	1812.45
353.88	1595.37
354.09	1716.20
354.30	1673.19
354.52	1748.97
354.73	1708.01
354.94	1705.96
355.15	1716.20
355.36	1759.21
355.57	1597.42
355.78	1742.82
355.99	1677.29
356.20	1703.91
356.41	1765.35
356.62	1716.20
356.83	1746.92
357.04	1808.36
357.25	1656.81
357.46	1667.05
357.68	1619.94
357.89	1687.53
358.10	1728.49
358.31	1605.61
358.52	1640.42
358.73	1597.42
358.94	1701.86
359.15	1677.29
359.36	1771.49
359.57	1658.85
359.78	1669.09
359.99	1699.81
360.20	1681.38
360.41	1695.72
360.62	1789.92
360.83	1673.19
361.04	1773.54
361.25	1681.38
361.46	1871.84
361.67	1621.99
361.88	1759.21
362.09	1789.92
362.30	1681.38
362.51	1710.05
362.72	1640.42
362.93	1726.44
363.14	1755.11
363.35	1699.81
363.56	1691.62
363.78	1757.16
363.99	1699.81
364.20	1673.19
364.41	1705.96
364.62	1794.02
364.83	1705.96
365.04	1673.19
365.25	1720.29
365.46	1732.58
365.67	1583.08
365.88	1574.89
366.09	1646.57
366.30	1744.87
366.51	1720.29
366.72	1591.27
366.93	1720.29
367.14	1667.05
367.35	1806.31
367.56	1699.81
367.77	1779.68
367.98	1720.29
368.18	1701.86
368.39	1703.91
368.60	1634.28
368.81	1732.58
369.02	1763.30
369.23	1689.57
369.44	1624.04
369.65	1736.68
369.86	1697.77
370.07	1746.92
370.28	1697.77
370.49	1673.19
370.70	1708.01
370.91	1609.70
371.12	1673.19
371.33	1771.49
371.54	1691.62
371.75	1828.84
371.96	1527.78
372.17	1701.86
372.38	1693.67
372.59	1775.59
372.80	1660.90
373.01	1671.14
373.22	1705.96
373.43	1767.40
373.64	1673.19
373.85	1765.35
374.06	1865.70
374.26	1693.67
374.47	1755.11
374.68	1755.11
374.89	1716.20
375.10	1701.86
375.31	1861.60
375.52	1734.63
375.73	1779.68
375.94	1630.18
376.15	1783.78
376.36	1705.96
376.57	1654.76
376.78	1679.33
376.99	1638.38
377.20	1740.77
377.40	1722.34
377.61	1732.58
377.82	1613.80
378.03	1759.21
378.24	1742.82
378.45	1701.86
378.66	1722.34
378.87	1609.70
379.08	1603.56
379.29	1691.62
379.50	1640.42
379.71	1656.81
379.91	1783.78
380.12	1695.72
380.33	1675.24
380.54	1665.00
380.75	1708.01
380.96	1759.21
381.17	1802.21
381.38	1787.88
381.59	1695.72
381.80	1736.68
382.00	1871.84
382.21	1720.29
382.42	1806.31
382.63	1822.69
382.84	1765.35
383.05	1740.77
383.26	1775.59
383.47	1773.54
383.68	1761.25
383.88	1714.15
384.09	1701.86
384.30	1767.40
384.51	1773.54
384.72	1714.15
384.93	1603.56
385.14	1681.38
385.35	1773.54
385.55	1576.94
385.76	1740.77
385.97	1710.05
386.18	1640.42
386.39	1691.62
386.60	1746.92
386.81	1687.53
387.02	1685.48
387.22	1652.71
387.43	1802.21
387.64	1785.83
387.85	1900.52
388.06	2160.61
388.27	4159.42
388.48	6829.98
388.68	8275.84
388.89	9561.97
389.10	9834.35
389.31	8695.68
389.52	7557.00
389.73	6875.03
389.93	6268.83
390.14	5875.62
390.35	5193.65
390.56	4530.11
390.77	3692.49
390.98	2975.70
391.18	2559.96
391.39	2164.70
391.60	1818.60
391.81	1886.18
392.02	1763.30
392.23	1828.84
392.43	1744.87
392.64	1785.83
392.85	1732.58
393.06	1837.03
393.27	1767.40
393.47	1658.85
393.68	1679.33
393.89	1652.71
394.10	1742.82
394.31	1757.16
394.52	1705.96
394.72	1658.85
394.93	1763.30
395.14	1574.89
395.35	1761.25
395.56	1687.53
395.76	1716.20
395.97	1855.46
396.18	1787.88
396.39	1884.13
396.60	2002.91
396.80	1931.23
397.01	1828.84
397.22	1882.08
397.43	1832.93
397.64	1742.82
397.84	1796.07
398.05	1867.75
398.26	1740.77
398.47	1820.64
398.67	1769.44
398.88	1697.77
399.09	1697.77
399.30	1691.62
399.51	1660.90
399.71	1656.81
399.92	1765.35
400.13	1677.29
400.34	1765.35
400.54	1669.09
400.75	1785.83
400.96	1748.97
401.17	1828.84
401.37	1716.20
401.58	1773.54
401.79	1738.73
402.00	1853.41
402.21	1951.71
402.41	1953.76
402.62	1972.19
402.83	1990.63
403.04	1984.48
403.24	1996.77
403.45	1853.41
403.66	1914.85
403.87	1896.42
404.07	1908.71
404.28	1892.32
404.49	1931.23
404.70	1777.64
404.90	1841.12
405.11	1701.86
405.32	1734.63
405.52	1628.14
405.73	1646.57
405.94	1748.97
406.15	1718.25
406.35	1785.83
406.56	1738.73
406.77	1757.16
406.98	1769.44
407.18	1691.62
407.39	1851.36
407.60	1681.38
407.80	1748.97
408.01	1658.85
408.22	1740.77
408.43	1673.19
408.63	1755.11
408.84	1769.44
409.05	1796.07
409.25	1732.58
409.46	1677.29
409.67	1667.05
409.88	1773.54
410.08	1693.67
410.29	1689.57
410.50	1689.57
410.70	1714.15
410.91	1617.90
411.12	1642.47
411.32	1710.05
411.53	1656.81
411.74	1765.35
411.95	1734.63
412.15	1740.77
412.36	1783.78
412.57	1652.71
412.77	1808.36
412.98	1683.43
413.19	1765.35
413.39	1736.68
413.60	1771.49
413.81	1783.78
414.01	1683.43
414.22	1767.40
414.43	1787.88
414.63	1708.01
414.84	1748.97
415.05	1636.33
415.25	1640.42
415.46	1814.50
415.67	1656.81
415.87	1710.05
416.08	1779.68
416.29	1654.76
416.49	1744.87
416.70	1716.20
416.91	1703.91
417.11	1640.42
417.32	1730.53
417.53	1728.49
417.73	1720.29
417.94	1746.92
418.15	1738.73
418.35	1728.49
418.56	1726.44
418.77	1912.80
418.97	1708.01
419.18	1755.11
419.38	1564.65
419.59	1681.38
419.80	1888.23
420.00	1705.96
420.21	1712.10
420.42	1716.20
420.62	1720.29
420.83	1712.10
421.04	1736.68
421.24	1667.05
421.45	1714.15
421.65	1773.54
421.86	1607.66
422.07	1667.05
422.27	1677.29
422.48	1720.29
422.69	1681.38
422.89	1718.25
423.10	1720.29
423.30	1654.76
423.51	1695.72
423.72	1673.19
423.92	1728.49
424.13	1603.56
424.33	1736.68
424.54	1779.68
424.75	1705.96
424.95	1810.40
425.16	1755.11
425.36	1738.73
425.57	1595.37
425.78	1689.57
425.98	1693.67
426.19	1703.91
426.39	1652.71
426.60	1705.96
426.81	1828.84
427.01	1669.09
427.22	1566.70
427.42	1605.61
427.63	1642.47
427.83	1814.50
428.04	1744.87
428.25	1814.50
428.45	1798.12
428.66	1738.73
428.86	1656.81
429.07	1736.68
429.28	1785.83
429.48	1708.01
429.69	1648.61
429.89	1687.53
430.10	1677.29
430.30	1724.39
430.51	1775.59
430.71	1703.91
430.92	1738.73
431.13	1652.71
431.33	1791.97
431.54	1765.35
431.74	1849.32
431.95	1830.88
432.15	1656.81
432.36	1767.40
432.56	1746.92
432.77	1779.68
432.98	1820.64
433.18	1699.81
433.39	1722.34
433.59	1691.62
433.80	1775.59
434.00	1843.17
434.21	1722.34
434.41	1705.96
434.62	1783.78
434.82	1671.14
435.03	1609.70
435.23	1730.53
435.44	1628.14
435.64	1757.16
435.85	1767.40
436.06	1748.97
436.26	1779.68
436.47	1710.05
436.67	1621.99
436.88	1695.72
437.08	1718.25
437.29	1755.11
437.49	1753.06
437.70	1787.88
437.90	1771.49
438.11	1771.49
438.31	1828.84
438.52	1847.27
438.72	1773.54
438.93	1880.04
439.13	1847.27
439.34	1783.78
439.54	1767.40
439.75	1888.23
439.95	1769.44
440.16	1642.47
440.36	1730.53
440.57	1812.45
440.77	1771.49
440.98	1712.10
441.18	1839.08
441.39	1624.04
441.59	1601.51
441.80	1814.50
442.00	1669.09
442.21	1814.50
442.41	1697.77
442.62	1748.97
442.82	1681.38
443.02	1738.73
443.23	1796.07
443.43	1667.05
443.64	1740.77
443.84	1671.14
444.05	1796.07
444.25	1714.15
444.46	1732.58
444.66	1701.86
444.87	1787.88
445.07	1695.72
445.28	1732.58
445.48	1800.16
445.69	1800.16
445.89	1882.08
446.09	1837.03
446.30	2060.26
446.50	2658.26
446.71	3698.63
446.91	4288.45
447.12	4685.75
447.32	4853.69
447.53	4474.81
447.73	3925.96
447.93	3528.65
448.14	3313.61
448.34	3139.54
448.55	2967.51
448.75	2844.63
448.96	2764.76
449.16	2389.98
449.36	2228.19
449.57	2041.82
449.77	1877.99
449.98	1787.88
450.18	1869.80
450.39	1791.97
450.59	1691.62
450.79	1708.01
451.00	1710.05
451.20	1744.87
451.41	1724.39
451.61	1718.25
451.81	1740.77
452.02	1771.49
452.22	1667.05
452.43	1681.38
452.63	1658.85
452.84	1767.40
453.04	1720.29
453.24	1691.62
453.45	1771.49
453.65	1722.34
453.86	1710.05
454.06	1738.73
454.26	1783.78
454.47	1685.48
454.67	1806.31
454.87	1759.21
455.08	1705.96
455.28	1814.50
455.49	1802.21
455.69	1683.43
455.89	1847.27
456.10	1785.83
456.30	1640.42
456.51	1775.59
456.71	1765.35
456.91	1818.60
457.12	1861.60
457.32	1816.55
457.52	1722.34
457.73	1771.49
457.93	1771.49
458.14	1783.78
458.34	1603.56
458.54	1701.86
458.75	1642.47
458.95	1740.77
459.15	1705.96
459.36	1769.44
459.56	1751.01
459.76	1890.28
459.97	1751.01
460.17	1732.58
460.37	1783.78
460.58	1718.25
460.78	1712.10
460.99	1732.58
461.19	1732.58
461.39	1695.72
461.60	1687.53
461.80	1787.88
462.00	1726.44
462.21	1759.21
462.41	1624.04
462.61	1630.18
462.82	1675.24
463.02	1806.31
463.22	1755.11
463.43	1767.40
463.63	1683.43
463.83	1806.31
464.04	1722.34
464.24	1767.40
464.44	1744.87
464.64	1736.68
464.85	1675.24
465.05	1783.78
465.25	1716.20
465.46	1738.73
465.66	1781.73
465.86	1746.92
466.07	1720.29
466.27	1660.90
466.47	1691.62
466.68	1683.43
466.88	1845.22
467.08	1763.30
467.29	1798.12
467.49	1734.63
467.69	1667.05
467.89	1720.29
468.10	1677.29
468.30	1757.16
468.50	1843.17
468.71	1781.73
468.91	1669.09
469.11	1837.03
469.31	1787.88
469.52	1642.47
469.72	1845.22
469.92	1886.18
470.13	1687.53
470.33	1693.67
470.53	1814.50
470.73	2086.88
470.94	2236.38
471.14	2322.40
471.34	2572.25
471.54	2406.36
471.75	2248.67
471.95	2211.81
472.15	2041.82
472.36	2119.65
472.56	2160.61
472.76	2062.30
472.96	1988.58
473.17	1867.75
473.37	1910.75
473.57	1871.84
473.77	1851.36
473.98	1744.87
474.18	1722.34
474.38	1851.36
474.58	1669.09
474.79	1775.59
474.99	1800.16
475.19	1712.10
475.39	1720.29
475.60	1755.11
475.80	1714.15
476.00	1734.63
476.20	1628.14
476.41	1787.88
476.61	1824.74
476.81	1767.40
477.01	1681.38
477.21	1816.55
477.42	1794.02
477.62	1648.61
477.82	1761.25
478.02	1662.95
478.23	1773.54
478.43	1691.62
478.63	1722.34
478.83	1677.29
479.03	1761.25
479.24	1781.73
479.44	1757.16
479.64	1642.47
479.84	1595.37
480.04	1685.48
480.25	1791.97
480.45	1650.66
480.65	1789.92
480.85	1802.21
481.06	1718.25
481.26	1658.85
481.46	1708.01
481.66	1695.72
481.86	1632.23
482.06	1869.80
482.27	1734.63
482.47	1744.87
482.67	1734.63
482.87	1681.38
483.07	1730.53
483.28	1722.34
483.48	1662.95
483.68	1693.67
483.88	1675.24
484.08	1574.89
484.29	1656.81
484.49	1714.15
484.69	1632.23
484.89	1767.40
485.09	1757.16
485.29	1738.73
485.50	1773.54
485.70	1714.15
485.90	1728.49
486.10	1714.15
486.30	1787.88
486.50	1705.96
486.71	1718.25
486.91	1714.15
487.11	1814.50
487.31	1669.09
487.51	1710.05
487.71	1744.87
487.91	1714.15
488.12	1638.38
488.32	1601.51
488.52	1626.09
488.72	1642.47
488.92	1742.82
489.12	1798.12
489.32	1779.68
489.53	1699.81
489.73	1595.37
489.93	1763.30
490.13	1705.96
490.33	1634.28
490.53	1761.25
490.73	1710.05
490.94	1648.61
491.14	1806.31
491.34	1794.02
491.54	2027.49
491.74	2611.16
491.94	2797.53
492.14	2998.23
492.34	3076.05
492.54	2701.27
492.75	2506.71
492.95	2422.75
493.15	2301.92
493.35	2250.72
493.55	2246.62
493.75	2088.93
493.95	2125.79
494.15	2007.01
494.35	1964.00
494.56	1894.37
494.76	1787.88
494.96	1757.16
495.16	1773.54
495.36	1685.48
495.56	1781.73
495.76	1744.87
495.96	1759.21
496.16	1607.66
496.36	1839.08
496.56	1761.25
496.77	1712.10
496.97	1732.58
497.17	1740.77
497.37	1677.29
497.57	1796.07
497.77	1767.40
497.97	1677.29
498.17	1779.68
498.37	1650.66
498.57	1779.68
498.77	1697.77
498.97	1777.64
499.17	1826.79
499.38	1722.34
499.58	1685.48
499.78	1873.89
499.98	1820.64
500.18	1669.09
500.38	1660.90
500.58	1927.14
500.78	2566.10
500.98	4597.69
501.18	5875.62
501.38	6883.22
501.58	7032.72
501.78	6688.67
501.98	5506.99
502.18	4825.01
502.38	4409.28
502.58	4097.99
502.78	3784.65
502.98	3520.46
503.18	3401.68
503.38	3219.41
503.59	2824.15
503.79	2570.20
503.99	2533.34
504.19	2344.92
504.39	2181.09
504.59	2183.13
504.79	2140.13
504.99	2052.06
505.19	1957.86
505.39	1896.42
505.59	1929.19
505.79	1871.84
505.99	1877.99
506.19	1834.98
506.39	1775.59
506.59	1697.77
506.79	1767.40
506.99	1800.16
507.19	1791.97
507.39	1677.29
507.59	1685.48
507.79	1671.14
507.99	1658.85
508.19	1724.39
508.39	1673.19
508.59	1804.26
508.79	1837.03
508.99	1796.07
509.19	1673.19
509.39	1837.03
509.59	1648.61
509.79	1699.81
509.99	1822.69
510.19	1759.21
510.39	1755.11
510.59	1695.72
510.79	1677.29
510.99	1705.96
511.19	1748.97
511.39	1806.31
511.59	1816.55
511.79	1740.77
511.99	1708.01
512.19	1767.40
512.38	1726.44
512.58	1728.49
512.78	1804.26
512.98	1777.64
513.18	1800.16
513.38	1624.04
513.58	1841.12
513.78	1736.68
513.98	1687.53
514.18	1687.53
514.38	1740.77
514.58	1753.06
514.78	1710.05
514.98	1732.58
515.18	1753.06
515.38	1583.08
515.58	1888.23
515.78	1716.20
515.98	1679.33
516.18	1738.73
516.38	1755.11
516.57	1718.25
516.77	1648.61
516.97	1748.97
517.17	1691.62
517.37	1677.29
517.57	1742.82
517.77	1671.14
517.97	1689.57
518.17	1796.07
518.37	1744.87
518.57	1722.34
518.77	1630.18
518.97	1705.96
519.16	1781.73
519.36	1757.16
519.56	1716.20
519.76	1673.19
519.96	1779.68
520.16	1849.32
520.36	1656.81
520.56	1730.53
520.76	1794.02
520.96	1722.34
521.16	1734.63
521.35	1748.97
521.55	1828.84
521.75	1789.92
521.95	1757.16
522.15	1662.95
522.35	1658.85
522.55	1650.66
522.75	1753.06
522.95	1761.25
523.14	1685.48
523.34	1779.68
523.54	1671.14
523.74	1791.97
523.94	1701.86
524.14	1710.05
524.34	1748.97
524.54	1720.29
524.73	1697.77
524.93	1775.59
525.13	1681.38
525.33	1644.52
525.53	1912.80
525.73	1691.62
525.93	1746.92
526.13	1761.25
526.32	1779.68
526.52	1732.58
526.72	1705.96
526.92	1734.63
527.12	1730.53
527.32	1755.11
527.52	1658.85
527.71	1697.77
527.91	1732.58
528.11	1769.44
528.31	1718.25
528.51	1669.09
528.71	1769.44
528.90	1683.43
529.10	1814.50
529.30	1798.12
529.50	1607.66
529.70	1724.39
529.90	1746.92
530.09	1740.77
530.29	1691.62
530.49	1685.48
530.69	1845.22
530.89	1785.83
531.09	1783.78
531.28	1671.14
531.48	1834.98
531.68	1718.25
531.88	1826.79
532.08	1753.06
532.28	1744.87
532.47	1783.78
532.67	1832.93
532.87	1789.92
533.07	1685.48
533.27	1777.64
533.46	1789.92
533.66	1710.05
533.86	1665.00
534.06	1710.05
534.26	1771.49
534.45	1607.66
534.65	1726.44
534.85	1804.26
535.05	1724.39
535.25	1839.08
535.44	1695.72
535.64	1875.94
535.84	1705.96
536.04	1632.23
536.24	1789.92
536.43	1685.48
536.63	1732.58
536.83	1710.05
537.03	1714.15
537.22	1689.57
537.42	1665.00
537.62	1765.35
537.82	1675.24
538.02	1839.08
538.21	1837.03
538.41	1865.70
538.61	1751.01
538.81	1703.91
539.00	1740.77
539.20	1730.53
539.40	1658.85
539.60	1673.19
539.79	1708.01
539.99	1751.01
540.19	1636.33
540.39	1759.21
540.58	1740.77
540.78	1669.09
540.98	1757.16
541.18	1781.73
541.37	1798.12
541.57	1681.38
541.77	1748.97
541.97	1691.62
542.16	1687.53
542.36	1697.77
542.56	1753.06
542.76	1904.61
542.95	1802.21
543.15	1730.53
543.35	1814.50
543.54	1701.86
543.74	1705.96
543.94	1830.88
544.14	1738.73
544.33	1734.63
544.53	1712.10
544.73	1765.35
544.93	1658.85
545.12	1703.91
545.32	1740.77
545.52	1716.20
545.71	1693.67
545.91	1693.67
546.11	1712.10
546.30	1650.66
546.50	1689.57
546.70	1781.73
546.90	1773.54
547.09	1632.23
547.29	1769.44
547.49	1779.68
547.68	1720.29
547.88	1656.81
548.08	1757.16
548.27	2150.37
548.47	1708.01
548.67	1796.07
548.87	1746.92
549.06	1685.48
549.26	1841.12
549.46	1753.06
549.65	1636.33
549.85	1781.73
550.05	1783.78
550.24	1630.18
550.44	1728.49
550.64	1716.20
550.83	1742.82
551.03	1800.16
551.23	1839.08
551.42	1742.82
551.62	1732.58
551.82	1779.68
552.01	1753.06
552.21	1724.39
552.41	1724.39
552.60	1773.54
552.80	1710.05
553.00	1740.77
553.19	1728.49
553.39	1798.12
553.59	1755.11
553.78	1781.73
553.98	1798.12
554.17	1699.81
554.37	1767.40
554.57	1783.78
554.76	1669.09
554.96	1665.00
555.16	1769.44
555.35	1753.06
555.55	1755.11
555.75	1701.86
555.94	1789.92
556.14	1603.56
556.33	1787.88
556.53	1757.16
556.73	1697.77
556.92	1826.79
557.12	1789.92
557.32	1853.41
557.51	1755.11
557.71	1757.16
557.90	1822.69
558.10	1812.45
558.30	1667.05
558.49	1767.40
558.69	1708.01
558.88	1775.59
559.08	1738.73
559.28	1746.92
559.47	1716.20
559.67	1617.90
559.86	1806.31
560.06	1761.25
560.26	1697.77
560.45	1697.77
560.65	1759.21
560.84	1789.92
561.04	1703.91
561.24	1800.16
561.43	1673.19
561.63	1757.16
561.82	1771.49
562.02	1738.73
562.22	1673.19
562.41	1679.33
562.61	1718.25
562.80	1665.00
563.00	1906.66
563.19	1787.88
563.39	1828.84
563.59	1785.83
563.78	1646.57
563.98	1646.57
564.17	1652.71
564.37	1609.70
564.56	1769.44
564.76	1718.25
564.96	1798.12
565.15	1783.78
565.35	1871.84
565.54	1748.97
565.74	1771.49
565.93	1751.01
566.13	1705.96
566.32	1757.16
566.52	1796.07
566.71	1748.97
566.91	1779.68
567.11	1751.01
567.30	1705.96
567.50	1746.92
567.69	1759.21
567.89	1765.35
568.08	1736.68
568.28	1744.87
568.47	1708.01
568.67	1748.97
568.86	1656.81
569.06	1789.92
569.25	1716.20
569.45	1699.81
569.64	1677.29
569.84	1685.48
570.04	1757.16
570.23	1697.77
570.43	1697.77
570.62	1738.73
570.82	1796.07
571.01	1669.09
571.21	1740.77
571.40	1691.62
571.60	1796.07
571.79	1777.64
571.99	1763.30
572.18	1712.10
572.38	1705.96
572.57	1695.72
572.77	1757.16
572.96	1855.46
573.16	1726.44
573.35	1650.66
573.55	1816.55
573.74	1810.40
573.94	1759.21
574.13	1693.67
574.33	1810.40
574.52	1845.22
574.71	1759.21
574.91	1730.53
575.10	1662.95
575.30	1701.86
575.49	1724.39
575.69	1650.66
575.88	1685.48
576.08	1728.49
576.27	1777.64
576.47	1691.62
576.66	1843.17
576.86	1832.93
577.05	1722.34
577.25	1708.01
577.44	1816.55
577.64	1595.37
577.83	1837.03
578.02	1710.05
578.22	1820.64
578.41	1806.31
578.61	1775.59
578.80	1701.86
579.00	1816.55
579.19	1701.86
579.39	1742.82
579.58	1800.16
579.77	1673.19
579.97	1816.55
580.16	1800.16
580.36	1818.60
580.55	1847.27
580.75	1767.40
580.94	1767.40
581.13	1900.52
581.33	1882.08
581.52	1785.83
581.72	1871.84
581.91	1806.31
582.11	1789.92
582.30	1810.40
582.49	1789.92
582.69	1824.74
582.88	1769.44
583.08	1734.63
583.27	1773.54
583.47	1738.73
583.66	1818.60
583.85	1718.25
584.05	1730.53
584.24	1837.03
584.44	1673.19
584.63	1847.27
584.82	1767.40
585.02	1787.88
585.21	1865.70
585.41	1900.52
585.60	1888.23
585.79	1875.94
585.99	1923.04
586.18	1890.28
586.37	2117.60
586.57	3411.92
586.76	10012.52
586.96	24508.04
587.15	34665.97
587.34	40547.73
587.54	42423.67
587.73	36634.06
587.93	26222.19
588.12	21694.13
588.31	18302.70
588.51	16463.62
588.70	15175.45
588.89	14090.02
589.09	12633.92
589.28	10995.54
589.47	9258.87
589.67	8046.47
589.86	6471.58
590.06	4865.97
590.25	4020.16
590.44	3114.96
590.64	2631.64
590.83	2324.44
591.02	2152.42
591.22	1955.81
591.41	1853.41
591.60	1783.78
591.80	1964.00
591.99	1736.68
592.18	1804.26
592.38	1830.88
592.57	1810.40
592.76	1824.74
592.96	1785.83
593.15	1658.85
593.34	1841.12
593.54	1697.77
593.73	1753.06
593.92	1791.97
594.12	1787.88
594.31	1761.25
594.50	1834.98
594.70	1787.88
594.89	1880.04
595.08	1683.43
595.28	1787.88
595.47	1933.28
595.66	1744.87
595.86	1650.66
596.05	1757.16
596.24	1777.64
596.43	1802.21
596.63	1746.92
596.82	1763.30
597.01	1728.49
597.21	1816.55
597.40	1716.20
597.59	1769.44
597.79	1777.64
597.98	1730.53
598.17	1769.44
598.36	1794.02
598.56	1785.83
598.75	1681.38
598.94	1771.49
599.14	1705.96
599.33	1681.38
599.52	1867.75
599.71	1798.12
599.91	1808.36
600.10	1767.40
600.29	1724.39
600.48	1730.53
600.68	1746.92
600.87	1748.97
601.06	1683.43
601.26	1699.81
601.45	1769.44
601.64	1624.04
601.83	1746.92
602.03	1638.38
602.22	1683.43
602.41	1808.36
602.60	1929.19
602.80	1816.55
602.99	1777.64
603.18	1667.05
603.37	1628.14
603.57	1832.93
603.76	1869.80
603.95	1832.93
604.14	1755.11
604.34	1665.00
604.53	1671.14
604.72	1724.39
604.91	1800.16
605.10	1734.63
605.30	1701.86
605.49	1859.56
605.68	1753.06
605.87	1757.16
606.07	1671.14
606.26	1791.97
606.45	1730.53
606.64	1667.05
606.84	1667.05
607.03	1800.16
607.22	1763.30
607.41	1751.01
607.60	1681.38
607.80	1789.92
607.99	1701.86
608.18	1714.15
608.37	1781.73
608.56	1673.19
608.76	1847.27
608.95	1843.17
609.14	1736.68
609.33	1769.44
609.52	1800.16
609.72	1689.57
609.91	1800.16
610.10	1679.33
610.29	1808.36
610.48	1804.26
610.68	1767.40
610.87	1691.62
611.06	1761.25
611.25	1767.40
611.44	1818.60
611.63	1687.53
611.83	1857.51
612.02	1632.23
612.21	1748.97
612.40	1638.38
612.59	1755.11
612.79	1724.39
612.98	1771.49
613.17	1802.21
613.36	1722.34
613.55	1789.92
613.74	1615.85
613.93	1689.57
614.13	1730.53
614.32	1753.06
614.51	1730.53
614.70	1755.11
614.89	1720.29
615.08	1742.82
615.28	2109.41
615.47	1677.29
615.66	1685.48
615.85	1777.64
616.04	1716.20
616.23	1654.76
616.42	1722.34
616.62	1722.34
616.81	1777.64
617.00	1689.57
617.19	1785.83
617.38	1748.97
617.57	1673.19
617.76	1740.77
617.95	1732.58
618.15	1714.15
618.34	1822.69
618.53	1699.81
618.72	1781.73
618.91	1800.16
619.10	1863.65
619.29	1753.06
619.48	1734.63
619.68	1714.15
619.87	1755.11
620.06	1710.05
620.25	1798.12
620.44	1734.63
620.63	1718.25
620.82	1712.10
621.01	1738.73
621.20	1669.09
621.39	1699.81
621.59	1724.39
621.78	1738.73
621.97	1708.01
622.16	1771.49
622.35	1781.73
622.54	1724.39
622.73	1787.88
622.92	1589.22
623.11	1853.41
623.30	1634.28
623.49	1685.48
623.68	1798.12
623.88	1824.74
624.07	1722.34
624.26	1726.44
624.45	1728.49
624.64	1640.42
624.83	1730.53
625.02	1748.97
625.21	1701.86
625.40	1708.01
625.59	1763.30
625.78	1748.97
625.97	1820.64
626.16	1769.44
626.35	1789.92
626.54	1695.72
626.74	1746.92
626.93	1712.10
627.12	1683.43
627.31	1808.36
627.50	1675.24
627.69	1818.60
627.88	1642.47
628.07	1712.10
628.26	1630.18
628.45	1667.05
628.64	1617.90
628.83	1759.21
629.02	1689.57
629.21	1779.68
629.40	1767.40
629.59	1728.49
629.78	1673.19
629.97	1714.15
630.16	1693.67
630.35	1755.11
630.54	1724.39
630.73	1685.48
630.92	1697.77
631.11	1681.38
631.30	1751.01
631.49	1722.34
631.68	1718.25
631.87	1761.25
632.06	1648.61
632.25	1802.21
632.44	1624.04
632.63	1693.67
632.82	1693.67
633.01	1671.14
633.20	1759.21
633.39	1679.33
633.58	1640.42
633.77	1757.16
633.96	1824.74
634.15	1767.40
634.34	1746.92
634.53	1648.61
634.72	1722.34
634.91	1595.37
635.10	1748.97
635.29	1787.88
635.48	1777.64
635.67	1738.73
635.86	1652.71
636.05	1820.64
636.24	1646.57
636.43	1677.29
636.62	1669.09
636.81	1562.60
637.00	1705.96
637.19	1791.97
637.38	1767.40
637.57	1652.71
637.76	1665.00
637.95	1734.63
638.14	1671.14
638.33	1712.10
638.52	1740.77
638.71	1660.90
638.89	1673.19
639.08	1912.80
639.27	1798.12
639.46	1673.19
639.65	1771.49
639.84	1673.19
640.03	1791.97
640.22	1714.15
640.41	1851.36
640.60	1667.05
640.79	1708.01
640.98	1724.39
641.17	1746.92
641.36	1656.81
641.55	1753.06
641.74	1548.26
641.92	1710.05
642.11	1611.75
642.30	1673.19
642.49	1669.09
642.68	1689.57
642.87	1761.25
643.06	1765.35
643.25	1673.19
643.44	1683.43
643.63	1722.34
643.82	1705.96
644.00	1646.57
644.19	1716.20
644.38	1712.10
644.57	1740.77
644.76	1744.87
644.95	1757.16
645.14	1757.16
645.33	1718.25
645.52	1673.19
645.71	1710.05
645.89	1677.29
646.08	1636.33
646.27	1722.34
646.46	1794.02
646.65	1619.94
646.84	1814.50
647.03	1650.66
647.22	1828.84
647.40	1689.57
647.59	1609.70
647.78	1626.09
647.97	1681.38
648.16	1548.26
648.35	1787.88
648.54	1828.84
648.73	1681.38
648.91	1771.49
649.10	1744.87
649.29	1716.20
649.48	1685.48
649.67	1765.35
649.86	1634.28
650.05	1742.82
650.23	1783.78
650.42	1681.38
650.61	1763.30
650.80	1777.64
650.99	1779.68
651.18	1781.73
651.36	1798.12
651.55	1687.53
651.74	1755.11
651.93	1710.05
652.12	1755.11
652.31	1626.09
652.49	1691.62
652.68	1720.29
652.87	1773.54
653.06	1730.53
653.25	1814.50
653.44	1732.58
653.62	1783.78
653.81	1646.57
654.00	1771.49
654.19	1689.57
654.38	1861.60
654.56	1777.64
654.75	1681.38
654.94	1714.15
655.13	1744.87
655.32	1716.20
655.51	1734.63
655.69	1724.39
655.88	1765.35
656.07	1624.04
656.26	1693.67
656.45	1662.95
656.63	1753.06
656.82	1724.39
657.01	1724.39
657.20	1617.90
657.38	1791.97
657.57	1701.86
657.76	1695.72
657.95	1679.33
658.14	1732.58
658.32	1742.82
658.51	1675.24
658.70	1681.38
658.89	1748.97
659.08	1669.09
659.26	1779.68
659.45	1640.42
659.64	1755.11
659.83	1673.19
660.01	1923.04
660.20	1720.29
660.39	1773.54
660.58	1540.07
660.76	1681.38
660.95	1638.38
661.14	1728.49
661.33	1718.25
661.51	1701.86
661.70	1722.34
661.89	1730.53
662.08	1730.53
662.26	1640.42
662.45	1673.19
662.64	1796.07
662.83	1748.97
663.01	1636.33
663.20	1724.39
663.39	1828.84
663.58	1796.07
663.76	1705.96
663.95	1726.44
664.14	1695.72
664.32	1687.53
664.51	1665.00
664.70	1671.14
664.89	1712.10
665.07	1693.67
665.26	1730.53
665.45	1673.19
665.64	1710.05
665.82	1691.62
666.01	1740.77
666.20	1736.68
666.38	1787.88
666.57	1849.32
666.76	2152.42
666.95	4519.87
667.13	10454.88
667.32	15105.82
667.51	17643.25
667.69	18996.96
667.88	17723.12
668.07	12422.98
668.25	9742.19
668.44	8075.14
668.63	7358.35
668.81	6959.00
669.00	6330.27
669.19	5619.63
669.38	5107.63
669.56	4685.75
669.75	3968.96
669.94	3368.91
670.12	2967.51
670.31	2523.10
670.50	2234.33
670.68	2029.54
670.87	1918.95
671.06	1785.83
671.24	1763.30
671.43	1791.97
671.62	1804.26
671.80	1683.43
671.99	1757.16
672.18	1689.57
672.36	1867.75
672.55	1638.38
672.74	1726.44
672.92	1730.53
673.11	1650.66
673.29	1660.90
673.48	1837.03
673.67	1644.52
673.85	1783.78
674.04	1671.14
674.23	1730.53
674.41	1757.16
674.60	1708.01
674.79	1599.46
674.97	1669.09
675.16	1724.39
675.34	1710.05
675.53	1656.81
675.72	1759.21
675.90	1810.40
676.09	1697.77
676.28	1705.96
676.46	1665.00
676.65	1720.29
676.83	1617.90
677.02	1675.24
677.21	1767.40
677.39	1697.77
677.58	1726.44
677.77	1656.81
677.95	1656.81
678.14	1677.29
678.32	1648.61
678.51	1710.05
678.70	1845.22
678.88	1708.01
679.07	1691.62
679.25	1705.96
679.44	1658.85
679.63	1642.47
679.81	1738.73
680.00	1826.79
680.18	1728.49
680.37	1769.44
680.55	1732.58
680.74	1630.18
680.93	1591.27
681.11	1734.63
681.30	1667.05
681.48	1660.90
681.67	1689.57
681.85	1662.95
682.04	1691.62
682.23	1755.11
682.41	1699.81
682.60	1730.53
682.78	1687.53
682.97	1665.00
683.15	1738.73
683.34	1802.21
683.53	1742.82
683.71	1617.90
683.90	1728.49
684.08	1794.02
684.27	1722.34
684.45	1755.11
684.64	1753.06
684.82	1640.42
685.01	1732.58
685.19	1703.91
685.38	1794.02
685.57	1705.96
685.75	1646.57
685.94	1730.53
686.12	1615.85
686.31	1708.01
686.49	1726.44
686.68	1615.85
686.86	1669.09
687.05	1656.81
687.23	1738.73
687.42	1730.53
687.60	1621.99
687.79	1732.58
687.97	1728.49
688.16	1734.63
688.34	1849.32
688.53	1605.61
688.71	1640.42
688.90	1812.45
689.08	1736.68
689.27	1652.71
689.45	1746.92
689.64	1800.16
689.82	1701.86
690.01	1761.25
690.19	1667.05
690.38	1746.92
690.56	1767.40
690.75	1585.13
690.93	1611.75
691.12	1724.39
691.30	1730.53
691.49	1697.77
691.67	1630.18
691.86	1834.98
692.04	1660.90
692.23	1656.81
692.41	1621.99
692.60	1767.40
692.78	1763.30
692.97	1681.38
693.15	1621.99
693.34	1748.97
693.52	1708.01
693.71	1658.85
693.89	1667.05
694.08	1648.61
694.26	1763.30
694.44	1736.68
694.63	1695.72
694.81	1621.99
695.00	1783.78
695.18	1744.87
695.37	1822.69
695.55	1775.59
695.74	1650.66
695.92	1599.46
696.10	1746.92
696.29	1705.96
696.47	1656.81
696.66	1576.94
696.84	1568.74
697.03	1730.53
697.21	1886.18
697.40	2285.53
697.58	1742.82
697.76	1638.38
697.95	1652.71
698.13	1685.48
698.32	1628.14
698.50	1716.20
698.68	1722.34
698.87	1671.14
699.05	1796.07
699.24	1677.29
699.42	1605.61
699.61	1744.87
699.79	1699.81
699.97	1726.44
700.16	1638.38
700.34	1617.90
700.53	1708.01
700.71	1812.45
700.89	1724.39
701.08	1724.39
701.26	1763.30
701.45	2082.78
701.63	1697.77
701.81	1667.05
702.00	1665.00
702.18	1679.33
702.37	1554.41
702.55	1701.86
702.73	1738.73
702.92	1613.80
703.10	1736.68
703.28	1734.63
703.47	1554.41
703.65	1757.16
703.84	1757.16
704.02	1695.72
704.20	1755.11
704.39	1681.38
704.57	1769.44
704.75	1738.73
704.94	1753.06
705.12	1718.25
705.30	1808.36
705.49	2260.96
705.67	4390.84
705.86	9561.97
706.04	12635.97
706.22	14606.11
706.41	15435.54
706.59	13874.99
706.77	9807.72
706.96	7339.92
707.14	6631.32
707.32	5879.72
707.51	5621.67
707.69	5058.48
707.87	4255.68
708.06	3504.07
708.24	3114.96
708.42	2338.78
708.61	2287.58
708.79	1990.63
708.97	1945.57
709.16	1834.98
709.34	1785.83
709.52	1775.59
709.71	1798.12
709.89	1708.01
710.07	1703.91
710.26	1685.48
710.44	1679.33
710.62	1796.07
710.80	1652.71
710.99	1693.67
711.17	1744.87
711.35	1642.47
711.54	1746.92
711.72	1751.01
711.90	1724.39
712.09	1710.05
712.27	1693.67
712.45	1699.81
712.63	1714.15
712.82	1671.14
713.00	1693.67
713.18	1724.39
713.37	1796.07
713.55	1714.15
713.73	1636.33
713.91	1714.15
714.10	1652.71
714.28	1701.86
714.46	1812.45
714.65	1703.91
714.83	1724.39
715.01	1757.16
715.19	1732.58
715.38	1667.05
715.56	1744.87
715.74	1697.77
715.92	1615.85
716.11	1753.06
716.29	1644.52
716.47	1724.39
716.65	1650.66
716.84	1570.79
717.02	1789.92
717.20	1636.33
717.38	1652.71
717.57	1742.82
717.75	1675.24
717.93	1697.77
718.11	1712.10
718.30	1648.61
718.48	1732.58
718.66	1787.88
718.84	1732.58
719.03	1761.25
719.21	1695.72
719.39	1847.27
719.57	1837.03
719.75	1746.92
719.94	1640.42
720.12	1701.86
720.30	1693.67
720.48	1726.44
720.67	1673.19
720.85	1669.09
721.03	1669.09
721.21	1642.47
721.39	1714.15
721.58	1773.54
721.76	1677.29
721.94	1701.86
722.12	1710.05
722.30	1769.44
722.49	1728.49
722.67	1687.53
722.85	1607.66
723.03	1591.27
723.21	1656.81
723.40	1744.87
723.58	1742.82
723.76	1771.49
723.94	1763.30
724.12	1632.23
724.30	1822.69
724.49	1738.73
724.67	1611.75
724.85	1691.62
725.03	1601.51
725.21	1759.21
725.40	1771.49
725.58	1708.01
725.76	1751.01
725.94	1738.73
726.12	1630.18
726.30	1662.95
726.49	1667.05
726.67	1687.53
726.85	1660.90
727.03	1820.64
727.21	2187.23
727.39	2840.53
727.57	3854.28
727.76	4136.90
727.94	4509.63
728.12	4204.48
728.30	3655.62
728.48	2928.60
728.66	2652.12
728.84	2406.36
729.03	2224.09
729.21	2205.66
729.39	1927.14
729.57	1914.85
729.75	1783.78
729.93	1781.73
730.11	1665.00
730.30	1697.77
730.48	1701.86
730.66	1830.88
730.84	1753.06
731.02	1601.51
731.20	1724.39
731.38	1773.54
731.56	1613.80
731.74	1566.70
731.93	1679.33
732.11	1644.52
732.29	1701.86
732.47	1671.14
732.65	1728.49
732.83	1798.12
733.01	1740.77
733.19	1691.62
733.37	1744.87
733.56	1736.68
733.74	1675.24
733.92	1771.49
734.10	1783.78
734.28	1718.25
734.46	1693.67
734.64	1662.95
734.82	1638.38
735.00	1652.71
735.18	1648.61
735.36	1771.49
735.54	1673.19
735.73	1726.44
735.91	1763.30
736.09	1724.39
736.27	1687.53
736.45	1763.30
736.63	1595.37
736.81	1603.56
736.99	1708.01
737.17	1724.39
737.35	1636.33
737.53	1685.48
737.71	1685.48
737.89	1814.50
738.07	1650.66
738.25	1667.05
738.43	1644.52
738.61	1654.76
738.80	1650.66
738.98	1626.09
739.16	1720.29
739.34	1708.01
739.52	1789.92
739.70	1726.44
739.88	1669.09
740.06	1777.64
740.24	1535.98
740.42	1828.84
740.60	1570.79
740.78	1613.80
740.96	1644.52
741.14	1699.81
741.32	1689.57
741.50	1632.23
741.68	1800.16
741.86	1751.01
742.04	1675.24
742.22	1673.19
742.40	1734.63
742.58	1710.05
742.76	1673.19
742.94	1722.34
743.12	1558.50
743.30	1722.34
743.48	1775.59
743.66	1751.01
743.84	1703.91
744.02	1607.66
744.20	1669.09
744.38	1675.24
744.56	1669.09
744.74	1873.89
744.92	1763.30
745.10	1742.82
745.28	1714.15
745.46	1832.93
745.64	1644.52
745.82	1832.93
746.00	1718.25
746.18	1722.34
746.36	1646.57
746.54	1832.93
746.72	1718.25
746.90	1677.29
747.08	1773.54
747.26	1652.71
747.44	1824.74
747.62	1689.57
747.80	1724.39
747.98	1705.96
748.15	1646.57
748.33	1757.16
748.51	1691.62
748.69	1814.50
748.87	1617.90
749.05	1650.66
749.23	1654.76
749.41	1736.68
749.59	1736.68
749.77	1761.25
749.95	1687.53
750.13	1708.01
750.31	1736.68
750.49	1615.85
750.67	1736.68
750.85	1800.16
751.03	1736.68
751.20	1796.07
751.38	1681.38
751.56	1671.14
751.74	1789.92
751.92	1740.77
752.10	1673.19
752.28	1791.97
752.46	1673.19
752.64	1705.96
752.82	1609.70
753.00	1787.88
753.18	1693.67
753.35	1697.77
753.53	1740.77
753.71	1634.28
753.89	1769.44
754.07	1665.00
754.25	1757.16
754.43	1736.68
754.61	1560.55
754.79	1716.20
754.97	1732.58
755.14	1759.21
755.32	1609.70
755.50	1708.01
755.68	1757.16
755.86	1624.04
756.04	1611.75
756.22	1599.46
756.40	1699.81
756.57	1869.80
756.75	1660.90
756.93	1728.49
757.11	1841.12
757.29	1624.04
757.47	1683.43
757.65	1628.14
757.82	1677.29
758.00	1703.91
758.18	1705.96
758.36	1603.56
758.54	1810.40
758.72	1636.33
758.90	1806.31
759.07	1675.24
759.25	1675.24
759.43	1802.21
759.61	1722.34
759.79	2158.56
759.97	1791.97
760.15	1693.67
760.32	1804.26
760.50	1705.96
760.68	1834.98
760.86	1687.53
761.04	1724.39
761.22	1748.97
761.39	1724.39
761.57	1718.25
761.75	1699.81
761.93	1740.77
762.11	1724.39
762.28	1712.10
762.46	1648.61
762.64	1660.90
762.82	1621.99
763.00	1648.61
763.18	1808.36
763.35	1587.18
763.53	1759.21
763.71	1697.77
763.89	1746.92
764.07	1658.85
764.24	1736.68
764.42	1744.87
764.60	1679.33
764.78	1734.63
764.96	1730.53
765.13	1734.63
765.31	1656.81
765.49	1701.86
765.67	1632.23
765.84	1658.85
766.02	1667.05
766.20	1650.66
766.38	1693.67
766.56	1763.30
766.73	1753.06
766.91	1712.10
767.09	1720.29
767.27	1767.40
767.44	1681.38
767.62	1705.96
767.80	1681.38
767.98	1697.77
768.15	1699.81
768.33	1753.06
768.51	1677.29
768.69	1757.16
768.87	1736.68
769.04	1783.78
769.22	1845.22
769.40	1771.49
769.58	1812.45
769.75	1675.24
769.93	1757.16
770.11	1660.90
770.28	1677.29
770.46	1703.91
770.64	1740.77
770.82	1636.33
770.99	1724.39
771.17	1685.48
771.35	1726.44
771.53	1716.20
771.70	1638.38
771.88	1701.86
772.06	1685.48
772.23	1718.25
772.41	1748.97
772.59	1695.72
772.77	1589.22
772.94	1718.25
773.12	1679.33
773.30	1603.56
773.47	1740.77
773.65	1671.14
773.83	1834.98
774.01	1650.66
774.18	1578.98
774.36	1763.30
774.54	1691.62
774.71	1716.20
774.89	1603.56
775.07	1624.04
775.24	1673.19
775.42	1626.09
775.60	1828.84
775.78	1681.38
775.95	1611.75
776.13	1658.85
776.31	1503.21
776.48	1667.05
776.66	1755.11
776.84	1722.34
777.01	1626.09
777.19	1734.63
777.37	1683.43
777.54	1710.05
777.72	1828.84
777.90	1689.57
778.07	1699.81
778.25	1880.04
778.43	1830.88
778.60	1689.57
778.78	1738.73
778.96	1769.44
779.13	1648.61
779.31	1734.63
779.49	1648.61
779.66	1656.81
779.84	1667.05
780.01	1624.04
780.19	1648.61
780.37	1740.77
780.54	1787.88
780.72	1660.90
780.90	1753.06
781.07	1722.34
781.25	1665.00
781.43	1697.77
781.60	1609.70
781.78	1716.20
781.95	1677.29
782.13	1701.86
782.31	1699.81
782.48	1628.14
782.66	1761.25
782.83	1783.78
783.01	1591.27
783.19	1689.57
783.36	1697.77
783.54	1699.81
783.72	1763.30
783.89	1697.77
784.07	1669.09
784.24	1681.38
784.42	1812.45
784.60	1716.20
784.77	1794.02
784.95	1562.60
785.12	1679.33
785.30	1632.23
785.47	1615.85
785.65	1628.14
785.83	1648.61
786.00	1617.90
786.18	1712.10
786.35	1634.28
786.53	1615.85
786.71	1732.58
786.88	1755.11
787.06	1687.53
787.23	1632.23
787.41	1656.81
787.58	1738.73
787.76	1617.90
787.94	1613.80
788.11	1687.53
788.29	1679.33
788.46	1652.71
788.64	1697.77
788.81	1710.05
788.99	1677.29
789.16	1568.74
789.34	1746.92
789.52	1714.15
789.69	1691.62
789.87	1572.84
790.04	1650.66
790.22	1722.34
790.39	1804.26
790.57	1634.28
790.74	1634.28
790.92	1746.92
791.09	1648.61
791.27	1730.53
791.44	1708.01
791.62	1675.24
791.79	1671.14
791.97	1619.94
792.15	1834.98
792.32	1710.05
792.50	1722.34
792.67	1839.08
792.85	1734.63
793.02	1746.92
793.20	1742.82
793.37	1642.47
793.55	1681.38
793.72	1611.75
793.90	1699.81
794.07	1624.04
794.25	1642.47
794.42	1695.72
794.60	1724.39
794.77	1648.61
794.95	1738.73
795.12	1753.06
795.30	1718.25
795.47	1673.19
795.65	1828.84
795.82	1751.01
796.00	1665.00
796.17	1722.34
796.34	1624.04
796.52	1718.25
796.69	1748.97
796.87	1705.96
797.04	1771.49
797.22	1732.58
797.39	1681.38
797.57	1705.96
797.74	1746.92
797.92	1732.58
798.09	1746.92
798.27	1705.96
798.44	1669.09
798.62	1708.01
798.79	1734.63
798.96	1695.72
799.14	1679.33
799.31	1808.36
799.49	1640.42
799.66	1718.25
799.84	1748.97
800.01	1640.42
800.19	1658.85
800.36	1589.22
800.53	1742.82
800.71	1714.15
800.88	1777.64
801.06	1671.14
801.23	1658.85
801.41	1662.95
801.58	1677.29
801.75	1728.49
801.93	1761.25
802.10	1677.29
802.28	1656.81
802.45	1701.86
802.63	1685.48
802.80	1818.60
802.97	1691.62
803.15	1699.81
803.32	1728.49
803.50	1683.43
803.67	1599.46
803.84	1691.62
804.02	1699.81
804.19	1699.81
804.37	1607.66
804.54	1673.19
804.71	1671.14
804.89	1748.97
805.06	1662.95
805.24	1652.71
805.41	1658.85
805.58	1703.91
805.76	1757.16
805.93	1753.06
806.10	1755.11
806.28	1757.16
806.45	1755.11
806.63	1757.16
806.80	1765.35
806.97	1722.34
807.15	1705.96
807.32	1669.09
807.49	1732.58
807.67	1730.53
807.84	1763.30
808.01	1654.76
808.19	1800.16
808.36	1822.69
808.54	1671.14
808.71	1662.95
808.88	1728.49
809.06	1726.44
809.23	1800.16
809.40	1671.14
809.58	1626.09
809.75	1697.77
809.92	1714.15
810.10	1834.98
810.27	1714.15
810.44	1656.81
810.62	1667.05
810.79	1669.09
810.96	1615.85
811.14	1697.77
811.31	1771.49
811.48	1689.57
811.66	1701.86
811.83	1730.53
812.00	1615.85
812.18	1769.44
812.35	1734.63
812.52	1636.33
812.69	1667.05
812.87	1583.08
813.04	1636.33
813.21	1642.47
813.39	1652.71
813.56	1595.37
813.73	1736.68
813.91	1626.09
814.08	1642.47
814.25	1607.66
814.42	1619.94
814.60	1628.14
814.77	1695.72
814.94	1701.86
815.12	1769.44
815.29	1714.15
815.46	1642.47
815.63	1738.73
815.81	1708.01
815.98	1632.23
816.15	1642.47
816.33	1656.81
816.50	1648.61
816.67	1703.91
816.84	1617.90
817.02	1718.25
817.19	1730.53
817.36	1683.43
817.53	1771.49
817.71	1685.48
817.88	1732.58
818.05	1658.85
818.22	1679.33
818.40	1746.92
818.57	1755.11
818.74	1681.38
818.91	1677.29
819.09	1720.29
819.26	1712.10
819.43	1665.00
819.60	1705.96
819.78	1787.88
819.95	1771.49
820.12	1685.48
820.29	1724.39
820.47	1742.82
820.64	1654.76
820.81	1603.56
820.98	1652.71
821.15	1685.48
821.33	1730.53
821.50	1630.18
821.67	1640.42
821.84	1703.91
822.02	1757.16
822.19	1652.71
822.36	1724.39
822.53	1615.85
822.70	1650.66
822.88	1638.38
823.05	1871.84
823.22	1638.38
823.39	1759.21
823.56	1695.72
823.74	1775.59
823.91	1556.46
824.08	1662.95
824.25	1628.14
824.42	1761.25
824.60	1619.94
824.77	1697.77
824.94	1617.90
825.11	1740.77
825.28	1611.75
825.45	1703.91
825.63	1693.67
825.80	1583.08
825.97	1701.86
826.14	1746.92
826.31	1681.38
826.48	1693.67
826.66	1677.29
826.83	1705.96
827.00	1683.43
827.17	1665.00
827.34	1693.67
827.51	1669.09
827.69	1708.01
827.86	1601.51
828.03	1601.51
828.20	1683.43
828.37	1605.61
828.54	1763.30
828.71	1685.48
828.89	1781.73
829.06	1714.15
829.23	1877.99
829.40	1683.43
829.57	1705.96
829.74	1755.11
829.91	1660.90
830.09	1638.38
830.26	1652.71
830.43	1738.73
830.60	1697.77
830.77	1703.91
830.94	1769.44
831.11	1708.01
831.28	1615.85
831.46	1681.38
831.63	1656.81
831.80	1689.57
831.97	1722.34
832.14	1667.05
832.31	1734.63
832.48	1658.85
832.65	1736.68
832.82	1742.82
832.99	1667.05
833.17	1630.18
833.34	1722.34
833.51	1783.78
833.68	1628.14
833.85	1812.45
834.02	1648.61
834.19	1642.47
834.36	1697.77
834.53	1642.47
834.70	1667.05
834.87	1697.77
835.04	1710.05
835.22	1613.80
835.39	1673.19
835.56	1617.90
835.73	1722.34
835.90	1753.06
836.07	1667.05
836.24	1738.73
836.41	1644.52
836.58	1609.70
836.75	1685.48
836.92	1705.96
837.09	1669.09
837.26	1730.53
837.43	1687.53
837.60	1667.05
837.77	1607.66
837.94	1740.77
838.12	1777.64
838.29	1609.70
838.46	1697.77
838.63	1632.23
838.80	1826.79
838.97	1736.68
839.14	1685.48
839.31	1703.91
839.48	1722.34
839.65	1648.61
839.82	1746.92
839.99	1720.29
840.16	1636.33
840.33	1607.66
840.50	1671.14
840.67	1554.41
840.84	1665.00
841.01	1730.53
841.18	1673.19
841.35	1628.14
841.52	1703.91
841.69	1730.53
841.86	1697.77
842.03	1685.48
842.20	1832.93
842.37	1642.47
842.54	1658.85
842.71	1712.10
842.88	1665.00
843.05	1791.97
843.22	1691.62
843.39	1787.88
843.56	1646.57
843.73	1708.01
843.90	1679.33
844.07	1734.63
844.24	1783.78
844.41	1714.15
844.58	1757.16
844.75	1748.97
844.92	1828.84
845.09	1736.68
845.26	1693.67
845.43	1677.29
845.60	1656.81
845.77	1798.12
845.94	1669.09
846.10	1812.45
846.27	1599.46
846.44	1615.85
846.61	1714.15
846.78	1601.51
846.95	1738.73
847.12	1708.01
847.29	1673.19
847.46	1701.86
847.63	1738.73
847.80	1632.23
847.97	1628.14
848.14	1863.65
848.31	1720.29
848.48	1665.00
848.65	1703.91
848.82	1632.23
848.98	1794.02
849.15	1648.61
849.32	1718.25
849.49	1746.92
849.66	1695.72
849.83	1662.95
850.00	1673.19
850.17	1703.91
850.34	1658.85
850.51	1710.05
850.68	1779.68
850.85	1839.08
851.01	1701.86
851.18	1656.81
851.35	1730.53
851.52	1685.48
851.69	1800.16
851.86	1662.95
852.03	1724.39
852.20	1703.91
852.37	1683.43
852.53	1611.75
852.70	1695.72
852.87	1689.57
853.04	1714.15
853.21	1673.19
853.38	1761.25
853.55	1763.30
853.72	1816.55
853.89	1630.18
854.05	1679.33
854.22	1751.01
854.39	1662.95
854.56	1703.91
854.73	1693.67
854.90	1617.90
855.07	1665.00
855.23	1621.99
855.40	1685.48
855.57	1755.11
855.74	1564.65
855.91	1937.38
856.08	1675.24
856.25	1611.75
856.41	1669.09
856.58	1652.71
856.75	1683.43
856.92	1597.42
857.09	1781.73
857.26	1621.99
857.42	1718.25
857.59	1759.21
857.76	1658.85
857.93	1730.53
858.10	1759.21
858.27	1591.27
858.43	1720.29
858.60	1755.11
858.77	1562.60
858.94	1703.91
859.11	1791.97
859.27	1632.23
859.44	1615.85
859.61	1777.64
859.78	1691.62
859.95	1701.86
860.12	1648.61
860.28	1832.93
860.45	1834.98
860.62	1746.92
860.79	1710.05
860.95	1656.81
861.12	1667.05
861.29	1634.28
861.46	1691.62
861.63	1703.91
861.79	1710.05
861.96	1669.09
862.13	1679.33
862.30	1738.73
862.47	1617.90
862.63	1626.09
862.80	1687.53
862.97	1728.49
863.14	1695.72
863.30	1673.19
863.47	1652.71
863.64	1787.88
863.81	1697.77
863.97	1648.61
864.14	1785.83
864.31	1671.14
864.48	1767.40
864.65	1665.00
864.81	1734.63
864.98	1841.12
865.15	1714.15
865.32	1714.15
865.48	1759.21
865.65	1759.21
865.82	1710.05
865.98	1726.44
866.15	1722.34
866.32	1681.38
866.49	1662.95
866.65	1779.68
866.82	1626.09
866.99	1687.53
867.16	1681.38
867.32	1650.66
867.49	1640.42
867.66	1755.11
867.83	1677.29
867.99	1626.09
868.16	1718.25
868.33	1617.90
868.49	1687.53
868.66	1675.24
868.83	1748.97
868.99	1701.86
869.16	1648.61
869.33	1695.72
869.50	1740.77
869.66	1624.04
869.83	1699.81
870.00	1636.33
870.16	1765.35
870.33	1722.34
870.50	1705.96
870.66	1746.92
870.83	1834.98
871.00	1638.38
871.17	1683.43
871.33	1818.60
871.50	1642.47
871.67	1718.25
871.83	1650.66
872.00	1828.84
872.17	1658.85
872.33	1794.02
872.50	1683.43
872.67	1685.48
872.83	1724.39
873.00	1722.34
873.17	1736.68
873.33	1695.72
873.50	1812.45
873.67	1648.61
873.83	1675.24
874.00	1775.59
874.16	1701.86
874.33	1681.38
874.50	1644.52
874.66	1691.62
874.83	1738.73
875.00	1796.07
875.16	1708.01
875.33	1734.63
875.50	1628.14
875.66	1583.08
875.83	1656.81
875.99	1744.87
876.16	1669.09
876.33	1642.47
876.49	1718.25
876.66	1701.86
876.83	1710.05
876.99	1650.66
877.16	1681.38
877.32	1761.25
877.49	1638.38
877.66	1722.34
877.82	1812.45
877.99	1757.16
878.15	1808.36
878.32	1720.29
878.49	1757.16
878.65	1771.49
878.82	1734.63
878.98	1669.09
879.15	1783.78
879.32	1757.16
879.48	1732.58
879.65	1644.52
879.81	1701.86
879.98	1673.19
880.15	1681.38
880.31	1726.44
880.48	1632.23
880.64	1810.40
880.81	1787.88
880.97	1724.39
881.14	1779.68
881.31	1656.81
881.47	1837.03
881.64	1656.81
881.80	1646.57
881.97	1738.73
882.13	1740.77
882.30	1615.85
882.47	1779.68
882.63	1669.09
882.80	1662.95
882.96	1585.13
883.13	1767.40
883.29	1677.29
883.46	1757.16
883.62	1748.97
883.79	1636.33
883.95	1716.20
884.12	1699.81
884.29	1730.53
884.45	1794.02
884.62	1742.82
884.78	1632.23
884.95	1802.21
885.11	1630.18
885.28	1710.05
885.44	1656.81
885.61	1769.44
885.77	1794.02
885.94	1716.20
886.10	1662.95
886.27	1708.01
886.43	1808.36
886.60	1763.30
886.76	1710.05
886.93	1542.12
887.09	1665.00
887.26	1609.70
887.42	1712.10
887.59	1720.29
887.75	1781.73
887.92	1787.88
888.08	1691.62
888.25	1742.82
888.41	1785.83
888.58	1646.57
888.74	1658.85
888.91	1718.25
>>>>>End Processed Spectral Data<<<<<
