SpectraSuite Data File
++++++++++++++++++++++++++++++++++++
Date: Mon Jun 06 15:31:57 CEST 2016
User: root
Dark Spectrum Present: No
Reference Spectrum Present: No
Number of Sampled Component Spectra: 1
Spectrometers: USB4C02835
Integration Time (usec): 100000 (USB4C02835)
Spectra Averaged: 1 (USB4C02835)
Boxcar Smoothing: 0 (USB4C02835)
Correct for Electrical Dark: No (USB4C02835)
Strobe/Lamp Enabled: No (USB4C02835)
Correct for Detector Non-linearity: No (USB4C02835)
Correct for Stray Light: No (USB4C02835)
Number of Pixels in Processed Spectrum: 3648
>>>>>Begin Processed Spectral Data<<<<<
177.47	1476.59
177.69	1476.59
177.91	1476.59
178.13	1449.96
178.36	1486.83
178.58	1662.95
178.80	1722.34
179.02	1615.85
179.24	1662.95
179.46	1691.62
179.68	1744.87
179.90	1636.33
180.13	1665.00
180.35	1693.67
180.57	1689.57
180.79	1757.16
181.01	1738.73
181.23	1779.68
181.45	1771.49
181.67	1730.53
181.90	1751.01
182.12	1689.57
182.34	1595.37
182.56	1691.62
182.78	1701.86
183.00	1724.39
183.22	1693.67
183.44	1652.71
183.66	1863.65
183.89	1800.16
184.11	1687.53
184.33	1759.21
184.55	1757.16
184.77	1730.53
184.99	1705.96
185.21	1728.49
185.43	1875.94
185.65	1693.67
185.87	1708.01
186.10	1886.18
186.32	1808.36
186.54	1693.67
186.76	1791.97
186.98	1701.86
187.20	1714.15
187.42	1687.53
187.64	1714.15
187.86	1722.34
188.08	1724.39
188.30	1753.06
188.52	1740.77
188.75	1773.54
188.97	1779.68
189.19	1685.48
189.41	1705.96
189.63	1718.25
189.85	1691.62
190.07	1632.23
190.29	1634.28
190.51	1736.68
190.73	1650.66
190.95	1736.68
191.17	1789.92
191.39	1628.14
191.61	1701.86
191.84	1701.86
192.06	1759.21
192.28	1683.43
192.50	1853.41
192.72	1714.15
192.94	1736.68
193.16	1742.82
193.38	1757.16
193.60	1626.09
193.82	1685.48
194.04	1800.16
194.26	1722.34
194.48	1701.86
194.70	1697.77
194.92	1675.24
195.14	1714.15
195.36	1710.05
195.58	1652.71
195.80	1660.90
196.02	1695.72
196.24	1730.53
196.46	1716.20
196.69	1708.01
196.91	1841.12
197.13	1759.21
197.35	1624.04
197.57	1806.31
197.79	1804.26
198.01	1691.62
198.23	1773.54
198.45	1748.97
198.67	1703.91
198.89	1714.15
199.11	1701.86
199.33	1665.00
199.55	1605.61
199.77	1650.66
199.99	1841.12
200.21	1734.63
200.43	1724.39
200.65	1744.87
200.87	1658.85
201.09	1683.43
201.31	1720.29
201.53	1683.43
201.75	1675.24
201.97	1683.43
202.19	1724.39
202.41	1748.97
202.63	1892.32
202.85	1746.92
203.07	1777.64
203.29	1710.05
203.51	1667.05
203.73	1609.70
203.95	1830.88
204.17	1742.82
204.39	1685.48
204.61	1699.81
204.83	1787.88
205.05	1742.82
205.27	1830.88
205.49	1873.89
205.71	1689.57
205.93	1632.23
206.15	1681.38
206.37	1744.87
206.59	1734.63
206.81	1697.77
207.03	1652.71
207.25	1662.95
207.47	1734.63
207.69	1785.83
207.91	1732.58
208.13	1839.08
208.34	1708.01
208.56	1654.76
208.78	1783.78
209.00	1699.81
209.22	1751.01
209.44	1681.38
209.66	1714.15
209.88	1662.95
210.10	1699.81
210.32	1648.61
210.54	1755.11
210.76	1675.24
210.98	1796.07
211.20	1578.98
211.42	1656.81
211.64	1859.56
211.86	1730.53
212.08	1798.12
212.30	1708.01
212.52	1708.01
212.74	1761.25
212.96	1734.63
213.17	1738.73
213.39	1783.78
213.61	1794.02
213.83	1683.43
214.05	1615.85
214.27	1824.74
214.49	1738.73
214.71	1734.63
214.93	1771.49
215.15	1695.72
215.37	1732.58
215.59	1615.85
215.81	1716.20
216.03	1708.01
216.24	1699.81
216.46	1689.57
216.68	1697.77
216.90	1857.51
217.12	1740.77
217.34	1757.16
217.56	1722.34
217.78	1783.78
218.00	1787.88
218.22	1785.83
218.44	1701.86
218.66	1671.14
218.87	1861.60
219.09	1673.19
219.31	1705.96
219.53	1783.78
219.75	1708.01
219.97	1673.19
220.19	1714.15
220.41	1679.33
220.63	1779.68
220.85	1722.34
221.06	1650.66
221.28	1771.49
221.50	1757.16
221.72	1714.15
221.94	1753.06
222.16	1697.77
222.38	1824.74
222.60	1789.92
222.82	1689.57
223.03	1837.03
223.25	1671.14
223.47	1744.87
223.69	1773.54
223.91	1738.73
224.13	1644.52
224.35	1654.76
224.57	1732.58
224.78	1791.97
225.00	1738.73
225.22	1730.53
225.44	1687.53
225.66	1783.78
225.88	1695.72
226.10	1765.35
226.32	1656.81
226.53	1806.31
226.75	1652.71
226.97	1630.18
227.19	1685.48
227.41	1636.33
227.63	1701.86
227.85	1640.42
228.06	1777.64
228.28	1773.54
228.50	1726.44
228.72	1617.90
228.94	1757.16
229.16	1636.33
229.37	1675.24
229.59	1681.38
229.81	1777.64
230.03	1693.67
230.25	1619.94
230.47	1695.72
230.69	1650.66
230.90	1800.16
231.12	1665.00
231.34	1785.83
231.56	1794.02
231.78	1665.00
232.00	1558.50
232.21	1656.81
232.43	1708.01
232.65	1662.95
232.87	1730.53
233.09	1673.19
233.30	1722.34
233.52	1753.06
233.74	1732.58
233.96	1665.00
234.18	1716.20
234.40	1734.63
234.61	1839.08
234.83	1619.94
235.05	1630.18
235.27	1863.65
235.49	1720.29
235.70	1720.29
235.92	1787.88
236.14	1755.11
236.36	1865.70
236.58	1685.48
236.79	1722.34
237.01	1658.85
237.23	1755.11
237.45	1832.93
237.67	1626.09
237.88	1720.29
238.10	1777.64
238.32	1656.81
238.54	1746.92
238.76	1650.66
238.97	1697.77
239.19	1708.01
239.41	1777.64
239.63	1705.96
239.85	1746.92
240.06	1685.48
240.28	1697.77
240.50	1771.49
240.72	1714.15
240.93	1683.43
241.15	1773.54
241.37	1736.68
241.59	1767.40
241.81	1720.29
242.02	1726.44
242.24	1765.35
242.46	1791.97
242.68	1697.77
242.89	1695.72
243.11	1755.11
243.33	1738.73
243.55	1705.96
243.76	1779.68
243.98	1585.13
244.20	1669.09
244.42	1734.63
244.64	1755.11
244.85	1730.53
245.07	1683.43
245.29	1773.54
245.51	1779.68
245.72	1744.87
245.94	1732.58
246.16	1679.33
246.38	1787.88
246.59	1708.01
246.81	1685.48
247.03	1718.25
247.24	1585.13
247.46	1660.90
247.68	1724.39
247.90	1718.25
248.11	1687.53
248.33	1705.96
248.55	1695.72
248.77	1693.67
248.98	1738.73
249.20	1755.11
249.42	1767.40
249.64	1767.40
249.85	1722.34
250.07	1677.29
250.29	1771.49
250.50	1671.14
250.72	1593.32
250.94	1650.66
251.16	1837.03
251.37	1791.97
251.59	1791.97
251.81	1779.68
252.02	1787.88
252.24	1656.81
252.46	1802.21
252.68	1732.58
252.89	1607.66
253.11	1599.46
253.33	1794.02
253.54	1777.64
253.76	1716.20
253.98	1746.92
254.20	1669.09
254.41	1613.80
254.63	1679.33
254.85	1632.23
255.06	1699.81
255.28	1732.58
255.50	1689.57
255.71	1695.72
255.93	1626.09
256.15	1751.01
256.36	1759.21
256.58	1699.81
256.80	1714.15
257.02	1640.42
257.23	1693.67
257.45	1724.39
257.67	1705.96
257.88	1615.85
258.10	1720.29
258.32	1736.68
258.53	1718.25
258.75	1759.21
258.97	1685.48
259.18	1779.68
259.40	1773.54
259.62	1798.12
259.83	1814.50
260.05	1755.11
260.27	2062.30
260.48	1763.30
260.70	1542.12
260.92	1654.76
261.13	1777.64
261.35	1656.81
261.57	1685.48
261.78	1660.90
262.00	1691.62
262.22	1779.68
262.43	1691.62
262.65	1722.34
262.86	1685.48
263.08	1867.75
263.30	1771.49
263.51	1574.89
263.73	1710.05
263.95	1808.36
264.16	1710.05
264.38	1710.05
264.60	1837.03
264.81	1671.14
265.03	1798.12
265.25	1751.01
265.46	1681.38
265.68	1771.49
265.89	1806.31
266.11	1648.61
266.33	1751.01
266.54	1777.64
266.76	1701.86
266.98	1716.20
267.19	1726.44
267.41	1693.67
267.62	1671.14
267.84	1660.90
268.06	1708.01
268.27	1650.66
268.49	1746.92
268.70	1779.68
268.92	1665.00
269.14	1619.94
269.35	1669.09
269.57	1783.78
269.79	1759.21
270.00	1679.33
270.22	1814.50
270.43	1648.61
270.65	1601.51
270.87	1724.39
271.08	1710.05
271.30	1699.81
271.51	1746.92
271.73	1683.43
271.95	1789.92
272.16	1787.88
272.38	1751.01
272.59	1691.62
272.81	1722.34
273.02	1726.44
273.24	1691.62
273.46	1751.01
273.67	1578.98
273.89	1605.61
274.10	1673.19
274.32	1726.44
274.54	1708.01
274.75	1814.50
274.97	1726.44
275.18	1728.49
275.40	1794.02
275.61	1734.63
275.83	1757.16
276.05	1701.86
276.26	1675.24
276.48	1693.67
276.69	1683.43
276.91	1665.00
277.12	1837.03
277.34	1851.36
277.55	1800.16
277.77	1798.12
277.99	1720.29
278.20	1613.80
278.42	1677.29
278.63	1695.72
278.85	1679.33
279.06	1607.66
279.28	1703.91
279.49	1714.15
279.71	1718.25
279.93	1695.72
280.14	1689.57
280.36	1683.43
280.57	1740.77
280.79	1746.92
281.00	1660.90
281.22	1687.53
281.43	1851.36
281.65	1658.85
281.86	1697.77
282.08	1781.73
282.29	1753.06
282.51	1640.42
282.73	1634.28
282.94	1554.41
283.16	1769.44
283.37	1791.97
283.59	1722.34
283.80	1732.58
284.02	1648.61
284.23	1714.15
284.45	1662.95
284.66	1556.46
284.88	1693.67
285.09	1781.73
285.31	1759.21
285.52	1810.40
285.74	1533.93
285.95	1769.44
286.17	1699.81
286.38	1738.73
286.60	1722.34
286.81	1624.04
287.03	1726.44
287.24	1697.77
287.46	1738.73
287.67	1638.38
287.89	1828.84
288.10	1683.43
288.32	1683.43
288.53	1843.17
288.75	1722.34
288.96	1779.68
289.18	1677.29
289.39	1773.54
289.61	1751.01
289.82	1867.75
290.04	1771.49
290.25	1552.36
290.47	1775.59
290.68	1726.44
290.90	1722.34
291.11	1578.98
291.33	1783.78
291.54	1632.23
291.76	1708.01
291.97	1734.63
292.18	1744.87
292.40	1703.91
292.61	1765.35
292.83	1824.74
293.04	1804.26
293.26	1738.73
293.47	1681.38
293.69	1656.81
293.90	1699.81
294.12	1722.34
294.33	1802.21
294.55	1681.38
294.76	1796.07
294.97	1853.41
295.19	1796.07
295.40	1701.86
295.62	1757.16
295.83	1779.68
296.05	1609.70
296.26	1802.21
296.48	1716.20
296.69	1730.53
296.90	1775.59
297.12	1744.87
297.33	1720.29
297.55	1697.77
297.76	1820.64
297.98	1800.16
298.19	1730.53
298.41	1724.39
298.62	1632.23
298.83	1828.84
299.05	1771.49
299.26	1753.06
299.48	1714.15
299.69	1738.73
299.90	1714.15
300.12	1646.57
300.33	1742.82
300.55	1667.05
300.76	1695.72
300.98	1595.37
301.19	1779.68
301.40	1718.25
301.62	1718.25
301.83	1773.54
302.05	1787.88
302.26	1757.16
302.47	1759.21
302.69	1705.96
302.90	1753.06
303.12	1572.84
303.33	1714.15
303.54	1843.17
303.76	1724.39
303.97	1773.54
304.19	1828.84
304.40	1710.05
304.61	1730.53
304.83	1753.06
305.04	1818.60
305.26	1689.57
305.47	1673.19
305.68	1716.20
305.90	1656.81
306.11	1789.92
306.33	1730.53
306.54	1689.57
306.75	1714.15
306.97	1624.04
307.18	1642.47
307.39	1685.48
307.61	1783.78
307.82	1703.91
308.04	1748.97
308.25	1677.29
308.46	1816.55
308.68	1699.81
308.89	1624.04
309.10	1759.21
309.32	1767.40
309.53	1771.49
309.74	1703.91
309.96	1646.57
310.17	1849.32
310.39	1671.14
310.60	1730.53
310.81	1634.28
311.03	1644.52
311.24	1761.25
311.45	1751.01
311.67	1886.18
311.88	1757.16
312.09	1656.81
312.31	1681.38
312.52	1744.87
312.73	1667.05
312.95	1652.71
313.16	1708.01
313.37	1685.48
313.59	1689.57
313.80	1712.10
314.01	1869.80
314.23	1714.15
314.44	1683.43
314.65	1593.32
314.87	1650.66
315.08	1724.39
315.29	1648.61
315.51	1656.81
315.72	1705.96
315.93	1861.60
316.15	1789.92
316.36	1708.01
316.57	1722.34
316.79	1730.53
317.00	1732.58
317.21	1771.49
317.43	1632.23
317.64	1736.68
317.85	1640.42
318.07	1689.57
318.28	1677.29
318.49	1837.03
318.70	1910.75
318.92	1828.84
319.13	1877.99
319.34	1896.42
319.56	1777.64
319.77	1886.18
319.98	1796.07
320.20	1767.40
320.41	1765.35
320.62	1753.06
320.83	1683.43
321.05	1859.56
321.26	1798.12
321.47	1746.92
321.69	1812.45
321.90	1650.66
322.11	1642.47
322.32	1751.01
322.54	1865.70
322.75	1650.66
322.96	1863.65
323.18	1738.73
323.39	1634.28
323.60	1669.09
323.81	1695.72
324.03	1689.57
324.24	1671.14
324.45	1746.92
324.66	1701.86
324.88	1722.34
325.09	1789.92
325.30	1703.91
325.52	1722.34
325.73	1794.02
325.94	1677.29
326.15	1677.29
326.37	1763.30
326.58	1808.36
326.79	1822.69
327.00	1677.29
327.22	1681.38
327.43	1710.05
327.64	1595.37
327.85	1714.15
328.07	1691.62
328.28	1837.03
328.49	1671.14
328.70	1632.23
328.92	1607.66
329.13	1708.01
329.34	1779.68
329.55	1804.26
329.76	1826.79
329.98	1693.67
330.19	1853.41
330.40	1767.40
330.61	1722.34
330.83	1794.02
331.04	1726.44
331.25	1763.30
331.46	1662.95
331.68	1638.38
331.89	1783.78
332.10	1701.86
332.31	1626.09
332.52	1732.58
332.74	1800.16
332.95	1679.33
333.16	1658.85
333.37	1794.02
333.58	1716.20
333.80	1785.83
334.01	1611.75
334.22	1705.96
334.43	1675.24
334.64	1814.50
334.86	1697.77
335.07	1574.89
335.28	1730.53
335.49	1597.42
335.70	1714.15
335.92	1716.20
336.13	1863.65
336.34	1748.97
336.55	1783.78
336.76	1697.77
336.98	1603.56
337.19	1667.05
337.40	1806.31
337.61	1841.12
337.82	1636.33
338.04	1761.25
338.25	1634.28
338.46	1730.53
338.67	1656.81
338.88	1624.04
339.09	1603.56
339.31	1751.01
339.52	1701.86
339.73	1660.90
339.94	1757.16
340.15	1779.68
340.36	1689.57
340.58	1718.25
340.79	1605.61
341.00	1834.98
341.21	1617.90
341.42	1882.08
341.63	1632.23
341.85	1796.07
342.06	1712.10
342.27	1697.77
342.48	1765.35
342.69	1654.76
342.90	1773.54
343.12	1767.40
343.33	1695.72
343.54	1763.30
343.75	1791.97
343.96	1691.62
344.17	1656.81
344.38	1701.86
344.60	1679.33
344.81	1710.05
345.02	1693.67
345.23	1697.77
345.44	1755.11
345.65	1775.59
345.86	1724.39
346.07	1708.01
346.29	1681.38
346.50	1714.15
346.71	1656.81
346.92	1841.12
347.13	1787.88
347.34	1767.40
347.55	1675.24
347.76	1765.35
347.98	1613.80
348.19	1755.11
348.40	1777.64
348.61	1681.38
348.82	1802.21
349.03	1736.68
349.24	1656.81
349.45	1806.31
349.66	1607.66
349.88	1628.14
350.09	1718.25
350.30	1740.77
350.51	1816.55
350.72	1646.57
350.93	1796.07
351.14	1718.25
351.35	1839.08
351.56	1726.44
351.77	1730.53
351.99	1716.20
352.20	1810.40
352.41	1757.16
352.62	1603.56
352.83	1708.01
353.04	1691.62
353.25	1720.29
353.46	1728.49
353.67	1804.26
353.88	1689.57
354.09	1755.11
354.30	1712.10
354.52	1710.05
354.73	1726.44
354.94	1591.27
355.15	1699.81
355.36	1816.55
355.57	1697.77
355.78	1746.92
355.99	1728.49
356.20	1665.00
356.41	1812.45
356.62	1669.09
356.83	1775.59
357.04	1744.87
357.25	1652.71
357.46	1710.05
357.68	1626.09
357.89	1628.14
358.10	1802.21
358.31	1677.29
358.52	1665.00
358.73	1660.90
358.94	1689.57
359.15	1665.00
359.36	1794.02
359.57	1767.40
359.78	1654.76
359.99	1665.00
360.20	1630.18
360.41	1734.63
360.62	1755.11
360.83	1736.68
361.04	1683.43
361.25	1718.25
361.46	1726.44
361.67	1800.16
361.88	1773.54
362.09	1761.25
362.30	1761.25
362.51	1699.81
362.72	1853.41
362.93	1796.07
363.14	1759.21
363.35	1660.90
363.56	1681.38
363.78	1804.26
363.99	1769.44
364.20	1660.90
364.41	1679.33
364.62	1865.70
364.83	1736.68
365.04	1710.05
365.25	1751.01
365.46	1837.03
365.67	1720.29
365.88	1642.47
366.09	1695.72
366.30	1691.62
366.51	1712.10
366.72	1658.85
366.93	1755.11
367.14	1740.77
367.35	1779.68
367.56	1665.00
367.77	1783.78
367.98	1757.16
368.18	1708.01
368.39	1730.53
368.60	1660.90
368.81	1806.31
369.02	1730.53
369.23	1691.62
369.44	1574.89
369.65	1748.97
369.86	1671.14
370.07	1751.01
370.28	1695.72
370.49	1802.21
370.70	1675.24
370.91	1662.95
371.12	1677.29
371.33	1740.77
371.54	1669.09
371.75	1771.49
371.96	1550.31
372.17	1681.38
372.38	1697.77
372.59	1771.49
372.80	1722.34
373.01	1671.14
373.22	1714.15
373.43	1742.82
373.64	1710.05
373.85	1853.41
374.06	1839.08
374.26	1834.98
374.47	1722.34
374.68	1812.45
374.89	1761.25
375.10	1685.48
375.31	1748.97
375.52	1658.85
375.73	1779.68
375.94	1679.33
376.15	1705.96
376.36	1695.72
376.57	1646.57
376.78	1679.33
376.99	1689.57
377.20	1767.40
377.40	1667.05
377.61	1900.52
377.82	1669.09
378.03	1785.83
378.24	1779.68
378.45	1708.01
378.66	1755.11
378.87	1656.81
379.08	1648.61
379.29	1611.75
379.50	1767.40
379.71	1765.35
379.91	1724.39
380.12	1701.86
380.33	1771.49
380.54	1689.57
380.75	1751.01
380.96	1722.34
381.17	1775.59
381.38	1773.54
381.59	1726.44
381.80	1757.16
382.00	1783.78
382.21	1703.91
382.42	1828.84
382.63	1914.85
382.84	1751.01
383.05	1791.97
383.26	1808.36
383.47	1798.12
383.68	1759.21
383.88	1683.43
384.09	1726.44
384.30	1845.22
384.51	1806.31
384.72	1630.18
384.93	1632.23
385.14	1693.67
385.35	1851.36
385.55	1660.90
385.76	1830.88
385.97	1722.34
386.18	1597.42
386.39	1679.33
386.60	1669.09
386.81	1720.29
387.02	1669.09
387.22	1638.38
387.43	1759.21
387.64	1787.88
387.85	1869.80
388.06	2201.57
388.27	4323.26
388.48	6647.71
388.68	7935.88
388.89	9482.10
389.10	9752.43
389.31	8511.36
389.52	7522.19
389.73	6594.46
389.93	6254.50
390.14	5695.40
390.35	5031.86
390.56	4517.82
390.77	3772.36
390.98	2936.79
391.18	2492.38
391.39	2176.99
391.60	1791.97
391.81	1767.40
392.02	1693.67
392.23	1837.03
392.43	1734.63
392.64	1826.79
392.85	1728.49
393.06	1804.26
393.27	1736.68
393.47	1783.78
393.68	1703.91
393.89	1720.29
394.10	1775.59
394.31	1695.72
394.52	1714.15
394.72	1634.28
394.93	1800.16
395.14	1624.04
395.35	1650.66
395.56	1683.43
395.76	1839.08
395.97	1820.64
396.18	1849.32
396.39	1861.60
396.60	1976.29
396.80	1939.43
397.01	1871.84
397.22	1791.97
397.43	1843.17
397.64	1714.15
397.84	1812.45
398.05	1875.94
398.26	1718.25
398.47	1824.74
398.67	1775.59
398.88	1779.68
399.09	1757.16
399.30	1761.25
399.51	1789.92
399.71	1685.48
399.92	1744.87
400.13	1789.92
400.34	1656.81
400.54	1679.33
400.75	1705.96
400.96	1705.96
401.17	1849.32
401.37	1773.54
401.58	1730.53
401.79	1779.68
402.00	1855.46
402.21	2021.35
402.41	1935.33
402.62	1957.86
402.83	1939.43
403.04	1943.52
403.24	2056.16
403.45	1910.75
403.66	1882.08
403.87	1841.12
404.07	1873.89
404.28	1976.29
404.49	1894.37
404.70	1834.98
404.90	1765.35
405.11	1800.16
405.32	1818.60
405.52	1673.19
405.73	1785.83
405.94	1728.49
406.15	1771.49
406.35	1777.64
406.56	1834.98
406.77	1703.91
406.98	1726.44
407.18	1693.67
407.39	1714.15
407.60	1660.90
407.80	1773.54
408.01	1652.71
408.22	1816.55
408.43	1738.73
408.63	1787.88
408.84	1798.12
409.05	1806.31
409.25	1705.96
409.46	1708.01
409.67	1648.61
409.88	1638.38
410.08	1726.44
410.29	1757.16
410.50	1787.88
410.70	1722.34
410.91	1687.53
411.12	1769.44
411.32	1740.77
411.53	1720.29
411.74	1777.64
411.95	1814.50
412.15	1742.82
412.36	1867.75
412.57	1748.97
412.77	1755.11
412.98	1796.07
413.19	1689.57
413.39	1806.31
413.60	1708.01
413.81	1800.16
414.01	1691.62
414.22	1748.97
414.43	1699.81
414.63	1794.02
414.84	1822.69
415.05	1804.26
415.25	1632.23
415.46	1787.88
415.67	1691.62
415.87	1726.44
416.08	1753.06
416.29	1681.38
416.49	1734.63
416.70	1673.19
416.91	1701.86
417.11	1679.33
417.32	1714.15
417.53	1802.21
417.73	1685.48
417.94	1703.91
418.15	1748.97
418.35	1669.09
418.56	1654.76
418.77	1847.27
418.97	1679.33
419.18	1763.30
419.38	1603.56
419.59	1683.43
419.80	1804.26
420.00	1621.99
420.21	1695.72
420.42	1818.60
420.62	1789.92
420.83	1603.56
421.04	1724.39
421.24	1712.10
421.45	1730.53
421.65	1769.44
421.86	1732.58
422.07	1740.77
422.27	1748.97
422.48	1728.49
422.69	1730.53
422.89	1765.35
423.10	1658.85
423.30	1732.58
423.51	1703.91
423.72	1796.07
423.92	1761.25
424.13	1697.77
424.33	1726.44
424.54	1810.40
424.75	1697.77
424.95	1781.73
425.16	1699.81
425.36	1716.20
425.57	1871.84
425.78	1705.96
425.98	1761.25
426.19	1697.77
426.39	1673.19
426.60	1660.90
426.81	1853.41
427.01	1640.42
427.22	1638.38
427.42	1597.42
427.63	1716.20
427.83	1791.97
428.04	1834.98
428.25	1796.07
428.45	1787.88
428.66	1779.68
428.86	1763.30
429.07	1687.53
429.28	1714.15
429.48	1689.57
429.69	1708.01
429.89	1701.86
430.10	1681.38
430.30	1755.11
430.51	1673.19
430.71	1728.49
430.92	1685.48
431.13	1624.04
431.33	1697.77
431.54	1777.64
431.74	1896.42
431.95	1746.92
432.15	1708.01
432.36	1646.57
432.56	1755.11
432.77	1861.60
432.98	1812.45
433.18	1730.53
433.39	1703.91
433.59	1742.82
433.80	1820.64
434.00	1906.66
434.21	1669.09
434.41	1650.66
434.62	1943.52
434.82	1613.80
435.03	1648.61
435.23	1761.25
435.44	1619.94
435.64	1736.68
435.85	1726.44
436.06	1767.40
436.26	1765.35
436.47	1681.38
436.67	1675.24
436.88	1699.81
437.08	1738.73
437.29	1841.12
437.49	1732.58
437.70	1722.34
437.90	1691.62
438.11	1845.22
438.31	1877.99
438.52	1869.80
438.72	1843.17
438.93	1920.99
439.13	1834.98
439.34	1957.86
439.54	1734.63
439.75	1759.21
439.95	1826.79
440.16	1732.58
440.36	1728.49
440.57	1716.20
440.77	1791.97
440.98	1740.77
441.18	1798.12
441.39	1703.91
441.59	1691.62
441.80	1812.45
442.00	1724.39
442.21	1806.31
442.41	1683.43
442.62	1757.16
442.82	1734.63
443.02	1798.12
443.23	1777.64
443.43	1740.77
443.64	1808.36
443.84	1677.29
444.05	1798.12
444.25	1771.49
444.46	1769.44
444.66	1751.01
444.87	1806.31
445.07	1691.62
445.28	1759.21
445.48	1785.83
445.69	1810.40
445.89	1857.51
446.09	1738.73
446.30	2062.30
446.50	2713.56
446.71	3641.29
446.91	4382.65
447.12	4739.00
447.32	4908.98
447.53	4323.26
447.73	3866.56
447.93	3573.71
448.14	3272.65
448.34	3178.45
448.55	2959.31
448.75	2842.58
448.96	2707.41
449.16	2367.45
449.36	2203.61
449.57	1974.24
449.77	1916.90
449.98	1810.40
450.18	1759.21
450.39	1847.27
450.59	1806.31
450.79	1777.64
451.00	1718.25
451.20	1892.32
451.41	1697.77
451.61	1796.07
451.81	1773.54
452.02	1689.57
452.22	1730.53
452.43	1785.83
452.63	1675.24
452.84	1763.30
453.04	1697.77
453.24	1683.43
453.45	1691.62
453.65	1689.57
453.86	1789.92
454.06	1763.30
454.26	1765.35
454.47	1804.26
454.67	1832.93
454.87	1740.77
455.08	1732.58
455.28	1863.65
455.49	1781.73
455.69	1613.80
455.89	1894.37
456.10	1718.25
456.30	1730.53
456.51	1785.83
456.71	1681.38
456.91	1777.64
457.12	1781.73
457.32	1794.02
457.52	1673.19
457.73	1773.54
457.93	1726.44
458.14	1714.15
458.34	1724.39
458.54	1742.82
458.75	1714.15
458.95	1777.64
459.15	1742.82
459.36	1847.27
459.56	1851.36
459.76	1832.93
459.97	1705.96
460.17	1734.63
460.37	1783.78
460.58	1789.92
460.78	1763.30
460.99	1716.20
461.19	1730.53
461.39	1650.66
461.60	1720.29
461.80	1759.21
462.00	1660.90
462.21	1726.44
462.41	1675.24
462.61	1675.24
462.82	1761.25
463.02	1740.77
463.22	1834.98
463.43	1857.51
463.63	1701.86
463.83	1808.36
464.04	1781.73
464.24	1769.44
464.44	1708.01
464.64	1753.06
464.85	1728.49
465.05	1810.40
465.25	1771.49
465.46	1740.77
465.66	1697.77
465.86	1769.44
466.07	1763.30
466.27	1665.00
466.47	1611.75
466.68	1642.47
466.88	1869.80
467.08	1804.26
467.29	1791.97
467.49	1708.01
467.69	1687.53
467.89	1683.43
468.10	1734.63
468.30	1771.49
468.50	1798.12
468.71	1738.73
468.91	1681.38
469.11	1822.69
469.31	1693.67
469.52	1658.85
469.72	1814.50
469.92	1845.22
470.13	1775.59
470.33	1837.03
470.53	1820.64
470.73	2144.22
470.94	2324.44
471.14	2293.72
471.34	2586.58
471.54	2389.98
471.75	2213.85
471.95	2164.70
472.15	2062.30
472.36	2185.18
472.56	1966.05
472.76	2054.11
472.96	2035.68
473.17	1955.81
473.37	1978.34
473.57	1761.25
473.77	1859.56
473.98	1740.77
474.18	1771.49
474.38	1933.28
474.58	1779.68
474.79	1679.33
474.99	1843.17
475.19	1726.44
475.39	1708.01
475.60	1771.49
475.80	1710.05
476.00	1734.63
476.20	1714.15
476.41	1722.34
476.61	1828.84
476.81	1816.55
477.01	1679.33
477.21	1902.56
477.42	1808.36
477.62	1646.57
477.82	1738.73
478.02	1734.63
478.23	1779.68
478.43	1601.51
478.63	1613.80
478.83	1736.68
479.03	1665.00
479.24	1777.64
479.44	1824.74
479.64	1681.38
479.84	1574.89
480.04	1683.43
480.25	1849.32
480.45	1656.81
480.65	1708.01
480.85	1853.41
481.06	1697.77
481.26	1599.46
481.46	1812.45
481.66	1794.02
481.86	1673.19
482.06	1810.40
482.27	1689.57
482.47	1718.25
482.67	1781.73
482.87	1683.43
483.07	1787.88
483.28	1808.36
483.48	1669.09
483.68	1771.49
483.88	1673.19
484.08	1736.68
484.29	1697.77
484.49	1693.67
484.69	1693.67
484.89	1667.05
485.09	1841.12
485.29	1796.07
485.50	1701.86
485.70	1658.85
485.90	1830.88
486.10	1738.73
486.30	1742.82
486.50	1726.44
486.71	1736.68
486.91	1738.73
487.11	1802.21
487.31	1681.38
487.51	1779.68
487.71	1679.33
487.91	1689.57
488.12	1753.06
488.32	1562.60
488.52	1703.91
488.72	1593.32
488.92	1775.59
489.12	1771.49
489.32	1722.34
489.53	1697.77
489.73	1708.01
489.93	1841.12
490.13	1722.34
490.33	1652.71
490.53	1728.49
490.73	1773.54
490.94	1679.33
491.14	1738.73
491.34	1873.89
491.54	2195.42
491.74	2566.10
491.94	2869.20
492.14	3102.67
492.34	2893.78
492.54	2688.98
492.75	2494.43
492.95	2422.75
493.15	2252.77
493.35	2320.35
493.55	2230.24
493.75	2220.00
493.95	2170.85
494.15	2013.15
494.35	1974.24
494.56	1783.78
494.76	1740.77
494.96	1802.21
495.16	1806.31
495.36	1667.05
495.56	1751.01
495.76	1746.92
495.96	1691.62
496.16	1730.53
496.36	1861.60
496.56	1736.68
496.77	1734.63
496.97	1757.16
497.17	1847.27
497.37	1683.43
497.57	1814.50
497.77	1683.43
497.97	1673.19
498.17	1742.82
498.37	1669.09
498.57	1755.11
498.77	1732.58
498.97	1802.21
499.17	1800.16
499.38	1800.16
499.58	1722.34
499.78	1775.59
499.98	1828.84
500.18	1697.77
500.38	1736.68
500.58	1914.85
500.78	2510.81
500.98	4540.35
501.18	5799.85
501.38	6752.15
501.58	7157.65
501.78	6588.32
501.98	5584.81
502.18	4927.41
502.38	4368.32
502.58	4198.34
502.78	3729.35
502.98	3526.60
503.18	3452.88
503.38	3112.91
503.59	2799.57
503.79	2613.21
503.99	2488.28
504.19	2324.44
504.39	2164.70
504.59	2125.79
504.79	2164.70
504.99	2031.58
505.19	1863.65
505.39	1849.32
505.59	1966.05
505.79	1920.99
505.99	1886.18
506.19	1822.69
506.39	1898.47
506.59	1839.08
506.79	1810.40
506.99	1828.84
507.19	1820.64
507.39	1810.40
507.59	1648.61
507.79	1621.99
507.99	1626.09
508.19	1755.11
508.39	1681.38
508.59	1787.88
508.79	1802.21
508.99	1796.07
509.19	1820.64
509.39	1757.16
509.59	1705.96
509.79	1669.09
509.99	1820.64
510.19	1822.69
510.39	1851.36
510.59	1755.11
510.79	1716.20
510.99	1607.66
511.19	1705.96
511.39	1839.08
511.59	1816.55
511.79	1863.65
511.99	1746.92
512.19	1841.12
512.38	1746.92
512.58	1728.49
512.78	1753.06
512.98	1781.73
513.18	1814.50
513.38	1679.33
513.58	1767.40
513.78	1736.68
513.98	1738.73
514.18	1732.58
514.38	1671.14
514.58	1791.97
514.78	1708.01
514.98	1613.80
515.18	1708.01
515.38	1701.86
515.58	1882.08
515.78	1705.96
515.98	1748.97
516.18	1869.80
516.38	1753.06
516.57	1687.53
516.77	1673.19
516.97	1767.40
517.17	1716.20
517.37	1603.56
517.57	1849.32
517.77	1724.39
517.97	1761.25
518.17	1830.88
518.37	1689.57
518.57	1652.71
518.77	1763.30
518.97	1839.08
519.16	1763.30
519.36	1847.27
519.56	1742.82
519.76	1759.21
519.96	1746.92
520.16	1812.45
520.36	1650.66
520.56	1853.41
520.76	1722.34
520.96	1738.73
521.16	1751.01
521.35	1796.07
521.55	1794.02
521.75	1718.25
521.95	1748.97
522.15	1773.54
522.35	1621.99
522.55	1726.44
522.75	1714.15
522.95	1703.91
523.14	1642.47
523.34	1791.97
523.54	1755.11
523.74	1746.92
523.94	1779.68
524.14	1751.01
524.34	1771.49
524.54	1884.13
524.73	1722.34
524.93	1763.30
525.13	1816.55
525.33	1681.38
525.53	1849.32
525.73	1763.30
525.93	1800.16
526.13	1726.44
526.32	1751.01
526.52	1808.36
526.72	1828.84
526.92	1812.45
527.12	1726.44
527.32	1720.29
527.52	1746.92
527.71	1800.16
527.91	1708.01
528.11	1714.15
528.31	1759.21
528.51	1708.01
528.71	1800.16
528.90	1804.26
529.10	1839.08
529.30	1830.88
529.50	1617.90
529.70	1769.44
529.90	1734.63
530.09	1708.01
530.29	1716.20
530.49	1724.39
530.69	1849.32
530.89	1787.88
531.09	1771.49
531.28	1771.49
531.48	1810.40
531.68	1757.16
531.88	1775.59
532.08	1724.39
532.28	1734.63
532.47	1705.96
532.67	1814.50
532.87	1728.49
533.07	1703.91
533.27	1779.68
533.46	1716.20
533.66	1736.68
533.86	1736.68
534.06	1748.97
534.26	1722.34
534.45	1761.25
534.65	1779.68
534.85	1730.53
535.05	1748.97
535.25	1740.77
535.44	1671.14
535.64	1869.80
535.84	1755.11
536.04	1732.58
536.24	1742.82
536.43	1742.82
536.63	1861.60
536.83	1685.48
537.03	1742.82
537.22	1665.00
537.42	1687.53
537.62	1757.16
537.82	1705.96
538.02	1826.79
538.21	1785.83
538.41	1892.32
538.61	1775.59
538.81	1722.34
539.00	1843.17
539.20	1628.14
539.40	1738.73
539.60	1755.11
539.79	1742.82
539.99	1720.29
540.19	1738.73
540.39	1728.49
540.58	1742.82
540.78	1779.68
540.98	1699.81
541.18	1810.40
541.37	1755.11
541.57	1755.11
541.77	1720.29
541.97	1697.77
542.16	1597.42
542.36	1697.77
542.56	1767.40
542.76	1912.80
542.95	1767.40
543.15	1761.25
543.35	1779.68
543.54	1730.53
543.74	1697.77
543.94	1783.78
544.14	1730.53
544.33	1820.64
544.53	1699.81
544.73	1742.82
544.93	1816.55
545.12	1771.49
545.32	1683.43
545.52	1718.25
545.71	1671.14
545.91	1724.39
546.11	1728.49
546.30	1705.96
546.50	1781.73
546.70	1740.77
546.90	1689.57
547.09	1576.94
547.29	1779.68
547.49	1771.49
547.68	1691.62
547.88	1673.19
548.08	1710.05
548.27	2131.94
548.47	1767.40
548.67	1767.40
548.87	1755.11
549.06	1726.44
549.26	1751.01
549.46	1806.31
549.65	1734.63
549.85	1732.58
550.05	1814.50
550.24	1619.94
550.44	1753.06
550.64	1724.39
550.83	1738.73
551.03	1775.59
551.23	1769.44
551.42	1759.21
551.62	1636.33
551.82	1732.58
552.01	1677.29
552.21	1791.97
552.41	1763.30
552.60	1759.21
552.80	1744.87
553.00	1693.67
553.19	1722.34
553.39	1822.69
553.59	1652.71
553.78	1757.16
553.98	1767.40
554.17	1703.91
554.37	1722.34
554.57	1824.74
554.76	1705.96
554.96	1671.14
555.16	1759.21
555.35	1738.73
555.55	1794.02
555.75	1789.92
555.94	1804.26
556.14	1642.47
556.33	1783.78
556.53	1769.44
556.73	1787.88
556.92	1826.79
557.12	1820.64
557.32	1867.75
557.51	1859.56
557.71	1824.74
557.90	1843.17
558.10	1859.56
558.30	1699.81
558.49	1785.83
558.69	1742.82
558.88	1769.44
559.08	1791.97
559.28	1660.90
559.47	1763.30
559.67	1832.93
559.86	1845.22
560.06	1687.53
560.26	1724.39
560.45	1822.69
560.65	1759.21
560.84	1810.40
561.04	1724.39
561.24	1781.73
561.43	1675.24
561.63	1787.88
561.82	1796.07
562.02	1808.36
562.22	1697.77
562.41	1693.67
562.61	1773.54
562.80	1673.19
563.00	1855.46
563.19	1761.25
563.39	1816.55
563.59	1767.40
563.78	1724.39
563.98	1615.85
564.17	1720.29
564.37	1691.62
564.56	1759.21
564.76	1685.48
564.96	1791.97
565.15	1714.15
565.35	1828.84
565.54	1738.73
565.74	1812.45
565.93	1783.78
566.13	1730.53
566.32	1738.73
566.52	1798.12
566.71	1740.77
566.91	1863.65
567.11	1742.82
567.30	1683.43
567.50	1781.73
567.69	1810.40
567.89	1736.68
568.08	1724.39
568.28	1732.58
568.47	1722.34
568.67	1791.97
568.86	1712.10
569.06	1843.17
569.25	1738.73
569.45	1675.24
569.64	1701.86
569.84	1714.15
570.04	1759.21
570.23	1693.67
570.43	1746.92
570.62	1779.68
570.82	1837.03
571.01	1705.96
571.21	1718.25
571.40	1665.00
571.60	1804.26
571.79	1775.59
571.99	1701.86
572.18	1759.21
572.38	1746.92
572.57	1681.38
572.77	1796.07
572.96	1869.80
573.16	1705.96
573.35	1761.25
573.55	1900.52
573.74	1740.77
573.94	1757.16
574.13	1759.21
574.33	1783.78
574.52	1767.40
574.71	1738.73
574.91	1736.68
575.10	1710.05
575.30	1757.16
575.49	1673.19
575.69	1775.59
575.88	1834.98
576.08	1781.73
576.27	1824.74
576.47	1753.06
576.66	1886.18
576.86	1759.21
577.05	1718.25
577.25	1806.31
577.44	1865.70
577.64	1712.10
577.83	1791.97
578.02	1759.21
578.22	1906.66
578.41	1785.83
578.61	1767.40
578.80	1685.48
579.00	1720.29
579.19	1810.40
579.39	1730.53
579.58	1808.36
579.77	1804.26
579.97	1785.83
580.16	1808.36
580.36	1794.02
580.55	1857.51
580.75	1763.30
580.94	1818.60
581.13	1832.93
581.33	1906.66
581.52	1744.87
581.72	1822.69
581.91	1855.46
582.11	1681.38
582.30	1794.02
582.49	1857.51
582.69	1822.69
582.88	1794.02
583.08	1687.53
583.27	1820.64
583.47	1771.49
583.66	1703.91
583.85	1722.34
584.05	1730.53
584.24	1882.08
584.44	1802.21
584.63	1767.40
584.82	1886.18
585.02	1941.47
585.21	1826.79
585.41	1820.64
585.60	1910.75
585.79	1931.23
585.99	1955.81
586.18	1859.56
586.37	2248.67
586.57	3463.12
586.76	9871.21
586.96	24147.60
587.15	34219.51
587.34	40041.88
587.54	41276.81
587.73	35843.55
587.93	25953.91
588.12	21208.76
588.31	18001.65
588.51	16064.27
588.70	15009.56
588.89	13848.36
589.09	12488.51
589.28	10868.57
589.47	9271.15
589.67	7870.34
589.86	6199.20
590.06	4763.58
590.25	3778.50
590.44	3082.19
590.64	2502.62
590.83	2172.89
591.02	2156.51
591.22	1970.15
591.41	1943.52
591.60	1845.22
591.80	1888.23
591.99	1744.87
592.18	1845.22
592.38	1884.13
592.57	1712.10
592.76	1744.87
592.96	1863.65
593.15	1814.50
593.34	1796.07
593.54	1757.16
593.73	1837.03
593.92	1789.92
594.12	1753.06
594.31	1798.12
594.50	1820.64
594.70	1857.51
594.89	1906.66
595.08	1658.85
595.28	1767.40
595.47	1937.38
595.66	1806.31
595.86	1660.90
596.05	1714.15
596.24	1798.12
596.43	1875.94
596.63	1839.08
596.82	1763.30
597.01	1837.03
597.21	1787.88
597.40	1787.88
597.59	1753.06
597.79	1703.91
597.98	1800.16
598.17	1826.79
598.36	1765.35
598.56	1828.84
598.75	1722.34
598.94	1720.29
599.14	1814.50
599.33	1718.25
599.52	1718.25
599.71	1808.36
599.91	1705.96
600.10	1763.30
600.29	1759.21
600.48	1787.88
600.68	1777.64
600.87	1746.92
601.06	1718.25
601.26	1732.58
601.45	1800.16
601.64	1677.29
601.83	1800.16
602.03	1738.73
602.22	1734.63
602.41	1720.29
602.60	1937.38
602.80	1820.64
602.99	1740.77
603.18	1759.21
603.37	1820.64
603.57	1794.02
603.76	1791.97
603.95	1845.22
604.14	1728.49
604.34	1683.43
604.53	1738.73
604.72	1730.53
604.91	1771.49
605.10	1775.59
605.30	1605.61
605.49	1900.52
605.68	1794.02
605.87	1708.01
606.07	1736.68
606.26	1691.62
606.45	1857.51
606.64	1767.40
606.84	1736.68
607.03	1722.34
607.22	1757.16
607.41	1638.38
607.60	1728.49
607.80	1828.84
607.99	1744.87
608.18	1746.92
608.37	1779.68
608.56	1734.63
608.76	1845.22
608.95	1943.52
609.14	1730.53
609.33	1734.63
609.52	1794.02
609.72	1748.97
609.91	1779.68
610.10	1779.68
610.29	1861.60
610.48	1716.20
610.68	1755.11
610.87	1818.60
611.06	1789.92
611.25	1703.91
611.44	1892.32
611.63	1744.87
611.83	1843.17
612.02	1687.53
612.21	1832.93
612.40	1640.42
612.59	1648.61
612.79	1701.86
612.98	1802.21
613.17	1884.13
613.36	1703.91
613.55	1798.12
613.74	1693.67
613.93	1785.83
614.13	1728.49
614.32	1804.26
614.51	1744.87
614.70	1744.87
614.89	1701.86
615.08	1783.78
615.28	2080.74
615.47	1701.86
615.66	1679.33
615.85	1755.11
616.04	1906.66
616.23	1804.26
616.42	1703.91
616.62	1730.53
616.81	1837.03
617.00	1656.81
617.19	1810.40
617.38	1783.78
617.57	1705.96
617.76	1800.16
617.95	1724.39
618.15	1728.49
618.34	1812.45
618.53	1669.09
618.72	1875.94
618.91	1843.17
619.10	1824.74
619.29	1724.39
619.48	1732.58
619.68	1693.67
619.87	1742.82
620.06	1705.96
620.25	1798.12
620.44	1746.92
620.63	1718.25
620.82	1828.84
621.01	1775.59
621.20	1716.20
621.39	1769.44
621.59	1748.97
621.78	1751.01
621.97	1751.01
622.16	1767.40
622.35	1718.25
622.54	1814.50
622.73	1748.97
622.92	1595.37
623.11	1800.16
623.30	1701.86
623.49	1771.49
623.68	1691.62
623.88	1789.92
624.07	1720.29
624.26	1730.53
624.45	1705.96
624.64	1763.30
624.83	1740.77
625.02	1691.62
625.21	1867.75
625.40	1730.53
625.59	1796.07
625.78	1763.30
625.97	1830.88
626.16	1816.55
626.35	1779.68
626.54	1812.45
626.74	1871.84
626.93	1726.44
627.12	1728.49
627.31	1832.93
627.50	1775.59
627.69	1826.79
627.88	1705.96
628.07	1699.81
628.26	1642.47
628.45	1722.34
628.64	1665.00
628.83	1789.92
629.02	1716.20
629.21	1726.44
629.40	1761.25
629.59	1636.33
629.78	1742.82
629.97	1726.44
630.16	1787.88
630.35	1759.21
630.54	1675.24
630.73	1685.48
630.92	1714.15
631.11	1730.53
631.30	1824.74
631.49	1822.69
631.68	1714.15
631.87	1746.92
632.06	1656.81
632.25	1837.03
632.44	1720.29
632.63	1748.97
632.82	1738.73
633.01	1677.29
633.20	1730.53
633.39	1695.72
633.58	1699.81
633.77	1771.49
633.96	1720.29
634.15	1853.41
634.34	1769.44
634.53	1732.58
634.72	1740.77
634.91	1617.90
635.10	1746.92
635.29	1724.39
635.48	1726.44
635.67	1705.96
635.86	1581.03
636.05	1861.60
636.24	1800.16
636.43	1738.73
636.62	1812.45
636.81	1646.57
637.00	1748.97
637.19	1779.68
637.38	1699.81
637.57	1699.81
637.76	1626.09
637.95	1767.40
638.14	1656.81
638.33	1734.63
638.52	1746.92
638.71	1697.77
638.89	1689.57
639.08	1886.18
639.27	1767.40
639.46	1687.53
639.65	1767.40
639.84	1748.97
640.03	1785.83
640.22	1708.01
640.41	1818.60
640.60	1697.77
640.79	1724.39
640.98	1673.19
641.17	1757.16
641.36	1787.88
641.55	1744.87
641.74	1697.77
641.92	1693.67
642.11	1593.32
642.30	1789.92
642.49	1665.00
642.68	1685.48
642.87	1683.43
643.06	1800.16
643.25	1767.40
643.44	1701.86
643.63	1755.11
643.82	1740.77
644.00	1675.24
644.19	1746.92
644.38	1566.70
644.57	1767.40
644.76	1746.92
644.95	1800.16
645.14	1689.57
645.33	1716.20
645.52	1720.29
645.71	1662.95
645.89	1669.09
646.08	1804.26
646.27	1683.43
646.46	1808.36
646.65	1656.81
646.84	1751.01
647.03	1642.47
647.22	1832.93
647.40	1730.53
647.59	1652.71
647.78	1603.56
647.97	1746.92
648.16	1773.54
648.35	1791.97
648.54	1837.03
648.73	1714.15
648.91	1742.82
649.10	1701.86
649.29	1710.05
649.48	1689.57
649.67	1697.77
649.86	1714.15
650.05	1632.23
650.23	1796.07
650.42	1660.90
650.61	1789.92
650.80	1816.55
650.99	1841.12
651.18	1763.30
651.36	1804.26
651.55	1656.81
651.74	1843.17
651.93	1753.06
652.12	1724.39
652.31	1695.72
652.49	1732.58
652.68	1705.96
652.87	1841.12
653.06	1742.82
653.25	1771.49
653.44	1720.29
653.62	1769.44
653.81	1685.48
654.00	1777.64
654.19	1853.41
654.38	1820.64
654.56	1701.86
654.75	1732.58
654.94	1794.02
655.13	1751.01
655.32	1705.96
655.51	1740.77
655.69	1665.00
655.88	1771.49
656.07	1646.57
656.26	1736.68
656.45	1703.91
656.63	1712.10
656.82	1748.97
657.01	1779.68
657.20	1617.90
657.38	1910.75
657.57	1769.44
657.76	1675.24
657.95	1845.22
658.14	1720.29
658.32	1763.30
658.51	1624.04
658.70	1699.81
658.89	1796.07
659.08	1736.68
659.26	1816.55
659.45	1677.29
659.64	1742.82
659.83	1710.05
660.01	1904.61
660.20	1708.01
660.39	1871.84
660.58	1732.58
660.76	1787.88
660.95	1677.29
661.14	1746.92
661.33	1679.33
661.51	1751.01
661.70	1689.57
661.89	1804.26
662.08	1767.40
662.26	1679.33
662.45	1693.67
662.64	1902.56
662.83	1824.74
663.01	1722.34
663.20	1703.91
663.39	1798.12
663.58	1603.56
663.76	1771.49
663.95	1767.40
664.14	1665.00
664.32	1763.30
664.51	1738.73
664.70	1638.38
664.89	1769.44
665.07	1654.76
665.26	1769.44
665.45	1689.57
665.64	1806.31
665.82	1708.01
666.01	1787.88
666.20	1693.67
666.38	1748.97
666.57	1826.79
666.76	2263.01
666.95	4595.64
667.13	10536.80
667.32	15144.73
667.51	17415.93
667.69	19033.82
667.88	17348.34
668.07	12109.64
668.25	9389.94
668.44	7939.97
668.63	7151.51
668.81	6686.62
669.00	6256.54
669.19	5629.87
669.38	5031.86
669.56	4566.97
669.75	3893.19
669.94	3395.53
670.12	2965.46
670.31	2541.53
670.50	2217.95
670.68	1935.33
670.87	1974.24
671.06	1818.60
671.24	1814.50
671.43	1904.61
671.62	1787.88
671.80	1728.49
671.99	1759.21
672.18	1761.25
672.36	1796.07
672.55	1755.11
672.74	1689.57
672.92	1720.29
673.11	1765.35
673.29	1619.94
673.48	1769.44
673.67	1693.67
673.85	1802.21
674.04	1703.91
674.23	1808.36
674.41	1824.74
674.60	1656.81
674.79	1701.86
674.97	1796.07
675.16	1775.59
675.34	1738.73
675.53	1718.25
675.72	1755.11
675.90	1810.40
676.09	1685.48
676.28	1757.16
676.46	1691.62
676.65	1767.40
676.83	1689.57
677.02	1728.49
677.21	1791.97
677.39	1720.29
677.58	1642.47
677.77	1701.86
677.95	1744.87
678.14	1716.20
678.32	1640.42
678.51	1705.96
678.70	1822.69
678.88	1660.90
679.07	1808.36
679.25	1757.16
679.44	1730.53
679.63	1642.47
679.81	1728.49
680.00	1796.07
680.18	1730.53
680.37	1775.59
680.55	1787.88
680.74	1669.09
680.93	1591.27
681.11	1728.49
681.30	1695.72
681.48	1744.87
681.67	1679.33
681.85	1710.05
682.04	1718.25
682.23	1761.25
682.41	1705.96
682.60	1699.81
682.78	1681.38
682.97	1697.77
683.15	1761.25
683.34	1712.10
683.53	1777.64
683.71	1660.90
683.90	1781.73
684.08	1812.45
684.27	1763.30
684.45	1734.63
684.64	1837.03
684.82	1695.72
685.01	1753.06
685.19	1746.92
685.38	1808.36
685.57	1685.48
685.75	1701.86
685.94	1712.10
686.12	1632.23
686.31	1681.38
686.49	1861.60
686.68	1597.42
686.86	1685.48
687.05	1755.11
687.23	1777.64
687.42	1703.91
687.60	1646.57
687.79	1748.97
687.97	1781.73
688.16	1851.36
688.34	1806.31
688.53	1703.91
688.71	1669.09
688.90	1796.07
689.08	1658.85
689.27	1648.61
689.45	1689.57
689.64	1669.09
689.82	1763.30
690.01	1734.63
690.19	1773.54
690.38	1636.33
690.56	1837.03
690.75	1652.71
690.93	1644.52
691.12	1660.90
691.30	1718.25
691.49	1644.52
691.67	1699.81
691.86	1767.40
692.04	1638.38
692.23	1638.38
692.41	1734.63
692.60	1808.36
692.78	1824.74
692.97	1665.00
693.15	1738.73
693.34	1902.56
693.52	1730.53
693.71	1685.48
693.89	1761.25
694.08	1603.56
694.26	1787.88
694.44	1744.87
694.63	1796.07
694.81	1667.05
695.00	1638.38
695.18	1769.44
695.37	1939.43
695.55	1683.43
695.74	1648.61
695.92	1697.77
696.10	1769.44
696.29	1607.66
696.47	1701.86
696.66	1662.95
696.84	1652.71
697.03	1757.16
697.21	1757.16
697.40	2324.44
697.58	1834.98
697.76	1714.15
697.95	1665.00
698.13	1648.61
698.32	1681.38
698.50	1683.43
698.68	1751.01
698.87	1781.73
699.05	1759.21
699.24	1777.64
699.42	1667.05
699.61	1677.29
699.79	1710.05
699.97	1679.33
700.16	1732.58
700.34	1652.71
700.53	1662.95
700.71	1789.92
700.89	1791.97
701.08	1675.24
701.26	1746.92
701.45	2205.66
701.63	1658.85
701.81	1677.29
702.00	1611.75
702.18	1724.39
702.37	1726.44
702.55	1736.68
702.73	1708.01
702.92	1619.94
703.10	1734.63
703.28	1742.82
703.47	1675.24
703.65	1769.44
703.84	1808.36
704.02	1703.91
704.20	1824.74
704.39	1751.01
704.57	1693.67
704.75	1818.60
704.94	1765.35
705.12	1710.05
705.30	1804.26
705.49	2277.34
705.67	4569.02
705.86	9494.38
706.04	12648.26
706.22	14282.53
706.41	15075.10
706.59	13883.18
706.77	9455.47
706.96	7311.25
707.14	6520.73
707.32	5840.81
707.51	5593.00
707.69	4816.82
707.87	4065.22
708.06	3422.16
708.24	2928.60
708.42	2404.32
708.61	2234.33
708.79	1914.85
708.97	1830.88
709.16	1804.26
709.34	1755.11
709.52	1773.54
709.71	1656.81
709.89	1861.60
710.07	1755.11
710.26	1652.71
710.44	1683.43
710.62	1730.53
710.80	1728.49
710.99	1767.40
711.17	1822.69
711.35	1703.91
711.54	1755.11
711.72	1816.55
711.90	1763.30
712.09	1693.67
712.27	1652.71
712.45	1765.35
712.63	1703.91
712.82	1677.29
713.00	1705.96
713.18	1751.01
713.37	1755.11
713.55	1636.33
713.73	1722.34
713.91	1740.77
714.10	1783.78
714.28	1691.62
714.46	1738.73
714.65	1746.92
714.83	1734.63
715.01	1759.21
715.19	1705.96
715.38	1724.39
715.56	1687.53
715.74	1656.81
715.92	1730.53
716.11	1798.12
716.29	1621.99
716.47	1736.68
716.65	1705.96
716.84	1640.42
717.02	1748.97
717.20	1636.33
717.38	1619.94
717.57	1755.11
717.75	1689.57
717.93	1681.38
718.11	1728.49
718.30	1632.23
718.48	1777.64
718.66	1755.11
718.84	1742.82
719.03	1650.66
719.21	1748.97
719.39	1861.60
719.57	1734.63
719.75	1771.49
719.94	1701.86
720.12	1634.28
720.30	1722.34
720.48	1847.27
720.67	1628.14
720.85	1705.96
721.03	1718.25
721.21	1683.43
721.39	1841.12
721.58	1763.30
721.76	1710.05
721.94	1773.54
722.12	1767.40
722.30	1802.21
722.49	1669.09
722.67	1791.97
722.85	1675.24
723.03	1587.18
723.21	1687.53
723.40	1697.77
723.58	1767.40
723.76	1800.16
723.94	1759.21
724.12	1714.15
724.30	1753.06
724.49	1804.26
724.67	1677.29
724.85	1746.92
725.03	1642.47
725.21	1712.10
725.40	1787.88
725.58	1699.81
725.76	1820.64
725.94	1791.97
726.12	1753.06
726.30	1767.40
726.49	1673.19
726.67	1685.48
726.85	1697.77
727.03	1816.55
727.21	2195.42
727.39	2936.79
727.57	3735.50
727.76	4186.05
727.94	4399.04
728.12	4356.03
728.30	3698.63
728.48	2963.41
728.66	2781.14
728.84	2539.48
729.03	2320.35
729.21	2101.22
729.39	2052.06
729.57	1832.93
729.75	1828.84
729.93	1812.45
730.11	1710.05
730.30	1677.29
730.48	1712.10
730.66	1814.50
730.84	1769.44
731.02	1675.24
731.20	1683.43
731.38	1791.97
731.56	1689.57
731.74	1712.10
731.93	1769.44
732.11	1708.01
732.29	1626.09
732.47	1761.25
732.65	1755.11
732.83	1837.03
733.01	1716.20
733.19	1708.01
733.37	1783.78
733.56	1808.36
733.74	1689.57
733.92	1802.21
734.10	1718.25
734.28	1726.44
734.46	1689.57
734.64	1638.38
734.82	1683.43
735.00	1691.62
735.18	1724.39
735.36	1654.76
735.54	1705.96
735.73	1681.38
735.91	1738.73
736.09	1771.49
736.27	1757.16
736.45	1753.06
736.63	1642.47
736.81	1755.11
736.99	1767.40
737.17	1791.97
737.35	1681.38
737.53	1775.59
737.71	1683.43
737.89	1869.80
738.07	1701.86
738.25	1673.19
738.43	1658.85
738.61	1691.62
738.80	1652.71
738.98	1628.14
739.16	1648.61
739.34	1699.81
739.52	1757.16
739.70	1687.53
739.88	1726.44
740.06	1771.49
740.24	1574.89
740.42	1789.92
740.60	1642.47
740.78	1669.09
740.96	1617.90
741.14	1669.09
741.32	1681.38
741.50	1675.24
741.68	1804.26
741.86	1808.36
742.04	1648.61
742.22	1679.33
742.40	1708.01
742.58	1746.92
742.76	1654.76
742.94	1787.88
743.12	1593.32
743.30	1697.77
743.48	1708.01
743.66	1671.14
743.84	1738.73
744.02	1650.66
744.20	1734.63
744.38	1642.47
744.56	1695.72
744.74	1849.32
744.92	1697.77
745.10	1728.49
745.28	1816.55
745.46	1841.12
745.64	1662.95
745.82	1779.68
746.00	1738.73
746.18	1810.40
746.36	1683.43
746.54	1726.44
746.72	1660.90
746.90	1681.38
747.08	1830.88
747.26	1697.77
747.44	1730.53
747.62	1826.79
747.80	1697.77
747.98	1773.54
748.15	1744.87
748.33	1718.25
748.51	1777.64
748.69	1746.92
748.87	1626.09
749.05	1724.39
749.23	1710.05
749.41	1773.54
749.59	1740.77
749.77	1718.25
749.95	1660.90
750.13	1617.90
750.31	1757.16
750.49	1703.91
750.67	1857.51
750.85	1787.88
751.03	1728.49
751.20	1828.84
751.38	1791.97
751.56	1740.77
751.74	1753.06
751.92	1712.10
752.10	1681.38
752.28	1693.67
752.46	1632.23
752.64	1685.48
752.82	1685.48
753.00	1751.01
753.18	1669.09
753.35	1718.25
753.53	1730.53
753.71	1611.75
753.89	1699.81
754.07	1695.72
754.25	1820.64
754.43	1675.24
754.61	1677.29
754.79	1781.73
754.97	1759.21
755.14	1755.11
755.32	1646.57
755.50	1744.87
755.68	1775.59
755.86	1681.38
756.04	1689.57
756.22	1603.56
756.40	1779.68
756.57	1728.49
756.75	1724.39
756.93	1755.11
757.11	1746.92
757.29	1681.38
757.47	1628.14
757.65	1609.70
757.82	1615.85
758.00	1650.66
758.18	1628.14
758.36	1613.80
758.54	1751.01
758.72	1589.22
758.90	1763.30
759.07	1785.83
759.25	1687.53
759.43	1712.10
759.61	1636.33
759.79	2185.18
759.97	1804.26
760.15	1665.00
760.32	1656.81
760.50	1710.05
760.68	1759.21
760.86	1609.70
761.04	1828.84
761.22	1669.09
761.39	1771.49
761.57	1710.05
761.75	1714.15
761.93	1853.41
762.11	1658.85
762.28	1665.00
762.46	1728.49
762.64	1734.63
762.82	1613.80
763.00	1779.68
763.18	1791.97
763.35	1636.33
763.53	1716.20
763.71	1679.33
763.89	1720.29
764.07	1779.68
764.24	1742.82
764.42	1779.68
764.60	1656.81
764.78	1699.81
764.96	1820.64
765.13	1830.88
765.31	1816.55
765.49	1769.44
765.67	1597.42
765.84	1724.39
766.02	1669.09
766.20	1652.71
766.38	1818.60
766.56	1779.68
766.73	1738.73
766.91	1736.68
767.09	1767.40
767.27	1736.68
767.44	1576.94
767.62	1755.11
767.80	1785.83
767.98	1710.05
768.15	1671.14
768.33	1765.35
768.51	1779.68
768.69	1736.68
768.87	1708.01
769.04	1710.05
769.22	1894.37
769.40	1708.01
769.58	1828.84
769.75	1742.82
769.93	1785.83
770.11	1703.91
770.28	1626.09
770.46	1726.44
770.64	1697.77
770.82	1699.81
770.99	1759.21
771.17	1785.83
771.35	1697.77
771.53	1742.82
771.70	1697.77
771.88	1751.01
772.06	1667.05
772.23	1681.38
772.41	1757.16
772.59	1748.97
772.77	1708.01
772.94	1687.53
773.12	1695.72
773.30	1730.53
773.47	1773.54
773.65	1685.48
773.83	1796.07
774.01	1734.63
774.18	1587.18
774.36	1822.69
774.54	1724.39
774.71	1744.87
774.89	1636.33
775.07	1662.95
775.24	1751.01
775.42	1683.43
775.60	1791.97
775.78	1699.81
775.95	1718.25
776.13	1603.56
776.31	1585.13
776.48	1683.43
776.66	1777.64
776.84	1740.77
777.01	1699.81
777.19	1726.44
777.37	1689.57
777.54	1656.81
777.72	1820.64
777.90	1734.63
778.07	1689.57
778.25	1923.04
778.43	1810.40
778.60	1681.38
778.78	1800.16
778.96	1818.60
779.13	1693.67
779.31	1738.73
779.49	1742.82
779.66	1722.34
779.84	1648.61
780.01	1695.72
780.19	1624.04
780.37	1748.97
780.54	1765.35
780.72	1665.00
780.90	1708.01
781.07	1650.66
781.25	1675.24
781.43	1763.30
781.60	1746.92
781.78	1681.38
781.95	1697.77
782.13	1648.61
782.31	1744.87
782.48	1562.60
782.66	1753.06
782.83	1810.40
783.01	1734.63
783.19	1761.25
783.36	1740.77
783.54	1673.19
783.72	1658.85
783.89	1687.53
784.07	1699.81
784.24	1767.40
784.42	1710.05
784.60	1658.85
784.77	1710.05
784.95	1626.09
785.12	1687.53
785.30	1753.06
785.47	1701.86
785.65	1628.14
785.83	1775.59
786.00	1679.33
786.18	1724.39
786.35	1667.05
786.53	1701.86
786.71	1763.30
786.88	1644.52
787.06	1810.40
787.23	1689.57
787.41	1619.94
787.58	1685.48
787.76	1738.73
787.94	1753.06
788.11	1701.86
788.29	1583.08
788.46	1728.49
788.64	1621.99
788.81	1697.77
788.99	1615.85
789.16	1658.85
789.34	1710.05
789.52	1652.71
789.69	1708.01
789.87	1660.90
790.04	1650.66
790.22	1662.95
790.39	1873.89
790.57	1665.00
790.74	1732.58
790.92	1832.93
791.09	1632.23
791.27	1724.39
791.44	1751.01
791.62	1689.57
791.79	1789.92
791.97	1697.77
792.15	1925.09
792.32	1785.83
792.50	1734.63
792.67	1744.87
792.85	1832.93
793.02	1732.58
793.20	1720.29
793.37	1644.52
793.55	1761.25
793.72	1638.38
793.90	1669.09
794.07	1689.57
794.25	1720.29
794.42	1697.77
794.60	1714.15
794.77	1785.83
794.95	1740.77
795.12	1748.97
795.30	1693.67
795.47	1597.42
795.65	1920.99
795.82	1761.25
796.00	1597.42
796.17	1755.11
796.34	1720.29
796.52	1701.86
796.69	1812.45
796.87	1755.11
797.04	1755.11
797.22	1722.34
797.39	1748.97
797.57	1759.21
797.74	1728.49
797.92	1740.77
798.09	1673.19
798.27	1781.73
798.44	1767.40
798.62	1665.00
798.79	1800.16
798.96	1662.95
799.14	1648.61
799.31	1816.55
799.49	1714.15
799.66	1714.15
799.84	1640.42
800.01	1660.90
800.19	1683.43
800.36	1675.24
800.53	1714.15
800.71	1738.73
800.88	1837.03
801.06	1662.95
801.23	1726.44
801.41	1662.95
801.58	1701.86
801.75	1640.42
801.93	1714.15
802.10	1705.96
802.28	1683.43
802.45	1716.20
802.63	1775.59
802.80	1732.58
802.97	1624.04
803.15	1732.58
803.32	1722.34
803.50	1701.86
803.67	1636.33
803.84	1634.28
804.02	1748.97
804.19	1771.49
804.37	1630.18
804.54	1689.57
804.71	1716.20
804.89	1761.25
805.06	1667.05
805.24	1595.37
805.41	1652.71
805.58	1656.81
805.76	1828.84
805.93	1779.68
806.10	1765.35
806.28	1791.97
806.45	1718.25
806.63	1724.39
806.80	1724.39
806.97	1763.30
807.15	1777.64
807.32	1763.30
807.49	1714.15
807.67	1626.09
807.84	1732.58
808.01	1595.37
808.19	1812.45
808.36	1898.47
808.54	1691.62
808.71	1755.11
808.88	1716.20
809.06	1761.25
809.23	1751.01
809.40	1697.77
809.58	1787.88
809.75	1730.53
809.92	1685.48
810.10	1871.84
810.27	1697.77
810.44	1779.68
810.62	1730.53
810.79	1691.62
810.96	1722.34
811.14	1665.00
811.31	1728.49
811.48	1763.30
811.66	1718.25
811.83	1761.25
812.00	1785.83
812.18	1708.01
812.35	1738.73
812.52	1630.18
812.69	1691.62
812.87	1697.77
813.04	1654.76
813.21	1624.04
813.39	1609.70
813.56	1628.14
813.73	1834.98
813.91	1621.99
814.08	1710.05
814.25	1767.40
814.42	1636.33
814.60	1753.06
814.77	1742.82
814.94	1701.86
815.12	1681.38
815.29	1773.54
815.46	1759.21
815.63	1695.72
815.81	1744.87
815.98	1650.66
816.15	1679.33
816.33	1740.77
816.50	1667.05
816.67	1812.45
816.84	1654.76
817.02	1671.14
817.19	1740.77
817.36	1648.61
817.53	1763.30
817.71	1638.38
817.88	1724.39
818.05	1777.64
818.22	1656.81
818.40	1796.07
818.57	1789.92
818.74	1730.53
818.91	1683.43
819.09	1824.74
819.26	1716.20
819.43	1615.85
819.60	1675.24
819.78	1789.92
819.95	1796.07
820.12	1701.86
820.29	1796.07
820.47	1697.77
820.64	1683.43
820.81	1638.38
820.98	1693.67
821.15	1720.29
821.33	1718.25
821.50	1640.42
821.67	1673.19
821.84	1755.11
822.02	1705.96
822.19	1753.06
822.36	1652.71
822.53	1714.15
822.70	1628.14
822.88	1652.71
823.05	1720.29
823.22	1701.86
823.39	1683.43
823.56	1671.14
823.74	1873.89
823.91	1640.42
824.08	1685.48
824.25	1570.79
824.42	1732.58
824.60	1587.18
824.77	1714.15
824.94	1648.61
825.11	1781.73
825.28	1679.33
825.45	1726.44
825.63	1722.34
825.80	1689.57
825.97	1730.53
826.14	1783.78
826.31	1628.14
826.48	1751.01
826.66	1632.23
826.83	1701.86
827.00	1726.44
827.17	1644.52
827.34	1687.53
827.51	1628.14
827.69	1744.87
827.86	1665.00
828.03	1730.53
828.20	1683.43
828.37	1695.72
828.54	1734.63
828.71	1644.52
828.89	1816.55
829.06	1697.77
829.23	1769.44
829.40	1691.62
829.57	1767.40
829.74	1732.58
829.91	1685.48
830.09	1652.71
830.26	1691.62
830.43	1734.63
830.60	1765.35
830.77	1751.01
830.94	1789.92
831.11	1716.20
831.28	1740.77
831.46	1767.40
831.63	1767.40
831.80	1685.48
831.97	1689.57
832.14	1675.24
832.31	1740.77
832.48	1755.11
832.65	1714.15
832.82	1687.53
832.99	1771.49
833.17	1742.82
833.34	1785.83
833.51	1693.67
833.68	1595.37
833.85	1767.40
834.02	1718.25
834.19	1662.95
834.36	1632.23
834.53	1714.15
834.70	1820.64
834.87	1748.97
835.04	1755.11
835.22	1648.61
835.39	1632.23
835.56	1728.49
835.73	1615.85
835.90	1779.68
836.07	1650.66
836.24	1783.78
836.41	1714.15
836.58	1665.00
836.75	1818.60
836.92	1671.14
837.09	1695.72
837.26	1685.48
837.43	1671.14
837.60	1718.25
837.77	1656.81
837.94	1769.44
838.12	1742.82
838.29	1726.44
838.46	1583.08
838.63	1648.61
838.80	1820.64
838.97	1724.39
839.14	1730.53
839.31	1681.38
839.48	1708.01
839.65	1687.53
839.82	1730.53
839.99	1718.25
840.16	1673.19
840.33	1656.81
840.50	1673.19
840.67	1708.01
840.84	1583.08
841.01	1681.38
841.18	1669.09
841.35	1722.34
841.52	1710.05
841.69	1822.69
841.86	1724.39
842.03	1785.83
842.20	1718.25
842.37	1687.53
842.54	1705.96
842.71	1724.39
842.88	1632.23
843.05	1701.86
843.22	1669.09
843.39	1763.30
843.56	1677.29
843.73	1865.70
843.90	1697.77
844.07	1757.16
844.24	1718.25
844.41	1800.16
844.58	1693.67
844.75	1669.09
844.92	1738.73
845.09	1726.44
845.26	1681.38
845.43	1736.68
845.60	1669.09
845.77	1763.30
845.94	1740.77
846.10	1843.17
846.27	1638.38
846.44	1669.09
846.61	1652.71
846.78	1806.31
846.95	1806.31
847.12	1591.27
847.29	1695.72
847.46	1693.67
847.63	1755.11
847.80	1683.43
847.97	1689.57
848.14	1875.94
848.31	1708.01
848.48	1611.75
848.65	1722.34
848.82	1710.05
848.98	1832.93
849.15	1802.21
849.32	1755.11
849.49	1804.26
849.66	1724.39
849.83	1652.71
850.00	1652.71
850.17	1720.29
850.34	1699.81
850.51	1628.14
850.68	1712.10
850.85	1886.18
851.01	1699.81
851.18	1728.49
851.35	1738.73
851.52	1689.57
851.69	1763.30
851.86	1607.66
852.03	1738.73
852.20	1753.06
852.37	1679.33
852.53	1609.70
852.70	1738.73
852.87	1677.29
853.04	1699.81
853.21	1650.66
853.38	1798.12
853.55	1757.16
853.72	1796.07
853.89	1658.85
854.05	1669.09
854.22	1640.42
854.39	1652.71
854.56	1761.25
854.73	1705.96
854.90	1724.39
855.07	1763.30
855.23	1697.77
855.40	1730.53
855.57	1662.95
855.74	1630.18
855.91	1853.41
856.08	1607.66
856.25	1595.37
856.41	1679.33
856.58	1681.38
856.75	1736.68
856.92	1681.38
857.09	1798.12
857.26	1572.84
857.42	1693.67
857.59	1759.21
857.76	1665.00
857.93	1705.96
858.10	1701.86
858.27	1642.47
858.43	1708.01
858.60	1568.74
858.77	1599.46
858.94	1687.53
859.11	1730.53
859.27	1621.99
859.44	1667.05
859.61	1781.73
859.78	1726.44
859.95	1724.39
860.12	1779.68
860.28	1900.52
860.45	1837.03
860.62	1634.28
860.79	1691.62
860.95	1691.62
861.12	1636.33
861.29	1681.38
861.46	1624.04
861.63	1599.46
861.79	1671.14
861.96	1679.33
862.13	1718.25
862.30	1740.77
862.47	1683.43
862.63	1736.68
862.80	1837.03
862.97	1765.35
863.14	1771.49
863.30	1800.16
863.47	1699.81
863.64	1779.68
863.81	1746.92
863.97	1671.14
864.14	1658.85
864.31	1677.29
864.48	1763.30
864.65	1716.20
864.81	1718.25
864.98	1779.68
865.15	1787.88
865.32	1794.02
865.48	1755.11
865.65	1806.31
865.82	1685.48
865.98	1755.11
866.15	1771.49
866.32	1718.25
866.49	1665.00
866.65	1796.07
866.82	1615.85
866.99	1724.39
867.16	1658.85
867.32	1689.57
867.49	1683.43
867.66	1718.25
867.83	1658.85
867.99	1591.27
868.16	1628.14
868.33	1734.63
868.49	1718.25
868.66	1683.43
868.83	1746.92
868.99	1748.97
869.16	1619.94
869.33	1800.16
869.50	1761.25
869.66	1714.15
869.83	1708.01
870.00	1708.01
870.16	1738.73
870.33	1646.57
870.50	1730.53
870.66	1722.34
870.83	1845.22
871.00	1634.28
871.17	1648.61
871.33	1781.73
871.50	1734.63
871.67	1679.33
871.83	1691.62
872.00	1748.97
872.17	1710.05
872.33	1800.16
872.50	1755.11
872.67	1638.38
872.83	1619.94
873.00	1771.49
873.17	1753.06
873.33	1742.82
873.50	1779.68
873.67	1693.67
873.83	1689.57
874.00	1693.67
874.16	1763.30
874.33	1697.77
874.50	1662.95
874.66	1738.73
874.83	1748.97
875.00	1773.54
875.16	1796.07
875.33	1796.07
875.50	1576.94
875.66	1693.67
875.83	1693.67
875.99	1691.62
876.16	1757.16
876.33	1638.38
876.49	1705.96
876.66	1734.63
876.83	1669.09
876.99	1587.18
877.16	1761.25
877.32	1738.73
877.49	1728.49
877.66	1744.87
877.82	1814.50
877.99	1681.38
878.15	1748.97
878.32	1675.24
878.49	1771.49
878.65	1738.73
878.82	1714.15
878.98	1632.23
879.15	1767.40
879.32	1728.49
879.48	1740.77
879.65	1693.67
879.81	1701.86
879.98	1689.57
880.15	1617.90
880.31	1736.68
880.48	1691.62
880.64	1830.88
880.81	1644.52
880.97	1798.12
881.14	1738.73
881.31	1656.81
881.47	1820.64
881.64	1617.90
881.80	1615.85
881.97	1779.68
882.13	1759.21
882.30	1589.22
882.47	1675.24
882.63	1605.61
882.80	1648.61
882.96	1791.97
883.13	1677.29
883.29	1714.15
883.46	1730.53
883.62	1853.41
883.79	1671.14
883.95	1697.77
884.12	1703.91
884.29	1722.34
884.45	1654.76
884.62	1773.54
884.78	1644.52
884.95	1773.54
885.11	1681.38
885.28	1724.39
885.44	1667.05
885.61	1789.92
885.77	1812.45
885.94	1783.78
886.10	1710.05
886.27	1683.43
886.43	1828.84
886.60	1763.30
886.76	1673.19
886.93	1738.73
887.09	1738.73
887.26	1617.90
887.42	1730.53
887.59	1814.50
887.75	1861.60
887.92	1771.49
888.08	1804.26
888.25	1837.03
888.41	1718.25
888.58	1701.86
888.74	1626.09
888.91	1734.63
>>>>>End Processed Spectral Data<<<<<
