SpectraSuite Data File
++++++++++++++++++++++++++++++++++++
Date: Mon Jun 06 16:55:57 CEST 2016
User: root
Dark Spectrum Present: No
Reference Spectrum Present: No
Number of Sampled Component Spectra: 1
Spectrometers: USB4C02835
Integration Time (usec): 100000 (USB4C02835)
Spectra Averaged: 1 (USB4C02835)
Boxcar Smoothing: 0 (USB4C02835)
Correct for Electrical Dark: No (USB4C02835)
Strobe/Lamp Enabled: No (USB4C02835)
Correct for Detector Non-linearity: No (USB4C02835)
Correct for Stray Light: No (USB4C02835)
Number of Pixels in Processed Spectrum: 3648
>>>>>Begin Processed Spectral Data<<<<<
177.47	1488.87
177.69	1488.87
177.91	1488.87
178.13	1482.73
178.36	1458.15
178.58	1644.52
178.80	1814.50
179.02	1642.47
179.24	1644.52
179.46	1705.96
179.68	1683.43
179.90	1718.25
180.13	1693.67
180.35	1650.66
180.57	1599.46
180.79	1734.63
181.01	1665.00
181.23	1746.92
181.45	1757.16
181.67	1755.11
181.90	1718.25
182.12	1660.90
182.34	1632.23
182.56	1736.68
182.78	1832.93
183.00	1738.73
183.22	1738.73
183.44	1601.51
183.66	1877.99
183.89	1806.31
184.11	1736.68
184.33	1681.38
184.55	1755.11
184.77	1683.43
184.99	1671.14
185.21	1619.94
185.43	1851.36
185.65	1656.81
185.87	1742.82
186.10	1832.93
186.32	1818.60
186.54	1734.63
186.76	1656.81
186.98	1710.05
187.20	1724.39
187.42	1714.15
187.64	1658.85
187.86	1837.03
188.08	1800.16
188.30	1734.63
188.52	1697.77
188.75	1761.25
188.97	1857.51
189.19	1693.67
189.41	1724.39
189.63	1748.97
189.85	1748.97
190.07	1673.19
190.29	1581.03
190.51	1736.68
190.73	1656.81
190.95	1828.84
191.17	1714.15
191.39	1628.14
191.61	1724.39
191.84	1763.30
192.06	1718.25
192.28	1572.84
192.50	1912.80
192.72	1734.63
192.94	1751.01
193.16	1759.21
193.38	1734.63
193.60	1683.43
193.82	1646.57
194.04	1787.88
194.26	1662.95
194.48	1644.52
194.70	1689.57
194.92	1681.38
195.14	1765.35
195.36	1595.37
195.58	1818.60
195.80	1779.68
196.02	1703.91
196.24	1660.90
196.46	1814.50
196.69	1652.71
196.91	1845.22
197.13	1730.53
197.35	1654.76
197.57	1804.26
197.79	1740.77
198.01	1808.36
198.23	1728.49
198.45	1777.64
198.67	1642.47
198.89	1759.21
199.11	1746.92
199.33	1619.94
199.55	1544.17
199.77	1732.58
199.99	1677.29
200.21	1681.38
200.43	1683.43
200.65	1550.31
200.87	1591.27
201.09	1714.15
201.31	1626.09
201.53	1693.67
201.75	1794.02
201.97	1726.44
202.19	1738.73
202.41	1761.25
202.63	1871.84
202.85	1703.91
203.07	1689.57
203.29	1695.72
203.51	1658.85
203.73	1703.91
203.95	1837.03
204.17	1722.34
204.39	1832.93
204.61	1716.20
204.83	1626.09
205.05	1751.01
205.27	1699.81
205.49	1824.74
205.71	1703.91
205.93	1591.27
206.15	1724.39
206.37	1685.48
206.59	1689.57
206.81	1658.85
207.03	1736.68
207.25	1654.76
207.47	1736.68
207.69	1634.28
207.91	1775.59
208.13	1816.55
208.34	1685.48
208.56	1662.95
208.78	1683.43
209.00	1726.44
209.22	1699.81
209.44	1722.34
209.66	1656.81
209.88	1757.16
210.10	1736.68
210.32	1652.71
210.54	1716.20
210.76	1712.10
210.98	1763.30
211.20	1683.43
211.42	1718.25
211.64	1783.78
211.86	1732.58
212.08	1685.48
212.30	1755.11
212.52	1701.86
212.74	1718.25
212.96	1785.83
213.17	1746.92
213.39	1773.54
213.61	1718.25
213.83	1685.48
214.05	1648.61
214.27	1781.73
214.49	1652.71
214.71	1611.75
214.93	1828.84
215.15	1744.87
215.37	1724.39
215.59	1665.00
215.81	1777.64
216.03	1847.27
216.24	1652.71
216.46	1744.87
216.68	1667.05
216.90	1724.39
217.12	1748.97
217.34	1689.57
217.56	1673.19
217.78	1740.77
218.00	1665.00
218.22	1728.49
218.44	1726.44
218.66	1781.73
218.87	1732.58
219.09	1701.86
219.31	1808.36
219.53	1658.85
219.75	1705.96
219.97	1705.96
220.19	1693.67
220.41	1701.86
220.63	1812.45
220.85	1748.97
221.06	1605.61
221.28	1746.92
221.50	1701.86
221.72	1695.72
221.94	1681.38
222.16	1708.01
222.38	1779.68
222.60	1767.40
222.82	1699.81
223.03	1701.86
223.25	1658.85
223.47	1703.91
223.69	1794.02
223.91	1726.44
224.13	1777.64
224.35	1556.46
224.57	1789.92
224.78	1753.06
225.00	1640.42
225.22	1728.49
225.44	1648.61
225.66	1714.15
225.88	1705.96
226.10	1740.77
226.32	1705.96
226.53	1773.54
226.75	1763.30
226.97	1693.67
227.19	1693.67
227.41	1755.11
227.63	1691.62
227.85	1607.66
228.06	1726.44
228.28	1718.25
228.50	1714.15
228.72	1642.47
228.94	1691.62
229.16	1593.32
229.37	1615.85
229.59	1656.81
229.81	1804.26
230.03	1673.19
230.25	1726.44
230.47	1609.70
230.69	1617.90
230.90	1722.34
231.12	1726.44
231.34	1710.05
231.56	1794.02
231.78	1624.04
232.00	1753.06
232.21	1681.38
232.43	1693.67
232.65	1605.61
232.87	1667.05
233.09	1611.75
233.30	1697.77
233.52	1734.63
233.74	1691.62
233.96	1685.48
234.18	1662.95
234.40	1722.34
234.61	1869.80
234.83	1632.23
235.05	1642.47
235.27	1814.50
235.49	1769.44
235.70	1675.24
235.92	1789.92
236.14	1757.16
236.36	1755.11
236.58	1630.18
236.79	1751.01
237.01	1632.23
237.23	1613.80
237.45	1814.50
237.67	1609.70
237.88	1730.53
238.10	1908.71
238.32	1673.19
238.54	1703.91
238.76	1712.10
238.97	1624.04
239.19	1705.96
239.41	1736.68
239.63	1832.93
239.85	1665.00
240.06	1675.24
240.28	1572.84
240.50	1734.63
240.72	1671.14
240.93	1718.25
241.15	1724.39
241.37	1681.38
241.59	1791.97
241.81	1669.09
242.02	1660.90
242.24	1802.21
242.46	1728.49
242.68	1652.71
242.89	1755.11
243.11	1798.12
243.33	1681.38
243.55	1763.30
243.76	1767.40
243.98	1671.14
244.20	1757.16
244.42	1697.77
244.64	1791.97
244.85	1679.33
245.07	1636.33
245.29	1751.01
245.51	1681.38
245.72	1712.10
245.94	1755.11
246.16	1718.25
246.38	1779.68
246.59	1681.38
246.81	1642.47
247.03	1652.71
247.24	1650.66
247.46	1619.94
247.68	1716.20
247.90	1626.09
248.11	1714.15
248.33	1718.25
248.55	1679.33
248.77	1720.29
248.98	1755.11
249.20	1877.99
249.42	1611.75
249.64	1830.88
249.85	1734.63
250.07	1613.80
250.29	1699.81
250.50	1763.30
250.72	1646.57
250.94	1738.73
251.16	1798.12
251.37	1810.40
251.59	1712.10
251.81	1685.48
252.02	1830.88
252.24	1609.70
252.46	1763.30
252.68	1712.10
252.89	1648.61
253.11	1607.66
253.33	1755.11
253.54	1763.30
253.76	1601.51
253.98	1613.80
254.20	1624.04
254.41	1660.90
254.63	1675.24
254.85	1599.46
255.06	1734.63
255.28	1716.20
255.50	1812.45
255.71	1652.71
255.93	1718.25
256.15	1644.52
256.36	1759.21
256.58	1665.00
256.80	1738.73
257.02	1724.39
257.23	1705.96
257.45	1783.78
257.67	1732.58
257.88	1583.08
258.10	1683.43
258.32	1751.01
258.53	1757.16
258.75	1734.63
258.97	1691.62
259.18	1787.88
259.40	1714.15
259.62	1798.12
259.83	1802.21
260.05	1757.16
260.27	1947.62
260.48	1810.40
260.70	1656.81
260.92	1691.62
261.13	1757.16
261.35	1744.87
261.57	1703.91
261.78	1621.99
262.00	1648.61
262.22	1742.82
262.43	1689.57
262.65	1708.01
262.86	1753.06
263.08	1800.16
263.30	1701.86
263.51	1535.98
263.73	1630.18
263.95	1748.97
264.16	1638.38
264.38	1685.48
264.60	1771.49
264.81	1683.43
265.03	1771.49
265.25	1744.87
265.46	1740.77
265.68	1703.91
265.89	1740.77
266.11	1687.53
266.33	1748.97
266.54	1773.54
266.76	1710.05
266.98	1767.40
267.19	1757.16
267.41	1716.20
267.62	1701.86
267.84	1630.18
268.06	1712.10
268.27	1658.85
268.49	1722.34
268.70	1732.58
268.92	1650.66
269.14	1679.33
269.35	1578.98
269.57	1654.76
269.79	1736.68
270.00	1660.90
270.22	1814.50
270.43	1687.53
270.65	1503.21
270.87	1681.38
271.08	1771.49
271.30	1718.25
271.51	1695.72
271.73	1722.34
271.95	1771.49
272.16	1732.58
272.38	1740.77
272.59	1667.05
272.81	1753.06
273.02	1689.57
273.24	1798.12
273.46	1828.84
273.67	1675.24
273.89	1769.44
274.10	1755.11
274.32	1773.54
274.54	1746.92
274.75	1712.10
274.97	1667.05
275.18	1755.11
275.40	1718.25
275.61	1697.77
275.83	1746.92
276.05	1703.91
276.26	1722.34
276.48	1746.92
276.69	1687.53
276.91	1665.00
277.12	1724.39
277.34	1710.05
277.55	1802.21
277.77	1701.86
277.99	1740.77
278.20	1607.66
278.42	1675.24
278.63	1634.28
278.85	1687.53
279.06	1615.85
279.28	1759.21
279.49	1710.05
279.71	1814.50
279.93	1751.01
280.14	1705.96
280.36	1634.28
280.57	1724.39
280.79	1773.54
281.00	1656.81
281.22	1701.86
281.43	1773.54
281.65	1540.07
281.86	1634.28
282.08	1726.44
282.29	1767.40
282.51	1587.18
282.73	1652.71
282.94	1621.99
283.16	1710.05
283.37	1812.45
283.59	1724.39
283.80	1787.88
284.02	1746.92
284.23	1669.09
284.45	1755.11
284.66	1589.22
284.88	1773.54
285.09	1671.14
285.31	1673.19
285.52	1771.49
285.74	1593.32
285.95	1712.10
286.17	1736.68
286.38	1787.88
286.60	1624.04
286.81	1648.61
287.03	1697.77
287.24	1650.66
287.46	1777.64
287.67	1718.25
287.89	1875.94
288.10	1769.44
288.32	1824.74
288.53	1773.54
288.75	1761.25
288.96	1722.34
289.18	1714.15
289.39	1728.49
289.61	1791.97
289.82	1845.22
290.04	1787.88
290.25	1640.42
290.47	1755.11
290.68	1710.05
290.90	1751.01
291.11	1646.57
291.33	1771.49
291.54	1648.61
291.76	1673.19
291.97	1744.87
292.18	1710.05
292.40	1681.38
292.61	1660.90
292.83	1816.55
293.04	1699.81
293.26	1681.38
293.47	1617.90
293.69	1669.09
293.90	1675.24
294.12	1789.92
294.33	1734.63
294.55	1699.81
294.76	1724.39
294.97	1882.08
295.19	1771.49
295.40	1685.48
295.62	1730.53
295.83	1757.16
296.05	1675.24
296.26	1679.33
296.48	1710.05
296.69	1681.38
296.90	1636.33
297.12	1726.44
297.33	1751.01
297.55	1705.96
297.76	1771.49
297.98	1769.44
298.19	1701.86
298.41	1705.96
298.62	1679.33
298.83	1763.30
299.05	1738.73
299.26	1714.15
299.48	1773.54
299.69	1736.68
299.90	1755.11
300.12	1630.18
300.33	1722.34
300.55	1753.06
300.76	1714.15
300.98	1621.99
301.19	1726.44
301.40	1589.22
301.62	1810.40
301.83	1708.01
302.05	1738.73
302.26	1720.29
302.47	1722.34
302.69	1599.46
302.90	1671.14
303.12	1630.18
303.33	1740.77
303.54	1847.27
303.76	1671.14
303.97	1695.72
304.19	1834.98
304.40	1665.00
304.61	1785.83
304.83	1757.16
305.04	1726.44
305.26	1787.88
305.47	1675.24
305.68	1656.81
305.90	1658.85
306.11	1748.97
306.33	1767.40
306.54	1669.09
306.75	1675.24
306.97	1564.65
307.18	1656.81
307.39	1710.05
307.61	1742.82
307.82	1693.67
308.04	1757.16
308.25	1697.77
308.46	1742.82
308.68	1724.39
308.89	1712.10
309.10	1796.07
309.32	1765.35
309.53	1673.19
309.74	1755.11
309.96	1736.68
310.17	1791.97
310.39	1665.00
310.60	1781.73
310.81	1705.96
311.03	1646.57
311.24	1732.58
311.45	1683.43
311.67	1863.65
311.88	1794.02
312.09	1689.57
312.31	1646.57
312.52	1759.21
312.73	1691.62
312.95	1603.56
313.16	1689.57
313.37	1742.82
313.59	1748.97
313.80	1724.39
314.01	1865.70
314.23	1638.38
314.44	1570.79
314.65	1632.23
314.87	1669.09
315.08	1740.77
315.29	1789.92
315.51	1679.33
315.72	1626.09
315.93	1814.50
316.15	1814.50
316.36	1683.43
316.57	1720.29
316.79	1697.77
317.00	1730.53
317.21	1763.30
317.43	1716.20
317.64	1671.14
317.85	1701.86
318.07	1755.11
318.28	1689.57
318.49	1843.17
318.70	1918.95
318.92	1853.41
319.13	1877.99
319.34	1890.28
319.56	1785.83
319.77	1818.60
319.98	1826.79
320.20	1798.12
320.41	1826.79
320.62	1720.29
320.83	1699.81
321.05	1763.30
321.26	1703.91
321.47	1654.76
321.69	1785.83
321.90	1566.70
322.11	1660.90
322.32	1716.20
322.54	1802.21
322.75	1687.53
322.96	1845.22
323.18	1630.18
323.39	1615.85
323.60	1658.85
323.81	1843.17
324.03	1705.96
324.24	1742.82
324.45	1699.81
324.66	1656.81
324.88	1736.68
325.09	1748.97
325.30	1656.81
325.52	1775.59
325.73	1701.86
325.94	1642.47
326.15	1646.57
326.37	1691.62
326.58	1718.25
326.79	1775.59
327.00	1687.53
327.22	1722.34
327.43	1734.63
327.64	1650.66
327.85	1740.77
328.07	1728.49
328.28	1834.98
328.49	1685.48
328.70	1609.70
328.92	1644.52
329.13	1638.38
329.34	1740.77
329.55	1826.79
329.76	1777.64
329.98	1667.05
330.19	1791.97
330.40	1683.43
330.61	1791.97
330.83	1810.40
331.04	1667.05
331.25	1691.62
331.46	1630.18
331.68	1621.99
331.89	1748.97
332.10	1705.96
332.31	1689.57
332.52	1710.05
332.74	1789.92
332.95	1617.90
333.16	1708.01
333.37	1705.96
333.58	1638.38
333.80	1718.25
334.01	1660.90
334.22	1677.29
334.43	1701.86
334.64	1755.11
334.86	1687.53
335.07	1673.19
335.28	1787.88
335.49	1644.52
335.70	1779.68
335.92	1697.77
336.13	1839.08
336.34	1703.91
336.55	1783.78
336.76	1652.71
336.98	1662.95
337.19	1662.95
337.40	1748.97
337.61	1849.32
337.82	1658.85
338.04	1716.20
338.25	1699.81
338.46	1611.75
338.67	1671.14
338.88	1677.29
339.09	1742.82
339.31	1673.19
339.52	1652.71
339.73	1732.58
339.94	1810.40
340.15	1726.44
340.36	1732.58
340.58	1765.35
340.79	1652.71
341.00	1751.01
341.21	1716.20
341.42	1886.18
341.63	1669.09
341.85	1738.73
342.06	1744.87
342.27	1628.14
342.48	1746.92
342.69	1624.04
342.90	1767.40
343.12	1832.93
343.33	1710.05
343.54	1734.63
343.75	1746.92
343.96	1669.09
344.17	1710.05
344.38	1738.73
344.60	1642.47
344.81	1628.14
345.02	1716.20
345.23	1767.40
345.44	1802.21
345.65	1703.91
345.86	1726.44
346.07	1703.91
346.29	1712.10
346.50	1724.39
346.71	1730.53
346.92	1746.92
347.13	1871.84
347.34	1701.86
347.55	1636.33
347.76	1687.53
347.98	1650.66
348.19	1652.71
348.40	1779.68
348.61	1656.81
348.82	1804.26
349.03	1740.77
349.24	1695.72
349.45	1769.44
349.66	1648.61
349.88	1658.85
350.09	1681.38
350.30	1771.49
350.51	1849.32
350.72	1806.31
350.93	1689.57
351.14	1681.38
351.35	1753.06
351.56	1656.81
351.77	1636.33
351.99	1705.96
352.20	1787.88
352.41	1787.88
352.62	1603.56
352.83	1736.68
353.04	1751.01
353.25	1642.47
353.46	1818.60
353.67	1787.88
353.88	1607.66
354.09	1734.63
354.30	1624.04
354.52	1724.39
354.73	1699.81
354.94	1746.92
355.15	1687.53
355.36	1796.07
355.57	1652.71
355.78	1708.01
355.99	1673.19
356.20	1740.77
356.41	1861.60
356.62	1759.21
356.83	1734.63
357.04	1824.74
357.25	1607.66
357.46	1648.61
357.68	1615.85
357.89	1710.05
358.10	1787.88
358.31	1671.14
358.52	1677.29
358.73	1646.57
358.94	1621.99
359.15	1673.19
359.36	1677.29
359.57	1695.72
359.78	1675.24
359.99	1763.30
360.20	1732.58
360.41	1667.05
360.62	1691.62
360.83	1759.21
361.04	1673.19
361.25	1722.34
361.46	1824.74
361.67	1775.59
361.88	1773.54
362.09	1697.77
362.30	1673.19
362.51	1697.77
362.72	1691.62
362.93	1708.01
363.14	1732.58
363.35	1665.00
363.56	1697.77
363.78	1767.40
363.99	1699.81
364.20	1660.90
364.41	1759.21
364.62	1800.16
364.83	1789.92
365.04	1693.67
365.25	1708.01
365.46	1828.84
365.67	1665.00
365.88	1572.84
366.09	1695.72
366.30	1624.04
366.51	1665.00
366.72	1642.47
366.93	1685.48
367.14	1751.01
367.35	1802.21
367.56	1642.47
367.77	1738.73
367.98	1646.57
368.18	1783.78
368.39	1767.40
368.60	1662.95
368.81	1695.72
369.02	1837.03
369.23	1656.81
369.44	1617.90
369.65	1646.57
369.86	1722.34
370.07	1730.53
370.28	1660.90
370.49	1736.68
370.70	1812.45
370.91	1656.81
371.12	1708.01
371.33	1736.68
371.54	1669.09
371.75	1804.26
371.96	1560.55
372.17	1767.40
372.38	1777.64
372.59	1748.97
372.80	1769.44
373.01	1667.05
373.22	1755.11
373.43	1677.29
373.64	1656.81
373.85	1787.88
374.06	1843.17
374.26	1857.51
374.47	1697.77
374.68	1755.11
374.89	1683.43
375.10	1726.44
375.31	1775.59
375.52	1697.77
375.73	1638.38
375.94	1656.81
376.15	1787.88
376.36	1644.52
376.57	1667.05
376.78	1744.87
376.99	1699.81
377.20	1814.50
377.40	1759.21
377.61	1800.16
377.82	1738.73
378.03	1834.98
378.24	1796.07
378.45	1699.81
378.66	1685.48
378.87	1669.09
379.08	1570.79
379.29	1746.92
379.50	1783.78
379.71	1660.90
379.91	1781.73
380.12	1624.04
380.33	1718.25
380.54	1689.57
380.75	1712.10
380.96	1722.34
381.17	1804.26
381.38	1751.01
381.59	1781.73
381.80	1708.01
382.00	1916.90
382.21	1779.68
382.42	1894.37
382.63	1859.56
382.84	1757.16
383.05	1708.01
383.26	1746.92
383.47	1720.29
383.68	1738.73
383.88	1761.25
384.09	1783.78
384.30	1855.46
384.51	1730.53
384.72	1757.16
384.93	1636.33
385.14	1685.48
385.35	1705.96
385.55	1626.09
385.76	1757.16
385.97	1695.72
386.18	1714.15
386.39	1665.00
386.60	1683.43
386.81	1755.11
387.02	1667.05
387.22	1667.05
387.43	1800.16
387.64	1779.68
387.85	1863.65
388.06	2148.32
388.27	4124.61
388.48	6686.62
388.68	8304.51
388.89	9535.34
389.10	9709.42
389.31	8425.34
389.52	7395.22
389.73	6614.94
389.93	6102.95
390.14	5810.09
390.35	5242.80
390.56	4485.05
390.77	3887.04
390.98	3098.58
391.18	2463.71
391.39	2224.09
391.60	1890.28
391.81	1894.37
392.02	1796.07
392.23	1841.12
392.43	1800.16
392.64	1828.84
392.85	1685.48
393.06	1826.79
393.27	1705.96
393.47	1714.15
393.68	1730.53
393.89	1656.81
394.10	1804.26
394.31	1695.72
394.52	1703.91
394.72	1734.63
394.93	1804.26
395.14	1628.14
395.35	1773.54
395.56	1775.59
395.76	1728.49
395.97	1740.77
396.18	1865.70
396.39	1843.17
396.60	2115.55
396.80	1837.03
397.01	1822.69
397.22	1773.54
397.43	1873.89
397.64	1720.29
397.84	1779.68
398.05	1849.32
398.26	1748.97
398.47	1748.97
398.67	1832.93
398.88	1767.40
399.09	1683.43
399.30	1730.53
399.51	1746.92
399.71	1724.39
399.92	1671.14
400.13	1755.11
400.34	1693.67
400.54	1642.47
400.75	1822.69
400.96	1761.25
401.17	1841.12
401.37	1667.05
401.58	1705.96
401.79	1710.05
402.00	1888.23
402.21	2043.87
402.41	1830.88
402.62	1998.82
402.83	2039.78
403.04	2002.91
403.24	2107.36
403.45	1869.80
403.66	1953.76
403.87	1910.75
404.07	1898.47
404.28	1845.22
404.49	1910.75
404.70	1753.06
404.90	1806.31
405.11	1746.92
405.32	1767.40
405.52	1667.05
405.73	1699.81
405.94	1607.66
406.15	1718.25
406.35	1730.53
406.56	1738.73
406.77	1701.86
406.98	1769.44
407.18	1648.61
407.39	1783.78
407.60	1687.53
407.80	1746.92
408.01	1671.14
408.22	1751.01
408.43	1624.04
408.63	1789.92
408.84	1785.83
409.05	1853.41
409.25	1701.86
409.46	1677.29
409.67	1673.19
409.88	1699.81
410.08	1644.52
410.29	1650.66
410.50	1753.06
410.70	1712.10
410.91	1703.91
411.12	1695.72
411.32	1746.92
411.53	1732.58
411.74	1816.55
411.95	1806.31
412.15	1806.31
412.36	1742.82
412.57	1677.29
412.77	1877.99
412.98	1697.77
413.19	1671.14
413.39	1845.22
413.60	1810.40
413.81	1767.40
414.01	1660.90
414.22	1769.44
414.43	1779.68
414.63	1685.48
414.84	1794.02
415.05	1787.88
415.25	1730.53
415.46	1794.02
415.67	1677.29
415.87	1736.68
416.08	1796.07
416.29	1757.16
416.49	1757.16
416.70	1681.38
416.91	1714.15
417.11	1693.67
417.32	1730.53
417.53	1755.11
417.73	1708.01
417.94	1699.81
418.15	1650.66
418.35	1671.14
418.56	1724.39
418.77	1884.13
418.97	1765.35
419.18	1605.61
419.38	1607.66
419.59	1730.53
419.80	1708.01
420.00	1748.97
420.21	1708.01
420.42	1841.12
420.62	1722.34
420.83	1718.25
421.04	1732.58
421.24	1714.15
421.45	1656.81
421.65	1703.91
421.86	1656.81
422.07	1669.09
422.27	1820.64
422.48	1783.78
422.69	1697.77
422.89	1681.38
423.10	1722.34
423.30	1624.04
423.51	1701.86
423.72	1773.54
423.92	1728.49
424.13	1654.76
424.33	1732.58
424.54	1753.06
424.75	1708.01
424.95	1798.12
425.16	1716.20
425.36	1679.33
425.57	1757.16
425.78	1783.78
425.98	1787.88
426.19	1681.38
426.39	1654.76
426.60	1783.78
426.81	1822.69
427.01	1730.53
427.22	1654.76
427.42	1636.33
427.63	1728.49
427.83	1693.67
428.04	1818.60
428.25	1732.58
428.45	1796.07
428.66	1818.60
428.86	1718.25
429.07	1718.25
429.28	1648.61
429.48	1724.39
429.69	1714.15
429.89	1759.21
430.10	1669.09
430.30	1716.20
430.51	1693.67
430.71	1681.38
430.92	1671.14
431.13	1701.86
431.33	1734.63
431.54	1777.64
431.74	1812.45
431.95	1816.55
432.15	1640.42
432.36	1730.53
432.56	1726.44
432.77	1869.80
432.98	1744.87
433.18	1658.85
433.39	1742.82
433.59	1740.77
433.80	1800.16
434.00	1763.30
434.21	1654.76
434.41	1667.05
434.62	1923.04
434.82	1748.97
435.03	1665.00
435.23	1757.16
435.44	1689.57
435.64	1730.53
435.85	1736.68
436.06	1685.48
436.26	1759.21
436.47	1677.29
436.67	1640.42
436.88	1771.49
437.08	1746.92
437.29	1720.29
437.49	1724.39
437.70	1820.64
437.90	1746.92
438.11	1857.51
438.31	1812.45
438.52	1834.98
438.72	1896.42
438.93	1923.04
439.13	1794.02
439.34	1859.56
439.54	1755.11
439.75	1771.49
439.95	1847.27
440.16	1658.85
440.36	1757.16
440.57	1769.44
440.77	1708.01
440.98	1701.86
441.18	1732.58
441.39	1695.72
441.59	1775.59
441.80	1794.02
442.00	1787.88
442.21	1763.30
442.41	1751.01
442.62	1857.51
442.82	1708.01
443.02	1810.40
443.23	1730.53
443.43	1716.20
443.64	1810.40
443.84	1730.53
444.05	1763.30
444.25	1689.57
444.46	1658.85
444.66	1738.73
444.87	1890.28
445.07	1705.96
445.28	1757.16
445.48	1820.64
445.69	1775.59
445.89	1908.71
446.09	1779.68
446.30	2066.40
446.50	2691.03
446.71	3606.47
446.91	4249.54
447.12	4786.10
447.32	4829.11
447.53	4323.26
447.73	3885.00
447.93	3432.40
448.14	3221.45
448.34	3198.93
448.55	2936.79
448.75	2820.05
448.96	2639.83
449.16	2406.36
449.36	2392.03
449.57	2027.49
449.77	1918.95
449.98	1734.63
450.18	1705.96
450.39	1832.93
450.59	1804.26
450.79	1753.06
451.00	1697.77
451.20	1751.01
451.41	1708.01
451.61	1759.21
451.81	1716.20
452.02	1714.15
452.22	1718.25
452.43	1720.29
452.63	1736.68
452.84	1781.73
453.04	1654.76
453.24	1751.01
453.45	1740.77
453.65	1847.27
453.86	1740.77
454.06	1837.03
454.26	1783.78
454.47	1708.01
454.67	1796.07
454.87	1751.01
455.08	1798.12
455.28	1796.07
455.49	1757.16
455.69	1699.81
455.89	1767.40
456.10	1738.73
456.30	1710.05
456.51	1714.15
456.71	1769.44
456.91	1724.39
457.12	1697.77
457.32	1740.77
457.52	1718.25
457.73	1791.97
457.93	1771.49
458.14	1724.39
458.34	1665.00
458.54	1648.61
458.75	1714.15
458.95	1779.68
459.15	1773.54
459.36	1767.40
459.56	1697.77
459.76	1882.08
459.97	1808.36
460.17	1652.71
460.37	1818.60
460.58	1767.40
460.78	1855.46
460.99	1736.68
461.19	1757.16
461.39	1665.00
461.60	1740.77
461.80	1732.58
462.00	1693.67
462.21	1736.68
462.41	1683.43
462.61	1705.96
462.82	1693.67
463.02	1806.31
463.22	1722.34
463.43	1851.36
463.63	1769.44
463.83	1845.22
464.04	1728.49
464.24	1791.97
464.44	1771.49
464.64	1740.77
464.85	1701.86
465.05	1812.45
465.25	1794.02
465.46	1669.09
465.66	1779.68
465.86	1789.92
466.07	1763.30
466.27	1771.49
466.47	1665.00
466.68	1705.96
466.88	1830.88
467.08	1849.32
467.29	1806.31
467.49	1738.73
467.69	1667.05
467.89	1767.40
468.10	1681.38
468.30	1789.92
468.50	1814.50
468.71	1703.91
468.91	1677.29
469.11	1794.02
469.31	1753.06
469.52	1738.73
469.72	1818.60
469.92	1822.69
470.13	1765.35
470.33	1710.05
470.53	1865.70
470.73	2127.84
470.94	2217.95
471.14	2293.72
471.34	2451.42
471.54	2414.56
471.75	2170.85
471.95	2250.72
472.15	2078.69
472.36	2099.17
472.56	2015.20
472.76	2082.78
472.96	2017.25
473.17	1939.43
473.37	1908.71
473.57	1812.45
473.77	1845.22
473.98	1751.01
474.18	1732.58
474.38	1886.18
474.58	1738.73
474.79	1687.53
474.99	1742.82
475.19	1742.82
475.39	1658.85
475.60	1785.83
475.80	1691.62
476.00	1746.92
476.20	1738.73
476.41	1781.73
476.61	1837.03
476.81	1734.63
477.01	1603.56
477.21	1800.16
477.42	1910.75
477.62	1626.09
477.82	1757.16
478.02	1687.53
478.23	1744.87
478.43	1736.68
478.63	1718.25
478.83	1734.63
479.03	1724.39
479.24	1800.16
479.44	1841.12
479.64	1646.57
479.84	1650.66
480.04	1689.57
480.25	1849.32
480.45	1679.33
480.65	1683.43
480.85	1783.78
481.06	1675.24
481.26	1701.86
481.46	1708.01
481.66	1769.44
481.86	1746.92
482.06	1808.36
482.27	1757.16
482.47	1781.73
482.67	1740.77
482.87	1626.09
483.07	1818.60
483.28	1650.66
483.48	1679.33
483.68	1738.73
483.88	1675.24
484.08	1613.80
484.29	1656.81
484.49	1755.11
484.69	1621.99
484.89	1761.25
485.09	1724.39
485.29	1773.54
485.50	1769.44
485.70	1642.47
485.90	1779.68
486.10	1796.07
486.30	1763.30
486.50	1761.25
486.71	1746.92
486.91	1826.79
487.11	1722.34
487.31	1697.77
487.51	1744.87
487.71	1755.11
487.91	1673.19
488.12	1665.00
488.32	1509.35
488.52	1724.39
488.72	1669.09
488.92	1699.81
489.12	1773.54
489.32	1791.97
489.53	1806.31
489.73	1673.19
489.93	1824.74
490.13	1736.68
490.33	1652.71
490.53	1703.91
490.73	1787.88
490.94	1613.80
491.14	1681.38
491.34	1845.22
491.54	2181.09
491.74	2527.19
491.94	2799.57
492.14	3065.81
492.34	3035.09
492.54	2811.86
492.75	2478.04
492.95	2525.15
493.15	2312.16
493.35	2334.68
493.55	2211.81
493.75	2099.17
493.95	2203.61
494.15	1959.91
494.35	1910.75
494.56	1877.99
494.76	1814.50
494.96	1830.88
495.16	1789.92
495.36	1710.05
495.56	1701.86
495.76	1769.44
495.96	1656.81
496.16	1718.25
496.36	1849.32
496.56	1787.88
496.77	1683.43
496.97	1742.82
497.17	1751.01
497.37	1724.39
497.57	1808.36
497.77	1753.06
497.97	1673.19
498.17	1748.97
498.37	1677.29
498.57	1775.59
498.77	1748.97
498.97	1748.97
499.17	1843.17
499.38	1730.53
499.58	1781.73
499.78	1806.31
499.98	1746.92
500.18	1710.05
500.38	1656.81
500.58	1892.32
500.78	2598.87
500.98	4456.38
501.18	5902.25
501.38	6840.22
501.58	7124.88
501.78	6469.53
501.98	5619.63
502.18	4904.89
502.38	4499.39
502.58	4175.81
502.78	3794.89
502.98	3653.58
503.18	3456.97
503.38	3276.75
503.59	2920.40
503.79	2750.42
503.99	2451.42
504.19	2338.78
504.39	2144.22
504.59	2187.23
504.79	2131.94
504.99	2029.54
505.19	1896.42
505.39	1908.71
505.59	1970.15
505.79	1865.70
505.99	1912.80
506.19	1818.60
506.39	1900.52
506.59	1818.60
506.79	1693.67
506.99	1798.12
507.19	1791.97
507.39	1738.73
507.59	1679.33
507.79	1687.53
507.99	1640.42
508.19	1746.92
508.39	1714.15
508.59	1755.11
508.79	1843.17
508.99	1882.08
509.19	1689.57
509.39	1834.98
509.59	1701.86
509.79	1728.49
509.99	1771.49
510.19	1789.92
510.39	1802.21
510.59	1832.93
510.79	1705.96
510.99	1673.19
511.19	1732.58
511.39	1798.12
511.59	1843.17
511.79	1759.21
511.99	1701.86
512.19	1861.60
512.38	1794.02
512.58	1742.82
512.78	1744.87
512.98	1828.84
513.18	1845.22
513.38	1677.29
513.58	1771.49
513.78	1730.53
513.98	1740.77
514.18	1693.67
514.38	1734.63
514.58	1767.40
514.78	1658.85
514.98	1734.63
515.18	1673.19
515.38	1714.15
515.58	1810.40
515.78	1703.91
515.98	1677.29
516.18	1765.35
516.38	1681.38
516.57	1693.67
516.77	1751.01
516.97	1814.50
517.17	1681.38
517.37	1656.81
517.57	1798.12
517.77	1689.57
517.97	1687.53
518.17	1814.50
518.37	1738.73
518.57	1626.09
518.77	1722.34
518.97	1763.30
519.16	1775.59
519.36	1728.49
519.56	1701.86
519.76	1714.15
519.96	1722.34
520.16	1789.92
520.36	1699.81
520.56	1796.07
520.76	1748.97
520.96	1699.81
521.16	1791.97
521.35	1753.06
521.55	1857.51
521.75	1757.16
521.95	1695.72
522.15	1738.73
522.35	1656.81
522.55	1734.63
522.75	1830.88
522.95	1787.88
523.14	1724.39
523.34	1734.63
523.54	1740.77
523.74	1880.04
523.94	1748.97
524.14	1683.43
524.34	1771.49
524.54	1839.08
524.73	1826.79
524.93	1769.44
525.13	1763.30
525.33	1640.42
525.53	1832.93
525.73	1736.68
525.93	1765.35
526.13	1744.87
526.32	1722.34
526.52	1810.40
526.72	1751.01
526.92	1765.35
527.12	1800.16
527.32	1591.27
527.52	1685.48
527.71	1746.92
527.91	1755.11
528.11	1736.68
528.31	1710.05
528.51	1660.90
528.71	1771.49
528.90	1779.68
529.10	1785.83
529.30	1791.97
529.50	1613.80
529.70	1796.07
529.90	1722.34
530.09	1710.05
530.29	1716.20
530.49	1693.67
530.69	1853.41
530.89	1716.20
531.09	1763.30
531.28	1708.01
531.48	1791.97
531.68	1738.73
531.88	1708.01
532.08	1777.64
532.28	1697.77
532.47	1796.07
532.67	1800.16
532.87	1701.86
533.07	1755.11
533.27	1779.68
533.46	1769.44
533.66	1728.49
533.86	1748.97
534.06	1693.67
534.26	1796.07
534.45	1648.61
534.65	1841.12
534.85	1763.30
535.05	1755.11
535.25	1804.26
535.44	1626.09
535.64	1779.68
535.84	1705.96
536.04	1685.48
536.24	1720.29
536.43	1644.52
536.63	1751.01
536.83	1685.48
537.03	1732.58
537.22	1636.33
537.42	1673.19
537.62	1738.73
537.82	1656.81
538.02	1779.68
538.21	1806.31
538.41	1855.46
538.61	1816.55
538.81	1761.25
539.00	1806.31
539.20	1548.26
539.40	1763.30
539.60	1771.49
539.79	1765.35
539.99	1755.11
540.19	1710.05
540.39	1734.63
540.58	1742.82
540.78	1742.82
540.98	1720.29
541.18	1740.77
541.37	1773.54
541.57	1718.25
541.77	1767.40
541.97	1705.96
542.16	1634.28
542.36	1712.10
542.56	1665.00
542.76	1828.84
542.95	1802.21
543.15	1785.83
543.35	1839.08
543.54	1697.77
543.74	1691.62
543.94	1808.36
544.14	1705.96
544.33	1804.26
544.53	1740.77
544.73	1796.07
544.93	1722.34
545.12	1753.06
545.32	1740.77
545.52	1644.52
545.71	1740.77
545.91	1726.44
546.11	1697.77
546.30	1691.62
546.50	1722.34
546.70	1763.30
546.90	1810.40
547.09	1615.85
547.29	1775.59
547.49	1824.74
547.68	1726.44
547.88	1755.11
548.08	1748.97
548.27	2164.70
548.47	1669.09
548.67	1677.29
548.87	1800.16
549.06	1820.64
549.26	1769.44
549.46	1767.40
549.65	1658.85
549.85	1753.06
550.05	1748.97
550.24	1632.23
550.44	1726.44
550.64	1755.11
550.83	1789.92
551.03	1800.16
551.23	1798.12
551.42	1697.77
551.62	1753.06
551.82	1669.09
552.01	1683.43
552.21	1804.26
552.41	1787.88
552.60	1834.98
552.80	1742.82
553.00	1748.97
553.19	1804.26
553.39	1761.25
553.59	1636.33
553.78	1755.11
553.98	1812.45
554.17	1699.81
554.37	1705.96
554.57	1804.26
554.76	1683.43
554.96	1705.96
555.16	1761.25
555.35	1824.74
555.55	1732.58
555.75	1736.68
555.94	1822.69
556.14	1720.29
556.33	1748.97
556.53	1736.68
556.73	1767.40
556.92	1789.92
557.12	1785.83
557.32	1873.89
557.51	1822.69
557.71	1791.97
557.90	1808.36
558.10	1794.02
558.30	1755.11
558.49	1710.05
558.69	1730.53
558.88	1783.78
559.08	1765.35
559.28	1785.83
559.47	1691.62
559.67	1779.68
559.86	1900.52
560.06	1826.79
560.26	1701.86
560.45	1802.21
560.65	1708.01
560.84	1873.89
561.04	1708.01
561.24	1785.83
561.43	1691.62
561.63	1920.99
561.82	1794.02
562.02	1763.30
562.22	1736.68
562.41	1628.14
562.61	1724.39
562.80	1732.58
563.00	1865.70
563.19	1804.26
563.39	1742.82
563.59	1761.25
563.78	1632.23
563.98	1701.86
564.17	1705.96
564.37	1548.26
564.56	1738.73
564.76	1660.90
564.96	1853.41
565.15	1714.15
565.35	1896.42
565.54	1705.96
565.74	1802.21
565.93	1767.40
566.13	1761.25
566.32	1732.58
566.52	1802.21
566.71	1783.78
566.91	1777.64
567.11	1730.53
567.30	1699.81
567.50	1820.64
567.69	1787.88
567.89	1771.49
568.08	1728.49
568.28	1757.16
568.47	1675.24
568.67	1787.88
568.86	1679.33
569.06	1787.88
569.25	1722.34
569.45	1687.53
569.64	1720.29
569.84	1734.63
570.04	1824.74
570.23	1710.05
570.43	1708.01
570.62	1765.35
570.82	1837.03
571.01	1785.83
571.21	1695.72
571.40	1673.19
571.60	1865.70
571.79	1818.60
571.99	1824.74
572.18	1722.34
572.38	1857.51
572.57	1757.16
572.77	1748.97
572.96	1847.27
573.16	1791.97
573.35	1763.30
573.55	1886.18
573.74	1839.08
573.94	1654.76
574.13	1779.68
574.33	1843.17
574.52	1742.82
574.71	1779.68
574.91	1847.27
575.10	1650.66
575.30	1748.97
575.49	1677.29
575.69	1699.81
575.88	1673.19
576.08	1722.34
576.27	1767.40
576.47	1748.97
576.66	1785.83
576.86	1794.02
577.05	1724.39
577.25	1816.55
577.44	1920.99
577.64	1724.39
577.83	1769.44
578.02	1738.73
578.22	1880.04
578.41	1834.98
578.61	1744.87
578.80	1705.96
579.00	1767.40
579.19	1763.30
579.39	1800.16
579.58	1900.52
579.77	1763.30
579.97	1824.74
580.16	1828.84
580.36	1781.73
580.55	1857.51
580.75	1794.02
580.94	1826.79
581.13	1781.73
581.33	1847.27
581.52	1785.83
581.72	1884.13
581.91	1886.18
582.11	1732.58
582.30	1742.82
582.49	1804.26
582.69	1849.32
582.88	1794.02
583.08	1761.25
583.27	1789.92
583.47	1724.39
583.66	1742.82
583.85	1624.04
584.05	1769.44
584.24	1771.49
584.44	1740.77
584.63	1777.64
584.82	1871.84
585.02	1837.03
585.21	1871.84
585.41	1804.26
585.60	1753.06
585.79	1912.80
585.99	1935.33
586.18	1834.98
586.37	2127.84
586.57	3420.11
586.76	9813.87
586.96	24139.41
587.15	34332.15
587.34	40111.52
587.54	41803.14
587.73	36208.09
587.93	26039.92
588.12	21251.77
588.31	18202.35
588.51	16213.77
588.70	14890.78
588.89	14133.03
589.09	12670.78
589.28	10868.57
589.47	9355.12
589.67	7810.95
589.86	6242.21
590.06	4935.60
590.25	3854.28
590.44	3053.52
590.64	2559.96
590.83	2279.39
591.02	2033.63
591.22	1980.39
591.41	1877.99
591.60	1810.40
591.80	2011.11
591.99	1761.25
592.18	1800.16
592.38	1796.07
592.57	1798.12
592.76	1759.21
592.96	1722.34
593.15	1730.53
593.34	1816.55
593.54	1816.55
593.73	1837.03
593.92	1816.55
594.12	1775.59
594.31	1738.73
594.50	1783.78
594.70	1779.68
594.89	1927.14
595.08	1705.96
595.28	1837.03
595.47	1959.91
595.66	1753.06
595.86	1636.33
596.05	1751.01
596.24	1748.97
596.43	1828.84
596.63	1867.75
596.82	1705.96
597.01	1722.34
597.21	1839.08
597.40	1751.01
597.59	1748.97
597.79	1769.44
597.98	1834.98
598.17	1734.63
598.36	1746.92
598.56	1798.12
598.75	1671.14
598.94	1718.25
599.14	1771.49
599.33	1751.01
599.52	1791.97
599.71	1789.92
599.91	1773.54
600.10	1779.68
600.29	1816.55
600.48	1769.44
600.68	1718.25
600.87	1757.16
601.06	1699.81
601.26	1742.82
601.45	1740.77
601.64	1841.12
601.83	1789.92
602.03	1689.57
602.22	1619.94
602.41	1773.54
602.60	1925.09
602.80	1851.36
602.99	1759.21
603.18	1740.77
603.37	1730.53
603.57	1771.49
603.76	1826.79
603.95	1771.49
604.14	1718.25
604.34	1742.82
604.53	1722.34
604.72	1685.48
604.91	1740.77
605.10	1830.88
605.30	1656.81
605.49	1843.17
605.68	1806.31
605.87	1742.82
606.07	1730.53
606.26	1742.82
606.45	1718.25
606.64	1834.98
606.84	1712.10
607.03	1740.77
607.22	1834.98
607.41	1587.18
607.60	1720.29
607.80	1781.73
607.99	1685.48
608.18	1681.38
608.37	1712.10
608.56	1644.52
608.76	1763.30
608.95	1794.02
609.14	1787.88
609.33	1812.45
609.52	1834.98
609.72	1759.21
609.91	1787.88
610.10	1794.02
610.29	1816.55
610.48	1800.16
610.68	1787.88
610.87	1763.30
611.06	1718.25
611.25	1703.91
611.44	1779.68
611.63	1759.21
611.83	1791.97
612.02	1681.38
612.21	1845.22
612.40	1646.57
612.59	1677.29
612.79	1607.66
612.98	1767.40
613.17	1802.21
613.36	1796.07
613.55	1812.45
613.74	1705.96
613.93	1708.01
614.13	1777.64
614.32	1699.81
614.51	1748.97
614.70	1722.34
614.89	1681.38
615.08	1751.01
615.28	2078.69
615.47	1646.57
615.66	1712.10
615.85	1787.88
616.04	1820.64
616.23	1701.86
616.42	1724.39
616.62	1742.82
616.81	1794.02
617.00	1728.49
617.19	1724.39
617.38	1693.67
617.57	1730.53
617.76	1779.68
617.95	1665.00
618.15	1820.64
618.34	1828.84
618.53	1669.09
618.72	1767.40
618.91	1787.88
619.10	1820.64
619.29	1705.96
619.48	1748.97
619.68	1671.14
619.87	1662.95
620.06	1652.71
620.25	1812.45
620.44	1621.99
620.63	1748.97
620.82	1740.77
621.01	1759.21
621.20	1669.09
621.39	1689.57
621.59	1730.53
621.78	1675.24
621.97	1755.11
622.16	1796.07
622.35	1779.68
622.54	1660.90
622.73	1708.01
622.92	1630.18
623.11	1791.97
623.30	1701.86
623.49	1789.92
623.68	1757.16
623.88	1742.82
624.07	1701.86
624.26	1763.30
624.45	1724.39
624.64	1703.91
624.83	1765.35
625.02	1708.01
625.21	1724.39
625.40	1738.73
625.59	1796.07
625.78	1671.14
625.97	1789.92
626.16	1767.40
626.35	1767.40
626.54	1675.24
626.74	1861.60
626.93	1687.53
627.12	1658.85
627.31	1787.88
627.50	1720.29
627.69	1775.59
627.88	1660.90
628.07	1712.10
628.26	1630.18
628.45	1685.48
628.64	1646.57
628.83	1824.74
629.02	1685.48
629.21	1722.34
629.40	1781.73
629.59	1673.19
629.78	1658.85
629.97	1832.93
630.16	1652.71
630.35	1751.01
630.54	1673.19
630.73	1687.53
630.92	1693.67
631.11	1710.05
631.30	1673.19
631.49	1794.02
631.68	1722.34
631.87	1703.91
632.06	1736.68
632.25	1847.27
632.44	1642.47
632.63	1751.01
632.82	1705.96
633.01	1621.99
633.20	1775.59
633.39	1765.35
633.58	1646.57
633.77	1722.34
633.96	1724.39
634.15	1742.82
634.34	1730.53
634.53	1771.49
634.72	1769.44
634.91	1603.56
635.10	1681.38
635.29	1728.49
635.48	1660.90
635.67	1648.61
635.86	1632.23
636.05	1818.60
636.24	1710.05
636.43	1740.77
636.62	1734.63
636.81	1542.12
637.00	1746.92
637.19	1734.63
637.38	1812.45
637.57	1703.91
637.76	1671.14
637.95	1714.15
638.14	1726.44
638.33	1652.71
638.52	1779.68
638.71	1681.38
638.89	1697.77
639.08	1839.08
639.27	1763.30
639.46	1726.44
639.65	1832.93
639.84	1787.88
640.03	1736.68
640.22	1689.57
640.41	1791.97
640.60	1650.66
640.79	1734.63
640.98	1767.40
641.17	1785.83
641.36	1730.53
641.55	1732.58
641.74	1628.14
641.92	1677.29
642.11	1703.91
642.30	1761.25
642.49	1669.09
642.68	1689.57
642.87	1773.54
643.06	1787.88
643.25	1662.95
643.44	1626.09
643.63	1759.21
643.82	1757.16
644.00	1679.33
644.19	1765.35
644.38	1681.38
644.57	1718.25
644.76	1751.01
644.95	1728.49
645.14	1662.95
645.33	1740.77
645.52	1746.92
645.71	1681.38
645.89	1656.81
646.08	1759.21
646.27	1689.57
646.46	1830.88
646.65	1613.80
646.84	1734.63
647.03	1722.34
647.22	1791.97
647.40	1732.58
647.59	1748.97
647.78	1611.75
647.97	1683.43
648.16	1738.73
648.35	1816.55
648.54	1765.35
648.73	1724.39
648.91	1783.78
649.10	1708.01
649.29	1658.85
649.48	1736.68
649.67	1765.35
649.86	1636.33
650.05	1662.95
650.23	1789.92
650.42	1671.14
650.61	1820.64
650.80	1720.29
650.99	1832.93
651.18	1753.06
651.36	1806.31
651.55	1679.33
651.74	1738.73
651.93	1718.25
652.12	1714.15
652.31	1708.01
652.49	1734.63
652.68	1691.62
652.87	1748.97
653.06	1753.06
653.25	1845.22
653.44	1701.86
653.62	1828.84
653.81	1726.44
654.00	1724.39
654.19	1791.97
654.38	1865.70
654.56	1763.30
654.75	1624.04
654.94	1767.40
655.13	1675.24
655.32	1753.06
655.51	1796.07
655.69	1636.33
655.88	1765.35
656.07	1685.48
656.26	1753.06
656.45	1679.33
656.63	1593.32
656.82	1720.29
657.01	1798.12
657.20	1751.01
657.38	1814.50
657.57	1728.49
657.76	1658.85
657.95	1796.07
658.14	1710.05
658.32	1787.88
658.51	1611.75
658.70	1720.29
658.89	1662.95
659.08	1728.49
659.26	1771.49
659.45	1583.08
659.64	1638.38
659.83	1751.01
660.01	1888.23
660.20	1718.25
660.39	1837.03
660.58	1677.29
660.76	1767.40
660.95	1650.66
661.14	1703.91
661.33	1679.33
661.51	1763.30
661.70	1693.67
661.89	1787.88
662.08	1714.15
662.26	1681.38
662.45	1665.00
662.64	1824.74
662.83	1730.53
663.01	1656.81
663.20	1726.44
663.39	1748.97
663.58	1669.09
663.76	1738.73
663.95	1662.95
664.14	1714.15
664.32	1669.09
664.51	1667.05
664.70	1640.42
664.89	1828.84
665.07	1683.43
665.26	1849.32
665.45	1634.28
665.64	1771.49
665.82	1738.73
666.01	1804.26
666.20	1732.58
666.38	1843.17
666.57	1853.41
666.76	2230.24
666.95	4407.23
667.13	10317.67
667.32	15275.80
667.51	17782.51
667.69	19066.59
667.88	17778.42
668.07	12107.59
668.25	9584.49
668.44	8161.16
668.63	7362.45
668.81	6838.17
669.00	6254.50
669.19	5730.22
669.38	5158.83
669.56	4519.87
669.75	3966.92
669.94	3438.54
670.12	3020.75
670.31	2570.20
670.50	2336.73
670.68	1992.67
670.87	1947.62
671.06	1834.98
671.24	1785.83
671.43	1851.36
671.62	1716.20
671.80	1685.48
671.99	1722.34
672.18	1779.68
672.36	1708.01
672.55	1732.58
672.74	1714.15
672.92	1771.49
673.11	1779.68
673.29	1615.85
673.48	1843.17
673.67	1746.92
673.85	1794.02
674.04	1665.00
674.23	1724.39
674.41	1849.32
674.60	1679.33
674.79	1578.98
674.97	1724.39
675.16	1748.97
675.34	1804.26
675.53	1718.25
675.72	1771.49
675.90	1763.30
676.09	1669.09
676.28	1687.53
676.46	1693.67
676.65	1691.62
676.83	1677.29
677.02	1763.30
677.21	1755.11
677.39	1693.67
677.58	1558.50
677.77	1759.21
677.95	1591.27
678.14	1736.68
678.32	1705.96
678.51	1691.62
678.70	1763.30
678.88	1746.92
679.07	1775.59
679.25	1677.29
679.44	1759.21
679.63	1671.14
679.81	1710.05
680.00	1779.68
680.18	1755.11
680.37	1775.59
680.55	1687.53
680.74	1683.43
680.93	1544.17
681.11	1699.81
681.30	1708.01
681.48	1697.77
681.67	1722.34
681.85	1710.05
682.04	1667.05
682.23	1746.92
682.41	1705.96
682.60	1708.01
682.78	1669.09
682.97	1632.23
683.15	1730.53
683.34	1736.68
683.53	1753.06
683.71	1621.99
683.90	1791.97
684.08	1847.27
684.27	1716.20
684.45	1779.68
684.64	1787.88
684.82	1765.35
685.01	1779.68
685.19	1730.53
685.38	1902.56
685.57	1730.53
685.75	1689.57
685.94	1712.10
686.12	1658.85
686.31	1681.38
686.49	1839.08
686.68	1640.42
686.86	1642.47
687.05	1691.62
687.23	1810.40
687.42	1644.52
687.60	1763.30
687.79	1822.69
687.97	1849.32
688.16	1789.92
688.34	1759.21
688.53	1601.51
688.71	1705.96
688.90	1767.40
689.08	1665.00
689.27	1601.51
689.45	1710.05
689.64	1751.01
689.82	1720.29
690.01	1689.57
690.19	1746.92
690.38	1767.40
690.56	1767.40
690.75	1636.33
690.93	1675.24
691.12	1669.09
691.30	1705.96
691.49	1689.57
691.67	1632.23
691.86	1763.30
692.04	1693.67
692.23	1619.94
692.41	1738.73
692.60	1871.84
692.78	1798.12
692.97	1812.45
693.15	1738.73
693.34	1789.92
693.52	1820.64
693.71	1679.33
693.89	1665.00
694.08	1636.33
694.26	1843.17
694.44	1742.82
694.63	1765.35
694.81	1654.76
695.00	1673.19
695.18	1755.11
695.37	1863.65
695.55	1685.48
695.74	1675.24
695.92	1669.09
696.10	1699.81
696.29	1589.22
696.47	1689.57
696.66	1628.14
696.84	1609.70
697.03	1703.91
697.21	1845.22
697.40	2293.72
697.58	1759.21
697.76	1683.43
697.95	1701.86
698.13	1673.19
698.32	1644.52
698.50	1693.67
698.68	1726.44
698.87	1816.55
699.05	1804.26
699.24	1701.86
699.42	1710.05
699.61	1677.29
699.79	1720.29
699.97	1671.14
700.16	1632.23
700.34	1585.13
700.53	1714.15
700.71	1841.12
700.89	1791.97
701.08	1726.44
701.26	1681.38
701.45	2170.85
701.63	1677.29
701.81	1726.44
702.00	1656.81
702.18	1732.58
702.37	1677.29
702.55	1726.44
702.73	1695.72
702.92	1601.51
703.10	1789.92
703.28	1648.61
703.47	1613.80
703.65	1798.12
703.84	1789.92
704.02	1691.62
704.20	1816.55
704.39	1685.48
704.57	1757.16
704.75	1767.40
704.94	1769.44
705.12	1652.71
705.30	1777.64
705.49	2346.97
705.67	4286.40
705.86	9267.06
706.04	12519.23
706.22	14173.99
706.41	15257.37
706.59	13582.13
706.77	9611.12
706.96	7219.09
707.14	6508.44
707.32	5973.92
707.51	5625.77
707.69	4802.49
707.87	4159.42
708.06	3407.82
708.24	2938.84
708.42	2404.32
708.61	2283.49
708.79	1834.98
708.97	1910.75
709.16	1794.02
709.34	1769.44
709.52	1714.15
709.71	1746.92
709.89	1693.67
710.07	1677.29
710.26	1671.14
710.44	1802.21
710.62	1732.58
710.80	1763.30
710.99	1734.63
711.17	1773.54
711.35	1753.06
711.54	1767.40
711.72	1837.03
711.90	1699.81
712.09	1683.43
712.27	1708.01
712.45	1767.40
712.63	1726.44
712.82	1712.10
713.00	1697.77
713.18	1777.64
713.37	1867.75
713.55	1716.20
713.73	1660.90
713.91	1648.61
714.10	1742.82
714.28	1673.19
714.46	1710.05
714.65	1773.54
714.83	1689.57
715.01	1646.57
715.19	1685.48
715.38	1642.47
715.56	1759.21
715.74	1652.71
715.92	1662.95
716.11	1855.46
716.29	1609.70
716.47	1718.25
716.65	1654.76
716.84	1677.29
717.02	1724.39
717.20	1705.96
717.38	1617.90
717.57	1767.40
717.75	1763.30
717.93	1654.76
718.11	1748.97
718.30	1648.61
718.48	1718.25
718.66	1722.34
718.84	1810.40
719.03	1695.72
719.21	1699.81
719.39	1851.36
719.57	1687.53
719.75	1777.64
719.94	1691.62
720.12	1697.77
720.30	1742.82
720.48	1703.91
720.67	1636.33
720.85	1603.56
721.03	1689.57
721.21	1671.14
721.39	1742.82
721.58	1767.40
721.76	1742.82
721.94	1695.72
722.12	1710.05
722.30	1859.56
722.49	1599.46
722.67	1652.71
722.85	1734.63
723.03	1705.96
723.21	1691.62
723.40	1759.21
723.58	1751.01
723.76	1705.96
723.94	1796.07
724.12	1740.77
724.30	1779.68
724.49	1726.44
724.67	1667.05
724.85	1705.96
725.03	1601.51
725.21	1701.86
725.40	1812.45
725.58	1712.10
725.76	1748.97
725.94	1634.28
726.12	1722.34
726.30	1695.72
726.49	1624.04
726.67	1632.23
726.85	1773.54
727.03	1699.81
727.21	2174.94
727.39	2844.63
727.57	3835.85
727.76	4245.44
727.94	4515.77
728.12	4556.73
728.30	3657.67
728.48	2965.46
728.66	2721.75
728.84	2533.34
729.03	2359.26
729.21	2187.23
729.39	2045.92
729.57	1937.38
729.75	1796.07
729.93	2000.87
730.11	1746.92
730.30	1697.77
730.48	1771.49
730.66	1818.60
730.84	1794.02
731.02	1791.97
731.20	1718.25
731.38	1763.30
731.56	1708.01
731.74	1714.15
731.93	1708.01
732.11	1734.63
732.29	1732.58
732.47	1742.82
732.65	1757.16
732.83	1751.01
733.01	1724.39
733.19	1693.67
733.37	1800.16
733.56	1744.87
733.74	1714.15
733.92	1748.97
734.10	1601.51
734.28	1646.57
734.46	1671.14
734.64	1736.68
734.82	1687.53
735.00	1679.33
735.18	1646.57
735.36	1751.01
735.54	1796.07
735.73	1710.05
735.91	1785.83
736.09	1742.82
736.27	1757.16
736.45	1734.63
736.63	1558.50
736.81	1767.40
736.99	1789.92
737.17	1771.49
737.35	1626.09
737.53	1767.40
737.71	1665.00
737.89	1810.40
738.07	1693.67
738.25	1716.20
738.43	1665.00
738.61	1751.01
738.80	1730.53
738.98	1701.86
739.16	1673.19
739.34	1601.51
739.52	1800.16
739.70	1710.05
739.88	1738.73
740.06	1779.68
740.24	1658.85
740.42	1808.36
740.60	1548.26
740.78	1665.00
740.96	1640.42
741.14	1685.48
741.32	1779.68
741.50	1605.61
741.68	1898.47
741.86	1816.55
742.04	1640.42
742.22	1681.38
742.40	1730.53
742.58	1701.86
742.76	1710.05
742.94	1767.40
743.12	1599.46
743.30	1753.06
743.48	1710.05
743.66	1685.48
743.84	1757.16
744.02	1708.01
744.20	1697.77
744.38	1591.27
744.56	1671.14
744.74	1832.93
744.92	1763.30
745.10	1787.88
745.28	1798.12
745.46	1783.78
745.64	1665.00
745.82	1753.06
746.00	1718.25
746.18	1781.73
746.36	1734.63
746.54	1722.34
746.72	1742.82
746.90	1662.95
747.08	1808.36
747.26	1710.05
747.44	1679.33
747.62	1665.00
747.80	1755.11
747.98	1798.12
748.15	1669.09
748.33	1832.93
748.51	1695.72
748.69	1769.44
748.87	1644.52
749.05	1712.10
749.23	1730.53
749.41	1705.96
749.59	1650.66
749.77	1773.54
749.95	1650.66
750.13	1665.00
750.31	1802.21
750.49	1716.20
750.67	1812.45
750.85	1771.49
751.03	1736.68
751.20	1832.93
751.38	1744.87
751.56	1685.48
751.74	1662.95
751.92	1660.90
752.10	1665.00
752.28	1669.09
752.46	1660.90
752.64	1701.86
752.82	1691.62
753.00	1734.63
753.18	1671.14
753.35	1689.57
753.53	1695.72
753.71	1640.42
753.89	1757.16
754.07	1703.91
754.25	1773.54
754.43	1673.19
754.61	1642.47
754.79	1759.21
754.97	1738.73
755.14	1830.88
755.32	1613.80
755.50	1693.67
755.68	1732.58
755.86	1714.15
756.04	1724.39
756.22	1648.61
756.40	1787.88
756.57	1910.75
756.75	1759.21
756.93	1679.33
757.11	1751.01
757.29	1636.33
757.47	1619.94
757.65	1611.75
757.82	1611.75
758.00	1720.29
758.18	1646.57
758.36	1673.19
758.54	1808.36
758.72	1615.85
758.90	1779.68
759.07	1783.78
759.25	1517.54
759.43	1767.40
759.61	1648.61
759.79	2189.28
759.97	1837.03
760.15	1611.75
760.32	1673.19
760.50	1685.48
760.68	1828.84
760.86	1634.28
761.04	1753.06
761.22	1675.24
761.39	1734.63
761.57	1759.21
761.75	1783.78
761.93	1783.78
762.11	1624.04
762.28	1720.29
762.46	1687.53
762.64	1822.69
762.82	1724.39
763.00	1677.29
763.18	1773.54
763.35	1607.66
763.53	1822.69
763.71	1705.96
763.89	1710.05
764.07	1640.42
764.24	1689.57
764.42	1732.58
764.60	1806.31
764.78	1777.64
764.96	1789.92
765.13	1746.92
765.31	1751.01
765.49	1734.63
765.67	1730.53
765.84	1638.38
766.02	1710.05
766.20	1572.84
766.38	1746.92
766.56	1720.29
766.73	1746.92
766.91	1699.81
767.09	1662.95
767.27	1791.97
767.44	1712.10
767.62	1722.34
767.80	1742.82
767.98	1677.29
768.15	1638.38
768.33	1738.73
768.51	1771.49
768.69	1771.49
768.87	1787.88
769.04	1771.49
769.22	1871.84
769.40	1740.77
769.58	1812.45
769.75	1802.21
769.93	1794.02
770.11	1697.77
770.28	1685.48
770.46	1740.77
770.64	1718.25
770.82	1693.67
770.99	1615.85
771.17	1677.29
771.35	1703.91
771.53	1642.47
771.70	1738.73
771.88	1730.53
772.06	1599.46
772.23	1665.00
772.41	1677.29
772.59	1718.25
772.77	1644.52
772.94	1697.77
773.12	1767.40
773.30	1572.84
773.47	1658.85
773.65	1675.24
773.83	1816.55
774.01	1714.15
774.18	1632.23
774.36	1703.91
774.54	1656.81
774.71	1615.85
774.89	1640.42
775.07	1652.71
775.24	1654.76
775.42	1628.14
775.60	1867.75
775.78	1656.81
775.95	1628.14
776.13	1603.56
776.31	1599.46
776.48	1703.91
776.66	1718.25
776.84	1685.48
777.01	1728.49
777.19	1681.38
777.37	1701.86
777.54	1703.91
777.72	1771.49
777.90	1679.33
778.07	1669.09
778.25	1943.52
778.43	1783.78
778.60	1634.28
778.78	1798.12
778.96	1757.16
779.13	1624.04
779.31	1730.53
779.49	1677.29
779.66	1701.86
779.84	1728.49
780.01	1658.85
780.19	1640.42
780.37	1783.78
780.54	1757.16
780.72	1687.53
780.90	1703.91
781.07	1644.52
781.25	1683.43
781.43	1771.49
781.60	1667.05
781.78	1841.12
781.95	1726.44
782.13	1660.90
782.31	1650.66
782.48	1626.09
782.66	1755.11
782.83	1798.12
783.01	1695.72
783.19	1710.05
783.36	1703.91
783.54	1656.81
783.72	1689.57
783.89	1673.19
784.07	1685.48
784.24	1718.25
784.42	1714.15
784.60	1736.68
784.77	1748.97
784.95	1705.96
785.12	1693.67
785.30	1644.52
785.47	1665.00
785.65	1673.19
785.83	1652.71
786.00	1665.00
786.18	1646.57
786.35	1669.09
786.53	1660.90
786.71	1755.11
786.88	1742.82
787.06	1714.15
787.23	1701.86
787.41	1617.90
787.58	1673.19
787.76	1613.80
787.94	1640.42
788.11	1673.19
788.29	1634.28
788.46	1755.11
788.64	1640.42
788.81	1726.44
788.99	1636.33
789.16	1650.66
789.34	1714.15
789.52	1759.21
789.69	1660.90
789.87	1679.33
790.04	1734.63
790.22	1687.53
790.39	1853.41
790.57	1595.37
790.74	1699.81
790.92	1791.97
791.09	1665.00
791.27	1710.05
791.44	1771.49
791.62	1628.14
791.79	1734.63
791.97	1673.19
792.15	1886.18
792.32	1710.05
792.50	1734.63
792.67	1734.63
792.85	1783.78
793.02	1808.36
793.20	1716.20
793.37	1585.13
793.55	1748.97
793.72	1675.24
793.90	1708.01
794.07	1722.34
794.25	1648.61
794.42	1779.68
794.60	1660.90
794.77	1755.11
794.95	1755.11
795.12	1826.79
795.30	1757.16
795.47	1650.66
795.65	1869.80
795.82	1718.25
796.00	1689.57
796.17	1726.44
796.34	1634.28
796.52	1814.50
796.69	1798.12
796.87	1767.40
797.04	1771.49
797.22	1716.20
797.39	1691.62
797.57	1744.87
797.74	1681.38
797.92	1720.29
798.09	1632.23
798.27	1812.45
798.44	1779.68
798.62	1656.81
798.79	1753.06
798.96	1722.34
799.14	1619.94
799.31	1888.23
799.49	1677.29
799.66	1716.20
799.84	1775.59
800.01	1660.90
800.19	1751.01
800.36	1626.09
800.53	1642.47
800.71	1703.91
800.88	1828.84
801.06	1673.19
801.23	1673.19
801.41	1714.15
801.58	1697.77
801.75	1660.90
801.93	1732.58
802.10	1714.15
802.28	1734.63
802.45	1699.81
802.63	1791.97
802.80	1755.11
802.97	1632.23
803.15	1714.15
803.32	1658.85
803.50	1611.75
803.67	1638.38
803.84	1546.22
804.02	1619.94
804.19	1685.48
804.37	1644.52
804.54	1691.62
804.71	1757.16
804.89	1710.05
805.06	1695.72
805.24	1679.33
805.41	1607.66
805.58	1648.61
805.76	1873.89
805.93	1701.86
806.10	1826.79
806.28	1791.97
806.45	1710.05
806.63	1662.95
806.80	1789.92
806.97	1619.94
807.15	1746.92
807.32	1839.08
807.49	1705.96
807.67	1632.23
807.84	1761.25
808.01	1632.23
808.19	1828.84
808.36	1839.08
808.54	1671.14
808.71	1648.61
808.88	1722.34
809.06	1677.29
809.23	1853.41
809.40	1718.25
809.58	1796.07
809.75	1683.43
809.92	1673.19
810.10	1863.65
810.27	1714.15
810.44	1771.49
810.62	1748.97
810.79	1775.59
810.96	1634.28
811.14	1734.63
811.31	1660.90
811.48	1746.92
811.66	1789.92
811.83	1742.82
812.00	1759.21
812.18	1757.16
812.35	1834.98
812.52	1646.57
812.69	1687.53
812.87	1726.44
813.04	1675.24
813.21	1716.20
813.39	1673.19
813.56	1591.27
813.73	1736.68
813.91	1611.75
814.08	1773.54
814.25	1705.96
814.42	1619.94
814.60	1703.91
814.77	1705.96
814.94	1701.86
815.12	1744.87
815.29	1714.15
815.46	1687.53
815.63	1771.49
815.81	1703.91
815.98	1675.24
816.15	1685.48
816.33	1746.92
816.50	1601.51
816.67	1660.90
816.84	1759.21
817.02	1681.38
817.19	1595.37
817.36	1730.53
817.53	1708.01
817.71	1665.00
817.88	1724.39
818.05	1650.66
818.22	1662.95
818.40	1837.03
818.57	1687.53
818.74	1667.05
818.91	1734.63
819.09	1812.45
819.26	1761.25
819.43	1787.88
819.60	1673.19
819.78	1710.05
819.95	1748.97
820.12	1699.81
820.29	1783.78
820.47	1800.16
820.64	1662.95
820.81	1638.38
820.98	1648.61
821.15	1669.09
821.33	1820.64
821.50	1636.33
821.67	1759.21
821.84	1654.76
822.02	1656.81
822.19	1734.63
822.36	1685.48
822.53	1708.01
822.70	1611.75
822.88	1683.43
823.05	1771.49
823.22	1710.05
823.39	1675.24
823.56	1617.90
823.74	1755.11
823.91	1681.38
824.08	1701.86
824.25	1662.95
824.42	1796.07
824.60	1712.10
824.77	1763.30
824.94	1642.47
825.11	1794.02
825.28	1574.89
825.45	1718.25
825.63	1755.11
825.80	1675.24
825.97	1765.35
826.14	1714.15
826.31	1603.56
826.48	1677.29
826.66	1712.10
826.83	1714.15
827.00	1665.00
827.17	1699.81
827.34	1636.33
827.51	1687.53
827.69	1667.05
827.86	1695.72
828.03	1722.34
828.20	1669.09
828.37	1697.77
828.54	1708.01
828.71	1677.29
828.89	1794.02
829.06	1714.15
829.23	1806.31
829.40	1701.86
829.57	1681.38
829.74	1697.77
829.91	1755.11
830.09	1646.57
830.26	1634.28
830.43	1771.49
830.60	1716.20
830.77	1802.21
830.94	1834.98
831.11	1736.68
831.28	1708.01
831.46	1738.73
831.63	1624.04
831.80	1748.97
831.97	1726.44
832.14	1705.96
832.31	1718.25
832.48	1722.34
832.65	1757.16
832.82	1759.21
832.99	1673.19
833.17	1665.00
833.34	1822.69
833.51	1689.57
833.68	1605.61
833.85	1730.53
834.02	1689.57
834.19	1652.71
834.36	1714.15
834.53	1697.77
834.70	1746.92
834.87	1718.25
835.04	1673.19
835.22	1611.75
835.39	1734.63
835.56	1624.04
835.73	1683.43
835.90	1716.20
836.07	1638.38
836.24	1742.82
836.41	1634.28
836.58	1718.25
836.75	1785.83
836.92	1712.10
837.09	1665.00
837.26	1732.58
837.43	1693.67
837.60	1724.39
837.77	1726.44
837.94	1769.44
838.12	1746.92
838.29	1789.92
838.46	1658.85
838.63	1626.09
838.80	1796.07
838.97	1736.68
839.14	1685.48
839.31	1728.49
839.48	1763.30
839.65	1675.24
839.82	1742.82
839.99	1779.68
840.16	1724.39
840.33	1648.61
840.50	1681.38
840.67	1701.86
840.84	1632.23
841.01	1722.34
841.18	1722.34
841.35	1697.77
841.52	1718.25
841.69	1832.93
841.86	1697.77
842.03	1710.05
842.20	1689.57
842.37	1751.01
842.54	1576.94
842.71	1685.48
842.88	1691.62
843.05	1779.68
843.22	1753.06
843.39	1718.25
843.56	1724.39
843.73	1712.10
843.90	1648.61
844.07	1708.01
844.24	1751.01
844.41	1736.68
844.58	1677.29
844.75	1734.63
844.92	1681.38
845.09	1718.25
845.26	1716.20
845.43	1777.64
845.60	1691.62
845.77	1689.57
845.94	1703.91
846.10	1757.16
846.27	1667.05
846.44	1619.94
846.61	1701.86
846.78	1757.16
846.95	1728.49
847.12	1650.66
847.29	1652.71
847.46	1572.84
847.63	1781.73
847.80	1685.48
847.97	1683.43
848.14	1855.46
848.31	1683.43
848.48	1673.19
848.65	1673.19
848.82	1724.39
848.98	1880.04
849.15	1767.40
849.32	1748.97
849.49	1773.54
849.66	1728.49
849.83	1724.39
850.00	1595.37
850.17	1679.33
850.34	1701.86
850.51	1617.90
850.68	1648.61
850.85	1882.08
851.01	1705.96
851.18	1677.29
851.35	1665.00
851.52	1728.49
851.69	1755.11
851.86	1648.61
852.03	1697.77
852.20	1769.44
852.37	1689.57
852.53	1595.37
852.70	1755.11
852.87	1677.29
853.04	1771.49
853.21	1722.34
853.38	1730.53
853.55	1740.77
853.72	1767.40
853.89	1628.14
854.05	1574.89
854.22	1699.81
854.39	1642.47
854.56	1804.26
854.73	1796.07
854.90	1621.99
855.07	1757.16
855.23	1701.86
855.40	1669.09
855.57	1603.56
855.74	1656.81
855.91	1841.12
856.08	1699.81
856.25	1691.62
856.41	1736.68
856.58	1730.53
856.75	1714.15
856.92	1640.42
857.09	1769.44
857.26	1705.96
857.42	1679.33
857.59	1689.57
857.76	1718.25
857.93	1650.66
858.10	1757.16
858.27	1624.04
858.43	1673.19
858.60	1671.14
858.77	1705.96
858.94	1667.05
859.11	1720.29
859.27	1753.06
859.44	1724.39
859.61	1808.36
859.78	1771.49
859.95	1673.19
860.12	1734.63
860.28	1818.60
860.45	1722.34
860.62	1693.67
860.79	1718.25
860.95	1701.86
861.12	1630.18
861.29	1662.95
861.46	1628.14
861.63	1662.95
861.79	1640.42
861.96	1685.48
862.13	1753.06
862.30	1693.67
862.47	1671.14
862.63	1642.47
862.80	1757.16
862.97	1757.16
863.14	1757.16
863.30	1695.72
863.47	1665.00
863.64	1810.40
863.81	1712.10
863.97	1738.73
864.14	1759.21
864.31	1652.71
864.48	1632.23
864.65	1595.37
864.81	1779.68
864.98	1759.21
865.15	1675.24
865.32	1734.63
865.48	1816.55
865.65	1816.55
865.82	1660.90
865.98	1648.61
866.15	1742.82
866.32	1724.39
866.49	1669.09
866.65	1863.65
866.82	1646.57
866.99	1718.25
867.16	1712.10
867.32	1624.04
867.49	1699.81
867.66	1605.61
867.83	1718.25
867.99	1642.47
868.16	1673.19
868.33	1619.94
868.49	1744.87
868.66	1693.67
868.83	1744.87
868.99	1708.01
869.16	1654.76
869.33	1787.88
869.50	1734.63
869.66	1605.61
869.83	1667.05
870.00	1609.70
870.16	1775.59
870.33	1683.43
870.50	1677.29
870.66	1636.33
870.83	1812.45
871.00	1685.48
871.17	1720.29
871.33	1751.01
871.50	1783.78
871.67	1685.48
871.83	1640.42
872.00	1724.39
872.17	1728.49
872.33	1810.40
872.50	1771.49
872.67	1701.86
872.83	1699.81
873.00	1724.39
873.17	1712.10
873.33	1800.16
873.50	1708.01
873.67	1714.15
873.83	1646.57
874.00	1740.77
874.16	1746.92
874.33	1765.35
874.50	1572.84
874.66	1648.61
874.83	1712.10
875.00	1697.77
875.16	1814.50
875.33	1730.53
875.50	1632.23
875.66	1673.19
875.83	1662.95
875.99	1732.58
876.16	1685.48
876.33	1632.23
876.49	1708.01
876.66	1804.26
876.83	1742.82
876.99	1683.43
877.16	1673.19
877.32	1695.72
877.49	1681.38
877.66	1712.10
877.82	1685.48
877.99	1710.05
878.15	1759.21
878.32	1708.01
878.49	1720.29
878.65	1736.68
878.82	1775.59
878.98	1763.30
879.15	1798.12
879.32	1753.06
879.48	1732.58
879.65	1724.39
879.81	1648.61
879.98	1658.85
880.15	1656.81
880.31	1773.54
880.48	1613.80
880.64	1783.78
880.81	1722.34
880.97	1849.32
881.14	1771.49
881.31	1660.90
881.47	1820.64
881.64	1685.48
881.80	1619.94
881.97	1722.34
882.13	1720.29
882.30	1658.85
882.47	1669.09
882.63	1611.75
882.80	1716.20
882.96	1677.29
883.13	1732.58
883.29	1695.72
883.46	1722.34
883.62	1730.53
883.79	1722.34
883.95	1783.78
884.12	1703.91
884.29	1804.26
884.45	1757.16
884.62	1761.25
884.78	1656.81
884.95	1736.68
885.11	1703.91
885.28	1765.35
885.44	1673.19
885.61	1783.78
885.77	1779.68
885.94	1785.83
886.10	1687.53
886.27	1665.00
886.43	1751.01
886.60	1853.41
886.76	1628.14
886.93	1716.20
887.09	1722.34
887.26	1607.66
887.42	1761.25
887.59	1705.96
887.75	1861.60
887.92	1708.01
888.08	1777.64
888.25	1779.68
888.41	1779.68
888.58	1683.43
888.74	1691.62
888.91	1677.29
>>>>>End Processed Spectral Data<<<<<
