SpectraSuite Data File
++++++++++++++++++++++++++++++++++++
Date: Mon Jun 06 13:47:37 CEST 2016
User: root
Dark Spectrum Present: No
Reference Spectrum Present: No
Number of Sampled Component Spectra: 1
Spectrometers: USB4C02835
Integration Time (usec): 100000 (USB4C02835)
Spectra Averaged: 1 (USB4C02835)
Boxcar Smoothing: 0 (USB4C02835)
Correct for Electrical Dark: No (USB4C02835)
Strobe/Lamp Enabled: No (USB4C02835)
Correct for Detector Non-linearity: No (USB4C02835)
Correct for Stray Light: No (USB4C02835)
Number of Pixels in Processed Spectrum: 3648
>>>>>Begin Processed Spectral Data<<<<<
177.47	1411.05
177.69	1411.05
177.91	1411.05
178.13	1562.60
178.36	1462.25
178.58	1671.14
178.80	1708.01
179.02	1619.94
179.24	1675.24
179.46	1621.99
179.68	1767.40
179.90	1708.01
180.13	1693.67
180.35	1677.29
180.57	1669.09
180.79	1710.05
181.01	1685.48
181.23	1722.34
181.45	1718.25
181.67	1748.97
181.90	1734.63
182.12	1660.90
182.34	1558.50
182.56	1689.57
182.78	1710.05
183.00	1669.09
183.22	1744.87
183.44	1603.56
183.66	1845.22
183.89	1814.50
184.11	1658.85
184.33	1763.30
184.55	1736.68
184.77	1771.49
184.99	1726.44
185.21	1683.43
185.43	1845.22
185.65	1669.09
185.87	1714.15
186.10	1806.31
186.32	1839.08
186.54	1763.30
186.76	1755.11
186.98	1738.73
187.20	1716.20
187.42	1718.25
187.64	1710.05
187.86	1683.43
188.08	1751.01
188.30	1638.38
188.52	1656.81
188.75	1714.15
188.97	1791.97
189.19	1681.38
189.41	1687.53
189.63	1722.34
189.85	1765.35
190.07	1669.09
190.29	1601.51
190.51	1767.40
190.73	1634.28
190.95	1767.40
191.17	1714.15
191.39	1642.47
191.61	1628.14
191.84	1683.43
192.06	1703.91
192.28	1689.57
192.50	1871.84
192.72	1677.29
192.94	1742.82
193.16	1753.06
193.38	1763.30
193.60	1710.05
193.82	1683.43
194.04	1763.30
194.26	1738.73
194.48	1673.19
194.70	1578.98
194.92	1730.53
195.14	1642.47
195.36	1628.14
195.58	1667.05
195.80	1703.91
196.02	1751.01
196.24	1699.81
196.46	1673.19
196.69	1632.23
196.91	1853.41
197.13	1607.66
197.35	1665.00
197.57	1732.58
197.79	1708.01
198.01	1728.49
198.23	1669.09
198.45	1748.97
198.67	1648.61
198.89	1650.66
199.11	1710.05
199.33	1677.29
199.55	1601.51
199.77	1648.61
199.99	1783.78
200.21	1634.28
200.43	1716.20
200.65	1628.14
200.87	1550.31
201.09	1724.39
201.31	1675.24
201.53	1763.30
201.75	1738.73
201.97	1751.01
202.19	1656.81
202.41	1724.39
202.63	1722.34
202.85	1800.16
203.07	1806.31
203.29	1726.44
203.51	1658.85
203.73	1708.01
203.95	1877.99
204.17	1681.38
204.39	1695.72
204.61	1763.30
204.83	1689.57
205.05	1757.16
205.27	1751.01
205.49	1757.16
205.71	1644.52
205.93	1603.56
206.15	1624.04
206.37	1726.44
206.59	1695.72
206.81	1609.70
207.03	1624.04
207.25	1619.94
207.47	1808.36
207.69	1685.48
207.91	1720.29
208.13	1753.06
208.34	1683.43
208.56	1638.38
208.78	1738.73
209.00	1660.90
209.22	1705.96
209.44	1693.67
209.66	1708.01
209.88	1753.06
210.10	1695.72
210.32	1681.38
210.54	1714.15
210.76	1712.10
210.98	1740.77
211.20	1673.19
211.42	1667.05
211.64	1761.25
211.86	1687.53
212.08	1656.81
212.30	1744.87
212.52	1689.57
212.74	1740.77
212.96	1744.87
213.17	1791.97
213.39	1718.25
213.61	1791.97
213.83	1703.91
214.05	1626.09
214.27	1701.86
214.49	1691.62
214.71	1669.09
214.93	1779.68
215.15	1683.43
215.37	1740.77
215.59	1517.54
215.81	1740.77
216.03	1740.77
216.24	1708.01
216.46	1708.01
216.68	1697.77
216.90	1732.58
217.12	1718.25
217.34	1679.33
217.56	1791.97
217.78	1849.32
218.00	1767.40
218.22	1720.29
218.44	1689.57
218.66	1673.19
218.87	1748.97
219.09	1720.29
219.31	1757.16
219.53	1669.09
219.75	1703.91
219.97	1759.21
220.19	1683.43
220.41	1656.81
220.63	1763.30
220.85	1695.72
221.06	1660.90
221.28	1742.82
221.50	1675.24
221.72	1703.91
221.94	1656.81
222.16	1718.25
222.38	1710.05
222.60	1767.40
222.82	1615.85
223.03	1771.49
223.25	1632.23
223.47	1734.63
223.69	1755.11
223.91	1767.40
224.13	1681.38
224.35	1630.18
224.57	1730.53
224.78	1728.49
225.00	1665.00
225.22	1705.96
225.44	1691.62
225.66	1736.68
225.88	1712.10
226.10	1730.53
226.32	1726.44
226.53	1705.96
226.75	1746.92
226.97	1726.44
227.19	1757.16
227.41	1697.77
227.63	1710.05
227.85	1662.95
228.06	1753.06
228.28	1691.62
228.50	1738.73
228.72	1603.56
228.94	1673.19
229.16	1626.09
229.37	1685.48
229.59	1671.14
229.81	1748.97
230.03	1642.47
230.25	1699.81
230.47	1603.56
230.69	1640.42
230.90	1796.07
231.12	1662.95
231.34	1669.09
231.56	1681.38
231.78	1697.77
232.00	1765.35
232.21	1716.20
232.43	1658.85
232.65	1599.46
232.87	1839.08
233.09	1667.05
233.30	1697.77
233.52	1744.87
233.74	1718.25
233.96	1724.39
234.18	1640.42
234.40	1675.24
234.61	1820.64
234.83	1650.66
235.05	1583.08
235.27	1884.13
235.49	1800.16
235.70	1714.15
235.92	1759.21
236.14	1755.11
236.36	1834.98
236.58	1742.82
236.79	1640.42
237.01	1626.09
237.23	1714.15
237.45	1832.93
237.67	1648.61
237.88	1679.33
238.10	1845.22
238.32	1626.09
238.54	1701.86
238.76	1626.09
238.97	1656.81
239.19	1613.80
239.41	1787.88
239.63	1798.12
239.85	1705.96
240.06	1746.92
240.28	1701.86
240.50	1785.83
240.72	1742.82
240.93	1621.99
241.15	1755.11
241.37	1753.06
241.59	1865.70
241.81	1662.95
242.02	1665.00
242.24	1757.16
242.46	1699.81
242.68	1648.61
242.89	1738.73
243.11	1791.97
243.33	1658.85
243.55	1691.62
243.76	1654.76
243.98	1679.33
244.20	1654.76
244.42	1712.10
244.64	1757.16
244.85	1634.28
245.07	1601.51
245.29	1714.15
245.51	1732.58
245.72	1751.01
245.94	1861.60
246.16	1714.15
246.38	1718.25
246.59	1648.61
246.81	1634.28
247.03	1703.91
247.24	1617.90
247.46	1738.73
247.68	1634.28
247.90	1671.14
248.11	1681.38
248.33	1710.05
248.55	1767.40
248.77	1716.20
248.98	1761.25
249.20	1804.26
249.42	1705.96
249.64	1710.05
249.85	1671.14
250.07	1681.38
250.29	1746.92
250.50	1761.25
250.72	1656.81
250.94	1763.30
251.16	1798.12
251.37	1759.21
251.59	1728.49
251.81	1742.82
252.02	1728.49
252.24	1667.05
252.46	1806.31
252.68	1685.48
252.89	1734.63
253.11	1640.42
253.33	1789.92
253.54	1779.68
253.76	1640.42
253.98	1658.85
254.20	1693.67
254.41	1595.37
254.63	1685.48
254.85	1677.29
255.06	1714.15
255.28	1746.92
255.50	1714.15
255.71	1667.05
255.93	1652.71
256.15	1722.34
256.36	1765.35
256.58	1636.33
256.80	1681.38
257.02	1675.24
257.23	1708.01
257.45	1675.24
257.67	1763.30
257.88	1736.68
258.10	1714.15
258.32	1685.48
258.53	1708.01
258.75	1818.60
258.97	1615.85
259.18	1718.25
259.40	1734.63
259.62	1814.50
259.83	1796.07
260.05	1724.39
260.27	1955.81
260.48	1800.16
260.70	1566.70
260.92	1621.99
261.13	1695.72
261.35	1718.25
261.57	1732.58
261.78	1681.38
262.00	1632.23
262.22	1767.40
262.43	1695.72
262.65	1640.42
262.86	1638.38
263.08	1865.70
263.30	1705.96
263.51	1660.90
263.73	1693.67
263.95	1759.21
264.16	1671.14
264.38	1652.71
264.60	1783.78
264.81	1597.42
265.03	1785.83
265.25	1728.49
265.46	1685.48
265.68	1757.16
265.89	1777.64
266.11	1599.46
266.33	1755.11
266.54	1716.20
266.76	1753.06
266.98	1781.73
267.19	1765.35
267.41	1708.01
267.62	1665.00
267.84	1665.00
268.06	1691.62
268.27	1718.25
268.49	1742.82
268.70	1701.86
268.92	1656.81
269.14	1724.39
269.35	1650.66
269.57	1650.66
269.79	1712.10
270.00	1638.38
270.22	1869.80
270.43	1683.43
270.65	1593.32
270.87	1669.09
271.08	1677.29
271.30	1722.34
271.51	1693.67
271.73	1826.79
271.95	1748.97
272.16	1732.58
272.38	1714.15
272.59	1638.38
272.81	1718.25
273.02	1736.68
273.24	1665.00
273.46	1720.29
273.67	1621.99
273.89	1701.86
274.10	1665.00
274.32	1753.06
274.54	1742.82
274.75	1728.49
274.97	1636.33
275.18	1693.67
275.40	1710.05
275.61	1751.01
275.83	1689.57
276.05	1681.38
276.26	1710.05
276.48	1744.87
276.69	1726.44
276.91	1587.18
277.12	1759.21
277.34	1710.05
277.55	1753.06
277.77	1681.38
277.99	1671.14
278.20	1712.10
278.42	1632.23
278.63	1636.33
278.85	1673.19
279.06	1615.85
279.28	1644.52
279.49	1693.67
279.71	1732.58
279.93	1673.19
280.14	1667.05
280.36	1648.61
280.57	1806.31
280.79	1746.92
281.00	1658.85
281.22	1728.49
281.43	1794.02
281.65	1599.46
281.86	1689.57
282.08	1677.29
282.29	1808.36
282.51	1583.08
282.73	1705.96
282.94	1628.14
283.16	1742.82
283.37	1781.73
283.59	1757.16
283.80	1669.09
284.02	1658.85
284.23	1751.01
284.45	1665.00
284.66	1638.38
284.88	1718.25
285.09	1716.20
285.31	1779.68
285.52	1681.38
285.74	1574.89
285.95	1716.20
286.17	1767.40
286.38	1759.21
286.60	1683.43
286.81	1705.96
287.03	1632.23
287.24	1724.39
287.46	1765.35
287.67	1634.28
287.89	1869.80
288.10	1644.52
288.32	1648.61
288.53	1742.82
288.75	1679.33
288.96	1708.01
289.18	1665.00
289.39	1654.76
289.61	1769.44
289.82	1830.88
290.04	1775.59
290.25	1658.85
290.47	1765.35
290.68	1640.42
290.90	1785.83
291.11	1636.33
291.33	1822.69
291.54	1730.53
291.76	1632.23
291.97	1718.25
292.18	1724.39
292.40	1697.77
292.61	1714.15
292.83	1923.04
293.04	1708.01
293.26	1652.71
293.47	1759.21
293.69	1660.90
293.90	1648.61
294.12	1789.92
294.33	1703.91
294.55	1718.25
294.76	1722.34
294.97	1773.54
295.19	1834.98
295.40	1765.35
295.62	1759.21
295.83	1710.05
296.05	1691.62
296.26	1796.07
296.48	1650.66
296.69	1761.25
296.90	1669.09
297.12	1708.01
297.33	1785.83
297.55	1824.74
297.76	1740.77
297.98	1708.01
298.19	1695.72
298.41	1628.14
298.62	1636.33
298.83	1771.49
299.05	1716.20
299.26	1646.57
299.48	1669.09
299.69	1730.53
299.90	1695.72
300.12	1677.29
300.33	1724.39
300.55	1697.77
300.76	1755.11
300.98	1642.47
301.19	1775.59
301.40	1673.19
301.62	1699.81
301.83	1640.42
302.05	1800.16
302.26	1718.25
302.47	1800.16
302.69	1638.38
302.90	1753.06
303.12	1550.31
303.33	1722.34
303.54	1785.83
303.76	1675.24
303.97	1710.05
304.19	1763.30
304.40	1691.62
304.61	1708.01
304.83	1791.97
305.04	1781.73
305.26	1726.44
305.47	1716.20
305.68	1691.62
305.90	1660.90
306.11	1697.77
306.33	1671.14
306.54	1712.10
306.75	1642.47
306.97	1636.33
307.18	1621.99
307.39	1710.05
307.61	1753.06
307.82	1626.09
308.04	1685.48
308.25	1689.57
308.46	1767.40
308.68	1646.57
308.89	1675.24
309.10	1761.25
309.32	1681.38
309.53	1705.96
309.74	1697.77
309.96	1685.48
310.17	1787.88
310.39	1681.38
310.60	1697.77
310.81	1685.48
311.03	1662.95
311.24	1763.30
311.45	1691.62
311.67	1804.26
311.88	1703.91
312.09	1662.95
312.31	1691.62
312.52	1705.96
312.73	1665.00
312.95	1619.94
313.16	1703.91
313.37	1798.12
313.59	1732.58
313.80	1759.21
314.01	1769.44
314.23	1687.53
314.44	1626.09
314.65	1665.00
314.87	1648.61
315.08	1652.71
315.29	1699.81
315.51	1675.24
315.72	1632.23
315.93	1832.93
316.15	1730.53
316.36	1642.47
316.57	1689.57
316.79	1740.77
317.00	1716.20
317.21	1714.15
317.43	1566.70
317.64	1746.92
317.85	1626.09
318.07	1687.53
318.28	1689.57
318.49	1812.45
318.70	1937.38
318.92	1851.36
319.13	1794.02
319.34	1753.06
319.56	1824.74
319.77	1773.54
319.98	1855.46
320.20	1816.55
320.41	1748.97
320.62	1767.40
320.83	1765.35
321.05	1763.30
321.26	1732.58
321.47	1697.77
321.69	1765.35
321.90	1603.56
322.11	1665.00
322.32	1703.91
322.54	1708.01
322.75	1691.62
322.96	1843.17
323.18	1675.24
323.39	1574.89
323.60	1570.79
323.81	1742.82
324.03	1646.57
324.24	1693.67
324.45	1705.96
324.66	1685.48
324.88	1746.92
325.09	1765.35
325.30	1767.40
325.52	1722.34
325.73	1648.61
325.94	1585.13
326.15	1554.41
326.37	1728.49
326.58	1771.49
326.79	1753.06
327.00	1662.95
327.22	1734.63
327.43	1695.72
327.64	1691.62
327.85	1746.92
328.07	1769.44
328.28	1830.88
328.49	1730.53
328.70	1642.47
328.92	1708.01
329.13	1652.71
329.34	1691.62
329.55	1800.16
329.76	1824.74
329.98	1677.29
330.19	1705.96
330.40	1748.97
330.61	1751.01
330.83	1779.68
331.04	1619.94
331.25	1712.10
331.46	1699.81
331.68	1671.14
331.89	1791.97
332.10	1791.97
332.31	1716.20
332.52	1636.33
332.74	1771.49
332.95	1669.09
333.16	1730.53
333.37	1767.40
333.58	1644.52
333.80	1705.96
334.01	1626.09
334.22	1697.77
334.43	1681.38
334.64	1673.19
334.86	1640.42
335.07	1587.18
335.28	1847.27
335.49	1613.80
335.70	1734.63
335.92	1748.97
336.13	1773.54
336.34	1705.96
336.55	1779.68
336.76	1714.15
336.98	1632.23
337.19	1744.87
337.40	1751.01
337.61	1814.50
337.82	1697.77
338.04	1791.97
338.25	1615.85
338.46	1718.25
338.67	1734.63
338.88	1546.22
339.09	1646.57
339.31	1644.52
339.52	1632.23
339.73	1660.90
339.94	1761.25
340.15	1710.05
340.36	1658.85
340.58	1740.77
340.79	1574.89
341.00	1691.62
341.21	1681.38
341.42	1771.49
341.63	1634.28
341.85	1726.44
342.06	1689.57
342.27	1597.42
342.48	1769.44
342.69	1689.57
342.90	1671.14
343.12	1783.78
343.33	1675.24
343.54	1734.63
343.75	1746.92
343.96	1667.05
344.17	1609.70
344.38	1665.00
344.60	1699.81
344.81	1619.94
345.02	1667.05
345.23	1755.11
345.44	1818.60
345.65	1779.68
345.86	1763.30
346.07	1740.77
346.29	1611.75
346.50	1724.39
346.71	1718.25
346.92	1720.29
347.13	1755.11
347.34	1748.97
347.55	1740.77
347.76	1759.21
347.98	1572.84
348.19	1712.10
348.40	1843.17
348.61	1644.52
348.82	1771.49
349.03	1730.53
349.24	1673.19
349.45	1777.64
349.66	1538.02
349.88	1685.48
350.09	1660.90
350.30	1746.92
350.51	1759.21
350.72	1712.10
350.93	1703.91
351.14	1675.24
351.35	1742.82
351.56	1722.34
351.77	1765.35
351.99	1714.15
352.20	1771.49
352.41	1720.29
352.62	1583.08
352.83	1753.06
353.04	1671.14
353.25	1722.34
353.46	1763.30
353.67	1765.35
353.88	1685.48
354.09	1652.71
354.30	1708.01
354.52	1681.38
354.73	1665.00
354.94	1640.42
355.15	1660.90
355.36	1865.70
355.57	1742.82
355.78	1693.67
355.99	1601.51
356.20	1695.72
356.41	1767.40
356.62	1683.43
356.83	1705.96
357.04	1845.22
357.25	1621.99
357.46	1658.85
357.68	1583.08
357.89	1681.38
358.10	1699.81
358.31	1779.68
358.52	1693.67
358.73	1646.57
358.94	1681.38
359.15	1726.44
359.36	1808.36
359.57	1738.73
359.78	1708.01
359.99	1755.11
360.20	1658.85
360.41	1685.48
360.62	1708.01
360.83	1759.21
361.04	1710.05
361.25	1730.53
361.46	1773.54
361.67	1746.92
361.88	1740.77
362.09	1775.59
362.30	1710.05
362.51	1605.61
362.72	1718.25
362.93	1771.49
363.14	1802.21
363.35	1710.05
363.56	1624.04
363.78	1779.68
363.99	1705.96
364.20	1660.90
364.41	1748.97
364.62	1710.05
364.83	1691.62
365.04	1675.24
365.25	1740.77
365.46	1800.16
365.67	1611.75
365.88	1611.75
366.09	1650.66
366.30	1693.67
366.51	1617.90
366.72	1570.79
366.93	1656.81
367.14	1650.66
367.35	1755.11
367.56	1662.95
367.77	1783.78
367.98	1675.24
368.18	1683.43
368.39	1718.25
368.60	1636.33
368.81	1794.02
369.02	1632.23
369.23	1660.90
369.44	1646.57
369.65	1660.90
369.86	1705.96
370.07	1740.77
370.28	1611.75
370.49	1744.87
370.70	1724.39
370.91	1640.42
371.12	1613.80
371.33	1701.86
371.54	1667.05
371.75	1744.87
371.96	1617.90
372.17	1683.43
372.38	1763.30
372.59	1699.81
372.80	1660.90
373.01	1710.05
373.22	1779.68
373.43	1683.43
373.64	1677.29
373.85	1814.50
374.06	1736.68
374.26	1732.58
374.47	1740.77
374.68	1773.54
374.89	1697.77
375.10	1685.48
375.31	1732.58
375.52	1746.92
375.73	1660.90
375.94	1675.24
376.15	1726.44
376.36	1662.95
376.57	1646.57
376.78	1665.00
376.99	1665.00
377.20	1802.21
377.40	1656.81
377.61	1783.78
377.82	1636.33
378.03	1828.84
378.24	1732.58
378.45	1732.58
378.66	1726.44
378.87	1554.41
379.08	1597.42
379.29	1628.14
379.50	1740.77
379.71	1757.16
379.91	1708.01
380.12	1753.06
380.33	1755.11
380.54	1697.77
380.75	1626.09
380.96	1712.10
381.17	1771.49
381.38	1613.80
381.59	1652.71
381.80	1728.49
382.00	1949.67
382.21	1775.59
382.42	1869.80
382.63	1808.36
382.84	1736.68
383.05	1781.73
383.26	1771.49
383.47	1685.48
383.68	1757.16
383.88	1755.11
384.09	1732.58
384.30	1751.01
384.51	1716.20
384.72	1673.19
384.93	1662.95
385.14	1757.16
385.35	1771.49
385.55	1669.09
385.76	1804.26
385.97	1691.62
386.18	1673.19
386.39	1667.05
386.60	1658.85
386.81	1644.52
387.02	1712.10
387.22	1662.95
387.43	1841.12
387.64	1804.26
387.85	1933.28
388.06	2197.47
388.27	4288.45
388.48	6868.89
388.68	8271.75
388.89	9844.59
389.10	9949.03
389.31	8691.58
389.52	7622.54
389.73	6606.75
389.93	6303.65
390.14	5797.80
390.35	5191.60
390.56	4474.81
390.77	3817.41
390.98	3074.00
391.18	2418.65
391.39	2121.70
391.60	1816.55
391.81	1853.41
392.02	1734.63
392.23	1845.22
392.43	1703.91
392.64	1679.33
392.85	1726.44
393.06	1763.30
393.27	1669.09
393.47	1626.09
393.68	1703.91
393.89	1693.67
394.10	1746.92
394.31	1691.62
394.52	1636.33
394.72	1695.72
394.93	1787.88
395.14	1642.47
395.35	1775.59
395.56	1638.38
395.76	1705.96
395.97	1765.35
396.18	1820.64
396.39	1810.40
396.60	2054.11
396.80	1880.04
397.01	1812.45
397.22	1847.27
397.43	1880.04
397.64	1726.44
397.84	1857.51
398.05	1822.69
398.26	1714.15
398.47	1810.40
398.67	1732.58
398.88	1720.29
399.09	1763.30
399.30	1712.10
399.51	1814.50
399.71	1695.72
399.92	1742.82
400.13	1705.96
400.34	1705.96
400.54	1763.30
400.75	1751.01
400.96	1726.44
401.17	1761.25
401.37	1703.91
401.58	1746.92
401.79	1714.15
402.00	1804.26
402.21	2043.87
402.41	2045.92
402.62	1968.10
402.83	2037.73
403.04	1953.76
403.24	2111.46
403.45	1847.27
403.66	1914.85
403.87	1857.51
404.07	1900.52
404.28	1847.27
404.49	1892.32
404.70	1796.07
404.90	1779.68
405.11	1755.11
405.32	1718.25
405.52	1658.85
405.73	1605.61
405.94	1654.76
406.15	1671.14
406.35	1652.71
406.56	1751.01
406.77	1789.92
406.98	1693.67
407.18	1626.09
407.39	1810.40
407.60	1654.76
407.80	1822.69
408.01	1640.42
408.22	1705.96
408.43	1734.63
408.63	1757.16
408.84	1794.02
409.05	1722.34
409.25	1648.61
409.46	1632.23
409.67	1695.72
409.88	1693.67
410.08	1751.01
410.29	1705.96
410.50	1791.97
410.70	1714.15
410.91	1701.86
411.12	1814.50
411.32	1724.39
411.53	1732.58
411.74	1834.98
411.95	1828.84
412.15	1742.82
412.36	1781.73
412.57	1767.40
412.77	1820.64
412.98	1708.01
413.19	1685.48
413.39	1742.82
413.60	1675.24
413.81	1759.21
414.01	1656.81
414.22	1837.03
414.43	1796.07
414.63	1751.01
414.84	1802.21
415.05	1724.39
415.25	1675.24
415.46	1783.78
415.67	1662.95
415.87	1728.49
416.08	1712.10
416.29	1691.62
416.49	1710.05
416.70	1638.38
416.91	1675.24
417.11	1656.81
417.32	1724.39
417.53	1751.01
417.73	1685.48
417.94	1638.38
418.15	1787.88
418.35	1724.39
418.56	1757.16
418.77	1824.74
418.97	1726.44
419.18	1708.01
419.38	1568.74
419.59	1689.57
419.80	1753.06
420.00	1726.44
420.21	1736.68
420.42	1787.88
420.62	1699.81
420.83	1705.96
421.04	1703.91
421.24	1722.34
421.45	1744.87
421.65	1738.73
421.86	1656.81
422.07	1705.96
422.27	1783.78
422.48	1755.11
422.69	1673.19
422.89	1712.10
423.10	1656.81
423.30	1673.19
423.51	1722.34
423.72	1673.19
423.92	1671.14
424.13	1646.57
424.33	1673.19
424.54	1746.92
424.75	1671.14
424.95	1744.87
425.16	1802.21
425.36	1720.29
425.57	1718.25
425.78	1681.38
425.98	1771.49
426.19	1683.43
426.39	1665.00
426.60	1722.34
426.81	1804.26
427.01	1685.48
427.22	1654.76
427.42	1681.38
427.63	1689.57
427.83	1748.97
428.04	1865.70
428.25	1683.43
428.45	1765.35
428.66	1794.02
428.86	1755.11
429.07	1761.25
429.28	1714.15
429.48	1677.29
429.69	1656.81
429.89	1656.81
430.10	1656.81
430.30	1746.92
430.51	1767.40
430.71	1710.05
430.92	1673.19
431.13	1695.72
431.33	1726.44
431.54	1753.06
431.74	1794.02
431.95	1759.21
432.15	1669.09
432.36	1673.19
432.56	1738.73
432.77	1843.17
432.98	1798.12
433.18	1681.38
433.39	1763.30
433.59	1677.29
433.80	1804.26
434.00	1880.04
434.21	1621.99
434.41	1695.72
434.62	1869.80
434.82	1671.14
435.03	1716.20
435.23	1746.92
435.44	1605.61
435.64	1734.63
435.85	1708.01
436.06	1701.86
436.26	1763.30
436.47	1617.90
436.67	1607.66
436.88	1681.38
437.08	1785.83
437.29	1705.96
437.49	1673.19
437.70	1761.25
437.90	1675.24
438.11	1824.74
438.31	1798.12
438.52	1800.16
438.72	1884.13
438.93	1904.61
439.13	1863.65
439.34	1837.03
439.54	1802.21
439.75	1767.40
439.95	1875.94
440.16	1775.59
440.36	1722.34
440.57	1732.58
440.77	1769.44
440.98	1736.68
441.18	1728.49
441.39	1701.86
441.59	1656.81
441.80	1841.12
442.00	1714.15
442.21	1832.93
442.41	1619.94
442.62	1736.68
442.82	1697.77
443.02	1726.44
443.23	1708.01
443.43	1751.01
443.64	1718.25
443.84	1634.28
444.05	1849.32
444.25	1775.59
444.46	1697.77
444.66	1679.33
444.87	1751.01
445.07	1648.61
445.28	1773.54
445.48	1738.73
445.69	1705.96
445.89	1875.94
446.09	1785.83
446.30	1986.53
446.50	2668.50
446.71	3704.78
446.91	4372.41
447.12	4687.80
447.32	4892.60
447.53	4310.97
447.73	3874.76
447.93	3520.46
448.14	3356.62
448.34	3184.59
448.55	2955.22
448.75	2856.92
448.96	2672.60
449.16	2371.55
449.36	2232.29
449.57	2076.64
449.77	1877.99
449.98	1728.49
450.18	1773.54
450.39	1808.36
450.59	1744.87
450.79	1734.63
451.00	1687.53
451.20	1748.97
451.41	1689.57
451.61	1722.34
451.81	1662.95
452.02	1650.66
452.22	1708.01
452.43	1773.54
452.63	1742.82
452.84	1689.57
453.04	1783.78
453.24	1730.53
453.45	1642.47
453.65	1693.67
453.86	1695.72
454.06	1794.02
454.26	1726.44
454.47	1740.77
454.67	1839.08
454.87	1767.40
455.08	1748.97
455.28	1785.83
455.49	1732.58
455.69	1720.29
455.89	1794.02
456.10	1830.88
456.30	1763.30
456.51	1818.60
456.71	1781.73
456.91	1800.16
457.12	1759.21
457.32	1761.25
457.52	1695.72
457.73	1759.21
457.93	1730.53
458.14	1646.57
458.34	1644.52
458.54	1660.90
458.75	1773.54
458.95	1804.26
459.15	1740.77
459.36	1757.16
459.56	1789.92
459.76	1814.50
459.97	1755.11
460.17	1722.34
460.37	1865.70
460.58	1785.83
460.78	1828.84
460.99	1697.77
461.19	1714.15
461.39	1757.16
461.60	1775.59
461.80	1728.49
462.00	1736.68
462.21	1732.58
462.41	1787.88
462.61	1726.44
462.82	1644.52
463.02	1687.53
463.22	1710.05
463.43	1816.55
463.63	1767.40
463.83	1761.25
464.04	1804.26
464.24	1732.58
464.44	1673.19
464.64	1710.05
464.85	1781.73
465.05	1779.68
465.25	1675.24
465.46	1732.58
465.66	1755.11
465.86	1767.40
466.07	1703.91
466.27	1699.81
466.47	1722.34
466.68	1662.95
466.88	1845.22
467.08	1826.79
467.29	1767.40
467.49	1708.01
467.69	1705.96
467.89	1818.60
468.10	1697.77
468.30	1804.26
468.50	1806.31
468.71	1701.86
468.91	1619.94
469.11	1837.03
469.31	1802.21
469.52	1701.86
469.72	1753.06
469.92	1806.31
470.13	1665.00
470.33	1701.86
470.53	1816.55
470.73	2140.13
470.94	2236.38
471.14	2254.81
471.34	2435.03
471.54	2402.27
471.75	2234.33
471.95	2168.80
472.15	2025.44
472.36	2154.46
472.56	2076.64
472.76	2080.74
472.96	1918.95
473.17	1931.23
473.37	1939.43
473.57	1810.40
473.77	1877.99
473.98	1742.82
474.18	1718.25
474.38	1843.17
474.58	1691.62
474.79	1726.44
474.99	1742.82
475.19	1728.49
475.39	1640.42
475.60	1693.67
475.80	1703.91
476.00	1744.87
476.20	1697.77
476.41	1748.97
476.61	1832.93
476.81	1781.73
477.01	1652.71
477.21	1845.22
477.42	1765.35
477.62	1667.05
477.82	1759.21
478.02	1658.85
478.23	1800.16
478.43	1658.85
478.63	1783.78
478.83	1718.25
479.03	1638.38
479.24	1816.55
479.44	1820.64
479.64	1687.53
479.84	1611.75
480.04	1710.05
480.25	1748.97
480.45	1718.25
480.65	1734.63
480.85	1765.35
481.06	1697.77
481.26	1732.58
481.46	1767.40
481.66	1791.97
481.86	1697.77
482.06	1689.57
482.27	1652.71
482.47	1646.57
482.67	1697.77
482.87	1714.15
483.07	1798.12
483.28	1691.62
483.48	1751.01
483.68	1705.96
483.88	1585.13
484.08	1640.42
484.29	1640.42
484.49	1687.53
484.69	1720.29
484.89	1818.60
485.09	1742.82
485.29	1718.25
485.50	1841.12
485.70	1667.05
485.90	1765.35
486.10	1710.05
486.30	1693.67
486.50	1843.17
486.71	1665.00
486.91	1791.97
487.11	1732.58
487.31	1654.76
487.51	1744.87
487.71	1662.95
487.91	1708.01
488.12	1646.57
488.32	1652.71
488.52	1671.14
488.72	1574.89
488.92	1722.34
489.12	1740.77
489.32	1693.67
489.53	1787.88
489.73	1642.47
489.93	1814.50
490.13	1742.82
490.33	1662.95
490.53	1689.57
490.73	1857.51
490.94	1574.89
491.14	1781.73
491.34	1894.37
491.54	2074.59
491.74	2605.02
491.94	2920.40
492.14	3039.19
492.34	2901.97
492.54	2766.81
492.75	2498.52
492.95	2387.93
493.15	2220.00
493.35	2265.05
493.55	2160.61
493.75	2062.30
493.95	2121.70
494.15	1984.48
494.35	1894.37
494.56	1877.99
494.76	1757.16
494.96	1787.88
495.16	1802.21
495.36	1705.96
495.56	1794.02
495.76	1771.49
495.96	1714.15
496.16	1615.85
496.36	1789.92
496.56	1636.33
496.77	1771.49
496.97	1673.19
497.17	1841.12
497.37	1726.44
497.57	1759.21
497.77	1714.15
497.97	1667.05
498.17	1744.87
498.37	1701.86
498.57	1775.59
498.77	1658.85
498.97	1759.21
499.17	1853.41
499.38	1775.59
499.58	1726.44
499.78	1732.58
499.98	1783.78
500.18	1705.96
500.38	1699.81
500.58	1931.23
500.78	2639.83
500.98	4583.35
501.18	5734.31
501.38	6893.46
501.58	7243.67
501.78	6600.60
501.98	5449.64
502.18	5021.62
502.38	4396.99
502.58	4149.18
502.78	3803.08
502.98	3651.53
503.18	3379.15
503.38	3217.36
503.59	2869.20
503.79	2697.17
503.99	2541.53
504.19	2310.11
504.39	2234.33
504.59	2156.51
504.79	2150.37
504.99	2084.83
505.19	1968.10
505.39	1939.43
505.59	1898.47
505.79	1912.80
505.99	1906.66
506.19	1798.12
506.39	1857.51
506.59	1671.14
506.79	1755.11
506.99	1791.97
507.19	1773.54
507.39	1710.05
507.59	1636.33
507.79	1769.44
507.99	1724.39
508.19	1761.25
508.39	1695.72
508.59	1722.34
508.79	1796.07
508.99	1839.08
509.19	1701.86
509.39	1726.44
509.59	1644.52
509.79	1765.35
509.99	1789.92
510.19	1832.93
510.39	1816.55
510.59	1746.92
510.79	1710.05
510.99	1679.33
511.19	1722.34
511.39	1837.03
511.59	1791.97
511.79	1843.17
511.99	1742.82
512.19	1806.31
512.38	1708.01
512.58	1796.07
512.78	1705.96
512.98	1699.81
513.18	1791.97
513.38	1597.42
513.58	1800.16
513.78	1718.25
513.98	1619.94
514.18	1775.59
514.38	1757.16
514.58	1755.11
514.78	1652.71
514.98	1673.19
515.18	1742.82
515.38	1581.03
515.58	1855.46
515.78	1613.80
515.98	1665.00
516.18	1791.97
516.38	1773.54
516.57	1665.00
516.77	1744.87
516.97	1767.40
517.17	1705.96
517.37	1634.28
517.57	1777.64
517.77	1722.34
517.97	1646.57
518.17	1763.30
518.37	1705.96
518.57	1771.49
518.77	1716.20
518.97	1656.81
519.16	1724.39
519.36	1714.15
519.56	1662.95
519.76	1697.77
519.96	1681.38
520.16	1816.55
520.36	1748.97
520.56	1843.17
520.76	1695.72
520.96	1753.06
521.16	1681.38
521.35	1804.26
521.55	1839.08
521.75	1693.67
521.95	1763.30
522.15	1671.14
522.35	1648.61
522.55	1652.71
522.75	1769.44
522.95	1701.86
523.14	1703.91
523.34	1685.48
523.54	1693.67
523.74	1746.92
523.94	1755.11
524.14	1714.15
524.34	1777.64
524.54	1736.68
524.73	1675.24
524.93	1847.27
525.13	1697.77
525.33	1665.00
525.53	1859.56
525.73	1746.92
525.93	1787.88
526.13	1636.33
526.32	1705.96
526.52	1748.97
526.72	1818.60
526.92	1677.29
527.12	1738.73
527.32	1628.14
527.52	1675.24
527.71	1751.01
527.91	1763.30
528.11	1701.86
528.31	1603.56
528.51	1703.91
528.71	1816.55
528.90	1751.01
529.10	1824.74
529.30	1818.60
529.50	1636.33
529.70	1689.57
529.90	1738.73
530.09	1740.77
530.29	1685.48
530.49	1671.14
530.69	1886.18
530.89	1714.15
531.09	1783.78
531.28	1642.47
531.48	1773.54
531.68	1644.52
531.88	1748.97
532.08	1769.44
532.28	1648.61
532.47	1738.73
532.67	1802.21
532.87	1742.82
533.07	1701.86
533.27	1824.74
533.46	1773.54
533.66	1767.40
533.86	1759.21
534.06	1730.53
534.26	1718.25
534.45	1656.81
534.65	1834.98
534.85	1775.59
535.05	1730.53
535.25	1832.93
535.44	1609.70
535.64	1751.01
535.84	1624.04
536.04	1730.53
536.24	1787.88
536.43	1648.61
536.63	1658.85
536.83	1689.57
537.03	1755.11
537.22	1650.66
537.42	1677.29
537.62	1765.35
537.82	1728.49
538.02	1843.17
538.21	1871.84
538.41	1787.88
538.61	1742.82
538.81	1708.01
539.00	1769.44
539.20	1642.47
539.40	1738.73
539.60	1759.21
539.79	1779.68
539.99	1785.83
540.19	1662.95
540.39	1837.03
540.58	1716.20
540.78	1769.44
540.98	1740.77
541.18	1697.77
541.37	1767.40
541.57	1748.97
541.77	1843.17
541.97	1742.82
542.16	1640.42
542.36	1757.16
542.56	1673.19
542.76	1806.31
542.95	1777.64
543.15	1794.02
543.35	1830.88
543.54	1669.09
543.74	1759.21
543.94	1787.88
544.14	1683.43
544.33	1828.84
544.53	1658.85
544.73	1777.64
544.93	1691.62
545.12	1728.49
545.32	1695.72
545.52	1740.77
545.71	1699.81
545.91	1724.39
546.11	1708.01
546.30	1648.61
546.50	1763.30
546.70	1734.63
546.90	1734.63
547.09	1644.52
547.29	1748.97
547.49	1714.15
547.68	1755.11
547.88	1681.38
548.08	1728.49
548.27	2172.89
548.47	1640.42
548.67	1636.33
548.87	1724.39
549.06	1669.09
549.26	1677.29
549.46	1714.15
549.65	1746.92
549.85	1816.55
550.05	1708.01
550.24	1705.96
550.44	1763.30
550.64	1652.71
550.83	1806.31
551.03	1814.50
551.23	1822.69
551.42	1863.65
551.62	1720.29
551.82	1755.11
552.01	1751.01
552.21	1746.92
552.41	1697.77
552.60	1783.78
552.80	1765.35
553.00	1732.58
553.19	1738.73
553.39	1884.13
553.59	1722.34
553.78	1746.92
553.98	1755.11
554.17	1710.05
554.37	1730.53
554.57	1722.34
554.76	1624.04
554.96	1638.38
555.16	1783.78
555.35	1871.84
555.55	1691.62
555.75	1710.05
555.94	1757.16
556.14	1697.77
556.33	1693.67
556.53	1697.77
556.73	1695.72
556.92	1738.73
557.12	1845.22
557.32	1877.99
557.51	1771.49
557.71	1746.92
557.90	1816.55
558.10	1867.75
558.30	1669.09
558.49	1728.49
558.69	1683.43
558.88	1787.88
559.08	1724.39
559.28	1828.84
559.47	1665.00
559.67	1730.53
559.86	1794.02
560.06	1736.68
560.26	1730.53
560.45	1810.40
560.65	1712.10
560.84	1853.41
561.04	1695.72
561.24	1834.98
561.43	1695.72
561.63	1791.97
561.82	1832.93
562.02	1734.63
562.22	1724.39
562.41	1671.14
562.61	1693.67
562.80	1683.43
563.00	1804.26
563.19	1738.73
563.39	1785.83
563.59	1730.53
563.78	1701.86
563.98	1681.38
564.17	1675.24
564.37	1576.94
564.56	1794.02
564.76	1687.53
564.96	1767.40
565.15	1771.49
565.35	1888.23
565.54	1777.64
565.74	1802.21
565.93	1800.16
566.13	1730.53
566.32	1761.25
566.52	1687.53
566.71	1796.07
566.91	1798.12
567.11	1728.49
567.30	1708.01
567.50	1781.73
567.69	1763.30
567.89	1675.24
568.08	1667.05
568.28	1730.53
568.47	1656.81
568.67	1783.78
568.86	1691.62
569.06	1767.40
569.25	1753.06
569.45	1697.77
569.64	1683.43
569.84	1718.25
570.04	1710.05
570.23	1718.25
570.43	1658.85
570.62	1732.58
570.82	1757.16
571.01	1685.48
571.21	1765.35
571.40	1679.33
571.60	1820.64
571.79	1742.82
571.99	1796.07
572.18	1740.77
572.38	1746.92
572.57	1652.71
572.77	1669.09
572.96	1898.47
573.16	1773.54
573.35	1748.97
573.55	1839.08
573.74	1761.25
573.94	1705.96
574.13	1693.67
574.33	1736.68
574.52	1759.21
574.71	1785.83
574.91	1785.83
575.10	1681.38
575.30	1701.86
575.49	1722.34
575.69	1728.49
575.88	1783.78
576.08	1761.25
576.27	1794.02
576.47	1753.06
576.66	1820.64
576.86	1810.40
577.05	1787.88
577.25	1787.88
577.44	1818.60
577.64	1705.96
577.83	1722.34
578.02	1693.67
578.22	1769.44
578.41	1865.70
578.61	1699.81
578.80	1673.19
579.00	1718.25
579.19	1718.25
579.39	1777.64
579.58	1873.89
579.77	1759.21
579.97	1769.44
580.16	1843.17
580.36	1812.45
580.55	1771.49
580.75	1808.36
580.94	1755.11
581.13	1851.36
581.33	1882.08
581.52	1751.01
581.72	1894.37
581.91	1900.52
582.11	1693.67
582.30	1832.93
582.49	1675.24
582.69	1851.36
582.88	1773.54
583.08	1699.81
583.27	1777.64
583.47	1796.07
583.66	1646.57
583.85	1671.14
584.05	1708.01
584.24	1763.30
584.44	1804.26
584.63	1837.03
584.82	1802.21
585.02	1853.41
585.21	1830.88
585.41	1822.69
585.60	1796.07
585.79	1929.19
585.99	1853.41
586.18	1880.04
586.37	2213.85
586.57	3350.48
586.76	9940.84
586.96	24618.63
587.15	34944.49
587.34	40496.53
587.54	42827.12
587.73	37246.41
587.93	26652.27
588.12	21579.45
588.31	18353.90
588.51	16504.58
588.70	15576.85
588.89	14346.02
589.09	12744.51
589.28	11009.88
589.47	9613.17
589.67	7976.84
589.86	6469.53
590.06	4929.46
590.25	3891.14
590.44	3237.84
590.64	2596.82
590.83	2260.96
591.02	2027.49
591.22	1906.66
591.41	1912.80
591.60	1867.75
591.80	1949.67
591.99	1703.91
592.18	1787.88
592.38	1777.64
592.57	1740.77
592.76	1738.73
592.96	1767.40
593.15	1722.34
593.34	1861.60
593.54	1738.73
593.73	1732.58
593.92	1710.05
594.12	1789.92
594.31	1812.45
594.50	1755.11
594.70	1724.39
594.89	1929.19
595.08	1685.48
595.28	1757.16
595.47	1943.52
595.66	1746.92
595.86	1638.38
596.05	1732.58
596.24	1679.33
596.43	1834.98
596.63	1787.88
596.82	1796.07
597.01	1722.34
597.21	1869.80
597.40	1767.40
597.59	1712.10
597.79	1726.44
597.98	1808.36
598.17	1730.53
598.36	1738.73
598.56	1796.07
598.75	1728.49
598.94	1767.40
599.14	1648.61
599.33	1701.86
599.52	1796.07
599.71	1775.59
599.91	1746.92
600.10	1806.31
600.29	1738.73
600.48	1765.35
600.68	1808.36
600.87	1746.92
601.06	1742.82
601.26	1740.77
601.45	1755.11
601.64	1697.77
601.83	1763.30
602.03	1712.10
602.22	1685.48
602.41	1816.55
602.60	1816.55
602.80	1755.11
602.99	1763.30
603.18	1714.15
603.37	1736.68
603.57	1746.92
603.76	1751.01
603.95	1783.78
604.14	1726.44
604.34	1728.49
604.53	1746.92
604.72	1755.11
604.91	1804.26
605.10	1771.49
605.30	1648.61
605.49	1787.88
605.68	1771.49
605.87	1796.07
606.07	1669.09
606.26	1755.11
606.45	1685.48
606.64	1708.01
606.84	1742.82
607.03	1728.49
607.22	1773.54
607.41	1617.90
607.60	1710.05
607.80	1832.93
607.99	1740.77
608.18	1732.58
608.37	1708.01
608.56	1699.81
608.76	1822.69
608.95	1785.83
609.14	1783.78
609.33	1718.25
609.52	1738.73
609.72	1665.00
609.91	1777.64
610.10	1708.01
610.29	1822.69
610.48	1783.78
610.68	1751.01
610.87	1779.68
611.06	1777.64
611.25	1773.54
611.44	1779.68
611.63	1734.63
611.83	1849.32
612.02	1718.25
612.21	1781.73
612.40	1658.85
612.59	1701.86
612.79	1683.43
612.98	1742.82
613.17	1849.32
613.36	1685.48
613.55	1761.25
613.74	1662.95
613.93	1712.10
614.13	1681.38
614.32	1734.63
614.51	1722.34
614.70	1718.25
614.89	1773.54
615.08	1720.29
615.28	1978.34
615.47	1611.75
615.66	1673.19
615.85	1718.25
616.04	1904.61
616.23	1748.97
616.42	1718.25
616.62	1648.61
616.81	1712.10
617.00	1673.19
617.19	1751.01
617.38	1652.71
617.57	1656.81
617.76	1759.21
617.95	1787.88
618.15	1818.60
618.34	1830.88
618.53	1687.53
618.72	1738.73
618.91	1837.03
619.10	1791.97
619.29	1695.72
619.48	1710.05
619.68	1677.29
619.87	1767.40
620.06	1687.53
620.25	1763.30
620.44	1683.43
620.63	1748.97
620.82	1716.20
621.01	1720.29
621.20	1705.96
621.39	1736.68
621.59	1728.49
621.78	1746.92
621.97	1734.63
622.16	1753.06
622.35	1716.20
622.54	1759.21
622.73	1759.21
622.92	1722.34
623.11	1755.11
623.30	1617.90
623.49	1834.98
623.68	1759.21
623.88	1791.97
624.07	1660.90
624.26	1800.16
624.45	1748.97
624.64	1759.21
624.83	1726.44
625.02	1757.16
625.21	1742.82
625.40	1757.16
625.59	1781.73
625.78	1714.15
625.97	1761.25
626.16	1785.83
626.35	1724.39
626.54	1689.57
626.74	1757.16
626.93	1708.01
627.12	1669.09
627.31	1796.07
627.50	1789.92
627.69	1765.35
627.88	1738.73
628.07	1634.28
628.26	1624.04
628.45	1697.77
628.64	1628.14
628.83	1658.85
629.02	1648.61
629.21	1730.53
629.40	1791.97
629.59	1527.78
629.78	1685.48
629.97	1771.49
630.16	1779.68
630.35	1753.06
630.54	1718.25
630.73	1654.76
630.92	1708.01
631.11	1673.19
631.30	1675.24
631.49	1724.39
631.68	1759.21
631.87	1746.92
632.06	1699.81
632.25	1802.21
632.44	1626.09
632.63	1771.49
632.82	1662.95
633.01	1605.61
633.20	1718.25
633.39	1648.61
633.58	1585.13
633.77	1712.10
633.96	1785.83
634.15	1796.07
634.34	1705.96
634.53	1644.52
634.72	1683.43
634.91	1656.81
635.10	1708.01
635.29	1753.06
635.48	1716.20
635.67	1583.08
635.86	1669.09
636.05	1748.97
636.24	1687.53
636.43	1683.43
636.62	1779.68
636.81	1611.75
637.00	1728.49
637.19	1771.49
637.38	1726.44
637.57	1619.94
637.76	1712.10
637.95	1722.34
638.14	1683.43
638.33	1677.29
638.52	1800.16
638.71	1624.04
638.89	1658.85
639.08	1939.43
639.27	1746.92
639.46	1652.71
639.65	1753.06
639.84	1742.82
640.03	1837.03
640.22	1722.34
640.41	1816.55
640.60	1621.99
640.79	1687.53
640.98	1646.57
641.17	1796.07
641.36	1771.49
641.55	1814.50
641.74	1638.38
641.92	1693.67
642.11	1581.03
642.30	1724.39
642.49	1652.71
642.68	1667.05
642.87	1714.15
643.06	1744.87
643.25	1724.39
643.44	1662.95
643.63	1710.05
643.82	1753.06
644.00	1652.71
644.19	1787.88
644.38	1710.05
644.57	1757.16
644.76	1771.49
644.95	1734.63
645.14	1699.81
645.33	1681.38
645.52	1740.77
645.71	1597.42
645.89	1630.18
646.08	1712.10
646.27	1724.39
646.46	1843.17
646.65	1578.98
646.84	1765.35
647.03	1693.67
647.22	1814.50
647.40	1714.15
647.59	1734.63
647.78	1658.85
647.97	1634.28
648.16	1581.03
648.35	1839.08
648.54	1791.97
648.73	1726.44
648.91	1755.11
649.10	1685.48
649.29	1677.29
649.48	1722.34
649.67	1759.21
649.86	1751.01
650.05	1677.29
650.23	1677.29
650.42	1660.90
650.61	1740.77
650.80	1791.97
650.99	1855.46
651.18	1701.86
651.36	1740.77
651.55	1742.82
651.74	1794.02
651.93	1648.61
652.12	1685.48
652.31	1673.19
652.49	1662.95
652.68	1718.25
652.87	1847.27
653.06	1738.73
653.25	1767.40
653.44	1693.67
653.62	1837.03
653.81	1736.68
654.00	1708.01
654.19	1798.12
654.38	1912.80
654.56	1718.25
654.75	1673.19
654.94	1718.25
655.13	1769.44
655.32	1665.00
655.51	1753.06
655.69	1628.14
655.88	1779.68
656.07	1621.99
656.26	1699.81
656.45	1662.95
656.63	1662.95
656.82	1699.81
657.01	1761.25
657.20	1652.71
657.38	1722.34
657.57	1691.62
657.76	1665.00
657.95	1744.87
658.14	1714.15
658.32	1683.43
658.51	1658.85
658.70	1720.29
658.89	1675.24
659.08	1701.86
659.26	1796.07
659.45	1697.77
659.64	1708.01
659.83	1699.81
660.01	1951.71
660.20	1734.63
660.39	1841.12
660.58	1638.38
660.76	1777.64
660.95	1652.71
661.14	1720.29
661.33	1646.57
661.51	1681.38
661.70	1691.62
661.89	1718.25
662.08	1677.29
662.26	1660.90
662.45	1658.85
662.64	1789.92
662.83	1761.25
663.01	1658.85
663.20	1726.44
663.39	1908.71
663.58	1667.05
663.76	1685.48
663.95	1710.05
664.14	1654.76
664.32	1654.76
664.51	1673.19
664.70	1665.00
664.89	1708.01
665.07	1648.61
665.26	1767.40
665.45	1681.38
665.64	1787.88
665.82	1718.25
666.01	1810.40
666.20	1714.15
666.38	1771.49
666.57	1820.64
666.76	2148.32
666.95	4454.33
667.13	10352.48
667.32	15501.08
667.51	17913.58
667.69	19244.76
667.88	17784.56
668.07	12689.21
668.25	9443.18
668.44	8210.31
668.63	7466.89
668.81	6981.53
669.00	6367.13
669.19	5775.27
669.38	5134.26
669.56	4462.52
669.75	3973.06
669.94	3440.59
670.12	2936.79
670.31	2654.17
670.50	2336.73
670.68	2072.54
670.87	1974.24
671.06	1775.59
671.24	1808.36
671.43	1832.93
671.62	1742.82
671.80	1677.29
671.99	1798.12
672.18	1734.63
672.36	1742.82
672.55	1681.38
672.74	1771.49
672.92	1730.53
673.11	1697.77
673.29	1632.23
673.48	1730.53
673.67	1658.85
673.85	1808.36
674.04	1712.10
674.23	1660.90
674.41	1869.80
674.60	1685.48
674.79	1583.08
674.97	1662.95
675.16	1740.77
675.34	1753.06
675.53	1636.33
675.72	1738.73
675.90	1787.88
676.09	1693.67
676.28	1740.77
676.46	1570.79
676.65	1796.07
676.83	1712.10
677.02	1675.24
677.21	1732.58
677.39	1697.77
677.58	1748.97
677.77	1656.81
677.95	1687.53
678.14	1648.61
678.32	1677.29
678.51	1671.14
678.70	1869.80
678.88	1677.29
679.07	1728.49
679.25	1751.01
679.44	1677.29
679.63	1673.19
679.81	1716.20
680.00	1794.02
680.18	1665.00
680.37	1777.64
680.55	1644.52
680.74	1695.72
680.93	1599.46
681.11	1689.57
681.30	1681.38
681.48	1789.92
681.67	1718.25
681.85	1658.85
682.04	1691.62
682.23	1822.69
682.41	1656.81
682.60	1638.38
682.78	1738.73
682.97	1611.75
683.15	1759.21
683.34	1734.63
683.53	1796.07
683.71	1693.67
683.90	1837.03
684.08	1800.16
684.27	1708.01
684.45	1787.88
684.64	1783.78
684.82	1718.25
685.01	1726.44
685.19	1757.16
685.38	1794.02
685.57	1662.95
685.75	1675.24
685.94	1685.48
686.12	1648.61
686.31	1646.57
686.49	1783.78
686.68	1638.38
686.86	1671.14
687.05	1673.19
687.23	1849.32
687.42	1652.71
687.60	1671.14
687.79	1730.53
687.97	1808.36
688.16	1775.59
688.34	1748.97
688.53	1708.01
688.71	1646.57
688.90	1757.16
689.08	1740.77
689.27	1638.38
689.45	1689.57
689.64	1726.44
689.82	1665.00
690.01	1722.34
690.19	1767.40
690.38	1695.72
690.56	1802.21
690.75	1621.99
690.93	1796.07
691.12	1677.29
691.30	1697.77
691.49	1642.47
691.67	1667.05
691.86	1806.31
692.04	1650.66
692.23	1673.19
692.41	1675.24
692.60	1767.40
692.78	1757.16
692.97	1693.67
693.15	1656.81
693.34	1830.88
693.52	1738.73
693.71	1718.25
693.89	1701.86
694.08	1689.57
694.26	1734.63
694.44	1738.73
694.63	1761.25
694.81	1642.47
695.00	1644.52
695.18	1724.39
695.37	1929.19
695.55	1654.76
695.74	1695.72
695.92	1640.42
696.10	1798.12
696.29	1705.96
696.47	1660.90
696.66	1568.74
696.84	1587.18
697.03	1769.44
697.21	1771.49
697.40	2295.77
697.58	1800.16
697.76	1619.94
697.95	1701.86
698.13	1644.52
698.32	1650.66
698.50	1736.68
698.68	1740.77
698.87	1742.82
699.05	1787.88
699.24	1755.11
699.42	1665.00
699.61	1695.72
699.79	1722.34
699.97	1658.85
700.16	1626.09
700.34	1671.14
700.53	1742.82
700.71	1839.08
700.89	1853.41
701.08	1738.73
701.26	1748.97
701.45	2113.50
701.63	1662.95
701.81	1695.72
702.00	1730.53
702.18	1697.77
702.37	1701.86
702.55	1753.06
702.73	1642.47
702.92	1609.70
703.10	1751.01
703.28	1701.86
703.47	1656.81
703.65	1722.34
703.84	1724.39
704.02	1662.95
704.20	1812.45
704.39	1712.10
704.57	1662.95
704.75	1734.63
704.94	1834.98
705.12	1714.15
705.30	1820.64
705.49	2273.25
705.67	4376.51
705.86	9391.98
706.04	12793.66
706.22	14796.57
706.41	15525.65
706.59	13807.41
706.77	9699.18
706.96	7470.99
707.14	6573.98
707.32	5969.83
707.51	5556.14
707.69	4941.75
707.87	4261.82
708.06	3639.24
708.24	2922.45
708.42	2494.43
708.61	2199.52
708.79	1920.99
708.97	1814.50
709.16	1746.92
709.34	1773.54
709.52	1767.40
709.71	1667.05
709.89	1771.49
710.07	1697.77
710.26	1626.09
710.44	1777.64
710.62	1779.68
710.80	1742.82
710.99	1771.49
711.17	1736.68
711.35	1720.29
711.54	1718.25
711.72	1712.10
711.90	1753.06
712.09	1726.44
712.27	1705.96
712.45	1800.16
712.63	1703.91
712.82	1765.35
713.00	1726.44
713.18	1773.54
713.37	1820.64
713.55	1716.20
713.73	1751.01
713.91	1695.72
714.10	1656.81
714.28	1679.33
714.46	1701.86
714.65	1722.34
714.83	1738.73
715.01	1710.05
715.19	1578.98
715.38	1710.05
715.56	1703.91
715.74	1712.10
715.92	1660.90
716.11	1751.01
716.29	1572.84
716.47	1632.23
716.65	1710.05
716.84	1710.05
717.02	1783.78
717.20	1603.56
717.38	1658.85
717.57	1644.52
717.75	1677.29
717.93	1673.19
718.11	1714.15
718.30	1605.61
718.48	1662.95
718.66	1744.87
718.84	1728.49
719.03	1667.05
719.21	1630.18
719.39	1779.68
719.57	1822.69
719.75	1748.97
719.94	1689.57
720.12	1667.05
720.30	1677.29
720.48	1734.63
720.67	1658.85
720.85	1673.19
721.03	1683.43
721.21	1695.72
721.39	1763.30
721.58	1695.72
721.76	1669.09
721.94	1701.86
722.12	1667.05
722.30	1820.64
722.49	1673.19
722.67	1775.59
722.85	1687.53
723.03	1617.90
723.21	1652.71
723.40	1718.25
723.58	1724.39
723.76	1791.97
723.94	1828.84
724.12	1681.38
724.30	1806.31
724.49	1740.77
724.67	1654.76
724.85	1755.11
725.03	1591.27
725.21	1708.01
725.40	1773.54
725.58	1687.53
725.76	1787.88
725.94	1714.15
726.12	1705.96
726.30	1689.57
726.49	1699.81
726.67	1718.25
726.85	1796.07
727.03	1781.73
727.21	2086.88
727.39	2977.75
727.57	3827.65
727.76	4190.14
727.94	4331.45
728.12	4388.80
728.30	3729.35
728.48	2957.27
728.66	2785.24
728.84	2576.34
729.03	2256.86
729.21	2131.94
729.39	2082.78
729.57	1888.23
729.75	1804.26
729.93	1869.80
730.11	1789.92
730.30	1687.53
730.48	1691.62
730.66	1806.31
730.84	1779.68
731.02	1714.15
731.20	1634.28
731.38	1720.29
731.56	1624.04
731.74	1628.14
731.93	1554.41
732.11	1699.81
732.29	1644.52
732.47	1703.91
732.65	1730.53
732.83	1779.68
733.01	1693.67
733.19	1681.38
733.37	1691.62
733.56	1720.29
733.74	1673.19
733.92	1777.64
734.10	1714.15
734.28	1671.14
734.46	1615.85
734.64	1578.98
734.82	1665.00
735.00	1732.58
735.18	1597.42
735.36	1701.86
735.54	1685.48
735.73	1669.09
735.91	1689.57
736.09	1712.10
736.27	1730.53
736.45	1740.77
736.63	1599.46
736.81	1578.98
736.99	1689.57
737.17	1781.73
737.35	1658.85
737.53	1675.24
737.71	1669.09
737.89	1785.83
738.07	1671.14
738.25	1671.14
738.43	1587.18
738.61	1689.57
738.80	1665.00
738.98	1693.67
739.16	1763.30
739.34	1638.38
739.52	1757.16
739.70	1738.73
739.88	1730.53
740.06	1777.64
740.24	1609.70
740.42	1748.97
740.60	1621.99
740.78	1712.10
740.96	1632.23
741.14	1689.57
741.32	1691.62
741.50	1564.65
741.68	1877.99
741.86	1718.25
742.04	1679.33
742.22	1611.75
742.40	1732.58
742.58	1675.24
742.76	1658.85
742.94	1781.73
743.12	1605.61
743.30	1701.86
743.48	1693.67
743.66	1665.00
743.84	1697.77
744.02	1695.72
744.20	1703.91
744.38	1642.47
744.56	1726.44
744.74	1816.55
744.92	1701.86
745.10	1837.03
745.28	1720.29
745.46	1841.12
745.64	1667.05
745.82	1824.74
746.00	1753.06
746.18	1710.05
746.36	1640.42
746.54	1722.34
746.72	1673.19
746.90	1673.19
747.08	1800.16
747.26	1724.39
747.44	1755.11
747.62	1703.91
747.80	1673.19
747.98	1699.81
748.15	1751.01
748.33	1804.26
748.51	1660.90
748.69	1683.43
748.87	1646.57
749.05	1736.68
749.23	1789.92
749.41	1732.58
749.59	1722.34
749.77	1742.82
749.95	1744.87
750.13	1669.09
750.31	1730.53
750.49	1767.40
750.67	1771.49
750.85	1843.17
751.03	1732.58
751.20	1763.30
751.38	1681.38
751.56	1669.09
751.74	1689.57
751.92	1697.77
752.10	1609.70
752.28	1818.60
752.46	1705.96
752.64	1714.15
752.82	1701.86
753.00	1781.73
753.18	1708.01
753.35	1697.77
753.53	1669.09
753.71	1642.47
753.89	1738.73
754.07	1742.82
754.25	1832.93
754.43	1728.49
754.61	1576.94
754.79	1742.82
754.97	1660.90
755.14	1751.01
755.32	1642.47
755.50	1718.25
755.68	1691.62
755.86	1652.71
756.04	1695.72
756.22	1650.66
756.40	1722.34
756.57	1781.73
756.75	1669.09
756.93	1730.53
757.11	1708.01
757.29	1644.52
757.47	1685.48
757.65	1621.99
757.82	1605.61
758.00	1617.90
758.18	1665.00
758.36	1650.66
758.54	1808.36
758.72	1624.04
758.90	1796.07
759.07	1798.12
759.25	1740.77
759.43	1736.68
759.61	1615.85
759.79	2199.52
759.97	1732.58
760.15	1693.67
760.32	1742.82
760.50	1755.11
760.68	1810.40
760.86	1595.37
761.04	1740.77
761.22	1736.68
761.39	1677.29
761.57	1648.61
761.75	1730.53
761.93	1746.92
762.11	1746.92
762.28	1710.05
762.46	1675.24
762.64	1746.92
762.82	1671.14
763.00	1705.96
763.18	1787.88
763.35	1574.89
763.53	1722.34
763.71	1740.77
763.89	1687.53
764.07	1630.18
764.24	1751.01
764.42	1722.34
764.60	1734.63
764.78	1687.53
764.96	1736.68
765.13	1804.26
765.31	1724.39
765.49	1746.92
765.67	1673.19
765.84	1640.42
766.02	1619.94
766.20	1650.66
766.38	1716.20
766.56	1746.92
766.73	1787.88
766.91	1738.73
767.09	1744.87
767.27	1675.24
767.44	1744.87
767.62	1703.91
767.80	1665.00
767.98	1665.00
768.15	1708.01
768.33	1775.59
768.51	1787.88
768.69	1736.68
768.87	1718.25
769.04	1722.34
769.22	1886.18
769.40	1769.44
769.58	1853.41
769.75	1796.07
769.93	1730.53
770.11	1673.19
770.28	1705.96
770.46	1712.10
770.64	1648.61
770.82	1720.29
770.99	1671.14
771.17	1744.87
771.35	1699.81
771.53	1701.86
771.70	1667.05
771.88	1787.88
772.06	1714.15
772.23	1744.87
772.41	1771.49
772.59	1638.38
772.77	1660.90
772.94	1712.10
773.12	1656.81
773.30	1611.75
773.47	1705.96
773.65	1603.56
773.83	1730.53
774.01	1716.20
774.18	1609.70
774.36	1634.28
774.54	1660.90
774.71	1755.11
774.89	1603.56
775.07	1591.27
775.24	1660.90
775.42	1595.37
775.60	1812.45
775.78	1665.00
775.95	1624.04
776.13	1632.23
776.31	1624.04
776.48	1642.47
776.66	1748.97
776.84	1691.62
777.01	1658.85
777.19	1587.18
777.37	1708.01
777.54	1748.97
777.72	1761.25
777.90	1689.57
778.07	1714.15
778.25	1841.12
778.43	1761.25
778.60	1681.38
778.78	1773.54
778.96	1710.05
779.13	1613.80
779.31	1794.02
779.49	1685.48
779.66	1710.05
779.84	1660.90
780.01	1681.38
780.19	1648.61
780.37	1734.63
780.54	1787.88
780.72	1677.29
780.90	1746.92
781.07	1730.53
781.25	1683.43
781.43	1841.12
781.60	1759.21
781.78	1824.74
781.95	1648.61
782.13	1583.08
782.31	1726.44
782.48	1568.74
782.66	1705.96
782.83	1802.21
783.01	1720.29
783.19	1740.77
783.36	1652.71
783.54	1650.66
783.72	1753.06
783.89	1689.57
784.07	1777.64
784.24	1753.06
784.42	1812.45
784.60	1691.62
784.77	1703.91
784.95	1615.85
785.12	1671.14
785.30	1794.02
785.47	1683.43
785.65	1652.71
785.83	1732.58
786.00	1609.70
786.18	1718.25
786.35	1644.52
786.53	1662.95
786.71	1716.20
786.88	1787.88
787.06	1734.63
787.23	1656.81
787.41	1628.14
787.58	1742.82
787.76	1689.57
787.94	1710.05
788.11	1701.86
788.29	1581.03
788.46	1708.01
788.64	1609.70
788.81	1775.59
788.99	1552.36
789.16	1640.42
789.34	1687.53
789.52	1716.20
789.69	1740.77
789.87	1626.09
790.04	1753.06
790.22	1638.38
790.39	1847.27
790.57	1662.95
790.74	1654.76
790.92	1683.43
791.09	1679.33
791.27	1658.85
791.44	1789.92
791.62	1656.81
791.79	1738.73
791.97	1687.53
792.15	1841.12
792.32	1746.92
792.50	1740.77
792.67	1837.03
792.85	1798.12
793.02	1703.91
793.20	1679.33
793.37	1636.33
793.55	1740.77
793.72	1632.23
793.90	1761.25
794.07	1701.86
794.25	1689.57
794.42	1650.66
794.60	1642.47
794.77	1732.58
794.95	1703.91
795.12	1748.97
795.30	1689.57
795.47	1564.65
795.65	1953.76
795.82	1734.63
796.00	1656.81
796.17	1689.57
796.34	1642.47
796.52	1662.95
796.69	1697.77
796.87	1738.73
797.04	1771.49
797.22	1806.31
797.39	1689.57
797.57	1736.68
797.74	1722.34
797.92	1681.38
798.09	1615.85
798.27	1769.44
798.44	1761.25
798.62	1624.04
798.79	1767.40
798.96	1708.01
799.14	1697.77
799.31	1894.37
799.49	1708.01
799.66	1650.66
799.84	1763.30
800.01	1671.14
800.19	1673.19
800.36	1605.61
800.53	1662.95
800.71	1665.00
800.88	1771.49
801.06	1724.39
801.23	1656.81
801.41	1761.25
801.58	1683.43
801.75	1665.00
801.93	1730.53
802.10	1765.35
802.28	1728.49
802.45	1662.95
802.63	1755.11
802.80	1804.26
802.97	1648.61
803.15	1726.44
803.32	1681.38
803.50	1660.90
803.67	1628.14
803.84	1697.77
804.02	1726.44
804.19	1703.91
804.37	1665.00
804.54	1691.62
804.71	1736.68
804.89	1763.30
805.06	1650.66
805.24	1607.66
805.41	1632.23
805.58	1681.38
805.76	1806.31
805.93	1654.76
806.10	1777.64
806.28	1785.83
806.45	1755.11
806.63	1689.57
806.80	1732.58
806.97	1771.49
807.15	1699.81
807.32	1718.25
807.49	1710.05
807.67	1665.00
807.84	1722.34
808.01	1607.66
808.19	1812.45
808.36	1828.84
808.54	1710.05
808.71	1615.85
808.88	1748.97
809.06	1726.44
809.23	1783.78
809.40	1607.66
809.58	1730.53
809.75	1681.38
809.92	1667.05
810.10	1832.93
810.27	1648.61
810.44	1683.43
810.62	1734.63
810.79	1742.82
810.96	1662.95
811.14	1705.96
811.31	1769.44
811.48	1746.92
811.66	1763.30
811.83	1718.25
812.00	1699.81
812.18	1744.87
812.35	1820.64
812.52	1763.30
812.69	1673.19
812.87	1697.77
813.04	1701.86
813.21	1681.38
813.39	1658.85
813.56	1576.94
813.73	1755.11
813.91	1560.55
814.08	1708.01
814.25	1669.09
814.42	1578.98
814.60	1693.67
814.77	1716.20
814.94	1695.72
815.12	1689.57
815.29	1800.16
815.46	1667.05
815.63	1718.25
815.81	1619.94
815.98	1677.29
816.15	1714.15
816.33	1761.25
816.50	1685.48
816.67	1761.25
816.84	1648.61
817.02	1552.36
817.19	1769.44
817.36	1703.91
817.53	1732.58
817.71	1628.14
817.88	1755.11
818.05	1677.29
818.22	1728.49
818.40	1832.93
818.57	1710.05
818.74	1755.11
818.91	1701.86
819.09	1744.87
819.26	1781.73
819.43	1675.24
819.60	1581.03
819.78	1703.91
819.95	1759.21
820.12	1599.46
820.29	1791.97
820.47	1736.68
820.64	1632.23
820.81	1611.75
820.98	1617.90
821.15	1679.33
821.33	1734.63
821.50	1605.61
821.67	1673.19
821.84	1701.86
822.02	1771.49
822.19	1742.82
822.36	1665.00
822.53	1681.38
822.70	1658.85
822.88	1679.33
823.05	1734.63
823.22	1677.29
823.39	1697.77
823.56	1697.77
823.74	1861.60
823.91	1722.34
824.08	1619.94
824.25	1603.56
824.42	1773.54
824.60	1638.38
824.77	1753.06
824.94	1708.01
825.11	1783.78
825.28	1720.29
825.45	1738.73
825.63	1677.29
825.80	1685.48
825.97	1744.87
826.14	1703.91
826.31	1658.85
826.48	1724.39
826.66	1689.57
826.83	1665.00
827.00	1722.34
827.17	1632.23
827.34	1681.38
827.51	1673.19
827.69	1673.19
827.86	1603.56
828.03	1708.01
828.20	1677.29
828.37	1662.95
828.54	1705.96
828.71	1728.49
828.89	1765.35
829.06	1708.01
829.23	1755.11
829.40	1646.57
829.57	1673.19
829.74	1714.15
829.91	1724.39
830.09	1665.00
830.26	1660.90
830.43	1767.40
830.60	1710.05
830.77	1683.43
830.94	1763.30
831.11	1746.92
831.28	1689.57
831.46	1697.77
831.63	1646.57
831.80	1703.91
831.97	1701.86
832.14	1597.42
832.31	1763.30
832.48	1751.01
832.65	1679.33
832.82	1759.21
832.99	1714.15
833.17	1658.85
833.34	1810.40
833.51	1736.68
833.68	1564.65
833.85	1871.84
834.02	1630.18
834.19	1660.90
834.36	1636.33
834.53	1708.01
834.70	1794.02
834.87	1757.16
835.04	1726.44
835.22	1628.14
835.39	1740.77
835.56	1652.71
835.73	1609.70
835.90	1689.57
836.07	1701.86
836.24	1728.49
836.41	1634.28
836.58	1611.75
836.75	1742.82
836.92	1685.48
837.09	1687.53
837.26	1658.85
837.43	1681.38
837.60	1734.63
837.77	1732.58
837.94	1687.53
838.12	1798.12
838.29	1705.96
838.46	1640.42
838.63	1667.05
838.80	1763.30
838.97	1667.05
839.14	1699.81
839.31	1689.57
839.48	1734.63
839.65	1681.38
839.82	1712.10
839.99	1820.64
840.16	1658.85
840.33	1685.48
840.50	1675.24
840.67	1681.38
840.84	1495.02
841.01	1646.57
841.18	1652.71
841.35	1665.00
841.52	1779.68
841.69	1796.07
841.86	1720.29
842.03	1732.58
842.20	1775.59
842.37	1691.62
842.54	1691.62
842.71	1742.82
842.88	1615.85
843.05	1787.88
843.22	1632.23
843.39	1708.01
843.56	1710.05
843.73	1716.20
843.90	1673.19
844.07	1781.73
844.24	1769.44
844.41	1734.63
844.58	1728.49
844.75	1744.87
844.92	1634.28
845.09	1701.86
845.26	1656.81
845.43	1681.38
845.60	1660.90
845.77	1710.05
845.94	1673.19
846.10	1726.44
846.27	1644.52
846.44	1652.71
846.61	1599.46
846.78	1722.34
846.95	1693.67
847.12	1679.33
847.29	1601.51
847.46	1624.04
847.63	1722.34
847.80	1626.09
847.97	1697.77
848.14	1789.92
848.31	1652.71
848.48	1636.33
848.65	1677.29
848.82	1671.14
848.98	1812.45
849.15	1746.92
849.32	1773.54
849.49	1746.92
849.66	1708.01
849.83	1710.05
850.00	1570.79
850.17	1656.81
850.34	1687.53
850.51	1673.19
850.68	1658.85
850.85	1779.68
851.01	1757.16
851.18	1671.14
851.35	1705.96
851.52	1701.86
851.69	1828.84
851.86	1646.57
852.03	1718.25
852.20	1699.81
852.37	1673.19
852.53	1667.05
852.70	1675.24
852.87	1716.20
853.04	1613.80
853.21	1699.81
853.38	1802.21
853.55	1738.73
853.72	1759.21
853.89	1566.70
854.05	1640.42
854.22	1734.63
854.39	1755.11
854.56	1685.48
854.73	1769.44
854.90	1671.14
855.07	1705.96
855.23	1703.91
855.40	1691.62
855.57	1761.25
855.74	1619.94
855.91	1857.51
856.08	1646.57
856.25	1642.47
856.41	1662.95
856.58	1697.77
856.75	1816.55
856.92	1607.66
857.09	1695.72
857.26	1642.47
857.42	1703.91
857.59	1710.05
857.76	1691.62
857.93	1753.06
858.10	1757.16
858.27	1736.68
858.43	1656.81
858.60	1642.47
858.77	1546.22
858.94	1703.91
859.11	1732.58
859.27	1628.14
859.44	1724.39
859.61	1773.54
859.78	1751.01
859.95	1615.85
860.12	1667.05
860.28	1779.68
860.45	1796.07
860.62	1714.15
860.79	1744.87
860.95	1695.72
861.12	1671.14
861.29	1685.48
861.46	1658.85
861.63	1632.23
861.79	1765.35
861.96	1683.43
862.13	1775.59
862.30	1804.26
862.47	1648.61
862.63	1650.66
862.80	1753.06
862.97	1636.33
863.14	1701.86
863.30	1681.38
863.47	1669.09
863.64	1779.68
863.81	1673.19
863.97	1652.71
864.14	1708.01
864.31	1736.68
864.48	1695.72
864.65	1671.14
864.81	1771.49
864.98	1734.63
865.15	1757.16
865.32	1728.49
865.48	1816.55
865.65	1740.77
865.82	1640.42
865.98	1726.44
866.15	1880.04
866.32	1648.61
866.49	1705.96
866.65	1759.21
866.82	1724.39
866.99	1689.57
867.16	1673.19
867.32	1714.15
867.49	1673.19
867.66	1673.19
867.83	1685.48
867.99	1648.61
868.16	1679.33
868.33	1615.85
868.49	1693.67
868.66	1632.23
868.83	1730.53
868.99	1667.05
869.16	1638.38
869.33	1736.68
869.50	1796.07
869.66	1738.73
869.83	1667.05
870.00	1605.61
870.16	1685.48
870.33	1771.49
870.50	1718.25
870.66	1765.35
870.83	1822.69
871.00	1652.71
871.17	1769.44
871.33	1708.01
871.50	1667.05
871.67	1724.39
871.83	1660.90
872.00	1726.44
872.17	1693.67
872.33	1753.06
872.50	1757.16
872.67	1677.29
872.83	1636.33
873.00	1714.15
873.17	1642.47
873.33	1751.01
873.50	1761.25
873.67	1712.10
873.83	1640.42
874.00	1718.25
874.16	1718.25
874.33	1763.30
874.50	1632.23
874.66	1689.57
874.83	1722.34
875.00	1736.68
875.16	1769.44
875.33	1794.02
875.50	1570.79
875.66	1572.84
875.83	1728.49
875.99	1781.73
876.16	1691.62
876.33	1613.80
876.49	1675.24
876.66	1738.73
876.83	1687.53
876.99	1644.52
877.16	1697.77
877.32	1646.57
877.49	1644.52
877.66	1675.24
877.82	1763.30
877.99	1718.25
878.15	1716.20
878.32	1755.11
878.49	1685.48
878.65	1642.47
878.82	1730.53
878.98	1662.95
879.15	1697.77
879.32	1820.64
879.48	1689.57
879.65	1642.47
879.81	1632.23
879.98	1628.14
880.15	1644.52
880.31	1796.07
880.48	1646.57
880.64	1820.64
880.81	1751.01
880.97	1908.71
881.14	1763.30
881.31	1681.38
881.47	1783.78
881.64	1648.61
881.80	1646.57
881.97	1677.29
882.13	1730.53
882.30	1677.29
882.47	1673.19
882.63	1560.55
882.80	1730.53
882.96	1734.63
883.13	1789.92
883.29	1728.49
883.46	1697.77
883.62	1740.77
883.79	1710.05
883.95	1654.76
884.12	1679.33
884.29	1738.73
884.45	1689.57
884.62	1708.01
884.78	1644.52
884.95	1728.49
885.11	1583.08
885.28	1705.96
885.44	1652.71
885.61	1757.16
885.77	1794.02
885.94	1740.77
886.10	1714.15
886.27	1617.90
886.43	1746.92
886.60	1726.44
886.76	1669.09
886.93	1671.14
887.09	1769.44
887.26	1634.28
887.42	1699.81
887.59	1746.92
887.75	1855.46
887.92	1718.25
888.08	1708.01
888.25	1783.78
888.41	1789.92
888.58	1738.73
888.74	1630.18
888.91	1687.53
>>>>>End Processed Spectral Data<<<<<
