SpectraSuite Data File
++++++++++++++++++++++++++++++++++++
Date: Mon Jun 06 14:44:17 CEST 2016
User: root
Dark Spectrum Present: No
Reference Spectrum Present: No
Number of Sampled Component Spectra: 1
Spectrometers: USB4C02835
Integration Time (usec): 100000 (USB4C02835)
Spectra Averaged: 1 (USB4C02835)
Boxcar Smoothing: 0 (USB4C02835)
Correct for Electrical Dark: No (USB4C02835)
Strobe/Lamp Enabled: No (USB4C02835)
Correct for Detector Non-linearity: No (USB4C02835)
Correct for Stray Light: No (USB4C02835)
Number of Pixels in Processed Spectrum: 3648
>>>>>Begin Processed Spectral Data<<<<<
177.47	1492.97
177.69	1492.97
177.91	1492.97
178.13	1468.39
178.36	1429.48
178.58	1644.52
178.80	1748.97
179.02	1613.80
179.24	1660.90
179.46	1691.62
179.68	1703.91
179.90	1660.90
180.13	1685.48
180.35	1630.18
180.57	1626.09
180.79	1761.25
181.01	1714.15
181.23	1748.97
181.45	1734.63
181.67	1705.96
181.90	1759.21
182.12	1673.19
182.34	1652.71
182.56	1667.05
182.78	1697.77
183.00	1695.72
183.22	1726.44
183.44	1621.99
183.66	1839.08
183.89	1785.83
184.11	1800.16
184.33	1787.88
184.55	1667.05
184.77	1667.05
184.99	1726.44
185.21	1697.77
185.43	1837.03
185.65	1660.90
185.87	1724.39
186.10	1798.12
186.32	1808.36
186.54	1832.93
186.76	1720.29
186.98	1796.07
187.20	1701.86
187.42	1634.28
187.64	1703.91
187.86	1734.63
188.08	1757.16
188.30	1710.05
188.52	1703.91
188.75	1755.11
188.97	1798.12
189.19	1650.66
189.41	1708.01
189.63	1730.53
189.85	1626.09
190.07	1644.52
190.29	1642.47
190.51	1728.49
190.73	1609.70
190.95	1794.02
191.17	1726.44
191.39	1599.46
191.61	1712.10
191.84	1677.29
192.06	1746.92
192.28	1636.33
192.50	1800.16
192.72	1748.97
192.94	1740.77
193.16	1691.62
193.38	1697.77
193.60	1720.29
193.82	1724.39
194.04	1683.43
194.26	1693.67
194.48	1714.15
194.70	1648.61
194.92	1576.94
195.14	1714.15
195.36	1712.10
195.58	1699.81
195.80	1716.20
196.02	1718.25
196.24	1683.43
196.46	1718.25
196.69	1728.49
196.91	1871.84
197.13	1693.67
197.35	1601.51
197.57	1771.49
197.79	1726.44
198.01	1716.20
198.23	1718.25
198.45	1787.88
198.67	1669.09
198.89	1556.46
199.11	1738.73
199.33	1699.81
199.55	1587.18
199.77	1634.28
199.99	1771.49
200.21	1720.29
200.43	1652.71
200.65	1566.70
200.87	1503.21
201.09	1656.81
201.31	1724.39
201.53	1773.54
201.75	1728.49
201.97	1724.39
202.19	1716.20
202.41	1746.92
202.63	1783.78
202.85	1730.53
203.07	1669.09
203.29	1660.90
203.51	1611.75
203.73	1542.12
203.95	1886.18
204.17	1615.85
204.39	1634.28
204.61	1738.73
204.83	1626.09
205.05	1769.44
205.27	1785.83
205.49	1748.97
205.71	1701.86
205.93	1630.18
206.15	1718.25
206.37	1615.85
206.59	1689.57
206.81	1671.14
207.03	1685.48
207.25	1599.46
207.47	1761.25
207.69	1738.73
207.91	1767.40
208.13	1773.54
208.34	1710.05
208.56	1591.27
208.78	1734.63
209.00	1671.14
209.22	1714.15
209.44	1673.19
209.66	1677.29
209.88	1701.86
210.10	1718.25
210.32	1656.81
210.54	1785.83
210.76	1710.05
210.98	1683.43
211.20	1574.89
211.42	1689.57
211.64	1732.58
211.86	1701.86
212.08	1783.78
212.30	1720.29
212.52	1630.18
212.74	1703.91
212.96	1720.29
213.17	1777.64
213.39	1736.68
213.61	1757.16
213.83	1697.77
214.05	1632.23
214.27	1746.92
214.49	1697.77
214.71	1656.81
214.93	1783.78
215.15	1632.23
215.37	1751.01
215.59	1587.18
215.81	1697.77
216.03	1769.44
216.24	1708.01
216.46	1677.29
216.68	1685.48
216.90	1695.72
217.12	1781.73
217.34	1656.81
217.56	1714.15
217.78	1718.25
218.00	1726.44
218.22	1665.00
218.44	1720.29
218.66	1697.77
218.87	1789.92
219.09	1724.39
219.31	1740.77
219.53	1701.86
219.75	1613.80
219.97	1703.91
220.19	1662.95
220.41	1681.38
220.63	1742.82
220.85	1826.79
221.06	1652.71
221.28	1738.73
221.50	1691.62
221.72	1652.71
221.94	1730.53
222.16	1746.92
222.38	1722.34
222.60	1720.29
222.82	1634.28
223.03	1695.72
223.25	1656.81
223.47	1818.60
223.69	1812.45
223.91	1646.57
224.13	1701.86
224.35	1677.29
224.57	1757.16
224.78	1705.96
225.00	1665.00
225.22	1753.06
225.44	1685.48
225.66	1742.82
225.88	1789.92
226.10	1751.01
226.32	1718.25
226.53	1796.07
226.75	1683.43
226.97	1685.48
227.19	1734.63
227.41	1650.66
227.63	1658.85
227.85	1644.52
228.06	1708.01
228.28	1767.40
228.50	1705.96
228.72	1636.33
228.94	1685.48
229.16	1724.39
229.37	1689.57
229.59	1691.62
229.81	1810.40
230.03	1705.96
230.25	1656.81
230.47	1648.61
230.69	1658.85
230.90	1708.01
231.12	1703.91
231.34	1796.07
231.56	1716.20
231.78	1634.28
232.00	1767.40
232.21	1681.38
232.43	1636.33
232.65	1652.71
232.87	1667.05
233.09	1679.33
233.30	1699.81
233.52	1656.81
233.74	1757.16
233.96	1693.67
234.18	1722.34
234.40	1621.99
234.61	1798.12
234.83	1685.48
235.05	1644.52
235.27	1837.03
235.49	1806.31
235.70	1720.29
235.92	1779.68
236.14	1726.44
236.36	1837.03
236.58	1638.38
236.79	1714.15
237.01	1712.10
237.23	1722.34
237.45	1779.68
237.67	1599.46
237.88	1746.92
238.10	1769.44
238.32	1665.00
238.54	1656.81
238.76	1691.62
238.97	1683.43
239.19	1648.61
239.41	1699.81
239.63	1724.39
239.85	1701.86
240.06	1669.09
240.28	1644.52
240.50	1804.26
240.72	1734.63
240.93	1673.19
241.15	1755.11
241.37	1683.43
241.59	1708.01
241.81	1636.33
242.02	1673.19
242.24	1748.97
242.46	1724.39
242.68	1662.95
242.89	1761.25
243.11	1699.81
243.33	1705.96
243.55	1718.25
243.76	1796.07
243.98	1665.00
244.20	1699.81
244.42	1705.96
244.64	1701.86
244.85	1689.57
245.07	1630.18
245.29	1781.73
245.51	1759.21
245.72	1691.62
245.94	1740.77
246.16	1720.29
246.38	1779.68
246.59	1624.04
246.81	1665.00
247.03	1720.29
247.24	1560.55
247.46	1650.66
247.68	1626.09
247.90	1687.53
248.11	1669.09
248.33	1740.77
248.55	1677.29
248.77	1638.38
248.98	1796.07
249.20	1783.78
249.42	1767.40
249.64	1765.35
249.85	1703.91
250.07	1617.90
250.29	1705.96
250.50	1689.57
250.72	1624.04
250.94	1751.01
251.16	1746.92
251.37	1736.68
251.59	1740.77
251.81	1724.39
252.02	1726.44
252.24	1683.43
252.46	1837.03
252.68	1667.05
252.89	1685.48
253.11	1630.18
253.33	1851.36
253.54	1759.21
253.76	1648.61
253.98	1662.95
254.20	1738.73
254.41	1673.19
254.63	1693.67
254.85	1652.71
255.06	1648.61
255.28	1695.72
255.50	1710.05
255.71	1621.99
255.93	1607.66
256.15	1681.38
256.36	1746.92
256.58	1746.92
256.80	1728.49
257.02	1705.96
257.23	1699.81
257.45	1759.21
257.67	1771.49
257.88	1595.37
258.10	1714.15
258.32	1665.00
258.53	1712.10
258.75	1787.88
258.97	1703.91
259.18	1703.91
259.40	1648.61
259.62	1837.03
259.83	1798.12
260.05	1689.57
260.27	1988.58
260.48	1779.68
260.70	1691.62
260.92	1732.58
261.13	1660.90
261.35	1677.29
261.57	1634.28
261.78	1660.90
262.00	1628.14
262.22	1726.44
262.43	1689.57
262.65	1630.18
262.86	1665.00
263.08	1804.26
263.30	1714.15
263.51	1624.04
263.73	1689.57
263.95	1781.73
264.16	1697.77
264.38	1665.00
264.60	1669.09
264.81	1683.43
265.03	1769.44
265.25	1804.26
265.46	1701.86
265.68	1755.11
265.89	1779.68
266.11	1626.09
266.33	1705.96
266.54	1722.34
266.76	1683.43
266.98	1693.67
267.19	1808.36
267.41	1708.01
267.62	1658.85
267.84	1603.56
268.06	1734.63
268.27	1712.10
268.49	1763.30
268.70	1796.07
268.92	1765.35
269.14	1667.05
269.35	1624.04
269.57	1695.72
269.79	1765.35
270.00	1615.85
270.22	1832.93
270.43	1603.56
270.65	1599.46
270.87	1728.49
271.08	1720.29
271.30	1744.87
271.51	1730.53
271.73	1710.05
271.95	1705.96
272.16	1652.71
272.38	1726.44
272.59	1650.66
272.81	1771.49
273.02	1742.82
273.24	1718.25
273.46	1804.26
273.67	1646.57
273.89	1628.14
274.10	1630.18
274.32	1738.73
274.54	1703.91
274.75	1691.62
274.97	1621.99
275.18	1767.40
275.40	1738.73
275.61	1671.14
275.83	1630.18
276.05	1638.38
276.26	1671.14
276.48	1744.87
276.69	1644.52
276.91	1595.37
277.12	1683.43
277.34	1777.64
277.55	1722.34
277.77	1650.66
277.99	1697.77
278.20	1638.38
278.42	1628.14
278.63	1624.04
278.85	1609.70
279.06	1611.75
279.28	1769.44
279.49	1732.58
279.71	1765.35
279.93	1699.81
280.14	1720.29
280.36	1705.96
280.57	1769.44
280.79	1730.53
281.00	1593.32
281.22	1599.46
281.43	1751.01
281.65	1607.66
281.86	1654.76
282.08	1804.26
282.29	1839.08
282.51	1599.46
282.73	1599.46
282.94	1630.18
283.16	1693.67
283.37	1802.21
283.59	1687.53
283.80	1718.25
284.02	1730.53
284.23	1695.72
284.45	1642.47
284.66	1675.24
284.88	1636.33
285.09	1689.57
285.31	1765.35
285.52	1671.14
285.74	1605.61
285.95	1624.04
286.17	1746.92
286.38	1738.73
286.60	1689.57
286.81	1658.85
287.03	1726.44
287.24	1644.52
287.46	1718.25
287.67	1650.66
287.89	1732.58
288.10	1777.64
288.32	1757.16
288.53	1773.54
288.75	1683.43
288.96	1765.35
289.18	1632.23
289.39	1640.42
289.61	1771.49
289.82	1890.28
290.04	1777.64
290.25	1607.66
290.47	1693.67
290.68	1550.31
290.90	1726.44
291.11	1607.66
291.33	1722.34
291.54	1632.23
291.76	1642.47
291.97	1693.67
292.18	1708.01
292.40	1632.23
292.61	1665.00
292.83	1877.99
293.04	1730.53
293.26	1734.63
293.47	1703.91
293.69	1636.33
293.90	1701.86
294.12	1751.01
294.33	1699.81
294.55	1759.21
294.76	1755.11
294.97	1759.21
295.19	1796.07
295.40	1703.91
295.62	1773.54
295.83	1683.43
296.05	1599.46
296.26	1763.30
296.48	1738.73
296.69	1656.81
296.90	1710.05
297.12	1687.53
297.33	1755.11
297.55	1714.15
297.76	1724.39
297.98	1734.63
298.19	1695.72
298.41	1687.53
298.62	1652.71
298.83	1685.48
299.05	1685.48
299.26	1624.04
299.48	1658.85
299.69	1718.25
299.90	1732.58
300.12	1667.05
300.33	1724.39
300.55	1685.48
300.76	1687.53
300.98	1611.75
301.19	1722.34
301.40	1730.53
301.62	1632.23
301.83	1724.39
302.05	1714.15
302.26	1742.82
302.47	1746.92
302.69	1714.15
302.90	1697.77
303.12	1564.65
303.33	1699.81
303.54	1775.59
303.76	1763.30
303.97	1701.86
304.19	1822.69
304.40	1640.42
304.61	1732.58
304.83	1869.80
305.04	1742.82
305.26	1728.49
305.47	1636.33
305.68	1667.05
305.90	1634.28
306.11	1808.36
306.33	1671.14
306.54	1677.29
306.75	1699.81
306.97	1576.94
307.18	1671.14
307.39	1798.12
307.61	1705.96
307.82	1685.48
308.04	1689.57
308.25	1652.71
308.46	1626.09
308.68	1669.09
308.89	1667.05
309.10	1791.97
309.32	1767.40
309.53	1753.06
309.74	1705.96
309.96	1701.86
310.17	1732.58
310.39	1626.09
310.60	1720.29
310.81	1626.09
311.03	1667.05
311.24	1685.48
311.45	1703.91
311.67	1804.26
311.88	1699.81
312.09	1681.38
312.31	1683.43
312.52	1638.38
312.73	1730.53
312.95	1605.61
313.16	1722.34
313.37	1734.63
313.59	1722.34
313.80	1685.48
314.01	1791.97
314.23	1667.05
314.44	1607.66
314.65	1718.25
314.87	1681.38
315.08	1593.32
315.29	1687.53
315.51	1656.81
315.72	1667.05
315.93	1755.11
316.15	1701.86
316.36	1654.76
316.57	1710.05
316.79	1732.58
317.00	1761.25
317.21	1693.67
317.43	1697.77
317.64	1699.81
317.85	1705.96
318.07	1691.62
318.28	1730.53
318.49	1787.88
318.70	1943.52
318.92	1882.08
319.13	1849.32
319.34	1824.74
319.56	1746.92
319.77	1732.58
319.98	1757.16
320.20	1798.12
320.41	1644.52
320.62	1712.10
320.83	1699.81
321.05	1857.51
321.26	1763.30
321.47	1624.04
321.69	1744.87
321.90	1648.61
322.11	1759.21
322.32	1751.01
322.54	1755.11
322.75	1665.00
322.96	1863.65
323.18	1665.00
323.39	1626.09
323.60	1673.19
323.81	1791.97
324.03	1597.42
324.24	1601.51
324.45	1685.48
324.66	1685.48
324.88	1755.11
325.09	1765.35
325.30	1769.44
325.52	1769.44
325.73	1769.44
325.94	1695.72
326.15	1619.94
326.37	1628.14
326.58	1724.39
326.79	1859.56
327.00	1726.44
327.22	1761.25
327.43	1673.19
327.64	1648.61
327.85	1759.21
328.07	1753.06
328.28	1802.21
328.49	1658.85
328.70	1677.29
328.92	1695.72
329.13	1736.68
329.34	1753.06
329.55	1845.22
329.76	1722.34
329.98	1720.29
330.19	1796.07
330.40	1744.87
330.61	1640.42
330.83	1708.01
331.04	1642.47
331.25	1728.49
331.46	1705.96
331.68	1595.37
331.89	1681.38
332.10	1630.18
332.31	1640.42
332.52	1736.68
332.74	1734.63
332.95	1621.99
333.16	1695.72
333.37	1708.01
333.58	1691.62
333.80	1798.12
334.01	1638.38
334.22	1714.15
334.43	1703.91
334.64	1736.68
334.86	1632.23
335.07	1662.95
335.28	1812.45
335.49	1613.80
335.70	1728.49
335.92	1730.53
336.13	1814.50
336.34	1728.49
336.55	1718.25
336.76	1746.92
336.98	1630.18
337.19	1687.53
337.40	1730.53
337.61	1779.68
337.82	1665.00
338.04	1759.21
338.25	1658.85
338.46	1640.42
338.67	1699.81
338.88	1695.72
339.09	1648.61
339.31	1656.81
339.52	1714.15
339.73	1687.53
339.94	1665.00
340.15	1804.26
340.36	1660.90
340.58	1652.71
340.79	1630.18
341.00	1771.49
341.21	1691.62
341.42	1816.55
341.63	1710.05
341.85	1789.92
342.06	1753.06
342.27	1611.75
342.48	1716.20
342.69	1646.57
342.90	1638.38
343.12	1744.87
343.33	1714.15
343.54	1740.77
343.75	1722.34
343.96	1683.43
344.17	1665.00
344.38	1716.20
344.60	1640.42
344.81	1642.47
345.02	1619.94
345.23	1730.53
345.44	1736.68
345.65	1789.92
345.86	1738.73
346.07	1720.29
346.29	1642.47
346.50	1689.57
346.71	1757.16
346.92	1810.40
347.13	1828.84
347.34	1695.72
347.55	1726.44
347.76	1724.39
347.98	1638.38
348.19	1646.57
348.40	1789.92
348.61	1728.49
348.82	1869.80
349.03	1796.07
349.24	1681.38
349.45	1820.64
349.66	1595.37
349.88	1691.62
350.09	1615.85
350.30	1720.29
350.51	1791.97
350.72	1724.39
350.93	1720.29
351.14	1738.73
351.35	1677.29
351.56	1665.00
351.77	1703.91
351.99	1742.82
352.20	1736.68
352.41	1742.82
352.62	1640.42
352.83	1669.09
353.04	1658.85
353.25	1658.85
353.46	1765.35
353.67	1695.72
353.88	1617.90
354.09	1681.38
354.30	1708.01
354.52	1763.30
354.73	1716.20
354.94	1587.18
355.15	1705.96
355.36	1775.59
355.57	1681.38
355.78	1740.77
355.99	1630.18
356.20	1679.33
356.41	1800.16
356.62	1683.43
356.83	1662.95
357.04	1773.54
357.25	1560.55
357.46	1691.62
357.68	1617.90
357.89	1705.96
358.10	1697.77
358.31	1724.39
358.52	1701.86
358.73	1665.00
358.94	1640.42
359.15	1677.29
359.36	1742.82
359.57	1687.53
359.78	1689.57
359.99	1726.44
360.20	1617.90
360.41	1652.71
360.62	1699.81
360.83	1746.92
361.04	1757.16
361.25	1718.25
361.46	1755.11
361.67	1671.14
361.88	1689.57
362.09	1763.30
362.30	1736.68
362.51	1642.47
362.72	1724.39
362.93	1751.01
363.14	1726.44
363.35	1677.29
363.56	1677.29
363.78	1744.87
363.99	1771.49
364.20	1697.77
364.41	1734.63
364.62	1755.11
364.83	1722.34
365.04	1681.38
365.25	1722.34
365.46	1779.68
365.67	1681.38
365.88	1583.08
366.09	1730.53
366.30	1703.91
366.51	1683.43
366.72	1738.73
366.93	1681.38
367.14	1710.05
367.35	1845.22
367.56	1699.81
367.77	1740.77
367.98	1665.00
368.18	1757.16
368.39	1689.57
368.60	1611.75
368.81	1658.85
369.02	1683.43
369.23	1673.19
369.44	1632.23
369.65	1634.28
369.86	1705.96
370.07	1662.95
370.28	1568.74
370.49	1662.95
370.70	1718.25
370.91	1546.22
371.12	1665.00
371.33	1763.30
371.54	1691.62
371.75	1763.30
371.96	1595.37
372.17	1710.05
372.38	1667.05
372.59	1722.34
372.80	1689.57
373.01	1669.09
373.22	1681.38
373.43	1724.39
373.64	1560.55
373.85	1853.41
374.06	1853.41
374.26	1781.73
374.47	1691.62
374.68	1765.35
374.89	1665.00
375.10	1669.09
375.31	1763.30
375.52	1720.29
375.73	1751.01
375.94	1665.00
376.15	1732.58
376.36	1685.48
376.57	1632.23
376.78	1691.62
376.99	1769.44
377.20	1728.49
377.40	1640.42
377.61	1767.40
377.82	1634.28
378.03	1806.31
378.24	1765.35
378.45	1636.33
378.66	1720.29
378.87	1617.90
379.08	1699.81
379.29	1607.66
379.50	1806.31
379.71	1726.44
379.91	1771.49
380.12	1683.43
380.33	1699.81
380.54	1722.34
380.75	1632.23
380.96	1617.90
381.17	1751.01
381.38	1722.34
381.59	1775.59
381.80	1710.05
382.00	1845.22
382.21	1691.62
382.42	1798.12
382.63	1851.36
382.84	1791.97
383.05	1777.64
383.26	1742.82
383.47	1718.25
383.68	1683.43
383.88	1677.29
384.09	1763.30
384.30	1839.08
384.51	1726.44
384.72	1660.90
384.93	1621.99
385.14	1763.30
385.35	1767.40
385.55	1638.38
385.76	1751.01
385.97	1705.96
386.18	1648.61
386.39	1685.48
386.60	1677.29
386.81	1683.43
387.02	1740.77
387.22	1597.42
387.43	1814.50
387.64	1810.40
387.85	1865.70
388.06	2308.06
388.27	4353.98
388.48	6911.89
388.68	8331.14
388.89	9717.61
389.10	9801.58
389.31	8540.03
389.52	7634.83
389.73	6741.91
389.93	6371.23
390.14	5842.85
390.35	5332.91
390.56	4523.96
390.77	3827.65
390.98	3069.91
391.18	2543.58
391.39	2125.79
391.60	1855.46
391.81	1822.69
392.02	1691.62
392.23	1865.70
392.43	1685.48
392.64	1779.68
392.85	1759.21
393.06	1808.36
393.27	1712.10
393.47	1640.42
393.68	1656.81
393.89	1673.19
394.10	1777.64
394.31	1677.29
394.52	1603.56
394.72	1705.96
394.93	1777.64
395.14	1697.77
395.35	1775.59
395.56	1642.47
395.76	1720.29
395.97	1828.84
396.18	1851.36
396.39	1806.31
396.60	2031.58
396.80	1902.56
397.01	1853.41
397.22	1882.08
397.43	1853.41
397.64	1728.49
397.84	1736.68
398.05	1873.89
398.26	1714.15
398.47	1765.35
398.67	1824.74
398.88	1748.97
399.09	1693.67
399.30	1621.99
399.51	1783.78
399.71	1720.29
399.92	1679.33
400.13	1720.29
400.34	1662.95
400.54	1697.77
400.75	1796.07
400.96	1720.29
401.17	1822.69
401.37	1779.68
401.58	1701.86
401.79	1734.63
402.00	1873.89
402.21	2047.97
402.41	1898.47
402.62	2007.01
402.83	1959.91
403.04	2017.25
403.24	2099.17
403.45	1843.17
403.66	1857.51
403.87	1857.51
404.07	1894.37
404.28	1877.99
404.49	1841.12
404.70	1791.97
404.90	1726.44
405.11	1681.38
405.32	1783.78
405.52	1695.72
405.73	1712.10
405.94	1632.23
406.15	1646.57
406.35	1746.92
406.56	1740.77
406.77	1708.01
406.98	1740.77
407.18	1665.00
407.39	1822.69
407.60	1734.63
407.80	1714.15
408.01	1751.01
408.22	1701.86
408.43	1710.05
408.63	1769.44
408.84	1699.81
409.05	1712.10
409.25	1669.09
409.46	1628.14
409.67	1656.81
409.88	1683.43
410.08	1763.30
410.29	1730.53
410.50	1705.96
410.70	1714.15
410.91	1742.82
411.12	1738.73
411.32	1617.90
411.53	1656.81
411.74	1798.12
411.95	1800.16
412.15	1728.49
412.36	1738.73
412.57	1748.97
412.77	1738.73
412.98	1724.39
413.19	1675.24
413.39	1808.36
413.60	1746.92
413.81	1757.16
414.01	1611.75
414.22	1724.39
414.43	1714.15
414.63	1726.44
414.84	1814.50
415.05	1685.48
415.25	1626.09
415.46	1744.87
415.67	1697.77
415.87	1773.54
416.08	1744.87
416.29	1671.14
416.49	1693.67
416.70	1689.57
416.91	1611.75
417.11	1650.66
417.32	1705.96
417.53	1775.59
417.73	1712.10
417.94	1658.85
418.15	1681.38
418.35	1708.01
418.56	1724.39
418.77	1828.84
418.97	1662.95
419.18	1710.05
419.38	1578.98
419.59	1677.29
419.80	1767.40
420.00	1748.97
420.21	1728.49
420.42	1763.30
420.62	1765.35
420.83	1689.57
421.04	1572.84
421.24	1658.85
421.45	1791.97
421.65	1779.68
421.86	1691.62
422.07	1716.20
422.27	1648.61
422.48	1734.63
422.69	1615.85
422.89	1644.52
423.10	1705.96
423.30	1619.94
423.51	1718.25
423.72	1695.72
423.92	1658.85
424.13	1632.23
424.33	1732.58
424.54	1751.01
424.75	1798.12
424.95	1824.74
425.16	1767.40
425.36	1691.62
425.57	1652.71
425.78	1726.44
425.98	1796.07
426.19	1667.05
426.39	1658.85
426.60	1736.68
426.81	1724.39
427.01	1728.49
427.22	1632.23
427.42	1640.42
427.63	1599.46
427.83	1740.77
428.04	1818.60
428.25	1826.79
428.45	1732.58
428.66	1765.35
428.86	1728.49
429.07	1667.05
429.28	1665.00
429.48	1757.16
429.69	1761.25
429.89	1673.19
430.10	1720.29
430.30	1722.34
430.51	1726.44
430.71	1726.44
430.92	1738.73
431.13	1681.38
431.33	1783.78
431.54	1771.49
431.74	1816.55
431.95	1824.74
432.15	1697.77
432.36	1683.43
432.56	1718.25
432.77	1859.56
432.98	1773.54
433.18	1701.86
433.39	1675.24
433.59	1742.82
433.80	1757.16
434.00	1822.69
434.21	1658.85
434.41	1714.15
434.62	1789.92
434.82	1644.52
435.03	1613.80
435.23	1660.90
435.44	1603.56
435.64	1699.81
435.85	1748.97
436.06	1755.11
436.26	1681.38
436.47	1673.19
436.67	1662.95
436.88	1642.47
437.08	1767.40
437.29	1740.77
437.49	1703.91
437.70	1705.96
437.90	1681.38
438.11	1857.51
438.31	1794.02
438.52	1853.41
438.72	1853.41
438.93	1896.42
439.13	1753.06
439.34	1773.54
439.54	1722.34
439.75	1769.44
439.95	1810.40
440.16	1667.05
440.36	1722.34
440.57	1787.88
440.77	1810.40
440.98	1751.01
441.18	1802.21
441.39	1771.49
441.59	1718.25
441.80	1894.37
442.00	1783.78
442.21	1796.07
442.41	1681.38
442.62	1822.69
442.82	1738.73
443.02	1699.81
443.23	1765.35
443.43	1714.15
443.64	1794.02
443.84	1695.72
444.05	1671.14
444.25	1808.36
444.46	1660.90
444.66	1718.25
444.87	1845.22
445.07	1621.99
445.28	1671.14
445.48	1791.97
445.69	1751.01
445.89	1865.70
446.09	1742.82
446.30	2050.02
446.50	2705.37
446.71	3719.11
446.91	4315.07
447.12	4710.33
447.32	4849.59
447.53	4243.39
447.73	3870.66
447.93	3590.09
448.14	3323.85
448.34	3262.41
448.55	2893.78
448.75	2762.71
448.96	2680.79
449.16	2494.43
449.36	2248.67
449.57	2037.73
449.77	1949.67
449.98	1814.50
450.18	1849.32
450.39	1804.26
450.59	1742.82
450.79	1714.15
451.00	1689.57
451.20	1798.12
451.41	1722.34
451.61	1771.49
451.81	1662.95
452.02	1699.81
452.22	1845.22
452.43	1710.05
452.63	1630.18
452.84	1746.92
453.04	1755.11
453.24	1681.38
453.45	1665.00
453.65	1787.88
453.86	1724.39
454.06	1787.88
454.26	1734.63
454.47	1650.66
454.67	1791.97
454.87	1724.39
455.08	1720.29
455.28	1730.53
455.49	1757.16
455.69	1685.48
455.89	1845.22
456.10	1703.91
456.30	1798.12
456.51	1701.86
456.71	1794.02
456.91	1791.97
457.12	1763.30
457.32	1724.39
457.52	1722.34
457.73	1787.88
457.93	1705.96
458.14	1693.67
458.34	1628.14
458.54	1693.67
458.75	1642.47
458.95	1808.36
459.15	1722.34
459.36	1695.72
459.56	1783.78
459.76	1798.12
459.97	1787.88
460.17	1748.97
460.37	1746.92
460.58	1761.25
460.78	1767.40
460.99	1708.01
461.19	1751.01
461.39	1712.10
461.60	1722.34
461.80	1759.21
462.00	1722.34
462.21	1738.73
462.41	1646.57
462.61	1617.90
462.82	1691.62
463.02	1765.35
463.22	1751.01
463.43	1832.93
463.63	1787.88
463.83	1808.36
464.04	1679.33
464.24	1720.29
464.44	1683.43
464.64	1675.24
464.85	1779.68
465.05	1810.40
465.25	1675.24
465.46	1730.53
465.66	1763.30
465.86	1798.12
466.07	1773.54
466.27	1759.21
466.47	1667.05
466.68	1648.61
466.88	1808.36
467.08	1761.25
467.29	1808.36
467.49	1804.26
467.69	1665.00
467.89	1744.87
468.10	1732.58
468.30	1755.11
468.50	1777.64
468.71	1791.97
468.91	1615.85
469.11	1923.04
469.31	1775.59
469.52	1609.70
469.72	1812.45
469.92	1781.73
470.13	1671.14
470.33	1740.77
470.53	1855.46
470.73	2183.13
470.94	2312.16
471.14	2369.50
471.34	2514.91
471.54	2383.84
471.75	2236.38
471.95	2207.71
472.15	2113.50
472.36	1998.82
472.56	2039.78
472.76	1994.72
472.96	1966.05
473.17	1957.86
473.37	1894.37
473.57	1753.06
473.77	1849.32
473.98	1759.21
474.18	1615.85
474.38	1834.98
474.58	1730.53
474.79	1724.39
474.99	1740.77
475.19	1712.10
475.39	1740.77
475.60	1787.88
475.80	1726.44
476.00	1744.87
476.20	1685.48
476.41	1734.63
476.61	1843.17
476.81	1769.44
477.01	1665.00
477.21	1814.50
477.42	1777.64
477.62	1662.95
477.82	1779.68
478.02	1662.95
478.23	1701.86
478.43	1691.62
478.63	1671.14
478.83	1703.91
479.03	1685.48
479.24	1777.64
479.44	1779.68
479.64	1662.95
479.84	1593.32
480.04	1648.61
480.25	1722.34
480.45	1597.42
480.65	1640.42
480.85	1724.39
481.06	1609.70
481.26	1763.30
481.46	1705.96
481.66	1744.87
481.86	1626.09
482.06	1796.07
482.27	1673.19
482.47	1652.71
482.67	1705.96
482.87	1691.62
483.07	1865.70
483.28	1714.15
483.48	1679.33
483.68	1650.66
483.88	1632.23
484.08	1640.42
484.29	1689.57
484.49	1759.21
484.69	1673.19
484.89	1814.50
485.09	1763.30
485.29	1816.55
485.50	1650.66
485.70	1708.01
485.90	1732.58
486.10	1832.93
486.30	1806.31
486.50	1814.50
486.71	1712.10
486.91	1816.55
487.11	1759.21
487.31	1665.00
487.51	1785.83
487.71	1638.38
487.91	1658.85
488.12	1746.92
488.32	1619.94
488.52	1593.32
488.72	1595.37
488.92	1695.72
489.12	1759.21
489.32	1722.34
489.53	1683.43
489.73	1605.61
489.93	1800.16
490.13	1662.95
490.33	1617.90
490.53	1773.54
490.73	1871.84
490.94	1636.33
491.14	1759.21
491.34	1886.18
491.54	2080.74
491.74	2578.39
491.94	2893.78
492.14	3051.47
492.34	3028.95
492.54	2879.44
492.75	2463.71
492.95	2396.12
493.15	2314.20
493.35	2220.00
493.55	2277.34
493.75	2166.75
493.95	2170.85
494.15	1994.72
494.35	1902.56
494.56	1877.99
494.76	1826.79
494.96	1744.87
495.16	1744.87
495.36	1697.77
495.56	1769.44
495.76	1720.29
495.96	1701.86
496.16	1656.81
496.36	1855.46
496.56	1691.62
496.77	1775.59
496.97	1722.34
497.17	1714.15
497.37	1673.19
497.57	1736.68
497.77	1763.30
497.97	1681.38
498.17	1740.77
498.37	1738.73
498.57	1767.40
498.77	1726.44
498.97	1820.64
499.17	1824.74
499.38	1665.00
499.58	1861.60
499.78	1763.30
499.98	1794.02
500.18	1683.43
500.38	1712.10
500.58	1892.32
500.78	2609.11
500.98	4497.34
501.18	5896.10
501.38	6819.74
501.58	7229.33
501.78	6698.91
501.98	5705.64
502.18	5046.20
502.38	4433.85
502.58	4143.04
502.78	3782.60
502.98	3682.25
503.18	3434.44
503.38	3268.56
503.59	2840.53
503.79	2643.93
503.99	2480.09
504.19	2187.23
504.39	2205.66
504.59	2199.52
504.79	2154.46
504.99	2127.84
505.19	1929.19
505.39	1867.75
505.59	1867.75
505.79	1834.98
505.99	1865.70
506.19	1781.73
506.39	1816.55
506.59	1761.25
506.79	1714.15
506.99	1814.50
507.19	1734.63
507.39	1685.48
507.59	1714.15
507.79	1687.53
507.99	1632.23
508.19	1703.91
508.39	1726.44
508.59	1775.59
508.79	1855.46
508.99	1775.59
509.19	1689.57
509.39	1781.73
509.59	1691.62
509.79	1708.01
509.99	1767.40
510.19	1736.68
510.39	1806.31
510.59	1660.90
510.79	1685.48
510.99	1691.62
511.19	1710.05
511.39	1748.97
511.59	1773.54
511.79	1824.74
511.99	1724.39
512.19	1791.97
512.38	1789.92
512.58	1665.00
512.78	1675.24
512.98	1751.01
513.18	1820.64
513.38	1636.33
513.58	1730.53
513.78	1673.19
513.98	1732.58
514.18	1669.09
514.38	1671.14
514.58	1705.96
514.78	1689.57
514.98	1595.37
515.18	1656.81
515.38	1665.00
515.58	1794.02
515.78	1691.62
515.98	1736.68
516.18	1779.68
516.38	1695.72
516.57	1712.10
516.77	1673.19
516.97	1759.21
517.17	1759.21
517.37	1611.75
517.57	1738.73
517.77	1734.63
517.97	1710.05
518.17	1824.74
518.37	1708.01
518.57	1675.24
518.77	1683.43
518.97	1728.49
519.16	1802.21
519.36	1736.68
519.56	1667.05
519.76	1714.15
519.96	1648.61
520.16	1808.36
520.36	1660.90
520.56	1798.12
520.76	1701.86
520.96	1685.48
521.16	1796.07
521.35	1718.25
521.55	1804.26
521.75	1773.54
521.95	1689.57
522.15	1714.15
522.35	1746.92
522.55	1697.77
522.75	1806.31
522.95	1775.59
523.14	1742.82
523.34	1701.86
523.54	1640.42
523.74	1800.16
523.94	1693.67
524.14	1628.14
524.34	1695.72
524.54	1818.60
524.73	1748.97
524.93	1693.67
525.13	1673.19
525.33	1607.66
525.53	1951.71
525.73	1730.53
525.93	1716.20
526.13	1685.48
526.32	1671.14
526.52	1779.68
526.72	1796.07
526.92	1804.26
527.12	1697.77
527.32	1714.15
527.52	1730.53
527.71	1753.06
527.91	1773.54
528.11	1667.05
528.31	1714.15
528.51	1732.58
528.71	1742.82
528.90	1832.93
529.10	1773.54
529.30	1789.92
529.50	1578.98
529.70	1802.21
529.90	1794.02
530.09	1738.73
530.29	1695.72
530.49	1712.10
530.69	1898.47
530.89	1708.01
531.09	1828.84
531.28	1679.33
531.48	1794.02
531.68	1744.87
531.88	1732.58
532.08	1822.69
532.28	1677.29
532.47	1800.16
532.67	1777.64
532.87	1800.16
533.07	1681.38
533.27	1800.16
533.46	1755.11
533.66	1710.05
533.86	1746.92
534.06	1796.07
534.26	1722.34
534.45	1683.43
534.65	1816.55
534.85	1708.01
535.05	1726.44
535.25	1791.97
535.44	1615.85
535.64	1755.11
535.84	1675.24
536.04	1693.67
536.24	1671.14
536.43	1593.32
536.63	1812.45
536.83	1718.25
537.03	1677.29
537.22	1599.46
537.42	1671.14
537.62	1716.20
537.82	1746.92
538.02	1787.88
538.21	1777.64
538.41	1794.02
538.61	1753.06
538.81	1699.81
539.00	1789.92
539.20	1718.25
539.40	1755.11
539.60	1765.35
539.79	1669.09
539.99	1748.97
540.19	1718.25
540.39	1828.84
540.58	1767.40
540.78	1826.79
540.98	1753.06
541.18	1824.74
541.37	1734.63
541.57	1714.15
541.77	1812.45
541.97	1742.82
542.16	1675.24
542.36	1624.04
542.56	1736.68
542.76	1834.98
542.95	1742.82
543.15	1656.81
543.35	1783.78
543.54	1605.61
543.74	1775.59
543.94	1806.31
544.14	1673.19
544.33	1726.44
544.53	1746.92
544.73	1640.42
544.93	1748.97
545.12	1701.86
545.32	1705.96
545.52	1648.61
545.71	1675.24
545.91	1654.76
546.11	1683.43
546.30	1775.59
546.50	1714.15
546.70	1705.96
546.90	1705.96
547.09	1705.96
547.29	1740.77
547.49	1814.50
547.68	1804.26
547.88	1701.86
548.08	1814.50
548.27	2246.62
548.47	1724.39
548.67	1742.82
548.87	1777.64
549.06	1703.91
549.26	1738.73
549.46	1742.82
549.65	1771.49
549.85	1734.63
550.05	1751.01
550.24	1665.00
550.44	1779.68
550.64	1781.73
550.83	1705.96
551.03	1824.74
551.23	1755.11
551.42	1759.21
551.62	1701.86
551.82	1658.85
552.01	1800.16
552.21	1779.68
552.41	1828.84
552.60	1781.73
552.80	1716.20
553.00	1751.01
553.19	1732.58
553.39	1839.08
553.59	1628.14
553.78	1736.68
553.98	1714.15
554.17	1687.53
554.37	1693.67
554.57	1777.64
554.76	1695.72
554.96	1677.29
555.16	1796.07
555.35	1722.34
555.55	1783.78
555.75	1796.07
555.94	1748.97
556.14	1650.66
556.33	1726.44
556.53	1722.34
556.73	1755.11
556.92	1781.73
557.12	1834.98
557.32	1855.46
557.51	1804.26
557.71	1734.63
557.90	1755.11
558.10	1761.25
558.30	1658.85
558.49	1701.86
558.69	1744.87
558.88	1789.92
559.08	1773.54
559.28	1718.25
559.47	1820.64
559.67	1728.49
559.86	1832.93
560.06	1738.73
560.26	1720.29
560.45	1798.12
560.65	1751.01
560.84	1832.93
561.04	1642.47
561.24	1746.92
561.43	1738.73
561.63	1845.22
561.82	1775.59
562.02	1738.73
562.22	1703.91
562.41	1693.67
562.61	1681.38
562.80	1638.38
563.00	1918.95
563.19	1746.92
563.39	1738.73
563.59	1773.54
563.78	1632.23
563.98	1638.38
564.17	1714.15
564.37	1646.57
564.56	1726.44
564.76	1683.43
564.96	1828.84
565.15	1730.53
565.35	1884.13
565.54	1671.14
565.74	1789.92
565.93	1759.21
566.13	1763.30
566.32	1798.12
566.52	1746.92
566.71	1789.92
566.91	1773.54
567.11	1705.96
567.30	1701.86
567.50	1685.48
567.69	1748.97
567.89	1691.62
568.08	1781.73
568.28	1777.64
568.47	1634.28
568.67	1718.25
568.86	1751.01
569.06	1712.10
569.25	1695.72
569.45	1712.10
569.64	1695.72
569.84	1726.44
570.04	1759.21
570.23	1691.62
570.43	1714.15
570.62	1767.40
570.82	1832.93
571.01	1675.24
571.21	1691.62
571.40	1716.20
571.60	1742.82
571.79	1716.20
571.99	1685.48
572.18	1736.68
572.38	1783.78
572.57	1748.97
572.77	1757.16
572.96	1812.45
573.16	1800.16
573.35	1759.21
573.55	1714.15
573.74	1705.96
573.94	1695.72
574.13	1687.53
574.33	1740.77
574.52	1826.79
574.71	1708.01
574.91	1789.92
575.10	1705.96
575.30	1652.71
575.49	1763.30
575.69	1652.71
575.88	1732.58
576.08	1736.68
576.27	1837.03
576.47	1771.49
576.66	1837.03
576.86	1812.45
577.05	1773.54
577.25	1775.59
577.44	1910.75
577.64	1748.97
577.83	1779.68
578.02	1761.25
578.22	1841.12
578.41	1816.55
578.61	1744.87
578.80	1656.81
579.00	1656.81
579.19	1775.59
579.39	1771.49
579.58	1880.04
579.77	1791.97
579.97	1822.69
580.16	1808.36
580.36	1808.36
580.55	1781.73
580.75	1748.97
580.94	1839.08
581.13	1847.27
581.33	1873.89
581.52	1810.40
581.72	1832.93
581.91	1873.89
582.11	1712.10
582.30	1775.59
582.49	1732.58
582.69	1806.31
582.88	1755.11
583.08	1746.92
583.27	1783.78
583.47	1800.16
583.66	1701.86
583.85	1669.09
584.05	1753.06
584.24	1789.92
584.44	1832.93
584.63	1837.03
584.82	1794.02
585.02	1791.97
585.21	1800.16
585.41	1800.16
585.60	1837.03
585.79	1943.52
585.99	1882.08
586.18	1855.46
586.37	2119.65
586.57	3354.57
586.76	9944.94
586.96	24696.46
587.15	34969.07
587.34	40844.69
587.54	43085.17
587.73	37189.06
587.93	26812.01
588.12	21909.17
588.31	18575.08
588.51	16547.59
588.70	15443.73
588.89	14231.33
589.09	12863.29
589.28	11290.45
589.47	9496.43
589.67	7901.06
589.86	6637.47
590.06	5128.11
590.25	3880.90
590.44	3166.16
590.64	2570.20
590.83	2281.44
591.02	2056.16
591.22	1923.04
591.41	1910.75
591.60	1849.32
591.80	1949.67
591.99	1652.71
592.18	1738.73
592.38	1875.94
592.57	1755.11
592.76	1722.34
592.96	1814.50
593.15	1685.48
593.34	1800.16
593.54	1767.40
593.73	1753.06
593.92	1773.54
594.12	1691.62
594.31	1665.00
594.50	1849.32
594.70	1769.44
594.89	1828.84
595.08	1689.57
595.28	1705.96
595.47	2007.01
595.66	1765.35
595.86	1699.81
596.05	1746.92
596.24	1732.58
596.43	1822.69
596.63	1853.41
596.82	1787.88
597.01	1710.05
597.21	1812.45
597.40	1716.20
597.59	1710.05
597.79	1714.15
597.98	1783.78
598.17	1675.24
598.36	1859.56
598.56	1834.98
598.75	1705.96
598.94	1796.07
599.14	1730.53
599.33	1761.25
599.52	1771.49
599.71	1783.78
599.91	1777.64
600.10	1740.77
600.29	1626.09
600.48	1722.34
600.68	1734.63
600.87	1761.25
601.06	1693.67
601.26	1746.92
601.45	1732.58
601.64	1773.54
601.83	1806.31
602.03	1656.81
602.22	1679.33
602.41	1781.73
602.60	1802.21
602.80	1744.87
602.99	1720.29
603.18	1681.38
603.37	1714.15
603.57	1736.68
603.76	1789.92
603.95	1746.92
604.14	1701.86
604.34	1662.95
604.53	1667.05
604.72	1800.16
604.91	1738.73
605.10	1740.77
605.30	1644.52
605.49	1830.88
605.68	1781.73
605.87	1724.39
606.07	1753.06
606.26	1804.26
606.45	1820.64
606.64	1783.78
606.84	1613.80
607.03	1759.21
607.22	1796.07
607.41	1628.14
607.60	1755.11
607.80	1757.16
607.99	1785.83
608.18	1751.01
608.37	1746.92
608.56	1673.19
608.76	1761.25
608.95	1824.74
609.14	1716.20
609.33	1806.31
609.52	1789.92
609.72	1732.58
609.91	1703.91
610.10	1812.45
610.29	1773.54
610.48	1703.91
610.68	1802.21
610.87	1705.96
611.06	1775.59
611.25	1642.47
611.44	1794.02
611.63	1742.82
611.83	1701.86
612.02	1665.00
612.21	1763.30
612.40	1646.57
612.59	1673.19
612.79	1613.80
612.98	1775.59
613.17	1775.59
613.36	1716.20
613.55	1828.84
613.74	1765.35
613.93	1660.90
614.13	1720.29
614.32	1714.15
614.51	1755.11
614.70	1753.06
614.89	1714.15
615.08	1798.12
615.28	2129.89
615.47	1681.38
615.66	1693.67
615.85	1748.97
616.04	1734.63
616.23	1820.64
616.42	1642.47
616.62	1763.30
616.81	1742.82
617.00	1787.88
617.19	1787.88
617.38	1671.14
617.57	1708.01
617.76	1753.06
617.95	1796.07
618.15	1787.88
618.34	1763.30
618.53	1658.85
618.72	1783.78
618.91	1851.36
619.10	1802.21
619.29	1724.39
619.48	1796.07
619.68	1636.33
619.87	1699.81
620.06	1687.53
620.25	1740.77
620.44	1748.97
620.63	1693.67
620.82	1703.91
621.01	1597.42
621.20	1632.23
621.39	1781.73
621.59	1755.11
621.78	1624.04
621.97	1677.29
622.16	1710.05
622.35	1763.30
622.54	1775.59
622.73	1746.92
622.92	1652.71
623.11	1738.73
623.30	1738.73
623.49	1728.49
623.68	1734.63
623.88	1720.29
624.07	1697.77
624.26	1685.48
624.45	1757.16
624.64	1693.67
624.83	1742.82
625.02	1695.72
625.21	1693.67
625.40	1808.36
625.59	1710.05
625.78	1763.30
625.97	1773.54
626.16	1812.45
626.35	1753.06
626.54	1708.01
626.74	1779.68
626.93	1683.43
627.12	1679.33
627.31	1738.73
627.50	1724.39
627.69	1812.45
627.88	1763.30
628.07	1665.00
628.26	1572.84
628.45	1701.86
628.64	1593.32
628.83	1677.29
629.02	1695.72
629.21	1783.78
629.40	1705.96
629.59	1636.33
629.78	1611.75
629.97	1738.73
630.16	1699.81
630.35	1673.19
630.54	1679.33
630.73	1654.76
630.92	1740.77
631.11	1708.01
631.30	1699.81
631.49	1781.73
631.68	1730.53
631.87	1742.82
632.06	1662.95
632.25	1779.68
632.44	1740.77
632.63	1763.30
632.82	1632.23
633.01	1607.66
633.20	1685.48
633.39	1583.08
633.58	1648.61
633.77	1710.05
633.96	1703.91
634.15	1724.39
634.34	1787.88
634.53	1789.92
634.72	1724.39
634.91	1619.94
635.10	1683.43
635.29	1800.16
635.48	1595.37
635.67	1687.53
635.86	1673.19
636.05	1794.02
636.24	1757.16
636.43	1769.44
636.62	1794.02
636.81	1538.02
637.00	1736.68
637.19	1845.22
637.38	1763.30
637.57	1640.42
637.76	1697.77
637.95	1646.57
638.14	1658.85
638.33	1667.05
638.52	1742.82
638.71	1615.85
638.89	1675.24
639.08	1853.41
639.27	1857.51
639.46	1705.96
639.65	1869.80
639.84	1697.77
640.03	1740.77
640.22	1679.33
640.41	1771.49
640.60	1683.43
640.79	1746.92
640.98	1669.09
641.17	1626.09
641.36	1781.73
641.55	1730.53
641.74	1683.43
641.92	1683.43
642.11	1726.44
642.30	1740.77
642.49	1660.90
642.68	1662.95
642.87	1703.91
643.06	1779.68
643.25	1681.38
643.44	1720.29
643.63	1656.81
643.82	1738.73
644.00	1591.27
644.19	1714.15
644.38	1699.81
644.57	1632.23
644.76	1755.11
644.95	1714.15
645.14	1720.29
645.33	1734.63
645.52	1742.82
645.71	1615.85
645.89	1683.43
646.08	1650.66
646.27	1671.14
646.46	1861.60
646.65	1624.04
646.84	1712.10
647.03	1728.49
647.22	1794.02
647.40	1765.35
647.59	1681.38
647.78	1662.95
647.97	1701.86
648.16	1644.52
648.35	1816.55
648.54	1767.40
648.73	1691.62
648.91	1769.44
649.10	1746.92
649.29	1650.66
649.48	1753.06
649.67	1726.44
649.86	1746.92
650.05	1632.23
650.23	1796.07
650.42	1673.19
650.61	1705.96
650.80	1732.58
650.99	1832.93
651.18	1722.34
651.36	1656.81
651.55	1703.91
651.74	1755.11
651.93	1687.53
652.12	1585.13
652.31	1656.81
652.49	1654.76
652.68	1535.98
652.87	1804.26
653.06	1714.15
653.25	1755.11
653.44	1734.63
653.62	1808.36
653.81	1662.95
654.00	1697.77
654.19	1705.96
654.38	1812.45
654.56	1718.25
654.75	1722.34
654.94	1765.35
655.13	1769.44
655.32	1650.66
655.51	1832.93
655.69	1648.61
655.88	1746.92
656.07	1736.68
656.26	1748.97
656.45	1632.23
656.63	1712.10
656.82	1677.29
657.01	1765.35
657.20	1669.09
657.38	1787.88
657.57	1734.63
657.76	1652.71
657.95	1773.54
658.14	1693.67
658.32	1738.73
658.51	1640.42
658.70	1691.62
658.89	1716.20
659.08	1703.91
659.26	1742.82
659.45	1720.29
659.64	1736.68
659.83	1570.79
660.01	1898.47
660.20	1753.06
660.39	1769.44
660.58	1599.46
660.76	1777.64
660.95	1665.00
661.14	1730.53
661.33	1669.09
661.51	1611.75
661.70	1705.96
661.89	1695.72
662.08	1677.29
662.26	1669.09
662.45	1724.39
662.64	1822.69
662.83	1794.02
663.01	1599.46
663.20	1718.25
663.39	1816.55
663.58	1646.57
663.76	1656.81
663.95	1800.16
664.14	1714.15
664.32	1808.36
664.51	1648.61
664.70	1665.00
664.89	1740.77
665.07	1644.52
665.26	1734.63
665.45	1636.33
665.64	1794.02
665.82	1656.81
666.01	1783.78
666.20	1693.67
666.38	1765.35
666.57	1890.28
666.76	2199.52
666.95	4409.28
667.13	10405.73
667.32	15132.44
667.51	17821.42
667.69	19662.55
667.88	17979.12
668.07	12724.03
668.25	9840.49
668.44	8290.18
668.63	7341.97
668.81	6969.24
669.00	6447.01
669.19	5695.40
669.38	5164.98
669.56	4765.62
669.75	3966.92
669.94	3493.83
670.12	2891.73
670.31	2490.33
670.50	2248.67
670.68	2093.02
670.87	1923.04
671.06	1791.97
671.24	1732.58
671.43	1755.11
671.62	1759.21
671.80	1697.77
671.99	1705.96
672.18	1812.45
672.36	1818.60
672.55	1775.59
672.74	1669.09
672.92	1726.44
673.11	1740.77
673.29	1685.48
673.48	1703.91
673.67	1636.33
673.85	1794.02
674.04	1730.53
674.23	1689.57
674.41	1796.07
674.60	1619.94
674.79	1718.25
674.97	1636.33
675.16	1753.06
675.34	1751.01
675.53	1724.39
675.72	1820.64
675.90	1847.27
676.09	1755.11
676.28	1763.30
676.46	1681.38
676.65	1761.25
676.83	1624.04
677.02	1720.29
677.21	1763.30
677.39	1611.75
677.58	1644.52
677.77	1640.42
677.95	1689.57
678.14	1660.90
678.32	1742.82
678.51	1662.95
678.70	1863.65
678.88	1687.53
679.07	1751.01
679.25	1677.29
679.44	1687.53
679.63	1667.05
679.81	1697.77
680.00	1783.78
680.18	1730.53
680.37	1787.88
680.55	1771.49
680.74	1656.81
680.93	1646.57
681.11	1650.66
681.30	1732.58
681.48	1675.24
681.67	1718.25
681.85	1748.97
682.04	1658.85
682.23	1755.11
682.41	1693.67
682.60	1681.38
682.78	1693.67
682.97	1662.95
683.15	1708.01
683.34	1828.84
683.53	1851.36
683.71	1660.90
683.90	1830.88
684.08	1779.68
684.27	1671.14
684.45	1742.82
684.64	1695.72
684.82	1746.92
685.01	1796.07
685.19	1738.73
685.38	1818.60
685.57	1687.53
685.75	1658.85
685.94	1701.86
686.12	1693.67
686.31	1705.96
686.49	1779.68
686.68	1650.66
686.86	1753.06
687.05	1732.58
687.23	1783.78
687.42	1683.43
687.60	1671.14
687.79	1787.88
687.97	1779.68
688.16	1712.10
688.34	1849.32
688.53	1652.71
688.71	1716.20
688.90	1816.55
689.08	1673.19
689.27	1626.09
689.45	1722.34
689.64	1746.92
689.82	1654.76
690.01	1687.53
690.19	1714.15
690.38	1738.73
690.56	1732.58
690.75	1640.42
690.93	1669.09
691.12	1607.66
691.30	1705.96
691.49	1669.09
691.67	1697.77
691.86	1830.88
692.04	1638.38
692.23	1662.95
692.41	1681.38
692.60	1816.55
692.78	1798.12
692.97	1699.81
693.15	1708.01
693.34	1920.99
693.52	1761.25
693.71	1753.06
693.89	1665.00
694.08	1662.95
694.26	1802.21
694.44	1769.44
694.63	1683.43
694.81	1710.05
695.00	1656.81
695.18	1806.31
695.37	1816.55
695.55	1761.25
695.74	1656.81
695.92	1624.04
696.10	1759.21
696.29	1656.81
696.47	1673.19
696.66	1607.66
696.84	1609.70
697.03	1681.38
697.21	1898.47
697.40	2340.83
697.58	1781.73
697.76	1658.85
697.95	1632.23
698.13	1710.05
698.32	1660.90
698.50	1728.49
698.68	1705.96
698.87	1767.40
699.05	1802.21
699.24	1701.86
699.42	1669.09
699.61	1748.97
699.79	1675.24
699.97	1669.09
700.16	1689.57
700.34	1603.56
700.53	1599.46
700.71	1812.45
700.89	1796.07
701.08	1652.71
701.26	1710.05
701.45	2082.78
701.63	1628.14
701.81	1726.44
702.00	1705.96
702.18	1714.15
702.37	1656.81
702.55	1695.72
702.73	1648.61
702.92	1615.85
703.10	1738.73
703.28	1744.87
703.47	1638.38
703.65	1763.30
703.84	1724.39
704.02	1687.53
704.20	1738.73
704.39	1705.96
704.57	1697.77
704.75	1775.59
704.94	1738.73
705.12	1714.15
705.30	1777.64
705.49	2279.39
705.67	4302.78
705.86	9559.92
706.04	12595.01
706.22	14774.05
706.41	15478.55
706.59	13809.45
706.77	9815.91
706.96	7362.45
707.14	6735.77
707.32	6008.74
707.51	5568.43
707.69	5042.10
707.87	4235.20
708.06	3631.05
708.24	3026.90
708.42	2400.22
708.61	2258.91
708.79	1923.04
708.97	1896.42
709.16	1837.03
709.34	1830.88
709.52	1804.26
709.71	1757.16
709.89	1767.40
710.07	1605.61
710.26	1722.34
710.44	1787.88
710.62	1763.30
710.80	1718.25
710.99	1798.12
711.17	1699.81
711.35	1681.38
711.54	1708.01
711.72	1806.31
711.90	1716.20
712.09	1744.87
712.27	1742.82
712.45	1681.38
712.63	1681.38
712.82	1669.09
713.00	1757.16
713.18	1701.86
713.37	1830.88
713.55	1681.38
713.73	1742.82
713.91	1740.77
714.10	1716.20
714.28	1665.00
714.46	1732.58
714.65	1650.66
714.83	1755.11
715.01	1732.58
715.19	1636.33
715.38	1656.81
715.56	1769.44
715.74	1742.82
715.92	1603.56
716.11	1794.02
716.29	1617.90
716.47	1693.67
716.65	1656.81
716.84	1613.80
717.02	1765.35
717.20	1603.56
717.38	1693.67
717.57	1701.86
717.75	1728.49
717.93	1681.38
718.11	1779.68
718.30	1556.46
718.48	1689.57
718.66	1796.07
718.84	1753.06
719.03	1712.10
719.21	1644.52
719.39	1781.73
719.57	1714.15
719.75	1746.92
719.94	1689.57
720.12	1718.25
720.30	1671.14
720.48	1685.48
720.67	1611.75
720.85	1611.75
721.03	1662.95
721.21	1683.43
721.39	1732.58
721.58	1738.73
721.76	1691.62
721.94	1708.01
722.12	1751.01
722.30	1759.21
722.49	1724.39
722.67	1687.53
722.85	1773.54
723.03	1654.76
723.21	1615.85
723.40	1736.68
723.58	1820.64
723.76	1695.72
723.94	1785.83
724.12	1744.87
724.30	1757.16
724.49	1757.16
724.67	1619.94
724.85	1751.01
725.03	1646.57
725.21	1720.29
725.40	1775.59
725.58	1591.27
725.76	1779.68
725.94	1640.42
726.12	1599.46
726.30	1714.15
726.49	1726.44
726.67	1673.19
726.85	1685.48
727.03	1769.44
727.21	2172.89
727.39	2897.88
727.57	3823.56
727.76	4147.14
727.94	4427.71
728.12	4431.80
728.30	3760.07
728.48	3035.09
728.66	2793.43
728.84	2615.26
729.03	2351.07
729.21	2197.47
729.39	2004.96
729.57	1871.84
729.75	1777.64
729.93	1845.22
730.11	1718.25
730.30	1677.29
730.48	1667.05
730.66	1830.88
730.84	1740.77
731.02	1681.38
731.20	1617.90
731.38	1685.48
731.56	1611.75
731.74	1718.25
731.93	1738.73
732.11	1732.58
732.29	1671.14
732.47	1724.39
732.65	1679.33
732.83	1740.77
733.01	1718.25
733.19	1621.99
733.37	1757.16
733.56	1728.49
733.74	1650.66
733.92	1732.58
734.10	1662.95
734.28	1751.01
734.46	1660.90
734.64	1652.71
734.82	1687.53
735.00	1583.08
735.18	1710.05
735.36	1708.01
735.54	1769.44
735.73	1691.62
735.91	1662.95
736.09	1767.40
736.27	1646.57
736.45	1734.63
736.63	1570.79
736.81	1710.05
736.99	1755.11
737.17	1804.26
737.35	1695.72
737.53	1611.75
737.71	1656.81
737.89	1763.30
738.07	1624.04
738.25	1593.32
738.43	1617.90
738.61	1685.48
738.80	1611.75
738.98	1710.05
739.16	1697.77
739.34	1630.18
739.52	1753.06
739.70	1751.01
739.88	1753.06
740.06	1800.16
740.24	1607.66
740.42	1740.77
740.60	1613.80
740.78	1660.90
740.96	1587.18
741.14	1650.66
741.32	1665.00
741.50	1638.38
741.68	1818.60
741.86	1771.49
742.04	1669.09
742.22	1683.43
742.40	1681.38
742.58	1712.10
742.76	1644.52
742.94	1720.29
743.12	1601.51
743.30	1697.77
743.48	1755.11
743.66	1654.76
743.84	1703.91
744.02	1724.39
744.20	1705.96
744.38	1665.00
744.56	1687.53
744.74	1789.92
744.92	1714.15
745.10	1787.88
745.28	1738.73
745.46	1787.88
745.64	1660.90
745.82	1742.82
746.00	1712.10
746.18	1734.63
746.36	1695.72
746.54	1724.39
746.72	1673.19
746.90	1611.75
747.08	1744.87
747.26	1775.59
747.44	1734.63
747.62	1753.06
747.80	1730.53
747.98	1746.92
748.15	1665.00
748.33	1802.21
748.51	1718.25
748.69	1718.25
748.87	1691.62
749.05	1640.42
749.23	1636.33
749.41	1687.53
749.59	1722.34
749.77	1716.20
749.95	1689.57
750.13	1708.01
750.31	1736.68
750.49	1654.76
750.67	1660.90
750.85	1828.84
751.03	1730.53
751.20	1847.27
751.38	1669.09
751.56	1636.33
751.74	1738.73
751.92	1669.09
752.10	1615.85
752.28	1794.02
752.46	1689.57
752.64	1718.25
752.82	1689.57
753.00	1746.92
753.18	1675.24
753.35	1699.81
753.53	1669.09
753.71	1714.15
753.89	1724.39
754.07	1703.91
754.25	1617.90
754.43	1710.05
754.61	1636.33
754.79	1650.66
754.97	1712.10
755.14	1681.38
755.32	1566.70
755.50	1687.53
755.68	1763.30
755.86	1642.47
756.04	1773.54
756.22	1619.94
756.40	1800.16
756.57	1789.92
756.75	1703.91
756.93	1777.64
757.11	1740.77
757.29	1630.18
757.47	1617.90
757.65	1593.32
757.82	1613.80
758.00	1636.33
758.18	1677.29
758.36	1685.48
758.54	1814.50
758.72	1677.29
758.90	1759.21
759.07	1740.77
759.25	1624.04
759.43	1726.44
759.61	1642.47
759.79	2183.13
759.97	1787.88
760.15	1744.87
760.32	1650.66
760.50	1697.77
760.68	1781.73
760.86	1636.33
761.04	1765.35
761.22	1701.86
761.39	1695.72
761.57	1724.39
761.75	1671.14
761.93	1673.19
762.11	1748.97
762.28	1685.48
762.46	1607.66
762.64	1742.82
762.82	1619.94
763.00	1619.94
763.18	1867.75
763.35	1665.00
763.53	1695.72
763.71	1679.33
763.89	1734.63
764.07	1648.61
764.24	1802.21
764.42	1714.15
764.60	1675.24
764.78	1746.92
764.96	1806.31
765.13	1736.68
765.31	1691.62
765.49	1693.67
765.67	1675.24
765.84	1628.14
766.02	1648.61
766.20	1642.47
766.38	1740.77
766.56	1714.15
766.73	1687.53
766.91	1640.42
767.09	1646.57
767.27	1853.41
767.44	1705.96
767.62	1761.25
767.80	1675.24
767.98	1693.67
768.15	1699.81
768.33	1705.96
768.51	1826.79
768.69	1724.39
768.87	1716.20
769.04	1740.77
769.22	1808.36
769.40	1765.35
769.58	1847.27
769.75	1744.87
769.93	1779.68
770.11	1724.39
770.28	1646.57
770.46	1673.19
770.64	1705.96
770.82	1640.42
770.99	1689.57
771.17	1677.29
771.35	1619.94
771.53	1753.06
771.70	1624.04
771.88	1701.86
772.06	1681.38
772.23	1697.77
772.41	1718.25
772.59	1691.62
772.77	1656.81
772.94	1703.91
773.12	1720.29
773.30	1701.86
773.47	1726.44
773.65	1624.04
773.83	1761.25
774.01	1765.35
774.18	1566.70
774.36	1675.24
774.54	1636.33
774.71	1619.94
774.89	1630.18
775.07	1669.09
775.24	1654.76
775.42	1660.90
775.60	1753.06
775.78	1599.46
775.95	1587.18
776.13	1599.46
776.31	1548.26
776.48	1734.63
776.66	1732.58
776.84	1652.71
777.01	1660.90
777.19	1746.92
777.37	1701.86
777.54	1687.53
777.72	1855.46
777.90	1691.62
778.07	1726.44
778.25	1898.47
778.43	1757.16
778.60	1673.19
778.78	1777.64
778.96	1673.19
779.13	1691.62
779.31	1791.97
779.49	1632.23
779.66	1730.53
779.84	1689.57
780.01	1679.33
780.19	1640.42
780.37	1705.96
780.54	1775.59
780.72	1671.14
780.90	1671.14
781.07	1693.67
781.25	1689.57
781.43	1744.87
781.60	1705.96
781.78	1746.92
781.95	1726.44
782.13	1630.18
782.31	1632.23
782.48	1636.33
782.66	1701.86
782.83	1855.46
783.01	1742.82
783.19	1736.68
783.36	1658.85
783.54	1638.38
783.72	1763.30
783.89	1783.78
784.07	1728.49
784.24	1744.87
784.42	1810.40
784.60	1708.01
784.77	1689.57
784.95	1591.27
785.12	1746.92
785.30	1650.66
785.47	1699.81
785.65	1701.86
785.83	1685.48
786.00	1714.15
786.18	1695.72
786.35	1648.61
786.53	1685.48
786.71	1751.01
786.88	1675.24
787.06	1691.62
787.23	1689.57
787.41	1665.00
787.58	1648.61
787.76	1671.14
787.94	1791.97
788.11	1701.86
788.29	1671.14
788.46	1703.91
788.64	1650.66
788.81	1642.47
788.99	1638.38
789.16	1701.86
789.34	1738.73
789.52	1660.90
789.69	1683.43
789.87	1591.27
790.04	1701.86
790.22	1695.72
790.39	1834.98
790.57	1650.66
790.74	1603.56
790.92	1740.77
791.09	1591.27
791.27	1658.85
791.44	1810.40
791.62	1708.01
791.79	1773.54
791.97	1724.39
792.15	1849.32
792.32	1726.44
792.50	1785.83
792.67	1751.01
792.85	1779.68
793.02	1685.48
793.20	1697.77
793.37	1689.57
793.55	1806.31
793.72	1634.28
793.90	1730.53
794.07	1617.90
794.25	1630.18
794.42	1691.62
794.60	1779.68
794.77	1740.77
794.95	1763.30
795.12	1777.64
795.30	1632.23
795.47	1560.55
795.65	1959.91
795.82	1675.24
796.00	1701.86
796.17	1671.14
796.34	1667.05
796.52	1701.86
796.69	1634.28
796.87	1785.83
797.04	1644.52
797.22	1802.21
797.39	1789.92
797.57	1732.58
797.74	1730.53
797.92	1755.11
798.09	1724.39
798.27	1716.20
798.44	1705.96
798.62	1615.85
798.79	1746.92
798.96	1746.92
799.14	1626.09
799.31	1808.36
799.49	1656.81
799.66	1624.04
799.84	1699.81
800.01	1724.39
800.19	1630.18
800.36	1593.32
800.53	1724.39
800.71	1722.34
800.88	1791.97
801.06	1642.47
801.23	1632.23
801.41	1654.76
801.58	1693.67
801.75	1646.57
801.93	1724.39
802.10	1728.49
802.28	1669.09
802.45	1671.14
802.63	1740.77
802.80	1804.26
802.97	1638.38
803.15	1693.67
803.32	1685.48
803.50	1679.33
803.67	1656.81
803.84	1660.90
804.02	1665.00
804.19	1640.42
804.37	1585.13
804.54	1673.19
804.71	1667.05
804.89	1599.46
805.06	1746.92
805.24	1679.33
805.41	1607.66
805.58	1712.10
805.76	1808.36
805.93	1650.66
806.10	1802.21
806.28	1701.86
806.45	1753.06
806.63	1716.20
806.80	1732.58
806.97	1761.25
807.15	1701.86
807.32	1787.88
807.49	1681.38
807.67	1611.75
807.84	1712.10
808.01	1665.00
808.19	1798.12
808.36	1888.23
808.54	1648.61
808.71	1710.05
808.88	1683.43
809.06	1789.92
809.23	1806.31
809.40	1574.89
809.58	1708.01
809.75	1697.77
809.92	1615.85
810.10	1779.68
810.27	1714.15
810.44	1703.91
810.62	1742.82
810.79	1705.96
810.96	1710.05
811.14	1746.92
811.31	1773.54
811.48	1681.38
811.66	1652.71
811.83	1720.29
812.00	1734.63
812.18	1650.66
812.35	1820.64
812.52	1671.14
812.69	1644.52
812.87	1736.68
813.04	1679.33
813.21	1654.76
813.39	1691.62
813.56	1675.24
813.73	1775.59
813.91	1574.89
814.08	1667.05
814.25	1701.86
814.42	1634.28
814.60	1685.48
814.77	1705.96
814.94	1738.73
815.12	1667.05
815.29	1734.63
815.46	1658.85
815.63	1757.16
815.81	1679.33
815.98	1687.53
816.15	1697.77
816.33	1703.91
816.50	1724.39
816.67	1695.72
816.84	1710.05
817.02	1675.24
817.19	1755.11
817.36	1759.21
817.53	1730.53
817.71	1617.90
817.88	1705.96
818.05	1621.99
818.22	1656.81
818.40	1812.45
818.57	1644.52
818.74	1734.63
818.91	1642.47
819.09	1773.54
819.26	1650.66
819.43	1710.05
819.60	1675.24
819.78	1740.77
819.95	1773.54
820.12	1621.99
820.29	1757.16
820.47	1800.16
820.64	1687.53
820.81	1632.23
820.98	1626.09
821.15	1660.90
821.33	1669.09
821.50	1646.57
821.67	1748.97
821.84	1689.57
822.02	1769.44
822.19	1759.21
822.36	1691.62
822.53	1681.38
822.70	1593.32
822.88	1708.01
823.05	1759.21
823.22	1726.44
823.39	1677.29
823.56	1679.33
823.74	1759.21
823.91	1605.61
824.08	1626.09
824.25	1636.33
824.42	1757.16
824.60	1648.61
824.77	1773.54
824.94	1714.15
825.11	1660.90
825.28	1542.12
825.45	1701.86
825.63	1667.05
825.80	1634.28
825.97	1607.66
826.14	1636.33
826.31	1667.05
826.48	1748.97
826.66	1578.98
826.83	1662.95
827.00	1648.61
827.17	1646.57
827.34	1636.33
827.51	1642.47
827.69	1630.18
827.86	1626.09
828.03	1640.42
828.20	1736.68
828.37	1605.61
828.54	1656.81
828.71	1660.90
828.89	1794.02
829.06	1687.53
829.23	1808.36
829.40	1638.38
829.57	1636.33
829.74	1724.39
829.91	1665.00
830.09	1724.39
830.26	1675.24
830.43	1771.49
830.60	1708.01
830.77	1759.21
830.94	1765.35
831.11	1753.06
831.28	1646.57
831.46	1730.53
831.63	1628.14
831.80	1791.97
831.97	1628.14
832.14	1685.48
832.31	1640.42
832.48	1693.67
832.65	1787.88
832.82	1751.01
832.99	1730.53
833.17	1634.28
833.34	1769.44
833.51	1697.77
833.68	1619.94
833.85	1734.63
834.02	1642.47
834.19	1683.43
834.36	1638.38
834.53	1689.57
834.70	1751.01
834.87	1722.34
835.04	1746.92
835.22	1658.85
835.39	1697.77
835.56	1673.19
835.73	1652.71
835.90	1738.73
836.07	1705.96
836.24	1724.39
836.41	1660.90
836.58	1648.61
836.75	1724.39
836.92	1681.38
837.09	1585.13
837.26	1736.68
837.43	1677.29
837.60	1789.92
837.77	1722.34
837.94	1781.73
838.12	1777.64
838.29	1728.49
838.46	1630.18
838.63	1691.62
838.80	1767.40
838.97	1800.16
839.14	1751.01
839.31	1759.21
839.48	1705.96
839.65	1669.09
839.82	1812.45
839.99	1728.49
840.16	1632.23
840.33	1679.33
840.50	1654.76
840.67	1677.29
840.84	1566.70
841.01	1714.15
841.18	1638.38
841.35	1695.72
841.52	1708.01
841.69	1847.27
841.86	1712.10
842.03	1703.91
842.20	1679.33
842.37	1787.88
842.54	1726.44
842.71	1685.48
842.88	1638.38
843.05	1724.39
843.22	1662.95
843.39	1769.44
843.56	1683.43
843.73	1667.05
843.90	1703.91
844.07	1705.96
844.24	1718.25
844.41	1691.62
844.58	1734.63
844.75	1644.52
844.92	1712.10
845.09	1734.63
845.26	1654.76
845.43	1746.92
845.60	1683.43
845.77	1710.05
845.94	1718.25
846.10	1763.30
846.27	1697.77
846.44	1665.00
846.61	1648.61
846.78	1697.77
846.95	1738.73
847.12	1736.68
847.29	1755.11
847.46	1619.94
847.63	1769.44
847.80	1695.72
847.97	1613.80
848.14	1826.79
848.31	1679.33
848.48	1652.71
848.65	1738.73
848.82	1683.43
848.98	1779.68
849.15	1744.87
849.32	1751.01
849.49	1763.30
849.66	1667.05
849.83	1703.91
850.00	1669.09
850.17	1736.68
850.34	1601.51
850.51	1701.86
850.68	1691.62
850.85	1789.92
851.01	1720.29
851.18	1710.05
851.35	1679.33
851.52	1734.63
851.69	1806.31
851.86	1626.09
852.03	1708.01
852.20	1724.39
852.37	1693.67
852.53	1703.91
852.70	1693.67
852.87	1746.92
853.04	1820.64
853.21	1654.76
853.38	1718.25
853.55	1787.88
853.72	1779.68
853.89	1667.05
854.05	1660.90
854.22	1675.24
854.39	1673.19
854.56	1728.49
854.73	1726.44
854.90	1679.33
855.07	1671.14
855.23	1701.86
855.40	1742.82
855.57	1708.01
855.74	1628.14
855.91	1875.94
856.08	1650.66
856.25	1642.47
856.41	1619.94
856.58	1648.61
856.75	1718.25
856.92	1671.14
857.09	1769.44
857.26	1697.77
857.42	1748.97
857.59	1806.31
857.76	1681.38
857.93	1675.24
858.10	1718.25
858.27	1654.76
858.43	1665.00
858.60	1665.00
858.77	1607.66
858.94	1681.38
859.11	1757.16
859.27	1632.23
859.44	1628.14
859.61	1757.16
859.78	1718.25
859.95	1734.63
860.12	1656.81
860.28	1761.25
860.45	1839.08
860.62	1642.47
860.79	1683.43
860.95	1683.43
861.12	1640.42
861.29	1656.81
861.46	1671.14
861.63	1699.81
861.79	1693.67
861.96	1716.20
862.13	1773.54
862.30	1736.68
862.47	1597.42
862.63	1613.80
862.80	1775.59
862.97	1708.01
863.14	1718.25
863.30	1800.16
863.47	1624.04
863.64	1804.26
863.81	1681.38
863.97	1695.72
864.14	1689.57
864.31	1687.53
864.48	1755.11
864.65	1626.09
864.81	1732.58
864.98	1714.15
865.15	1746.92
865.32	1798.12
865.48	1765.35
865.65	1734.63
865.82	1628.14
865.98	1779.68
866.15	1800.16
866.32	1648.61
866.49	1650.66
866.65	1701.86
866.82	1673.19
866.99	1667.05
867.16	1597.42
867.32	1732.58
867.49	1683.43
867.66	1658.85
867.83	1673.19
867.99	1574.89
868.16	1656.81
868.33	1609.70
868.49	1632.23
868.66	1748.97
868.83	1798.12
868.99	1710.05
869.16	1699.81
869.33	1798.12
869.50	1779.68
869.66	1701.86
869.83	1646.57
870.00	1658.85
870.16	1724.39
870.33	1669.09
870.50	1673.19
870.66	1591.27
870.83	1789.92
871.00	1736.68
871.17	1708.01
871.33	1732.58
871.50	1769.44
871.67	1662.95
871.83	1681.38
872.00	1826.79
872.17	1648.61
872.33	1738.73
872.50	1714.15
872.67	1585.13
872.83	1677.29
873.00	1775.59
873.17	1632.23
873.33	1675.24
873.50	1791.97
873.67	1626.09
873.83	1689.57
874.00	1691.62
874.16	1734.63
874.33	1701.86
874.50	1669.09
874.66	1773.54
874.83	1746.92
875.00	1732.58
875.16	1708.01
875.33	1742.82
875.50	1550.31
875.66	1685.48
875.83	1644.52
875.99	1732.58
876.16	1648.61
876.33	1679.33
876.49	1677.29
876.66	1683.43
876.83	1687.53
876.99	1599.46
877.16	1740.77
877.32	1689.57
877.49	1662.95
877.66	1683.43
877.82	1667.05
877.99	1730.53
878.15	1730.53
878.32	1746.92
878.49	1699.81
878.65	1601.51
878.82	1701.86
878.98	1648.61
879.15	1761.25
879.32	1740.77
879.48	1748.97
879.65	1665.00
879.81	1632.23
879.98	1699.81
880.15	1740.77
880.31	1759.21
880.48	1628.14
880.64	1771.49
880.81	1751.01
880.97	1726.44
881.14	1767.40
881.31	1624.04
881.47	1841.12
881.64	1716.20
881.80	1652.71
881.97	1681.38
882.13	1732.58
882.30	1648.61
882.47	1648.61
882.63	1662.95
882.80	1679.33
882.96	1621.99
883.13	1699.81
883.29	1671.14
883.46	1789.92
883.62	1820.64
883.79	1675.24
883.95	1675.24
884.12	1658.85
884.29	1751.01
884.45	1634.28
884.62	1773.54
884.78	1656.81
884.95	1804.26
885.11	1685.48
885.28	1728.49
885.44	1671.14
885.61	1720.29
885.77	1697.77
885.94	1744.87
886.10	1660.90
886.27	1675.24
886.43	1761.25
886.60	1732.58
886.76	1689.57
886.93	1673.19
887.09	1740.77
887.26	1658.85
887.42	1740.77
887.59	1697.77
887.75	1853.41
887.92	1677.29
888.08	1738.73
888.25	1834.98
888.41	1689.57
888.58	1746.92
888.74	1705.96
888.91	1683.43
>>>>>End Processed Spectral Data<<<<<
