SpectraSuite Data File
++++++++++++++++++++++++++++++++++++
Date: Mon Jun 06 14:10:37 CEST 2016
User: root
Dark Spectrum Present: No
Reference Spectrum Present: No
Number of Sampled Component Spectra: 1
Spectrometers: USB4C02835
Integration Time (usec): 100000 (USB4C02835)
Spectra Averaged: 1 (USB4C02835)
Boxcar Smoothing: 0 (USB4C02835)
Correct for Electrical Dark: No (USB4C02835)
Strobe/Lamp Enabled: No (USB4C02835)
Correct for Detector Non-linearity: No (USB4C02835)
Correct for Stray Light: No (USB4C02835)
Number of Pixels in Processed Spectrum: 3648
>>>>>Begin Processed Spectral Data<<<<<
177.47	1482.73
177.69	1482.73
177.91	1482.73
178.13	1495.02
178.36	1556.46
178.58	1624.04
178.80	1785.83
179.02	1654.76
179.24	1652.71
179.46	1644.52
179.68	1740.77
179.90	1771.49
180.13	1734.63
180.35	1697.77
180.57	1636.33
180.79	1744.87
181.01	1738.73
181.23	1816.55
181.45	1810.40
181.67	1695.72
181.90	1685.48
182.12	1660.90
182.34	1632.23
182.56	1716.20
182.78	1740.77
183.00	1730.53
183.22	1701.86
183.44	1624.04
183.66	1853.41
183.89	1843.17
184.11	1683.43
184.33	1787.88
184.55	1748.97
184.77	1748.97
184.99	1675.24
185.21	1685.48
185.43	1902.56
185.65	1626.09
185.87	1681.38
186.10	1814.50
186.32	1787.88
186.54	1755.11
186.76	1845.22
186.98	1656.81
187.20	1673.19
187.42	1718.25
187.64	1718.25
187.86	1699.81
188.08	1685.48
188.30	1699.81
188.52	1740.77
188.75	1787.88
188.97	1802.21
189.19	1613.80
189.41	1675.24
189.63	1751.01
189.85	1658.85
190.07	1560.55
190.29	1607.66
190.51	1671.14
190.73	1609.70
190.95	1853.41
191.17	1769.44
191.39	1568.74
191.61	1609.70
191.84	1730.53
192.06	1742.82
192.28	1607.66
192.50	1855.46
192.72	1705.96
192.94	1677.29
193.16	1806.31
193.38	1742.82
193.60	1578.98
193.82	1695.72
194.04	1771.49
194.26	1722.34
194.48	1685.48
194.70	1685.48
194.92	1624.04
195.14	1617.90
195.36	1677.29
195.58	1785.83
195.80	1677.29
196.02	1558.50
196.24	1685.48
196.46	1714.15
196.69	1660.90
196.91	1820.64
197.13	1691.62
197.35	1621.99
197.57	1730.53
197.79	1718.25
198.01	1773.54
198.23	1695.72
198.45	1675.24
198.67	1656.81
198.89	1722.34
199.11	1730.53
199.33	1679.33
199.55	1568.74
199.77	1693.67
199.99	1800.16
200.21	1665.00
200.43	1695.72
200.65	1656.81
200.87	1632.23
201.09	1759.21
201.31	1697.77
201.53	1728.49
201.75	1656.81
201.97	1675.24
202.19	1685.48
202.41	1689.57
202.63	1785.83
202.85	1714.15
203.07	1662.95
203.29	1660.90
203.51	1619.94
203.73	1677.29
203.95	1918.95
204.17	1701.86
204.39	1695.72
204.61	1681.38
204.83	1779.68
205.05	1714.15
205.27	1769.44
205.49	1826.79
205.71	1712.10
205.93	1681.38
206.15	1595.37
206.37	1683.43
206.59	1597.42
206.81	1642.47
207.03	1710.05
207.25	1726.44
207.47	1775.59
207.69	1656.81
207.91	1783.78
208.13	1761.25
208.34	1630.18
208.56	1658.85
208.78	1736.68
209.00	1628.14
209.22	1689.57
209.44	1681.38
209.66	1734.63
209.88	1718.25
210.10	1660.90
210.32	1689.57
210.54	1820.64
210.76	1630.18
210.98	1732.58
211.20	1515.50
211.42	1732.58
211.64	1722.34
211.86	1789.92
212.08	1759.21
212.30	1705.96
212.52	1705.96
212.74	1757.16
212.96	1726.44
213.17	1759.21
213.39	1765.35
213.61	1748.97
213.83	1718.25
214.05	1697.77
214.27	1748.97
214.49	1693.67
214.71	1624.04
214.93	1785.83
215.15	1660.90
215.37	1738.73
215.59	1658.85
215.81	1669.09
216.03	1736.68
216.24	1691.62
216.46	1714.15
216.68	1714.15
216.90	1755.11
217.12	1722.34
217.34	1675.24
217.56	1751.01
217.78	1789.92
218.00	1738.73
218.22	1746.92
218.44	1746.92
218.66	1658.85
218.87	1849.32
219.09	1640.42
219.31	1714.15
219.53	1751.01
219.75	1609.70
219.97	1665.00
220.19	1697.77
220.41	1667.05
220.63	1767.40
220.85	1736.68
221.06	1689.57
221.28	1783.78
221.50	1697.77
221.72	1683.43
221.94	1705.96
222.16	1660.90
222.38	1748.97
222.60	1742.82
222.82	1755.11
223.03	1751.01
223.25	1628.14
223.47	1736.68
223.69	1843.17
223.91	1720.29
224.13	1681.38
224.35	1652.71
224.57	1751.01
224.78	1718.25
225.00	1658.85
225.22	1732.58
225.44	1615.85
225.66	1695.72
225.88	1654.76
226.10	1814.50
226.32	1724.39
226.53	1806.31
226.75	1689.57
226.97	1681.38
227.19	1757.16
227.41	1650.66
227.63	1648.61
227.85	1697.77
228.06	1689.57
228.28	1658.85
228.50	1701.86
228.72	1626.09
228.94	1652.71
229.16	1636.33
229.37	1656.81
229.59	1671.14
229.81	1789.92
230.03	1755.11
230.25	1619.94
230.47	1673.19
230.69	1658.85
230.90	1767.40
231.12	1671.14
231.34	1720.29
231.56	1773.54
231.78	1667.05
232.00	1736.68
232.21	1726.44
232.43	1667.05
232.65	1603.56
232.87	1689.57
233.09	1665.00
233.30	1640.42
233.52	1738.73
233.74	1722.34
233.96	1701.86
234.18	1665.00
234.40	1755.11
234.61	1877.99
234.83	1607.66
235.05	1585.13
235.27	1867.75
235.49	1832.93
235.70	1718.25
235.92	1775.59
236.14	1726.44
236.36	1773.54
236.58	1665.00
236.79	1691.62
237.01	1603.56
237.23	1656.81
237.45	1865.70
237.67	1658.85
237.88	1701.86
238.10	1716.20
238.32	1652.71
238.54	1632.23
238.76	1683.43
238.97	1601.51
239.19	1689.57
239.41	1691.62
239.63	1804.26
239.85	1619.94
240.06	1710.05
240.28	1695.72
240.50	1728.49
240.72	1683.43
240.93	1638.38
241.15	1843.17
241.37	1636.33
241.59	1779.68
241.81	1652.71
242.02	1638.38
242.24	1732.58
242.46	1746.92
242.68	1538.02
242.89	1708.01
243.11	1773.54
243.33	1685.48
243.55	1722.34
243.76	1744.87
243.98	1630.18
244.20	1656.81
244.42	1660.90
244.64	1769.44
244.85	1658.85
245.07	1644.52
245.29	1820.64
245.51	1646.57
245.72	1677.29
245.94	1738.73
246.16	1722.34
246.38	1767.40
246.59	1658.85
246.81	1646.57
247.03	1740.77
247.24	1642.47
247.46	1621.99
247.68	1681.38
247.90	1691.62
248.11	1716.20
248.33	1767.40
248.55	1710.05
248.77	1697.77
248.98	1751.01
249.20	1781.73
249.42	1689.57
249.64	1769.44
249.85	1675.24
250.07	1705.96
250.29	1685.48
250.50	1673.19
250.72	1574.89
250.94	1759.21
251.16	1847.27
251.37	1701.86
251.59	1736.68
251.81	1736.68
252.02	1720.29
252.24	1695.72
252.46	1730.53
252.68	1658.85
252.89	1673.19
253.11	1644.52
253.33	1800.16
253.54	1773.54
253.76	1642.47
253.98	1748.97
254.20	1689.57
254.41	1609.70
254.63	1689.57
254.85	1599.46
255.06	1681.38
255.28	1761.25
255.50	1689.57
255.71	1624.04
255.93	1689.57
256.15	1687.53
256.36	1619.94
256.58	1710.05
256.80	1746.92
257.02	1689.57
257.23	1703.91
257.45	1703.91
257.67	1724.39
257.88	1742.82
258.10	1820.64
258.32	1730.53
258.53	1734.63
258.75	1814.50
258.97	1665.00
259.18	1718.25
259.40	1660.90
259.62	1859.56
259.83	1781.73
260.05	1759.21
260.27	1976.29
260.48	1761.25
260.70	1681.38
260.92	1615.85
261.13	1611.75
261.35	1714.15
261.57	1660.90
261.78	1609.70
262.00	1599.46
262.22	1738.73
262.43	1703.91
262.65	1703.91
262.86	1746.92
263.08	1857.51
263.30	1691.62
263.51	1595.37
263.73	1652.71
263.95	1755.11
264.16	1675.24
264.38	1669.09
264.60	1716.20
264.81	1656.81
265.03	1751.01
265.25	1759.21
265.46	1705.96
265.68	1726.44
265.89	1673.19
266.11	1660.90
266.33	1787.88
266.54	1726.44
266.76	1755.11
266.98	1738.73
267.19	1814.50
267.41	1751.01
267.62	1746.92
267.84	1626.09
268.06	1681.38
268.27	1689.57
268.49	1730.53
268.70	1720.29
268.92	1675.24
269.14	1662.95
269.35	1621.99
269.57	1751.01
269.79	1755.11
270.00	1609.70
270.22	1767.40
270.43	1689.57
270.65	1556.46
270.87	1767.40
271.08	1771.49
271.30	1701.86
271.51	1710.05
271.73	1757.16
271.95	1751.01
272.16	1730.53
272.38	1720.29
272.59	1695.72
272.81	1703.91
273.02	1697.77
273.24	1738.73
273.46	1779.68
273.67	1607.66
273.89	1652.71
274.10	1644.52
274.32	1814.50
274.54	1775.59
274.75	1724.39
274.97	1689.57
275.18	1681.38
275.40	1765.35
275.61	1638.38
275.83	1685.48
276.05	1648.61
276.26	1767.40
276.48	1806.31
276.69	1677.29
276.91	1644.52
277.12	1742.82
277.34	1773.54
277.55	1742.82
277.77	1736.68
277.99	1671.14
278.20	1734.63
278.42	1673.19
278.63	1656.81
278.85	1636.33
279.06	1652.71
279.28	1699.81
279.49	1806.31
279.71	1675.24
279.93	1710.05
280.14	1695.72
280.36	1656.81
280.57	1765.35
280.79	1740.77
281.00	1724.39
281.22	1671.14
281.43	1783.78
281.65	1617.90
281.86	1583.08
282.08	1726.44
282.29	1796.07
282.51	1621.99
282.73	1652.71
282.94	1578.98
283.16	1738.73
283.37	1783.78
283.59	1675.24
283.80	1716.20
284.02	1628.14
284.23	1771.49
284.45	1634.28
284.66	1652.71
284.88	1634.28
285.09	1687.53
285.31	1714.15
285.52	1742.82
285.74	1611.75
285.95	1734.63
286.17	1667.05
286.38	1822.69
286.60	1656.81
286.81	1628.14
287.03	1689.57
287.24	1732.58
287.46	1693.67
287.67	1800.16
287.89	1814.50
288.10	1665.00
288.32	1697.77
288.53	1769.44
288.75	1665.00
288.96	1693.67
289.18	1626.09
289.39	1726.44
289.61	1767.40
289.82	1826.79
290.04	1849.32
290.25	1599.46
290.47	1687.53
290.68	1683.43
290.90	1693.67
291.11	1630.18
291.33	1730.53
291.54	1572.84
291.76	1677.29
291.97	1738.73
292.18	1763.30
292.40	1689.57
292.61	1613.80
292.83	1824.74
293.04	1767.40
293.26	1683.43
293.47	1705.96
293.69	1656.81
293.90	1617.90
294.12	1800.16
294.33	1673.19
294.55	1689.57
294.76	1757.16
294.97	1822.69
295.19	1800.16
295.40	1648.61
295.62	1779.68
295.83	1742.82
296.05	1671.14
296.26	1773.54
296.48	1587.18
296.69	1648.61
296.90	1689.57
297.12	1757.16
297.33	1787.88
297.55	1720.29
297.76	1761.25
297.98	1742.82
298.19	1675.24
298.41	1722.34
298.62	1656.81
298.83	1785.83
299.05	1716.20
299.26	1662.95
299.48	1685.48
299.69	1744.87
299.90	1763.30
300.12	1662.95
300.33	1814.50
300.55	1755.11
300.76	1800.16
300.98	1695.72
301.19	1753.06
301.40	1712.10
301.62	1626.09
301.83	1675.24
302.05	1705.96
302.26	1714.15
302.47	1650.66
302.69	1701.86
302.90	1720.29
303.12	1665.00
303.33	1724.39
303.54	1812.45
303.76	1648.61
303.97	1701.86
304.19	1783.78
304.40	1673.19
304.61	1759.21
304.83	1877.99
305.04	1722.34
305.26	1681.38
305.47	1703.91
305.68	1730.53
305.90	1605.61
306.11	1742.82
306.33	1722.34
306.54	1673.19
306.75	1658.85
306.97	1640.42
307.18	1665.00
307.39	1669.09
307.61	1738.73
307.82	1705.96
308.04	1787.88
308.25	1705.96
308.46	1677.29
308.68	1677.29
308.89	1675.24
309.10	1806.31
309.32	1712.10
309.53	1677.29
309.74	1755.11
309.96	1794.02
310.17	1796.07
310.39	1572.84
310.60	1806.31
310.81	1746.92
311.03	1683.43
311.24	1669.09
311.45	1689.57
311.67	1791.97
311.88	1718.25
312.09	1691.62
312.31	1718.25
312.52	1599.46
312.73	1701.86
312.95	1634.28
313.16	1640.42
313.37	1845.22
313.59	1785.83
313.80	1705.96
314.01	1734.63
314.23	1685.48
314.44	1646.57
314.65	1591.27
314.87	1714.15
315.08	1642.47
315.29	1646.57
315.51	1708.01
315.72	1652.71
315.93	1810.40
316.15	1753.06
316.36	1607.66
316.57	1728.49
316.79	1703.91
317.00	1689.57
317.21	1781.73
317.43	1644.52
317.64	1712.10
317.85	1714.15
318.07	1691.62
318.28	1806.31
318.49	1806.31
318.70	1900.52
318.92	1806.31
319.13	1804.26
319.34	1871.84
319.56	1816.55
319.77	1820.64
319.98	1751.01
320.20	1773.54
320.41	1734.63
320.62	1716.20
320.83	1699.81
321.05	1830.88
321.26	1724.39
321.47	1675.24
321.69	1771.49
321.90	1679.33
322.11	1667.05
322.32	1728.49
322.54	1773.54
322.75	1675.24
322.96	1822.69
323.18	1642.47
323.39	1546.22
323.60	1730.53
323.81	1773.54
324.03	1648.61
324.24	1738.73
324.45	1632.23
324.66	1603.56
324.88	1775.59
325.09	1787.88
325.30	1730.53
325.52	1671.14
325.73	1771.49
325.94	1605.61
326.15	1634.28
326.37	1621.99
326.58	1734.63
326.79	1802.21
327.00	1691.62
327.22	1642.47
327.43	1720.29
327.64	1605.61
327.85	1746.92
328.07	1695.72
328.28	1744.87
328.49	1640.42
328.70	1642.47
328.92	1642.47
329.13	1728.49
329.34	1699.81
329.55	1877.99
329.76	1781.73
329.98	1720.29
330.19	1755.11
330.40	1714.15
330.61	1724.39
330.83	1728.49
331.04	1681.38
331.25	1677.29
331.46	1695.72
331.68	1683.43
331.89	1759.21
332.10	1710.05
332.31	1683.43
332.52	1685.48
332.74	1746.92
332.95	1570.79
333.16	1691.62
333.37	1746.92
333.58	1644.52
333.80	1732.58
334.01	1603.56
334.22	1683.43
334.43	1624.04
334.64	1662.95
334.86	1648.61
335.07	1603.56
335.28	1767.40
335.49	1619.94
335.70	1751.01
335.92	1796.07
336.13	1847.27
336.34	1705.96
336.55	1787.88
336.76	1679.33
336.98	1519.59
337.19	1634.28
337.40	1761.25
337.61	1818.60
337.82	1689.57
338.04	1822.69
338.25	1624.04
338.46	1658.85
338.67	1644.52
338.88	1669.09
339.09	1683.43
339.31	1738.73
339.52	1677.29
339.73	1615.85
339.94	1687.53
340.15	1691.62
340.36	1708.01
340.58	1769.44
340.79	1644.52
341.00	1738.73
341.21	1632.23
341.42	1787.88
341.63	1763.30
341.85	1757.16
342.06	1757.16
342.27	1656.81
342.48	1716.20
342.69	1634.28
342.90	1665.00
343.12	1736.68
343.33	1708.01
343.54	1744.87
343.75	1736.68
343.96	1708.01
344.17	1695.72
344.38	1669.09
344.60	1644.52
344.81	1677.29
345.02	1746.92
345.23	1728.49
345.44	1814.50
345.65	1753.06
345.86	1746.92
346.07	1710.05
346.29	1701.86
346.50	1691.62
346.71	1669.09
346.92	1845.22
347.13	1834.98
347.34	1630.18
347.55	1726.44
347.76	1722.34
347.98	1615.85
348.19	1658.85
348.40	1718.25
348.61	1722.34
348.82	1748.97
349.03	1697.77
349.24	1705.96
349.45	1718.25
349.66	1652.71
349.88	1642.47
350.09	1673.19
350.30	1781.73
350.51	1740.77
350.72	1716.20
350.93	1742.82
351.14	1671.14
351.35	1687.53
351.56	1724.39
351.77	1689.57
351.99	1701.86
352.20	1816.55
352.41	1710.05
352.62	1595.37
352.83	1695.72
353.04	1662.95
353.25	1705.96
353.46	1757.16
353.67	1794.02
353.88	1574.89
354.09	1681.38
354.30	1681.38
354.52	1699.81
354.73	1675.24
354.94	1587.18
355.15	1730.53
355.36	1830.88
355.57	1636.33
355.78	1710.05
355.99	1656.81
356.20	1632.23
356.41	1753.06
356.62	1773.54
356.83	1699.81
357.04	1757.16
357.25	1650.66
357.46	1712.10
357.68	1656.81
357.89	1662.95
358.10	1652.71
358.31	1730.53
358.52	1785.83
358.73	1685.48
358.94	1656.81
359.15	1652.71
359.36	1763.30
359.57	1630.18
359.78	1656.81
359.99	1794.02
360.20	1570.79
360.41	1712.10
360.62	1828.84
360.83	1714.15
361.04	1675.24
361.25	1685.48
361.46	1748.97
361.67	1736.68
361.88	1783.78
362.09	1671.14
362.30	1718.25
362.51	1687.53
362.72	1695.72
362.93	1714.15
363.14	1734.63
363.35	1691.62
363.56	1675.24
363.78	1755.11
363.99	1773.54
364.20	1681.38
364.41	1685.48
364.62	1789.92
364.83	1685.48
365.04	1687.53
365.25	1748.97
365.46	1761.25
365.67	1609.70
365.88	1660.90
366.09	1667.05
366.30	1681.38
366.51	1785.83
366.72	1691.62
366.93	1714.15
367.14	1650.66
367.35	1722.34
367.56	1734.63
367.77	1814.50
367.98	1699.81
368.18	1744.87
368.39	1699.81
368.60	1691.62
368.81	1708.01
369.02	1722.34
369.23	1769.44
369.44	1658.85
369.65	1634.28
369.86	1701.86
370.07	1753.06
370.28	1679.33
370.49	1742.82
370.70	1710.05
370.91	1556.46
371.12	1630.18
371.33	1834.98
371.54	1638.38
371.75	1785.83
371.96	1656.81
372.17	1593.32
372.38	1611.75
372.59	1738.73
372.80	1693.67
373.01	1705.96
373.22	1701.86
373.43	1617.90
373.64	1662.95
373.85	1681.38
374.06	1779.68
374.26	1667.05
374.47	1763.30
374.68	1771.49
374.89	1732.58
375.10	1665.00
375.31	1769.44
375.52	1695.72
375.73	1753.06
375.94	1669.09
376.15	1771.49
376.36	1669.09
376.57	1730.53
376.78	1658.85
376.99	1642.47
377.20	1773.54
377.40	1619.94
377.61	1839.08
377.82	1662.95
378.03	1748.97
378.24	1736.68
378.45	1777.64
378.66	1710.05
378.87	1599.46
379.08	1576.94
379.29	1648.61
379.50	1794.02
379.71	1681.38
379.91	1779.68
380.12	1738.73
380.33	1736.68
380.54	1724.39
380.75	1669.09
380.96	1669.09
381.17	1746.92
381.38	1703.91
381.59	1708.01
381.80	1658.85
382.00	1867.75
382.21	1757.16
382.42	1888.23
382.63	1834.98
382.84	1753.06
383.05	1744.87
383.26	1781.73
383.47	1775.59
383.68	1683.43
383.88	1818.60
384.09	1802.21
384.30	1814.50
384.51	1708.01
384.72	1679.33
384.93	1658.85
385.14	1771.49
385.35	1767.40
385.55	1587.18
385.76	1832.93
385.97	1724.39
386.18	1554.41
386.39	1703.91
386.60	1769.44
386.81	1658.85
387.02	1636.33
387.22	1679.33
387.43	1841.12
387.64	1789.92
387.85	1935.33
388.06	2166.75
388.27	4188.10
388.48	6834.07
388.68	8193.92
388.89	9695.08
389.10	9848.68
389.31	8763.26
389.52	7731.08
389.73	6807.45
389.93	6076.32
390.14	5867.43
390.35	5283.76
390.56	4573.11
390.77	3792.84
390.98	3061.71
391.18	2508.76
391.39	2093.02
391.60	1906.66
391.81	1791.97
392.02	1722.34
392.23	1849.32
392.43	1753.06
392.64	1828.84
392.85	1691.62
393.06	1806.31
393.27	1705.96
393.47	1703.91
393.68	1699.81
393.89	1718.25
394.10	1685.48
394.31	1695.72
394.52	1669.09
394.72	1652.71
394.93	1695.72
395.14	1669.09
395.35	1734.63
395.56	1708.01
395.76	1726.44
395.97	1738.73
396.18	1904.61
396.39	1847.27
396.60	2050.02
396.80	1923.04
397.01	1802.21
397.22	1728.49
397.43	1830.88
397.64	1710.05
397.84	1734.63
398.05	1798.12
398.26	1722.34
398.47	1804.26
398.67	1847.27
398.88	1689.57
399.09	1701.86
399.30	1644.52
399.51	1710.05
399.71	1656.81
399.92	1701.86
400.13	1718.25
400.34	1726.44
400.54	1728.49
400.75	1708.01
400.96	1810.40
401.17	1849.32
401.37	1785.83
401.58	1662.95
401.79	1724.39
402.00	1867.75
402.21	1937.38
402.41	1920.99
402.62	1964.00
402.83	1959.91
403.04	1998.82
403.24	2082.78
403.45	1906.66
403.66	1914.85
403.87	1910.75
404.07	1865.70
404.28	1920.99
404.49	1857.51
404.70	1712.10
404.90	1773.54
405.11	1673.19
405.32	1783.78
405.52	1701.86
405.73	1591.27
405.94	1644.52
406.15	1710.05
406.35	1708.01
406.56	1769.44
406.77	1693.67
406.98	1683.43
407.18	1652.71
407.39	1812.45
407.60	1683.43
407.80	1656.81
408.01	1652.71
408.22	1716.20
408.43	1708.01
408.63	1689.57
408.84	1755.11
409.05	1720.29
409.25	1652.71
409.46	1705.96
409.67	1689.57
409.88	1642.47
410.08	1734.63
410.29	1656.81
410.50	1736.68
410.70	1708.01
410.91	1619.94
411.12	1730.53
411.32	1669.09
411.53	1658.85
411.74	1773.54
411.95	1705.96
412.15	1708.01
412.36	1753.06
412.57	1740.77
412.77	1843.17
412.98	1714.15
413.19	1656.81
413.39	1767.40
413.60	1730.53
413.81	1816.55
414.01	1654.76
414.22	1742.82
414.43	1767.40
414.63	1710.05
414.84	1798.12
415.05	1779.68
415.25	1615.85
415.46	1814.50
415.67	1708.01
415.87	1759.21
416.08	1734.63
416.29	1673.19
416.49	1710.05
416.70	1748.97
416.91	1650.66
417.11	1710.05
417.32	1705.96
417.53	1679.33
417.73	1767.40
417.94	1722.34
418.15	1730.53
418.35	1677.29
418.56	1685.48
418.77	1837.03
418.97	1665.00
419.18	1742.82
419.38	1560.55
419.59	1689.57
419.80	1791.97
420.00	1656.81
420.21	1673.19
420.42	1712.10
420.62	1689.57
420.83	1642.47
421.04	1693.67
421.24	1732.58
421.45	1779.68
421.65	1679.33
421.86	1687.53
422.07	1697.77
422.27	1740.77
422.48	1724.39
422.69	1607.66
422.89	1699.81
423.10	1673.19
423.30	1626.09
423.51	1708.01
423.72	1765.35
423.92	1710.05
424.13	1677.29
424.33	1703.91
424.54	1740.77
424.75	1759.21
424.95	1722.34
425.16	1744.87
425.36	1697.77
425.57	1787.88
425.78	1742.82
425.98	1708.01
426.19	1695.72
426.39	1654.76
426.60	1693.67
426.81	1837.03
427.01	1642.47
427.22	1705.96
427.42	1671.14
427.63	1708.01
427.83	1748.97
428.04	1746.92
428.25	1837.03
428.45	1806.31
428.66	1804.26
428.86	1660.90
429.07	1669.09
429.28	1632.23
429.48	1667.05
429.69	1705.96
429.89	1722.34
430.10	1667.05
430.30	1738.73
430.51	1763.30
430.71	1648.61
430.92	1595.37
431.13	1695.72
431.33	1765.35
431.54	1710.05
431.74	1808.36
431.95	1830.88
432.15	1667.05
432.36	1697.77
432.56	1746.92
432.77	1796.07
432.98	1802.21
433.18	1716.20
433.39	1693.67
433.59	1656.81
433.80	1818.60
434.00	1859.56
434.21	1714.15
434.41	1656.81
434.62	1855.46
434.82	1628.14
435.03	1683.43
435.23	1734.63
435.44	1632.23
435.64	1738.73
435.85	1716.20
436.06	1755.11
436.26	1757.16
436.47	1681.38
436.67	1613.80
436.88	1708.01
437.08	1722.34
437.29	1828.84
437.49	1712.10
437.70	1798.12
437.90	1742.82
438.11	1828.84
438.31	1716.20
438.52	1794.02
438.72	1755.11
438.93	1900.52
439.13	1695.72
439.34	1873.89
439.54	1746.92
439.75	1871.84
439.95	1738.73
440.16	1746.92
440.36	1726.44
440.57	1742.82
440.77	1779.68
440.98	1767.40
441.18	1755.11
441.39	1652.71
441.59	1640.42
441.80	1826.79
442.00	1607.66
442.21	1910.75
442.41	1699.81
442.62	1791.97
442.82	1673.19
443.02	1673.19
443.23	1722.34
443.43	1703.91
443.64	1816.55
443.84	1646.57
444.05	1875.94
444.25	1683.43
444.46	1667.05
444.66	1732.58
444.87	1814.50
445.07	1607.66
445.28	1746.92
445.48	1808.36
445.69	1714.15
445.89	1859.56
446.09	1724.39
446.30	2029.54
446.50	2680.79
446.71	3796.93
446.91	4433.85
447.12	4767.67
447.32	4741.05
447.53	4296.64
447.73	3868.61
447.93	3520.46
448.14	3330.00
448.34	3205.07
448.55	2901.97
448.75	2877.40
448.96	2686.94
449.16	2430.94
449.36	2224.09
449.57	2131.94
449.77	1869.80
449.98	1775.59
450.18	1841.12
450.39	1779.68
450.59	1779.68
450.79	1787.88
451.00	1634.28
451.20	1705.96
451.41	1699.81
451.61	1810.40
451.81	1841.12
452.02	1677.29
452.22	1716.20
452.43	1687.53
452.63	1730.53
452.84	1724.39
453.04	1763.30
453.24	1748.97
453.45	1746.92
453.65	1761.25
453.86	1757.16
454.06	1712.10
454.26	1689.57
454.47	1751.01
454.67	1775.59
454.87	1742.82
455.08	1699.81
455.28	1806.31
455.49	1808.36
455.69	1650.66
455.89	1826.79
456.10	1779.68
456.30	1738.73
456.51	1757.16
456.71	1771.49
456.91	1761.25
457.12	1742.82
457.32	1767.40
457.52	1665.00
457.73	1779.68
457.93	1787.88
458.14	1642.47
458.34	1656.81
458.54	1796.07
458.75	1759.21
458.95	1781.73
459.15	1662.95
459.36	1751.01
459.56	1763.30
459.76	1832.93
459.97	1697.77
460.17	1714.15
460.37	1865.70
460.58	1789.92
460.78	1753.06
460.99	1697.77
461.19	1769.44
461.39	1636.33
461.60	1677.29
461.80	1761.25
462.00	1710.05
462.21	1716.20
462.41	1652.71
462.61	1689.57
462.82	1656.81
463.02	1705.96
463.22	1787.88
463.43	1861.60
463.63	1726.44
463.83	1781.73
464.04	1724.39
464.24	1791.97
464.44	1695.72
464.64	1708.01
464.85	1763.30
465.05	1775.59
465.25	1789.92
465.46	1697.77
465.66	1724.39
465.86	1748.97
466.07	1724.39
466.27	1689.57
466.47	1718.25
466.68	1656.81
466.88	1843.17
467.08	1787.88
467.29	1751.01
467.49	1720.29
467.69	1783.78
467.89	1826.79
468.10	1722.34
468.30	1740.77
468.50	1806.31
468.71	1771.49
468.91	1607.66
469.11	1806.31
469.31	1648.61
469.52	1652.71
469.72	1808.36
469.92	1832.93
470.13	1681.38
470.33	1693.67
470.53	1857.51
470.73	2072.54
470.94	2330.59
471.14	2418.65
471.34	2459.61
471.54	2336.73
471.75	2306.01
471.95	2101.22
472.15	2080.74
472.36	2125.79
472.56	2088.93
472.76	2037.73
472.96	2037.73
473.17	1980.39
473.37	1992.67
473.57	1746.92
473.77	1779.68
473.98	1806.31
474.18	1742.82
474.38	1837.03
474.58	1740.77
474.79	1681.38
474.99	1732.58
475.19	1746.92
475.39	1671.14
475.60	1753.06
475.80	1732.58
476.00	1722.34
476.20	1689.57
476.41	1773.54
476.61	1808.36
476.81	1746.92
477.01	1671.14
477.21	1841.12
477.42	1824.74
477.62	1685.48
477.82	1703.91
478.02	1701.86
478.23	1746.92
478.43	1650.66
478.63	1675.24
478.83	1712.10
479.03	1646.57
479.24	1728.49
479.44	1791.97
479.64	1632.23
479.84	1626.09
480.04	1685.48
480.25	1804.26
480.45	1660.90
480.65	1705.96
480.85	1771.49
481.06	1632.23
481.26	1751.01
481.46	1753.06
481.66	1751.01
481.86	1689.57
482.06	1804.26
482.27	1724.39
482.47	1656.81
482.67	1785.83
482.87	1640.42
483.07	1808.36
483.28	1742.82
483.48	1634.28
483.68	1677.29
483.88	1667.05
484.08	1632.23
484.29	1665.00
484.49	1746.92
484.69	1642.47
484.89	1802.21
485.09	1804.26
485.29	1783.78
485.50	1689.57
485.70	1630.18
485.90	1814.50
486.10	1740.77
486.30	1675.24
486.50	1791.97
486.71	1681.38
486.91	1738.73
487.11	1757.16
487.31	1701.86
487.51	1718.25
487.71	1673.19
487.91	1642.47
488.12	1642.47
488.32	1544.17
488.52	1644.52
488.72	1581.03
488.92	1703.91
489.12	1796.07
489.32	1812.45
489.53	1767.40
489.73	1671.14
489.93	1822.69
490.13	1654.76
490.33	1632.23
490.53	1718.25
490.73	1771.49
490.94	1648.61
491.14	1855.46
491.34	1867.75
491.54	2127.84
491.74	2598.87
491.94	2953.17
492.14	3082.19
492.34	3041.23
492.54	2793.43
492.75	2543.58
492.95	2408.41
493.15	2312.16
493.35	2267.10
493.55	2297.82
493.75	2138.08
493.95	2082.78
494.15	2058.21
494.35	1959.91
494.56	1908.71
494.76	1746.92
494.96	1796.07
495.16	1810.40
495.36	1728.49
495.56	1748.97
495.76	1761.25
495.96	1720.29
496.16	1679.33
496.36	1828.84
496.56	1800.16
496.77	1755.11
496.97	1796.07
497.17	1751.01
497.37	1652.71
497.57	1732.58
497.77	1716.20
497.97	1689.57
498.17	1726.44
498.37	1697.77
498.57	1708.01
498.77	1726.44
498.97	1714.15
499.17	1818.60
499.38	1705.96
499.58	1751.01
499.78	1757.16
499.98	1789.92
500.18	1728.49
500.38	1732.58
500.58	1968.10
500.78	2498.52
500.98	4618.17
501.18	5816.23
501.38	7018.39
501.58	6983.57
501.78	6803.35
501.98	5597.10
502.18	5105.59
502.38	4431.80
502.58	4171.71
502.78	3753.93
502.98	3661.77
503.18	3542.99
503.38	3227.60
503.59	2850.77
503.79	2582.49
503.99	2506.71
504.19	2371.55
504.39	2254.81
504.59	2111.46
504.79	2109.41
504.99	2023.39
505.19	1961.95
505.39	1923.04
505.59	2019.30
505.79	1920.99
505.99	1865.70
506.19	1875.94
506.39	1855.46
506.59	1679.33
506.79	1796.07
506.99	1794.02
507.19	1796.07
507.39	1673.19
507.59	1677.29
507.79	1642.47
507.99	1710.05
508.19	1687.53
508.39	1667.05
508.59	1693.67
508.79	1849.32
508.99	1837.03
509.19	1705.96
509.39	1769.44
509.59	1691.62
509.79	1701.86
509.99	1751.01
510.19	1736.68
510.39	1779.68
510.59	1728.49
510.79	1693.67
510.99	1718.25
511.19	1767.40
511.39	1841.12
511.59	1830.88
511.79	1822.69
511.99	1689.57
512.19	1808.36
512.38	1650.66
512.58	1755.11
512.78	1726.44
512.98	1798.12
513.18	1783.78
513.38	1677.29
513.58	1796.07
513.78	1669.09
513.98	1775.59
514.18	1732.58
514.38	1697.77
514.58	1671.14
514.78	1679.33
514.98	1665.00
515.18	1718.25
515.38	1685.48
515.58	1855.46
515.78	1675.24
515.98	1716.20
516.18	1804.26
516.38	1683.43
516.57	1714.15
516.77	1710.05
516.97	1753.06
517.17	1732.58
517.37	1640.42
517.57	1748.97
517.77	1673.19
517.97	1634.28
518.17	1769.44
518.37	1642.47
518.57	1703.91
518.77	1679.33
518.97	1693.67
519.16	1796.07
519.36	1785.83
519.56	1621.99
519.76	1759.21
519.96	1673.19
520.16	1722.34
520.36	1679.33
520.56	1767.40
520.76	1777.64
520.96	1705.96
521.16	1826.79
521.35	1753.06
521.55	1796.07
521.75	1738.73
521.95	1697.77
522.15	1785.83
522.35	1675.24
522.55	1621.99
522.75	1810.40
522.95	1748.97
523.14	1722.34
523.34	1697.77
523.54	1767.40
523.74	1853.41
523.94	1718.25
524.14	1628.14
524.34	1738.73
524.54	1763.30
524.73	1695.72
524.93	1791.97
525.13	1808.36
525.33	1665.00
525.53	1847.27
525.73	1753.06
525.93	1765.35
526.13	1742.82
526.32	1650.66
526.52	1695.72
526.72	1791.97
526.92	1681.38
527.12	1699.81
527.32	1544.17
527.52	1681.38
527.71	1728.49
527.91	1656.81
528.11	1718.25
528.31	1683.43
528.51	1687.53
528.71	1738.73
528.90	1759.21
529.10	1720.29
529.30	1771.49
529.50	1667.05
529.70	1808.36
529.90	1665.00
530.09	1816.55
530.29	1718.25
530.49	1646.57
530.69	1912.80
530.89	1734.63
531.09	1751.01
531.28	1687.53
531.48	1757.16
531.68	1740.77
531.88	1791.97
532.08	1777.64
532.28	1736.68
532.47	1746.92
532.67	1779.68
532.87	1771.49
533.07	1779.68
533.27	1826.79
533.46	1779.68
533.66	1783.78
533.86	1718.25
534.06	1767.40
534.26	1765.35
534.45	1761.25
534.65	1751.01
534.85	1814.50
535.05	1681.38
535.25	1810.40
535.44	1570.79
535.64	1763.30
535.84	1714.15
536.04	1791.97
536.24	1693.67
536.43	1689.57
536.63	1767.40
536.83	1712.10
537.03	1751.01
537.22	1648.61
537.42	1607.66
537.62	1796.07
537.82	1673.19
538.02	1771.49
538.21	1771.49
538.41	1832.93
538.61	1736.68
538.81	1794.02
539.00	1869.80
539.20	1576.94
539.40	1642.47
539.60	1814.50
539.79	1812.45
539.99	1660.90
540.19	1714.15
540.39	1726.44
540.58	1722.34
540.78	1697.77
540.98	1757.16
541.18	1753.06
541.37	1691.62
541.57	1804.26
541.77	1765.35
541.97	1714.15
542.16	1646.57
542.36	1689.57
542.56	1691.62
542.76	1859.56
542.95	1742.82
543.15	1718.25
543.35	1759.21
543.54	1679.33
543.74	1658.85
543.94	1806.31
544.14	1794.02
544.33	1773.54
544.53	1689.57
544.73	1703.91
544.93	1746.92
545.12	1703.91
545.32	1771.49
545.52	1705.96
545.71	1648.61
545.91	1712.10
546.11	1705.96
546.30	1681.38
546.50	1763.30
546.70	1761.25
546.90	1699.81
547.09	1652.71
547.29	1767.40
547.49	1834.98
547.68	1722.34
547.88	1701.86
548.08	1742.82
548.27	2199.52
548.47	1765.35
548.67	1679.33
548.87	1726.44
549.06	1654.76
549.26	1781.73
549.46	1748.97
549.65	1681.38
549.85	1699.81
550.05	1824.74
550.24	1679.33
550.44	1781.73
550.64	1689.57
550.83	1753.06
551.03	1841.12
551.23	1796.07
551.42	1783.78
551.62	1689.57
551.82	1687.53
552.01	1667.05
552.21	1781.73
552.41	1769.44
552.60	1808.36
552.80	1761.25
553.00	1650.66
553.19	1796.07
553.39	1808.36
553.59	1665.00
553.78	1724.39
553.98	1767.40
554.17	1615.85
554.37	1740.77
554.57	1734.63
554.76	1646.57
554.96	1681.38
555.16	1781.73
555.35	1701.86
555.55	1714.15
555.75	1753.06
555.94	1773.54
556.14	1636.33
556.33	1781.73
556.53	1748.97
556.73	1787.88
556.92	1849.32
557.12	1820.64
557.32	1804.26
557.51	1765.35
557.71	1798.12
557.90	1728.49
558.10	1849.32
558.30	1695.72
558.49	1665.00
558.69	1716.20
558.88	1812.45
559.08	1722.34
559.28	1724.39
559.47	1751.01
559.67	1773.54
559.86	1832.93
560.06	1736.68
560.26	1677.29
560.45	1800.16
560.65	1691.62
560.84	1845.22
561.04	1701.86
561.24	1789.92
561.43	1699.81
561.63	1822.69
561.82	1765.35
562.02	1783.78
562.22	1638.38
562.41	1665.00
562.61	1718.25
562.80	1658.85
563.00	1880.04
563.19	1859.56
563.39	1728.49
563.59	1796.07
563.78	1681.38
563.98	1693.67
564.17	1728.49
564.37	1611.75
564.56	1732.58
564.76	1638.38
564.96	1839.08
565.15	1716.20
565.35	1877.99
565.54	1691.62
565.74	1771.49
565.93	1744.87
566.13	1667.05
566.32	1767.40
566.52	1789.92
566.71	1822.69
566.91	1820.64
567.11	1712.10
567.30	1665.00
567.50	1794.02
567.69	1755.11
567.89	1697.77
568.08	1705.96
568.28	1777.64
568.47	1652.71
568.67	1771.49
568.86	1714.15
569.06	1755.11
569.25	1724.39
569.45	1648.61
569.64	1744.87
569.84	1742.82
570.04	1734.63
570.23	1675.24
570.43	1759.21
570.62	1748.97
570.82	1843.17
571.01	1675.24
571.21	1679.33
571.40	1693.67
571.60	1742.82
571.79	1787.88
571.99	1783.78
572.18	1775.59
572.38	1742.82
572.57	1660.90
572.77	1765.35
572.96	1935.33
573.16	1746.92
573.35	1693.67
573.55	1820.64
573.74	1742.82
573.94	1771.49
574.13	1671.14
574.33	1787.88
574.52	1873.89
574.71	1656.81
574.91	1697.77
575.10	1679.33
575.30	1722.34
575.49	1712.10
575.69	1634.28
575.88	1718.25
576.08	1738.73
576.27	1767.40
576.47	1783.78
576.66	1798.12
576.86	1832.93
577.05	1720.29
577.25	1822.69
577.44	1806.31
577.64	1701.86
577.83	1818.60
578.02	1773.54
578.22	1824.74
578.41	1826.79
578.61	1722.34
578.80	1673.19
579.00	1730.53
579.19	1703.91
579.39	1839.08
579.58	1796.07
579.77	1689.57
579.97	1818.60
580.16	1742.82
580.36	1808.36
580.55	1849.32
580.75	1822.69
580.94	1753.06
581.13	1877.99
581.33	1896.42
581.52	1738.73
581.72	1839.08
581.91	1798.12
582.11	1740.77
582.30	1787.88
582.49	1738.73
582.69	1857.51
582.88	1798.12
583.08	1732.58
583.27	1773.54
583.47	1656.81
583.66	1683.43
583.85	1738.73
584.05	1798.12
584.24	1822.69
584.44	1785.83
584.63	1857.51
584.82	1849.32
585.02	1886.18
585.21	1804.26
585.41	1828.84
585.60	1806.31
585.79	1867.75
585.99	1851.36
586.18	1898.47
586.37	2267.10
586.57	3418.06
586.76	9906.02
586.96	24966.79
587.15	35118.57
587.34	41377.16
587.54	42919.28
587.73	37420.48
587.93	26707.56
588.12	21943.99
588.31	18646.76
588.51	16535.30
588.70	15359.77
588.89	14296.87
589.09	13000.51
589.28	11061.08
589.47	9541.49
589.67	8124.29
589.86	6678.43
590.06	5068.72
590.25	4075.46
590.44	3112.91
590.64	2625.50
590.83	2344.92
591.02	2123.74
591.22	1935.33
591.41	1853.41
591.60	1906.66
591.80	1896.42
591.99	1671.14
592.18	1748.97
592.38	1820.64
592.57	1755.11
592.76	1820.64
592.96	1859.56
593.15	1816.55
593.34	1822.69
593.54	1775.59
593.73	1775.59
593.92	1775.59
594.12	1738.73
594.31	1818.60
594.50	1785.83
594.70	1771.49
594.89	1863.65
595.08	1671.14
595.28	1736.68
595.47	1935.33
595.66	1810.40
595.86	1710.05
596.05	1763.30
596.24	1640.42
596.43	1787.88
596.63	1822.69
596.82	1720.29
597.01	1837.03
597.21	1796.07
597.40	1816.55
597.59	1789.92
597.79	1708.01
597.98	1697.77
598.17	1705.96
598.36	1724.39
598.56	1832.93
598.75	1724.39
598.94	1734.63
599.14	1708.01
599.33	1648.61
599.52	1742.82
599.71	1669.09
599.91	1804.26
600.10	1718.25
600.29	1779.68
600.48	1738.73
600.68	1787.88
600.87	1728.49
601.06	1699.81
601.26	1701.86
601.45	1798.12
601.64	1691.62
601.83	1800.16
602.03	1648.61
602.22	1628.14
602.41	1746.92
602.60	1824.74
602.80	1871.84
602.99	1744.87
603.18	1718.25
603.37	1691.62
603.57	1755.11
603.76	1773.54
603.95	1800.16
604.14	1662.95
604.34	1662.95
604.53	1763.30
604.72	1697.77
604.91	1853.41
605.10	1732.58
605.30	1648.61
605.49	1839.08
605.68	1683.43
605.87	1806.31
606.07	1621.99
606.26	1771.49
606.45	1771.49
606.64	1755.11
606.84	1673.19
607.03	1695.72
607.22	1753.06
607.41	1746.92
607.60	1691.62
607.80	1849.32
607.99	1738.73
608.18	1720.29
608.37	1710.05
608.56	1662.95
608.76	1765.35
608.95	1812.45
609.14	1773.54
609.33	1798.12
609.52	1763.30
609.72	1691.62
609.91	1806.31
610.10	1705.96
610.29	1771.49
610.48	1726.44
610.68	1746.92
610.87	1656.81
611.06	1732.58
611.25	1701.86
611.44	1771.49
611.63	1710.05
611.83	1769.44
612.02	1687.53
612.21	1849.32
612.40	1589.22
612.59	1689.57
612.79	1701.86
612.98	1748.97
613.17	1841.12
613.36	1742.82
613.55	1738.73
613.74	1642.47
613.93	1763.30
614.13	1701.86
614.32	1728.49
614.51	1728.49
614.70	1767.40
614.89	1775.59
615.08	1765.35
615.28	2029.54
615.47	1701.86
615.66	1724.39
615.85	1746.92
616.04	1902.56
616.23	1763.30
616.42	1689.57
616.62	1697.77
616.81	1757.16
617.00	1693.67
617.19	1699.81
617.38	1652.71
617.57	1689.57
617.76	1689.57
617.95	1673.19
618.15	1740.77
618.34	1798.12
618.53	1628.14
618.72	1712.10
618.91	1822.69
619.10	1828.84
619.29	1681.38
619.48	1648.61
619.68	1738.73
619.87	1791.97
620.06	1640.42
620.25	1841.12
620.44	1705.96
620.63	1691.62
620.82	1783.78
621.01	1708.01
621.20	1748.97
621.39	1773.54
621.59	1777.64
621.78	1691.62
621.97	1736.68
622.16	1763.30
622.35	1718.25
622.54	1791.97
622.73	1787.88
622.92	1581.03
623.11	1812.45
623.30	1728.49
623.49	1798.12
623.68	1710.05
623.88	1761.25
624.07	1705.96
624.26	1669.09
624.45	1722.34
624.64	1722.34
624.83	1736.68
625.02	1748.97
625.21	1650.66
625.40	1734.63
625.59	1736.68
625.78	1699.81
625.97	1755.11
626.16	1767.40
626.35	1724.39
626.54	1755.11
626.74	1777.64
626.93	1689.57
627.12	1777.64
627.31	1808.36
627.50	1691.62
627.69	1742.82
627.88	1673.19
628.07	1759.21
628.26	1667.05
628.45	1615.85
628.64	1703.91
628.83	1722.34
629.02	1640.42
629.21	1675.24
629.40	1708.01
629.59	1648.61
629.78	1681.38
629.97	1751.01
630.16	1742.82
630.35	1656.81
630.54	1673.19
630.73	1730.53
630.92	1763.30
631.11	1597.42
631.30	1755.11
631.49	1796.07
631.68	1765.35
631.87	1691.62
632.06	1642.47
632.25	1834.98
632.44	1771.49
632.63	1761.25
632.82	1701.86
633.01	1613.80
633.20	1787.88
633.39	1685.48
633.58	1665.00
633.77	1742.82
633.96	1779.68
634.15	1767.40
634.34	1691.62
634.53	1708.01
634.72	1677.29
634.91	1652.71
635.10	1683.43
635.29	1718.25
635.48	1730.53
635.67	1595.37
635.86	1675.24
636.05	1853.41
636.24	1617.90
636.43	1683.43
636.62	1757.16
636.81	1677.29
637.00	1697.77
637.19	1712.10
637.38	1755.11
637.57	1648.61
637.76	1697.77
637.95	1712.10
638.14	1705.96
638.33	1716.20
638.52	1722.34
638.71	1642.47
638.89	1621.99
639.08	1855.46
639.27	1726.44
639.46	1699.81
639.65	1789.92
639.84	1656.81
640.03	1730.53
640.22	1767.40
640.41	1771.49
640.60	1720.29
640.79	1667.05
640.98	1738.73
641.17	1712.10
641.36	1673.19
641.55	1669.09
641.74	1619.94
641.92	1697.77
642.11	1697.77
642.30	1720.29
642.49	1785.83
642.68	1679.33
642.87	1748.97
643.06	1751.01
643.25	1644.52
643.44	1677.29
643.63	1705.96
643.82	1665.00
644.00	1703.91
644.19	1734.63
644.38	1671.14
644.57	1736.68
644.76	1708.01
644.95	1763.30
645.14	1724.39
645.33	1675.24
645.52	1689.57
645.71	1658.85
645.89	1679.33
646.08	1728.49
646.27	1697.77
646.46	1871.84
646.65	1617.90
646.84	1845.22
647.03	1609.70
647.22	1710.05
647.40	1691.62
647.59	1763.30
647.78	1646.57
647.97	1689.57
648.16	1632.23
648.35	1759.21
648.54	1826.79
648.73	1632.23
648.91	1757.16
649.10	1648.61
649.29	1650.66
649.48	1656.81
649.67	1734.63
649.86	1742.82
650.05	1695.72
650.23	1804.26
650.42	1613.80
650.61	1748.97
650.80	1783.78
650.99	1855.46
651.18	1767.40
651.36	1683.43
651.55	1652.71
651.74	1724.39
651.93	1671.14
652.12	1677.29
652.31	1624.04
652.49	1685.48
652.68	1675.24
652.87	1822.69
653.06	1730.53
653.25	1804.26
653.44	1677.29
653.62	1812.45
653.81	1689.57
654.00	1720.29
654.19	1742.82
654.38	1796.07
654.56	1769.44
654.75	1650.66
654.94	1769.44
655.13	1746.92
655.32	1787.88
655.51	1753.06
655.69	1648.61
655.88	1773.54
656.07	1710.05
656.26	1757.16
656.45	1656.81
656.63	1699.81
656.82	1751.01
657.01	1812.45
657.20	1656.81
657.38	1804.26
657.57	1683.43
657.76	1660.90
657.95	1718.25
658.14	1667.05
658.32	1761.25
658.51	1587.18
658.70	1722.34
658.89	1665.00
659.08	1732.58
659.26	1800.16
659.45	1691.62
659.64	1689.57
659.83	1677.29
660.01	1937.38
660.20	1708.01
660.39	1834.98
660.58	1595.37
660.76	1722.34
660.95	1640.42
661.14	1656.81
661.33	1634.28
661.51	1705.96
661.70	1693.67
661.89	1808.36
662.08	1736.68
662.26	1681.38
662.45	1650.66
662.64	1791.97
662.83	1740.77
663.01	1748.97
663.20	1673.19
663.39	1857.51
663.58	1675.24
663.76	1722.34
663.95	1828.84
664.14	1708.01
664.32	1642.47
664.51	1632.23
664.70	1671.14
664.89	1722.34
665.07	1697.77
665.26	1738.73
665.45	1656.81
665.64	1734.63
665.82	1761.25
666.01	1791.97
666.20	1748.97
666.38	1693.67
666.57	1892.32
666.76	2234.33
666.95	4513.72
667.13	10516.32
667.32	15429.40
667.51	18069.23
667.69	19429.08
667.88	17692.40
668.07	12330.82
668.25	9959.27
668.44	8269.70
668.63	7268.24
668.81	6961.05
669.00	6360.99
669.19	5699.50
669.38	5181.36
669.56	4679.61
669.75	4032.45
669.94	3440.59
670.12	2904.02
670.31	2490.33
670.50	2281.44
670.68	2090.98
670.87	1927.14
671.06	1841.12
671.24	1787.88
671.43	1865.70
671.62	1648.61
671.80	1751.01
671.99	1796.07
672.18	1718.25
672.36	1693.67
672.55	1675.24
672.74	1665.00
672.92	1720.29
673.11	1732.58
673.29	1673.19
673.48	1751.01
673.67	1615.85
673.85	1804.26
674.04	1650.66
674.23	1781.73
674.41	1871.84
674.60	1683.43
674.79	1640.42
674.97	1699.81
675.16	1644.52
675.34	1798.12
675.53	1712.10
675.72	1732.58
675.90	1769.44
676.09	1675.24
676.28	1789.92
676.46	1593.32
676.65	1763.30
676.83	1656.81
677.02	1785.83
677.21	1783.78
677.39	1732.58
677.58	1675.24
677.77	1632.23
677.95	1695.72
678.14	1705.96
678.32	1630.18
678.51	1652.71
678.70	1853.41
678.88	1630.18
679.07	1746.92
679.25	1724.39
679.44	1660.90
679.63	1638.38
679.81	1714.15
680.00	1763.30
680.18	1767.40
680.37	1789.92
680.55	1710.05
680.74	1662.95
680.93	1601.51
681.11	1677.29
681.30	1722.34
681.48	1648.61
681.67	1736.68
681.85	1767.40
682.04	1722.34
682.23	1816.55
682.41	1671.14
682.60	1662.95
682.78	1669.09
682.97	1642.47
683.15	1636.33
683.34	1712.10
683.53	1787.88
683.71	1601.51
683.90	1814.50
684.08	1847.27
684.27	1656.81
684.45	1740.77
684.64	1771.49
684.82	1730.53
685.01	1773.54
685.19	1677.29
685.38	1722.34
685.57	1730.53
685.75	1644.52
685.94	1697.77
686.12	1681.38
686.31	1656.81
686.49	1748.97
686.68	1601.51
686.86	1777.64
687.05	1751.01
687.23	1763.30
687.42	1757.16
687.60	1650.66
687.79	1738.73
687.97	1787.88
688.16	1687.53
688.34	1703.91
688.53	1636.33
688.71	1781.73
688.90	1781.73
689.08	1726.44
689.27	1591.27
689.45	1769.44
689.64	1722.34
689.82	1753.06
690.01	1718.25
690.19	1748.97
690.38	1765.35
690.56	1826.79
690.75	1689.57
690.93	1667.05
691.12	1650.66
691.30	1703.91
691.49	1699.81
691.67	1671.14
691.86	1771.49
692.04	1658.85
692.23	1746.92
692.41	1736.68
692.60	1845.22
692.78	1798.12
692.97	1738.73
693.15	1662.95
693.34	1761.25
693.52	1753.06
693.71	1718.25
693.89	1624.04
694.08	1656.81
694.26	1759.21
694.44	1624.04
694.63	1714.15
694.81	1695.72
695.00	1691.62
695.18	1714.15
695.37	1951.71
695.55	1736.68
695.74	1650.66
695.92	1685.48
696.10	1746.92
696.29	1607.66
696.47	1683.43
696.66	1621.99
696.84	1675.24
697.03	1624.04
697.21	1890.28
697.40	2279.39
697.58	1796.07
697.76	1714.15
697.95	1751.01
698.13	1677.29
698.32	1728.49
698.50	1722.34
698.68	1791.97
698.87	1689.57
699.05	1789.92
699.24	1757.16
699.42	1669.09
699.61	1662.95
699.79	1697.77
699.97	1656.81
700.16	1558.50
700.34	1617.90
700.53	1677.29
700.71	1802.21
700.89	1705.96
701.08	1738.73
701.26	1738.73
701.45	2109.41
701.63	1656.81
701.81	1658.85
702.00	1662.95
702.18	1677.29
702.37	1685.48
702.55	1804.26
702.73	1701.86
702.92	1636.33
703.10	1689.57
703.28	1710.05
703.47	1628.14
703.65	1767.40
703.84	1728.49
704.02	1683.43
704.20	1800.16
704.39	1679.33
704.57	1724.39
704.75	1746.92
704.94	1755.11
705.12	1726.44
705.30	1775.59
705.49	2273.25
705.67	4382.65
705.86	9461.62
706.04	12896.06
706.22	14704.42
706.41	15820.56
706.59	14044.97
706.77	9856.87
706.96	7612.30
707.14	6932.37
707.32	6115.23
707.51	5593.00
707.69	4904.89
707.87	4294.59
708.06	3577.80
708.24	2947.03
708.42	2451.42
708.61	2211.81
708.79	1945.57
708.97	1861.60
709.16	1845.22
709.34	1791.97
709.52	1771.49
709.71	1748.97
709.89	1746.92
710.07	1689.57
710.26	1673.19
710.44	1708.01
710.62	1759.21
710.80	1732.58
710.99	1710.05
711.17	1716.20
711.35	1720.29
711.54	1724.39
711.72	1824.74
711.90	1697.77
712.09	1757.16
712.27	1656.81
712.45	1779.68
712.63	1689.57
712.82	1708.01
713.00	1689.57
713.18	1730.53
713.37	1796.07
713.55	1742.82
713.73	1740.77
713.91	1767.40
714.10	1677.29
714.28	1742.82
714.46	1773.54
714.65	1708.01
714.83	1722.34
715.01	1683.43
715.19	1716.20
715.38	1716.20
715.56	1728.49
715.74	1703.91
715.92	1669.09
716.11	1839.08
716.29	1630.18
716.47	1693.67
716.65	1712.10
716.84	1640.42
717.02	1785.83
717.20	1675.24
717.38	1652.71
717.57	1740.77
717.75	1667.05
717.93	1691.62
718.11	1722.34
718.30	1677.29
718.48	1744.87
718.66	1779.68
718.84	1759.21
719.03	1769.44
719.21	1695.72
719.39	1894.37
719.57	1697.77
719.75	1777.64
719.94	1626.09
720.12	1626.09
720.30	1716.20
720.48	1789.92
720.67	1718.25
720.85	1636.33
721.03	1722.34
721.21	1632.23
721.39	1832.93
721.58	1777.64
721.76	1757.16
721.94	1759.21
722.12	1691.62
722.30	1775.59
722.49	1621.99
722.67	1738.73
722.85	1736.68
723.03	1642.47
723.21	1695.72
723.40	1652.71
723.58	1751.01
723.76	1681.38
723.94	1757.16
724.12	1701.86
724.30	1787.88
724.49	1742.82
724.67	1673.19
724.85	1820.64
725.03	1673.19
725.21	1734.63
725.40	1724.39
725.58	1656.81
725.76	1769.44
725.94	1763.30
726.12	1724.39
726.30	1681.38
726.49	1687.53
726.67	1617.90
726.85	1730.53
727.03	1800.16
727.21	2156.51
727.39	2893.78
727.57	3813.32
727.76	4229.06
727.94	4532.15
728.12	4415.42
728.30	3712.97
728.48	3024.85
728.66	2772.95
728.84	2652.12
729.03	2338.78
729.21	2078.69
729.39	1984.48
729.57	1904.61
729.75	1814.50
729.93	1890.28
730.11	1716.20
730.30	1662.95
730.48	1763.30
730.66	1769.44
730.84	1755.11
731.02	1683.43
731.20	1587.18
731.38	1665.00
731.56	1685.48
731.74	1693.67
731.93	1607.66
732.11	1673.19
732.29	1626.09
732.47	1722.34
732.65	1699.81
732.83	1808.36
733.01	1738.73
733.19	1677.29
733.37	1730.53
733.56	1763.30
733.74	1703.91
733.92	1845.22
734.10	1681.38
734.28	1755.11
734.46	1630.18
734.64	1738.73
734.82	1665.00
735.00	1673.19
735.18	1626.09
735.36	1742.82
735.54	1689.57
735.73	1740.77
735.91	1714.15
736.09	1654.76
736.27	1624.04
736.45	1712.10
736.63	1581.03
736.81	1648.61
736.99	1744.87
737.17	1740.77
737.35	1660.90
737.53	1695.72
737.71	1673.19
737.89	1724.39
738.07	1607.66
738.25	1636.33
738.43	1603.56
738.61	1738.73
738.80	1660.90
738.98	1585.13
739.16	1568.74
739.34	1697.77
739.52	1736.68
739.70	1665.00
739.88	1669.09
740.06	1796.07
740.24	1587.18
740.42	1738.73
740.60	1630.18
740.78	1710.05
740.96	1646.57
741.14	1683.43
741.32	1753.06
741.50	1669.09
741.68	1783.78
741.86	1734.63
742.04	1673.19
742.22	1632.23
742.40	1705.96
742.58	1630.18
742.76	1624.04
742.94	1798.12
743.12	1619.94
743.30	1701.86
743.48	1730.53
743.66	1660.90
743.84	1755.11
744.02	1699.81
744.20	1701.86
744.38	1652.71
744.56	1660.90
744.74	1691.62
744.92	1738.73
745.10	1828.84
745.28	1705.96
745.46	1804.26
745.64	1648.61
745.82	1744.87
746.00	1660.90
746.18	1693.67
746.36	1617.90
746.54	1716.20
746.72	1652.71
746.90	1675.24
747.08	1781.73
747.26	1660.90
747.44	1744.87
747.62	1751.01
747.80	1730.53
747.98	1732.58
748.15	1732.58
748.33	1787.88
748.51	1722.34
748.69	1734.63
748.87	1648.61
749.05	1636.33
749.23	1669.09
749.41	1798.12
749.59	1689.57
749.77	1755.11
749.95	1740.77
750.13	1636.33
750.31	1736.68
750.49	1708.01
750.67	1679.33
750.85	1769.44
751.03	1665.00
751.20	1843.17
751.38	1718.25
751.56	1693.67
751.74	1705.96
751.92	1632.23
752.10	1708.01
752.28	1726.44
752.46	1730.53
752.64	1648.61
752.82	1705.96
753.00	1746.92
753.18	1660.90
753.35	1691.62
753.53	1779.68
753.71	1701.86
753.89	1767.40
754.07	1650.66
754.25	1757.16
754.43	1718.25
754.61	1599.46
754.79	1755.11
754.97	1673.19
755.14	1785.83
755.32	1611.75
755.50	1712.10
755.68	1695.72
755.86	1673.19
756.04	1685.48
756.22	1636.33
756.40	1689.57
756.57	1751.01
756.75	1662.95
756.93	1726.44
757.11	1722.34
757.29	1644.52
757.47	1615.85
757.65	1624.04
757.82	1595.37
758.00	1685.48
758.18	1615.85
758.36	1652.71
758.54	1837.03
758.72	1632.23
758.90	1761.25
759.07	1683.43
759.25	1626.09
759.43	1832.93
759.61	1656.81
759.79	2144.22
759.97	1718.25
760.15	1628.14
760.32	1740.77
760.50	1773.54
760.68	1761.25
760.86	1681.38
761.04	1759.21
761.22	1736.68
761.39	1681.38
761.57	1765.35
761.75	1701.86
761.93	1665.00
762.11	1689.57
762.28	1697.77
762.46	1607.66
762.64	1779.68
762.82	1656.81
763.00	1687.53
763.18	1783.78
763.35	1646.57
763.53	1779.68
763.71	1763.30
763.89	1699.81
764.07	1746.92
764.24	1646.57
764.42	1728.49
764.60	1724.39
764.78	1708.01
764.96	1730.53
765.13	1783.78
765.31	1667.05
765.49	1697.77
765.67	1648.61
765.84	1626.09
766.02	1701.86
766.20	1667.05
766.38	1738.73
766.56	1675.24
766.73	1781.73
766.91	1648.61
767.09	1722.34
767.27	1742.82
767.44	1693.67
767.62	1794.02
767.80	1681.38
767.98	1636.33
768.15	1718.25
768.33	1751.01
768.51	1800.16
768.69	1736.68
768.87	1724.39
769.04	1746.92
769.22	1789.92
769.40	1777.64
769.58	1828.84
769.75	1673.19
769.93	1757.16
770.11	1724.39
770.28	1681.38
770.46	1681.38
770.64	1730.53
770.82	1691.62
770.99	1636.33
771.17	1757.16
771.35	1753.06
771.53	1689.57
771.70	1658.85
771.88	1697.77
772.06	1652.71
772.23	1710.05
772.41	1746.92
772.59	1785.83
772.77	1615.85
772.94	1679.33
773.12	1748.97
773.30	1677.29
773.47	1697.77
773.65	1669.09
773.83	1804.26
774.01	1689.57
774.18	1613.80
774.36	1675.24
774.54	1587.18
774.71	1728.49
774.89	1617.90
775.07	1624.04
775.24	1640.42
775.42	1648.61
775.60	1845.22
775.78	1630.18
775.95	1578.98
776.13	1648.61
776.31	1619.94
776.48	1755.11
776.66	1783.78
776.84	1613.80
777.01	1679.33
777.19	1656.81
777.37	1726.44
777.54	1787.88
777.72	1812.45
777.90	1667.05
778.07	1656.81
778.25	1865.70
778.43	1718.25
778.60	1644.52
778.78	1705.96
778.96	1814.50
779.13	1587.18
779.31	1798.12
779.49	1660.90
779.66	1724.39
779.84	1650.66
780.01	1761.25
780.19	1640.42
780.37	1755.11
780.54	1771.49
780.72	1658.85
780.90	1652.71
781.07	1691.62
781.25	1669.09
781.43	1720.29
781.60	1701.86
781.78	1789.92
781.95	1712.10
782.13	1677.29
782.31	1658.85
782.48	1650.66
782.66	1712.10
782.83	1763.30
783.01	1689.57
783.19	1732.58
783.36	1708.01
783.54	1683.43
783.72	1765.35
783.89	1660.90
784.07	1736.68
784.24	1687.53
784.42	1712.10
784.60	1736.68
784.77	1716.20
784.95	1531.88
785.12	1667.05
785.30	1730.53
785.47	1628.14
785.65	1673.19
785.83	1660.90
786.00	1621.99
786.18	1667.05
786.35	1650.66
786.53	1689.57
786.71	1685.48
786.88	1742.82
787.06	1701.86
787.23	1722.34
787.41	1720.29
787.58	1644.52
787.76	1701.86
787.94	1716.20
788.11	1648.61
788.29	1679.33
788.46	1665.00
788.64	1574.89
788.81	1740.77
788.99	1660.90
789.16	1669.09
789.34	1708.01
789.52	1578.98
789.69	1669.09
789.87	1605.61
790.04	1650.66
790.22	1730.53
790.39	1812.45
790.57	1650.66
790.74	1677.29
790.92	1714.15
791.09	1658.85
791.27	1714.15
791.44	1746.92
791.62	1738.73
791.79	1736.68
791.97	1681.38
792.15	1861.60
792.32	1669.09
792.50	1671.14
792.67	1857.51
792.85	1789.92
793.02	1808.36
793.20	1626.09
793.37	1642.47
793.55	1746.92
793.72	1601.51
793.90	1681.38
794.07	1697.77
794.25	1636.33
794.42	1687.53
794.60	1734.63
794.77	1671.14
794.95	1722.34
795.12	1771.49
795.30	1642.47
795.47	1628.14
795.65	1986.53
795.82	1740.77
796.00	1738.73
796.17	1607.66
796.34	1722.34
796.52	1710.05
796.69	1769.44
796.87	1734.63
797.04	1703.91
797.22	1734.63
797.39	1703.91
797.57	1708.01
797.74	1720.29
797.92	1677.29
798.09	1679.33
798.27	1822.69
798.44	1714.15
798.62	1708.01
798.79	1714.15
798.96	1718.25
799.14	1714.15
799.31	1888.23
799.49	1714.15
799.66	1669.09
799.84	1730.53
800.01	1632.23
800.19	1734.63
800.36	1617.90
800.53	1642.47
800.71	1718.25
800.88	1904.61
801.06	1718.25
801.23	1628.14
801.41	1691.62
801.58	1677.29
801.75	1626.09
801.93	1673.19
802.10	1728.49
802.28	1740.77
802.45	1638.38
802.63	1783.78
802.80	1785.83
802.97	1673.19
803.15	1665.00
803.32	1697.77
803.50	1699.81
803.67	1617.90
803.84	1675.24
804.02	1681.38
804.19	1671.14
804.37	1591.27
804.54	1593.32
804.71	1740.77
804.89	1665.00
805.06	1658.85
805.24	1599.46
805.41	1628.14
805.58	1646.57
805.76	1796.07
805.93	1746.92
806.10	1757.16
806.28	1689.57
806.45	1695.72
806.63	1824.74
806.80	1712.10
806.97	1714.15
807.15	1722.34
807.32	1716.20
807.49	1701.86
807.67	1644.52
807.84	1640.42
808.01	1554.41
808.19	1806.31
808.36	1832.93
808.54	1595.37
808.71	1601.51
808.88	1689.57
809.06	1722.34
809.23	1765.35
809.40	1705.96
809.58	1873.89
809.75	1658.85
809.92	1550.31
810.10	1867.75
810.27	1720.29
810.44	1757.16
810.62	1695.72
810.79	1656.81
810.96	1609.70
811.14	1665.00
811.31	1718.25
811.48	1701.86
811.66	1640.42
811.83	1753.06
812.00	1763.30
812.18	1640.42
812.35	1728.49
812.52	1736.68
812.69	1710.05
812.87	1632.23
813.04	1687.53
813.21	1689.57
813.39	1689.57
813.56	1609.70
813.73	1789.92
813.91	1587.18
814.08	1662.95
814.25	1701.86
814.42	1640.42
814.60	1638.38
814.77	1712.10
814.94	1714.15
815.12	1708.01
815.29	1785.83
815.46	1681.38
815.63	1673.19
815.81	1689.57
815.98	1732.58
816.15	1685.48
816.33	1816.55
816.50	1687.53
816.67	1730.53
816.84	1648.61
817.02	1673.19
817.19	1628.14
817.36	1775.59
817.53	1761.25
817.71	1644.52
817.88	1746.92
818.05	1593.32
818.22	1779.68
818.40	1773.54
818.57	1738.73
818.74	1736.68
818.91	1652.71
819.09	1787.88
819.26	1771.49
819.43	1662.95
819.60	1648.61
819.78	1834.98
819.95	1775.59
820.12	1615.85
820.29	1775.59
820.47	1779.68
820.64	1615.85
820.81	1632.23
820.98	1609.70
821.15	1701.86
821.33	1708.01
821.50	1572.84
821.67	1765.35
821.84	1703.91
822.02	1695.72
822.19	1759.21
822.36	1652.71
822.53	1697.77
822.70	1656.81
822.88	1720.29
823.05	1777.64
823.22	1648.61
823.39	1738.73
823.56	1701.86
823.74	1796.07
823.91	1665.00
824.08	1652.71
824.25	1693.67
824.42	1753.06
824.60	1689.57
824.77	1660.90
824.94	1716.20
825.11	1767.40
825.28	1621.99
825.45	1687.53
825.63	1689.57
825.80	1669.09
825.97	1673.19
826.14	1667.05
826.31	1605.61
826.48	1789.92
826.66	1771.49
826.83	1710.05
827.00	1708.01
827.17	1665.00
827.34	1671.14
827.51	1650.66
827.69	1650.66
827.86	1591.27
828.03	1624.04
828.20	1708.01
828.37	1652.71
828.54	1791.97
828.71	1744.87
828.89	1791.97
829.06	1742.82
829.23	1779.68
829.40	1609.70
829.57	1632.23
829.74	1652.71
829.91	1699.81
830.09	1675.24
830.26	1763.30
830.43	1736.68
830.60	1681.38
830.77	1740.77
830.94	1789.92
831.11	1714.15
831.28	1724.39
831.46	1769.44
831.63	1722.34
831.80	1771.49
831.97	1681.38
832.14	1660.90
832.31	1728.49
832.48	1673.19
832.65	1748.97
832.82	1675.24
832.99	1710.05
833.17	1667.05
833.34	1740.77
833.51	1748.97
833.68	1640.42
833.85	1826.79
834.02	1656.81
834.19	1708.01
834.36	1636.33
834.53	1718.25
834.70	1738.73
834.87	1726.44
835.04	1708.01
835.22	1605.61
835.39	1597.42
835.56	1675.24
835.73	1705.96
835.90	1677.29
836.07	1611.75
836.24	1712.10
836.41	1691.62
836.58	1644.52
836.75	1714.15
836.92	1751.01
837.09	1712.10
837.26	1699.81
837.43	1710.05
837.60	1689.57
837.77	1718.25
837.94	1652.71
838.12	1783.78
838.29	1628.14
838.46	1642.47
838.63	1576.94
838.80	1824.74
838.97	1769.44
839.14	1658.85
839.31	1685.48
839.48	1769.44
839.65	1628.14
839.82	1720.29
839.99	1722.34
840.16	1769.44
840.33	1667.05
840.50	1603.56
840.67	1701.86
840.84	1654.76
841.01	1691.62
841.18	1714.15
841.35	1662.95
841.52	1787.88
841.69	1808.36
841.86	1705.96
842.03	1697.77
842.20	1734.63
842.37	1681.38
842.54	1685.48
842.71	1738.73
842.88	1681.38
843.05	1779.68
843.22	1687.53
843.39	1759.21
843.56	1671.14
843.73	1748.97
843.90	1697.77
844.07	1718.25
844.24	1734.63
844.41	1685.48
844.58	1736.68
844.75	1722.34
844.92	1763.30
845.09	1689.57
845.26	1658.85
845.43	1755.11
845.60	1644.52
845.77	1669.09
845.94	1777.64
846.10	1716.20
846.27	1626.09
846.44	1609.70
846.61	1665.00
846.78	1640.42
846.95	1712.10
847.12	1675.24
847.29	1710.05
847.46	1683.43
847.63	1816.55
847.80	1714.15
847.97	1650.66
848.14	1822.69
848.31	1652.71
848.48	1591.27
848.65	1712.10
848.82	1642.47
848.98	1810.40
849.15	1746.92
849.32	1812.45
849.49	1736.68
849.66	1665.00
849.83	1718.25
850.00	1636.33
850.17	1695.72
850.34	1638.38
850.51	1687.53
850.68	1689.57
850.85	1751.01
851.01	1640.42
851.18	1763.30
851.35	1691.62
851.52	1740.77
851.69	1802.21
851.86	1609.70
852.03	1734.63
852.20	1789.92
852.37	1699.81
852.53	1644.52
852.70	1714.15
852.87	1740.77
853.04	1779.68
853.21	1724.39
853.38	1783.78
853.55	1757.16
853.72	1720.29
853.89	1720.29
854.05	1683.43
854.22	1624.04
854.39	1646.57
854.56	1734.63
854.73	1746.92
854.90	1644.52
855.07	1593.32
855.23	1695.72
855.40	1642.47
855.57	1734.63
855.74	1677.29
855.91	1867.75
856.08	1640.42
856.25	1607.66
856.41	1656.81
856.58	1607.66
856.75	1671.14
856.92	1581.03
857.09	1724.39
857.26	1708.01
857.42	1693.67
857.59	1703.91
857.76	1632.23
857.93	1712.10
858.10	1660.90
858.27	1587.18
858.43	1708.01
858.60	1626.09
858.77	1642.47
858.94	1722.34
859.11	1744.87
859.27	1628.14
859.44	1714.15
859.61	1845.22
859.78	1701.86
859.95	1640.42
860.12	1705.96
860.28	1834.98
860.45	1757.16
860.62	1716.20
860.79	1748.97
860.95	1683.43
861.12	1779.68
861.29	1677.29
861.46	1660.90
861.63	1669.09
861.79	1578.98
861.96	1636.33
862.13	1640.42
862.30	1746.92
862.47	1679.33
862.63	1630.18
862.80	1746.92
862.97	1753.06
863.14	1697.77
863.30	1728.49
863.47	1656.81
863.64	1771.49
863.81	1720.29
863.97	1730.53
864.14	1716.20
864.31	1734.63
864.48	1718.25
864.65	1619.94
864.81	1720.29
864.98	1753.06
865.15	1660.90
865.32	1791.97
865.48	1710.05
865.65	1863.65
865.82	1726.44
865.98	1632.23
866.15	1732.58
866.32	1697.77
866.49	1689.57
866.65	1669.09
866.82	1665.00
866.99	1744.87
867.16	1722.34
867.32	1626.09
867.49	1679.33
867.66	1675.24
867.83	1566.70
867.99	1624.04
868.16	1695.72
868.33	1533.93
868.49	1775.59
868.66	1677.29
868.83	1701.86
868.99	1753.06
869.16	1771.49
869.33	1781.73
869.50	1722.34
869.66	1730.53
869.83	1673.19
870.00	1646.57
870.16	1738.73
870.33	1724.39
870.50	1740.77
870.66	1673.19
870.83	1746.92
871.00	1683.43
871.17	1748.97
871.33	1693.67
871.50	1693.67
871.67	1718.25
871.83	1701.86
872.00	1830.88
872.17	1734.63
872.33	1734.63
872.50	1830.88
872.67	1683.43
872.83	1675.24
873.00	1769.44
873.17	1699.81
873.33	1742.82
873.50	1705.96
873.67	1697.77
873.83	1699.81
874.00	1724.39
874.16	1771.49
874.33	1687.53
874.50	1630.18
874.66	1787.88
874.83	1726.44
875.00	1714.15
875.16	1722.34
875.33	1834.98
875.50	1656.81
875.66	1710.05
875.83	1681.38
875.99	1724.39
876.16	1738.73
876.33	1609.70
876.49	1697.77
876.66	1808.36
876.83	1740.77
876.99	1671.14
877.16	1705.96
877.32	1660.90
877.49	1665.00
877.66	1703.91
877.82	1806.31
877.99	1753.06
878.15	1863.65
878.32	1765.35
878.49	1662.95
878.65	1650.66
878.82	1705.96
878.98	1640.42
879.15	1759.21
879.32	1748.97
879.48	1716.20
879.65	1687.53
879.81	1646.57
879.98	1644.52
880.15	1671.14
880.31	1736.68
880.48	1607.66
880.64	1796.07
880.81	1708.01
880.97	1775.59
881.14	1775.59
881.31	1665.00
881.47	1820.64
881.64	1738.73
881.80	1632.23
881.97	1712.10
882.13	1771.49
882.30	1697.77
882.47	1669.09
882.63	1667.05
882.80	1673.19
882.96	1761.25
883.13	1746.92
883.29	1617.90
883.46	1675.24
883.62	1767.40
883.79	1734.63
883.95	1669.09
884.12	1722.34
884.29	1810.40
884.45	1646.57
884.62	1806.31
884.78	1640.42
884.95	1794.02
885.11	1671.14
885.28	1726.44
885.44	1687.53
885.61	1689.57
885.77	1800.16
885.94	1681.38
886.10	1724.39
886.27	1689.57
886.43	1837.03
886.60	1738.73
886.76	1652.71
886.93	1642.47
887.09	1656.81
887.26	1587.18
887.42	1654.76
887.59	1705.96
887.75	1826.79
887.92	1800.16
888.08	1728.49
888.25	1726.44
888.41	1818.60
888.58	1601.51
888.74	1714.15
888.91	1701.86
>>>>>End Processed Spectral Data<<<<<
