SpectraSuite Data File
++++++++++++++++++++++++++++++++++++
Date: Mon Jun 06 14:39:17 CEST 2016
User: root
Dark Spectrum Present: No
Reference Spectrum Present: No
Number of Sampled Component Spectra: 1
Spectrometers: USB4C02835
Integration Time (usec): 100000 (USB4C02835)
Spectra Averaged: 1 (USB4C02835)
Boxcar Smoothing: 0 (USB4C02835)
Correct for Electrical Dark: No (USB4C02835)
Strobe/Lamp Enabled: No (USB4C02835)
Correct for Detector Non-linearity: No (USB4C02835)
Correct for Stray Light: No (USB4C02835)
Number of Pixels in Processed Spectrum: 3648
>>>>>Begin Processed Spectral Data<<<<<
177.47	1476.59
177.69	1476.59
177.91	1476.59
178.13	1404.91
178.36	1452.01
178.58	1652.71
178.80	1687.53
179.02	1578.98
179.24	1642.47
179.46	1691.62
179.68	1773.54
179.90	1687.53
180.13	1724.39
180.35	1761.25
180.57	1689.57
180.79	1832.93
181.01	1689.57
181.23	1691.62
181.45	1757.16
181.67	1722.34
181.90	1722.34
182.12	1654.76
182.34	1615.85
182.56	1744.87
182.78	1742.82
183.00	1703.91
183.22	1724.39
183.44	1636.33
183.66	1789.92
183.89	1708.01
184.11	1652.71
184.33	1757.16
184.55	1746.92
184.77	1720.29
184.99	1732.58
185.21	1669.09
185.43	1796.07
185.65	1687.53
185.87	1656.81
186.10	1800.16
186.32	1804.26
186.54	1675.24
186.76	1751.01
186.98	1757.16
187.20	1703.91
187.42	1689.57
187.64	1689.57
187.86	1648.61
188.08	1783.78
188.30	1626.09
188.52	1665.00
188.75	1834.98
188.97	1779.68
189.19	1640.42
189.41	1644.52
189.63	1654.76
189.85	1689.57
190.07	1599.46
190.29	1660.90
190.51	1796.07
190.73	1617.90
190.95	1759.21
191.17	1681.38
191.39	1568.74
191.61	1681.38
191.84	1658.85
192.06	1767.40
192.28	1644.52
192.50	1853.41
192.72	1722.34
192.94	1726.44
193.16	1763.30
193.38	1744.87
193.60	1671.14
193.82	1656.81
194.04	1767.40
194.26	1646.57
194.48	1669.09
194.70	1626.09
194.92	1714.15
195.14	1718.25
195.36	1644.52
195.58	1691.62
195.80	1771.49
196.02	1683.43
196.24	1689.57
196.46	1716.20
196.69	1656.81
196.91	1826.79
197.13	1613.80
197.35	1730.53
197.57	1757.16
197.79	1671.14
198.01	1742.82
198.23	1798.12
198.45	1697.77
198.67	1611.75
198.89	1654.76
199.11	1681.38
199.33	1679.33
199.55	1628.14
199.77	1701.86
199.99	1701.86
200.21	1677.29
200.43	1818.60
200.65	1667.05
200.87	1601.51
201.09	1636.33
201.31	1738.73
201.53	1755.11
201.75	1710.05
201.97	1652.71
202.19	1775.59
202.41	1746.92
202.63	1855.46
202.85	1703.91
203.07	1734.63
203.29	1691.62
203.51	1656.81
203.73	1603.56
203.95	1943.52
204.17	1718.25
204.39	1724.39
204.61	1683.43
204.83	1671.14
205.05	1822.69
205.27	1746.92
205.49	1834.98
205.71	1753.06
205.93	1605.61
206.15	1628.14
206.37	1740.77
206.59	1654.76
206.81	1576.94
207.03	1624.04
207.25	1597.42
207.47	1673.19
207.69	1693.67
207.91	1787.88
208.13	1765.35
208.34	1656.81
208.56	1613.80
208.78	1705.96
209.00	1708.01
209.22	1656.81
209.44	1658.85
209.66	1634.28
209.88	1769.44
210.10	1626.09
210.32	1705.96
210.54	1783.78
210.76	1619.94
210.98	1806.31
211.20	1705.96
211.42	1714.15
211.64	1738.73
211.86	1757.16
212.08	1689.57
212.30	1724.39
212.52	1726.44
212.74	1759.21
212.96	1771.49
213.17	1753.06
213.39	1716.20
213.61	1705.96
213.83	1683.43
214.05	1701.86
214.27	1751.01
214.49	1644.52
214.71	1742.82
214.93	1705.96
215.15	1779.68
215.37	1746.92
215.59	1646.57
215.81	1734.63
216.03	1697.77
216.24	1695.72
216.46	1650.66
216.68	1779.68
216.90	1734.63
217.12	1724.39
217.34	1693.67
217.56	1697.77
217.78	1759.21
218.00	1720.29
218.22	1728.49
218.44	1736.68
218.66	1763.30
218.87	1785.83
219.09	1675.24
219.31	1685.48
219.53	1642.47
219.75	1617.90
219.97	1673.19
220.19	1722.34
220.41	1648.61
220.63	1789.92
220.85	1671.14
221.06	1648.61
221.28	1738.73
221.50	1763.30
221.72	1751.01
221.94	1732.58
222.16	1665.00
222.38	1783.78
222.60	1671.14
222.82	1691.62
223.03	1691.62
223.25	1601.51
223.47	1705.96
223.69	1775.59
223.91	1787.88
224.13	1693.67
224.35	1699.81
224.57	1710.05
224.78	1738.73
225.00	1611.75
225.22	1687.53
225.44	1783.78
225.66	1697.77
225.88	1642.47
226.10	1761.25
226.32	1693.67
226.53	1761.25
226.75	1667.05
226.97	1757.16
227.19	1781.73
227.41	1675.24
227.63	1646.57
227.85	1591.27
228.06	1714.15
228.28	1705.96
228.50	1759.21
228.72	1654.76
228.94	1613.80
229.16	1587.18
229.37	1611.75
229.59	1628.14
229.81	1736.68
230.03	1669.09
230.25	1613.80
230.47	1683.43
230.69	1607.66
230.90	1712.10
231.12	1644.52
231.34	1701.86
231.56	1763.30
231.78	1662.95
232.00	1603.56
232.21	1671.14
232.43	1665.00
232.65	1650.66
232.87	1736.68
233.09	1644.52
233.30	1648.61
233.52	1779.68
233.74	1708.01
233.96	1662.95
234.18	1662.95
234.40	1718.25
234.61	1834.98
234.83	1621.99
235.05	1572.84
235.27	1794.02
235.49	1773.54
235.70	1660.90
235.92	1855.46
236.14	1751.01
236.36	1812.45
236.58	1656.81
236.79	1779.68
237.01	1695.72
237.23	1638.38
237.45	1759.21
237.67	1648.61
237.88	1669.09
238.10	1798.12
238.32	1619.94
238.54	1708.01
238.76	1703.91
238.97	1695.72
239.19	1640.42
239.41	1660.90
239.63	1785.83
239.85	1708.01
240.06	1726.44
240.28	1603.56
240.50	1712.10
240.72	1632.23
240.93	1656.81
241.15	1787.88
241.37	1740.77
241.59	1834.98
241.81	1722.34
242.02	1619.94
242.24	1728.49
242.46	1744.87
242.68	1677.29
242.89	1742.82
243.11	1695.72
243.33	1693.67
243.55	1669.09
243.76	1724.39
243.98	1626.09
244.20	1662.95
244.42	1650.66
244.64	1681.38
244.85	1675.24
245.07	1673.19
245.29	1759.21
245.51	1689.57
245.72	1683.43
245.94	1781.73
246.16	1705.96
246.38	1708.01
246.59	1679.33
246.81	1626.09
247.03	1742.82
247.24	1550.31
247.46	1673.19
247.68	1740.77
247.90	1685.48
248.11	1681.38
248.33	1798.12
248.55	1724.39
248.77	1673.19
248.98	1705.96
249.20	1785.83
249.42	1716.20
249.64	1662.95
249.85	1601.51
250.07	1615.85
250.29	1753.06
250.50	1789.92
250.72	1658.85
250.94	1722.34
251.16	1755.11
251.37	1736.68
251.59	1710.05
251.81	1662.95
252.02	1757.16
252.24	1675.24
252.46	1789.92
252.68	1648.61
252.89	1660.90
253.11	1634.28
253.33	1818.60
253.54	1734.63
253.76	1599.46
253.98	1691.62
254.20	1705.96
254.41	1607.66
254.63	1767.40
254.85	1542.12
255.06	1693.67
255.28	1746.92
255.50	1740.77
255.71	1597.42
255.93	1632.23
256.15	1667.05
256.36	1738.73
256.58	1660.90
256.80	1769.44
257.02	1695.72
257.23	1679.33
257.45	1736.68
257.67	1740.77
257.88	1576.94
258.10	1730.53
258.32	1652.71
258.53	1748.97
258.75	1736.68
258.97	1630.18
259.18	1722.34
259.40	1699.81
259.62	1798.12
259.83	1765.35
260.05	1761.25
260.27	1961.95
260.48	1703.91
260.70	1646.57
260.92	1708.01
261.13	1624.04
261.35	1673.19
261.57	1748.97
261.78	1615.85
262.00	1687.53
262.22	1746.92
262.43	1648.61
262.65	1687.53
262.86	1685.48
263.08	1800.16
263.30	1662.95
263.51	1624.04
263.73	1683.43
263.95	1820.64
264.16	1677.29
264.38	1687.53
264.60	1681.38
264.81	1677.29
265.03	1763.30
265.25	1716.20
265.46	1691.62
265.68	1789.92
265.89	1744.87
266.11	1619.94
266.33	1740.77
266.54	1710.05
266.76	1667.05
266.98	1683.43
267.19	1808.36
267.41	1822.69
267.62	1679.33
267.84	1658.85
268.06	1722.34
268.27	1714.15
268.49	1765.35
268.70	1763.30
268.92	1689.57
269.14	1699.81
269.35	1617.90
269.57	1748.97
269.79	1773.54
270.00	1609.70
270.22	1806.31
270.43	1687.53
270.65	1615.85
270.87	1705.96
271.08	1716.20
271.30	1701.86
271.51	1640.42
271.73	1695.72
271.95	1751.01
272.16	1710.05
272.38	1794.02
272.59	1648.61
272.81	1712.10
273.02	1748.97
273.24	1705.96
273.46	1779.68
273.67	1632.23
273.89	1650.66
274.10	1624.04
274.32	1781.73
274.54	1787.88
274.75	1654.76
274.97	1689.57
275.18	1744.87
275.40	1734.63
275.61	1787.88
275.83	1685.48
276.05	1611.75
276.26	1671.14
276.48	1716.20
276.69	1689.57
276.91	1650.66
277.12	1757.16
277.34	1751.01
277.55	1679.33
277.77	1705.96
277.99	1738.73
278.20	1560.55
278.42	1671.14
278.63	1699.81
278.85	1681.38
279.06	1628.14
279.28	1708.01
279.49	1673.19
279.71	1714.15
279.93	1689.57
280.14	1732.58
280.36	1710.05
280.57	1820.64
280.79	1779.68
281.00	1695.72
281.22	1705.96
281.43	1714.15
281.65	1574.89
281.86	1613.80
282.08	1705.96
282.29	1800.16
282.51	1630.18
282.73	1603.56
282.94	1603.56
283.16	1734.63
283.37	1740.77
283.59	1648.61
283.80	1644.52
284.02	1703.91
284.23	1767.40
284.45	1652.71
284.66	1583.08
284.88	1701.86
285.09	1677.29
285.31	1669.09
285.52	1687.53
285.74	1574.89
285.95	1738.73
286.17	1697.77
286.38	1791.97
286.60	1683.43
286.81	1718.25
287.03	1617.90
287.24	1665.00
287.46	1669.09
287.67	1728.49
287.89	1771.49
288.10	1691.62
288.32	1667.05
288.53	1677.29
288.75	1769.44
288.96	1785.83
289.18	1697.77
289.39	1708.01
289.61	1738.73
289.82	1816.55
290.04	1892.32
290.25	1716.20
290.47	1714.15
290.68	1685.48
290.90	1775.59
291.11	1685.48
291.33	1810.40
291.54	1636.33
291.76	1617.90
291.97	1703.91
292.18	1687.53
292.40	1636.33
292.61	1669.09
292.83	1783.78
293.04	1781.73
293.26	1783.78
293.47	1689.57
293.69	1761.25
293.90	1644.52
294.12	1751.01
294.33	1667.05
294.55	1722.34
294.76	1675.24
294.97	1697.77
295.19	1812.45
295.40	1705.96
295.62	1730.53
295.83	1779.68
296.05	1671.14
296.26	1820.64
296.48	1740.77
296.69	1701.86
296.90	1624.04
297.12	1789.92
297.33	1726.44
297.55	1615.85
297.76	1642.47
297.98	1699.81
298.19	1687.53
298.41	1720.29
298.62	1722.34
298.83	1808.36
299.05	1671.14
299.26	1662.95
299.48	1626.09
299.69	1720.29
299.90	1669.09
300.12	1607.66
300.33	1777.64
300.55	1787.88
300.76	1785.83
300.98	1656.81
301.19	1755.11
301.40	1736.68
301.62	1626.09
301.83	1720.29
302.05	1769.44
302.26	1744.87
302.47	1695.72
302.69	1648.61
302.90	1697.77
303.12	1607.66
303.33	1675.24
303.54	1806.31
303.76	1656.81
303.97	1722.34
304.19	1757.16
304.40	1626.09
304.61	1755.11
304.83	1775.59
305.04	1710.05
305.26	1695.72
305.47	1624.04
305.68	1710.05
305.90	1611.75
306.11	1701.86
306.33	1705.96
306.54	1650.66
306.75	1673.19
306.97	1605.61
307.18	1621.99
307.39	1615.85
307.61	1812.45
307.82	1744.87
308.04	1730.53
308.25	1701.86
308.46	1765.35
308.68	1751.01
308.89	1650.66
309.10	1740.77
309.32	1763.30
309.53	1685.48
309.74	1685.48
309.96	1744.87
310.17	1740.77
310.39	1599.46
310.60	1888.23
310.81	1705.96
311.03	1634.28
311.24	1687.53
311.45	1607.66
311.67	1751.01
311.88	1718.25
312.09	1658.85
312.31	1671.14
312.52	1761.25
312.73	1826.79
312.95	1638.38
313.16	1642.47
313.37	1757.16
313.59	1753.06
313.80	1759.21
314.01	1796.07
314.23	1689.57
314.44	1648.61
314.65	1761.25
314.87	1650.66
315.08	1642.47
315.29	1667.05
315.51	1646.57
315.72	1675.24
315.93	1730.53
316.15	1681.38
316.36	1638.38
316.57	1736.68
316.79	1736.68
317.00	1673.19
317.21	1732.58
317.43	1632.23
317.64	1708.01
317.85	1720.29
318.07	1644.52
318.28	1701.86
318.49	1818.60
318.70	1918.95
318.92	1892.32
319.13	1796.07
319.34	1912.80
319.56	1779.68
319.77	1800.16
319.98	1800.16
320.20	1744.87
320.41	1757.16
320.62	1732.58
320.83	1607.66
321.05	1814.50
321.26	1718.25
321.47	1675.24
321.69	1720.29
321.90	1636.33
322.11	1665.00
322.32	1681.38
322.54	1732.58
322.75	1693.67
322.96	1804.26
323.18	1581.03
323.39	1648.61
323.60	1624.04
323.81	1804.26
324.03	1695.72
324.24	1714.15
324.45	1646.57
324.66	1681.38
324.88	1771.49
325.09	1783.78
325.30	1742.82
325.52	1730.53
325.73	1675.24
325.94	1662.95
326.15	1658.85
326.37	1708.01
326.58	1726.44
326.79	1789.92
327.00	1683.43
327.22	1714.15
327.43	1716.20
327.64	1656.81
327.85	1746.92
328.07	1718.25
328.28	1828.84
328.49	1658.85
328.70	1697.77
328.92	1718.25
329.13	1675.24
329.34	1781.73
329.55	1761.25
329.76	1728.49
329.98	1677.29
330.19	1775.59
330.40	1693.67
330.61	1673.19
330.83	1732.58
331.04	1679.33
331.25	1722.34
331.46	1658.85
331.68	1613.80
331.89	1767.40
332.10	1667.05
332.31	1691.62
332.52	1714.15
332.74	1708.01
332.95	1665.00
333.16	1667.05
333.37	1773.54
333.58	1681.38
333.80	1726.44
334.01	1632.23
334.22	1703.91
334.43	1671.14
334.64	1658.85
334.86	1632.23
335.07	1660.90
335.28	1779.68
335.49	1605.61
335.70	1718.25
335.92	1824.74
336.13	1865.70
336.34	1695.72
336.55	1771.49
336.76	1681.38
336.98	1624.04
337.19	1697.77
337.40	1767.40
337.61	1759.21
337.82	1677.29
338.04	1697.77
338.25	1589.22
338.46	1730.53
338.67	1710.05
338.88	1607.66
339.09	1710.05
339.31	1660.90
339.52	1673.19
339.73	1669.09
339.94	1685.48
340.15	1804.26
340.36	1730.53
340.58	1677.29
340.79	1714.15
341.00	1740.77
341.21	1568.74
341.42	1812.45
341.63	1708.01
341.85	1787.88
342.06	1656.81
342.27	1603.56
342.48	1787.88
342.69	1587.18
342.90	1718.25
343.12	1738.73
343.33	1773.54
343.54	1724.39
343.75	1753.06
343.96	1638.38
344.17	1642.47
344.38	1652.71
344.60	1632.23
344.81	1726.44
345.02	1677.29
345.23	1718.25
345.44	1728.49
345.65	1705.96
345.86	1693.67
346.07	1658.85
346.29	1624.04
346.50	1695.72
346.71	1746.92
346.92	1685.48
347.13	1832.93
347.34	1615.85
347.55	1685.48
347.76	1705.96
347.98	1677.29
348.19	1638.38
348.40	1683.43
348.61	1708.01
348.82	1773.54
349.03	1781.73
349.24	1638.38
349.45	1804.26
349.66	1619.94
349.88	1751.01
350.09	1689.57
350.30	1806.31
350.51	1751.01
350.72	1689.57
350.93	1677.29
351.14	1667.05
351.35	1730.53
351.56	1769.44
351.77	1675.24
351.99	1718.25
352.20	1861.60
352.41	1742.82
352.62	1562.60
352.83	1667.05
353.04	1730.53
353.25	1767.40
353.46	1734.63
353.67	1734.63
353.88	1624.04
354.09	1667.05
354.30	1621.99
354.52	1667.05
354.73	1708.01
354.94	1691.62
355.15	1705.96
355.36	1751.01
355.57	1691.62
355.78	1742.82
355.99	1681.38
356.20	1667.05
356.41	1769.44
356.62	1722.34
356.83	1662.95
357.04	1781.73
357.25	1665.00
357.46	1658.85
357.68	1634.28
357.89	1640.42
358.10	1753.06
358.31	1656.81
358.52	1677.29
358.73	1691.62
358.94	1648.61
359.15	1669.09
359.36	1730.53
359.57	1720.29
359.78	1703.91
359.99	1662.95
360.20	1638.38
360.41	1728.49
360.62	1697.77
360.83	1744.87
361.04	1738.73
361.25	1748.97
361.46	1804.26
361.67	1724.39
361.88	1718.25
362.09	1755.11
362.30	1708.01
362.51	1613.80
362.72	1681.38
362.93	1724.39
363.14	1683.43
363.35	1601.51
363.56	1689.57
363.78	1794.02
363.99	1701.86
364.20	1615.85
364.41	1730.53
364.62	1718.25
364.83	1685.48
365.04	1710.05
365.25	1675.24
365.46	1849.32
365.67	1617.90
365.88	1644.52
366.09	1726.44
366.30	1607.66
366.51	1755.11
366.72	1617.90
366.93	1726.44
367.14	1710.05
367.35	1736.68
367.56	1699.81
367.77	1757.16
367.98	1662.95
368.18	1703.91
368.39	1732.58
368.60	1626.09
368.81	1728.49
369.02	1660.90
369.23	1667.05
369.44	1626.09
369.65	1710.05
369.86	1787.88
370.07	1767.40
370.28	1640.42
370.49	1769.44
370.70	1775.59
370.91	1658.85
371.12	1683.43
371.33	1759.21
371.54	1705.96
371.75	1804.26
371.96	1581.03
372.17	1701.86
372.38	1740.77
372.59	1744.87
372.80	1705.96
373.01	1703.91
373.22	1697.77
373.43	1759.21
373.64	1593.32
373.85	1773.54
374.06	1816.55
374.26	1787.88
374.47	1685.48
374.68	1849.32
374.89	1675.24
375.10	1779.68
375.31	1777.64
375.52	1667.05
375.73	1722.34
375.94	1685.48
376.15	1826.79
376.36	1656.81
376.57	1710.05
376.78	1689.57
376.99	1816.55
377.20	1771.49
377.40	1691.62
377.61	1818.60
377.82	1650.66
378.03	1769.44
378.24	1742.82
378.45	1624.04
378.66	1703.91
378.87	1640.42
379.08	1634.28
379.29	1740.77
379.50	1699.81
379.71	1646.57
379.91	1806.31
380.12	1683.43
380.33	1755.11
380.54	1716.20
380.75	1705.96
380.96	1617.90
381.17	1789.92
381.38	1765.35
381.59	1708.01
381.80	1679.33
382.00	1841.12
382.21	1687.53
382.42	1849.32
382.63	1912.80
382.84	1712.10
383.05	1705.96
383.26	1771.49
383.47	1689.57
383.68	1718.25
383.88	1728.49
384.09	1722.34
384.30	1808.36
384.51	1703.91
384.72	1691.62
384.93	1667.05
385.14	1697.77
385.35	1843.17
385.55	1589.22
385.76	1746.92
385.97	1669.09
386.18	1640.42
386.39	1689.57
386.60	1722.34
386.81	1660.90
387.02	1669.09
387.22	1601.51
387.43	1785.83
387.64	1726.44
387.85	1888.23
388.06	2215.90
388.27	4331.45
388.48	7131.03
388.68	8402.82
388.89	9875.31
389.10	10065.77
389.31	8884.09
389.52	7741.32
389.73	6864.79
389.93	6369.18
390.14	5978.02
390.35	5400.49
390.56	4753.34
390.77	3815.37
390.98	3080.14
391.18	2475.99
391.39	2224.09
391.60	1898.47
391.81	1855.46
392.02	1808.36
392.23	1832.93
392.43	1701.86
392.64	1777.64
392.85	1679.33
393.06	1834.98
393.27	1701.86
393.47	1724.39
393.68	1732.58
393.89	1701.86
394.10	1798.12
394.31	1642.47
394.52	1660.90
394.72	1705.96
394.93	1726.44
395.14	1636.33
395.35	1722.34
395.56	1675.24
395.76	1730.53
395.97	1812.45
396.18	1814.50
396.39	1785.83
396.60	2090.98
396.80	1847.27
397.01	1785.83
397.22	1888.23
397.43	1884.13
397.64	1763.30
397.84	1826.79
398.05	1832.93
398.26	1789.92
398.47	1855.46
398.67	1845.22
398.88	1724.39
399.09	1787.88
399.30	1728.49
399.51	1675.24
399.71	1644.52
399.92	1613.80
400.13	1716.20
400.34	1671.14
400.54	1710.05
400.75	1777.64
400.96	1748.97
401.17	1857.51
401.37	1718.25
401.58	1755.11
401.79	1648.61
402.00	1810.40
402.21	1939.43
402.41	1939.43
402.62	2002.91
402.83	1978.34
403.04	2015.20
403.24	2047.97
403.45	1894.37
403.66	1937.38
403.87	1847.27
404.07	1800.16
404.28	1961.95
404.49	1839.08
404.70	1820.64
404.90	1728.49
405.11	1697.77
405.32	1755.11
405.52	1665.00
405.73	1757.16
405.94	1665.00
406.15	1744.87
406.35	1798.12
406.56	1759.21
406.77	1714.15
406.98	1697.77
407.18	1679.33
407.39	1726.44
407.60	1710.05
407.80	1746.92
408.01	1701.86
408.22	1718.25
408.43	1652.71
408.63	1730.53
408.84	1708.01
409.05	1755.11
409.25	1656.81
409.46	1691.62
409.67	1644.52
409.88	1665.00
410.08	1697.77
410.29	1699.81
410.50	1769.44
410.70	1701.86
410.91	1615.85
411.12	1683.43
411.32	1740.77
411.53	1751.01
411.74	1816.55
411.95	1787.88
412.15	1720.29
412.36	1800.16
412.57	1740.77
412.77	1875.94
412.98	1710.05
413.19	1665.00
413.39	1816.55
413.60	1841.12
413.81	1775.59
414.01	1697.77
414.22	1748.97
414.43	1787.88
414.63	1710.05
414.84	1732.58
415.05	1732.58
415.25	1683.43
415.46	1742.82
415.67	1697.77
415.87	1669.09
416.08	1751.01
416.29	1650.66
416.49	1734.63
416.70	1626.09
416.91	1607.66
417.11	1736.68
417.32	1679.33
417.53	1746.92
417.73	1697.77
417.94	1755.11
418.15	1681.38
418.35	1720.29
418.56	1710.05
418.77	1787.88
418.97	1728.49
419.18	1656.81
419.38	1593.32
419.59	1683.43
419.80	1812.45
420.00	1751.01
420.21	1757.16
420.42	1822.69
420.62	1738.73
420.83	1644.52
421.04	1673.19
421.24	1695.72
421.45	1683.43
421.65	1710.05
421.86	1697.77
422.07	1724.39
422.27	1701.86
422.48	1753.06
422.69	1646.57
422.89	1703.91
423.10	1718.25
423.30	1693.67
423.51	1691.62
423.72	1675.24
423.92	1748.97
424.13	1619.94
424.33	1722.34
424.54	1634.28
424.75	1751.01
424.95	1773.54
425.16	1720.29
425.36	1701.86
425.57	1769.44
425.78	1722.34
425.98	1734.63
426.19	1689.57
426.39	1626.09
426.60	1705.96
426.81	1808.36
427.01	1712.10
427.22	1644.52
427.42	1675.24
427.63	1587.18
427.83	1773.54
428.04	1730.53
428.25	1722.34
428.45	1767.40
428.66	1740.77
428.86	1714.15
429.07	1705.96
429.28	1720.29
429.48	1683.43
429.69	1746.92
429.89	1701.86
430.10	1591.27
430.30	1777.64
430.51	1732.58
430.71	1687.53
430.92	1675.24
431.13	1683.43
431.33	1710.05
431.54	1705.96
431.74	1783.78
431.95	1771.49
432.15	1658.85
432.36	1683.43
432.56	1771.49
432.77	1834.98
432.98	1855.46
433.18	1714.15
433.39	1681.38
433.59	1703.91
433.80	1808.36
434.00	1843.17
434.21	1697.77
434.41	1691.62
434.62	1853.41
434.82	1681.38
435.03	1671.14
435.23	1724.39
435.44	1636.33
435.64	1683.43
435.85	1781.73
436.06	1800.16
436.26	1798.12
436.47	1701.86
436.67	1642.47
436.88	1638.38
437.08	1691.62
437.29	1861.60
437.49	1697.77
437.70	1855.46
437.90	1716.20
438.11	1818.60
438.31	1820.64
438.52	1914.85
438.72	1851.36
438.93	1939.43
439.13	1742.82
439.34	1802.21
439.54	1734.63
439.75	1775.59
439.95	1744.87
440.16	1669.09
440.36	1781.73
440.57	1732.58
440.77	1767.40
440.98	1718.25
441.18	1742.82
441.39	1634.28
441.59	1679.33
441.80	1828.84
442.00	1769.44
442.21	1810.40
442.41	1683.43
442.62	1804.26
442.82	1712.10
443.02	1673.19
443.23	1740.77
443.43	1748.97
443.64	1783.78
443.84	1632.23
444.05	1794.02
444.25	1724.39
444.46	1755.11
444.66	1738.73
444.87	1902.56
445.07	1718.25
445.28	1757.16
445.48	1732.58
445.69	1789.92
445.89	1837.03
446.09	1718.25
446.30	2060.26
446.50	2772.95
446.71	3717.06
446.91	4411.32
447.12	4777.91
447.32	4937.65
447.53	4460.48
447.73	3868.61
447.93	3600.33
448.14	3346.38
448.34	3211.22
448.55	2977.75
448.75	2799.57
448.96	2729.94
449.16	2482.14
449.36	2314.20
449.57	2078.69
449.77	1910.75
449.98	1703.91
450.18	1837.03
450.39	1771.49
450.59	1714.15
450.79	1712.10
451.00	1763.30
451.20	1765.35
451.41	1718.25
451.61	1814.50
451.81	1714.15
452.02	1626.09
452.22	1751.01
452.43	1701.86
452.63	1683.43
452.84	1708.01
453.04	1738.73
453.24	1714.15
453.45	1609.70
453.65	1753.06
453.86	1675.24
454.06	1693.67
454.26	1761.25
454.47	1656.81
454.67	1802.21
454.87	1722.34
455.08	1781.73
455.28	1773.54
455.49	1769.44
455.69	1660.90
455.89	1755.11
456.10	1826.79
456.30	1748.97
456.51	1820.64
456.71	1728.49
456.91	1787.88
457.12	1753.06
457.32	1763.30
457.52	1683.43
457.73	1734.63
457.93	1714.15
458.14	1716.20
458.34	1730.53
458.54	1699.81
458.75	1730.53
458.95	1791.97
459.15	1816.55
459.36	1753.06
459.56	1783.78
459.76	1865.70
459.97	1677.29
460.17	1753.06
460.37	1732.58
460.58	1763.30
460.78	1796.07
460.99	1699.81
461.19	1708.01
461.39	1800.16
461.60	1638.38
461.80	1763.30
462.00	1671.14
462.21	1693.67
462.41	1689.57
462.61	1683.43
462.82	1716.20
463.02	1712.10
463.22	1656.81
463.43	1767.40
463.63	1689.57
463.83	1804.26
464.04	1708.01
464.24	1658.85
464.44	1648.61
464.64	1777.64
464.85	1814.50
465.05	1777.64
465.25	1703.91
465.46	1703.91
465.66	1718.25
465.86	1800.16
466.07	1689.57
466.27	1705.96
466.47	1683.43
466.68	1689.57
466.88	1861.60
467.08	1802.21
467.29	1681.38
467.49	1779.68
467.69	1687.53
467.89	1683.43
468.10	1759.21
468.30	1716.20
468.50	1787.88
468.71	1699.81
468.91	1648.61
469.11	1771.49
469.31	1716.20
469.52	1728.49
469.72	1824.74
469.92	1796.07
470.13	1787.88
470.33	1662.95
470.53	1818.60
470.73	2047.97
470.94	2230.24
471.14	2459.61
471.34	2500.57
471.54	2418.65
471.75	2224.09
471.95	2152.42
472.15	2109.41
472.36	2133.98
472.56	2052.06
472.76	2146.27
472.96	2009.06
473.17	1927.14
473.37	1918.95
473.57	1751.01
473.77	1849.32
473.98	1740.77
474.18	1753.06
474.38	1812.45
474.58	1708.01
474.79	1652.71
474.99	1759.21
475.19	1759.21
475.39	1613.80
475.60	1765.35
475.80	1691.62
476.00	1642.47
476.20	1607.66
476.41	1746.92
476.61	1779.68
476.81	1824.74
477.01	1693.67
477.21	1824.74
477.42	1796.07
477.62	1626.09
477.82	1789.92
478.02	1722.34
478.23	1742.82
478.43	1705.96
478.63	1689.57
478.83	1638.38
479.03	1675.24
479.24	1791.97
479.44	1882.08
479.64	1683.43
479.84	1636.33
480.04	1677.29
480.25	1748.97
480.45	1738.73
480.65	1703.91
480.85	1834.98
481.06	1705.96
481.26	1671.14
481.46	1726.44
481.66	1748.97
481.86	1740.77
482.06	1710.05
482.27	1742.82
482.47	1767.40
482.67	1689.57
482.87	1732.58
483.07	1789.92
483.28	1734.63
483.48	1634.28
483.68	1734.63
483.88	1681.38
484.08	1595.37
484.29	1566.70
484.49	1742.82
484.69	1607.66
484.89	1808.36
485.09	1736.68
485.29	1683.43
485.50	1691.62
485.70	1732.58
485.90	1759.21
486.10	1746.92
486.30	1703.91
486.50	1708.01
486.71	1691.62
486.91	1791.97
487.11	1658.85
487.31	1683.43
487.51	1890.28
487.71	1642.47
487.91	1587.18
488.12	1673.19
488.32	1640.42
488.52	1679.33
488.72	1578.98
488.92	1714.15
489.12	1687.53
489.32	1742.82
489.53	1693.67
489.73	1658.85
489.93	1728.49
490.13	1583.08
490.33	1677.29
490.53	1703.91
490.73	1779.68
490.94	1679.33
491.14	1787.88
491.34	1830.88
491.54	2172.89
491.74	2652.12
491.94	3049.43
492.14	3018.71
492.34	3022.80
492.54	2729.94
492.75	2453.47
492.95	2324.44
493.15	2373.60
493.35	2267.10
493.55	2209.76
493.75	2160.61
493.95	2127.84
494.15	1974.24
494.35	1859.56
494.56	1912.80
494.76	1798.12
494.96	1812.45
495.16	1730.53
495.36	1738.73
495.56	1683.43
495.76	1781.73
495.96	1691.62
496.16	1660.90
496.36	1820.64
496.56	1726.44
496.77	1748.97
496.97	1791.97
497.17	1773.54
497.37	1728.49
497.57	1728.49
497.77	1736.68
497.97	1697.77
498.17	1740.77
498.37	1685.48
498.57	1804.26
498.77	1691.62
498.97	1794.02
499.17	1810.40
499.38	1646.57
499.58	1789.92
499.78	1830.88
499.98	1828.84
500.18	1677.29
500.38	1732.58
500.58	1943.52
500.78	2555.86
500.98	4519.87
501.18	5945.25
501.38	6836.12
501.58	7219.09
501.78	6889.37
501.98	5586.86
502.18	5130.16
502.38	4591.55
502.58	4368.32
502.78	3753.93
502.98	3655.62
503.18	3461.07
503.38	3239.89
503.59	2930.64
503.79	2752.47
503.99	2488.28
504.19	2297.82
504.39	2119.65
504.59	2222.05
504.79	2035.68
504.99	2113.50
505.19	1951.71
505.39	1970.15
505.59	1939.43
505.79	1886.18
505.99	1888.23
506.19	1800.16
506.39	1929.19
506.59	1736.68
506.79	1718.25
506.99	1767.40
507.19	1746.92
507.39	1673.19
507.59	1714.15
507.79	1695.72
507.99	1724.39
508.19	1722.34
508.39	1734.63
508.59	1812.45
508.79	1845.22
508.99	1841.12
509.19	1650.66
509.39	1755.11
509.59	1703.91
509.79	1720.29
509.99	1787.88
510.19	1753.06
510.39	1736.68
510.59	1765.35
510.79	1699.81
510.99	1695.72
511.19	1728.49
511.39	1789.92
511.59	1863.65
511.79	1730.53
511.99	1726.44
512.19	1800.16
512.38	1779.68
512.58	1673.19
512.78	1736.68
512.98	1755.11
513.18	1802.21
513.38	1578.98
513.58	1773.54
513.78	1703.91
513.98	1738.73
514.18	1761.25
514.38	1699.81
514.58	1783.78
514.78	1755.11
514.98	1644.52
515.18	1710.05
515.38	1636.33
515.58	1857.51
515.78	1675.24
515.98	1671.14
516.18	1724.39
516.38	1763.30
516.57	1740.77
516.77	1736.68
516.97	1765.35
517.17	1736.68
517.37	1636.33
517.57	1816.55
517.77	1779.68
517.97	1732.58
518.17	1765.35
518.37	1728.49
518.57	1714.15
518.77	1595.37
518.97	1724.39
519.16	1726.44
519.36	1746.92
519.56	1621.99
519.76	1673.19
519.96	1736.68
520.16	1755.11
520.36	1726.44
520.56	1888.23
520.76	1732.58
520.96	1638.38
521.16	1765.35
521.35	1777.64
521.55	1869.80
521.75	1777.64
521.95	1722.34
522.15	1732.58
522.35	1642.47
522.55	1662.95
522.75	1779.68
522.95	1714.15
523.14	1658.85
523.34	1830.88
523.54	1638.38
523.74	1773.54
523.94	1785.83
524.14	1714.15
524.34	1787.88
524.54	1775.59
524.73	1755.11
524.93	1742.82
525.13	1724.39
525.33	1656.81
525.53	1855.46
525.73	1759.21
525.93	1806.31
526.13	1693.67
526.32	1691.62
526.52	1769.44
526.72	1851.36
526.92	1714.15
527.12	1783.78
527.32	1677.29
527.52	1687.53
527.71	1716.20
527.91	1740.77
528.11	1660.90
528.31	1705.96
528.51	1640.42
528.71	1853.41
528.90	1791.97
529.10	1724.39
529.30	1806.31
529.50	1624.04
529.70	1820.64
529.90	1716.20
530.09	1730.53
530.29	1710.05
530.49	1695.72
530.69	1847.27
530.89	1714.15
531.09	1671.14
531.28	1624.04
531.48	1787.88
531.68	1732.58
531.88	1691.62
532.08	1791.97
532.28	1759.21
532.47	1724.39
532.67	1773.54
532.87	1775.59
533.07	1691.62
533.27	1757.16
533.46	1769.44
533.66	1759.21
533.86	1683.43
534.06	1705.96
534.26	1724.39
534.45	1728.49
534.65	1820.64
534.85	1742.82
535.05	1677.29
535.25	1822.69
535.44	1636.33
535.64	1763.30
535.84	1705.96
536.04	1724.39
536.24	1601.51
536.43	1687.53
536.63	1796.07
536.83	1730.53
537.03	1722.34
537.22	1660.90
537.42	1628.14
537.62	1740.77
537.82	1732.58
538.02	1789.92
538.21	1705.96
538.41	1826.79
538.61	1757.16
538.81	1685.48
539.00	1808.36
539.20	1708.01
539.40	1757.16
539.60	1736.68
539.79	1748.97
539.99	1697.77
540.19	1685.48
540.39	1687.53
540.58	1646.57
540.78	1796.07
540.98	1708.01
541.18	1828.84
541.37	1738.73
541.57	1771.49
541.77	1800.16
541.97	1740.77
542.16	1667.05
542.36	1703.91
542.56	1726.44
542.76	1824.74
542.95	1812.45
543.15	1761.25
543.35	1705.96
543.54	1701.86
543.74	1650.66
543.94	1843.17
544.14	1699.81
544.33	1748.97
544.53	1679.33
544.73	1691.62
544.93	1656.81
545.12	1681.38
545.32	1724.39
545.52	1714.15
545.71	1599.46
545.91	1740.77
546.11	1732.58
546.30	1630.18
546.50	1724.39
546.70	1808.36
546.90	1746.92
547.09	1708.01
547.29	1714.15
547.49	1783.78
547.68	1697.77
547.88	1667.05
548.08	1800.16
548.27	2226.14
548.47	1703.91
548.67	1646.57
548.87	1816.55
549.06	1740.77
549.26	1779.68
549.46	1732.58
549.65	1746.92
549.85	1726.44
550.05	1722.34
550.24	1697.77
550.44	1748.97
550.64	1716.20
550.83	1763.30
551.03	1759.21
551.23	1779.68
551.42	1802.21
551.62	1673.19
551.82	1730.53
552.01	1761.25
552.21	1777.64
552.41	1710.05
552.60	1701.86
552.80	1681.38
553.00	1695.72
553.19	1640.42
553.39	1845.22
553.59	1708.01
553.78	1730.53
553.98	1728.49
554.17	1669.09
554.37	1691.62
554.57	1767.40
554.76	1714.15
554.96	1738.73
555.16	1732.58
555.35	1740.77
555.55	1689.57
555.75	1804.26
555.94	1822.69
556.14	1628.14
556.33	1699.81
556.53	1667.05
556.73	1765.35
556.92	1689.57
557.12	1873.89
557.32	1826.79
557.51	1877.99
557.71	1705.96
557.90	1857.51
558.10	1830.88
558.30	1740.77
558.49	1697.77
558.69	1693.67
558.88	1775.59
559.08	1716.20
559.28	1712.10
559.47	1763.30
559.67	1828.84
559.86	1814.50
560.06	1779.68
560.26	1728.49
560.45	1763.30
560.65	1763.30
560.84	1839.08
561.04	1697.77
561.24	1755.11
561.43	1732.58
561.63	1845.22
561.82	1697.77
562.02	1775.59
562.22	1650.66
562.41	1662.95
562.61	1742.82
562.80	1665.00
563.00	1845.22
563.19	1779.68
563.39	1816.55
563.59	1765.35
563.78	1705.96
563.98	1714.15
564.17	1738.73
564.37	1601.51
564.56	1712.10
564.76	1687.53
564.96	1812.45
565.15	1736.68
565.35	1849.32
565.54	1691.62
565.74	1787.88
565.93	1736.68
566.13	1841.12
566.32	1693.67
566.52	1734.63
566.71	1634.28
566.91	1818.60
567.11	1740.77
567.30	1736.68
567.50	1839.08
567.69	1763.30
567.89	1669.09
568.08	1613.80
568.28	1703.91
568.47	1626.09
568.67	1697.77
568.86	1691.62
569.06	1708.01
569.25	1718.25
569.45	1611.75
569.64	1679.33
569.84	1658.85
570.04	1730.53
570.23	1660.90
570.43	1665.00
570.62	1732.58
570.82	1884.13
571.01	1652.71
571.21	1685.48
571.40	1615.85
571.60	1755.11
571.79	1775.59
571.99	1753.06
572.18	1718.25
572.38	1703.91
572.57	1714.15
572.77	1742.82
572.96	1871.84
573.16	1740.77
573.35	1763.30
573.55	1861.60
573.74	1787.88
573.94	1693.67
574.13	1724.39
574.33	1808.36
574.52	1818.60
574.71	1652.71
574.91	1724.39
575.10	1683.43
575.30	1710.05
575.49	1689.57
575.69	1701.86
575.88	1732.58
576.08	1716.20
576.27	1796.07
576.47	1777.64
576.66	1880.04
576.86	1841.12
577.05	1832.93
577.25	1767.40
577.44	1841.12
577.64	1738.73
577.83	1767.40
578.02	1685.48
578.22	1863.65
578.41	1867.75
578.61	1695.72
578.80	1677.29
579.00	1757.16
579.19	1828.84
579.39	1816.55
579.58	1751.01
579.77	1746.92
579.97	1847.27
580.16	1791.97
580.36	1732.58
580.55	1875.94
580.75	1796.07
580.94	1708.01
581.13	1845.22
581.33	1853.41
581.52	1722.34
581.72	1808.36
581.91	1841.12
582.11	1662.95
582.30	1724.39
582.49	1775.59
582.69	1820.64
582.88	1767.40
583.08	1738.73
583.27	1753.06
583.47	1765.35
583.66	1652.71
583.85	1748.97
584.05	1697.77
584.24	1779.68
584.44	1697.77
584.63	1769.44
584.82	1826.79
585.02	1763.30
585.21	1804.26
585.41	1738.73
585.60	1869.80
585.79	1992.67
585.99	1941.47
586.18	1861.60
586.37	2254.81
586.57	3411.92
586.76	10170.21
586.96	25271.93
587.15	35880.41
587.34	41717.12
587.54	43478.38
587.73	37920.19
587.93	27315.81
588.12	22253.23
588.31	18953.95
588.51	16916.22
588.70	15695.63
588.89	14776.09
589.09	12898.11
589.28	11296.60
589.47	9826.15
589.67	8081.28
589.86	6733.72
590.06	5066.67
590.25	4020.16
590.44	3125.20
590.64	2627.54
590.83	2191.33
591.02	2117.60
591.22	1873.89
591.41	1937.38
591.60	1851.36
591.80	1877.99
591.99	1859.56
592.18	1773.54
592.38	1828.84
592.57	1812.45
592.76	1783.78
592.96	1767.40
593.15	1837.03
593.34	1847.27
593.54	1773.54
593.73	1882.08
593.92	1675.24
594.12	1863.65
594.31	1781.73
594.50	1822.69
594.70	1783.78
594.89	1935.33
595.08	1611.75
595.28	1791.97
595.47	1914.85
595.66	1738.73
595.86	1775.59
596.05	1746.92
596.24	1810.40
596.43	1808.36
596.63	1912.80
596.82	1767.40
597.01	1761.25
597.21	1820.64
597.40	1710.05
597.59	1714.15
597.79	1718.25
597.98	1763.30
598.17	1767.40
598.36	1763.30
598.56	1796.07
598.75	1671.14
598.94	1736.68
599.14	1748.97
599.33	1744.87
599.52	1691.62
599.71	1751.01
599.91	1763.30
600.10	1794.02
600.29	1732.58
600.48	1867.75
600.68	1656.81
600.87	1726.44
601.06	1675.24
601.26	1761.25
601.45	1751.01
601.64	1759.21
601.83	1753.06
602.03	1738.73
602.22	1624.04
602.41	1771.49
602.60	1837.03
602.80	1828.84
602.99	1751.01
603.18	1708.01
603.37	1642.47
603.57	1769.44
603.76	1820.64
603.95	1816.55
604.14	1660.90
604.34	1697.77
604.53	1728.49
604.72	1738.73
604.91	1839.08
605.10	1742.82
605.30	1771.49
605.49	1826.79
605.68	1794.02
605.87	1662.95
606.07	1710.05
606.26	1794.02
606.45	1736.68
606.64	1798.12
606.84	1755.11
607.03	1798.12
607.22	1783.78
607.41	1658.85
607.60	1755.11
607.80	1867.75
607.99	1665.00
608.18	1796.07
608.37	1744.87
608.56	1660.90
608.76	1767.40
608.95	1898.47
609.14	1748.97
609.33	1751.01
609.52	1789.92
609.72	1710.05
609.91	1783.78
610.10	1748.97
610.29	1800.16
610.48	1771.49
610.68	1730.53
610.87	1697.77
611.06	1789.92
611.25	1771.49
611.44	1755.11
611.63	1714.15
611.83	1800.16
612.02	1722.34
612.21	1855.46
612.40	1644.52
612.59	1656.81
612.79	1701.86
612.98	1755.11
613.17	1781.73
613.36	1720.29
613.55	1814.50
613.74	1722.34
613.93	1699.81
614.13	1716.20
614.32	1710.05
614.51	1746.92
614.70	1677.29
614.89	1751.01
615.08	1755.11
615.28	2041.82
615.47	1718.25
615.66	1671.14
615.85	1646.57
616.04	1826.79
616.23	1761.25
616.42	1781.73
616.62	1789.92
616.81	1755.11
617.00	1806.31
617.19	1755.11
617.38	1769.44
617.57	1820.64
617.76	1789.92
617.95	1738.73
618.15	1759.21
618.34	1718.25
618.53	1689.57
618.72	1771.49
618.91	1798.12
619.10	1818.60
619.29	1701.86
619.48	1787.88
619.68	1644.52
619.87	1693.67
620.06	1654.76
620.25	1779.68
620.44	1681.38
620.63	1732.58
620.82	1697.77
621.01	1816.55
621.20	1673.19
621.39	1800.16
621.59	1726.44
621.78	1726.44
621.97	1675.24
622.16	1724.39
622.35	1730.53
622.54	1738.73
622.73	1763.30
622.92	1611.75
623.11	1712.10
623.30	1689.57
623.49	1767.40
623.68	1773.54
623.88	1873.89
624.07	1632.23
624.26	1679.33
624.45	1695.72
624.64	1742.82
624.83	1710.05
625.02	1718.25
625.21	1701.86
625.40	1665.00
625.59	1771.49
625.78	1740.77
625.97	1742.82
626.16	1732.58
626.35	1722.34
626.54	1712.10
626.74	1804.26
626.93	1691.62
627.12	1660.90
627.31	1826.79
627.50	1685.48
627.69	1738.73
627.88	1728.49
628.07	1714.15
628.26	1660.90
628.45	1767.40
628.64	1658.85
628.83	1736.68
629.02	1716.20
629.21	1773.54
629.40	1710.05
629.59	1667.05
629.78	1740.77
629.97	1687.53
630.16	1699.81
630.35	1603.56
630.54	1708.01
630.73	1695.72
630.92	1734.63
631.11	1658.85
631.30	1730.53
631.49	1767.40
631.68	1720.29
631.87	1734.63
632.06	1667.05
632.25	1865.70
632.44	1738.73
632.63	1673.19
632.82	1669.09
633.01	1673.19
633.20	1632.23
633.39	1667.05
633.58	1632.23
633.77	1755.11
633.96	1767.40
634.15	1757.16
634.34	1767.40
634.53	1697.77
634.72	1667.05
634.91	1591.27
635.10	1642.47
635.29	1796.07
635.48	1769.44
635.67	1708.01
635.86	1611.75
636.05	1675.24
636.24	1773.54
636.43	1779.68
636.62	1736.68
636.81	1630.18
637.00	1648.61
637.19	1724.39
637.38	1683.43
637.57	1601.51
637.76	1705.96
637.95	1814.50
638.14	1658.85
638.33	1603.56
638.52	1728.49
638.71	1683.43
638.89	1703.91
639.08	1808.36
639.27	1740.77
639.46	1677.29
639.65	1855.46
639.84	1761.25
640.03	1785.83
640.22	1726.44
640.41	1830.88
640.60	1626.09
640.79	1740.77
640.98	1652.71
641.17	1722.34
641.36	1681.38
641.55	1728.49
641.74	1675.24
641.92	1671.14
642.11	1746.92
642.30	1773.54
642.49	1683.43
642.68	1734.63
642.87	1783.78
643.06	1763.30
643.25	1665.00
643.44	1720.29
643.63	1755.11
643.82	1841.12
644.00	1632.23
644.19	1724.39
644.38	1701.86
644.57	1773.54
644.76	1761.25
644.95	1742.82
645.14	1699.81
645.33	1718.25
645.52	1720.29
645.71	1722.34
645.89	1601.51
646.08	1691.62
646.27	1714.15
646.46	1800.16
646.65	1630.18
646.84	1677.29
647.03	1646.57
647.22	1771.49
647.40	1673.19
647.59	1732.58
647.78	1638.38
647.97	1644.52
648.16	1705.96
648.35	1822.69
648.54	1798.12
648.73	1665.00
648.91	1740.77
649.10	1689.57
649.29	1683.43
649.48	1724.39
649.67	1650.66
649.86	1759.21
650.05	1689.57
650.23	1779.68
650.42	1628.14
650.61	1816.55
650.80	1767.40
650.99	1847.27
651.18	1738.73
651.36	1705.96
651.55	1673.19
651.74	1857.51
651.93	1687.53
652.12	1675.24
652.31	1665.00
652.49	1665.00
652.68	1677.29
652.87	1767.40
653.06	1669.09
653.25	1789.92
653.44	1714.15
653.62	1773.54
653.81	1759.21
654.00	1779.68
654.19	1771.49
654.38	1806.31
654.56	1732.58
654.75	1730.53
654.94	1734.63
655.13	1710.05
655.32	1656.81
655.51	1822.69
655.69	1746.92
655.88	1703.91
656.07	1703.91
656.26	1787.88
656.45	1732.58
656.63	1810.40
656.82	1765.35
657.01	1847.27
657.20	1615.85
657.38	1845.22
657.57	1654.76
657.76	1636.33
657.95	1755.11
658.14	1681.38
658.32	1714.15
658.51	1665.00
658.70	1703.91
658.89	1724.39
659.08	1699.81
659.26	1783.78
659.45	1671.14
659.64	1822.69
659.83	1669.09
660.01	1865.70
660.20	1675.24
660.39	1802.21
660.58	1597.42
660.76	1746.92
660.95	1650.66
661.14	1677.29
661.33	1681.38
661.51	1759.21
661.70	1673.19
661.89	1738.73
662.08	1708.01
662.26	1642.47
662.45	1644.52
662.64	1773.54
662.83	1730.53
663.01	1734.63
663.20	1667.05
663.39	1804.26
663.58	1673.19
663.76	1726.44
663.95	1728.49
664.14	1681.38
664.32	1626.09
664.51	1695.72
664.70	1560.55
664.89	1716.20
665.07	1671.14
665.26	1839.08
665.45	1628.14
665.64	1759.21
665.82	1691.62
666.01	1699.81
666.20	1621.99
666.38	1759.21
666.57	1882.08
666.76	2166.75
666.95	4466.62
667.13	10448.74
667.32	15873.81
667.51	18337.51
667.69	19664.60
667.88	18368.23
668.07	12611.39
668.25	9897.83
668.44	8372.10
668.63	7634.83
668.81	6913.94
669.00	6399.90
669.19	5879.72
669.38	5093.30
669.56	4667.32
669.75	4151.23
669.94	3563.47
670.12	2996.18
670.31	2645.98
670.50	2308.06
670.68	2113.50
670.87	1877.99
671.06	1751.01
671.24	1765.35
671.43	1861.60
671.62	1818.60
671.80	1703.91
671.99	1773.54
672.18	1748.97
672.36	1751.01
672.55	1689.57
672.74	1789.92
672.92	1703.91
673.11	1767.40
673.29	1654.76
673.48	1753.06
673.67	1654.76
673.85	1847.27
674.04	1734.63
674.23	1761.25
674.41	1728.49
674.60	1632.23
674.79	1574.89
674.97	1642.47
675.16	1779.68
675.34	1796.07
675.53	1609.70
675.72	1787.88
675.90	1822.69
676.09	1740.77
676.28	1673.19
676.46	1665.00
676.65	1765.35
676.83	1632.23
677.02	1742.82
677.21	1705.96
677.39	1746.92
677.58	1677.29
677.77	1691.62
677.95	1705.96
678.14	1734.63
678.32	1687.53
678.51	1601.51
678.70	1857.51
678.88	1695.72
679.07	1648.61
679.25	1689.57
679.44	1658.85
679.63	1673.19
679.81	1714.15
680.00	1748.97
680.18	1689.57
680.37	1806.31
680.55	1714.15
680.74	1679.33
680.93	1667.05
681.11	1656.81
681.30	1712.10
681.48	1730.53
681.67	1646.57
681.85	1677.29
682.04	1738.73
682.23	1771.49
682.41	1693.67
682.60	1609.70
682.78	1697.77
682.97	1603.56
683.15	1699.81
683.34	1660.90
683.53	1839.08
683.71	1662.95
683.90	1726.44
684.08	1828.84
684.27	1718.25
684.45	1677.29
684.64	1789.92
684.82	1701.86
685.01	1767.40
685.19	1781.73
685.38	1798.12
685.57	1763.30
685.75	1746.92
685.94	1640.42
686.12	1687.53
686.31	1646.57
686.49	1695.72
686.68	1615.85
686.86	1705.96
687.05	1675.24
687.23	1744.87
687.42	1724.39
687.60	1583.08
687.79	1759.21
687.97	1845.22
688.16	1779.68
688.34	1828.84
688.53	1669.09
688.71	1710.05
688.90	1771.49
689.08	1777.64
689.27	1667.05
689.45	1714.15
689.64	1722.34
689.82	1744.87
690.01	1687.53
690.19	1685.48
690.38	1744.87
690.56	1855.46
690.75	1677.29
690.93	1759.21
691.12	1613.80
691.30	1685.48
691.49	1728.49
691.67	1730.53
691.86	1781.73
692.04	1642.47
692.23	1695.72
692.41	1593.32
692.60	1728.49
692.78	1699.81
692.97	1720.29
693.15	1753.06
693.34	1761.25
693.52	1794.02
693.71	1642.47
693.89	1675.24
694.08	1617.90
694.26	1769.44
694.44	1732.58
694.63	1738.73
694.81	1654.76
695.00	1669.09
695.18	1742.82
695.37	1916.90
695.55	1740.77
695.74	1695.72
695.92	1703.91
696.10	1785.83
696.29	1650.66
696.47	1617.90
696.66	1712.10
696.84	1630.18
697.03	1703.91
697.21	1822.69
697.40	2236.38
697.58	1714.15
697.76	1677.29
697.95	1714.15
698.13	1667.05
698.32	1697.77
698.50	1720.29
698.68	1689.57
698.87	1716.20
699.05	1738.73
699.24	1736.68
699.42	1730.53
699.61	1634.28
699.79	1673.19
699.97	1695.72
700.16	1628.14
700.34	1667.05
700.53	1683.43
700.71	1736.68
700.89	1738.73
701.08	1658.85
701.26	1687.53
701.45	2156.51
701.63	1640.42
701.81	1673.19
702.00	1710.05
702.18	1650.66
702.37	1642.47
702.55	1775.59
702.73	1701.86
702.92	1708.01
703.10	1716.20
703.28	1738.73
703.47	1632.23
703.65	1763.30
703.84	1777.64
704.02	1734.63
704.20	1832.93
704.39	1685.48
704.57	1619.94
704.75	1800.16
704.94	1740.77
705.12	1781.73
705.30	1781.73
705.49	2254.81
705.67	4386.75
705.86	9740.14
706.04	13010.75
706.22	14921.50
706.41	16164.62
706.59	14421.80
706.77	9989.99
706.96	7585.68
707.14	6729.63
707.32	6098.85
707.51	5715.88
707.69	5148.59
707.87	4362.17
708.06	3573.71
708.24	3041.23
708.42	2519.00
708.61	2301.92
708.79	1916.90
708.97	1931.23
709.16	1798.12
709.34	1773.54
709.52	1738.73
709.71	1728.49
709.89	1851.36
710.07	1669.09
710.26	1603.56
710.44	1781.73
710.62	1800.16
710.80	1746.92
710.99	1785.83
711.17	1853.41
711.35	1650.66
711.54	1685.48
711.72	1837.03
711.90	1722.34
712.09	1701.86
712.27	1691.62
712.45	1753.06
712.63	1728.49
712.82	1667.05
713.00	1673.19
713.18	1738.73
713.37	1718.25
713.55	1757.16
713.73	1722.34
713.91	1744.87
714.10	1648.61
714.28	1660.90
714.46	1759.21
714.65	1771.49
714.83	1785.83
715.01	1773.54
715.19	1642.47
715.38	1656.81
715.56	1755.11
715.74	1699.81
715.92	1673.19
716.11	1781.73
716.29	1644.52
716.47	1738.73
716.65	1626.09
716.84	1570.79
717.02	1804.26
717.20	1605.61
717.38	1681.38
717.57	1738.73
717.75	1705.96
717.93	1689.57
718.11	1765.35
718.30	1644.52
718.48	1765.35
718.66	1736.68
718.84	1734.63
719.03	1660.90
719.21	1611.75
719.39	1828.84
719.57	1734.63
719.75	1808.36
719.94	1632.23
720.12	1648.61
720.30	1708.01
720.48	1755.11
720.67	1669.09
720.85	1597.42
721.03	1693.67
721.21	1587.18
721.39	1785.83
721.58	1730.53
721.76	1652.71
721.94	1693.67
722.12	1718.25
722.30	1701.86
722.49	1624.04
722.67	1751.01
722.85	1708.01
723.03	1595.37
723.21	1665.00
723.40	1687.53
723.58	1732.58
723.76	1744.87
723.94	1771.49
724.12	1595.37
724.30	1765.35
724.49	1761.25
724.67	1632.23
724.85	1820.64
725.03	1605.61
725.21	1613.80
725.40	1738.73
725.58	1646.57
725.76	1789.92
725.94	1691.62
726.12	1640.42
726.30	1619.94
726.49	1699.81
726.67	1701.86
726.85	1751.01
727.03	1701.86
727.21	2125.79
727.39	2975.70
727.57	3835.85
727.76	4290.49
727.94	4607.93
728.12	4454.33
728.30	3813.32
728.48	2951.12
728.66	2648.02
728.84	2463.71
729.03	2320.35
729.21	2164.70
729.39	2002.91
729.57	1877.99
729.75	1839.08
729.93	1818.60
730.11	1732.58
730.30	1677.29
730.48	1703.91
730.66	1777.64
730.84	1783.78
731.02	1699.81
731.20	1648.61
731.38	1757.16
731.56	1632.23
731.74	1683.43
731.93	1730.53
732.11	1773.54
732.29	1679.33
732.47	1763.30
732.65	1738.73
732.83	1755.11
733.01	1794.02
733.19	1636.33
733.37	1746.92
733.56	1701.86
733.74	1691.62
733.92	1767.40
734.10	1665.00
734.28	1677.29
734.46	1546.22
734.64	1591.27
734.82	1748.97
735.00	1689.57
735.18	1683.43
735.36	1673.19
735.54	1722.34
735.73	1712.10
735.91	1783.78
736.09	1824.74
736.27	1671.14
736.45	1738.73
736.63	1566.70
736.81	1669.09
736.99	1738.73
737.17	1681.38
737.35	1751.01
737.53	1714.15
737.71	1693.67
737.89	1794.02
738.07	1665.00
738.25	1634.28
738.43	1677.29
738.61	1630.18
738.80	1697.77
738.98	1632.23
739.16	1726.44
739.34	1669.09
739.52	1759.21
739.70	1722.34
739.88	1716.20
740.06	1773.54
740.24	1599.46
740.42	1804.26
740.60	1550.31
740.78	1624.04
740.96	1554.41
741.14	1734.63
741.32	1687.53
741.50	1570.79
741.68	1822.69
741.86	1802.21
742.04	1695.72
742.22	1617.90
742.40	1693.67
742.58	1716.20
742.76	1675.24
742.94	1787.88
743.12	1552.36
743.30	1722.34
743.48	1667.05
743.66	1566.70
743.84	1685.48
744.02	1695.72
744.20	1654.76
744.38	1650.66
744.56	1710.05
744.74	1789.92
744.92	1834.98
745.10	1771.49
745.28	1830.88
745.46	1865.70
745.64	1697.77
745.82	1767.40
746.00	1720.29
746.18	1771.49
746.36	1613.80
746.54	1720.29
746.72	1710.05
746.90	1660.90
747.08	1708.01
747.26	1630.18
747.44	1794.02
747.62	1705.96
747.80	1773.54
747.98	1818.60
748.15	1665.00
748.33	1746.92
748.51	1804.26
748.69	1687.53
748.87	1593.32
749.05	1763.30
749.23	1716.20
749.41	1701.86
749.59	1683.43
749.77	1761.25
749.95	1673.19
750.13	1685.48
750.31	1685.48
750.49	1667.05
750.67	1718.25
750.85	1751.01
751.03	1714.15
751.20	1816.55
751.38	1671.14
751.56	1722.34
751.74	1701.86
751.92	1742.82
752.10	1681.38
752.28	1744.87
752.46	1611.75
752.64	1697.77
752.82	1683.43
753.00	1703.91
753.18	1667.05
753.35	1640.42
753.53	1683.43
753.71	1689.57
753.89	1755.11
754.07	1708.01
754.25	1736.68
754.43	1708.01
754.61	1640.42
754.79	1769.44
754.97	1738.73
755.14	1777.64
755.32	1576.94
755.50	1644.52
755.68	1687.53
755.86	1605.61
756.04	1660.90
756.22	1591.27
756.40	1734.63
756.57	1806.31
756.75	1617.90
756.93	1810.40
757.11	1822.69
757.29	1675.24
757.47	1667.05
757.65	1581.03
757.82	1646.57
758.00	1621.99
758.18	1693.67
758.36	1685.48
758.54	1853.41
758.72	1669.09
758.90	1804.26
759.07	1724.39
759.25	1687.53
759.43	1705.96
759.61	1638.38
759.79	2234.33
759.97	1718.25
760.15	1726.44
760.32	1681.38
760.50	1734.63
760.68	1806.31
760.86	1744.87
761.04	1736.68
761.22	1783.78
761.39	1640.42
761.57	1751.01
761.75	1669.09
761.93	1732.58
762.11	1669.09
762.28	1705.96
762.46	1578.98
762.64	1751.01
762.82	1650.66
763.00	1687.53
763.18	1761.25
763.35	1654.76
763.53	1761.25
763.71	1753.06
763.89	1701.86
764.07	1701.86
764.24	1703.91
764.42	1746.92
764.60	1722.34
764.78	1693.67
764.96	1777.64
765.13	1751.01
765.31	1640.42
765.49	1710.05
765.67	1685.48
765.84	1687.53
766.02	1613.80
766.20	1574.89
766.38	1808.36
766.56	1761.25
766.73	1765.35
766.91	1712.10
767.09	1685.48
767.27	1714.15
767.44	1673.19
767.62	1689.57
767.80	1804.26
767.98	1665.00
768.15	1712.10
768.33	1767.40
768.51	1703.91
768.69	1734.63
768.87	1724.39
769.04	1714.15
769.22	1787.88
769.40	1728.49
769.58	1767.40
769.75	1703.91
769.93	1681.38
770.11	1624.04
770.28	1595.37
770.46	1718.25
770.64	1732.58
770.82	1679.33
770.99	1660.90
771.17	1732.58
771.35	1654.76
771.53	1648.61
771.70	1734.63
771.88	1742.82
772.06	1673.19
772.23	1701.86
772.41	1753.06
772.59	1665.00
772.77	1646.57
772.94	1689.57
773.12	1716.20
773.30	1730.53
773.47	1699.81
773.65	1675.24
773.83	1789.92
774.01	1701.86
774.18	1564.65
774.36	1679.33
774.54	1638.38
774.71	1738.73
774.89	1699.81
775.07	1638.38
775.24	1738.73
775.42	1656.81
775.60	1783.78
775.78	1703.91
775.95	1679.33
776.13	1638.38
776.31	1542.12
776.48	1718.25
776.66	1769.44
776.84	1677.29
777.01	1607.66
777.19	1650.66
777.37	1673.19
777.54	1783.78
777.72	1781.73
777.90	1705.96
778.07	1640.42
778.25	1880.04
778.43	1769.44
778.60	1677.29
778.78	1718.25
778.96	1728.49
779.13	1615.85
779.31	1783.78
779.49	1671.14
779.66	1712.10
779.84	1658.85
780.01	1708.01
780.19	1595.37
780.37	1712.10
780.54	1609.70
780.72	1675.24
780.90	1677.29
781.07	1642.47
781.25	1677.29
781.43	1744.87
781.60	1675.24
781.78	1787.88
781.95	1714.15
782.13	1667.05
782.31	1810.40
782.48	1554.41
782.66	1740.77
782.83	1757.16
783.01	1650.66
783.19	1732.58
783.36	1675.24
783.54	1708.01
783.72	1703.91
783.89	1695.72
784.07	1722.34
784.24	1724.39
784.42	1849.32
784.60	1662.95
784.77	1757.16
784.95	1619.94
785.12	1679.33
785.30	1714.15
785.47	1667.05
785.65	1665.00
785.83	1765.35
786.00	1685.48
786.18	1701.86
786.35	1671.14
786.53	1669.09
786.71	1767.40
786.88	1757.16
787.06	1748.97
787.23	1642.47
787.41	1607.66
787.58	1634.28
787.76	1714.15
787.94	1724.39
788.11	1617.90
788.29	1572.84
788.46	1628.14
788.64	1601.51
788.81	1730.53
788.99	1665.00
789.16	1613.80
789.34	1748.97
789.52	1656.81
789.69	1718.25
789.87	1599.46
790.04	1693.67
790.22	1695.72
790.39	1746.92
790.57	1689.57
790.74	1634.28
790.92	1732.58
791.09	1587.18
791.27	1710.05
791.44	1738.73
791.62	1626.09
791.79	1734.63
791.97	1701.86
792.15	1886.18
792.32	1783.78
792.50	1755.11
792.67	1753.06
792.85	1705.96
793.02	1679.33
793.20	1630.18
793.37	1601.51
793.55	1755.11
793.72	1677.29
793.90	1740.77
794.07	1603.56
794.25	1681.38
794.42	1648.61
794.60	1748.97
794.77	1740.77
794.95	1753.06
795.12	1742.82
795.30	1699.81
795.47	1593.32
795.65	1886.18
795.82	1734.63
796.00	1675.24
796.17	1626.09
796.34	1611.75
796.52	1697.77
796.69	1710.05
796.87	1710.05
797.04	1804.26
797.22	1718.25
797.39	1654.76
797.57	1705.96
797.74	1736.68
797.92	1722.34
798.09	1681.38
798.27	1791.97
798.44	1705.96
798.62	1738.73
798.79	1683.43
798.96	1740.77
799.14	1748.97
799.31	1820.64
799.49	1722.34
799.66	1730.53
799.84	1755.11
800.01	1601.51
800.19	1681.38
800.36	1671.14
800.53	1755.11
800.71	1685.48
800.88	1755.11
801.06	1652.71
801.23	1710.05
801.41	1705.96
801.58	1617.90
801.75	1685.48
801.93	1732.58
802.10	1689.57
802.28	1681.38
802.45	1640.42
802.63	1757.16
802.80	1759.21
802.97	1716.20
803.15	1681.38
803.32	1687.53
803.50	1626.09
803.67	1736.68
803.84	1611.75
804.02	1783.78
804.19	1654.76
804.37	1572.84
804.54	1667.05
804.71	1712.10
804.89	1722.34
805.06	1714.15
805.24	1630.18
805.41	1624.04
805.58	1658.85
805.76	1865.70
805.93	1755.11
806.10	1720.29
806.28	1677.29
806.45	1636.33
806.63	1757.16
806.80	1697.77
806.97	1679.33
807.15	1714.15
807.32	1703.91
807.49	1656.81
807.67	1693.67
807.84	1705.96
808.01	1593.32
808.19	1822.69
808.36	1832.93
808.54	1681.38
808.71	1660.90
808.88	1689.57
809.06	1755.11
809.23	1789.92
809.40	1632.23
809.58	1779.68
809.75	1689.57
809.92	1697.77
810.10	1787.88
810.27	1755.11
810.44	1658.85
810.62	1722.34
810.79	1724.39
810.96	1685.48
811.14	1613.80
811.31	1794.02
811.48	1716.20
811.66	1648.61
811.83	1820.64
812.00	1787.88
812.18	1781.73
812.35	1779.68
812.52	1613.80
812.69	1701.86
812.87	1665.00
813.04	1656.81
813.21	1638.38
813.39	1630.18
813.56	1570.79
813.73	1722.34
813.91	1656.81
814.08	1636.33
814.25	1687.53
814.42	1636.33
814.60	1669.09
814.77	1685.48
814.94	1699.81
815.12	1703.91
815.29	1767.40
815.46	1695.72
815.63	1753.06
815.81	1687.53
815.98	1660.90
816.15	1662.95
816.33	1648.61
816.50	1638.38
816.67	1687.53
816.84	1679.33
817.02	1609.70
817.19	1691.62
817.36	1679.33
817.53	1652.71
817.71	1617.90
817.88	1730.53
818.05	1744.87
818.22	1652.71
818.40	1818.60
818.57	1671.14
818.74	1701.86
818.91	1718.25
819.09	1712.10
819.26	1757.16
819.43	1671.14
819.60	1677.29
819.78	1789.92
819.95	1781.73
820.12	1658.85
820.29	1816.55
820.47	1757.16
820.64	1736.68
820.81	1609.70
820.98	1751.01
821.15	1781.73
821.33	1701.86
821.50	1619.94
821.67	1757.16
821.84	1701.86
822.02	1669.09
822.19	1732.58
822.36	1689.57
822.53	1554.41
822.70	1646.57
822.88	1665.00
823.05	1765.35
823.22	1710.05
823.39	1687.53
823.56	1642.47
823.74	1877.99
823.91	1675.24
824.08	1624.04
824.25	1624.04
824.42	1767.40
824.60	1570.79
824.77	1705.96
824.94	1726.44
825.11	1746.92
825.28	1626.09
825.45	1689.57
825.63	1607.66
825.80	1542.12
825.97	1597.42
826.14	1765.35
826.31	1621.99
826.48	1718.25
826.66	1619.94
826.83	1665.00
827.00	1751.01
827.17	1689.57
827.34	1724.39
827.51	1683.43
827.69	1667.05
827.86	1656.81
828.03	1681.38
828.20	1607.66
828.37	1644.52
828.54	1742.82
828.71	1677.29
828.89	1773.54
829.06	1693.67
829.23	1773.54
829.40	1665.00
829.57	1681.38
829.74	1693.67
829.91	1665.00
830.09	1695.72
830.26	1703.91
830.43	1820.64
830.60	1652.71
830.77	1724.39
830.94	1806.31
831.11	1789.92
831.28	1665.00
831.46	1824.74
831.63	1656.81
831.80	1720.29
831.97	1753.06
832.14	1736.68
832.31	1708.01
832.48	1716.20
832.65	1769.44
832.82	1726.44
832.99	1714.15
833.17	1656.81
833.34	1826.79
833.51	1714.15
833.68	1554.41
833.85	1755.11
834.02	1605.61
834.19	1710.05
834.36	1669.09
834.53	1810.40
834.70	1687.53
834.87	1748.97
835.04	1693.67
835.22	1640.42
835.39	1681.38
835.56	1624.04
835.73	1615.85
835.90	1738.73
836.07	1671.14
836.24	1703.91
836.41	1660.90
836.58	1691.62
836.75	1771.49
836.92	1648.61
837.09	1621.99
837.26	1740.77
837.43	1710.05
837.60	1701.86
837.77	1628.14
837.94	1755.11
838.12	1830.88
838.29	1640.42
838.46	1638.38
838.63	1587.18
838.80	1689.57
838.97	1785.83
839.14	1751.01
839.31	1689.57
839.48	1791.97
839.65	1650.66
839.82	1681.38
839.99	1681.38
840.16	1710.05
840.33	1722.34
840.50	1607.66
840.67	1658.85
840.84	1585.13
841.01	1669.09
841.18	1613.80
841.35	1656.81
841.52	1839.08
841.69	1781.73
841.86	1642.47
842.03	1714.15
842.20	1701.86
842.37	1619.94
842.54	1648.61
842.71	1695.72
842.88	1609.70
843.05	1814.50
843.22	1662.95
843.39	1734.63
843.56	1632.23
843.73	1748.97
843.90	1734.63
844.07	1673.19
844.24	1724.39
844.41	1624.04
844.58	1757.16
844.75	1638.38
844.92	1722.34
845.09	1712.10
845.26	1671.14
845.43	1697.77
845.60	1697.77
845.77	1710.05
845.94	1755.11
846.10	1646.57
846.27	1603.56
846.44	1648.61
846.61	1708.01
846.78	1742.82
846.95	1779.68
847.12	1609.70
847.29	1648.61
847.46	1632.23
847.63	1718.25
847.80	1632.23
847.97	1652.71
848.14	1794.02
848.31	1691.62
848.48	1638.38
848.65	1693.67
848.82	1693.67
848.98	1787.88
849.15	1658.85
849.32	1785.83
849.49	1718.25
849.66	1708.01
849.83	1687.53
850.00	1648.61
850.17	1705.96
850.34	1748.97
850.51	1683.43
850.68	1691.62
850.85	1763.30
851.01	1687.53
851.18	1771.49
851.35	1683.43
851.52	1734.63
851.69	1751.01
851.86	1619.94
852.03	1695.72
852.20	1810.40
852.37	1755.11
852.53	1628.14
852.70	1714.15
852.87	1701.86
853.04	1783.78
853.21	1734.63
853.38	1712.10
853.55	1718.25
853.72	1732.58
853.89	1695.72
854.05	1681.38
854.22	1628.14
854.39	1654.76
854.56	1705.96
854.73	1857.51
854.90	1667.05
855.07	1662.95
855.23	1671.14
855.40	1718.25
855.57	1669.09
855.74	1607.66
855.91	1806.31
856.08	1630.18
856.25	1642.47
856.41	1734.63
856.58	1652.71
856.75	1699.81
856.92	1607.66
857.09	1779.68
857.26	1605.61
857.42	1699.81
857.59	1736.68
857.76	1644.52
857.93	1673.19
858.10	1710.05
858.27	1548.26
858.43	1724.39
858.60	1646.57
858.77	1609.70
858.94	1619.94
859.11	1730.53
859.27	1640.42
859.44	1662.95
859.61	1785.83
859.78	1761.25
859.95	1744.87
860.12	1640.42
860.28	1863.65
860.45	1781.73
860.62	1632.23
860.79	1726.44
860.95	1748.97
861.12	1603.56
861.29	1699.81
861.46	1574.89
861.63	1777.64
861.79	1658.85
861.96	1599.46
862.13	1681.38
862.30	1765.35
862.47	1626.09
862.63	1609.70
862.80	1802.21
862.97	1759.21
863.14	1646.57
863.30	1722.34
863.47	1634.28
863.64	1751.01
863.81	1730.53
863.97	1658.85
864.14	1771.49
864.31	1615.85
864.48	1746.92
864.65	1705.96
864.81	1806.31
864.98	1701.86
865.15	1722.34
865.32	1800.16
865.48	1728.49
865.65	1730.53
865.82	1708.01
865.98	1773.54
866.15	1689.57
866.32	1730.53
866.49	1665.00
866.65	1710.05
866.82	1636.33
866.99	1718.25
867.16	1652.71
867.32	1615.85
867.49	1718.25
867.66	1621.99
867.83	1673.19
867.99	1632.23
868.16	1710.05
868.33	1648.61
868.49	1671.14
868.66	1652.71
868.83	1791.97
868.99	1621.99
869.16	1665.00
869.33	1746.92
869.50	1730.53
869.66	1736.68
869.83	1730.53
870.00	1656.81
870.16	1738.73
870.33	1701.86
870.50	1794.02
870.66	1685.48
870.83	1773.54
871.00	1726.44
871.17	1673.19
871.33	1724.39
871.50	1703.91
871.67	1714.15
871.83	1613.80
872.00	1738.73
872.17	1710.05
872.33	1812.45
872.50	1705.96
872.67	1675.24
872.83	1691.62
873.00	1681.38
873.17	1685.48
873.33	1744.87
873.50	1705.96
873.67	1665.00
873.83	1691.62
874.00	1662.95
874.16	1697.77
874.33	1714.15
874.50	1630.18
874.66	1736.68
874.83	1634.28
875.00	1794.02
875.16	1773.54
875.33	1669.09
875.50	1570.79
875.66	1665.00
875.83	1738.73
875.99	1724.39
876.16	1738.73
876.33	1615.85
876.49	1695.72
876.66	1736.68
876.83	1644.52
876.99	1640.42
877.16	1699.81
877.32	1665.00
877.49	1708.01
877.66	1761.25
877.82	1787.88
877.99	1644.52
878.15	1755.11
878.32	1763.30
878.49	1722.34
878.65	1675.24
878.82	1863.65
878.98	1669.09
879.15	1812.45
879.32	1771.49
879.48	1683.43
879.65	1701.86
879.81	1638.38
879.98	1699.81
880.15	1681.38
880.31	1730.53
880.48	1595.37
880.64	1779.68
880.81	1755.11
880.97	1779.68
881.14	1718.25
881.31	1617.90
881.47	1841.12
881.64	1607.66
881.80	1624.04
881.97	1714.15
882.13	1730.53
882.30	1609.70
882.47	1708.01
882.63	1615.85
882.80	1671.14
882.96	1628.14
883.13	1802.21
883.29	1624.04
883.46	1802.21
883.62	1761.25
883.79	1710.05
883.95	1755.11
884.12	1726.44
884.29	1669.09
884.45	1687.53
884.62	1718.25
884.78	1687.53
884.95	1763.30
885.11	1665.00
885.28	1728.49
885.44	1652.71
885.61	1730.53
885.77	1802.21
885.94	1759.21
886.10	1720.29
886.27	1644.52
886.43	1822.69
886.60	1765.35
886.76	1671.14
886.93	1599.46
887.09	1730.53
887.26	1656.81
887.42	1722.34
887.59	1728.49
887.75	1802.21
887.92	1748.97
888.08	1730.53
888.25	1718.25
888.41	1763.30
888.58	1722.34
888.74	1693.67
888.91	1615.85
>>>>>End Processed Spectral Data<<<<<
