SpectraSuite Data File
++++++++++++++++++++++++++++++++++++
Date: Mon Jun 06 13:16:17 CEST 2016
User: root
Dark Spectrum Present: No
Reference Spectrum Present: No
Number of Sampled Component Spectra: 1
Spectrometers: USB4C02835
Integration Time (usec): 100000 (USB4C02835)
Spectra Averaged: 1 (USB4C02835)
Boxcar Smoothing: 0 (USB4C02835)
Correct for Electrical Dark: No (USB4C02835)
Strobe/Lamp Enabled: No (USB4C02835)
Correct for Detector Non-linearity: No (USB4C02835)
Correct for Stray Light: No (USB4C02835)
Number of Pixels in Processed Spectrum: 3648
>>>>>Begin Processed Spectral Data<<<<<
177.47	1437.67
177.69	1437.67
177.91	1437.67
178.13	1488.87
178.36	1456.11
178.58	1683.43
178.80	1757.16
179.02	1595.37
179.24	1656.81
179.46	1742.82
179.68	1775.59
179.90	1636.33
180.13	1660.90
180.35	1695.72
180.57	1705.96
180.79	1744.87
181.01	1736.68
181.23	1767.40
181.45	1779.68
181.67	1656.81
181.90	1771.49
182.12	1726.44
182.34	1654.76
182.56	1697.77
182.78	1771.49
183.00	1693.67
183.22	1685.48
183.44	1665.00
183.66	1767.40
183.89	1765.35
184.11	1732.58
184.33	1779.68
184.55	1687.53
184.77	1712.10
184.99	1714.15
185.21	1650.66
185.43	1904.61
185.65	1624.04
185.87	1689.57
186.10	1810.40
186.32	1892.32
186.54	1767.40
186.76	1710.05
186.98	1812.45
187.20	1656.81
187.42	1675.24
187.64	1595.37
187.86	1697.77
188.08	1783.78
188.30	1767.40
188.52	1734.63
188.75	1746.92
188.97	1783.78
189.19	1677.29
189.41	1640.42
189.63	1736.68
189.85	1609.70
190.07	1656.81
190.29	1574.89
190.51	1669.09
190.73	1648.61
190.95	1779.68
191.17	1650.66
191.39	1603.56
191.61	1734.63
191.84	1609.70
192.06	1816.55
192.28	1632.23
192.50	1832.93
192.72	1669.09
192.94	1810.40
193.16	1705.96
193.38	1773.54
193.60	1634.28
193.82	1708.01
194.04	1781.73
194.26	1765.35
194.48	1632.23
194.70	1673.19
194.92	1703.91
195.14	1718.25
195.36	1673.19
195.58	1705.96
195.80	1710.05
196.02	1705.96
196.24	1650.66
196.46	1746.92
196.69	1677.29
196.91	1877.99
197.13	1691.62
197.35	1697.77
197.57	1800.16
197.79	1740.77
198.01	1849.32
198.23	1732.58
198.45	1701.86
198.67	1638.38
198.89	1728.49
199.11	1734.63
199.33	1648.61
199.55	1619.94
199.77	1740.77
199.99	1746.92
200.21	1689.57
200.43	1732.58
200.65	1626.09
200.87	1581.03
201.09	1652.71
201.31	1665.00
201.53	1703.91
201.75	1628.14
201.97	1705.96
202.19	1716.20
202.41	1710.05
202.63	1773.54
202.85	1730.53
203.07	1662.95
203.29	1660.90
203.51	1662.95
203.73	1708.01
203.95	1918.95
204.17	1753.06
204.39	1716.20
204.61	1683.43
204.83	1701.86
205.05	1800.16
205.27	1794.02
205.49	1794.02
205.71	1732.58
205.93	1615.85
206.15	1677.29
206.37	1693.67
206.59	1662.95
206.81	1613.80
207.03	1648.61
207.25	1597.42
207.47	1773.54
207.69	1705.96
207.91	1718.25
208.13	1806.31
208.34	1658.85
208.56	1626.09
208.78	1718.25
209.00	1724.39
209.22	1675.24
209.44	1720.29
209.66	1777.64
209.88	1689.57
210.10	1619.94
210.32	1642.47
210.54	1802.21
210.76	1759.21
210.98	1765.35
211.20	1562.60
211.42	1726.44
211.64	1791.97
211.86	1687.53
212.08	1800.16
212.30	1728.49
212.52	1644.52
212.74	1648.61
212.96	1644.52
213.17	1740.77
213.39	1736.68
213.61	1763.30
213.83	1705.96
214.05	1685.48
214.27	1818.60
214.49	1677.29
214.71	1652.71
214.93	1767.40
215.15	1626.09
215.37	1761.25
215.59	1607.66
215.81	1748.97
216.03	1755.11
216.24	1763.30
216.46	1632.23
216.68	1783.78
216.90	1728.49
217.12	1849.32
217.34	1748.97
217.56	1761.25
217.78	1794.02
218.00	1658.85
218.22	1726.44
218.44	1705.96
218.66	1675.24
218.87	1759.21
219.09	1677.29
219.31	1716.20
219.53	1691.62
219.75	1736.68
219.97	1687.53
220.19	1708.01
220.41	1765.35
220.63	1830.88
220.85	1687.53
221.06	1691.62
221.28	1748.97
221.50	1687.53
221.72	1615.85
221.94	1705.96
222.16	1718.25
222.38	1685.48
222.60	1742.82
222.82	1591.27
223.03	1697.77
223.25	1677.29
223.47	1777.64
223.69	1814.50
223.91	1691.62
224.13	1732.58
224.35	1667.05
224.57	1724.39
224.78	1697.77
225.00	1748.97
225.22	1712.10
225.44	1738.73
225.66	1714.15
225.88	1677.29
226.10	1763.30
226.32	1689.57
226.53	1787.88
226.75	1632.23
226.97	1675.24
227.19	1695.72
227.41	1646.57
227.63	1744.87
227.85	1566.70
228.06	1755.11
228.28	1652.71
228.50	1757.16
228.72	1638.38
228.94	1710.05
229.16	1624.04
229.37	1660.90
229.59	1722.34
229.81	1857.51
230.03	1628.14
230.25	1638.38
230.47	1642.47
230.69	1654.76
230.90	1677.29
231.12	1665.00
231.34	1785.83
231.56	1816.55
231.78	1630.18
232.00	1718.25
232.21	1755.11
232.43	1691.62
232.65	1603.56
232.87	1718.25
233.09	1697.77
233.30	1691.62
233.52	1755.11
233.74	1681.38
233.96	1644.52
234.18	1744.87
234.40	1632.23
234.61	1771.49
234.83	1607.66
235.05	1642.47
235.27	1822.69
235.49	1773.54
235.70	1683.43
235.92	1746.92
236.14	1712.10
236.36	1859.56
236.58	1634.28
236.79	1705.96
237.01	1703.91
237.23	1675.24
237.45	1734.63
237.67	1644.52
237.88	1693.67
238.10	1824.74
238.32	1642.47
238.54	1667.05
238.76	1705.96
238.97	1681.38
239.19	1581.03
239.41	1798.12
239.63	1751.01
239.85	1722.34
240.06	1748.97
240.28	1714.15
240.50	1771.49
240.72	1677.29
240.93	1677.29
241.15	1824.74
241.37	1662.95
241.59	1775.59
241.81	1699.81
242.02	1669.09
242.24	1714.15
242.46	1722.34
242.68	1640.42
242.89	1677.29
243.11	1761.25
243.33	1677.29
243.55	1763.30
243.76	1640.42
243.98	1667.05
244.20	1689.57
244.42	1683.43
244.64	1773.54
244.85	1667.05
245.07	1687.53
245.29	1703.91
245.51	1714.15
245.72	1701.86
245.94	1767.40
246.16	1705.96
246.38	1705.96
246.59	1671.14
246.81	1728.49
247.03	1712.10
247.24	1585.13
247.46	1689.57
247.68	1691.62
247.90	1714.15
248.11	1656.81
248.33	1730.53
248.55	1574.89
248.77	1720.29
248.98	1740.77
249.20	1769.44
249.42	1757.16
249.64	1660.90
249.85	1691.62
250.07	1683.43
250.29	1705.96
250.50	1656.81
250.72	1595.37
250.94	1697.77
251.16	1806.31
251.37	1826.79
251.59	1794.02
251.81	1744.87
252.02	1791.97
252.24	1742.82
252.46	1814.50
252.68	1648.61
252.89	1675.24
253.11	1644.52
253.33	1814.50
253.54	1726.44
253.76	1673.19
253.98	1617.90
254.20	1789.92
254.41	1685.48
254.63	1730.53
254.85	1671.14
255.06	1626.09
255.28	1736.68
255.50	1667.05
255.71	1642.47
255.93	1607.66
256.15	1693.67
256.36	1703.91
256.58	1783.78
256.80	1748.97
257.02	1763.30
257.23	1650.66
257.45	1734.63
257.67	1761.25
257.88	1648.61
258.10	1740.77
258.32	1720.29
258.53	1744.87
258.75	1783.78
258.97	1613.80
259.18	1695.72
259.40	1710.05
259.62	1861.60
259.83	1804.26
260.05	1734.63
260.27	1943.52
260.48	1742.82
260.70	1601.51
260.92	1640.42
261.13	1710.05
261.35	1646.57
261.57	1798.12
261.78	1581.03
262.00	1595.37
262.22	1724.39
262.43	1705.96
262.65	1669.09
262.86	1755.11
263.08	1857.51
263.30	1714.15
263.51	1544.17
263.73	1705.96
263.95	1826.79
264.16	1570.79
264.38	1650.66
264.60	1703.91
264.81	1683.43
265.03	1777.64
265.25	1697.77
265.46	1716.20
265.68	1742.82
265.89	1724.39
266.11	1683.43
266.33	1742.82
266.54	1724.39
266.76	1720.29
266.98	1621.99
267.19	1724.39
267.41	1705.96
267.62	1757.16
267.84	1617.90
268.06	1703.91
268.27	1712.10
268.49	1714.15
268.70	1740.77
268.92	1734.63
269.14	1656.81
269.35	1699.81
269.57	1740.77
269.79	1759.21
270.00	1689.57
270.22	1816.55
270.43	1638.38
270.65	1542.12
270.87	1648.61
271.08	1777.64
271.30	1697.77
271.51	1697.77
271.73	1816.55
271.95	1853.41
272.16	1681.38
272.38	1775.59
272.59	1658.85
272.81	1673.19
273.02	1712.10
273.24	1738.73
273.46	1740.77
273.67	1619.94
273.89	1660.90
274.10	1636.33
274.32	1834.98
274.54	1675.24
274.75	1775.59
274.97	1708.01
275.18	1697.77
275.40	1787.88
275.61	1701.86
275.83	1708.01
276.05	1683.43
276.26	1712.10
276.48	1675.24
276.69	1697.77
276.91	1671.14
277.12	1796.07
277.34	1685.48
277.55	1798.12
277.77	1738.73
277.99	1656.81
278.20	1601.51
278.42	1708.01
278.63	1652.71
278.85	1644.52
279.06	1585.13
279.28	1746.92
279.49	1765.35
279.71	1726.44
279.93	1658.85
280.14	1697.77
280.36	1679.33
280.57	1728.49
280.79	1699.81
281.00	1669.09
281.22	1671.14
281.43	1816.55
281.65	1560.55
281.86	1548.26
282.08	1665.00
282.29	1804.26
282.51	1603.56
282.73	1656.81
282.94	1558.50
283.16	1660.90
283.37	1742.82
283.59	1701.86
283.80	1621.99
284.02	1656.81
284.23	1734.63
284.45	1671.14
284.66	1667.05
284.88	1695.72
285.09	1683.43
285.31	1718.25
285.52	1755.11
285.74	1617.90
285.95	1787.88
286.17	1726.44
286.38	1738.73
286.60	1634.28
286.81	1681.38
287.03	1710.05
287.24	1652.71
287.46	1771.49
287.67	1718.25
287.89	1806.31
288.10	1699.81
288.32	1634.28
288.53	1767.40
288.75	1691.62
288.96	1787.88
289.18	1662.95
289.39	1695.72
289.61	1767.40
289.82	1767.40
290.04	1832.93
290.25	1648.61
290.47	1681.38
290.68	1740.77
290.90	1769.44
291.11	1691.62
291.33	1789.92
291.54	1687.53
291.76	1621.99
291.97	1673.19
292.18	1787.88
292.40	1630.18
292.61	1624.04
292.83	1877.99
293.04	1673.19
293.26	1736.68
293.47	1611.75
293.69	1628.14
293.90	1675.24
294.12	1804.26
294.33	1728.49
294.55	1757.16
294.76	1798.12
294.97	1773.54
295.19	1746.92
295.40	1689.57
295.62	1667.05
295.83	1703.91
296.05	1632.23
296.26	1699.81
296.48	1626.09
296.69	1689.57
296.90	1665.00
297.12	1724.39
297.33	1769.44
297.55	1734.63
297.76	1787.88
297.98	1755.11
298.19	1693.67
298.41	1658.85
298.62	1652.71
298.83	1755.11
299.05	1753.06
299.26	1708.01
299.48	1689.57
299.69	1693.67
299.90	1683.43
300.12	1617.90
300.33	1701.86
300.55	1697.77
300.76	1732.58
300.98	1640.42
301.19	1722.34
301.40	1789.92
301.62	1599.46
301.83	1730.53
302.05	1652.71
302.26	1738.73
302.47	1658.85
302.69	1650.66
302.90	1656.81
303.12	1587.18
303.33	1765.35
303.54	1742.82
303.76	1712.10
303.97	1746.92
304.19	1755.11
304.40	1654.76
304.61	1634.28
304.83	1855.46
305.04	1779.68
305.26	1753.06
305.47	1677.29
305.68	1728.49
305.90	1540.07
306.11	1802.21
306.33	1714.15
306.54	1640.42
306.75	1683.43
306.97	1607.66
307.18	1589.22
307.39	1613.80
307.61	1806.31
307.82	1677.29
308.04	1714.15
308.25	1708.01
308.46	1740.77
308.68	1683.43
308.89	1601.51
309.10	1732.58
309.32	1718.25
309.53	1681.38
309.74	1708.01
309.96	1675.24
310.17	1769.44
310.39	1689.57
310.60	1687.53
310.81	1701.86
311.03	1581.03
311.24	1720.29
311.45	1652.71
311.67	1796.07
311.88	1753.06
312.09	1591.27
312.31	1615.85
312.52	1671.14
312.73	1673.19
312.95	1640.42
313.16	1644.52
313.37	1730.53
313.59	1701.86
313.80	1826.79
314.01	1708.01
314.23	1619.94
314.44	1585.13
314.65	1636.33
314.87	1646.57
315.08	1693.67
315.29	1734.63
315.51	1656.81
315.72	1693.67
315.93	1681.38
316.15	1699.81
316.36	1757.16
316.57	1730.53
316.79	1740.77
317.00	1701.86
317.21	1716.20
317.43	1591.27
317.64	1769.44
317.85	1591.27
318.07	1665.00
318.28	1753.06
318.49	1789.92
318.70	1841.12
318.92	1845.22
319.13	1804.26
319.34	1875.94
319.56	1761.25
319.77	1738.73
319.98	1841.12
320.20	1763.30
320.41	1789.92
320.62	1695.72
320.83	1677.29
321.05	1812.45
321.26	1714.15
321.47	1710.05
321.69	1796.07
321.90	1658.85
322.11	1642.47
322.32	1679.33
322.54	1871.84
322.75	1695.72
322.96	1816.55
323.18	1603.56
323.39	1636.33
323.60	1720.29
323.81	1800.16
324.03	1665.00
324.24	1714.15
324.45	1722.34
324.66	1656.81
324.88	1687.53
325.09	1761.25
325.30	1689.57
325.52	1730.53
325.73	1759.21
325.94	1712.10
326.15	1656.81
326.37	1658.85
326.58	1822.69
326.79	1755.11
327.00	1621.99
327.22	1714.15
327.43	1646.57
327.64	1609.70
327.85	1685.48
328.07	1738.73
328.28	1699.81
328.49	1644.52
328.70	1677.29
328.92	1673.19
329.13	1716.20
329.34	1689.57
329.55	1822.69
329.76	1734.63
329.98	1662.95
330.19	1767.40
330.40	1734.63
330.61	1669.09
330.83	1794.02
331.04	1658.85
331.25	1669.09
331.46	1695.72
331.68	1611.75
331.89	1798.12
332.10	1751.01
332.31	1634.28
332.52	1763.30
332.74	1822.69
332.95	1595.37
333.16	1681.38
333.37	1708.01
333.58	1654.76
333.80	1732.58
334.01	1609.70
334.22	1732.58
334.43	1683.43
334.64	1708.01
334.86	1613.80
335.07	1552.36
335.28	1740.77
335.49	1646.57
335.70	1673.19
335.92	1806.31
336.13	1738.73
336.34	1697.77
336.55	1763.30
336.76	1751.01
336.98	1656.81
337.19	1736.68
337.40	1763.30
337.61	1853.41
337.82	1640.42
338.04	1783.78
338.25	1691.62
338.46	1738.73
338.67	1603.56
338.88	1673.19
339.09	1603.56
339.31	1671.14
339.52	1634.28
339.73	1619.94
339.94	1621.99
340.15	1720.29
340.36	1669.09
340.58	1665.00
340.79	1630.18
341.00	1738.73
341.21	1671.14
341.42	1865.70
341.63	1714.15
341.85	1740.77
342.06	1667.05
342.27	1667.05
342.48	1718.25
342.69	1615.85
342.90	1701.86
343.12	1691.62
343.33	1683.43
343.54	1714.15
343.75	1779.68
343.96	1685.48
344.17	1642.47
344.38	1744.87
344.60	1656.81
344.81	1605.61
345.02	1785.83
345.23	1742.82
345.44	1804.26
345.65	1755.11
345.86	1742.82
346.07	1646.57
346.29	1587.18
346.50	1679.33
346.71	1779.68
346.92	1802.21
347.13	1855.46
347.34	1650.66
347.55	1710.05
347.76	1720.29
347.98	1628.14
348.19	1683.43
348.40	1802.21
348.61	1701.86
348.82	1771.49
349.03	1771.49
349.24	1636.33
349.45	1863.65
349.66	1630.18
349.88	1734.63
350.09	1609.70
350.30	1812.45
350.51	1779.68
350.72	1757.16
350.93	1652.71
351.14	1658.85
351.35	1701.86
351.56	1681.38
351.77	1624.04
351.99	1708.01
352.20	1775.59
352.41	1810.40
352.62	1566.70
352.83	1722.34
353.04	1634.28
353.25	1697.77
353.46	1783.78
353.67	1695.72
353.88	1574.89
354.09	1691.62
354.30	1675.24
354.52	1771.49
354.73	1679.33
354.94	1626.09
355.15	1738.73
355.36	1748.97
355.57	1638.38
355.78	1771.49
355.99	1652.71
356.20	1648.61
356.41	1720.29
356.62	1767.40
356.83	1687.53
357.04	1775.59
357.25	1583.08
357.46	1681.38
357.68	1701.86
357.89	1673.19
358.10	1628.14
358.31	1681.38
358.52	1652.71
358.73	1652.71
358.94	1609.70
359.15	1621.99
359.36	1783.78
359.57	1724.39
359.78	1697.77
359.99	1763.30
360.20	1714.15
360.41	1685.48
360.62	1718.25
360.83	1742.82
361.04	1753.06
361.25	1722.34
361.46	1839.08
361.67	1718.25
361.88	1804.26
362.09	1748.97
362.30	1773.54
362.51	1699.81
362.72	1667.05
362.93	1703.91
363.14	1798.12
363.35	1699.81
363.56	1677.29
363.78	1783.78
363.99	1779.68
364.20	1527.78
364.41	1714.15
364.62	1773.54
364.83	1705.96
365.04	1744.87
365.25	1636.33
365.46	1761.25
365.67	1708.01
365.88	1632.23
366.09	1654.76
366.30	1673.19
366.51	1671.14
366.72	1716.20
366.93	1681.38
367.14	1656.81
367.35	1748.97
367.56	1658.85
367.77	1837.03
367.98	1642.47
368.18	1667.05
368.39	1734.63
368.60	1644.52
368.81	1710.05
369.02	1656.81
369.23	1736.68
369.44	1638.38
369.65	1609.70
369.86	1675.24
370.07	1740.77
370.28	1640.42
370.49	1624.04
370.70	1710.05
370.91	1642.47
371.12	1630.18
371.33	1753.06
371.54	1708.01
371.75	1730.53
371.96	1523.69
372.17	1605.61
372.38	1710.05
372.59	1781.73
372.80	1681.38
373.01	1736.68
373.22	1669.09
373.43	1742.82
373.64	1597.42
373.85	1736.68
374.06	1755.11
374.26	1775.59
374.47	1687.53
374.68	1804.26
374.89	1720.29
375.10	1687.53
375.31	1705.96
375.52	1617.90
375.73	1648.61
375.94	1716.20
376.15	1779.68
376.36	1712.10
376.57	1673.19
376.78	1546.22
376.99	1669.09
377.20	1777.64
377.40	1636.33
377.61	1820.64
377.82	1613.80
378.03	1812.45
378.24	1738.73
378.45	1724.39
378.66	1701.86
378.87	1583.08
379.08	1615.85
379.29	1669.09
379.50	1751.01
379.71	1669.09
379.91	1783.78
380.12	1720.29
380.33	1718.25
380.54	1677.29
380.75	1714.15
380.96	1673.19
381.17	1726.44
381.38	1611.75
381.59	1705.96
381.80	1746.92
382.00	1890.28
382.21	1794.02
382.42	1886.18
382.63	1861.60
382.84	1673.19
383.05	1769.44
383.26	1767.40
383.47	1716.20
383.68	1712.10
383.88	1769.44
384.09	1695.72
384.30	1837.03
384.51	1726.44
384.72	1718.25
384.93	1634.28
385.14	1714.15
385.35	1703.91
385.55	1621.99
385.76	1759.21
385.97	1628.14
386.18	1685.48
386.39	1673.19
386.60	1689.57
386.81	1681.38
387.02	1658.85
387.22	1642.47
387.43	1746.92
387.64	1808.36
387.85	1828.84
388.06	2181.09
388.27	4163.52
388.48	6684.57
388.68	8071.04
388.89	9596.78
389.10	9738.09
389.31	8527.74
389.52	7409.55
389.73	6621.08
389.93	6148.00
390.14	5799.85
390.35	5144.50
390.56	4513.72
390.77	3790.79
390.98	2973.65
391.18	2562.01
391.39	2074.59
391.60	1855.46
391.81	1800.16
392.02	1689.57
392.23	1875.94
392.43	1773.54
392.64	1787.88
392.85	1669.09
393.06	1806.31
393.27	1660.90
393.47	1675.24
393.68	1712.10
393.89	1646.57
394.10	1763.30
394.31	1660.90
394.52	1656.81
394.72	1638.38
394.93	1759.21
395.14	1615.85
395.35	1718.25
395.56	1650.66
395.76	1718.25
395.97	1812.45
396.18	1816.55
396.39	1802.21
396.60	1964.00
396.80	1912.80
397.01	1820.64
397.22	1798.12
397.43	1918.95
397.64	1724.39
397.84	1755.11
398.05	1822.69
398.26	1685.48
398.47	1748.97
398.67	1730.53
398.88	1763.30
399.09	1732.58
399.30	1734.63
399.51	1716.20
399.71	1652.71
399.92	1703.91
400.13	1724.39
400.34	1705.96
400.54	1710.05
400.75	1820.64
400.96	1632.23
401.17	1773.54
401.37	1714.15
401.58	1703.91
401.79	1716.20
402.00	1867.75
402.21	1898.47
402.41	1882.08
402.62	1927.14
402.83	2027.49
403.04	2009.06
403.24	2019.30
403.45	1851.36
403.66	1890.28
403.87	1906.66
404.07	1937.38
404.28	1961.95
404.49	1902.56
404.70	1791.97
404.90	1789.92
405.11	1781.73
405.32	1675.24
405.52	1705.96
405.73	1654.76
405.94	1738.73
406.15	1744.87
406.35	1775.59
406.56	1826.79
406.77	1808.36
406.98	1677.29
407.18	1640.42
407.39	1757.16
407.60	1615.85
407.80	1705.96
408.01	1650.66
408.22	1675.24
408.43	1722.34
408.63	1740.77
408.84	1779.68
409.05	1798.12
409.25	1640.42
409.46	1593.32
409.67	1730.53
409.88	1660.90
410.08	1722.34
410.29	1679.33
410.50	1716.20
410.70	1705.96
410.91	1644.52
411.12	1736.68
411.32	1689.57
411.53	1759.21
411.74	1800.16
411.95	1822.69
412.15	1681.38
412.36	1818.60
412.57	1742.82
412.77	1822.69
412.98	1693.67
413.19	1738.73
413.39	1791.97
413.60	1708.01
413.81	1806.31
414.01	1697.77
414.22	1736.68
414.43	1832.93
414.63	1722.34
414.84	1742.82
415.05	1716.20
415.25	1617.90
415.46	1722.34
415.67	1640.42
415.87	1697.77
416.08	1718.25
416.29	1779.68
416.49	1703.91
416.70	1699.81
416.91	1730.53
417.11	1701.86
417.32	1705.96
417.53	1685.48
417.73	1789.92
417.94	1621.99
418.15	1744.87
418.35	1746.92
418.56	1701.86
418.77	1812.45
418.97	1703.91
419.18	1761.25
419.38	1626.09
419.59	1673.19
419.80	1796.07
420.00	1648.61
420.21	1681.38
420.42	1730.53
420.62	1773.54
420.83	1669.09
421.04	1648.61
421.24	1689.57
421.45	1738.73
421.65	1755.11
421.86	1677.29
422.07	1669.09
422.27	1728.49
422.48	1759.21
422.69	1619.94
422.89	1716.20
423.10	1689.57
423.30	1681.38
423.51	1720.29
423.72	1736.68
423.92	1726.44
424.13	1593.32
424.33	1714.15
424.54	1691.62
424.75	1669.09
424.95	1849.32
425.16	1738.73
425.36	1755.11
425.57	1714.15
425.78	1660.90
425.98	1757.16
426.19	1691.62
426.39	1630.18
426.60	1722.34
426.81	1763.30
427.01	1722.34
427.22	1636.33
427.42	1632.23
427.63	1574.89
427.83	1734.63
428.04	1845.22
428.25	1736.68
428.45	1695.72
428.66	1755.11
428.86	1626.09
429.07	1705.96
429.28	1714.15
429.48	1716.20
429.69	1705.96
429.89	1697.77
430.10	1695.72
430.30	1714.15
430.51	1710.05
430.71	1681.38
430.92	1669.09
431.13	1705.96
431.33	1710.05
431.54	1705.96
431.74	1867.75
431.95	1812.45
432.15	1587.18
432.36	1738.73
432.56	1736.68
432.77	1787.88
432.98	1722.34
433.18	1773.54
433.39	1642.47
433.59	1648.61
433.80	1732.58
434.00	1851.36
434.21	1665.00
434.41	1671.14
434.62	1843.17
434.82	1656.81
435.03	1624.04
435.23	1783.78
435.44	1595.37
435.64	1677.29
435.85	1712.10
436.06	1763.30
436.26	1800.16
436.47	1728.49
436.67	1699.81
436.88	1660.90
437.08	1718.25
437.29	1783.78
437.49	1677.29
437.70	1769.44
437.90	1697.77
438.11	1839.08
438.31	1781.73
438.52	1789.92
438.72	1802.21
438.93	1898.47
439.13	1716.20
439.34	1845.22
439.54	1712.10
439.75	1826.79
439.95	1675.24
440.16	1712.10
440.36	1689.57
440.57	1781.73
440.77	1742.82
440.98	1730.53
441.18	1740.77
441.39	1703.91
441.59	1673.19
441.80	1910.75
442.00	1779.68
442.21	1677.29
442.41	1671.14
442.62	1769.44
442.82	1724.39
443.02	1699.81
443.23	1685.48
443.43	1748.97
443.64	1820.64
443.84	1669.09
444.05	1746.92
444.25	1746.92
444.46	1783.78
444.66	1703.91
444.87	1828.84
445.07	1595.37
445.28	1738.73
445.48	1693.67
445.69	1826.79
445.89	1837.03
446.09	1681.38
446.30	1970.15
446.50	2631.64
446.71	3790.79
446.91	4267.97
447.12	4646.84
447.32	4736.95
447.53	4415.42
447.73	3876.80
447.93	3626.95
448.14	3172.30
448.34	3090.38
448.55	2981.84
448.75	2848.72
448.96	2633.69
449.16	2424.80
449.36	2246.62
449.57	2086.88
449.77	1886.18
449.98	1726.44
450.18	1867.75
450.39	1722.34
450.59	1787.88
450.79	1759.21
451.00	1648.61
451.20	1806.31
451.41	1689.57
451.61	1726.44
451.81	1589.22
452.02	1683.43
452.22	1732.58
452.43	1730.53
452.63	1673.19
452.84	1812.45
453.04	1775.59
453.24	1818.60
453.45	1628.14
453.65	1665.00
453.86	1765.35
454.06	1716.20
454.26	1734.63
454.47	1665.00
454.67	1802.21
454.87	1841.12
455.08	1697.77
455.28	1810.40
455.49	1722.34
455.69	1630.18
455.89	1837.03
456.10	1826.79
456.30	1712.10
456.51	1794.02
456.71	1787.88
456.91	1753.06
457.12	1789.92
457.32	1746.92
457.52	1716.20
457.73	1730.53
457.93	1726.44
458.14	1681.38
458.34	1701.86
458.54	1693.67
458.75	1724.39
458.95	1779.68
459.15	1755.11
459.36	1722.34
459.56	1779.68
459.76	1943.52
459.97	1771.49
460.17	1705.96
460.37	1845.22
460.58	1796.07
460.78	1724.39
460.99	1714.15
461.19	1701.86
461.39	1742.82
461.60	1771.49
461.80	1812.45
462.00	1685.48
462.21	1652.71
462.41	1648.61
462.61	1671.14
462.82	1609.70
463.02	1710.05
463.22	1771.49
463.43	1732.58
463.63	1796.07
463.83	1703.91
464.04	1732.58
464.24	1726.44
464.44	1685.48
464.64	1773.54
464.85	1679.33
465.05	1748.97
465.25	1775.59
465.46	1673.19
465.66	1783.78
465.86	1703.91
466.07	1742.82
466.27	1746.92
466.47	1660.90
466.68	1738.73
466.88	1816.55
467.08	1742.82
467.29	1732.58
467.49	1697.77
467.69	1708.01
467.89	1740.77
468.10	1665.00
468.30	1734.63
468.50	1861.60
468.71	1720.29
468.91	1667.05
469.11	1861.60
469.31	1705.96
469.52	1671.14
469.72	1847.27
469.92	1826.79
470.13	1775.59
470.33	1701.86
470.53	1873.89
470.73	2207.71
470.94	2213.85
471.14	2279.39
471.34	2502.62
471.54	2334.68
471.75	2332.64
471.95	2142.18
472.15	2101.22
472.36	2002.91
472.56	2058.21
472.76	1966.05
472.96	1974.24
473.17	1957.86
473.37	1880.04
473.57	1812.45
473.77	1763.30
473.98	1751.01
474.18	1683.43
474.38	1945.57
474.58	1624.04
474.79	1693.67
474.99	1705.96
475.19	1755.11
475.39	1648.61
475.60	1755.11
475.80	1787.88
476.00	1714.15
476.20	1683.43
476.41	1789.92
476.61	1851.36
476.81	1787.88
477.01	1689.57
477.21	1812.45
477.42	1859.56
477.62	1642.47
477.82	1765.35
478.02	1691.62
478.23	1662.95
478.43	1667.05
478.63	1716.20
478.83	1742.82
479.03	1787.88
479.24	1755.11
479.44	1796.07
479.64	1640.42
479.84	1603.56
480.04	1605.61
480.25	1703.91
480.45	1587.18
480.65	1724.39
480.85	1796.07
481.06	1632.23
481.26	1748.97
481.46	1779.68
481.66	1744.87
481.86	1695.72
482.06	1804.26
482.27	1669.09
482.47	1665.00
482.67	1781.73
482.87	1714.15
483.07	1800.16
483.28	1687.53
483.48	1691.62
483.68	1736.68
483.88	1544.17
484.08	1630.18
484.29	1675.24
484.49	1722.34
484.69	1552.36
484.89	1828.84
485.09	1714.15
485.29	1755.11
485.50	1810.40
485.70	1675.24
485.90	1791.97
486.10	1748.97
486.30	1781.73
486.50	1791.97
486.71	1773.54
486.91	1769.44
487.11	1732.58
487.31	1611.75
487.51	1734.63
487.71	1679.33
487.91	1652.71
488.12	1662.95
488.32	1542.12
488.52	1720.29
488.72	1587.18
488.92	1738.73
489.12	1775.59
489.32	1714.15
489.53	1667.05
489.73	1591.27
489.93	1806.31
490.13	1769.44
490.33	1630.18
490.53	1718.25
490.73	1716.20
490.94	1691.62
491.14	1783.78
491.34	1843.17
491.54	2142.18
491.74	2482.14
491.94	2815.96
492.14	3035.09
492.34	2926.55
492.54	2695.13
492.75	2516.95
492.95	2439.13
493.15	2224.09
493.35	2269.15
493.55	2275.29
493.75	2107.36
493.95	2074.59
494.15	1964.00
494.35	1853.41
494.56	1798.12
494.76	1746.92
494.96	1773.54
495.16	1773.54
495.36	1685.48
495.56	1777.64
495.76	1695.72
495.96	1751.01
496.16	1677.29
496.36	1705.96
496.56	1779.68
496.77	1705.96
496.97	1746.92
497.17	1779.68
497.37	1691.62
497.57	1732.58
497.77	1746.92
497.97	1654.76
498.17	1710.05
498.37	1693.67
498.57	1781.73
498.77	1738.73
498.97	1697.77
499.17	1828.84
499.38	1677.29
499.58	1783.78
499.78	1751.01
499.98	1841.12
500.18	1761.25
500.38	1738.73
500.58	1943.52
500.78	2541.53
500.98	4401.08
501.18	5689.26
501.38	6543.26
501.58	7006.10
501.78	6553.50
501.98	5441.45
502.18	5017.52
502.38	4327.36
502.58	4093.89
502.78	3739.59
502.98	3542.99
503.18	3504.07
503.38	3221.45
503.59	2697.17
503.79	2697.17
503.99	2461.66
504.19	2328.54
504.39	2193.37
504.59	2183.13
504.79	2117.60
504.99	2050.02
505.19	1861.60
505.39	1855.46
505.59	1937.38
505.79	1884.13
505.99	1900.52
506.19	1810.40
506.39	1849.32
506.59	1712.10
506.79	1716.20
506.99	1781.73
507.19	1800.16
507.39	1734.63
507.59	1642.47
507.79	1730.53
507.99	1675.24
508.19	1742.82
508.39	1736.68
508.59	1726.44
508.79	1783.78
508.99	1857.51
509.19	1740.77
509.39	1753.06
509.59	1681.38
509.79	1683.43
509.99	1701.86
510.19	1791.97
510.39	1771.49
510.59	1718.25
510.79	1724.39
510.99	1656.81
511.19	1679.33
511.39	1781.73
511.59	1791.97
511.79	1880.04
511.99	1728.49
512.19	1789.92
512.38	1773.54
512.58	1703.91
512.78	1800.16
512.98	1751.01
513.18	1822.69
513.38	1646.57
513.58	1781.73
513.78	1667.05
513.98	1693.67
514.18	1751.01
514.38	1648.61
514.58	1753.06
514.78	1679.33
514.98	1685.48
515.18	1665.00
515.38	1691.62
515.58	1820.64
515.78	1744.87
515.98	1771.49
516.18	1701.86
516.38	1675.24
516.57	1687.53
516.77	1705.96
516.97	1796.07
517.17	1648.61
517.37	1685.48
517.57	1705.96
517.77	1742.82
517.97	1705.96
518.17	1783.78
518.37	1689.57
518.57	1722.34
518.77	1744.87
518.97	1701.86
519.16	1806.31
519.36	1808.36
519.56	1640.42
519.76	1748.97
519.96	1730.53
520.16	1693.67
520.36	1697.77
520.56	1865.70
520.76	1714.15
520.96	1712.10
521.16	1777.64
521.35	1787.88
521.55	1773.54
521.75	1722.34
521.95	1748.97
522.15	1712.10
522.35	1683.43
522.55	1667.05
522.75	1765.35
522.95	1730.53
523.14	1744.87
523.34	1718.25
523.54	1685.48
523.74	1771.49
523.94	1789.92
524.14	1665.00
524.34	1712.10
524.54	1869.80
524.73	1632.23
524.93	1679.33
525.13	1728.49
525.33	1673.19
525.53	1869.80
525.73	1814.50
525.93	1728.49
526.13	1785.83
526.32	1722.34
526.52	1816.55
526.72	1740.77
526.92	1730.53
527.12	1703.91
527.32	1718.25
527.52	1638.38
527.71	1742.82
527.91	1748.97
528.11	1708.01
528.31	1687.53
528.51	1710.05
528.71	1714.15
528.90	1777.64
529.10	1812.45
529.30	1839.08
529.50	1636.33
529.70	1720.29
529.90	1656.81
530.09	1787.88
530.29	1619.94
530.49	1740.77
530.69	1886.18
530.89	1744.87
531.09	1683.43
531.28	1703.91
531.48	1820.64
531.68	1773.54
531.88	1681.38
532.08	1769.44
532.28	1732.58
532.47	1787.88
532.67	1822.69
532.87	1822.69
533.07	1714.15
533.27	1697.77
533.46	1771.49
533.66	1730.53
533.86	1660.90
534.06	1714.15
534.26	1724.39
534.45	1640.42
534.65	1761.25
534.85	1660.90
535.05	1728.49
535.25	1722.34
535.44	1619.94
535.64	1783.78
535.84	1791.97
536.04	1708.01
536.24	1648.61
536.43	1646.57
536.63	1708.01
536.83	1746.92
537.03	1683.43
537.22	1681.38
537.42	1548.26
537.62	1810.40
537.82	1656.81
538.02	1808.36
538.21	1748.97
538.41	1861.60
538.61	1703.91
538.81	1742.82
539.00	1777.64
539.20	1611.75
539.40	1787.88
539.60	1771.49
539.79	1773.54
539.99	1732.58
540.19	1644.52
540.39	1757.16
540.58	1755.11
540.78	1738.73
540.98	1759.21
541.18	1791.97
541.37	1787.88
541.57	1658.85
541.77	1742.82
541.97	1759.21
542.16	1681.38
542.36	1681.38
542.56	1669.09
542.76	1886.18
542.95	1812.45
543.15	1720.29
543.35	1802.21
543.54	1705.96
543.74	1699.81
543.94	1775.59
544.14	1638.38
544.33	1812.45
544.53	1648.61
544.73	1738.73
544.93	1708.01
545.12	1787.88
545.32	1691.62
545.52	1697.77
545.71	1679.33
545.91	1718.25
546.11	1710.05
546.30	1724.39
546.50	1789.92
546.70	1746.92
546.90	1771.49
547.09	1617.90
547.29	1736.68
547.49	1746.92
547.68	1777.64
547.88	1771.49
548.08	1777.64
548.27	2176.99
548.47	1755.11
548.67	1691.62
548.87	1697.77
549.06	1761.25
549.26	1791.97
549.46	1759.21
549.65	1720.29
549.85	1722.34
550.05	1757.16
550.24	1656.81
550.44	1759.21
550.64	1720.29
550.83	1746.92
551.03	1822.69
551.23	1822.69
551.42	1763.30
551.62	1763.30
551.82	1742.82
552.01	1755.11
552.21	1794.02
552.41	1767.40
552.60	1748.97
552.80	1716.20
553.00	1718.25
553.19	1730.53
553.39	1826.79
553.59	1669.09
553.78	1763.30
553.98	1699.81
554.17	1597.42
554.37	1736.68
554.57	1722.34
554.76	1732.58
554.96	1718.25
555.16	1777.64
555.35	1773.54
555.55	1730.53
555.75	1738.73
555.94	1812.45
556.14	1640.42
556.33	1765.35
556.53	1767.40
556.73	1755.11
556.92	1771.49
557.12	1794.02
557.32	1839.08
557.51	1871.84
557.71	1794.02
557.90	1802.21
558.10	1822.69
558.30	1650.66
558.49	1738.73
558.69	1677.29
558.88	1806.31
559.08	1708.01
559.28	1734.63
559.47	1708.01
559.67	1798.12
559.86	1910.75
560.06	1781.73
560.26	1720.29
560.45	1796.07
560.65	1699.81
560.84	1775.59
561.04	1691.62
561.24	1687.53
561.43	1689.57
561.63	1804.26
561.82	1791.97
562.02	1779.68
562.22	1714.15
562.41	1650.66
562.61	1714.15
562.80	1673.19
563.00	1863.65
563.19	1710.05
563.39	1791.97
563.59	1775.59
563.78	1705.96
563.98	1652.71
564.17	1751.01
564.37	1593.32
564.56	1714.15
564.76	1675.24
564.96	1775.59
565.15	1744.87
565.35	1886.18
565.54	1695.72
565.74	1828.84
565.93	1746.92
566.13	1716.20
566.32	1763.30
566.52	1783.78
566.71	1771.49
566.91	1841.12
567.11	1722.34
567.30	1638.38
567.50	1816.55
567.69	1708.01
567.89	1736.68
568.08	1787.88
568.28	1744.87
568.47	1675.24
568.67	1732.58
568.86	1812.45
569.06	1841.12
569.25	1808.36
569.45	1693.67
569.64	1759.21
569.84	1724.39
570.04	1777.64
570.23	1722.34
570.43	1697.77
570.62	1753.06
570.82	1880.04
571.01	1724.39
571.21	1705.96
571.40	1632.23
571.60	1851.36
571.79	1736.68
571.99	1765.35
572.18	1761.25
572.38	1755.11
572.57	1710.05
572.77	1824.74
572.96	1918.95
573.16	1761.25
573.35	1734.63
573.55	1834.98
573.74	1779.68
573.94	1689.57
574.13	1699.81
574.33	1810.40
574.52	1800.16
574.71	1673.19
574.91	1787.88
575.10	1720.29
575.30	1783.78
575.49	1685.48
575.69	1726.44
575.88	1763.30
576.08	1675.24
576.27	1734.63
576.47	1755.11
576.66	1830.88
576.86	1789.92
577.05	1662.95
577.25	1771.49
577.44	1877.99
577.64	1769.44
577.83	1816.55
578.02	1732.58
578.22	1796.07
578.41	1828.84
578.61	1685.48
578.80	1695.72
579.00	1771.49
579.19	1730.53
579.39	1738.73
579.58	1794.02
579.77	1767.40
579.97	1779.68
580.16	1910.75
580.36	1771.49
580.55	1898.47
580.75	1781.73
580.94	1828.84
581.13	1853.41
581.33	1818.60
581.52	1789.92
581.72	1845.22
581.91	1787.88
582.11	1644.52
582.30	1744.87
582.49	1779.68
582.69	1880.04
582.88	1765.35
583.08	1794.02
583.27	1787.88
583.47	1832.93
583.66	1738.73
583.85	1675.24
584.05	1771.49
584.24	1773.54
584.44	1738.73
584.63	1826.79
584.82	1853.41
585.02	1849.32
585.21	1806.31
585.41	1832.93
585.60	1798.12
585.79	1937.38
585.99	1877.99
586.18	1892.32
586.37	2129.89
586.57	3334.09
586.76	9662.32
586.96	24188.56
587.15	33873.40
587.34	39857.57
587.54	41733.51
587.73	36376.02
587.93	25615.99
588.12	21440.18
588.31	18335.46
588.51	15820.56
588.70	14896.92
588.89	14038.83
589.09	12271.43
589.28	10874.71
589.47	9383.79
589.67	7933.83
589.86	6356.90
590.06	4906.93
590.25	3885.00
590.44	3088.34
590.64	2494.43
590.83	2260.96
591.02	2066.40
591.22	1984.48
591.41	1947.62
591.60	1791.97
591.80	1882.08
591.99	1794.02
592.18	1771.49
592.38	1853.41
592.57	1726.44
592.76	1767.40
592.96	1789.92
593.15	1765.35
593.34	1806.31
593.54	1740.77
593.73	1841.12
593.92	1781.73
594.12	1740.77
594.31	1775.59
594.50	1783.78
594.70	1777.64
594.89	1886.18
595.08	1722.34
595.28	1773.54
595.47	1869.80
595.66	1791.97
595.86	1763.30
596.05	1806.31
596.24	1656.81
596.43	1746.92
596.63	1794.02
596.82	1812.45
597.01	1744.87
597.21	1845.22
597.40	1781.73
597.59	1724.39
597.79	1714.15
597.98	1736.68
598.17	1748.97
598.36	1777.64
598.56	1748.97
598.75	1830.88
598.94	1757.16
599.14	1675.24
599.33	1687.53
599.52	1796.07
599.71	1775.59
599.91	1773.54
600.10	1767.40
600.29	1722.34
600.48	1716.20
600.68	1839.08
600.87	1716.20
601.06	1660.90
601.26	1763.30
601.45	1808.36
601.64	1675.24
601.83	1859.56
602.03	1708.01
602.22	1671.14
602.41	1779.68
602.60	1886.18
602.80	1794.02
602.99	1779.68
603.18	1689.57
603.37	1724.39
603.57	1722.34
603.76	1773.54
603.95	1755.11
604.14	1734.63
604.34	1708.01
604.53	1738.73
604.72	1759.21
604.91	1773.54
605.10	1716.20
605.30	1650.66
605.49	1841.12
605.68	1789.92
605.87	1816.55
606.07	1703.91
606.26	1757.16
606.45	1736.68
606.64	1705.96
606.84	1689.57
607.03	1710.05
607.22	1820.64
607.41	1689.57
607.60	1691.62
607.80	1785.83
607.99	1699.81
608.18	1767.40
608.37	1624.04
608.56	1699.81
608.76	1740.77
608.95	1800.16
609.14	1703.91
609.33	1777.64
609.52	1804.26
609.72	1712.10
609.91	1724.39
610.10	1681.38
610.29	1722.34
610.48	1791.97
610.68	1751.01
610.87	1740.77
611.06	1757.16
611.25	1763.30
611.44	1806.31
611.63	1734.63
611.83	1851.36
612.02	1621.99
612.21	1701.86
612.40	1632.23
612.59	1703.91
612.79	1693.67
612.98	1767.40
613.17	1824.74
613.36	1693.67
613.55	1767.40
613.74	1667.05
613.93	1636.33
614.13	1722.34
614.32	1865.70
614.51	1761.25
614.70	1695.72
614.89	1691.62
615.08	1705.96
615.28	2045.92
615.47	1607.66
615.66	1681.38
615.85	1705.96
616.04	1808.36
616.23	1701.86
616.42	1701.86
616.62	1738.73
616.81	1763.30
617.00	1695.72
617.19	1746.92
617.38	1718.25
617.57	1773.54
617.76	1808.36
617.95	1806.31
618.15	1742.82
618.34	1816.55
618.53	1613.80
618.72	1865.70
618.91	1693.67
619.10	1765.35
619.29	1691.62
619.48	1683.43
619.68	1640.42
619.87	1724.39
620.06	1638.38
620.25	1705.96
620.44	1708.01
620.63	1699.81
620.82	1761.25
621.01	1796.07
621.20	1667.05
621.39	1783.78
621.59	1767.40
621.78	1718.25
621.97	1712.10
622.16	1740.77
622.35	1734.63
622.54	1746.92
622.73	1806.31
622.92	1671.14
623.11	1834.98
623.30	1714.15
623.49	1699.81
623.68	1667.05
623.88	1857.51
624.07	1652.71
624.26	1685.48
624.45	1681.38
624.64	1722.34
624.83	1775.59
625.02	1773.54
625.21	1720.29
625.40	1722.34
625.59	1685.48
625.78	1779.68
625.97	1734.63
626.16	1755.11
626.35	1722.34
626.54	1714.15
626.74	1867.75
626.93	1716.20
627.12	1701.86
627.31	1804.26
627.50	1677.29
627.69	1757.16
627.88	1748.97
628.07	1691.62
628.26	1585.13
628.45	1689.57
628.64	1546.22
628.83	1695.72
629.02	1568.74
629.21	1759.21
629.40	1714.15
629.59	1728.49
629.78	1652.71
629.97	1681.38
630.16	1705.96
630.35	1732.58
630.54	1712.10
630.73	1687.53
630.92	1767.40
631.11	1716.20
631.30	1738.73
631.49	1742.82
631.68	1679.33
631.87	1755.11
632.06	1665.00
632.25	1923.04
632.44	1771.49
632.63	1757.16
632.82	1753.06
633.01	1671.14
633.20	1734.63
633.39	1621.99
633.58	1583.08
633.77	1724.39
633.96	1800.16
634.15	1757.16
634.34	1738.73
634.53	1779.68
634.72	1654.76
634.91	1615.85
635.10	1683.43
635.29	1693.67
635.48	1726.44
635.67	1693.67
635.86	1556.46
636.05	1785.83
636.24	1683.43
636.43	1783.78
636.62	1781.73
636.81	1626.09
637.00	1722.34
637.19	1712.10
637.38	1773.54
637.57	1691.62
637.76	1716.20
637.95	1781.73
638.14	1611.75
638.33	1685.48
638.52	1705.96
638.71	1689.57
638.89	1660.90
639.08	1890.28
639.27	1773.54
639.46	1685.48
639.65	1822.69
639.84	1671.14
640.03	1746.92
640.22	1699.81
640.41	1867.75
640.60	1701.86
640.79	1773.54
640.98	1738.73
641.17	1675.24
641.36	1665.00
641.55	1814.50
641.74	1679.33
641.92	1710.05
642.11	1681.38
642.30	1693.67
642.49	1667.05
642.68	1646.57
642.87	1734.63
643.06	1705.96
643.25	1767.40
643.44	1621.99
643.63	1742.82
643.82	1712.10
644.00	1603.56
644.19	1705.96
644.38	1683.43
644.57	1681.38
644.76	1746.92
644.95	1734.63
645.14	1712.10
645.33	1724.39
645.52	1738.73
645.71	1589.22
645.89	1665.00
646.08	1738.73
646.27	1660.90
646.46	1820.64
646.65	1646.57
646.84	1765.35
647.03	1558.50
647.22	1783.78
647.40	1763.30
647.59	1687.53
647.78	1624.04
647.97	1689.57
648.16	1669.09
648.35	1738.73
648.54	1746.92
648.73	1683.43
648.91	1744.87
649.10	1705.96
649.29	1671.14
649.48	1740.77
649.67	1732.58
649.86	1748.97
650.05	1675.24
650.23	1728.49
650.42	1626.09
650.61	1722.34
650.80	1757.16
650.99	1826.79
651.18	1761.25
651.36	1773.54
651.55	1636.33
651.74	1705.96
651.93	1630.18
652.12	1730.53
652.31	1687.53
652.49	1667.05
652.68	1722.34
652.87	1837.03
653.06	1708.01
653.25	1726.44
653.44	1638.38
653.62	1751.01
653.81	1714.15
654.00	1728.49
654.19	1771.49
654.38	1824.74
654.56	1794.02
654.75	1624.04
654.94	1808.36
655.13	1634.28
655.32	1677.29
655.51	1744.87
655.69	1669.09
655.88	1789.92
656.07	1642.47
656.26	1730.53
656.45	1654.76
656.63	1748.97
656.82	1703.91
657.01	1843.17
657.20	1650.66
657.38	1804.26
657.57	1681.38
657.76	1617.90
657.95	1693.67
658.14	1662.95
658.32	1736.68
658.51	1757.16
658.70	1677.29
658.89	1757.16
659.08	1708.01
659.26	1777.64
659.45	1732.58
659.64	1691.62
659.83	1662.95
660.01	1877.99
660.20	1681.38
660.39	1867.75
660.58	1566.70
660.76	1757.16
660.95	1679.33
661.14	1671.14
661.33	1685.48
661.51	1685.48
661.70	1712.10
661.89	1726.44
662.08	1687.53
662.26	1677.29
662.45	1703.91
662.64	1826.79
662.83	1746.92
663.01	1667.05
663.20	1705.96
663.39	1791.97
663.58	1628.14
663.76	1652.71
663.95	1787.88
664.14	1654.76
664.32	1705.96
664.51	1619.94
664.70	1734.63
664.89	1763.30
665.07	1742.82
665.26	1722.34
665.45	1644.52
665.64	1742.82
665.82	1720.29
666.01	1710.05
666.20	1744.87
666.38	1806.31
666.57	1787.88
666.76	2164.70
666.95	4353.98
667.13	10286.95
667.32	15206.17
667.51	17667.83
667.69	18636.52
667.88	17415.93
668.07	12048.20
668.25	9496.43
668.44	8083.33
668.63	7204.75
668.81	6645.66
669.00	6393.76
669.19	5683.11
669.38	5015.48
669.56	4614.07
669.75	3950.53
669.94	3405.77
670.12	2897.88
670.31	2562.01
670.50	2273.25
670.68	2080.74
670.87	1947.62
671.06	1818.60
671.24	1824.74
671.43	1806.31
671.62	1746.92
671.80	1656.81
671.99	1710.05
672.18	1796.07
672.36	1730.53
672.55	1767.40
672.74	1732.58
672.92	1689.57
673.11	1728.49
673.29	1611.75
673.48	1691.62
673.67	1652.71
673.85	1816.55
674.04	1691.62
674.23	1742.82
674.41	1806.31
674.60	1609.70
674.79	1595.37
674.97	1738.73
675.16	1687.53
675.34	1748.97
675.53	1697.77
675.72	1820.64
675.90	1773.54
676.09	1638.38
676.28	1701.86
676.46	1708.01
676.65	1712.10
676.83	1673.19
677.02	1710.05
677.21	1724.39
677.39	1781.73
677.58	1599.46
677.77	1730.53
677.95	1665.00
678.14	1728.49
678.32	1769.44
678.51	1624.04
678.70	1841.12
678.88	1685.48
679.07	1697.77
679.25	1769.44
679.44	1691.62
679.63	1632.23
679.81	1744.87
680.00	1826.79
680.18	1736.68
680.37	1757.16
680.55	1701.86
680.74	1607.66
680.93	1605.61
681.11	1714.15
681.30	1697.77
681.48	1675.24
681.67	1701.86
681.85	1716.20
682.04	1671.14
682.23	1755.11
682.41	1740.77
682.60	1689.57
682.78	1693.67
682.97	1648.61
683.15	1705.96
683.34	1705.96
683.53	1740.77
683.71	1615.85
683.90	1810.40
684.08	1751.01
684.27	1728.49
684.45	1691.62
684.64	1808.36
684.82	1718.25
685.01	1742.82
685.19	1675.24
685.38	1785.83
685.57	1705.96
685.75	1697.77
685.94	1669.09
686.12	1699.81
686.31	1656.81
686.49	1863.65
686.68	1611.75
686.86	1806.31
687.05	1705.96
687.23	1796.07
687.42	1726.44
687.60	1621.99
687.79	1804.26
687.97	1744.87
688.16	1726.44
688.34	1761.25
688.53	1644.52
688.71	1662.95
688.90	1763.30
689.08	1689.57
689.27	1609.70
689.45	1681.38
689.64	1779.68
689.82	1732.58
690.01	1691.62
690.19	1667.05
690.38	1611.75
690.56	1830.88
690.75	1611.75
690.93	1712.10
691.12	1687.53
691.30	1724.39
691.49	1626.09
691.67	1746.92
691.86	1789.92
692.04	1671.14
692.23	1636.33
692.41	1656.81
692.60	1783.78
692.78	1722.34
692.97	1689.57
693.15	1660.90
693.34	1830.88
693.52	1724.39
693.71	1675.24
693.89	1714.15
694.08	1613.80
694.26	1777.64
694.44	1783.78
694.63	1736.68
694.81	1669.09
695.00	1722.34
695.18	1683.43
695.37	1900.52
695.55	1714.15
695.74	1630.18
695.92	1679.33
696.10	1771.49
696.29	1640.42
696.47	1648.61
696.66	1560.55
696.84	1714.15
697.03	1652.71
697.21	1882.08
697.40	2383.84
697.58	1779.68
697.76	1648.61
697.95	1777.64
698.13	1638.38
698.32	1628.14
698.50	1705.96
698.68	1724.39
698.87	1697.77
699.05	1810.40
699.24	1683.43
699.42	1646.57
699.61	1687.53
699.79	1708.01
699.97	1769.44
700.16	1576.94
700.34	1693.67
700.53	1773.54
700.71	1751.01
700.89	1748.97
701.08	1728.49
701.26	1738.73
701.45	2033.63
701.63	1660.90
701.81	1703.91
702.00	1603.56
702.18	1630.18
702.37	1630.18
702.55	1720.29
702.73	1685.48
702.92	1587.18
703.10	1800.16
703.28	1724.39
703.47	1697.77
703.65	1839.08
703.84	1751.01
704.02	1726.44
704.20	1849.32
704.39	1710.05
704.57	1681.38
704.75	1662.95
704.94	1757.16
705.12	1716.20
705.30	1744.87
705.49	2217.95
705.67	4360.13
705.86	9346.93
706.04	12527.42
706.22	14151.46
706.41	15085.34
706.59	13639.47
706.77	9740.14
706.96	7415.69
707.14	6573.98
707.32	5814.18
707.51	5453.74
707.69	4851.64
707.87	4149.18
708.06	3536.84
708.24	3004.37
708.42	2389.98
708.61	2201.57
708.79	1849.32
708.97	1855.46
709.16	1828.84
709.34	1806.31
709.52	1691.62
709.71	1705.96
709.89	1734.63
710.07	1648.61
710.26	1728.49
710.44	1697.77
710.62	1769.44
710.80	1763.30
710.99	1714.15
711.17	1785.83
711.35	1740.77
711.54	1726.44
711.72	1759.21
711.90	1773.54
712.09	1757.16
712.27	1703.91
712.45	1824.74
712.63	1738.73
712.82	1757.16
713.00	1687.53
713.18	1794.02
713.37	1771.49
713.55	1640.42
713.73	1720.29
713.91	1693.67
714.10	1695.72
714.28	1701.86
714.46	1638.38
714.65	1775.59
714.83	1726.44
715.01	1759.21
715.19	1652.71
715.38	1691.62
715.56	1705.96
715.74	1677.29
715.92	1689.57
716.11	1732.58
716.29	1568.74
716.47	1765.35
716.65	1691.62
716.84	1642.47
717.02	1761.25
717.20	1560.55
717.38	1640.42
717.57	1644.52
717.75	1712.10
717.93	1699.81
718.11	1665.00
718.30	1699.81
718.48	1671.14
718.66	1720.29
718.84	1779.68
719.03	1693.67
719.21	1640.42
719.39	1837.03
719.57	1828.84
719.75	1822.69
719.94	1677.29
720.12	1632.23
720.30	1746.92
720.48	1722.34
720.67	1658.85
720.85	1640.42
721.03	1642.47
721.21	1697.77
721.39	1722.34
721.58	1757.16
721.76	1648.61
721.94	1740.77
722.12	1746.92
722.30	1708.01
722.49	1689.57
722.67	1777.64
722.85	1730.53
723.03	1646.57
723.21	1705.96
723.40	1673.19
723.58	1685.48
723.76	1751.01
723.94	1771.49
724.12	1705.96
724.30	1767.40
724.49	1740.77
724.67	1603.56
724.85	1810.40
725.03	1667.05
725.21	1714.15
725.40	1880.04
725.58	1619.94
725.76	1759.21
725.94	1816.55
726.12	1644.52
726.30	1751.01
726.49	1689.57
726.67	1665.00
726.85	1775.59
727.03	1748.97
727.21	2160.61
727.39	2914.26
727.57	3645.38
727.76	4003.78
727.94	4308.93
728.12	4343.74
728.30	3727.30
728.48	3012.56
728.66	2680.79
728.84	2492.38
729.03	2371.55
729.21	2095.07
729.39	1972.19
729.57	1865.70
729.75	1841.12
729.93	1742.82
730.11	1736.68
730.30	1689.57
730.48	1689.57
730.66	1753.06
730.84	1800.16
731.02	1710.05
731.20	1609.70
731.38	1681.38
731.56	1648.61
731.74	1611.75
731.93	1669.09
732.11	1673.19
732.29	1769.44
732.47	1746.92
732.65	1759.21
732.83	1808.36
733.01	1755.11
733.19	1595.37
733.37	1751.01
733.56	1744.87
733.74	1650.66
733.92	1865.70
734.10	1646.57
734.28	1693.67
734.46	1609.70
734.64	1695.72
734.82	1730.53
735.00	1714.15
735.18	1667.05
735.36	1734.63
735.54	1755.11
735.73	1667.05
735.91	1810.40
736.09	1689.57
736.27	1730.53
736.45	1753.06
736.63	1628.14
736.81	1701.86
736.99	1732.58
737.17	1814.50
737.35	1718.25
737.53	1781.73
737.71	1697.77
737.89	1818.60
738.07	1603.56
738.25	1724.39
738.43	1636.33
738.61	1673.19
738.80	1662.95
738.98	1621.99
739.16	1630.18
739.34	1644.52
739.52	1830.88
739.70	1605.61
739.88	1796.07
740.06	1728.49
740.24	1589.22
740.42	1775.59
740.60	1585.13
740.78	1581.03
740.96	1576.94
741.14	1775.59
741.32	1669.09
741.50	1699.81
741.68	1886.18
741.86	1763.30
742.04	1648.61
742.22	1628.14
742.40	1710.05
742.58	1710.05
742.76	1691.62
742.94	1720.29
743.12	1617.90
743.30	1796.07
743.48	1710.05
743.66	1640.42
743.84	1785.83
744.02	1710.05
744.20	1693.67
744.38	1611.75
744.56	1677.29
744.74	1767.40
744.92	1779.68
745.10	1703.91
745.28	1697.77
745.46	1826.79
745.64	1701.86
745.82	1748.97
746.00	1705.96
746.18	1697.77
746.36	1705.96
746.54	1667.05
746.72	1718.25
746.90	1609.70
747.08	1775.59
747.26	1724.39
747.44	1699.81
747.62	1695.72
747.80	1734.63
747.98	1693.67
748.15	1714.15
748.33	1779.68
748.51	1705.96
748.69	1791.97
748.87	1624.04
749.05	1605.61
749.23	1716.20
749.41	1716.20
749.59	1654.76
749.77	1763.30
749.95	1681.38
750.13	1656.81
750.31	1755.11
750.49	1728.49
750.67	1773.54
750.85	1714.15
751.03	1732.58
751.20	1789.92
751.38	1656.81
751.56	1621.99
751.74	1740.77
751.92	1642.47
752.10	1640.42
752.28	1783.78
752.46	1615.85
752.64	1755.11
752.82	1662.95
753.00	1703.91
753.18	1693.67
753.35	1673.19
753.53	1669.09
753.71	1589.22
753.89	1693.67
754.07	1665.00
754.25	1718.25
754.43	1693.67
754.61	1595.37
754.79	1656.81
754.97	1763.30
755.14	1757.16
755.32	1568.74
755.50	1658.85
755.68	1642.47
755.86	1613.80
756.04	1527.78
756.22	1644.52
756.40	1806.31
756.57	1775.59
756.75	1644.52
756.93	1730.53
757.11	1767.40
757.29	1609.70
757.47	1634.28
757.65	1665.00
757.82	1570.79
758.00	1607.66
758.18	1615.85
758.36	1726.44
758.54	1740.77
758.72	1642.47
758.90	1714.15
759.07	1728.49
759.25	1648.61
759.43	1685.48
759.61	1642.47
759.79	2164.70
759.97	1615.85
760.15	1695.72
760.32	1615.85
760.50	1726.44
760.68	1789.92
760.86	1638.38
761.04	1765.35
761.22	1712.10
761.39	1679.33
761.57	1712.10
761.75	1744.87
761.93	1757.16
762.11	1697.77
762.28	1718.25
762.46	1613.80
762.64	1791.97
762.82	1675.24
763.00	1605.61
763.18	1839.08
763.35	1611.75
763.53	1724.39
763.71	1652.71
763.89	1765.35
764.07	1732.58
764.24	1759.21
764.42	1685.48
764.60	1646.57
764.78	1632.23
764.96	1742.82
765.13	1761.25
765.31	1671.14
765.49	1748.97
765.67	1689.57
765.84	1697.77
766.02	1619.94
766.20	1642.47
766.38	1759.21
766.56	1783.78
766.73	1769.44
766.91	1703.91
767.09	1621.99
767.27	1783.78
767.44	1656.81
767.62	1701.86
767.80	1679.33
767.98	1634.28
768.15	1632.23
768.33	1802.21
768.51	1783.78
768.69	1804.26
768.87	1734.63
769.04	1681.38
769.22	1812.45
769.40	1841.12
769.58	1802.21
769.75	1708.01
769.93	1814.50
770.11	1759.21
770.28	1677.29
770.46	1742.82
770.64	1783.78
770.82	1724.39
770.99	1695.72
771.17	1732.58
771.35	1701.86
771.53	1648.61
771.70	1601.51
771.88	1665.00
772.06	1699.81
772.23	1738.73
772.41	1738.73
772.59	1640.42
772.77	1630.18
772.94	1673.19
773.12	1767.40
773.30	1658.85
773.47	1693.67
773.65	1636.33
773.83	1759.21
774.01	1730.53
774.18	1581.03
774.36	1644.52
774.54	1583.08
774.71	1605.61
774.89	1634.28
775.07	1701.86
775.24	1640.42
775.42	1646.57
775.60	1791.97
775.78	1572.84
775.95	1599.46
776.13	1650.66
776.31	1527.78
776.48	1689.57
776.66	1726.44
776.84	1640.42
777.01	1740.77
777.19	1730.53
777.37	1642.47
777.54	1685.48
777.72	1810.40
777.90	1714.15
778.07	1583.08
778.25	1855.46
778.43	1734.63
778.60	1591.27
778.78	1734.63
778.96	1753.06
779.13	1636.33
779.31	1730.53
779.49	1615.85
779.66	1781.73
779.84	1714.15
780.01	1646.57
780.19	1673.19
780.37	1843.17
780.54	1699.81
780.72	1611.75
780.90	1728.49
781.07	1662.95
781.25	1679.33
781.43	1703.91
781.60	1746.92
781.78	1718.25
781.95	1763.30
782.13	1624.04
782.31	1738.73
782.48	1638.38
782.66	1675.24
782.83	1806.31
783.01	1822.69
783.19	1763.30
783.36	1730.53
783.54	1714.15
783.72	1689.57
783.89	1646.57
784.07	1689.57
784.24	1718.25
784.42	1804.26
784.60	1736.68
784.77	1701.86
784.95	1660.90
785.12	1673.19
785.30	1699.81
785.47	1642.47
785.65	1654.76
785.83	1640.42
786.00	1685.48
786.18	1699.81
786.35	1632.23
786.53	1662.95
786.71	1757.16
786.88	1710.05
787.06	1640.42
787.23	1667.05
787.41	1642.47
787.58	1679.33
787.76	1642.47
787.94	1697.77
788.11	1644.52
788.29	1595.37
788.46	1626.09
788.64	1677.29
788.81	1611.75
788.99	1632.23
789.16	1636.33
789.34	1695.72
789.52	1652.71
789.69	1730.53
789.87	1638.38
790.04	1656.81
790.22	1673.19
790.39	1787.88
790.57	1691.62
790.74	1681.38
790.92	1708.01
791.09	1656.81
791.27	1681.38
791.44	1789.92
791.62	1685.48
791.79	1783.78
791.97	1751.01
792.15	1882.08
792.32	1742.82
792.50	1777.64
792.67	1828.84
792.85	1763.30
793.02	1644.52
793.20	1697.77
793.37	1640.42
793.55	1667.05
793.72	1611.75
793.90	1699.81
794.07	1650.66
794.25	1632.23
794.42	1734.63
794.60	1722.34
794.77	1722.34
794.95	1759.21
795.12	1761.25
795.30	1624.04
795.47	1566.70
795.65	1779.68
795.82	1724.39
796.00	1665.00
796.17	1613.80
796.34	1624.04
796.52	1630.18
796.69	1826.79
796.87	1730.53
797.04	1667.05
797.22	1714.15
797.39	1744.87
797.57	1724.39
797.74	1685.48
797.92	1660.90
798.09	1712.10
798.27	1767.40
798.44	1673.19
798.62	1681.38
798.79	1738.73
798.96	1695.72
799.14	1691.62
799.31	1845.22
799.49	1685.48
799.66	1632.23
799.84	1728.49
800.01	1695.72
800.19	1767.40
800.36	1634.28
800.53	1675.24
800.71	1712.10
800.88	1779.68
801.06	1652.71
801.23	1734.63
801.41	1675.24
801.58	1732.58
801.75	1632.23
801.93	1656.81
802.10	1724.39
802.28	1697.77
802.45	1695.72
802.63	1697.77
802.80	1771.49
802.97	1689.57
803.15	1660.90
803.32	1656.81
803.50	1673.19
803.67	1687.53
803.84	1638.38
804.02	1681.38
804.19	1677.29
804.37	1544.17
804.54	1636.33
804.71	1691.62
804.89	1656.81
805.06	1624.04
805.24	1671.14
805.41	1681.38
805.58	1611.75
805.76	1789.92
805.93	1732.58
806.10	1757.16
806.28	1665.00
806.45	1665.00
806.63	1671.14
806.80	1769.44
806.97	1701.86
807.15	1730.53
807.32	1726.44
807.49	1710.05
807.67	1617.90
807.84	1652.71
808.01	1570.79
808.19	1787.88
808.36	1763.30
808.54	1703.91
808.71	1718.25
808.88	1708.01
809.06	1712.10
809.23	1794.02
809.40	1640.42
809.58	1771.49
809.75	1718.25
809.92	1621.99
810.10	1818.60
810.27	1761.25
810.44	1730.53
810.62	1763.30
810.79	1673.19
810.96	1562.60
811.14	1640.42
811.31	1773.54
811.48	1667.05
811.66	1671.14
811.83	1730.53
812.00	1751.01
812.18	1751.01
812.35	1740.77
812.52	1628.14
812.69	1665.00
812.87	1714.15
813.04	1632.23
813.21	1738.73
813.39	1683.43
813.56	1652.71
813.73	1755.11
813.91	1628.14
814.08	1701.86
814.25	1781.73
814.42	1662.95
814.60	1624.04
814.77	1716.20
814.94	1658.85
815.12	1724.39
815.29	1769.44
815.46	1697.77
815.63	1818.60
815.81	1697.77
815.98	1710.05
816.15	1697.77
816.33	1697.77
816.50	1634.28
816.67	1669.09
816.84	1701.86
817.02	1671.14
817.19	1697.77
817.36	1757.16
817.53	1734.63
817.71	1644.52
817.88	1759.21
818.05	1615.85
818.22	1634.28
818.40	1824.74
818.57	1716.20
818.74	1697.77
818.91	1669.09
819.09	1736.68
819.26	1738.73
819.43	1761.25
819.60	1638.38
819.78	1701.86
819.95	1744.87
820.12	1652.71
820.29	1789.92
820.47	1724.39
820.64	1693.67
820.81	1574.89
820.98	1591.27
821.15	1613.80
821.33	1718.25
821.50	1597.42
821.67	1726.44
821.84	1677.29
822.02	1726.44
822.19	1759.21
822.36	1695.72
822.53	1673.19
822.70	1689.57
822.88	1652.71
823.05	1689.57
823.22	1646.57
823.39	1689.57
823.56	1755.11
823.74	1779.68
823.91	1607.66
824.08	1654.76
824.25	1669.09
824.42	1757.16
824.60	1652.71
824.77	1765.35
824.94	1714.15
825.11	1777.64
825.28	1650.66
825.45	1732.58
825.63	1740.77
825.80	1658.85
825.97	1673.19
826.14	1669.09
826.31	1660.90
826.48	1708.01
826.66	1587.18
826.83	1685.48
827.00	1660.90
827.17	1630.18
827.34	1683.43
827.51	1685.48
827.69	1650.66
827.86	1640.42
828.03	1667.05
828.20	1865.70
828.37	1699.81
828.54	1708.01
828.71	1628.14
828.89	1830.88
829.06	1681.38
829.23	1705.96
829.40	1632.23
829.57	1724.39
829.74	1683.43
829.91	1683.43
830.09	1669.09
830.26	1699.81
830.43	1806.31
830.60	1722.34
830.77	1818.60
830.94	1660.90
831.11	1761.25
831.28	1669.09
831.46	1771.49
831.63	1693.67
831.80	1763.30
831.97	1667.05
832.14	1693.67
832.31	1716.20
832.48	1701.86
832.65	1746.92
832.82	1654.76
832.99	1718.25
833.17	1613.80
833.34	1720.29
833.51	1738.73
833.68	1574.89
833.85	1763.30
834.02	1691.62
834.19	1673.19
834.36	1662.95
834.53	1693.67
834.70	1730.53
834.87	1693.67
835.04	1669.09
835.22	1660.90
835.39	1654.76
835.56	1644.52
835.73	1724.39
835.90	1759.21
836.07	1626.09
836.24	1779.68
836.41	1636.33
836.58	1568.74
836.75	1722.34
836.92	1681.38
837.09	1634.28
837.26	1701.86
837.43	1705.96
837.60	1722.34
837.77	1667.05
837.94	1685.48
838.12	1759.21
838.29	1667.05
838.46	1566.70
838.63	1689.57
838.80	1755.11
838.97	1759.21
839.14	1710.05
839.31	1681.38
839.48	1755.11
839.65	1673.19
839.82	1742.82
839.99	1658.85
840.16	1665.00
840.33	1689.57
840.50	1728.49
840.67	1662.95
840.84	1591.27
841.01	1710.05
841.18	1708.01
841.35	1726.44
841.52	1779.68
841.69	1730.53
841.86	1730.53
842.03	1675.24
842.20	1716.20
842.37	1732.58
842.54	1658.85
842.71	1648.61
842.88	1644.52
843.05	1751.01
843.22	1648.61
843.39	1810.40
843.56	1677.29
843.73	1697.77
843.90	1779.68
844.07	1679.33
844.24	1687.53
844.41	1742.82
844.58	1744.87
844.75	1693.67
844.92	1826.79
845.09	1689.57
845.26	1726.44
845.43	1656.81
845.60	1677.29
845.77	1777.64
845.94	1705.96
846.10	1748.97
846.27	1593.32
846.44	1683.43
846.61	1660.90
846.78	1732.58
846.95	1746.92
847.12	1726.44
847.29	1662.95
847.46	1599.46
847.63	1834.98
847.80	1683.43
847.97	1673.19
848.14	1824.74
848.31	1677.29
848.48	1628.14
848.65	1708.01
848.82	1654.76
848.98	1787.88
849.15	1708.01
849.32	1779.68
849.49	1787.88
849.66	1748.97
849.83	1599.46
850.00	1660.90
850.17	1742.82
850.34	1695.72
850.51	1603.56
850.68	1673.19
850.85	1771.49
851.01	1728.49
851.18	1611.75
851.35	1693.67
851.52	1693.67
851.69	1738.73
851.86	1583.08
852.03	1667.05
852.20	1718.25
852.37	1783.78
852.53	1685.48
852.70	1720.29
852.87	1681.38
853.04	1681.38
853.21	1705.96
853.38	1708.01
853.55	1812.45
853.72	1789.92
853.89	1669.09
854.05	1662.95
854.22	1624.04
854.39	1705.96
854.56	1708.01
854.73	1794.02
854.90	1689.57
855.07	1632.23
855.23	1665.00
855.40	1724.39
855.57	1671.14
855.74	1615.85
855.91	1824.74
856.08	1705.96
856.25	1611.75
856.41	1681.38
856.58	1669.09
856.75	1753.06
856.92	1650.66
857.09	1726.44
857.26	1644.52
857.42	1718.25
857.59	1761.25
857.76	1699.81
857.93	1689.57
858.10	1751.01
858.27	1644.52
858.43	1693.67
858.60	1642.47
858.77	1621.99
858.94	1673.19
859.11	1753.06
859.27	1665.00
859.44	1720.29
859.61	1824.74
859.78	1773.54
859.95	1761.25
860.12	1615.85
860.28	1828.84
860.45	1804.26
860.62	1689.57
860.79	1671.14
860.95	1683.43
861.12	1640.42
861.29	1570.79
861.46	1673.19
861.63	1605.61
861.79	1736.68
861.96	1708.01
862.13	1630.18
862.30	1730.53
862.47	1691.62
862.63	1619.94
862.80	1751.01
862.97	1800.16
863.14	1691.62
863.30	1695.72
863.47	1708.01
863.64	1822.69
863.81	1691.62
863.97	1679.33
864.14	1679.33
864.31	1642.47
864.48	1785.83
864.65	1736.68
864.81	1697.77
864.98	1626.09
865.15	1738.73
865.32	1820.64
865.48	1808.36
865.65	1857.51
865.82	1615.85
865.98	1687.53
866.15	1785.83
866.32	1677.29
866.49	1595.37
866.65	1751.01
866.82	1642.47
866.99	1751.01
867.16	1755.11
867.32	1660.90
867.49	1695.72
867.66	1685.48
867.83	1654.76
867.99	1589.22
868.16	1675.24
868.33	1636.33
868.49	1716.20
868.66	1642.47
868.83	1781.73
868.99	1677.29
869.16	1773.54
869.33	1755.11
869.50	1701.86
869.66	1714.15
869.83	1705.96
870.00	1675.24
870.16	1767.40
870.33	1683.43
870.50	1796.07
870.66	1605.61
870.83	1806.31
871.00	1691.62
871.17	1765.35
871.33	1697.77
871.50	1656.81
871.67	1705.96
871.83	1665.00
872.00	1789.92
872.17	1615.85
872.33	1783.78
872.50	1759.21
872.67	1683.43
872.83	1726.44
873.00	1734.63
873.17	1697.77
873.33	1779.68
873.50	1724.39
873.67	1617.90
873.83	1619.94
874.00	1714.15
874.16	1738.73
874.33	1648.61
874.50	1630.18
874.66	1687.53
874.83	1712.10
875.00	1748.97
875.16	1738.73
875.33	1748.97
875.50	1591.27
875.66	1722.34
875.83	1691.62
875.99	1683.43
876.16	1665.00
876.33	1732.58
876.49	1648.61
876.66	1828.84
876.83	1642.47
876.99	1566.70
877.16	1681.38
877.32	1740.77
877.49	1656.81
877.66	1675.24
877.82	1759.21
877.99	1701.86
878.15	1669.09
878.32	1619.94
878.49	1746.92
878.65	1681.38
878.82	1804.26
878.98	1689.57
879.15	1824.74
879.32	1781.73
879.48	1689.57
879.65	1640.42
879.81	1603.56
879.98	1705.96
880.15	1644.52
880.31	1744.87
880.48	1587.18
880.64	1665.00
880.81	1712.10
880.97	1800.16
881.14	1734.63
881.31	1652.71
881.47	1789.92
881.64	1626.09
881.80	1585.13
881.97	1691.62
882.13	1703.91
882.30	1632.23
882.47	1648.61
882.63	1611.75
882.80	1587.18
882.96	1638.38
883.13	1714.15
883.29	1708.01
883.46	1705.96
883.62	1736.68
883.79	1699.81
883.95	1779.68
884.12	1712.10
884.29	1728.49
884.45	1652.71
884.62	1705.96
884.78	1683.43
884.95	1806.31
885.11	1654.76
885.28	1675.24
885.44	1599.46
885.61	1710.05
885.77	1812.45
885.94	1728.49
886.10	1667.05
886.27	1683.43
886.43	1759.21
886.60	1748.97
886.76	1634.28
886.93	1701.86
887.09	1691.62
887.26	1599.46
887.42	1695.72
887.59	1763.30
887.75	1796.07
887.92	1777.64
888.08	1769.44
888.25	1822.69
888.41	1763.30
888.58	1726.44
888.74	1650.66
888.91	1740.77
>>>>>End Processed Spectral Data<<<<<
