SpectraSuite Data File
++++++++++++++++++++++++++++++++++++
Date: Mon Jun 06 17:32:17 CEST 2016
User: root
Dark Spectrum Present: No
Reference Spectrum Present: No
Number of Sampled Component Spectra: 1
Spectrometers: USB4C02835
Integration Time (usec): 100000 (USB4C02835)
Spectra Averaged: 1 (USB4C02835)
Boxcar Smoothing: 0 (USB4C02835)
Correct for Electrical Dark: No (USB4C02835)
Strobe/Lamp Enabled: No (USB4C02835)
Correct for Detector Non-linearity: No (USB4C02835)
Correct for Stray Light: No (USB4C02835)
Number of Pixels in Processed Spectrum: 3648
>>>>>Begin Processed Spectral Data<<<<<
177.47	1443.82
177.69	1443.82
177.91	1443.82
178.13	1505.26
178.36	1509.35
178.58	1685.48
178.80	1656.81
179.02	1669.09
179.24	1564.65
179.46	1689.57
179.68	1732.58
179.90	1783.78
180.13	1724.39
180.35	1656.81
180.57	1658.85
180.79	1744.87
181.01	1777.64
181.23	1759.21
181.45	1810.40
181.67	1683.43
181.90	1685.48
182.12	1656.81
182.34	1656.81
182.56	1695.72
182.78	1771.49
183.00	1705.96
183.22	1732.58
183.44	1624.04
183.66	1828.84
183.89	1884.13
184.11	1708.01
184.33	1722.34
184.55	1757.16
184.77	1662.95
184.99	1710.05
185.21	1728.49
185.43	1884.13
185.65	1669.09
185.87	1767.40
186.10	1855.46
186.32	1826.79
186.54	1738.73
186.76	1759.21
186.98	1779.68
187.20	1734.63
187.42	1665.00
187.64	1796.07
187.86	1787.88
188.08	1783.78
188.30	1736.68
188.52	1685.48
188.75	1794.02
188.97	1783.78
189.19	1718.25
189.41	1687.53
189.63	1787.88
189.85	1765.35
190.07	1634.28
190.29	1693.67
190.51	1714.15
190.73	1697.77
190.95	1832.93
191.17	1648.61
191.39	1695.72
191.61	1685.48
191.84	1730.53
192.06	1695.72
192.28	1681.38
192.50	1900.52
192.72	1763.30
192.94	1761.25
193.16	1800.16
193.38	1701.86
193.60	1615.85
193.82	1728.49
194.04	1753.06
194.26	1769.44
194.48	1734.63
194.70	1613.80
194.92	1691.62
195.14	1736.68
195.36	1615.85
195.58	1726.44
195.80	1724.39
196.02	1685.48
196.24	1644.52
196.46	1662.95
196.69	1667.05
196.91	1798.12
197.13	1665.00
197.35	1689.57
197.57	1822.69
197.79	1753.06
198.01	1789.92
198.23	1761.25
198.45	1802.21
198.67	1605.61
198.89	1675.24
199.11	1751.01
199.33	1646.57
199.55	1574.89
199.77	1742.82
199.99	1800.16
200.21	1746.92
200.43	1740.77
200.65	1683.43
200.87	1595.37
201.09	1748.97
201.31	1714.15
201.53	1777.64
201.75	1734.63
201.97	1734.63
202.19	1755.11
202.41	1777.64
202.63	1861.60
202.85	1796.07
203.07	1693.67
203.29	1699.81
203.51	1701.86
203.73	1624.04
203.95	1877.99
204.17	1744.87
204.39	1677.29
204.61	1748.97
204.83	1710.05
205.05	1751.01
205.27	1798.12
205.49	1783.78
205.71	1732.58
205.93	1685.48
206.15	1734.63
206.37	1746.92
206.59	1710.05
206.81	1699.81
207.03	1624.04
207.25	1714.15
207.47	1753.06
207.69	1693.67
207.91	1746.92
208.13	1816.55
208.34	1714.15
208.56	1640.42
208.78	1732.58
209.00	1685.48
209.22	1712.10
209.44	1763.30
209.66	1708.01
209.88	1785.83
210.10	1609.70
210.32	1685.48
210.54	1800.16
210.76	1648.61
210.98	1689.57
211.20	1615.85
211.42	1757.16
211.64	1769.44
211.86	1730.53
212.08	1734.63
212.30	1796.07
212.52	1716.20
212.74	1738.73
212.96	1671.14
213.17	1802.21
213.39	1705.96
213.61	1769.44
213.83	1734.63
214.05	1595.37
214.27	1742.82
214.49	1673.19
214.71	1705.96
214.93	1796.07
215.15	1665.00
215.37	1822.69
215.59	1656.81
215.81	1732.58
216.03	1814.50
216.24	1712.10
216.46	1638.38
216.68	1822.69
216.90	1753.06
217.12	1724.39
217.34	1724.39
217.56	1757.16
217.78	1853.41
218.00	1755.11
218.22	1751.01
218.44	1701.86
218.66	1742.82
218.87	1806.31
219.09	1669.09
219.31	1755.11
219.53	1720.29
219.75	1638.38
219.97	1722.34
220.19	1710.05
220.41	1728.49
220.63	1845.22
220.85	1738.73
221.06	1677.29
221.28	1810.40
221.50	1722.34
221.72	1753.06
221.94	1714.15
222.16	1705.96
222.38	1755.11
222.60	1759.21
222.82	1710.05
223.03	1755.11
223.25	1697.77
223.47	1724.39
223.69	1865.70
223.91	1708.01
224.13	1693.67
224.35	1691.62
224.57	1804.26
224.78	1734.63
225.00	1708.01
225.22	1691.62
225.44	1708.01
225.66	1794.02
225.88	1712.10
226.10	1814.50
226.32	1736.68
226.53	1718.25
226.75	1720.29
226.97	1710.05
227.19	1742.82
227.41	1626.09
227.63	1714.15
227.85	1638.38
228.06	1730.53
228.28	1693.67
228.50	1748.97
228.72	1724.39
228.94	1714.15
229.16	1572.84
229.37	1660.90
229.59	1693.67
229.81	1767.40
230.03	1738.73
230.25	1740.77
230.47	1615.85
230.69	1599.46
230.90	1730.53
231.12	1638.38
231.34	1748.97
231.56	1822.69
231.78	1673.19
232.00	1718.25
232.21	1722.34
232.43	1685.48
232.65	1636.33
232.87	1761.25
233.09	1648.61
233.30	1685.48
233.52	1771.49
233.74	1767.40
233.96	1714.15
234.18	1728.49
234.40	1716.20
234.61	1859.56
234.83	1636.33
235.05	1683.43
235.27	1769.44
235.49	1722.34
235.70	1685.48
235.92	1808.36
236.14	1675.24
236.36	1865.70
236.58	1613.80
236.79	1722.34
237.01	1720.29
237.23	1716.20
237.45	1837.03
237.67	1726.44
237.88	1732.58
238.10	1779.68
238.32	1632.23
238.54	1605.61
238.76	1697.77
238.97	1759.21
239.19	1654.76
239.41	1771.49
239.63	1830.88
239.85	1675.24
240.06	1703.91
240.28	1677.29
240.50	1796.07
240.72	1746.92
240.93	1722.34
241.15	1812.45
241.37	1697.77
241.59	1820.64
241.81	1814.50
242.02	1638.38
242.24	1708.01
242.46	1771.49
242.68	1695.72
242.89	1757.16
243.11	1681.38
243.33	1746.92
243.55	1722.34
243.76	1777.64
243.98	1636.33
244.20	1746.92
244.42	1769.44
244.64	1746.92
244.85	1667.05
245.07	1683.43
245.29	1820.64
245.51	1705.96
245.72	1720.29
245.94	1732.58
246.16	1822.69
246.38	1767.40
246.59	1650.66
246.81	1691.62
247.03	1703.91
247.24	1642.47
247.46	1669.09
247.68	1728.49
247.90	1662.95
248.11	1578.98
248.33	1787.88
248.55	1677.29
248.77	1753.06
248.98	1789.92
249.20	1816.55
249.42	1720.29
249.64	1697.77
249.85	1716.20
250.07	1714.15
250.29	1695.72
250.50	1787.88
250.72	1689.57
250.94	1720.29
251.16	1820.64
251.37	1814.50
251.59	1779.68
251.81	1734.63
252.02	1814.50
252.24	1703.91
252.46	1730.53
252.68	1693.67
252.89	1763.30
253.11	1667.05
253.33	1808.36
253.54	1810.40
253.76	1617.90
253.98	1648.61
254.20	1759.21
254.41	1640.42
254.63	1667.05
254.85	1710.05
255.06	1646.57
255.28	1726.44
255.50	1761.25
255.71	1665.00
255.93	1660.90
256.15	1730.53
256.36	1798.12
256.58	1714.15
256.80	1783.78
257.02	1746.92
257.23	1705.96
257.45	1728.49
257.67	1755.11
257.88	1628.14
258.10	1742.82
258.32	1738.73
258.53	1765.35
258.75	1800.16
258.97	1736.68
259.18	1738.73
259.40	1763.30
259.62	1787.88
259.83	1748.97
260.05	1773.54
260.27	2015.20
260.48	1730.53
260.70	1640.42
260.92	1703.91
261.13	1699.81
261.35	1701.86
261.57	1800.16
261.78	1626.09
262.00	1679.33
262.22	1785.83
262.43	1703.91
262.65	1759.21
262.86	1785.83
263.08	1808.36
263.30	1667.05
263.51	1636.33
263.73	1722.34
263.95	1804.26
264.16	1648.61
264.38	1656.81
264.60	1761.25
264.81	1730.53
265.03	1804.26
265.25	1771.49
265.46	1753.06
265.68	1740.77
265.89	1716.20
266.11	1708.01
266.33	1757.16
266.54	1708.01
266.76	1701.86
266.98	1695.72
267.19	1773.54
267.41	1701.86
267.62	1755.11
267.84	1634.28
268.06	1691.62
268.27	1669.09
268.49	1761.25
268.70	1796.07
268.92	1777.64
269.14	1683.43
269.35	1613.80
269.57	1703.91
269.79	1732.58
270.00	1689.57
270.22	1787.88
270.43	1693.67
270.65	1589.22
270.87	1714.15
271.08	1769.44
271.30	1755.11
271.51	1652.71
271.73	1730.53
271.95	1832.93
272.16	1755.11
272.38	1759.21
272.59	1660.90
272.81	1710.05
273.02	1708.01
273.24	1732.58
273.46	1857.51
273.67	1671.14
273.89	1638.38
274.10	1660.90
274.32	1865.70
274.54	1652.71
274.75	1738.73
274.97	1640.42
275.18	1751.01
275.40	1730.53
275.61	1751.01
275.83	1722.34
276.05	1648.61
276.26	1662.95
276.48	1777.64
276.69	1681.38
276.91	1712.10
277.12	1779.68
277.34	1773.54
277.55	1712.10
277.77	1644.52
277.99	1644.52
278.20	1621.99
278.42	1677.29
278.63	1669.09
278.85	1683.43
279.06	1695.72
279.28	1810.40
279.49	1744.87
279.71	1791.97
279.93	1763.30
280.14	1685.48
280.36	1644.52
280.57	1746.92
280.79	1820.64
281.00	1669.09
281.22	1734.63
281.43	1777.64
281.65	1617.90
281.86	1693.67
282.08	1771.49
282.29	1871.84
282.51	1669.09
282.73	1701.86
282.94	1646.57
283.16	1789.92
283.37	1896.42
283.59	1691.62
283.80	1742.82
284.02	1779.68
284.23	1779.68
284.45	1691.62
284.66	1681.38
284.88	1697.77
285.09	1765.35
285.31	1789.92
285.52	1781.73
285.74	1644.52
285.95	1759.21
286.17	1771.49
286.38	1755.11
286.60	1671.14
286.81	1646.57
287.03	1685.48
287.24	1748.97
287.46	1652.71
287.67	1699.81
287.89	1849.32
288.10	1746.92
288.32	1724.39
288.53	1730.53
288.75	1796.07
288.96	1722.34
289.18	1640.42
289.39	1699.81
289.61	1800.16
289.82	1828.84
290.04	1849.32
290.25	1701.86
290.47	1693.67
290.68	1736.68
290.90	1837.03
291.11	1624.04
291.33	1744.87
291.54	1685.48
291.76	1621.99
291.97	1761.25
292.18	1646.57
292.40	1683.43
292.61	1615.85
292.83	1867.75
293.04	1736.68
293.26	1712.10
293.47	1763.30
293.69	1656.81
293.90	1681.38
294.12	1773.54
294.33	1755.11
294.55	1628.14
294.76	1822.69
294.97	1798.12
295.19	1734.63
295.40	1763.30
295.62	1669.09
295.83	1824.74
296.05	1665.00
296.26	1761.25
296.48	1669.09
296.69	1714.15
296.90	1726.44
297.12	1818.60
297.33	1757.16
297.55	1744.87
297.76	1773.54
297.98	1771.49
298.19	1712.10
298.41	1710.05
298.62	1714.15
298.83	1767.40
299.05	1697.77
299.26	1689.57
299.48	1685.48
299.69	1783.78
299.90	1699.81
300.12	1738.73
300.33	1794.02
300.55	1611.75
300.76	1751.01
300.98	1621.99
301.19	1746.92
301.40	1710.05
301.62	1697.77
301.83	1773.54
302.05	1660.90
302.26	1759.21
302.47	1722.34
302.69	1724.39
302.90	1740.77
303.12	1636.33
303.33	1757.16
303.54	1806.31
303.76	1794.02
303.97	1775.59
304.19	1779.68
304.40	1742.82
304.61	1728.49
304.83	1740.77
305.04	1826.79
305.26	1708.01
305.47	1646.57
305.68	1669.09
305.90	1638.38
306.11	1738.73
306.33	1681.38
306.54	1714.15
306.75	1640.42
306.97	1626.09
307.18	1658.85
307.39	1677.29
307.61	1732.58
307.82	1710.05
308.04	1767.40
308.25	1656.81
308.46	1759.21
308.68	1636.33
308.89	1734.63
309.10	1775.59
309.32	1767.40
309.53	1730.53
309.74	1722.34
309.96	1681.38
310.17	1787.88
310.39	1708.01
310.60	1746.92
310.81	1751.01
311.03	1581.03
311.24	1787.88
311.45	1642.47
311.67	1728.49
311.88	1736.68
312.09	1720.29
312.31	1603.56
312.52	1708.01
312.73	1656.81
312.95	1642.47
313.16	1619.94
313.37	1859.56
313.59	1798.12
313.80	1775.59
314.01	1841.12
314.23	1701.86
314.44	1689.57
314.65	1662.95
314.87	1705.96
315.08	1564.65
315.29	1669.09
315.51	1585.13
315.72	1665.00
315.93	1841.12
316.15	1767.40
316.36	1742.82
316.57	1734.63
316.79	1773.54
317.00	1722.34
317.21	1767.40
317.43	1681.38
317.64	1783.78
317.85	1677.29
318.07	1652.71
318.28	1675.24
318.49	1816.55
318.70	1877.99
318.92	1816.55
319.13	1832.93
319.34	1890.28
319.56	1814.50
319.77	1880.04
319.98	1767.40
320.20	1736.68
320.41	1818.60
320.62	1771.49
320.83	1724.39
321.05	1853.41
321.26	1720.29
321.47	1646.57
321.69	1845.22
321.90	1636.33
322.11	1710.05
322.32	1695.72
322.54	1746.92
322.75	1712.10
322.96	1843.17
323.18	1632.23
323.39	1656.81
323.60	1636.33
323.81	1814.50
324.03	1751.01
324.24	1665.00
324.45	1742.82
324.66	1730.53
324.88	1724.39
325.09	1837.03
325.30	1740.77
325.52	1691.62
325.73	1726.44
325.94	1753.06
326.15	1681.38
326.37	1689.57
326.58	1740.77
326.79	1748.97
327.00	1628.14
327.22	1693.67
327.43	1689.57
327.64	1669.09
327.85	1701.86
328.07	1718.25
328.28	1841.12
328.49	1658.85
328.70	1714.15
328.92	1675.24
329.13	1751.01
329.34	1751.01
329.55	1828.84
329.76	1744.87
329.98	1656.81
330.19	1787.88
330.40	1714.15
330.61	1781.73
330.83	1834.98
331.04	1662.95
331.25	1718.25
331.46	1681.38
331.68	1675.24
331.89	1759.21
332.10	1767.40
332.31	1675.24
332.52	1703.91
332.74	1695.72
332.95	1617.90
333.16	1769.44
333.37	1791.97
333.58	1730.53
333.80	1824.74
334.01	1652.71
334.22	1656.81
334.43	1767.40
334.64	1800.16
334.86	1628.14
335.07	1654.76
335.28	1751.01
335.49	1685.48
335.70	1714.15
335.92	1765.35
336.13	1777.64
336.34	1771.49
336.55	1714.15
336.76	1738.73
336.98	1624.04
337.19	1734.63
337.40	1841.12
337.61	1859.56
337.82	1734.63
338.04	1701.86
338.25	1626.09
338.46	1755.11
338.67	1718.25
338.88	1650.66
339.09	1693.67
339.31	1703.91
339.52	1675.24
339.73	1605.61
339.94	1648.61
340.15	1701.86
340.36	1757.16
340.58	1738.73
340.79	1667.05
341.00	1720.29
341.21	1673.19
341.42	1816.55
341.63	1712.10
341.85	1783.78
342.06	1759.21
342.27	1720.29
342.48	1759.21
342.69	1660.90
342.90	1726.44
343.12	1740.77
343.33	1681.38
343.54	1839.08
343.75	1781.73
343.96	1660.90
344.17	1742.82
344.38	1814.50
344.60	1671.14
344.81	1673.19
345.02	1693.67
345.23	1775.59
345.44	1693.67
345.65	1705.96
345.86	1759.21
346.07	1683.43
346.29	1724.39
346.50	1701.86
346.71	1718.25
346.92	1789.92
347.13	1859.56
347.34	1671.14
347.55	1656.81
347.76	1726.44
347.98	1648.61
348.19	1734.63
348.40	1748.97
348.61	1708.01
348.82	1804.26
349.03	1742.82
349.24	1724.39
349.45	1863.65
349.66	1597.42
349.88	1748.97
350.09	1675.24
350.30	1773.54
350.51	1818.60
350.72	1732.58
350.93	1693.67
351.14	1665.00
351.35	1722.34
351.56	1720.29
351.77	1677.29
351.99	1800.16
352.20	1841.12
352.41	1785.83
352.62	1576.94
352.83	1771.49
353.04	1699.81
353.25	1699.81
353.46	1769.44
353.67	1808.36
353.88	1619.94
354.09	1712.10
354.30	1722.34
354.52	1726.44
354.73	1738.73
354.94	1728.49
355.15	1671.14
355.36	1796.07
355.57	1673.19
355.78	1724.39
355.99	1693.67
356.20	1667.05
356.41	1771.49
356.62	1834.98
356.83	1626.09
357.04	1834.98
357.25	1591.27
357.46	1677.29
357.68	1640.42
357.89	1681.38
358.10	1720.29
358.31	1681.38
358.52	1740.77
358.73	1683.43
358.94	1652.71
359.15	1703.91
359.36	1789.92
359.57	1683.43
359.78	1734.63
359.99	1771.49
360.20	1626.09
360.41	1710.05
360.62	1779.68
360.83	1802.21
361.04	1681.38
361.25	1826.79
361.46	1843.17
361.67	1740.77
361.88	1697.77
362.09	1783.78
362.30	1718.25
362.51	1624.04
362.72	1685.48
362.93	1751.01
363.14	1746.92
363.35	1824.74
363.56	1701.86
363.78	1736.68
363.99	1740.77
364.20	1656.81
364.41	1681.38
364.62	1824.74
364.83	1763.30
365.04	1705.96
365.25	1722.34
365.46	1828.84
365.67	1705.96
365.88	1609.70
366.09	1613.80
366.30	1617.90
366.51	1726.44
366.72	1679.33
366.93	1705.96
367.14	1843.17
367.35	1820.64
367.56	1740.77
367.77	1771.49
367.98	1669.09
368.18	1699.81
368.39	1718.25
368.60	1712.10
368.81	1796.07
369.02	1779.68
369.23	1662.95
369.44	1652.71
369.65	1693.67
369.86	1673.19
370.07	1669.09
370.28	1675.24
370.49	1746.92
370.70	1703.91
370.91	1619.94
371.12	1705.96
371.33	1826.79
371.54	1732.58
371.75	1910.75
371.96	1593.32
372.17	1693.67
372.38	1660.90
372.59	1728.49
372.80	1650.66
373.01	1703.91
373.22	1761.25
373.43	1720.29
373.64	1669.09
373.85	1763.30
374.06	1806.31
374.26	1810.40
374.47	1755.11
374.68	1822.69
374.89	1796.07
375.10	1724.39
375.31	1783.78
375.52	1810.40
375.73	1822.69
375.94	1685.48
376.15	1738.73
376.36	1689.57
376.57	1714.15
376.78	1652.71
376.99	1669.09
377.20	1781.73
377.40	1568.74
377.61	1824.74
377.82	1701.86
378.03	1849.32
378.24	1779.68
378.45	1787.88
378.66	1742.82
378.87	1658.85
379.08	1609.70
379.29	1730.53
379.50	1794.02
379.71	1775.59
379.91	1744.87
380.12	1728.49
380.33	1716.20
380.54	1613.80
380.75	1683.43
380.96	1767.40
381.17	1722.34
381.38	1708.01
381.59	1771.49
381.80	1746.92
382.00	1959.91
382.21	1800.16
382.42	1857.51
382.63	1898.47
382.84	1773.54
383.05	1703.91
383.26	1816.55
383.47	1794.02
383.68	1816.55
383.88	1671.14
384.09	1714.15
384.30	1849.32
384.51	1738.73
384.72	1738.73
384.93	1703.91
385.14	1785.83
385.35	1767.40
385.55	1697.77
385.76	1814.50
385.97	1763.30
386.18	1695.72
386.39	1732.58
386.60	1675.24
386.81	1742.82
387.02	1730.53
387.22	1724.39
387.43	1763.30
387.64	1732.58
387.85	1810.40
388.06	2152.42
388.27	4069.31
388.48	6637.47
388.68	8081.28
388.89	9537.39
389.10	9469.81
389.31	8488.83
389.52	7405.46
389.73	6608.80
389.93	6076.32
390.14	5797.80
390.35	5085.11
390.56	4523.96
390.77	3844.04
390.98	3024.85
391.18	2490.33
391.39	2152.42
391.60	1912.80
391.81	1845.22
392.02	1757.16
392.23	1783.78
392.43	1824.74
392.64	1865.70
392.85	1699.81
393.06	1832.93
393.27	1740.77
393.47	1681.38
393.68	1834.98
393.89	1730.53
394.10	1822.69
394.31	1665.00
394.52	1667.05
394.72	1718.25
394.93	1724.39
395.14	1712.10
395.35	1710.05
395.56	1714.15
395.76	1783.78
395.97	1705.96
396.18	1796.07
396.39	1828.84
396.60	2009.06
396.80	1882.08
397.01	1898.47
397.22	1798.12
397.43	1886.18
397.64	1755.11
397.84	1802.21
398.05	1849.32
398.26	1822.69
398.47	1824.74
398.67	1853.41
398.88	1740.77
399.09	1802.21
399.30	1748.97
399.51	1712.10
399.71	1742.82
399.92	1708.01
400.13	1705.96
400.34	1736.68
400.54	1691.62
400.75	1841.12
400.96	1701.86
401.17	1806.31
401.37	1716.20
401.58	1697.77
401.79	1734.63
402.00	1943.52
402.21	1961.95
402.41	2060.26
402.62	2074.59
402.83	2082.78
403.04	1982.43
403.24	2066.40
403.45	1920.99
403.66	1918.95
403.87	1861.60
404.07	1925.09
404.28	1847.27
404.49	1853.41
404.70	1769.44
404.90	1779.68
405.11	1783.78
405.32	1787.88
405.52	1648.61
405.73	1617.90
405.94	1638.38
406.15	1751.01
406.35	1691.62
406.56	1718.25
406.77	1740.77
406.98	1736.68
407.18	1669.09
407.39	1796.07
407.60	1708.01
407.80	1742.82
408.01	1673.19
408.22	1744.87
408.43	1716.20
408.63	1742.82
408.84	1746.92
409.05	1751.01
409.25	1697.77
409.46	1697.77
409.67	1681.38
409.88	1681.38
410.08	1746.92
410.29	1722.34
410.50	1779.68
410.70	1785.83
410.91	1683.43
411.12	1759.21
411.32	1716.20
411.53	1677.29
411.74	1785.83
411.95	1742.82
412.15	1884.13
412.36	1791.97
412.57	1824.74
412.77	1796.07
412.98	1693.67
413.19	1650.66
413.39	1746.92
413.60	1787.88
413.81	1791.97
414.01	1673.19
414.22	1761.25
414.43	1828.84
414.63	1671.14
414.84	1779.68
415.05	1814.50
415.25	1671.14
415.46	1783.78
415.67	1753.06
415.87	1708.01
416.08	1763.30
416.29	1681.38
416.49	1757.16
416.70	1751.01
416.91	1679.33
417.11	1738.73
417.32	1728.49
417.53	1804.26
417.73	1755.11
417.94	1812.45
418.15	1691.62
418.35	1724.39
418.56	1701.86
418.77	1849.32
418.97	1638.38
419.18	1705.96
419.38	1626.09
419.59	1644.52
419.80	1730.53
420.00	1654.76
420.21	1730.53
420.42	1763.30
420.62	1724.39
420.83	1763.30
421.04	1644.52
421.24	1748.97
421.45	1691.62
421.65	1748.97
421.86	1753.06
422.07	1761.25
422.27	1746.92
422.48	1742.82
422.69	1626.09
422.89	1665.00
423.10	1748.97
423.30	1603.56
423.51	1716.20
423.72	1773.54
423.92	1779.68
424.13	1607.66
424.33	1685.48
424.54	1765.35
424.75	1724.39
424.95	1748.97
425.16	1736.68
425.36	1662.95
425.57	1775.59
425.78	1742.82
425.98	1703.91
426.19	1667.05
426.39	1714.15
426.60	1669.09
426.81	1834.98
427.01	1718.25
427.22	1681.38
427.42	1669.09
427.63	1605.61
427.83	1771.49
428.04	1839.08
428.25	1712.10
428.45	1816.55
428.66	1787.88
428.86	1667.05
429.07	1732.58
429.28	1693.67
429.48	1681.38
429.69	1611.75
429.89	1849.32
430.10	1738.73
430.30	1830.88
430.51	1787.88
430.71	1669.09
430.92	1738.73
431.13	1757.16
431.33	1755.11
431.54	1753.06
431.74	1849.32
431.95	1818.60
432.15	1699.81
432.36	1644.52
432.56	1714.15
432.77	1849.32
432.98	1843.17
433.18	1716.20
433.39	1681.38
433.59	1796.07
433.80	1808.36
434.00	1880.04
434.21	1757.16
434.41	1681.38
434.62	1865.70
434.82	1703.91
435.03	1628.14
435.23	1765.35
435.44	1652.71
435.64	1714.15
435.85	1718.25
436.06	1779.68
436.26	1834.98
436.47	1755.11
436.67	1667.05
436.88	1761.25
437.08	1751.01
437.29	1806.31
437.49	1726.44
437.70	1843.17
437.90	1722.34
438.11	1955.81
438.31	1757.16
438.52	1880.04
438.72	1902.56
438.93	1908.71
439.13	1787.88
439.34	1779.68
439.54	1806.31
439.75	1800.16
439.95	1812.45
440.16	1724.39
440.36	1708.01
440.57	1814.50
440.77	1755.11
440.98	1771.49
441.18	1777.64
441.39	1720.29
441.59	1724.39
441.80	1826.79
442.00	1708.01
442.21	1763.30
442.41	1677.29
442.62	1773.54
442.82	1705.96
443.02	1742.82
443.23	1740.77
443.43	1738.73
443.64	1812.45
443.84	1701.86
444.05	1798.12
444.25	1796.07
444.46	1773.54
444.66	1705.96
444.87	1832.93
445.07	1677.29
445.28	1798.12
445.48	1777.64
445.69	1826.79
445.89	1920.99
446.09	1832.93
446.30	2009.06
446.50	2598.87
446.71	3694.54
446.91	4349.89
447.12	4685.75
447.32	4831.16
447.53	4374.46
447.73	3966.92
447.93	3426.25
448.14	3368.91
448.34	3239.89
448.55	2942.93
448.75	2795.48
448.96	2709.46
449.16	2381.79
449.36	2277.34
449.57	2041.82
449.77	1884.13
449.98	1861.60
450.18	1759.21
450.39	1839.08
450.59	1763.30
450.79	1740.77
451.00	1722.34
451.20	1861.60
451.41	1742.82
451.61	1787.88
451.81	1785.83
452.02	1724.39
452.22	1734.63
452.43	1685.48
452.63	1724.39
452.84	1746.92
453.04	1755.11
453.24	1753.06
453.45	1722.34
453.65	1714.15
453.86	1828.84
454.06	1791.97
454.26	1818.60
454.47	1761.25
454.67	1808.36
454.87	1765.35
455.08	1744.87
455.28	1857.51
455.49	1759.21
455.69	1712.10
455.89	1884.13
456.10	1853.41
456.30	1714.15
456.51	1771.49
456.71	1730.53
456.91	1789.92
457.12	1730.53
457.32	1791.97
457.52	1660.90
457.73	1826.79
457.93	1730.53
458.14	1703.91
458.34	1615.85
458.54	1751.01
458.75	1701.86
458.95	1751.01
459.15	1701.86
459.36	1751.01
459.56	1841.12
459.76	1912.80
459.97	1791.97
460.17	1771.49
460.37	1724.39
460.58	1693.67
460.78	1806.31
460.99	1703.91
461.19	1738.73
461.39	1710.05
461.60	1712.10
461.80	1646.57
462.00	1763.30
462.21	1761.25
462.41	1673.19
462.61	1638.38
462.82	1613.80
463.02	1767.40
463.22	1802.21
463.43	1746.92
463.63	1791.97
463.83	1767.40
464.04	1779.68
464.24	1777.64
464.44	1705.96
464.64	1746.92
464.85	1753.06
465.05	1791.97
465.25	1773.54
465.46	1685.48
465.66	1728.49
465.86	1708.01
466.07	1828.84
466.27	1744.87
466.47	1644.52
466.68	1656.81
466.88	1822.69
467.08	1800.16
467.29	1802.21
467.49	1785.83
467.69	1755.11
467.89	1794.02
468.10	1751.01
468.30	1783.78
468.50	1814.50
468.71	1746.92
468.91	1634.28
469.11	1906.66
469.31	1703.91
469.52	1669.09
469.72	1859.56
469.92	1871.84
470.13	1771.49
470.33	1787.88
470.53	1804.26
470.73	2176.99
470.94	2242.53
471.14	2357.21
471.34	2539.48
471.54	2488.28
471.75	2176.99
471.95	2189.28
472.15	2111.46
472.36	2150.37
472.56	2058.21
472.76	2090.98
472.96	2074.59
473.17	1933.28
473.37	1949.67
473.57	1853.41
473.77	1918.95
473.98	1740.77
474.18	1697.77
474.38	1957.86
474.58	1701.86
474.79	1740.77
474.99	1751.01
475.19	1839.08
475.39	1710.05
475.60	1851.36
475.80	1722.34
476.00	1761.25
476.20	1773.54
476.41	1810.40
476.61	1873.89
476.81	1734.63
477.01	1687.53
477.21	1853.41
477.42	1808.36
477.62	1630.18
477.82	1798.12
478.02	1671.14
478.23	1722.34
478.43	1648.61
478.63	1755.11
478.83	1708.01
479.03	1730.53
479.24	1763.30
479.44	1832.93
479.64	1656.81
479.84	1656.81
480.04	1667.05
480.25	1779.68
480.45	1650.66
480.65	1705.96
480.85	1779.68
481.06	1699.81
481.26	1695.72
481.46	1806.31
481.66	1759.21
481.86	1746.92
482.06	1841.12
482.27	1751.01
482.47	1724.39
482.67	1800.16
482.87	1718.25
483.07	1806.31
483.28	1689.57
483.48	1648.61
483.68	1710.05
483.88	1660.90
484.08	1652.71
484.29	1632.23
484.49	1665.00
484.69	1656.81
484.89	1791.97
485.09	1820.64
485.29	1697.77
485.50	1734.63
485.70	1779.68
485.90	1839.08
486.10	1730.53
486.30	1802.21
486.50	1775.59
486.71	1765.35
486.91	1789.92
487.11	1794.02
487.31	1744.87
487.51	1656.81
487.71	1660.90
487.91	1722.34
488.12	1689.57
488.32	1554.41
488.52	1742.82
488.72	1681.38
488.92	1720.29
489.12	1822.69
489.32	1796.07
489.53	1728.49
489.73	1683.43
489.93	1834.98
490.13	1708.01
490.33	1699.81
490.53	1732.58
490.73	1746.92
490.94	1695.72
491.14	1785.83
491.34	1769.44
491.54	2156.51
491.74	2637.78
491.94	2912.21
492.14	3106.77
492.34	2938.84
492.54	2824.15
492.75	2467.80
492.95	2541.53
493.15	2336.73
493.35	2334.68
493.55	2197.47
493.75	2201.57
493.95	2224.09
494.15	1986.53
494.35	1918.95
494.56	1892.32
494.76	1746.92
494.96	1867.75
495.16	1748.97
495.36	1800.16
495.56	1724.39
495.76	1740.77
495.96	1728.49
496.16	1638.38
496.36	1884.13
496.56	1722.34
496.77	1826.79
496.97	1738.73
497.17	1877.99
497.37	1779.68
497.57	1742.82
497.77	1753.06
497.97	1712.10
498.17	1673.19
498.37	1804.26
498.57	1757.16
498.77	1720.29
498.97	1832.93
499.17	1865.70
499.38	1738.73
499.58	1796.07
499.78	1832.93
499.98	1808.36
500.18	1796.07
500.38	1681.38
500.58	1902.56
500.78	2611.16
500.98	4657.08
501.18	5849.00
501.38	6703.00
501.58	7010.20
501.78	6752.15
501.98	5488.56
502.18	5033.91
502.38	4448.19
502.58	4212.67
502.78	3860.42
502.98	3657.67
503.18	3313.61
503.38	3270.61
503.59	2848.72
503.79	2629.59
503.99	2557.91
504.19	2308.06
504.39	2127.84
504.59	2234.33
504.79	2070.50
504.99	2129.89
505.19	1929.19
505.39	1906.66
505.59	2035.68
505.79	1880.04
505.99	1877.99
506.19	1796.07
506.39	1947.62
506.59	1859.56
506.79	1826.79
506.99	1824.74
507.19	1802.21
507.39	1777.64
507.59	1720.29
507.79	1736.68
507.99	1730.53
508.19	1734.63
508.39	1710.05
508.59	1767.40
508.79	1834.98
508.99	1863.65
509.19	1679.33
509.39	1785.83
509.59	1736.68
509.79	1751.01
509.99	1644.52
510.19	1812.45
510.39	1746.92
510.59	1775.59
510.79	1701.86
510.99	1689.57
511.19	1841.12
511.39	1837.03
511.59	1779.68
511.79	1957.86
511.99	1740.77
512.19	1869.80
512.38	1722.34
512.58	1779.68
512.78	1794.02
512.98	1867.75
513.18	1802.21
513.38	1675.24
513.58	1820.64
513.78	1781.73
513.98	1773.54
514.18	1705.96
514.38	1701.86
514.58	1763.30
514.78	1695.72
514.98	1718.25
515.18	1744.87
515.38	1726.44
515.58	1789.92
515.78	1738.73
515.98	1697.77
516.18	1677.29
516.38	1771.49
516.57	1703.91
516.77	1742.82
516.97	1830.88
517.17	1658.85
517.37	1583.08
517.57	1812.45
517.77	1699.81
517.97	1746.92
518.17	1753.06
518.37	1714.15
518.57	1667.05
518.77	1652.71
518.97	1744.87
519.16	1796.07
519.36	1726.44
519.56	1730.53
519.76	1800.16
519.96	1775.59
520.16	1894.37
520.36	1708.01
520.56	1849.32
520.76	1748.97
520.96	1734.63
521.16	1849.32
521.35	1822.69
521.55	1771.49
521.75	1794.02
521.95	1695.72
522.15	1820.64
522.35	1714.15
522.55	1800.16
522.75	1789.92
522.95	1726.44
523.14	1765.35
523.34	1769.44
523.54	1718.25
523.74	1777.64
523.94	1714.15
524.14	1683.43
524.34	1726.44
524.54	1771.49
524.73	1777.64
524.93	1787.88
525.13	1738.73
525.33	1677.29
525.53	1929.19
525.73	1732.58
525.93	1720.29
526.13	1701.86
526.32	1689.57
526.52	1753.06
526.72	1748.97
526.92	1734.63
527.12	1689.57
527.32	1669.09
527.52	1820.64
527.71	1769.44
527.91	1794.02
528.11	1744.87
528.31	1765.35
528.51	1634.28
528.71	1714.15
528.90	1777.64
529.10	1834.98
529.30	1849.32
529.50	1644.52
529.70	1724.39
529.90	1718.25
530.09	1675.24
530.29	1712.10
530.49	1755.11
530.69	1869.80
530.89	1736.68
531.09	1818.60
531.28	1757.16
531.48	1832.93
531.68	1794.02
531.88	1800.16
532.08	1763.30
532.28	1736.68
532.47	1771.49
532.67	1796.07
532.87	1779.68
533.07	1697.77
533.27	1800.16
533.46	1783.78
533.66	1804.26
533.86	1732.58
534.06	1751.01
534.26	1822.69
534.45	1683.43
534.65	1814.50
534.85	1734.63
535.05	1791.97
535.25	1748.97
535.44	1710.05
535.64	1757.16
535.84	1783.78
536.04	1765.35
536.24	1652.71
536.43	1646.57
536.63	1783.78
536.83	1800.16
537.03	1744.87
537.22	1658.85
537.42	1708.01
537.62	1714.15
537.82	1607.66
538.02	1855.46
538.21	1824.74
538.41	1914.85
538.61	1765.35
538.81	1724.39
539.00	1832.93
539.20	1646.57
539.40	1615.85
539.60	1767.40
539.79	1802.21
539.99	1740.77
540.19	1701.86
540.39	1757.16
540.58	1718.25
540.78	1781.73
540.98	1742.82
541.18	1771.49
541.37	1714.15
541.57	1771.49
541.77	1839.08
541.97	1710.05
542.16	1640.42
542.36	1746.92
542.56	1902.56
542.76	1826.79
542.95	1796.07
543.15	1751.01
543.35	1847.27
543.54	1691.62
543.74	1751.01
543.94	1853.41
544.14	1679.33
544.33	1757.16
544.53	1740.77
544.73	1767.40
544.93	1732.58
545.12	1802.21
545.32	1683.43
545.52	1740.77
545.71	1714.15
545.91	1765.35
546.11	1699.81
546.30	1716.20
546.50	1763.30
546.70	1732.58
546.90	1714.15
547.09	1687.53
547.29	1714.15
547.49	1853.41
547.68	1828.84
547.88	1705.96
548.08	1779.68
548.27	2197.47
548.47	1783.78
548.67	1658.85
548.87	1753.06
549.06	1775.59
549.26	1796.07
549.46	1742.82
549.65	1761.25
549.85	1800.16
550.05	1783.78
550.24	1734.63
550.44	1673.19
550.64	1800.16
550.83	1796.07
551.03	1718.25
551.23	1814.50
551.42	1742.82
551.62	1757.16
551.82	1724.39
552.01	1716.20
552.21	1818.60
552.41	1798.12
552.60	1767.40
552.80	1710.05
553.00	1697.77
553.19	1732.58
553.39	1847.27
553.59	1728.49
553.78	1814.50
553.98	1673.19
554.17	1763.30
554.37	1773.54
554.57	1837.03
554.76	1722.34
554.96	1771.49
555.16	1716.20
555.35	1742.82
555.55	1769.44
555.75	1779.68
555.94	1779.68
556.14	1681.38
556.33	1757.16
556.53	1738.73
556.73	1759.21
556.92	1816.55
557.12	1863.65
557.32	1906.66
557.51	1818.60
557.71	1800.16
557.90	1816.55
558.10	1761.25
558.30	1718.25
558.49	1695.72
558.69	1697.77
558.88	1834.98
559.08	1804.26
559.28	1718.25
559.47	1757.16
559.67	1810.40
559.86	1920.99
560.06	1718.25
560.26	1732.58
560.45	1834.98
560.65	1665.00
560.84	1927.14
561.04	1624.04
561.24	1777.64
561.43	1703.91
561.63	1871.84
561.82	1714.15
562.02	1736.68
562.22	1751.01
562.41	1740.77
562.61	1697.77
562.80	1761.25
563.00	1865.70
563.19	1740.77
563.39	1843.17
563.59	1781.73
563.78	1650.66
563.98	1615.85
564.17	1681.38
564.37	1650.66
564.56	1675.24
564.76	1656.81
564.96	1800.16
565.15	1734.63
565.35	1861.60
565.54	1746.92
565.74	1744.87
565.93	1818.60
566.13	1800.16
566.32	1744.87
566.52	1759.21
566.71	1732.58
566.91	1783.78
567.11	1771.49
567.30	1742.82
567.50	1791.97
567.69	1841.12
567.89	1736.68
568.08	1716.20
568.28	1740.77
568.47	1687.53
568.67	1816.55
568.86	1722.34
569.06	1781.73
569.25	1720.29
569.45	1658.85
569.64	1658.85
569.84	1691.62
570.04	1732.58
570.23	1763.30
570.43	1791.97
570.62	1730.53
570.82	1855.46
571.01	1683.43
571.21	1689.57
571.40	1730.53
571.60	1779.68
571.79	1703.91
571.99	1753.06
572.18	1738.73
572.38	1769.44
572.57	1689.57
572.77	1779.68
572.96	1916.90
573.16	1783.78
573.35	1697.77
573.55	1910.75
573.74	1746.92
573.94	1642.47
574.13	1806.31
574.33	1830.88
574.52	1742.82
574.71	1765.35
574.91	1732.58
575.10	1636.33
575.30	1777.64
575.49	1751.01
575.69	1736.68
575.88	1800.16
576.08	1769.44
576.27	1800.16
576.47	1789.92
576.66	1853.41
576.86	1761.25
577.05	1796.07
577.25	1724.39
577.44	1865.70
577.64	1759.21
577.83	1806.31
578.02	1757.16
578.22	1890.28
578.41	1841.12
578.61	1779.68
578.80	1687.53
579.00	1787.88
579.19	1804.26
579.39	1802.21
579.58	1855.46
579.77	1845.22
579.97	1832.93
580.16	1789.92
580.36	1867.75
580.55	1773.54
580.75	1845.22
580.94	1763.30
581.13	1839.08
581.33	1869.80
581.52	1800.16
581.72	1832.93
581.91	1746.92
582.11	1746.92
582.30	1759.21
582.49	1779.68
582.69	1912.80
582.88	1783.78
583.08	1808.36
583.27	1863.65
583.47	1751.01
583.66	1730.53
583.85	1703.91
584.05	1753.06
584.24	1779.68
584.44	1783.78
584.63	1759.21
584.82	1843.17
585.02	1875.94
585.21	1841.12
585.41	1814.50
585.60	1867.75
585.79	1871.84
585.99	1873.89
586.18	1865.70
586.37	2215.90
586.57	3387.34
586.76	9969.51
586.96	24258.19
587.15	34137.59
587.34	39482.79
587.54	41506.18
587.73	35948.00
587.93	25882.23
588.12	21190.33
588.31	17899.25
588.51	16148.23
588.70	14880.54
588.89	13879.08
589.09	12519.23
589.28	10669.92
589.47	9260.91
589.67	7858.06
589.86	6229.92
590.06	4849.59
590.25	3893.19
590.44	3082.19
590.64	2441.18
590.83	2242.53
591.02	2107.36
591.22	1935.33
591.41	1976.29
591.60	1855.46
591.80	1976.29
591.99	1783.78
592.18	1746.92
592.38	1867.75
592.57	1837.03
592.76	1847.27
592.96	1798.12
593.15	1787.88
593.34	1857.51
593.54	1789.92
593.73	1818.60
593.92	1761.25
594.12	1812.45
594.31	1773.54
594.50	1783.78
594.70	1732.58
594.89	1890.28
595.08	1683.43
595.28	1894.37
595.47	1916.90
595.66	1828.84
595.86	1728.49
596.05	1732.58
596.24	1763.30
596.43	1888.23
596.63	1808.36
596.82	1779.68
597.01	1798.12
597.21	1832.93
597.40	1740.77
597.59	1708.01
597.79	1746.92
597.98	1736.68
598.17	1824.74
598.36	1779.68
598.56	1800.16
598.75	1691.62
598.94	1810.40
599.14	1751.01
599.33	1697.77
599.52	1865.70
599.71	1794.02
599.91	1802.21
600.10	1732.58
600.29	1798.12
600.48	1787.88
600.68	1806.31
600.87	1775.59
601.06	1748.97
601.26	1708.01
601.45	1720.29
601.64	1691.62
601.83	1877.99
602.03	1744.87
602.22	1671.14
602.41	1796.07
602.60	1945.57
602.80	1804.26
602.99	1736.68
603.18	1685.48
603.37	1755.11
603.57	1728.49
603.76	1800.16
603.95	1726.44
604.14	1708.01
604.34	1693.67
604.53	1718.25
604.72	1781.73
604.91	1845.22
605.10	1679.33
605.30	1701.86
605.49	1867.75
605.68	1783.78
605.87	1826.79
606.07	1681.38
606.26	1777.64
606.45	1779.68
606.64	1822.69
606.84	1681.38
607.03	1775.59
607.22	1789.92
607.41	1652.71
607.60	1789.92
607.80	1843.17
607.99	1726.44
608.18	1740.77
608.37	1730.53
608.56	1660.90
608.76	1869.80
608.95	1853.41
609.14	1763.30
609.33	1804.26
609.52	1824.74
609.72	1697.77
609.91	1816.55
610.10	1791.97
610.29	1927.14
610.48	1812.45
610.68	1828.84
610.87	1697.77
611.06	1763.30
611.25	1703.91
611.44	1773.54
611.63	1699.81
611.83	1830.88
612.02	1570.79
612.21	1892.32
612.40	1732.58
612.59	1644.52
612.79	1767.40
612.98	1800.16
613.17	1845.22
613.36	1730.53
613.55	1834.98
613.74	1701.86
613.93	1740.77
614.13	1730.53
614.32	1738.73
614.51	1800.16
614.70	1724.39
614.89	1718.25
615.08	1806.31
615.28	2052.06
615.47	1701.86
615.66	1716.20
615.85	1742.82
616.04	1857.51
616.23	1699.81
616.42	1742.82
616.62	1730.53
616.81	1789.92
617.00	1679.33
617.19	1800.16
617.38	1687.53
617.57	1736.68
617.76	1796.07
617.95	1822.69
618.15	1834.98
618.34	1708.01
618.53	1660.90
618.72	1830.88
618.91	1884.13
619.10	1859.56
619.29	1675.24
619.48	1714.15
619.68	1679.33
619.87	1771.49
620.06	1609.70
620.25	1839.08
620.44	1718.25
620.63	1742.82
620.82	1703.91
621.01	1755.11
621.20	1716.20
621.39	1730.53
621.59	1783.78
621.78	1849.32
621.97	1681.38
622.16	1712.10
622.35	1742.82
622.54	1791.97
622.73	1869.80
622.92	1654.76
623.11	1751.01
623.30	1755.11
623.49	1787.88
623.68	1687.53
623.88	1787.88
624.07	1699.81
624.26	1699.81
624.45	1712.10
624.64	1806.31
624.83	1722.34
625.02	1779.68
625.21	1765.35
625.40	1681.38
625.59	1855.46
625.78	1714.15
625.97	1837.03
626.16	1775.59
626.35	1822.69
626.54	1675.24
626.74	1775.59
626.93	1705.96
627.12	1675.24
627.31	1816.55
627.50	1689.57
627.69	1761.25
627.88	1636.33
628.07	1732.58
628.26	1624.04
628.45	1599.46
628.64	1677.29
628.83	1767.40
629.02	1681.38
629.21	1759.21
629.40	1685.48
629.59	1667.05
629.78	1665.00
629.97	1769.44
630.16	1748.97
630.35	1695.72
630.54	1738.73
630.73	1667.05
630.92	1730.53
631.11	1652.71
631.30	1734.63
631.49	1808.36
631.68	1712.10
631.87	1767.40
632.06	1669.09
632.25	1841.12
632.44	1724.39
632.63	1759.21
632.82	1757.16
633.01	1667.05
633.20	1642.47
633.39	1689.57
633.58	1703.91
633.77	1728.49
633.96	1667.05
634.15	1820.64
634.34	1734.63
634.53	1755.11
634.72	1675.24
634.91	1656.81
635.10	1753.06
635.29	1857.51
635.48	1755.11
635.67	1697.77
635.86	1644.52
636.05	1804.26
636.24	1710.05
636.43	1824.74
636.62	1748.97
636.81	1558.50
637.00	1710.05
637.19	1734.63
637.38	1769.44
637.57	1800.16
637.76	1724.39
637.95	1791.97
638.14	1708.01
638.33	1708.01
638.52	1730.53
638.71	1648.61
638.89	1687.53
639.08	1875.94
639.27	1845.22
639.46	1675.24
639.65	1806.31
639.84	1738.73
640.03	1771.49
640.22	1755.11
640.41	1890.28
640.60	1656.81
640.79	1775.59
640.98	1716.20
641.17	1746.92
641.36	1652.71
641.55	1722.34
641.74	1691.62
641.92	1644.52
642.11	1669.09
642.30	1734.63
642.49	1673.19
642.68	1683.43
642.87	1787.88
643.06	1794.02
643.25	1771.49
643.44	1640.42
643.63	1720.29
643.82	1822.69
644.00	1619.94
644.19	1699.81
644.38	1705.96
644.57	1779.68
644.76	1814.50
644.95	1675.24
645.14	1804.26
645.33	1734.63
645.52	1734.63
645.71	1675.24
645.89	1628.14
646.08	1763.30
646.27	1697.77
646.46	1918.95
646.65	1742.82
646.84	1726.44
647.03	1660.90
647.22	1759.21
647.40	1812.45
647.59	1714.15
647.78	1687.53
647.97	1669.09
648.16	1652.71
648.35	1865.70
648.54	1798.12
648.73	1718.25
648.91	1746.92
649.10	1705.96
649.29	1705.96
649.48	1710.05
649.67	1775.59
649.86	1734.63
650.05	1669.09
650.23	1834.98
650.42	1665.00
650.61	1800.16
650.80	1748.97
650.99	1853.41
651.18	1732.58
651.36	1820.64
651.55	1714.15
651.74	1773.54
651.93	1675.24
652.12	1703.91
652.31	1787.88
652.49	1697.77
652.68	1634.28
652.87	1865.70
653.06	1800.16
653.25	1839.08
653.44	1705.96
653.62	1767.40
653.81	1718.25
654.00	1757.16
654.19	1804.26
654.38	1894.37
654.56	1775.59
654.75	1769.44
654.94	1734.63
655.13	1781.73
655.32	1675.24
655.51	1755.11
655.69	1615.85
655.88	1765.35
656.07	1728.49
656.26	1816.55
656.45	1654.76
656.63	1757.16
656.82	1818.60
657.01	1808.36
657.20	1730.53
657.38	1834.98
657.57	1718.25
657.76	1603.56
657.95	1787.88
658.14	1656.81
658.32	1708.01
658.51	1628.14
658.70	1681.38
658.89	1744.87
659.08	1837.03
659.26	1892.32
659.45	1683.43
659.64	1748.97
659.83	1617.90
660.01	1894.37
660.20	1738.73
660.39	1761.25
660.58	1632.23
660.76	1787.88
660.95	1728.49
661.14	1734.63
661.33	1621.99
661.51	1718.25
661.70	1648.61
661.89	1837.03
662.08	1751.01
662.26	1611.75
662.45	1693.67
662.64	1810.40
662.83	1738.73
663.01	1767.40
663.20	1714.15
663.39	1814.50
663.58	1771.49
663.76	1722.34
663.95	1783.78
664.14	1751.01
664.32	1699.81
664.51	1722.34
664.70	1683.43
664.89	1773.54
665.07	1621.99
665.26	1800.16
665.45	1599.46
665.64	1794.02
665.82	1730.53
666.01	1757.16
666.20	1720.29
666.38	1810.40
666.57	1812.45
666.76	2189.28
666.95	4720.57
667.13	10606.43
667.32	15316.76
667.51	17858.29
667.69	19019.49
667.88	17407.73
668.07	12244.81
668.25	9512.81
668.44	7974.79
668.63	7260.05
668.81	6764.44
669.00	6211.49
669.19	5646.25
669.38	5066.67
669.56	4388.80
669.75	3856.33
669.94	3362.76
670.12	2836.44
670.31	2529.24
670.50	2281.44
670.68	2066.40
670.87	1923.04
671.06	1828.84
671.24	1787.88
671.43	1808.36
671.62	1763.30
671.80	1738.73
671.99	1839.08
672.18	1789.92
672.36	1718.25
672.55	1773.54
672.74	1695.72
672.92	1728.49
673.11	1716.20
673.29	1685.48
673.48	1763.30
673.67	1726.44
673.85	1794.02
674.04	1646.57
674.23	1738.73
674.41	1877.99
674.60	1570.79
674.79	1595.37
674.97	1560.55
675.16	1734.63
675.34	1783.78
675.53	1636.33
675.72	1755.11
675.90	1771.49
676.09	1703.91
676.28	1769.44
676.46	1632.23
676.65	1751.01
676.83	1703.91
677.02	1705.96
677.21	1767.40
677.39	1818.60
677.58	1675.24
677.77	1738.73
677.95	1775.59
678.14	1718.25
678.32	1771.49
678.51	1691.62
678.70	1822.69
678.88	1728.49
679.07	1843.17
679.25	1726.44
679.44	1705.96
679.63	1605.61
679.81	1716.20
680.00	1820.64
680.18	1796.07
680.37	1828.84
680.55	1738.73
680.74	1755.11
680.93	1611.75
681.11	1722.34
681.30	1722.34
681.48	1744.87
681.67	1708.01
681.85	1695.72
682.04	1679.33
682.23	1763.30
682.41	1751.01
682.60	1720.29
682.78	1812.45
682.97	1615.85
683.15	1699.81
683.34	1751.01
683.53	1787.88
683.71	1726.44
683.90	1791.97
684.08	1718.25
684.27	1710.05
684.45	1695.72
684.64	1781.73
684.82	1710.05
685.01	1751.01
685.19	1697.77
685.38	1853.41
685.57	1681.38
685.75	1624.04
685.94	1656.81
686.12	1683.43
686.31	1687.53
686.49	1814.50
686.68	1716.20
686.86	1701.86
687.05	1689.57
687.23	1824.74
687.42	1648.61
687.60	1632.23
687.79	1738.73
687.97	1765.35
688.16	1777.64
688.34	1783.78
688.53	1615.85
688.71	1738.73
688.90	1779.68
689.08	1679.33
689.27	1607.66
689.45	1724.39
689.64	1751.01
689.82	1732.58
690.01	1908.71
690.19	1703.91
690.38	1742.82
690.56	1800.16
690.75	1691.62
690.93	1724.39
691.12	1671.14
691.30	1716.20
691.49	1636.33
691.67	1726.44
691.86	1800.16
692.04	1660.90
692.23	1689.57
692.41	1755.11
692.60	1896.42
692.78	1789.92
692.97	1699.81
693.15	1806.31
693.34	1843.17
693.52	1738.73
693.71	1705.96
693.89	1742.82
694.08	1609.70
694.26	1832.93
694.44	1718.25
694.63	1787.88
694.81	1617.90
695.00	1685.48
695.18	1863.65
695.37	1929.19
695.55	1689.57
695.74	1691.62
695.92	1681.38
696.10	1773.54
696.29	1683.43
696.47	1673.19
696.66	1703.91
696.84	1642.47
697.03	1695.72
697.21	1689.57
697.40	2299.87
697.58	1804.26
697.76	1718.25
697.95	1734.63
698.13	1701.86
698.32	1714.15
698.50	1736.68
698.68	1787.88
698.87	1705.96
699.05	1781.73
699.24	1734.63
699.42	1640.42
699.61	1718.25
699.79	1708.01
699.97	1712.10
700.16	1648.61
700.34	1595.37
700.53	1740.77
700.71	1867.75
700.89	1718.25
701.08	1718.25
701.26	1810.40
701.45	2070.50
701.63	1638.38
701.81	1703.91
702.00	1691.62
702.18	1650.66
702.37	1718.25
702.55	1779.68
702.73	1675.24
702.92	1591.27
703.10	1740.77
703.28	1808.36
703.47	1642.47
703.65	1820.64
703.84	1779.68
704.02	1681.38
704.20	1810.40
704.39	1732.58
704.57	1652.71
704.75	1746.92
704.94	1794.02
705.12	1724.39
705.30	1834.98
705.49	2316.25
705.67	4409.28
705.86	9412.46
706.04	12371.78
706.22	14440.23
706.41	14851.87
706.59	13432.63
706.77	9330.55
706.96	7307.15
707.14	6604.70
707.32	5918.63
707.51	5539.76
707.69	4919.22
707.87	4220.86
708.06	3483.59
708.24	2936.79
708.42	2355.16
708.61	2215.90
708.79	1906.66
708.97	1857.51
709.16	1882.08
709.34	1834.98
709.52	1730.53
709.71	1683.43
709.89	1767.40
710.07	1724.39
710.26	1693.67
710.44	1675.24
710.62	1781.73
710.80	1746.92
710.99	1804.26
711.17	1746.92
711.35	1710.05
711.54	1714.15
711.72	1791.97
711.90	1751.01
712.09	1767.40
712.27	1701.86
712.45	1734.63
712.63	1720.29
712.82	1667.05
713.00	1759.21
713.18	1714.15
713.37	1763.30
713.55	1734.63
713.73	1755.11
713.91	1794.02
714.10	1734.63
714.28	1757.16
714.46	1796.07
714.65	1796.07
714.83	1773.54
715.01	1740.77
715.19	1673.19
715.38	1710.05
715.56	1828.84
715.74	1751.01
715.92	1718.25
716.11	1812.45
716.29	1630.18
716.47	1665.00
716.65	1722.34
716.84	1587.18
717.02	1816.55
717.20	1617.90
717.38	1701.86
717.57	1759.21
717.75	1728.49
717.93	1683.43
718.11	1691.62
718.30	1669.09
718.48	1738.73
718.66	1761.25
718.84	1791.97
719.03	1695.72
719.21	1669.09
719.39	1828.84
719.57	1775.59
719.75	1814.50
719.94	1689.57
720.12	1701.86
720.30	1773.54
720.48	1812.45
720.67	1736.68
720.85	1646.57
721.03	1705.96
721.21	1652.71
721.39	1802.21
721.58	1732.58
721.76	1724.39
721.94	1781.73
722.12	1734.63
722.30	1734.63
722.49	1693.67
722.67	1722.34
722.85	1712.10
723.03	1681.38
723.21	1667.05
723.40	1740.77
723.58	1777.64
723.76	1720.29
723.94	1736.68
724.12	1746.92
724.30	1679.33
724.49	1777.64
724.67	1609.70
724.85	1734.63
725.03	1648.61
725.21	1787.88
725.40	1755.11
725.58	1642.47
725.76	1732.58
725.94	1703.91
726.12	1652.71
726.30	1703.91
726.49	1726.44
726.67	1677.29
726.85	1771.49
727.03	1806.31
727.21	2148.32
727.39	2920.40
727.57	3885.00
727.76	4159.42
727.94	4503.48
728.12	4419.52
728.30	3672.01
728.48	3010.51
728.66	2740.18
728.84	2525.15
729.03	2410.46
729.21	2115.55
729.39	1957.86
729.57	1863.65
729.75	1837.03
729.93	1843.17
730.11	1671.14
730.30	1667.05
730.48	1771.49
730.66	1816.55
730.84	1746.92
731.02	1685.48
731.20	1808.36
731.38	1730.53
731.56	1642.47
731.74	1708.01
731.93	1697.77
732.11	1726.44
732.29	1630.18
732.47	1789.92
732.65	1710.05
732.83	1847.27
733.01	1708.01
733.19	1679.33
733.37	1718.25
733.56	1804.26
733.74	1697.77
733.92	1667.05
734.10	1800.16
734.28	1761.25
734.46	1693.67
734.64	1712.10
734.82	1748.97
735.00	1626.09
735.18	1699.81
735.36	1697.77
735.54	1658.85
735.73	1710.05
735.91	1740.77
736.09	1658.85
736.27	1652.71
736.45	1773.54
736.63	1617.90
736.81	1724.39
736.99	1753.06
737.17	1839.08
737.35	1712.10
737.53	1732.58
737.71	1708.01
737.89	1794.02
738.07	1722.34
738.25	1705.96
738.43	1597.42
738.61	1730.53
738.80	1673.19
738.98	1728.49
739.16	1689.57
739.34	1621.99
739.52	1804.26
739.70	1660.90
739.88	1720.29
740.06	1773.54
740.24	1558.50
740.42	1761.25
740.60	1554.41
740.78	1710.05
740.96	1550.31
741.14	1720.29
741.32	1744.87
741.50	1701.86
741.68	1785.83
741.86	1789.92
742.04	1740.77
742.22	1638.38
742.40	1769.44
742.58	1730.53
742.76	1667.05
742.94	1789.92
743.12	1593.32
743.30	1769.44
743.48	1703.91
743.66	1630.18
743.84	1791.97
744.02	1648.61
744.20	1671.14
744.38	1587.18
744.56	1701.86
744.74	1753.06
744.92	1753.06
745.10	1808.36
745.28	1738.73
745.46	1804.26
745.64	1693.67
745.82	1820.64
746.00	1734.63
746.18	1720.29
746.36	1697.77
746.54	1777.64
746.72	1673.19
746.90	1705.96
747.08	1765.35
747.26	1687.53
747.44	1671.14
747.62	1804.26
747.80	1736.68
747.98	1791.97
748.15	1662.95
748.33	1875.94
748.51	1804.26
748.69	1708.01
748.87	1689.57
749.05	1724.39
749.23	1650.66
749.41	1701.86
749.59	1751.01
749.77	1722.34
749.95	1660.90
750.13	1665.00
750.31	1718.25
750.49	1691.62
750.67	1767.40
750.85	1808.36
751.03	1710.05
751.20	1861.60
751.38	1757.16
751.56	1673.19
751.74	1650.66
751.92	1779.68
752.10	1665.00
752.28	1755.11
752.46	1679.33
752.64	1826.79
752.82	1742.82
753.00	1828.84
753.18	1681.38
753.35	1689.57
753.53	1730.53
753.71	1656.81
753.89	1830.88
754.07	1751.01
754.25	1751.01
754.43	1824.74
754.61	1736.68
754.79	1755.11
754.97	1685.48
755.14	1791.97
755.32	1646.57
755.50	1726.44
755.68	1677.29
755.86	1703.91
756.04	1642.47
756.22	1605.61
756.40	1736.68
756.57	1834.98
756.75	1722.34
756.93	1796.07
757.11	1771.49
757.29	1593.32
757.47	1675.24
757.65	1578.98
757.82	1605.61
758.00	1697.77
758.18	1665.00
758.36	1646.57
758.54	1830.88
758.72	1689.57
758.90	1751.01
759.07	1716.20
759.25	1615.85
759.43	1763.30
759.61	1648.61
759.79	2160.61
759.97	1722.34
760.15	1695.72
760.32	1701.86
760.50	1785.83
760.68	1877.99
760.86	1660.90
761.04	1763.30
761.22	1753.06
761.39	1779.68
761.57	1796.07
761.75	1689.57
761.93	1767.40
762.11	1658.85
762.28	1724.39
762.46	1638.38
762.64	1751.01
762.82	1703.91
763.00	1671.14
763.18	1767.40
763.35	1722.34
763.53	1736.68
763.71	1734.63
763.89	1748.97
764.07	1738.73
764.24	1722.34
764.42	1775.59
764.60	1652.71
764.78	1738.73
764.96	1783.78
765.13	1710.05
765.31	1791.97
765.49	1724.39
765.67	1671.14
765.84	1689.57
766.02	1636.33
766.20	1654.76
766.38	1685.48
766.56	1814.50
766.73	1732.58
766.91	1683.43
767.09	1734.63
767.27	1806.31
767.44	1722.34
767.62	1714.15
767.80	1638.38
767.98	1648.61
768.15	1695.72
768.33	1820.64
768.51	1742.82
768.69	1732.58
768.87	1808.36
769.04	1685.48
769.22	1894.37
769.40	1794.02
769.58	1900.52
769.75	1728.49
769.93	1718.25
770.11	1757.16
770.28	1681.38
770.46	1681.38
770.64	1730.53
770.82	1685.48
770.99	1685.48
771.17	1777.64
771.35	1699.81
771.53	1705.96
771.70	1697.77
771.88	1685.48
772.06	1703.91
772.23	1695.72
772.41	1703.91
772.59	1726.44
772.77	1578.98
772.94	1708.01
773.12	1796.07
773.30	1675.24
773.47	1701.86
773.65	1673.19
773.83	1810.40
774.01	1673.19
774.18	1628.14
774.36	1722.34
774.54	1644.52
774.71	1787.88
774.89	1652.71
775.07	1714.15
775.24	1648.61
775.42	1652.71
775.60	1783.78
775.78	1581.03
775.95	1665.00
776.13	1624.04
776.31	1587.18
776.48	1761.25
776.66	1812.45
776.84	1736.68
777.01	1685.48
777.19	1656.81
777.37	1648.61
777.54	1781.73
777.72	1791.97
777.90	1720.29
778.07	1710.05
778.25	1849.32
778.43	1804.26
778.60	1712.10
778.78	1781.73
778.96	1867.75
779.13	1732.58
779.31	1746.92
779.49	1730.53
779.66	1808.36
779.84	1665.00
780.01	1710.05
780.19	1677.29
780.37	1701.86
780.54	1800.16
780.72	1679.33
780.90	1697.77
781.07	1746.92
781.25	1669.09
781.43	1720.29
781.60	1693.67
781.78	1775.59
781.95	1732.58
782.13	1726.44
782.31	1669.09
782.48	1646.57
782.66	1834.98
782.83	1826.79
783.01	1675.24
783.19	1845.22
783.36	1675.24
783.54	1626.09
783.72	1738.73
783.89	1683.43
784.07	1658.85
784.24	1763.30
784.42	1853.41
784.60	1726.44
784.77	1751.01
784.95	1689.57
785.12	1675.24
785.30	1728.49
785.47	1714.15
785.65	1667.05
785.83	1732.58
786.00	1740.77
786.18	1744.87
786.35	1638.38
786.53	1642.47
786.71	1775.59
786.88	1697.77
787.06	1751.01
787.23	1675.24
787.41	1624.04
787.58	1748.97
787.76	1673.19
787.94	1730.53
788.11	1667.05
788.29	1607.66
788.46	1624.04
788.64	1615.85
788.81	1679.33
788.99	1728.49
789.16	1646.57
789.34	1751.01
789.52	1734.63
789.69	1738.73
789.87	1611.75
790.04	1722.34
790.22	1665.00
790.39	1785.83
790.57	1697.77
790.74	1705.96
790.92	1779.68
791.09	1603.56
791.27	1781.73
791.44	1800.16
791.62	1785.83
791.79	1861.60
791.97	1771.49
792.15	1902.56
792.32	1802.21
792.50	1783.78
792.67	1802.21
792.85	1824.74
793.02	1812.45
793.20	1687.53
793.37	1650.66
793.55	1722.34
793.72	1615.85
793.90	1714.15
794.07	1746.92
794.25	1677.29
794.42	1748.97
794.60	1763.30
794.77	1724.39
794.95	1837.03
795.12	1697.77
795.30	1691.62
795.47	1630.18
795.65	1949.67
795.82	1757.16
796.00	1689.57
796.17	1640.42
796.34	1638.38
796.52	1761.25
796.69	1779.68
796.87	1748.97
797.04	1746.92
797.22	1751.01
797.39	1683.43
797.57	1740.77
797.74	1712.10
797.92	1656.81
798.09	1726.44
798.27	1722.34
798.44	1781.73
798.62	1705.96
798.79	1705.96
798.96	1728.49
799.14	1615.85
799.31	1875.94
799.49	1665.00
799.66	1744.87
799.84	1767.40
800.01	1613.80
800.19	1689.57
800.36	1628.14
800.53	1726.44
800.71	1671.14
800.88	1755.11
801.06	1703.91
801.23	1638.38
801.41	1681.38
801.58	1685.48
801.75	1689.57
801.93	1789.92
802.10	1791.97
802.28	1714.15
802.45	1669.09
802.63	1722.34
802.80	1746.92
802.97	1736.68
803.15	1640.42
803.32	1673.19
803.50	1626.09
803.67	1695.72
803.84	1665.00
804.02	1722.34
804.19	1740.77
804.37	1591.27
804.54	1665.00
804.71	1665.00
804.89	1699.81
805.06	1630.18
805.24	1683.43
805.41	1667.05
805.58	1632.23
805.76	1783.78
805.93	1644.52
806.10	1798.12
806.28	1726.44
806.45	1636.33
806.63	1783.78
806.80	1759.21
806.97	1662.95
807.15	1652.71
807.32	1656.81
807.49	1779.68
807.67	1691.62
807.84	1859.56
808.01	1665.00
808.19	1845.22
808.36	1843.17
808.54	1656.81
808.71	1681.38
808.88	1736.68
809.06	1763.30
809.23	1804.26
809.40	1681.38
809.58	1777.64
809.75	1734.63
809.92	1720.29
810.10	1839.08
810.27	1726.44
810.44	1720.29
810.62	1720.29
810.79	1683.43
810.96	1724.39
811.14	1687.53
811.31	1763.30
811.48	1691.62
811.66	1679.33
811.83	1789.92
812.00	1759.21
812.18	1705.96
812.35	1802.21
812.52	1732.58
812.69	1669.09
812.87	1650.66
813.04	1615.85
813.21	1681.38
813.39	1691.62
813.56	1712.10
813.73	1771.49
813.91	1650.66
814.08	1708.01
814.25	1708.01
814.42	1667.05
814.60	1691.62
814.77	1759.21
814.94	1830.88
815.12	1724.39
815.29	1724.39
815.46	1607.66
815.63	1665.00
815.81	1662.95
815.98	1624.04
816.15	1787.88
816.33	1832.93
816.50	1693.67
816.67	1757.16
816.84	1744.87
817.02	1628.14
817.19	1697.77
817.36	1667.05
817.53	1716.20
817.71	1720.29
817.88	1812.45
818.05	1730.53
818.22	1654.76
818.40	1787.88
818.57	1656.81
818.74	1624.04
818.91	1714.15
819.09	1818.60
819.26	1734.63
819.43	1648.61
819.60	1675.24
819.78	1730.53
819.95	1779.68
820.12	1650.66
820.29	1726.44
820.47	1832.93
820.64	1650.66
820.81	1658.85
820.98	1669.09
821.15	1771.49
821.33	1712.10
821.50	1583.08
821.67	1740.77
821.84	1738.73
822.02	1781.73
822.19	1728.49
822.36	1714.15
822.53	1693.67
822.70	1759.21
822.88	1675.24
823.05	1757.16
823.22	1683.43
823.39	1701.86
823.56	1697.77
823.74	1763.30
823.91	1642.47
824.08	1607.66
824.25	1673.19
824.42	1802.21
824.60	1673.19
824.77	1763.30
824.94	1701.86
825.11	1767.40
825.28	1619.94
825.45	1734.63
825.63	1730.53
825.80	1669.09
825.97	1748.97
826.14	1730.53
826.31	1632.23
826.48	1755.11
826.66	1636.33
826.83	1652.71
827.00	1746.92
827.17	1697.77
827.34	1757.16
827.51	1624.04
827.69	1755.11
827.86	1648.61
828.03	1687.53
828.20	1748.97
828.37	1701.86
828.54	1834.98
828.71	1716.20
828.89	1808.36
829.06	1693.67
829.23	1810.40
829.40	1640.42
829.57	1712.10
829.74	1656.81
829.91	1646.57
830.09	1693.67
830.26	1740.77
830.43	1734.63
830.60	1736.68
830.77	1773.54
830.94	1810.40
831.11	1804.26
831.28	1701.86
831.46	1789.92
831.63	1681.38
831.80	1794.02
831.97	1658.85
832.14	1660.90
832.31	1689.57
832.48	1648.61
832.65	1761.25
832.82	1720.29
832.99	1751.01
833.17	1652.71
833.34	1865.70
833.51	1789.92
833.68	1566.70
833.85	1771.49
834.02	1679.33
834.19	1699.81
834.36	1619.94
834.53	1738.73
834.70	1734.63
834.87	1714.15
835.04	1669.09
835.22	1691.62
835.39	1724.39
835.56	1646.57
835.73	1681.38
835.90	1779.68
836.07	1716.20
836.24	1804.26
836.41	1662.95
836.58	1644.52
836.75	1781.73
836.92	1736.68
837.09	1669.09
837.26	1734.63
837.43	1751.01
837.60	1718.25
837.77	1771.49
837.94	1716.20
838.12	1832.93
838.29	1654.76
838.46	1677.29
838.63	1652.71
838.80	1806.31
838.97	1726.44
839.14	1677.29
839.31	1689.57
839.48	1701.86
839.65	1705.96
839.82	1763.30
839.99	1751.01
840.16	1718.25
840.33	1728.49
840.50	1732.58
840.67	1693.67
840.84	1576.94
841.01	1671.14
841.18	1675.24
841.35	1652.71
841.52	1728.49
841.69	1781.73
841.86	1669.09
842.03	1675.24
842.20	1806.31
842.37	1716.20
842.54	1738.73
842.71	1712.10
842.88	1648.61
843.05	1726.44
843.22	1693.67
843.39	1693.67
843.56	1718.25
843.73	1708.01
843.90	1740.77
844.07	1738.73
844.24	1751.01
844.41	1746.92
844.58	1738.73
844.75	1712.10
844.92	1794.02
845.09	1712.10
845.26	1693.67
845.43	1761.25
845.60	1753.06
845.77	1771.49
845.94	1789.92
846.10	1800.16
846.27	1601.51
846.44	1621.99
846.61	1652.71
846.78	1708.01
846.95	1718.25
847.12	1744.87
847.29	1746.92
847.46	1644.52
847.63	1783.78
847.80	1660.90
847.97	1644.52
848.14	1767.40
848.31	1730.53
848.48	1638.38
848.65	1734.63
848.82	1675.24
848.98	1775.59
849.15	1748.97
849.32	1806.31
849.49	1824.74
849.66	1732.58
849.83	1736.68
850.00	1646.57
850.17	1748.97
850.34	1681.38
850.51	1714.15
850.68	1673.19
850.85	1912.80
851.01	1769.44
851.18	1767.40
851.35	1705.96
851.52	1734.63
851.69	1781.73
851.86	1632.23
852.03	1683.43
852.20	1777.64
852.37	1753.06
852.53	1540.07
852.70	1708.01
852.87	1693.67
853.04	1767.40
853.21	1681.38
853.38	1853.41
853.55	1794.02
853.72	1738.73
853.89	1701.86
854.05	1730.53
854.22	1726.44
854.39	1619.94
854.56	1736.68
854.73	1814.50
854.90	1685.48
855.07	1705.96
855.23	1669.09
855.40	1738.73
855.57	1751.01
855.74	1617.90
855.91	1839.08
856.08	1626.09
856.25	1658.85
856.41	1699.81
856.58	1705.96
856.75	1667.05
856.92	1658.85
857.09	1804.26
857.26	1619.94
857.42	1697.77
857.59	1759.21
857.76	1726.44
857.93	1736.68
858.10	1751.01
858.27	1701.86
858.43	1771.49
858.60	1687.53
858.77	1595.37
858.94	1701.86
859.11	1798.12
859.27	1642.47
859.44	1646.57
859.61	1812.45
859.78	1771.49
859.95	1712.10
860.12	1677.29
860.28	1877.99
860.45	1816.55
860.62	1662.95
860.79	1669.09
860.95	1675.24
861.12	1685.48
861.29	1638.38
861.46	1665.00
861.63	1683.43
861.79	1718.25
861.96	1701.86
862.13	1689.57
862.30	1761.25
862.47	1685.48
862.63	1685.48
862.80	1734.63
862.97	1779.68
863.14	1763.30
863.30	1802.21
863.47	1697.77
863.64	1804.26
863.81	1789.92
863.97	1619.94
864.14	1751.01
864.31	1710.05
864.48	1783.78
864.65	1607.66
864.81	1740.77
864.98	1675.24
865.15	1841.12
865.32	1773.54
865.48	1791.97
865.65	1761.25
865.82	1658.85
865.98	1726.44
866.15	1773.54
866.32	1638.38
866.49	1662.95
866.65	1787.88
866.82	1660.90
866.99	1757.16
867.16	1648.61
867.32	1636.33
867.49	1730.53
867.66	1689.57
867.83	1691.62
867.99	1677.29
868.16	1724.39
868.33	1628.14
868.49	1658.85
868.66	1738.73
868.83	1730.53
868.99	1769.44
869.16	1765.35
869.33	1796.07
869.50	1826.79
869.66	1736.68
869.83	1699.81
870.00	1662.95
870.16	1787.88
870.33	1693.67
870.50	1722.34
870.66	1720.29
870.83	1869.80
871.00	1624.04
871.17	1775.59
871.33	1753.06
871.50	1669.09
871.67	1716.20
871.83	1654.76
872.00	1783.78
872.17	1695.72
872.33	1775.59
872.50	1771.49
872.67	1701.86
872.83	1757.16
873.00	1781.73
873.17	1724.39
873.33	1734.63
873.50	1779.68
873.67	1658.85
873.83	1728.49
874.00	1681.38
874.16	1759.21
874.33	1728.49
874.50	1662.95
874.66	1705.96
874.83	1652.71
875.00	1734.63
875.16	1765.35
875.33	1783.78
875.50	1607.66
875.66	1644.52
875.83	1703.91
875.99	1816.55
876.16	1634.28
876.33	1667.05
876.49	1658.85
876.66	1773.54
876.83	1683.43
876.99	1595.37
877.16	1693.67
877.32	1701.86
877.49	1640.42
877.66	1638.38
877.82	1804.26
877.99	1677.29
878.15	1683.43
878.32	1740.77
878.49	1716.20
878.65	1697.77
878.82	1736.68
878.98	1628.14
879.15	1726.44
879.32	1828.84
879.48	1763.30
879.65	1689.57
879.81	1761.25
879.98	1693.67
880.15	1665.00
880.31	1753.06
880.48	1738.73
880.64	1765.35
880.81	1798.12
880.97	1765.35
881.14	1740.77
881.31	1650.66
881.47	1785.83
881.64	1703.91
881.80	1636.33
881.97	1830.88
882.13	1697.77
882.30	1605.61
882.47	1601.51
882.63	1636.33
882.80	1615.85
882.96	1710.05
883.13	1759.21
883.29	1658.85
883.46	1740.77
883.62	1771.49
883.79	1683.43
883.95	1787.88
884.12	1740.77
884.29	1763.30
884.45	1751.01
884.62	1767.40
884.78	1665.00
884.95	1804.26
885.11	1675.24
885.28	1800.16
885.44	1665.00
885.61	1728.49
885.77	1794.02
885.94	1714.15
886.10	1816.55
886.27	1720.29
886.43	1806.31
886.60	1908.71
886.76	1638.38
886.93	1746.92
887.09	1718.25
887.26	1630.18
887.42	1710.05
887.59	1757.16
887.75	1845.22
887.92	1699.81
888.08	1755.11
888.25	1820.64
888.41	1802.21
888.58	1697.77
888.74	1681.38
888.91	1646.57
>>>>>End Processed Spectral Data<<<<<
