SpectraSuite Data File
++++++++++++++++++++++++++++++++++++
Date: Mon Jun 06 12:52:37 CEST 2016
User: root
Dark Spectrum Present: No
Reference Spectrum Present: No
Number of Sampled Component Spectra: 1
Spectrometers: USB4C02835
Integration Time (usec): 100000 (USB4C02835)
Spectra Averaged: 1 (USB4C02835)
Boxcar Smoothing: 0 (USB4C02835)
Correct for Electrical Dark: No (USB4C02835)
Strobe/Lamp Enabled: No (USB4C02835)
Correct for Detector Non-linearity: No (USB4C02835)
Correct for Stray Light: No (USB4C02835)
Number of Pixels in Processed Spectrum: 3648
>>>>>Begin Processed Spectral Data<<<<<
177.47	1464.30
177.69	1464.30
177.91	1464.30
178.13	1439.72
178.36	1398.76
178.58	1605.61
178.80	1705.96
179.02	1615.85
179.24	1632.23
179.46	1708.01
179.68	1789.92
179.90	1701.86
180.13	1638.38
180.35	1638.38
180.57	1703.91
180.79	1638.38
181.01	1730.53
181.23	1779.68
181.45	1783.78
181.67	1710.05
181.90	1755.11
182.12	1681.38
182.34	1550.31
182.56	1802.21
182.78	1724.39
183.00	1710.05
183.22	1726.44
183.44	1673.19
183.66	1904.61
183.89	1802.21
184.11	1714.15
184.33	1722.34
184.55	1783.78
184.77	1714.15
184.99	1714.15
185.21	1724.39
185.43	1796.07
185.65	1689.57
185.87	1708.01
186.10	1871.84
186.32	1832.93
186.54	1734.63
186.76	1718.25
186.98	1755.11
187.20	1708.01
187.42	1677.29
187.64	1617.90
187.86	1630.18
188.08	1705.96
188.30	1644.52
188.52	1642.47
188.75	1804.26
188.97	1812.45
189.19	1726.44
189.41	1685.48
189.63	1662.95
189.85	1597.42
190.07	1632.23
190.29	1632.23
190.51	1724.39
190.73	1679.33
190.95	1746.92
191.17	1669.09
191.39	1660.90
191.61	1722.34
191.84	1656.81
192.06	1677.29
192.28	1601.51
192.50	1869.80
192.72	1767.40
192.94	1714.15
193.16	1816.55
193.38	1755.11
193.60	1636.33
193.82	1644.52
194.04	1794.02
194.26	1689.57
194.48	1767.40
194.70	1708.01
194.92	1718.25
195.14	1716.20
195.36	1738.73
195.58	1691.62
195.80	1691.62
196.02	1681.38
196.24	1738.73
196.46	1675.24
196.69	1609.70
196.91	1814.50
197.13	1587.18
197.35	1732.58
197.57	1841.12
197.79	1843.17
198.01	1789.92
198.23	1718.25
198.45	1794.02
198.67	1634.28
198.89	1716.20
199.11	1697.77
199.33	1624.04
199.55	1601.51
199.77	1722.34
199.99	1773.54
200.21	1679.33
200.43	1667.05
200.65	1574.89
200.87	1527.78
201.09	1718.25
201.31	1708.01
201.53	1669.09
201.75	1695.72
201.97	1683.43
202.19	1716.20
202.41	1730.53
202.63	1873.89
202.85	1738.73
203.07	1734.63
203.29	1669.09
203.51	1748.97
203.73	1650.66
203.95	1826.79
204.17	1617.90
204.39	1787.88
204.61	1701.86
204.83	1619.94
205.05	1662.95
205.27	1734.63
205.49	1796.07
205.71	1746.92
205.93	1669.09
206.15	1650.66
206.37	1736.68
206.59	1724.39
206.81	1621.99
207.03	1634.28
207.25	1638.38
207.47	1730.53
207.69	1683.43
207.91	1869.80
208.13	1689.57
208.34	1634.28
208.56	1617.90
208.78	1771.49
209.00	1570.79
209.22	1771.49
209.44	1685.48
209.66	1585.13
209.88	1689.57
210.10	1697.77
210.32	1615.85
210.54	1783.78
210.76	1720.29
210.98	1746.92
211.20	1650.66
211.42	1675.24
211.64	1724.39
211.86	1728.49
212.08	1728.49
212.30	1705.96
212.52	1562.60
212.74	1697.77
212.96	1738.73
213.17	1716.20
213.39	1755.11
213.61	1742.82
213.83	1697.77
214.05	1718.25
214.27	1722.34
214.49	1591.27
214.71	1607.66
214.93	1753.06
215.15	1675.24
215.37	1726.44
215.59	1656.81
215.81	1806.31
216.03	1765.35
216.24	1669.09
216.46	1716.20
216.68	1746.92
216.90	1779.68
217.12	1671.14
217.34	1638.38
217.56	1720.29
217.78	1757.16
218.00	1658.85
218.22	1736.68
218.44	1689.57
218.66	1669.09
218.87	1775.59
219.09	1640.42
219.31	1693.67
219.53	1673.19
219.75	1685.48
219.97	1677.29
220.19	1800.16
220.41	1748.97
220.63	1771.49
220.85	1736.68
221.06	1636.33
221.28	1775.59
221.50	1722.34
221.72	1693.67
221.94	1681.38
222.16	1650.66
222.38	1691.62
222.60	1816.55
222.82	1648.61
223.03	1703.91
223.25	1628.14
223.47	1714.15
223.69	1863.65
223.91	1763.30
224.13	1705.96
224.35	1654.76
224.57	1751.01
224.78	1744.87
225.00	1658.85
225.22	1724.39
225.44	1689.57
225.66	1675.24
225.88	1585.13
226.10	1791.97
226.32	1712.10
226.53	1841.12
226.75	1646.57
226.97	1640.42
227.19	1691.62
227.41	1658.85
227.63	1681.38
227.85	1677.29
228.06	1675.24
228.28	1685.48
228.50	1724.39
228.72	1673.19
228.94	1689.57
229.16	1613.80
229.37	1705.96
229.59	1716.20
229.81	1787.88
230.03	1683.43
230.25	1609.70
230.47	1558.50
230.69	1677.29
230.90	1689.57
231.12	1695.72
231.34	1669.09
231.56	1779.68
231.78	1656.81
232.00	1779.68
232.21	1626.09
232.43	1603.56
232.65	1607.66
232.87	1728.49
233.09	1636.33
233.30	1630.18
233.52	1720.29
233.74	1714.15
233.96	1677.29
234.18	1638.38
234.40	1703.91
234.61	1824.74
234.83	1660.90
235.05	1642.47
235.27	1789.92
235.49	1730.53
235.70	1712.10
235.92	1806.31
236.14	1771.49
236.36	1783.78
236.58	1710.05
236.79	1744.87
237.01	1787.88
237.23	1703.91
237.45	1748.97
237.67	1624.04
237.88	1667.05
238.10	1773.54
238.32	1685.48
238.54	1783.78
238.76	1669.09
238.97	1628.14
239.19	1757.16
239.41	1728.49
239.63	1759.21
239.85	1628.14
240.06	1687.53
240.28	1673.19
240.50	1800.16
240.72	1636.33
240.93	1669.09
241.15	1841.12
241.37	1585.13
241.59	1767.40
241.81	1724.39
242.02	1683.43
242.24	1730.53
242.46	1714.15
242.68	1744.87
242.89	1699.81
243.11	1718.25
243.33	1683.43
243.55	1724.39
243.76	1730.53
243.98	1732.58
244.20	1693.67
244.42	1699.81
244.64	1658.85
244.85	1603.56
245.07	1607.66
245.29	1703.91
245.51	1591.27
245.72	1685.48
245.94	1753.06
246.16	1732.58
246.38	1716.20
246.59	1726.44
246.81	1712.10
247.03	1708.01
247.24	1607.66
247.46	1740.77
247.68	1767.40
247.90	1693.67
248.11	1689.57
248.33	1720.29
248.55	1779.68
248.77	1730.53
248.98	1738.73
249.20	1789.92
249.42	1722.34
249.64	1728.49
249.85	1681.38
250.07	1662.95
250.29	1759.21
250.50	1753.06
250.72	1628.14
250.94	1759.21
251.16	1789.92
251.37	1755.11
251.59	1697.77
251.81	1716.20
252.02	1816.55
252.24	1630.18
252.46	1775.59
252.68	1712.10
252.89	1636.33
253.11	1632.23
253.33	1796.07
253.54	1660.90
253.76	1630.18
253.98	1710.05
254.20	1656.81
254.41	1564.65
254.63	1617.90
254.85	1630.18
255.06	1699.81
255.28	1763.30
255.50	1710.05
255.71	1708.01
255.93	1691.62
256.15	1677.29
256.36	1814.50
256.58	1601.51
256.80	1691.62
257.02	1736.68
257.23	1654.76
257.45	1718.25
257.67	1779.68
257.88	1615.85
258.10	1660.90
258.32	1656.81
258.53	1697.77
258.75	1753.06
258.97	1640.42
259.18	1734.63
259.40	1755.11
259.62	1867.75
259.83	1779.68
260.05	1718.25
260.27	1972.19
260.48	1701.86
260.70	1736.68
260.92	1759.21
261.13	1689.57
261.35	1767.40
261.57	1724.39
261.78	1570.79
262.00	1685.48
262.22	1687.53
262.43	1658.85
262.65	1691.62
262.86	1689.57
263.08	1867.75
263.30	1746.92
263.51	1583.08
263.73	1652.71
263.95	1769.44
264.16	1730.53
264.38	1685.48
264.60	1660.90
264.81	1708.01
265.03	1761.25
265.25	1775.59
265.46	1605.61
265.68	1732.58
265.89	1667.05
266.11	1640.42
266.33	1689.57
266.54	1824.74
266.76	1681.38
266.98	1761.25
267.19	1787.88
267.41	1746.92
267.62	1665.00
267.84	1658.85
268.06	1775.59
268.27	1673.19
268.49	1738.73
268.70	1728.49
268.92	1701.86
269.14	1630.18
269.35	1652.71
269.57	1718.25
269.79	1708.01
270.00	1630.18
270.22	1830.88
270.43	1722.34
270.65	1572.84
270.87	1751.01
271.08	1744.87
271.30	1693.67
271.51	1671.14
271.73	1701.86
271.95	1810.40
272.16	1703.91
272.38	1720.29
272.59	1669.09
272.81	1765.35
273.02	1693.67
273.24	1732.58
273.46	1742.82
273.67	1718.25
273.89	1615.85
274.10	1710.05
274.32	1720.29
274.54	1669.09
274.75	1693.67
274.97	1689.57
275.18	1628.14
275.40	1751.01
275.61	1658.85
275.83	1734.63
276.05	1615.85
276.26	1708.01
276.48	1685.48
276.69	1665.00
276.91	1665.00
277.12	1714.15
277.34	1724.39
277.55	1763.30
277.77	1683.43
277.99	1751.01
278.20	1677.29
278.42	1669.09
278.63	1677.29
278.85	1681.38
279.06	1591.27
279.28	1791.97
279.49	1763.30
279.71	1791.97
279.93	1673.19
280.14	1656.81
280.36	1681.38
280.57	1798.12
280.79	1697.77
281.00	1687.53
281.22	1658.85
281.43	1791.97
281.65	1513.45
281.86	1654.76
282.08	1718.25
282.29	1818.60
282.51	1619.94
282.73	1603.56
282.94	1648.61
283.16	1771.49
283.37	1777.64
283.59	1714.15
283.80	1826.79
284.02	1673.19
284.23	1699.81
284.45	1712.10
284.66	1638.38
284.88	1693.67
285.09	1705.96
285.31	1679.33
285.52	1781.73
285.74	1564.65
285.95	1693.67
286.17	1701.86
286.38	1724.39
286.60	1626.09
286.81	1665.00
287.03	1628.14
287.24	1732.58
287.46	1763.30
287.67	1701.86
287.89	1845.22
288.10	1671.14
288.32	1761.25
288.53	1767.40
288.75	1732.58
288.96	1736.68
289.18	1640.42
289.39	1662.95
289.61	1734.63
289.82	1708.01
290.04	1826.79
290.25	1703.91
290.47	1703.91
290.68	1753.06
290.90	1757.16
291.11	1609.70
291.33	1757.16
291.54	1564.65
291.76	1677.29
291.97	1771.49
292.18	1687.53
292.40	1685.48
292.61	1601.51
292.83	1812.45
293.04	1771.49
293.26	1748.97
293.47	1650.66
293.69	1605.61
293.90	1710.05
294.12	1814.50
294.33	1689.57
294.55	1652.71
294.76	1771.49
294.97	1759.21
295.19	1839.08
295.40	1738.73
295.62	1742.82
295.83	1753.06
296.05	1648.61
296.26	1771.49
296.48	1665.00
296.69	1636.33
296.90	1671.14
297.12	1791.97
297.33	1763.30
297.55	1720.29
297.76	1796.07
297.98	1716.20
298.19	1736.68
298.41	1648.61
298.62	1648.61
298.83	1755.11
299.05	1695.72
299.26	1701.86
299.48	1675.24
299.69	1714.15
299.90	1705.96
300.12	1640.42
300.33	1683.43
300.55	1652.71
300.76	1720.29
300.98	1648.61
301.19	1746.92
301.40	1718.25
301.62	1652.71
301.83	1761.25
302.05	1718.25
302.26	1783.78
302.47	1701.86
302.69	1654.76
302.90	1732.58
303.12	1576.94
303.33	1695.72
303.54	1722.34
303.76	1710.05
303.97	1757.16
304.19	1816.55
304.40	1636.33
304.61	1714.15
304.83	1808.36
305.04	1802.21
305.26	1708.01
305.47	1646.57
305.68	1755.11
305.90	1636.33
306.11	1714.15
306.33	1665.00
306.54	1658.85
306.75	1728.49
306.97	1597.42
307.18	1673.19
307.39	1624.04
307.61	1681.38
307.82	1693.67
308.04	1701.86
308.25	1638.38
308.46	1691.62
308.68	1712.10
308.89	1685.48
309.10	1665.00
309.32	1654.76
309.53	1630.18
309.74	1730.53
309.96	1751.01
310.17	1783.78
310.39	1693.67
310.60	1644.52
310.81	1630.18
311.03	1624.04
311.24	1716.20
311.45	1755.11
311.67	1832.93
311.88	1687.53
312.09	1683.43
312.31	1701.86
312.52	1687.53
312.73	1714.15
312.95	1705.96
313.16	1685.48
313.37	1763.30
313.59	1746.92
313.80	1755.11
314.01	1730.53
314.23	1671.14
314.44	1669.09
314.65	1611.75
314.87	1660.90
315.08	1753.06
315.29	1628.14
315.51	1697.77
315.72	1621.99
315.93	1787.88
316.15	1853.41
316.36	1771.49
316.57	1798.12
316.79	1728.49
317.00	1691.62
317.21	1687.53
317.43	1693.67
317.64	1693.67
317.85	1644.52
318.07	1656.81
318.28	1660.90
318.49	1794.02
318.70	1929.19
318.92	1796.07
319.13	1849.32
319.34	1904.61
319.56	1765.35
319.77	1804.26
319.98	1748.97
320.20	1759.21
320.41	1728.49
320.62	1695.72
320.83	1611.75
321.05	1849.32
321.26	1705.96
321.47	1716.20
321.69	1765.35
321.90	1636.33
322.11	1675.24
322.32	1798.12
322.54	1714.15
322.75	1730.53
322.96	1865.70
323.18	1607.66
323.39	1593.32
323.60	1636.33
323.81	1798.12
324.03	1652.71
324.24	1660.90
324.45	1689.57
324.66	1644.52
324.88	1779.68
325.09	1834.98
325.30	1648.61
325.52	1730.53
325.73	1671.14
325.94	1671.14
326.15	1675.24
326.37	1650.66
326.58	1734.63
326.79	1769.44
327.00	1640.42
327.22	1693.67
327.43	1624.04
327.64	1587.18
327.85	1705.96
328.07	1730.53
328.28	1783.78
328.49	1615.85
328.70	1708.01
328.92	1746.92
329.13	1699.81
329.34	1724.39
329.55	1748.97
329.76	1757.16
329.98	1761.25
330.19	1802.21
330.40	1697.77
330.61	1658.85
330.83	1751.01
331.04	1681.38
331.25	1710.05
331.46	1656.81
331.68	1683.43
331.89	1771.49
332.10	1765.35
332.31	1628.14
332.52	1660.90
332.74	1689.57
332.95	1644.52
333.16	1677.29
333.37	1755.11
333.58	1658.85
333.80	1642.47
334.01	1591.27
334.22	1695.72
334.43	1615.85
334.64	1662.95
334.86	1667.05
335.07	1644.52
335.28	1767.40
335.49	1585.13
335.70	1710.05
335.92	1845.22
336.13	1896.42
336.34	1746.92
336.55	1710.05
336.76	1642.47
336.98	1591.27
337.19	1701.86
337.40	1755.11
337.61	1777.64
337.82	1681.38
338.04	1765.35
338.25	1650.66
338.46	1611.75
338.67	1644.52
338.88	1619.94
339.09	1660.90
339.31	1687.53
339.52	1634.28
339.73	1654.76
339.94	1632.23
340.15	1685.48
340.36	1687.53
340.58	1662.95
340.79	1646.57
341.00	1769.44
341.21	1587.18
341.42	1791.97
341.63	1710.05
341.85	1804.26
342.06	1742.82
342.27	1574.89
342.48	1740.77
342.69	1665.00
342.90	1656.81
343.12	1701.86
343.33	1648.61
343.54	1742.82
343.75	1773.54
343.96	1730.53
344.17	1689.57
344.38	1683.43
344.60	1632.23
344.81	1617.90
345.02	1708.01
345.23	1742.82
345.44	1820.64
345.65	1763.30
345.86	1742.82
346.07	1593.32
346.29	1720.29
346.50	1675.24
346.71	1722.34
346.92	1757.16
347.13	1787.88
347.34	1712.10
347.55	1714.15
347.76	1662.95
347.98	1660.90
348.19	1669.09
348.40	1765.35
348.61	1628.14
348.82	1804.26
349.03	1808.36
349.24	1626.09
349.45	1730.53
349.66	1632.23
349.88	1740.77
350.09	1595.37
350.30	1748.97
350.51	1791.97
350.72	1720.29
350.93	1689.57
351.14	1689.57
351.35	1808.36
351.56	1718.25
351.77	1748.97
351.99	1742.82
352.20	1771.49
352.41	1753.06
352.62	1619.94
352.83	1802.21
353.04	1652.71
353.25	1771.49
353.46	1742.82
353.67	1759.21
353.88	1574.89
354.09	1781.73
354.30	1787.88
354.52	1804.26
354.73	1652.71
354.94	1656.81
355.15	1677.29
355.36	1834.98
355.57	1667.05
355.78	1734.63
355.99	1671.14
356.20	1648.61
356.41	1765.35
356.62	1726.44
356.83	1710.05
357.04	1736.68
357.25	1617.90
357.46	1648.61
357.68	1677.29
357.89	1646.57
358.10	1628.14
358.31	1701.86
358.52	1761.25
358.73	1658.85
358.94	1681.38
359.15	1746.92
359.36	1746.92
359.57	1728.49
359.78	1683.43
359.99	1691.62
360.20	1632.23
360.41	1691.62
360.62	1759.21
360.83	1648.61
361.04	1722.34
361.25	1665.00
361.46	1724.39
361.67	1771.49
361.88	1650.66
362.09	1710.05
362.30	1730.53
362.51	1601.51
362.72	1705.96
362.93	1763.30
363.14	1804.26
363.35	1714.15
363.56	1667.05
363.78	1785.83
363.99	1732.58
364.20	1671.14
364.41	1718.25
364.62	1808.36
364.83	1665.00
365.04	1671.14
365.25	1689.57
365.46	1804.26
365.67	1730.53
365.88	1648.61
366.09	1714.15
366.30	1771.49
366.51	1751.01
366.72	1585.13
366.93	1734.63
367.14	1720.29
367.35	1746.92
367.56	1691.62
367.77	1761.25
367.98	1636.33
368.18	1656.81
368.39	1679.33
368.60	1699.81
368.81	1796.07
369.02	1726.44
369.23	1669.09
369.44	1652.71
369.65	1632.23
369.86	1777.64
370.07	1697.77
370.28	1632.23
370.49	1712.10
370.70	1808.36
370.91	1656.81
371.12	1736.68
371.33	1726.44
371.54	1708.01
371.75	1818.60
371.96	1583.08
372.17	1671.14
372.38	1714.15
372.59	1728.49
372.80	1630.18
373.01	1658.85
373.22	1748.97
373.43	1701.86
373.64	1642.47
373.85	1656.81
374.06	1777.64
374.26	1746.92
374.47	1673.19
374.68	1826.79
374.89	1732.58
375.10	1718.25
375.31	1779.68
375.52	1687.53
375.73	1765.35
375.94	1687.53
376.15	1732.58
376.36	1652.71
376.57	1738.73
376.78	1726.44
376.99	1730.53
377.20	1769.44
377.40	1607.66
377.61	1818.60
377.82	1691.62
378.03	1767.40
378.24	1691.62
378.45	1671.14
378.66	1646.57
378.87	1591.27
379.08	1640.42
379.29	1683.43
379.50	1763.30
379.71	1632.23
379.91	1785.83
380.12	1693.67
380.33	1757.16
380.54	1689.57
380.75	1712.10
380.96	1671.14
381.17	1755.11
381.38	1722.34
381.59	1654.76
381.80	1744.87
382.00	1775.59
382.21	1742.82
382.42	1830.88
382.63	1886.18
382.84	1746.92
383.05	1769.44
383.26	1865.70
383.47	1673.19
383.68	1761.25
383.88	1722.34
384.09	1742.82
384.30	1718.25
384.51	1722.34
384.72	1662.95
384.93	1665.00
385.14	1697.77
385.35	1843.17
385.55	1613.80
385.76	1849.32
385.97	1703.91
386.18	1624.04
386.39	1607.66
386.60	1718.25
386.81	1718.25
387.02	1624.04
387.22	1628.14
387.43	1832.93
387.64	1763.30
387.85	1845.22
388.06	2254.81
388.27	4278.21
388.48	6739.87
388.68	8013.70
388.89	9738.09
389.10	9906.02
389.31	8783.74
389.52	7710.60
389.73	6750.10
389.93	6143.91
390.14	6016.93
390.35	5148.59
390.56	4446.14
390.77	3680.20
390.98	3006.42
391.18	2570.20
391.39	2152.42
391.60	1900.52
391.81	1855.46
392.02	1712.10
392.23	1861.60
392.43	1712.10
392.64	1769.44
392.85	1781.73
393.06	1830.88
393.27	1736.68
393.47	1697.77
393.68	1708.01
393.89	1765.35
394.10	1728.49
394.31	1712.10
394.52	1654.76
394.72	1699.81
394.93	1830.88
395.14	1611.75
395.35	1703.91
395.56	1667.05
395.76	1724.39
395.97	1734.63
396.18	1853.41
396.39	1804.26
396.60	2000.87
396.80	1812.45
397.01	1806.31
397.22	1798.12
397.43	1800.16
397.64	1669.09
397.84	1794.02
398.05	1800.16
398.26	1734.63
398.47	1785.83
398.67	1773.54
398.88	1730.53
399.09	1763.30
399.30	1736.68
399.51	1724.39
399.71	1667.05
399.92	1642.47
400.13	1705.96
400.34	1681.38
400.54	1660.90
400.75	1820.64
400.96	1705.96
401.17	1773.54
401.37	1726.44
401.58	1691.62
401.79	1697.77
402.00	1849.32
402.21	1966.05
402.41	1906.66
402.62	2025.44
402.83	2066.40
403.04	1988.58
403.24	2074.59
403.45	1826.79
403.66	1978.34
403.87	1867.75
404.07	1949.67
404.28	1951.71
404.49	1869.80
404.70	1746.92
404.90	1757.16
405.11	1757.16
405.32	1701.86
405.52	1632.23
405.73	1685.48
405.94	1644.52
406.15	1697.77
406.35	1730.53
406.56	1744.87
406.77	1746.92
406.98	1722.34
407.18	1699.81
407.39	1779.68
407.60	1669.09
407.80	1740.77
408.01	1701.86
408.22	1701.86
408.43	1638.38
408.63	1742.82
408.84	1767.40
409.05	1787.88
409.25	1658.85
409.46	1679.33
409.67	1667.05
409.88	1662.95
410.08	1669.09
410.29	1665.00
410.50	1796.07
410.70	1716.20
410.91	1591.27
411.12	1677.29
411.32	1679.33
411.53	1681.38
411.74	1796.07
411.95	1730.53
412.15	1730.53
412.36	1783.78
412.57	1800.16
412.77	1783.78
412.98	1701.86
413.19	1624.04
413.39	1722.34
413.60	1757.16
413.81	1800.16
414.01	1677.29
414.22	1710.05
414.43	1810.40
414.63	1705.96
414.84	1830.88
415.05	1691.62
415.25	1587.18
415.46	1705.96
415.67	1613.80
415.87	1695.72
416.08	1775.59
416.29	1773.54
416.49	1667.05
416.70	1654.76
416.91	1648.61
417.11	1726.44
417.32	1738.73
417.53	1779.68
417.73	1722.34
417.94	1710.05
418.15	1699.81
418.35	1703.91
418.56	1730.53
418.77	1814.50
418.97	1734.63
419.18	1734.63
419.38	1595.37
419.59	1685.48
419.80	1812.45
420.00	1726.44
420.21	1671.14
420.42	1765.35
420.62	1734.63
420.83	1646.57
421.04	1675.24
421.24	1669.09
421.45	1718.25
421.65	1714.15
421.86	1673.19
422.07	1742.82
422.27	1720.29
422.48	1695.72
422.69	1675.24
422.89	1732.58
423.10	1693.67
423.30	1578.98
423.51	1736.68
423.72	1617.90
423.92	1712.10
424.13	1665.00
424.33	1716.20
424.54	1775.59
424.75	1742.82
424.95	1828.84
425.16	1738.73
425.36	1673.19
425.57	1757.16
425.78	1746.92
425.98	1763.30
426.19	1632.23
426.39	1708.01
426.60	1716.20
426.81	1798.12
427.01	1763.30
427.22	1746.92
427.42	1601.51
427.63	1697.77
427.83	1689.57
428.04	1882.08
428.25	1744.87
428.45	1765.35
428.66	1728.49
428.86	1708.01
429.07	1693.67
429.28	1665.00
429.48	1599.46
429.69	1650.66
429.89	1744.87
430.10	1681.38
430.30	1763.30
430.51	1771.49
430.71	1597.42
430.92	1648.61
431.13	1626.09
431.33	1771.49
431.54	1681.38
431.74	1794.02
431.95	1755.11
432.15	1667.05
432.36	1720.29
432.56	1828.84
432.77	1781.73
432.98	1755.11
433.18	1693.67
433.39	1736.68
433.59	1695.72
433.80	1902.56
434.00	1845.22
434.21	1755.11
434.41	1767.40
434.62	1906.66
434.82	1640.42
435.03	1685.48
435.23	1714.15
435.44	1642.47
435.64	1785.83
435.85	1804.26
436.06	1755.11
436.26	1742.82
436.47	1740.77
436.67	1718.25
436.88	1730.53
437.08	1695.72
437.29	1806.31
437.49	1734.63
437.70	1800.16
437.90	1646.57
438.11	1877.99
438.31	1734.63
438.52	1837.03
438.72	1837.03
438.93	1892.32
439.13	1851.36
439.34	1820.64
439.54	1675.24
439.75	1677.29
439.95	1853.41
440.16	1806.31
440.36	1726.44
440.57	1832.93
440.77	1740.77
440.98	1675.24
441.18	1755.11
441.39	1648.61
441.59	1720.29
441.80	1804.26
442.00	1718.25
442.21	1689.57
442.41	1673.19
442.62	1722.34
442.82	1681.38
443.02	1769.44
443.23	1675.24
443.43	1699.81
443.64	1832.93
443.84	1718.25
444.05	1851.36
444.25	1705.96
444.46	1769.44
444.66	1738.73
444.87	1865.70
445.07	1640.42
445.28	1720.29
445.48	1814.50
445.69	1798.12
445.89	1871.84
446.09	1755.11
446.30	1978.34
446.50	2527.19
446.71	3721.16
446.91	4349.89
447.12	4790.20
447.32	4779.96
447.53	4429.76
447.73	3962.82
447.93	3565.51
448.14	3387.34
448.34	3190.74
448.55	2869.20
448.75	2883.54
448.96	2709.46
449.16	2369.50
449.36	2334.68
449.57	2064.35
449.77	1857.51
449.98	1775.59
450.18	1783.78
450.39	1818.60
450.59	1769.44
450.79	1689.57
451.00	1724.39
451.20	1824.74
451.41	1746.92
451.61	1714.15
451.81	1714.15
452.02	1699.81
452.22	1740.77
452.43	1685.48
452.63	1689.57
452.84	1779.68
453.04	1683.43
453.24	1724.39
453.45	1607.66
453.65	1720.29
453.86	1718.25
454.06	1732.58
454.26	1751.01
454.47	1658.85
454.67	1740.77
454.87	1685.48
455.08	1667.05
455.28	1845.22
455.49	1718.25
455.69	1742.82
455.89	1853.41
456.10	1832.93
456.30	1718.25
456.51	1802.21
456.71	1714.15
456.91	1705.96
457.12	1763.30
457.32	1716.20
457.52	1708.01
457.73	1701.86
457.93	1783.78
458.14	1693.67
458.34	1710.05
458.54	1736.68
458.75	1697.77
458.95	1746.92
459.15	1724.39
459.36	1687.53
459.56	1753.06
459.76	1904.61
459.97	1714.15
460.17	1722.34
460.37	1808.36
460.58	1681.38
460.78	1798.12
460.99	1724.39
461.19	1718.25
461.39	1599.46
461.60	1693.67
461.80	1771.49
462.00	1650.66
462.21	1738.73
462.41	1665.00
462.61	1677.29
462.82	1693.67
463.02	1738.73
463.22	1798.12
463.43	1753.06
463.63	1755.11
463.83	1730.53
464.04	1806.31
464.24	1675.24
464.44	1648.61
464.64	1740.77
464.85	1779.68
465.05	1798.12
465.25	1732.58
465.46	1773.54
465.66	1763.30
465.86	1728.49
466.07	1722.34
466.27	1763.30
466.47	1703.91
466.68	1630.18
466.88	1767.40
467.08	1748.97
467.29	1759.21
467.49	1689.57
467.69	1708.01
467.89	1757.16
468.10	1632.23
468.30	1699.81
468.50	1806.31
468.71	1757.16
468.91	1626.09
469.11	1740.77
469.31	1710.05
469.52	1609.70
469.72	1808.36
469.92	1771.49
470.13	1738.73
470.33	1736.68
470.53	1869.80
470.73	2152.42
470.94	2291.68
471.14	2385.88
471.34	2549.72
471.54	2443.23
471.75	2158.56
471.95	2123.74
472.15	2037.73
472.36	2070.50
472.56	2113.50
472.76	2099.17
472.96	1961.95
473.17	1968.10
473.37	1933.28
473.57	1855.46
473.77	1824.74
473.98	1787.88
474.18	1701.86
474.38	1871.84
474.58	1726.44
474.79	1730.53
474.99	1677.29
475.19	1779.68
475.39	1687.53
475.60	1703.91
475.80	1697.77
476.00	1777.64
476.20	1740.77
476.41	1800.16
476.61	1810.40
476.81	1763.30
477.01	1824.74
477.21	1775.59
477.42	1757.16
477.62	1744.87
477.82	1736.68
478.02	1679.33
478.23	1773.54
478.43	1714.15
478.63	1646.57
478.83	1736.68
479.03	1763.30
479.24	1841.12
479.44	1773.54
479.64	1681.38
479.84	1644.52
480.04	1644.52
480.25	1722.34
480.45	1726.44
480.65	1703.91
480.85	1746.92
481.06	1710.05
481.26	1779.68
481.46	1755.11
481.66	1720.29
481.86	1669.09
482.06	1808.36
482.27	1779.68
482.47	1691.62
482.67	1796.07
482.87	1732.58
483.07	1751.01
483.28	1583.08
483.48	1617.90
483.68	1691.62
483.88	1660.90
484.08	1558.50
484.29	1601.51
484.49	1785.83
484.69	1691.62
484.89	1849.32
485.09	1746.92
485.29	1738.73
485.50	1806.31
485.70	1683.43
485.90	1810.40
486.10	1736.68
486.30	1763.30
486.50	1812.45
486.71	1736.68
486.91	1789.92
487.11	1748.97
487.31	1642.47
487.51	1738.73
487.71	1644.52
487.91	1638.38
488.12	1613.80
488.32	1644.52
488.52	1689.57
488.72	1601.51
488.92	1701.86
489.12	1796.07
489.32	1693.67
489.53	1644.52
489.73	1619.94
489.93	1828.84
490.13	1697.77
490.33	1589.22
490.53	1665.00
490.73	1808.36
490.94	1701.86
491.14	1701.86
491.34	1859.56
491.54	2090.98
491.74	2557.91
491.94	2883.54
492.14	2951.12
492.34	2928.60
492.54	2793.43
492.75	2537.43
492.95	2408.41
493.15	2238.43
493.35	2303.96
493.55	2230.24
493.75	2185.18
493.95	2138.08
494.15	2056.16
494.35	1896.42
494.56	1884.13
494.76	1859.56
494.96	1755.11
495.16	1742.82
495.36	1765.35
495.56	1699.81
495.76	1701.86
495.96	1800.16
496.16	1705.96
496.36	1834.98
496.56	1746.92
496.77	1759.21
496.97	1640.42
497.17	1730.53
497.37	1599.46
497.57	1728.49
497.77	1785.83
497.97	1728.49
498.17	1751.01
498.37	1619.94
498.57	1667.05
498.77	1665.00
498.97	1787.88
499.17	1748.97
499.38	1677.29
499.58	1746.92
499.78	1650.66
499.98	1837.03
500.18	1667.05
500.38	1751.01
500.58	1947.62
500.78	2514.91
500.98	4503.48
501.18	5932.97
501.38	6733.72
501.58	7022.48
501.78	6735.77
501.98	5406.64
502.18	5126.07
502.38	4417.47
502.58	4181.95
502.78	3731.40
502.98	3620.81
503.18	3536.84
503.38	3055.57
503.59	2815.96
503.79	2729.94
503.99	2480.09
504.19	2277.34
504.39	2224.09
504.59	2240.48
504.79	2158.56
504.99	2062.30
505.19	1886.18
505.39	1898.47
505.59	1902.56
505.79	1884.13
505.99	1796.07
506.19	1789.92
506.39	1863.65
506.59	1763.30
506.79	1742.82
506.99	1812.45
507.19	1744.87
507.39	1699.81
507.59	1693.67
507.79	1650.66
507.99	1667.05
508.19	1708.01
508.39	1671.14
508.59	1791.97
508.79	1810.40
508.99	1724.39
509.19	1755.11
509.39	1796.07
509.59	1615.85
509.79	1650.66
509.99	1642.47
510.19	1912.80
510.39	1771.49
510.59	1775.59
510.79	1617.90
510.99	1712.10
511.19	1734.63
511.39	1789.92
511.59	1724.39
511.79	1816.55
511.99	1742.82
512.19	1837.03
512.38	1767.40
512.58	1722.34
512.78	1755.11
512.98	1779.68
513.18	1730.53
513.38	1621.99
513.58	1851.36
513.78	1650.66
513.98	1763.30
514.18	1773.54
514.38	1789.92
514.58	1796.07
514.78	1703.91
514.98	1650.66
515.18	1665.00
515.38	1669.09
515.58	1753.06
515.78	1755.11
515.98	1708.01
516.18	1732.58
516.38	1722.34
516.57	1701.86
516.77	1660.90
516.97	1722.34
517.17	1708.01
517.37	1648.61
517.57	1800.16
517.77	1746.92
517.97	1685.48
518.17	1828.84
518.37	1665.00
518.57	1759.21
518.77	1736.68
518.97	1769.44
519.16	1767.40
519.36	1699.81
519.56	1679.33
519.76	1759.21
519.96	1708.01
520.16	1751.01
520.36	1667.05
520.56	1777.64
520.76	1667.05
520.96	1718.25
521.16	1773.54
521.35	1755.11
521.55	1849.32
521.75	1794.02
521.95	1683.43
522.15	1763.30
522.35	1658.85
522.55	1722.34
522.75	1769.44
522.95	1740.77
523.14	1714.15
523.34	1714.15
523.54	1720.29
523.74	1814.50
523.94	1728.49
524.14	1642.47
524.34	1755.11
524.54	1800.16
524.73	1722.34
524.93	1730.53
525.13	1773.54
525.33	1619.94
525.53	1828.84
525.73	1818.60
525.93	1771.49
526.13	1673.19
526.32	1714.15
526.52	1777.64
526.72	1675.24
526.92	1683.43
527.12	1753.06
527.32	1691.62
527.52	1744.87
527.71	1759.21
527.91	1746.92
528.11	1718.25
528.31	1726.44
528.51	1726.44
528.71	1757.16
528.90	1761.25
529.10	1714.15
529.30	1824.74
529.50	1619.94
529.70	1742.82
529.90	1785.83
530.09	1746.92
530.29	1658.85
530.49	1718.25
530.69	1832.93
530.89	1763.30
531.09	1787.88
531.28	1656.81
531.48	1746.92
531.68	1726.44
531.88	1705.96
532.08	1748.97
532.28	1708.01
532.47	1789.92
532.67	1736.68
532.87	1718.25
533.07	1667.05
533.27	1810.40
533.46	1767.40
533.66	1701.86
533.86	1769.44
534.06	1679.33
534.26	1744.87
534.45	1646.57
534.65	1771.49
534.85	1744.87
535.05	1716.20
535.25	1832.93
535.44	1699.81
535.64	1746.92
535.84	1703.91
536.04	1710.05
536.24	1632.23
536.43	1767.40
536.63	1787.88
536.83	1767.40
537.03	1716.20
537.22	1660.90
537.42	1671.14
537.62	1691.62
537.82	1628.14
538.02	1812.45
538.21	1804.26
538.41	1880.04
538.61	1791.97
538.81	1693.67
539.00	1765.35
539.20	1576.94
539.40	1714.15
539.60	1720.29
539.79	1837.03
539.99	1748.97
540.19	1634.28
540.39	1724.39
540.58	1787.88
540.78	1804.26
540.98	1771.49
541.18	1802.21
541.37	1740.77
541.57	1773.54
541.77	1753.06
541.97	1710.05
542.16	1624.04
542.36	1652.71
542.56	1826.79
542.76	1830.88
542.95	1732.58
543.15	1781.73
543.35	1767.40
543.54	1599.46
543.74	1701.86
543.94	1857.51
544.14	1740.77
544.33	1794.02
544.53	1710.05
544.73	1759.21
544.93	1693.67
545.12	1816.55
545.32	1705.96
545.52	1656.81
545.71	1697.77
545.91	1650.66
546.11	1728.49
546.30	1701.86
546.50	1820.64
546.70	1732.58
546.90	1703.91
547.09	1568.74
547.29	1771.49
547.49	1751.01
547.68	1742.82
547.88	1746.92
548.08	1714.15
548.27	2215.90
548.47	1744.87
548.67	1751.01
548.87	1830.88
549.06	1748.97
549.26	1746.92
549.46	1775.59
549.65	1650.66
549.85	1744.87
550.05	1708.01
550.24	1626.09
550.44	1681.38
550.64	1781.73
550.83	1787.88
551.03	1794.02
551.23	1824.74
551.42	1779.68
551.62	1798.12
551.82	1759.21
552.01	1755.11
552.21	1785.83
552.41	1773.54
552.60	1783.78
552.80	1820.64
553.00	1628.14
553.19	1724.39
553.39	1877.99
553.59	1691.62
553.78	1736.68
553.98	1802.21
554.17	1673.19
554.37	1708.01
554.57	1720.29
554.76	1658.85
554.96	1714.15
555.16	1708.01
555.35	1724.39
555.55	1728.49
555.75	1753.06
555.94	1832.93
556.14	1703.91
556.33	1699.81
556.53	1695.72
556.73	1714.15
556.92	1753.06
557.12	1816.55
557.32	1839.08
557.51	1820.64
557.71	1777.64
557.90	1820.64
558.10	1773.54
558.30	1783.78
558.49	1716.20
558.69	1724.39
558.88	1714.15
559.08	1695.72
559.28	1726.44
559.47	1693.67
559.67	1763.30
559.86	1830.88
560.06	1716.20
560.26	1769.44
560.45	1738.73
560.65	1689.57
560.84	1787.88
561.04	1665.00
561.24	1759.21
561.43	1689.57
561.63	1769.44
561.82	1777.64
562.02	1759.21
562.22	1658.85
562.41	1679.33
562.61	1751.01
562.80	1673.19
563.00	1910.75
563.19	1716.20
563.39	1761.25
563.59	1744.87
563.78	1697.77
563.98	1708.01
564.17	1669.09
564.37	1687.53
564.56	1779.68
564.76	1669.09
564.96	1857.51
565.15	1775.59
565.35	1910.75
565.54	1753.06
565.74	1796.07
565.93	1779.68
566.13	1771.49
566.32	1753.06
566.52	1757.16
566.71	1724.39
566.91	1796.07
567.11	1722.34
567.30	1628.14
567.50	1740.77
567.69	1781.73
567.89	1648.61
568.08	1712.10
568.28	1669.09
568.47	1699.81
568.67	1757.16
568.86	1681.38
569.06	1841.12
569.25	1699.81
569.45	1566.70
569.64	1746.92
569.84	1748.97
570.04	1753.06
570.23	1722.34
570.43	1658.85
570.62	1730.53
570.82	1892.32
571.01	1660.90
571.21	1658.85
571.40	1751.01
571.60	1804.26
571.79	1705.96
571.99	1740.77
572.18	1693.67
572.38	1746.92
572.57	1738.73
572.77	1796.07
572.96	1873.89
573.16	1734.63
573.35	1703.91
573.55	1810.40
573.74	1771.49
573.94	1775.59
574.13	1705.96
574.33	1773.54
574.52	1798.12
574.71	1767.40
574.91	1740.77
575.10	1722.34
575.30	1624.04
575.49	1677.29
575.69	1681.38
575.88	1771.49
576.08	1712.10
576.27	1771.49
576.47	1732.58
576.66	1841.12
576.86	1808.36
577.05	1675.24
577.25	1814.50
577.44	1910.75
577.64	1728.49
577.83	1884.13
578.02	1681.38
578.22	1828.84
578.41	1877.99
578.61	1746.92
578.80	1730.53
579.00	1748.97
579.19	1755.11
579.39	1779.68
579.58	1824.74
579.77	1697.77
579.97	1781.73
580.16	1855.46
580.36	1916.90
580.55	1748.97
580.75	1769.44
580.94	1767.40
581.13	1888.23
581.33	1794.02
581.52	1740.77
581.72	1818.60
581.91	1841.12
582.11	1673.19
582.30	1867.75
582.49	1726.44
582.69	1791.97
582.88	1816.55
583.08	1761.25
583.27	1763.30
583.47	1714.15
583.66	1701.86
583.85	1759.21
584.05	1736.68
584.24	1775.59
584.44	1775.59
584.63	1796.07
584.82	1847.27
585.02	1828.84
585.21	1875.94
585.41	1814.50
585.60	1794.02
585.79	1886.18
585.99	1959.91
586.18	1865.70
586.37	2162.66
586.57	3370.96
586.76	10045.29
586.96	24706.70
587.15	34751.98
587.34	40584.60
587.54	42413.43
587.73	36662.74
587.93	26244.72
588.12	21808.82
588.31	18376.42
588.51	16310.02
588.70	15146.78
588.89	14069.55
589.09	12552.00
589.28	10878.81
589.47	9529.20
589.67	8038.28
589.86	6514.59
590.06	5025.72
590.25	3837.89
590.44	3157.97
590.64	2615.26
590.83	2265.05
591.02	2152.42
591.22	1951.71
591.41	1869.80
591.60	1800.16
591.80	1880.04
591.99	1771.49
592.18	1738.73
592.38	1806.31
592.57	1710.05
592.76	1804.26
592.96	1804.26
593.15	1669.09
593.34	1724.39
593.54	1728.49
593.73	1845.22
593.92	1755.11
594.12	1720.29
594.31	1732.58
594.50	1798.12
594.70	1853.41
594.89	1880.04
595.08	1669.09
595.28	1787.88
595.47	1877.99
595.66	1779.68
595.86	1669.09
596.05	1708.01
596.24	1699.81
596.43	1865.70
596.63	1839.08
596.82	1816.55
597.01	1761.25
597.21	1861.60
597.40	1777.64
597.59	1726.44
597.79	1728.49
597.98	1783.78
598.17	1796.07
598.36	1718.25
598.56	1730.53
598.75	1769.44
598.94	1779.68
599.14	1734.63
599.33	1697.77
599.52	1822.69
599.71	1771.49
599.91	1759.21
600.10	1730.53
600.29	1683.43
600.48	1814.50
600.68	1705.96
600.87	1691.62
601.06	1734.63
601.26	1775.59
601.45	1763.30
601.64	1806.31
601.83	1781.73
602.03	1728.49
602.22	1665.00
602.41	1701.86
602.60	1947.62
602.80	1806.31
602.99	1773.54
603.18	1765.35
603.37	1732.58
603.57	1679.33
603.76	1732.58
603.95	1890.28
604.14	1765.35
604.34	1728.49
604.53	1726.44
604.72	1703.91
604.91	1806.31
605.10	1769.44
605.30	1624.04
605.49	1880.04
605.68	1730.53
605.87	1759.21
606.07	1677.29
606.26	1767.40
606.45	1728.49
606.64	1763.30
606.84	1740.77
607.03	1816.55
607.22	1798.12
607.41	1705.96
607.60	1779.68
607.80	1771.49
607.99	1683.43
608.18	1656.81
608.37	1755.11
608.56	1681.38
608.76	1771.49
608.95	1834.98
609.14	1720.29
609.33	1732.58
609.52	1773.54
609.72	1744.87
609.91	1837.03
610.10	1759.21
610.29	1898.47
610.48	1806.31
610.68	1785.83
610.87	1755.11
611.06	1757.16
611.25	1667.05
611.44	1832.93
611.63	1730.53
611.83	1837.03
612.02	1693.67
612.21	1718.25
612.40	1605.61
612.59	1601.51
612.79	1654.76
612.98	1724.39
613.17	1816.55
613.36	1779.68
613.55	1816.55
613.74	1681.38
613.93	1722.34
614.13	1742.82
614.32	1765.35
614.51	1777.64
614.70	1724.39
614.89	1636.33
615.08	1714.15
615.28	2076.64
615.47	1599.46
615.66	1769.44
615.85	1660.90
616.04	1841.12
616.23	1744.87
616.42	1708.01
616.62	1732.58
616.81	1689.57
617.00	1660.90
617.19	1734.63
617.38	1699.81
617.57	1761.25
617.76	1722.34
617.95	1714.15
618.15	1732.58
618.34	1798.12
618.53	1638.38
618.72	1791.97
618.91	1748.97
619.10	1791.97
619.29	1677.29
619.48	1644.52
619.68	1624.04
619.87	1728.49
620.06	1632.23
620.25	1798.12
620.44	1771.49
620.63	1765.35
620.82	1769.44
621.01	1703.91
621.20	1734.63
621.39	1632.23
621.59	1708.01
621.78	1708.01
621.97	1751.01
622.16	1714.15
622.35	1626.09
622.54	1773.54
622.73	1781.73
622.92	1619.94
623.11	1746.92
623.30	1665.00
623.49	1763.30
623.68	1644.52
623.88	1751.01
624.07	1765.35
624.26	1775.59
624.45	1742.82
624.64	1751.01
624.83	1718.25
625.02	1708.01
625.21	1738.73
625.40	1693.67
625.59	1755.11
625.78	1753.06
625.97	1841.12
626.16	1814.50
626.35	1818.60
626.54	1712.10
626.74	1796.07
626.93	1728.49
627.12	1699.81
627.31	1781.73
627.50	1755.11
627.69	1806.31
627.88	1675.24
628.07	1763.30
628.26	1654.76
628.45	1671.14
628.64	1695.72
628.83	1675.24
629.02	1677.29
629.21	1798.12
629.40	1744.87
629.59	1683.43
629.78	1701.86
629.97	1734.63
630.16	1755.11
630.35	1763.30
630.54	1652.71
630.73	1665.00
630.92	1710.05
631.11	1650.66
631.30	1648.61
631.49	1755.11
631.68	1689.57
631.87	1769.44
632.06	1640.42
632.25	1765.35
632.44	1765.35
632.63	1662.95
632.82	1658.85
633.01	1632.23
633.20	1705.96
633.39	1650.66
633.58	1609.70
633.77	1716.20
633.96	1740.77
634.15	1681.38
634.34	1783.78
634.53	1681.38
634.72	1673.19
634.91	1634.28
635.10	1708.01
635.29	1765.35
635.48	1726.44
635.67	1695.72
635.86	1693.67
636.05	1734.63
636.24	1683.43
636.43	1818.60
636.62	1734.63
636.81	1560.55
637.00	1701.86
637.19	1720.29
637.38	1679.33
637.57	1726.44
637.76	1738.73
637.95	1646.57
638.14	1677.29
638.33	1671.14
638.52	1712.10
638.71	1624.04
638.89	1681.38
639.08	1834.98
639.27	1746.92
639.46	1665.00
639.65	1755.11
639.84	1699.81
640.03	1814.50
640.22	1705.96
640.41	1877.99
640.60	1722.34
640.79	1796.07
640.98	1638.38
641.17	1783.78
641.36	1744.87
641.55	1828.84
641.74	1626.09
641.92	1681.38
642.11	1626.09
642.30	1640.42
642.49	1716.20
642.68	1634.28
642.87	1660.90
643.06	1816.55
643.25	1701.86
643.44	1705.96
643.63	1736.68
643.82	1744.87
644.00	1695.72
644.19	1757.16
644.38	1583.08
644.57	1828.84
644.76	1742.82
644.95	1726.44
645.14	1683.43
645.33	1628.14
645.52	1728.49
645.71	1650.66
645.89	1677.29
646.08	1683.43
646.27	1677.29
646.46	1820.64
646.65	1581.03
646.84	1755.11
647.03	1638.38
647.22	1796.07
647.40	1730.53
647.59	1718.25
647.78	1695.72
647.97	1650.66
648.16	1619.94
648.35	1765.35
648.54	1869.80
648.73	1712.10
648.91	1757.16
649.10	1744.87
649.29	1724.39
649.48	1705.96
649.67	1695.72
649.86	1673.19
650.05	1742.82
650.23	1718.25
650.42	1646.57
650.61	1753.06
650.80	1673.19
650.99	1820.64
651.18	1726.44
651.36	1730.53
651.55	1613.80
651.74	1779.68
651.93	1691.62
652.12	1673.19
652.31	1624.04
652.49	1689.57
652.68	1662.95
652.87	1773.54
653.06	1751.01
653.25	1763.30
653.44	1708.01
653.62	1753.06
653.81	1665.00
654.00	1724.39
654.19	1671.14
654.38	1869.80
654.56	1734.63
654.75	1732.58
654.94	1744.87
655.13	1646.57
655.32	1699.81
655.51	1716.20
655.69	1689.57
655.88	1775.59
656.07	1578.98
656.26	1724.39
656.45	1660.90
656.63	1648.61
656.82	1748.97
657.01	1669.09
657.20	1640.42
657.38	1753.06
657.57	1650.66
657.76	1570.79
657.95	1808.36
658.14	1630.18
658.32	1705.96
658.51	1621.99
658.70	1685.48
658.89	1732.58
659.08	1802.21
659.26	1841.12
659.45	1679.33
659.64	1781.73
659.83	1634.28
660.01	1886.18
660.20	1734.63
660.39	1824.74
660.58	1681.38
660.76	1708.01
660.95	1677.29
661.14	1748.97
661.33	1578.98
661.51	1634.28
661.70	1724.39
661.89	1839.08
662.08	1720.29
662.26	1644.52
662.45	1716.20
662.64	1767.40
662.83	1861.60
663.01	1615.85
663.20	1697.77
663.39	1796.07
663.58	1710.05
663.76	1646.57
663.95	1716.20
664.14	1753.06
664.32	1718.25
664.51	1648.61
664.70	1669.09
664.89	1779.68
665.07	1701.86
665.26	1777.64
665.45	1691.62
665.64	1722.34
665.82	1662.95
666.01	1753.06
666.20	1685.48
666.38	1796.07
666.57	1818.60
666.76	2133.98
666.95	4483.00
667.13	10489.70
667.32	15476.50
667.51	17940.21
667.69	19013.34
667.88	17544.95
668.07	12375.88
668.25	9412.46
668.44	8263.55
668.63	7296.91
668.81	6883.22
669.00	6193.06
669.19	5644.20
669.38	5015.48
669.56	4589.50
669.75	4016.07
669.94	3332.05
670.12	2822.10
670.31	2531.29
670.50	2213.85
670.68	2027.49
670.87	1914.85
671.06	1826.79
671.24	1814.50
671.43	1810.40
671.62	1785.83
671.80	1662.95
671.99	1705.96
672.18	1738.73
672.36	1773.54
672.55	1669.09
672.74	1697.77
672.92	1691.62
673.11	1740.77
673.29	1648.61
673.48	1796.07
673.67	1697.77
673.85	1789.92
674.04	1703.91
674.23	1687.53
674.41	1763.30
674.60	1763.30
674.79	1650.66
674.97	1763.30
675.16	1787.88
675.34	1841.12
675.53	1603.56
675.72	1695.72
675.90	1744.87
676.09	1656.81
676.28	1755.11
676.46	1656.81
676.65	1804.26
676.83	1613.80
677.02	1738.73
677.21	1730.53
677.39	1701.86
677.58	1619.94
677.77	1687.53
677.95	1587.18
678.14	1667.05
678.32	1671.14
678.51	1624.04
678.70	1822.69
678.88	1742.82
679.07	1714.15
679.25	1734.63
679.44	1585.13
679.63	1714.15
679.81	1783.78
680.00	1808.36
680.18	1761.25
680.37	1757.16
680.55	1691.62
680.74	1617.90
680.93	1542.12
681.11	1634.28
681.30	1669.09
681.48	1693.67
681.67	1667.05
681.85	1708.01
682.04	1607.66
682.23	1728.49
682.41	1705.96
682.60	1640.42
682.78	1683.43
682.97	1685.48
683.15	1697.77
683.34	1722.34
683.53	1837.03
683.71	1638.38
683.90	1779.68
684.08	1853.41
684.27	1669.09
684.45	1710.05
684.64	1769.44
684.82	1648.61
685.01	1724.39
685.19	1712.10
685.38	1771.49
685.57	1769.44
685.75	1732.58
685.94	1642.47
686.12	1730.53
686.31	1703.91
686.49	1773.54
686.68	1671.14
686.86	1669.09
687.05	1738.73
687.23	1849.32
687.42	1705.96
687.60	1675.24
687.79	1724.39
687.97	1775.59
688.16	1730.53
688.34	1781.73
688.53	1589.22
688.71	1718.25
688.90	1789.92
689.08	1755.11
689.27	1644.52
689.45	1779.68
689.64	1734.63
689.82	1677.29
690.01	1648.61
690.19	1695.72
690.38	1736.68
690.56	1742.82
690.75	1648.61
690.93	1654.76
691.12	1689.57
691.30	1691.62
691.49	1679.33
691.67	1658.85
691.86	1837.03
692.04	1705.96
692.23	1705.96
692.41	1753.06
692.60	1748.97
692.78	1763.30
692.97	1730.53
693.15	1740.77
693.34	1796.07
693.52	1730.53
693.71	1632.23
693.89	1718.25
694.08	1632.23
694.26	1714.15
694.44	1726.44
694.63	1705.96
694.81	1656.81
695.00	1673.19
695.18	1820.64
695.37	1873.89
695.55	1738.73
695.74	1685.48
695.92	1724.39
696.10	1759.21
696.29	1628.14
696.47	1708.01
696.66	1605.61
696.84	1660.90
697.03	1740.77
697.21	1841.12
697.40	2291.68
697.58	1798.12
697.76	1687.53
697.95	1652.71
698.13	1648.61
698.32	1628.14
698.50	1703.91
698.68	1712.10
698.87	1708.01
699.05	1816.55
699.24	1710.05
699.42	1734.63
699.61	1710.05
699.79	1681.38
699.97	1722.34
700.16	1654.76
700.34	1673.19
700.53	1722.34
700.71	1826.79
700.89	1734.63
701.08	1753.06
701.26	1679.33
701.45	2093.02
701.63	1660.90
701.81	1669.09
702.00	1656.81
702.18	1738.73
702.37	1679.33
702.55	1718.25
702.73	1714.15
702.92	1716.20
703.10	1769.44
703.28	1722.34
703.47	1597.42
703.65	1783.78
703.84	1691.62
704.02	1753.06
704.20	1716.20
704.39	1705.96
704.57	1697.77
704.75	1714.15
704.94	1761.25
705.12	1751.01
705.30	1710.05
705.49	2250.72
705.67	4526.01
705.86	9463.66
706.04	12605.25
706.22	14536.48
706.41	15664.91
706.59	13690.67
706.77	9434.99
706.96	7481.23
707.14	6680.47
707.32	5910.44
707.51	5625.77
707.69	4962.23
707.87	4218.82
708.06	3622.86
708.24	2998.23
708.42	2424.80
708.61	2297.82
708.79	1810.40
708.97	1877.99
709.16	1877.99
709.34	1736.68
709.52	1716.20
709.71	1716.20
709.89	1808.36
710.07	1583.08
710.26	1640.42
710.44	1681.38
710.62	1699.81
710.80	1697.77
710.99	1738.73
711.17	1845.22
711.35	1669.09
711.54	1736.68
711.72	1728.49
711.90	1824.74
712.09	1677.29
712.27	1611.75
712.45	1742.82
712.63	1703.91
712.82	1730.53
713.00	1781.73
713.18	1767.40
713.37	1734.63
713.55	1734.63
713.73	1787.88
713.91	1771.49
714.10	1597.42
714.28	1675.24
714.46	1751.01
714.65	1740.77
714.83	1710.05
715.01	1695.72
715.19	1689.57
715.38	1599.46
715.56	1728.49
715.74	1662.95
715.92	1611.75
716.11	1789.92
716.29	1724.39
716.47	1734.63
716.65	1683.43
716.84	1644.52
717.02	1726.44
717.20	1630.18
717.38	1652.71
717.57	1675.24
717.75	1781.73
717.93	1636.33
718.11	1675.24
718.30	1593.32
718.48	1781.73
718.66	1751.01
718.84	1738.73
719.03	1718.25
719.21	1654.76
719.39	1814.50
719.57	1746.92
719.75	1746.92
719.94	1648.61
720.12	1722.34
720.30	1705.96
720.48	1742.82
720.67	1595.37
720.85	1669.09
721.03	1705.96
721.21	1630.18
721.39	1822.69
721.58	1744.87
721.76	1667.05
721.94	1769.44
722.12	1681.38
722.30	1845.22
722.49	1673.19
722.67	1701.86
722.85	1673.19
723.03	1654.76
723.21	1767.40
723.40	1624.04
723.58	1773.54
723.76	1726.44
723.94	1716.20
724.12	1732.58
724.30	1753.06
724.49	1812.45
724.67	1705.96
724.85	1740.77
725.03	1560.55
725.21	1636.33
725.40	1656.81
725.58	1679.33
725.76	1748.97
725.94	1724.39
726.12	1650.66
726.30	1744.87
726.49	1714.15
726.67	1679.33
726.85	1796.07
727.03	1791.97
727.21	2181.09
727.39	2987.99
727.57	3819.46
727.76	4151.23
727.94	4368.32
728.12	4337.60
728.30	3561.42
728.48	3049.43
728.66	2711.51
728.84	2467.80
729.03	2365.40
729.21	2039.78
729.39	1990.63
729.57	1822.69
729.75	1804.26
729.93	1824.74
730.11	1777.64
730.30	1687.53
730.48	1738.73
730.66	1763.30
730.84	1753.06
731.02	1699.81
731.20	1722.34
731.38	1746.92
731.56	1587.18
731.74	1673.19
731.93	1751.01
732.11	1738.73
732.29	1763.30
732.47	1695.72
732.65	1693.67
732.83	1736.68
733.01	1679.33
733.19	1597.42
733.37	1769.44
733.56	1740.77
733.74	1703.91
733.92	1759.21
734.10	1685.48
734.28	1773.54
734.46	1638.38
734.64	1744.87
734.82	1689.57
735.00	1656.81
735.18	1681.38
735.36	1712.10
735.54	1742.82
735.73	1716.20
735.91	1693.67
736.09	1742.82
736.27	1748.97
736.45	1714.15
736.63	1636.33
736.81	1644.52
736.99	1775.59
737.17	1742.82
737.35	1662.95
737.53	1742.82
737.71	1677.29
737.89	1763.30
738.07	1701.86
738.25	1632.23
738.43	1609.70
738.61	1703.91
738.80	1591.27
738.98	1648.61
739.16	1681.38
739.34	1703.91
739.52	1714.15
739.70	1708.01
739.88	1730.53
740.06	1716.20
740.24	1646.57
740.42	1808.36
740.60	1611.75
740.78	1650.66
740.96	1677.29
741.14	1642.47
741.32	1683.43
741.50	1699.81
741.68	1824.74
741.86	1763.30
742.04	1595.37
742.22	1599.46
742.40	1714.15
742.58	1738.73
742.76	1697.77
742.94	1814.50
743.12	1621.99
743.30	1665.00
743.48	1660.90
743.66	1710.05
743.84	1708.01
744.02	1675.24
744.20	1769.44
744.38	1634.28
744.56	1656.81
744.74	1834.98
744.92	1726.44
745.10	1787.88
745.28	1826.79
745.46	1783.78
745.64	1658.85
745.82	1767.40
746.00	1714.15
746.18	1818.60
746.36	1570.79
746.54	1714.15
746.72	1683.43
746.90	1677.29
747.08	1818.60
747.26	1746.92
747.44	1697.77
747.62	1748.97
747.80	1708.01
747.98	1667.05
748.15	1708.01
748.33	1798.12
748.51	1671.14
748.69	1726.44
748.87	1689.57
749.05	1681.38
749.23	1689.57
749.41	1734.63
749.59	1701.86
749.77	1775.59
749.95	1673.19
750.13	1677.29
750.31	1726.44
750.49	1705.96
750.67	1714.15
750.85	1796.07
751.03	1775.59
751.20	1794.02
751.38	1681.38
751.56	1656.81
751.74	1691.62
751.92	1630.18
752.10	1624.04
752.28	1765.35
752.46	1681.38
752.64	1601.51
752.82	1693.67
753.00	1753.06
753.18	1673.19
753.35	1705.96
753.53	1654.76
753.71	1718.25
753.89	1701.86
754.07	1712.10
754.25	1738.73
754.43	1685.48
754.61	1632.23
754.79	1689.57
754.97	1732.58
755.14	1847.27
755.32	1669.09
755.50	1769.44
755.68	1683.43
755.86	1687.53
756.04	1632.23
756.22	1605.61
756.40	1773.54
756.57	1718.25
756.75	1689.57
756.93	1800.16
757.11	1791.97
757.29	1681.38
757.47	1714.15
757.65	1634.28
757.82	1601.51
758.00	1675.24
758.18	1722.34
758.36	1646.57
758.54	1796.07
758.72	1624.04
758.90	1755.11
759.07	1683.43
759.25	1636.33
759.43	1705.96
759.61	1562.60
759.79	2068.45
759.97	1773.54
760.15	1724.39
760.32	1728.49
760.50	1746.92
760.68	1839.08
760.86	1718.25
761.04	1806.31
761.22	1660.90
761.39	1662.95
761.57	1712.10
761.75	1665.00
761.93	1742.82
762.11	1728.49
762.28	1673.19
762.46	1658.85
762.64	1712.10
762.82	1636.33
763.00	1701.86
763.18	1814.50
763.35	1599.46
763.53	1701.86
763.71	1710.05
763.89	1722.34
764.07	1691.62
764.24	1701.86
764.42	1742.82
764.60	1667.05
764.78	1724.39
764.96	1761.25
765.13	1771.49
765.31	1761.25
765.49	1669.09
765.67	1658.85
765.84	1710.05
766.02	1665.00
766.20	1648.61
766.38	1779.68
766.56	1699.81
766.73	1720.29
766.91	1687.53
767.09	1759.21
767.27	1742.82
767.44	1787.88
767.62	1728.49
767.80	1705.96
767.98	1681.38
768.15	1722.34
768.33	1718.25
768.51	1783.78
768.69	1791.97
768.87	1736.68
769.04	1683.43
769.22	1843.17
769.40	1767.40
769.58	1908.71
769.75	1679.33
769.93	1814.50
770.11	1675.24
770.28	1611.75
770.46	1718.25
770.64	1654.76
770.82	1689.57
770.99	1656.81
771.17	1693.67
771.35	1751.01
771.53	1755.11
771.70	1773.54
771.88	1728.49
772.06	1648.61
772.23	1648.61
772.41	1728.49
772.59	1730.53
772.77	1607.66
772.94	1648.61
773.12	1720.29
773.30	1697.77
773.47	1673.19
773.65	1683.43
773.83	1777.64
774.01	1708.01
774.18	1589.22
774.36	1636.33
774.54	1642.47
774.71	1714.15
774.89	1642.47
775.07	1669.09
775.24	1734.63
775.42	1658.85
775.60	1767.40
775.78	1730.53
775.95	1593.32
776.13	1591.27
776.31	1593.32
776.48	1746.92
776.66	1742.82
776.84	1660.90
777.01	1658.85
777.19	1630.18
777.37	1660.90
777.54	1667.05
777.72	1765.35
777.90	1730.53
778.07	1578.98
778.25	1814.50
778.43	1796.07
778.60	1687.53
778.78	1771.49
778.96	1769.44
779.13	1632.23
779.31	1740.77
779.49	1667.05
779.66	1732.58
779.84	1667.05
780.01	1701.86
780.19	1650.66
780.37	1701.86
780.54	1755.11
780.72	1599.46
780.90	1757.16
781.07	1617.90
781.25	1701.86
781.43	1718.25
781.60	1808.36
781.78	1767.40
781.95	1732.58
782.13	1628.14
782.31	1751.01
782.48	1611.75
782.66	1718.25
782.83	1787.88
783.01	1708.01
783.19	1736.68
783.36	1695.72
783.54	1681.38
783.72	1781.73
783.89	1757.16
784.07	1689.57
784.24	1679.33
784.42	1794.02
784.60	1621.99
784.77	1681.38
784.95	1679.33
785.12	1712.10
785.30	1748.97
785.47	1697.77
785.65	1738.73
785.83	1630.18
786.00	1636.33
786.18	1689.57
786.35	1646.57
786.53	1636.33
786.71	1742.82
786.88	1712.10
787.06	1730.53
787.23	1628.14
787.41	1644.52
787.58	1695.72
787.76	1638.38
787.94	1695.72
788.11	1630.18
788.29	1656.81
788.46	1589.22
788.64	1714.15
788.81	1681.38
788.99	1703.91
789.16	1619.94
789.34	1710.05
789.52	1646.57
789.69	1687.53
789.87	1550.31
790.04	1744.87
790.22	1832.93
790.39	1806.31
790.57	1564.65
790.74	1720.29
790.92	1746.92
791.09	1628.14
791.27	1746.92
791.44	1757.16
791.62	1728.49
791.79	1738.73
791.97	1693.67
792.15	1849.32
792.32	1726.44
792.50	1726.44
792.67	1757.16
792.85	1681.38
793.02	1724.39
793.20	1621.99
793.37	1656.81
793.55	1611.75
793.72	1673.19
793.90	1812.45
794.07	1572.84
794.25	1679.33
794.42	1687.53
794.60	1703.91
794.77	1689.57
794.95	1796.07
795.12	1691.62
795.30	1693.67
795.47	1636.33
795.65	1808.36
795.82	1693.67
796.00	1640.42
796.17	1691.62
796.34	1693.67
796.52	1714.15
796.69	1746.92
796.87	1703.91
797.04	1683.43
797.22	1732.58
797.39	1640.42
797.57	1687.53
797.74	1734.63
797.92	1757.16
798.09	1771.49
798.27	1759.21
798.44	1740.77
798.62	1726.44
798.79	1720.29
798.96	1701.86
799.14	1695.72
799.31	1845.22
799.49	1642.47
799.66	1730.53
799.84	1767.40
800.01	1585.13
800.19	1665.00
800.36	1540.07
800.53	1691.62
800.71	1689.57
800.88	1789.92
801.06	1607.66
801.23	1677.29
801.41	1703.91
801.58	1734.63
801.75	1673.19
801.93	1724.39
802.10	1761.25
802.28	1675.24
802.45	1662.95
802.63	1757.16
802.80	1687.53
802.97	1667.05
803.15	1710.05
803.32	1710.05
803.50	1724.39
803.67	1642.47
803.84	1615.85
804.02	1732.58
804.19	1759.21
804.37	1605.61
804.54	1564.65
804.71	1708.01
804.89	1720.29
805.06	1705.96
805.24	1714.15
805.41	1638.38
805.58	1656.81
805.76	1796.07
805.93	1685.48
806.10	1783.78
806.28	1769.44
806.45	1769.44
806.63	1769.44
806.80	1718.25
806.97	1775.59
807.15	1636.33
807.32	1742.82
807.49	1658.85
807.67	1665.00
807.84	1697.77
808.01	1667.05
808.19	1785.83
808.36	1837.03
808.54	1705.96
808.71	1677.29
808.88	1712.10
809.06	1705.96
809.23	1763.30
809.40	1681.38
809.58	1789.92
809.75	1734.63
809.92	1656.81
810.10	1800.16
810.27	1710.05
810.44	1738.73
810.62	1697.77
810.79	1705.96
810.96	1630.18
811.14	1632.23
811.31	1724.39
811.48	1716.20
811.66	1667.05
811.83	1787.88
812.00	1732.58
812.18	1759.21
812.35	1722.34
812.52	1722.34
812.69	1681.38
812.87	1689.57
813.04	1697.77
813.21	1667.05
813.39	1751.01
813.56	1638.38
813.73	1775.59
813.91	1585.13
814.08	1732.58
814.25	1658.85
814.42	1593.32
814.60	1720.29
814.77	1699.81
814.94	1724.39
815.12	1718.25
815.29	1763.30
815.46	1636.33
815.63	1777.64
815.81	1730.53
815.98	1701.86
816.15	1650.66
816.33	1734.63
816.50	1683.43
816.67	1691.62
816.84	1685.48
817.02	1685.48
817.19	1652.71
817.36	1736.68
817.53	1708.01
817.71	1609.70
817.88	1703.91
818.05	1632.23
818.22	1628.14
818.40	1771.49
818.57	1705.96
818.74	1697.77
818.91	1673.19
819.09	1785.83
819.26	1783.78
819.43	1636.33
819.60	1626.09
819.78	1781.73
819.95	1832.93
820.12	1658.85
820.29	1718.25
820.47	1724.39
820.64	1607.66
820.81	1593.32
820.98	1589.22
821.15	1615.85
821.33	1640.42
821.50	1583.08
821.67	1714.15
821.84	1699.81
822.02	1746.92
822.19	1652.71
822.36	1669.09
822.53	1595.37
822.70	1617.90
822.88	1632.23
823.05	1828.84
823.22	1628.14
823.39	1708.01
823.56	1683.43
823.74	1804.26
823.91	1658.85
824.08	1619.94
824.25	1710.05
824.42	1759.21
824.60	1597.42
824.77	1658.85
824.94	1683.43
825.11	1712.10
825.28	1654.76
825.45	1626.09
825.63	1677.29
825.80	1599.46
825.97	1771.49
826.14	1744.87
826.31	1671.14
826.48	1742.82
826.66	1718.25
826.83	1718.25
827.00	1742.82
827.17	1628.14
827.34	1689.57
827.51	1619.94
827.69	1751.01
827.86	1628.14
828.03	1636.33
828.20	1658.85
828.37	1591.27
828.54	1724.39
828.71	1662.95
828.89	1742.82
829.06	1701.86
829.23	1841.12
829.40	1644.52
829.57	1681.38
829.74	1701.86
829.91	1654.76
830.09	1679.33
830.26	1773.54
830.43	1742.82
830.60	1691.62
830.77	1736.68
830.94	1734.63
831.11	1761.25
831.28	1675.24
831.46	1701.86
831.63	1697.77
831.80	1716.20
831.97	1734.63
832.14	1583.08
832.31	1710.05
832.48	1751.01
832.65	1728.49
832.82	1718.25
832.99	1716.20
833.17	1689.57
833.34	1800.16
833.51	1734.63
833.68	1656.81
833.85	1794.02
834.02	1593.32
834.19	1628.14
834.36	1658.85
834.53	1677.29
834.70	1722.34
834.87	1761.25
835.04	1683.43
835.22	1538.02
835.39	1708.01
835.56	1621.99
835.73	1748.97
835.90	1796.07
836.07	1667.05
836.24	1671.14
836.41	1675.24
836.58	1689.57
836.75	1689.57
836.92	1742.82
837.09	1689.57
837.26	1632.23
837.43	1650.66
837.60	1755.11
837.77	1724.39
837.94	1693.67
838.12	1783.78
838.29	1763.30
838.46	1724.39
838.63	1603.56
838.80	1832.93
838.97	1695.72
839.14	1632.23
839.31	1695.72
839.48	1683.43
839.65	1687.53
839.82	1722.34
839.99	1718.25
840.16	1716.20
840.33	1712.10
840.50	1712.10
840.67	1619.94
840.84	1601.51
841.01	1720.29
841.18	1587.18
841.35	1628.14
841.52	1789.92
841.69	1804.26
841.86	1693.67
842.03	1681.38
842.20	1726.44
842.37	1654.76
842.54	1742.82
842.71	1648.61
842.88	1628.14
843.05	1769.44
843.22	1669.09
843.39	1652.71
843.56	1689.57
843.73	1634.28
843.90	1740.77
844.07	1689.57
844.24	1712.10
844.41	1742.82
844.58	1652.71
844.75	1710.05
844.92	1718.25
845.09	1628.14
845.26	1642.47
845.43	1693.67
845.60	1578.98
845.77	1689.57
845.94	1687.53
846.10	1732.58
846.27	1652.71
846.44	1636.33
846.61	1665.00
846.78	1736.68
846.95	1773.54
847.12	1689.57
847.29	1673.19
847.46	1583.08
847.63	1695.72
847.80	1679.33
847.97	1667.05
848.14	1845.22
848.31	1669.09
848.48	1607.66
848.65	1699.81
848.82	1705.96
848.98	1853.41
849.15	1730.53
849.32	1712.10
849.49	1757.16
849.66	1765.35
849.83	1736.68
850.00	1642.47
850.17	1722.34
850.34	1755.11
850.51	1650.66
850.68	1705.96
850.85	1841.12
851.01	1681.38
851.18	1757.16
851.35	1669.09
851.52	1769.44
851.69	1720.29
851.86	1609.70
852.03	1636.33
852.20	1769.44
852.37	1681.38
852.53	1603.56
852.70	1697.77
852.87	1759.21
853.04	1771.49
853.21	1703.91
853.38	1763.30
853.55	1691.62
853.72	1751.01
853.89	1652.71
854.05	1656.81
854.22	1734.63
854.39	1742.82
854.56	1712.10
854.73	1777.64
854.90	1648.61
855.07	1665.00
855.23	1687.53
855.40	1718.25
855.57	1697.77
855.74	1562.60
855.91	1918.95
856.08	1712.10
856.25	1662.95
856.41	1626.09
856.58	1683.43
856.75	1703.91
856.92	1650.66
857.09	1796.07
857.26	1615.85
857.42	1685.48
857.59	1708.01
857.76	1652.71
857.93	1650.66
858.10	1722.34
858.27	1650.66
858.43	1683.43
858.60	1611.75
858.77	1699.81
858.94	1697.77
859.11	1748.97
859.27	1646.57
859.44	1677.29
859.61	1802.21
859.78	1775.59
859.95	1693.67
860.12	1656.81
860.28	1861.60
860.45	1744.87
860.62	1671.14
860.79	1779.68
860.95	1714.15
861.12	1677.29
861.29	1648.61
861.46	1630.18
861.63	1671.14
861.79	1783.78
861.96	1595.37
862.13	1619.94
862.30	1787.88
862.47	1710.05
862.63	1744.87
862.80	1708.01
862.97	1759.21
863.14	1673.19
863.30	1761.25
863.47	1642.47
863.64	1822.69
863.81	1681.38
863.97	1662.95
864.14	1724.39
864.31	1689.57
864.48	1804.26
864.65	1669.09
864.81	1734.63
864.98	1787.88
865.15	1806.31
865.32	1654.76
865.48	1736.68
865.65	1808.36
865.82	1677.29
865.98	1701.86
866.15	1769.44
866.32	1665.00
866.49	1734.63
866.65	1771.49
866.82	1638.38
866.99	1619.94
867.16	1714.15
867.32	1703.91
867.49	1585.13
867.66	1640.42
867.83	1677.29
867.99	1656.81
868.16	1671.14
868.33	1642.47
868.49	1693.67
868.66	1695.72
868.83	1722.34
868.99	1640.42
869.16	1660.90
869.33	1767.40
869.50	1746.92
869.66	1654.76
869.83	1609.70
870.00	1605.61
870.16	1751.01
870.33	1669.09
870.50	1761.25
870.66	1755.11
870.83	1746.92
871.00	1689.57
871.17	1679.33
871.33	1734.63
871.50	1646.57
871.67	1740.77
871.83	1652.71
872.00	1753.06
872.17	1626.09
872.33	1824.74
872.50	1705.96
872.67	1634.28
872.83	1632.23
873.00	1742.82
873.17	1722.34
873.33	1753.06
873.50	1730.53
873.67	1673.19
873.83	1740.77
874.00	1693.67
874.16	1746.92
874.33	1720.29
874.50	1607.66
874.66	1767.40
874.83	1677.29
875.00	1767.40
875.16	1742.82
875.33	1763.30
875.50	1593.32
875.66	1605.61
875.83	1685.48
875.99	1730.53
876.16	1650.66
876.33	1662.95
876.49	1722.34
876.66	1767.40
876.83	1683.43
876.99	1617.90
877.16	1628.14
877.32	1687.53
877.49	1732.58
877.66	1693.67
877.82	1681.38
877.99	1787.88
878.15	1755.11
878.32	1669.09
878.49	1783.78
878.65	1638.38
878.82	1718.25
878.98	1650.66
879.15	1757.16
879.32	1779.68
879.48	1781.73
879.65	1599.46
879.81	1648.61
879.98	1703.91
880.15	1607.66
880.31	1716.20
880.48	1617.90
880.64	1736.68
880.81	1755.11
880.97	1716.20
881.14	1771.49
881.31	1609.70
881.47	1834.98
881.64	1665.00
881.80	1595.37
881.97	1705.96
882.13	1763.30
882.30	1685.48
882.47	1626.09
882.63	1630.18
882.80	1640.42
882.96	1642.47
883.13	1767.40
883.29	1675.24
883.46	1716.20
883.62	1810.40
883.79	1753.06
883.95	1753.06
884.12	1648.61
884.29	1726.44
884.45	1646.57
884.62	1726.44
884.78	1671.14
884.95	1734.63
885.11	1658.85
885.28	1732.58
885.44	1595.37
885.61	1740.77
885.77	1716.20
885.94	1677.29
886.10	1636.33
886.27	1640.42
886.43	1789.92
886.60	1769.44
886.76	1697.77
886.93	1615.85
887.09	1755.11
887.26	1654.76
887.42	1685.48
887.59	1720.29
887.75	1822.69
887.92	1751.01
888.08	1728.49
888.25	1820.64
888.41	1796.07
888.58	1689.57
888.74	1708.01
888.91	1681.38
>>>>>End Processed Spectral Data<<<<<
