SpectraSuite Data File
++++++++++++++++++++++++++++++++++++
Date: Mon Jun 06 15:52:57 CEST 2016
User: root
Dark Spectrum Present: No
Reference Spectrum Present: No
Number of Sampled Component Spectra: 1
Spectrometers: USB4C02835
Integration Time (usec): 100000 (USB4C02835)
Spectra Averaged: 1 (USB4C02835)
Boxcar Smoothing: 0 (USB4C02835)
Correct for Electrical Dark: No (USB4C02835)
Strobe/Lamp Enabled: No (USB4C02835)
Correct for Detector Non-linearity: No (USB4C02835)
Correct for Stray Light: No (USB4C02835)
Number of Pixels in Processed Spectrum: 3648
>>>>>Begin Processed Spectral Data<<<<<
177.47	1558.50
177.69	1558.50
177.91	1558.50
178.13	1464.30
178.36	1402.86
178.58	1677.29
178.80	1787.88
179.02	1656.81
179.24	1617.90
179.46	1722.34
179.68	1794.02
179.90	1755.11
180.13	1724.39
180.35	1685.48
180.57	1669.09
180.79	1722.34
181.01	1716.20
181.23	1806.31
181.45	1828.84
181.67	1751.01
181.90	1697.77
182.12	1726.44
182.34	1662.95
182.56	1765.35
182.78	1765.35
183.00	1751.01
183.22	1619.94
183.44	1585.13
183.66	1859.56
183.89	1785.83
184.11	1742.82
184.33	1791.97
184.55	1820.64
184.77	1757.16
184.99	1804.26
185.21	1689.57
185.43	1855.46
185.65	1695.72
185.87	1656.81
186.10	1769.44
186.32	1888.23
186.54	1708.01
186.76	1779.68
186.98	1742.82
187.20	1673.19
187.42	1677.29
187.64	1699.81
187.86	1742.82
188.08	1785.83
188.30	1660.90
188.52	1710.05
188.75	1828.84
188.97	1820.64
189.19	1662.95
189.41	1689.57
189.63	1773.54
189.85	1705.96
190.07	1656.81
190.29	1767.40
190.51	1722.34
190.73	1656.81
190.95	1853.41
191.17	1730.53
191.39	1660.90
191.61	1665.00
191.84	1677.29
192.06	1738.73
192.28	1648.61
192.50	1890.28
192.72	1703.91
192.94	1712.10
193.16	1814.50
193.38	1740.77
193.60	1675.24
193.82	1769.44
194.04	1779.68
194.26	1746.92
194.48	1671.14
194.70	1638.38
194.92	1665.00
195.14	1755.11
195.36	1771.49
195.58	1732.58
195.80	1730.53
196.02	1656.81
196.24	1652.71
196.46	1714.15
196.69	1734.63
196.91	1755.11
197.13	1720.29
197.35	1703.91
197.57	1810.40
197.79	1804.26
198.01	1720.29
198.23	1730.53
198.45	1777.64
198.67	1689.57
198.89	1691.62
199.11	1734.63
199.33	1644.52
199.55	1607.66
199.77	1712.10
199.99	1779.68
200.21	1708.01
200.43	1730.53
200.65	1644.52
200.87	1597.42
201.09	1738.73
201.31	1679.33
201.53	1753.06
201.75	1665.00
201.97	1759.21
202.19	1679.33
202.41	1744.87
202.63	1863.65
202.85	1677.29
203.07	1783.78
203.29	1667.05
203.51	1599.46
203.73	1660.90
203.95	1906.66
204.17	1773.54
204.39	1828.84
204.61	1712.10
204.83	1683.43
205.05	1734.63
205.27	1667.05
205.49	1814.50
205.71	1736.68
205.93	1581.03
206.15	1701.86
206.37	1689.57
206.59	1746.92
206.81	1656.81
207.03	1605.61
207.25	1603.56
207.47	1746.92
207.69	1755.11
207.91	1767.40
208.13	1775.59
208.34	1697.77
208.56	1656.81
208.78	1773.54
209.00	1677.29
209.22	1712.10
209.44	1718.25
209.66	1669.09
209.88	1734.63
210.10	1697.77
210.32	1621.99
210.54	1767.40
210.76	1759.21
210.98	1789.92
211.20	1572.84
211.42	1689.57
211.64	1816.55
211.86	1757.16
212.08	1695.72
212.30	1730.53
212.52	1710.05
212.74	1708.01
212.96	1632.23
213.17	1675.24
213.39	1699.81
213.61	1767.40
213.83	1703.91
214.05	1665.00
214.27	1697.77
214.49	1673.19
214.71	1660.90
214.93	1789.92
215.15	1742.82
215.37	1791.97
215.59	1560.55
215.81	1738.73
216.03	1765.35
216.24	1785.83
216.46	1689.57
216.68	1703.91
216.90	1718.25
217.12	1751.01
217.34	1685.48
217.56	1732.58
217.78	1761.25
218.00	1732.58
218.22	1779.68
218.44	1722.34
218.66	1703.91
218.87	1814.50
219.09	1718.25
219.31	1763.30
219.53	1728.49
219.75	1720.29
219.97	1701.86
220.19	1652.71
220.41	1722.34
220.63	1765.35
220.85	1767.40
221.06	1691.62
221.28	1722.34
221.50	1787.88
221.72	1673.19
221.94	1708.01
222.16	1724.39
222.38	1791.97
222.60	1687.53
222.82	1765.35
223.03	1736.68
223.25	1660.90
223.47	1738.73
223.69	1839.08
223.91	1736.68
224.13	1773.54
224.35	1718.25
224.57	1714.15
224.78	1740.77
225.00	1558.50
225.22	1617.90
225.44	1621.99
225.66	1642.47
225.88	1689.57
226.10	1810.40
226.32	1808.36
226.53	1923.04
226.75	1677.29
226.97	1783.78
227.19	1738.73
227.41	1648.61
227.63	1710.05
227.85	1603.56
228.06	1751.01
228.28	1767.40
228.50	1708.01
228.72	1722.34
228.94	1726.44
229.16	1624.04
229.37	1648.61
229.59	1607.66
229.81	1871.84
230.03	1740.77
230.25	1619.94
230.47	1730.53
230.69	1564.65
230.90	1800.16
231.12	1708.01
231.34	1718.25
231.56	1755.11
231.78	1746.92
232.00	1759.21
232.21	1658.85
232.43	1658.85
232.65	1624.04
232.87	1697.77
233.09	1648.61
233.30	1679.33
233.52	1744.87
233.74	1718.25
233.96	1777.64
234.18	1757.16
234.40	1722.34
234.61	1910.75
234.83	1675.24
235.05	1630.18
235.27	1781.73
235.49	1701.86
235.70	1722.34
235.92	1759.21
236.14	1732.58
236.36	1884.13
236.58	1609.70
236.79	1730.53
237.01	1687.53
237.23	1677.29
237.45	1812.45
237.67	1759.21
237.88	1734.63
238.10	1853.41
238.32	1667.05
238.54	1644.52
238.76	1746.92
238.97	1621.99
239.19	1679.33
239.41	1714.15
239.63	1779.68
239.85	1656.81
240.06	1738.73
240.28	1765.35
240.50	1724.39
240.72	1681.38
240.93	1722.34
241.15	1851.36
241.37	1658.85
241.59	1759.21
241.81	1701.86
242.02	1687.53
242.24	1769.44
242.46	1791.97
242.68	1656.81
242.89	1722.34
243.11	1789.92
243.33	1736.68
243.55	1689.57
243.76	1761.25
243.98	1697.77
244.20	1673.19
244.42	1656.81
244.64	1722.34
244.85	1697.77
245.07	1624.04
245.29	1665.00
245.51	1693.67
245.72	1697.77
245.94	1751.01
246.16	1671.14
246.38	1773.54
246.59	1695.72
246.81	1699.81
247.03	1710.05
247.24	1675.24
247.46	1689.57
247.68	1714.15
247.90	1638.38
248.11	1679.33
248.33	1816.55
248.55	1669.09
248.77	1705.96
248.98	1701.86
249.20	1779.68
249.42	1738.73
249.64	1744.87
249.85	1693.67
250.07	1689.57
250.29	1705.96
250.50	1759.21
250.72	1632.23
250.94	1744.87
251.16	1787.88
251.37	1816.55
251.59	1658.85
251.81	1734.63
252.02	1742.82
252.24	1748.97
252.46	1763.30
252.68	1691.62
252.89	1691.62
253.11	1601.51
253.33	1785.83
253.54	1787.88
253.76	1689.57
253.98	1699.81
254.20	1736.68
254.41	1638.38
254.63	1748.97
254.85	1636.33
255.06	1697.77
255.28	1757.16
255.50	1679.33
255.71	1681.38
255.93	1658.85
256.15	1624.04
256.36	1767.40
256.58	1685.48
256.80	1720.29
257.02	1695.72
257.23	1718.25
257.45	1746.92
257.67	1787.88
257.88	1648.61
258.10	1773.54
258.32	1689.57
258.53	1695.72
258.75	1753.06
258.97	1732.58
259.18	1648.61
259.40	1691.62
259.62	1886.18
259.83	1785.83
260.05	1697.77
260.27	1937.38
260.48	1796.07
260.70	1642.47
260.92	1751.01
261.13	1650.66
261.35	1728.49
261.57	1753.06
261.78	1628.14
262.00	1697.77
262.22	1771.49
262.43	1697.77
262.65	1660.90
262.86	1783.78
263.08	1804.26
263.30	1732.58
263.51	1630.18
263.73	1699.81
263.95	1839.08
264.16	1699.81
264.38	1699.81
264.60	1722.34
264.81	1683.43
265.03	1746.92
265.25	1761.25
265.46	1648.61
265.68	1830.88
265.89	1785.83
266.11	1605.61
266.33	1773.54
266.54	1748.97
266.76	1771.49
266.98	1751.01
267.19	1775.59
267.41	1759.21
267.62	1658.85
267.84	1630.18
268.06	1779.68
268.27	1718.25
268.49	1759.21
268.70	1781.73
268.92	1783.78
269.14	1685.48
269.35	1632.23
269.57	1744.87
269.79	1757.16
270.00	1648.61
270.22	1800.16
270.43	1751.01
270.65	1626.09
270.87	1708.01
271.08	1681.38
271.30	1802.21
271.51	1730.53
271.73	1654.76
271.95	1779.68
272.16	1673.19
272.38	1730.53
272.59	1671.14
272.81	1677.29
273.02	1755.11
273.24	1730.53
273.46	1724.39
273.67	1615.85
273.89	1660.90
274.10	1644.52
274.32	1703.91
274.54	1728.49
274.75	1705.96
274.97	1724.39
275.18	1703.91
275.40	1804.26
275.61	1703.91
275.83	1724.39
276.05	1603.56
276.26	1757.16
276.48	1781.73
276.69	1751.01
276.91	1671.14
277.12	1822.69
277.34	1820.64
277.55	1787.88
277.77	1814.50
277.99	1691.62
278.20	1642.47
278.42	1656.81
278.63	1695.72
278.85	1650.66
279.06	1716.20
279.28	1779.68
279.49	1773.54
279.71	1755.11
279.93	1738.73
280.14	1716.20
280.36	1689.57
280.57	1796.07
280.79	1720.29
281.00	1724.39
281.22	1648.61
281.43	1783.78
281.65	1617.90
281.86	1683.43
282.08	1796.07
282.29	1834.98
282.51	1683.43
282.73	1640.42
282.94	1613.80
283.16	1769.44
283.37	1837.03
283.59	1753.06
283.80	1748.97
284.02	1699.81
284.23	1697.77
284.45	1740.77
284.66	1699.81
284.88	1667.05
285.09	1738.73
285.31	1851.36
285.52	1691.62
285.74	1611.75
285.95	1742.82
286.17	1753.06
286.38	1804.26
286.60	1734.63
286.81	1673.19
287.03	1716.20
287.24	1728.49
287.46	1656.81
287.67	1679.33
287.89	1775.59
288.10	1693.67
288.32	1732.58
288.53	1837.03
288.75	1769.44
288.96	1779.68
289.18	1703.91
289.39	1751.01
289.61	1722.34
289.82	1818.60
290.04	1839.08
290.25	1642.47
290.47	1642.47
290.68	1642.47
290.90	1830.88
291.11	1632.23
291.33	1798.12
291.54	1642.47
291.76	1746.92
291.97	1718.25
292.18	1689.57
292.40	1648.61
292.61	1701.86
292.83	1861.60
293.04	1742.82
293.26	1748.97
293.47	1673.19
293.69	1617.90
293.90	1677.29
294.12	1734.63
294.33	1722.34
294.55	1705.96
294.76	1714.15
294.97	1761.25
295.19	1804.26
295.40	1669.09
295.62	1787.88
295.83	1812.45
296.05	1626.09
296.26	1826.79
296.48	1697.77
296.69	1724.39
296.90	1732.58
297.12	1777.64
297.33	1849.32
297.55	1720.29
297.76	1720.29
297.98	1816.55
298.19	1697.77
298.41	1701.86
298.62	1665.00
298.83	1839.08
299.05	1685.48
299.26	1673.19
299.48	1679.33
299.69	1724.39
299.90	1771.49
300.12	1736.68
300.33	1777.64
300.55	1761.25
300.76	1730.53
300.98	1714.15
301.19	1755.11
301.40	1660.90
301.62	1681.38
301.83	1705.96
302.05	1652.71
302.26	1683.43
302.47	1767.40
302.69	1650.66
302.90	1765.35
303.12	1626.09
303.33	1730.53
303.54	1755.11
303.76	1652.71
303.97	1726.44
304.19	1806.31
304.40	1699.81
304.61	1757.16
304.83	1900.52
305.04	1757.16
305.26	1773.54
305.47	1658.85
305.68	1632.23
305.90	1687.53
306.11	1765.35
306.33	1634.28
306.54	1697.77
306.75	1648.61
306.97	1714.15
307.18	1601.51
307.39	1662.95
307.61	1689.57
307.82	1738.73
308.04	1779.68
308.25	1644.52
308.46	1773.54
308.68	1728.49
308.89	1724.39
309.10	1830.88
309.32	1667.05
309.53	1681.38
309.74	1763.30
309.96	1710.05
310.17	1734.63
310.39	1687.53
310.60	1720.29
310.81	1687.53
311.03	1591.27
311.24	1757.16
311.45	1669.09
311.67	1775.59
311.88	1746.92
312.09	1677.29
312.31	1632.23
312.52	1660.90
312.73	1759.21
312.95	1581.03
313.16	1619.94
313.37	1798.12
313.59	1755.11
313.80	1746.92
314.01	1826.79
314.23	1644.52
314.44	1701.86
314.65	1648.61
314.87	1734.63
315.08	1646.57
315.29	1705.96
315.51	1632.23
315.72	1646.57
315.93	1791.97
316.15	1884.13
316.36	1658.85
316.57	1765.35
316.79	1785.83
317.00	1677.29
317.21	1722.34
317.43	1691.62
317.64	1773.54
317.85	1656.81
318.07	1708.01
318.28	1753.06
318.49	1785.83
318.70	1851.36
318.92	1867.75
319.13	1837.03
319.34	1871.84
319.56	1775.59
319.77	1808.36
319.98	1755.11
320.20	1744.87
320.41	1751.01
320.62	1730.53
320.83	1675.24
321.05	1789.92
321.26	1761.25
321.47	1736.68
321.69	1800.16
321.90	1648.61
322.11	1748.97
322.32	1703.91
322.54	1742.82
322.75	1732.58
322.96	1834.98
323.18	1595.37
323.39	1626.09
323.60	1640.42
323.81	1751.01
324.03	1699.81
324.24	1765.35
324.45	1646.57
324.66	1798.12
324.88	1753.06
325.09	1814.50
325.30	1726.44
325.52	1722.34
325.73	1677.29
325.94	1685.48
326.15	1644.52
326.37	1673.19
326.58	1742.82
326.79	1826.79
327.00	1679.33
327.22	1728.49
327.43	1759.21
327.64	1638.38
327.85	1662.95
328.07	1710.05
328.28	1816.55
328.49	1755.11
328.70	1722.34
328.92	1734.63
329.13	1724.39
329.34	1748.97
329.55	1767.40
329.76	1763.30
329.98	1689.57
330.19	1757.16
330.40	1755.11
330.61	1738.73
330.83	1667.05
331.04	1646.57
331.25	1701.86
331.46	1595.37
331.68	1685.48
331.89	1818.60
332.10	1677.29
332.31	1662.95
332.52	1738.73
332.74	1828.84
332.95	1605.61
333.16	1697.77
333.37	1683.43
333.58	1691.62
333.80	1718.25
334.01	1673.19
334.22	1660.90
334.43	1697.77
334.64	1656.81
334.86	1632.23
335.07	1650.66
335.28	1779.68
335.49	1669.09
335.70	1779.68
335.92	1751.01
336.13	1822.69
336.34	1740.77
336.55	1689.57
336.76	1751.01
336.98	1644.52
337.19	1777.64
337.40	1859.56
337.61	1871.84
337.82	1712.10
338.04	1742.82
338.25	1642.47
338.46	1673.19
338.67	1697.77
338.88	1632.23
339.09	1697.77
339.31	1699.81
339.52	1652.71
339.73	1724.39
339.94	1691.62
340.15	1734.63
340.36	1726.44
340.58	1746.92
340.79	1626.09
341.00	1783.78
341.21	1683.43
341.42	1828.84
341.63	1708.01
341.85	1701.86
342.06	1753.06
342.27	1650.66
342.48	1738.73
342.69	1658.85
342.90	1712.10
343.12	1746.92
343.33	1669.09
343.54	1771.49
343.75	1806.31
343.96	1679.33
344.17	1742.82
344.38	1765.35
344.60	1691.62
344.81	1695.72
345.02	1652.71
345.23	1669.09
345.44	1798.12
345.65	1714.15
345.86	1667.05
346.07	1710.05
346.29	1710.05
346.50	1791.97
346.71	1710.05
346.92	1736.68
347.13	1855.46
347.34	1681.38
347.55	1705.96
347.76	1759.21
347.98	1615.85
348.19	1718.25
348.40	1785.83
348.61	1654.76
348.82	1824.74
349.03	1785.83
349.24	1648.61
349.45	1839.08
349.66	1626.09
349.88	1681.38
350.09	1667.05
350.30	1689.57
350.51	1708.01
350.72	1665.00
350.93	1681.38
351.14	1640.42
351.35	1732.58
351.56	1687.53
351.77	1621.99
351.99	1824.74
352.20	1804.26
352.41	1810.40
352.62	1597.42
352.83	1671.14
353.04	1771.49
353.25	1722.34
353.46	1703.91
353.67	1828.84
353.88	1648.61
354.09	1665.00
354.30	1708.01
354.52	1679.33
354.73	1738.73
354.94	1626.09
355.15	1693.67
355.36	1781.73
355.57	1660.90
355.78	1785.83
355.99	1671.14
356.20	1669.09
356.41	1746.92
356.62	1787.88
356.83	1736.68
357.04	1757.16
357.25	1646.57
357.46	1695.72
357.68	1603.56
357.89	1658.85
358.10	1615.85
358.31	1693.67
358.52	1710.05
358.73	1656.81
358.94	1732.58
359.15	1728.49
359.36	1763.30
359.57	1757.16
359.78	1654.76
359.99	1785.83
360.20	1640.42
360.41	1726.44
360.62	1689.57
360.83	1615.85
361.04	1728.49
361.25	1785.83
361.46	1744.87
361.67	1697.77
361.88	1691.62
362.09	1755.11
362.30	1769.44
362.51	1636.33
362.72	1812.45
362.93	1726.44
363.14	1714.15
363.35	1814.50
363.56	1640.42
363.78	1800.16
363.99	1738.73
364.20	1687.53
364.41	1710.05
364.62	1767.40
364.83	1716.20
365.04	1703.91
365.25	1740.77
365.46	1859.56
365.67	1675.24
365.88	1693.67
366.09	1658.85
366.30	1714.15
366.51	1734.63
366.72	1722.34
366.93	1677.29
367.14	1703.91
367.35	1724.39
367.56	1740.77
367.77	1765.35
367.98	1685.48
368.18	1763.30
368.39	1714.15
368.60	1658.85
368.81	1783.78
369.02	1687.53
369.23	1658.85
369.44	1636.33
369.65	1761.25
369.86	1722.34
370.07	1759.21
370.28	1652.71
370.49	1708.01
370.70	1804.26
370.91	1554.41
371.12	1667.05
371.33	1769.44
371.54	1687.53
371.75	1808.36
371.96	1619.94
372.17	1677.29
372.38	1677.29
372.59	1718.25
372.80	1718.25
373.01	1673.19
373.22	1726.44
373.43	1738.73
373.64	1650.66
373.85	1685.48
374.06	1820.64
374.26	1796.07
374.47	1730.53
374.68	1738.73
374.89	1697.77
375.10	1720.29
375.31	1802.21
375.52	1732.58
375.73	1718.25
375.94	1687.53
376.15	1820.64
376.36	1716.20
376.57	1611.75
376.78	1701.86
376.99	1714.15
377.20	1814.50
377.40	1681.38
377.61	1839.08
377.82	1689.57
378.03	1808.36
378.24	1765.35
378.45	1748.97
378.66	1738.73
378.87	1597.42
379.08	1685.48
379.29	1738.73
379.50	1738.73
379.71	1740.77
379.91	1794.02
380.12	1699.81
380.33	1685.48
380.54	1763.30
380.75	1716.20
380.96	1759.21
381.17	1724.39
381.38	1685.48
381.59	1761.25
381.80	1718.25
382.00	1814.50
382.21	1736.68
382.42	1783.78
382.63	1857.51
382.84	1802.21
383.05	1775.59
383.26	1927.14
383.47	1656.81
383.68	1742.82
383.88	1708.01
384.09	1732.58
384.30	1800.16
384.51	1744.87
384.72	1689.57
384.93	1693.67
385.14	1744.87
385.35	1796.07
385.55	1648.61
385.76	1757.16
385.97	1710.05
386.18	1679.33
386.39	1685.48
386.60	1624.04
386.81	1695.72
387.02	1771.49
387.22	1671.14
387.43	1722.34
387.64	1804.26
387.85	1902.56
388.06	2213.85
388.27	4237.25
388.48	6674.33
388.68	8093.57
388.89	9381.74
389.10	9641.84
389.31	8277.89
389.52	7450.51
389.73	6670.23
389.93	6150.05
390.14	5715.88
390.35	5105.59
390.56	4577.21
390.77	3696.58
390.98	2951.12
391.18	2516.95
391.39	2144.22
391.60	1882.08
391.81	1828.84
392.02	1787.88
392.23	1830.88
392.43	1734.63
392.64	1785.83
392.85	1771.49
393.06	1816.55
393.27	1697.77
393.47	1667.05
393.68	1787.88
393.89	1660.90
394.10	1865.70
394.31	1599.46
394.52	1650.66
394.72	1734.63
394.93	1783.78
395.14	1677.29
395.35	1701.86
395.56	1748.97
395.76	1671.14
395.97	1763.30
396.18	1861.60
396.39	1787.88
396.60	2041.82
396.80	1916.90
397.01	1832.93
397.22	1847.27
397.43	1855.46
397.64	1746.92
397.84	1865.70
398.05	1955.81
398.26	1722.34
398.47	1785.83
398.67	1757.16
398.88	1720.29
399.09	1726.44
399.30	1656.81
399.51	1746.92
399.71	1619.94
399.92	1728.49
400.13	1767.40
400.34	1755.11
400.54	1671.14
400.75	1738.73
400.96	1779.68
401.17	1820.64
401.37	1777.64
401.58	1699.81
401.79	1742.82
402.00	1869.80
402.21	2007.01
402.41	1927.14
402.62	1994.72
402.83	2031.58
403.04	2000.87
403.24	2011.11
403.45	1843.17
403.66	1935.33
403.87	1880.04
404.07	1845.22
404.28	1843.17
404.49	1867.75
404.70	1804.26
404.90	1748.97
405.11	1796.07
405.32	1740.77
405.52	1699.81
405.73	1640.42
405.94	1646.57
406.15	1669.09
406.35	1765.35
406.56	1738.73
406.77	1755.11
406.98	1787.88
407.18	1724.39
407.39	1845.22
407.60	1669.09
407.80	1822.69
408.01	1685.48
408.22	1701.86
408.43	1755.11
408.63	1775.59
408.84	1726.44
409.05	1728.49
409.25	1701.86
409.46	1742.82
409.67	1658.85
409.88	1701.86
410.08	1769.44
410.29	1742.82
410.50	1671.14
410.70	1763.30
410.91	1617.90
411.12	1675.24
411.32	1734.63
411.53	1710.05
411.74	1804.26
411.95	1734.63
412.15	1718.25
412.36	1806.31
412.57	1708.01
412.77	1828.84
412.98	1775.59
413.19	1769.44
413.39	1794.02
413.60	1783.78
413.81	1828.84
414.01	1626.09
414.22	1712.10
414.43	1761.25
414.63	1742.82
414.84	1748.97
415.05	1714.15
415.25	1673.19
415.46	1759.21
415.67	1718.25
415.87	1736.68
416.08	1681.38
416.29	1748.97
416.49	1722.34
416.70	1802.21
416.91	1685.48
417.11	1728.49
417.32	1837.03
417.53	1742.82
417.73	1779.68
417.94	1732.58
418.15	1767.40
418.35	1705.96
418.56	1787.88
418.77	1851.36
418.97	1658.85
419.18	1677.29
419.38	1591.27
419.59	1656.81
419.80	1796.07
420.00	1638.38
420.21	1673.19
420.42	1843.17
420.62	1757.16
420.83	1695.72
421.04	1689.57
421.24	1757.16
421.45	1701.86
421.65	1767.40
421.86	1697.77
422.07	1808.36
422.27	1748.97
422.48	1738.73
422.69	1681.38
422.89	1759.21
423.10	1621.99
423.30	1654.76
423.51	1744.87
423.72	1708.01
423.92	1732.58
424.13	1648.61
424.33	1734.63
424.54	1814.50
424.75	1744.87
424.95	1843.17
425.16	1703.91
425.36	1710.05
425.57	1796.07
425.78	1851.36
425.98	1755.11
426.19	1714.15
426.39	1683.43
426.60	1720.29
426.81	1810.40
427.01	1705.96
427.22	1656.81
427.42	1693.67
427.63	1595.37
427.83	1722.34
428.04	1832.93
428.25	1779.68
428.45	1703.91
428.66	1753.06
428.86	1783.78
429.07	1734.63
429.28	1736.68
429.48	1689.57
429.69	1587.18
429.89	1761.25
430.10	1546.22
430.30	1742.82
430.51	1767.40
430.71	1665.00
430.92	1687.53
431.13	1701.86
431.33	1742.82
431.54	1724.39
431.74	1767.40
431.95	1832.93
432.15	1624.04
432.36	1761.25
432.56	1757.16
432.77	1822.69
432.98	1779.68
433.18	1771.49
433.39	1660.90
433.59	1740.77
433.80	1845.22
434.00	1898.47
434.21	1712.10
434.41	1646.57
434.62	1894.37
434.82	1710.05
435.03	1708.01
435.23	1769.44
435.44	1589.22
435.64	1660.90
435.85	1710.05
436.06	1757.16
436.26	1705.96
436.47	1712.10
436.67	1722.34
436.88	1734.63
437.08	1712.10
437.29	1841.12
437.49	1734.63
437.70	1828.84
437.90	1648.61
438.11	1802.21
438.31	1765.35
438.52	1884.13
438.72	1865.70
438.93	1955.81
439.13	1759.21
439.34	1816.55
439.54	1851.36
439.75	1789.92
439.95	1808.36
440.16	1665.00
440.36	1708.01
440.57	1773.54
440.77	1748.97
440.98	1740.77
441.18	1798.12
441.39	1691.62
441.59	1654.76
441.80	1853.41
442.00	1718.25
442.21	1828.84
442.41	1722.34
442.62	1796.07
442.82	1687.53
443.02	1701.86
443.23	1705.96
443.43	1740.77
443.64	1800.16
443.84	1644.52
444.05	1867.75
444.25	1767.40
444.46	1771.49
444.66	1734.63
444.87	1771.49
445.07	1624.04
445.28	1658.85
445.48	1841.12
445.69	1783.78
445.89	1847.27
446.09	1751.01
446.30	2033.63
446.50	2514.91
446.71	3663.82
446.91	4237.25
447.12	4777.91
447.32	4659.13
447.53	4157.38
447.73	3835.85
447.93	3483.59
448.14	3297.23
448.34	3272.65
448.55	2828.24
448.75	2805.72
448.96	2750.42
449.16	2379.74
449.36	2271.20
449.57	2072.54
449.77	1908.71
449.98	1806.31
450.18	1873.89
450.39	1787.88
450.59	1767.40
450.79	1724.39
451.00	1656.81
451.20	1859.56
451.41	1761.25
451.61	1771.49
451.81	1773.54
452.02	1589.22
452.22	1726.44
452.43	1640.42
452.63	1705.96
452.84	1677.29
453.04	1712.10
453.24	1736.68
453.45	1699.81
453.65	1761.25
453.86	1734.63
454.06	1753.06
454.26	1759.21
454.47	1753.06
454.67	1818.60
454.87	1738.73
455.08	1746.92
455.28	1857.51
455.49	1718.25
455.69	1720.29
455.89	1816.55
456.10	1808.36
456.30	1808.36
456.51	1822.69
456.71	1802.21
456.91	1775.59
457.12	1673.19
457.32	1755.11
457.52	1710.05
457.73	1849.32
457.93	1798.12
458.14	1689.57
458.34	1693.67
458.54	1615.85
458.75	1660.90
458.95	1671.14
459.15	1761.25
459.36	1671.14
459.56	1757.16
459.76	1832.93
459.97	1748.97
460.17	1751.01
460.37	1759.21
460.58	1755.11
460.78	1736.68
460.99	1761.25
461.19	1708.01
461.39	1669.09
461.60	1730.53
461.80	1710.05
462.00	1724.39
462.21	1810.40
462.41	1689.57
462.61	1710.05
462.82	1675.24
463.02	1763.30
463.22	1667.05
463.43	1769.44
463.63	1773.54
463.83	1794.02
464.04	1810.40
464.24	1757.16
464.44	1710.05
464.64	1757.16
464.85	1783.78
465.05	1748.97
465.25	1773.54
465.46	1730.53
465.66	1763.30
465.86	1806.31
466.07	1751.01
466.27	1744.87
466.47	1652.71
466.68	1705.96
466.88	1791.97
467.08	1781.73
467.29	1828.84
467.49	1816.55
467.69	1708.01
467.89	1837.03
468.10	1718.25
468.30	1740.77
468.50	1791.97
468.71	1718.25
468.91	1677.29
469.11	1847.27
469.31	1705.96
469.52	1679.33
469.72	1794.02
469.92	1810.40
470.13	1720.29
470.33	1761.25
470.53	1789.92
470.73	2109.41
470.94	2377.69
471.14	2285.53
471.34	2523.10
471.54	2363.36
471.75	2246.62
471.95	2129.89
472.15	2146.27
472.36	2129.89
472.56	2080.74
472.76	2088.93
472.96	2000.87
473.17	1892.32
473.37	1939.43
473.57	1892.32
473.77	1824.74
473.98	1751.01
474.18	1667.05
474.38	1882.08
474.58	1675.24
474.79	1675.24
474.99	1775.59
475.19	1771.49
475.39	1673.19
475.60	1730.53
475.80	1755.11
476.00	1730.53
476.20	1695.72
476.41	1742.82
476.61	1826.79
476.81	1773.54
477.01	1705.96
477.21	1935.33
477.42	1816.55
477.62	1673.19
477.82	1763.30
478.02	1773.54
478.23	1753.06
478.43	1660.90
478.63	1755.11
478.83	1837.03
479.03	1755.11
479.24	1814.50
479.44	1789.92
479.64	1685.48
479.84	1705.96
480.04	1644.52
480.25	1779.68
480.45	1628.14
480.65	1677.29
480.85	1804.26
481.06	1691.62
481.26	1791.97
481.46	1791.97
481.66	1785.83
481.86	1730.53
482.06	1886.18
482.27	1718.25
482.47	1787.88
482.67	1681.38
482.87	1726.44
483.07	1853.41
483.28	1724.39
483.48	1695.72
483.68	1767.40
483.88	1693.67
484.08	1581.03
484.29	1654.76
484.49	1748.97
484.69	1671.14
484.89	1830.88
485.09	1820.64
485.29	1769.44
485.50	1734.63
485.70	1726.44
485.90	1798.12
486.10	1806.31
486.30	1814.50
486.50	1761.25
486.71	1732.58
486.91	1742.82
487.11	1796.07
487.31	1628.14
487.51	1773.54
487.71	1689.57
487.91	1656.81
488.12	1632.23
488.32	1591.27
488.52	1650.66
488.72	1648.61
488.92	1761.25
489.12	1783.78
489.32	1843.17
489.53	1775.59
489.73	1708.01
489.93	1783.78
490.13	1730.53
490.33	1662.95
490.53	1753.06
490.73	1800.16
490.94	1624.04
491.14	1808.36
491.34	1794.02
491.54	2189.28
491.74	2480.09
491.94	2865.11
492.14	3059.67
492.34	3033.04
492.54	2750.42
492.75	2420.70
492.95	2430.94
493.15	2322.40
493.35	2265.05
493.55	2207.71
493.75	2187.23
493.95	2146.27
494.15	2041.82
494.35	1865.70
494.56	1849.32
494.76	1785.83
494.96	1716.20
495.16	1826.79
495.36	1656.81
495.56	1761.25
495.76	1720.29
495.96	1802.21
496.16	1712.10
496.36	1847.27
496.56	1781.73
496.77	1740.77
496.97	1736.68
497.17	1837.03
497.37	1677.29
497.57	1738.73
497.77	1675.24
497.97	1644.52
498.17	1722.34
498.37	1675.24
498.57	1779.68
498.77	1646.57
498.97	1777.64
499.17	1877.99
499.38	1763.30
499.58	1730.53
499.78	1830.88
499.98	1806.31
500.18	1824.74
500.38	1722.34
500.58	1857.51
500.78	2529.24
500.98	4491.20
501.18	5715.88
501.38	6778.78
501.58	7063.44
501.78	6586.27
501.98	5533.61
502.18	4974.52
502.38	4407.23
502.58	4153.28
502.78	3833.80
502.98	3684.30
503.18	3405.77
503.38	3168.21
503.59	2854.87
503.79	2758.61
503.99	2459.61
504.19	2226.14
504.39	2246.62
504.59	2254.81
504.79	2086.88
504.99	2043.87
505.19	1900.52
505.39	1841.12
505.59	1861.60
505.79	1914.85
505.99	1826.79
506.19	1775.59
506.39	1806.31
506.59	1773.54
506.79	1806.31
506.99	1886.18
507.19	1746.92
507.39	1701.86
507.59	1681.38
507.79	1716.20
507.99	1675.24
508.19	1701.86
508.39	1740.77
508.59	1738.73
508.79	1771.49
508.99	1953.76
509.19	1730.53
509.39	1804.26
509.59	1738.73
509.79	1783.78
509.99	1806.31
510.19	1751.01
510.39	1765.35
510.59	1779.68
510.79	1628.14
510.99	1660.90
511.19	1798.12
511.39	1765.35
511.59	1800.16
511.79	1796.07
511.99	1761.25
512.19	1806.31
512.38	1673.19
512.58	1689.57
512.78	1757.16
512.98	1822.69
513.18	1808.36
513.38	1677.29
513.58	1753.06
513.78	1726.44
513.98	1703.91
514.18	1763.30
514.38	1755.11
514.58	1722.34
514.78	1716.20
514.98	1640.42
515.18	1755.11
515.38	1693.67
515.58	1853.41
515.78	1697.77
515.98	1761.25
516.18	1773.54
516.38	1755.11
516.57	1738.73
516.77	1665.00
516.97	1710.05
517.17	1746.92
517.37	1640.42
517.57	1820.64
517.77	1714.15
517.97	1732.58
518.17	1751.01
518.37	1718.25
518.57	1665.00
518.77	1689.57
518.97	1777.64
519.16	1763.30
519.36	1812.45
519.56	1640.42
519.76	1781.73
519.96	1708.01
520.16	1845.22
520.36	1761.25
520.56	1742.82
520.76	1730.53
520.96	1730.53
521.16	1816.55
521.35	1828.84
521.55	1877.99
521.75	1708.01
521.95	1703.91
522.15	1728.49
522.35	1652.71
522.55	1736.68
522.75	1769.44
522.95	1798.12
523.14	1568.74
523.34	1757.16
523.54	1677.29
523.74	1701.86
523.94	1724.39
524.14	1654.76
524.34	1812.45
524.54	1744.87
524.73	1775.59
524.93	1779.68
525.13	1789.92
525.33	1691.62
525.53	1959.91
525.73	1763.30
525.93	1753.06
526.13	1757.16
526.32	1742.82
526.52	1789.92
526.72	1853.41
526.92	1683.43
527.12	1759.21
527.32	1755.11
527.52	1826.79
527.71	1757.16
527.91	1726.44
528.11	1757.16
528.31	1783.78
528.51	1687.53
528.71	1789.92
528.90	1714.15
529.10	1753.06
529.30	1824.74
529.50	1644.52
529.70	1714.15
529.90	1779.68
530.09	1751.01
530.29	1734.63
530.49	1701.86
530.69	1894.37
530.89	1699.81
531.09	1849.32
531.28	1726.44
531.48	1828.84
531.68	1695.72
531.88	1748.97
532.08	1798.12
532.28	1775.59
532.47	1714.15
532.67	1761.25
532.87	1781.73
533.07	1712.10
533.27	1755.11
533.46	1685.48
533.66	1761.25
533.86	1720.29
534.06	1712.10
534.26	1763.30
534.45	1712.10
534.65	1847.27
534.85	1787.88
535.05	1705.96
535.25	1900.52
535.44	1619.94
535.64	1841.12
535.84	1675.24
536.04	1732.58
536.24	1699.81
536.43	1705.96
536.63	1769.44
536.83	1677.29
537.03	1771.49
537.22	1675.24
537.42	1665.00
537.62	1757.16
537.82	1689.57
538.02	1867.75
538.21	1822.69
538.41	1886.18
538.61	1773.54
538.81	1832.93
539.00	1775.59
539.20	1703.91
539.40	1771.49
539.60	1697.77
539.79	1839.08
539.99	1714.15
540.19	1705.96
540.39	1763.30
540.58	1757.16
540.78	1791.97
540.98	1804.26
541.18	1822.69
541.37	1822.69
541.57	1806.31
541.77	1863.65
541.97	1689.57
542.16	1673.19
542.36	1705.96
542.56	1755.11
542.76	1849.32
542.95	1859.56
543.15	1828.84
543.35	1804.26
543.54	1708.01
543.74	1716.20
543.94	1736.68
544.14	1710.05
544.33	1740.77
544.53	1763.30
544.73	1748.97
544.93	1710.05
545.12	1738.73
545.32	1738.73
545.52	1740.77
545.71	1656.81
545.91	1681.38
546.11	1740.77
546.30	1626.09
546.50	1675.24
546.70	1832.93
546.90	1728.49
547.09	1640.42
547.29	1679.33
547.49	1771.49
547.68	1693.67
547.88	1734.63
548.08	1736.68
548.27	2279.39
548.47	1794.02
548.67	1742.82
548.87	1812.45
549.06	1681.38
549.26	1742.82
549.46	1742.82
549.65	1636.33
549.85	1763.30
550.05	1796.07
550.24	1691.62
550.44	1771.49
550.64	1771.49
550.83	1761.25
551.03	1794.02
551.23	1814.50
551.42	1748.97
551.62	1818.60
551.82	1791.97
552.01	1753.06
552.21	1892.32
552.41	1763.30
552.60	1800.16
552.80	1771.49
553.00	1712.10
553.19	1746.92
553.39	1830.88
553.59	1648.61
553.78	1769.44
553.98	1732.58
554.17	1652.71
554.37	1757.16
554.57	1697.77
554.76	1687.53
554.96	1734.63
555.16	1730.53
555.35	1757.16
555.55	1843.17
555.75	1728.49
555.94	1789.92
556.14	1716.20
556.33	1855.46
556.53	1808.36
556.73	1785.83
556.92	1703.91
557.12	1839.08
557.32	1880.04
557.51	1857.51
557.71	1804.26
557.90	1820.64
558.10	1871.84
558.30	1689.57
558.49	1806.31
558.69	1775.59
558.88	1781.73
559.08	1798.12
559.28	1724.39
559.47	1787.88
559.67	1742.82
559.86	1847.27
560.06	1787.88
560.26	1605.61
560.45	1746.92
560.65	1746.92
560.84	1849.32
561.04	1695.72
561.24	1763.30
561.43	1714.15
561.63	1800.16
561.82	1748.97
562.02	1746.92
562.22	1705.96
562.41	1685.48
562.61	1822.69
562.80	1761.25
563.00	1875.94
563.19	1748.97
563.39	1884.13
563.59	1808.36
563.78	1675.24
563.98	1640.42
564.17	1730.53
564.37	1636.33
564.56	1796.07
564.76	1671.14
564.96	1779.68
565.15	1742.82
565.35	1884.13
565.54	1728.49
565.74	1814.50
565.93	1722.34
566.13	1720.29
566.32	1773.54
566.52	1753.06
566.71	1763.30
566.91	1728.49
567.11	1781.73
567.30	1699.81
567.50	1724.39
567.69	1746.92
567.89	1757.16
568.08	1687.53
568.28	1759.21
568.47	1720.29
568.67	1701.86
568.86	1751.01
569.06	1746.92
569.25	1624.04
569.45	1734.63
569.64	1705.96
569.84	1728.49
570.04	1771.49
570.23	1636.33
570.43	1742.82
570.62	1738.73
570.82	1853.41
571.01	1683.43
571.21	1699.81
571.40	1791.97
571.60	1814.50
571.79	1781.73
571.99	1777.64
572.18	1693.67
572.38	1699.81
572.57	1697.77
572.77	1685.48
572.96	1873.89
573.16	1787.88
573.35	1748.97
573.55	1828.84
573.74	1794.02
573.94	1714.15
574.13	1826.79
574.33	1814.50
574.52	1783.78
574.71	1763.30
574.91	1751.01
575.10	1738.73
575.30	1726.44
575.49	1642.47
575.69	1712.10
575.88	1800.16
576.08	1806.31
576.27	1794.02
576.47	1720.29
576.66	1841.12
576.86	1800.16
577.05	1767.40
577.25	1779.68
577.44	1802.21
577.64	1808.36
577.83	1861.60
578.02	1697.77
578.22	1832.93
578.41	1839.08
578.61	1730.53
578.80	1695.72
579.00	1773.54
579.19	1736.68
579.39	1914.85
579.58	1781.73
579.77	1695.72
579.97	1851.36
580.16	1759.21
580.36	1802.21
580.55	1839.08
580.75	1841.12
580.94	1705.96
581.13	1847.27
581.33	1851.36
581.52	1816.55
581.72	1804.26
581.91	1871.84
582.11	1730.53
582.30	1820.64
582.49	1798.12
582.69	1855.46
582.88	1769.44
583.08	1720.29
583.27	1877.99
583.47	1699.81
583.66	1677.29
583.85	1673.19
584.05	1738.73
584.24	1757.16
584.44	1845.22
584.63	1818.60
584.82	1939.43
585.02	1837.03
585.21	1820.64
585.41	1865.70
585.60	1853.41
585.79	1920.99
585.99	1861.60
586.18	1843.17
586.37	2189.28
586.57	3411.92
586.76	9664.36
586.96	23979.67
587.15	33584.64
587.34	39558.56
587.54	41174.41
587.73	35698.14
587.93	25519.74
588.12	21165.76
588.31	17839.86
588.51	15961.87
588.70	14743.33
588.89	13895.47
589.09	12431.17
589.28	10858.33
589.47	9213.81
589.67	7802.76
589.86	6123.43
590.06	4861.88
590.25	3891.14
590.44	3059.67
590.64	2650.07
590.83	2203.61
591.02	2103.26
591.22	1888.23
591.41	1886.18
591.60	1849.32
591.80	1955.81
591.99	1800.16
592.18	1798.12
592.38	1923.04
592.57	1816.55
592.76	1761.25
592.96	1812.45
593.15	1834.98
593.34	1834.98
593.54	1748.97
593.73	1751.01
593.92	1855.46
594.12	1765.35
594.31	1718.25
594.50	1806.31
594.70	1808.36
594.89	1966.05
595.08	1689.57
595.28	1822.69
595.47	1927.14
595.66	1804.26
595.86	1744.87
596.05	1814.50
596.24	1685.48
596.43	1912.80
596.63	1849.32
596.82	1789.92
597.01	1773.54
597.21	1855.46
597.40	1798.12
597.59	1738.73
597.79	1751.01
597.98	1767.40
598.17	1742.82
598.36	1783.78
598.56	1759.21
598.75	1730.53
598.94	1714.15
599.14	1658.85
599.33	1624.04
599.52	1798.12
599.71	1783.78
599.91	1837.03
600.10	1773.54
600.29	1787.88
600.48	1857.51
600.68	1828.84
600.87	1755.11
601.06	1656.81
601.26	1728.49
601.45	1775.59
601.64	1728.49
601.83	1794.02
602.03	1773.54
602.22	1662.95
602.41	1783.78
602.60	1861.60
602.80	1837.03
602.99	1748.97
603.18	1681.38
603.37	1714.15
603.57	1656.81
603.76	1830.88
603.95	1804.26
604.14	1703.91
604.34	1665.00
604.53	1771.49
604.72	1722.34
604.91	1746.92
605.10	1828.84
605.30	1722.34
605.49	1855.46
605.68	1765.35
605.87	1832.93
606.07	1628.14
606.26	1742.82
606.45	1785.83
606.64	1759.21
606.84	1701.86
607.03	1701.86
607.22	1791.97
607.41	1697.77
607.60	1693.67
607.80	1734.63
607.99	1740.77
608.18	1701.86
608.37	1779.68
608.56	1662.95
608.76	1847.27
608.95	1886.18
609.14	1691.62
609.33	1777.64
609.52	1845.22
609.72	1724.39
609.91	1818.60
610.10	1755.11
610.29	1789.92
610.48	1744.87
610.68	1742.82
610.87	1765.35
611.06	1773.54
611.25	1802.21
611.44	1751.01
611.63	1728.49
611.83	1783.78
612.02	1687.53
612.21	1853.41
612.40	1683.43
612.59	1695.72
612.79	1646.57
612.98	1697.77
613.17	1875.94
613.36	1652.71
613.55	1875.94
613.74	1693.67
613.93	1751.01
614.13	1740.77
614.32	1761.25
614.51	1746.92
614.70	1783.78
614.89	1699.81
615.08	1839.08
615.28	2043.87
615.47	1689.57
615.66	1736.68
615.85	1695.72
616.04	1904.61
616.23	1724.39
616.42	1822.69
616.62	1724.39
616.81	1845.22
617.00	1722.34
617.19	1806.31
617.38	1675.24
617.57	1820.64
617.76	1742.82
617.95	1814.50
618.15	1779.68
618.34	1763.30
618.53	1630.18
618.72	1794.02
618.91	1796.07
619.10	1740.77
619.29	1681.38
619.48	1722.34
619.68	1789.92
619.87	1716.20
620.06	1708.01
620.25	1716.20
620.44	1777.64
620.63	1759.21
620.82	1845.22
621.01	1734.63
621.20	1740.77
621.39	1830.88
621.59	1791.97
621.78	1669.09
621.97	1730.53
622.16	1734.63
622.35	1734.63
622.54	1765.35
622.73	1779.68
622.92	1712.10
623.11	1775.59
623.30	1617.90
623.49	1718.25
623.68	1746.92
623.88	1742.82
624.07	1746.92
624.26	1697.77
624.45	1746.92
624.64	1736.68
624.83	1759.21
625.02	1744.87
625.21	1710.05
625.40	1734.63
625.59	1789.92
625.78	1671.14
625.97	1777.64
626.16	1761.25
626.35	1726.44
626.54	1703.91
626.74	1875.94
626.93	1667.05
627.12	1744.87
627.31	1716.20
627.50	1781.73
627.69	1798.12
627.88	1658.85
628.07	1767.40
628.26	1574.89
628.45	1630.18
628.64	1673.19
628.83	1755.11
629.02	1658.85
629.21	1761.25
629.40	1746.92
629.59	1669.09
629.78	1714.15
629.97	1775.59
630.16	1701.86
630.35	1703.91
630.54	1798.12
630.73	1720.29
630.92	1732.58
631.11	1654.76
631.30	1777.64
631.49	1798.12
631.68	1783.78
631.87	1759.21
632.06	1705.96
632.25	1791.97
632.44	1771.49
632.63	1738.73
632.82	1744.87
633.01	1689.57
633.20	1765.35
633.39	1714.15
633.58	1648.61
633.77	1703.91
633.96	1748.97
634.15	1771.49
634.34	1742.82
634.53	1720.29
634.72	1689.57
634.91	1683.43
635.10	1714.15
635.29	1712.10
635.48	1722.34
635.67	1667.05
635.86	1673.19
636.05	1726.44
636.24	1697.77
636.43	1701.86
636.62	1812.45
636.81	1583.08
637.00	1730.53
637.19	1705.96
637.38	1804.26
637.57	1718.25
637.76	1693.67
637.95	1753.06
638.14	1730.53
638.33	1701.86
638.52	1615.85
638.71	1568.74
638.89	1689.57
639.08	1834.98
639.27	1769.44
639.46	1630.18
639.65	1906.66
639.84	1839.08
640.03	1789.92
640.22	1757.16
640.41	1849.32
640.60	1705.96
640.79	1751.01
640.98	1683.43
641.17	1738.73
641.36	1695.72
641.55	1662.95
641.74	1673.19
641.92	1710.05
642.11	1652.71
642.30	1724.39
642.49	1734.63
642.68	1724.39
642.87	1773.54
643.06	1865.70
643.25	1769.44
643.44	1697.77
643.63	1652.71
643.82	1773.54
644.00	1665.00
644.19	1726.44
644.38	1685.48
644.57	1771.49
644.76	1763.30
644.95	1699.81
645.14	1667.05
645.33	1751.01
645.52	1701.86
645.71	1677.29
645.89	1708.01
646.08	1742.82
646.27	1732.58
646.46	1869.80
646.65	1611.75
646.84	1759.21
647.03	1691.62
647.22	1841.12
647.40	1708.01
647.59	1767.40
647.78	1583.08
647.97	1648.61
648.16	1662.95
648.35	1832.93
648.54	1798.12
648.73	1746.92
648.91	1771.49
649.10	1755.11
649.29	1658.85
649.48	1662.95
649.67	1736.68
649.86	1671.14
650.05	1716.20
650.23	1751.01
650.42	1681.38
650.61	1812.45
650.80	1714.15
650.99	1880.04
651.18	1767.40
651.36	1732.58
651.55	1732.58
651.74	1759.21
651.93	1718.25
652.12	1642.47
652.31	1724.39
652.49	1798.12
652.68	1693.67
652.87	1822.69
653.06	1681.38
653.25	1806.31
653.44	1710.05
653.62	1798.12
653.81	1763.30
654.00	1783.78
654.19	1744.87
654.38	1839.08
654.56	1820.64
654.75	1763.30
654.94	1796.07
655.13	1761.25
655.32	1832.93
655.51	1730.53
655.69	1667.05
655.88	1746.92
656.07	1677.29
656.26	1724.39
656.45	1654.76
656.63	1720.29
656.82	1714.15
657.01	1806.31
657.20	1730.53
657.38	1822.69
657.57	1697.77
657.76	1712.10
657.95	1767.40
658.14	1665.00
658.32	1753.06
658.51	1689.57
658.70	1691.62
658.89	1699.81
659.08	1785.83
659.26	1820.64
659.45	1685.48
659.64	1789.92
659.83	1683.43
660.01	2000.87
660.20	1761.25
660.39	1798.12
660.58	1665.00
660.76	1888.23
660.95	1601.51
661.14	1755.11
661.33	1632.23
661.51	1712.10
661.70	1703.91
661.89	1701.86
662.08	1773.54
662.26	1701.86
662.45	1681.38
662.64	1785.83
662.83	1800.16
663.01	1624.04
663.20	1730.53
663.39	1789.92
663.58	1734.63
663.76	1753.06
663.95	1796.07
664.14	1718.25
664.32	1712.10
664.51	1658.85
664.70	1617.90
664.89	1826.79
665.07	1628.14
665.26	1736.68
665.45	1714.15
665.64	1789.92
665.82	1777.64
666.01	1802.21
666.20	1636.33
666.38	1875.94
666.57	1884.13
666.76	2179.04
666.95	4421.56
667.13	10332.00
667.32	14964.51
667.51	17706.74
667.69	18534.12
667.88	17420.02
668.07	12113.74
668.25	9242.48
668.44	8052.61
668.63	7333.78
668.81	6731.67
669.00	5980.07
669.19	5515.18
669.38	5081.01
669.56	4634.55
669.75	3932.10
669.94	3401.68
670.12	2846.68
670.31	2549.72
670.50	2215.90
670.68	2080.74
670.87	1984.48
671.06	1814.50
671.24	1789.92
671.43	1791.97
671.62	1738.73
671.80	1693.67
671.99	1751.01
672.18	1705.96
672.36	1775.59
672.55	1646.57
672.74	1685.48
672.92	1767.40
673.11	1720.29
673.29	1691.62
673.48	1683.43
673.67	1685.48
673.85	1871.84
674.04	1714.15
674.23	1769.44
674.41	1802.21
674.60	1681.38
674.79	1679.33
674.97	1712.10
675.16	1800.16
675.34	1753.06
675.53	1724.39
675.72	1740.77
675.90	1820.64
676.09	1642.47
676.28	1773.54
676.46	1644.52
676.65	1796.07
676.83	1703.91
677.02	1728.49
677.21	1761.25
677.39	1783.78
677.58	1701.86
677.77	1691.62
677.95	1765.35
678.14	1691.62
678.32	1736.68
678.51	1738.73
678.70	1787.88
678.88	1701.86
679.07	1742.82
679.25	1636.33
679.44	1718.25
679.63	1638.38
679.81	1705.96
680.00	1808.36
680.18	1757.16
680.37	1787.88
680.55	1722.34
680.74	1558.50
680.93	1591.27
681.11	1718.25
681.30	1783.78
681.48	1759.21
681.67	1714.15
681.85	1748.97
682.04	1624.04
682.23	1679.33
682.41	1744.87
682.60	1705.96
682.78	1755.11
682.97	1605.61
683.15	1761.25
683.34	1718.25
683.53	1873.89
683.71	1687.53
683.90	1794.02
684.08	1798.12
684.27	1687.53
684.45	1738.73
684.64	1863.65
684.82	1697.77
685.01	1789.92
685.19	1677.29
685.38	1824.74
685.57	1650.66
685.75	1732.58
685.94	1667.05
686.12	1677.29
686.31	1724.39
686.49	1763.30
686.68	1654.76
686.86	1699.81
687.05	1705.96
687.23	1820.64
687.42	1669.09
687.60	1648.61
687.79	1742.82
687.97	1791.97
688.16	1867.75
688.34	1751.01
688.53	1621.99
688.71	1705.96
688.90	1775.59
689.08	1726.44
689.27	1601.51
689.45	1759.21
689.64	1839.08
689.82	1771.49
690.01	1744.87
690.19	1746.92
690.38	1744.87
690.56	1869.80
690.75	1644.52
690.93	1714.15
691.12	1730.53
691.30	1753.06
691.49	1718.25
691.67	1634.28
691.86	1859.56
692.04	1634.28
692.23	1669.09
692.41	1708.01
692.60	1814.50
692.78	1791.97
692.97	1742.82
693.15	1757.16
693.34	1773.54
693.52	1806.31
693.71	1742.82
693.89	1701.86
694.08	1640.42
694.26	1734.63
694.44	1732.58
694.63	1775.59
694.81	1665.00
695.00	1675.24
695.18	1734.63
695.37	1857.51
695.55	1710.05
695.74	1738.73
695.92	1636.33
696.10	1851.36
696.29	1650.66
696.47	1632.23
696.66	1681.38
696.84	1697.77
697.03	1769.44
697.21	1837.03
697.40	2279.39
697.58	1875.94
697.76	1722.34
697.95	1665.00
698.13	1753.06
698.32	1710.05
698.50	1683.43
698.68	1828.84
698.87	1722.34
699.05	1853.41
699.24	1720.29
699.42	1693.67
699.61	1710.05
699.79	1714.15
699.97	1683.43
700.16	1644.52
700.34	1636.33
700.53	1685.48
700.71	1826.79
700.89	1699.81
701.08	1701.86
701.26	1681.38
701.45	2138.08
701.63	1673.19
701.81	1732.58
702.00	1710.05
702.18	1769.44
702.37	1669.09
702.55	1697.77
702.73	1689.57
702.92	1665.00
703.10	1755.11
703.28	1773.54
703.47	1699.81
703.65	1740.77
703.84	1783.78
704.02	1673.19
704.20	1740.77
704.39	1742.82
704.57	1753.06
704.75	1834.98
704.94	1691.62
705.12	1759.21
705.30	1794.02
705.49	2336.73
705.67	4440.00
705.86	9322.35
706.04	12382.02
706.22	14341.93
706.41	15030.04
706.59	13596.46
706.77	9265.01
706.96	7212.95
707.14	6504.35
707.32	5818.28
707.51	5523.37
707.69	4845.49
707.87	4126.66
708.06	3362.76
708.24	3000.27
708.42	2443.23
708.61	2217.95
708.79	1935.33
708.97	1873.89
709.16	1841.12
709.34	1853.41
709.52	1734.63
709.71	1763.30
709.89	1900.52
710.07	1626.09
710.26	1685.48
710.44	1697.77
710.62	1738.73
710.80	1697.77
710.99	1875.94
711.17	1798.12
711.35	1705.96
711.54	1705.96
711.72	1767.40
711.90	1804.26
712.09	1734.63
712.27	1683.43
712.45	1796.07
712.63	1685.48
712.82	1730.53
713.00	1751.01
713.18	1775.59
713.37	1650.66
713.55	1765.35
713.73	1753.06
713.91	1755.11
714.10	1669.09
714.28	1781.73
714.46	1716.20
714.65	1740.77
714.83	1724.39
715.01	1720.29
715.19	1738.73
715.38	1636.33
715.56	1720.29
715.74	1587.18
715.92	1665.00
716.11	1753.06
716.29	1550.31
716.47	1642.47
716.65	1626.09
716.84	1607.66
717.02	1826.79
717.20	1624.04
717.38	1693.67
717.57	1665.00
717.75	1732.58
717.93	1736.68
718.11	1732.58
718.30	1599.46
718.48	1701.86
718.66	1794.02
718.84	1734.63
719.03	1705.96
719.21	1712.10
719.39	1837.03
719.57	1703.91
719.75	1783.78
719.94	1677.29
720.12	1755.11
720.30	1726.44
720.48	1746.92
720.67	1660.90
720.85	1718.25
721.03	1667.05
721.21	1728.49
721.39	1816.55
721.58	1705.96
721.76	1740.77
721.94	1759.21
722.12	1789.92
722.30	1789.92
722.49	1726.44
722.67	1785.83
722.85	1783.78
723.03	1589.22
723.21	1648.61
723.40	1738.73
723.58	1669.09
723.76	1695.72
723.94	1722.34
724.12	1742.82
724.30	1783.78
724.49	1828.84
724.67	1642.47
724.85	1832.93
725.03	1667.05
725.21	1714.15
725.40	1798.12
725.58	1740.77
725.76	1857.51
725.94	1742.82
726.12	1626.09
726.30	1689.57
726.49	1712.10
726.67	1697.77
726.85	1796.07
727.03	1710.05
727.21	2185.18
727.39	2944.98
727.57	3860.42
727.76	4177.86
727.94	4323.26
728.12	4294.59
728.30	3653.58
728.48	2977.75
728.66	2719.70
728.84	2523.10
729.03	2314.20
729.21	2113.50
729.39	1992.67
729.57	1837.03
729.75	1736.68
729.93	1775.59
730.11	1732.58
730.30	1673.19
730.48	1673.19
730.66	1814.50
730.84	1759.21
731.02	1705.96
731.20	1705.96
731.38	1689.57
731.56	1570.79
731.74	1646.57
731.93	1751.01
732.11	1746.92
732.29	1705.96
732.47	1736.68
732.65	1665.00
732.83	1814.50
733.01	1697.77
733.19	1665.00
733.37	1763.30
733.56	1726.44
733.74	1681.38
733.92	1789.92
734.10	1757.16
734.28	1814.50
734.46	1624.04
734.64	1738.73
734.82	1751.01
735.00	1654.76
735.18	1679.33
735.36	1779.68
735.54	1734.63
735.73	1783.78
735.91	1767.40
736.09	1765.35
736.27	1650.66
736.45	1775.59
736.63	1669.09
736.81	1718.25
736.99	1785.83
737.17	1726.44
737.35	1751.01
737.53	1699.81
737.71	1681.38
737.89	1828.84
738.07	1675.24
738.25	1652.71
738.43	1660.90
738.61	1728.49
738.80	1654.76
738.98	1687.53
739.16	1656.81
739.34	1632.23
739.52	1753.06
739.70	1701.86
739.88	1765.35
740.06	1781.73
740.24	1595.37
740.42	1791.97
740.60	1607.66
740.78	1714.15
740.96	1558.50
741.14	1667.05
741.32	1705.96
741.50	1638.38
741.68	1843.17
741.86	1746.92
742.04	1673.19
742.22	1621.99
742.40	1712.10
742.58	1755.11
742.76	1624.04
742.94	1791.97
743.12	1572.84
743.30	1728.49
743.48	1732.58
743.66	1675.24
743.84	1718.25
744.02	1683.43
744.20	1710.05
744.38	1677.29
744.56	1683.43
744.74	1832.93
744.92	1710.05
745.10	1824.74
745.28	1759.21
745.46	1816.55
745.64	1761.25
745.82	1689.57
746.00	1714.15
746.18	1748.97
746.36	1685.48
746.54	1740.77
746.72	1730.53
746.90	1679.33
747.08	1826.79
747.26	1716.20
747.44	1787.88
747.62	1730.53
747.80	1757.16
747.98	1779.68
748.15	1689.57
748.33	1796.07
748.51	1724.39
748.69	1691.62
748.87	1689.57
749.05	1720.29
749.23	1638.38
749.41	1691.62
749.59	1705.96
749.77	1767.40
749.95	1656.81
750.13	1730.53
750.31	1695.72
750.49	1650.66
750.67	1761.25
750.85	1748.97
751.03	1765.35
751.20	1830.88
751.38	1710.05
751.56	1673.19
751.74	1755.11
751.92	1718.25
752.10	1691.62
752.28	1824.74
752.46	1685.48
752.64	1732.58
752.82	1734.63
753.00	1783.78
753.18	1636.33
753.35	1656.81
753.53	1722.34
753.71	1705.96
753.89	1789.92
754.07	1726.44
754.25	1687.53
754.43	1730.53
754.61	1640.42
754.79	1746.92
754.97	1748.97
755.14	1847.27
755.32	1638.38
755.50	1687.53
755.68	1740.77
755.86	1755.11
756.04	1656.81
756.22	1687.53
756.40	1757.16
756.57	1826.79
756.75	1710.05
756.93	1720.29
757.11	1724.39
757.29	1624.04
757.47	1806.31
757.65	1654.76
757.82	1624.04
758.00	1734.63
758.18	1683.43
758.36	1656.81
758.54	1935.33
758.72	1681.38
758.90	1796.07
759.07	1705.96
759.25	1742.82
759.43	1742.82
759.61	1605.61
759.79	2234.33
759.97	1734.63
760.15	1724.39
760.32	1751.01
760.50	1757.16
760.68	1759.21
760.86	1660.90
761.04	1687.53
761.22	1796.07
761.39	1742.82
761.57	1736.68
761.75	1699.81
761.93	1779.68
762.11	1763.30
762.28	1730.53
762.46	1699.81
762.64	1787.88
762.82	1626.09
763.00	1675.24
763.18	1744.87
763.35	1630.18
763.53	1755.11
763.71	1693.67
763.89	1722.34
764.07	1693.67
764.24	1630.18
764.42	1728.49
764.60	1697.77
764.78	1705.96
764.96	1765.35
765.13	1757.16
765.31	1665.00
765.49	1800.16
765.67	1669.09
765.84	1603.56
766.02	1673.19
766.20	1679.33
766.38	1771.49
766.56	1718.25
766.73	1812.45
766.91	1683.43
767.09	1681.38
767.27	1740.77
767.44	1638.38
767.62	1796.07
767.80	1703.91
767.98	1759.21
768.15	1665.00
768.33	1785.83
768.51	1732.58
768.69	1773.54
768.87	1734.63
769.04	1607.66
769.22	1855.46
769.40	1785.83
769.58	1918.95
769.75	1679.33
769.93	1775.59
770.11	1783.78
770.28	1687.53
770.46	1763.30
770.64	1695.72
770.82	1714.15
770.99	1710.05
771.17	1761.25
771.35	1660.90
771.53	1705.96
771.70	1695.72
771.88	1761.25
772.06	1726.44
772.23	1703.91
772.41	1755.11
772.59	1667.05
772.77	1638.38
772.94	1658.85
773.12	1728.49
773.30	1746.92
773.47	1753.06
773.65	1677.29
773.83	1755.11
774.01	1714.15
774.18	1554.41
774.36	1615.85
774.54	1683.43
774.71	1748.97
774.89	1619.94
775.07	1714.15
775.24	1730.53
775.42	1673.19
775.60	1927.14
775.78	1699.81
775.95	1689.57
776.13	1691.62
776.31	1599.46
776.48	1689.57
776.66	1759.21
776.84	1652.71
777.01	1703.91
777.19	1646.57
777.37	1720.29
777.54	1693.67
777.72	1781.73
777.90	1681.38
778.07	1673.19
778.25	1861.60
778.43	1697.77
778.60	1730.53
778.78	1675.24
778.96	1712.10
779.13	1669.09
779.31	1822.69
779.49	1718.25
779.66	1695.72
779.84	1673.19
780.01	1724.39
780.19	1652.71
780.37	1791.97
780.54	1708.01
780.72	1656.81
780.90	1675.24
781.07	1708.01
781.25	1705.96
781.43	1789.92
781.60	1728.49
781.78	1753.06
781.95	1736.68
782.13	1697.77
782.31	1751.01
782.48	1734.63
782.66	1710.05
782.83	1775.59
783.01	1669.09
783.19	1691.62
783.36	1740.77
783.54	1718.25
783.72	1720.29
783.89	1687.53
784.07	1724.39
784.24	1759.21
784.42	1718.25
784.60	1673.19
784.77	1789.92
784.95	1654.76
785.12	1681.38
785.30	1710.05
785.47	1658.85
785.65	1673.19
785.83	1732.58
786.00	1755.11
786.18	1650.66
786.35	1687.53
786.53	1699.81
786.71	1837.03
786.88	1738.73
787.06	1714.15
787.23	1726.44
787.41	1642.47
787.58	1716.20
787.76	1685.48
787.94	1746.92
788.11	1744.87
788.29	1650.66
788.46	1710.05
788.64	1665.00
788.81	1705.96
788.99	1720.29
789.16	1689.57
789.34	1714.15
789.52	1595.37
789.69	1654.76
789.87	1585.13
790.04	1646.57
790.22	1681.38
790.39	1863.65
790.57	1656.81
790.74	1685.48
790.92	1732.58
791.09	1568.74
791.27	1656.81
791.44	1779.68
791.62	1753.06
791.79	1773.54
791.97	1685.48
792.15	1841.12
792.32	1675.24
792.50	1724.39
792.67	1845.22
792.85	1800.16
793.02	1781.73
793.20	1626.09
793.37	1638.38
793.55	1720.29
793.72	1689.57
793.90	1779.68
794.07	1689.57
794.25	1669.09
794.42	1751.01
794.60	1732.58
794.77	1687.53
794.95	1806.31
795.12	1769.44
795.30	1685.48
795.47	1644.52
795.65	1861.60
795.82	1724.39
796.00	1683.43
796.17	1718.25
796.34	1773.54
796.52	1705.96
796.69	1767.40
796.87	1767.40
797.04	1751.01
797.22	1722.34
797.39	1720.29
797.57	1710.05
797.74	1691.62
797.92	1712.10
798.09	1710.05
798.27	1738.73
798.44	1753.06
798.62	1703.91
798.79	1736.68
798.96	1781.73
799.14	1638.38
799.31	1820.64
799.49	1730.53
799.66	1652.71
799.84	1634.28
800.01	1675.24
800.19	1753.06
800.36	1648.61
800.53	1716.20
800.71	1765.35
800.88	1777.64
801.06	1685.48
801.23	1710.05
801.41	1699.81
801.58	1624.04
801.75	1662.95
801.93	1720.29
802.10	1724.39
802.28	1640.42
802.45	1628.14
802.63	1824.74
802.80	1771.49
802.97	1660.90
803.15	1779.68
803.32	1712.10
803.50	1621.99
803.67	1626.09
803.84	1656.81
804.02	1775.59
804.19	1665.00
804.37	1562.60
804.54	1677.29
804.71	1746.92
804.89	1732.58
805.06	1718.25
805.24	1611.75
805.41	1660.90
805.58	1687.53
805.76	1810.40
805.93	1730.53
806.10	1789.92
806.28	1773.54
806.45	1705.96
806.63	1779.68
806.80	1671.14
806.97	1781.73
807.15	1699.81
807.32	1730.53
807.49	1724.39
807.67	1611.75
807.84	1724.39
808.01	1685.48
808.19	1894.37
808.36	1832.93
808.54	1667.05
808.71	1658.85
808.88	1751.01
809.06	1787.88
809.23	1822.69
809.40	1679.33
809.58	1820.64
809.75	1755.11
809.92	1654.76
810.10	1822.69
810.27	1734.63
810.44	1656.81
810.62	1765.35
810.79	1720.29
810.96	1710.05
811.14	1693.67
811.31	1726.44
811.48	1753.06
811.66	1814.50
811.83	1783.78
812.00	1708.01
812.18	1685.48
812.35	1845.22
812.52	1716.20
812.69	1662.95
812.87	1728.49
813.04	1710.05
813.21	1771.49
813.39	1613.80
813.56	1660.90
813.73	1791.97
813.91	1572.84
814.08	1783.78
814.25	1687.53
814.42	1621.99
814.60	1718.25
814.77	1843.17
814.94	1628.14
815.12	1671.14
815.29	1732.58
815.46	1728.49
815.63	1691.62
815.81	1699.81
815.98	1685.48
816.15	1693.67
816.33	1796.07
816.50	1667.05
816.67	1665.00
816.84	1710.05
817.02	1595.37
817.19	1705.96
817.36	1738.73
817.53	1736.68
817.71	1697.77
817.88	1732.58
818.05	1728.49
818.22	1693.67
818.40	1816.55
818.57	1691.62
818.74	1736.68
818.91	1710.05
819.09	1830.88
819.26	1742.82
819.43	1673.19
819.60	1722.34
819.78	1716.20
819.95	1771.49
820.12	1634.28
820.29	1828.84
820.47	1789.92
820.64	1675.24
820.81	1683.43
820.98	1605.61
821.15	1656.81
821.33	1722.34
821.50	1546.22
821.67	1767.40
821.84	1673.19
822.02	1777.64
822.19	1738.73
822.36	1703.91
822.53	1710.05
822.70	1677.29
822.88	1660.90
823.05	1798.12
823.22	1671.14
823.39	1726.44
823.56	1703.91
823.74	1855.46
823.91	1644.52
824.08	1650.66
824.25	1599.46
824.42	1820.64
824.60	1665.00
824.77	1816.55
824.94	1665.00
825.11	1734.63
825.28	1617.90
825.45	1771.49
825.63	1769.44
825.80	1687.53
825.97	1759.21
826.14	1712.10
826.31	1654.76
826.48	1791.97
826.66	1677.29
826.83	1718.25
827.00	1765.35
827.17	1671.14
827.34	1722.34
827.51	1665.00
827.69	1697.77
827.86	1599.46
828.03	1671.14
828.20	1701.86
828.37	1644.52
828.54	1740.77
828.71	1660.90
828.89	1832.93
829.06	1701.86
829.23	1689.57
829.40	1720.29
829.57	1681.38
829.74	1718.25
829.91	1714.15
830.09	1671.14
830.26	1716.20
830.43	1732.58
830.60	1634.28
830.77	1677.29
830.94	1771.49
831.11	1781.73
831.28	1705.96
831.46	1789.92
831.63	1751.01
831.80	1822.69
831.97	1755.11
832.14	1665.00
832.31	1771.49
832.48	1685.48
832.65	1804.26
832.82	1755.11
832.99	1689.57
833.17	1607.66
833.34	1794.02
833.51	1732.58
833.68	1591.27
833.85	1820.64
834.02	1687.53
834.19	1691.62
834.36	1742.82
834.53	1738.73
834.70	1781.73
834.87	1787.88
835.04	1669.09
835.22	1578.98
835.39	1691.62
835.56	1626.09
835.73	1611.75
835.90	1810.40
836.07	1687.53
836.24	1777.64
836.41	1624.04
836.58	1693.67
836.75	1718.25
836.92	1693.67
837.09	1722.34
837.26	1716.20
837.43	1665.00
837.60	1728.49
837.77	1701.86
837.94	1783.78
838.12	1789.92
838.29	1800.16
838.46	1640.42
838.63	1624.04
838.80	1746.92
838.97	1693.67
839.14	1726.44
839.31	1726.44
839.48	1738.73
839.65	1632.23
839.82	1757.16
839.99	1728.49
840.16	1767.40
840.33	1679.33
840.50	1734.63
840.67	1652.71
840.84	1630.18
841.01	1697.77
841.18	1673.19
841.35	1728.49
841.52	1779.68
841.69	1818.60
841.86	1732.58
842.03	1701.86
842.20	1753.06
842.37	1765.35
842.54	1679.33
842.71	1705.96
842.88	1587.18
843.05	1726.44
843.22	1722.34
843.39	1687.53
843.56	1640.42
843.73	1734.63
843.90	1738.73
844.07	1615.85
844.24	1746.92
844.41	1712.10
844.58	1775.59
844.75	1708.01
844.92	1738.73
845.09	1687.53
845.26	1759.21
845.43	1710.05
845.60	1687.53
845.77	1751.01
845.94	1685.48
846.10	1763.30
846.27	1667.05
846.44	1589.22
846.61	1714.15
846.78	1652.71
846.95	1763.30
847.12	1798.12
847.29	1734.63
847.46	1646.57
847.63	1755.11
847.80	1648.61
847.97	1636.33
848.14	1796.07
848.31	1722.34
848.48	1675.24
848.65	1748.97
848.82	1722.34
848.98	1894.37
849.15	1744.87
849.32	1777.64
849.49	1789.92
849.66	1689.57
849.83	1751.01
850.00	1681.38
850.17	1714.15
850.34	1624.04
850.51	1691.62
850.68	1646.57
850.85	1845.22
851.01	1679.33
851.18	1751.01
851.35	1703.91
851.52	1753.06
851.69	1789.92
851.86	1650.66
852.03	1693.67
852.20	1691.62
852.37	1779.68
852.53	1583.08
852.70	1691.62
852.87	1716.20
853.04	1767.40
853.21	1730.53
853.38	1849.32
853.55	1781.73
853.72	1703.91
853.89	1761.25
854.05	1644.52
854.22	1734.63
854.39	1626.09
854.56	1730.53
854.73	1816.55
854.90	1617.90
855.07	1642.47
855.23	1705.96
855.40	1712.10
855.57	1638.38
855.74	1617.90
855.91	1918.95
856.08	1689.57
856.25	1675.24
856.41	1605.61
856.58	1634.28
856.75	1669.09
856.92	1675.24
857.09	1765.35
857.26	1667.05
857.42	1683.43
857.59	1683.43
857.76	1656.81
857.93	1769.44
858.10	1710.05
858.27	1730.53
858.43	1722.34
858.60	1734.63
858.77	1665.00
858.94	1726.44
859.11	1640.42
859.27	1644.52
859.44	1710.05
859.61	1847.27
859.78	1755.11
859.95	1697.77
860.12	1689.57
860.28	1806.31
860.45	1839.08
860.62	1734.63
860.79	1714.15
860.95	1660.90
861.12	1619.94
861.29	1628.14
861.46	1626.09
861.63	1755.11
861.79	1722.34
861.96	1716.20
862.13	1724.39
862.30	1763.30
862.47	1691.62
862.63	1718.25
862.80	1708.01
862.97	1771.49
863.14	1800.16
863.30	1734.63
863.47	1681.38
863.64	1787.88
863.81	1783.78
863.97	1683.43
864.14	1761.25
864.31	1703.91
864.48	1722.34
864.65	1759.21
864.81	1779.68
864.98	1730.53
865.15	1812.45
865.32	1814.50
865.48	1783.78
865.65	1804.26
865.82	1597.42
865.98	1787.88
866.15	1804.26
866.32	1732.58
866.49	1755.11
866.65	1763.30
866.82	1693.67
866.99	1738.73
867.16	1660.90
867.32	1718.25
867.49	1624.04
867.66	1697.77
867.83	1644.52
867.99	1564.65
868.16	1697.77
868.33	1652.71
868.49	1701.86
868.66	1677.29
868.83	1755.11
868.99	1724.39
869.16	1748.97
869.33	1751.01
869.50	1798.12
869.66	1722.34
869.83	1681.38
870.00	1691.62
870.16	1724.39
870.33	1646.57
870.50	1687.53
870.66	1724.39
870.83	1832.93
871.00	1660.90
871.17	1806.31
871.33	1734.63
871.50	1683.43
871.67	1705.96
871.83	1710.05
872.00	1777.64
872.17	1738.73
872.33	1808.36
872.50	1736.68
872.67	1751.01
872.83	1689.57
873.00	1708.01
873.17	1658.85
873.33	1736.68
873.50	1824.74
873.67	1626.09
873.83	1667.05
874.00	1705.96
874.16	1740.77
874.33	1765.35
874.50	1609.70
874.66	1781.73
874.83	1697.77
875.00	1746.92
875.16	1779.68
875.33	1763.30
875.50	1640.42
875.66	1656.81
875.83	1691.62
875.99	1763.30
876.16	1619.94
876.33	1658.85
876.49	1728.49
876.66	1783.78
876.83	1736.68
876.99	1644.52
877.16	1693.67
877.32	1703.91
877.49	1685.48
877.66	1734.63
877.82	1824.74
877.99	1740.77
878.15	1732.58
878.32	1728.49
878.49	1701.86
878.65	1636.33
878.82	1765.35
878.98	1679.33
879.15	1744.87
879.32	1744.87
879.48	1781.73
879.65	1667.05
879.81	1691.62
879.98	1611.75
880.15	1675.24
880.31	1746.92
880.48	1626.09
880.64	1796.07
880.81	1763.30
880.97	1822.69
881.14	1830.88
881.31	1617.90
881.47	1896.42
881.64	1724.39
881.80	1708.01
881.97	1738.73
882.13	1701.86
882.30	1683.43
882.47	1730.53
882.63	1656.81
882.80	1658.85
882.96	1669.09
883.13	1724.39
883.29	1765.35
883.46	1712.10
883.62	1796.07
883.79	1763.30
883.95	1673.19
884.12	1685.48
884.29	1775.59
884.45	1732.58
884.62	1738.73
884.78	1710.05
884.95	1781.73
885.11	1630.18
885.28	1789.92
885.44	1724.39
885.61	1726.44
885.77	1816.55
885.94	1759.21
886.10	1683.43
886.27	1748.97
886.43	1791.97
886.60	1828.84
886.76	1683.43
886.93	1587.18
887.09	1765.35
887.26	1693.67
887.42	1771.49
887.59	1740.77
887.75	1834.98
887.92	1800.16
888.08	1679.33
888.25	1775.59
888.41	1673.19
888.58	1730.53
888.74	1673.19
888.91	1771.49
>>>>>End Processed Spectral Data<<<<<
