SpectraSuite Data File
++++++++++++++++++++++++++++++++++++
Date: Mon Jun 06 13:02:37 CEST 2016
User: root
Dark Spectrum Present: No
Reference Spectrum Present: No
Number of Sampled Component Spectra: 1
Spectrometers: USB4C02835
Integration Time (usec): 100000 (USB4C02835)
Spectra Averaged: 1 (USB4C02835)
Boxcar Smoothing: 0 (USB4C02835)
Correct for Electrical Dark: No (USB4C02835)
Strobe/Lamp Enabled: No (USB4C02835)
Correct for Detector Non-linearity: No (USB4C02835)
Correct for Stray Light: No (USB4C02835)
Number of Pixels in Processed Spectrum: 3648
>>>>>Begin Processed Spectral Data<<<<<
177.47	1492.97
177.69	1492.97
177.91	1492.97
178.13	1480.68
178.36	1470.44
178.58	1681.38
178.80	1732.58
179.02	1552.36
179.24	1736.68
179.46	1687.53
179.68	1775.59
179.90	1667.05
180.13	1697.77
180.35	1703.91
180.57	1730.53
180.79	1722.34
181.01	1703.91
181.23	1810.40
181.45	1724.39
181.67	1748.97
181.90	1771.49
182.12	1634.28
182.34	1697.77
182.56	1732.58
182.78	1693.67
183.00	1716.20
183.22	1667.05
183.44	1677.29
183.66	1771.49
183.89	1789.92
184.11	1681.38
184.33	1736.68
184.55	1755.11
184.77	1767.40
184.99	1681.38
185.21	1693.67
185.43	1843.17
185.65	1710.05
185.87	1742.82
186.10	1794.02
186.32	1869.80
186.54	1689.57
186.76	1738.73
186.98	1693.67
187.20	1748.97
187.42	1687.53
187.64	1746.92
187.86	1722.34
188.08	1712.10
188.30	1701.86
188.52	1673.19
188.75	1746.92
188.97	1812.45
189.19	1724.39
189.41	1662.95
189.63	1720.29
189.85	1673.19
190.07	1648.61
190.29	1646.57
190.51	1691.62
190.73	1640.42
190.95	1822.69
191.17	1648.61
191.39	1636.33
191.61	1701.86
191.84	1656.81
192.06	1673.19
192.28	1578.98
192.50	1863.65
192.72	1699.81
192.94	1716.20
193.16	1708.01
193.38	1710.05
193.60	1671.14
193.82	1646.57
194.04	1771.49
194.26	1701.86
194.48	1722.34
194.70	1691.62
194.92	1658.85
195.14	1757.16
195.36	1726.44
195.58	1716.20
195.80	1677.29
196.02	1630.18
196.24	1685.48
196.46	1685.48
196.69	1607.66
196.91	1806.31
197.13	1751.01
197.35	1695.72
197.57	1789.92
197.79	1689.57
198.01	1724.39
198.23	1675.24
198.45	1705.96
198.67	1636.33
198.89	1697.77
199.11	1718.25
199.33	1675.24
199.55	1550.31
199.77	1689.57
199.99	1703.91
200.21	1626.09
200.43	1744.87
200.65	1552.36
200.87	1632.23
201.09	1759.21
201.31	1648.61
201.53	1736.68
201.75	1679.33
201.97	1662.95
202.19	1738.73
202.41	1716.20
202.63	1787.88
202.85	1697.77
203.07	1789.92
203.29	1705.96
203.51	1656.81
203.73	1634.28
203.95	1898.47
204.17	1658.85
204.39	1781.73
204.61	1705.96
204.83	1615.85
205.05	1746.92
205.27	1796.07
205.49	1849.32
205.71	1732.58
205.93	1630.18
206.15	1634.28
206.37	1697.77
206.59	1751.01
206.81	1630.18
207.03	1662.95
207.25	1630.18
207.47	1789.92
207.69	1695.72
207.91	1769.44
208.13	1767.40
208.34	1746.92
208.56	1574.89
208.78	1763.30
209.00	1662.95
209.22	1732.58
209.44	1691.62
209.66	1660.90
209.88	1708.01
210.10	1720.29
210.32	1669.09
210.54	1765.35
210.76	1660.90
210.98	1662.95
211.20	1619.94
211.42	1742.82
211.64	1781.73
211.86	1724.39
212.08	1748.97
212.30	1769.44
212.52	1628.14
212.74	1683.43
212.96	1714.15
213.17	1781.73
213.39	1691.62
213.61	1738.73
213.83	1705.96
214.05	1632.23
214.27	1710.05
214.49	1632.23
214.71	1662.95
214.93	1812.45
215.15	1652.71
215.37	1798.12
215.59	1628.14
215.81	1771.49
216.03	1716.20
216.24	1665.00
216.46	1730.53
216.68	1773.54
216.90	1748.97
217.12	1771.49
217.34	1650.66
217.56	1679.33
217.78	1824.74
218.00	1740.77
218.22	1740.77
218.44	1636.33
218.66	1744.87
218.87	1800.16
219.09	1744.87
219.31	1746.92
219.53	1697.77
219.75	1603.56
219.97	1722.34
220.19	1720.29
220.41	1646.57
220.63	1736.68
220.85	1679.33
221.06	1675.24
221.28	1781.73
221.50	1771.49
221.72	1665.00
221.94	1697.77
222.16	1759.21
222.38	1732.58
222.60	1748.97
222.82	1703.91
223.03	1794.02
223.25	1583.08
223.47	1789.92
223.69	1845.22
223.91	1730.53
224.13	1738.73
224.35	1691.62
224.57	1783.78
224.78	1705.96
225.00	1697.77
225.22	1699.81
225.44	1712.10
225.66	1744.87
225.88	1695.72
226.10	1705.96
226.32	1714.15
226.53	1689.57
226.75	1708.01
226.97	1640.42
227.19	1710.05
227.41	1679.33
227.63	1636.33
227.85	1630.18
228.06	1675.24
228.28	1720.29
228.50	1730.53
228.72	1607.66
228.94	1714.15
229.16	1624.04
229.37	1628.14
229.59	1642.47
229.81	1755.11
230.03	1656.81
230.25	1578.98
230.47	1595.37
230.69	1638.38
230.90	1703.91
231.12	1640.42
231.34	1693.67
231.56	1687.53
231.78	1636.33
232.00	1740.77
232.21	1691.62
232.43	1714.15
232.65	1644.52
232.87	1699.81
233.09	1654.76
233.30	1675.24
233.52	1773.54
233.74	1732.58
233.96	1761.25
234.18	1677.29
234.40	1691.62
234.61	1804.26
234.83	1601.51
235.05	1640.42
235.27	1839.08
235.49	1849.32
235.70	1662.95
235.92	1791.97
236.14	1796.07
236.36	1800.16
236.58	1701.86
236.79	1726.44
237.01	1720.29
237.23	1669.09
237.45	1796.07
237.67	1665.00
237.88	1742.82
238.10	1843.17
238.32	1656.81
238.54	1660.90
238.76	1695.72
238.97	1667.05
239.19	1636.33
239.41	1726.44
239.63	1728.49
239.85	1640.42
240.06	1693.67
240.28	1642.47
240.50	1751.01
240.72	1685.48
240.93	1730.53
241.15	1761.25
241.37	1679.33
241.59	1826.79
241.81	1658.85
242.02	1714.15
242.24	1587.18
242.46	1740.77
242.68	1648.61
242.89	1730.53
243.11	1744.87
243.33	1685.48
243.55	1679.33
243.76	1689.57
243.98	1660.90
244.20	1716.20
244.42	1710.05
244.64	1734.63
244.85	1665.00
245.07	1722.34
245.29	1691.62
245.51	1646.57
245.72	1605.61
245.94	1693.67
246.16	1638.38
246.38	1742.82
246.59	1667.05
246.81	1689.57
247.03	1712.10
247.24	1593.32
247.46	1685.48
247.68	1757.16
247.90	1683.43
248.11	1699.81
248.33	1738.73
248.55	1734.63
248.77	1728.49
248.98	1738.73
249.20	1726.44
249.42	1759.21
249.64	1722.34
249.85	1662.95
250.07	1714.15
250.29	1679.33
250.50	1675.24
250.72	1640.42
250.94	1695.72
251.16	1810.40
251.37	1794.02
251.59	1708.01
251.81	1765.35
252.02	1722.34
252.24	1710.05
252.46	1787.88
252.68	1628.14
252.89	1677.29
253.11	1626.09
253.33	1837.03
253.54	1751.01
253.76	1679.33
253.98	1808.36
254.20	1665.00
254.41	1654.76
254.63	1695.72
254.85	1611.75
255.06	1665.00
255.28	1683.43
255.50	1697.77
255.71	1714.15
255.93	1632.23
256.15	1656.81
256.36	1691.62
256.58	1730.53
256.80	1722.34
257.02	1722.34
257.23	1660.90
257.45	1746.92
257.67	1732.58
257.88	1638.38
258.10	1732.58
258.32	1665.00
258.53	1765.35
258.75	1783.78
258.97	1615.85
259.18	1697.77
259.40	1722.34
259.62	1769.44
259.83	1773.54
260.05	1777.64
260.27	1980.39
260.48	1679.33
260.70	1679.33
260.92	1710.05
261.13	1724.39
261.35	1744.87
261.57	1714.15
261.78	1650.66
262.00	1617.90
262.22	1732.58
262.43	1677.29
262.65	1646.57
262.86	1699.81
263.08	1869.80
263.30	1712.10
263.51	1591.27
263.73	1697.77
263.95	1769.44
264.16	1646.57
264.38	1630.18
264.60	1748.97
264.81	1669.09
265.03	1738.73
265.25	1648.61
265.46	1730.53
265.68	1720.29
265.89	1763.30
266.11	1667.05
266.33	1755.11
266.54	1732.58
266.76	1687.53
266.98	1685.48
267.19	1849.32
267.41	1748.97
267.62	1746.92
267.84	1593.32
268.06	1724.39
268.27	1683.43
268.49	1796.07
268.70	1796.07
268.92	1705.96
269.14	1617.90
269.35	1611.75
269.57	1763.30
269.79	1652.71
270.00	1701.86
270.22	1896.42
270.43	1671.14
270.65	1581.03
270.87	1751.01
271.08	1730.53
271.30	1712.10
271.51	1671.14
271.73	1689.57
271.95	1763.30
272.16	1746.92
272.38	1632.23
272.59	1742.82
272.81	1662.95
273.02	1720.29
273.24	1724.39
273.46	1738.73
273.67	1683.43
273.89	1611.75
274.10	1685.48
274.32	1761.25
274.54	1648.61
274.75	1771.49
274.97	1660.90
275.18	1736.68
275.40	1783.78
275.61	1736.68
275.83	1759.21
276.05	1660.90
276.26	1669.09
276.48	1665.00
276.69	1667.05
276.91	1650.66
277.12	1824.74
277.34	1734.63
277.55	1822.69
277.77	1687.53
277.99	1718.25
278.20	1673.19
278.42	1593.32
278.63	1660.90
278.85	1621.99
279.06	1650.66
279.28	1753.06
279.49	1720.29
279.71	1714.15
279.93	1759.21
280.14	1701.86
280.36	1607.66
280.57	1804.26
280.79	1712.10
281.00	1660.90
281.22	1605.61
281.43	1716.20
281.65	1538.02
281.86	1689.57
282.08	1759.21
282.29	1769.44
282.51	1619.94
282.73	1708.01
282.94	1665.00
283.16	1796.07
283.37	1830.88
283.59	1703.91
283.80	1755.11
284.02	1789.92
284.23	1734.63
284.45	1736.68
284.66	1566.70
284.88	1632.23
285.09	1695.72
285.31	1669.09
285.52	1671.14
285.74	1636.33
285.95	1681.38
286.17	1779.68
286.38	1734.63
286.60	1689.57
286.81	1673.19
287.03	1650.66
287.24	1652.71
287.46	1734.63
287.67	1777.64
287.89	1791.97
288.10	1632.23
288.32	1724.39
288.53	1832.93
288.75	1703.91
288.96	1701.86
289.18	1624.04
289.39	1730.53
289.61	1755.11
289.82	1828.84
290.04	1759.21
290.25	1710.05
290.47	1781.73
290.68	1636.33
290.90	1703.91
291.11	1656.81
291.33	1755.11
291.54	1611.75
291.76	1673.19
291.97	1697.77
292.18	1746.92
292.40	1685.48
292.61	1656.81
292.83	1822.69
293.04	1683.43
293.26	1714.15
293.47	1652.71
293.69	1613.80
293.90	1687.53
294.12	1818.60
294.33	1708.01
294.55	1726.44
294.76	1673.19
294.97	1781.73
295.19	1810.40
295.40	1734.63
295.62	1757.16
295.83	1740.77
296.05	1658.85
296.26	1781.73
296.48	1671.14
296.69	1660.90
296.90	1724.39
297.12	1679.33
297.33	1714.15
297.55	1712.10
297.76	1769.44
297.98	1710.05
298.19	1697.77
298.41	1660.90
298.62	1615.85
298.83	1798.12
299.05	1632.23
299.26	1636.33
299.48	1648.61
299.69	1748.97
299.90	1757.16
300.12	1632.23
300.33	1673.19
300.55	1744.87
300.76	1732.58
300.98	1644.52
301.19	1798.12
301.40	1683.43
301.62	1755.11
301.83	1722.34
302.05	1738.73
302.26	1615.85
302.47	1734.63
302.69	1648.61
302.90	1673.19
303.12	1613.80
303.33	1693.67
303.54	1724.39
303.76	1722.34
303.97	1662.95
304.19	1761.25
304.40	1658.85
304.61	1759.21
304.83	1771.49
305.04	1746.92
305.26	1726.44
305.47	1564.65
305.68	1736.68
305.90	1621.99
306.11	1787.88
306.33	1599.46
306.54	1693.67
306.75	1669.09
306.97	1615.85
307.18	1630.18
307.39	1724.39
307.61	1681.38
307.82	1710.05
308.04	1730.53
308.25	1630.18
308.46	1738.73
308.68	1730.53
308.89	1701.86
309.10	1800.16
309.32	1806.31
309.53	1683.43
309.74	1722.34
309.96	1708.01
310.17	1738.73
310.39	1640.42
310.60	1685.48
310.81	1736.68
311.03	1716.20
311.24	1728.49
311.45	1751.01
311.67	1761.25
311.88	1765.35
312.09	1665.00
312.31	1718.25
312.52	1708.01
312.73	1724.39
312.95	1652.71
313.16	1644.52
313.37	1757.16
313.59	1714.15
313.80	1759.21
314.01	1738.73
314.23	1726.44
314.44	1683.43
314.65	1632.23
314.87	1646.57
315.08	1703.91
315.29	1685.48
315.51	1665.00
315.72	1558.50
315.93	1748.97
316.15	1751.01
316.36	1738.73
316.57	1748.97
316.79	1671.14
317.00	1662.95
317.21	1757.16
317.43	1648.61
317.64	1767.40
317.85	1601.51
318.07	1732.58
318.28	1658.85
318.49	1824.74
318.70	1904.61
318.92	1759.21
319.13	1732.58
319.34	1855.46
319.56	1822.69
319.77	1787.88
319.98	1740.77
320.20	1771.49
320.41	1722.34
320.62	1761.25
320.83	1701.86
321.05	1875.94
321.26	1791.97
321.47	1691.62
321.69	1865.70
321.90	1613.80
322.11	1697.77
322.32	1677.29
322.54	1738.73
322.75	1712.10
322.96	1796.07
323.18	1595.37
323.39	1656.81
323.60	1669.09
323.81	1779.68
324.03	1611.75
324.24	1673.19
324.45	1720.29
324.66	1656.81
324.88	1761.25
325.09	1726.44
325.30	1695.72
325.52	1722.34
325.73	1730.53
325.94	1603.56
326.15	1673.19
326.37	1687.53
326.58	1748.97
326.79	1791.97
327.00	1689.57
327.22	1714.15
327.43	1667.05
327.64	1554.41
327.85	1757.16
328.07	1695.72
328.28	1763.30
328.49	1648.61
328.70	1720.29
328.92	1652.71
329.13	1667.05
329.34	1705.96
329.55	1783.78
329.76	1648.61
329.98	1710.05
330.19	1771.49
330.40	1791.97
330.61	1658.85
330.83	1742.82
331.04	1603.56
331.25	1734.63
331.46	1658.85
331.68	1595.37
331.89	1755.11
332.10	1701.86
332.31	1617.90
332.52	1699.81
332.74	1824.74
332.95	1644.52
333.16	1671.14
333.37	1751.01
333.58	1722.34
333.80	1726.44
334.01	1648.61
334.22	1708.01
334.43	1673.19
334.64	1705.96
334.86	1675.24
335.07	1650.66
335.28	1720.29
335.49	1677.29
335.70	1660.90
335.92	1710.05
336.13	1849.32
336.34	1757.16
336.55	1681.38
336.76	1679.33
336.98	1595.37
337.19	1630.18
337.40	1781.73
337.61	1820.64
337.82	1716.20
338.04	1773.54
338.25	1609.70
338.46	1638.38
338.67	1591.27
338.88	1701.86
339.09	1654.76
339.31	1615.85
339.52	1669.09
339.73	1611.75
339.94	1720.29
340.15	1726.44
340.36	1683.43
340.58	1734.63
340.79	1628.14
341.00	1726.44
341.21	1652.71
341.42	1882.08
341.63	1660.90
341.85	1800.16
342.06	1736.68
342.27	1615.85
342.48	1699.81
342.69	1609.70
342.90	1728.49
343.12	1732.58
343.33	1640.42
343.54	1652.71
343.75	1802.21
343.96	1636.33
344.17	1648.61
344.38	1716.20
344.60	1679.33
344.81	1705.96
345.02	1679.33
345.23	1834.98
345.44	1789.92
345.65	1759.21
345.86	1703.91
346.07	1681.38
346.29	1605.61
346.50	1687.53
346.71	1742.82
346.92	1742.82
347.13	1816.55
347.34	1755.11
347.55	1689.57
347.76	1781.73
347.98	1648.61
348.19	1699.81
348.40	1816.55
348.61	1660.90
348.82	1871.84
349.03	1761.25
349.24	1640.42
349.45	1804.26
349.66	1556.46
349.88	1714.15
350.09	1708.01
350.30	1765.35
350.51	1748.97
350.72	1675.24
350.93	1763.30
351.14	1669.09
351.35	1705.96
351.56	1648.61
351.77	1644.52
351.99	1740.77
352.20	1791.97
352.41	1751.01
352.62	1646.57
352.83	1652.71
353.04	1689.57
353.25	1728.49
353.46	1781.73
353.67	1730.53
353.88	1613.80
354.09	1714.15
354.30	1718.25
354.52	1748.97
354.73	1669.09
354.94	1634.28
355.15	1650.66
355.36	1769.44
355.57	1701.86
355.78	1710.05
355.99	1689.57
356.20	1722.34
356.41	1849.32
356.62	1751.01
356.83	1699.81
357.04	1734.63
357.25	1581.03
357.46	1675.24
357.68	1566.70
357.89	1656.81
358.10	1697.77
358.31	1669.09
358.52	1722.34
358.73	1587.18
358.94	1642.47
359.15	1662.95
359.36	1746.92
359.57	1789.92
359.78	1617.90
359.99	1751.01
360.20	1738.73
360.41	1683.43
360.62	1744.87
360.83	1734.63
361.04	1734.63
361.25	1687.53
361.46	1765.35
361.67	1847.27
361.88	1773.54
362.09	1781.73
362.30	1724.39
362.51	1734.63
362.72	1675.24
362.93	1728.49
363.14	1773.54
363.35	1656.81
363.56	1705.96
363.78	1789.92
363.99	1810.40
364.20	1691.62
364.41	1712.10
364.62	1796.07
364.83	1748.97
365.04	1646.57
365.25	1703.91
365.46	1787.88
365.67	1640.42
365.88	1609.70
366.09	1746.92
366.30	1714.15
366.51	1681.38
366.72	1667.05
366.93	1740.77
367.14	1691.62
367.35	1738.73
367.56	1675.24
367.77	1738.73
367.98	1740.77
368.18	1726.44
368.39	1722.34
368.60	1675.24
368.81	1800.16
369.02	1751.01
369.23	1714.15
369.44	1624.04
369.65	1671.14
369.86	1783.78
370.07	1724.39
370.28	1681.38
370.49	1771.49
370.70	1701.86
370.91	1593.32
371.12	1662.95
371.33	1806.31
371.54	1632.23
371.75	1804.26
371.96	1542.12
372.17	1693.67
372.38	1701.86
372.59	1763.30
372.80	1705.96
373.01	1734.63
373.22	1708.01
373.43	1755.11
373.64	1611.75
373.85	1800.16
374.06	1822.69
374.26	1742.82
374.47	1777.64
374.68	1773.54
374.89	1681.38
375.10	1660.90
375.31	1738.73
375.52	1701.86
375.73	1804.26
375.94	1695.72
376.15	1746.92
376.36	1712.10
376.57	1673.19
376.78	1691.62
376.99	1789.92
377.20	1746.92
377.40	1681.38
377.61	1816.55
377.82	1656.81
378.03	1824.74
378.24	1722.34
378.45	1720.29
378.66	1826.79
378.87	1558.50
379.08	1638.38
379.29	1656.81
379.50	1771.49
379.71	1640.42
379.91	1759.21
380.12	1636.33
380.33	1660.90
380.54	1665.00
380.75	1609.70
380.96	1734.63
381.17	1783.78
381.38	1777.64
381.59	1820.64
381.80	1746.92
382.00	1863.65
382.21	1800.16
382.42	1773.54
382.63	1800.16
382.84	1683.43
383.05	1691.62
383.26	1775.59
383.47	1636.33
383.68	1863.65
383.88	1730.53
384.09	1665.00
384.30	1857.51
384.51	1732.58
384.72	1691.62
384.93	1699.81
385.14	1683.43
385.35	1669.09
385.55	1632.23
385.76	1746.92
385.97	1703.91
386.18	1632.23
386.39	1705.96
386.60	1689.57
386.81	1652.71
387.02	1656.81
387.22	1677.29
387.43	1810.40
387.64	1810.40
387.85	1869.80
388.06	2138.08
388.27	4321.21
388.48	6846.36
388.68	8277.89
388.89	9684.84
389.10	9946.98
389.31	8632.19
389.52	7698.31
389.73	6719.39
389.93	6295.46
390.14	5916.58
390.35	5261.23
390.56	4521.92
390.77	3708.87
390.98	3127.25
391.18	2457.56
391.39	2039.78
391.60	1802.21
391.81	1851.36
392.02	1736.68
392.23	1787.88
392.43	1726.44
392.64	1779.68
392.85	1769.44
393.06	1851.36
393.27	1679.33
393.47	1640.42
393.68	1755.11
393.89	1660.90
394.10	1849.32
394.31	1667.05
394.52	1662.95
394.72	1726.44
394.93	1757.16
395.14	1665.00
395.35	1724.39
395.56	1679.33
395.76	1656.81
395.97	1824.74
396.18	1822.69
396.39	1816.55
396.60	2058.21
396.80	1951.71
397.01	1781.73
397.22	1769.44
397.43	1822.69
397.64	1771.49
397.84	1802.21
398.05	1826.79
398.26	1720.29
398.47	1755.11
398.67	1742.82
398.88	1701.86
399.09	1798.12
399.30	1667.05
399.51	1693.67
399.71	1697.77
399.92	1681.38
400.13	1746.92
400.34	1703.91
400.54	1728.49
400.75	1785.83
400.96	1751.01
401.17	1837.03
401.37	1685.48
401.58	1695.72
401.79	1789.92
402.00	1861.60
402.21	1984.48
402.41	1943.52
402.62	1984.48
402.83	2033.63
403.04	1943.52
403.24	2097.12
403.45	1855.46
403.66	1984.48
403.87	1849.32
404.07	1888.23
404.28	1914.85
404.49	1855.46
404.70	1806.31
404.90	1755.11
405.11	1736.68
405.32	1726.44
405.52	1652.71
405.73	1658.85
405.94	1644.52
406.15	1753.06
406.35	1703.91
406.56	1693.67
406.77	1738.73
406.98	1800.16
407.18	1685.48
407.39	1789.92
407.60	1716.20
407.80	1769.44
408.01	1648.61
408.22	1751.01
408.43	1677.29
408.63	1736.68
408.84	1751.01
409.05	1673.19
409.25	1650.66
409.46	1755.11
409.67	1660.90
409.88	1665.00
410.08	1834.98
410.29	1705.96
410.50	1730.53
410.70	1816.55
410.91	1642.47
411.12	1697.77
411.32	1714.15
411.53	1607.66
411.74	1800.16
411.95	1697.77
412.15	1748.97
412.36	1812.45
412.57	1730.53
412.77	1853.41
412.98	1746.92
413.19	1728.49
413.39	1753.06
413.60	1755.11
413.81	1773.54
414.01	1652.71
414.22	1783.78
414.43	1802.21
414.63	1720.29
414.84	1728.49
415.05	1724.39
415.25	1585.13
415.46	1701.86
415.67	1695.72
415.87	1769.44
416.08	1634.28
416.29	1697.77
416.49	1753.06
416.70	1728.49
416.91	1662.95
417.11	1705.96
417.32	1734.63
417.53	1820.64
417.73	1789.92
417.94	1652.71
418.15	1728.49
418.35	1703.91
418.56	1730.53
418.77	1802.21
418.97	1681.38
419.18	1708.01
419.38	1546.22
419.59	1654.76
419.80	1796.07
420.00	1763.30
420.21	1697.77
420.42	1769.44
420.62	1710.05
420.83	1660.90
421.04	1675.24
421.24	1665.00
421.45	1755.11
421.65	1767.40
421.86	1695.72
422.07	1755.11
422.27	1712.10
422.48	1732.58
422.69	1642.47
422.89	1736.68
423.10	1632.23
423.30	1619.94
423.51	1718.25
423.72	1691.62
423.92	1753.06
424.13	1693.67
424.33	1738.73
424.54	1769.44
424.75	1716.20
424.95	1771.49
425.16	1697.77
425.36	1720.29
425.57	1769.44
425.78	1710.05
425.98	1728.49
426.19	1652.71
426.39	1691.62
426.60	1697.77
426.81	1796.07
427.01	1677.29
427.22	1632.23
427.42	1587.18
427.63	1658.85
427.83	1804.26
428.04	1732.58
428.25	1763.30
428.45	1726.44
428.66	1697.77
428.86	1740.77
429.07	1687.53
429.28	1681.38
429.48	1679.33
429.69	1714.15
429.89	1732.58
430.10	1703.91
430.30	1763.30
430.51	1673.19
430.71	1613.80
430.92	1746.92
431.13	1607.66
431.33	1724.39
431.54	1695.72
431.74	1783.78
431.95	1808.36
432.15	1683.43
432.36	1701.86
432.56	1751.01
432.77	1763.30
432.98	1849.32
433.18	1763.30
433.39	1763.30
433.59	1652.71
433.80	1777.64
434.00	1779.68
434.21	1681.38
434.41	1720.29
434.62	1904.61
434.82	1599.46
435.03	1714.15
435.23	1708.01
435.44	1626.09
435.64	1677.29
435.85	1746.92
436.06	1804.26
436.26	1759.21
436.47	1761.25
436.67	1679.33
436.88	1685.48
437.08	1757.16
437.29	1826.79
437.49	1710.05
437.70	1746.92
437.90	1781.73
438.11	1888.23
438.31	1822.69
438.52	1871.84
438.72	1843.17
438.93	1855.46
439.13	1718.25
439.34	1880.04
439.54	1722.34
439.75	1818.60
439.95	1806.31
440.16	1693.67
440.36	1791.97
440.57	1736.68
440.77	1773.54
440.98	1746.92
441.18	1783.78
441.39	1681.38
441.59	1693.67
441.80	1759.21
442.00	1691.62
442.21	1814.50
442.41	1693.67
442.62	1816.55
442.82	1665.00
443.02	1642.47
443.23	1787.88
443.43	1695.72
443.64	1691.62
443.84	1722.34
444.05	1791.97
444.25	1697.77
444.46	1693.67
444.66	1697.77
444.87	1804.26
445.07	1624.04
445.28	1691.62
445.48	1824.74
445.69	1773.54
445.89	1925.09
446.09	1720.29
446.30	2035.68
446.50	2639.83
446.71	3688.39
446.91	4411.32
447.12	4818.87
447.32	4970.42
447.53	4339.65
447.73	3866.56
447.93	3545.03
448.14	3301.33
448.34	3270.61
448.55	2967.51
448.75	2901.97
448.96	2787.29
449.16	2416.60
449.36	2318.30
449.57	1980.39
449.77	1966.05
449.98	1712.10
450.18	1830.88
450.39	1730.53
450.59	1794.02
450.79	1640.42
451.00	1742.82
451.20	1787.88
451.41	1644.52
451.61	1839.08
451.81	1740.77
452.02	1683.43
452.22	1673.19
452.43	1740.77
452.63	1652.71
452.84	1732.58
453.04	1734.63
453.24	1689.57
453.45	1669.09
453.65	1697.77
453.86	1755.11
454.06	1787.88
454.26	1671.14
454.47	1632.23
454.67	1775.59
454.87	1677.29
455.08	1609.70
455.28	1769.44
455.49	1748.97
455.69	1669.09
455.89	1890.28
456.10	1773.54
456.30	1771.49
456.51	1720.29
456.71	1787.88
456.91	1767.40
457.12	1800.16
457.32	1787.88
457.52	1652.71
457.73	1755.11
457.93	1810.40
458.14	1701.86
458.34	1665.00
458.54	1720.29
458.75	1644.52
458.95	1839.08
459.15	1738.73
459.36	1789.92
459.56	1722.34
459.76	1798.12
459.97	1757.16
460.17	1740.77
460.37	1773.54
460.58	1705.96
460.78	1767.40
460.99	1748.97
461.19	1714.15
461.39	1701.86
461.60	1687.53
461.80	1816.55
462.00	1681.38
462.21	1716.20
462.41	1703.91
462.61	1697.77
462.82	1626.09
463.02	1775.59
463.22	1730.53
463.43	1808.36
463.63	1724.39
463.83	1820.64
464.04	1765.35
464.24	1699.81
464.44	1640.42
464.64	1748.97
464.85	1769.44
465.05	1763.30
465.25	1794.02
465.46	1701.86
465.66	1691.62
465.86	1710.05
466.07	1669.09
466.27	1818.60
466.47	1650.66
466.68	1673.19
466.88	1796.07
467.08	1748.97
467.29	1783.78
467.49	1814.50
467.69	1722.34
467.89	1718.25
468.10	1722.34
468.30	1779.68
468.50	1851.36
468.71	1742.82
468.91	1685.48
469.11	1736.68
469.31	1708.01
469.52	1638.38
469.72	1816.55
469.92	1808.36
470.13	1681.38
470.33	1728.49
470.53	1839.08
470.73	2115.55
470.94	2277.34
471.14	2342.88
471.34	2570.20
471.54	2449.37
471.75	2287.58
471.95	2093.02
472.15	2068.45
472.36	2127.84
472.56	2101.22
472.76	1990.63
472.96	2002.91
473.17	1959.91
473.37	1912.80
473.57	1814.50
473.77	1847.27
473.98	1757.16
474.18	1705.96
474.38	1925.09
474.58	1755.11
474.79	1751.01
474.99	1675.24
475.19	1834.98
475.39	1603.56
475.60	1765.35
475.80	1783.78
476.00	1701.86
476.20	1699.81
476.41	1714.15
476.61	1751.01
476.81	1765.35
477.01	1687.53
477.21	1798.12
477.42	1757.16
477.62	1710.05
477.82	1773.54
478.02	1767.40
478.23	1724.39
478.43	1662.95
478.63	1665.00
478.83	1734.63
479.03	1753.06
479.24	1796.07
479.44	1882.08
479.64	1671.14
479.84	1611.75
480.04	1656.81
480.25	1824.74
480.45	1712.10
480.65	1757.16
480.85	1839.08
481.06	1597.42
481.26	1734.63
481.46	1736.68
481.66	1789.92
481.86	1656.81
482.06	1785.83
482.27	1718.25
482.47	1677.29
482.67	1662.95
482.87	1738.73
483.07	1822.69
483.28	1648.61
483.48	1689.57
483.68	1697.77
483.88	1658.85
484.08	1638.38
484.29	1605.61
484.49	1687.53
484.69	1652.71
484.89	1869.80
485.09	1812.45
485.29	1642.47
485.50	1781.73
485.70	1665.00
485.90	1812.45
486.10	1785.83
486.30	1759.21
486.50	1810.40
486.71	1652.71
486.91	1763.30
487.11	1765.35
487.31	1638.38
487.51	1746.92
487.71	1656.81
487.91	1646.57
488.12	1679.33
488.32	1574.89
488.52	1667.05
488.72	1609.70
488.92	1656.81
489.12	1787.88
489.32	1837.03
489.53	1710.05
489.73	1724.39
489.93	1763.30
490.13	1644.52
490.33	1673.19
490.53	1771.49
490.73	1767.40
490.94	1613.80
491.14	1783.78
491.34	1865.70
491.54	2246.62
491.74	2529.24
491.94	2990.03
492.14	2957.27
492.34	3035.09
492.54	2729.94
492.75	2396.12
492.95	2486.23
493.15	2299.87
493.35	2273.25
493.55	2146.27
493.75	2297.82
493.95	2054.11
494.15	1978.34
494.35	1861.60
494.56	1906.66
494.76	1804.26
494.96	1834.98
495.16	1796.07
495.36	1802.21
495.56	1708.01
495.76	1734.63
495.96	1667.05
496.16	1681.38
496.36	1896.42
496.56	1726.44
496.77	1755.11
496.97	1603.56
497.17	1751.01
497.37	1665.00
497.57	1757.16
497.77	1705.96
497.97	1652.71
498.17	1755.11
498.37	1802.21
498.57	1728.49
498.77	1683.43
498.97	1783.78
499.17	1869.80
499.38	1722.34
499.58	1806.31
499.78	1757.16
499.98	1851.36
500.18	1703.91
500.38	1722.34
500.58	1978.34
500.78	2482.14
500.98	4601.79
501.18	5889.96
501.38	6774.68
501.58	7186.32
501.78	6713.24
501.98	5574.57
502.18	4978.61
502.38	4542.39
502.58	4210.62
502.78	3913.67
502.98	3645.38
503.18	3424.20
503.38	3227.60
503.59	2758.61
503.79	2670.55
503.99	2441.18
504.19	2346.97
504.39	2242.53
504.59	2211.81
504.79	2093.02
504.99	2033.63
505.19	1976.29
505.39	1976.29
505.59	1949.67
505.79	1912.80
505.99	1927.14
506.19	1828.84
506.39	1839.08
506.59	1738.73
506.79	1837.03
506.99	1830.88
507.19	1863.65
507.39	1730.53
507.59	1615.85
507.79	1648.61
507.99	1667.05
508.19	1726.44
508.39	1738.73
508.59	1687.53
508.79	1796.07
508.99	1920.99
509.19	1689.57
509.39	1771.49
509.59	1685.48
509.79	1679.33
509.99	1642.47
510.19	1724.39
510.39	1718.25
510.59	1667.05
510.79	1619.94
510.99	1746.92
511.19	1736.68
511.39	1894.37
511.59	1703.91
511.79	1837.03
511.99	1652.71
512.19	1847.27
512.38	1742.82
512.58	1712.10
512.78	1718.25
512.98	1824.74
513.18	1791.97
513.38	1574.89
513.58	1796.07
513.78	1744.87
513.98	1697.77
514.18	1734.63
514.38	1753.06
514.58	1736.68
514.78	1722.34
514.98	1697.77
515.18	1718.25
515.38	1613.80
515.58	1906.66
515.78	1705.96
515.98	1726.44
516.18	1763.30
516.38	1748.97
516.57	1683.43
516.77	1634.28
516.97	1761.25
517.17	1742.82
517.37	1675.24
517.57	1755.11
517.77	1740.77
517.97	1648.61
518.17	1744.87
518.37	1665.00
518.57	1654.76
518.77	1724.39
518.97	1667.05
519.16	1732.58
519.36	1804.26
519.56	1726.44
519.76	1681.38
519.96	1689.57
520.16	1744.87
520.36	1708.01
520.56	1701.86
520.76	1677.29
520.96	1722.34
521.16	1718.25
521.35	1763.30
521.55	1859.56
521.75	1722.34
521.95	1646.57
522.15	1728.49
522.35	1722.34
522.55	1734.63
522.75	1777.64
522.95	1640.42
523.14	1673.19
523.34	1665.00
523.54	1656.81
523.74	1785.83
523.94	1699.81
524.14	1644.52
524.34	1767.40
524.54	1763.30
524.73	1732.58
524.93	1716.20
525.13	1708.01
525.33	1665.00
525.53	1841.12
525.73	1742.82
525.93	1665.00
526.13	1708.01
526.32	1607.66
526.52	1761.25
526.72	1865.70
526.92	1710.05
527.12	1705.96
527.32	1617.90
527.52	1781.73
527.71	1779.68
527.91	1734.63
528.11	1624.04
528.31	1689.57
528.51	1630.18
528.71	1751.01
528.90	1726.44
529.10	1808.36
529.30	1787.88
529.50	1642.47
529.70	1722.34
529.90	1679.33
530.09	1767.40
530.29	1697.77
530.49	1689.57
530.69	1800.16
530.89	1705.96
531.09	1839.08
531.28	1671.14
531.48	1787.88
531.68	1755.11
531.88	1765.35
532.08	1791.97
532.28	1697.77
532.47	1726.44
532.67	1828.84
532.87	1757.16
533.07	1699.81
533.27	1767.40
533.46	1744.87
533.66	1636.33
533.86	1695.72
534.06	1791.97
534.26	1730.53
534.45	1728.49
534.65	1734.63
534.85	1800.16
535.05	1712.10
535.25	1751.01
535.44	1615.85
535.64	1720.29
535.84	1685.48
536.04	1720.29
536.24	1765.35
536.43	1730.53
536.63	1722.34
536.83	1632.23
537.03	1761.25
537.22	1605.61
537.42	1695.72
537.62	1712.10
537.82	1689.57
538.02	1822.69
538.21	1779.68
538.41	1910.75
538.61	1722.34
538.81	1726.44
539.00	1877.99
539.20	1701.86
539.40	1701.86
539.60	1787.88
539.79	1765.35
539.99	1679.33
540.19	1724.39
540.39	1675.24
540.58	1705.96
540.78	1791.97
540.98	1759.21
541.18	1802.21
541.37	1708.01
541.57	1710.05
541.77	1734.63
541.97	1705.96
542.16	1669.09
542.36	1703.91
542.56	1771.49
542.76	1834.98
542.95	1779.68
543.15	1812.45
543.35	1781.73
543.54	1671.14
543.74	1759.21
543.94	1746.92
544.14	1691.62
544.33	1814.50
544.53	1796.07
544.73	1783.78
544.93	1751.01
545.12	1732.58
545.32	1742.82
545.52	1755.11
545.71	1632.23
545.91	1724.39
546.11	1730.53
546.30	1677.29
546.50	1718.25
546.70	1691.62
546.90	1828.84
547.09	1611.75
547.29	1746.92
547.49	1785.83
547.68	1748.97
547.88	1701.86
548.08	1705.96
548.27	2164.70
548.47	1695.72
548.67	1718.25
548.87	1757.16
549.06	1691.62
549.26	1734.63
549.46	1783.78
549.65	1691.62
549.85	1699.81
550.05	1771.49
550.24	1699.81
550.44	1765.35
550.64	1722.34
550.83	1730.53
551.03	1839.08
551.23	1697.77
551.42	1730.53
551.62	1742.82
551.82	1767.40
552.01	1701.86
552.21	1814.50
552.41	1736.68
552.60	1828.84
552.80	1763.30
553.00	1656.81
553.19	1724.39
553.39	1789.92
553.59	1662.95
553.78	1714.15
553.98	1746.92
554.17	1654.76
554.37	1751.01
554.57	1748.97
554.76	1675.24
554.96	1708.01
555.16	1783.78
555.35	1779.68
555.55	1714.15
555.75	1693.67
555.94	1820.64
556.14	1679.33
556.33	1837.03
556.53	1708.01
556.73	1755.11
556.92	1777.64
557.12	1828.84
557.32	1871.84
557.51	1810.40
557.71	1791.97
557.90	1884.13
558.10	1890.28
558.30	1675.24
558.49	1697.77
558.69	1658.85
558.88	1771.49
559.08	1771.49
559.28	1687.53
559.47	1763.30
559.67	1771.49
559.86	1894.37
560.06	1841.12
560.26	1761.25
560.45	1779.68
560.65	1740.77
560.84	1755.11
561.04	1654.76
561.24	1837.03
561.43	1673.19
561.63	1849.32
561.82	1765.35
562.02	1730.53
562.22	1736.68
562.41	1675.24
562.61	1779.68
562.80	1671.14
563.00	1933.28
563.19	1845.22
563.39	1757.16
563.59	1724.39
563.78	1673.19
563.98	1589.22
564.17	1613.80
564.37	1718.25
564.56	1791.97
564.76	1679.33
564.96	1820.64
565.15	1724.39
565.35	1908.71
565.54	1673.19
565.74	1734.63
565.93	1763.30
566.13	1722.34
566.32	1708.01
566.52	1812.45
566.71	1734.63
566.91	1771.49
567.11	1734.63
567.30	1652.71
567.50	1765.35
567.69	1718.25
567.89	1701.86
568.08	1714.15
568.28	1783.78
568.47	1714.15
568.67	1804.26
568.86	1765.35
569.06	1783.78
569.25	1724.39
569.45	1650.66
569.64	1716.20
569.84	1703.91
570.04	1820.64
570.23	1710.05
570.43	1683.43
570.62	1751.01
570.82	1894.37
571.01	1705.96
571.21	1693.67
571.40	1662.95
571.60	1808.36
571.79	1730.53
571.99	1755.11
572.18	1683.43
572.38	1738.73
572.57	1687.53
572.77	1710.05
572.96	1914.85
573.16	1748.97
573.35	1712.10
573.55	1837.03
573.74	1830.88
573.94	1759.21
574.13	1710.05
574.33	1773.54
574.52	1800.16
574.71	1787.88
574.91	1789.92
575.10	1632.23
575.30	1730.53
575.49	1705.96
575.69	1742.82
575.88	1775.59
576.08	1773.54
576.27	1789.92
576.47	1703.91
576.66	1886.18
576.86	1718.25
577.05	1732.58
577.25	1742.82
577.44	1789.92
577.64	1724.39
577.83	1783.78
578.02	1714.15
578.22	1869.80
578.41	1845.22
578.61	1710.05
578.80	1691.62
579.00	1738.73
579.19	1673.19
579.39	1763.30
579.58	1824.74
579.77	1681.38
579.97	1816.55
580.16	1808.36
580.36	1802.21
580.55	1775.59
580.75	1763.30
580.94	1761.25
581.13	1820.64
581.33	1757.16
581.52	1751.01
581.72	1877.99
581.91	1898.47
582.11	1710.05
582.30	1779.68
582.49	1691.62
582.69	1794.02
582.88	1800.16
583.08	1773.54
583.27	1755.11
583.47	1753.06
583.66	1714.15
583.85	1660.90
584.05	1724.39
584.24	1759.21
584.44	1816.55
584.63	1812.45
584.82	1851.36
585.02	1841.12
585.21	1785.83
585.41	1796.07
585.60	1718.25
585.79	1886.18
585.99	1884.13
586.18	1837.03
586.37	2136.03
586.57	3344.33
586.76	9856.87
586.96	24954.50
587.15	35237.35
587.34	41309.58
587.54	42839.41
587.73	37094.86
587.93	26758.76
588.12	21819.06
588.31	18452.20
588.51	16629.51
588.70	15494.93
588.89	14178.09
589.09	12994.36
589.28	11204.44
589.47	9555.82
589.67	8105.86
589.86	6573.98
590.06	4835.25
590.25	3948.48
590.44	3129.30
590.64	2602.97
590.83	2291.68
591.02	2111.46
591.22	1949.67
591.41	1972.19
591.60	1773.54
591.80	1902.56
591.99	1794.02
592.18	1853.41
592.38	1804.26
592.57	1775.59
592.76	1802.21
592.96	1796.07
593.15	1791.97
593.34	1783.78
593.54	1800.16
593.73	1808.36
593.92	1767.40
594.12	1697.77
594.31	1822.69
594.50	1814.50
594.70	1816.55
594.89	1923.04
595.08	1628.14
595.28	1787.88
595.47	1902.56
595.66	1787.88
595.86	1687.53
596.05	1705.96
596.24	1699.81
596.43	1855.46
596.63	1837.03
596.82	1718.25
597.01	1763.30
597.21	1908.71
597.40	1726.44
597.59	1718.25
597.79	1679.33
597.98	1781.73
598.17	1822.69
598.36	1697.77
598.56	1730.53
598.75	1730.53
598.94	1695.72
599.14	1783.78
599.33	1646.57
599.52	1759.21
599.71	1734.63
599.91	1832.93
600.10	1791.97
600.29	1701.86
600.48	1808.36
600.68	1730.53
600.87	1730.53
601.06	1685.48
601.26	1646.57
601.45	1757.16
601.64	1658.85
601.83	1820.64
602.03	1693.67
602.22	1624.04
602.41	1877.99
602.60	1820.64
602.80	1789.92
602.99	1769.44
603.18	1646.57
603.37	1755.11
603.57	1728.49
603.76	1837.03
603.95	1773.54
604.14	1697.77
604.34	1689.57
604.53	1726.44
604.72	1789.92
604.91	1765.35
605.10	1738.73
605.30	1660.90
605.49	1851.36
605.68	1761.25
605.87	1755.11
606.07	1662.95
606.26	1728.49
606.45	1730.53
606.64	1779.68
606.84	1656.81
607.03	1779.68
607.22	1744.87
607.41	1730.53
607.60	1660.90
607.80	1761.25
607.99	1726.44
608.18	1665.00
608.37	1744.87
608.56	1634.28
608.76	1705.96
608.95	1753.06
609.14	1691.62
609.33	1812.45
609.52	1769.44
609.72	1748.97
609.91	1798.12
610.10	1699.81
610.29	1794.02
610.48	1818.60
610.68	1837.03
610.87	1726.44
611.06	1742.82
611.25	1640.42
611.44	1865.70
611.63	1732.58
611.83	1726.44
612.02	1681.38
612.21	1779.68
612.40	1675.24
612.59	1642.47
612.79	1685.48
612.98	1808.36
613.17	1787.88
613.36	1675.24
613.55	1781.73
613.74	1732.58
613.93	1738.73
614.13	1720.29
614.32	1798.12
614.51	1759.21
614.70	1685.48
614.89	1660.90
615.08	1621.99
615.28	2052.06
615.47	1636.33
615.66	1685.48
615.85	1701.86
616.04	1851.36
616.23	1701.86
616.42	1746.92
616.62	1746.92
616.81	1755.11
617.00	1714.15
617.19	1703.91
617.38	1650.66
617.57	1794.02
617.76	1646.57
617.95	1748.97
618.15	1753.06
618.34	1767.40
618.53	1708.01
618.72	1802.21
618.91	1812.45
619.10	1800.16
619.29	1728.49
619.48	1794.02
619.68	1730.53
619.87	1740.77
620.06	1691.62
620.25	1740.77
620.44	1779.68
620.63	1751.01
620.82	1726.44
621.01	1763.30
621.20	1759.21
621.39	1755.11
621.59	1740.77
621.78	1693.67
621.97	1728.49
622.16	1859.56
622.35	1738.73
622.54	1722.34
622.73	1814.50
622.92	1689.57
623.11	1730.53
623.30	1714.15
623.49	1740.77
623.68	1693.67
623.88	1748.97
624.07	1640.42
624.26	1710.05
624.45	1759.21
624.64	1687.53
624.83	1691.62
625.02	1726.44
625.21	1761.25
625.40	1718.25
625.59	1763.30
625.78	1683.43
625.97	1714.15
626.16	1769.44
626.35	1734.63
626.54	1718.25
626.74	1830.88
626.93	1673.19
627.12	1652.71
627.31	1845.22
627.50	1710.05
627.69	1724.39
627.88	1689.57
628.07	1722.34
628.26	1683.43
628.45	1732.58
628.64	1705.96
628.83	1748.97
629.02	1619.94
629.21	1814.50
629.40	1681.38
629.59	1601.51
629.78	1638.38
629.97	1654.76
630.16	1798.12
630.35	1628.14
630.54	1730.53
630.73	1665.00
630.92	1699.81
631.11	1730.53
631.30	1746.92
631.49	1746.92
631.68	1769.44
631.87	1685.48
632.06	1681.38
632.25	1818.60
632.44	1714.15
632.63	1767.40
632.82	1675.24
633.01	1705.96
633.20	1767.40
633.39	1681.38
633.58	1642.47
633.77	1761.25
633.96	1689.57
634.15	1787.88
634.34	1695.72
634.53	1748.97
634.72	1689.57
634.91	1667.05
635.10	1732.58
635.29	1718.25
635.48	1687.53
635.67	1726.44
635.86	1691.62
636.05	1746.92
636.24	1718.25
636.43	1656.81
636.62	1785.83
636.81	1656.81
637.00	1699.81
637.19	1728.49
637.38	1777.64
637.57	1701.86
637.76	1708.01
637.95	1701.86
638.14	1656.81
638.33	1695.72
638.52	1677.29
638.71	1660.90
638.89	1634.28
639.08	1867.75
639.27	1839.08
639.46	1726.44
639.65	1773.54
639.84	1746.92
640.03	1794.02
640.22	1751.01
640.41	1837.03
640.60	1642.47
640.79	1679.33
640.98	1742.82
641.17	1826.79
641.36	1699.81
641.55	1769.44
641.74	1708.01
641.92	1607.66
642.11	1724.39
642.30	1708.01
642.49	1716.20
642.68	1689.57
642.87	1703.91
643.06	1746.92
643.25	1660.90
643.44	1648.61
643.63	1734.63
643.82	1785.83
644.00	1658.85
644.19	1691.62
644.38	1665.00
644.57	1736.68
644.76	1726.44
644.95	1671.14
645.14	1730.53
645.33	1714.15
645.52	1802.21
645.71	1640.42
645.89	1669.09
646.08	1701.86
646.27	1708.01
646.46	1877.99
646.65	1675.24
646.84	1697.77
647.03	1591.27
647.22	1730.53
647.40	1724.39
647.59	1677.29
647.78	1687.53
647.97	1763.30
648.16	1642.47
648.35	1843.17
648.54	1748.97
648.73	1777.64
648.91	1748.97
649.10	1722.34
649.29	1628.14
649.48	1791.97
649.67	1753.06
649.86	1767.40
650.05	1654.76
650.23	1691.62
650.42	1665.00
650.61	1726.44
650.80	1740.77
650.99	1857.51
651.18	1818.60
651.36	1779.68
651.55	1687.53
651.74	1779.68
651.93	1689.57
652.12	1738.73
652.31	1673.19
652.49	1650.66
652.68	1734.63
652.87	1798.12
653.06	1720.29
653.25	1796.07
653.44	1744.87
653.62	1742.82
653.81	1652.71
654.00	1718.25
654.19	1789.92
654.38	1863.65
654.56	1703.91
654.75	1640.42
654.94	1757.16
655.13	1701.86
655.32	1761.25
655.51	1816.55
655.69	1662.95
655.88	1763.30
656.07	1673.19
656.26	1763.30
656.45	1730.53
656.63	1720.29
656.82	1685.48
657.01	1720.29
657.20	1744.87
657.38	1806.31
657.57	1644.52
657.76	1591.27
657.95	1824.74
658.14	1693.67
658.32	1755.11
658.51	1611.75
658.70	1708.01
658.89	1724.39
659.08	1804.26
659.26	1744.87
659.45	1705.96
659.64	1724.39
659.83	1671.14
660.01	1877.99
660.20	1779.68
660.39	1818.60
660.58	1578.98
660.76	1615.85
660.95	1650.66
661.14	1742.82
661.33	1599.46
661.51	1648.61
661.70	1703.91
661.89	1755.11
662.08	1763.30
662.26	1681.38
662.45	1669.09
662.64	1798.12
662.83	1781.73
663.01	1630.18
663.20	1681.38
663.39	1830.88
663.58	1722.34
663.76	1767.40
663.95	1734.63
664.14	1638.38
664.32	1671.14
664.51	1697.77
664.70	1662.95
664.89	1787.88
665.07	1695.72
665.26	1740.77
665.45	1689.57
665.64	1732.58
665.82	1724.39
666.01	1734.63
666.20	1712.10
666.38	1718.25
666.57	1808.36
666.76	2195.42
666.95	4517.82
667.13	10530.66
667.32	15544.08
667.51	17979.12
667.69	19515.09
667.88	18030.32
668.07	12578.62
668.25	9647.98
668.44	8140.68
668.63	7440.27
668.81	6758.30
669.00	6358.94
669.19	5814.18
669.38	5207.98
669.56	4695.99
669.75	3993.54
669.94	3309.52
670.12	2942.93
670.31	2508.76
670.50	2189.28
670.68	2052.06
670.87	1900.52
671.06	1787.88
671.24	1830.88
671.43	1806.31
671.62	1822.69
671.80	1730.53
671.99	1791.97
672.18	1683.43
672.36	1771.49
672.55	1753.06
672.74	1671.14
672.92	1699.81
673.11	1746.92
673.29	1693.67
673.48	1757.16
673.67	1597.42
673.85	1810.40
674.04	1640.42
674.23	1677.29
674.41	1753.06
674.60	1716.20
674.79	1677.29
674.97	1742.82
675.16	1746.92
675.34	1857.51
675.53	1677.29
675.72	1701.86
675.90	1804.26
676.09	1742.82
676.28	1687.53
676.46	1703.91
676.65	1710.05
676.83	1648.61
677.02	1812.45
677.21	1695.72
677.39	1685.48
677.58	1665.00
677.77	1689.57
677.95	1650.66
678.14	1730.53
678.32	1689.57
678.51	1695.72
678.70	1812.45
678.88	1730.53
679.07	1691.62
679.25	1648.61
679.44	1665.00
679.63	1679.33
679.81	1718.25
680.00	1763.30
680.18	1740.77
680.37	1738.73
680.55	1757.16
680.74	1538.02
680.93	1626.09
681.11	1759.21
681.30	1644.52
681.48	1681.38
681.67	1714.15
681.85	1689.57
682.04	1667.05
682.23	1761.25
682.41	1746.92
682.60	1728.49
682.78	1744.87
682.97	1646.57
683.15	1783.78
683.34	1800.16
683.53	1818.60
683.71	1613.80
683.90	1787.88
684.08	1820.64
684.27	1742.82
684.45	1677.29
684.64	1837.03
684.82	1679.33
685.01	1699.81
685.19	1689.57
685.38	1787.88
685.57	1736.68
685.75	1667.05
685.94	1607.66
686.12	1626.09
686.31	1736.68
686.49	1820.64
686.68	1640.42
686.86	1640.42
687.05	1720.29
687.23	1812.45
687.42	1673.19
687.60	1667.05
687.79	1734.63
687.97	1777.64
688.16	1871.84
688.34	1742.82
688.53	1660.90
688.71	1671.14
688.90	1714.15
689.08	1626.09
689.27	1589.22
689.45	1771.49
689.64	1812.45
689.82	1726.44
690.01	1638.38
690.19	1742.82
690.38	1722.34
690.56	1763.30
690.75	1611.75
690.93	1683.43
691.12	1675.24
691.30	1761.25
691.49	1605.61
691.67	1796.07
691.86	1847.27
692.04	1585.13
692.23	1712.10
692.41	1695.72
692.60	1880.04
692.78	1787.88
692.97	1734.63
693.15	1722.34
693.34	1804.26
693.52	1806.31
693.71	1710.05
693.89	1708.01
694.08	1634.28
694.26	1765.35
694.44	1751.01
694.63	1740.77
694.81	1671.14
695.00	1615.85
695.18	1787.88
695.37	1830.88
695.55	1751.01
695.74	1609.70
695.92	1689.57
696.10	1736.68
696.29	1671.14
696.47	1673.19
696.66	1677.29
696.84	1675.24
697.03	1710.05
697.21	1851.36
697.40	2246.62
697.58	1775.59
697.76	1681.38
697.95	1677.29
698.13	1636.33
698.32	1665.00
698.50	1742.82
698.68	1675.24
698.87	1710.05
699.05	1724.39
699.24	1722.34
699.42	1662.95
699.61	1773.54
699.79	1740.77
699.97	1728.49
700.16	1634.28
700.34	1626.09
700.53	1634.28
700.71	1773.54
700.89	1740.77
701.08	1673.19
701.26	1720.29
701.45	2045.92
701.63	1646.57
701.81	1710.05
702.00	1644.52
702.18	1683.43
702.37	1681.38
702.55	1697.77
702.73	1722.34
702.92	1607.66
703.10	1720.29
703.28	1771.49
703.47	1646.57
703.65	1701.86
703.84	1761.25
704.02	1587.18
704.20	1804.26
704.39	1617.90
704.57	1673.19
704.75	1785.83
704.94	1722.34
705.12	1763.30
705.30	1759.21
705.49	2217.95
705.67	4376.51
705.86	9750.38
706.04	12928.83
706.22	14743.33
706.41	15718.16
706.59	14178.09
706.77	9840.49
706.96	7516.05
707.14	6682.52
707.32	6129.57
707.51	5707.69
707.69	4937.65
707.87	4122.56
708.06	3663.82
708.24	3055.57
708.42	2465.75
708.61	2242.53
708.79	1894.37
708.97	1767.40
709.16	1824.74
709.34	1640.42
709.52	1710.05
709.71	1642.47
709.89	1773.54
710.07	1658.85
710.26	1624.04
710.44	1710.05
710.62	1753.06
710.80	1759.21
710.99	1724.39
711.17	1722.34
711.35	1687.53
711.54	1607.66
711.72	1728.49
711.90	1753.06
712.09	1703.91
712.27	1656.81
712.45	1757.16
712.63	1665.00
712.82	1710.05
713.00	1695.72
713.18	1742.82
713.37	1822.69
713.55	1701.86
713.73	1701.86
713.91	1814.50
714.10	1775.59
714.28	1673.19
714.46	1787.88
714.65	1683.43
714.83	1730.53
715.01	1755.11
715.19	1720.29
715.38	1638.38
715.56	1751.01
715.74	1734.63
715.92	1699.81
716.11	1742.82
716.29	1535.98
716.47	1624.04
716.65	1699.81
716.84	1671.14
717.02	1849.32
717.20	1591.27
717.38	1697.77
717.57	1705.96
717.75	1669.09
717.93	1681.38
718.11	1751.01
718.30	1646.57
718.48	1693.67
718.66	1751.01
718.84	1718.25
719.03	1687.53
719.21	1665.00
719.39	1861.60
719.57	1691.62
719.75	1708.01
719.94	1652.71
720.12	1710.05
720.30	1665.00
720.48	1769.44
720.67	1652.71
720.85	1642.47
721.03	1738.73
721.21	1638.38
721.39	1812.45
721.58	1744.87
721.76	1730.53
721.94	1658.85
722.12	1730.53
722.30	1796.07
722.49	1634.28
722.67	1712.10
722.85	1796.07
723.03	1648.61
723.21	1695.72
723.40	1675.24
723.58	1720.29
723.76	1677.29
723.94	1751.01
724.12	1628.14
724.30	1808.36
724.49	1697.77
724.67	1640.42
724.85	1748.97
725.03	1656.81
725.21	1662.95
725.40	1787.88
725.58	1697.77
725.76	1726.44
725.94	1767.40
726.12	1673.19
726.30	1712.10
726.49	1611.75
726.67	1654.76
726.85	1777.64
727.03	1681.38
727.21	2125.79
727.39	2926.55
727.57	3815.37
727.76	4216.77
727.94	4468.67
728.12	4351.93
728.30	3770.31
728.48	3117.01
728.66	2789.33
728.84	2519.00
729.03	2314.20
729.21	2164.70
729.39	2021.35
729.57	1818.60
729.75	1820.64
729.93	1845.22
730.11	1728.49
730.30	1736.68
730.48	1648.61
730.66	1808.36
730.84	1734.63
731.02	1726.44
731.20	1642.47
731.38	1730.53
731.56	1701.86
731.74	1599.46
731.93	1718.25
732.11	1691.62
732.29	1656.81
732.47	1779.68
732.65	1673.19
732.83	1744.87
733.01	1683.43
733.19	1628.14
733.37	1699.81
733.56	1781.73
733.74	1685.48
733.92	1769.44
734.10	1718.25
734.28	1740.77
734.46	1576.94
734.64	1677.29
734.82	1640.42
735.00	1640.42
735.18	1675.24
735.36	1691.62
735.54	1714.15
735.73	1683.43
735.91	1710.05
736.09	1701.86
736.27	1695.72
736.45	1736.68
736.63	1636.33
736.81	1705.96
736.99	1720.29
737.17	1832.93
737.35	1640.42
737.53	1646.57
737.71	1705.96
737.89	1722.34
738.07	1607.66
738.25	1646.57
738.43	1574.89
738.61	1677.29
738.80	1593.32
738.98	1628.14
739.16	1679.33
739.34	1671.14
739.52	1783.78
739.70	1703.91
739.88	1738.73
740.06	1714.15
740.24	1621.99
740.42	1677.29
740.60	1591.27
740.78	1677.29
740.96	1615.85
741.14	1705.96
741.32	1699.81
741.50	1671.14
741.68	1845.22
741.86	1728.49
742.04	1675.24
742.22	1656.81
742.40	1714.15
742.58	1681.38
742.76	1660.90
742.94	1771.49
743.12	1648.61
743.30	1644.52
743.48	1722.34
743.66	1679.33
743.84	1738.73
744.02	1753.06
744.20	1712.10
744.38	1658.85
744.56	1730.53
744.74	1710.05
744.92	1738.73
745.10	1726.44
745.28	1761.25
745.46	1855.46
745.64	1636.33
745.82	1730.53
746.00	1730.53
746.18	1759.21
746.36	1597.42
746.54	1720.29
746.72	1748.97
746.90	1658.85
747.08	1650.66
747.26	1773.54
747.44	1765.35
747.62	1720.29
747.80	1755.11
747.98	1701.86
748.15	1644.52
748.33	1794.02
748.51	1699.81
748.69	1724.39
748.87	1634.28
749.05	1665.00
749.23	1656.81
749.41	1656.81
749.59	1619.94
749.77	1767.40
749.95	1726.44
750.13	1585.13
750.31	1695.72
750.49	1683.43
750.67	1718.25
750.85	1769.44
751.03	1740.77
751.20	1867.75
751.38	1724.39
751.56	1724.39
751.74	1691.62
751.92	1718.25
752.10	1650.66
752.28	1763.30
752.46	1634.28
752.64	1744.87
752.82	1685.48
753.00	1847.27
753.18	1652.71
753.35	1734.63
753.53	1683.43
753.71	1685.48
753.89	1738.73
754.07	1679.33
754.25	1724.39
754.43	1656.81
754.61	1638.38
754.79	1746.92
754.97	1642.47
755.14	1759.21
755.32	1667.05
755.50	1701.86
755.68	1683.43
755.86	1650.66
756.04	1738.73
756.22	1683.43
756.40	1697.77
756.57	1759.21
756.75	1693.67
756.93	1767.40
757.11	1767.40
757.29	1665.00
757.47	1634.28
757.65	1648.61
757.82	1656.81
758.00	1667.05
758.18	1648.61
758.36	1607.66
758.54	1679.33
758.72	1634.28
758.90	1742.82
759.07	1710.05
759.25	1636.33
759.43	1759.21
759.61	1595.37
759.79	2170.85
759.97	1751.01
760.15	1669.09
760.32	1701.86
760.50	1718.25
760.68	1826.79
760.86	1648.61
761.04	1863.65
761.22	1771.49
761.39	1726.44
761.57	1732.58
761.75	1634.28
761.93	1638.38
762.11	1619.94
762.28	1603.56
762.46	1705.96
762.64	1775.59
762.82	1583.08
763.00	1628.14
763.18	1822.69
763.35	1687.53
763.53	1699.81
763.71	1701.86
763.89	1654.76
764.07	1677.29
764.24	1708.01
764.42	1726.44
764.60	1626.09
764.78	1701.86
764.96	1695.72
765.13	1640.42
765.31	1761.25
765.49	1742.82
765.67	1646.57
765.84	1714.15
766.02	1658.85
766.20	1619.94
766.38	1738.73
766.56	1720.29
766.73	1771.49
766.91	1730.53
767.09	1712.10
767.27	1798.12
767.44	1662.95
767.62	1689.57
767.80	1714.15
767.98	1683.43
768.15	1630.18
768.33	1736.68
768.51	1785.83
768.69	1710.05
768.87	1753.06
769.04	1691.62
769.22	1845.22
769.40	1783.78
769.58	1824.74
769.75	1673.19
769.93	1769.44
770.11	1726.44
770.28	1671.14
770.46	1753.06
770.64	1740.77
770.82	1685.48
770.99	1636.33
771.17	1712.10
771.35	1687.53
771.53	1681.38
771.70	1621.99
771.88	1705.96
772.06	1677.29
772.23	1748.97
772.41	1667.05
772.59	1658.85
772.77	1677.29
772.94	1722.34
773.12	1699.81
773.30	1716.20
773.47	1712.10
773.65	1673.19
773.83	1869.80
774.01	1656.81
774.18	1628.14
774.36	1634.28
774.54	1628.14
774.71	1693.67
774.89	1591.27
775.07	1671.14
775.24	1658.85
775.42	1662.95
775.60	1730.53
775.78	1603.56
775.95	1656.81
776.13	1568.74
776.31	1562.60
776.48	1660.90
776.66	1789.92
776.84	1687.53
777.01	1636.33
777.19	1652.71
777.37	1611.75
777.54	1703.91
777.72	1791.97
777.90	1781.73
778.07	1634.28
778.25	1914.85
778.43	1740.77
778.60	1673.19
778.78	1740.77
778.96	1755.11
779.13	1640.42
779.31	1730.53
779.49	1691.62
779.66	1619.94
779.84	1691.62
780.01	1697.77
780.19	1726.44
780.37	1714.15
780.54	1683.43
780.72	1665.00
780.90	1671.14
781.07	1716.20
781.25	1638.38
781.43	1687.53
781.60	1621.99
781.78	1824.74
781.95	1783.78
782.13	1626.09
782.31	1710.05
782.48	1599.46
782.66	1675.24
782.83	1861.60
783.01	1716.20
783.19	1679.33
783.36	1665.00
783.54	1613.80
783.72	1718.25
783.89	1626.09
784.07	1718.25
784.24	1718.25
784.42	1767.40
784.60	1726.44
784.77	1677.29
784.95	1624.04
785.12	1669.09
785.30	1734.63
785.47	1595.37
785.65	1669.09
785.83	1701.86
786.00	1644.52
786.18	1742.82
786.35	1669.09
786.53	1617.90
786.71	1697.77
786.88	1732.58
787.06	1726.44
787.23	1650.66
787.41	1636.33
787.58	1730.53
787.76	1691.62
787.94	1646.57
788.11	1742.82
788.29	1607.66
788.46	1681.38
788.64	1671.14
788.81	1679.33
788.99	1581.03
789.16	1667.05
789.34	1712.10
789.52	1669.09
789.69	1685.48
789.87	1646.57
790.04	1667.05
790.22	1705.96
790.39	1847.27
790.57	1644.52
790.74	1691.62
790.92	1755.11
791.09	1689.57
791.27	1636.33
791.44	1740.77
791.62	1714.15
791.79	1710.05
791.97	1660.90
792.15	1849.32
792.32	1710.05
792.50	1736.68
792.67	1783.78
792.85	1765.35
793.02	1783.78
793.20	1669.09
793.37	1615.85
793.55	1695.72
793.72	1609.70
793.90	1697.77
794.07	1642.47
794.25	1722.34
794.42	1759.21
794.60	1740.77
794.77	1646.57
794.95	1757.16
795.12	1716.20
795.30	1667.05
795.47	1662.95
795.65	1865.70
795.82	1736.68
796.00	1660.90
796.17	1767.40
796.34	1732.58
796.52	1673.19
796.69	1732.58
796.87	1726.44
797.04	1708.01
797.22	1767.40
797.39	1742.82
797.57	1736.68
797.74	1708.01
797.92	1665.00
798.09	1746.92
798.27	1724.39
798.44	1738.73
798.62	1650.66
798.79	1716.20
798.96	1710.05
799.14	1658.85
799.31	1796.07
799.49	1724.39
799.66	1726.44
799.84	1720.29
800.01	1634.28
800.19	1656.81
800.36	1673.19
800.53	1699.81
800.71	1683.43
800.88	1722.34
801.06	1753.06
801.23	1703.91
801.41	1656.81
801.58	1587.18
801.75	1667.05
801.93	1757.16
802.10	1691.62
802.28	1660.90
802.45	1681.38
802.63	1800.16
802.80	1691.62
802.97	1648.61
803.15	1708.01
803.32	1740.77
803.50	1683.43
803.67	1624.04
803.84	1652.71
804.02	1654.76
804.19	1607.66
804.37	1617.90
804.54	1710.05
804.71	1689.57
804.89	1644.52
805.06	1724.39
805.24	1603.56
805.41	1677.29
805.58	1654.76
805.76	1773.54
805.93	1744.87
806.10	1761.25
806.28	1771.49
806.45	1751.01
806.63	1726.44
806.80	1722.34
806.97	1675.24
807.15	1699.81
807.32	1683.43
807.49	1675.24
807.67	1607.66
807.84	1710.05
808.01	1597.42
808.19	1820.64
808.36	1738.73
808.54	1699.81
808.71	1656.81
808.88	1705.96
809.06	1744.87
809.23	1832.93
809.40	1697.77
809.58	1820.64
809.75	1703.91
809.92	1681.38
810.10	1845.22
810.27	1783.78
810.44	1697.77
810.62	1697.77
810.79	1673.19
810.96	1658.85
811.14	1642.47
811.31	1671.14
811.48	1742.82
811.66	1730.53
811.83	1730.53
812.00	1763.30
812.18	1730.53
812.35	1804.26
812.52	1671.14
812.69	1714.15
812.87	1638.38
813.04	1658.85
813.21	1701.86
813.39	1650.66
813.56	1695.72
813.73	1759.21
813.91	1632.23
814.08	1714.15
814.25	1615.85
814.42	1576.94
814.60	1697.77
814.77	1646.57
814.94	1679.33
815.12	1738.73
815.29	1703.91
815.46	1660.90
815.63	1644.52
815.81	1656.81
815.98	1683.43
816.15	1699.81
816.33	1701.86
816.50	1685.48
816.67	1642.47
816.84	1667.05
817.02	1626.09
817.19	1720.29
817.36	1767.40
817.53	1712.10
817.71	1656.81
817.88	1755.11
818.05	1728.49
818.22	1681.38
818.40	1773.54
818.57	1628.14
818.74	1714.15
818.91	1718.25
819.09	1751.01
819.26	1773.54
819.43	1710.05
819.60	1574.89
819.78	1683.43
819.95	1796.07
820.12	1669.09
820.29	1701.86
820.47	1794.02
820.64	1650.66
820.81	1630.18
820.98	1673.19
821.15	1624.04
821.33	1763.30
821.50	1621.99
821.67	1722.34
821.84	1603.56
822.02	1746.92
822.19	1773.54
822.36	1642.47
822.53	1636.33
822.70	1693.67
822.88	1681.38
823.05	1802.21
823.22	1660.90
823.39	1673.19
823.56	1708.01
823.74	1765.35
823.91	1634.28
824.08	1681.38
824.25	1638.38
824.42	1775.59
824.60	1697.77
824.77	1697.77
824.94	1669.09
825.11	1687.53
825.28	1687.53
825.45	1732.58
825.63	1679.33
825.80	1669.09
825.97	1734.63
826.14	1701.86
826.31	1593.32
826.48	1703.91
826.66	1628.14
826.83	1667.05
827.00	1765.35
827.17	1660.90
827.34	1671.14
827.51	1650.66
827.69	1703.91
827.86	1611.75
828.03	1708.01
828.20	1685.48
828.37	1662.95
828.54	1763.30
828.71	1716.20
828.89	1826.79
829.06	1742.82
829.23	1751.01
829.40	1656.81
829.57	1531.88
829.74	1738.73
829.91	1701.86
830.09	1615.85
830.26	1687.53
830.43	1785.83
830.60	1683.43
830.77	1761.25
830.94	1726.44
831.11	1667.05
831.28	1757.16
831.46	1781.73
831.63	1675.24
831.80	1753.06
831.97	1689.57
832.14	1732.58
832.31	1746.92
832.48	1695.72
832.65	1779.68
832.82	1714.15
832.99	1712.10
833.17	1603.56
833.34	1816.55
833.51	1720.29
833.68	1542.12
833.85	1703.91
834.02	1611.75
834.19	1656.81
834.36	1632.23
834.53	1742.82
834.70	1779.68
834.87	1751.01
835.04	1765.35
835.22	1685.48
835.39	1724.39
835.56	1626.09
835.73	1685.48
835.90	1751.01
836.07	1648.61
836.24	1681.38
836.41	1667.05
836.58	1626.09
836.75	1791.97
836.92	1742.82
837.09	1626.09
837.26	1697.77
837.43	1669.09
837.60	1642.47
837.77	1648.61
837.94	1722.34
838.12	1677.29
838.29	1734.63
838.46	1585.13
838.63	1556.46
838.80	1779.68
838.97	1712.10
839.14	1660.90
839.31	1687.53
839.48	1759.21
839.65	1673.19
839.82	1693.67
839.99	1669.09
840.16	1746.92
840.33	1683.43
840.50	1722.34
840.67	1673.19
840.84	1576.94
841.01	1718.25
841.18	1636.33
841.35	1681.38
841.52	1720.29
841.69	1787.88
841.86	1728.49
842.03	1775.59
842.20	1705.96
842.37	1701.86
842.54	1716.20
842.71	1609.70
842.88	1697.77
843.05	1718.25
843.22	1634.28
843.39	1779.68
843.56	1648.61
843.73	1734.63
843.90	1697.77
844.07	1691.62
844.24	1724.39
844.41	1736.68
844.58	1669.09
844.75	1628.14
844.92	1763.30
845.09	1697.77
845.26	1644.52
845.43	1728.49
845.60	1675.24
845.77	1757.16
845.94	1746.92
846.10	1695.72
846.27	1642.47
846.44	1656.81
846.61	1603.56
846.78	1712.10
846.95	1730.53
847.12	1650.66
847.29	1697.77
847.46	1689.57
847.63	1732.58
847.80	1667.05
847.97	1673.19
848.14	1781.73
848.31	1642.47
848.48	1607.66
848.65	1679.33
848.82	1638.38
848.98	1751.01
849.15	1740.77
849.32	1763.30
849.49	1744.87
849.66	1730.53
849.83	1718.25
850.00	1542.12
850.17	1732.58
850.34	1718.25
850.51	1693.67
850.68	1658.85
850.85	1791.97
851.01	1665.00
851.18	1746.92
851.35	1705.96
851.52	1708.01
851.69	1757.16
851.86	1595.37
852.03	1708.01
852.20	1810.40
852.37	1773.54
852.53	1607.66
852.70	1724.39
852.87	1669.09
853.04	1677.29
853.21	1677.29
853.38	1773.54
853.55	1773.54
853.72	1751.01
853.89	1662.95
854.05	1660.90
854.22	1658.85
854.39	1701.86
854.56	1734.63
854.73	1775.59
854.90	1601.51
855.07	1667.05
855.23	1648.61
855.40	1632.23
855.57	1662.95
855.74	1624.04
855.91	1882.08
856.08	1630.18
856.25	1656.81
856.41	1646.57
856.58	1724.39
856.75	1722.34
856.92	1595.37
857.09	1708.01
857.26	1681.38
857.42	1738.73
857.59	1714.15
857.76	1755.11
857.93	1714.15
858.10	1773.54
858.27	1611.75
858.43	1736.68
858.60	1681.38
858.77	1718.25
858.94	1646.57
859.11	1736.68
859.27	1662.95
859.44	1689.57
859.61	1759.21
859.78	1779.68
859.95	1675.24
860.12	1642.47
860.28	1814.50
860.45	1800.16
860.62	1615.85
860.79	1705.96
860.95	1632.23
861.12	1710.05
861.29	1654.76
861.46	1619.94
861.63	1681.38
861.79	1722.34
861.96	1708.01
862.13	1701.86
862.30	1781.73
862.47	1724.39
862.63	1648.61
862.80	1730.53
862.97	1611.75
863.14	1740.77
863.30	1742.82
863.47	1634.28
863.64	1785.83
863.81	1695.72
863.97	1705.96
864.14	1740.77
864.31	1728.49
864.48	1689.57
864.65	1650.66
864.81	1734.63
864.98	1695.72
865.15	1714.15
865.32	1779.68
865.48	1697.77
865.65	1763.30
865.82	1681.38
865.98	1671.14
866.15	1677.29
866.32	1640.42
866.49	1718.25
866.65	1744.87
866.82	1669.09
866.99	1662.95
867.16	1677.29
867.32	1632.23
867.49	1697.77
867.66	1628.14
867.83	1667.05
867.99	1648.61
868.16	1683.43
868.33	1638.38
868.49	1665.00
868.66	1716.20
868.83	1708.01
868.99	1718.25
869.16	1685.48
869.33	1787.88
869.50	1705.96
869.66	1652.71
869.83	1685.48
870.00	1617.90
870.16	1824.74
870.33	1671.14
870.50	1751.01
870.66	1701.86
870.83	1751.01
871.00	1744.87
871.17	1732.58
871.33	1716.20
871.50	1693.67
871.67	1658.85
871.83	1652.71
872.00	1800.16
872.17	1718.25
872.33	1791.97
872.50	1757.16
872.67	1648.61
872.83	1656.81
873.00	1681.38
873.17	1656.81
873.33	1837.03
873.50	1710.05
873.67	1621.99
873.83	1683.43
874.00	1705.96
874.16	1708.01
874.33	1671.14
874.50	1712.10
874.66	1761.25
874.83	1697.77
875.00	1759.21
875.16	1714.15
875.33	1757.16
875.50	1626.09
875.66	1648.61
875.83	1687.53
875.99	1761.25
876.16	1732.58
876.33	1703.91
876.49	1765.35
876.66	1728.49
876.83	1621.99
876.99	1560.55
877.16	1665.00
877.32	1765.35
877.49	1757.16
877.66	1728.49
877.82	1794.02
877.99	1685.48
878.15	1804.26
878.32	1718.25
878.49	1705.96
878.65	1673.19
878.82	1675.24
878.98	1652.71
879.15	1691.62
879.32	1767.40
879.48	1738.73
879.65	1607.66
879.81	1730.53
879.98	1615.85
880.15	1626.09
880.31	1759.21
880.48	1624.04
880.64	1779.68
880.81	1802.21
880.97	1810.40
881.14	1789.92
881.31	1705.96
881.47	1828.84
881.64	1667.05
881.80	1646.57
881.97	1642.47
882.13	1740.77
882.30	1630.18
882.47	1759.21
882.63	1636.33
882.80	1626.09
882.96	1667.05
883.13	1798.12
883.29	1710.05
883.46	1642.47
883.62	1828.84
883.79	1673.19
883.95	1742.82
884.12	1673.19
884.29	1759.21
884.45	1708.01
884.62	1701.86
884.78	1693.67
884.95	1791.97
885.11	1624.04
885.28	1683.43
885.44	1693.67
885.61	1705.96
885.77	1781.73
885.94	1705.96
886.10	1695.72
886.27	1677.29
886.43	1751.01
886.60	1708.01
886.76	1587.18
886.93	1728.49
887.09	1738.73
887.26	1646.57
887.42	1693.67
887.59	1720.29
887.75	1775.59
887.92	1834.98
888.08	1710.05
888.25	1794.02
888.41	1816.55
888.58	1654.76
888.74	1648.61
888.91	1689.57
>>>>>End Processed Spectral Data<<<<<
