SpectraSuite Data File
++++++++++++++++++++++++++++++++++++
Date: Mon Jun 06 14:37:37 CEST 2016
User: root
Dark Spectrum Present: No
Reference Spectrum Present: No
Number of Sampled Component Spectra: 1
Spectrometers: USB4C02835
Integration Time (usec): 100000 (USB4C02835)
Spectra Averaged: 1 (USB4C02835)
Boxcar Smoothing: 0 (USB4C02835)
Correct for Electrical Dark: No (USB4C02835)
Strobe/Lamp Enabled: No (USB4C02835)
Correct for Detector Non-linearity: No (USB4C02835)
Correct for Stray Light: No (USB4C02835)
Number of Pixels in Processed Spectrum: 3648
>>>>>Begin Processed Spectral Data<<<<<
177.47	1452.01
177.69	1452.01
177.91	1452.01
178.13	1458.15
178.36	1495.02
178.58	1525.74
178.80	1730.53
179.02	1695.72
179.24	1697.77
179.46	1650.66
179.68	1722.34
179.90	1689.57
180.13	1726.44
180.35	1644.52
180.57	1654.76
180.79	1691.62
181.01	1718.25
181.23	1712.10
181.45	1755.11
181.67	1703.91
181.90	1718.25
182.12	1628.14
182.34	1673.19
182.56	1810.40
182.78	1683.43
183.00	1755.11
183.22	1746.92
183.44	1576.94
183.66	1820.64
183.89	1791.97
184.11	1732.58
184.33	1654.76
184.55	1755.11
184.77	1677.29
184.99	1798.12
185.21	1673.19
185.43	1804.26
185.65	1705.96
185.87	1726.44
186.10	1789.92
186.32	1804.26
186.54	1826.79
186.76	1689.57
186.98	1767.40
187.20	1701.86
187.42	1689.57
187.64	1740.77
187.86	1751.01
188.08	1781.73
188.30	1683.43
188.52	1662.95
188.75	1742.82
188.97	1759.21
189.19	1644.52
189.41	1697.77
189.63	1763.30
189.85	1667.05
190.07	1599.46
190.29	1609.70
190.51	1724.39
190.73	1658.85
190.95	1763.30
191.17	1710.05
191.39	1607.66
191.61	1665.00
191.84	1679.33
192.06	1685.48
192.28	1638.38
192.50	1834.98
192.72	1703.91
192.94	1671.14
193.16	1757.16
193.38	1691.62
193.60	1644.52
193.82	1615.85
194.04	1732.58
194.26	1687.53
194.48	1703.91
194.70	1699.81
194.92	1630.18
195.14	1683.43
195.36	1632.23
195.58	1763.30
195.80	1697.77
196.02	1550.31
196.24	1648.61
196.46	1656.81
196.69	1632.23
196.91	1818.60
197.13	1671.14
197.35	1677.29
197.57	1734.63
197.79	1703.91
198.01	1740.77
198.23	1791.97
198.45	1689.57
198.67	1652.71
198.89	1669.09
199.11	1697.77
199.33	1736.68
199.55	1578.98
199.77	1597.42
199.99	1775.59
200.21	1652.71
200.43	1804.26
200.65	1671.14
200.87	1578.98
201.09	1695.72
201.31	1720.29
201.53	1773.54
201.75	1689.57
201.97	1722.34
202.19	1632.23
202.41	1740.77
202.63	1742.82
202.85	1656.81
203.07	1751.01
203.29	1669.09
203.51	1624.04
203.73	1701.86
203.95	1837.03
204.17	1720.29
204.39	1640.42
204.61	1654.76
204.83	1683.43
205.05	1755.11
205.27	1712.10
205.49	1798.12
205.71	1726.44
205.93	1628.14
206.15	1667.05
206.37	1687.53
206.59	1619.94
206.81	1552.36
207.03	1667.05
207.25	1595.37
207.47	1714.15
207.69	1646.57
207.91	1728.49
208.13	1763.30
208.34	1710.05
208.56	1624.04
208.78	1769.44
209.00	1720.29
209.22	1652.71
209.44	1718.25
209.66	1621.99
209.88	1693.67
210.10	1679.33
210.32	1724.39
210.54	1718.25
210.76	1654.76
210.98	1736.68
211.20	1628.14
211.42	1656.81
211.64	1779.68
211.86	1691.62
212.08	1677.29
212.30	1738.73
212.52	1673.19
212.74	1738.73
212.96	1746.92
213.17	1708.01
213.39	1714.15
213.61	1734.63
213.83	1738.73
214.05	1589.22
214.27	1665.00
214.49	1638.38
214.71	1712.10
214.93	1781.73
215.15	1701.86
215.37	1783.78
215.59	1638.38
215.81	1791.97
216.03	1789.92
216.24	1708.01
216.46	1712.10
216.68	1744.87
216.90	1718.25
217.12	1697.77
217.34	1724.39
217.56	1673.19
217.78	1767.40
218.00	1699.81
218.22	1648.61
218.44	1695.72
218.66	1767.40
218.87	1746.92
219.09	1695.72
219.31	1689.57
219.53	1724.39
219.75	1679.33
219.97	1744.87
220.19	1734.63
220.41	1714.15
220.63	1746.92
220.85	1726.44
221.06	1689.57
221.28	1742.82
221.50	1689.57
221.72	1718.25
221.94	1701.86
222.16	1683.43
222.38	1769.44
222.60	1724.39
222.82	1662.95
223.03	1736.68
223.25	1640.42
223.47	1759.21
223.69	1853.41
223.91	1781.73
224.13	1642.47
224.35	1562.60
224.57	1779.68
224.78	1757.16
225.00	1642.47
225.22	1691.62
225.44	1705.96
225.66	1705.96
225.88	1603.56
226.10	1755.11
226.32	1785.83
226.53	1736.68
226.75	1669.09
226.97	1732.58
227.19	1697.77
227.41	1718.25
227.63	1626.09
227.85	1634.28
228.06	1662.95
228.28	1714.15
228.50	1728.49
228.72	1681.38
228.94	1677.29
229.16	1665.00
229.37	1648.61
229.59	1656.81
229.81	1769.44
230.03	1607.66
230.25	1646.57
230.47	1648.61
230.69	1585.13
230.90	1765.35
231.12	1695.72
231.34	1677.29
231.56	1841.12
231.78	1605.61
232.00	1732.58
232.21	1734.63
232.43	1740.77
232.65	1566.70
232.87	1755.11
233.09	1630.18
233.30	1634.28
233.52	1683.43
233.74	1701.86
233.96	1656.81
234.18	1718.25
234.40	1632.23
234.61	1892.32
234.83	1615.85
235.05	1671.14
235.27	1834.98
235.49	1812.45
235.70	1691.62
235.92	1730.53
236.14	1701.86
236.36	1810.40
236.58	1619.94
236.79	1689.57
237.01	1669.09
237.23	1703.91
237.45	1773.54
237.67	1679.33
237.88	1660.90
238.10	1828.84
238.32	1714.15
238.54	1591.27
238.76	1699.81
238.97	1613.80
239.19	1695.72
239.41	1708.01
239.63	1779.68
239.85	1652.71
240.06	1652.71
240.28	1669.09
240.50	1738.73
240.72	1714.15
240.93	1722.34
241.15	1738.73
241.37	1712.10
241.59	1740.77
241.81	1656.81
242.02	1689.57
242.24	1802.21
242.46	1724.39
242.68	1644.52
242.89	1748.97
243.11	1720.29
243.33	1742.82
243.55	1691.62
243.76	1775.59
243.98	1656.81
244.20	1691.62
244.42	1730.53
244.64	1701.86
244.85	1570.79
245.07	1654.76
245.29	1775.59
245.51	1636.33
245.72	1701.86
245.94	1755.11
246.16	1761.25
246.38	1746.92
246.59	1624.04
246.81	1601.51
247.03	1732.58
247.24	1550.31
247.46	1685.48
247.68	1607.66
247.90	1705.96
248.11	1742.82
248.33	1726.44
248.55	1689.57
248.77	1734.63
248.98	1638.38
249.20	1806.31
249.42	1757.16
249.64	1724.39
249.85	1683.43
250.07	1642.47
250.29	1662.95
250.50	1626.09
250.72	1650.66
250.94	1667.05
251.16	1779.68
251.37	1728.49
251.59	1689.57
251.81	1712.10
252.02	1769.44
252.24	1617.90
252.46	1751.01
252.68	1675.24
252.89	1615.85
253.11	1628.14
253.33	1769.44
253.54	1761.25
253.76	1691.62
253.98	1654.76
254.20	1675.24
254.41	1665.00
254.63	1685.48
254.85	1554.41
255.06	1708.01
255.28	1710.05
255.50	1650.66
255.71	1642.47
255.93	1720.29
256.15	1730.53
256.36	1736.68
256.58	1693.67
256.80	1724.39
257.02	1591.27
257.23	1681.38
257.45	1722.34
257.67	1671.14
257.88	1714.15
258.10	1720.29
258.32	1648.61
258.53	1767.40
258.75	1798.12
258.97	1650.66
259.18	1656.81
259.40	1775.59
259.62	1746.92
259.83	1789.92
260.05	1755.11
260.27	1898.47
260.48	1771.49
260.70	1640.42
260.92	1613.80
261.13	1722.34
261.35	1685.48
261.57	1675.24
261.78	1619.94
262.00	1615.85
262.22	1685.48
262.43	1697.77
262.65	1712.10
262.86	1693.67
263.08	1824.74
263.30	1708.01
263.51	1576.94
263.73	1660.90
263.95	1767.40
264.16	1591.27
264.38	1705.96
264.60	1710.05
264.81	1654.76
265.03	1767.40
265.25	1710.05
265.46	1591.27
265.68	1671.14
265.89	1755.11
266.11	1636.33
266.33	1740.77
266.54	1748.97
266.76	1779.68
266.98	1718.25
267.19	1794.02
267.41	1791.97
267.62	1689.57
267.84	1615.85
268.06	1720.29
268.27	1621.99
268.49	1746.92
268.70	1755.11
268.92	1660.90
269.14	1630.18
269.35	1669.09
269.57	1722.34
269.79	1697.77
270.00	1699.81
270.22	1837.03
270.43	1667.05
270.65	1572.84
270.87	1720.29
271.08	1787.88
271.30	1734.63
271.51	1708.01
271.73	1718.25
271.95	1783.78
272.16	1789.92
272.38	1802.21
272.59	1632.23
272.81	1695.72
273.02	1705.96
273.24	1744.87
273.46	1677.29
273.67	1675.24
273.89	1669.09
274.10	1650.66
274.32	1763.30
274.54	1757.16
274.75	1640.42
274.97	1705.96
275.18	1705.96
275.40	1736.68
275.61	1726.44
275.83	1689.57
276.05	1697.77
276.26	1628.14
276.48	1724.39
276.69	1691.62
276.91	1613.80
277.12	1751.01
277.34	1814.50
277.55	1716.20
277.77	1742.82
277.99	1777.64
278.20	1634.28
278.42	1648.61
278.63	1679.33
278.85	1691.62
279.06	1585.13
279.28	1691.62
279.49	1687.53
279.71	1736.68
279.93	1740.77
280.14	1746.92
280.36	1650.66
280.57	1730.53
280.79	1748.97
281.00	1601.51
281.22	1708.01
281.43	1785.83
281.65	1617.90
281.86	1634.28
282.08	1626.09
282.29	1771.49
282.51	1552.36
282.73	1626.09
282.94	1636.33
283.16	1738.73
283.37	1701.86
283.59	1677.29
283.80	1767.40
284.02	1693.67
284.23	1748.97
284.45	1703.91
284.66	1656.81
284.88	1669.09
285.09	1732.58
285.31	1689.57
285.52	1728.49
285.74	1650.66
285.95	1775.59
286.17	1738.73
286.38	1703.91
286.60	1630.18
286.81	1691.62
287.03	1642.47
287.24	1638.38
287.46	1722.34
287.67	1708.01
287.89	1753.06
288.10	1701.86
288.32	1681.38
288.53	1736.68
288.75	1732.58
288.96	1781.73
289.18	1648.61
289.39	1691.62
289.61	1757.16
289.82	1794.02
290.04	1824.74
290.25	1714.15
290.47	1744.87
290.68	1646.57
290.90	1759.21
291.11	1624.04
291.33	1751.01
291.54	1587.18
291.76	1710.05
291.97	1734.63
292.18	1763.30
292.40	1636.33
292.61	1724.39
292.83	1834.98
293.04	1665.00
293.26	1769.44
293.47	1695.72
293.69	1669.09
293.90	1789.92
294.12	1732.58
294.33	1736.68
294.55	1701.86
294.76	1738.73
294.97	1775.59
295.19	1855.46
295.40	1685.48
295.62	1716.20
295.83	1722.34
296.05	1673.19
296.26	1730.53
296.48	1634.28
296.69	1652.71
296.90	1716.20
297.12	1710.05
297.33	1751.01
297.55	1734.63
297.76	1716.20
297.98	1734.63
298.19	1667.05
298.41	1705.96
298.62	1640.42
298.83	1689.57
299.05	1730.53
299.26	1599.46
299.48	1675.24
299.69	1767.40
299.90	1679.33
300.12	1587.18
300.33	1724.39
300.55	1726.44
300.76	1705.96
300.98	1722.34
301.19	1703.91
301.40	1640.42
301.62	1675.24
301.83	1751.01
302.05	1695.72
302.26	1669.09
302.47	1710.05
302.69	1601.51
302.90	1736.68
303.12	1591.27
303.33	1718.25
303.54	1804.26
303.76	1642.47
303.97	1693.67
304.19	1714.15
304.40	1564.65
304.61	1755.11
304.83	1726.44
305.04	1771.49
305.26	1714.15
305.47	1615.85
305.68	1722.34
305.90	1642.47
306.11	1746.92
306.33	1646.57
306.54	1648.61
306.75	1699.81
306.97	1611.75
307.18	1675.24
307.39	1699.81
307.61	1722.34
307.82	1761.25
308.04	1640.42
308.25	1683.43
308.46	1791.97
308.68	1710.05
308.89	1683.43
309.10	1777.64
309.32	1726.44
309.53	1691.62
309.74	1654.76
309.96	1648.61
310.17	1781.73
310.39	1712.10
310.60	1640.42
310.81	1695.72
311.03	1634.28
311.24	1722.34
311.45	1769.44
311.67	1796.07
311.88	1630.18
312.09	1720.29
312.31	1705.96
312.52	1720.29
312.73	1697.77
312.95	1626.09
313.16	1619.94
313.37	1785.83
313.59	1746.92
313.80	1746.92
314.01	1767.40
314.23	1775.59
314.44	1654.76
314.65	1626.09
314.87	1718.25
315.08	1654.76
315.29	1693.67
315.51	1632.23
315.72	1554.41
315.93	1693.67
316.15	1761.25
316.36	1712.10
316.57	1648.61
316.79	1669.09
317.00	1677.29
317.21	1621.99
317.43	1677.29
317.64	1718.25
317.85	1677.29
318.07	1714.15
318.28	1808.36
318.49	1812.45
318.70	1931.23
318.92	1865.70
319.13	1757.16
319.34	1845.22
319.56	1787.88
319.77	1867.75
319.98	1794.02
320.20	1763.30
320.41	1724.39
320.62	1763.30
320.83	1634.28
321.05	1787.88
321.26	1738.73
321.47	1720.29
321.69	1748.97
321.90	1583.08
322.11	1718.25
322.32	1685.48
322.54	1771.49
322.75	1673.19
322.96	1925.09
323.18	1611.75
323.39	1538.02
323.60	1681.38
323.81	1757.16
324.03	1712.10
324.24	1705.96
324.45	1738.73
324.66	1718.25
324.88	1800.16
325.09	1699.81
325.30	1714.15
325.52	1710.05
325.73	1748.97
325.94	1636.33
326.15	1615.85
326.37	1644.52
326.58	1775.59
326.79	1814.50
327.00	1667.05
327.22	1777.64
327.43	1646.57
327.64	1578.98
327.85	1773.54
328.07	1710.05
328.28	1794.02
328.49	1691.62
328.70	1708.01
328.92	1673.19
329.13	1693.67
329.34	1624.04
329.55	1841.12
329.76	1763.30
329.98	1691.62
330.19	1832.93
330.40	1609.70
330.61	1681.38
330.83	1812.45
331.04	1693.67
331.25	1632.23
331.46	1658.85
331.68	1632.23
331.89	1746.92
332.10	1677.29
332.31	1687.53
332.52	1669.09
332.74	1738.73
332.95	1669.09
333.16	1669.09
333.37	1773.54
333.58	1697.77
333.80	1681.38
334.01	1658.85
334.22	1755.11
334.43	1665.00
334.64	1689.57
334.86	1587.18
335.07	1665.00
335.28	1757.16
335.49	1550.31
335.70	1744.87
335.92	1777.64
336.13	1816.55
336.34	1697.77
336.55	1691.62
336.76	1691.62
336.98	1607.66
337.19	1677.29
337.40	1845.22
337.61	1945.57
337.82	1695.72
338.04	1695.72
338.25	1558.50
338.46	1669.09
338.67	1695.72
338.88	1671.14
339.09	1648.61
339.31	1591.27
339.52	1609.70
339.73	1710.05
339.94	1685.48
340.15	1732.58
340.36	1708.01
340.58	1689.57
340.79	1671.14
341.00	1685.48
341.21	1716.20
341.42	1773.54
341.63	1638.38
341.85	1714.15
342.06	1757.16
342.27	1712.10
342.48	1789.92
342.69	1599.46
342.90	1751.01
343.12	1701.86
343.33	1714.15
343.54	1806.31
343.75	1814.50
343.96	1646.57
344.17	1656.81
344.38	1722.34
344.60	1728.49
344.81	1624.04
345.02	1628.14
345.23	1714.15
345.44	1810.40
345.65	1697.77
345.86	1681.38
346.07	1685.48
346.29	1624.04
346.50	1710.05
346.71	1724.39
346.92	1761.25
347.13	1798.12
347.34	1648.61
347.55	1705.96
347.76	1732.58
347.98	1542.12
348.19	1705.96
348.40	1814.50
348.61	1677.29
348.82	1802.21
349.03	1722.34
349.24	1656.81
349.45	1775.59
349.66	1589.22
349.88	1736.68
350.09	1634.28
350.30	1767.40
350.51	1705.96
350.72	1675.24
350.93	1705.96
351.14	1642.47
351.35	1712.10
351.56	1773.54
351.77	1746.92
351.99	1736.68
352.20	1724.39
352.41	1808.36
352.62	1642.47
352.83	1638.38
353.04	1679.33
353.25	1716.20
353.46	1708.01
353.67	1722.34
353.88	1583.08
354.09	1671.14
354.30	1665.00
354.52	1665.00
354.73	1734.63
354.94	1617.90
355.15	1716.20
355.36	1785.83
355.57	1628.14
355.78	1658.85
355.99	1640.42
356.20	1681.38
356.41	1681.38
356.62	1779.68
356.83	1632.23
357.04	1771.49
357.25	1652.71
357.46	1671.14
357.68	1568.74
357.89	1718.25
358.10	1712.10
358.31	1681.38
358.52	1658.85
358.73	1671.14
358.94	1646.57
359.15	1667.05
359.36	1712.10
359.57	1689.57
359.78	1703.91
359.99	1724.39
360.20	1669.09
360.41	1671.14
360.62	1677.29
360.83	1710.05
361.04	1650.66
361.25	1705.96
361.46	1863.65
361.67	1673.19
361.88	1826.79
362.09	1746.92
362.30	1753.06
362.51	1679.33
362.72	1728.49
362.93	1736.68
363.14	1730.53
363.35	1693.67
363.56	1671.14
363.78	1708.01
363.99	1712.10
364.20	1687.53
364.41	1691.62
364.62	1816.55
364.83	1621.99
365.04	1751.01
365.25	1681.38
365.46	1791.97
365.67	1701.86
365.88	1636.33
366.09	1675.24
366.30	1662.95
366.51	1734.63
366.72	1648.61
366.93	1746.92
367.14	1728.49
367.35	1783.78
367.56	1689.57
367.77	1800.16
367.98	1699.81
368.18	1650.66
368.39	1751.01
368.60	1708.01
368.81	1751.01
369.02	1751.01
369.23	1648.61
369.44	1578.98
369.65	1669.09
369.86	1738.73
370.07	1734.63
370.28	1738.73
370.49	1683.43
370.70	1742.82
370.91	1621.99
371.12	1642.47
371.33	1665.00
371.54	1673.19
371.75	1787.88
371.96	1550.31
372.17	1751.01
372.38	1753.06
372.59	1740.77
372.80	1693.67
373.01	1683.43
373.22	1720.29
373.43	1714.15
373.64	1535.98
373.85	1695.72
374.06	1849.32
374.26	1746.92
374.47	1705.96
374.68	1746.92
374.89	1746.92
375.10	1675.24
375.31	1755.11
375.52	1638.38
375.73	1701.86
375.94	1613.80
376.15	1806.31
376.36	1654.76
376.57	1759.21
376.78	1705.96
376.99	1744.87
377.20	1767.40
377.40	1710.05
377.61	1804.26
377.82	1673.19
378.03	1769.44
378.24	1787.88
378.45	1703.91
378.66	1705.96
378.87	1613.80
379.08	1603.56
379.29	1660.90
379.50	1775.59
379.71	1607.66
379.91	1845.22
380.12	1722.34
380.33	1771.49
380.54	1681.38
380.75	1736.68
380.96	1642.47
381.17	1718.25
381.38	1732.58
381.59	1685.48
381.80	1744.87
382.00	1841.12
382.21	1730.53
382.42	1847.27
382.63	1896.42
382.84	1751.01
383.05	1765.35
383.26	1808.36
383.47	1708.01
383.68	1685.48
383.88	1597.42
384.09	1785.83
384.30	1779.68
384.51	1791.97
384.72	1650.66
384.93	1638.38
385.14	1708.01
385.35	1732.58
385.55	1695.72
385.76	1783.78
385.97	1712.10
386.18	1652.71
386.39	1667.05
386.60	1730.53
386.81	1648.61
387.02	1687.53
387.22	1665.00
387.43	1722.34
387.64	1800.16
387.85	1865.70
388.06	2252.77
388.27	4235.20
388.48	6803.35
388.68	8363.90
388.89	9629.55
389.10	9883.50
389.31	8671.10
389.52	7444.37
389.73	6709.15
389.93	6250.40
390.14	5869.48
390.35	5224.37
390.56	4595.64
390.77	3702.73
390.98	3102.67
391.18	2516.95
391.39	2201.57
391.60	1789.92
391.81	1880.04
392.02	1738.73
392.23	1837.03
392.43	1703.91
392.64	1742.82
392.85	1679.33
393.06	1839.08
393.27	1699.81
393.47	1691.62
393.68	1699.81
393.89	1716.20
394.10	1742.82
394.31	1683.43
394.52	1691.62
394.72	1646.57
394.93	1814.50
395.14	1728.49
395.35	1626.09
395.56	1742.82
395.76	1728.49
395.97	1748.97
396.18	1849.32
396.39	1810.40
396.60	2045.92
396.80	1824.74
397.01	1800.16
397.22	1882.08
397.43	1851.36
397.64	1746.92
397.84	1785.83
398.05	1892.32
398.26	1712.10
398.47	1820.64
398.67	1761.25
398.88	1687.53
399.09	1701.86
399.30	1644.52
399.51	1771.49
399.71	1687.53
399.92	1685.48
400.13	1665.00
400.34	1628.14
400.54	1611.75
400.75	1814.50
400.96	1738.73
401.17	1824.74
401.37	1730.53
401.58	1691.62
401.79	1775.59
402.00	1845.22
402.21	2011.11
402.41	1957.86
402.62	1918.95
402.83	2074.59
403.04	1947.62
403.24	2025.44
403.45	1810.40
403.66	1906.66
403.87	1861.60
404.07	1896.42
404.28	1912.80
404.49	1904.61
404.70	1765.35
404.90	1832.93
405.11	1685.48
405.32	1728.49
405.52	1609.70
405.73	1626.09
405.94	1632.23
406.15	1726.44
406.35	1705.96
406.56	1734.63
406.77	1671.14
406.98	1683.43
407.18	1583.08
407.39	1726.44
407.60	1744.87
407.80	1748.97
408.01	1669.09
408.22	1751.01
408.43	1691.62
408.63	1710.05
408.84	1720.29
409.05	1755.11
409.25	1675.24
409.46	1738.73
409.67	1679.33
409.88	1667.05
410.08	1783.78
410.29	1656.81
410.50	1730.53
410.70	1689.57
410.91	1669.09
411.12	1673.19
411.32	1730.53
411.53	1705.96
411.74	1857.51
411.95	1716.20
412.15	1802.21
412.36	1814.50
412.57	1656.81
412.77	1816.55
412.98	1699.81
413.19	1685.48
413.39	1771.49
413.60	1755.11
413.81	1800.16
414.01	1675.24
414.22	1759.21
414.43	1771.49
414.63	1675.24
414.84	1693.67
415.05	1693.67
415.25	1611.75
415.46	1769.44
415.67	1630.18
415.87	1736.68
416.08	1636.33
416.29	1669.09
416.49	1798.12
416.70	1730.53
416.91	1716.20
417.11	1628.14
417.32	1734.63
417.53	1769.44
417.73	1718.25
417.94	1669.09
418.15	1650.66
418.35	1617.90
418.56	1740.77
418.77	1927.14
418.97	1699.81
419.18	1705.96
419.38	1591.27
419.59	1738.73
419.80	1767.40
420.00	1708.01
420.21	1765.35
420.42	1724.39
420.62	1722.34
420.83	1730.53
421.04	1734.63
421.24	1761.25
421.45	1746.92
421.65	1736.68
421.86	1701.86
422.07	1781.73
422.27	1685.48
422.48	1677.29
422.69	1656.81
422.89	1714.15
423.10	1720.29
423.30	1546.22
423.51	1710.05
423.72	1705.96
423.92	1697.77
424.13	1589.22
424.33	1740.77
424.54	1773.54
424.75	1626.09
424.95	1869.80
425.16	1722.34
425.36	1654.76
425.57	1738.73
425.78	1748.97
425.98	1767.40
426.19	1714.15
426.39	1568.74
426.60	1714.15
426.81	1765.35
427.01	1761.25
427.22	1642.47
427.42	1593.32
427.63	1574.89
427.83	1775.59
428.04	1726.44
428.25	1824.74
428.45	1675.24
428.66	1757.16
428.86	1667.05
429.07	1679.33
429.28	1716.20
429.48	1628.14
429.69	1738.73
429.89	1738.73
430.10	1540.07
430.30	1691.62
430.51	1824.74
430.71	1628.14
430.92	1660.90
431.13	1665.00
431.33	1755.11
431.54	1710.05
431.74	1804.26
431.95	1853.41
432.15	1671.14
432.36	1732.58
432.56	1751.01
432.77	1810.40
432.98	1796.07
433.18	1746.92
433.39	1665.00
433.59	1703.91
433.80	1814.50
434.00	1867.75
434.21	1660.90
434.41	1650.66
434.62	1839.08
434.82	1691.62
435.03	1669.09
435.23	1679.33
435.44	1628.14
435.64	1765.35
435.85	1728.49
436.06	1695.72
436.26	1808.36
436.47	1675.24
436.67	1624.04
436.88	1697.77
437.08	1718.25
437.29	1767.40
437.49	1699.81
437.70	1781.73
437.90	1748.97
438.11	1845.22
438.31	1832.93
438.52	1824.74
438.72	1865.70
438.93	1865.70
439.13	1765.35
439.34	1861.60
439.54	1761.25
439.75	1781.73
439.95	1837.03
440.16	1716.20
440.36	1722.34
440.57	1763.30
440.77	1697.77
440.98	1761.25
441.18	1806.31
441.39	1691.62
441.59	1685.48
441.80	1859.56
442.00	1673.19
442.21	1746.92
442.41	1621.99
442.62	1800.16
442.82	1738.73
443.02	1728.49
443.23	1679.33
443.43	1767.40
443.64	1791.97
443.84	1722.34
444.05	1769.44
444.25	1685.48
444.46	1697.77
444.66	1759.21
444.87	1865.70
445.07	1562.60
445.28	1689.57
445.48	1763.30
445.69	1783.78
445.89	1875.94
446.09	1714.15
446.30	2062.30
446.50	2535.39
446.71	3745.73
446.91	4325.31
447.12	4716.47
447.32	4859.83
447.53	4353.98
447.73	3852.23
447.93	3553.23
448.14	3262.41
448.34	3313.61
448.55	2959.31
448.75	2961.36
448.96	2648.02
449.16	2400.22
449.36	2316.25
449.57	2093.02
449.77	1857.51
449.98	1802.21
450.18	1837.03
450.39	1822.69
450.59	1744.87
450.79	1705.96
451.00	1628.14
451.20	1744.87
451.41	1732.58
451.61	1755.11
451.81	1724.39
452.02	1736.68
452.22	1665.00
452.43	1726.44
452.63	1687.53
452.84	1683.43
453.04	1685.48
453.24	1677.29
453.45	1671.14
453.65	1673.19
453.86	1671.14
454.06	1722.34
454.26	1658.85
454.47	1705.96
454.67	1853.41
454.87	1722.34
455.08	1683.43
455.28	1822.69
455.49	1705.96
455.69	1658.85
455.89	1933.28
456.10	1783.78
456.30	1689.57
456.51	1714.15
456.71	1722.34
456.91	1740.77
457.12	1779.68
457.32	1845.22
457.52	1656.81
457.73	1759.21
457.93	1755.11
458.14	1716.20
458.34	1658.85
458.54	1693.67
458.75	1722.34
458.95	1810.40
459.15	1742.82
459.36	1765.35
459.56	1689.57
459.76	1746.92
459.97	1714.15
460.17	1728.49
460.37	1800.16
460.58	1730.53
460.78	1761.25
460.99	1765.35
461.19	1736.68
461.39	1693.67
461.60	1679.33
461.80	1677.29
462.00	1730.53
462.21	1697.77
462.41	1705.96
462.61	1642.47
462.82	1609.70
463.02	1730.53
463.22	1718.25
463.43	1748.97
463.63	1738.73
463.83	1771.49
464.04	1730.53
464.24	1755.11
464.44	1624.04
464.64	1693.67
464.85	1773.54
465.05	1820.64
465.25	1701.86
465.46	1685.48
465.66	1820.64
465.86	1767.40
466.07	1710.05
466.27	1693.67
466.47	1603.56
466.68	1626.09
466.88	1837.03
467.08	1775.59
467.29	1720.29
467.49	1808.36
467.69	1671.14
467.89	1781.73
468.10	1718.25
468.30	1730.53
468.50	1771.49
468.71	1685.48
468.91	1718.25
469.11	1787.88
469.31	1738.73
469.52	1644.52
469.72	1822.69
469.92	1791.97
470.13	1757.16
470.33	1794.02
470.53	1808.36
470.73	2064.35
470.94	2224.09
471.14	2244.57
471.34	2473.95
471.54	2381.79
471.75	2263.01
471.95	2117.60
472.15	2056.16
472.36	2076.64
472.56	2115.55
472.76	2029.54
472.96	1939.43
473.17	1964.00
473.37	1951.71
473.57	1787.88
473.77	1746.92
473.98	1822.69
474.18	1699.81
474.38	1912.80
474.58	1779.68
474.79	1675.24
474.99	1724.39
475.19	1767.40
475.39	1705.96
475.60	1736.68
475.80	1716.20
476.00	1705.96
476.20	1628.14
476.41	1810.40
476.61	1798.12
476.81	1742.82
477.01	1646.57
477.21	1867.75
477.42	1789.92
477.62	1714.15
477.82	1804.26
478.02	1632.23
478.23	1742.82
478.43	1656.81
478.63	1636.33
478.83	1669.09
479.03	1656.81
479.24	1753.06
479.44	1796.07
479.64	1650.66
479.84	1619.94
480.04	1714.15
480.25	1730.53
480.45	1660.90
480.65	1669.09
480.85	1812.45
481.06	1708.01
481.26	1738.73
481.46	1787.88
481.66	1763.30
481.86	1767.40
482.06	1783.78
482.27	1689.57
482.47	1722.34
482.67	1794.02
482.87	1742.82
483.07	1734.63
483.28	1656.81
483.48	1640.42
483.68	1640.42
483.88	1667.05
484.08	1636.33
484.29	1681.38
484.49	1744.87
484.69	1669.09
484.89	1886.18
485.09	1744.87
485.29	1757.16
485.50	1751.01
485.70	1691.62
485.90	1798.12
486.10	1718.25
486.30	1757.16
486.50	1693.67
486.71	1732.58
486.91	1753.06
487.11	1855.46
487.31	1699.81
487.51	1753.06
487.71	1693.67
487.91	1644.52
488.12	1753.06
488.32	1603.56
488.52	1697.77
488.72	1656.81
488.92	1697.77
489.12	1732.58
489.32	1826.79
489.53	1779.68
489.73	1703.91
489.93	1845.22
490.13	1640.42
490.33	1574.89
490.53	1806.31
490.73	1818.60
490.94	1691.62
491.14	1884.13
491.34	1769.44
491.54	2146.27
491.74	2535.39
491.94	2918.36
492.14	2975.70
492.34	2930.64
492.54	2781.14
492.75	2502.62
492.95	2371.55
493.15	2322.40
493.35	2303.96
493.55	2234.33
493.75	2115.55
493.95	2203.61
494.15	1984.48
494.35	1865.70
494.56	1820.64
494.76	1714.15
494.96	1841.12
495.16	1873.89
495.36	1769.44
495.56	1726.44
495.76	1751.01
495.96	1603.56
496.16	1613.80
496.36	1861.60
496.56	1755.11
496.77	1722.34
496.97	1744.87
497.17	1808.36
497.37	1673.19
497.57	1740.77
497.77	1808.36
497.97	1689.57
498.17	1726.44
498.37	1730.53
498.57	1771.49
498.77	1714.15
498.97	1777.64
499.17	1834.98
499.38	1751.01
499.58	1769.44
499.78	1726.44
499.98	1816.55
500.18	1761.25
500.38	1708.01
500.58	1894.37
500.78	2568.15
500.98	4509.63
501.18	5793.70
501.38	6758.30
501.58	7262.10
501.78	6668.19
501.98	5603.24
502.18	4913.08
502.38	4544.44
502.58	4163.52
502.78	3798.98
502.98	3510.22
503.18	3493.83
503.38	3278.80
503.59	2869.20
503.79	2707.41
503.99	2392.03
504.19	2254.81
504.39	2181.09
504.59	2187.23
504.79	2144.22
504.99	2050.02
505.19	1839.08
505.39	1849.32
505.59	1937.38
505.79	1906.66
505.99	1865.70
506.19	1726.44
506.39	1914.85
506.59	1740.77
506.79	1785.83
506.99	1804.26
507.19	1730.53
507.39	1744.87
507.59	1634.28
507.79	1697.77
507.99	1656.81
508.19	1671.14
508.39	1699.81
508.59	1720.29
508.79	1806.31
508.99	1828.84
509.19	1660.90
509.39	1794.02
509.59	1683.43
509.79	1636.33
509.99	1814.50
510.19	1759.21
510.39	1845.22
510.59	1763.30
510.79	1769.44
510.99	1755.11
511.19	1759.21
511.39	1796.07
511.59	1767.40
511.79	1773.54
511.99	1775.59
512.19	1839.08
512.38	1683.43
512.58	1695.72
512.78	1800.16
512.98	1697.77
513.18	1839.08
513.38	1665.00
513.58	1820.64
513.78	1755.11
513.98	1734.63
514.18	1677.29
514.38	1714.15
514.58	1757.16
514.78	1689.57
514.98	1718.25
515.18	1724.39
515.38	1669.09
515.58	1863.65
515.78	1699.81
515.98	1787.88
516.18	1765.35
516.38	1710.05
516.57	1742.82
516.77	1697.77
516.97	1765.35
517.17	1613.80
517.37	1611.75
517.57	1808.36
517.77	1767.40
517.97	1757.16
518.17	1818.60
518.37	1710.05
518.57	1708.01
518.77	1748.97
518.97	1748.97
519.16	1751.01
519.36	1796.07
519.56	1669.09
519.76	1712.10
519.96	1699.81
520.16	1796.07
520.36	1712.10
520.56	1708.01
520.76	1804.26
520.96	1753.06
521.16	1855.46
521.35	1816.55
521.55	1716.20
521.75	1775.59
521.95	1701.86
522.15	1718.25
522.35	1708.01
522.55	1619.94
522.75	1798.12
522.95	1695.72
523.14	1636.33
523.34	1720.29
523.54	1755.11
523.74	1775.59
523.94	1787.88
524.14	1601.51
524.34	1742.82
524.54	1822.69
524.73	1738.73
524.93	1736.68
525.13	1781.73
525.33	1628.14
525.53	1947.62
525.73	1763.30
525.93	1714.15
526.13	1761.25
526.32	1689.57
526.52	1777.64
526.72	1806.31
526.92	1779.68
527.12	1708.01
527.32	1611.75
527.52	1710.05
527.71	1783.78
527.91	1794.02
528.11	1734.63
528.31	1677.29
528.51	1697.77
528.71	1767.40
528.90	1751.01
529.10	1769.44
529.30	1787.88
529.50	1640.42
529.70	1701.86
529.90	1595.37
530.09	1722.34
530.29	1703.91
530.49	1722.34
530.69	1839.08
530.89	1710.05
531.09	1779.68
531.28	1716.20
531.48	1822.69
531.68	1724.39
531.88	1763.30
532.08	1816.55
532.28	1732.58
532.47	1736.68
532.67	1722.34
532.87	1720.29
533.07	1714.15
533.27	1828.84
533.46	1712.10
533.66	1769.44
533.86	1705.96
534.06	1708.01
534.26	1724.39
534.45	1722.34
534.65	1828.84
534.85	1685.48
535.05	1755.11
535.25	1791.97
535.44	1650.66
535.64	1826.79
535.84	1701.86
536.04	1742.82
536.24	1685.48
536.43	1656.81
536.63	1677.29
536.83	1675.24
537.03	1791.97
537.22	1605.61
537.42	1685.48
537.62	1681.38
537.82	1691.62
538.02	1738.73
538.21	1804.26
538.41	1814.50
538.61	1779.68
538.81	1703.91
539.00	1810.40
539.20	1687.53
539.40	1746.92
539.60	1773.54
539.79	1771.49
539.99	1699.81
540.19	1679.33
540.39	1742.82
540.58	1751.01
540.78	1779.68
540.98	1742.82
541.18	1714.15
541.37	1742.82
541.57	1736.68
541.77	1712.10
541.97	1728.49
542.16	1650.66
542.36	1679.33
542.56	1724.39
542.76	1857.51
542.95	1761.25
543.15	1746.92
543.35	1822.69
543.54	1718.25
543.74	1712.10
543.94	1843.17
544.14	1685.48
544.33	1843.17
544.53	1726.44
544.73	1726.44
544.93	1748.97
545.12	1773.54
545.32	1681.38
545.52	1679.33
545.71	1722.34
545.91	1669.09
546.11	1644.52
546.30	1644.52
546.50	1734.63
546.70	1796.07
546.90	1751.01
547.09	1640.42
547.29	1728.49
547.49	1775.59
547.68	1705.96
547.88	1703.91
548.08	1759.21
548.27	2193.37
548.47	1742.82
548.67	1732.58
548.87	1744.87
549.06	1714.15
549.26	1720.29
549.46	1701.86
549.65	1714.15
549.85	1808.36
550.05	1728.49
550.24	1697.77
550.44	1765.35
550.64	1798.12
550.83	1740.77
551.03	1767.40
551.23	1763.30
551.42	1736.68
551.62	1746.92
551.82	1726.44
552.01	1708.01
552.21	1861.60
552.41	1826.79
552.60	1818.60
552.80	1705.96
553.00	1724.39
553.19	1687.53
553.39	1796.07
553.59	1658.85
553.78	1671.14
553.98	1765.35
554.17	1701.86
554.37	1736.68
554.57	1822.69
554.76	1734.63
554.96	1765.35
555.16	1675.24
555.35	1705.96
555.55	1757.16
555.75	1753.06
555.94	1769.44
556.14	1630.18
556.33	1794.02
556.53	1718.25
556.73	1681.38
556.92	1771.49
557.12	1771.49
557.32	1779.68
557.51	1837.03
557.71	1740.77
557.90	1855.46
558.10	1830.88
558.30	1746.92
558.49	1701.86
558.69	1771.49
558.88	1775.59
559.08	1763.30
559.28	1763.30
559.47	1820.64
559.67	1712.10
559.86	1884.13
560.06	1722.34
560.26	1759.21
560.45	1691.62
560.65	1742.82
560.84	1820.64
561.04	1675.24
561.24	1751.01
561.43	1665.00
561.63	1808.36
561.82	1755.11
562.02	1720.29
562.22	1691.62
562.41	1701.86
562.61	1699.81
562.80	1687.53
563.00	1824.74
563.19	1748.97
563.39	1826.79
563.59	1695.72
563.78	1689.57
563.98	1648.61
564.17	1691.62
564.37	1642.47
564.56	1691.62
564.76	1646.57
564.96	1773.54
565.15	1740.77
565.35	1859.56
565.54	1669.09
565.74	1783.78
565.93	1787.88
566.13	1789.92
566.32	1783.78
566.52	1781.73
566.71	1732.58
566.91	1744.87
567.11	1748.97
567.30	1697.77
567.50	1818.60
567.69	1708.01
567.89	1718.25
568.08	1662.95
568.28	1699.81
568.47	1673.19
568.67	1734.63
568.86	1732.58
569.06	1824.74
569.25	1648.61
569.45	1679.33
569.64	1724.39
569.84	1654.76
570.04	1658.85
570.23	1740.77
570.43	1687.53
570.62	1802.21
570.82	1812.45
571.01	1712.10
571.21	1740.77
571.40	1703.91
571.60	1773.54
571.79	1779.68
571.99	1781.73
572.18	1701.86
572.38	1751.01
572.57	1816.55
572.77	1744.87
572.96	1882.08
573.16	1751.01
573.35	1703.91
573.55	1873.89
573.74	1832.93
573.94	1687.53
574.13	1701.86
574.33	1761.25
574.52	1746.92
574.71	1771.49
574.91	1732.58
575.10	1640.42
575.30	1718.25
575.49	1730.53
575.69	1681.38
575.88	1765.35
576.08	1732.58
576.27	1828.84
576.47	1765.35
576.66	1884.13
576.86	1695.72
577.05	1775.59
577.25	1714.15
577.44	1865.70
577.64	1751.01
577.83	1806.31
578.02	1744.87
578.22	1820.64
578.41	1873.89
578.61	1779.68
578.80	1628.14
579.00	1771.49
579.19	1720.29
579.39	1714.15
579.58	1734.63
579.77	1777.64
579.97	1824.74
580.16	1759.21
580.36	1810.40
580.55	1800.16
580.75	1730.53
580.94	1738.73
581.13	1853.41
581.33	1873.89
581.52	1759.21
581.72	1855.46
581.91	1820.64
582.11	1753.06
582.30	1773.54
582.49	1753.06
582.69	1783.78
582.88	1775.59
583.08	1748.97
583.27	1820.64
583.47	1785.83
583.66	1697.77
583.85	1730.53
584.05	1718.25
584.24	1806.31
584.44	1785.83
584.63	1789.92
584.82	1794.02
585.02	1849.32
585.21	1802.21
585.41	1824.74
585.60	1871.84
585.79	1822.69
585.99	1970.15
586.18	1918.95
586.37	2183.13
586.57	3440.59
586.76	9873.26
586.96	24868.48
587.15	35106.28
587.34	40963.47
587.54	42335.61
587.73	36904.40
587.93	26609.26
588.12	21984.94
588.31	18401.00
588.51	16363.27
588.70	15236.89
588.89	14212.90
589.09	12914.49
589.28	11204.44
589.47	9615.21
589.67	8015.75
589.86	6512.54
590.06	4927.41
590.25	3844.04
590.44	3137.49
590.64	2514.91
590.83	2287.58
591.02	2136.03
591.22	1943.52
591.41	1951.71
591.60	1814.50
591.80	1992.67
591.99	1763.30
592.18	1777.64
592.38	1834.98
592.57	1685.48
592.76	1849.32
592.96	1830.88
593.15	1748.97
593.34	1884.13
593.54	1781.73
593.73	1732.58
593.92	1800.16
594.12	1705.96
594.31	1708.01
594.50	1837.03
594.70	1738.73
594.89	1869.80
595.08	1648.61
595.28	1787.88
595.47	1906.66
595.66	1771.49
595.86	1730.53
596.05	1732.58
596.24	1673.19
596.43	1726.44
596.63	1855.46
596.82	1785.83
597.01	1820.64
597.21	1847.27
597.40	1785.83
597.59	1808.36
597.79	1761.25
597.98	1730.53
598.17	1804.26
598.36	1783.78
598.56	1765.35
598.75	1683.43
598.94	1814.50
599.14	1732.58
599.33	1697.77
599.52	1769.44
599.71	1703.91
599.91	1753.06
600.10	1738.73
600.29	1722.34
600.48	1806.31
600.68	1748.97
600.87	1730.53
601.06	1720.29
601.26	1759.21
601.45	1785.83
601.64	1673.19
601.83	1841.12
602.03	1734.63
602.22	1697.77
602.41	1753.06
602.60	1834.98
602.80	1779.68
602.99	1673.19
603.18	1714.15
603.37	1693.67
603.57	1818.60
603.76	1724.39
603.95	1834.98
604.14	1734.63
604.34	1708.01
604.53	1685.48
604.72	1781.73
604.91	1742.82
605.10	1781.73
605.30	1658.85
605.49	1824.74
605.68	1763.30
605.87	1728.49
606.07	1658.85
606.26	1701.86
606.45	1843.17
606.64	1757.16
606.84	1740.77
607.03	1796.07
607.22	1771.49
607.41	1708.01
607.60	1699.81
607.80	1761.25
607.99	1679.33
608.18	1746.92
608.37	1699.81
608.56	1654.76
608.76	1832.93
608.95	1826.79
609.14	1718.25
609.33	1767.40
609.52	1773.54
609.72	1728.49
609.91	1714.15
610.10	1744.87
610.29	1773.54
610.48	1800.16
610.68	1699.81
610.87	1687.53
611.06	1783.78
611.25	1675.24
611.44	1740.77
611.63	1726.44
611.83	1880.04
612.02	1656.81
612.21	1753.06
612.40	1593.32
612.59	1626.09
612.79	1632.23
612.98	1785.83
613.17	1826.79
613.36	1689.57
613.55	1812.45
613.74	1650.66
613.93	1660.90
614.13	1763.30
614.32	1751.01
614.51	1814.50
614.70	1671.14
614.89	1710.05
615.08	1761.25
615.28	2007.01
615.47	1642.47
615.66	1675.24
615.85	1701.86
616.04	1804.26
616.23	1746.92
616.42	1730.53
616.62	1751.01
616.81	1787.88
617.00	1720.29
617.19	1718.25
617.38	1615.85
617.57	1693.67
617.76	1814.50
617.95	1728.49
618.15	1763.30
618.34	1789.92
618.53	1705.96
618.72	1765.35
618.91	1896.42
619.10	1757.16
619.29	1740.77
619.48	1791.97
619.68	1656.81
619.87	1748.97
620.06	1611.75
620.25	1757.16
620.44	1769.44
620.63	1726.44
620.82	1714.15
621.01	1785.83
621.20	1722.34
621.39	1710.05
621.59	1814.50
621.78	1701.86
621.97	1763.30
622.16	1763.30
622.35	1755.11
622.54	1744.87
622.73	1804.26
622.92	1630.18
623.11	1837.03
623.30	1644.52
623.49	1728.49
623.68	1705.96
623.88	1734.63
624.07	1687.53
624.26	1753.06
624.45	1818.60
624.64	1701.86
624.83	1730.53
625.02	1722.34
625.21	1716.20
625.40	1763.30
625.59	1781.73
625.78	1636.33
625.97	1775.59
626.16	1751.01
626.35	1775.59
626.54	1624.04
626.74	1759.21
626.93	1714.15
627.12	1697.77
627.31	1757.16
627.50	1716.20
627.69	1748.97
627.88	1703.91
628.07	1712.10
628.26	1619.94
628.45	1695.72
628.64	1685.48
628.83	1677.29
629.02	1656.81
629.21	1775.59
629.40	1718.25
629.59	1767.40
629.78	1689.57
629.97	1708.01
630.16	1769.44
630.35	1644.52
630.54	1673.19
630.73	1652.71
630.92	1734.63
631.11	1726.44
631.30	1679.33
631.49	1724.39
631.68	1757.16
631.87	1763.30
632.06	1574.89
632.25	1796.07
632.44	1708.01
632.63	1746.92
632.82	1691.62
633.01	1671.14
633.20	1697.77
633.39	1624.04
633.58	1585.13
633.77	1701.86
633.96	1726.44
634.15	1705.96
634.34	1712.10
634.53	1742.82
634.72	1624.04
634.91	1701.86
635.10	1675.24
635.29	1646.57
635.48	1761.25
635.67	1730.53
635.86	1632.23
636.05	1810.40
636.24	1681.38
636.43	1716.20
636.62	1751.01
636.81	1511.40
637.00	1779.68
637.19	1730.53
637.38	1722.34
637.57	1658.85
637.76	1667.05
637.95	1681.38
638.14	1687.53
638.33	1751.01
638.52	1722.34
638.71	1656.81
638.89	1570.79
639.08	1777.64
639.27	1738.73
639.46	1658.85
639.65	1783.78
639.84	1755.11
640.03	1699.81
640.22	1708.01
640.41	1757.16
640.60	1642.47
640.79	1587.18
640.98	1648.61
641.17	1724.39
641.36	1669.09
641.55	1726.44
641.74	1624.04
641.92	1738.73
642.11	1669.09
642.30	1699.81
642.49	1697.77
642.68	1681.38
642.87	1724.39
643.06	1724.39
643.25	1642.47
643.44	1759.21
643.63	1779.68
643.82	1718.25
644.00	1642.47
644.19	1789.92
644.38	1660.90
644.57	1693.67
644.76	1699.81
644.95	1744.87
645.14	1771.49
645.33	1611.75
645.52	1673.19
645.71	1665.00
645.89	1621.99
646.08	1818.60
646.27	1726.44
646.46	1791.97
646.65	1665.00
646.84	1759.21
647.03	1693.67
647.22	1755.11
647.40	1693.67
647.59	1656.81
647.78	1583.08
647.97	1712.10
648.16	1617.90
648.35	1763.30
648.54	1798.12
648.73	1644.52
648.91	1728.49
649.10	1755.11
649.29	1673.19
649.48	1648.61
649.67	1665.00
649.86	1722.34
650.05	1722.34
650.23	1763.30
650.42	1601.51
650.61	1773.54
650.80	1853.41
650.99	1783.78
651.18	1789.92
651.36	1849.32
651.55	1714.15
651.74	1763.30
651.93	1726.44
652.12	1624.04
652.31	1716.20
652.49	1697.77
652.68	1710.05
652.87	1765.35
653.06	1718.25
653.25	1787.88
653.44	1642.47
653.62	1802.21
653.81	1714.15
654.00	1726.44
654.19	1800.16
654.38	1841.12
654.56	1771.49
654.75	1691.62
654.94	1701.86
655.13	1744.87
655.32	1777.64
655.51	1720.29
655.69	1644.52
655.88	1732.58
656.07	1617.90
656.26	1771.49
656.45	1658.85
656.63	1632.23
656.82	1685.48
657.01	1740.77
657.20	1705.96
657.38	1740.77
657.57	1730.53
657.76	1607.66
657.95	1746.92
658.14	1675.24
658.32	1712.10
658.51	1662.95
658.70	1626.09
658.89	1791.97
659.08	1650.66
659.26	1716.20
659.45	1681.38
659.64	1689.57
659.83	1634.28
660.01	1945.57
660.20	1746.92
660.39	1832.93
660.58	1652.71
660.76	1783.78
660.95	1652.71
661.14	1720.29
661.33	1556.46
661.51	1671.14
661.70	1697.77
661.89	1730.53
662.08	1769.44
662.26	1609.70
662.45	1642.47
662.64	1820.64
662.83	1765.35
663.01	1671.14
663.20	1718.25
663.39	1787.88
663.58	1722.34
663.76	1697.77
663.95	1759.21
664.14	1718.25
664.32	1662.95
664.51	1714.15
664.70	1660.90
664.89	1697.77
665.07	1656.81
665.26	1726.44
665.45	1587.18
665.64	1794.02
665.82	1701.86
666.01	1789.92
666.20	1738.73
666.38	1791.97
666.57	1751.01
666.76	2271.20
666.95	4464.57
667.13	10512.22
667.32	15345.43
667.51	18032.36
667.69	19265.24
667.88	17866.48
668.07	12490.56
668.25	9641.84
668.44	8097.67
668.63	7522.19
668.81	7057.30
669.00	6197.15
669.19	5849.00
669.38	5261.23
669.56	4630.46
669.75	4022.21
669.94	3385.29
670.12	2951.12
670.31	2654.17
670.50	2250.72
670.68	2097.12
670.87	1920.99
671.06	1734.63
671.24	1746.92
671.43	1892.32
671.62	1798.12
671.80	1695.72
671.99	1697.77
672.18	1703.91
672.36	1724.39
672.55	1753.06
672.74	1720.29
672.92	1730.53
673.11	1761.25
673.29	1648.61
673.48	1763.30
673.67	1685.48
673.85	1839.08
674.04	1732.58
674.23	1722.34
674.41	1771.49
674.60	1652.71
674.79	1632.23
674.97	1708.01
675.16	1814.50
675.34	1759.21
675.53	1646.57
675.72	1781.73
675.90	1779.68
676.09	1710.05
676.28	1681.38
676.46	1564.65
676.65	1740.77
676.83	1722.34
677.02	1656.81
677.21	1728.49
677.39	1673.19
677.58	1658.85
677.77	1679.33
677.95	1708.01
678.14	1681.38
678.32	1662.95
678.51	1626.09
678.70	1826.79
678.88	1695.72
679.07	1728.49
679.25	1791.97
679.44	1656.81
679.63	1679.33
679.81	1771.49
680.00	1761.25
680.18	1751.01
680.37	1800.16
680.55	1642.47
680.74	1669.09
680.93	1638.38
681.11	1681.38
681.30	1646.57
681.48	1712.10
681.67	1671.14
681.85	1646.57
682.04	1656.81
682.23	1886.18
682.41	1685.48
682.60	1705.96
682.78	1705.96
682.97	1658.85
683.15	1722.34
683.34	1681.38
683.53	1724.39
683.71	1673.19
683.90	1748.97
684.08	1755.11
684.27	1671.14
684.45	1798.12
684.64	1683.43
684.82	1757.16
685.01	1796.07
685.19	1740.77
685.38	1834.98
685.57	1753.06
685.75	1667.05
685.94	1722.34
686.12	1685.48
686.31	1652.71
686.49	1861.60
686.68	1595.37
686.86	1734.63
687.05	1697.77
687.23	1787.88
687.42	1611.75
687.60	1626.09
687.79	1726.44
687.97	1755.11
688.16	1728.49
688.34	1779.68
688.53	1601.51
688.71	1730.53
688.90	1740.77
689.08	1710.05
689.27	1636.33
689.45	1734.63
689.64	1736.68
689.82	1773.54
690.01	1738.73
690.19	1675.24
690.38	1689.57
690.56	1783.78
690.75	1720.29
690.93	1609.70
691.12	1705.96
691.30	1753.06
691.49	1708.01
691.67	1718.25
691.86	1783.78
692.04	1644.52
692.23	1742.82
692.41	1748.97
692.60	1859.56
692.78	1726.44
692.97	1718.25
693.15	1714.15
693.34	1783.78
693.52	1779.68
693.71	1605.61
693.89	1742.82
694.08	1566.70
694.26	1724.39
694.44	1791.97
694.63	1742.82
694.81	1656.81
695.00	1646.57
695.18	1730.53
695.37	1834.98
695.55	1812.45
695.74	1646.57
695.92	1710.05
696.10	1847.27
696.29	1624.04
696.47	1681.38
696.66	1716.20
696.84	1603.56
697.03	1687.53
697.21	1845.22
697.40	2330.59
697.58	1689.57
697.76	1681.38
697.95	1726.44
698.13	1636.33
698.32	1726.44
698.50	1771.49
698.68	1769.44
698.87	1699.81
699.05	1728.49
699.24	1685.48
699.42	1615.85
699.61	1767.40
699.79	1683.43
699.97	1757.16
700.16	1648.61
700.34	1697.77
700.53	1724.39
700.71	1800.16
700.89	1755.11
701.08	1677.29
701.26	1705.96
701.45	2144.22
701.63	1687.53
701.81	1693.67
702.00	1683.43
702.18	1759.21
702.37	1675.24
702.55	1742.82
702.73	1714.15
702.92	1640.42
703.10	1716.20
703.28	1779.68
703.47	1675.24
703.65	1728.49
703.84	1800.16
704.02	1585.13
704.20	1798.12
704.39	1671.14
704.57	1693.67
704.75	1751.01
704.94	1636.33
705.12	1773.54
705.30	1746.92
705.49	2322.40
705.67	4310.97
705.86	9424.75
706.04	12502.85
706.22	14657.31
706.41	15535.89
706.59	14178.09
706.77	9584.49
706.96	7651.21
707.14	6678.43
707.32	6072.23
707.51	5724.07
707.69	5148.59
707.87	4253.63
708.06	3577.80
708.24	3018.71
708.42	2467.80
708.61	2299.87
708.79	1853.41
708.97	1900.52
709.16	1783.78
709.34	1777.64
709.52	1705.96
709.71	1660.90
709.89	1771.49
710.07	1689.57
710.26	1673.19
710.44	1665.00
710.62	1669.09
710.80	1687.53
710.99	1779.68
711.17	1787.88
711.35	1578.98
711.54	1716.20
711.72	1785.83
711.90	1708.01
712.09	1732.58
712.27	1724.39
712.45	1794.02
712.63	1656.81
712.82	1728.49
713.00	1683.43
713.18	1781.73
713.37	1771.49
713.55	1699.81
713.73	1761.25
713.91	1734.63
714.10	1695.72
714.28	1699.81
714.46	1642.47
714.65	1689.57
714.83	1687.53
715.01	1654.76
715.19	1748.97
715.38	1667.05
715.56	1742.82
715.74	1613.80
715.92	1763.30
716.11	1789.92
716.29	1624.04
716.47	1673.19
716.65	1591.27
716.84	1597.42
717.02	1761.25
717.20	1636.33
717.38	1595.37
717.57	1722.34
717.75	1734.63
717.93	1648.61
718.11	1681.38
718.30	1646.57
718.48	1736.68
718.66	1722.34
718.84	1724.39
719.03	1708.01
719.21	1632.23
719.39	1820.64
719.57	1728.49
719.75	1824.74
719.94	1648.61
720.12	1697.77
720.30	1675.24
720.48	1775.59
720.67	1683.43
720.85	1597.42
721.03	1718.25
721.21	1652.71
721.39	1839.08
721.58	1710.05
721.76	1652.71
721.94	1755.11
722.12	1730.53
722.30	1800.16
722.49	1679.33
722.67	1671.14
722.85	1705.96
723.03	1638.38
723.21	1656.81
723.40	1736.68
723.58	1665.00
723.76	1695.72
723.94	1728.49
724.12	1726.44
724.30	1865.70
724.49	1794.02
724.67	1624.04
724.85	1767.40
725.03	1634.28
725.21	1769.44
725.40	1779.68
725.58	1650.66
725.76	1722.34
725.94	1755.11
726.12	1626.09
726.30	1677.29
726.49	1748.97
726.67	1740.77
726.85	1660.90
727.03	1699.81
727.21	2123.74
727.39	2963.41
727.57	3710.92
727.76	4151.23
727.94	4483.00
728.12	4446.14
728.30	3618.76
728.48	3006.42
728.66	2832.34
728.84	2441.18
729.03	2326.49
729.21	2238.43
729.39	2013.15
729.57	1820.64
729.75	1783.78
729.93	1898.47
730.11	1714.15
730.30	1732.58
730.48	1746.92
730.66	1871.84
730.84	1681.38
731.02	1677.29
731.20	1728.49
731.38	1677.29
731.56	1681.38
731.74	1656.81
731.93	1763.30
732.11	1744.87
732.29	1679.33
732.47	1685.48
732.65	1722.34
732.83	1767.40
733.01	1703.91
733.19	1658.85
733.37	1714.15
733.56	1695.72
733.74	1718.25
733.92	1791.97
734.10	1658.85
734.28	1708.01
734.46	1568.74
734.64	1615.85
734.82	1648.61
735.00	1697.77
735.18	1640.42
735.36	1724.39
735.54	1619.94
735.73	1728.49
735.91	1763.30
736.09	1794.02
736.27	1689.57
736.45	1810.40
736.63	1656.81
736.81	1695.72
736.99	1853.41
737.17	1708.01
737.35	1675.24
737.53	1728.49
737.71	1703.91
737.89	1738.73
738.07	1683.43
738.25	1652.71
738.43	1660.90
738.61	1722.34
738.80	1648.61
738.98	1538.02
739.16	1671.14
739.34	1677.29
739.52	1751.01
739.70	1681.38
739.88	1748.97
740.06	1751.01
740.24	1716.20
740.42	1724.39
740.60	1628.14
740.78	1665.00
740.96	1613.80
741.14	1628.14
741.32	1703.91
741.50	1597.42
741.68	1867.75
741.86	1800.16
742.04	1619.94
742.22	1624.04
742.40	1716.20
742.58	1730.53
742.76	1757.16
742.94	1685.48
743.12	1615.85
743.30	1761.25
743.48	1644.52
743.66	1665.00
743.84	1748.97
744.02	1685.48
744.20	1712.10
744.38	1646.57
744.56	1581.03
744.74	1814.50
744.92	1736.68
745.10	1767.40
745.28	1697.77
745.46	1759.21
745.64	1554.41
745.82	1751.01
746.00	1759.21
746.18	1708.01
746.36	1648.61
746.54	1742.82
746.72	1677.29
746.90	1681.38
747.08	1763.30
747.26	1615.85
747.44	1785.83
747.62	1710.05
747.80	1728.49
747.98	1724.39
748.15	1650.66
748.33	1800.16
748.51	1691.62
748.69	1722.34
748.87	1675.24
749.05	1673.19
749.23	1679.33
749.41	1748.97
749.59	1685.48
749.77	1814.50
749.95	1787.88
750.13	1662.95
750.31	1693.67
750.49	1654.76
750.67	1734.63
750.85	1759.21
751.03	1734.63
751.20	1742.82
751.38	1705.96
751.56	1673.19
751.74	1724.39
751.92	1593.32
752.10	1597.42
752.28	1773.54
752.46	1626.09
752.64	1712.10
752.82	1699.81
753.00	1712.10
753.18	1605.61
753.35	1628.14
753.53	1697.77
753.71	1732.58
753.89	1699.81
754.07	1697.77
754.25	1718.25
754.43	1779.68
754.61	1624.04
754.79	1849.32
754.97	1675.24
755.14	1781.73
755.32	1671.14
755.50	1769.44
755.68	1730.53
755.86	1609.70
756.04	1617.90
756.22	1593.32
756.40	1718.25
756.57	1798.12
756.75	1685.48
756.93	1761.25
757.11	1822.69
757.29	1646.57
757.47	1636.33
757.65	1603.56
757.82	1619.94
758.00	1634.28
758.18	1673.19
758.36	1667.05
758.54	1726.44
758.72	1613.80
758.90	1751.01
759.07	1798.12
759.25	1683.43
759.43	1748.97
759.61	1654.76
759.79	2238.43
759.97	1597.42
760.15	1718.25
760.32	1705.96
760.50	1722.34
760.68	1761.25
760.86	1660.90
761.04	1775.59
761.22	1695.72
761.39	1724.39
761.57	1763.30
761.75	1648.61
761.93	1779.68
762.11	1705.96
762.28	1685.48
762.46	1710.05
762.64	1791.97
762.82	1677.29
763.00	1585.13
763.18	1834.98
763.35	1699.81
763.53	1689.57
763.71	1673.19
763.89	1736.68
764.07	1746.92
764.24	1708.01
764.42	1667.05
764.60	1665.00
764.78	1646.57
764.96	1746.92
765.13	1804.26
765.31	1718.25
765.49	1773.54
765.67	1636.33
765.84	1626.09
766.02	1650.66
766.20	1632.23
766.38	1796.07
766.56	1820.64
766.73	1728.49
766.91	1644.52
767.09	1679.33
767.27	1724.39
767.44	1652.71
767.62	1765.35
767.80	1662.95
767.98	1724.39
768.15	1708.01
768.33	1691.62
768.51	1681.38
768.69	1757.16
768.87	1714.15
769.04	1716.20
769.22	1798.12
769.40	1777.64
769.58	1871.84
769.75	1667.05
769.93	1800.16
770.11	1716.20
770.28	1658.85
770.46	1660.90
770.64	1705.96
770.82	1658.85
770.99	1599.46
771.17	1742.82
771.35	1718.25
771.53	1728.49
771.70	1640.42
771.88	1812.45
772.06	1708.01
772.23	1708.01
772.41	1763.30
772.59	1681.38
772.77	1656.81
772.94	1783.78
773.12	1755.11
773.30	1722.34
773.47	1689.57
773.65	1624.04
773.83	1781.73
774.01	1744.87
774.18	1656.81
774.36	1652.71
774.54	1624.04
774.71	1677.29
774.89	1634.28
775.07	1613.80
775.24	1660.90
775.42	1693.67
775.60	1816.55
775.78	1687.53
775.95	1640.42
776.13	1628.14
776.31	1662.95
776.48	1744.87
776.66	1853.41
776.84	1632.23
777.01	1615.85
777.19	1677.29
777.37	1695.72
777.54	1769.44
777.72	1787.88
777.90	1726.44
778.07	1689.57
778.25	1847.27
778.43	1767.40
778.60	1636.33
778.78	1753.06
778.96	1734.63
779.13	1646.57
779.31	1746.92
779.49	1677.29
779.66	1691.62
779.84	1665.00
780.01	1667.05
780.19	1640.42
780.37	1746.92
780.54	1697.77
780.72	1656.81
780.90	1724.39
781.07	1673.19
781.25	1656.81
781.43	1679.33
781.60	1609.70
781.78	1796.07
781.95	1624.04
782.13	1712.10
782.31	1757.16
782.48	1597.42
782.66	1673.19
782.83	1898.47
783.01	1746.92
783.19	1742.82
783.36	1712.10
783.54	1597.42
783.72	1763.30
783.89	1665.00
784.07	1757.16
784.24	1742.82
784.42	1837.03
784.60	1708.01
784.77	1751.01
784.95	1525.74
785.12	1665.00
785.30	1650.66
785.47	1609.70
785.65	1619.94
785.83	1738.73
786.00	1611.75
786.18	1742.82
786.35	1662.95
786.53	1708.01
786.71	1740.77
786.88	1722.34
787.06	1726.44
787.23	1748.97
787.41	1665.00
787.58	1718.25
787.76	1615.85
787.94	1695.72
788.11	1658.85
788.29	1570.79
788.46	1693.67
788.64	1642.47
788.81	1679.33
788.99	1605.61
789.16	1624.04
789.34	1699.81
789.52	1667.05
789.69	1607.66
789.87	1607.66
790.04	1667.05
790.22	1726.44
790.39	1822.69
790.57	1587.18
790.74	1660.90
790.92	1781.73
791.09	1564.65
791.27	1738.73
791.44	1744.87
791.62	1740.77
791.79	1794.02
791.97	1738.73
792.15	1814.50
792.32	1730.53
792.50	1755.11
792.67	1736.68
792.85	1796.07
793.02	1718.25
793.20	1640.42
793.37	1650.66
793.55	1697.77
793.72	1632.23
793.90	1746.92
794.07	1689.57
794.25	1621.99
794.42	1644.52
794.60	1658.85
794.77	1720.29
794.95	1732.58
795.12	1746.92
795.30	1673.19
795.47	1619.94
795.65	1859.56
795.82	1834.98
796.00	1656.81
796.17	1722.34
796.34	1615.85
796.52	1726.44
796.69	1701.86
796.87	1761.25
797.04	1662.95
797.22	1746.92
797.39	1699.81
797.57	1693.67
797.74	1703.91
797.92	1701.86
798.09	1671.14
798.27	1814.50
798.44	1738.73
798.62	1597.42
798.79	1701.86
798.96	1767.40
799.14	1626.09
799.31	1849.32
799.49	1703.91
799.66	1710.05
799.84	1724.39
800.01	1595.37
800.19	1677.29
800.36	1607.66
800.53	1687.53
800.71	1693.67
800.88	1781.73
801.06	1642.47
801.23	1615.85
801.41	1632.23
801.58	1654.76
801.75	1648.61
801.93	1671.14
802.10	1763.30
802.28	1691.62
802.45	1611.75
802.63	1660.90
802.80	1796.07
802.97	1691.62
803.15	1767.40
803.32	1742.82
803.50	1646.57
803.67	1642.47
803.84	1632.23
804.02	1646.57
804.19	1650.66
804.37	1556.46
804.54	1603.56
804.71	1722.34
804.89	1683.43
805.06	1681.38
805.24	1624.04
805.41	1634.28
805.58	1650.66
805.76	1771.49
805.93	1728.49
806.10	1843.17
806.28	1673.19
806.45	1689.57
806.63	1712.10
806.80	1689.57
806.97	1771.49
807.15	1712.10
807.32	1738.73
807.49	1636.33
807.67	1632.23
807.84	1705.96
808.01	1599.46
808.19	1796.07
808.36	1734.63
808.54	1699.81
808.71	1652.71
808.88	1742.82
809.06	1744.87
809.23	1701.86
809.40	1712.10
809.58	1722.34
809.75	1755.11
809.92	1576.94
810.10	1769.44
810.27	1703.91
810.44	1697.77
810.62	1712.10
810.79	1744.87
810.96	1632.23
811.14	1687.53
811.31	1720.29
811.48	1746.92
811.66	1683.43
811.83	1689.57
812.00	1691.62
812.18	1746.92
812.35	1814.50
812.52	1646.57
812.69	1699.81
812.87	1675.24
813.04	1656.81
813.21	1720.29
813.39	1642.47
813.56	1714.15
813.73	1759.21
813.91	1607.66
814.08	1693.67
814.25	1683.43
814.42	1632.23
814.60	1695.72
814.77	1691.62
814.94	1673.19
815.12	1665.00
815.29	1769.44
815.46	1624.04
815.63	1646.57
815.81	1703.91
815.98	1650.66
816.15	1742.82
816.33	1763.30
816.50	1685.48
816.67	1632.23
816.84	1710.05
817.02	1634.28
817.19	1654.76
817.36	1708.01
817.53	1761.25
817.71	1671.14
817.88	1746.92
818.05	1746.92
818.22	1669.09
818.40	1732.58
818.57	1714.15
818.74	1630.18
818.91	1679.33
819.09	1724.39
819.26	1787.88
819.43	1734.63
819.60	1624.04
819.78	1730.53
819.95	1746.92
820.12	1597.42
820.29	1796.07
820.47	1738.73
820.64	1699.81
820.81	1658.85
820.98	1599.46
821.15	1710.05
821.33	1753.06
821.50	1607.66
821.67	1673.19
821.84	1679.33
822.02	1718.25
822.19	1726.44
822.36	1683.43
822.53	1730.53
822.70	1615.85
822.88	1656.81
823.05	1777.64
823.22	1699.81
823.39	1734.63
823.56	1683.43
823.74	1832.93
823.91	1609.70
824.08	1650.66
824.25	1687.53
824.42	1777.64
824.60	1636.33
824.77	1730.53
824.94	1710.05
825.11	1683.43
825.28	1624.04
825.45	1701.86
825.63	1677.29
825.80	1611.75
825.97	1757.16
826.14	1716.20
826.31	1609.70
826.48	1705.96
826.66	1593.32
826.83	1636.33
827.00	1759.21
827.17	1689.57
827.34	1701.86
827.51	1712.10
827.69	1724.39
827.86	1583.08
828.03	1771.49
828.20	1755.11
828.37	1611.75
828.54	1708.01
828.71	1636.33
828.89	1773.54
829.06	1687.53
829.23	1753.06
829.40	1650.66
829.57	1662.95
829.74	1759.21
829.91	1585.13
830.09	1654.76
830.26	1765.35
830.43	1724.39
830.60	1734.63
830.77	1748.97
830.94	1693.67
831.11	1738.73
831.28	1787.88
831.46	1708.01
831.63	1693.67
831.80	1742.82
831.97	1695.72
832.14	1667.05
832.31	1755.11
832.48	1640.42
832.65	1794.02
832.82	1642.47
832.99	1683.43
833.17	1677.29
833.34	1798.12
833.51	1767.40
833.68	1581.03
833.85	1787.88
834.02	1632.23
834.19	1626.09
834.36	1626.09
834.53	1724.39
834.70	1789.92
834.87	1722.34
835.04	1693.67
835.22	1677.29
835.39	1642.47
835.56	1570.79
835.73	1644.52
835.90	1796.07
836.07	1675.24
836.24	1724.39
836.41	1648.61
836.58	1615.85
836.75	1718.25
836.92	1662.95
837.09	1665.00
837.26	1775.59
837.43	1783.78
837.60	1763.30
837.77	1732.58
837.94	1708.01
838.12	1777.64
838.29	1714.15
838.46	1632.23
838.63	1671.14
838.80	1798.12
838.97	1773.54
839.14	1714.15
839.31	1679.33
839.48	1732.58
839.65	1699.81
839.82	1736.68
839.99	1701.86
840.16	1669.09
840.33	1658.85
840.50	1665.00
840.67	1601.51
840.84	1587.18
841.01	1656.81
841.18	1642.47
841.35	1710.05
841.52	1738.73
841.69	1857.51
841.86	1718.25
842.03	1742.82
842.20	1738.73
842.37	1634.28
842.54	1722.34
842.71	1773.54
842.88	1601.51
843.05	1804.26
843.22	1648.61
843.39	1757.16
843.56	1695.72
843.73	1632.23
843.90	1769.44
844.07	1628.14
844.24	1673.19
844.41	1714.15
844.58	1658.85
844.75	1611.75
844.92	1718.25
845.09	1746.92
845.26	1632.23
845.43	1679.33
845.60	1638.38
845.77	1787.88
845.94	1665.00
846.10	1714.15
846.27	1658.85
846.44	1656.81
846.61	1615.85
846.78	1708.01
846.95	1728.49
847.12	1677.29
847.29	1667.05
847.46	1732.58
847.63	1755.11
847.80	1615.85
847.97	1656.81
848.14	1742.82
848.31	1675.24
848.48	1632.23
848.65	1697.77
848.82	1650.66
848.98	1816.55
849.15	1722.34
849.32	1728.49
849.49	1789.92
849.66	1738.73
849.83	1705.96
850.00	1607.66
850.17	1753.06
850.34	1681.38
850.51	1671.14
850.68	1654.76
850.85	1716.20
851.01	1757.16
851.18	1732.58
851.35	1693.67
851.52	1701.86
851.69	1761.25
851.86	1642.47
852.03	1708.01
852.20	1746.92
852.37	1681.38
852.53	1609.70
852.70	1675.24
852.87	1734.63
853.04	1746.92
853.21	1683.43
853.38	1767.40
853.55	1859.56
853.72	1763.30
853.89	1603.56
854.05	1607.66
854.22	1671.14
854.39	1718.25
854.56	1628.14
854.73	1738.73
854.90	1648.61
855.07	1658.85
855.23	1708.01
855.40	1689.57
855.57	1636.33
855.74	1581.03
855.91	1837.03
856.08	1603.56
856.25	1624.04
856.41	1712.10
856.58	1689.57
856.75	1697.77
856.92	1624.04
857.09	1775.59
857.26	1581.03
857.42	1683.43
857.59	1730.53
857.76	1652.71
857.93	1687.53
858.10	1718.25
858.27	1632.23
858.43	1650.66
858.60	1662.95
858.77	1576.94
858.94	1728.49
859.11	1787.88
859.27	1660.90
859.44	1642.47
859.61	1728.49
859.78	1751.01
859.95	1689.57
860.12	1689.57
860.28	1816.55
860.45	1791.97
860.62	1705.96
860.79	1699.81
860.95	1644.52
861.12	1673.19
861.29	1572.84
861.46	1607.66
861.63	1734.63
861.79	1730.53
861.96	1675.24
862.13	1683.43
862.30	1757.16
862.47	1632.23
862.63	1714.15
862.80	1681.38
862.97	1734.63
863.14	1693.67
863.30	1656.81
863.47	1712.10
863.64	1826.79
863.81	1583.08
863.97	1703.91
864.14	1685.48
864.31	1724.39
864.48	1732.58
864.65	1716.20
864.81	1775.59
864.98	1708.01
865.15	1736.68
865.32	1714.15
865.48	1691.62
865.65	1783.78
865.82	1718.25
865.98	1705.96
866.15	1714.15
866.32	1738.73
866.49	1630.18
866.65	1808.36
866.82	1578.98
866.99	1615.85
867.16	1656.81
867.32	1718.25
867.49	1691.62
867.66	1630.18
867.83	1615.85
867.99	1566.70
868.16	1746.92
868.33	1615.85
868.49	1660.90
868.66	1638.38
868.83	1773.54
868.99	1759.21
869.16	1708.01
869.33	1746.92
869.50	1796.07
869.66	1708.01
869.83	1726.44
870.00	1724.39
870.16	1738.73
870.33	1634.28
870.50	1667.05
870.66	1757.16
870.83	1828.84
871.00	1712.10
871.17	1724.39
871.33	1728.49
871.50	1718.25
871.67	1769.44
871.83	1607.66
872.00	1785.83
872.17	1679.33
872.33	1798.12
872.50	1781.73
872.67	1621.99
872.83	1738.73
873.00	1689.57
873.17	1738.73
873.33	1849.32
873.50	1701.86
873.67	1595.37
873.83	1660.90
874.00	1660.90
874.16	1765.35
874.33	1695.72
874.50	1626.09
874.66	1734.63
874.83	1712.10
875.00	1826.79
875.16	1757.16
875.33	1746.92
875.50	1611.75
875.66	1658.85
875.83	1673.19
875.99	1728.49
876.16	1724.39
876.33	1675.24
876.49	1636.33
876.66	1763.30
876.83	1658.85
876.99	1576.94
877.16	1660.90
877.32	1681.38
877.49	1689.57
877.66	1658.85
877.82	1757.16
877.99	1636.33
878.15	1714.15
878.32	1742.82
878.49	1759.21
878.65	1624.04
878.82	1738.73
878.98	1654.76
879.15	1820.64
879.32	1771.49
879.48	1673.19
879.65	1677.29
879.81	1685.48
879.98	1757.16
880.15	1714.15
880.31	1759.21
880.48	1583.08
880.64	1810.40
880.81	1722.34
880.97	1787.88
881.14	1781.73
881.31	1665.00
881.47	1837.03
881.64	1642.47
881.80	1617.90
881.97	1761.25
882.13	1697.77
882.30	1644.52
882.47	1687.53
882.63	1615.85
882.80	1679.33
882.96	1640.42
883.13	1787.88
883.29	1677.29
883.46	1701.86
883.62	1791.97
883.79	1724.39
883.95	1658.85
884.12	1652.71
884.29	1773.54
884.45	1660.90
884.62	1785.83
884.78	1658.85
884.95	1761.25
885.11	1648.61
885.28	1734.63
885.44	1667.05
885.61	1767.40
885.77	1781.73
885.94	1794.02
886.10	1685.48
886.27	1697.77
886.43	1765.35
886.60	1773.54
886.76	1712.10
886.93	1595.37
887.09	1681.38
887.26	1667.05
887.42	1738.73
887.59	1640.42
887.75	1830.88
887.92	1886.18
888.08	1751.01
888.25	1738.73
888.41	1759.21
888.58	1691.62
888.74	1636.33
888.91	1634.28
>>>>>End Processed Spectral Data<<<<<
