SpectraSuite Data File
++++++++++++++++++++++++++++++++++++
Date: Mon Jun 06 13:38:37 CEST 2016
User: root
Dark Spectrum Present: No
Reference Spectrum Present: No
Number of Sampled Component Spectra: 1
Spectrometers: USB4C02835
Integration Time (usec): 100000 (USB4C02835)
Spectra Averaged: 1 (USB4C02835)
Boxcar Smoothing: 0 (USB4C02835)
Correct for Electrical Dark: No (USB4C02835)
Strobe/Lamp Enabled: No (USB4C02835)
Correct for Detector Non-linearity: No (USB4C02835)
Correct for Stray Light: No (USB4C02835)
Number of Pixels in Processed Spectrum: 3648
>>>>>Begin Processed Spectral Data<<<<<
177.47	1511.40
177.69	1511.40
177.91	1511.40
178.13	1515.50
178.36	1441.77
178.58	1619.94
178.80	1648.61
179.02	1615.85
179.24	1648.61
179.46	1701.86
179.68	1763.30
179.90	1656.81
180.13	1714.15
180.35	1708.01
180.57	1681.38
180.79	1787.88
181.01	1701.86
181.23	1710.05
181.45	1718.25
181.67	1787.88
181.90	1691.62
182.12	1710.05
182.34	1669.09
182.56	1748.97
182.78	1724.39
183.00	1724.39
183.22	1740.77
183.44	1593.32
183.66	1857.51
183.89	1779.68
184.11	1685.48
184.33	1841.12
184.55	1718.25
184.77	1642.47
184.99	1705.96
185.21	1705.96
185.43	1863.65
185.65	1626.09
185.87	1742.82
186.10	1845.22
186.32	1794.02
186.54	1681.38
186.76	1734.63
186.98	1843.17
187.20	1748.97
187.42	1710.05
187.64	1669.09
187.86	1748.97
188.08	1720.29
188.30	1683.43
188.52	1695.72
188.75	1789.92
188.97	1751.01
189.19	1644.52
189.41	1693.67
189.63	1712.10
189.85	1681.38
190.07	1658.85
190.29	1597.42
190.51	1730.53
190.73	1560.55
190.95	1734.63
191.17	1726.44
191.39	1599.46
191.61	1660.90
191.84	1638.38
192.06	1689.57
192.28	1599.46
192.50	1847.27
192.72	1769.44
192.94	1693.67
193.16	1736.68
193.38	1783.78
193.60	1652.71
193.82	1710.05
194.04	1796.07
194.26	1681.38
194.48	1718.25
194.70	1736.68
194.92	1630.18
195.14	1732.58
195.36	1732.58
195.58	1738.73
195.80	1740.77
196.02	1619.94
196.24	1675.24
196.46	1675.24
196.69	1652.71
196.91	1855.46
197.13	1601.51
197.35	1658.85
197.57	1761.25
197.79	1751.01
198.01	1730.53
198.23	1804.26
198.45	1703.91
198.67	1640.42
198.89	1632.23
199.11	1671.14
199.33	1685.48
199.55	1585.13
199.77	1714.15
199.99	1769.44
200.21	1628.14
200.43	1734.63
200.65	1624.04
200.87	1599.46
201.09	1691.62
201.31	1607.66
201.53	1732.58
201.75	1710.05
201.97	1810.40
202.19	1681.38
202.41	1781.73
202.63	1794.02
202.85	1781.73
203.07	1650.66
203.29	1734.63
203.51	1675.24
203.73	1599.46
203.95	1869.80
204.17	1751.01
204.39	1673.19
204.61	1738.73
204.83	1677.29
205.05	1761.25
205.27	1730.53
205.49	1804.26
205.71	1720.29
205.93	1626.09
206.15	1656.81
206.37	1667.05
206.59	1638.38
206.81	1642.47
207.03	1691.62
207.25	1617.90
207.47	1697.77
207.69	1648.61
207.91	1796.07
208.13	1781.73
208.34	1632.23
208.56	1619.94
208.78	1775.59
209.00	1681.38
209.22	1738.73
209.44	1644.52
209.66	1587.18
209.88	1685.48
210.10	1703.91
210.32	1712.10
210.54	1757.16
210.76	1638.38
210.98	1753.06
211.20	1581.03
211.42	1677.29
211.64	1736.68
211.86	1693.67
212.08	1701.86
212.30	1654.76
212.52	1755.11
212.74	1716.20
212.96	1748.97
213.17	1718.25
213.39	1748.97
213.61	1667.05
213.83	1605.61
214.05	1671.14
214.27	1738.73
214.49	1650.66
214.71	1712.10
214.93	1751.01
215.15	1781.73
215.37	1697.77
215.59	1603.56
215.81	1687.53
216.03	1798.12
216.24	1654.76
216.46	1708.01
216.68	1640.42
216.90	1730.53
217.12	1732.58
217.34	1716.20
217.56	1763.30
217.78	1771.49
218.00	1689.57
218.22	1669.09
218.44	1779.68
218.66	1669.09
218.87	1771.49
219.09	1693.67
219.31	1771.49
219.53	1658.85
219.75	1650.66
219.97	1646.57
220.19	1656.81
220.41	1673.19
220.63	1796.07
220.85	1714.15
221.06	1585.13
221.28	1712.10
221.50	1777.64
221.72	1658.85
221.94	1714.15
222.16	1681.38
222.38	1705.96
222.60	1755.11
222.82	1671.14
223.03	1740.77
223.25	1603.56
223.47	1726.44
223.69	1796.07
223.91	1775.59
224.13	1673.19
224.35	1732.58
224.57	1787.88
224.78	1796.07
225.00	1630.18
225.22	1671.14
225.44	1722.34
225.66	1673.19
225.88	1763.30
226.10	1787.88
226.32	1742.82
226.53	1765.35
226.75	1683.43
226.97	1638.38
227.19	1673.19
227.41	1640.42
227.63	1683.43
227.85	1576.94
228.06	1708.01
228.28	1697.77
228.50	1748.97
228.72	1687.53
228.94	1607.66
229.16	1648.61
229.37	1695.72
229.59	1748.97
229.81	1853.41
230.03	1587.18
230.25	1617.90
230.47	1613.80
230.69	1558.50
230.90	1777.64
231.12	1583.08
231.34	1726.44
231.56	1769.44
231.78	1665.00
232.00	1665.00
232.21	1728.49
232.43	1609.70
232.65	1605.61
232.87	1767.40
233.09	1646.57
233.30	1652.71
233.52	1658.85
233.74	1673.19
233.96	1650.66
234.18	1660.90
234.40	1665.00
234.61	1822.69
234.83	1626.09
235.05	1535.98
235.27	1781.73
235.49	1877.99
235.70	1677.29
235.92	1738.73
236.14	1718.25
236.36	1906.66
236.58	1681.38
236.79	1884.13
237.01	1615.85
237.23	1652.71
237.45	1775.59
237.67	1638.38
237.88	1728.49
238.10	1732.58
238.32	1597.42
238.54	1705.96
238.76	1701.86
238.97	1591.27
239.19	1716.20
239.41	1771.49
239.63	1765.35
239.85	1701.86
240.06	1742.82
240.28	1675.24
240.50	1693.67
240.72	1724.39
240.93	1615.85
241.15	1804.26
241.37	1779.68
241.59	1810.40
241.81	1660.90
242.02	1697.77
242.24	1757.16
242.46	1726.44
242.68	1652.71
242.89	1730.53
243.11	1748.97
243.33	1769.44
243.55	1722.34
243.76	1789.92
243.98	1699.81
244.20	1636.33
244.42	1687.53
244.64	1652.71
244.85	1617.90
245.07	1630.18
245.29	1763.30
245.51	1665.00
245.72	1708.01
245.94	1710.05
246.16	1763.30
246.38	1759.21
246.59	1624.04
246.81	1576.94
247.03	1679.33
247.24	1619.94
247.46	1650.66
247.68	1767.40
247.90	1681.38
248.11	1685.48
248.33	1716.20
248.55	1732.58
248.77	1761.25
248.98	1656.81
249.20	1708.01
249.42	1712.10
249.64	1757.16
249.85	1656.81
250.07	1576.94
250.29	1718.25
250.50	1751.01
250.72	1611.75
250.94	1644.52
251.16	1834.98
251.37	1744.87
251.59	1757.16
251.81	1728.49
252.02	1787.88
252.24	1630.18
252.46	1777.64
252.68	1601.51
252.89	1656.81
253.11	1576.94
253.33	1787.88
253.54	1734.63
253.76	1675.24
253.98	1654.76
254.20	1730.53
254.41	1634.28
254.63	1724.39
254.85	1755.11
255.06	1576.94
255.28	1644.52
255.50	1689.57
255.71	1730.53
255.93	1570.79
256.15	1708.01
256.36	1777.64
256.58	1689.57
256.80	1763.30
257.02	1679.33
257.23	1634.28
257.45	1621.99
257.67	1746.92
257.88	1687.53
258.10	1734.63
258.32	1738.73
258.53	1644.52
258.75	1759.21
258.97	1632.23
259.18	1736.68
259.40	1677.29
259.62	1759.21
259.83	1779.68
260.05	1724.39
260.27	1964.00
260.48	1738.73
260.70	1615.85
260.92	1714.15
261.13	1718.25
261.35	1728.49
261.57	1755.11
261.78	1556.46
262.00	1632.23
262.22	1716.20
262.43	1648.61
262.65	1677.29
262.86	1687.53
263.08	1826.79
263.30	1757.16
263.51	1628.14
263.73	1624.04
263.95	1796.07
264.16	1685.48
264.38	1693.67
264.60	1830.88
264.81	1587.18
265.03	1744.87
265.25	1759.21
265.46	1644.52
265.68	1705.96
265.89	1658.85
266.11	1636.33
266.33	1691.62
266.54	1765.35
266.76	1716.20
266.98	1736.68
267.19	1769.44
267.41	1720.29
267.62	1751.01
267.84	1554.41
268.06	1675.24
268.27	1773.54
268.49	1771.49
268.70	1781.73
268.92	1667.05
269.14	1654.76
269.35	1636.33
269.57	1691.62
269.79	1738.73
270.00	1662.95
270.22	1773.54
270.43	1650.66
270.65	1562.60
270.87	1644.52
271.08	1703.91
271.30	1701.86
271.51	1634.28
271.73	1693.67
271.95	1755.11
272.16	1675.24
272.38	1697.77
272.59	1679.33
272.81	1759.21
273.02	1656.81
273.24	1722.34
273.46	1757.16
273.67	1648.61
273.89	1691.62
274.10	1710.05
274.32	1673.19
274.54	1753.06
274.75	1650.66
274.97	1724.39
275.18	1755.11
275.40	1701.86
275.61	1693.67
275.83	1722.34
276.05	1665.00
276.26	1654.76
276.48	1691.62
276.69	1687.53
276.91	1671.14
277.12	1701.86
277.34	1718.25
277.55	1746.92
277.77	1720.29
277.99	1669.09
278.20	1628.14
278.42	1679.33
278.63	1591.27
278.85	1671.14
279.06	1669.09
279.28	1734.63
279.49	1708.01
279.71	1785.83
279.93	1660.90
280.14	1675.24
280.36	1578.98
280.57	1683.43
280.79	1712.10
281.00	1658.85
281.22	1712.10
281.43	1787.88
281.65	1603.56
281.86	1705.96
282.08	1753.06
282.29	1804.26
282.51	1648.61
282.73	1644.52
282.94	1607.66
283.16	1779.68
283.37	1812.45
283.59	1693.67
283.80	1742.82
284.02	1724.39
284.23	1695.72
284.45	1665.00
284.66	1646.57
284.88	1701.86
285.09	1701.86
285.31	1771.49
285.52	1705.96
285.74	1578.98
285.95	1714.15
286.17	1701.86
286.38	1712.10
286.60	1699.81
286.81	1705.96
287.03	1701.86
287.24	1728.49
287.46	1734.63
287.67	1570.79
287.89	1839.08
288.10	1724.39
288.32	1671.14
288.53	1775.59
288.75	1708.01
288.96	1714.15
289.18	1689.57
289.39	1716.20
289.61	1755.11
289.82	1822.69
290.04	1837.03
290.25	1619.94
290.47	1691.62
290.68	1624.04
290.90	1812.45
291.11	1626.09
291.33	1763.30
291.54	1716.20
291.76	1699.81
291.97	1769.44
292.18	1689.57
292.40	1665.00
292.61	1570.79
292.83	1822.69
293.04	1679.33
293.26	1685.48
293.47	1667.05
293.69	1679.33
293.90	1671.14
294.12	1783.78
294.33	1638.38
294.55	1669.09
294.76	1687.53
294.97	1773.54
295.19	1816.55
295.40	1677.29
295.62	1769.44
295.83	1734.63
296.05	1679.33
296.26	1714.15
296.48	1646.57
296.69	1738.73
296.90	1705.96
297.12	1724.39
297.33	1730.53
297.55	1662.95
297.76	1710.05
297.98	1794.02
298.19	1710.05
298.41	1656.81
298.62	1691.62
298.83	1775.59
299.05	1712.10
299.26	1677.29
299.48	1714.15
299.69	1730.53
299.90	1675.24
300.12	1603.56
300.33	1681.38
300.55	1642.47
300.76	1765.35
300.98	1624.04
301.19	1695.72
301.40	1710.05
301.62	1632.23
301.83	1744.87
302.05	1695.72
302.26	1669.09
302.47	1691.62
302.69	1638.38
302.90	1714.15
303.12	1650.66
303.33	1744.87
303.54	1820.64
303.76	1701.86
303.97	1660.90
304.19	1796.07
304.40	1634.28
304.61	1683.43
304.83	1841.12
305.04	1761.25
305.26	1722.34
305.47	1601.51
305.68	1740.77
305.90	1656.81
306.11	1753.06
306.33	1646.57
306.54	1683.43
306.75	1578.98
306.97	1667.05
307.18	1648.61
307.39	1585.13
307.61	1732.58
307.82	1710.05
308.04	1716.20
308.25	1593.32
308.46	1748.97
308.68	1654.76
308.89	1722.34
309.10	1800.16
309.32	1689.57
309.53	1734.63
309.74	1757.16
309.96	1689.57
310.17	1822.69
310.39	1619.94
310.60	1705.96
310.81	1695.72
311.03	1683.43
311.24	1728.49
311.45	1767.40
311.67	1855.46
311.88	1736.68
312.09	1712.10
312.31	1697.77
312.52	1720.29
312.73	1691.62
312.95	1628.14
313.16	1626.09
313.37	1736.68
313.59	1638.38
313.80	1724.39
314.01	1777.64
314.23	1748.97
314.44	1683.43
314.65	1677.29
314.87	1695.72
315.08	1673.19
315.29	1636.33
315.51	1652.71
315.72	1683.43
315.93	1783.78
316.15	1726.44
316.36	1617.90
316.57	1738.73
316.79	1765.35
317.00	1621.99
317.21	1685.48
317.43	1636.33
317.64	1650.66
317.85	1695.72
318.07	1667.05
318.28	1683.43
318.49	1804.26
318.70	1880.04
318.92	1816.55
319.13	1787.88
319.34	1859.56
319.56	1810.40
319.77	1763.30
319.98	1757.16
320.20	1763.30
320.41	1753.06
320.62	1705.96
320.83	1710.05
321.05	1832.93
321.26	1691.62
321.47	1673.19
321.69	1710.05
321.90	1697.77
322.11	1716.20
322.32	1746.92
322.54	1763.30
322.75	1652.71
322.96	1800.16
323.18	1652.71
323.39	1619.94
323.60	1611.75
323.81	1708.01
324.03	1621.99
324.24	1673.19
324.45	1685.48
324.66	1681.38
324.88	1779.68
325.09	1787.88
325.30	1697.77
325.52	1765.35
325.73	1695.72
325.94	1650.66
326.15	1607.66
326.37	1601.51
326.58	1728.49
326.79	1812.45
327.00	1624.04
327.22	1755.11
327.43	1648.61
327.64	1593.32
327.85	1742.82
328.07	1646.57
328.28	1771.49
328.49	1642.47
328.70	1720.29
328.92	1691.62
329.13	1691.62
329.34	1708.01
329.55	1781.73
329.76	1738.73
329.98	1746.92
330.19	1738.73
330.40	1787.88
330.61	1763.30
330.83	1697.77
331.04	1636.33
331.25	1665.00
331.46	1681.38
331.68	1546.22
331.89	1822.69
332.10	1744.87
332.31	1673.19
332.52	1628.14
332.74	1748.97
332.95	1603.56
333.16	1724.39
333.37	1751.01
333.58	1638.38
333.80	1708.01
334.01	1599.46
334.22	1650.66
334.43	1624.04
334.64	1597.42
334.86	1566.70
335.07	1656.81
335.28	1808.36
335.49	1605.61
335.70	1699.81
335.92	1775.59
336.13	1824.74
336.34	1728.49
336.55	1724.39
336.76	1689.57
336.98	1576.94
337.19	1662.95
337.40	1839.08
337.61	1884.13
337.82	1560.55
338.04	1798.12
338.25	1644.52
338.46	1677.29
338.67	1703.91
338.88	1615.85
339.09	1648.61
339.31	1689.57
339.52	1650.66
339.73	1630.18
339.94	1763.30
340.15	1691.62
340.36	1595.37
340.58	1787.88
340.79	1710.05
341.00	1701.86
341.21	1681.38
341.42	1806.31
341.63	1718.25
341.85	1689.57
342.06	1636.33
342.27	1675.24
342.48	1701.86
342.69	1703.91
342.90	1665.00
343.12	1794.02
343.33	1708.01
343.54	1744.87
343.75	1810.40
343.96	1708.01
344.17	1617.90
344.38	1677.29
344.60	1679.33
344.81	1603.56
345.02	1652.71
345.23	1789.92
345.44	1834.98
345.65	1714.15
345.86	1693.67
346.07	1679.33
346.29	1681.38
346.50	1724.39
346.71	1648.61
346.92	1828.84
347.13	1834.98
347.34	1697.77
347.55	1712.10
347.76	1734.63
347.98	1576.94
348.19	1708.01
348.40	1695.72
348.61	1685.48
348.82	1732.58
349.03	1744.87
349.24	1712.10
349.45	1845.22
349.66	1574.89
349.88	1658.85
350.09	1718.25
350.30	1812.45
350.51	1755.11
350.72	1724.39
350.93	1701.86
351.14	1658.85
351.35	1681.38
351.56	1728.49
351.77	1691.62
351.99	1705.96
352.20	1748.97
352.41	1738.73
352.62	1662.95
352.83	1683.43
353.04	1665.00
353.25	1640.42
353.46	1708.01
353.67	1742.82
353.88	1587.18
354.09	1691.62
354.30	1767.40
354.52	1675.24
354.73	1751.01
354.94	1683.43
355.15	1701.86
355.36	1746.92
355.57	1638.38
355.78	1730.53
355.99	1632.23
356.20	1685.48
356.41	1773.54
356.62	1681.38
356.83	1675.24
357.04	1769.44
357.25	1570.79
357.46	1683.43
357.68	1595.37
357.89	1685.48
358.10	1677.29
358.31	1640.42
358.52	1654.76
358.73	1640.42
358.94	1644.52
359.15	1705.96
359.36	1726.44
359.57	1693.67
359.78	1652.71
359.99	1701.86
360.20	1677.29
360.41	1621.99
360.62	1669.09
360.83	1742.82
361.04	1665.00
361.25	1763.30
361.46	1798.12
361.67	1710.05
361.88	1767.40
362.09	1769.44
362.30	1636.33
362.51	1675.24
362.72	1691.62
362.93	1697.77
363.14	1673.19
363.35	1673.19
363.56	1669.09
363.78	1775.59
363.99	1734.63
364.20	1654.76
364.41	1732.58
364.62	1714.15
364.83	1722.34
365.04	1665.00
365.25	1701.86
365.46	1724.39
365.67	1722.34
365.88	1658.85
366.09	1658.85
366.30	1667.05
366.51	1753.06
366.72	1683.43
366.93	1644.52
367.14	1757.16
367.35	1783.78
367.56	1667.05
367.77	1753.06
367.98	1652.71
368.18	1650.66
368.39	1714.15
368.60	1642.47
368.81	1757.16
369.02	1689.57
369.23	1703.91
369.44	1578.98
369.65	1626.09
369.86	1810.40
370.07	1712.10
370.28	1650.66
370.49	1720.29
370.70	1742.82
370.91	1619.94
371.12	1671.14
371.33	1832.93
371.54	1656.81
371.75	1841.12
371.96	1599.46
372.17	1656.81
372.38	1722.34
372.59	1738.73
372.80	1617.90
373.01	1599.46
373.22	1691.62
373.43	1759.21
373.64	1576.94
373.85	1755.11
374.06	1732.58
374.26	1767.40
374.47	1773.54
374.68	1804.26
374.89	1701.86
375.10	1642.47
375.31	1765.35
375.52	1691.62
375.73	1626.09
375.94	1648.61
376.15	1742.82
376.36	1705.96
376.57	1705.96
376.78	1718.25
376.99	1673.19
377.20	1857.51
377.40	1662.95
377.61	1781.73
377.82	1705.96
378.03	1826.79
378.24	1748.97
378.45	1697.77
378.66	1710.05
378.87	1624.04
379.08	1691.62
379.29	1714.15
379.50	1779.68
379.71	1689.57
379.91	1779.68
380.12	1640.42
380.33	1730.53
380.54	1660.90
380.75	1687.53
380.96	1716.20
381.17	1740.77
381.38	1626.09
381.59	1742.82
381.80	1736.68
382.00	1877.99
382.21	1724.39
382.42	1742.82
382.63	1898.47
382.84	1820.64
383.05	1771.49
383.26	1767.40
383.47	1777.64
383.68	1771.49
383.88	1691.62
384.09	1734.63
384.30	1820.64
384.51	1734.63
384.72	1691.62
384.93	1640.42
385.14	1751.01
385.35	1769.44
385.55	1759.21
385.76	1724.39
385.97	1722.34
386.18	1658.85
386.39	1646.57
386.60	1632.23
386.81	1634.28
387.02	1681.38
387.22	1691.62
387.43	1761.25
387.64	1818.60
387.85	1873.89
388.06	2242.53
388.27	4222.91
388.48	6807.45
388.68	8198.02
388.89	9539.44
389.10	9787.24
389.31	8609.66
389.52	7669.64
389.73	6748.06
389.93	6209.44
390.14	5810.09
390.35	5087.15
390.56	4581.31
390.77	3745.73
390.98	3098.58
391.18	2484.19
391.39	2109.41
391.60	1798.12
391.81	1824.74
392.02	1693.67
392.23	1804.26
392.43	1724.39
392.64	1789.92
392.85	1617.90
393.06	1824.74
393.27	1722.34
393.47	1728.49
393.68	1689.57
393.89	1683.43
394.10	1771.49
394.31	1675.24
394.52	1640.42
394.72	1679.33
394.93	1753.06
395.14	1634.28
395.35	1708.01
395.56	1677.29
395.76	1710.05
395.97	1732.58
396.18	1847.27
396.39	1880.04
396.60	1976.29
396.80	1855.46
397.01	1826.79
397.22	1834.98
397.43	1847.27
397.64	1755.11
397.84	1834.98
398.05	1810.40
398.26	1705.96
398.47	1742.82
398.67	1832.93
398.88	1710.05
399.09	1740.77
399.30	1720.29
399.51	1726.44
399.71	1673.19
399.92	1712.10
400.13	1732.58
400.34	1695.72
400.54	1687.53
400.75	1734.63
400.96	1681.38
401.17	1886.18
401.37	1783.78
401.58	1718.25
401.79	1658.85
402.00	1800.16
402.21	2015.20
402.41	1912.80
402.62	2037.73
402.83	2021.35
403.04	1986.53
403.24	2093.02
403.45	1845.22
403.66	1861.60
403.87	1857.51
404.07	1920.99
404.28	1880.04
404.49	1837.03
404.70	1742.82
404.90	1722.34
405.11	1656.81
405.32	1779.68
405.52	1568.74
405.73	1716.20
405.94	1660.90
406.15	1708.01
406.35	1683.43
406.56	1738.73
406.77	1751.01
406.98	1724.39
407.18	1699.81
407.39	1665.00
407.60	1673.19
407.80	1765.35
408.01	1673.19
408.22	1722.34
408.43	1662.95
408.63	1724.39
408.84	1816.55
409.05	1726.44
409.25	1673.19
409.46	1669.09
409.67	1603.56
409.88	1701.86
410.08	1730.53
410.29	1665.00
410.50	1687.53
410.70	1771.49
410.91	1587.18
411.12	1738.73
411.32	1726.44
411.53	1640.42
411.74	1746.92
411.95	1800.16
412.15	1732.58
412.36	1824.74
412.57	1767.40
412.77	1820.64
412.98	1722.34
413.19	1724.39
413.39	1820.64
413.60	1857.51
413.81	1775.59
414.01	1691.62
414.22	1771.49
414.43	1771.49
414.63	1744.87
414.84	1697.77
415.05	1740.77
415.25	1603.56
415.46	1769.44
415.67	1697.77
415.87	1732.58
416.08	1777.64
416.29	1656.81
416.49	1691.62
416.70	1648.61
416.91	1648.61
417.11	1660.90
417.32	1779.68
417.53	1763.30
417.73	1722.34
417.94	1675.24
418.15	1679.33
418.35	1589.22
418.56	1732.58
418.77	1849.32
418.97	1648.61
419.18	1697.77
419.38	1576.94
419.59	1724.39
419.80	1802.21
420.00	1783.78
420.21	1644.52
420.42	1777.64
420.62	1781.73
420.83	1667.05
421.04	1677.29
421.24	1665.00
421.45	1716.20
421.65	1722.34
421.86	1701.86
422.07	1742.82
422.27	1669.09
422.48	1732.58
422.69	1640.42
422.89	1697.77
423.10	1679.33
423.30	1675.24
423.51	1699.81
423.72	1703.91
423.92	1703.91
424.13	1642.47
424.33	1714.15
424.54	1734.63
424.75	1728.49
424.95	1724.39
425.16	1675.24
425.36	1685.48
425.57	1742.82
425.78	1714.15
425.98	1689.57
426.19	1732.58
426.39	1665.00
426.60	1748.97
426.81	1771.49
427.01	1658.85
427.22	1695.72
427.42	1646.57
427.63	1701.86
427.83	1843.17
428.04	1808.36
428.25	1740.77
428.45	1718.25
428.66	1751.01
428.86	1632.23
429.07	1669.09
429.28	1685.48
429.48	1673.19
429.69	1675.24
429.89	1654.76
430.10	1638.38
430.30	1748.97
430.51	1681.38
430.71	1660.90
430.92	1699.81
431.13	1671.14
431.33	1753.06
431.54	1763.30
431.74	1832.93
431.95	1759.21
432.15	1693.67
432.36	1671.14
432.56	1755.11
432.77	1791.97
432.98	1781.73
433.18	1710.05
433.39	1693.67
433.59	1697.77
433.80	1855.46
434.00	1849.32
434.21	1667.05
434.41	1656.81
434.62	1843.17
434.82	1607.66
435.03	1652.71
435.23	1748.97
435.44	1615.85
435.64	1738.73
435.85	1722.34
436.06	1714.15
436.26	1789.92
436.47	1746.92
436.67	1689.57
436.88	1701.86
437.08	1783.78
437.29	1789.92
437.49	1726.44
437.70	1800.16
437.90	1652.71
438.11	1861.60
438.31	1761.25
438.52	1849.32
438.72	1898.47
438.93	1902.56
439.13	1726.44
439.34	1785.83
439.54	1701.86
439.75	1789.92
439.95	1798.12
440.16	1800.16
440.36	1734.63
440.57	1789.92
440.77	1763.30
440.98	1771.49
441.18	1746.92
441.39	1658.85
441.59	1644.52
441.80	1873.89
442.00	1724.39
442.21	1789.92
442.41	1677.29
442.62	1771.49
442.82	1689.57
443.02	1708.01
443.23	1705.96
443.43	1677.29
443.64	1839.08
443.84	1662.95
444.05	1740.77
444.25	1736.68
444.46	1691.62
444.66	1734.63
444.87	1828.84
445.07	1699.81
445.28	1736.68
445.48	1865.70
445.69	1779.68
445.89	1869.80
446.09	1703.91
446.30	1951.71
446.50	2736.09
446.71	3694.54
446.91	4261.82
447.12	4695.99
447.32	4749.24
447.53	4263.87
447.73	3788.74
447.93	3522.51
448.14	3336.14
448.34	3131.34
448.55	2908.12
448.75	2838.48
448.96	2648.02
449.16	2308.06
449.36	2326.49
449.57	2037.73
449.77	1923.04
449.98	1822.69
450.18	1810.40
450.39	1773.54
450.59	1757.16
450.79	1728.49
451.00	1726.44
451.20	1787.88
451.41	1693.67
451.61	1753.06
451.81	1726.44
452.02	1705.96
452.22	1740.77
452.43	1761.25
452.63	1746.92
452.84	1697.77
453.04	1697.77
453.24	1675.24
453.45	1689.57
453.65	1779.68
453.86	1783.78
454.06	1748.97
454.26	1748.97
454.47	1673.19
454.67	1789.92
454.87	1783.78
455.08	1777.64
455.28	1861.60
455.49	1800.16
455.69	1726.44
455.89	1857.51
456.10	1798.12
456.30	1757.16
456.51	1714.15
456.71	1761.25
456.91	1791.97
457.12	1689.57
457.32	1703.91
457.52	1624.04
457.73	1765.35
457.93	1767.40
458.14	1708.01
458.34	1609.70
458.54	1748.97
458.75	1714.15
458.95	1773.54
459.15	1679.33
459.36	1687.53
459.56	1640.42
459.76	1828.84
459.97	1738.73
460.17	1744.87
460.37	1787.88
460.58	1673.19
460.78	1695.72
460.99	1726.44
461.19	1689.57
461.39	1796.07
461.60	1720.29
461.80	1767.40
462.00	1642.47
462.21	1746.92
462.41	1689.57
462.61	1638.38
462.82	1581.03
463.02	1714.15
463.22	1691.62
463.43	1830.88
463.63	1787.88
463.83	1734.63
464.04	1765.35
464.24	1638.38
464.44	1681.38
464.64	1703.91
464.85	1652.71
465.05	1808.36
465.25	1683.43
465.46	1654.76
465.66	1746.92
465.86	1746.92
466.07	1746.92
466.27	1730.53
466.47	1621.99
466.68	1558.50
466.88	1763.30
467.08	1767.40
467.29	1794.02
467.49	1703.91
467.69	1738.73
467.89	1806.31
468.10	1697.77
468.30	1746.92
468.50	1779.68
468.71	1771.49
468.91	1568.74
469.11	1769.44
469.31	1730.53
469.52	1683.43
469.72	1808.36
469.92	1837.03
470.13	1757.16
470.33	1767.40
470.53	1773.54
470.73	2068.45
470.94	2265.05
471.14	2301.92
471.34	2471.90
471.54	2478.04
471.75	2172.89
471.95	2189.28
472.15	2107.36
472.36	2076.64
472.56	2107.36
472.76	2072.54
472.96	2017.25
473.17	1943.52
473.37	1968.10
473.57	1806.31
473.77	1767.40
473.98	1755.11
474.18	1736.68
474.38	1837.03
474.58	1695.72
474.79	1697.77
474.99	1726.44
475.19	1814.50
475.39	1613.80
475.60	1728.49
475.80	1699.81
476.00	1777.64
476.20	1755.11
476.41	1712.10
476.61	1861.60
476.81	1781.73
477.01	1673.19
477.21	1871.84
477.42	1777.64
477.62	1687.53
477.82	1755.11
478.02	1654.76
478.23	1759.21
478.43	1646.57
478.63	1665.00
478.83	1681.38
479.03	1697.77
479.24	1759.21
479.44	1832.93
479.64	1599.46
479.84	1570.79
480.04	1656.81
480.25	1755.11
480.45	1708.01
480.65	1730.53
480.85	1751.01
481.06	1720.29
481.26	1808.36
481.46	1753.06
481.66	1714.15
481.86	1695.72
482.06	1767.40
482.27	1644.52
482.47	1681.38
482.67	1675.24
482.87	1636.33
483.07	1806.31
483.28	1615.85
483.48	1624.04
483.68	1705.96
483.88	1578.98
484.08	1548.26
484.29	1742.82
484.49	1722.34
484.69	1617.90
484.89	1808.36
485.09	1734.63
485.29	1800.16
485.50	1775.59
485.70	1673.19
485.90	1800.16
486.10	1722.34
486.30	1740.77
486.50	1791.97
486.71	1751.01
486.91	1757.16
487.11	1820.64
487.31	1634.28
487.51	1617.90
487.71	1726.44
487.91	1691.62
488.12	1638.38
488.32	1562.60
488.52	1615.85
488.72	1626.09
488.92	1685.48
489.12	1730.53
489.32	1779.68
489.53	1738.73
489.73	1677.29
489.93	1796.07
490.13	1693.67
490.33	1675.24
490.53	1708.01
490.73	1779.68
490.94	1613.80
491.14	1765.35
491.34	1800.16
491.54	2158.56
491.74	2654.17
491.94	2824.15
492.14	3004.37
492.34	2967.51
492.54	2750.42
492.75	2455.51
492.95	2441.18
493.15	2314.20
493.35	2332.64
493.55	2191.33
493.75	2117.60
493.95	2121.70
494.15	1998.82
494.35	1900.52
494.56	1828.84
494.76	1726.44
494.96	1855.46
495.16	1826.79
495.36	1718.25
495.56	1744.87
495.76	1654.76
495.96	1697.77
496.16	1615.85
496.36	1806.31
496.56	1730.53
496.77	1806.31
496.97	1693.67
497.17	1820.64
497.37	1710.05
497.57	1816.55
497.77	1757.16
497.97	1642.47
498.17	1751.01
498.37	1697.77
498.57	1736.68
498.77	1714.15
498.97	1773.54
499.17	1779.68
499.38	1681.38
499.58	1746.92
499.78	1808.36
499.98	1894.37
500.18	1734.63
500.38	1671.14
500.58	1894.37
500.78	2527.19
500.98	4409.28
501.18	5748.65
501.38	6727.58
501.58	6954.90
501.78	6576.03
501.98	5408.69
502.18	4927.41
502.38	4335.55
502.58	4143.04
502.78	3796.93
502.98	3616.71
503.18	3334.09
503.38	3114.96
503.59	2815.96
503.79	2668.50
503.99	2437.08
504.19	2316.25
504.39	2189.28
504.59	2095.07
504.79	2125.79
504.99	2078.69
505.19	1998.82
505.39	1886.18
505.59	1957.86
505.79	1845.22
505.99	1837.03
506.19	1775.59
506.39	1939.43
506.59	1771.49
506.79	1722.34
506.99	1791.97
507.19	1812.45
507.39	1742.82
507.59	1673.19
507.79	1736.68
507.99	1677.29
508.19	1658.85
508.39	1736.68
508.59	1732.58
508.79	1812.45
508.99	1802.21
509.19	1712.10
509.39	1775.59
509.59	1681.38
509.79	1656.81
509.99	1675.24
510.19	1828.84
510.39	1791.97
510.59	1734.63
510.79	1705.96
510.99	1619.94
511.19	1714.15
511.39	1847.27
511.59	1798.12
511.79	1765.35
511.99	1665.00
512.19	1800.16
512.38	1689.57
512.58	1742.82
512.78	1767.40
512.98	1765.35
513.18	1718.25
513.38	1611.75
513.58	1710.05
513.78	1753.06
513.98	1738.73
514.18	1630.18
514.38	1687.53
514.58	1736.68
514.78	1697.77
514.98	1712.10
515.18	1705.96
515.38	1628.14
515.58	1845.22
515.78	1708.01
515.98	1624.04
516.18	1726.44
516.38	1775.59
516.57	1687.53
516.77	1656.81
516.97	1812.45
517.17	1734.63
517.37	1710.05
517.57	1796.07
517.77	1746.92
517.97	1646.57
518.17	1722.34
518.37	1675.24
518.57	1701.86
518.77	1730.53
518.97	1738.73
519.16	1730.53
519.36	1732.58
519.56	1681.38
519.76	1695.72
519.96	1787.88
520.16	1810.40
520.36	1701.86
520.56	1757.16
520.76	1697.77
520.96	1648.61
521.16	1654.76
521.35	1818.60
521.55	1826.79
521.75	1687.53
521.95	1724.39
522.15	1701.86
522.35	1632.23
522.55	1660.90
522.75	1714.15
522.95	1662.95
523.14	1648.61
523.34	1777.64
523.54	1738.73
523.74	1744.87
523.94	1777.64
524.14	1677.29
524.34	1744.87
524.54	1738.73
524.73	1689.57
524.93	1785.83
525.13	1716.20
525.33	1675.24
525.53	1871.84
525.73	1861.60
525.93	1722.34
526.13	1660.90
526.32	1751.01
526.52	1781.73
526.72	1759.21
526.92	1748.97
527.12	1677.29
527.32	1660.90
527.52	1699.81
527.71	1662.95
527.91	1806.31
528.11	1689.57
528.31	1740.77
528.51	1638.38
528.71	1738.73
528.90	1701.86
529.10	1785.83
529.30	1851.36
529.50	1603.56
529.70	1695.72
529.90	1677.29
530.09	1775.59
530.29	1638.38
530.49	1671.14
530.69	1826.79
530.89	1742.82
531.09	1738.73
531.28	1601.51
531.48	1746.92
531.68	1693.67
531.88	1726.44
532.08	1845.22
532.28	1703.91
532.47	1730.53
532.67	1722.34
532.87	1773.54
533.07	1714.15
533.27	1751.01
533.46	1773.54
533.66	1806.31
533.86	1691.62
534.06	1738.73
534.26	1748.97
534.45	1679.33
534.65	1812.45
534.85	1710.05
535.05	1697.77
535.25	1720.29
535.44	1658.85
535.64	1779.68
535.84	1658.85
536.04	1675.24
536.24	1724.39
536.43	1677.29
536.63	1699.81
536.83	1742.82
537.03	1640.42
537.22	1605.61
537.42	1677.29
537.62	1697.77
537.82	1703.91
538.02	1843.17
538.21	1781.73
538.41	1898.47
538.61	1773.54
538.81	1685.48
539.00	1736.68
539.20	1689.57
539.40	1732.58
539.60	1755.11
539.79	1763.30
539.99	1699.81
540.19	1607.66
540.39	1787.88
540.58	1771.49
540.78	1763.30
540.98	1751.01
541.18	1781.73
541.37	1789.92
541.57	1751.01
541.77	1710.05
541.97	1615.85
542.16	1681.38
542.36	1660.90
542.56	1673.19
542.76	1855.46
542.95	1812.45
543.15	1757.16
543.35	1775.59
543.54	1665.00
543.74	1740.77
543.94	1781.73
544.14	1697.77
544.33	1798.12
544.53	1794.02
544.73	1671.14
544.93	1755.11
545.12	1701.86
545.32	1689.57
545.52	1648.61
545.71	1685.48
545.91	1730.53
546.11	1730.53
546.30	1708.01
546.50	1775.59
546.70	1771.49
546.90	1777.64
547.09	1591.27
547.29	1695.72
547.49	1767.40
547.68	1708.01
547.88	1722.34
548.08	1826.79
548.27	2080.74
548.47	1710.05
548.67	1724.39
548.87	1773.54
549.06	1757.16
549.26	1742.82
549.46	1734.63
549.65	1681.38
549.85	1746.92
550.05	1746.92
550.24	1652.71
550.44	1763.30
550.64	1726.44
550.83	1755.11
551.03	1755.11
551.23	1673.19
551.42	1830.88
551.62	1779.68
551.82	1679.33
552.01	1738.73
552.21	1697.77
552.41	1779.68
552.60	1791.97
552.80	1779.68
553.00	1654.76
553.19	1705.96
553.39	1808.36
553.59	1691.62
553.78	1779.68
553.98	1746.92
554.17	1628.14
554.37	1832.93
554.57	1755.11
554.76	1705.96
554.96	1722.34
555.16	1701.86
555.35	1765.35
555.55	1703.91
555.75	1656.81
555.94	1759.21
556.14	1701.86
556.33	1746.92
556.53	1761.25
556.73	1783.78
556.92	1746.92
557.12	1798.12
557.32	1828.84
557.51	1806.31
557.71	1765.35
557.90	1816.55
558.10	1738.73
558.30	1767.40
558.49	1726.44
558.69	1724.39
558.88	1705.96
559.08	1740.77
559.28	1751.01
559.47	1751.01
559.67	1722.34
559.86	1861.60
560.06	1746.92
560.26	1689.57
560.45	1759.21
560.65	1746.92
560.84	1808.36
561.04	1755.11
561.24	1736.68
561.43	1654.76
561.63	1914.85
561.82	1787.88
562.02	1755.11
562.22	1673.19
562.41	1617.90
562.61	1691.62
562.80	1621.99
563.00	1880.04
563.19	1730.53
563.39	1732.58
563.59	1763.30
563.78	1730.53
563.98	1665.00
564.17	1658.85
564.37	1703.91
564.56	1714.15
564.76	1632.23
564.96	1775.59
565.15	1722.34
565.35	1916.90
565.54	1705.96
565.74	1837.03
565.93	1742.82
566.13	1716.20
566.32	1804.26
566.52	1728.49
566.71	1734.63
566.91	1820.64
567.11	1701.86
567.30	1636.33
567.50	1785.83
567.69	1728.49
567.89	1726.44
568.08	1693.67
568.28	1746.92
568.47	1716.20
568.67	1802.21
568.86	1712.10
569.06	1753.06
569.25	1763.30
569.45	1677.29
569.64	1681.38
569.84	1746.92
570.04	1748.97
570.23	1693.67
570.43	1611.75
570.62	1732.58
570.82	1867.75
571.01	1685.48
571.21	1732.58
571.40	1656.81
571.60	1746.92
571.79	1781.73
571.99	1710.05
572.18	1615.85
572.38	1771.49
572.57	1775.59
572.77	1740.77
572.96	1882.08
573.16	1759.21
573.35	1681.38
573.55	1798.12
573.74	1720.29
573.94	1705.96
574.13	1628.14
574.33	1783.78
574.52	1808.36
574.71	1710.05
574.91	1771.49
575.10	1697.77
575.30	1703.91
575.49	1761.25
575.69	1683.43
575.88	1730.53
576.08	1718.25
576.27	1812.45
576.47	1726.44
576.66	1837.03
576.86	1759.21
577.05	1783.78
577.25	1816.55
577.44	1845.22
577.64	1648.61
577.83	1746.92
578.02	1683.43
578.22	1880.04
578.41	1865.70
578.61	1751.01
578.80	1658.85
579.00	1744.87
579.19	1785.83
579.39	1798.12
579.58	1843.17
579.77	1779.68
579.97	1886.18
580.16	1810.40
580.36	1814.50
580.55	1816.55
580.75	1796.07
580.94	1787.88
581.13	1814.50
581.33	1839.08
581.52	1753.06
581.72	1843.17
581.91	1863.65
582.11	1685.48
582.30	1728.49
582.49	1777.64
582.69	1796.07
582.88	1859.56
583.08	1777.64
583.27	1828.84
583.47	1724.39
583.66	1714.15
583.85	1640.42
584.05	1724.39
584.24	1746.92
584.44	1783.78
584.63	1767.40
584.82	1820.64
585.02	1832.93
585.21	1779.68
585.41	1757.16
585.60	1808.36
585.79	1955.81
585.99	1927.14
586.18	1902.56
586.37	2176.99
586.57	3315.66
586.76	9830.25
586.96	24225.42
587.15	34250.23
587.34	40158.62
587.54	41749.89
587.73	36318.68
587.93	26029.68
588.12	21532.34
588.31	18188.01
588.51	16092.94
588.70	15032.09
588.89	14171.94
589.09	12531.52
589.28	10975.06
589.47	9478.00
589.67	7858.06
589.86	6342.56
590.06	4900.79
590.25	3944.39
590.44	2998.23
590.64	2605.02
590.83	2209.76
591.02	2205.66
591.22	1959.91
591.41	1957.86
591.60	1775.59
591.80	1949.67
591.99	1714.15
592.18	1830.88
592.38	1816.55
592.57	1730.53
592.76	1710.05
592.96	1781.73
593.15	1722.34
593.34	1810.40
593.54	1763.30
593.73	1828.84
593.92	1761.25
594.12	1798.12
594.31	1806.31
594.50	1865.70
594.70	1781.73
594.89	1777.64
595.08	1734.63
595.28	1708.01
595.47	1933.28
595.66	1759.21
595.86	1693.67
596.05	1701.86
596.24	1691.62
596.43	1804.26
596.63	1830.88
596.82	1759.21
597.01	1828.84
597.21	1820.64
597.40	1787.88
597.59	1785.83
597.79	1722.34
597.98	1812.45
598.17	1777.64
598.36	1714.15
598.56	1744.87
598.75	1648.61
598.94	1763.30
599.14	1804.26
599.33	1703.91
599.52	1734.63
599.71	1697.77
599.91	1834.98
600.10	1724.39
600.29	1728.49
600.48	1789.92
600.68	1695.72
600.87	1777.64
601.06	1722.34
601.26	1646.57
601.45	1822.69
601.64	1685.48
601.83	1822.69
602.03	1748.97
602.22	1671.14
602.41	1783.78
602.60	1818.60
602.80	1736.68
602.99	1783.78
603.18	1683.43
603.37	1761.25
603.57	1744.87
603.76	1748.97
603.95	1779.68
604.14	1718.25
604.34	1671.14
604.53	1738.73
604.72	1773.54
604.91	1765.35
605.10	1736.68
605.30	1624.04
605.49	1775.59
605.68	1808.36
605.87	1693.67
606.07	1675.24
606.26	1708.01
606.45	1705.96
606.64	1771.49
606.84	1701.86
607.03	1755.11
607.22	1724.39
607.41	1648.61
607.60	1765.35
607.80	1767.40
607.99	1730.53
608.18	1755.11
608.37	1681.38
608.56	1642.47
608.76	1841.12
608.95	1830.88
609.14	1738.73
609.33	1761.25
609.52	1738.73
609.72	1665.00
609.91	1761.25
610.10	1720.29
610.29	1806.31
610.48	1781.73
610.68	1714.15
610.87	1753.06
611.06	1726.44
611.25	1685.48
611.44	1820.64
611.63	1628.14
611.83	1794.02
612.02	1652.71
612.21	1802.21
612.40	1609.70
612.59	1671.14
612.79	1628.14
612.98	1689.57
613.17	1826.79
613.36	1789.92
613.55	1816.55
613.74	1626.09
613.93	1740.77
614.13	1607.66
614.32	1722.34
614.51	1808.36
614.70	1640.42
614.89	1691.62
615.08	1771.49
615.28	2064.35
615.47	1540.07
615.66	1726.44
615.85	1656.81
616.04	1877.99
616.23	1765.35
616.42	1718.25
616.62	1722.34
616.81	1777.64
617.00	1658.85
617.19	1800.16
617.38	1701.86
617.57	1712.10
617.76	1742.82
617.95	1691.62
618.15	1808.36
618.34	1820.64
618.53	1667.05
618.72	1771.49
618.91	1800.16
619.10	1882.08
619.29	1808.36
619.48	1691.62
619.68	1687.53
619.87	1734.63
620.06	1646.57
620.25	1761.25
620.44	1703.91
620.63	1624.04
620.82	1728.49
621.01	1712.10
621.20	1701.86
621.39	1710.05
621.59	1654.76
621.78	1697.77
621.97	1732.58
622.16	1787.88
622.35	1693.67
622.54	1832.93
622.73	1802.21
622.92	1685.48
623.11	1828.84
623.30	1724.39
623.49	1714.15
623.68	1634.28
623.88	1761.25
624.07	1710.05
624.26	1710.05
624.45	1718.25
624.64	1681.38
624.83	1759.21
625.02	1677.29
625.21	1685.48
625.40	1767.40
625.59	1808.36
625.78	1761.25
625.97	1810.40
626.16	1728.49
626.35	1695.72
626.54	1779.68
626.74	1834.98
626.93	1736.68
627.12	1689.57
627.31	1763.30
627.50	1683.43
627.69	1732.58
627.88	1697.77
628.07	1716.20
628.26	1583.08
628.45	1705.96
628.64	1632.23
628.83	1697.77
629.02	1644.52
629.21	1636.33
629.40	1658.85
629.59	1660.90
629.78	1646.57
629.97	1703.91
630.16	1757.16
630.35	1683.43
630.54	1703.91
630.73	1648.61
630.92	1705.96
631.11	1701.86
631.30	1732.58
631.49	1699.81
631.68	1679.33
631.87	1685.48
632.06	1693.67
632.25	1828.84
632.44	1734.63
632.63	1738.73
632.82	1601.51
633.01	1679.33
633.20	1771.49
633.39	1677.29
633.58	1587.18
633.77	1724.39
633.96	1740.77
634.15	1783.78
634.34	1705.96
634.53	1740.77
634.72	1650.66
634.91	1560.55
635.10	1761.25
635.29	1791.97
635.48	1781.73
635.67	1701.86
635.86	1658.85
636.05	1730.53
636.24	1716.20
636.43	1753.06
636.62	1736.68
636.81	1658.85
637.00	1718.25
637.19	1669.09
637.38	1746.92
637.57	1757.16
637.76	1705.96
637.95	1675.24
638.14	1660.90
638.33	1695.72
638.52	1695.72
638.71	1710.05
638.89	1687.53
639.08	1859.56
639.27	1710.05
639.46	1660.90
639.65	1748.97
639.84	1695.72
640.03	1802.21
640.22	1701.86
640.41	1890.28
640.60	1619.94
640.79	1771.49
640.98	1673.19
641.17	1771.49
641.36	1714.15
641.55	1703.91
641.74	1628.14
641.92	1681.38
642.11	1636.33
642.30	1705.96
642.49	1675.24
642.68	1648.61
642.87	1665.00
643.06	1771.49
643.25	1648.61
643.44	1624.04
643.63	1736.68
643.82	1703.91
644.00	1665.00
644.19	1728.49
644.38	1630.18
644.57	1755.11
644.76	1738.73
644.95	1720.29
645.14	1708.01
645.33	1689.57
645.52	1669.09
645.71	1576.94
645.89	1660.90
646.08	1607.66
646.27	1722.34
646.46	1787.88
646.65	1683.43
646.84	1751.01
647.03	1720.29
647.22	1783.78
647.40	1708.01
647.59	1703.91
647.78	1587.18
647.97	1722.34
648.16	1597.42
648.35	1802.21
648.54	1777.64
648.73	1689.57
648.91	1785.83
649.10	1720.29
649.29	1632.23
649.48	1701.86
649.67	1726.44
649.86	1689.57
650.05	1671.14
650.23	1722.34
650.42	1648.61
650.61	1787.88
650.80	1794.02
650.99	1861.60
651.18	1671.14
651.36	1691.62
651.55	1691.62
651.74	1775.59
651.93	1648.61
652.12	1755.11
652.31	1693.67
652.49	1632.23
652.68	1673.19
652.87	1748.97
653.06	1712.10
653.25	1814.50
653.44	1732.58
653.62	1755.11
653.81	1708.01
654.00	1716.20
654.19	1767.40
654.38	1800.16
654.56	1771.49
654.75	1648.61
654.94	1753.06
655.13	1720.29
655.32	1740.77
655.51	1824.74
655.69	1759.21
655.88	1734.63
656.07	1636.33
656.26	1673.19
656.45	1605.61
656.63	1787.88
656.82	1742.82
657.01	1828.84
657.20	1656.81
657.38	1761.25
657.57	1673.19
657.76	1665.00
657.95	1740.77
658.14	1677.29
658.32	1675.24
658.51	1550.31
658.70	1689.57
658.89	1673.19
659.08	1671.14
659.26	1740.77
659.45	1595.37
659.64	1738.73
659.83	1611.75
660.01	1923.04
660.20	1757.16
660.39	1748.97
660.58	1636.33
660.76	1812.45
660.95	1693.67
661.14	1722.34
661.33	1640.42
661.51	1697.77
661.70	1685.48
661.89	1785.83
662.08	1726.44
662.26	1675.24
662.45	1695.72
662.64	1771.49
662.83	1718.25
663.01	1669.09
663.20	1722.34
663.39	1759.21
663.58	1699.81
663.76	1720.29
663.95	1738.73
664.14	1652.71
664.32	1705.96
664.51	1660.90
664.70	1591.27
664.89	1755.11
665.07	1578.98
665.26	1816.55
665.45	1765.35
665.64	1742.82
665.82	1699.81
666.01	1796.07
666.20	1697.77
666.38	1775.59
666.57	1783.78
666.76	2107.36
666.95	4454.33
667.13	10178.40
667.32	15144.73
667.51	17585.91
667.69	18702.05
667.88	17307.38
668.07	12195.65
668.25	9336.69
668.44	8075.14
668.63	7317.39
668.81	6649.75
669.00	6186.91
669.19	5719.98
669.38	5140.40
669.56	4558.78
669.75	3913.67
669.94	3442.64
670.12	3018.71
670.31	2570.20
670.50	2238.43
670.68	2056.16
670.87	1910.75
671.06	1837.03
671.24	1834.98
671.43	1744.87
671.62	1740.77
671.80	1746.92
671.99	1718.25
672.18	1716.20
672.36	1771.49
672.55	1656.81
672.74	1724.39
672.92	1683.43
673.11	1730.53
673.29	1658.85
673.48	1718.25
673.67	1673.19
673.85	1808.36
674.04	1726.44
674.23	1720.29
674.41	1689.57
674.60	1673.19
674.79	1595.37
674.97	1574.89
675.16	1744.87
675.34	1771.49
675.53	1669.09
675.72	1689.57
675.90	1796.07
676.09	1681.38
676.28	1619.94
676.46	1609.70
676.65	1695.72
676.83	1654.76
677.02	1689.57
677.21	1783.78
677.39	1708.01
677.58	1615.85
677.77	1728.49
677.95	1714.15
678.14	1615.85
678.32	1695.72
678.51	1632.23
678.70	1867.75
678.88	1673.19
679.07	1667.05
679.25	1699.81
679.44	1691.62
679.63	1587.18
679.81	1628.14
680.00	1728.49
680.18	1730.53
680.37	1761.25
680.55	1683.43
680.74	1652.71
680.93	1652.71
681.11	1724.39
681.30	1605.61
681.48	1685.48
681.67	1681.38
681.85	1703.91
682.04	1716.20
682.23	1816.55
682.41	1724.39
682.60	1742.82
682.78	1712.10
682.97	1642.47
683.15	1681.38
683.34	1730.53
683.53	1728.49
683.71	1599.46
683.90	1843.17
684.08	1769.44
684.27	1675.24
684.45	1697.77
684.64	1675.24
684.82	1761.25
685.01	1771.49
685.19	1646.57
685.38	1880.04
685.57	1710.05
685.75	1761.25
685.94	1626.09
686.12	1626.09
686.31	1681.38
686.49	1734.63
686.68	1679.33
686.86	1771.49
687.05	1675.24
687.23	1802.21
687.42	1710.05
687.60	1679.33
687.79	1787.88
687.97	1746.92
688.16	1689.57
688.34	1787.88
688.53	1605.61
688.71	1710.05
688.90	1740.77
689.08	1662.95
689.27	1665.00
689.45	1828.84
689.64	1691.62
689.82	1742.82
690.01	1726.44
690.19	1697.77
690.38	1687.53
690.56	1851.36
690.75	1689.57
690.93	1642.47
691.12	1669.09
691.30	1712.10
691.49	1675.24
691.67	1679.33
691.86	1824.74
692.04	1681.38
692.23	1671.14
692.41	1701.86
692.60	1818.60
692.78	1714.15
692.97	1679.33
693.15	1730.53
693.34	1843.17
693.52	1771.49
693.71	1720.29
693.89	1699.81
694.08	1624.04
694.26	1722.34
694.44	1759.21
694.63	1687.53
694.81	1640.42
695.00	1736.68
695.18	1697.77
695.37	1789.92
695.55	1705.96
695.74	1740.77
695.92	1595.37
696.10	1746.92
696.29	1681.38
696.47	1714.15
696.66	1642.47
696.84	1574.89
697.03	1710.05
697.21	1855.46
697.40	2361.31
697.58	1742.82
697.76	1691.62
697.95	1708.01
698.13	1701.86
698.32	1691.62
698.50	1703.91
698.68	1757.16
698.87	1697.77
699.05	1834.98
699.24	1679.33
699.42	1628.14
699.61	1687.53
699.79	1675.24
699.97	1730.53
700.16	1662.95
700.34	1683.43
700.53	1652.71
700.71	1849.32
700.89	1710.05
701.08	1687.53
701.26	1740.77
701.45	2121.70
701.63	1615.85
701.81	1699.81
702.00	1703.91
702.18	1673.19
702.37	1658.85
702.55	1701.86
702.73	1753.06
702.92	1669.09
703.10	1767.40
703.28	1812.45
703.47	1628.14
703.65	1779.68
703.84	1720.29
704.02	1603.56
704.20	1779.68
704.39	1667.05
704.57	1656.81
704.75	1771.49
704.94	1779.68
705.12	1722.34
705.30	1771.49
705.49	2242.53
705.67	4372.41
705.86	9400.18
706.04	12406.59
706.22	14425.89
706.41	15255.32
706.59	13903.66
706.77	9457.52
706.96	7278.48
707.14	6442.91
707.32	5797.80
707.51	5521.32
707.69	4814.77
707.87	4177.86
708.06	3456.97
708.24	3067.86
708.42	2437.08
708.61	2222.05
708.79	1974.24
708.97	1890.28
709.16	1861.60
709.34	1796.07
709.52	1781.73
709.71	1732.58
709.89	1726.44
710.07	1695.72
710.26	1656.81
710.44	1685.48
710.62	1746.92
710.80	1720.29
710.99	1769.44
711.17	1759.21
711.35	1652.71
711.54	1726.44
711.72	1775.59
711.90	1712.10
712.09	1798.12
712.27	1689.57
712.45	1642.47
712.63	1656.81
712.82	1701.86
713.00	1708.01
713.18	1794.02
713.37	1732.58
713.55	1744.87
713.73	1708.01
713.91	1714.15
714.10	1671.14
714.28	1634.28
714.46	1683.43
714.65	1710.05
714.83	1742.82
715.01	1660.90
715.19	1746.92
715.38	1595.37
715.56	1724.39
715.74	1673.19
715.92	1644.52
716.11	1687.53
716.29	1642.47
716.47	1677.29
716.65	1691.62
716.84	1595.37
717.02	1759.21
717.20	1605.61
717.38	1660.90
717.57	1701.86
717.75	1742.82
717.93	1689.57
718.11	1662.95
718.30	1632.23
718.48	1726.44
718.66	1763.30
718.84	1755.11
719.03	1695.72
719.21	1634.28
719.39	1814.50
719.57	1710.05
719.75	1677.29
719.94	1730.53
720.12	1697.77
720.30	1714.15
720.48	1730.53
720.67	1699.81
720.85	1660.90
721.03	1677.29
721.21	1667.05
721.39	1828.84
721.58	1761.25
721.76	1726.44
721.94	1765.35
722.12	1724.39
722.30	1681.38
722.49	1677.29
722.67	1781.73
722.85	1679.33
723.03	1648.61
723.21	1660.90
723.40	1742.82
723.58	1734.63
723.76	1701.86
723.94	1781.73
724.12	1710.05
724.30	1720.29
724.49	1673.19
724.67	1585.13
724.85	1771.49
725.03	1609.70
725.21	1708.01
725.40	1693.67
725.58	1671.14
725.76	1767.40
725.94	1794.02
726.12	1619.94
726.30	1675.24
726.49	1730.53
726.67	1697.77
726.85	1658.85
727.03	1746.92
727.21	2088.93
727.39	2834.39
727.57	3682.25
727.76	4126.66
727.94	4327.36
728.12	4468.67
728.30	3590.09
728.48	2961.36
728.66	2680.79
728.84	2537.43
729.03	2303.96
729.21	2086.88
729.39	2086.88
729.57	1812.45
729.75	1877.99
729.93	1828.84
730.11	1710.05
730.30	1708.01
730.48	1712.10
730.66	1755.11
730.84	1703.91
731.02	1660.90
731.20	1675.24
731.38	1705.96
731.56	1705.96
731.74	1593.32
731.93	1673.19
732.11	1705.96
732.29	1716.20
732.47	1708.01
732.65	1796.07
732.83	1843.17
733.01	1708.01
733.19	1662.95
733.37	1714.15
733.56	1777.64
733.74	1660.90
733.92	1699.81
734.10	1697.77
734.28	1646.57
734.46	1685.48
734.64	1671.14
734.82	1636.33
735.00	1685.48
735.18	1675.24
735.36	1677.29
735.54	1691.62
735.73	1691.62
735.91	1652.71
736.09	1667.05
736.27	1712.10
736.45	1744.87
736.63	1572.84
736.81	1683.43
736.99	1777.64
737.17	1777.64
737.35	1644.52
737.53	1656.81
737.71	1703.91
737.89	1755.11
738.07	1738.73
738.25	1703.91
738.43	1607.66
738.61	1654.76
738.80	1644.52
738.98	1667.05
739.16	1665.00
739.34	1583.08
739.52	1820.64
739.70	1730.53
739.88	1789.92
740.06	1773.54
740.24	1609.70
740.42	1748.97
740.60	1624.04
740.78	1638.38
740.96	1628.14
741.14	1728.49
741.32	1748.97
741.50	1552.36
741.68	1732.58
741.86	1849.32
742.04	1560.55
742.22	1726.44
742.40	1783.78
742.58	1701.86
742.76	1703.91
742.94	1806.31
743.12	1613.80
743.30	1798.12
743.48	1759.21
743.66	1656.81
743.84	1656.81
744.02	1689.57
744.20	1724.39
744.38	1665.00
744.56	1675.24
744.74	1865.70
744.92	1755.11
745.10	1734.63
745.28	1746.92
745.46	1822.69
745.64	1697.77
745.82	1720.29
746.00	1761.25
746.18	1665.00
746.36	1675.24
746.54	1650.66
746.72	1679.33
746.90	1624.04
747.08	1767.40
747.26	1658.85
747.44	1755.11
747.62	1775.59
747.80	1751.01
747.98	1669.09
748.15	1740.77
748.33	1861.60
748.51	1681.38
748.69	1765.35
748.87	1710.05
749.05	1667.05
749.23	1699.81
749.41	1683.43
749.59	1646.57
749.77	1751.01
749.95	1626.09
750.13	1654.76
750.31	1718.25
750.49	1685.48
750.67	1779.68
750.85	1736.68
751.03	1736.68
751.20	1779.68
751.38	1691.62
751.56	1726.44
751.74	1673.19
751.92	1691.62
752.10	1626.09
752.28	1753.06
752.46	1748.97
752.64	1712.10
752.82	1767.40
753.00	1841.12
753.18	1722.34
753.35	1724.39
753.53	1632.23
753.71	1671.14
753.89	1705.96
754.07	1675.24
754.25	1759.21
754.43	1642.47
754.61	1601.51
754.79	1787.88
754.97	1675.24
755.14	1746.92
755.32	1568.74
755.50	1656.81
755.68	1769.44
755.86	1658.85
756.04	1660.90
756.22	1603.56
756.40	1744.87
756.57	1808.36
756.75	1640.42
756.93	1802.21
757.11	1804.26
757.29	1646.57
757.47	1693.67
757.65	1626.09
757.82	1570.79
758.00	1611.75
758.18	1679.33
758.36	1681.38
758.54	1839.08
758.72	1640.42
758.90	1796.07
759.07	1722.34
759.25	1667.05
759.43	1736.68
759.61	1652.71
759.79	2258.91
759.97	1730.53
760.15	1728.49
760.32	1722.34
760.50	1671.14
760.68	1757.16
760.86	1595.37
761.04	1804.26
761.22	1697.77
761.39	1677.29
761.57	1701.86
761.75	1718.25
761.93	1701.86
762.11	1720.29
762.28	1732.58
762.46	1699.81
762.64	1673.19
762.82	1535.98
763.00	1660.90
763.18	1824.74
763.35	1613.80
763.53	1662.95
763.71	1720.29
763.89	1685.48
764.07	1763.30
764.24	1722.34
764.42	1775.59
764.60	1710.05
764.78	1722.34
764.96	1775.59
765.13	1812.45
765.31	1697.77
765.49	1685.48
765.67	1624.04
765.84	1675.24
766.02	1650.66
766.20	1621.99
766.38	1679.33
766.56	1773.54
766.73	1730.53
766.91	1681.38
767.09	1703.91
767.27	1746.92
767.44	1640.42
767.62	1796.07
767.80	1728.49
767.98	1710.05
768.15	1736.68
768.33	1708.01
768.51	1732.58
768.69	1697.77
768.87	1748.97
769.04	1718.25
769.22	1814.50
769.40	1810.40
769.58	1845.22
769.75	1714.15
769.93	1828.84
770.11	1654.76
770.28	1634.28
770.46	1751.01
770.64	1714.15
770.82	1656.81
770.99	1714.15
771.17	1685.48
771.35	1687.53
771.53	1720.29
771.70	1673.19
771.88	1662.95
772.06	1701.86
772.23	1687.53
772.41	1748.97
772.59	1693.67
772.77	1638.38
772.94	1665.00
773.12	1740.77
773.30	1613.80
773.47	1746.92
773.65	1675.24
773.83	1828.84
774.01	1632.23
774.18	1621.99
774.36	1718.25
774.54	1648.61
774.71	1773.54
774.89	1693.67
775.07	1615.85
775.24	1636.33
775.42	1656.81
775.60	1724.39
775.78	1636.33
775.95	1648.61
776.13	1701.86
776.31	1550.31
776.48	1677.29
776.66	1794.02
776.84	1675.24
777.01	1613.80
777.19	1619.94
777.37	1673.19
777.54	1697.77
777.72	1773.54
777.90	1624.04
778.07	1652.71
778.25	1781.73
778.43	1759.21
778.60	1683.43
778.78	1763.30
778.96	1746.92
779.13	1640.42
779.31	1748.97
779.49	1757.16
779.66	1740.77
779.84	1751.01
780.01	1718.25
780.19	1669.09
780.37	1695.72
780.54	1765.35
780.72	1658.85
780.90	1740.77
781.07	1644.52
781.25	1726.44
781.43	1728.49
781.60	1673.19
781.78	1740.77
781.95	1644.52
782.13	1728.49
782.31	1701.86
782.48	1581.03
782.66	1638.38
782.83	1810.40
783.01	1771.49
783.19	1755.11
783.36	1675.24
783.54	1701.86
783.72	1798.12
783.89	1699.81
784.07	1675.24
784.24	1769.44
784.42	1787.88
784.60	1740.77
784.77	1724.39
784.95	1581.03
785.12	1697.77
785.30	1732.58
785.47	1640.42
785.65	1624.04
785.83	1738.73
786.00	1742.82
786.18	1638.38
786.35	1634.28
786.53	1585.13
786.71	1794.02
786.88	1677.29
787.06	1730.53
787.23	1697.77
787.41	1605.61
787.58	1742.82
787.76	1683.43
787.94	1695.72
788.11	1683.43
788.29	1628.14
788.46	1683.43
788.64	1650.66
788.81	1636.33
788.99	1667.05
789.16	1677.29
789.34	1669.09
789.52	1693.67
789.69	1677.29
789.87	1617.90
790.04	1718.25
790.22	1757.16
790.39	1822.69
790.57	1660.90
790.74	1628.14
790.92	1769.44
791.09	1640.42
791.27	1687.53
791.44	1789.92
791.62	1636.33
791.79	1712.10
791.97	1665.00
792.15	1896.42
792.32	1703.91
792.50	1710.05
792.67	1730.53
792.85	1734.63
793.02	1685.48
793.20	1621.99
793.37	1650.66
793.55	1605.61
793.72	1611.75
793.90	1683.43
794.07	1697.77
794.25	1658.85
794.42	1693.67
794.60	1619.94
794.77	1740.77
794.95	1675.24
795.12	1689.57
795.30	1675.24
795.47	1578.98
795.65	1894.37
795.82	1734.63
796.00	1615.85
796.17	1638.38
796.34	1701.86
796.52	1746.92
796.69	1775.59
796.87	1705.96
797.04	1705.96
797.22	1773.54
797.39	1746.92
797.57	1732.58
797.74	1714.15
797.92	1740.77
798.09	1679.33
798.27	1789.92
798.44	1708.01
798.62	1642.47
798.79	1679.33
798.96	1683.43
799.14	1714.15
799.31	1873.89
799.49	1734.63
799.66	1667.05
799.84	1658.85
800.01	1568.74
800.19	1683.43
800.36	1611.75
800.53	1683.43
800.71	1701.86
800.88	1736.68
801.06	1720.29
801.23	1599.46
801.41	1701.86
801.58	1693.67
801.75	1656.81
801.93	1693.67
802.10	1677.29
802.28	1677.29
802.45	1689.57
802.63	1775.59
802.80	1757.16
802.97	1675.24
803.15	1695.72
803.32	1726.44
803.50	1650.66
803.67	1705.96
803.84	1607.66
804.02	1695.72
804.19	1646.57
804.37	1587.18
804.54	1689.57
804.71	1648.61
804.89	1699.81
805.06	1691.62
805.24	1630.18
805.41	1675.24
805.58	1662.95
805.76	1810.40
805.93	1716.20
806.10	1757.16
806.28	1724.39
806.45	1603.56
806.63	1673.19
806.80	1656.81
806.97	1705.96
807.15	1726.44
807.32	1705.96
807.49	1705.96
807.67	1662.95
807.84	1691.62
808.01	1640.42
808.19	1746.92
808.36	1814.50
808.54	1705.96
808.71	1687.53
808.88	1681.38
809.06	1734.63
809.23	1748.97
809.40	1671.14
809.58	1777.64
809.75	1681.38
809.92	1695.72
810.10	1873.89
810.27	1730.53
810.44	1671.14
810.62	1740.77
810.79	1718.25
810.96	1705.96
811.14	1644.52
811.31	1687.53
811.48	1712.10
811.66	1656.81
811.83	1697.77
812.00	1693.67
812.18	1640.42
812.35	1798.12
812.52	1689.57
812.69	1736.68
812.87	1658.85
813.04	1650.66
813.21	1669.09
813.39	1744.87
813.56	1609.70
813.73	1685.48
813.91	1669.09
814.08	1718.25
814.25	1759.21
814.42	1628.14
814.60	1732.58
814.77	1751.01
814.94	1724.39
815.12	1644.52
815.29	1791.97
815.46	1628.14
815.63	1755.11
815.81	1685.48
815.98	1677.29
816.15	1673.19
816.33	1685.48
816.50	1685.48
816.67	1693.67
816.84	1705.96
817.02	1695.72
817.19	1654.76
817.36	1685.48
817.53	1763.30
817.71	1642.47
817.88	1736.68
818.05	1552.36
818.22	1650.66
818.40	1855.46
818.57	1624.04
818.74	1656.81
818.91	1681.38
819.09	1738.73
819.26	1734.63
819.43	1701.86
819.60	1689.57
819.78	1718.25
819.95	1806.31
820.12	1675.24
820.29	1751.01
820.47	1816.55
820.64	1773.54
820.81	1556.46
820.98	1617.90
821.15	1581.03
821.33	1716.20
821.50	1624.04
821.67	1710.05
821.84	1687.53
822.02	1748.97
822.19	1722.34
822.36	1673.19
822.53	1576.94
822.70	1611.75
822.88	1595.37
823.05	1730.53
823.22	1732.58
823.39	1794.02
823.56	1744.87
823.74	1755.11
823.91	1697.77
824.08	1671.14
824.25	1583.08
824.42	1834.98
824.60	1621.99
824.77	1689.57
824.94	1632.23
825.11	1710.05
825.28	1562.60
825.45	1753.06
825.63	1722.34
825.80	1658.85
825.97	1687.53
826.14	1673.19
826.31	1595.37
826.48	1742.82
826.66	1710.05
826.83	1636.33
827.00	1658.85
827.17	1607.66
827.34	1667.05
827.51	1636.33
827.69	1695.72
827.86	1578.98
828.03	1693.67
828.20	1689.57
828.37	1632.23
828.54	1726.44
828.71	1732.58
828.89	1722.34
829.06	1755.11
829.23	1789.92
829.40	1654.76
829.57	1687.53
829.74	1689.57
829.91	1685.48
830.09	1722.34
830.26	1759.21
830.43	1732.58
830.60	1665.00
830.77	1687.53
830.94	1798.12
831.11	1765.35
831.28	1730.53
831.46	1761.25
831.63	1722.34
831.80	1724.39
831.97	1662.95
832.14	1712.10
832.31	1714.15
832.48	1753.06
832.65	1724.39
832.82	1669.09
832.99	1759.21
833.17	1615.85
833.34	1802.21
833.51	1751.01
833.68	1607.66
833.85	1744.87
834.02	1691.62
834.19	1671.14
834.36	1660.90
834.53	1738.73
834.70	1765.35
834.87	1683.43
835.04	1712.10
835.22	1697.77
835.39	1656.81
835.56	1517.54
835.73	1699.81
835.90	1677.29
836.07	1654.76
836.24	1720.29
836.41	1613.80
836.58	1689.57
836.75	1755.11
836.92	1634.28
837.09	1710.05
837.26	1726.44
837.43	1669.09
837.60	1699.81
837.77	1609.70
837.94	1794.02
838.12	1765.35
838.29	1701.86
838.46	1601.51
838.63	1679.33
838.80	1785.83
838.97	1722.34
839.14	1705.96
839.31	1695.72
839.48	1718.25
839.65	1687.53
839.82	1740.77
839.99	1714.15
840.16	1763.30
840.33	1656.81
840.50	1705.96
840.67	1644.52
840.84	1552.36
841.01	1798.12
841.18	1685.48
841.35	1640.42
841.52	1753.06
841.69	1808.36
841.86	1777.64
842.03	1695.72
842.20	1763.30
842.37	1644.52
842.54	1681.38
842.71	1720.29
842.88	1554.41
843.05	1703.91
843.22	1673.19
843.39	1767.40
843.56	1644.52
843.73	1660.90
843.90	1716.20
844.07	1673.19
844.24	1708.01
844.41	1722.34
844.58	1732.58
844.75	1662.95
844.92	1755.11
845.09	1650.66
845.26	1542.12
845.43	1708.01
845.60	1648.61
845.77	1746.92
845.94	1675.24
846.10	1644.52
846.27	1556.46
846.44	1630.18
846.61	1675.24
846.78	1748.97
846.95	1710.05
847.12	1681.38
847.29	1636.33
847.46	1681.38
847.63	1822.69
847.80	1677.29
847.97	1566.70
848.14	1730.53
848.31	1685.48
848.48	1687.53
848.65	1671.14
848.82	1660.90
848.98	1808.36
849.15	1712.10
849.32	1765.35
849.49	1722.34
849.66	1710.05
849.83	1669.09
850.00	1626.09
850.17	1734.63
850.34	1677.29
850.51	1603.56
850.68	1593.32
850.85	1828.84
851.01	1771.49
851.18	1718.25
851.35	1656.81
851.52	1708.01
851.69	1771.49
851.86	1656.81
852.03	1689.57
852.20	1732.58
852.37	1675.24
852.53	1611.75
852.70	1714.15
852.87	1658.85
853.04	1779.68
853.21	1689.57
853.38	1802.21
853.55	1832.93
853.72	1781.73
853.89	1708.01
854.05	1685.48
854.22	1687.53
854.39	1695.72
854.56	1609.70
854.73	1787.88
854.90	1624.04
855.07	1650.66
855.23	1607.66
855.40	1718.25
855.57	1697.77
855.74	1570.79
855.91	1910.75
856.08	1599.46
856.25	1621.99
856.41	1699.81
856.58	1632.23
856.75	1730.53
856.92	1665.00
857.09	1757.16
857.26	1718.25
857.42	1710.05
857.59	1714.15
857.76	1697.77
857.93	1675.24
858.10	1712.10
858.27	1675.24
858.43	1699.81
858.60	1638.38
858.77	1638.38
858.94	1605.61
859.11	1724.39
859.27	1699.81
859.44	1771.49
859.61	1800.16
859.78	1761.25
859.95	1613.80
860.12	1665.00
860.28	1783.78
860.45	1804.26
860.62	1675.24
860.79	1685.48
860.95	1646.57
861.12	1650.66
861.29	1667.05
861.46	1669.09
861.63	1658.85
861.79	1671.14
861.96	1626.09
862.13	1695.72
862.30	1761.25
862.47	1669.09
862.63	1607.66
862.80	1824.74
862.97	1820.64
863.14	1746.92
863.30	1617.90
863.47	1648.61
863.64	1701.86
863.81	1765.35
863.97	1636.33
864.14	1619.94
864.31	1703.91
864.48	1738.73
864.65	1691.62
864.81	1755.11
864.98	1718.25
865.15	1748.97
865.32	1718.25
865.48	1763.30
865.65	1738.73
865.82	1718.25
865.98	1683.43
866.15	1783.78
866.32	1687.53
866.49	1746.92
866.65	1730.53
866.82	1642.47
866.99	1648.61
867.16	1673.19
867.32	1650.66
867.49	1656.81
867.66	1689.57
867.83	1615.85
867.99	1560.55
868.16	1636.33
868.33	1683.43
868.49	1660.90
868.66	1634.28
868.83	1720.29
868.99	1683.43
869.16	1740.77
869.33	1791.97
869.50	1751.01
869.66	1708.01
869.83	1763.30
870.00	1611.75
870.16	1708.01
870.33	1728.49
870.50	1761.25
870.66	1722.34
870.83	1810.40
871.00	1693.67
871.17	1669.09
871.33	1708.01
871.50	1665.00
871.67	1771.49
871.83	1724.39
872.00	1837.03
872.17	1638.38
872.33	1740.77
872.50	1761.25
872.67	1734.63
872.83	1701.86
873.00	1712.10
873.17	1669.09
873.33	1705.96
873.50	1763.30
873.67	1562.60
873.83	1603.56
874.00	1693.67
874.16	1775.59
874.33	1724.39
874.50	1638.38
874.66	1773.54
874.83	1697.77
875.00	1726.44
875.16	1769.44
875.33	1734.63
875.50	1648.61
875.66	1685.48
875.83	1626.09
875.99	1763.30
876.16	1669.09
876.33	1691.62
876.49	1628.14
876.66	1763.30
876.83	1648.61
876.99	1607.66
877.16	1703.91
877.32	1607.66
877.49	1667.05
877.66	1773.54
877.82	1769.44
877.99	1634.28
878.15	1755.11
878.32	1722.34
878.49	1675.24
878.65	1619.94
878.82	1705.96
878.98	1746.92
879.15	1767.40
879.32	1695.72
879.48	1646.57
879.65	1716.20
879.81	1671.14
879.98	1662.95
880.15	1689.57
880.31	1646.57
880.48	1652.71
880.64	1755.11
880.81	1619.94
880.97	1814.50
881.14	1753.06
881.31	1607.66
881.47	1751.01
881.64	1656.81
881.80	1691.62
881.97	1716.20
882.13	1720.29
882.30	1658.85
882.47	1771.49
882.63	1644.52
882.80	1685.48
882.96	1699.81
883.13	1736.68
883.29	1722.34
883.46	1759.21
883.62	1798.12
883.79	1697.77
883.95	1818.60
884.12	1662.95
884.29	1730.53
884.45	1794.02
884.62	1710.05
884.78	1689.57
884.95	1730.53
885.11	1703.91
885.28	1697.77
885.44	1732.58
885.61	1748.97
885.77	1781.73
885.94	1689.57
886.10	1751.01
886.27	1710.05
886.43	1765.35
886.60	1751.01
886.76	1691.62
886.93	1744.87
887.09	1685.48
887.26	1624.04
887.42	1755.11
887.59	1828.84
887.75	1808.36
887.92	1703.91
888.08	1779.68
888.25	1857.51
888.41	1718.25
888.58	1677.29
888.74	1646.57
888.91	1656.81
>>>>>End Processed Spectral Data<<<<<
