SpectraSuite Data File
++++++++++++++++++++++++++++++++++++
Date: Mon Jun 06 16:14:17 CEST 2016
User: root
Dark Spectrum Present: No
Reference Spectrum Present: No
Number of Sampled Component Spectra: 1
Spectrometers: USB4C02835
Integration Time (usec): 100000 (USB4C02835)
Spectra Averaged: 1 (USB4C02835)
Boxcar Smoothing: 0 (USB4C02835)
Correct for Electrical Dark: No (USB4C02835)
Strobe/Lamp Enabled: No (USB4C02835)
Correct for Detector Non-linearity: No (USB4C02835)
Correct for Stray Light: No (USB4C02835)
Number of Pixels in Processed Spectrum: 3648
>>>>>Begin Processed Spectral Data<<<<<
177.47	1417.19
177.69	1417.19
177.91	1417.19
178.13	1505.26
178.36	1492.97
178.58	1656.81
178.80	1703.91
179.02	1619.94
179.24	1650.66
179.46	1697.77
179.68	1730.53
179.90	1669.09
180.13	1738.73
180.35	1697.77
180.57	1691.62
180.79	1708.01
181.01	1701.86
181.23	1820.64
181.45	1787.88
181.67	1689.57
181.90	1708.01
182.12	1669.09
182.34	1665.00
182.56	1785.83
182.78	1748.97
183.00	1751.01
183.22	1763.30
183.44	1542.12
183.66	1937.38
183.89	1789.92
184.11	1609.70
184.33	1791.97
184.55	1816.55
184.77	1673.19
184.99	1847.27
185.21	1656.81
185.43	1871.84
185.65	1699.81
185.87	1759.21
186.10	1871.84
186.32	1783.78
186.54	1716.20
186.76	1763.30
186.98	1781.73
187.20	1757.16
187.42	1691.62
187.64	1689.57
187.86	1728.49
188.08	1761.25
188.30	1761.25
188.52	1685.48
188.75	1771.49
188.97	1767.40
189.19	1738.73
189.41	1712.10
189.63	1787.88
189.85	1708.01
190.07	1685.48
190.29	1597.42
190.51	1667.05
190.73	1605.61
190.95	1779.68
191.17	1705.96
191.39	1681.38
191.61	1677.29
191.84	1726.44
192.06	1804.26
192.28	1630.18
192.50	1902.56
192.72	1683.43
192.94	1720.29
193.16	1769.44
193.38	1816.55
193.60	1746.92
193.82	1656.81
194.04	1779.68
194.26	1761.25
194.48	1734.63
194.70	1685.48
194.92	1683.43
195.14	1751.01
195.36	1677.29
195.58	1748.97
195.80	1722.34
196.02	1607.66
196.24	1712.10
196.46	1732.58
196.69	1652.71
196.91	1806.31
197.13	1691.62
197.35	1726.44
197.57	1877.99
197.79	1728.49
198.01	1693.67
198.23	1763.30
198.45	1716.20
198.67	1681.38
198.89	1675.24
199.11	1699.81
199.33	1634.28
199.55	1589.22
199.77	1654.76
199.99	1753.06
200.21	1738.73
200.43	1814.50
200.65	1626.09
200.87	1554.41
201.09	1701.86
201.31	1695.72
201.53	1810.40
201.75	1722.34
201.97	1710.05
202.19	1777.64
202.41	1744.87
202.63	1798.12
202.85	1705.96
203.07	1697.77
203.29	1660.90
203.51	1687.53
203.73	1691.62
203.95	1929.19
204.17	1677.29
204.39	1746.92
204.61	1734.63
204.83	1658.85
205.05	1779.68
205.27	1761.25
205.49	1800.16
205.71	1648.61
205.93	1761.25
206.15	1677.29
206.37	1769.44
206.59	1687.53
206.81	1615.85
207.03	1677.29
207.25	1685.48
207.47	1722.34
207.69	1720.29
207.91	1794.02
208.13	1773.54
208.34	1677.29
208.56	1603.56
208.78	1734.63
209.00	1652.71
209.22	1726.44
209.44	1767.40
209.66	1640.42
209.88	1722.34
210.10	1744.87
210.32	1665.00
210.54	1781.73
210.76	1763.30
210.98	1738.73
211.20	1595.37
211.42	1761.25
211.64	1785.83
211.86	1724.39
212.08	1740.77
212.30	1697.77
212.52	1722.34
212.74	1767.40
212.96	1617.90
213.17	1730.53
213.39	1718.25
213.61	1794.02
213.83	1769.44
214.05	1599.46
214.27	1691.62
214.49	1658.85
214.71	1652.71
214.93	1765.35
215.15	1615.85
215.37	1691.62
215.59	1621.99
215.81	1673.19
216.03	1787.88
216.24	1712.10
216.46	1716.20
216.68	1755.11
216.90	1800.16
217.12	1781.73
217.34	1732.58
217.56	1652.71
217.78	1787.88
218.00	1757.16
218.22	1738.73
218.44	1765.35
218.66	1841.12
218.87	1869.80
219.09	1652.71
219.31	1681.38
219.53	1644.52
219.75	1732.58
219.97	1779.68
220.19	1693.67
220.41	1773.54
220.63	1787.88
220.85	1722.34
221.06	1708.01
221.28	1777.64
221.50	1763.30
221.72	1734.63
221.94	1728.49
222.16	1685.48
222.38	1751.01
222.60	1705.96
222.82	1712.10
223.03	1796.07
223.25	1566.70
223.47	1779.68
223.69	1845.22
223.91	1730.53
224.13	1691.62
224.35	1650.66
224.57	1834.98
224.78	1753.06
225.00	1699.81
225.22	1689.57
225.44	1689.57
225.66	1769.44
225.88	1703.91
226.10	1882.08
226.32	1728.49
226.53	1759.21
226.75	1648.61
226.97	1695.72
227.19	1677.29
227.41	1765.35
227.63	1753.06
227.85	1611.75
228.06	1728.49
228.28	1710.05
228.50	1722.34
228.72	1626.09
228.94	1691.62
229.16	1603.56
229.37	1660.90
229.59	1732.58
229.81	1767.40
230.03	1753.06
230.25	1583.08
230.47	1671.14
230.69	1701.86
230.90	1779.68
231.12	1695.72
231.34	1726.44
231.56	1773.54
231.78	1640.42
232.00	1738.73
232.21	1673.19
232.43	1740.77
232.65	1630.18
232.87	1716.20
233.09	1667.05
233.30	1769.44
233.52	1740.77
233.74	1673.19
233.96	1708.01
234.18	1667.05
234.40	1714.15
234.61	1822.69
234.83	1574.89
235.05	1605.61
235.27	1892.32
235.49	1746.92
235.70	1650.66
235.92	1763.30
236.14	1703.91
236.36	1873.89
236.58	1662.95
236.79	1736.68
237.01	1613.80
237.23	1765.35
237.45	1826.79
237.67	1634.28
237.88	1691.62
238.10	1722.34
238.32	1624.04
238.54	1677.29
238.76	1751.01
238.97	1638.38
239.19	1656.81
239.41	1710.05
239.63	1757.16
239.85	1589.22
240.06	1679.33
240.28	1740.77
240.50	1769.44
240.72	1705.96
240.93	1736.68
241.15	1716.20
241.37	1708.01
241.59	1794.02
241.81	1671.14
242.02	1687.53
242.24	1677.29
242.46	1746.92
242.68	1654.76
242.89	1746.92
243.11	1734.63
243.33	1695.72
243.55	1705.96
243.76	1783.78
243.98	1726.44
244.20	1720.29
244.42	1708.01
244.64	1656.81
244.85	1705.96
245.07	1636.33
245.29	1789.92
245.51	1753.06
245.72	1687.53
245.94	1775.59
246.16	1767.40
246.38	1697.77
246.59	1738.73
246.81	1658.85
247.03	1640.42
247.24	1648.61
247.46	1621.99
247.68	1708.01
247.90	1806.31
248.11	1695.72
248.33	1726.44
248.55	1730.53
248.77	1683.43
248.98	1734.63
249.20	1912.80
249.42	1718.25
249.64	1732.58
249.85	1642.47
250.07	1755.11
250.29	1787.88
250.50	1779.68
250.72	1611.75
250.94	1716.20
251.16	1773.54
251.37	1791.97
251.59	1730.53
251.81	1771.49
252.02	1683.43
252.24	1683.43
252.46	1796.07
252.68	1701.86
252.89	1718.25
253.11	1644.52
253.33	1845.22
253.54	1787.88
253.76	1621.99
253.98	1673.19
254.20	1746.92
254.41	1611.75
254.63	1689.57
254.85	1728.49
255.06	1808.36
255.28	1718.25
255.50	1755.11
255.71	1722.34
255.93	1705.96
256.15	1701.86
256.36	1746.92
256.58	1650.66
256.80	1701.86
257.02	1697.77
257.23	1681.38
257.45	1828.84
257.67	1800.16
257.88	1689.57
258.10	1783.78
258.32	1812.45
258.53	1763.30
258.75	1753.06
258.97	1665.00
259.18	1681.38
259.40	1730.53
259.62	1843.17
259.83	1767.40
260.05	1720.29
260.27	2041.82
260.48	1636.33
260.70	1724.39
260.92	1738.73
261.13	1728.49
261.35	1777.64
261.57	1767.40
261.78	1650.66
262.00	1626.09
262.22	1755.11
262.43	1617.90
262.65	1642.47
262.86	1658.85
263.08	1849.32
263.30	1658.85
263.51	1556.46
263.73	1673.19
263.95	1755.11
264.16	1710.05
264.38	1705.96
264.60	1791.97
264.81	1691.62
265.03	1787.88
265.25	1765.35
265.46	1755.11
265.68	1796.07
265.89	1837.03
266.11	1646.57
266.33	1732.58
266.54	1777.64
266.76	1716.20
266.98	1703.91
267.19	1808.36
267.41	1791.97
267.62	1708.01
267.84	1576.94
268.06	1695.72
268.27	1742.82
268.49	1785.83
268.70	1755.11
268.92	1781.73
269.14	1726.44
269.35	1603.56
269.57	1681.38
269.79	1777.64
270.00	1703.91
270.22	1699.81
270.43	1726.44
270.65	1591.27
270.87	1726.44
271.08	1683.43
271.30	1714.15
271.51	1726.44
271.73	1814.50
271.95	1748.97
272.16	1714.15
272.38	1751.01
272.59	1746.92
272.81	1748.97
273.02	1736.68
273.24	1734.63
273.46	1765.35
273.67	1669.09
273.89	1681.38
274.10	1703.91
274.32	1767.40
274.54	1720.29
274.75	1687.53
274.97	1724.39
275.18	1714.15
275.40	1718.25
275.61	1738.73
275.83	1748.97
276.05	1628.14
276.26	1628.14
276.48	1808.36
276.69	1728.49
276.91	1650.66
277.12	1697.77
277.34	1691.62
277.55	1740.77
277.77	1712.10
277.99	1742.82
278.20	1677.29
278.42	1669.09
278.63	1654.76
278.85	1695.72
279.06	1656.81
279.28	1771.49
279.49	1710.05
279.71	1714.15
279.93	1650.66
280.14	1730.53
280.36	1658.85
280.57	1714.15
280.79	1712.10
281.00	1730.53
281.22	1640.42
281.43	1769.44
281.65	1667.05
281.86	1671.14
282.08	1730.53
282.29	1777.64
282.51	1640.42
282.73	1660.90
282.94	1593.32
283.16	1783.78
283.37	1759.21
283.59	1734.63
283.80	1720.29
284.02	1712.10
284.23	1767.40
284.45	1742.82
284.66	1626.09
284.88	1640.42
285.09	1744.87
285.31	1730.53
285.52	1751.01
285.74	1578.98
285.95	1775.59
286.17	1705.96
286.38	1714.15
286.60	1697.77
286.81	1722.34
287.03	1693.67
287.24	1712.10
287.46	1718.25
287.67	1751.01
287.89	1912.80
288.10	1640.42
288.32	1667.05
288.53	1796.07
288.75	1726.44
288.96	1734.63
289.18	1634.28
289.39	1679.33
289.61	1785.83
289.82	1900.52
290.04	1816.55
290.25	1693.67
290.47	1751.01
290.68	1685.48
290.90	1765.35
291.11	1705.96
291.33	1767.40
291.54	1638.38
291.76	1746.92
291.97	1759.21
292.18	1720.29
292.40	1648.61
292.61	1613.80
292.83	1798.12
293.04	1718.25
293.26	1726.44
293.47	1662.95
293.69	1714.15
293.90	1736.68
294.12	1791.97
294.33	1701.86
294.55	1712.10
294.76	1779.68
294.97	1806.31
295.19	1853.41
295.40	1701.86
295.62	1697.77
295.83	1720.29
296.05	1609.70
296.26	1816.55
296.48	1675.24
296.69	1701.86
296.90	1738.73
297.12	1687.53
297.33	1769.44
297.55	1705.96
297.76	1769.44
297.98	1736.68
298.19	1722.34
298.41	1669.09
298.62	1636.33
298.83	1779.68
299.05	1757.16
299.26	1730.53
299.48	1710.05
299.69	1794.02
299.90	1662.95
300.12	1628.14
300.33	1697.77
300.55	1751.01
300.76	1744.87
300.98	1630.18
301.19	1822.69
301.40	1669.09
301.62	1699.81
301.83	1677.29
302.05	1703.91
302.26	1726.44
302.47	1697.77
302.69	1611.75
302.90	1679.33
303.12	1595.37
303.33	1742.82
303.54	1845.22
303.76	1673.19
303.97	1640.42
304.19	1787.88
304.40	1638.38
304.61	1722.34
304.83	1748.97
305.04	1736.68
305.26	1712.10
305.47	1695.72
305.68	1726.44
305.90	1667.05
306.11	1736.68
306.33	1662.95
306.54	1685.48
306.75	1648.61
306.97	1607.66
307.18	1640.42
307.39	1703.91
307.61	1730.53
307.82	1648.61
308.04	1691.62
308.25	1597.42
308.46	1714.15
308.68	1767.40
308.89	1673.19
309.10	1806.31
309.32	1638.38
309.53	1710.05
309.74	1718.25
309.96	1759.21
310.17	1732.58
310.39	1699.81
310.60	1687.53
310.81	1677.29
311.03	1726.44
311.24	1771.49
311.45	1677.29
311.67	1783.78
311.88	1746.92
312.09	1634.28
312.31	1665.00
312.52	1658.85
312.73	1691.62
312.95	1552.36
313.16	1699.81
313.37	1828.84
313.59	1636.33
313.80	1753.06
314.01	1816.55
314.23	1665.00
314.44	1613.80
314.65	1658.85
314.87	1634.28
315.08	1693.67
315.29	1701.86
315.51	1673.19
315.72	1669.09
315.93	1767.40
316.15	1814.50
316.36	1714.15
316.57	1753.06
316.79	1705.96
317.00	1648.61
317.21	1763.30
317.43	1658.85
317.64	1710.05
317.85	1689.57
318.07	1656.81
318.28	1673.19
318.49	1771.49
318.70	1894.37
318.92	1871.84
319.13	1855.46
319.34	1880.04
319.56	1783.78
319.77	1738.73
319.98	1814.50
320.20	1751.01
320.41	1785.83
320.62	1791.97
320.83	1648.61
321.05	1861.60
321.26	1755.11
321.47	1794.02
321.69	1699.81
321.90	1689.57
322.11	1691.62
322.32	1738.73
322.54	1740.77
322.75	1583.08
322.96	1794.02
323.18	1660.90
323.39	1626.09
323.60	1697.77
323.81	1732.58
324.03	1658.85
324.24	1640.42
324.45	1671.14
324.66	1644.52
324.88	1736.68
325.09	1798.12
325.30	1701.86
325.52	1798.12
325.73	1753.06
325.94	1689.57
326.15	1636.33
326.37	1605.61
326.58	1771.49
326.79	1761.25
327.00	1640.42
327.22	1736.68
327.43	1679.33
327.64	1593.32
327.85	1771.49
328.07	1720.29
328.28	1796.07
328.49	1636.33
328.70	1636.33
328.92	1726.44
329.13	1662.95
329.34	1751.01
329.55	1857.51
329.76	1728.49
329.98	1775.59
330.19	1699.81
330.40	1812.45
330.61	1716.20
330.83	1841.12
331.04	1628.14
331.25	1732.58
331.46	1746.92
331.68	1615.85
331.89	1773.54
332.10	1755.11
332.31	1677.29
332.52	1732.58
332.74	1720.29
332.95	1658.85
333.16	1677.29
333.37	1730.53
333.58	1681.38
333.80	1738.73
334.01	1646.57
334.22	1742.82
334.43	1720.29
334.64	1646.57
334.86	1697.77
335.07	1681.38
335.28	1837.03
335.49	1689.57
335.70	1683.43
335.92	1748.97
336.13	1818.60
336.34	1744.87
336.55	1732.58
336.76	1740.77
336.98	1603.56
337.19	1683.43
337.40	1849.32
337.61	1828.84
337.82	1683.43
338.04	1759.21
338.25	1599.46
338.46	1714.15
338.67	1705.96
338.88	1705.96
339.09	1632.23
339.31	1662.95
339.52	1621.99
339.73	1662.95
339.94	1843.17
340.15	1771.49
340.36	1646.57
340.58	1699.81
340.79	1673.19
341.00	1763.30
341.21	1677.29
341.42	1767.40
341.63	1640.42
341.85	1796.07
342.06	1701.86
342.27	1601.51
342.48	1759.21
342.69	1624.04
342.90	1730.53
343.12	1699.81
343.33	1683.43
343.54	1703.91
343.75	1839.08
343.96	1691.62
344.17	1697.77
344.38	1673.19
344.60	1697.77
344.81	1632.23
345.02	1746.92
345.23	1726.44
345.44	1771.49
345.65	1730.53
345.86	1794.02
346.07	1742.82
346.29	1660.90
346.50	1734.63
346.71	1677.29
346.92	1822.69
347.13	1841.12
347.34	1724.39
347.55	1681.38
347.76	1685.48
347.98	1617.90
348.19	1710.05
348.40	1773.54
348.61	1624.04
348.82	1808.36
349.03	1759.21
349.24	1665.00
349.45	1826.79
349.66	1669.09
349.88	1667.05
350.09	1689.57
350.30	1748.97
350.51	1742.82
350.72	1734.63
350.93	1667.05
351.14	1644.52
351.35	1738.73
351.56	1685.48
351.77	1708.01
351.99	1759.21
352.20	1794.02
352.41	1759.21
352.62	1642.47
352.83	1681.38
353.04	1726.44
353.25	1599.46
353.46	1769.44
353.67	1828.84
353.88	1556.46
354.09	1751.01
354.30	1746.92
354.52	1769.44
354.73	1687.53
354.94	1662.95
355.15	1701.86
355.36	1824.74
355.57	1738.73
355.78	1759.21
355.99	1578.98
356.20	1648.61
356.41	1722.34
356.62	1705.96
356.83	1730.53
357.04	1800.16
357.25	1619.94
357.46	1734.63
357.68	1619.94
357.89	1712.10
358.10	1787.88
358.31	1724.39
358.52	1714.15
358.73	1681.38
358.94	1638.38
359.15	1689.57
359.36	1783.78
359.57	1703.91
359.78	1718.25
359.99	1710.05
360.20	1642.47
360.41	1712.10
360.62	1744.87
360.83	1820.64
361.04	1718.25
361.25	1761.25
361.46	1849.32
361.67	1730.53
361.88	1800.16
362.09	1814.50
362.30	1705.96
362.51	1738.73
362.72	1818.60
362.93	1755.11
363.14	1734.63
363.35	1705.96
363.56	1689.57
363.78	1751.01
363.99	1742.82
364.20	1615.85
364.41	1658.85
364.62	1824.74
364.83	1734.63
365.04	1689.57
365.25	1732.58
365.46	1748.97
365.67	1648.61
365.88	1656.81
366.09	1689.57
366.30	1716.20
366.51	1798.12
366.72	1714.15
366.93	1732.58
367.14	1748.97
367.35	1820.64
367.56	1712.10
367.77	1853.41
367.98	1673.19
368.18	1789.92
368.39	1759.21
368.60	1656.81
368.81	1787.88
369.02	1708.01
369.23	1683.43
369.44	1634.28
369.65	1710.05
369.86	1759.21
370.07	1808.36
370.28	1675.24
370.49	1742.82
370.70	1697.77
370.91	1603.56
371.12	1685.48
371.33	1751.01
371.54	1710.05
371.75	1806.31
371.96	1599.46
372.17	1697.77
372.38	1714.15
372.59	1787.88
372.80	1720.29
373.01	1687.53
373.22	1740.77
373.43	1738.73
373.64	1636.33
373.85	1834.98
374.06	1832.93
374.26	1787.88
374.47	1701.86
374.68	1779.68
374.89	1712.10
375.10	1787.88
375.31	1755.11
375.52	1714.15
375.73	1699.81
375.94	1705.96
376.15	1773.54
376.36	1660.90
376.57	1693.67
376.78	1734.63
376.99	1740.77
377.20	1816.55
377.40	1742.82
377.61	1773.54
377.82	1742.82
378.03	1859.56
378.24	1763.30
378.45	1654.76
378.66	1724.39
378.87	1619.94
379.08	1665.00
379.29	1728.49
379.50	1798.12
379.71	1652.71
379.91	1796.07
380.12	1714.15
380.33	1734.63
380.54	1716.20
380.75	1730.53
380.96	1716.20
381.17	1841.12
381.38	1705.96
381.59	1667.05
381.80	1697.77
382.00	1927.14
382.21	1677.29
382.42	1828.84
382.63	1875.94
382.84	1763.30
383.05	1826.79
383.26	1791.97
383.47	1679.33
383.68	1759.21
383.88	1728.49
384.09	1751.01
384.30	1822.69
384.51	1689.57
384.72	1650.66
384.93	1689.57
385.14	1728.49
385.35	1828.84
385.55	1585.13
385.76	1818.60
385.97	1779.68
386.18	1681.38
386.39	1710.05
386.60	1769.44
386.81	1652.71
387.02	1734.63
387.22	1683.43
387.43	1777.64
387.64	1791.97
387.85	1898.47
388.06	2142.18
388.27	4204.48
388.48	6715.29
388.68	7976.84
388.89	9598.83
389.10	9828.20
389.31	8640.38
389.52	7552.91
389.73	6719.39
389.93	6176.67
390.14	5857.19
390.35	5218.22
390.56	4560.83
390.77	3721.16
390.98	3102.67
391.18	2516.95
391.39	2164.70
391.60	1845.22
391.81	1845.22
392.02	1697.77
392.23	1857.51
392.43	1789.92
392.64	1759.21
392.85	1693.67
393.06	1791.97
393.27	1765.35
393.47	1687.53
393.68	1683.43
393.89	1714.15
394.10	1804.26
394.31	1681.38
394.52	1665.00
394.72	1683.43
394.93	1769.44
395.14	1613.80
395.35	1726.44
395.56	1689.57
395.76	1787.88
395.97	1849.32
396.18	1865.70
396.39	1818.60
396.60	1947.62
396.80	1902.56
397.01	1755.11
397.22	1837.03
397.43	1853.41
397.64	1773.54
397.84	1755.11
398.05	1837.03
398.26	1837.03
398.47	1787.88
398.67	1828.84
398.88	1828.84
399.09	1722.34
399.30	1710.05
399.51	1794.02
399.71	1724.39
399.92	1755.11
400.13	1685.48
400.34	1771.49
400.54	1744.87
400.75	1873.89
400.96	1714.15
401.17	1869.80
401.37	1748.97
401.58	1753.06
401.79	1728.49
402.00	1959.91
402.21	2095.07
402.41	1998.82
402.62	1994.72
402.83	1986.53
403.04	2023.39
403.24	2154.46
403.45	1841.12
403.66	1947.62
403.87	1892.32
404.07	1882.08
404.28	1900.52
404.49	1892.32
404.70	1748.97
404.90	1834.98
405.11	1742.82
405.32	1734.63
405.52	1695.72
405.73	1710.05
405.94	1693.67
406.15	1705.96
406.35	1777.64
406.56	1791.97
406.77	1734.63
406.98	1699.81
407.18	1611.75
407.39	1816.55
407.60	1658.85
407.80	1748.97
408.01	1734.63
408.22	1724.39
408.43	1687.53
408.63	1708.01
408.84	1703.91
409.05	1726.44
409.25	1640.42
409.46	1654.76
409.67	1738.73
409.88	1689.57
410.08	1705.96
410.29	1644.52
410.50	1769.44
410.70	1765.35
410.91	1667.05
411.12	1751.01
411.32	1773.54
411.53	1695.72
411.74	1849.32
411.95	1796.07
412.15	1775.59
412.36	1794.02
412.57	1769.44
412.77	1810.40
412.98	1751.01
413.19	1738.73
413.39	1740.77
413.60	1767.40
413.81	1763.30
414.01	1681.38
414.22	1746.92
414.43	1697.77
414.63	1662.95
414.84	1763.30
415.05	1740.77
415.25	1630.18
415.46	1779.68
415.67	1673.19
415.87	1708.01
416.08	1716.20
416.29	1761.25
416.49	1656.81
416.70	1718.25
416.91	1705.96
417.11	1679.33
417.32	1669.09
417.53	1701.86
417.73	1765.35
417.94	1769.44
418.15	1781.73
418.35	1771.49
418.56	1740.77
418.77	1820.64
418.97	1763.30
419.18	1744.87
419.38	1595.37
419.59	1703.91
419.80	1761.25
420.00	1705.96
420.21	1742.82
420.42	1771.49
420.62	1699.81
420.83	1755.11
421.04	1658.85
421.24	1736.68
421.45	1775.59
421.65	1779.68
421.86	1712.10
422.07	1763.30
422.27	1767.40
422.48	1714.15
422.69	1669.09
422.89	1716.20
423.10	1703.91
423.30	1712.10
423.51	1708.01
423.72	1738.73
423.92	1783.78
424.13	1595.37
424.33	1697.77
424.54	1816.55
424.75	1708.01
424.95	1763.30
425.16	1761.25
425.36	1730.53
425.57	1748.97
425.78	1685.48
425.98	1796.07
426.19	1652.71
426.39	1720.29
426.60	1789.92
426.81	1843.17
427.01	1769.44
427.22	1665.00
427.42	1572.84
427.63	1689.57
427.83	1804.26
428.04	1826.79
428.25	1769.44
428.45	1832.93
428.66	1775.59
428.86	1705.96
429.07	1673.19
429.28	1724.39
429.48	1726.44
429.69	1687.53
429.89	1738.73
430.10	1630.18
430.30	1763.30
430.51	1769.44
430.71	1634.28
430.92	1718.25
431.13	1667.05
431.33	1759.21
431.54	1712.10
431.74	1812.45
431.95	1855.46
432.15	1673.19
432.36	1775.59
432.56	1837.03
432.77	1851.36
432.98	1849.32
433.18	1744.87
433.39	1671.14
433.59	1693.67
433.80	1830.88
434.00	1847.27
434.21	1722.34
434.41	1681.38
434.62	1816.55
434.82	1640.42
435.03	1734.63
435.23	1748.97
435.44	1667.05
435.64	1703.91
435.85	1751.01
436.06	1726.44
436.26	1861.60
436.47	1699.81
436.67	1746.92
436.88	1691.62
437.08	1804.26
437.29	1828.84
437.49	1755.11
437.70	1791.97
437.90	1662.95
438.11	1816.55
438.31	1800.16
438.52	1791.97
438.72	1847.27
438.93	1894.37
439.13	1732.58
439.34	1779.68
439.54	1699.81
439.75	1796.07
439.95	1789.92
440.16	1738.73
440.36	1779.68
440.57	1789.92
440.77	1728.49
440.98	1812.45
441.18	1775.59
441.39	1767.40
441.59	1730.53
441.80	1824.74
442.00	1771.49
442.21	1816.55
442.41	1699.81
442.62	1828.84
442.82	1665.00
443.02	1822.69
443.23	1763.30
443.43	1742.82
443.64	1886.18
443.84	1730.53
444.05	1822.69
444.25	1705.96
444.46	1734.63
444.66	1791.97
444.87	1787.88
445.07	1675.24
445.28	1814.50
445.48	1855.46
445.69	1763.30
445.89	1847.27
446.09	1769.44
446.30	2050.02
446.50	2613.21
446.71	3825.61
446.91	4343.74
447.12	4732.86
447.32	4831.16
447.53	4304.83
447.73	3827.65
447.93	3581.90
448.14	3354.57
448.34	3147.73
448.55	2854.87
448.75	2840.53
448.96	2725.85
449.16	2306.01
449.36	2277.34
449.57	2121.70
449.77	1910.75
449.98	1832.93
450.18	1832.93
450.39	1871.84
450.59	1722.34
450.79	1656.81
451.00	1730.53
451.20	1890.28
451.41	1730.53
451.61	1812.45
451.81	1740.77
452.02	1746.92
452.22	1708.01
452.43	1736.68
452.63	1677.29
452.84	1667.05
453.04	1697.77
453.24	1816.55
453.45	1669.09
453.65	1830.88
453.86	1757.16
454.06	1812.45
454.26	1687.53
454.47	1746.92
454.67	1818.60
454.87	1763.30
455.08	1800.16
455.28	1837.03
455.49	1767.40
455.69	1658.85
455.89	1867.75
456.10	1902.56
456.30	1769.44
456.51	1824.74
456.71	1697.77
456.91	1806.31
457.12	1734.63
457.32	1669.09
457.52	1599.46
457.73	1822.69
457.93	1751.01
458.14	1722.34
458.34	1732.58
458.54	1720.29
458.75	1734.63
458.95	1812.45
459.15	1773.54
459.36	1804.26
459.56	1763.30
459.76	1865.70
459.97	1777.64
460.17	1705.96
460.37	1787.88
460.58	1771.49
460.78	1812.45
460.99	1757.16
461.19	1767.40
461.39	1689.57
461.60	1724.39
461.80	1728.49
462.00	1636.33
462.21	1722.34
462.41	1644.52
462.61	1679.33
462.82	1617.90
463.02	1703.91
463.22	1763.30
463.43	1814.50
463.63	1724.39
463.83	1767.40
464.04	1732.58
464.24	1763.30
464.44	1736.68
464.64	1781.73
464.85	1863.65
465.05	1742.82
465.25	1759.21
465.46	1726.44
465.66	1761.25
465.86	1712.10
466.07	1714.15
466.27	1697.77
466.47	1619.94
466.68	1726.44
466.88	1763.30
467.08	1757.16
467.29	1755.11
467.49	1714.15
467.69	1640.42
467.89	1767.40
468.10	1716.20
468.30	1701.86
468.50	1877.99
468.71	1736.68
468.91	1724.39
469.11	1818.60
469.31	1730.53
469.52	1679.33
469.72	1871.84
469.92	1810.40
470.13	1675.24
470.33	1753.06
470.53	1837.03
470.73	2115.55
470.94	2242.53
471.14	2254.81
471.34	2623.45
471.54	2410.46
471.75	2252.77
471.95	2054.11
472.15	2095.07
472.36	2168.80
472.56	2027.49
472.76	2080.74
472.96	2045.92
473.17	1853.41
473.37	1923.04
473.57	1822.69
473.77	1863.65
473.98	1828.84
474.18	1701.86
474.38	1902.56
474.58	1773.54
474.79	1730.53
474.99	1796.07
475.19	1759.21
475.39	1716.20
475.60	1748.97
475.80	1791.97
476.00	1724.39
476.20	1689.57
476.41	1746.92
476.61	1822.69
476.81	1841.12
477.01	1742.82
477.21	1894.37
477.42	1791.97
477.62	1744.87
477.82	1787.88
478.02	1748.97
478.23	1744.87
478.43	1634.28
478.63	1703.91
478.83	1699.81
479.03	1665.00
479.24	1841.12
479.44	1886.18
479.64	1681.38
479.84	1665.00
480.04	1660.90
480.25	1824.74
480.45	1718.25
480.65	1667.05
480.85	1857.51
481.06	1710.05
481.26	1726.44
481.46	1755.11
481.66	1763.30
481.86	1712.10
482.06	1847.27
482.27	1705.96
482.47	1660.90
482.67	1808.36
482.87	1691.62
483.07	1826.79
483.28	1683.43
483.48	1730.53
483.68	1699.81
483.88	1640.42
484.08	1554.41
484.29	1673.19
484.49	1728.49
484.69	1630.18
484.89	1757.16
485.09	1757.16
485.29	1710.05
485.50	1781.73
485.70	1632.23
485.90	1794.02
486.10	1732.58
486.30	1789.92
486.50	1724.39
486.71	1732.58
486.91	1820.64
487.11	1783.78
487.31	1644.52
487.51	1812.45
487.71	1628.14
487.91	1656.81
488.12	1669.09
488.32	1570.79
488.52	1669.09
488.72	1624.04
488.92	1804.26
489.12	1802.21
489.32	1900.52
489.53	1744.87
489.73	1673.19
489.93	1888.23
490.13	1685.48
490.33	1681.38
490.53	1734.63
490.73	1816.55
490.94	1732.58
491.14	1837.03
491.34	1802.21
491.54	2150.37
491.74	2586.58
491.94	2992.08
492.14	3059.67
492.34	3026.90
492.54	2734.04
492.75	2582.49
492.95	2443.23
493.15	2344.92
493.35	2289.63
493.55	2174.94
493.75	2129.89
493.95	2056.16
494.15	1986.53
494.35	1978.34
494.56	1740.77
494.76	1814.50
494.96	1888.23
495.16	1662.95
495.36	1775.59
495.56	1830.88
495.76	1783.78
495.96	1703.91
496.16	1712.10
496.36	1802.21
496.56	1808.36
496.77	1755.11
496.97	1785.83
497.17	1796.07
497.37	1648.61
497.57	1802.21
497.77	1718.25
497.97	1691.62
498.17	1652.71
498.37	1675.24
498.57	1789.92
498.77	1683.43
498.97	1783.78
499.17	1857.51
499.38	1769.44
499.58	1857.51
499.78	1771.49
499.98	1773.54
500.18	1814.50
500.38	1748.97
500.58	1914.85
500.78	2557.91
500.98	4546.49
501.18	5820.33
501.38	6733.72
501.58	6817.69
501.78	6746.01
501.98	5597.10
502.18	4964.28
502.38	4343.74
502.58	4161.47
502.78	3725.26
502.98	3755.97
503.18	3413.96
503.38	3149.78
503.59	2777.05
503.79	2701.27
503.99	2537.43
504.19	2285.53
504.39	2224.09
504.59	2174.94
504.79	2119.65
504.99	2056.16
505.19	1970.15
505.39	1906.66
505.59	1978.34
505.79	1937.38
505.99	1843.17
506.19	1767.40
506.39	1923.04
506.59	1794.02
506.79	1783.78
506.99	1861.60
507.19	1796.07
507.39	1794.02
507.59	1689.57
507.79	1685.48
507.99	1679.33
508.19	1785.83
508.39	1716.20
508.59	1669.09
508.79	1898.47
508.99	1877.99
509.19	1701.86
509.39	1834.98
509.59	1689.57
509.79	1708.01
509.99	1748.97
510.19	1789.92
510.39	1757.16
510.59	1695.72
510.79	1656.81
510.99	1613.80
511.19	1748.97
511.39	1800.16
511.59	1796.07
511.79	1781.73
511.99	1751.01
512.19	1882.08
512.38	1783.78
512.58	1718.25
512.78	1789.92
512.98	1804.26
513.18	1863.65
513.38	1621.99
513.58	1804.26
513.78	1724.39
513.98	1681.38
514.18	1724.39
514.38	1806.31
514.58	1839.08
514.78	1718.25
514.98	1671.14
515.18	1767.40
515.38	1660.90
515.58	1853.41
515.78	1773.54
515.98	1732.58
516.18	1753.06
516.38	1761.25
516.57	1757.16
516.77	1718.25
516.97	1820.64
517.17	1789.92
517.37	1624.04
517.57	1714.15
517.77	1736.68
517.97	1705.96
518.17	1779.68
518.37	1652.71
518.57	1757.16
518.77	1755.11
518.97	1767.40
519.16	1710.05
519.36	1800.16
519.56	1681.38
519.76	1705.96
519.96	1714.15
520.16	1718.25
520.36	1662.95
520.56	1791.97
520.76	1669.09
520.96	1783.78
521.16	1791.97
521.35	1791.97
521.55	1837.03
521.75	1742.82
521.95	1734.63
522.15	1751.01
522.35	1644.52
522.55	1697.77
522.75	1841.12
522.95	1779.68
523.14	1636.33
523.34	1718.25
523.54	1693.67
523.74	1800.16
523.94	1837.03
524.14	1658.85
524.34	1818.60
524.54	1849.32
524.73	1673.19
524.93	1771.49
525.13	1662.95
525.33	1665.00
525.53	1869.80
525.73	1818.60
525.93	1773.54
526.13	1681.38
526.32	1738.73
526.52	1771.49
526.72	1820.64
526.92	1779.68
527.12	1740.77
527.32	1638.38
527.52	1781.73
527.71	1757.16
527.91	1755.11
528.11	1742.82
528.31	1744.87
528.51	1710.05
528.71	1826.79
528.90	1755.11
529.10	1746.92
529.30	1910.75
529.50	1630.18
529.70	1693.67
529.90	1689.57
530.09	1728.49
530.29	1632.23
530.49	1697.77
530.69	1830.88
530.89	1734.63
531.09	1824.74
531.28	1751.01
531.48	1800.16
531.68	1832.93
531.88	1777.64
532.08	1726.44
532.28	1675.24
532.47	1691.62
532.67	1796.07
532.87	1748.97
533.07	1716.20
533.27	1765.35
533.46	1794.02
533.66	1697.77
533.86	1685.48
534.06	1724.39
534.26	1800.16
534.45	1708.01
534.65	1839.08
534.85	1687.53
535.05	1742.82
535.25	1767.40
535.44	1646.57
535.64	1769.44
535.84	1718.25
536.04	1757.16
536.24	1730.53
536.43	1716.20
536.63	1773.54
536.83	1791.97
537.03	1683.43
537.22	1667.05
537.42	1642.47
537.62	1785.83
537.82	1767.40
538.02	1832.93
538.21	1812.45
538.41	1886.18
538.61	1722.34
538.81	1765.35
539.00	1775.59
539.20	1748.97
539.40	1742.82
539.60	1808.36
539.79	1789.92
539.99	1755.11
540.19	1640.42
540.39	1660.90
540.58	1736.68
540.78	1798.12
540.98	1755.11
541.18	1808.36
541.37	1773.54
541.57	1703.91
541.77	1853.41
541.97	1746.92
542.16	1761.25
542.36	1654.76
542.56	1767.40
542.76	1843.17
542.95	1822.69
543.15	1779.68
543.35	1796.07
543.54	1699.81
543.74	1701.86
543.94	1849.32
544.14	1744.87
544.33	1714.15
544.53	1705.96
544.73	1673.19
544.93	1796.07
545.12	1736.68
545.32	1693.67
545.52	1638.38
545.71	1748.97
545.91	1773.54
546.11	1720.29
546.30	1697.77
546.50	1791.97
546.70	1791.97
546.90	1714.15
547.09	1683.43
547.29	1701.86
547.49	1820.64
547.68	1716.20
547.88	1732.58
548.08	1791.97
548.27	2207.71
548.47	1710.05
548.67	1708.01
548.87	1742.82
549.06	1744.87
549.26	1744.87
549.46	1812.45
549.65	1671.14
549.85	1818.60
550.05	1824.74
550.24	1705.96
550.44	1781.73
550.64	1796.07
550.83	1722.34
551.03	1869.80
551.23	1804.26
551.42	1798.12
551.62	1785.83
551.82	1763.30
552.01	1767.40
552.21	1753.06
552.41	1787.88
552.60	1837.03
552.80	1656.81
553.00	1722.34
553.19	1794.02
553.39	1824.74
553.59	1708.01
553.78	1720.29
553.98	1791.97
554.17	1697.77
554.37	1681.38
554.57	1814.50
554.76	1740.77
554.96	1755.11
555.16	1755.11
555.35	1728.49
555.55	1744.87
555.75	1689.57
555.94	1855.46
556.14	1595.37
556.33	1783.78
556.53	1722.34
556.73	1851.36
556.92	1851.36
557.12	1794.02
557.32	1851.36
557.51	1820.64
557.71	1794.02
557.90	1767.40
558.10	1806.31
558.30	1746.92
558.49	1732.58
558.69	1693.67
558.88	1814.50
559.08	1763.30
559.28	1824.74
559.47	1800.16
559.67	1828.84
559.86	1957.86
560.06	1798.12
560.26	1777.64
560.45	1800.16
560.65	1712.10
560.84	1779.68
561.04	1732.58
561.24	1800.16
561.43	1652.71
561.63	1789.92
561.82	1818.60
562.02	1761.25
562.22	1714.15
562.41	1695.72
562.61	1701.86
562.80	1794.02
563.00	1832.93
563.19	1820.64
563.39	1761.25
563.59	1730.53
563.78	1761.25
563.98	1638.38
564.17	1681.38
564.37	1689.57
564.56	1759.21
564.76	1669.09
564.96	1822.69
565.15	1837.03
565.35	1875.94
565.54	1740.77
565.74	1771.49
565.93	1804.26
566.13	1695.72
566.32	1791.97
566.52	1771.49
566.71	1677.29
566.91	1806.31
567.11	1740.77
567.30	1740.77
567.50	1763.30
567.69	1753.06
567.89	1736.68
568.08	1718.25
568.28	1791.97
568.47	1677.29
568.67	1826.79
568.86	1738.73
569.06	1759.21
569.25	1789.92
569.45	1673.19
569.64	1669.09
569.84	1720.29
570.04	1794.02
570.23	1714.15
570.43	1681.38
570.62	1769.44
570.82	1767.40
571.01	1701.86
571.21	1751.01
571.40	1728.49
571.60	1800.16
571.79	1781.73
571.99	1796.07
572.18	1742.82
572.38	1740.77
572.57	1759.21
572.77	1810.40
572.96	1873.89
573.16	1773.54
573.35	1753.06
573.55	1804.26
573.74	1765.35
573.94	1751.01
574.13	1767.40
574.33	1880.04
574.52	1834.98
574.71	1816.55
574.91	1746.92
575.10	1656.81
575.30	1794.02
575.49	1755.11
575.69	1718.25
575.88	1769.44
576.08	1734.63
576.27	1806.31
576.47	1740.77
576.66	1828.84
576.86	1734.63
577.05	1738.73
577.25	1800.16
577.44	1839.08
577.64	1757.16
577.83	1779.68
578.02	1794.02
578.22	1843.17
578.41	1849.32
578.61	1724.39
578.80	1744.87
579.00	1765.35
579.19	1742.82
579.39	1742.82
579.58	1781.73
579.77	1775.59
579.97	1787.88
580.16	1843.17
580.36	1822.69
580.55	1869.80
580.75	1746.92
580.94	1779.68
581.13	1861.60
581.33	1865.70
581.52	1804.26
581.72	1851.36
581.91	1824.74
582.11	1779.68
582.30	1802.21
582.49	1767.40
582.69	1851.36
582.88	1857.51
583.08	1734.63
583.27	1839.08
583.47	1777.64
583.66	1738.73
583.85	1730.53
584.05	1716.20
584.24	1791.97
584.44	1798.12
584.63	1794.02
584.82	1845.22
585.02	1875.94
585.21	1863.65
585.41	1783.78
585.60	1839.08
585.79	1947.62
585.99	1976.29
586.18	1828.84
586.37	2185.18
586.57	3416.01
586.76	9893.74
586.96	24364.68
587.15	34088.44
587.34	40244.63
587.54	41831.81
587.73	36443.60
587.93	26173.04
588.12	21634.74
588.31	18294.50
588.51	16170.76
588.70	15091.48
588.89	13993.77
589.09	12490.56
589.28	10841.95
589.47	9514.86
589.67	7800.71
589.86	6367.13
590.06	4874.17
590.25	3887.04
590.44	3065.81
590.64	2492.38
590.83	2326.49
591.02	2090.98
591.22	2035.68
591.41	1863.65
591.60	1855.46
591.80	2009.06
591.99	1722.34
592.18	1802.21
592.38	1808.36
592.57	1701.86
592.76	1869.80
592.96	1779.68
593.15	1859.56
593.34	1877.99
593.54	1834.98
593.73	1802.21
593.92	1843.17
594.12	1705.96
594.31	1742.82
594.50	1785.83
594.70	1810.40
594.89	1896.42
595.08	1679.33
595.28	1779.68
595.47	1888.23
595.66	1789.92
595.86	1701.86
596.05	1673.19
596.24	1753.06
596.43	1853.41
596.63	1898.47
596.82	1796.07
597.01	1804.26
597.21	1968.10
597.40	1804.26
597.59	1753.06
597.79	1716.20
597.98	1820.64
598.17	1767.40
598.36	1701.86
598.56	1832.93
598.75	1742.82
598.94	1767.40
599.14	1757.16
599.33	1679.33
599.52	1796.07
599.71	1804.26
599.91	1839.08
600.10	1785.83
600.29	1736.68
600.48	1796.07
600.68	1765.35
600.87	1751.01
601.06	1675.24
601.26	1722.34
601.45	1789.92
601.64	1701.86
601.83	1849.32
602.03	1730.53
602.22	1746.92
602.41	1769.44
602.60	1929.19
602.80	1791.97
602.99	1718.25
603.18	1665.00
603.37	1812.45
603.57	1699.81
603.76	1865.70
603.95	1804.26
604.14	1767.40
604.34	1724.39
604.53	1736.68
604.72	1806.31
604.91	1714.15
605.10	1736.68
605.30	1632.23
605.49	1894.37
605.68	1763.30
605.87	1789.92
606.07	1748.97
606.26	1802.21
606.45	1789.92
606.64	1798.12
606.84	1705.96
607.03	1761.25
607.22	1730.53
607.41	1691.62
607.60	1736.68
607.80	1787.88
607.99	1726.44
608.18	1783.78
608.37	1796.07
608.56	1740.77
608.76	1800.16
608.95	1777.64
609.14	1763.30
609.33	1767.40
609.52	1785.83
609.72	1701.86
609.91	1832.93
610.10	1730.53
610.29	1810.40
610.48	1847.27
610.68	1765.35
610.87	1697.77
611.06	1824.74
611.25	1683.43
611.44	1798.12
611.63	1716.20
611.83	1773.54
612.02	1718.25
612.21	1824.74
612.40	1697.77
612.59	1775.59
612.79	1675.24
612.98	1771.49
613.17	1808.36
613.36	1724.39
613.55	1800.16
613.74	1730.53
613.93	1742.82
614.13	1722.34
614.32	1759.21
614.51	1773.54
614.70	1794.02
614.89	1658.85
615.08	1767.40
615.28	2050.02
615.47	1714.15
615.66	1744.87
615.85	1753.06
616.04	1800.16
616.23	1722.34
616.42	1708.01
616.62	1818.60
616.81	1730.53
617.00	1787.88
617.19	1722.34
617.38	1769.44
617.57	1746.92
617.76	1722.34
617.95	1689.57
618.15	1789.92
618.34	1738.73
618.53	1687.53
618.72	1767.40
618.91	1787.88
619.10	1742.82
619.29	1740.77
619.48	1732.58
619.68	1660.90
619.87	1689.57
620.06	1673.19
620.25	1732.58
620.44	1720.29
620.63	1716.20
620.82	1730.53
621.01	1728.49
621.20	1798.12
621.39	1708.01
621.59	1734.63
621.78	1691.62
621.97	1783.78
622.16	1877.99
622.35	1716.20
622.54	1818.60
622.73	1789.92
622.92	1660.90
623.11	1785.83
623.30	1732.58
623.49	1775.59
623.68	1683.43
623.88	1796.07
624.07	1742.82
624.26	1726.44
624.45	1841.12
624.64	1740.77
624.83	1695.72
625.02	1744.87
625.21	1746.92
625.40	1730.53
625.59	1697.77
625.78	1681.38
625.97	1806.31
626.16	1806.31
626.35	1785.83
626.54	1796.07
626.74	1789.92
626.93	1665.00
627.12	1660.90
627.31	1798.12
627.50	1767.40
627.69	1791.97
627.88	1681.38
628.07	1781.73
628.26	1701.86
628.45	1763.30
628.64	1693.67
628.83	1751.01
629.02	1730.53
629.21	1791.97
629.40	1787.88
629.59	1646.57
629.78	1714.15
629.97	1695.72
630.16	1703.91
630.35	1716.20
630.54	1656.81
630.73	1732.58
630.92	1740.77
631.11	1710.05
631.30	1708.01
631.49	1847.27
631.68	1677.29
631.87	1697.77
632.06	1732.58
632.25	1857.51
632.44	1742.82
632.63	1732.58
632.82	1753.06
633.01	1675.24
633.20	1687.53
633.39	1693.67
633.58	1617.90
633.77	1808.36
633.96	1755.11
634.15	1869.80
634.34	1718.25
634.53	1732.58
634.72	1658.85
634.91	1753.06
635.10	1789.92
635.29	1681.38
635.48	1742.82
635.67	1761.25
635.86	1593.32
636.05	1837.03
636.24	1794.02
636.43	1722.34
636.62	1722.34
636.81	1597.42
637.00	1699.81
637.19	1767.40
637.38	1759.21
637.57	1601.51
637.76	1677.29
637.95	1736.68
638.14	1605.61
638.33	1789.92
638.52	1675.24
638.71	1708.01
638.89	1630.18
639.08	1832.93
639.27	1806.31
639.46	1800.16
639.65	1812.45
639.84	1718.25
640.03	1693.67
640.22	1773.54
640.41	1812.45
640.60	1714.15
640.79	1748.97
640.98	1648.61
641.17	1781.73
641.36	1705.96
641.55	1773.54
641.74	1656.81
641.92	1558.50
642.11	1673.19
642.30	1673.19
642.49	1669.09
642.68	1673.19
642.87	1759.21
643.06	1738.73
643.25	1748.97
643.44	1712.10
643.63	1675.24
643.82	1691.62
644.00	1716.20
644.19	1802.21
644.38	1650.66
644.57	1746.92
644.76	1773.54
644.95	1740.77
645.14	1804.26
645.33	1720.29
645.52	1697.77
645.71	1738.73
645.89	1646.57
646.08	1714.15
646.27	1742.82
646.46	1804.26
646.65	1544.17
646.84	1675.24
647.03	1689.57
647.22	1814.50
647.40	1755.11
647.59	1689.57
647.78	1703.91
647.97	1656.81
648.16	1710.05
648.35	1806.31
648.54	1808.36
648.73	1687.53
648.91	1785.83
649.10	1744.87
649.29	1738.73
649.48	1779.68
649.67	1726.44
649.86	1689.57
650.05	1636.33
650.23	1759.21
650.42	1697.77
650.61	1783.78
650.80	1769.44
650.99	1865.70
651.18	1730.53
651.36	1662.95
651.55	1689.57
651.74	1705.96
651.93	1654.76
652.12	1687.53
652.31	1818.60
652.49	1732.58
652.68	1728.49
652.87	1748.97
653.06	1722.34
653.25	1779.68
653.44	1753.06
653.62	1849.32
653.81	1718.25
654.00	1765.35
654.19	1806.31
654.38	1892.32
654.56	1675.24
654.75	1746.92
654.94	1718.25
655.13	1775.59
655.32	1779.68
655.51	1738.73
655.69	1693.67
655.88	1785.83
656.07	1701.86
656.26	1755.11
656.45	1644.52
656.63	1744.87
656.82	1689.57
657.01	1851.36
657.20	1746.92
657.38	1839.08
657.57	1701.86
657.76	1611.75
657.95	1701.86
658.14	1761.25
658.32	1681.38
658.51	1624.04
658.70	1726.44
658.89	1814.50
659.08	1718.25
659.26	1851.36
659.45	1701.86
659.64	1785.83
659.83	1642.47
660.01	1886.18
660.20	1693.67
660.39	1791.97
660.58	1662.95
660.76	1699.81
660.95	1705.96
661.14	1662.95
661.33	1761.25
661.51	1759.21
661.70	1753.06
661.89	1693.67
662.08	1716.20
662.26	1667.05
662.45	1640.42
662.64	1816.55
662.83	1753.06
663.01	1634.28
663.20	1654.76
663.39	1832.93
663.58	1617.90
663.76	1730.53
663.95	1705.96
664.14	1679.33
664.32	1675.24
664.51	1658.85
664.70	1619.94
664.89	1705.96
665.07	1681.38
665.26	1810.40
665.45	1624.04
665.64	1806.31
665.82	1708.01
666.01	1775.59
666.20	1699.81
666.38	1785.83
666.57	1757.16
666.76	2144.22
666.95	4624.31
667.13	10577.76
667.32	15343.38
667.51	18058.99
667.69	19091.16
667.88	17643.25
668.07	12138.31
668.25	9416.56
668.44	8175.49
668.63	7374.74
668.81	6795.16
669.00	6240.16
669.19	5814.18
669.38	5177.26
669.56	4609.98
669.75	4104.13
669.94	3375.05
670.12	2854.87
670.31	2535.39
670.50	2211.81
670.68	2019.30
670.87	1923.04
671.06	1781.73
671.24	1820.64
671.43	1806.31
671.62	1685.48
671.80	1722.34
671.99	1763.30
672.18	1755.11
672.36	1818.60
672.55	1744.87
672.74	1693.67
672.92	1734.63
673.11	1734.63
673.29	1701.86
673.48	1763.30
673.67	1740.77
673.85	1806.31
674.04	1611.75
674.23	1693.67
674.41	1867.75
674.60	1671.14
674.79	1665.00
674.97	1615.85
675.16	1769.44
675.34	1816.55
675.53	1697.77
675.72	1828.84
675.90	1794.02
676.09	1669.09
676.28	1755.11
676.46	1660.90
676.65	1763.30
676.83	1648.61
677.02	1800.16
677.21	1679.33
677.39	1728.49
677.58	1730.53
677.77	1796.07
677.95	1742.82
678.14	1697.77
678.32	1746.92
678.51	1630.18
678.70	1834.98
678.88	1710.05
679.07	1697.77
679.25	1685.48
679.44	1720.29
679.63	1669.09
679.81	1730.53
680.00	1791.97
680.18	1767.40
680.37	1857.51
680.55	1730.53
680.74	1642.47
680.93	1662.95
681.11	1787.88
681.30	1697.77
681.48	1771.49
681.67	1673.19
681.85	1640.42
682.04	1660.90
682.23	1861.60
682.41	1740.77
682.60	1689.57
682.78	1703.91
682.97	1695.72
683.15	1765.35
683.34	1744.87
683.53	1814.50
683.71	1638.38
683.90	1869.80
684.08	1814.50
684.27	1710.05
684.45	1703.91
684.64	1816.55
684.82	1660.90
685.01	1681.38
685.19	1687.53
685.38	1892.32
685.57	1720.29
685.75	1712.10
685.94	1685.48
686.12	1660.90
686.31	1730.53
686.49	1738.73
686.68	1593.32
686.86	1789.92
687.05	1703.91
687.23	1826.79
687.42	1615.85
687.60	1751.01
687.79	1769.44
687.97	1798.12
688.16	1734.63
688.34	1771.49
688.53	1560.55
688.71	1775.59
688.90	1861.60
689.08	1697.77
689.27	1607.66
689.45	1787.88
689.64	1755.11
689.82	1806.31
690.01	1746.92
690.19	1744.87
690.38	1689.57
690.56	1824.74
690.75	1701.86
690.93	1724.39
691.12	1665.00
691.30	1705.96
691.49	1685.48
691.67	1685.48
691.86	1863.65
692.04	1644.52
692.23	1677.29
692.41	1646.57
692.60	1841.12
692.78	1822.69
692.97	1724.39
693.15	1718.25
693.34	1820.64
693.52	1769.44
693.71	1697.77
693.89	1697.77
694.08	1650.66
694.26	1812.45
694.44	1734.63
694.63	1677.29
694.81	1732.58
695.00	1710.05
695.18	1779.68
695.37	1882.08
695.55	1669.09
695.74	1697.77
695.92	1648.61
696.10	1757.16
696.29	1634.28
696.47	1693.67
696.66	1732.58
696.84	1728.49
697.03	1673.19
697.21	1839.08
697.40	2381.79
697.58	1812.45
697.76	1646.57
697.95	1691.62
698.13	1673.19
698.32	1669.09
698.50	1693.67
698.68	1710.05
698.87	1665.00
699.05	1798.12
699.24	1724.39
699.42	1646.57
699.61	1714.15
699.79	1693.67
699.97	1779.68
700.16	1703.91
700.34	1662.95
700.53	1673.19
700.71	1783.78
700.89	1777.64
701.08	1619.94
701.26	1720.29
701.45	2195.42
701.63	1671.14
701.81	1695.72
702.00	1705.96
702.18	1691.62
702.37	1703.91
702.55	1714.15
702.73	1718.25
702.92	1652.71
703.10	1812.45
703.28	1734.63
703.47	1705.96
703.65	1794.02
703.84	1804.26
704.02	1681.38
704.20	1812.45
704.39	1656.81
704.57	1769.44
704.75	1732.58
704.94	1785.83
705.12	1720.29
705.30	1857.51
705.49	2236.38
705.67	4370.37
705.86	9494.38
706.04	12705.60
706.22	14454.56
706.41	15370.01
706.59	13741.87
706.77	9635.69
706.96	7194.51
707.14	6494.11
707.32	5904.29
707.51	5593.00
707.69	4929.46
707.87	4022.21
708.06	3485.64
708.24	2990.03
708.42	2340.83
708.61	2222.05
708.79	1861.60
708.97	1877.99
709.16	1816.55
709.34	1812.45
709.52	1763.30
709.71	1732.58
709.89	1771.49
710.07	1685.48
710.26	1763.30
710.44	1767.40
710.62	1775.59
710.80	1710.05
710.99	1779.68
711.17	1791.97
711.35	1671.14
711.54	1726.44
711.72	1755.11
711.90	1869.80
712.09	1642.47
712.27	1654.76
712.45	1769.44
712.63	1740.77
712.82	1720.29
713.00	1644.52
713.18	1730.53
713.37	1689.57
713.55	1730.53
713.73	1761.25
713.91	1763.30
714.10	1697.77
714.28	1695.72
714.46	1681.38
714.65	1685.48
714.83	1765.35
715.01	1699.81
715.19	1712.10
715.38	1675.24
715.56	1730.53
715.74	1748.97
715.92	1673.19
716.11	1710.05
716.29	1652.71
716.47	1734.63
716.65	1603.56
716.84	1611.75
717.02	1759.21
717.20	1632.23
717.38	1738.73
717.57	1681.38
717.75	1779.68
717.93	1683.43
718.11	1722.34
718.30	1624.04
718.48	1791.97
718.66	1744.87
718.84	1761.25
719.03	1701.86
719.21	1757.16
719.39	1808.36
719.57	1808.36
719.75	1794.02
719.94	1640.42
720.12	1687.53
720.30	1703.91
720.48	1753.06
720.67	1677.29
720.85	1718.25
721.03	1751.01
721.21	1699.81
721.39	1765.35
721.58	1775.59
721.76	1705.96
721.94	1746.92
722.12	1738.73
722.30	1796.07
722.49	1685.48
722.67	1718.25
722.85	1742.82
723.03	1689.57
723.21	1683.43
723.40	1656.81
723.58	1748.97
723.76	1748.97
723.94	1705.96
724.12	1814.50
724.30	1763.30
724.49	1701.86
724.67	1624.04
724.85	1789.92
725.03	1615.85
725.21	1849.32
725.40	1746.92
725.58	1632.23
725.76	1769.44
725.94	1701.86
726.12	1624.04
726.30	1755.11
726.49	1718.25
726.67	1658.85
726.85	1732.58
727.03	1818.60
727.21	2129.89
727.39	2979.79
727.57	3811.27
727.76	4222.91
727.94	4380.61
728.12	4255.68
728.30	3657.67
728.48	2897.88
728.66	2772.95
728.84	2588.63
729.03	2301.92
729.21	2201.57
729.39	2009.06
729.57	1853.41
729.75	1853.41
729.93	1855.46
730.11	1710.05
730.30	1714.15
730.48	1689.57
730.66	1789.92
730.84	1775.59
731.02	1708.01
731.20	1818.60
731.38	1714.15
731.56	1693.67
731.74	1650.66
731.93	1724.39
732.11	1701.86
732.29	1685.48
732.47	1763.30
732.65	1777.64
732.83	1759.21
733.01	1746.92
733.19	1585.13
733.37	1791.97
733.56	1816.55
733.74	1746.92
733.92	1757.16
734.10	1654.76
734.28	1716.20
734.46	1679.33
734.64	1708.01
734.82	1642.47
735.00	1642.47
735.18	1742.82
735.36	1771.49
735.54	1691.62
735.73	1751.01
735.91	1748.97
736.09	1705.96
736.27	1746.92
736.45	1701.86
736.63	1679.33
736.81	1718.25
736.99	1771.49
737.17	1777.64
737.35	1671.14
737.53	1671.14
737.71	1779.68
737.89	1734.63
738.07	1697.77
738.25	1755.11
738.43	1634.28
738.61	1683.43
738.80	1708.01
738.98	1583.08
739.16	1751.01
739.34	1673.19
739.52	1759.21
739.70	1712.10
739.88	1730.53
740.06	1779.68
740.24	1615.85
740.42	1806.31
740.60	1593.32
740.78	1671.14
740.96	1562.60
741.14	1677.29
741.32	1710.05
741.50	1675.24
741.68	1802.21
741.86	1828.84
742.04	1558.50
742.22	1628.14
742.40	1628.14
742.58	1843.17
742.76	1671.14
742.94	1755.11
743.12	1683.43
743.30	1693.67
743.48	1755.11
743.66	1691.62
743.84	1683.43
744.02	1732.58
744.20	1685.48
744.38	1759.21
744.56	1710.05
744.74	1877.99
744.92	1818.60
745.10	1841.12
745.28	1740.77
745.46	1826.79
745.64	1730.53
745.82	1738.73
746.00	1677.29
746.18	1689.57
746.36	1654.76
746.54	1705.96
746.72	1662.95
746.90	1665.00
747.08	1746.92
747.26	1685.48
747.44	1783.78
747.62	1742.82
747.80	1779.68
747.98	1746.92
748.15	1673.19
748.33	1826.79
748.51	1736.68
748.69	1765.35
748.87	1662.95
749.05	1728.49
749.23	1675.24
749.41	1740.77
749.59	1732.58
749.77	1841.12
749.95	1691.62
750.13	1624.04
750.31	1759.21
750.49	1712.10
750.67	1728.49
750.85	1789.92
751.03	1724.39
751.20	1763.30
751.38	1714.15
751.56	1705.96
751.74	1646.57
751.92	1712.10
752.10	1667.05
752.28	1767.40
752.46	1675.24
752.64	1621.99
752.82	1798.12
753.00	1789.92
753.18	1667.05
753.35	1724.39
753.53	1650.66
753.71	1697.77
753.89	1740.77
754.07	1720.29
754.25	1718.25
754.43	1708.01
754.61	1636.33
754.79	1816.55
754.97	1779.68
755.14	1867.75
755.32	1697.77
755.50	1740.77
755.68	1759.21
755.86	1689.57
756.04	1734.63
756.22	1683.43
756.40	1722.34
756.57	1812.45
756.75	1794.02
756.93	1730.53
757.11	1695.72
757.29	1732.58
757.47	1785.83
757.65	1611.75
757.82	1646.57
758.00	1605.61
758.18	1689.57
758.36	1687.53
758.54	1853.41
758.72	1687.53
758.90	1732.58
759.07	1701.86
759.25	1691.62
759.43	1699.81
759.61	1726.44
759.79	2299.87
759.97	1824.74
760.15	1669.09
760.32	1724.39
760.50	1662.95
760.68	1773.54
760.86	1628.14
761.04	1806.31
761.22	1705.96
761.39	1761.25
761.57	1742.82
761.75	1724.39
761.93	1722.34
762.11	1724.39
762.28	1712.10
762.46	1705.96
762.64	1847.27
762.82	1652.71
763.00	1673.19
763.18	1751.01
763.35	1658.85
763.53	1732.58
763.71	1755.11
763.89	1693.67
764.07	1732.58
764.24	1693.67
764.42	1718.25
764.60	1687.53
764.78	1722.34
764.96	1724.39
765.13	1708.01
765.31	1726.44
765.49	1753.06
765.67	1599.46
765.84	1697.77
766.02	1660.90
766.20	1632.23
766.38	1783.78
766.56	1791.97
766.73	1710.05
766.91	1748.97
767.09	1705.96
767.27	1732.58
767.44	1609.70
767.62	1728.49
767.80	1779.68
767.98	1699.81
768.15	1691.62
768.33	1810.40
768.51	1732.58
768.69	1777.64
768.87	1828.84
769.04	1699.81
769.22	1845.22
769.40	1818.60
769.58	1841.12
769.75	1746.92
769.93	1767.40
770.11	1671.14
770.28	1603.56
770.46	1732.58
770.64	1738.73
770.82	1759.21
770.99	1689.57
771.17	1726.44
771.35	1665.00
771.53	1671.14
771.70	1710.05
771.88	1767.40
772.06	1724.39
772.23	1714.15
772.41	1746.92
772.59	1642.47
772.77	1642.47
772.94	1728.49
773.12	1685.48
773.30	1710.05
773.47	1724.39
773.65	1716.20
773.83	1785.83
774.01	1710.05
774.18	1552.36
774.36	1732.58
774.54	1615.85
774.71	1673.19
774.89	1607.66
775.07	1708.01
775.24	1683.43
775.42	1619.94
775.60	1714.15
775.78	1654.76
775.95	1693.67
776.13	1636.33
776.31	1617.90
776.48	1722.34
776.66	1785.83
776.84	1689.57
777.01	1648.61
777.19	1646.57
777.37	1718.25
777.54	1730.53
777.72	1787.88
777.90	1777.64
778.07	1642.47
778.25	1877.99
778.43	1726.44
778.60	1718.25
778.78	1775.59
778.96	1834.98
779.13	1640.42
779.31	1763.30
779.49	1689.57
779.66	1683.43
779.84	1738.73
780.01	1728.49
780.19	1732.58
780.37	1783.78
780.54	1800.16
780.72	1740.77
780.90	1716.20
781.07	1736.68
781.25	1689.57
781.43	1781.73
781.60	1681.38
781.78	1710.05
781.95	1689.57
782.13	1681.38
782.31	1734.63
782.48	1587.18
782.66	1740.77
782.83	1851.36
783.01	1753.06
783.19	1861.60
783.36	1677.29
783.54	1685.48
783.72	1765.35
783.89	1738.73
784.07	1689.57
784.24	1751.01
784.42	1845.22
784.60	1712.10
784.77	1744.87
784.95	1523.69
785.12	1708.01
785.30	1656.81
785.47	1697.77
785.65	1697.77
785.83	1703.91
786.00	1660.90
786.18	1708.01
786.35	1597.42
786.53	1714.15
786.71	1701.86
786.88	1662.95
787.06	1691.62
787.23	1685.48
787.41	1632.23
787.58	1718.25
787.76	1654.76
787.94	1693.67
788.11	1755.11
788.29	1695.72
788.46	1665.00
788.64	1609.70
788.81	1720.29
788.99	1677.29
789.16	1662.95
789.34	1724.39
789.52	1669.09
789.69	1714.15
789.87	1671.14
790.04	1697.77
790.22	1708.01
790.39	1761.25
790.57	1636.33
790.74	1650.66
790.92	1791.97
791.09	1728.49
791.27	1712.10
791.44	1771.49
791.62	1779.68
791.79	1771.49
791.97	1732.58
792.15	1900.52
792.32	1759.21
792.50	1761.25
792.67	1761.25
792.85	1732.58
793.02	1789.92
793.20	1701.86
793.37	1597.42
793.55	1628.14
793.72	1703.91
793.90	1714.15
794.07	1744.87
794.25	1673.19
794.42	1755.11
794.60	1722.34
794.77	1771.49
794.95	1740.77
795.12	1771.49
795.30	1785.83
795.47	1591.27
795.65	1834.98
795.82	1740.77
796.00	1679.33
796.17	1716.20
796.34	1697.77
796.52	1785.83
796.69	1822.69
796.87	1818.60
797.04	1679.33
797.22	1777.64
797.39	1683.43
797.57	1804.26
797.74	1732.58
797.92	1728.49
798.09	1679.33
798.27	1767.40
798.44	1730.53
798.62	1658.85
798.79	1693.67
798.96	1742.82
799.14	1783.78
799.31	1779.68
799.49	1740.77
799.66	1626.09
799.84	1736.68
800.01	1656.81
800.19	1751.01
800.36	1548.26
800.53	1753.06
800.71	1736.68
800.88	1820.64
801.06	1646.57
801.23	1685.48
801.41	1679.33
801.58	1624.04
801.75	1714.15
801.93	1773.54
802.10	1794.02
802.28	1716.20
802.45	1619.94
802.63	1783.78
802.80	1851.36
802.97	1673.19
803.15	1716.20
803.32	1785.83
803.50	1599.46
803.67	1716.20
803.84	1599.46
804.02	1740.77
804.19	1667.05
804.37	1550.31
804.54	1673.19
804.71	1796.07
804.89	1685.48
805.06	1628.14
805.24	1628.14
805.41	1638.38
805.58	1660.90
805.76	1832.93
805.93	1681.38
806.10	1755.11
806.28	1671.14
806.45	1714.15
806.63	1722.34
806.80	1757.16
806.97	1693.67
807.15	1773.54
807.32	1761.25
807.49	1730.53
807.67	1642.47
807.84	1781.73
808.01	1650.66
808.19	1816.55
808.36	1837.03
808.54	1695.72
808.71	1662.95
808.88	1652.71
809.06	1671.14
809.23	1802.21
809.40	1644.52
809.58	1791.97
809.75	1738.73
809.92	1654.76
810.10	1849.32
810.27	1689.57
810.44	1693.67
810.62	1783.78
810.79	1662.95
810.96	1656.81
811.14	1675.24
811.31	1699.81
811.48	1748.97
811.66	1624.04
811.83	1744.87
812.00	1767.40
812.18	1732.58
812.35	1787.88
812.52	1695.72
812.69	1660.90
812.87	1740.77
813.04	1730.53
813.21	1693.67
813.39	1722.34
813.56	1640.42
813.73	1765.35
813.91	1662.95
814.08	1722.34
814.25	1730.53
814.42	1726.44
814.60	1751.01
814.77	1689.57
814.94	1658.85
815.12	1650.66
815.29	1859.56
815.46	1665.00
815.63	1757.16
815.81	1718.25
815.98	1685.48
816.15	1699.81
816.33	1777.64
816.50	1691.62
816.67	1673.19
816.84	1716.20
817.02	1673.19
817.19	1712.10
817.36	1691.62
817.53	1734.63
817.71	1724.39
817.88	1720.29
818.05	1767.40
818.22	1640.42
818.40	1820.64
818.57	1687.53
818.74	1732.58
818.91	1660.90
819.09	1726.44
819.26	1800.16
819.43	1693.67
819.60	1693.67
819.78	1710.05
819.95	1841.12
820.12	1695.72
820.29	1791.97
820.47	1822.69
820.64	1677.29
820.81	1679.33
820.98	1626.09
821.15	1685.48
821.33	1832.93
821.50	1597.42
821.67	1806.31
821.84	1693.67
822.02	1710.05
822.19	1808.36
822.36	1660.90
822.53	1728.49
822.70	1609.70
822.88	1710.05
823.05	1806.31
823.22	1693.67
823.39	1783.78
823.56	1693.67
823.74	1839.08
823.91	1671.14
824.08	1634.28
824.25	1660.90
824.42	1779.68
824.60	1652.71
824.77	1714.15
824.94	1787.88
825.11	1773.54
825.28	1679.33
825.45	1726.44
825.63	1701.86
825.80	1730.53
825.97	1751.01
826.14	1720.29
826.31	1693.67
826.48	1714.15
826.66	1609.70
826.83	1769.44
827.00	1695.72
827.17	1595.37
827.34	1710.05
827.51	1673.19
827.69	1677.29
827.86	1689.57
828.03	1687.53
828.20	1693.67
828.37	1705.96
828.54	1691.62
828.71	1662.95
828.89	1830.88
829.06	1728.49
829.23	1787.88
829.40	1640.42
829.57	1601.51
829.74	1765.35
829.91	1615.85
830.09	1634.28
830.26	1742.82
830.43	1699.81
830.60	1751.01
830.77	1712.10
830.94	1824.74
831.11	1775.59
831.28	1689.57
831.46	1660.90
831.63	1642.47
831.80	1720.29
831.97	1669.09
832.14	1644.52
832.31	1665.00
832.48	1742.82
832.65	1746.92
832.82	1728.49
832.99	1718.25
833.17	1705.96
833.34	1808.36
833.51	1781.73
833.68	1601.51
833.85	1697.77
834.02	1638.38
834.19	1621.99
834.36	1671.14
834.53	1652.71
834.70	1804.26
834.87	1775.59
835.04	1732.58
835.22	1597.42
835.39	1683.43
835.56	1654.76
835.73	1708.01
835.90	1818.60
836.07	1646.57
836.24	1728.49
836.41	1710.05
836.58	1738.73
836.75	1720.29
836.92	1755.11
837.09	1677.29
837.26	1800.16
837.43	1738.73
837.60	1730.53
837.77	1753.06
837.94	1765.35
838.12	1816.55
838.29	1738.73
838.46	1634.28
838.63	1599.46
838.80	1777.64
838.97	1763.30
839.14	1689.57
839.31	1759.21
839.48	1748.97
839.65	1656.81
839.82	1806.31
839.99	1759.21
840.16	1658.85
840.33	1705.96
840.50	1814.50
840.67	1675.24
840.84	1583.08
841.01	1728.49
841.18	1658.85
841.35	1783.78
841.52	1753.06
841.69	1808.36
841.86	1722.34
842.03	1712.10
842.20	1787.88
842.37	1759.21
842.54	1730.53
842.71	1671.14
842.88	1673.19
843.05	1734.63
843.22	1722.34
843.39	1769.44
843.56	1697.77
843.73	1732.58
843.90	1640.42
844.07	1722.34
844.24	1716.20
844.41	1708.01
844.58	1714.15
844.75	1705.96
844.92	1699.81
845.09	1800.16
845.26	1654.76
845.43	1736.68
845.60	1601.51
845.77	1730.53
845.94	1699.81
846.10	1751.01
846.27	1681.38
846.44	1609.70
846.61	1654.76
846.78	1624.04
846.95	1679.33
847.12	1669.09
847.29	1683.43
847.46	1677.29
847.63	1740.77
847.80	1685.48
847.97	1665.00
848.14	1900.52
848.31	1751.01
848.48	1669.09
848.65	1738.73
848.82	1701.86
848.98	1886.18
849.15	1736.68
849.32	1789.92
849.49	1730.53
849.66	1767.40
849.83	1710.05
850.00	1730.53
850.17	1824.74
850.34	1691.62
850.51	1640.42
850.68	1667.05
850.85	1818.60
851.01	1751.01
851.18	1720.29
851.35	1689.57
851.52	1818.60
851.69	1820.64
851.86	1642.47
852.03	1695.72
852.20	1710.05
852.37	1744.87
852.53	1613.80
852.70	1697.77
852.87	1742.82
853.04	1695.72
853.21	1732.58
853.38	1812.45
853.55	1777.64
853.72	1763.30
853.89	1701.86
854.05	1712.10
854.22	1671.14
854.39	1734.63
854.56	1742.82
854.73	1732.58
854.90	1701.86
855.07	1685.48
855.23	1775.59
855.40	1687.53
855.57	1683.43
855.74	1585.13
855.91	1818.60
856.08	1683.43
856.25	1697.77
856.41	1636.33
856.58	1697.77
856.75	1718.25
856.92	1642.47
857.09	1734.63
857.26	1669.09
857.42	1669.09
857.59	1716.20
857.76	1652.71
857.93	1693.67
858.10	1761.25
858.27	1714.15
858.43	1759.21
858.60	1691.62
858.77	1685.48
858.94	1675.24
859.11	1738.73
859.27	1677.29
859.44	1667.05
859.61	1796.07
859.78	1759.21
859.95	1710.05
860.12	1705.96
860.28	1777.64
860.45	1855.46
860.62	1652.71
860.79	1634.28
860.95	1673.19
861.12	1681.38
861.29	1691.62
861.46	1681.38
861.63	1677.29
861.79	1656.81
861.96	1726.44
862.13	1710.05
862.30	1759.21
862.47	1552.36
862.63	1650.66
862.80	1665.00
862.97	1851.36
863.14	1767.40
863.30	1658.85
863.47	1695.72
863.64	1787.88
863.81	1738.73
863.97	1703.91
864.14	1677.29
864.31	1748.97
864.48	1746.92
864.65	1697.77
864.81	1746.92
864.98	1775.59
865.15	1757.16
865.32	1722.34
865.48	1791.97
865.65	1736.68
865.82	1691.62
865.98	1765.35
866.15	1753.06
866.32	1701.86
866.49	1705.96
866.65	1853.41
866.82	1646.57
866.99	1753.06
867.16	1638.38
867.32	1703.91
867.49	1701.86
867.66	1665.00
867.83	1640.42
867.99	1630.18
868.16	1695.72
868.33	1665.00
868.49	1761.25
868.66	1675.24
868.83	1779.68
868.99	1738.73
869.16	1685.48
869.33	1794.02
869.50	1759.21
869.66	1710.05
869.83	1705.96
870.00	1640.42
870.16	1740.77
870.33	1748.97
870.50	1693.67
870.66	1718.25
870.83	1744.87
871.00	1669.09
871.17	1787.88
871.33	1683.43
871.50	1681.38
871.67	1685.48
871.83	1681.38
872.00	1822.69
872.17	1722.34
872.33	1757.16
872.50	1732.58
872.67	1728.49
872.83	1640.42
873.00	1785.83
873.17	1703.91
873.33	1744.87
873.50	1718.25
873.67	1685.48
873.83	1660.90
874.00	1697.77
874.16	1773.54
874.33	1689.57
874.50	1630.18
874.66	1755.11
874.83	1724.39
875.00	1781.73
875.16	1787.88
875.33	1736.68
875.50	1574.89
875.66	1697.77
875.83	1751.01
875.99	1697.77
876.16	1705.96
876.33	1662.95
876.49	1765.35
876.66	1757.16
876.83	1738.73
876.99	1626.09
877.16	1800.16
877.32	1705.96
877.49	1712.10
877.66	1785.83
877.82	1773.54
877.99	1722.34
878.15	1804.26
878.32	1730.53
878.49	1656.81
878.65	1742.82
878.82	1775.59
878.98	1710.05
879.15	1796.07
879.32	1800.16
879.48	1771.49
879.65	1660.90
879.81	1669.09
879.98	1656.81
880.15	1648.61
880.31	1761.25
880.48	1644.52
880.64	1781.73
880.81	1705.96
880.97	1710.05
881.14	1802.21
881.31	1669.09
881.47	1763.30
881.64	1775.59
881.80	1548.26
881.97	1740.77
882.13	1765.35
882.30	1669.09
882.47	1665.00
882.63	1638.38
882.80	1691.62
882.96	1656.81
883.13	1810.40
883.29	1650.66
883.46	1703.91
883.62	1787.88
883.79	1710.05
883.95	1826.79
884.12	1769.44
884.29	1730.53
884.45	1730.53
884.62	1728.49
884.78	1697.77
884.95	1708.01
885.11	1640.42
885.28	1675.24
885.44	1662.95
885.61	1773.54
885.77	1757.16
885.94	1728.49
886.10	1718.25
886.27	1724.39
886.43	1765.35
886.60	1685.48
886.76	1675.24
886.93	1642.47
887.09	1654.76
887.26	1632.23
887.42	1689.57
887.59	1789.92
887.75	1832.93
887.92	1765.35
888.08	1689.57
888.25	1798.12
888.41	1818.60
888.58	1708.01
888.74	1673.19
888.91	1646.57
>>>>>End Processed Spectral Data<<<<<
