SpectraSuite Data File
++++++++++++++++++++++++++++++++++++
Date: Mon Jun 06 13:26:17 CEST 2016
User: root
Dark Spectrum Present: No
Reference Spectrum Present: No
Number of Sampled Component Spectra: 1
Spectrometers: USB4C02835
Integration Time (usec): 100000 (USB4C02835)
Spectra Averaged: 1 (USB4C02835)
Boxcar Smoothing: 0 (USB4C02835)
Correct for Electrical Dark: No (USB4C02835)
Strobe/Lamp Enabled: No (USB4C02835)
Correct for Detector Non-linearity: No (USB4C02835)
Correct for Stray Light: No (USB4C02835)
Number of Pixels in Processed Spectrum: 3648
>>>>>Begin Processed Spectral Data<<<<<
177.47	1400.81
177.69	1400.81
177.91	1400.81
178.13	1472.49
178.36	1466.35
178.58	1671.14
178.80	1675.24
179.02	1646.57
179.24	1660.90
179.46	1660.90
179.68	1843.17
179.90	1728.49
180.13	1685.48
180.35	1566.70
180.57	1714.15
180.79	1734.63
181.01	1705.96
181.23	1787.88
181.45	1748.97
181.67	1708.01
181.90	1783.78
182.12	1673.19
182.34	1607.66
182.56	1728.49
182.78	1681.38
183.00	1677.29
183.22	1718.25
183.44	1578.98
183.66	1855.46
183.89	1732.58
184.11	1685.48
184.33	1701.86
184.55	1703.91
184.77	1740.77
184.99	1701.86
185.21	1656.81
185.43	1796.07
185.65	1640.42
185.87	1695.72
186.10	1759.21
186.32	1820.64
186.54	1689.57
186.76	1767.40
186.98	1742.82
187.20	1708.01
187.42	1683.43
187.64	1710.05
187.86	1759.21
188.08	1705.96
188.30	1689.57
188.52	1771.49
188.75	1761.25
188.97	1828.84
189.19	1654.76
189.41	1685.48
189.63	1697.77
189.85	1624.04
190.07	1613.80
190.29	1648.61
190.51	1689.57
190.73	1603.56
190.95	1783.78
191.17	1681.38
191.39	1589.22
191.61	1714.15
191.84	1683.43
192.06	1718.25
192.28	1566.70
192.50	1847.27
192.72	1703.91
192.94	1640.42
193.16	1794.02
193.38	1689.57
193.60	1681.38
193.82	1681.38
194.04	1773.54
194.26	1716.20
194.48	1710.05
194.70	1660.90
194.92	1710.05
195.14	1767.40
195.36	1718.25
195.58	1734.63
195.80	1628.14
196.02	1705.96
196.24	1630.18
196.46	1722.34
196.69	1712.10
196.91	1789.92
197.13	1705.96
197.35	1660.90
197.57	1804.26
197.79	1720.29
198.01	1722.34
198.23	1753.06
198.45	1722.34
198.67	1669.09
198.89	1728.49
199.11	1734.63
199.33	1673.19
199.55	1546.22
199.77	1779.68
199.99	1681.38
200.21	1693.67
200.43	1789.92
200.65	1617.90
200.87	1656.81
201.09	1689.57
201.31	1654.76
201.53	1687.53
201.75	1703.91
201.97	1685.48
202.19	1718.25
202.41	1679.33
202.63	1814.50
202.85	1665.00
203.07	1761.25
203.29	1734.63
203.51	1636.33
203.73	1630.18
203.95	1925.09
204.17	1746.92
204.39	1738.73
204.61	1679.33
204.83	1722.34
205.05	1779.68
205.27	1722.34
205.49	1783.78
205.71	1656.81
205.93	1656.81
206.15	1722.34
206.37	1648.61
206.59	1693.67
206.81	1638.38
207.03	1632.23
207.25	1621.99
207.47	1765.35
207.69	1660.90
207.91	1757.16
208.13	1767.40
208.34	1634.28
208.56	1654.76
208.78	1732.58
209.00	1689.57
209.22	1697.77
209.44	1687.53
209.66	1617.90
209.88	1705.96
210.10	1660.90
210.32	1710.05
210.54	1740.77
210.76	1732.58
210.98	1765.35
211.20	1609.70
211.42	1714.15
211.64	1648.61
211.86	1728.49
212.08	1669.09
212.30	1640.42
212.52	1644.52
212.74	1726.44
212.96	1667.05
213.17	1660.90
213.39	1697.77
213.61	1761.25
213.83	1738.73
214.05	1658.85
214.27	1738.73
214.49	1578.98
214.71	1646.57
214.93	1755.11
215.15	1691.62
215.37	1740.77
215.59	1581.03
215.81	1722.34
216.03	1818.60
216.24	1640.42
216.46	1638.38
216.68	1722.34
216.90	1738.73
217.12	1730.53
217.34	1665.00
217.56	1708.01
217.78	1794.02
218.00	1742.82
218.22	1742.82
218.44	1695.72
218.66	1738.73
218.87	1824.74
219.09	1650.66
219.31	1732.58
219.53	1703.91
219.75	1654.76
219.97	1691.62
220.19	1673.19
220.41	1716.20
220.63	1783.78
220.85	1691.62
221.06	1673.19
221.28	1740.77
221.50	1730.53
221.72	1697.77
221.94	1716.20
222.16	1697.77
222.38	1728.49
222.60	1693.67
222.82	1675.24
223.03	1771.49
223.25	1654.76
223.47	1703.91
223.69	1861.60
223.91	1775.59
224.13	1615.85
224.35	1628.14
224.57	1687.53
224.78	1673.19
225.00	1624.04
225.22	1587.18
225.44	1671.14
225.66	1761.25
225.88	1701.86
226.10	1808.36
226.32	1718.25
226.53	1798.12
226.75	1708.01
226.97	1634.28
227.19	1644.52
227.41	1656.81
227.63	1689.57
227.85	1587.18
228.06	1759.21
228.28	1675.24
228.50	1794.02
228.72	1648.61
228.94	1652.71
229.16	1658.85
229.37	1617.90
229.59	1689.57
229.81	1740.77
230.03	1697.77
230.25	1689.57
230.47	1642.47
230.69	1640.42
230.90	1734.63
231.12	1701.86
231.34	1742.82
231.56	1738.73
231.78	1681.38
232.00	1746.92
232.21	1751.01
232.43	1656.81
232.65	1591.27
232.87	1703.91
233.09	1634.28
233.30	1730.53
233.52	1730.53
233.74	1619.94
233.96	1619.94
234.18	1765.35
234.40	1636.33
234.61	1812.45
234.83	1671.14
235.05	1611.75
235.27	1857.51
235.49	1740.77
235.70	1718.25
235.92	1830.88
236.14	1636.33
236.36	1859.56
236.58	1636.33
236.79	1808.36
237.01	1734.63
237.23	1701.86
237.45	1779.68
237.67	1648.61
237.88	1665.00
238.10	1796.07
238.32	1669.09
238.54	1638.38
238.76	1757.16
238.97	1667.05
239.19	1761.25
239.41	1759.21
239.63	1748.97
239.85	1669.09
240.06	1677.29
240.28	1669.09
240.50	1748.97
240.72	1701.86
240.93	1658.85
241.15	1703.91
241.37	1718.25
241.59	1798.12
241.81	1697.77
242.02	1742.82
242.24	1746.92
242.46	1687.53
242.68	1658.85
242.89	1744.87
243.11	1652.71
243.33	1722.34
243.55	1697.77
243.76	1699.81
243.98	1626.09
244.20	1714.15
244.42	1693.67
244.64	1667.05
244.85	1718.25
245.07	1615.85
245.29	1748.97
245.51	1730.53
245.72	1724.39
245.94	1746.92
246.16	1628.14
246.38	1765.35
246.59	1630.18
246.81	1642.47
247.03	1679.33
247.24	1638.38
247.46	1669.09
247.68	1759.21
247.90	1787.88
248.11	1636.33
248.33	1804.26
248.55	1687.53
248.77	1718.25
248.98	1748.97
249.20	1738.73
249.42	1685.48
249.64	1726.44
249.85	1644.52
250.07	1576.94
250.29	1763.30
250.50	1789.92
250.72	1644.52
250.94	1714.15
251.16	1763.30
251.37	1748.97
251.59	1644.52
251.81	1714.15
252.02	1787.88
252.24	1746.92
252.46	1773.54
252.68	1583.08
252.89	1665.00
253.11	1519.59
253.33	1787.88
253.54	1683.43
253.76	1636.33
253.98	1763.30
254.20	1718.25
254.41	1634.28
254.63	1722.34
254.85	1648.61
255.06	1665.00
255.28	1716.20
255.50	1656.81
255.71	1638.38
255.93	1667.05
256.15	1665.00
256.36	1642.47
256.58	1673.19
256.80	1738.73
257.02	1722.34
257.23	1638.38
257.45	1652.71
257.67	1800.16
257.88	1675.24
258.10	1673.19
258.32	1656.81
258.53	1697.77
258.75	1759.21
258.97	1626.09
259.18	1673.19
259.40	1718.25
259.62	1789.92
259.83	1779.68
260.05	1716.20
260.27	1957.86
260.48	1757.16
260.70	1693.67
260.92	1689.57
261.13	1646.57
261.35	1755.11
261.57	1736.68
261.78	1583.08
262.00	1710.05
262.22	1791.97
262.43	1660.90
262.65	1665.00
262.86	1665.00
263.08	1849.32
263.30	1714.15
263.51	1529.83
263.73	1644.52
263.95	1742.82
264.16	1673.19
264.38	1701.86
264.60	1789.92
264.81	1710.05
265.03	1724.39
265.25	1818.60
265.46	1734.63
265.68	1775.59
265.89	1740.77
266.11	1597.42
266.33	1714.15
266.54	1755.11
266.76	1738.73
266.98	1693.67
267.19	1816.55
267.41	1714.15
267.62	1648.61
267.84	1599.46
268.06	1718.25
268.27	1693.67
268.49	1742.82
268.70	1724.39
268.92	1718.25
269.14	1679.33
269.35	1611.75
269.57	1660.90
269.79	1751.01
270.00	1644.52
270.22	1787.88
270.43	1578.98
270.65	1542.12
270.87	1724.39
271.08	1765.35
271.30	1767.40
271.51	1673.19
271.73	1716.20
271.95	1744.87
272.16	1728.49
272.38	1751.01
272.59	1703.91
272.81	1689.57
273.02	1660.90
273.24	1746.92
273.46	1689.57
273.67	1621.99
273.89	1689.57
274.10	1714.15
274.32	1757.16
274.54	1728.49
274.75	1667.05
274.97	1734.63
275.18	1673.19
275.40	1705.96
275.61	1759.21
275.83	1759.21
276.05	1640.42
276.26	1722.34
276.48	1730.53
276.69	1665.00
276.91	1677.29
277.12	1783.78
277.34	1724.39
277.55	1701.86
277.77	1675.24
277.99	1665.00
278.20	1646.57
278.42	1607.66
278.63	1595.37
278.85	1705.96
279.06	1699.81
279.28	1712.10
279.49	1763.30
279.71	1683.43
279.93	1742.82
280.14	1699.81
280.36	1656.81
280.57	1802.21
280.79	1757.16
281.00	1587.18
281.22	1642.47
281.43	1744.87
281.65	1632.23
281.86	1642.47
282.08	1673.19
282.29	1841.12
282.51	1607.66
282.73	1583.08
282.94	1658.85
283.16	1689.57
283.37	1769.44
283.59	1769.44
283.80	1654.76
284.02	1701.86
284.23	1726.44
284.45	1665.00
284.66	1593.32
284.88	1679.33
285.09	1675.24
285.31	1673.19
285.52	1728.49
285.74	1644.52
285.95	1718.25
286.17	1718.25
286.38	1779.68
286.60	1626.09
286.81	1640.42
287.03	1730.53
287.24	1736.68
287.46	1755.11
287.67	1744.87
287.89	1824.74
288.10	1742.82
288.32	1685.48
288.53	1757.16
288.75	1744.87
288.96	1761.25
289.18	1636.33
289.39	1710.05
289.61	1714.15
289.82	1804.26
290.04	1730.53
290.25	1593.32
290.47	1738.73
290.68	1683.43
290.90	1748.97
291.11	1646.57
291.33	1746.92
291.54	1597.42
291.76	1601.51
291.97	1730.53
292.18	1687.53
292.40	1681.38
292.61	1632.23
292.83	1865.70
293.04	1673.19
293.26	1681.38
293.47	1632.23
293.69	1646.57
293.90	1656.81
294.12	1806.31
294.33	1724.39
294.55	1724.39
294.76	1742.82
294.97	1738.73
295.19	1820.64
295.40	1679.33
295.62	1619.94
295.83	1738.73
296.05	1675.24
296.26	1824.74
296.48	1642.47
296.69	1724.39
296.90	1798.12
297.12	1701.86
297.33	1791.97
297.55	1662.95
297.76	1646.57
297.98	1748.97
298.19	1609.70
298.41	1695.72
298.62	1654.76
298.83	1742.82
299.05	1761.25
299.26	1673.19
299.48	1654.76
299.69	1736.68
299.90	1783.78
300.12	1726.44
300.33	1695.72
300.55	1687.53
300.76	1816.55
300.98	1673.19
301.19	1773.54
301.40	1693.67
301.62	1730.53
301.83	1773.54
302.05	1726.44
302.26	1710.05
302.47	1710.05
302.69	1597.42
302.90	1658.85
303.12	1603.56
303.33	1761.25
303.54	1740.77
303.76	1716.20
303.97	1703.91
304.19	1769.44
304.40	1695.72
304.61	1789.92
304.83	1808.36
305.04	1818.60
305.26	1816.55
305.47	1636.33
305.68	1726.44
305.90	1658.85
306.11	1757.16
306.33	1677.29
306.54	1681.38
306.75	1626.09
306.97	1603.56
307.18	1611.75
307.39	1705.96
307.61	1728.49
307.82	1716.20
308.04	1802.21
308.25	1599.46
308.46	1763.30
308.68	1689.57
308.89	1691.62
309.10	1796.07
309.32	1722.34
309.53	1642.47
309.74	1693.67
309.96	1677.29
310.17	1765.35
310.39	1621.99
310.60	1718.25
310.81	1742.82
311.03	1685.48
311.24	1755.11
311.45	1675.24
311.67	1802.21
311.88	1701.86
312.09	1634.28
312.31	1652.71
312.52	1619.94
312.73	1724.39
312.95	1683.43
313.16	1662.95
313.37	1800.16
313.59	1738.73
313.80	1718.25
314.01	1763.30
314.23	1689.57
314.44	1675.24
314.65	1636.33
314.87	1658.85
315.08	1687.53
315.29	1673.19
315.51	1640.42
315.72	1583.08
315.93	1712.10
316.15	1738.73
316.36	1679.33
316.57	1783.78
316.79	1665.00
317.00	1714.15
317.21	1755.11
317.43	1560.55
317.64	1701.86
317.85	1687.53
318.07	1757.16
318.28	1722.34
318.49	1746.92
318.70	1949.67
318.92	1800.16
319.13	1806.31
319.34	1859.56
319.56	1779.68
319.77	1740.77
319.98	1822.69
320.20	1748.97
320.41	1673.19
320.62	1742.82
320.83	1615.85
321.05	1828.84
321.26	1746.92
321.47	1697.77
321.69	1798.12
321.90	1658.85
322.11	1683.43
322.32	1644.52
322.54	1748.97
322.75	1624.04
322.96	1761.25
323.18	1621.99
323.39	1632.23
323.60	1660.90
323.81	1783.78
324.03	1619.94
324.24	1634.28
324.45	1748.97
324.66	1697.77
324.88	1671.14
325.09	1748.97
325.30	1703.91
325.52	1748.97
325.73	1708.01
325.94	1654.76
326.15	1634.28
326.37	1708.01
326.58	1710.05
326.79	1771.49
327.00	1619.94
327.22	1736.68
327.43	1669.09
327.64	1671.14
327.85	1693.67
328.07	1740.77
328.28	1794.02
328.49	1634.28
328.70	1691.62
328.92	1646.57
329.13	1679.33
329.34	1679.33
329.55	1777.64
329.76	1744.87
329.98	1650.66
330.19	1837.03
330.40	1673.19
330.61	1687.53
330.83	1701.86
331.04	1697.77
331.25	1714.15
331.46	1656.81
331.68	1574.89
331.89	1724.39
332.10	1710.05
332.31	1632.23
332.52	1689.57
332.74	1804.26
332.95	1613.80
333.16	1730.53
333.37	1736.68
333.58	1665.00
333.80	1703.91
334.01	1677.29
334.22	1638.38
334.43	1660.90
334.64	1710.05
334.86	1660.90
335.07	1654.76
335.28	1810.40
335.49	1621.99
335.70	1671.14
335.92	1757.16
336.13	1886.18
336.34	1691.62
336.55	1746.92
336.76	1667.05
336.98	1589.22
337.19	1746.92
337.40	1849.32
337.61	1773.54
337.82	1595.37
338.04	1714.15
338.25	1615.85
338.46	1691.62
338.67	1755.11
338.88	1560.55
339.09	1632.23
339.31	1654.76
339.52	1613.80
339.73	1665.00
339.94	1650.66
340.15	1751.01
340.36	1648.61
340.58	1617.90
340.79	1636.33
341.00	1693.67
341.21	1642.47
341.42	1775.59
341.63	1718.25
341.85	1800.16
342.06	1748.97
342.27	1595.37
342.48	1728.49
342.69	1576.94
342.90	1806.31
343.12	1703.91
343.33	1675.24
343.54	1681.38
343.75	1748.97
343.96	1705.96
344.17	1574.89
344.38	1738.73
344.60	1624.04
344.81	1669.09
345.02	1742.82
345.23	1787.88
345.44	1847.27
345.65	1767.40
345.86	1673.19
346.07	1753.06
346.29	1671.14
346.50	1748.97
346.71	1730.53
346.92	1812.45
347.13	1849.32
347.34	1599.46
347.55	1673.19
347.76	1714.15
347.98	1667.05
348.19	1669.09
348.40	1703.91
348.61	1691.62
348.82	1781.73
349.03	1732.58
349.24	1597.42
349.45	1746.92
349.66	1626.09
349.88	1695.72
350.09	1574.89
350.30	1787.88
350.51	1828.84
350.72	1695.72
350.93	1744.87
351.14	1712.10
351.35	1656.81
351.56	1652.71
351.77	1705.96
351.99	1697.77
352.20	1761.25
352.41	1779.68
352.62	1603.56
352.83	1710.05
353.04	1681.38
353.25	1613.80
353.46	1710.05
353.67	1742.82
353.88	1599.46
354.09	1720.29
354.30	1714.15
354.52	1802.21
354.73	1626.09
354.94	1603.56
355.15	1720.29
355.36	1748.97
355.57	1669.09
355.78	1697.77
355.99	1658.85
356.20	1601.51
356.41	1816.55
356.62	1675.24
356.83	1624.04
357.04	1759.21
357.25	1593.32
357.46	1703.91
357.68	1593.32
357.89	1642.47
358.10	1685.48
358.31	1652.71
358.52	1722.34
358.73	1615.85
358.94	1677.29
359.15	1667.05
359.36	1732.58
359.57	1701.86
359.78	1710.05
359.99	1734.63
360.20	1652.71
360.41	1677.29
360.62	1757.16
360.83	1710.05
361.04	1685.48
361.25	1783.78
361.46	1820.64
361.67	1710.05
361.88	1742.82
362.09	1785.83
362.30	1673.19
362.51	1599.46
362.72	1683.43
362.93	1761.25
363.14	1679.33
363.35	1714.15
363.56	1658.85
363.78	1742.82
363.99	1787.88
364.20	1714.15
364.41	1736.68
364.62	1812.45
364.83	1744.87
365.04	1665.00
365.25	1718.25
365.46	1781.73
365.67	1648.61
365.88	1589.22
366.09	1656.81
366.30	1662.95
366.51	1746.92
366.72	1646.57
366.93	1654.76
367.14	1742.82
367.35	1759.21
367.56	1648.61
367.77	1730.53
367.98	1697.77
368.18	1658.85
368.39	1775.59
368.60	1652.71
368.81	1755.11
369.02	1687.53
369.23	1671.14
369.44	1697.77
369.65	1665.00
369.86	1724.39
370.07	1763.30
370.28	1630.18
370.49	1759.21
370.70	1771.49
370.91	1691.62
371.12	1574.89
371.33	1798.12
371.54	1673.19
371.75	1855.46
371.96	1587.18
372.17	1736.68
372.38	1667.05
372.59	1824.74
372.80	1673.19
373.01	1705.96
373.22	1658.85
373.43	1710.05
373.64	1665.00
373.85	1730.53
374.06	1771.49
374.26	1703.91
374.47	1781.73
374.68	1753.06
374.89	1738.73
375.10	1730.53
375.31	1732.58
375.52	1660.90
375.73	1693.67
375.94	1699.81
376.15	1808.36
376.36	1628.14
376.57	1683.43
376.78	1742.82
376.99	1730.53
377.20	1824.74
377.40	1724.39
377.61	1757.16
377.82	1660.90
378.03	1744.87
378.24	1705.96
378.45	1683.43
378.66	1660.90
378.87	1591.27
379.08	1705.96
379.29	1630.18
379.50	1802.21
379.71	1703.91
379.91	1779.68
380.12	1738.73
380.33	1689.57
380.54	1701.86
380.75	1656.81
380.96	1701.86
381.17	1798.12
381.38	1699.81
381.59	1746.92
381.80	1718.25
382.00	1822.69
382.21	1714.15
382.42	1910.75
382.63	1890.28
382.84	1746.92
383.05	1738.73
383.26	1738.73
383.47	1681.38
383.68	1732.58
383.88	1685.48
384.09	1705.96
384.30	1783.78
384.51	1734.63
384.72	1624.04
384.93	1630.18
385.14	1679.33
385.35	1712.10
385.55	1652.71
385.76	1777.64
385.97	1660.90
386.18	1607.66
386.39	1691.62
386.60	1685.48
386.81	1638.38
387.02	1667.05
387.22	1648.61
387.43	1755.11
387.64	1781.73
387.85	1859.56
388.06	2205.66
388.27	4261.82
388.48	6715.29
388.68	8152.96
388.89	9557.87
389.10	9795.43
389.31	8488.83
389.52	7499.66
389.73	6590.36
389.93	6113.19
390.14	5699.50
390.35	5050.29
390.56	4505.53
390.77	3772.36
390.98	2930.64
391.18	2490.33
391.39	2183.13
391.60	1789.92
391.81	1830.88
392.02	1691.62
392.23	1812.45
392.43	1722.34
392.64	1847.27
392.85	1652.71
393.06	1783.78
393.27	1779.68
393.47	1679.33
393.68	1695.72
393.89	1673.19
394.10	1773.54
394.31	1630.18
394.52	1652.71
394.72	1705.96
394.93	1877.99
395.14	1648.61
395.35	1751.01
395.56	1619.94
395.76	1730.53
395.97	1841.12
396.18	1787.88
396.39	1771.49
396.60	2041.82
396.80	1857.51
397.01	1837.03
397.22	1843.17
397.43	1804.26
397.64	1818.60
397.84	1816.55
398.05	1824.74
398.26	1705.96
398.47	1789.92
398.67	1808.36
398.88	1718.25
399.09	1746.92
399.30	1691.62
399.51	1685.48
399.71	1656.81
399.92	1673.19
400.13	1748.97
400.34	1708.01
400.54	1708.01
400.75	1703.91
400.96	1701.86
401.17	1718.25
401.37	1802.21
401.58	1708.01
401.79	1701.86
402.00	1896.42
402.21	2023.39
402.41	1912.80
402.62	1988.58
402.83	1998.82
403.04	1990.63
403.24	2131.94
403.45	1832.93
403.66	1863.65
403.87	1843.17
404.07	1916.90
404.28	1894.37
404.49	1873.89
404.70	1671.14
404.90	1802.21
405.11	1738.73
405.32	1751.01
405.52	1652.71
405.73	1697.77
405.94	1671.14
406.15	1755.11
406.35	1781.73
406.56	1753.06
406.77	1695.72
406.98	1785.83
407.18	1685.48
407.39	1681.38
407.60	1738.73
407.80	1691.62
408.01	1722.34
408.22	1734.63
408.43	1681.38
408.63	1742.82
408.84	1712.10
409.05	1705.96
409.25	1687.53
409.46	1638.38
409.67	1730.53
409.88	1628.14
410.08	1720.29
410.29	1660.90
410.50	1724.39
410.70	1699.81
410.91	1624.04
411.12	1744.87
411.32	1742.82
411.53	1730.53
411.74	1783.78
411.95	1720.29
412.15	1689.57
412.36	1746.92
412.57	1794.02
412.77	1742.82
412.98	1679.33
413.19	1646.57
413.39	1751.01
413.60	1708.01
413.81	1761.25
414.01	1685.48
414.22	1734.63
414.43	1775.59
414.63	1632.23
414.84	1767.40
415.05	1751.01
415.25	1726.44
415.46	1734.63
415.67	1712.10
415.87	1728.49
416.08	1724.39
416.29	1726.44
416.49	1841.12
416.70	1609.70
416.91	1636.33
417.11	1775.59
417.32	1667.05
417.53	1826.79
417.73	1695.72
417.94	1691.62
418.15	1667.05
418.35	1722.34
418.56	1687.53
418.77	1849.32
418.97	1642.47
419.18	1701.86
419.38	1560.55
419.59	1726.44
419.80	1740.77
420.00	1689.57
420.21	1755.11
420.42	1656.81
420.62	1691.62
420.83	1675.24
421.04	1720.29
421.24	1701.86
421.45	1746.92
421.65	1726.44
421.86	1740.77
422.07	1781.73
422.27	1781.73
422.48	1665.00
422.69	1705.96
422.89	1695.72
423.10	1738.73
423.30	1644.52
423.51	1738.73
423.72	1769.44
423.92	1732.58
424.13	1644.52
424.33	1669.09
424.54	1630.18
424.75	1693.67
424.95	1746.92
425.16	1724.39
425.36	1699.81
425.57	1757.16
425.78	1701.86
425.98	1839.08
426.19	1644.52
426.39	1636.33
426.60	1714.15
426.81	1787.88
427.01	1636.33
427.22	1642.47
427.42	1628.14
427.63	1675.24
427.83	1740.77
428.04	1841.12
428.25	1753.06
428.45	1746.92
428.66	1816.55
428.86	1617.90
429.07	1607.66
429.28	1771.49
429.48	1703.91
429.69	1716.20
429.89	1675.24
430.10	1648.61
430.30	1740.77
430.51	1761.25
430.71	1681.38
430.92	1728.49
431.13	1687.53
431.33	1699.81
431.54	1796.07
431.74	1822.69
431.95	1755.11
432.15	1665.00
432.36	1773.54
432.56	1757.16
432.77	1787.88
432.98	1796.07
433.18	1665.00
433.39	1716.20
433.59	1656.81
433.80	1812.45
434.00	1824.74
434.21	1701.86
434.41	1642.47
434.62	1832.93
434.82	1621.99
435.03	1679.33
435.23	1720.29
435.44	1628.14
435.64	1779.68
435.85	1726.44
436.06	1775.59
436.26	1818.60
436.47	1660.90
436.67	1730.53
436.88	1654.76
437.08	1728.49
437.29	1794.02
437.49	1718.25
437.70	1728.49
437.90	1701.86
438.11	1865.70
438.31	1769.44
438.52	1820.64
438.72	1869.80
438.93	1859.56
439.13	1837.03
439.34	1837.03
439.54	1695.72
439.75	1787.88
439.95	1804.26
440.16	1634.28
440.36	1701.86
440.57	1773.54
440.77	1855.46
440.98	1730.53
441.18	1705.96
441.39	1638.38
441.59	1656.81
441.80	1781.73
442.00	1726.44
442.21	1755.11
442.41	1669.09
442.62	1765.35
442.82	1601.51
443.02	1693.67
443.23	1716.20
443.43	1695.72
443.64	1794.02
443.84	1722.34
444.05	1808.36
444.25	1722.34
444.46	1757.16
444.66	1714.15
444.87	1796.07
445.07	1603.56
445.28	1699.81
445.48	1867.75
445.69	1777.64
445.89	1880.04
446.09	1757.16
446.30	1964.00
446.50	2588.63
446.71	3753.93
446.91	4310.97
447.12	4675.51
447.32	4804.53
447.53	4249.54
447.73	3835.85
447.93	3551.18
448.14	3295.18
448.34	3188.69
448.55	2901.97
448.75	2682.84
448.96	2699.22
449.16	2361.31
449.36	2295.77
449.57	2033.63
449.77	1880.04
449.98	1812.45
450.18	1798.12
450.39	1824.74
450.59	1824.74
450.79	1753.06
451.00	1708.01
451.20	1781.73
451.41	1751.01
451.61	1732.58
451.81	1722.34
452.02	1753.06
452.22	1673.19
452.43	1771.49
452.63	1718.25
452.84	1746.92
453.04	1730.53
453.24	1763.30
453.45	1689.57
453.65	1677.29
453.86	1806.31
454.06	1757.16
454.26	1708.01
454.47	1712.10
454.67	1845.22
454.87	1742.82
455.08	1699.81
455.28	1869.80
455.49	1775.59
455.69	1673.19
455.89	1912.80
456.10	1781.73
456.30	1724.39
456.51	1718.25
456.71	1746.92
456.91	1691.62
457.12	1806.31
457.32	1703.91
457.52	1708.01
457.73	1728.49
457.93	1761.25
458.14	1636.33
458.34	1636.33
458.54	1734.63
458.75	1710.05
458.95	1724.39
459.15	1843.17
459.36	1726.44
459.56	1802.21
459.76	1851.36
459.97	1777.64
460.17	1775.59
460.37	1751.01
460.58	1703.91
460.78	1726.44
460.99	1746.92
461.19	1687.53
461.39	1714.15
461.60	1710.05
461.80	1767.40
462.00	1667.05
462.21	1722.34
462.41	1681.38
462.61	1699.81
462.82	1607.66
463.02	1724.39
463.22	1658.85
463.43	1740.77
463.63	1689.57
463.83	1796.07
464.04	1724.39
464.24	1695.72
464.44	1701.86
464.64	1671.14
464.85	1767.40
465.05	1822.69
465.25	1736.68
465.46	1679.33
465.66	1730.53
465.86	1716.20
466.07	1695.72
466.27	1716.20
466.47	1628.14
466.68	1640.42
466.88	1812.45
467.08	1775.59
467.29	1763.30
467.49	1748.97
467.69	1794.02
467.89	1738.73
468.10	1701.86
468.30	1742.82
468.50	1728.49
468.71	1701.86
468.91	1568.74
469.11	1855.46
469.31	1665.00
469.52	1679.33
469.72	1826.79
469.92	1804.26
470.13	1710.05
470.33	1695.72
470.53	1855.46
470.73	2103.26
470.94	2252.77
471.14	2379.74
471.34	2516.95
471.54	2375.64
471.75	2330.59
471.95	2107.36
472.15	2140.13
472.36	2054.11
472.56	2093.02
472.76	2052.06
472.96	1996.77
473.17	1976.29
473.37	1898.47
473.57	1742.82
473.77	1830.88
473.98	1771.49
474.18	1722.34
474.38	1943.52
474.58	1716.20
474.79	1667.05
474.99	1744.87
475.19	1742.82
475.39	1613.80
475.60	1794.02
475.80	1705.96
476.00	1785.83
476.20	1714.15
476.41	1759.21
476.61	1740.77
476.81	1771.49
477.01	1691.62
477.21	1798.12
477.42	1837.03
477.62	1644.52
477.82	1789.92
478.02	1652.71
478.23	1755.11
478.43	1656.81
478.63	1710.05
478.83	1697.77
479.03	1683.43
479.24	1771.49
479.44	1849.32
479.64	1679.33
479.84	1583.08
480.04	1675.24
480.25	1701.86
480.45	1671.14
480.65	1697.77
480.85	1705.96
481.06	1744.87
481.26	1755.11
481.46	1738.73
481.66	1787.88
481.86	1695.72
482.06	1738.73
482.27	1646.57
482.47	1691.62
482.67	1683.43
482.87	1695.72
483.07	1773.54
483.28	1597.42
483.48	1628.14
483.68	1703.91
483.88	1724.39
484.08	1566.70
484.29	1607.66
484.49	1681.38
484.69	1677.29
484.89	1820.64
485.09	1798.12
485.29	1791.97
485.50	1675.24
485.70	1648.61
485.90	1748.97
486.10	1650.66
486.30	1787.88
486.50	1781.73
486.71	1746.92
486.91	1753.06
487.11	1761.25
487.31	1638.38
487.51	1714.15
487.71	1726.44
487.91	1599.46
488.12	1656.81
488.32	1607.66
488.52	1652.71
488.72	1689.57
488.92	1761.25
489.12	1724.39
489.32	1767.40
489.53	1703.91
489.73	1671.14
489.93	1755.11
490.13	1687.53
490.33	1667.05
490.53	1710.05
490.73	1783.78
490.94	1701.86
491.14	1765.35
491.34	1816.55
491.54	2140.13
491.74	2576.34
491.94	2795.48
492.14	2932.69
492.34	2961.36
492.54	2775.00
492.75	2414.56
492.95	2408.41
493.15	2363.36
493.35	2258.91
493.55	2176.99
493.75	2142.18
493.95	2066.40
494.15	2009.06
494.35	1875.94
494.56	1851.36
494.76	1796.07
494.96	1755.11
495.16	1853.41
495.36	1738.73
495.56	1783.78
495.76	1673.19
495.96	1718.25
496.16	1677.29
496.36	1882.08
496.56	1691.62
496.77	1734.63
496.97	1710.05
497.17	1839.08
497.37	1701.86
497.57	1755.11
497.77	1728.49
497.97	1701.86
498.17	1767.40
498.37	1693.67
498.57	1634.28
498.77	1726.44
498.97	1767.40
499.17	1812.45
499.38	1808.36
499.58	1755.11
499.78	1880.04
499.98	1755.11
500.18	1697.77
500.38	1722.34
500.58	1972.19
500.78	2531.29
500.98	4587.45
501.18	5687.21
501.38	6629.27
501.58	7063.44
501.78	6600.60
501.98	5672.87
502.18	4794.29
502.38	4401.08
502.58	4057.03
502.78	3737.54
502.98	3692.49
503.18	3477.45
503.38	3006.42
503.59	2754.52
503.79	2637.78
503.99	2486.23
504.19	2244.57
504.39	2224.09
504.59	2144.22
504.79	2090.98
504.99	1980.39
505.19	1892.32
505.39	1933.28
505.59	1964.00
505.79	1941.47
505.99	1869.80
506.19	1789.92
506.39	1865.70
506.59	1697.77
506.79	1781.73
506.99	1794.02
507.19	1757.16
507.39	1755.11
507.59	1701.86
507.79	1681.38
507.99	1730.53
508.19	1701.86
508.39	1691.62
508.59	1734.63
508.79	1763.30
508.99	1796.07
509.19	1771.49
509.39	1791.97
509.59	1695.72
509.79	1748.97
509.99	1791.97
510.19	1804.26
510.39	1787.88
510.59	1751.01
510.79	1757.16
510.99	1724.39
511.19	1822.69
511.39	1820.64
511.59	1712.10
511.79	1834.98
511.99	1738.73
512.19	1783.78
512.38	1681.38
512.58	1697.77
512.78	1775.59
512.98	1791.97
513.18	1767.40
513.38	1669.09
513.58	1794.02
513.78	1703.91
513.98	1824.74
514.18	1697.77
514.38	1769.44
514.58	1753.06
514.78	1697.77
514.98	1701.86
515.18	1716.20
515.38	1572.84
515.58	1802.21
515.78	1665.00
515.98	1748.97
516.18	1738.73
516.38	1685.48
516.57	1701.86
516.77	1673.19
516.97	1732.58
517.17	1685.48
517.37	1642.47
517.57	1812.45
517.77	1759.21
517.97	1775.59
518.17	1728.49
518.37	1681.38
518.57	1765.35
518.77	1677.29
518.97	1728.49
519.16	1751.01
519.36	1742.82
519.56	1718.25
519.76	1734.63
519.96	1734.63
520.16	1843.17
520.36	1693.67
520.56	1796.07
520.76	1693.67
520.96	1687.53
521.16	1718.25
521.35	1834.98
521.55	1828.84
521.75	1726.44
521.95	1671.14
522.15	1693.67
522.35	1595.37
522.55	1652.71
522.75	1769.44
522.95	1689.57
523.14	1681.38
523.34	1818.60
523.54	1652.71
523.74	1783.78
523.94	1755.11
524.14	1669.09
524.34	1730.53
524.54	1773.54
524.73	1646.57
524.93	1759.21
525.13	1740.77
525.33	1767.40
525.53	1847.27
525.73	1773.54
525.93	1794.02
526.13	1738.73
526.32	1734.63
526.52	1744.87
526.72	1763.30
526.92	1714.15
527.12	1699.81
527.32	1701.86
527.52	1763.30
527.71	1767.40
527.91	1722.34
528.11	1718.25
528.31	1740.77
528.51	1685.48
528.71	1808.36
528.90	1773.54
529.10	1753.06
529.30	1753.06
529.50	1632.23
529.70	1734.63
529.90	1714.15
530.09	1638.38
530.29	1720.29
530.49	1656.81
530.69	1882.08
530.89	1683.43
531.09	1769.44
531.28	1734.63
531.48	1769.44
531.68	1736.68
531.88	1705.96
532.08	1755.11
532.28	1662.95
532.47	1814.50
532.67	1810.40
532.87	1804.26
533.07	1699.81
533.27	1816.55
533.46	1710.05
533.66	1708.01
533.86	1724.39
534.06	1746.92
534.26	1703.91
534.45	1699.81
534.65	1759.21
534.85	1820.64
535.05	1693.67
535.25	1796.07
535.44	1607.66
535.64	1808.36
535.84	1759.21
536.04	1697.77
536.24	1669.09
536.43	1617.90
536.63	1781.73
536.83	1742.82
537.03	1789.92
537.22	1656.81
537.42	1617.90
537.62	1742.82
537.82	1716.20
538.02	1853.41
538.21	1832.93
538.41	1851.36
538.61	1771.49
538.81	1660.90
539.00	1834.98
539.20	1724.39
539.40	1662.95
539.60	1748.97
539.79	1710.05
539.99	1722.34
540.19	1652.71
540.39	1746.92
540.58	1773.54
540.78	1834.98
540.98	1677.29
541.18	1693.67
541.37	1822.69
541.57	1755.11
541.77	1687.53
541.97	1732.58
542.16	1654.76
542.36	1736.68
542.56	1789.92
542.76	1826.79
542.95	1705.96
543.15	1761.25
543.35	1880.04
543.54	1689.57
543.74	1751.01
543.94	1712.10
544.14	1644.52
544.33	1839.08
544.53	1740.77
544.73	1650.66
544.93	1714.15
545.12	1751.01
545.32	1726.44
545.52	1716.20
545.71	1773.54
545.91	1695.72
546.11	1691.62
546.30	1722.34
546.50	1789.92
546.70	1785.83
546.90	1783.78
547.09	1665.00
547.29	1681.38
547.49	1746.92
547.68	1744.87
547.88	1722.34
548.08	1738.73
548.27	2168.80
548.47	1681.38
548.67	1640.42
548.87	1822.69
549.06	1632.23
549.26	1705.96
549.46	1746.92
549.65	1697.77
549.85	1779.68
550.05	1761.25
550.24	1669.09
550.44	1695.72
550.64	1665.00
550.83	1685.48
551.03	1798.12
551.23	1736.68
551.42	1806.31
551.62	1730.53
551.82	1771.49
552.01	1726.44
552.21	1892.32
552.41	1732.58
552.60	1806.31
552.80	1697.77
553.00	1720.29
553.19	1708.01
553.39	1775.59
553.59	1683.43
553.78	1773.54
553.98	1753.06
554.17	1548.26
554.37	1748.97
554.57	1736.68
554.76	1701.86
554.96	1652.71
555.16	1718.25
555.35	1716.20
555.55	1718.25
555.75	1685.48
555.94	1832.93
556.14	1697.77
556.33	1830.88
556.53	1785.83
556.73	1732.58
556.92	1800.16
557.12	1751.01
557.32	1857.51
557.51	1812.45
557.71	1816.55
557.90	1816.55
558.10	1804.26
558.30	1656.81
558.49	1769.44
558.69	1740.77
558.88	1806.31
559.08	1783.78
559.28	1722.34
559.47	1755.11
559.67	1673.19
559.86	1863.65
560.06	1687.53
560.26	1740.77
560.45	1740.77
560.65	1775.59
560.84	1796.07
561.04	1767.40
561.24	1705.96
561.43	1679.33
561.63	1851.36
561.82	1783.78
562.02	1757.16
562.22	1642.47
562.41	1730.53
562.61	1710.05
562.80	1718.25
563.00	1855.46
563.19	1789.92
563.39	1736.68
563.59	1796.07
563.78	1609.70
563.98	1679.33
564.17	1708.01
564.37	1677.29
564.56	1697.77
564.76	1648.61
564.96	1777.64
565.15	1794.02
565.35	1832.93
565.54	1693.67
565.74	1808.36
565.93	1710.05
566.13	1687.53
566.32	1705.96
566.52	1740.77
566.71	1679.33
566.91	1767.40
567.11	1730.53
567.30	1689.57
567.50	1722.34
567.69	1708.01
567.89	1710.05
568.08	1665.00
568.28	1779.68
568.47	1681.38
568.67	1748.97
568.86	1730.53
569.06	1728.49
569.25	1650.66
569.45	1701.86
569.64	1703.91
569.84	1669.09
570.04	1775.59
570.23	1697.77
570.43	1779.68
570.62	1722.34
570.82	1837.03
571.01	1654.76
571.21	1695.72
571.40	1673.19
571.60	1791.97
571.79	1800.16
571.99	1814.50
572.18	1714.15
572.38	1716.20
572.57	1742.82
572.77	1802.21
572.96	1875.94
573.16	1744.87
573.35	1724.39
573.55	1789.92
573.74	1804.26
573.94	1724.39
574.13	1699.81
574.33	1818.60
574.52	1779.68
574.71	1705.96
574.91	1789.92
575.10	1701.86
575.30	1697.77
575.49	1695.72
575.69	1755.11
575.88	1845.22
576.08	1714.15
576.27	1830.88
576.47	1726.44
576.66	1855.46
576.86	1841.12
577.05	1718.25
577.25	1806.31
577.44	1810.40
577.64	1681.38
577.83	1804.26
578.02	1808.36
578.22	1828.84
578.41	1873.89
578.61	1685.48
578.80	1660.90
579.00	1689.57
579.19	1773.54
579.39	1724.39
579.58	1824.74
579.77	1755.11
579.97	1820.64
580.16	1796.07
580.36	1777.64
580.55	1863.65
580.75	1759.21
580.94	1730.53
581.13	1820.64
581.33	1757.16
581.52	1708.01
581.72	1884.13
581.91	1771.49
582.11	1746.92
582.30	1763.30
582.49	1812.45
582.69	1828.84
582.88	1785.83
583.08	1767.40
583.27	1849.32
583.47	1746.92
583.66	1681.38
583.85	1753.06
584.05	1769.44
584.24	1816.55
584.44	1771.49
584.63	1759.21
584.82	1832.93
585.02	1914.85
585.21	1773.54
585.41	1832.93
585.60	1853.41
585.79	1845.22
585.99	1923.04
586.18	1837.03
586.37	2220.00
586.57	3286.99
586.76	9805.67
586.96	24489.61
587.15	34594.29
587.34	40134.04
587.54	42210.68
587.73	36623.83
587.93	26003.06
588.12	21573.30
588.31	18597.60
588.51	16228.10
588.70	15148.82
588.89	13987.63
589.09	12609.34
589.28	10866.52
589.47	9453.42
589.67	7917.45
589.86	6543.26
590.06	4966.32
590.25	3915.72
590.44	3166.16
590.64	2559.96
590.83	2303.96
591.02	2103.26
591.22	2056.16
591.41	1871.84
591.60	1761.25
591.80	1916.90
591.99	1779.68
592.18	1775.59
592.38	1818.60
592.57	1800.16
592.76	1789.92
592.96	1777.64
593.15	1779.68
593.34	1796.07
593.54	1742.82
593.73	1734.63
593.92	1781.73
594.12	1734.63
594.31	1753.06
594.50	1816.55
594.70	1746.92
594.89	1910.75
595.08	1718.25
595.28	1708.01
595.47	1902.56
595.66	1781.73
595.86	1671.14
596.05	1791.97
596.24	1730.53
596.43	1886.18
596.63	1798.12
596.82	1834.98
597.01	1773.54
597.21	1828.84
597.40	1738.73
597.59	1785.83
597.79	1757.16
597.98	1716.20
598.17	1777.64
598.36	1736.68
598.56	1783.78
598.75	1689.57
598.94	1720.29
599.14	1787.88
599.33	1665.00
599.52	1755.11
599.71	1720.29
599.91	1808.36
600.10	1742.82
600.29	1720.29
600.48	1763.30
600.68	1738.73
600.87	1650.66
601.06	1691.62
601.26	1757.16
601.45	1748.97
601.64	1791.97
601.83	1753.06
602.03	1697.77
602.22	1679.33
602.41	1791.97
602.60	1898.47
602.80	1845.22
602.99	1777.64
603.18	1695.72
603.37	1746.92
603.57	1736.68
603.76	1828.84
603.95	1787.88
604.14	1652.71
604.34	1753.06
604.53	1675.24
604.72	1753.06
604.91	1734.63
605.10	1679.33
605.30	1671.14
605.49	1959.91
605.68	1757.16
605.87	1773.54
606.07	1755.11
606.26	1714.15
606.45	1722.34
606.64	1712.10
606.84	1736.68
607.03	1693.67
607.22	1828.84
607.41	1650.66
607.60	1714.15
607.80	1804.26
607.99	1648.61
608.18	1693.67
608.37	1785.83
608.56	1718.25
608.76	1757.16
608.95	1847.27
609.14	1730.53
609.33	1734.63
609.52	1798.12
609.72	1710.05
609.91	1806.31
610.10	1667.05
610.29	1841.12
610.48	1769.44
610.68	1746.92
610.87	1734.63
611.06	1656.81
611.25	1669.09
611.44	1789.92
611.63	1716.20
611.83	1779.68
612.02	1638.38
612.21	1812.45
612.40	1644.52
612.59	1685.48
612.79	1730.53
612.98	1748.97
613.17	1839.08
613.36	1753.06
613.55	1789.92
613.74	1714.15
613.93	1693.67
614.13	1763.30
614.32	1769.44
614.51	1761.25
614.70	1730.53
614.89	1740.77
615.08	1708.01
615.28	2078.69
615.47	1693.67
615.66	1710.05
615.85	1740.77
616.04	1755.11
616.23	1761.25
616.42	1660.90
616.62	1824.74
616.81	1751.01
617.00	1703.91
617.19	1722.34
617.38	1679.33
617.57	1609.70
617.76	1767.40
617.95	1763.30
618.15	1734.63
618.34	1769.44
618.53	1652.71
618.72	1810.40
618.91	1849.32
619.10	1884.13
619.29	1699.81
619.48	1697.77
619.68	1628.14
619.87	1673.19
620.06	1646.57
620.25	1757.16
620.44	1738.73
620.63	1673.19
620.82	1685.48
621.01	1804.26
621.20	1701.86
621.39	1730.53
621.59	1728.49
621.78	1701.86
621.97	1701.86
622.16	1820.64
622.35	1738.73
622.54	1769.44
622.73	1769.44
622.92	1564.65
623.11	1718.25
623.30	1730.53
623.49	1755.11
623.68	1689.57
623.88	1742.82
624.07	1699.81
624.26	1710.05
624.45	1693.67
624.64	1650.66
624.83	1687.53
625.02	1730.53
625.21	1804.26
625.40	1685.48
625.59	1824.74
625.78	1744.87
625.97	1753.06
626.16	1785.83
626.35	1755.11
626.54	1748.97
626.74	1765.35
626.93	1619.94
627.12	1685.48
627.31	1769.44
627.50	1724.39
627.69	1701.86
627.88	1632.23
628.07	1683.43
628.26	1576.94
628.45	1626.09
628.64	1632.23
628.83	1822.69
629.02	1671.14
629.21	1679.33
629.40	1734.63
629.59	1632.23
629.78	1720.29
629.97	1705.96
630.16	1728.49
630.35	1736.68
630.54	1628.14
630.73	1648.61
630.92	1757.16
631.11	1724.39
631.30	1644.52
631.49	1816.55
631.68	1710.05
631.87	1789.92
632.06	1685.48
632.25	1871.84
632.44	1705.96
632.63	1708.01
632.82	1689.57
633.01	1650.66
633.20	1642.47
633.39	1712.10
633.58	1595.37
633.77	1759.21
633.96	1822.69
634.15	1761.25
634.34	1814.50
634.53	1718.25
634.72	1714.15
634.91	1644.52
635.10	1667.05
635.29	1703.91
635.48	1746.92
635.67	1669.09
635.86	1681.38
636.05	1853.41
636.24	1757.16
636.43	1722.34
636.62	1728.49
636.81	1595.37
637.00	1734.63
637.19	1705.96
637.38	1746.92
637.57	1673.19
637.76	1730.53
637.95	1644.52
638.14	1658.85
638.33	1638.38
638.52	1658.85
638.71	1621.99
638.89	1646.57
639.08	1839.08
639.27	1804.26
639.46	1767.40
639.65	1830.88
639.84	1783.78
640.03	1783.78
640.22	1691.62
640.41	1859.56
640.60	1644.52
640.79	1728.49
640.98	1615.85
641.17	1787.88
641.36	1701.86
641.55	1839.08
641.74	1613.80
641.92	1665.00
642.11	1650.66
642.30	1708.01
642.49	1677.29
642.68	1687.53
642.87	1753.06
643.06	1708.01
643.25	1683.43
643.44	1648.61
643.63	1724.39
643.82	1708.01
644.00	1654.76
644.19	1748.97
644.38	1685.48
644.57	1826.79
644.76	1687.53
644.95	1691.62
645.14	1703.91
645.33	1746.92
645.52	1673.19
645.71	1621.99
645.89	1660.90
646.08	1755.11
646.27	1677.29
646.46	1779.68
646.65	1603.56
646.84	1726.44
647.03	1669.09
647.22	1839.08
647.40	1726.44
647.59	1658.85
647.78	1703.91
647.97	1652.71
648.16	1705.96
648.35	1746.92
648.54	1753.06
648.73	1705.96
648.91	1685.48
649.10	1732.58
649.29	1689.57
649.48	1710.05
649.67	1716.20
649.86	1701.86
650.05	1638.38
650.23	1787.88
650.42	1669.09
650.61	1771.49
650.80	1767.40
650.99	1820.64
651.18	1697.77
651.36	1734.63
651.55	1593.32
651.74	1714.15
651.93	1658.85
652.12	1738.73
652.31	1695.72
652.49	1718.25
652.68	1789.92
652.87	1804.26
653.06	1703.91
653.25	1703.91
653.44	1785.83
653.62	1783.78
653.81	1613.80
654.00	1718.25
654.19	1761.25
654.38	1812.45
654.56	1699.81
654.75	1685.48
654.94	1837.03
655.13	1677.29
655.32	1728.49
655.51	1767.40
655.69	1681.38
655.88	1689.57
656.07	1660.90
656.26	1775.59
656.45	1634.28
656.63	1695.72
656.82	1722.34
657.01	1720.29
657.20	1701.86
657.38	1834.98
657.57	1681.38
657.76	1638.38
657.95	1804.26
658.14	1656.81
658.32	1718.25
658.51	1669.09
658.70	1746.92
658.89	1800.16
659.08	1767.40
659.26	1775.59
659.45	1703.91
659.64	1798.12
659.83	1621.99
660.01	1890.28
660.20	1665.00
660.39	1890.28
660.58	1603.56
660.76	1677.29
660.95	1699.81
661.14	1734.63
661.33	1675.24
661.51	1703.91
661.70	1716.20
661.89	1675.24
662.08	1724.39
662.26	1619.94
662.45	1697.77
662.64	1816.55
662.83	1820.64
663.01	1656.81
663.20	1720.29
663.39	1785.83
663.58	1671.14
663.76	1673.19
663.95	1714.15
664.14	1652.71
664.32	1703.91
664.51	1775.59
664.70	1570.79
664.89	1759.21
665.07	1624.04
665.26	1837.03
665.45	1632.23
665.64	1783.78
665.82	1701.86
666.01	1726.44
666.20	1640.42
666.38	1794.02
666.57	1771.49
666.76	2097.12
666.95	4433.85
667.13	10088.29
667.32	15126.30
667.51	17716.98
667.69	19101.40
667.88	17315.58
668.07	12326.72
668.25	9498.48
668.44	8009.61
668.63	7417.74
668.81	6860.70
669.00	6180.77
669.19	5760.94
669.38	5103.54
669.56	4497.34
669.75	4050.88
669.94	3448.78
670.12	2947.03
670.31	2547.67
670.50	2328.54
670.68	2033.63
670.87	1935.33
671.06	1853.41
671.24	1810.40
671.43	1871.84
671.62	1675.24
671.80	1636.33
671.99	1753.06
672.18	1708.01
672.36	1732.58
672.55	1708.01
672.74	1699.81
672.92	1734.63
673.11	1742.82
673.29	1673.19
673.48	1779.68
673.67	1701.86
673.85	1818.60
674.04	1636.33
674.23	1740.77
674.41	1802.21
674.60	1712.10
674.79	1708.01
674.97	1626.09
675.16	1753.06
675.34	1804.26
675.53	1609.70
675.72	1771.49
675.90	1824.74
676.09	1642.47
676.28	1705.96
676.46	1630.18
676.65	1783.78
676.83	1697.77
677.02	1640.42
677.21	1679.33
677.39	1796.07
677.58	1669.09
677.77	1669.09
677.95	1646.57
678.14	1734.63
678.32	1718.25
678.51	1667.05
678.70	1746.92
678.88	1654.76
679.07	1708.01
679.25	1736.68
679.44	1712.10
679.63	1654.76
679.81	1726.44
680.00	1724.39
680.18	1746.92
680.37	1800.16
680.55	1671.14
680.74	1667.05
680.93	1599.46
681.11	1736.68
681.30	1771.49
681.48	1738.73
681.67	1775.59
681.85	1656.81
682.04	1705.96
682.23	1779.68
682.41	1697.77
682.60	1671.14
682.78	1687.53
682.97	1697.77
683.15	1722.34
683.34	1728.49
683.53	1763.30
683.71	1667.05
683.90	1832.93
684.08	1753.06
684.27	1736.68
684.45	1693.67
684.64	1787.88
684.82	1714.15
685.01	1724.39
685.19	1691.62
685.38	1724.39
685.57	1730.53
685.75	1677.29
685.94	1691.62
686.12	1710.05
686.31	1632.23
686.49	1757.16
686.68	1570.79
686.86	1669.09
687.05	1660.90
687.23	1783.78
687.42	1660.90
687.60	1611.75
687.79	1693.67
687.97	1734.63
688.16	1783.78
688.34	1699.81
688.53	1607.66
688.71	1697.77
688.90	1769.44
689.08	1728.49
689.27	1581.03
689.45	1689.57
689.64	1710.05
689.82	1656.81
690.01	1810.40
690.19	1693.67
690.38	1738.73
690.56	1710.05
690.75	1652.71
690.93	1705.96
691.12	1703.91
691.30	1642.47
691.49	1718.25
691.67	1656.81
691.86	1832.93
692.04	1691.62
692.23	1679.33
692.41	1697.77
692.60	1806.31
692.78	1720.29
692.97	1669.09
693.15	1724.39
693.34	1814.50
693.52	1708.01
693.71	1652.71
693.89	1626.09
694.08	1621.99
694.26	1742.82
694.44	1689.57
694.63	1710.05
694.81	1712.10
695.00	1640.42
695.18	1783.78
695.37	1822.69
695.55	1714.15
695.74	1767.40
695.92	1769.44
696.10	1761.25
696.29	1589.22
696.47	1660.90
696.66	1646.57
696.84	1593.32
697.03	1652.71
697.21	1802.21
697.40	2269.15
697.58	1722.34
697.76	1669.09
697.95	1681.38
698.13	1708.01
698.32	1701.86
698.50	1681.38
698.68	1679.33
698.87	1798.12
699.05	1724.39
699.24	1708.01
699.42	1687.53
699.61	1714.15
699.79	1701.86
699.97	1683.43
700.16	1624.04
700.34	1654.76
700.53	1763.30
700.71	1759.21
700.89	1779.68
701.08	1720.29
701.26	1781.73
701.45	2107.36
701.63	1656.81
701.81	1628.14
702.00	1685.48
702.18	1660.90
702.37	1660.90
702.55	1755.11
702.73	1697.77
702.92	1566.70
703.10	1734.63
703.28	1763.30
703.47	1693.67
703.65	1748.97
703.84	1783.78
704.02	1660.90
704.20	1859.56
704.39	1669.09
704.57	1757.16
704.75	1699.81
704.94	1714.15
705.12	1763.30
705.30	1746.92
705.49	2265.05
705.67	4319.17
705.86	9252.72
706.04	12541.76
706.22	14587.68
706.41	15458.07
706.59	13918.00
706.77	9633.64
706.96	7296.91
707.14	6514.59
707.32	5955.49
707.51	5531.56
707.69	4890.55
707.87	4257.73
708.06	3559.37
708.24	2899.92
708.42	2486.23
708.61	2295.77
708.79	1875.94
708.97	1824.74
709.16	1824.74
709.34	1767.40
709.52	1718.25
709.71	1722.34
709.89	1777.64
710.07	1742.82
710.26	1734.63
710.44	1714.15
710.62	1671.14
710.80	1714.15
710.99	1718.25
711.17	1705.96
711.35	1714.15
711.54	1695.72
711.72	1677.29
711.90	1724.39
712.09	1695.72
712.27	1640.42
712.45	1773.54
712.63	1718.25
712.82	1824.74
713.00	1703.91
713.18	1755.11
713.37	1814.50
713.55	1777.64
713.73	1675.24
713.91	1705.96
714.10	1679.33
714.28	1734.63
714.46	1732.58
714.65	1691.62
714.83	1660.90
715.01	1619.94
715.19	1738.73
715.38	1640.42
715.56	1742.82
715.74	1656.81
715.92	1681.38
716.11	1748.97
716.29	1646.57
716.47	1660.90
716.65	1677.29
716.84	1597.42
717.02	1800.16
717.20	1562.60
717.38	1648.61
717.57	1755.11
717.75	1767.40
717.93	1648.61
718.11	1738.73
718.30	1667.05
718.48	1759.21
718.66	1746.92
718.84	1705.96
719.03	1644.52
719.21	1619.94
719.39	1804.26
719.57	1691.62
719.75	1759.21
719.94	1652.71
720.12	1732.58
720.30	1744.87
720.48	1691.62
720.67	1587.18
720.85	1624.04
721.03	1699.81
721.21	1646.57
721.39	1683.43
721.58	1730.53
721.76	1720.29
721.94	1777.64
722.12	1742.82
722.30	1730.53
722.49	1640.42
722.67	1724.39
722.85	1738.73
723.03	1632.23
723.21	1695.72
723.40	1677.29
723.58	1804.26
723.76	1787.88
723.94	1769.44
724.12	1675.24
724.30	1740.77
724.49	1722.34
724.67	1624.04
724.85	1751.01
725.03	1703.91
725.21	1761.25
725.40	1728.49
725.58	1615.85
725.76	1660.90
725.94	1738.73
726.12	1583.08
726.30	1710.05
726.49	1681.38
726.67	1689.57
726.85	1751.01
727.03	1740.77
727.21	2125.79
727.39	2795.48
727.57	3760.07
727.76	4108.23
727.94	4403.13
728.12	4341.69
728.30	3653.58
728.48	2983.89
728.66	2688.98
728.84	2549.72
729.03	2316.25
729.21	2045.92
729.39	1867.75
729.57	1859.56
729.75	1769.44
729.93	1812.45
730.11	1734.63
730.30	1628.14
730.48	1744.87
730.66	1775.59
730.84	1701.86
731.02	1701.86
731.20	1673.19
731.38	1705.96
731.56	1640.42
731.74	1681.38
731.93	1716.20
732.11	1718.25
732.29	1667.05
732.47	1701.86
732.65	1669.09
732.83	1759.21
733.01	1714.15
733.19	1689.57
733.37	1714.15
733.56	1726.44
733.74	1699.81
733.92	1828.84
734.10	1615.85
734.28	1746.92
734.46	1591.27
734.64	1642.47
734.82	1624.04
735.00	1644.52
735.18	1685.48
735.36	1697.77
735.54	1683.43
735.73	1755.11
735.91	1734.63
736.09	1726.44
736.27	1654.76
736.45	1705.96
736.63	1576.94
736.81	1726.44
736.99	1720.29
737.17	1771.49
737.35	1662.95
737.53	1675.24
737.71	1673.19
737.89	1710.05
738.07	1675.24
738.25	1628.14
738.43	1564.65
738.61	1697.77
738.80	1621.99
738.98	1632.23
739.16	1656.81
739.34	1681.38
739.52	1708.01
739.70	1648.61
739.88	1722.34
740.06	1781.73
740.24	1611.75
740.42	1748.97
740.60	1662.95
740.78	1726.44
740.96	1671.14
741.14	1660.90
741.32	1681.38
741.50	1632.23
741.68	1820.64
741.86	1794.02
742.04	1662.95
742.22	1611.75
742.40	1656.81
742.58	1689.57
742.76	1644.52
742.94	1740.77
743.12	1626.09
743.30	1656.81
743.48	1689.57
743.66	1603.56
743.84	1730.53
744.02	1726.44
744.20	1716.20
744.38	1650.66
744.56	1675.24
744.74	1824.74
744.92	1740.77
745.10	1771.49
745.28	1787.88
745.46	1794.02
745.64	1775.59
745.82	1757.16
746.00	1693.67
746.18	1755.11
746.36	1652.71
746.54	1714.15
746.72	1712.10
746.90	1642.47
747.08	1705.96
747.26	1722.34
747.44	1757.16
747.62	1740.77
747.80	1697.77
747.98	1800.16
748.15	1775.59
748.33	1761.25
748.51	1738.73
748.69	1794.02
748.87	1652.71
749.05	1646.57
749.23	1712.10
749.41	1755.11
749.59	1689.57
749.77	1787.88
749.95	1693.67
750.13	1662.95
750.31	1681.38
750.49	1630.18
750.67	1724.39
750.85	1812.45
751.03	1677.29
751.20	1847.27
751.38	1742.82
751.56	1705.96
751.74	1724.39
751.92	1685.48
752.10	1615.85
752.28	1785.83
752.46	1681.38
752.64	1642.47
752.82	1718.25
753.00	1687.53
753.18	1675.24
753.35	1683.43
753.53	1556.46
753.71	1716.20
753.89	1751.01
754.07	1652.71
754.25	1728.49
754.43	1683.43
754.61	1609.70
754.79	1671.14
754.97	1695.72
755.14	1689.57
755.32	1619.94
755.50	1742.82
755.68	1789.92
755.86	1619.94
756.04	1695.72
756.22	1599.46
756.40	1718.25
756.57	1871.84
756.75	1701.86
756.93	1828.84
757.11	1708.01
757.29	1656.81
757.47	1667.05
757.65	1697.77
757.82	1613.80
758.00	1626.09
758.18	1624.04
758.36	1591.27
758.54	1722.34
758.72	1607.66
758.90	1730.53
759.07	1716.20
759.25	1673.19
759.43	1708.01
759.61	1669.09
759.79	2156.51
759.97	1791.97
760.15	1601.51
760.32	1701.86
760.50	1708.01
760.68	1765.35
760.86	1658.85
761.04	1699.81
761.22	1677.29
761.39	1683.43
761.57	1699.81
761.75	1687.53
761.93	1660.90
762.11	1720.29
762.28	1722.34
762.46	1656.81
762.64	1787.88
762.82	1648.61
763.00	1716.20
763.18	1775.59
763.35	1558.50
763.53	1800.16
763.71	1683.43
763.89	1757.16
764.07	1650.66
764.24	1685.48
764.42	1779.68
764.60	1761.25
764.78	1693.67
764.96	1816.55
765.13	1810.40
765.31	1640.42
765.49	1730.53
765.67	1613.80
765.84	1646.57
766.02	1624.04
766.20	1654.76
766.38	1730.53
766.56	1705.96
766.73	1730.53
766.91	1650.66
767.09	1824.74
767.27	1691.62
767.44	1607.66
767.62	1742.82
767.80	1759.21
767.98	1617.90
768.15	1626.09
768.33	1691.62
768.51	1662.95
768.69	1789.92
768.87	1699.81
769.04	1693.67
769.22	1812.45
769.40	1771.49
769.58	1810.40
769.75	1744.87
769.93	1783.78
770.11	1691.62
770.28	1605.61
770.46	1726.44
770.64	1716.20
770.82	1673.19
770.99	1695.72
771.17	1712.10
771.35	1679.33
771.53	1658.85
771.70	1654.76
771.88	1681.38
772.06	1724.39
772.23	1687.53
772.41	1740.77
772.59	1738.73
772.77	1640.42
772.94	1734.63
773.12	1681.38
773.30	1669.09
773.47	1708.01
773.65	1634.28
773.83	1781.73
774.01	1667.05
774.18	1650.66
774.36	1665.00
774.54	1595.37
774.71	1681.38
774.89	1654.76
775.07	1656.81
775.24	1685.48
775.42	1689.57
775.60	1824.74
775.78	1607.66
775.95	1673.19
776.13	1495.02
776.31	1607.66
776.48	1701.86
776.66	1722.34
776.84	1691.62
777.01	1667.05
777.19	1660.90
777.37	1687.53
777.54	1693.67
777.72	1816.55
777.90	1644.52
778.07	1734.63
778.25	1865.70
778.43	1720.29
778.60	1671.14
778.78	1742.82
778.96	1771.49
779.13	1640.42
779.31	1685.48
779.49	1732.58
779.66	1673.19
779.84	1697.77
780.01	1621.99
780.19	1609.70
780.37	1810.40
780.54	1724.39
780.72	1662.95
780.90	1640.42
781.07	1624.04
781.25	1617.90
781.43	1681.38
781.60	1687.53
781.78	1742.82
781.95	1714.15
782.13	1632.23
782.31	1705.96
782.48	1583.08
782.66	1687.53
782.83	1828.84
783.01	1658.85
783.19	1722.34
783.36	1734.63
783.54	1613.80
783.72	1738.73
783.89	1695.72
784.07	1679.33
784.24	1689.57
784.42	1804.26
784.60	1714.15
784.77	1765.35
784.95	1609.70
785.12	1652.71
785.30	1708.01
785.47	1619.94
785.65	1648.61
785.83	1718.25
786.00	1656.81
786.18	1726.44
786.35	1644.52
786.53	1718.25
786.71	1736.68
786.88	1662.95
787.06	1732.58
787.23	1742.82
787.41	1662.95
787.58	1619.94
787.76	1665.00
787.94	1744.87
788.11	1656.81
788.29	1644.52
788.46	1665.00
788.64	1601.51
788.81	1552.36
788.99	1615.85
789.16	1628.14
789.34	1699.81
789.52	1656.81
789.69	1650.66
789.87	1656.81
790.04	1615.85
790.22	1685.48
790.39	1787.88
790.57	1665.00
790.74	1699.81
790.92	1712.10
791.09	1578.98
791.27	1691.62
791.44	1773.54
791.62	1679.33
791.79	1671.14
791.97	1748.97
792.15	1841.12
792.32	1683.43
792.50	1697.77
792.67	1744.87
792.85	1804.26
793.02	1732.58
793.20	1748.97
793.37	1615.85
793.55	1724.39
793.72	1621.99
793.90	1742.82
794.07	1648.61
794.25	1632.23
794.42	1683.43
794.60	1693.67
794.77	1726.44
794.95	1732.58
795.12	1683.43
795.30	1626.09
795.47	1607.66
795.65	1884.13
795.82	1708.01
796.00	1660.90
796.17	1679.33
796.34	1720.29
796.52	1691.62
796.69	1781.73
796.87	1753.06
797.04	1705.96
797.22	1697.77
797.39	1732.58
797.57	1734.63
797.74	1689.57
797.92	1710.05
798.09	1736.68
798.27	1759.21
798.44	1728.49
798.62	1660.90
798.79	1789.92
798.96	1712.10
799.14	1644.52
799.31	1783.78
799.49	1632.23
799.66	1658.85
799.84	1679.33
800.01	1701.86
800.19	1667.05
800.36	1665.00
800.53	1716.20
800.71	1652.71
800.88	1748.97
801.06	1701.86
801.23	1660.90
801.41	1673.19
801.58	1621.99
801.75	1615.85
801.93	1785.83
802.10	1699.81
802.28	1697.77
802.45	1658.85
802.63	1685.48
802.80	1755.11
802.97	1642.47
803.15	1703.91
803.32	1714.15
803.50	1609.70
803.67	1679.33
803.84	1658.85
804.02	1730.53
804.19	1619.94
804.37	1634.28
804.54	1486.83
804.71	1595.37
804.89	1652.71
805.06	1581.03
805.24	1697.77
805.41	1607.66
805.58	1662.95
805.76	1873.89
805.93	1648.61
806.10	1845.22
806.28	1718.25
806.45	1689.57
806.63	1660.90
806.80	1720.29
806.97	1656.81
807.15	1632.23
807.32	1746.92
807.49	1722.34
807.67	1605.61
807.84	1738.73
808.01	1626.09
808.19	1804.26
808.36	1783.78
808.54	1595.37
808.71	1683.43
808.88	1712.10
809.06	1613.80
809.23	1767.40
809.40	1665.00
809.58	1822.69
809.75	1685.48
809.92	1624.04
810.10	1820.64
810.27	1642.47
810.44	1708.01
810.62	1787.88
810.79	1714.15
810.96	1660.90
811.14	1671.14
811.31	1738.73
811.48	1783.78
811.66	1742.82
811.83	1689.57
812.00	1720.29
812.18	1665.00
812.35	1857.51
812.52	1716.20
812.69	1660.90
812.87	1691.62
813.04	1732.58
813.21	1634.28
813.39	1665.00
813.56	1656.81
813.73	1769.44
813.91	1644.52
814.08	1689.57
814.25	1691.62
814.42	1599.46
814.60	1652.71
814.77	1742.82
814.94	1654.76
815.12	1626.09
815.29	1740.77
815.46	1656.81
815.63	1685.48
815.81	1628.14
815.98	1732.58
816.15	1669.09
816.33	1728.49
816.50	1712.10
816.67	1593.32
816.84	1699.81
817.02	1621.99
817.19	1597.42
817.36	1720.29
817.53	1769.44
817.71	1660.90
817.88	1665.00
818.05	1720.29
818.22	1634.28
818.40	1843.17
818.57	1708.01
818.74	1755.11
818.91	1693.67
819.09	1755.11
819.26	1816.55
819.43	1581.03
819.60	1597.42
819.78	1732.58
819.95	1730.53
820.12	1609.70
820.29	1736.68
820.47	1726.44
820.64	1699.81
820.81	1595.37
820.98	1673.19
821.15	1632.23
821.33	1748.97
821.50	1605.61
821.67	1685.48
821.84	1697.77
822.02	1712.10
822.19	1695.72
822.36	1591.27
822.53	1714.15
822.70	1667.05
822.88	1624.04
823.05	1828.84
823.22	1730.53
823.39	1703.91
823.56	1705.96
823.74	1787.88
823.91	1656.81
824.08	1601.51
824.25	1660.90
824.42	1746.92
824.60	1632.23
824.77	1644.52
824.94	1652.71
825.11	1697.77
825.28	1595.37
825.45	1748.97
825.63	1775.59
825.80	1665.00
825.97	1677.29
826.14	1693.67
826.31	1558.50
826.48	1669.09
826.66	1669.09
826.83	1654.76
827.00	1677.29
827.17	1685.48
827.34	1667.05
827.51	1652.71
827.69	1691.62
827.86	1642.47
828.03	1656.81
828.20	1755.11
828.37	1632.23
828.54	1697.77
828.71	1720.29
828.89	1759.21
829.06	1656.81
829.23	1773.54
829.40	1626.09
829.57	1667.05
829.74	1716.20
829.91	1591.27
830.09	1671.14
830.26	1708.01
830.43	1701.86
830.60	1548.26
830.77	1767.40
830.94	1744.87
831.11	1783.78
831.28	1693.67
831.46	1728.49
831.63	1681.38
831.80	1740.77
831.97	1665.00
832.14	1640.42
832.31	1669.09
832.48	1701.86
832.65	1740.77
832.82	1693.67
832.99	1742.82
833.17	1599.46
833.34	1773.54
833.51	1720.29
833.68	1568.74
833.85	1712.10
834.02	1703.91
834.19	1587.18
834.36	1603.56
834.53	1722.34
834.70	1800.16
834.87	1722.34
835.04	1673.19
835.22	1656.81
835.39	1693.67
835.56	1693.67
835.73	1667.05
835.90	1738.73
836.07	1683.43
836.24	1755.11
836.41	1601.51
836.58	1621.99
836.75	1789.92
836.92	1677.29
837.09	1636.33
837.26	1685.48
837.43	1679.33
837.60	1693.67
837.77	1660.90
837.94	1722.34
838.12	1697.77
838.29	1660.90
838.46	1658.85
838.63	1712.10
838.80	1789.92
838.97	1734.63
839.14	1691.62
839.31	1708.01
839.48	1837.03
839.65	1617.90
839.82	1787.88
839.99	1699.81
840.16	1679.33
840.33	1650.66
840.50	1753.06
840.67	1669.09
840.84	1533.93
841.01	1714.15
841.18	1673.19
841.35	1624.04
841.52	1685.48
841.69	1771.49
841.86	1689.57
842.03	1734.63
842.20	1718.25
842.37	1732.58
842.54	1779.68
842.71	1722.34
842.88	1658.85
843.05	1705.96
843.22	1617.90
843.39	1718.25
843.56	1646.57
843.73	1652.71
843.90	1761.25
844.07	1652.71
844.24	1695.72
844.41	1746.92
844.58	1701.86
844.75	1656.81
844.92	1748.97
845.09	1644.52
845.26	1685.48
845.43	1638.38
845.60	1703.91
845.77	1693.67
845.94	1746.92
846.10	1755.11
846.27	1574.89
846.44	1607.66
846.61	1628.14
846.78	1695.72
846.95	1744.87
847.12	1679.33
847.29	1728.49
847.46	1595.37
847.63	1718.25
847.80	1656.81
847.97	1624.04
848.14	1841.12
848.31	1665.00
848.48	1591.27
848.65	1697.77
848.82	1726.44
848.98	1933.28
849.15	1748.97
849.32	1771.49
849.49	1757.16
849.66	1728.49
849.83	1648.61
850.00	1695.72
850.17	1728.49
850.34	1779.68
850.51	1681.38
850.68	1669.09
850.85	1796.07
851.01	1685.48
851.18	1712.10
851.35	1714.15
851.52	1677.29
851.69	1759.21
851.86	1593.32
852.03	1632.23
852.20	1689.57
852.37	1685.48
852.53	1609.70
852.70	1656.81
852.87	1665.00
853.04	1708.01
853.21	1695.72
853.38	1757.16
853.55	1775.59
853.72	1824.74
853.89	1615.85
854.05	1554.41
854.22	1669.09
854.39	1640.42
854.56	1812.45
854.73	1767.40
854.90	1632.23
855.07	1636.33
855.23	1669.09
855.40	1667.05
855.57	1665.00
855.74	1542.12
855.91	1853.41
856.08	1646.57
856.25	1544.17
856.41	1589.22
856.58	1685.48
856.75	1742.82
856.92	1576.94
857.09	1722.34
857.26	1607.66
857.42	1746.92
857.59	1685.48
857.76	1759.21
857.93	1748.97
858.10	1753.06
858.27	1640.42
858.43	1728.49
858.60	1542.12
858.77	1634.28
858.94	1687.53
859.11	1708.01
859.27	1673.19
859.44	1685.48
859.61	1683.43
859.78	1732.58
859.95	1644.52
860.12	1644.52
860.28	1804.26
860.45	1816.55
860.62	1619.94
860.79	1740.77
860.95	1624.04
861.12	1705.96
861.29	1722.34
861.46	1630.18
861.63	1769.44
861.79	1726.44
861.96	1662.95
862.13	1593.32
862.30	1726.44
862.47	1689.57
862.63	1718.25
862.80	1789.92
862.97	1703.91
863.14	1730.53
863.30	1748.97
863.47	1648.61
863.64	1826.79
863.81	1703.91
863.97	1626.09
864.14	1695.72
864.31	1656.81
864.48	1644.52
864.65	1640.42
864.81	1705.96
864.98	1693.67
865.15	1718.25
865.32	1671.14
865.48	1779.68
865.65	1742.82
865.82	1658.85
865.98	1740.77
866.15	1740.77
866.32	1726.44
866.49	1763.30
866.65	1781.73
866.82	1642.47
866.99	1603.56
867.16	1693.67
867.32	1652.71
867.49	1691.62
867.66	1654.76
867.83	1611.75
867.99	1570.79
868.16	1730.53
868.33	1662.95
868.49	1669.09
868.66	1689.57
868.83	1660.90
868.99	1652.71
869.16	1640.42
869.33	1675.24
869.50	1785.83
869.66	1759.21
869.83	1714.15
870.00	1611.75
870.16	1740.77
870.33	1675.24
870.50	1777.64
870.66	1736.68
870.83	1718.25
871.00	1675.24
871.17	1728.49
871.33	1656.81
871.50	1632.23
871.67	1701.86
871.83	1708.01
872.00	1820.64
872.17	1742.82
872.33	1763.30
872.50	1742.82
872.67	1644.52
872.83	1755.11
873.00	1740.77
873.17	1660.90
873.33	1722.34
873.50	1685.48
873.67	1671.14
873.83	1669.09
874.00	1736.68
874.16	1708.01
874.33	1667.05
874.50	1656.81
874.66	1734.63
874.83	1701.86
875.00	1755.11
875.16	1740.77
875.33	1779.68
875.50	1611.75
875.66	1617.90
875.83	1734.63
875.99	1708.01
876.16	1646.57
876.33	1621.99
876.49	1730.53
876.66	1732.58
876.83	1691.62
876.99	1665.00
877.16	1689.57
877.32	1687.53
877.49	1665.00
877.66	1769.44
877.82	1816.55
877.99	1708.01
878.15	1841.12
878.32	1658.85
878.49	1656.81
878.65	1697.77
878.82	1740.77
878.98	1648.61
879.15	1787.88
879.32	1765.35
879.48	1681.38
879.65	1669.09
879.81	1648.61
879.98	1660.90
880.15	1632.23
880.31	1802.21
880.48	1624.04
880.64	1746.92
880.81	1677.29
880.97	1789.92
881.14	1728.49
881.31	1718.25
881.47	1865.70
881.64	1619.94
881.80	1574.89
881.97	1744.87
882.13	1798.12
882.30	1626.09
882.47	1619.94
882.63	1673.19
882.80	1648.61
882.96	1667.05
883.13	1761.25
883.29	1689.57
883.46	1656.81
883.62	1761.25
883.79	1644.52
883.95	1695.72
884.12	1718.25
884.29	1665.00
884.45	1722.34
884.62	1771.49
884.78	1648.61
884.95	1697.77
885.11	1634.28
885.28	1734.63
885.44	1771.49
885.61	1699.81
885.77	1806.31
885.94	1755.11
886.10	1675.24
886.27	1652.71
886.43	1783.78
886.60	1787.88
886.76	1656.81
886.93	1626.09
887.09	1624.04
887.26	1533.93
887.42	1685.48
887.59	1779.68
887.75	1808.36
887.92	1763.30
888.08	1728.49
888.25	1757.16
888.41	1746.92
888.58	1787.88
888.74	1615.85
888.91	1669.09
>>>>>End Processed Spectral Data<<<<<
