SpectraSuite Data File
++++++++++++++++++++++++++++++++++++
Date: Mon Jun 06 15:36:37 CEST 2016
User: root
Dark Spectrum Present: No
Reference Spectrum Present: No
Number of Sampled Component Spectra: 1
Spectrometers: USB4C02835
Integration Time (usec): 100000 (USB4C02835)
Spectra Averaged: 1 (USB4C02835)
Boxcar Smoothing: 0 (USB4C02835)
Correct for Electrical Dark: No (USB4C02835)
Strobe/Lamp Enabled: No (USB4C02835)
Correct for Detector Non-linearity: No (USB4C02835)
Correct for Stray Light: No (USB4C02835)
Number of Pixels in Processed Spectrum: 3648
>>>>>Begin Processed Spectral Data<<<<<
177.47	1509.35
177.69	1509.35
177.91	1509.35
178.13	1484.78
178.36	1550.31
178.58	1681.38
178.80	1841.12
179.02	1607.66
179.24	1701.86
179.46	1736.68
179.68	1779.68
179.90	1675.24
180.13	1787.88
180.35	1656.81
180.57	1667.05
180.79	1748.97
181.01	1720.29
181.23	1759.21
181.45	1763.30
181.67	1746.92
181.90	1779.68
182.12	1708.01
182.34	1652.71
182.56	1751.01
182.78	1673.19
183.00	1734.63
183.22	1728.49
183.44	1673.19
183.66	1834.98
183.89	1761.25
184.11	1755.11
184.33	1775.59
184.55	1734.63
184.77	1667.05
184.99	1716.20
185.21	1689.57
185.43	1861.60
185.65	1701.86
185.87	1748.97
186.10	1779.68
186.32	1830.88
186.54	1689.57
186.76	1808.36
186.98	1751.01
187.20	1732.58
187.42	1683.43
187.64	1724.39
187.86	1669.09
188.08	1744.87
188.30	1613.80
188.52	1624.04
188.75	1740.77
188.97	1794.02
189.19	1630.18
189.41	1740.77
189.63	1742.82
189.85	1740.77
190.07	1691.62
190.29	1679.33
190.51	1736.68
190.73	1683.43
190.95	1738.73
191.17	1708.01
191.39	1701.86
191.61	1746.92
191.84	1646.57
192.06	1714.15
192.28	1689.57
192.50	1830.88
192.72	1732.58
192.94	1705.96
193.16	1855.46
193.38	1730.53
193.60	1677.29
193.82	1658.85
194.04	1775.59
194.26	1736.68
194.48	1605.61
194.70	1714.15
194.92	1648.61
195.14	1710.05
195.36	1671.14
195.58	1720.29
195.80	1687.53
196.02	1581.03
196.24	1736.68
196.46	1757.16
196.69	1689.57
196.91	1820.64
197.13	1779.68
197.35	1593.32
197.57	1841.12
197.79	1794.02
198.01	1751.01
198.23	1714.15
198.45	1789.92
198.67	1716.20
198.89	1689.57
199.11	1734.63
199.33	1800.16
199.55	1624.04
199.77	1683.43
199.99	1675.24
200.21	1693.67
200.43	1695.72
200.65	1669.09
200.87	1589.22
201.09	1656.81
201.31	1714.15
201.53	1771.49
201.75	1730.53
201.97	1714.15
202.19	1699.81
202.41	1744.87
202.63	1859.56
202.85	1722.34
203.07	1802.21
203.29	1689.57
203.51	1695.72
203.73	1681.38
203.95	1857.51
204.17	1751.01
204.39	1763.30
204.61	1658.85
204.83	1691.62
205.05	1742.82
205.27	1755.11
205.49	1888.23
205.71	1740.77
205.93	1665.00
206.15	1689.57
206.37	1675.24
206.59	1673.19
206.81	1566.70
207.03	1738.73
207.25	1675.24
207.47	1789.92
207.69	1714.15
207.91	1775.59
208.13	1804.26
208.34	1642.47
208.56	1665.00
208.78	1720.29
209.00	1644.52
209.22	1593.32
209.44	1673.19
209.66	1738.73
209.88	1705.96
210.10	1677.29
210.32	1763.30
210.54	1777.64
210.76	1646.57
210.98	1814.50
211.20	1562.60
211.42	1675.24
211.64	1796.07
211.86	1738.73
212.08	1738.73
212.30	1755.11
212.52	1607.66
212.74	1699.81
212.96	1703.91
213.17	1775.59
213.39	1826.79
213.61	1781.73
213.83	1726.44
214.05	1712.10
214.27	1757.16
214.49	1669.09
214.71	1681.38
214.93	1734.63
215.15	1710.05
215.37	1689.57
215.59	1683.43
215.81	1781.73
216.03	1734.63
216.24	1697.77
216.46	1746.92
216.68	1665.00
216.90	1730.53
217.12	1761.25
217.34	1744.87
217.56	1703.91
217.78	1791.97
218.00	1691.62
218.22	1738.73
218.44	1724.39
218.66	1769.44
218.87	1791.97
219.09	1648.61
219.31	1744.87
219.53	1712.10
219.75	1687.53
219.97	1679.33
220.19	1812.45
220.41	1640.42
220.63	1857.51
220.85	1720.29
221.06	1671.14
221.28	1710.05
221.50	1718.25
221.72	1716.20
221.94	1730.53
222.16	1718.25
222.38	1734.63
222.60	1687.53
222.82	1703.91
223.03	1736.68
223.25	1607.66
223.47	1658.85
223.69	1775.59
223.91	1783.78
224.13	1728.49
224.35	1761.25
224.57	1728.49
224.78	1746.92
225.00	1701.86
225.22	1591.27
225.44	1746.92
225.66	1705.96
225.88	1701.86
226.10	1816.55
226.32	1703.91
226.53	1783.78
226.75	1787.88
226.97	1652.71
227.19	1660.90
227.41	1652.71
227.63	1646.57
227.85	1619.94
228.06	1736.68
228.28	1671.14
228.50	1753.06
228.72	1636.33
228.94	1671.14
229.16	1644.52
229.37	1648.61
229.59	1683.43
229.81	1806.31
230.03	1699.81
230.25	1589.22
230.47	1558.50
230.69	1648.61
230.90	1691.62
231.12	1699.81
231.34	1769.44
231.56	1763.30
231.78	1699.81
232.00	1753.06
232.21	1679.33
232.43	1691.62
232.65	1542.12
232.87	1781.73
233.09	1699.81
233.30	1724.39
233.52	1869.80
233.74	1726.44
233.96	1748.97
234.18	1738.73
234.40	1693.67
234.61	1767.40
234.83	1626.09
235.05	1628.14
235.27	1843.17
235.49	1806.31
235.70	1742.82
235.92	1728.49
236.14	1658.85
236.36	1845.22
236.58	1667.05
236.79	1779.68
237.01	1732.58
237.23	1669.09
237.45	1789.92
237.67	1658.85
237.88	1767.40
238.10	1798.12
238.32	1642.47
238.54	1697.77
238.76	1697.77
238.97	1681.38
239.19	1644.52
239.41	1757.16
239.63	1748.97
239.85	1685.48
240.06	1757.16
240.28	1675.24
240.50	1753.06
240.72	1654.76
240.93	1679.33
241.15	1816.55
241.37	1701.86
241.59	1714.15
241.81	1689.57
242.02	1603.56
242.24	1712.10
242.46	1755.11
242.68	1712.10
242.89	1710.05
243.11	1675.24
243.33	1716.20
243.55	1716.20
243.76	1814.50
243.98	1689.57
244.20	1697.77
244.42	1722.34
244.64	1767.40
244.85	1738.73
245.07	1611.75
245.29	1687.53
245.51	1626.09
245.72	1740.77
245.94	1775.59
246.16	1746.92
246.38	1761.25
246.59	1642.47
246.81	1730.53
247.03	1662.95
247.24	1615.85
247.46	1685.48
247.68	1714.15
247.90	1671.14
248.11	1753.06
248.33	1775.59
248.55	1681.38
248.77	1681.38
248.98	1771.49
249.20	1818.60
249.42	1693.67
249.64	1748.97
249.85	1681.38
250.07	1728.49
250.29	1837.03
250.50	1759.21
250.72	1609.70
250.94	1740.77
251.16	1869.80
251.37	1789.92
251.59	1783.78
251.81	1714.15
252.02	1724.39
252.24	1691.62
252.46	1746.92
252.68	1669.09
252.89	1679.33
253.11	1527.78
253.33	1779.68
253.54	1757.16
253.76	1687.53
253.98	1701.86
254.20	1695.72
254.41	1669.09
254.63	1742.82
254.85	1640.42
255.06	1726.44
255.28	1728.49
255.50	1660.90
255.71	1632.23
255.93	1630.18
256.15	1761.25
256.36	1789.92
256.58	1683.43
256.80	1751.01
257.02	1673.19
257.23	1755.11
257.45	1728.49
257.67	1845.22
257.88	1679.33
258.10	1722.34
258.32	1640.42
258.53	1728.49
258.75	1798.12
258.97	1683.43
259.18	1748.97
259.40	1724.39
259.62	1849.32
259.83	1808.36
260.05	1753.06
260.27	1970.15
260.48	1802.21
260.70	1693.67
260.92	1685.48
261.13	1714.15
261.35	1712.10
261.57	1794.02
261.78	1591.27
262.00	1634.28
262.22	1712.10
262.43	1609.70
262.65	1683.43
262.86	1773.54
263.08	1869.80
263.30	1769.44
263.51	1654.76
263.73	1648.61
263.95	1804.26
264.16	1697.77
264.38	1621.99
264.60	1759.21
264.81	1751.01
265.03	1728.49
265.25	1730.53
265.46	1708.01
265.68	1828.84
265.89	1718.25
266.11	1607.66
266.33	1810.40
266.54	1834.98
266.76	1767.40
266.98	1804.26
267.19	1763.30
267.41	1779.68
267.62	1650.66
267.84	1587.18
268.06	1808.36
268.27	1705.96
268.49	1751.01
268.70	1738.73
268.92	1701.86
269.14	1619.94
269.35	1611.75
269.57	1736.68
269.79	1763.30
270.00	1738.73
270.22	1794.02
270.43	1640.42
270.65	1587.18
270.87	1734.63
271.08	1689.57
271.30	1755.11
271.51	1671.14
271.73	1779.68
271.95	1771.49
272.16	1687.53
272.38	1658.85
272.59	1677.29
272.81	1783.78
273.02	1759.21
273.24	1746.92
273.46	1701.86
273.67	1648.61
273.89	1652.71
274.10	1742.82
274.32	1669.09
274.54	1667.05
274.75	1724.39
274.97	1728.49
275.18	1744.87
275.40	1691.62
275.61	1658.85
275.83	1689.57
276.05	1587.18
276.26	1730.53
276.48	1796.07
276.69	1726.44
276.91	1769.44
277.12	1767.40
277.34	1787.88
277.55	1689.57
277.77	1742.82
277.99	1695.72
278.20	1595.37
278.42	1638.38
278.63	1642.47
278.85	1681.38
279.06	1697.77
279.28	1730.53
279.49	1736.68
279.71	1730.53
279.93	1730.53
280.14	1703.91
280.36	1660.90
280.57	1728.49
280.79	1650.66
281.00	1673.19
281.22	1726.44
281.43	1779.68
281.65	1658.85
281.86	1738.73
282.08	1726.44
282.29	1802.21
282.51	1638.38
282.73	1593.32
282.94	1656.81
283.16	1656.81
283.37	1789.92
283.59	1687.53
283.80	1818.60
284.02	1710.05
284.23	1718.25
284.45	1736.68
284.66	1667.05
284.88	1632.23
285.09	1705.96
285.31	1681.38
285.52	1802.21
285.74	1621.99
285.95	1841.12
286.17	1804.26
286.38	1794.02
286.60	1640.42
286.81	1697.77
287.03	1804.26
287.24	1693.67
287.46	1708.01
287.67	1746.92
287.89	1775.59
288.10	1677.29
288.32	1744.87
288.53	1812.45
288.75	1681.38
288.96	1771.49
289.18	1662.95
289.39	1687.53
289.61	1738.73
289.82	1832.93
290.04	1796.07
290.25	1656.81
290.47	1787.88
290.68	1712.10
290.90	1757.16
291.11	1585.13
291.33	1724.39
291.54	1714.15
291.76	1630.18
291.97	1718.25
292.18	1718.25
292.40	1628.14
292.61	1665.00
292.83	1875.94
293.04	1675.24
293.26	1660.90
293.47	1695.72
293.69	1624.04
293.90	1701.86
294.12	1820.64
294.33	1656.81
294.55	1734.63
294.76	1765.35
294.97	1736.68
295.19	1820.64
295.40	1708.01
295.62	1740.77
295.83	1791.97
296.05	1718.25
296.26	1830.88
296.48	1695.72
296.69	1771.49
296.90	1636.33
297.12	1796.07
297.33	1843.17
297.55	1726.44
297.76	1822.69
297.98	1759.21
298.19	1726.44
298.41	1648.61
298.62	1712.10
298.83	1800.16
299.05	1734.63
299.26	1693.67
299.48	1644.52
299.69	1734.63
299.90	1671.14
300.12	1591.27
300.33	1744.87
300.55	1710.05
300.76	1710.05
300.98	1703.91
301.19	1728.49
301.40	1724.39
301.62	1718.25
301.83	1689.57
302.05	1658.85
302.26	1746.92
302.47	1791.97
302.69	1624.04
302.90	1755.11
303.12	1558.50
303.33	1814.50
303.54	1820.64
303.76	1619.94
303.97	1740.77
304.19	1816.55
304.40	1673.19
304.61	1804.26
304.83	1789.92
305.04	1832.93
305.26	1685.48
305.47	1679.33
305.68	1775.59
305.90	1591.27
306.11	1677.29
306.33	1738.73
306.54	1665.00
306.75	1714.15
306.97	1677.29
307.18	1605.61
307.39	1673.19
307.61	1816.55
307.82	1732.58
308.04	1779.68
308.25	1673.19
308.46	1720.29
308.68	1695.72
308.89	1714.15
309.10	1789.92
309.32	1773.54
309.53	1697.77
309.74	1794.02
309.96	1640.42
310.17	1755.11
310.39	1636.33
310.60	1824.74
310.81	1740.77
311.03	1568.74
311.24	1734.63
311.45	1716.20
311.67	1832.93
311.88	1714.15
312.09	1697.77
312.31	1738.73
312.52	1718.25
312.73	1759.21
312.95	1621.99
313.16	1681.38
313.37	1779.68
313.59	1761.25
313.80	1712.10
314.01	1832.93
314.23	1699.81
314.44	1720.29
314.65	1685.48
314.87	1699.81
315.08	1732.58
315.29	1665.00
315.51	1642.47
315.72	1691.62
315.93	1767.40
316.15	1812.45
316.36	1691.62
316.57	1697.77
316.79	1814.50
317.00	1665.00
317.21	1740.77
317.43	1716.20
317.64	1665.00
317.85	1599.46
318.07	1632.23
318.28	1660.90
318.49	1759.21
318.70	1968.10
318.92	1837.03
319.13	1810.40
319.34	1853.41
319.56	1789.92
319.77	1826.79
319.98	1798.12
320.20	1849.32
320.41	1730.53
320.62	1796.07
320.83	1695.72
321.05	1837.03
321.26	1728.49
321.47	1650.66
321.69	1736.68
321.90	1597.42
322.11	1681.38
322.32	1712.10
322.54	1773.54
322.75	1621.99
322.96	1837.03
323.18	1634.28
323.39	1609.70
323.60	1705.96
323.81	1673.19
324.03	1628.14
324.24	1701.86
324.45	1685.48
324.66	1619.94
324.88	1785.83
325.09	1718.25
325.30	1689.57
325.52	1699.81
325.73	1757.16
325.94	1632.23
326.15	1570.79
326.37	1699.81
326.58	1730.53
326.79	1794.02
327.00	1621.99
327.22	1720.29
327.43	1703.91
327.64	1701.86
327.85	1820.64
328.07	1763.30
328.28	1816.55
328.49	1738.73
328.70	1667.05
328.92	1656.81
329.13	1632.23
329.34	1773.54
329.55	1794.02
329.76	1701.86
329.98	1701.86
330.19	1816.55
330.40	1736.68
330.61	1837.03
330.83	1796.07
331.04	1701.86
331.25	1712.10
331.46	1720.29
331.68	1667.05
331.89	1779.68
332.10	1718.25
332.31	1724.39
332.52	1660.90
332.74	1783.78
332.95	1714.15
333.16	1703.91
333.37	1703.91
333.58	1681.38
333.80	1785.83
334.01	1621.99
334.22	1730.53
334.43	1722.34
334.64	1705.96
334.86	1665.00
335.07	1716.20
335.28	1757.16
335.49	1685.48
335.70	1744.87
335.92	1812.45
336.13	1869.80
336.34	1730.53
336.55	1738.73
336.76	1746.92
336.98	1578.98
337.19	1687.53
337.40	1824.74
337.61	1949.67
337.82	1722.34
338.04	1714.15
338.25	1603.56
338.46	1734.63
338.67	1648.61
338.88	1632.23
339.09	1693.67
339.31	1630.18
339.52	1646.57
339.73	1574.89
339.94	1714.15
340.15	1775.59
340.36	1724.39
340.58	1720.29
340.79	1615.85
341.00	1751.01
341.21	1654.76
341.42	1796.07
341.63	1673.19
341.85	1773.54
342.06	1759.21
342.27	1699.81
342.48	1722.34
342.69	1624.04
342.90	1746.92
343.12	1787.88
343.33	1781.73
343.54	1804.26
343.75	1738.73
343.96	1789.92
344.17	1669.09
344.38	1710.05
344.60	1662.95
344.81	1634.28
345.02	1710.05
345.23	1777.64
345.44	1736.68
345.65	1734.63
345.86	1746.92
346.07	1697.77
346.29	1675.24
346.50	1736.68
346.71	1744.87
346.92	1789.92
347.13	1814.50
347.34	1640.42
347.55	1794.02
347.76	1734.63
347.98	1658.85
348.19	1644.52
348.40	1841.12
348.61	1720.29
348.82	1812.45
349.03	1759.21
349.24	1699.81
349.45	1882.08
349.66	1656.81
349.88	1742.82
350.09	1708.01
350.30	1802.21
350.51	1744.87
350.72	1800.16
350.93	1730.53
351.14	1662.95
351.35	1767.40
351.56	1769.44
351.77	1697.77
351.99	1697.77
352.20	1875.94
352.41	1781.73
352.62	1546.22
352.83	1662.95
353.04	1677.29
353.25	1718.25
353.46	1767.40
353.67	1734.63
353.88	1679.33
354.09	1685.48
354.30	1652.71
354.52	1714.15
354.73	1777.64
354.94	1665.00
355.15	1712.10
355.36	1783.78
355.57	1730.53
355.78	1716.20
355.99	1640.42
356.20	1671.14
356.41	1771.49
356.62	1751.01
356.83	1748.97
357.04	1796.07
357.25	1662.95
357.46	1740.77
357.68	1589.22
357.89	1652.71
358.10	1644.52
358.31	1761.25
358.52	1771.49
358.73	1753.06
358.94	1720.29
359.15	1769.44
359.36	1791.97
359.57	1718.25
359.78	1665.00
359.99	1810.40
360.20	1665.00
360.41	1611.75
360.62	1783.78
360.83	1691.62
361.04	1712.10
361.25	1687.53
361.46	1798.12
361.67	1699.81
361.88	1728.49
362.09	1847.27
362.30	1714.15
362.51	1675.24
362.72	1791.97
362.93	1724.39
363.14	1742.82
363.35	1683.43
363.56	1628.14
363.78	1681.38
363.99	1816.55
364.20	1646.57
364.41	1636.33
364.62	1826.79
364.83	1697.77
365.04	1726.44
365.25	1738.73
365.46	1849.32
365.67	1738.73
365.88	1650.66
366.09	1669.09
366.30	1689.57
366.51	1775.59
366.72	1638.38
366.93	1669.09
367.14	1746.92
367.35	1785.83
367.56	1753.06
367.77	1798.12
367.98	1779.68
368.18	1789.92
368.39	1726.44
368.60	1673.19
368.81	1820.64
369.02	1779.68
369.23	1722.34
369.44	1619.94
369.65	1656.81
369.86	1712.10
370.07	1753.06
370.28	1673.19
370.49	1767.40
370.70	1714.15
370.91	1640.42
371.12	1703.91
371.33	1771.49
371.54	1669.09
371.75	1806.31
371.96	1615.85
372.17	1685.48
372.38	1796.07
372.59	1697.77
372.80	1703.91
373.01	1669.09
373.22	1765.35
373.43	1691.62
373.64	1685.48
373.85	1740.77
374.06	1820.64
374.26	1804.26
374.47	1804.26
374.68	1718.25
374.89	1714.15
375.10	1665.00
375.31	1753.06
375.52	1714.15
375.73	1687.53
375.94	1634.28
376.15	1789.92
376.36	1781.73
376.57	1693.67
376.78	1705.96
376.99	1687.53
377.20	1785.83
377.40	1695.72
377.61	1810.40
377.82	1667.05
378.03	1751.01
378.24	1748.97
378.45	1740.77
378.66	1794.02
378.87	1689.57
379.08	1681.38
379.29	1693.67
379.50	1705.96
379.71	1658.85
379.91	1722.34
380.12	1658.85
380.33	1751.01
380.54	1671.14
380.75	1744.87
380.96	1665.00
381.17	1718.25
381.38	1644.52
381.59	1730.53
381.80	1773.54
382.00	1841.12
382.21	1748.97
382.42	1830.88
382.63	1867.75
382.84	1765.35
383.05	1742.82
383.26	1902.56
383.47	1736.68
383.68	1738.73
383.88	1794.02
384.09	1765.35
384.30	1888.23
384.51	1665.00
384.72	1742.82
384.93	1607.66
385.14	1703.91
385.35	1791.97
385.55	1687.53
385.76	1837.03
385.97	1701.86
386.18	1724.39
386.39	1724.39
386.60	1701.86
386.81	1685.48
387.02	1687.53
387.22	1718.25
387.43	1748.97
387.64	1877.99
387.85	1957.86
388.06	2062.30
388.27	4151.23
388.48	6694.81
388.68	8083.33
388.89	9486.19
389.10	9412.46
389.31	8486.78
389.52	7495.57
389.73	6805.40
389.93	6137.76
390.14	5752.74
390.35	5066.67
390.56	4511.68
390.77	3782.60
390.98	2922.45
391.18	2473.95
391.39	2131.94
391.60	1855.46
391.81	1853.41
392.02	1740.77
392.23	1830.88
392.43	1798.12
392.64	1783.78
392.85	1646.57
393.06	1814.50
393.27	1783.78
393.47	1708.01
393.68	1722.34
393.89	1658.85
394.10	1783.78
394.31	1718.25
394.52	1691.62
394.72	1650.66
394.93	1857.51
395.14	1658.85
395.35	1818.60
395.56	1718.25
395.76	1701.86
395.97	1791.97
396.18	1869.80
396.39	1861.60
396.60	2019.30
396.80	1992.67
397.01	1912.80
397.22	1871.84
397.43	1873.89
397.64	1708.01
397.84	1765.35
398.05	1830.88
398.26	1767.40
398.47	1714.15
398.67	1886.18
398.88	1806.31
399.09	1738.73
399.30	1689.57
399.51	1845.22
399.71	1685.48
399.92	1738.73
400.13	1769.44
400.34	1705.96
400.54	1695.72
400.75	1845.22
400.96	1783.78
401.17	1892.32
401.37	1820.64
401.58	1767.40
401.79	1703.91
402.00	1896.42
402.21	2021.35
402.41	1970.15
402.62	2041.82
402.83	1996.77
403.04	1951.71
403.24	2043.87
403.45	1904.61
403.66	1892.32
403.87	1910.75
404.07	1947.62
404.28	1888.23
404.49	1890.28
404.70	1808.36
404.90	1826.79
405.11	1742.82
405.32	1738.73
405.52	1742.82
405.73	1759.21
405.94	1712.10
406.15	1728.49
406.35	1736.68
406.56	1812.45
406.77	1724.39
406.98	1769.44
407.18	1722.34
407.39	1777.64
407.60	1669.09
407.80	1730.53
408.01	1609.70
408.22	1722.34
408.43	1656.81
408.63	1796.07
408.84	1818.60
409.05	1748.97
409.25	1632.23
409.46	1667.05
409.67	1697.77
409.88	1638.38
410.08	1806.31
410.29	1656.81
410.50	1787.88
410.70	1730.53
410.91	1632.23
411.12	1705.96
411.32	1791.97
411.53	1650.66
411.74	1834.98
411.95	1820.64
412.15	1828.84
412.36	1841.12
412.57	1718.25
412.77	1791.97
412.98	1759.21
413.19	1671.14
413.39	1748.97
413.60	1771.49
413.81	1849.32
414.01	1669.09
414.22	1720.29
414.43	1695.72
414.63	1744.87
414.84	1736.68
415.05	1771.49
415.25	1632.23
415.46	1820.64
415.67	1669.09
415.87	1734.63
416.08	1757.16
416.29	1716.20
416.49	1712.10
416.70	1677.29
416.91	1761.25
417.11	1656.81
417.32	1730.53
417.53	1832.93
417.73	1683.43
417.94	1669.09
418.15	1695.72
418.35	1667.05
418.56	1751.01
418.77	1830.88
418.97	1693.67
419.18	1691.62
419.38	1626.09
419.59	1720.29
419.80	1804.26
420.00	1724.39
420.21	1767.40
420.42	1779.68
420.62	1757.16
420.83	1648.61
421.04	1708.01
421.24	1718.25
421.45	1771.49
421.65	1742.82
421.86	1773.54
422.07	1783.78
422.27	1775.59
422.48	1671.14
422.69	1699.81
422.89	1634.28
423.10	1705.96
423.30	1671.14
423.51	1671.14
423.72	1722.34
423.92	1794.02
424.13	1638.38
424.33	1703.91
424.54	1722.34
424.75	1687.53
424.95	1806.31
425.16	1695.72
425.36	1734.63
425.57	1767.40
425.78	1705.96
425.98	1767.40
426.19	1703.91
426.39	1607.66
426.60	1736.68
426.81	1839.08
427.01	1720.29
427.22	1654.76
427.42	1644.52
427.63	1617.90
427.83	1806.31
428.04	1785.83
428.25	1785.83
428.45	1816.55
428.66	1804.26
428.86	1738.73
429.07	1703.91
429.28	1714.15
429.48	1759.21
429.69	1728.49
429.89	1738.73
430.10	1632.23
430.30	1753.06
430.51	1820.64
430.71	1660.90
430.92	1699.81
431.13	1636.33
431.33	1730.53
431.54	1671.14
431.74	1800.16
431.95	1834.98
432.15	1665.00
432.36	1660.90
432.56	1748.97
432.77	1769.44
432.98	1806.31
433.18	1724.39
433.39	1746.92
433.59	1681.38
433.80	1800.16
434.00	1839.08
434.21	1689.57
434.41	1597.42
434.62	1900.52
434.82	1675.24
435.03	1679.33
435.23	1769.44
435.44	1574.89
435.64	1783.78
435.85	1783.78
436.06	1804.26
436.26	1726.44
436.47	1703.91
436.67	1703.91
436.88	1755.11
437.08	1787.88
437.29	1861.60
437.49	1736.68
437.70	1740.77
437.90	1714.15
438.11	1918.95
438.31	1818.60
438.52	1828.84
438.72	1914.85
438.93	1900.52
439.13	1738.73
439.34	1789.92
439.54	1716.20
439.75	1732.58
439.95	1851.36
440.16	1710.05
440.36	1832.93
440.57	1783.78
440.77	1710.05
440.98	1744.87
441.18	1728.49
441.39	1685.48
441.59	1703.91
441.80	1906.66
442.00	1730.53
442.21	1925.09
442.41	1679.33
442.62	1734.63
442.82	1673.19
443.02	1712.10
443.23	1722.34
443.43	1732.58
443.64	1828.84
443.84	1673.19
444.05	1843.17
444.25	1826.79
444.46	1724.39
444.66	1730.53
444.87	1865.70
445.07	1681.38
445.28	1746.92
445.48	1826.79
445.69	1800.16
445.89	1847.27
446.09	1691.62
446.30	2025.44
446.50	2731.99
446.71	3684.30
446.91	4282.30
447.12	4612.03
447.32	4753.34
447.53	4302.78
447.73	3885.00
447.93	3405.77
448.14	3172.30
448.34	3209.17
448.55	2920.40
448.75	2858.96
448.96	2631.64
449.16	2402.27
449.36	2385.88
449.57	2002.91
449.77	1947.62
449.98	1791.97
450.18	1755.11
450.39	1822.69
450.59	1804.26
450.79	1742.82
451.00	1759.21
451.20	1787.88
451.41	1726.44
451.61	1740.77
451.81	1714.15
452.02	1738.73
452.22	1724.39
452.43	1701.86
452.63	1703.91
452.84	1691.62
453.04	1742.82
453.24	1771.49
453.45	1679.33
453.65	1755.11
453.86	1779.68
454.06	1837.03
454.26	1824.74
454.47	1665.00
454.67	1828.84
454.87	1718.25
455.08	1779.68
455.28	1814.50
455.49	1806.31
455.69	1718.25
455.89	1906.66
456.10	1822.69
456.30	1724.39
456.51	1812.45
456.71	1714.15
456.91	1789.92
457.12	1705.96
457.32	1650.66
457.52	1632.23
457.73	1796.07
457.93	1808.36
458.14	1767.40
458.34	1693.67
458.54	1775.59
458.75	1773.54
458.95	1859.56
459.15	1769.44
459.36	1763.30
459.56	1746.92
459.76	1935.33
459.97	1740.77
460.17	1693.67
460.37	1787.88
460.58	1708.01
460.78	1828.84
460.99	1693.67
461.19	1777.64
461.39	1718.25
461.60	1701.86
461.80	1783.78
462.00	1660.90
462.21	1773.54
462.41	1669.09
462.61	1660.90
462.82	1572.84
463.02	1751.01
463.22	1794.02
463.43	1791.97
463.63	1806.31
463.83	1767.40
464.04	1732.58
464.24	1789.92
464.44	1667.05
464.64	1746.92
464.85	1812.45
465.05	1789.92
465.25	1689.57
465.46	1697.77
465.66	1755.11
465.86	1751.01
466.07	1775.59
466.27	1763.30
466.47	1652.71
466.68	1646.57
466.88	1789.92
467.08	1763.30
467.29	1765.35
467.49	1785.83
467.69	1771.49
467.89	1787.88
468.10	1703.91
468.30	1759.21
468.50	1818.60
468.71	1771.49
468.91	1640.42
469.11	1892.32
469.31	1708.01
469.52	1638.38
469.72	1757.16
469.92	1871.84
470.13	1716.20
470.33	1718.25
470.53	1884.13
470.73	2138.08
470.94	2289.63
471.14	2334.68
471.34	2459.61
471.54	2355.16
471.75	2179.04
471.95	2170.85
472.15	2111.46
472.36	2131.94
472.56	2088.93
472.76	2062.30
472.96	2066.40
473.17	1902.56
473.37	1914.85
473.57	1877.99
473.77	1865.70
473.98	1726.44
474.18	1728.49
474.38	1910.75
474.58	1751.01
474.79	1675.24
474.99	1746.92
475.19	1845.22
475.39	1677.29
475.60	1710.05
475.80	1671.14
476.00	1689.57
476.20	1642.47
476.41	1724.39
476.61	1812.45
476.81	1828.84
477.01	1708.01
477.21	1914.85
477.42	1783.78
477.62	1656.81
477.82	1765.35
478.02	1757.16
478.23	1728.49
478.43	1638.38
478.63	1705.96
478.83	1730.53
479.03	1689.57
479.24	1763.30
479.44	1796.07
479.64	1703.91
479.84	1609.70
480.04	1712.10
480.25	1802.21
480.45	1636.33
480.65	1736.68
480.85	1787.88
481.06	1705.96
481.26	1685.48
481.46	1861.60
481.66	1777.64
481.86	1681.38
482.06	1818.60
482.27	1740.77
482.47	1703.91
482.67	1718.25
482.87	1710.05
483.07	1830.88
483.28	1689.57
483.48	1736.68
483.68	1683.43
483.88	1638.38
484.08	1673.19
484.29	1652.71
484.49	1753.06
484.69	1595.37
484.89	1763.30
485.09	1837.03
485.29	1726.44
485.50	1693.67
485.70	1708.01
485.90	1738.73
486.10	1777.64
486.30	1767.40
486.50	1804.26
486.71	1699.81
486.91	1808.36
487.11	1746.92
487.31	1673.19
487.51	1703.91
487.71	1710.05
487.91	1646.57
488.12	1718.25
488.32	1683.43
488.52	1769.44
488.72	1587.18
488.92	1732.58
489.12	1816.55
489.32	1769.44
489.53	1738.73
489.73	1667.05
489.93	1818.60
490.13	1681.38
490.33	1632.23
490.53	1773.54
490.73	1697.77
490.94	1624.04
491.14	1853.41
491.34	1812.45
491.54	2140.13
491.74	2533.34
491.94	2881.49
492.14	2969.55
492.34	2994.13
492.54	2691.03
492.75	2498.52
492.95	2428.89
493.15	2254.81
493.35	2265.05
493.55	2236.38
493.75	2176.99
493.95	2072.54
494.15	2047.97
494.35	1914.85
494.56	1837.03
494.76	1744.87
494.96	1791.97
495.16	1816.55
495.36	1734.63
495.56	1773.54
495.76	1746.92
495.96	1798.12
496.16	1681.38
496.36	1822.69
496.56	1771.49
496.77	1834.98
496.97	1701.86
497.17	1812.45
497.37	1667.05
497.57	1818.60
497.77	1738.73
497.97	1644.52
498.17	1742.82
498.37	1710.05
498.57	1810.40
498.77	1761.25
498.97	1779.68
499.17	1880.04
499.38	1759.21
499.58	1789.92
499.78	1851.36
499.98	1822.69
500.18	1734.63
500.38	1630.18
500.58	1916.90
500.78	2607.06
500.98	4618.17
501.18	5670.83
501.38	6590.36
501.58	6983.57
501.78	6500.25
501.98	5423.02
502.18	4896.69
502.38	4386.75
502.58	4155.33
502.78	3815.37
502.98	3610.57
503.18	3436.49
503.38	3100.62
503.59	2805.72
503.79	2607.06
503.99	2437.08
504.19	2269.15
504.39	2230.24
504.59	2154.46
504.79	2172.89
504.99	2123.74
505.19	1886.18
505.39	1875.94
505.59	2033.63
505.79	1902.56
505.99	1898.47
506.19	1816.55
506.39	1888.23
506.59	1726.44
506.79	1773.54
506.99	1904.61
507.19	1816.55
507.39	1789.92
507.59	1724.39
507.79	1685.48
507.99	1708.01
508.19	1654.76
508.39	1759.21
508.59	1808.36
508.79	1800.16
508.99	1877.99
509.19	1669.09
509.39	1822.69
509.59	1763.30
509.79	1726.44
509.99	1791.97
510.19	1816.55
510.39	1789.92
510.59	1695.72
510.79	1773.54
510.99	1660.90
511.19	1753.06
511.39	1869.80
511.59	1806.31
511.79	1857.51
511.99	1728.49
512.19	1863.65
512.38	1742.82
512.58	1673.19
512.78	1738.73
512.98	1812.45
513.18	1769.44
513.38	1667.05
513.58	1779.68
513.78	1765.35
513.98	1734.63
514.18	1716.20
514.38	1740.77
514.58	1787.88
514.78	1722.34
514.98	1701.86
515.18	1759.21
515.38	1683.43
515.58	1824.74
515.78	1759.21
515.98	1726.44
516.18	1839.08
516.38	1769.44
516.57	1679.33
516.77	1718.25
516.97	1826.79
517.17	1693.67
517.37	1697.77
517.57	1837.03
517.77	1675.24
517.97	1638.38
518.17	1945.57
518.37	1746.92
518.57	1648.61
518.77	1757.16
518.97	1695.72
519.16	1755.11
519.36	1824.74
519.56	1744.87
519.76	1701.86
519.96	1710.05
520.16	1894.37
520.36	1714.15
520.56	1802.21
520.76	1728.49
520.96	1689.57
521.16	1808.36
521.35	1728.49
521.55	1845.22
521.75	1748.97
521.95	1703.91
522.15	1740.77
522.35	1671.14
522.55	1693.67
522.75	1761.25
522.95	1718.25
523.14	1763.30
523.34	1693.67
523.54	1724.39
523.74	1785.83
523.94	1755.11
524.14	1722.34
524.34	1765.35
524.54	1828.84
524.73	1818.60
524.93	1746.92
525.13	1767.40
525.33	1748.97
525.53	1841.12
525.73	1783.78
525.93	1763.30
526.13	1697.77
526.32	1681.38
526.52	1718.25
526.72	1765.35
526.92	1769.44
527.12	1791.97
527.32	1599.46
527.52	1794.02
527.71	1814.50
527.91	1810.40
528.11	1722.34
528.31	1740.77
528.51	1642.47
528.71	1806.31
528.90	1818.60
529.10	1816.55
529.30	1820.64
529.50	1572.84
529.70	1773.54
529.90	1761.25
530.09	1740.77
530.29	1667.05
530.49	1720.29
530.69	1888.23
530.89	1751.01
531.09	1753.06
531.28	1660.90
531.48	1888.23
531.68	1779.68
531.88	1816.55
532.08	1746.92
532.28	1738.73
532.47	1769.44
532.67	1837.03
532.87	1734.63
533.07	1710.05
533.27	1800.16
533.46	1779.68
533.66	1808.36
533.86	1773.54
534.06	1716.20
534.26	1722.34
534.45	1763.30
534.65	1849.32
534.85	1742.82
535.05	1732.58
535.25	1716.20
535.44	1658.85
535.64	1804.26
535.84	1742.82
536.04	1783.78
536.24	1751.01
536.43	1761.25
536.63	1816.55
536.83	1775.59
537.03	1771.49
537.22	1677.29
537.42	1714.15
537.62	1804.26
537.82	1742.82
538.02	1857.51
538.21	1751.01
538.41	1892.32
538.61	1783.78
538.81	1757.16
539.00	1789.92
539.20	1695.72
539.40	1724.39
539.60	1814.50
539.79	1832.93
539.99	1703.91
540.19	1695.72
540.39	1779.68
540.58	1751.01
540.78	1871.84
540.98	1732.58
541.18	1851.36
541.37	1804.26
541.57	1689.57
541.77	1820.64
541.97	1718.25
542.16	1660.90
542.36	1691.62
542.56	1722.34
542.76	1908.71
542.95	1736.68
543.15	1751.01
543.35	1779.68
543.54	1785.83
543.74	1734.63
543.94	1847.27
544.14	1681.38
544.33	1796.07
544.53	1798.12
544.73	1730.53
544.93	1785.83
545.12	1771.49
545.32	1669.09
545.52	1767.40
545.71	1722.34
545.91	1675.24
546.11	1746.92
546.30	1753.06
546.50	1771.49
546.70	1734.63
546.90	1755.11
547.09	1656.81
547.29	1740.77
547.49	1746.92
547.68	1738.73
547.88	1730.53
548.08	1695.72
548.27	2232.29
548.47	1730.53
548.67	1794.02
548.87	1845.22
549.06	1683.43
549.26	1699.81
549.46	1828.84
549.65	1757.16
549.85	1761.25
550.05	1724.39
550.24	1710.05
550.44	1722.34
550.64	1779.68
550.83	1781.73
551.03	1787.88
551.23	1761.25
551.42	1875.94
551.62	1785.83
551.82	1755.11
552.01	1755.11
552.21	1814.50
552.41	1726.44
552.60	1794.02
552.80	1769.44
553.00	1697.77
553.19	1787.88
553.39	1845.22
553.59	1695.72
553.78	1740.77
553.98	1787.88
554.17	1712.10
554.37	1834.98
554.57	1861.60
554.76	1705.96
554.96	1652.71
555.16	1710.05
555.35	1820.64
555.55	1714.15
555.75	1812.45
555.94	1736.68
556.14	1667.05
556.33	1845.22
556.53	1746.92
556.73	1726.44
556.92	1791.97
557.12	1912.80
557.32	1812.45
557.51	1824.74
557.71	1714.15
557.90	1832.93
558.10	1851.36
558.30	1730.53
558.49	1771.49
558.69	1726.44
558.88	1767.40
559.08	1773.54
559.28	1689.57
559.47	1763.30
559.67	1837.03
559.86	1877.99
560.06	1734.63
560.26	1691.62
560.45	1714.15
560.65	1771.49
560.84	1779.68
561.04	1673.19
561.24	1746.92
561.43	1640.42
561.63	1830.88
561.82	1802.21
562.02	1771.49
562.22	1779.68
562.41	1734.63
562.61	1710.05
562.80	1728.49
563.00	1884.13
563.19	1738.73
563.39	1742.82
563.59	1763.30
563.78	1681.38
563.98	1650.66
564.17	1722.34
564.37	1673.19
564.56	1798.12
564.76	1646.57
564.96	1789.92
565.15	1740.77
565.35	1867.75
565.54	1699.81
565.74	1861.60
565.93	1814.50
566.13	1716.20
566.32	1787.88
566.52	1683.43
566.71	1687.53
566.91	1796.07
567.11	1755.11
567.30	1728.49
567.50	1748.97
567.69	1763.30
567.89	1736.68
568.08	1738.73
568.28	1806.31
568.47	1730.53
568.67	1816.55
568.86	1665.00
569.06	1728.49
569.25	1744.87
569.45	1681.38
569.64	1724.39
569.84	1720.29
570.04	1759.21
570.23	1708.01
570.43	1816.55
570.62	1781.73
570.82	1791.97
571.01	1687.53
571.21	1685.48
571.40	1624.04
571.60	1800.16
571.79	1755.11
571.99	1808.36
572.18	1775.59
572.38	1738.73
572.57	1703.91
572.77	1730.53
572.96	1943.52
573.16	1791.97
573.35	1789.92
573.55	1804.26
573.74	1880.04
573.94	1773.54
574.13	1734.63
574.33	1837.03
574.52	1843.17
574.71	1746.92
574.91	1808.36
575.10	1685.48
575.30	1734.63
575.49	1726.44
575.69	1730.53
575.88	1779.68
576.08	1757.16
576.27	1779.68
576.47	1771.49
576.66	1873.89
576.86	1875.94
577.05	1714.15
577.25	1775.59
577.44	1855.46
577.64	1777.64
577.83	1753.06
578.02	1757.16
578.22	1923.04
578.41	1886.18
578.61	1748.97
578.80	1763.30
579.00	1730.53
579.19	1763.30
579.39	1849.32
579.58	1771.49
579.77	1755.11
579.97	1847.27
580.16	1787.88
580.36	1818.60
580.55	1820.64
580.75	1791.97
580.94	1781.73
581.13	1843.17
581.33	1828.84
581.52	1767.40
581.72	1863.65
581.91	1863.65
582.11	1742.82
582.30	1834.98
582.49	1816.55
582.69	1828.84
582.88	1826.79
583.08	1708.01
583.27	1826.79
583.47	1777.64
583.66	1705.96
583.85	1718.25
584.05	1732.58
584.24	1746.92
584.44	1767.40
584.63	1943.52
584.82	1832.93
585.02	1859.56
585.21	1734.63
585.41	1931.23
585.60	1855.46
585.79	1968.10
585.99	1908.71
586.18	1830.88
586.37	2150.37
586.57	3448.78
586.76	9770.86
586.96	23953.04
587.15	33779.20
587.34	39728.55
587.54	41350.54
587.73	35681.76
587.93	25609.85
588.12	20999.87
588.31	17899.25
588.51	15916.81
588.70	15042.33
588.89	13784.88
589.09	12388.16
589.28	10831.71
589.47	9381.74
589.67	7948.17
589.86	6199.20
590.06	4964.28
590.25	3841.99
590.44	3045.33
590.64	2435.03
590.83	2244.57
591.02	2050.02
591.22	1931.23
591.41	1918.95
591.60	1794.02
591.80	1984.48
591.99	1824.74
592.18	1789.92
592.38	1791.97
592.57	1761.25
592.76	1880.04
592.96	1753.06
593.15	1730.53
593.34	1822.69
593.54	1826.79
593.73	1720.29
593.92	1724.39
594.12	1759.21
594.31	1783.78
594.50	1828.84
594.70	1843.17
594.89	1873.89
595.08	1650.66
595.28	1822.69
595.47	1927.14
595.66	1849.32
595.86	1646.57
596.05	1810.40
596.24	1673.19
596.43	1875.94
596.63	1777.64
596.82	1787.88
597.01	1812.45
597.21	1861.60
597.40	1781.73
597.59	1800.16
597.79	1738.73
597.98	1767.40
598.17	1779.68
598.36	1755.11
598.56	1685.48
598.75	1699.81
598.94	1722.34
599.14	1746.92
599.33	1695.72
599.52	1767.40
599.71	1765.35
599.91	1828.84
600.10	1775.59
600.29	1814.50
600.48	1767.40
600.68	1826.79
600.87	1843.17
601.06	1763.30
601.26	1785.83
601.45	1765.35
601.64	1757.16
601.83	1812.45
602.03	1718.25
602.22	1628.14
602.41	1798.12
602.60	1824.74
602.80	1845.22
602.99	1728.49
603.18	1726.44
603.37	1769.44
603.57	1701.86
603.76	1810.40
603.95	1757.16
604.14	1708.01
604.34	1689.57
604.53	1718.25
604.72	1808.36
604.91	1767.40
605.10	1763.30
605.30	1660.90
605.49	1837.03
605.68	1783.78
605.87	1757.16
606.07	1699.81
606.26	1755.11
606.45	1783.78
606.64	1728.49
606.84	1755.11
607.03	1738.73
607.22	1775.59
607.41	1718.25
607.60	1656.81
607.80	1771.49
607.99	1734.63
608.18	1771.49
608.37	1759.21
608.56	1617.90
608.76	1894.37
608.95	1847.27
609.14	1722.34
609.33	1789.92
609.52	1718.25
609.72	1755.11
609.91	1830.88
610.10	1738.73
610.29	1839.08
610.48	1767.40
610.68	1675.24
610.87	1775.59
611.06	1810.40
611.25	1759.21
611.44	1804.26
611.63	1804.26
611.83	1861.60
612.02	1730.53
612.21	1781.73
612.40	1667.05
612.59	1646.57
612.79	1695.72
612.98	1718.25
613.17	1812.45
613.36	1677.29
613.55	1837.03
613.74	1746.92
613.93	1740.77
614.13	1701.86
614.32	1746.92
614.51	1787.88
614.70	1718.25
614.89	1781.73
615.08	1820.64
615.28	2131.94
615.47	1656.81
615.66	1810.40
615.85	1779.68
616.04	1916.90
616.23	1771.49
616.42	1677.29
616.62	1759.21
616.81	1718.25
617.00	1765.35
617.19	1796.07
617.38	1734.63
617.57	1746.92
617.76	1751.01
617.95	1779.68
618.15	1753.06
618.34	1816.55
618.53	1671.14
618.72	1712.10
618.91	1841.12
619.10	1716.20
619.29	1734.63
619.48	1667.05
619.68	1742.82
619.87	1705.96
620.06	1611.75
620.25	1796.07
620.44	1742.82
620.63	1779.68
620.82	1724.39
621.01	1787.88
621.20	1683.43
621.39	1787.88
621.59	1767.40
621.78	1669.09
621.97	1769.44
622.16	1765.35
622.35	1777.64
622.54	1789.92
622.73	1744.87
622.92	1679.33
623.11	1781.73
623.30	1775.59
623.49	1763.30
623.68	1630.18
623.88	1787.88
624.07	1718.25
624.26	1740.77
624.45	1746.92
624.64	1644.52
624.83	1740.77
625.02	1783.78
625.21	1775.59
625.40	1767.40
625.59	1689.57
625.78	1769.44
625.97	1667.05
626.16	1785.83
626.35	1771.49
626.54	1757.16
626.74	1783.78
626.93	1742.82
627.12	1742.82
627.31	1820.64
627.50	1742.82
627.69	1759.21
627.88	1628.14
628.07	1705.96
628.26	1632.23
628.45	1722.34
628.64	1675.24
628.83	1724.39
629.02	1695.72
629.21	1726.44
629.40	1736.68
629.59	1665.00
629.78	1705.96
629.97	1703.91
630.16	1751.01
630.35	1626.09
630.54	1722.34
630.73	1726.44
630.92	1740.77
631.11	1746.92
631.30	1742.82
631.49	1787.88
631.68	1722.34
631.87	1722.34
632.06	1683.43
632.25	1865.70
632.44	1708.01
632.63	1681.38
632.82	1746.92
633.01	1716.20
633.20	1697.77
633.39	1701.86
633.58	1675.24
633.77	1669.09
633.96	1691.62
634.15	1751.01
634.34	1740.77
634.53	1691.62
634.72	1738.73
634.91	1660.90
635.10	1660.90
635.29	1656.81
635.48	1728.49
635.67	1617.90
635.86	1708.01
636.05	1834.98
636.24	1712.10
636.43	1798.12
636.62	1755.11
636.81	1593.32
637.00	1751.01
637.19	1730.53
637.38	1699.81
637.57	1648.61
637.76	1681.38
637.95	1705.96
638.14	1683.43
638.33	1763.30
638.52	1785.83
638.71	1675.24
638.89	1646.57
639.08	1845.22
639.27	1767.40
639.46	1626.09
639.65	1814.50
639.84	1726.44
640.03	1802.21
640.22	1712.10
640.41	1843.17
640.60	1714.15
640.79	1726.44
640.98	1693.67
641.17	1808.36
641.36	1744.87
641.55	1804.26
641.74	1607.66
641.92	1695.72
642.11	1607.66
642.30	1685.48
642.49	1685.48
642.68	1695.72
642.87	1714.15
643.06	1742.82
643.25	1746.92
643.44	1769.44
643.63	1779.68
643.82	1771.49
644.00	1708.01
644.19	1763.30
644.38	1720.29
644.57	1771.49
644.76	1708.01
644.95	1763.30
645.14	1757.16
645.33	1683.43
645.52	1810.40
645.71	1744.87
645.89	1720.29
646.08	1767.40
646.27	1615.85
646.46	1904.61
646.65	1609.70
646.84	1740.77
647.03	1681.38
647.22	1771.49
647.40	1732.58
647.59	1726.44
647.78	1716.20
647.97	1675.24
648.16	1683.43
648.35	1826.79
648.54	1808.36
648.73	1685.48
648.91	1755.11
649.10	1757.16
649.29	1675.24
649.48	1718.25
649.67	1791.97
649.86	1734.63
650.05	1730.53
650.23	1796.07
650.42	1587.18
650.61	1810.40
650.80	1765.35
650.99	1910.75
651.18	1691.62
651.36	1779.68
651.55	1701.86
651.74	1816.55
651.93	1685.48
652.12	1724.39
652.31	1699.81
652.49	1746.92
652.68	1728.49
652.87	1806.31
653.06	1761.25
653.25	1839.08
653.44	1712.10
653.62	1857.51
653.81	1712.10
654.00	1714.15
654.19	1798.12
654.38	1847.27
654.56	1744.87
654.75	1689.57
654.94	1798.12
655.13	1744.87
655.32	1759.21
655.51	1779.68
655.69	1683.43
655.88	1787.88
656.07	1644.52
656.26	1667.05
656.45	1681.38
656.63	1722.34
656.82	1751.01
657.01	1796.07
657.20	1726.44
657.38	1773.54
657.57	1669.09
657.76	1601.51
657.95	1738.73
658.14	1681.38
658.32	1740.77
658.51	1591.27
658.70	1705.96
658.89	1834.98
659.08	1687.53
659.26	1861.60
659.45	1689.57
659.64	1751.01
659.83	1691.62
660.01	1871.84
660.20	1695.72
660.39	1826.79
660.58	1646.57
660.76	1769.44
660.95	1595.37
661.14	1773.54
661.33	1687.53
661.51	1722.34
661.70	1681.38
661.89	1816.55
662.08	1689.57
662.26	1640.42
662.45	1660.90
662.64	1834.98
662.83	1783.78
663.01	1599.46
663.20	1699.81
663.39	1890.28
663.58	1773.54
663.76	1722.34
663.95	1691.62
664.14	1673.19
664.32	1738.73
664.51	1728.49
664.70	1597.42
664.89	1773.54
665.07	1654.76
665.26	1839.08
665.45	1634.28
665.64	1734.63
665.82	1730.53
666.01	1783.78
666.20	1703.91
666.38	1814.50
666.57	1806.31
666.76	2230.24
666.95	4399.04
667.13	10235.75
667.32	14984.99
667.51	17643.25
667.69	18751.20
667.88	17338.10
668.07	11999.05
668.25	9277.30
668.44	7823.24
668.63	7276.43
668.81	6807.45
669.00	6045.60
669.19	5719.98
669.38	5060.53
669.56	4626.36
669.75	3913.67
669.94	3424.20
670.12	2828.24
670.31	2519.00
670.50	2263.01
670.68	1929.19
670.87	1935.33
671.06	1800.16
671.24	1761.25
671.43	1837.03
671.62	1798.12
671.80	1671.14
671.99	1691.62
672.18	1726.44
672.36	1777.64
672.55	1691.62
672.74	1712.10
672.92	1691.62
673.11	1697.77
673.29	1689.57
673.48	1820.64
673.67	1716.20
673.85	1765.35
674.04	1673.19
674.23	1753.06
674.41	1800.16
674.60	1648.61
674.79	1677.29
674.97	1621.99
675.16	1746.92
675.34	1730.53
675.53	1671.14
675.72	1796.07
675.90	1853.41
676.09	1708.01
676.28	1701.86
676.46	1615.85
676.65	1763.30
676.83	1665.00
677.02	1769.44
677.21	1753.06
677.39	1751.01
677.58	1660.90
677.77	1662.95
677.95	1648.61
678.14	1710.05
678.32	1740.77
678.51	1652.71
678.70	1822.69
678.88	1724.39
679.07	1718.25
679.25	1708.01
679.44	1705.96
679.63	1673.19
679.81	1751.01
680.00	1730.53
680.18	1724.39
680.37	1804.26
680.55	1617.90
680.74	1619.94
680.93	1607.66
681.11	1730.53
681.30	1689.57
681.48	1744.87
681.67	1718.25
681.85	1761.25
682.04	1675.24
682.23	1751.01
682.41	1740.77
682.60	1681.38
682.78	1732.58
682.97	1705.96
683.15	1656.81
683.34	1687.53
683.53	1789.92
683.71	1626.09
683.90	1796.07
684.08	1791.97
684.27	1691.62
684.45	1705.96
684.64	1834.98
684.82	1701.86
685.01	1802.21
685.19	1740.77
685.38	1789.92
685.57	1677.29
685.75	1773.54
685.94	1708.01
686.12	1685.48
686.31	1689.57
686.49	1769.44
686.68	1611.75
686.86	1712.10
687.05	1687.53
687.23	1708.01
687.42	1693.67
687.60	1751.01
687.79	1810.40
687.97	1740.77
688.16	1812.45
688.34	1746.92
688.53	1615.85
688.71	1783.78
688.90	1701.86
689.08	1714.15
689.27	1654.76
689.45	1759.21
689.64	1730.53
689.82	1787.88
690.01	1722.34
690.19	1710.05
690.38	1703.91
690.56	1849.32
690.75	1675.24
690.93	1722.34
691.12	1714.15
691.30	1673.19
691.49	1705.96
691.67	1730.53
691.86	1802.21
692.04	1619.94
692.23	1660.90
692.41	1701.86
692.60	1832.93
692.78	1769.44
692.97	1708.01
693.15	1755.11
693.34	1851.36
693.52	1783.78
693.71	1675.24
693.89	1708.01
694.08	1634.28
694.26	1771.49
694.44	1753.06
694.63	1837.03
694.81	1628.14
695.00	1638.38
695.18	1755.11
695.37	1902.56
695.55	1718.25
695.74	1740.77
695.92	1677.29
696.10	1828.84
696.29	1646.57
696.47	1724.39
696.66	1609.70
696.84	1640.42
697.03	1736.68
697.21	1832.93
697.40	2316.25
697.58	1789.92
697.76	1646.57
697.95	1683.43
698.13	1697.77
698.32	1734.63
698.50	1691.62
698.68	1767.40
698.87	1748.97
699.05	1855.46
699.24	1746.92
699.42	1689.57
699.61	1654.76
699.79	1714.15
699.97	1785.83
700.16	1646.57
700.34	1693.67
700.53	1679.33
700.71	1808.36
700.89	1755.11
701.08	1710.05
701.26	1765.35
701.45	2125.79
701.63	1708.01
701.81	1753.06
702.00	1730.53
702.18	1712.10
702.37	1679.33
702.55	1748.97
702.73	1753.06
702.92	1669.09
703.10	1763.30
703.28	1726.44
703.47	1638.38
703.65	1736.68
703.84	1841.12
704.02	1665.00
704.20	1820.64
704.39	1673.19
704.57	1701.86
704.75	1822.69
704.94	1812.45
705.12	1761.25
705.30	1746.92
705.49	2281.44
705.67	4583.35
705.86	9373.55
706.04	12404.55
706.22	14370.60
706.41	15288.09
706.59	13383.48
706.77	9250.67
706.96	7217.04
707.14	6469.53
707.32	5910.44
707.51	5603.24
707.69	4837.30
707.87	4110.27
708.06	3499.98
708.24	3000.27
708.42	2398.17
708.61	2226.14
708.79	1894.37
708.97	1906.66
709.16	1818.60
709.34	1785.83
709.52	1660.90
709.71	1691.62
709.89	1822.69
710.07	1689.57
710.26	1708.01
710.44	1742.82
710.62	1730.53
710.80	1714.15
710.99	1728.49
711.17	1748.97
711.35	1679.33
711.54	1708.01
711.72	1777.64
711.90	1787.88
712.09	1689.57
712.27	1695.72
712.45	1708.01
712.63	1728.49
712.82	1730.53
713.00	1619.94
713.18	1724.39
713.37	1724.39
713.55	1812.45
713.73	1843.17
713.91	1771.49
714.10	1730.53
714.28	1695.72
714.46	1740.77
714.65	1697.77
714.83	1695.72
715.01	1779.68
715.19	1677.29
715.38	1728.49
715.56	1789.92
715.74	1716.20
715.92	1660.90
716.11	1785.83
716.29	1619.94
716.47	1708.01
716.65	1708.01
716.84	1632.23
717.02	1687.53
717.20	1662.95
717.38	1638.38
717.57	1687.53
717.75	1783.78
717.93	1650.66
718.11	1773.54
718.30	1605.61
718.48	1689.57
718.66	1767.40
718.84	1796.07
719.03	1796.07
719.21	1587.18
719.39	1867.75
719.57	1769.44
719.75	1761.25
719.94	1697.77
720.12	1669.09
720.30	1656.81
720.48	1779.68
720.67	1673.19
720.85	1570.79
721.03	1724.39
721.21	1669.09
721.39	1769.44
721.58	1662.95
721.76	1656.81
721.94	1748.97
722.12	1755.11
722.30	1757.16
722.49	1695.72
722.67	1685.48
722.85	1732.58
723.03	1648.61
723.21	1677.29
723.40	1710.05
723.58	1714.15
723.76	1710.05
723.94	1830.88
724.12	1789.92
724.30	1871.84
724.49	1755.11
724.67	1720.29
724.85	1789.92
725.03	1601.51
725.21	1738.73
725.40	1753.06
725.58	1685.48
725.76	1810.40
725.94	1748.97
726.12	1679.33
726.30	1683.43
726.49	1673.19
726.67	1703.91
726.85	1722.34
727.03	1855.46
727.21	2156.51
727.39	2971.60
727.57	3819.46
727.76	4173.76
727.94	4386.75
728.12	4296.64
728.30	3667.91
728.48	2942.93
728.66	2797.53
728.84	2564.06
729.03	2289.63
729.21	2148.32
729.39	1990.63
729.57	1849.32
729.75	1771.49
729.93	1816.55
730.11	1656.81
730.30	1683.43
730.48	1734.63
730.66	1923.04
730.84	1785.83
731.02	1714.15
731.20	1712.10
731.38	1730.53
731.56	1638.38
731.74	1642.47
731.93	1718.25
732.11	1761.25
732.29	1722.34
732.47	1726.44
732.65	1736.68
732.83	1828.84
733.01	1724.39
733.19	1685.48
733.37	1808.36
733.56	1832.93
733.74	1675.24
733.92	1728.49
734.10	1775.59
734.28	1738.73
734.46	1705.96
734.64	1677.29
734.82	1615.85
735.00	1740.77
735.18	1714.15
735.36	1710.05
735.54	1650.66
735.73	1775.59
735.91	1716.20
736.09	1710.05
736.27	1730.53
736.45	1746.92
736.63	1603.56
736.81	1681.38
736.99	1738.73
737.17	1712.10
737.35	1675.24
737.53	1714.15
737.71	1691.62
737.89	1845.22
738.07	1656.81
738.25	1660.90
738.43	1699.81
738.61	1671.14
738.80	1658.85
738.98	1617.90
739.16	1691.62
739.34	1683.43
739.52	1841.12
739.70	1701.86
739.88	1748.97
740.06	1695.72
740.24	1638.38
740.42	1765.35
740.60	1601.51
740.78	1701.86
740.96	1638.38
741.14	1671.14
741.32	1775.59
741.50	1591.27
741.68	1798.12
741.86	1761.25
742.04	1693.67
742.22	1669.09
742.40	1736.68
742.58	1773.54
742.76	1644.52
742.94	1687.53
743.12	1599.46
743.30	1755.11
743.48	1714.15
743.66	1689.57
743.84	1757.16
744.02	1712.10
744.20	1705.96
744.38	1734.63
744.56	1699.81
744.74	1798.12
744.92	1701.86
745.10	1859.56
745.28	1722.34
745.46	1800.16
745.64	1667.05
745.82	1691.62
746.00	1691.62
746.18	1806.31
746.36	1699.81
746.54	1785.83
746.72	1757.16
746.90	1648.61
747.08	1810.40
747.26	1730.53
747.44	1804.26
747.62	1771.49
747.80	1703.91
747.98	1814.50
748.15	1652.71
748.33	1820.64
748.51	1716.20
748.69	1783.78
748.87	1636.33
749.05	1656.81
749.23	1689.57
749.41	1734.63
749.59	1705.96
749.77	1794.02
749.95	1728.49
750.13	1693.67
750.31	1763.30
750.49	1716.20
750.67	1851.36
750.85	1804.26
751.03	1689.57
751.20	1834.98
751.38	1746.92
751.56	1665.00
751.74	1675.24
751.92	1695.72
752.10	1669.09
752.28	1714.15
752.46	1669.09
752.64	1787.88
752.82	1722.34
753.00	1794.02
753.18	1669.09
753.35	1667.05
753.53	1779.68
753.71	1740.77
753.89	1714.15
754.07	1775.59
754.25	1685.48
754.43	1677.29
754.61	1587.18
754.79	1720.29
754.97	1669.09
755.14	1753.06
755.32	1671.14
755.50	1708.01
755.68	1730.53
755.86	1714.15
756.04	1650.66
756.22	1517.54
756.40	1714.15
756.57	1834.98
756.75	1673.19
756.93	1806.31
757.11	1701.86
757.29	1599.46
757.47	1693.67
757.65	1691.62
757.82	1652.71
758.00	1626.09
758.18	1740.77
758.36	1646.57
758.54	1796.07
758.72	1652.71
758.90	1773.54
759.07	1789.92
759.25	1634.28
759.43	1781.73
759.61	1681.38
759.79	2238.43
759.97	1773.54
760.15	1646.57
760.32	1718.25
760.50	1693.67
760.68	1855.46
760.86	1726.44
761.04	1730.53
761.22	1785.83
761.39	1738.73
761.57	1736.68
761.75	1644.52
761.93	1783.78
762.11	1683.43
762.28	1722.34
762.46	1669.09
762.64	1804.26
762.82	1609.70
763.00	1697.77
763.18	1806.31
763.35	1669.09
763.53	1748.97
763.71	1826.79
763.89	1722.34
764.07	1724.39
764.24	1710.05
764.42	1791.97
764.60	1662.95
764.78	1701.86
764.96	1837.03
765.13	1773.54
765.31	1654.76
765.49	1732.58
765.67	1712.10
765.84	1636.33
766.02	1665.00
766.20	1619.94
766.38	1701.86
766.56	1726.44
766.73	1746.92
766.91	1746.92
767.09	1681.38
767.27	1769.44
767.44	1632.23
767.62	1746.92
767.80	1744.87
767.98	1673.19
768.15	1712.10
768.33	1779.68
768.51	1771.49
768.69	1753.06
768.87	1697.77
769.04	1736.68
769.22	1820.64
769.40	1779.68
769.58	1824.74
769.75	1691.62
769.93	1832.93
770.11	1701.86
770.28	1665.00
770.46	1695.72
770.64	1791.97
770.82	1724.39
770.99	1701.86
771.17	1742.82
771.35	1599.46
771.53	1648.61
771.70	1638.38
771.88	1705.96
772.06	1628.14
772.23	1644.52
772.41	1751.01
772.59	1740.77
772.77	1755.11
772.94	1734.63
773.12	1763.30
773.30	1748.97
773.47	1755.11
773.65	1722.34
773.83	1853.41
774.01	1710.05
774.18	1607.66
774.36	1748.97
774.54	1640.42
774.71	1656.81
774.89	1550.31
775.07	1630.18
775.24	1683.43
775.42	1650.66
775.60	1869.80
775.78	1738.73
775.95	1667.05
776.13	1621.99
776.31	1652.71
776.48	1759.21
776.66	1748.97
776.84	1585.13
777.01	1660.90
777.19	1748.97
777.37	1677.29
777.54	1767.40
777.72	1841.12
777.90	1701.86
778.07	1705.96
778.25	1906.66
778.43	1775.59
778.60	1722.34
778.78	1802.21
778.96	1863.65
779.13	1638.38
779.31	1728.49
779.49	1732.58
779.66	1724.39
779.84	1722.34
780.01	1730.53
780.19	1736.68
780.37	1763.30
780.54	1724.39
780.72	1695.72
780.90	1701.86
781.07	1767.40
781.25	1660.90
781.43	1722.34
781.60	1681.38
781.78	1728.49
781.95	1689.57
782.13	1728.49
782.31	1718.25
782.48	1650.66
782.66	1822.69
782.83	1761.25
783.01	1755.11
783.19	1718.25
783.36	1728.49
783.54	1607.66
783.72	1798.12
783.89	1736.68
784.07	1738.73
784.24	1703.91
784.42	1751.01
784.60	1638.38
784.77	1839.08
784.95	1656.81
785.12	1667.05
785.30	1710.05
785.47	1619.94
785.65	1636.33
785.83	1820.64
786.00	1763.30
786.18	1683.43
786.35	1613.80
786.53	1607.66
786.71	1710.05
786.88	1716.20
787.06	1699.81
787.23	1667.05
787.41	1640.42
787.58	1685.48
787.76	1644.52
787.94	1775.59
788.11	1650.66
788.29	1683.43
788.46	1710.05
788.64	1656.81
788.81	1652.71
788.99	1660.90
789.16	1691.62
789.34	1701.86
789.52	1640.42
789.69	1675.24
789.87	1662.95
790.04	1634.28
790.22	1683.43
790.39	1732.58
790.57	1722.34
790.74	1662.95
790.92	1701.86
791.09	1667.05
791.27	1705.96
791.44	1796.07
791.62	1652.71
791.79	1789.92
791.97	1685.48
792.15	1968.10
792.32	1783.78
792.50	1759.21
792.67	1875.94
792.85	1789.92
793.02	1642.47
793.20	1667.05
793.37	1626.09
793.55	1699.81
793.72	1617.90
793.90	1761.25
794.07	1693.67
794.25	1701.86
794.42	1665.00
794.60	1675.24
794.77	1679.33
794.95	1748.97
795.12	1744.87
795.30	1708.01
795.47	1642.47
795.65	1943.52
795.82	1710.05
796.00	1638.38
796.17	1712.10
796.34	1683.43
796.52	1775.59
796.69	1726.44
796.87	1728.49
797.04	1728.49
797.22	1738.73
797.39	1771.49
797.57	1779.68
797.74	1753.06
797.92	1673.19
798.09	1730.53
798.27	1787.88
798.44	1742.82
798.62	1742.82
798.79	1708.01
798.96	1759.21
799.14	1654.76
799.31	1898.47
799.49	1685.48
799.66	1669.09
799.84	1753.06
800.01	1589.22
800.19	1755.11
800.36	1587.18
800.53	1740.77
800.71	1701.86
800.88	1748.97
801.06	1697.77
801.23	1705.96
801.41	1712.10
801.58	1683.43
801.75	1648.61
801.93	1732.58
802.10	1759.21
802.28	1710.05
802.45	1708.01
802.63	1730.53
802.80	1705.96
802.97	1648.61
803.15	1826.79
803.32	1673.19
803.50	1550.31
803.67	1624.04
803.84	1730.53
804.02	1617.90
804.19	1716.20
804.37	1630.18
804.54	1656.81
804.71	1626.09
804.89	1769.44
805.06	1689.57
805.24	1648.61
805.41	1726.44
805.58	1675.24
805.76	1855.46
805.93	1675.24
806.10	1791.97
806.28	1716.20
806.45	1789.92
806.63	1724.39
806.80	1759.21
806.97	1710.05
807.15	1683.43
807.32	1804.26
807.49	1695.72
807.67	1685.48
807.84	1740.77
808.01	1652.71
808.19	1863.65
808.36	1843.17
808.54	1763.30
808.71	1603.56
808.88	1744.87
809.06	1693.67
809.23	1837.03
809.40	1517.54
809.58	1687.53
809.75	1675.24
809.92	1740.77
810.10	1812.45
810.27	1669.09
810.44	1755.11
810.62	1667.05
810.79	1769.44
810.96	1624.04
811.14	1687.53
811.31	1757.16
811.48	1816.55
811.66	1740.77
811.83	1787.88
812.00	1759.21
812.18	1652.71
812.35	1863.65
812.52	1667.05
812.69	1695.72
812.87	1689.57
813.04	1671.14
813.21	1669.09
813.39	1718.25
813.56	1626.09
813.73	1755.11
813.91	1605.61
814.08	1695.72
814.25	1767.40
814.42	1617.90
814.60	1683.43
814.77	1691.62
814.94	1681.38
815.12	1728.49
815.29	1746.92
815.46	1665.00
815.63	1710.05
815.81	1714.15
815.98	1697.77
816.15	1710.05
816.33	1683.43
816.50	1673.19
816.67	1665.00
816.84	1705.96
817.02	1642.47
817.19	1667.05
817.36	1691.62
817.53	1757.16
817.71	1624.04
817.88	1824.74
818.05	1720.29
818.22	1636.33
818.40	1808.36
818.57	1714.15
818.74	1734.63
818.91	1738.73
819.09	1773.54
819.26	1779.68
819.43	1722.34
819.60	1669.09
819.78	1621.99
819.95	1757.16
820.12	1613.80
820.29	1830.88
820.47	1884.13
820.64	1691.62
820.81	1648.61
820.98	1656.81
821.15	1658.85
821.33	1773.54
821.50	1585.13
821.67	1685.48
821.84	1724.39
822.02	1701.86
822.19	1796.07
822.36	1642.47
822.53	1703.91
822.70	1656.81
822.88	1699.81
823.05	1816.55
823.22	1716.20
823.39	1724.39
823.56	1734.63
823.74	1818.60
823.91	1679.33
824.08	1691.62
824.25	1626.09
824.42	1855.46
824.60	1650.66
824.77	1691.62
824.94	1738.73
825.11	1767.40
825.28	1642.47
825.45	1689.57
825.63	1691.62
825.80	1675.24
825.97	1789.92
826.14	1669.09
826.31	1701.86
826.48	1740.77
826.66	1695.72
826.83	1740.77
827.00	1726.44
827.17	1697.77
827.34	1720.29
827.51	1660.90
827.69	1708.01
827.86	1687.53
828.03	1662.95
828.20	1808.36
828.37	1675.24
828.54	1763.30
828.71	1642.47
828.89	1826.79
829.06	1685.48
829.23	1746.92
829.40	1669.09
829.57	1654.76
829.74	1826.79
829.91	1693.67
830.09	1665.00
830.26	1689.57
830.43	1796.07
830.60	1732.58
830.77	1771.49
830.94	1671.14
831.11	1710.05
831.28	1597.42
831.46	1794.02
831.63	1732.58
831.80	1808.36
831.97	1681.38
832.14	1605.61
832.31	1816.55
832.48	1757.16
832.65	1748.97
832.82	1689.57
832.99	1738.73
833.17	1589.22
833.34	1718.25
833.51	1761.25
833.68	1570.79
833.85	1742.82
834.02	1642.47
834.19	1695.72
834.36	1619.94
834.53	1718.25
834.70	1828.84
834.87	1761.25
835.04	1669.09
835.22	1628.14
835.39	1726.44
835.56	1697.77
835.73	1630.18
835.90	1791.97
836.07	1693.67
836.24	1773.54
836.41	1611.75
836.58	1693.67
836.75	1714.15
836.92	1714.15
837.09	1644.52
837.26	1810.40
837.43	1757.16
837.60	1722.34
837.77	1640.42
837.94	1722.34
838.12	1822.69
838.29	1712.10
838.46	1703.91
838.63	1611.75
838.80	1839.08
838.97	1701.86
839.14	1691.62
839.31	1708.01
839.48	1730.53
839.65	1665.00
839.82	1720.29
839.99	1630.18
840.16	1703.91
840.33	1677.29
840.50	1767.40
840.67	1742.82
840.84	1587.18
841.01	1624.04
841.18	1607.66
841.35	1669.09
841.52	1728.49
841.69	1808.36
841.86	1708.01
842.03	1650.66
842.20	1724.39
842.37	1656.81
842.54	1775.59
842.71	1724.39
842.88	1697.77
843.05	1763.30
843.22	1705.96
843.39	1687.53
843.56	1736.68
843.73	1710.05
843.90	1736.68
844.07	1726.44
844.24	1736.68
844.41	1783.78
844.58	1730.53
844.75	1689.57
844.92	1726.44
845.09	1763.30
845.26	1613.80
845.43	1724.39
845.60	1681.38
845.77	1798.12
845.94	1757.16
846.10	1783.78
846.27	1703.91
846.44	1673.19
846.61	1740.77
846.78	1748.97
846.95	1806.31
847.12	1716.20
847.29	1650.66
847.46	1583.08
847.63	1767.40
847.80	1669.09
847.97	1720.29
848.14	1865.70
848.31	1685.48
848.48	1640.42
848.65	1757.16
848.82	1724.39
848.98	1853.41
849.15	1710.05
849.32	1710.05
849.49	1832.93
849.66	1671.14
849.83	1656.81
850.00	1701.86
850.17	1722.34
850.34	1724.39
850.51	1699.81
850.68	1708.01
850.85	1849.32
851.01	1691.62
851.18	1710.05
851.35	1669.09
851.52	1722.34
851.69	1755.11
851.86	1660.90
852.03	1728.49
852.20	1699.81
852.37	1675.24
852.53	1654.76
852.70	1763.30
852.87	1691.62
853.04	1767.40
853.21	1705.96
853.38	1759.21
853.55	1705.96
853.72	1820.64
853.89	1693.67
854.05	1652.71
854.22	1712.10
854.39	1691.62
854.56	1748.97
854.73	1787.88
854.90	1675.24
855.07	1744.87
855.23	1695.72
855.40	1681.38
855.57	1710.05
855.74	1519.59
855.91	1816.55
856.08	1621.99
856.25	1667.05
856.41	1632.23
856.58	1734.63
856.75	1755.11
856.92	1691.62
857.09	1742.82
857.26	1683.43
857.42	1691.62
857.59	1697.77
857.76	1730.53
857.93	1708.01
858.10	1703.91
858.27	1677.29
858.43	1710.05
858.60	1695.72
858.77	1550.31
858.94	1771.49
859.11	1775.59
859.27	1660.90
859.44	1697.77
859.61	1814.50
859.78	1779.68
859.95	1646.57
860.12	1685.48
860.28	1843.17
860.45	1861.60
860.62	1724.39
860.79	1732.58
860.95	1732.58
861.12	1658.85
861.29	1732.58
861.46	1665.00
861.63	1685.48
861.79	1710.05
861.96	1626.09
862.13	1708.01
862.30	1818.60
862.47	1751.01
862.63	1656.81
862.80	1853.41
862.97	1693.67
863.14	1777.64
863.30	1652.71
863.47	1689.57
863.64	1761.25
863.81	1665.00
863.97	1667.05
864.14	1791.97
864.31	1724.39
864.48	1722.34
864.65	1697.77
864.81	1695.72
864.98	1814.50
865.15	1714.15
865.32	1787.88
865.48	1695.72
865.65	1814.50
865.82	1648.61
865.98	1738.73
866.15	1814.50
866.32	1742.82
866.49	1687.53
866.65	1773.54
866.82	1656.81
866.99	1726.44
867.16	1652.71
867.32	1660.90
867.49	1710.05
867.66	1607.66
867.83	1691.62
867.99	1642.47
868.16	1701.86
868.33	1558.50
868.49	1730.53
868.66	1736.68
868.83	1787.88
868.99	1738.73
869.16	1722.34
869.33	1808.36
869.50	1751.01
869.66	1632.23
869.83	1769.44
870.00	1720.29
870.16	1738.73
870.33	1740.77
870.50	1828.84
870.66	1710.05
870.83	1857.51
871.00	1654.76
871.17	1689.57
871.33	1705.96
871.50	1660.90
871.67	1685.48
871.83	1640.42
872.00	1722.34
872.17	1656.81
872.33	1843.17
872.50	1726.44
872.67	1710.05
872.83	1785.83
873.00	1769.44
873.17	1677.29
873.33	1773.54
873.50	1746.92
873.67	1683.43
873.83	1724.39
874.00	1640.42
874.16	1734.63
874.33	1662.95
874.50	1638.38
874.66	1748.97
874.83	1783.78
875.00	1710.05
875.16	1759.21
875.33	1722.34
875.50	1648.61
875.66	1675.24
875.83	1736.68
875.99	1777.64
876.16	1740.77
876.33	1662.95
876.49	1716.20
876.66	1708.01
876.83	1681.38
876.99	1619.94
877.16	1681.38
877.32	1644.52
877.49	1628.14
877.66	1732.58
877.82	1769.44
877.99	1769.44
878.15	1775.59
878.32	1689.57
878.49	1656.81
878.65	1656.81
878.82	1724.39
878.98	1630.18
879.15	1658.85
879.32	1810.40
879.48	1720.29
879.65	1744.87
879.81	1662.95
879.98	1697.77
880.15	1701.86
880.31	1804.26
880.48	1644.52
880.64	1746.92
880.81	1726.44
880.97	1849.32
881.14	1765.35
881.31	1660.90
881.47	1837.03
881.64	1720.29
881.80	1679.33
881.97	1677.29
882.13	1665.00
882.30	1630.18
882.47	1671.14
882.63	1615.85
882.80	1685.48
882.96	1634.28
883.13	1759.21
883.29	1677.29
883.46	1718.25
883.62	1822.69
883.79	1701.86
883.95	1871.84
884.12	1691.62
884.29	1775.59
884.45	1712.10
884.62	1677.29
884.78	1644.52
884.95	1787.88
885.11	1656.81
885.28	1771.49
885.44	1662.95
885.61	1701.86
885.77	1910.75
885.94	1781.73
886.10	1687.53
886.27	1748.97
886.43	1794.02
886.60	1787.88
886.76	1697.77
886.93	1705.96
887.09	1738.73
887.26	1624.04
887.42	1665.00
887.59	1755.11
887.75	1931.23
887.92	1746.92
888.08	1697.77
888.25	1834.98
888.41	1757.16
888.58	1757.16
888.74	1669.09
888.91	1699.81
>>>>>End Processed Spectral Data<<<<<
