SpectraSuite Data File
++++++++++++++++++++++++++++++++++++
Date: Mon Jun 06 17:33:17 CEST 2016
User: root
Dark Spectrum Present: No
Reference Spectrum Present: No
Number of Sampled Component Spectra: 1
Spectrometers: USB4C02835
Integration Time (usec): 100000 (USB4C02835)
Spectra Averaged: 1 (USB4C02835)
Boxcar Smoothing: 0 (USB4C02835)
Correct for Electrical Dark: No (USB4C02835)
Strobe/Lamp Enabled: No (USB4C02835)
Correct for Detector Non-linearity: No (USB4C02835)
Correct for Stray Light: No (USB4C02835)
Number of Pixels in Processed Spectrum: 3648
>>>>>Begin Processed Spectral Data<<<<<
177.47	1462.25
177.69	1462.25
177.91	1462.25
178.13	1466.35
178.36	1513.45
178.58	1640.42
178.80	1636.33
179.02	1615.85
179.24	1636.33
179.46	1705.96
179.68	1708.01
179.90	1701.86
180.13	1761.25
180.35	1615.85
180.57	1794.02
180.79	1675.24
181.01	1683.43
181.23	1804.26
181.45	1783.78
181.67	1746.92
181.90	1755.11
182.12	1683.43
182.34	1669.09
182.56	1761.25
182.78	1722.34
183.00	1744.87
183.22	1640.42
183.44	1619.94
183.66	1824.74
183.89	1824.74
184.11	1710.05
184.33	1740.77
184.55	1753.06
184.77	1695.72
184.99	1675.24
185.21	1738.73
185.43	1859.56
185.65	1738.73
185.87	1730.53
186.10	1834.98
186.32	1816.55
186.54	1763.30
186.76	1798.12
186.98	1736.68
187.20	1714.15
187.42	1640.42
187.64	1791.97
187.86	1720.29
188.08	1761.25
188.30	1695.72
188.52	1714.15
188.75	1794.02
188.97	1718.25
189.19	1685.48
189.41	1728.49
189.63	1740.77
189.85	1728.49
190.07	1683.43
190.29	1728.49
190.51	1730.53
190.73	1652.71
190.95	1806.31
191.17	1789.92
191.39	1554.41
191.61	1710.05
191.84	1748.97
192.06	1783.78
192.28	1658.85
192.50	1957.86
192.72	1773.54
192.94	1703.91
193.16	1761.25
193.38	1820.64
193.60	1740.77
193.82	1656.81
194.04	1763.30
194.26	1699.81
194.48	1755.11
194.70	1632.23
194.92	1673.19
195.14	1761.25
195.36	1669.09
195.58	1724.39
195.80	1667.05
196.02	1665.00
196.24	1744.87
196.46	1703.91
196.69	1746.92
196.91	1839.08
197.13	1710.05
197.35	1718.25
197.57	1779.68
197.79	1597.42
198.01	1714.15
198.23	1726.44
198.45	1769.44
198.67	1640.42
198.89	1744.87
199.11	1759.21
199.33	1767.40
199.55	1572.84
199.77	1712.10
199.99	1849.32
200.21	1685.48
200.43	1710.05
200.65	1652.71
200.87	1595.37
201.09	1689.57
201.31	1691.62
201.53	1718.25
201.75	1691.62
201.97	1685.48
202.19	1710.05
202.41	1765.35
202.63	1867.75
202.85	1771.49
203.07	1847.27
203.29	1693.67
203.51	1626.09
203.73	1638.38
203.95	1951.71
204.17	1740.77
204.39	1748.97
204.61	1746.92
204.83	1736.68
205.05	1761.25
205.27	1738.73
205.49	1853.41
205.71	1730.53
205.93	1630.18
206.15	1675.24
206.37	1671.14
206.59	1679.33
206.81	1710.05
207.03	1599.46
207.25	1673.19
207.47	1736.68
207.69	1722.34
207.91	1789.92
208.13	1759.21
208.34	1708.01
208.56	1685.48
208.78	1738.73
209.00	1673.19
209.22	1714.15
209.44	1732.58
209.66	1710.05
209.88	1685.48
210.10	1726.44
210.32	1667.05
210.54	1759.21
210.76	1703.91
210.98	1730.53
211.20	1613.80
211.42	1710.05
211.64	1783.78
211.86	1775.59
212.08	1759.21
212.30	1710.05
212.52	1742.82
212.74	1763.30
212.96	1732.58
213.17	1812.45
213.39	1765.35
213.61	1730.53
213.83	1720.29
214.05	1669.09
214.27	1757.16
214.49	1605.61
214.71	1677.29
214.93	1726.44
215.15	1738.73
215.37	1751.01
215.59	1621.99
215.81	1763.30
216.03	1845.22
216.24	1787.88
216.46	1699.81
216.68	1734.63
216.90	1798.12
217.12	1767.40
217.34	1689.57
217.56	1832.93
217.78	1720.29
218.00	1818.60
218.22	1691.62
218.44	1742.82
218.66	1701.86
218.87	1781.73
219.09	1662.95
219.31	1785.83
219.53	1654.76
219.75	1677.29
219.97	1771.49
220.19	1642.47
220.41	1685.48
220.63	1816.55
220.85	1740.77
221.06	1650.66
221.28	1794.02
221.50	1712.10
221.72	1718.25
221.94	1759.21
222.16	1636.33
222.38	1771.49
222.60	1787.88
222.82	1669.09
223.03	1785.83
223.25	1636.33
223.47	1757.16
223.69	1869.80
223.91	1824.74
224.13	1689.57
224.35	1740.77
224.57	1771.49
224.78	1777.64
225.00	1738.73
225.22	1636.33
225.44	1787.88
225.66	1703.91
225.88	1621.99
226.10	1761.25
226.32	1699.81
226.53	1787.88
226.75	1734.63
226.97	1730.53
227.19	1662.95
227.41	1730.53
227.63	1685.48
227.85	1576.94
228.06	1742.82
228.28	1767.40
228.50	1798.12
228.72	1644.52
228.94	1624.04
229.16	1654.76
229.37	1609.70
229.59	1660.90
229.81	1755.11
230.03	1738.73
230.25	1656.81
230.47	1669.09
230.69	1589.22
230.90	1753.06
231.12	1699.81
231.34	1671.14
231.56	1755.11
231.78	1640.42
232.00	1652.71
232.21	1791.97
232.43	1691.62
232.65	1566.70
232.87	1771.49
233.09	1683.43
233.30	1646.57
233.52	1712.10
233.74	1648.61
233.96	1697.77
234.18	1703.91
234.40	1726.44
234.61	1832.93
234.83	1732.58
235.05	1677.29
235.27	1900.52
235.49	1800.16
235.70	1716.20
235.92	1826.79
236.14	1699.81
236.36	1816.55
236.58	1624.04
236.79	1748.97
237.01	1748.97
237.23	1751.01
237.45	1865.70
237.67	1660.90
237.88	1765.35
238.10	1837.03
238.32	1652.71
238.54	1697.77
238.76	1693.67
238.97	1767.40
239.19	1615.85
239.41	1783.78
239.63	1703.91
239.85	1595.37
240.06	1697.77
240.28	1722.34
240.50	1822.69
240.72	1662.95
240.93	1701.86
241.15	1791.97
241.37	1699.81
241.59	1798.12
241.81	1683.43
242.02	1746.92
242.24	1802.21
242.46	1726.44
242.68	1738.73
242.89	1724.39
243.11	1789.92
243.33	1642.47
243.55	1816.55
243.76	1789.92
243.98	1679.33
244.20	1658.85
244.42	1681.38
244.64	1714.15
244.85	1699.81
245.07	1683.43
245.29	1798.12
245.51	1718.25
245.72	1730.53
245.94	1738.73
246.16	1716.20
246.38	1697.77
246.59	1656.81
246.81	1652.71
247.03	1689.57
247.24	1646.57
247.46	1734.63
247.68	1710.05
247.90	1673.19
248.11	1695.72
248.33	1779.68
248.55	1738.73
248.77	1683.43
248.98	1720.29
249.20	1775.59
249.42	1767.40
249.64	1775.59
249.85	1736.68
250.07	1687.53
250.29	1794.02
250.50	1765.35
250.72	1683.43
250.94	1710.05
251.16	1896.42
251.37	1748.97
251.59	1738.73
251.81	1748.97
252.02	1791.97
252.24	1648.61
252.46	1832.93
252.68	1681.38
252.89	1712.10
253.11	1638.38
253.33	1763.30
253.54	1691.62
253.76	1660.90
253.98	1746.92
254.20	1755.11
254.41	1689.57
254.63	1710.05
254.85	1636.33
255.06	1736.68
255.28	1746.92
255.50	1685.48
255.71	1685.48
255.93	1599.46
256.15	1751.01
256.36	1804.26
256.58	1656.81
256.80	1751.01
257.02	1708.01
257.23	1689.57
257.45	1781.73
257.67	1718.25
257.88	1748.97
258.10	1748.97
258.32	1683.43
258.53	1732.58
258.75	1767.40
258.97	1642.47
259.18	1720.29
259.40	1724.39
259.62	1769.44
259.83	1751.01
260.05	1789.92
260.27	1947.62
260.48	1830.88
260.70	1722.34
260.92	1742.82
261.13	1681.38
261.35	1769.44
261.57	1812.45
261.78	1589.22
262.00	1644.52
262.22	1812.45
262.43	1638.38
262.65	1748.97
262.86	1705.96
263.08	1806.31
263.30	1771.49
263.51	1583.08
263.73	1714.15
263.95	1816.55
264.16	1640.42
264.38	1656.81
264.60	1783.78
264.81	1714.15
265.03	1779.68
265.25	1738.73
265.46	1685.48
265.68	1738.73
265.89	1736.68
266.11	1675.24
266.33	1757.16
266.54	1703.91
266.76	1789.92
266.98	1775.59
267.19	1804.26
267.41	1744.87
267.62	1660.90
267.84	1681.38
268.06	1791.97
268.27	1681.38
268.49	1794.02
268.70	1761.25
268.92	1738.73
269.14	1681.38
269.35	1632.23
269.57	1691.62
269.79	1701.86
270.00	1656.81
270.22	1791.97
270.43	1628.14
270.65	1560.55
270.87	1654.76
271.08	1843.17
271.30	1710.05
271.51	1646.57
271.73	1720.29
271.95	1804.26
272.16	1755.11
272.38	1642.47
272.59	1693.67
272.81	1761.25
273.02	1779.68
273.24	1710.05
273.46	1796.07
273.67	1675.24
273.89	1683.43
274.10	1718.25
274.32	1849.32
274.54	1789.92
274.75	1718.25
274.97	1755.11
275.18	1787.88
275.40	1738.73
275.61	1710.05
275.83	1753.06
276.05	1630.18
276.26	1714.15
276.48	1759.21
276.69	1683.43
276.91	1646.57
277.12	1718.25
277.34	1814.50
277.55	1712.10
277.77	1759.21
277.99	1718.25
278.20	1638.38
278.42	1634.28
278.63	1681.38
278.85	1697.77
279.06	1665.00
279.28	1693.67
279.49	1771.49
279.71	1742.82
279.93	1742.82
280.14	1681.38
280.36	1734.63
280.57	1789.92
280.79	1746.92
281.00	1605.61
281.22	1601.51
281.43	1804.26
281.65	1609.70
281.86	1748.97
282.08	1767.40
282.29	1853.41
282.51	1695.72
282.73	1656.81
282.94	1648.61
283.16	1787.88
283.37	1785.83
283.59	1761.25
283.80	1822.69
284.02	1638.38
284.23	1689.57
284.45	1679.33
284.66	1691.62
284.88	1699.81
285.09	1693.67
285.31	1728.49
285.52	1763.30
285.74	1589.22
285.95	1742.82
286.17	1746.92
286.38	1841.12
286.60	1646.57
286.81	1716.20
287.03	1742.82
287.24	1730.53
287.46	1791.97
287.67	1728.49
287.89	1814.50
288.10	1697.77
288.32	1677.29
288.53	1783.78
288.75	1744.87
288.96	1789.92
289.18	1662.95
289.39	1691.62
289.61	1816.55
289.82	1755.11
290.04	1796.07
290.25	1611.75
290.47	1677.29
290.68	1748.97
290.90	1806.31
291.11	1634.28
291.33	1771.49
291.54	1689.57
291.76	1685.48
291.97	1769.44
292.18	1730.53
292.40	1644.52
292.61	1736.68
292.83	1847.27
293.04	1775.59
293.26	1716.20
293.47	1744.87
293.69	1710.05
293.90	1753.06
294.12	1736.68
294.33	1665.00
294.55	1683.43
294.76	1804.26
294.97	1826.79
295.19	1816.55
295.40	1646.57
295.62	1710.05
295.83	1794.02
296.05	1667.05
296.26	1730.53
296.48	1626.09
296.69	1701.86
296.90	1701.86
297.12	1775.59
297.33	1730.53
297.55	1699.81
297.76	1732.58
297.98	1777.64
298.19	1738.73
298.41	1689.57
298.62	1636.33
298.83	1779.68
299.05	1683.43
299.26	1685.48
299.48	1697.77
299.69	1718.25
299.90	1812.45
300.12	1697.77
300.33	1791.97
300.55	1654.76
300.76	1769.44
300.98	1695.72
301.19	1830.88
301.40	1699.81
301.62	1755.11
301.83	1675.24
302.05	1740.77
302.26	1701.86
302.47	1736.68
302.69	1648.61
302.90	1716.20
303.12	1609.70
303.33	1814.50
303.54	1834.98
303.76	1673.19
303.97	1683.43
304.19	1806.31
304.40	1646.57
304.61	1746.92
304.83	1855.46
305.04	1802.21
305.26	1667.05
305.47	1734.63
305.68	1708.01
305.90	1626.09
306.11	1814.50
306.33	1748.97
306.54	1681.38
306.75	1652.71
306.97	1611.75
307.18	1662.95
307.39	1791.97
307.61	1742.82
307.82	1650.66
308.04	1738.73
308.25	1683.43
308.46	1691.62
308.68	1708.01
308.89	1767.40
309.10	1791.97
309.32	1681.38
309.53	1767.40
309.74	1781.73
309.96	1681.38
310.17	1779.68
310.39	1705.96
310.60	1718.25
310.81	1748.97
311.03	1646.57
311.24	1726.44
311.45	1818.60
311.67	1828.84
311.88	1775.59
312.09	1740.77
312.31	1675.24
312.52	1785.83
312.73	1689.57
312.95	1665.00
313.16	1677.29
313.37	1744.87
313.59	1716.20
313.80	1765.35
314.01	1742.82
314.23	1720.29
314.44	1716.20
314.65	1662.95
314.87	1679.33
315.08	1757.16
315.29	1615.85
315.51	1671.14
315.72	1593.32
315.93	1804.26
316.15	1818.60
316.36	1689.57
316.57	1693.67
316.79	1742.82
317.00	1646.57
317.21	1789.92
317.43	1685.48
317.64	1705.96
317.85	1691.62
318.07	1675.24
318.28	1740.77
318.49	1781.73
318.70	1886.18
318.92	1845.22
319.13	1812.45
319.34	1810.40
319.56	1765.35
319.77	1880.04
319.98	1798.12
320.20	1755.11
320.41	1877.99
320.62	1728.49
320.83	1671.14
321.05	1828.84
321.26	1728.49
321.47	1634.28
321.69	1789.92
321.90	1585.13
322.11	1691.62
322.32	1769.44
322.54	1820.64
322.75	1636.33
322.96	1810.40
323.18	1667.05
323.39	1550.31
323.60	1693.67
323.81	1845.22
324.03	1632.23
324.24	1740.77
324.45	1630.18
324.66	1703.91
324.88	1732.58
325.09	1814.50
325.30	1701.86
325.52	1781.73
325.73	1724.39
325.94	1630.18
326.15	1630.18
326.37	1697.77
326.58	1722.34
326.79	1742.82
327.00	1650.66
327.22	1705.96
327.43	1665.00
327.64	1642.47
327.85	1732.58
328.07	1755.11
328.28	1806.31
328.49	1691.62
328.70	1771.49
328.92	1791.97
329.13	1691.62
329.34	1812.45
329.55	1849.32
329.76	1753.06
329.98	1646.57
330.19	1783.78
330.40	1751.01
330.61	1767.40
330.83	1744.87
331.04	1714.15
331.25	1791.97
331.46	1701.86
331.68	1673.19
331.89	1753.06
332.10	1759.21
332.31	1710.05
332.52	1763.30
332.74	1757.16
332.95	1607.66
333.16	1650.66
333.37	1726.44
333.58	1720.29
333.80	1779.68
334.01	1695.72
334.22	1736.68
334.43	1667.05
334.64	1720.29
334.86	1681.38
335.07	1671.14
335.28	1726.44
335.49	1669.09
335.70	1746.92
335.92	1744.87
336.13	1859.56
336.34	1710.05
336.55	1728.49
336.76	1726.44
336.98	1554.41
337.19	1683.43
337.40	1791.97
337.61	1822.69
337.82	1632.23
338.04	1730.53
338.25	1609.70
338.46	1675.24
338.67	1742.82
338.88	1626.09
339.09	1671.14
339.31	1652.71
339.52	1681.38
339.73	1613.80
339.94	1722.34
340.15	1712.10
340.36	1740.77
340.58	1701.86
340.79	1724.39
341.00	1671.14
341.21	1689.57
341.42	1822.69
341.63	1687.53
341.85	1769.44
342.06	1740.77
342.27	1708.01
342.48	1798.12
342.69	1634.28
342.90	1728.49
343.12	1746.92
343.33	1742.82
343.54	1718.25
343.75	1820.64
343.96	1695.72
344.17	1691.62
344.38	1720.29
344.60	1636.33
344.81	1617.90
345.02	1687.53
345.23	1816.55
345.44	1765.35
345.65	1796.07
345.86	1804.26
346.07	1703.91
346.29	1724.39
346.50	1769.44
346.71	1718.25
346.92	1773.54
347.13	1814.50
347.34	1693.67
347.55	1769.44
347.76	1763.30
347.98	1576.94
348.19	1714.15
348.40	1781.73
348.61	1748.97
348.82	1824.74
349.03	1812.45
349.24	1652.71
349.45	1849.32
349.66	1568.74
349.88	1714.15
350.09	1695.72
350.30	1777.64
350.51	1722.34
350.72	1699.81
350.93	1789.92
351.14	1759.21
351.35	1630.18
351.56	1693.67
351.77	1740.77
351.99	1744.87
352.20	1781.73
352.41	1734.63
352.62	1611.75
352.83	1652.71
353.04	1697.77
353.25	1697.77
353.46	1673.19
353.67	1814.50
353.88	1660.90
354.09	1669.09
354.30	1667.05
354.52	1734.63
354.73	1701.86
354.94	1724.39
355.15	1732.58
355.36	1800.16
355.57	1718.25
355.78	1763.30
355.99	1751.01
356.20	1673.19
356.41	1810.40
356.62	1742.82
356.83	1740.77
357.04	1751.01
357.25	1681.38
357.46	1681.38
357.68	1626.09
357.89	1654.76
358.10	1687.53
358.31	1701.86
358.52	1667.05
358.73	1673.19
358.94	1714.15
359.15	1646.57
359.36	1849.32
359.57	1691.62
359.78	1777.64
359.99	1783.78
360.20	1685.48
360.41	1691.62
360.62	1779.68
360.83	1798.12
361.04	1738.73
361.25	1669.09
361.46	1787.88
361.67	1761.25
361.88	1777.64
362.09	1847.27
362.30	1712.10
362.51	1693.67
362.72	1667.05
362.93	1773.54
363.14	1730.53
363.35	1736.68
363.56	1722.34
363.78	1783.78
363.99	1726.44
364.20	1673.19
364.41	1820.64
364.62	1859.56
364.83	1777.64
365.04	1697.77
365.25	1683.43
365.46	1824.74
365.67	1619.94
365.88	1693.67
366.09	1714.15
366.30	1738.73
366.51	1636.33
366.72	1615.85
366.93	1820.64
367.14	1753.06
367.35	1845.22
367.56	1748.97
367.77	1847.27
367.98	1765.35
368.18	1765.35
368.39	1689.57
368.60	1695.72
368.81	1820.64
369.02	1787.88
369.23	1748.97
369.44	1583.08
369.65	1748.97
369.86	1798.12
370.07	1796.07
370.28	1669.09
370.49	1730.53
370.70	1765.35
370.91	1699.81
371.12	1595.37
371.33	1779.68
371.54	1675.24
371.75	1839.08
371.96	1640.42
372.17	1773.54
372.38	1712.10
372.59	1775.59
372.80	1626.09
373.01	1746.92
373.22	1765.35
373.43	1763.30
373.64	1677.29
373.85	1746.92
374.06	1718.25
374.26	1685.48
374.47	1763.30
374.68	1892.32
374.89	1730.53
375.10	1724.39
375.31	1777.64
375.52	1710.05
375.73	1800.16
375.94	1689.57
376.15	1828.84
376.36	1605.61
376.57	1667.05
376.78	1722.34
376.99	1804.26
377.20	1716.20
377.40	1751.01
377.61	1873.89
377.82	1687.53
378.03	1771.49
378.24	1708.01
378.45	1736.68
378.66	1734.63
378.87	1535.98
379.08	1650.66
379.29	1697.77
379.50	1744.87
379.71	1683.43
379.91	1777.64
380.12	1726.44
380.33	1673.19
380.54	1693.67
380.75	1681.38
380.96	1652.71
381.17	1759.21
381.38	1734.63
381.59	1802.21
381.80	1712.10
382.00	1888.23
382.21	1798.12
382.42	1828.84
382.63	1896.42
382.84	1695.72
383.05	1767.40
383.26	1834.98
383.47	1810.40
383.68	1832.93
383.88	1755.11
384.09	1679.33
384.30	1798.12
384.51	1705.96
384.72	1714.15
384.93	1685.48
385.14	1751.01
385.35	1789.92
385.55	1609.70
385.76	1783.78
385.97	1804.26
386.18	1636.33
386.39	1701.86
386.60	1679.33
386.81	1687.53
387.02	1640.42
387.22	1724.39
387.43	1757.16
387.64	1742.82
387.85	1847.27
388.06	2158.56
388.27	4159.42
388.48	6801.30
388.68	8142.72
388.89	9762.67
389.10	10039.14
389.31	8740.73
389.52	7659.40
389.73	6807.45
389.93	6281.12
390.14	5945.25
390.35	5326.77
390.56	4603.83
390.77	3876.80
390.98	3016.66
391.18	2629.59
391.39	2095.07
391.60	1880.04
391.81	1853.41
392.02	1683.43
392.23	1839.08
392.43	1703.91
392.64	1920.99
392.85	1724.39
393.06	1875.94
393.27	1675.24
393.47	1718.25
393.68	1697.77
393.89	1681.38
394.10	1701.86
394.31	1662.95
394.52	1708.01
394.72	1693.67
394.93	1787.88
395.14	1662.95
395.35	1796.07
395.56	1716.20
395.76	1791.97
395.97	1824.74
396.18	1796.07
396.39	1839.08
396.60	2052.06
396.80	1918.95
397.01	1900.52
397.22	1828.84
397.43	1890.28
397.64	1812.45
397.84	1837.03
398.05	1839.08
398.26	1681.38
398.47	1771.49
398.67	1791.97
398.88	1734.63
399.09	1828.84
399.30	1755.11
399.51	1732.58
399.71	1779.68
399.92	1751.01
400.13	1689.57
400.34	1724.39
400.54	1630.18
400.75	1845.22
400.96	1751.01
401.17	1808.36
401.37	1769.44
401.58	1761.25
401.79	1701.86
402.00	1914.85
402.21	2078.69
402.41	2009.06
402.62	2047.97
402.83	2047.97
403.04	1935.33
403.24	2095.07
403.45	1886.18
403.66	1980.39
403.87	1894.37
404.07	1892.32
404.28	1853.41
404.49	1898.47
404.70	1732.58
404.90	1751.01
405.11	1785.83
405.32	1751.01
405.52	1654.76
405.73	1632.23
405.94	1656.81
406.15	1652.71
406.35	1728.49
406.56	1808.36
406.77	1677.29
406.98	1726.44
407.18	1671.14
407.39	1849.32
407.60	1685.48
407.80	1771.49
408.01	1777.64
408.22	1775.59
408.43	1636.33
408.63	1804.26
408.84	1740.77
409.05	1720.29
409.25	1665.00
409.46	1652.71
409.67	1769.44
409.88	1652.71
410.08	1665.00
410.29	1771.49
410.50	1775.59
410.70	1746.92
410.91	1619.94
411.12	1755.11
411.32	1703.91
411.53	1689.57
411.74	1822.69
411.95	1652.71
412.15	1718.25
412.36	1779.68
412.57	1736.68
412.77	1816.55
412.98	1718.25
413.19	1714.15
413.39	1757.16
413.60	1755.11
413.81	1841.12
414.01	1654.76
414.22	1728.49
414.43	1738.73
414.63	1744.87
414.84	1730.53
415.05	1744.87
415.25	1675.24
415.46	1761.25
415.67	1708.01
415.87	1796.07
416.08	1777.64
416.29	1695.72
416.49	1740.77
416.70	1798.12
416.91	1687.53
417.11	1757.16
417.32	1769.44
417.53	1767.40
417.73	1785.83
417.94	1693.67
418.15	1830.88
418.35	1740.77
418.56	1701.86
418.77	1882.08
418.97	1660.90
419.18	1730.53
419.38	1595.37
419.59	1734.63
419.80	1773.54
420.00	1662.95
420.21	1757.16
420.42	1845.22
420.62	1693.67
420.83	1662.95
421.04	1738.73
421.24	1822.69
421.45	1695.72
421.65	1779.68
421.86	1699.81
422.07	1773.54
422.27	1691.62
422.48	1742.82
422.69	1624.04
422.89	1746.92
423.10	1689.57
423.30	1656.81
423.51	1810.40
423.72	1789.92
423.92	1759.21
424.13	1576.94
424.33	1665.00
424.54	1755.11
424.75	1771.49
424.95	1822.69
425.16	1779.68
425.36	1730.53
425.57	1845.22
425.78	1751.01
425.98	1718.25
426.19	1665.00
426.39	1648.61
426.60	1759.21
426.81	1816.55
427.01	1736.68
427.22	1783.78
427.42	1619.94
427.63	1619.94
427.83	1759.21
428.04	1888.23
428.25	1806.31
428.45	1886.18
428.66	1771.49
428.86	1765.35
429.07	1708.01
429.28	1759.21
429.48	1730.53
429.69	1710.05
429.89	1675.24
430.10	1701.86
430.30	1787.88
430.51	1744.87
430.71	1607.66
430.92	1607.66
431.13	1658.85
431.33	1755.11
431.54	1728.49
431.74	1812.45
431.95	1869.80
432.15	1740.77
432.36	1720.29
432.56	1708.01
432.77	1839.08
432.98	1830.88
433.18	1730.53
433.39	1720.29
433.59	1751.01
433.80	1863.65
434.00	1816.55
434.21	1734.63
434.41	1697.77
434.62	1877.99
434.82	1587.18
435.03	1683.43
435.23	1826.79
435.44	1691.62
435.64	1675.24
435.85	1804.26
436.06	1814.50
436.26	1804.26
436.47	1699.81
436.67	1708.01
436.88	1791.97
437.08	1800.16
437.29	1839.08
437.49	1837.03
437.70	1855.46
437.90	1716.20
438.11	1910.75
438.31	1855.46
438.52	1867.75
438.72	1843.17
438.93	1898.47
439.13	1847.27
439.34	1894.37
439.54	1798.12
439.75	1746.92
439.95	1781.73
440.16	1683.43
440.36	1802.21
440.57	1800.16
440.77	1740.77
440.98	1781.73
441.18	1777.64
441.39	1740.77
441.59	1681.38
441.80	1896.42
442.00	1722.34
442.21	1787.88
442.41	1642.47
442.62	1771.49
442.82	1722.34
443.02	1722.34
443.23	1699.81
443.43	1775.59
443.64	1810.40
443.84	1677.29
444.05	1845.22
444.25	1771.49
444.46	1734.63
444.66	1714.15
444.87	1888.23
445.07	1689.57
445.28	1693.67
445.48	1740.77
445.69	1726.44
445.89	1839.08
446.09	1775.59
446.30	2031.58
446.50	2564.06
446.71	3786.69
446.91	4483.00
447.12	4872.12
447.32	5083.06
447.53	4493.24
447.73	3966.92
447.93	3561.42
448.14	3436.49
448.34	3272.65
448.55	2910.16
448.75	2820.05
448.96	2707.41
449.16	2502.62
449.36	2287.58
449.57	2103.26
449.77	1959.91
449.98	1851.36
450.18	1826.79
450.39	1824.74
450.59	1810.40
450.79	1742.82
451.00	1757.16
451.20	1812.45
451.41	1804.26
451.61	1830.88
451.81	1753.06
452.02	1779.68
452.22	1705.96
452.43	1689.57
452.63	1781.73
452.84	1771.49
453.04	1828.84
453.24	1771.49
453.45	1708.01
453.65	1757.16
453.86	1767.40
454.06	1761.25
454.26	1712.10
454.47	1724.39
454.67	1830.88
454.87	1667.05
455.08	1798.12
455.28	1843.17
455.49	1697.77
455.69	1738.73
455.89	1861.60
456.10	1834.98
456.30	1669.09
456.51	1804.26
456.71	1822.69
456.91	1832.93
457.12	1777.64
457.32	1779.68
457.52	1685.48
457.73	1857.51
457.93	1800.16
458.14	1759.21
458.34	1658.85
458.54	1646.57
458.75	1796.07
458.95	1800.16
459.15	1765.35
459.36	1804.26
459.56	1828.84
459.76	1800.16
459.97	1710.05
460.17	1685.48
460.37	1757.16
460.58	1759.21
460.78	1732.58
460.99	1738.73
461.19	1779.68
461.39	1740.77
461.60	1845.22
461.80	1794.02
462.00	1693.67
462.21	1720.29
462.41	1718.25
462.61	1771.49
462.82	1675.24
463.02	1791.97
463.22	1777.64
463.43	1802.21
463.63	1853.41
463.83	1806.31
464.04	1732.58
464.24	1753.06
464.44	1718.25
464.64	1710.05
464.85	1751.01
465.05	1849.32
465.25	1730.53
465.46	1742.82
465.66	1861.60
465.86	1794.02
466.07	1826.79
466.27	1722.34
466.47	1675.24
466.68	1693.67
466.88	1828.84
467.08	1826.79
467.29	1781.73
467.49	1783.78
467.69	1689.57
467.89	1785.83
468.10	1718.25
468.30	1755.11
468.50	1814.50
468.71	1798.12
468.91	1656.81
469.11	1877.99
469.31	1789.92
469.52	1662.95
469.72	1892.32
469.92	1865.70
470.13	1720.29
470.33	1759.21
470.53	1789.92
470.73	2054.11
470.94	2265.05
471.14	2400.22
471.34	2469.85
471.54	2443.23
471.75	2293.72
471.95	2203.61
472.15	2095.07
472.36	2191.33
472.56	2148.32
472.76	2015.20
472.96	2035.68
473.17	1945.57
473.37	1892.32
473.57	1744.87
473.77	1714.15
473.98	1759.21
474.18	1720.29
474.38	1896.42
474.58	1691.62
474.79	1646.57
474.99	1884.13
475.19	1783.78
475.39	1695.72
475.60	1732.58
475.80	1812.45
476.00	1730.53
476.20	1634.28
476.41	1746.92
476.61	1849.32
476.81	1777.64
477.01	1759.21
477.21	1849.32
477.42	1871.84
477.62	1710.05
477.82	1724.39
478.02	1714.15
478.23	1730.53
478.43	1798.12
478.63	1716.20
478.83	1683.43
479.03	1660.90
479.24	1843.17
479.44	1816.55
479.64	1759.21
479.84	1611.75
480.04	1748.97
480.25	1767.40
480.45	1646.57
480.65	1710.05
480.85	1822.69
481.06	1748.97
481.26	1832.93
481.46	1748.97
481.66	1714.15
481.86	1626.09
482.06	1767.40
482.27	1730.53
482.47	1783.78
482.67	1757.16
482.87	1769.44
483.07	1738.73
483.28	1708.01
483.48	1677.29
483.68	1767.40
483.88	1744.87
484.08	1656.81
484.29	1615.85
484.49	1665.00
484.69	1705.96
484.89	1847.27
485.09	1820.64
485.29	1806.31
485.50	1726.44
485.70	1753.06
485.90	1816.55
486.10	1785.83
486.30	1703.91
486.50	1828.84
486.71	1708.01
486.91	1791.97
487.11	1755.11
487.31	1732.58
487.51	1767.40
487.71	1722.34
487.91	1701.86
488.12	1730.53
488.32	1665.00
488.52	1730.53
488.72	1656.81
488.92	1769.44
489.12	1820.64
489.32	1837.03
489.53	1787.88
489.73	1714.15
489.93	1767.40
490.13	1718.25
490.33	1654.76
490.53	1724.39
490.73	1880.04
490.94	1615.85
491.14	1722.34
491.34	1861.60
491.54	2158.56
491.74	2596.82
491.94	2887.64
492.14	2994.13
492.34	2975.70
492.54	2783.19
492.75	2574.30
492.95	2549.72
493.15	2340.83
493.35	2377.69
493.55	2269.15
493.75	2197.47
493.95	2162.66
494.15	2047.97
494.35	1959.91
494.56	1896.42
494.76	1757.16
494.96	1753.06
495.16	1773.54
495.36	1748.97
495.56	1812.45
495.76	1767.40
495.96	1773.54
496.16	1705.96
496.36	1822.69
496.56	1675.24
496.77	1751.01
496.97	1693.67
497.17	1789.92
497.37	1609.70
497.57	1806.31
497.77	1740.77
497.97	1644.52
498.17	1712.10
498.37	1718.25
498.57	1742.82
498.77	1798.12
498.97	1873.89
499.17	1896.42
499.38	1703.91
499.58	1814.50
499.78	1765.35
499.98	1902.56
500.18	1730.53
500.38	1781.73
500.58	1916.90
500.78	2473.95
500.98	4569.02
501.18	6162.34
501.38	6928.28
501.58	7309.20
501.78	6756.25
501.98	5670.83
502.18	5107.63
502.38	4450.24
502.58	4243.39
502.78	3702.73
502.98	3774.41
503.18	3434.44
503.38	3135.44
503.59	2809.81
503.79	2736.09
503.99	2578.39
504.19	2334.68
504.39	2238.43
504.59	2207.71
504.79	2205.66
504.99	2095.07
505.19	1888.23
505.39	1884.13
505.59	2041.82
505.79	1933.28
505.99	1830.88
506.19	1785.83
506.39	1882.08
506.59	1763.30
506.79	1714.15
506.99	1787.88
507.19	1873.89
507.39	1703.91
507.59	1710.05
507.79	1621.99
507.99	1763.30
508.19	1759.21
508.39	1656.81
508.59	1722.34
508.79	1869.80
508.99	1898.47
509.19	1654.76
509.39	1755.11
509.59	1681.38
509.79	1732.58
509.99	1738.73
510.19	1892.32
510.39	1890.28
510.59	1773.54
510.79	1656.81
510.99	1738.73
511.19	1697.77
511.39	1826.79
511.59	1816.55
511.79	1757.16
511.99	1812.45
512.19	1826.79
512.38	1697.77
512.58	1714.15
512.78	1648.61
512.98	1861.60
513.18	1841.12
513.38	1624.04
513.58	1755.11
513.78	1705.96
513.98	1730.53
514.18	1675.24
514.38	1763.30
514.58	1789.92
514.78	1755.11
514.98	1705.96
515.18	1708.01
515.38	1640.42
515.58	1806.31
515.78	1728.49
515.98	1773.54
516.18	1744.87
516.38	1708.01
516.57	1732.58
516.77	1726.44
516.97	1765.35
517.17	1765.35
517.37	1656.81
517.57	1748.97
517.77	1748.97
517.97	1718.25
518.17	1822.69
518.37	1781.73
518.57	1712.10
518.77	1732.58
518.97	1722.34
519.16	1748.97
519.36	1810.40
519.56	1757.16
519.76	1654.76
519.96	1740.77
520.16	1796.07
520.36	1730.53
520.56	1757.16
520.76	1667.05
520.96	1785.83
521.16	1798.12
521.35	1812.45
521.55	1857.51
521.75	1722.34
521.95	1783.78
522.15	1658.85
522.35	1736.68
522.55	1732.58
522.75	1775.59
522.95	1759.21
523.14	1746.92
523.34	1738.73
523.54	1732.58
523.74	1761.25
523.94	1816.55
524.14	1724.39
524.34	1751.01
524.54	1847.27
524.73	1738.73
524.93	1716.20
525.13	1716.20
525.33	1650.66
525.53	1871.84
525.73	1820.64
525.93	1789.92
526.13	1722.34
526.32	1703.91
526.52	1796.07
526.72	1777.64
526.92	1769.44
527.12	1769.44
527.32	1679.33
527.52	1802.21
527.71	1699.81
527.91	1705.96
528.11	1738.73
528.31	1765.35
528.51	1701.86
528.71	1837.03
528.90	1724.39
529.10	1875.94
529.30	1814.50
529.50	1660.90
529.70	1746.92
529.90	1718.25
530.09	1783.78
530.29	1675.24
530.49	1757.16
530.69	1902.56
530.89	1738.73
531.09	1818.60
531.28	1734.63
531.48	1837.03
531.68	1738.73
531.88	1818.60
532.08	1816.55
532.28	1695.72
532.47	1744.87
532.67	1740.77
532.87	1769.44
533.07	1681.38
533.27	1834.98
533.46	1794.02
533.66	1767.40
533.86	1771.49
534.06	1691.62
534.26	1804.26
534.45	1636.33
534.65	1759.21
534.85	1757.16
535.05	1755.11
535.25	1751.01
535.44	1654.76
535.64	1734.63
535.84	1742.82
536.04	1761.25
536.24	1677.29
536.43	1626.09
536.63	1755.11
536.83	1712.10
537.03	1734.63
537.22	1716.20
537.42	1665.00
537.62	1816.55
537.82	1708.01
538.02	1763.30
538.21	1771.49
538.41	1875.94
538.61	1812.45
538.81	1695.72
539.00	1796.07
539.20	1722.34
539.40	1716.20
539.60	1755.11
539.79	1834.98
539.99	1726.44
540.19	1734.63
540.39	1701.86
540.58	1779.68
540.78	1855.46
540.98	1804.26
541.18	1742.82
541.37	1802.21
541.57	1773.54
541.77	1769.44
541.97	1665.00
542.16	1646.57
542.36	1753.06
542.56	1765.35
542.76	1839.08
542.95	1820.64
543.15	1794.02
543.35	1708.01
543.54	1726.44
543.74	1744.87
543.94	1929.19
544.14	1681.38
544.33	1769.44
544.53	1783.78
544.73	1804.26
544.93	1759.21
545.12	1759.21
545.32	1800.16
545.52	1722.34
545.71	1699.81
545.91	1710.05
546.11	1802.21
546.30	1669.09
546.50	1830.88
546.70	1769.44
546.90	1830.88
547.09	1656.81
547.29	1722.34
547.49	1740.77
547.68	1759.21
547.88	1638.38
548.08	1796.07
548.27	2144.22
548.47	1773.54
548.67	1757.16
548.87	1798.12
549.06	1679.33
549.26	1828.84
549.46	1779.68
549.65	1708.01
549.85	1761.25
550.05	1791.97
550.24	1642.47
550.44	1738.73
550.64	1708.01
550.83	1777.64
551.03	1839.08
551.23	1765.35
551.42	1841.12
551.62	1728.49
551.82	1818.60
552.01	1753.06
552.21	1763.30
552.41	1771.49
552.60	1753.06
552.80	1808.36
553.00	1734.63
553.19	1724.39
553.39	1826.79
553.59	1617.90
553.78	1796.07
553.98	1867.75
554.17	1714.15
554.37	1767.40
554.57	1802.21
554.76	1742.82
554.96	1746.92
555.16	1742.82
555.35	1820.64
555.55	1804.26
555.75	1923.04
555.94	1867.75
556.14	1595.37
556.33	1828.84
556.53	1763.30
556.73	1828.84
556.92	1787.88
557.12	1869.80
557.32	1816.55
557.51	1824.74
557.71	1771.49
557.90	1892.32
558.10	1843.17
558.30	1724.39
558.49	1677.29
558.69	1691.62
558.88	1800.16
559.08	1783.78
559.28	1689.57
559.47	1791.97
559.67	1736.68
559.86	1808.36
560.06	1775.59
560.26	1683.43
560.45	1865.70
560.65	1824.74
560.84	1804.26
561.04	1730.53
561.24	1779.68
561.43	1722.34
561.63	1853.41
561.82	1806.31
562.02	1773.54
562.22	1687.53
562.41	1722.34
562.61	1701.86
562.80	1683.43
563.00	1867.75
563.19	1755.11
563.39	1816.55
563.59	1845.22
563.78	1621.99
563.98	1626.09
564.17	1679.33
564.37	1683.43
564.56	1730.53
564.76	1701.86
564.96	1865.70
565.15	1759.21
565.35	1863.65
565.54	1759.21
565.74	1771.49
565.93	1779.68
566.13	1781.73
566.32	1753.06
566.52	1783.78
566.71	1810.40
566.91	1839.08
567.11	1734.63
567.30	1691.62
567.50	1816.55
567.69	1783.78
567.89	1837.03
568.08	1720.29
568.28	1777.64
568.47	1724.39
568.67	1751.01
568.86	1718.25
569.06	1767.40
569.25	1699.81
569.45	1687.53
569.64	1732.58
569.84	1767.40
570.04	1798.12
570.23	1755.11
570.43	1781.73
570.62	1777.64
570.82	1791.97
571.01	1638.38
571.21	1710.05
571.40	1671.14
571.60	1869.80
571.79	1771.49
571.99	1826.79
572.18	1718.25
572.38	1810.40
572.57	1767.40
572.77	1771.49
572.96	1902.56
573.16	1812.45
573.35	1765.35
573.55	1808.36
573.74	1738.73
573.94	1763.30
574.13	1681.38
574.33	1871.84
574.52	1861.60
574.71	1740.77
574.91	1771.49
575.10	1634.28
575.30	1841.12
575.49	1759.21
575.69	1757.16
575.88	1753.06
576.08	1763.30
576.27	1818.60
576.47	1765.35
576.66	1814.50
576.86	1736.68
577.05	1755.11
577.25	1808.36
577.44	1814.50
577.64	1775.59
577.83	1804.26
578.02	1665.00
578.22	1849.32
578.41	1812.45
578.61	1761.25
578.80	1765.35
579.00	1757.16
579.19	1748.97
579.39	1781.73
579.58	1808.36
579.77	1730.53
579.97	1812.45
580.16	1861.60
580.36	1896.42
580.55	1875.94
580.75	1734.63
580.94	1837.03
581.13	1877.99
581.33	1843.17
581.52	1753.06
581.72	1894.37
581.91	1869.80
582.11	1679.33
582.30	1857.51
582.49	1779.68
582.69	1896.42
582.88	1863.65
583.08	1777.64
583.27	1779.68
583.47	1720.29
583.66	1763.30
583.85	1689.57
584.05	1724.39
584.24	1845.22
584.44	1824.74
584.63	1800.16
584.82	1830.88
585.02	1912.80
585.21	1849.32
585.41	1914.85
585.60	1851.36
585.79	1927.14
585.99	1959.91
586.18	1863.65
586.37	2185.18
586.57	3360.72
586.76	9940.84
586.96	24827.53
587.15	34758.13
587.34	41067.92
587.54	42900.85
587.73	36871.63
587.93	26787.43
588.12	21845.68
588.31	18427.62
588.51	16506.63
588.70	15419.16
588.89	14442.28
589.09	12480.32
589.28	11085.65
589.47	9555.82
589.67	7901.06
589.86	6457.25
590.06	5109.68
590.25	4026.31
590.44	3104.72
590.64	2541.53
590.83	2246.62
591.02	2119.65
591.22	1947.62
591.41	1974.24
591.60	1820.64
591.80	1904.61
591.99	1708.01
592.18	1769.44
592.38	1779.68
592.57	1718.25
592.76	1765.35
592.96	1849.32
593.15	1726.44
593.34	1886.18
593.54	1744.87
593.73	1918.95
593.92	1841.12
594.12	1742.82
594.31	1775.59
594.50	1757.16
594.70	1841.12
594.89	1869.80
595.08	1767.40
595.28	1789.92
595.47	1937.38
595.66	1794.02
595.86	1724.39
596.05	1787.88
596.24	1775.59
596.43	1880.04
596.63	1902.56
596.82	1802.21
597.01	1839.08
597.21	1798.12
597.40	1820.64
597.59	1751.01
597.79	1765.35
597.98	1734.63
598.17	1742.82
598.36	1800.16
598.56	1814.50
598.75	1669.09
598.94	1767.40
599.14	1765.35
599.33	1728.49
599.52	1791.97
599.71	1693.67
599.91	1732.58
600.10	1775.59
600.29	1761.25
600.48	1777.64
600.68	1808.36
600.87	1710.05
601.06	1722.34
601.26	1791.97
601.45	1771.49
601.64	1779.68
601.83	1824.74
602.03	1714.15
602.22	1681.38
602.41	1888.23
602.60	1951.71
602.80	1654.76
602.99	1775.59
603.18	1744.87
603.37	1765.35
603.57	1804.26
603.76	1894.37
603.95	1890.28
604.14	1757.16
604.34	1712.10
604.53	1796.07
604.72	1714.15
604.91	1816.55
605.10	1861.60
605.30	1757.16
605.49	1832.93
605.68	1804.26
605.87	1816.55
606.07	1714.15
606.26	1703.91
606.45	1738.73
606.64	1726.44
606.84	1753.06
607.03	1765.35
607.22	1769.44
607.41	1683.43
607.60	1675.24
607.80	1834.98
607.99	1718.25
608.18	1703.91
608.37	1857.51
608.56	1695.72
608.76	1798.12
608.95	1877.99
609.14	1705.96
609.33	1800.16
609.52	1806.31
609.72	1812.45
609.91	1736.68
610.10	1783.78
610.29	1742.82
610.48	1751.01
610.68	1812.45
610.87	1757.16
611.06	1761.25
611.25	1730.53
611.44	1808.36
611.63	1763.30
611.83	1849.32
612.02	1679.33
612.21	1798.12
612.40	1652.71
612.59	1699.81
612.79	1703.91
612.98	1753.06
613.17	1906.66
613.36	1759.21
613.55	1806.31
613.74	1718.25
613.93	1693.67
614.13	1722.34
614.32	1759.21
614.51	1814.50
614.70	1693.67
614.89	1677.29
615.08	1806.31
615.28	2041.82
615.47	1710.05
615.66	1738.73
615.85	1761.25
616.04	1769.44
616.23	1757.16
616.42	1693.67
616.62	1761.25
616.81	1763.30
617.00	1658.85
617.19	1736.68
617.38	1730.53
617.57	1804.26
617.76	1847.27
617.95	1783.78
618.15	1814.50
618.34	1767.40
618.53	1734.63
618.72	1808.36
618.91	1898.47
619.10	1830.88
619.29	1779.68
619.48	1699.81
619.68	1726.44
619.87	1746.92
620.06	1751.01
620.25	1724.39
620.44	1783.78
620.63	1742.82
620.82	1755.11
621.01	1742.82
621.20	1789.92
621.39	1757.16
621.59	1683.43
621.78	1816.55
621.97	1730.53
622.16	1781.73
622.35	1814.50
622.54	1755.11
622.73	1816.55
622.92	1722.34
623.11	1740.77
623.30	1746.92
623.49	1789.92
623.68	1689.57
623.88	1816.55
624.07	1757.16
624.26	1724.39
624.45	1732.58
624.64	1757.16
624.83	1751.01
625.02	1787.88
625.21	1722.34
625.40	1734.63
625.59	1865.70
625.78	1789.92
625.97	1875.94
626.16	1830.88
626.35	1767.40
626.54	1665.00
626.74	1783.78
626.93	1675.24
627.12	1685.48
627.31	1787.88
627.50	1818.60
627.69	1818.60
627.88	1630.18
628.07	1779.68
628.26	1599.46
628.45	1644.52
628.64	1689.57
628.83	1738.73
629.02	1771.49
629.21	1794.02
629.40	1783.78
629.59	1718.25
629.78	1787.88
629.97	1716.20
630.16	1796.07
630.35	1679.33
630.54	1679.33
630.73	1697.77
630.92	1683.43
631.11	1740.77
631.30	1652.71
631.49	1804.26
631.68	1718.25
631.87	1759.21
632.06	1652.71
632.25	1806.31
632.44	1722.34
632.63	1722.34
632.82	1673.19
633.01	1718.25
633.20	1783.78
633.39	1697.77
633.58	1585.13
633.77	1759.21
633.96	1824.74
634.15	1759.21
634.34	1802.21
634.53	1753.06
634.72	1744.87
634.91	1669.09
635.10	1751.01
635.29	1783.78
635.48	1757.16
635.67	1720.29
635.86	1673.19
636.05	1826.79
636.24	1767.40
636.43	1771.49
636.62	1722.34
636.81	1617.90
637.00	1753.06
637.19	1765.35
637.38	1673.19
637.57	1759.21
637.76	1722.34
637.95	1710.05
638.14	1714.15
638.33	1691.62
638.52	1730.53
638.71	1669.09
638.89	1658.85
639.08	1810.40
639.27	1740.77
639.46	1740.77
639.65	1814.50
639.84	1826.79
640.03	1773.54
640.22	1695.72
640.41	1884.13
640.60	1701.86
640.79	1798.12
640.98	1644.52
641.17	1796.07
641.36	1800.16
641.55	1695.72
641.74	1701.86
641.92	1593.32
642.11	1714.15
642.30	1701.86
642.49	1691.62
642.68	1693.67
642.87	1720.29
643.06	1763.30
643.25	1654.76
643.44	1779.68
643.63	1695.72
643.82	1767.40
644.00	1662.95
644.19	1748.97
644.38	1642.47
644.57	1773.54
644.76	1726.44
644.95	1738.73
645.14	1695.72
645.33	1677.29
645.52	1763.30
645.71	1669.09
645.89	1669.09
646.08	1728.49
646.27	1742.82
646.46	1859.56
646.65	1675.24
646.84	1716.20
647.03	1716.20
647.22	1757.16
647.40	1746.92
647.59	1730.53
647.78	1660.90
647.97	1796.07
648.16	1642.47
648.35	1865.70
648.54	1816.55
648.73	1689.57
648.91	1744.87
649.10	1732.58
649.29	1714.15
649.48	1744.87
649.67	1714.15
649.86	1742.82
650.05	1611.75
650.23	1798.12
650.42	1621.99
650.61	1826.79
650.80	1751.01
650.99	1859.56
651.18	1826.79
651.36	1724.39
651.55	1708.01
651.74	1837.03
651.93	1699.81
652.12	1683.43
652.31	1718.25
652.49	1710.05
652.68	1695.72
652.87	1771.49
653.06	1710.05
653.25	1822.69
653.44	1718.25
653.62	1789.92
653.81	1738.73
654.00	1693.67
654.19	1767.40
654.38	1839.08
654.56	1734.63
654.75	1722.34
654.94	1751.01
655.13	1693.67
655.32	1693.67
655.51	1705.96
655.69	1734.63
655.88	1771.49
656.07	1685.48
656.26	1771.49
656.45	1681.38
656.63	1712.10
656.82	1767.40
657.01	1751.01
657.20	1671.14
657.38	1775.59
657.57	1712.10
657.76	1665.00
657.95	1755.11
658.14	1720.29
658.32	1718.25
658.51	1652.71
658.70	1695.72
658.89	1783.78
659.08	1724.39
659.26	1886.18
659.45	1738.73
659.64	1720.29
659.83	1660.90
660.01	2021.35
660.20	1697.77
660.39	1773.54
660.58	1611.75
660.76	1718.25
660.95	1718.25
661.14	1693.67
661.33	1669.09
661.51	1662.95
661.70	1742.82
661.89	1746.92
662.08	1648.61
662.26	1693.67
662.45	1673.19
662.64	1822.69
662.83	1816.55
663.01	1695.72
663.20	1767.40
663.39	1820.64
663.58	1722.34
663.76	1640.42
663.95	1865.70
664.14	1761.25
664.32	1781.73
664.51	1673.19
664.70	1654.76
664.89	1730.53
665.07	1726.44
665.26	1783.78
665.45	1632.23
665.64	1812.45
665.82	1755.11
666.01	1839.08
666.20	1753.06
666.38	1771.49
666.57	1861.60
666.76	2230.24
666.95	4698.04
667.13	10913.63
667.32	15718.16
667.51	18155.24
667.69	19463.90
667.88	17829.62
668.07	12498.75
668.25	9615.21
668.44	8312.71
668.63	7341.97
668.81	6985.62
669.00	6254.50
669.19	5840.81
669.38	5195.70
669.56	4566.97
669.75	4067.27
669.94	3438.54
670.12	2852.82
670.31	2584.54
670.50	2267.10
670.68	2004.96
670.87	1914.85
671.06	1767.40
671.24	1800.16
671.43	1865.70
671.62	1753.06
671.80	1757.16
671.99	1691.62
672.18	1837.03
672.36	1757.16
672.55	1751.01
672.74	1703.91
672.92	1755.11
673.11	1785.83
673.29	1736.68
673.48	1736.68
673.67	1751.01
673.85	1791.97
674.04	1722.34
674.23	1693.67
674.41	1857.51
674.60	1628.14
674.79	1628.14
674.97	1691.62
675.16	1783.78
675.34	1834.98
675.53	1683.43
675.72	1736.68
675.90	1791.97
676.09	1763.30
676.28	1779.68
676.46	1607.66
676.65	1738.73
676.83	1734.63
677.02	1773.54
677.21	1814.50
677.39	1724.39
677.58	1744.87
677.77	1687.53
677.95	1712.10
678.14	1722.34
678.32	1740.77
678.51	1630.18
678.70	1873.89
678.88	1673.19
679.07	1796.07
679.25	1708.01
679.44	1703.91
679.63	1714.15
679.81	1814.50
680.00	1841.12
680.18	1892.32
680.37	1804.26
680.55	1730.53
680.74	1667.05
680.93	1613.80
681.11	1716.20
681.30	1716.20
681.48	1822.69
681.67	1744.87
681.85	1697.77
682.04	1742.82
682.23	1785.83
682.41	1812.45
682.60	1673.19
682.78	1718.25
682.97	1675.24
683.15	1775.59
683.34	1693.67
683.53	1748.97
683.71	1611.75
683.90	1798.12
684.08	1751.01
684.27	1722.34
684.45	1738.73
684.64	1626.09
684.82	1683.43
685.01	1781.73
685.19	1826.79
685.38	1853.41
685.57	1697.77
685.75	1656.81
685.94	1667.05
686.12	1656.81
686.31	1691.62
686.49	1736.68
686.68	1576.94
686.86	1804.26
687.05	1730.53
687.23	1892.32
687.42	1689.57
687.60	1632.23
687.79	1759.21
687.97	1763.30
688.16	1832.93
688.34	1689.57
688.53	1570.79
688.71	1728.49
688.90	1783.78
689.08	1699.81
689.27	1687.53
689.45	1822.69
689.64	1746.92
689.82	1724.39
690.01	1746.92
690.19	1751.01
690.38	1767.40
690.56	1794.02
690.75	1632.23
690.93	1652.71
691.12	1611.75
691.30	1726.44
691.49	1673.19
691.67	1691.62
691.86	1818.60
692.04	1656.81
692.23	1660.90
692.41	1703.91
692.60	1824.74
692.78	1765.35
692.97	1697.77
693.15	1724.39
693.34	1824.74
693.52	1839.08
693.71	1755.11
693.89	1730.53
694.08	1695.72
694.26	1820.64
694.44	1810.40
694.63	1753.06
694.81	1736.68
695.00	1638.38
695.18	1798.12
695.37	1816.55
695.55	1751.01
695.74	1693.67
695.92	1714.15
696.10	1828.84
696.29	1665.00
696.47	1728.49
696.66	1654.76
696.84	1599.46
697.03	1779.68
697.21	1886.18
697.40	2324.44
697.58	1808.36
697.76	1712.10
697.95	1730.53
698.13	1642.47
698.32	1687.53
698.50	1710.05
698.68	1767.40
698.87	1662.95
699.05	1796.07
699.24	1675.24
699.42	1742.82
699.61	1751.01
699.79	1621.99
699.97	1740.77
700.16	1701.86
700.34	1632.23
700.53	1603.56
700.71	1837.03
700.89	1847.27
701.08	1763.30
701.26	1701.86
701.45	2090.98
701.63	1685.48
701.81	1650.66
702.00	1703.91
702.18	1738.73
702.37	1718.25
702.55	1769.44
702.73	1800.16
702.92	1654.76
703.10	1751.01
703.28	1658.85
703.47	1714.15
703.65	1781.73
703.84	1777.64
704.02	1658.85
704.20	1773.54
704.39	1644.52
704.57	1783.78
704.75	1798.12
704.94	1789.92
705.12	1781.73
705.30	1814.50
705.49	2334.68
705.67	4614.07
705.86	9682.80
706.04	12906.30
706.22	14829.34
706.41	15744.78
706.59	13983.53
706.77	9758.57
706.96	7374.74
707.14	6713.24
707.32	6049.70
707.51	5650.35
707.69	4984.76
707.87	4341.69
708.06	3555.27
708.24	2914.26
708.42	2443.23
708.61	2310.11
708.79	1912.80
708.97	1851.36
709.16	1865.70
709.34	1826.79
709.52	1761.25
709.71	1767.40
709.89	1761.25
710.07	1701.86
710.26	1681.38
710.44	1730.53
710.62	1783.78
710.80	1714.15
710.99	1779.68
711.17	1789.92
711.35	1740.77
711.54	1724.39
711.72	1771.49
711.90	1675.24
712.09	1740.77
712.27	1697.77
712.45	1716.20
712.63	1716.20
712.82	1718.25
713.00	1755.11
713.18	1830.88
713.37	1818.60
713.55	1781.73
713.73	1802.21
713.91	1800.16
714.10	1697.77
714.28	1689.57
714.46	1765.35
714.65	1783.78
714.83	1722.34
715.01	1708.01
715.19	1777.64
715.38	1751.01
715.56	1738.73
715.74	1679.33
715.92	1576.94
716.11	1812.45
716.29	1611.75
716.47	1738.73
716.65	1710.05
716.84	1605.61
717.02	1714.15
717.20	1685.48
717.38	1718.25
717.57	1767.40
717.75	1783.78
717.93	1751.01
718.11	1789.92
718.30	1671.14
718.48	1695.72
718.66	1859.56
718.84	1773.54
719.03	1710.05
719.21	1638.38
719.39	1812.45
719.57	1734.63
719.75	1798.12
719.94	1665.00
720.12	1734.63
720.30	1826.79
720.48	1787.88
720.67	1689.57
720.85	1656.81
721.03	1708.01
721.21	1570.79
721.39	1847.27
721.58	1804.26
721.76	1708.01
721.94	1796.07
722.12	1746.92
722.30	1851.36
722.49	1638.38
722.67	1710.05
722.85	1724.39
723.03	1654.76
723.21	1701.86
723.40	1716.20
723.58	1738.73
723.76	1726.44
723.94	1732.58
724.12	1755.11
724.30	1765.35
724.49	1798.12
724.67	1671.14
724.85	1814.50
725.03	1583.08
725.21	1789.92
725.40	1738.73
725.58	1683.43
725.76	1773.54
725.94	1751.01
726.12	1740.77
726.30	1652.71
726.49	1773.54
726.67	1669.09
726.85	1703.91
727.03	1808.36
727.21	2246.62
727.39	3012.56
727.57	3807.17
727.76	4218.82
727.94	4444.09
728.12	4540.35
728.30	3684.30
728.48	2985.94
728.66	2807.77
728.84	2592.73
729.03	2351.07
729.21	2254.81
729.39	1953.76
729.57	1888.23
729.75	1757.16
729.93	1882.08
730.11	1744.87
730.30	1744.87
730.48	1701.86
730.66	1787.88
730.84	1810.40
731.02	1751.01
731.20	1734.63
731.38	1671.14
731.56	1699.81
731.74	1648.61
731.93	1681.38
732.11	1787.88
732.29	1742.82
732.47	1777.64
732.65	1714.15
732.83	1859.56
733.01	1785.83
733.19	1732.58
733.37	1853.41
733.56	1796.07
733.74	1677.29
733.92	1812.45
734.10	1716.20
734.28	1751.01
734.46	1589.22
734.64	1710.05
734.82	1673.19
735.00	1658.85
735.18	1718.25
735.36	1697.77
735.54	1683.43
735.73	1816.55
735.91	1708.01
736.09	1820.64
736.27	1765.35
736.45	1804.26
736.63	1583.08
736.81	1716.20
736.99	1808.36
737.17	1816.55
737.35	1728.49
737.53	1701.86
737.71	1736.68
737.89	1724.39
738.07	1624.04
738.25	1640.42
738.43	1603.56
738.61	1685.48
738.80	1560.55
738.98	1634.28
739.16	1679.33
739.34	1687.53
739.52	1859.56
739.70	1734.63
739.88	1691.62
740.06	1755.11
740.24	1578.98
740.42	1796.07
740.60	1695.72
740.78	1685.48
740.96	1675.24
741.14	1779.68
741.32	1746.92
741.50	1697.77
741.68	1894.37
741.86	1845.22
742.04	1689.57
742.22	1683.43
742.40	1710.05
742.58	1794.02
742.76	1710.05
742.94	1818.60
743.12	1648.61
743.30	1685.48
743.48	1777.64
743.66	1599.46
743.84	1730.53
744.02	1716.20
744.20	1697.77
744.38	1572.84
744.56	1755.11
744.74	1724.39
744.92	1771.49
745.10	1847.27
745.28	1708.01
745.46	1828.84
745.64	1712.10
745.82	1748.97
746.00	1816.55
746.18	1726.44
746.36	1662.95
746.54	1720.29
746.72	1783.78
746.90	1710.05
747.08	1884.13
747.26	1718.25
747.44	1867.75
747.62	1787.88
747.80	1783.78
747.98	1787.88
748.15	1718.25
748.33	1779.68
748.51	1705.96
748.69	1726.44
748.87	1648.61
749.05	1654.76
749.23	1660.90
749.41	1716.20
749.59	1660.90
749.77	1757.16
749.95	1677.29
750.13	1640.42
750.31	1755.11
750.49	1701.86
750.67	1804.26
750.85	1798.12
751.03	1714.15
751.20	1863.65
751.38	1681.38
751.56	1746.92
751.74	1665.00
751.92	1673.19
752.10	1619.94
752.28	1744.87
752.46	1722.34
752.64	1730.53
752.82	1724.39
753.00	1734.63
753.18	1695.72
753.35	1695.72
753.53	1689.57
753.71	1646.57
753.89	1724.39
754.07	1640.42
754.25	1746.92
754.43	1734.63
754.61	1615.85
754.79	1712.10
754.97	1740.77
755.14	1787.88
755.32	1646.57
755.50	1665.00
755.68	1665.00
755.86	1630.18
756.04	1644.52
756.22	1697.77
756.40	1767.40
756.57	1818.60
756.75	1695.72
756.93	1808.36
757.11	1796.07
757.29	1646.57
757.47	1667.05
757.65	1654.76
757.82	1636.33
758.00	1662.95
758.18	1644.52
758.36	1724.39
758.54	1910.75
758.72	1656.81
758.90	1757.16
759.07	1763.30
759.25	1671.14
759.43	1847.27
759.61	1585.13
759.79	2252.77
759.97	1771.49
760.15	1613.80
760.32	1710.05
760.50	1724.39
760.68	1804.26
760.86	1716.20
761.04	1724.39
761.22	1753.06
761.39	1697.77
761.57	1744.87
761.75	1748.97
761.93	1744.87
762.11	1656.81
762.28	1751.01
762.46	1621.99
762.64	1755.11
762.82	1650.66
763.00	1744.87
763.18	1757.16
763.35	1708.01
763.53	1791.97
763.71	1746.92
763.89	1751.01
764.07	1808.36
764.24	1656.81
764.42	1787.88
764.60	1742.82
764.78	1718.25
764.96	1757.16
765.13	1808.36
765.31	1738.73
765.49	1740.77
765.67	1626.09
765.84	1665.00
766.02	1677.29
766.20	1648.61
766.38	1755.11
766.56	1740.77
766.73	1736.68
766.91	1726.44
767.09	1738.73
767.27	1810.40
767.44	1673.19
767.62	1742.82
767.80	1710.05
767.98	1662.95
768.15	1689.57
768.33	1800.16
768.51	1832.93
768.69	1697.77
768.87	1703.91
769.04	1748.97
769.22	1884.13
769.40	1763.30
769.58	1875.94
769.75	1738.73
769.93	1789.92
770.11	1691.62
770.28	1654.76
770.46	1814.50
770.64	1779.68
770.82	1701.86
770.99	1677.29
771.17	1638.38
771.35	1710.05
771.53	1759.21
771.70	1708.01
771.88	1767.40
772.06	1671.14
772.23	1695.72
772.41	1728.49
772.59	1693.67
772.77	1671.14
772.94	1662.95
773.12	1757.16
773.30	1726.44
773.47	1703.91
773.65	1705.96
773.83	1806.31
774.01	1701.86
774.18	1527.78
774.36	1701.86
774.54	1691.62
774.71	1775.59
774.89	1681.38
775.07	1617.90
775.24	1705.96
775.42	1665.00
775.60	1927.14
775.78	1677.29
775.95	1632.23
776.13	1603.56
776.31	1656.81
776.48	1712.10
776.66	1775.59
776.84	1615.85
777.01	1708.01
777.19	1601.51
777.37	1689.57
777.54	1779.68
777.72	1816.55
777.90	1761.25
778.07	1714.15
778.25	1912.80
778.43	1789.92
778.60	1693.67
778.78	1742.82
778.96	1886.18
779.13	1597.42
779.31	1773.54
779.49	1769.44
779.66	1720.29
779.84	1658.85
780.01	1669.09
780.19	1638.38
780.37	1697.77
780.54	1699.81
780.72	1673.19
780.90	1675.24
781.07	1681.38
781.25	1687.53
781.43	1734.63
781.60	1691.62
781.78	1810.40
781.95	1734.63
782.13	1746.92
782.31	1703.91
782.48	1611.75
782.66	1794.02
782.83	1808.36
783.01	1769.44
783.19	1740.77
783.36	1697.77
783.54	1589.22
783.72	1746.92
783.89	1632.23
784.07	1689.57
784.24	1794.02
784.42	1796.07
784.60	1740.77
784.77	1779.68
784.95	1576.94
785.12	1734.63
785.30	1744.87
785.47	1683.43
785.65	1650.66
785.83	1755.11
786.00	1732.58
786.18	1697.77
786.35	1624.04
786.53	1699.81
786.71	1726.44
786.88	1791.97
787.06	1714.15
787.23	1708.01
787.41	1658.85
787.58	1761.25
787.76	1619.94
787.94	1720.29
788.11	1681.38
788.29	1705.96
788.46	1650.66
788.64	1718.25
788.81	1716.20
788.99	1683.43
789.16	1644.52
789.34	1738.73
789.52	1685.48
789.69	1718.25
789.87	1619.94
790.04	1691.62
790.22	1761.25
790.39	1837.03
790.57	1755.11
790.74	1701.86
790.92	1736.68
791.09	1578.98
791.27	1679.33
791.44	1816.55
791.62	1740.77
791.79	1720.29
791.97	1677.29
792.15	1900.52
792.32	1781.73
792.50	1794.02
792.67	1820.64
792.85	1890.28
793.02	1697.77
793.20	1638.38
793.37	1640.42
793.55	1740.77
793.72	1726.44
793.90	1705.96
794.07	1689.57
794.25	1658.85
794.42	1718.25
794.60	1757.16
794.77	1705.96
794.95	1681.38
795.12	1785.83
795.30	1697.77
795.47	1576.94
795.65	1918.95
795.82	1751.01
796.00	1632.23
796.17	1718.25
796.34	1638.38
796.52	1828.84
796.69	1738.73
796.87	1748.97
797.04	1767.40
797.22	1759.21
797.39	1748.97
797.57	1751.01
797.74	1720.29
797.92	1708.01
798.09	1650.66
798.27	1726.44
798.44	1746.92
798.62	1714.15
798.79	1742.82
798.96	1697.77
799.14	1765.35
799.31	1871.84
799.49	1691.62
799.66	1681.38
799.84	1765.35
800.01	1617.90
800.19	1787.88
800.36	1646.57
800.53	1714.15
800.71	1826.79
800.88	1802.21
801.06	1656.81
801.23	1677.29
801.41	1796.07
801.58	1732.58
801.75	1683.43
801.93	1705.96
802.10	1724.39
802.28	1703.91
802.45	1662.95
802.63	1755.11
802.80	1724.39
802.97	1689.57
803.15	1687.53
803.32	1660.90
803.50	1695.72
803.67	1601.51
803.84	1703.91
804.02	1746.92
804.19	1660.90
804.37	1619.94
804.54	1640.42
804.71	1697.77
804.89	1693.67
805.06	1667.05
805.24	1660.90
805.41	1665.00
805.58	1640.42
805.76	1861.60
805.93	1726.44
806.10	1783.78
806.28	1796.07
806.45	1710.05
806.63	1693.67
806.80	1767.40
806.97	1736.68
807.15	1693.67
807.32	1726.44
807.49	1765.35
807.67	1636.33
807.84	1746.92
808.01	1617.90
808.19	1877.99
808.36	1873.89
808.54	1638.38
808.71	1597.42
808.88	1726.44
809.06	1738.73
809.23	1755.11
809.40	1630.18
809.58	1773.54
809.75	1732.58
809.92	1642.47
810.10	1814.50
810.27	1763.30
810.44	1718.25
810.62	1746.92
810.79	1718.25
810.96	1734.63
811.14	1671.14
811.31	1730.53
811.48	1769.44
811.66	1683.43
811.83	1812.45
812.00	1714.15
812.18	1708.01
812.35	1787.88
812.52	1732.58
812.69	1675.24
812.87	1728.49
813.04	1642.47
813.21	1718.25
813.39	1724.39
813.56	1648.61
813.73	1853.41
813.91	1642.47
814.08	1699.81
814.25	1753.06
814.42	1628.14
814.60	1710.05
814.77	1748.97
814.94	1726.44
815.12	1636.33
815.29	1748.97
815.46	1660.90
815.63	1794.02
815.81	1697.77
815.98	1691.62
816.15	1740.77
816.33	1761.25
816.50	1705.96
816.67	1693.67
816.84	1732.58
817.02	1626.09
817.19	1726.44
817.36	1808.36
817.53	1828.84
817.71	1673.19
817.88	1763.30
818.05	1615.85
818.22	1726.44
818.40	1742.82
818.57	1683.43
818.74	1693.67
818.91	1783.78
819.09	1798.12
819.26	1738.73
819.43	1632.23
819.60	1699.81
819.78	1767.40
819.95	1796.07
820.12	1695.72
820.29	1814.50
820.47	1800.16
820.64	1650.66
820.81	1662.95
820.98	1738.73
821.15	1628.14
821.33	1761.25
821.50	1601.51
821.67	1736.68
821.84	1673.19
822.02	1787.88
822.19	1761.25
822.36	1669.09
822.53	1652.71
822.70	1685.48
822.88	1662.95
823.05	1853.41
823.22	1732.58
823.39	1701.86
823.56	1691.62
823.74	1910.75
823.91	1662.95
824.08	1736.68
824.25	1630.18
824.42	1816.55
824.60	1681.38
824.77	1746.92
824.94	1693.67
825.11	1761.25
825.28	1552.36
825.45	1673.19
825.63	1832.93
825.80	1689.57
825.97	1644.52
826.14	1787.88
826.31	1650.66
826.48	1730.53
826.66	1718.25
826.83	1765.35
827.00	1753.06
827.17	1669.09
827.34	1687.53
827.51	1642.47
827.69	1779.68
827.86	1675.24
828.03	1681.38
828.20	1675.24
828.37	1708.01
828.54	1765.35
828.71	1703.91
828.89	1818.60
829.06	1720.29
829.23	1759.21
829.40	1716.20
829.57	1626.09
829.74	1726.44
829.91	1679.33
830.09	1681.38
830.26	1705.96
830.43	1759.21
830.60	1689.57
830.77	1800.16
830.94	1640.42
831.11	1753.06
831.28	1658.85
831.46	1742.82
831.63	1665.00
831.80	1695.72
831.97	1650.66
832.14	1691.62
832.31	1744.87
832.48	1699.81
832.65	1798.12
832.82	1751.01
832.99	1783.78
833.17	1607.66
833.34	1742.82
833.51	1673.19
833.68	1619.94
833.85	1714.15
834.02	1636.33
834.19	1724.39
834.36	1611.75
834.53	1705.96
834.70	1824.74
834.87	1810.40
835.04	1701.86
835.22	1781.73
835.39	1681.38
835.56	1673.19
835.73	1742.82
835.90	1710.05
836.07	1691.62
836.24	1820.64
836.41	1677.29
836.58	1624.04
836.75	1687.53
836.92	1656.81
837.09	1699.81
837.26	1740.77
837.43	1691.62
837.60	1726.44
837.77	1693.67
837.94	1722.34
838.12	1847.27
838.29	1746.92
838.46	1673.19
838.63	1585.13
838.80	1812.45
838.97	1679.33
839.14	1728.49
839.31	1689.57
839.48	1806.31
839.65	1638.38
839.82	1714.15
839.99	1832.93
840.16	1742.82
840.33	1718.25
840.50	1779.68
840.67	1621.99
840.84	1615.85
841.01	1685.48
841.18	1718.25
841.35	1705.96
841.52	1759.21
841.69	1845.22
841.86	1667.05
842.03	1787.88
842.20	1710.05
842.37	1693.67
842.54	1767.40
842.71	1728.49
842.88	1648.61
843.05	1746.92
843.22	1720.29
843.39	1755.11
843.56	1677.29
843.73	1734.63
843.90	1730.53
844.07	1755.11
844.24	1794.02
844.41	1716.20
844.58	1712.10
844.75	1814.50
844.92	1787.88
845.09	1732.58
845.26	1675.24
845.43	1728.49
845.60	1662.95
845.77	1798.12
845.94	1718.25
846.10	1730.53
846.27	1669.09
846.44	1665.00
846.61	1740.77
846.78	1769.44
846.95	1734.63
847.12	1683.43
847.29	1757.16
847.46	1642.47
847.63	1712.10
847.80	1650.66
847.97	1613.80
848.14	1871.84
848.31	1667.05
848.48	1609.70
848.65	1755.11
848.82	1634.28
848.98	1914.85
849.15	1730.53
849.32	1763.30
849.49	1708.01
849.66	1646.57
849.83	1722.34
850.00	1646.57
850.17	1744.87
850.34	1611.75
850.51	1720.29
850.68	1701.86
850.85	1834.98
851.01	1695.72
851.18	1718.25
851.35	1683.43
851.52	1732.58
851.69	1800.16
851.86	1597.42
852.03	1669.09
852.20	1732.58
852.37	1814.50
852.53	1632.23
852.70	1636.33
852.87	1708.01
853.04	1665.00
853.21	1714.15
853.38	1808.36
853.55	1800.16
853.72	1626.09
853.89	1665.00
854.05	1714.15
854.22	1710.05
854.39	1697.77
854.56	1753.06
854.73	1673.19
854.90	1644.52
855.07	1728.49
855.23	1683.43
855.40	1677.29
855.57	1677.29
855.74	1673.19
855.91	1916.90
856.08	1636.33
856.25	1615.85
856.41	1726.44
856.58	1730.53
856.75	1621.99
856.92	1720.29
857.09	1656.81
857.26	1628.14
857.42	1718.25
857.59	1740.77
857.76	1705.96
857.93	1671.14
858.10	1662.95
858.27	1667.05
858.43	1685.48
858.60	1671.14
858.77	1607.66
858.94	1703.91
859.11	1802.21
859.27	1703.91
859.44	1728.49
859.61	1777.64
859.78	1800.16
859.95	1751.01
860.12	1714.15
860.28	1763.30
860.45	1810.40
860.62	1691.62
860.79	1689.57
860.95	1687.53
861.12	1697.77
861.29	1726.44
861.46	1597.42
861.63	1660.90
861.79	1656.81
861.96	1617.90
862.13	1730.53
862.30	1742.82
862.47	1697.77
862.63	1658.85
862.80	1808.36
862.97	1824.74
863.14	1705.96
863.30	1767.40
863.47	1693.67
863.64	1738.73
863.81	1753.06
863.97	1697.77
864.14	1720.29
864.31	1744.87
864.48	1710.05
864.65	1716.20
864.81	1738.73
864.98	1744.87
865.15	1730.53
865.32	1755.11
865.48	1724.39
865.65	1830.88
865.82	1714.15
865.98	1654.76
866.15	1783.78
866.32	1728.49
866.49	1761.25
866.65	1777.64
866.82	1656.81
866.99	1685.48
867.16	1730.53
867.32	1658.85
867.49	1669.09
867.66	1669.09
867.83	1640.42
867.99	1681.38
868.16	1679.33
868.33	1619.94
868.49	1718.25
868.66	1708.01
868.83	1734.63
868.99	1710.05
869.16	1814.50
869.33	1785.83
869.50	1769.44
869.66	1703.91
869.83	1804.26
870.00	1652.71
870.16	1767.40
870.33	1794.02
870.50	1708.01
870.66	1697.77
870.83	1834.98
871.00	1720.29
871.17	1751.01
871.33	1751.01
871.50	1654.76
871.67	1687.53
871.83	1757.16
872.00	1884.13
872.17	1685.48
872.33	1740.77
872.50	1757.16
872.67	1720.29
872.83	1699.81
873.00	1759.21
873.17	1726.44
873.33	1740.77
873.50	1753.06
873.67	1767.40
873.83	1621.99
874.00	1726.44
874.16	1828.84
874.33	1808.36
874.50	1683.43
874.66	1765.35
874.83	1671.14
875.00	1767.40
875.16	1796.07
875.33	1789.92
875.50	1648.61
875.66	1779.68
875.83	1751.01
875.99	1730.53
876.16	1689.57
876.33	1673.19
876.49	1759.21
876.66	1693.67
876.83	1646.57
876.99	1683.43
877.16	1712.10
877.32	1689.57
877.49	1681.38
877.66	1697.77
877.82	1830.88
877.99	1732.58
878.15	1699.81
878.32	1771.49
878.49	1734.63
878.65	1665.00
878.82	1779.68
878.98	1718.25
879.15	1849.32
879.32	1746.92
879.48	1640.42
879.65	1767.40
879.81	1669.09
879.98	1714.15
880.15	1654.76
880.31	1615.85
880.48	1648.61
880.64	1830.88
880.81	1736.68
880.97	1824.74
881.14	1777.64
881.31	1722.34
881.47	1910.75
881.64	1699.81
881.80	1638.38
881.97	1800.16
882.13	1771.49
882.30	1619.94
882.47	1689.57
882.63	1712.10
882.80	1658.85
882.96	1710.05
883.13	1767.40
883.29	1742.82
883.46	1765.35
883.62	1904.61
883.79	1722.34
883.95	1753.06
884.12	1710.05
884.29	1771.49
884.45	1796.07
884.62	1773.54
884.78	1689.57
884.95	1771.49
885.11	1654.76
885.28	1763.30
885.44	1718.25
885.61	1851.36
885.77	1826.79
885.94	1775.59
886.10	1716.20
886.27	1771.49
886.43	1828.84
886.60	1755.11
886.76	1771.49
886.93	1640.42
887.09	1781.73
887.26	1636.33
887.42	1716.20
887.59	1712.10
887.75	1863.65
887.92	1765.35
888.08	1783.78
888.25	1779.68
888.41	1765.35
888.58	1673.19
888.74	1650.66
888.91	1673.19
>>>>>End Processed Spectral Data<<<<<
