SpectraSuite Data File
++++++++++++++++++++++++++++++++++++
Date: Mon Jun 06 12:34:17 CEST 2016
User: root
Dark Spectrum Present: No
Reference Spectrum Present: No
Number of Sampled Component Spectra: 1
Spectrometers: USB4C02835
Integration Time (usec): 100000 (USB4C02835)
Spectra Averaged: 1 (USB4C02835)
Boxcar Smoothing: 0 (USB4C02835)
Correct for Electrical Dark: No (USB4C02835)
Strobe/Lamp Enabled: No (USB4C02835)
Correct for Detector Non-linearity: No (USB4C02835)
Correct for Stray Light: No (USB4C02835)
Number of Pixels in Processed Spectrum: 3648
>>>>>Begin Processed Spectral Data<<<<<
177.47	1456.11
177.69	1456.11
177.91	1456.11
178.13	1437.67
178.36	1421.29
178.58	1591.27
178.80	1722.34
179.02	1617.90
179.24	1636.33
179.46	1771.49
179.68	1787.88
179.90	1652.71
180.13	1665.00
180.35	1665.00
180.57	1650.66
180.79	1703.91
181.01	1648.61
181.23	1810.40
181.45	1763.30
181.67	1691.62
181.90	1777.64
182.12	1617.90
182.34	1660.90
182.56	1736.68
182.78	1656.81
183.00	1677.29
183.22	1718.25
183.44	1648.61
183.66	1828.84
183.89	1822.69
184.11	1742.82
184.33	1648.61
184.55	1730.53
184.77	1669.09
184.99	1789.92
185.21	1605.61
185.43	1814.50
185.65	1687.53
185.87	1712.10
186.10	1830.88
186.32	1910.75
186.54	1744.87
186.76	1767.40
186.98	1714.15
187.20	1728.49
187.42	1691.62
187.64	1675.24
187.86	1718.25
188.08	1705.96
188.30	1716.20
188.52	1607.66
188.75	1789.92
188.97	1771.49
189.19	1589.22
189.41	1703.91
189.63	1695.72
189.85	1683.43
190.07	1597.42
190.29	1542.12
190.51	1722.34
190.73	1599.46
190.95	1783.78
191.17	1644.52
191.39	1611.75
191.61	1640.42
191.84	1574.89
192.06	1621.99
192.28	1554.41
192.50	1914.85
192.72	1746.92
192.94	1654.76
193.16	1730.53
193.38	1701.86
193.60	1652.71
193.82	1636.33
194.04	1695.72
194.26	1703.91
194.48	1683.43
194.70	1595.37
194.92	1714.15
195.14	1751.01
195.36	1656.81
195.58	1732.58
195.80	1718.25
196.02	1691.62
196.24	1693.67
196.46	1617.90
196.69	1671.14
196.91	1810.40
197.13	1701.86
197.35	1562.60
197.57	1753.06
197.79	1705.96
198.01	1746.92
198.23	1699.81
198.45	1796.07
198.67	1667.05
198.89	1724.39
199.11	1753.06
199.33	1763.30
199.55	1624.04
199.77	1673.19
199.99	1744.87
200.21	1695.72
200.43	1763.30
200.65	1685.48
200.87	1642.47
201.09	1679.33
201.31	1701.86
201.53	1779.68
201.75	1722.34
201.97	1714.15
202.19	1705.96
202.41	1765.35
202.63	1839.08
202.85	1654.76
203.07	1732.58
203.29	1724.39
203.51	1578.98
203.73	1626.09
203.95	1789.92
204.17	1763.30
204.39	1800.16
204.61	1742.82
204.83	1689.57
205.05	1726.44
205.27	1761.25
205.49	1869.80
205.71	1705.96
205.93	1628.14
206.15	1585.13
206.37	1677.29
206.59	1695.72
206.81	1593.32
207.03	1628.14
207.25	1652.71
207.47	1728.49
207.69	1654.76
207.91	1718.25
208.13	1761.25
208.34	1660.90
208.56	1613.80
208.78	1738.73
209.00	1708.01
209.22	1634.28
209.44	1728.49
209.66	1705.96
209.88	1665.00
210.10	1656.81
210.32	1710.05
210.54	1798.12
210.76	1710.05
210.98	1712.10
211.20	1566.70
211.42	1648.61
211.64	1753.06
211.86	1701.86
212.08	1703.91
212.30	1689.57
212.52	1679.33
212.74	1693.67
212.96	1771.49
213.17	1847.27
213.39	1732.58
213.61	1765.35
213.83	1746.92
214.05	1667.05
214.27	1730.53
214.49	1642.47
214.71	1630.18
214.93	1783.78
215.15	1683.43
215.37	1800.16
215.59	1611.75
215.81	1751.01
216.03	1769.44
216.24	1667.05
216.46	1751.01
216.68	1683.43
216.90	1791.97
217.12	1716.20
217.34	1712.10
217.56	1789.92
217.78	1732.58
218.00	1693.67
218.22	1716.20
218.44	1783.78
218.66	1613.80
218.87	1861.60
219.09	1638.38
219.31	1701.86
219.53	1681.38
219.75	1667.05
219.97	1619.94
220.19	1710.05
220.41	1697.77
220.63	1789.92
220.85	1730.53
221.06	1646.57
221.28	1777.64
221.50	1757.16
221.72	1757.16
221.94	1669.09
222.16	1630.18
222.38	1761.25
222.60	1708.01
222.82	1705.96
223.03	1714.15
223.25	1701.86
223.47	1703.91
223.69	1746.92
223.91	1708.01
224.13	1691.62
224.35	1652.71
224.57	1701.86
224.78	1734.63
225.00	1624.04
225.22	1665.00
225.44	1640.42
225.66	1685.48
225.88	1611.75
226.10	1789.92
226.32	1697.77
226.53	1802.21
226.75	1708.01
226.97	1617.90
227.19	1787.88
227.41	1646.57
227.63	1640.42
227.85	1632.23
228.06	1779.68
228.28	1689.57
228.50	1751.01
228.72	1634.28
228.94	1685.48
229.16	1703.91
229.37	1642.47
229.59	1642.47
229.81	1771.49
230.03	1677.29
230.25	1630.18
230.47	1673.19
230.69	1675.24
230.90	1759.21
231.12	1701.86
231.34	1796.07
231.56	1671.14
231.78	1632.23
232.00	1634.28
232.21	1718.25
232.43	1611.75
232.65	1560.55
232.87	1697.77
233.09	1595.37
233.30	1640.42
233.52	1675.24
233.74	1691.62
233.96	1730.53
234.18	1615.85
234.40	1671.14
234.61	1820.64
234.83	1658.85
235.05	1658.85
235.27	1837.03
235.49	1759.21
235.70	1658.85
235.92	1736.68
236.14	1685.48
236.36	1800.16
236.58	1601.51
236.79	1732.58
237.01	1714.15
237.23	1701.86
237.45	1744.87
237.67	1681.38
237.88	1728.49
238.10	1800.16
238.32	1646.57
238.54	1693.67
238.76	1687.53
238.97	1576.94
239.19	1679.33
239.41	1675.24
239.63	1796.07
239.85	1777.64
240.06	1748.97
240.28	1595.37
240.50	1751.01
240.72	1726.44
240.93	1722.34
241.15	1789.92
241.37	1759.21
241.59	1775.59
241.81	1685.48
242.02	1708.01
242.24	1693.67
242.46	1732.58
242.68	1681.38
242.89	1736.68
243.11	1777.64
243.33	1714.15
243.55	1714.15
243.76	1714.15
243.98	1591.27
244.20	1662.95
244.42	1697.77
244.64	1671.14
244.85	1581.03
245.07	1621.99
245.29	1767.40
245.51	1714.15
245.72	1724.39
245.94	1789.92
246.16	1669.09
246.38	1714.15
246.59	1730.53
246.81	1665.00
247.03	1748.97
247.24	1626.09
247.46	1566.70
247.68	1763.30
247.90	1646.57
248.11	1683.43
248.33	1718.25
248.55	1695.72
248.77	1675.24
248.98	1812.45
249.20	1705.96
249.42	1667.05
249.64	1728.49
249.85	1656.81
250.07	1667.05
250.29	1640.42
250.50	1767.40
250.72	1617.90
250.94	1716.20
251.16	1841.12
251.37	1798.12
251.59	1757.16
251.81	1705.96
252.02	1808.36
252.24	1669.09
252.46	1800.16
252.68	1644.52
252.89	1677.29
253.11	1650.66
253.33	1820.64
253.54	1806.31
253.76	1632.23
253.98	1716.20
254.20	1669.09
254.41	1609.70
254.63	1603.56
254.85	1695.72
255.06	1705.96
255.28	1751.01
255.50	1751.01
255.71	1646.57
255.93	1615.85
256.15	1724.39
256.36	1722.34
256.58	1646.57
256.80	1740.77
257.02	1644.52
257.23	1621.99
257.45	1689.57
257.67	1773.54
257.88	1673.19
258.10	1734.63
258.32	1630.18
258.53	1746.92
258.75	1779.68
258.97	1732.58
259.18	1746.92
259.40	1734.63
259.62	1818.60
259.83	1775.59
260.05	1740.77
260.27	1918.95
260.48	1695.72
260.70	1722.34
260.92	1726.44
261.13	1675.24
261.35	1755.11
261.57	1683.43
261.78	1566.70
262.00	1665.00
262.22	1644.52
262.43	1693.67
262.65	1628.14
262.86	1681.38
263.08	1886.18
263.30	1730.53
263.51	1650.66
263.73	1673.19
263.95	1757.16
264.16	1611.75
264.38	1732.58
264.60	1734.63
264.81	1736.68
265.03	1720.29
265.25	1773.54
265.46	1667.05
265.68	1769.44
265.89	1722.34
266.11	1583.08
266.33	1732.58
266.54	1789.92
266.76	1824.74
266.98	1656.81
267.19	1705.96
267.41	1753.06
267.62	1662.95
267.84	1587.18
268.06	1779.68
268.27	1751.01
268.49	1634.28
268.70	1726.44
268.92	1771.49
269.14	1656.81
269.35	1630.18
269.57	1734.63
269.79	1732.58
270.00	1624.04
270.22	1837.03
270.43	1687.53
270.65	1638.38
270.87	1695.72
271.08	1708.01
271.30	1808.36
271.51	1665.00
271.73	1726.44
271.95	1841.12
272.16	1675.24
272.38	1685.48
272.59	1673.19
272.81	1714.15
273.02	1652.71
273.24	1746.92
273.46	1726.44
273.67	1636.33
273.89	1712.10
274.10	1630.18
274.32	1726.44
274.54	1755.11
274.75	1701.86
274.97	1738.73
275.18	1742.82
275.40	1710.05
275.61	1671.14
275.83	1732.58
276.05	1630.18
276.26	1650.66
276.48	1675.24
276.69	1665.00
276.91	1642.47
277.12	1908.71
277.34	1787.88
277.55	1736.68
277.77	1636.33
277.99	1640.42
278.20	1701.86
278.42	1665.00
278.63	1624.04
278.85	1697.77
279.06	1624.04
279.28	1783.78
279.49	1695.72
279.71	1765.35
279.93	1658.85
280.14	1648.61
280.36	1642.47
280.57	1757.16
280.79	1634.28
281.00	1716.20
281.22	1669.09
281.43	1775.59
281.65	1544.17
281.86	1630.18
282.08	1705.96
282.29	1783.78
282.51	1636.33
282.73	1656.81
282.94	1626.09
283.16	1730.53
283.37	1734.63
283.59	1716.20
283.80	1767.40
284.02	1728.49
284.23	1693.67
284.45	1699.81
284.66	1746.92
284.88	1691.62
285.09	1730.53
285.31	1746.92
285.52	1603.56
285.74	1615.85
285.95	1681.38
286.17	1638.38
286.38	1689.57
286.60	1689.57
286.81	1595.37
287.03	1689.57
287.24	1634.28
287.46	1757.16
287.67	1699.81
287.89	1796.07
288.10	1705.96
288.32	1658.85
288.53	1724.39
288.75	1652.71
288.96	1812.45
289.18	1675.24
289.39	1689.57
289.61	1775.59
289.82	1744.87
290.04	1808.36
290.25	1703.91
290.47	1705.96
290.68	1646.57
290.90	1800.16
291.11	1517.54
291.33	1746.92
291.54	1607.66
291.76	1697.77
291.97	1685.48
292.18	1794.02
292.40	1648.61
292.61	1708.01
292.83	1894.37
293.04	1665.00
293.26	1673.19
293.47	1689.57
293.69	1554.41
293.90	1744.87
294.12	1761.25
294.33	1609.70
294.55	1732.58
294.76	1691.62
294.97	1771.49
295.19	1791.97
295.40	1667.05
295.62	1685.48
295.83	1771.49
296.05	1535.98
296.26	1822.69
296.48	1705.96
296.69	1734.63
296.90	1705.96
297.12	1710.05
297.33	1742.82
297.55	1701.86
297.76	1705.96
297.98	1689.57
298.19	1773.54
298.41	1701.86
298.62	1662.95
298.83	1753.06
299.05	1716.20
299.26	1634.28
299.48	1621.99
299.69	1779.68
299.90	1703.91
300.12	1757.16
300.33	1740.77
300.55	1613.80
300.76	1720.29
300.98	1683.43
301.19	1703.91
301.40	1624.04
301.62	1617.90
301.83	1779.68
302.05	1699.81
302.26	1740.77
302.47	1726.44
302.69	1617.90
302.90	1636.33
303.12	1595.37
303.33	1724.39
303.54	1777.64
303.76	1658.85
303.97	1681.38
304.19	1789.92
304.40	1675.24
304.61	1718.25
304.83	1755.11
305.04	1742.82
305.26	1691.62
305.47	1650.66
305.68	1693.67
305.90	1646.57
306.11	1746.92
306.33	1603.56
306.54	1640.42
306.75	1652.71
306.97	1605.61
307.18	1617.90
307.39	1677.29
307.61	1755.11
307.82	1673.19
308.04	1767.40
308.25	1667.05
308.46	1767.40
308.68	1685.48
308.89	1697.77
309.10	1773.54
309.32	1673.19
309.53	1773.54
309.74	1746.92
309.96	1675.24
310.17	1703.91
310.39	1697.77
310.60	1703.91
310.81	1685.48
311.03	1640.42
311.24	1675.24
311.45	1714.15
311.67	1834.98
311.88	1677.29
312.09	1697.77
312.31	1648.61
312.52	1673.19
312.73	1695.72
312.95	1652.71
313.16	1640.42
313.37	1710.05
313.59	1791.97
313.80	1705.96
314.01	1820.64
314.23	1677.29
314.44	1640.42
314.65	1615.85
314.87	1714.15
315.08	1687.53
315.29	1656.81
315.51	1701.86
315.72	1642.47
315.93	1761.25
316.15	1767.40
316.36	1624.04
316.57	1714.15
316.79	1726.44
317.00	1693.67
317.21	1705.96
317.43	1640.42
317.64	1728.49
317.85	1662.95
318.07	1669.09
318.28	1656.81
318.49	1744.87
318.70	1914.85
318.92	1816.55
319.13	1843.17
319.34	1804.26
319.56	1775.59
319.77	1794.02
319.98	1794.02
320.20	1763.30
320.41	1742.82
320.62	1767.40
320.83	1699.81
321.05	1748.97
321.26	1730.53
321.47	1673.19
321.69	1804.26
321.90	1613.80
322.11	1671.14
322.32	1710.05
322.54	1798.12
322.75	1697.77
322.96	1908.71
323.18	1636.33
323.39	1570.79
323.60	1720.29
323.81	1796.07
324.03	1626.09
324.24	1656.81
324.45	1689.57
324.66	1689.57
324.88	1734.63
325.09	1757.16
325.30	1687.53
325.52	1748.97
325.73	1683.43
325.94	1587.18
326.15	1632.23
326.37	1669.09
326.58	1705.96
326.79	1757.16
327.00	1683.43
327.22	1718.25
327.43	1701.86
327.64	1673.19
327.85	1808.36
328.07	1761.25
328.28	1757.16
328.49	1646.57
328.70	1695.72
328.92	1675.24
329.13	1685.48
329.34	1671.14
329.55	1808.36
329.76	1642.47
329.98	1648.61
330.19	1740.77
330.40	1767.40
330.61	1660.90
330.83	1789.92
331.04	1617.90
331.25	1759.21
331.46	1665.00
331.68	1603.56
331.89	1800.16
332.10	1705.96
332.31	1632.23
332.52	1648.61
332.74	1796.07
332.95	1677.29
333.16	1656.81
333.37	1724.39
333.58	1638.38
333.80	1761.25
334.01	1490.92
334.22	1669.09
334.43	1738.73
334.64	1710.05
334.86	1597.42
335.07	1587.18
335.28	1775.59
335.49	1687.53
335.70	1687.53
335.92	1718.25
336.13	1865.70
336.34	1714.15
336.55	1759.21
336.76	1748.97
336.98	1593.32
337.19	1654.76
337.40	1804.26
337.61	1849.32
337.82	1675.24
338.04	1716.20
338.25	1642.47
338.46	1660.90
338.67	1665.00
338.88	1632.23
339.09	1691.62
339.31	1677.29
339.52	1562.60
339.73	1533.93
339.94	1652.71
340.15	1699.81
340.36	1671.14
340.58	1673.19
340.79	1693.67
341.00	1665.00
341.21	1570.79
341.42	1714.15
341.63	1628.14
341.85	1744.87
342.06	1665.00
342.27	1662.95
342.48	1687.53
342.69	1581.03
342.90	1734.63
343.12	1720.29
343.33	1699.81
343.54	1716.20
343.75	1777.64
343.96	1710.05
344.17	1718.25
344.38	1615.85
344.60	1609.70
344.81	1669.09
345.02	1722.34
345.23	1769.44
345.44	1800.16
345.65	1759.21
345.86	1771.49
346.07	1757.16
346.29	1685.48
346.50	1757.16
346.71	1681.38
346.92	1767.40
347.13	1808.36
347.34	1679.33
347.55	1744.87
347.76	1748.97
347.98	1654.76
348.19	1617.90
348.40	1828.84
348.61	1724.39
348.82	1751.01
349.03	1701.86
349.24	1650.66
349.45	1804.26
349.66	1564.65
349.88	1703.91
350.09	1660.90
350.30	1794.02
350.51	1783.78
350.72	1705.96
350.93	1621.99
351.14	1615.85
351.35	1724.39
351.56	1753.06
351.77	1669.09
351.99	1714.15
352.20	1789.92
352.41	1740.77
352.62	1538.02
352.83	1726.44
353.04	1679.33
353.25	1656.81
353.46	1806.31
353.67	1804.26
353.88	1640.42
354.09	1687.53
354.30	1648.61
354.52	1685.48
354.73	1638.38
354.94	1656.81
355.15	1769.44
355.36	1771.49
355.57	1662.95
355.78	1734.63
355.99	1697.77
356.20	1660.90
356.41	1746.92
356.62	1716.20
356.83	1748.97
357.04	1740.77
357.25	1619.94
357.46	1662.95
357.68	1687.53
357.89	1703.91
358.10	1660.90
358.31	1691.62
358.52	1658.85
358.73	1642.47
358.94	1650.66
359.15	1636.33
359.36	1708.01
359.57	1697.77
359.78	1710.05
359.99	1738.73
360.20	1673.19
360.41	1697.77
360.62	1802.21
360.83	1693.67
361.04	1718.25
361.25	1746.92
361.46	1720.29
361.67	1730.53
361.88	1671.14
362.09	1718.25
362.30	1699.81
362.51	1689.57
362.72	1701.86
362.93	1705.96
363.14	1677.29
363.35	1757.16
363.56	1652.71
363.78	1689.57
363.99	1779.68
364.20	1634.28
364.41	1691.62
364.62	1863.65
364.83	1726.44
365.04	1640.42
365.25	1703.91
365.46	1710.05
365.67	1599.46
365.88	1613.80
366.09	1675.24
366.30	1665.00
366.51	1693.67
366.72	1636.33
366.93	1722.34
367.14	1738.73
367.35	1685.48
367.56	1708.01
367.77	1794.02
367.98	1710.05
368.18	1658.85
368.39	1705.96
368.60	1669.09
368.81	1671.14
369.02	1619.94
369.23	1626.09
369.44	1650.66
369.65	1630.18
369.86	1738.73
370.07	1834.98
370.28	1650.66
370.49	1708.01
370.70	1710.05
370.91	1685.48
371.12	1720.29
371.33	1724.39
371.54	1695.72
371.75	1779.68
371.96	1619.94
372.17	1710.05
372.38	1646.57
372.59	1763.30
372.80	1710.05
373.01	1697.77
373.22	1746.92
373.43	1646.57
373.64	1652.71
373.85	1728.49
374.06	1783.78
374.26	1751.01
374.47	1667.05
374.68	1777.64
374.89	1759.21
375.10	1697.77
375.31	1804.26
375.52	1662.95
375.73	1677.29
375.94	1599.46
376.15	1822.69
376.36	1701.86
376.57	1636.33
376.78	1619.94
376.99	1755.11
377.20	1716.20
377.40	1681.38
377.61	1757.16
377.82	1638.38
378.03	1785.83
378.24	1748.97
378.45	1691.62
378.66	1830.88
378.87	1564.65
379.08	1607.66
379.29	1667.05
379.50	1755.11
379.71	1665.00
379.91	1726.44
380.12	1646.57
380.33	1701.86
380.54	1716.20
380.75	1714.15
380.96	1617.90
381.17	1730.53
381.38	1763.30
381.59	1765.35
381.80	1746.92
382.00	1859.56
382.21	1773.54
382.42	1861.60
382.63	1859.56
382.84	1763.30
383.05	1697.77
383.26	1841.12
383.47	1660.90
383.68	1726.44
383.88	1652.71
384.09	1658.85
384.30	1740.77
384.51	1791.97
384.72	1646.57
384.93	1638.38
385.14	1734.63
385.35	1759.21
385.55	1595.37
385.76	1830.88
385.97	1695.72
386.18	1665.00
386.39	1646.57
386.60	1722.34
386.81	1724.39
387.02	1683.43
387.22	1626.09
387.43	1753.06
387.64	1787.88
387.85	1853.41
388.06	2267.10
388.27	4274.11
388.48	6803.35
388.68	8343.42
388.89	9709.42
389.10	9834.35
389.31	8785.79
389.52	7575.44
389.73	6758.30
389.93	6270.88
390.14	5887.91
390.35	5236.66
390.56	4665.27
390.77	3762.12
390.98	3057.62
391.18	2553.82
391.39	2070.50
391.60	1761.25
391.81	1906.66
392.02	1804.26
392.23	1861.60
392.43	1693.67
392.64	1880.04
392.85	1746.92
393.06	1767.40
393.27	1742.82
393.47	1712.10
393.68	1693.67
393.89	1730.53
394.10	1720.29
394.31	1687.53
394.52	1609.70
394.72	1648.61
394.93	1800.16
395.14	1621.99
395.35	1685.48
395.56	1585.13
395.76	1759.21
395.97	1761.25
396.18	1806.31
396.39	1816.55
396.60	2013.15
396.80	1859.56
397.01	1798.12
397.22	1855.46
397.43	1761.25
397.64	1751.01
397.84	1789.92
398.05	1767.40
398.26	1769.44
398.47	1783.78
398.67	1832.93
398.88	1701.86
399.09	1734.63
399.30	1714.15
399.51	1677.29
399.71	1660.90
399.92	1720.29
400.13	1738.73
400.34	1640.42
400.54	1718.25
400.75	1822.69
400.96	1732.58
401.17	1773.54
401.37	1738.73
401.58	1730.53
401.79	1748.97
402.00	1834.98
402.21	1953.76
402.41	1959.91
402.62	2043.87
402.83	1996.77
403.04	1988.58
403.24	1986.53
403.45	1890.28
403.66	1871.84
403.87	1859.56
404.07	1861.60
404.28	1961.95
404.49	1875.94
404.70	1751.01
404.90	1685.48
405.11	1808.36
405.32	1765.35
405.52	1613.80
405.73	1710.05
405.94	1773.54
406.15	1683.43
406.35	1730.53
406.56	1777.64
406.77	1681.38
406.98	1748.97
407.18	1636.33
407.39	1785.83
407.60	1665.00
407.80	1708.01
408.01	1626.09
408.22	1746.92
408.43	1652.71
408.63	1726.44
408.84	1785.83
409.05	1818.60
409.25	1656.81
409.46	1654.76
409.67	1738.73
409.88	1667.05
410.08	1644.52
410.29	1693.67
410.50	1701.86
410.70	1726.44
410.91	1640.42
411.12	1730.53
411.32	1671.14
411.53	1691.62
411.74	1740.77
411.95	1753.06
412.15	1767.40
412.36	1755.11
412.57	1824.74
412.77	1738.73
412.98	1677.29
413.19	1724.39
413.39	1742.82
413.60	1765.35
413.81	1775.59
414.01	1624.04
414.22	1794.02
414.43	1697.77
414.63	1660.90
414.84	1763.30
415.05	1722.34
415.25	1648.61
415.46	1681.38
415.67	1667.05
415.87	1746.92
416.08	1728.49
416.29	1705.96
416.49	1730.53
416.70	1648.61
416.91	1658.85
417.11	1775.59
417.32	1673.19
417.53	1724.39
417.73	1800.16
417.94	1619.94
418.15	1673.19
418.35	1703.91
418.56	1757.16
418.77	1816.55
418.97	1665.00
419.18	1662.95
419.38	1595.37
419.59	1738.73
419.80	1759.21
420.00	1732.58
420.21	1675.24
420.42	1746.92
420.62	1714.15
420.83	1638.38
421.04	1642.47
421.24	1689.57
421.45	1716.20
421.65	1687.53
421.86	1687.53
422.07	1714.15
422.27	1728.49
422.48	1781.73
422.69	1636.33
422.89	1732.58
423.10	1708.01
423.30	1687.53
423.51	1697.77
423.72	1777.64
423.92	1757.16
424.13	1665.00
424.33	1726.44
424.54	1689.57
424.75	1728.49
424.95	1832.93
425.16	1699.81
425.36	1714.15
425.57	1724.39
425.78	1683.43
425.98	1699.81
426.19	1665.00
426.39	1701.86
426.60	1683.43
426.81	1837.03
427.01	1718.25
427.22	1642.47
427.42	1626.09
427.63	1652.71
427.83	1830.88
428.04	1843.17
428.25	1738.73
428.45	1814.50
428.66	1744.87
428.86	1722.34
429.07	1681.38
429.28	1746.92
429.48	1638.38
429.69	1626.09
429.89	1697.77
430.10	1624.04
430.30	1712.10
430.51	1789.92
430.71	1630.18
430.92	1689.57
431.13	1673.19
431.33	1730.53
431.54	1738.73
431.74	1804.26
431.95	1771.49
432.15	1626.09
432.36	1703.91
432.56	1767.40
432.77	1771.49
432.98	1798.12
433.18	1697.77
433.39	1675.24
433.59	1634.28
433.80	1810.40
434.00	1808.36
434.21	1691.62
434.41	1607.66
434.62	1869.80
434.82	1681.38
435.03	1665.00
435.23	1730.53
435.44	1665.00
435.64	1730.53
435.85	1746.92
436.06	1677.29
436.26	1755.11
436.47	1681.38
436.67	1673.19
436.88	1603.56
437.08	1847.27
437.29	1681.38
437.49	1697.77
437.70	1761.25
437.90	1708.01
438.11	1826.79
438.31	1796.07
438.52	1894.37
438.72	1820.64
438.93	1931.23
439.13	1789.92
439.34	1837.03
439.54	1738.73
439.75	1783.78
439.95	1734.63
440.16	1628.14
440.36	1736.68
440.57	1681.38
440.77	1785.83
440.98	1685.48
441.18	1800.16
441.39	1611.75
441.59	1644.52
441.80	1769.44
442.00	1738.73
442.21	1845.22
442.41	1648.61
442.62	1834.98
442.82	1667.05
443.02	1744.87
443.23	1740.77
443.43	1697.77
443.64	1783.78
443.84	1675.24
444.05	1757.16
444.25	1771.49
444.46	1730.53
444.66	1714.15
444.87	1839.08
445.07	1648.61
445.28	1761.25
445.48	1812.45
445.69	1812.45
445.89	1910.75
446.09	1724.39
446.30	2019.30
446.50	2711.51
446.71	3735.50
446.91	4323.26
447.12	4669.37
447.32	4812.73
447.53	4317.12
447.73	3880.90
447.93	3592.14
448.14	3256.27
448.34	3227.60
448.55	2893.78
448.75	2949.08
448.96	2781.14
449.16	2441.18
449.36	2293.72
449.57	2021.35
449.77	1824.74
449.98	1777.64
450.18	1814.50
450.39	1787.88
450.59	1777.64
450.79	1716.20
451.00	1679.33
451.20	1814.50
451.41	1722.34
451.61	1863.65
451.81	1714.15
452.02	1736.68
452.22	1701.86
452.43	1738.73
452.63	1703.91
452.84	1818.60
453.04	1705.96
453.24	1703.91
453.45	1732.58
453.65	1759.21
453.86	1714.15
454.06	1656.81
454.26	1699.81
454.47	1720.29
454.67	1816.55
454.87	1746.92
455.08	1742.82
455.28	1794.02
455.49	1681.38
455.69	1654.76
455.89	1947.62
456.10	1759.21
456.30	1667.05
456.51	1722.34
456.71	1804.26
456.91	1787.88
457.12	1771.49
457.32	1679.33
457.52	1558.50
457.73	1796.07
457.93	1781.73
458.14	1677.29
458.34	1611.75
458.54	1714.15
458.75	1718.25
458.95	1877.99
459.15	1777.64
459.36	1787.88
459.56	1767.40
459.76	1871.84
459.97	1714.15
460.17	1816.55
460.37	1779.68
460.58	1705.96
460.78	1783.78
460.99	1675.24
461.19	1736.68
461.39	1718.25
461.60	1636.33
461.80	1755.11
462.00	1714.15
462.21	1648.61
462.41	1705.96
462.61	1689.57
462.82	1691.62
463.02	1775.59
463.22	1714.15
463.43	1779.68
463.63	1738.73
463.83	1759.21
464.04	1755.11
464.24	1683.43
464.44	1701.86
464.64	1701.86
464.85	1773.54
465.05	1791.97
465.25	1714.15
465.46	1642.47
465.66	1728.49
465.86	1751.01
466.07	1777.64
466.27	1767.40
466.47	1589.22
466.68	1697.77
466.88	1855.46
467.08	1785.83
467.29	1751.01
467.49	1734.63
467.69	1757.16
467.89	1705.96
468.10	1769.44
468.30	1757.16
468.50	1775.59
468.71	1728.49
468.91	1679.33
469.11	1865.70
469.31	1757.16
469.52	1726.44
469.72	1785.83
469.92	1882.08
470.13	1724.39
470.33	1689.57
470.53	1828.84
470.73	2205.66
470.94	2355.16
471.14	2285.53
471.34	2621.40
471.54	2320.35
471.75	2162.66
471.95	2187.23
472.15	2017.25
472.36	2115.55
472.56	2070.50
472.76	2080.74
472.96	2084.83
473.17	1910.75
473.37	1902.56
473.57	1814.50
473.77	1888.23
473.98	1710.05
474.18	1724.39
474.38	1828.84
474.58	1601.51
474.79	1667.05
474.99	1773.54
475.19	1767.40
475.39	1654.76
475.60	1669.09
475.80	1681.38
476.00	1656.81
476.20	1693.67
476.41	1734.63
476.61	1814.50
476.81	1746.92
477.01	1624.04
477.21	1841.12
477.42	1822.69
477.62	1675.24
477.82	1771.49
478.02	1632.23
478.23	1751.01
478.43	1742.82
478.63	1636.33
478.83	1703.91
479.03	1730.53
479.24	1810.40
479.44	1820.64
479.64	1728.49
479.84	1656.81
480.04	1716.20
480.25	1751.01
480.45	1665.00
480.65	1710.05
480.85	1847.27
481.06	1624.04
481.26	1693.67
481.46	1722.34
481.66	1728.49
481.86	1658.85
482.06	1742.82
482.27	1724.39
482.47	1712.10
482.67	1771.49
482.87	1722.34
483.07	1771.49
483.28	1669.09
483.48	1708.01
483.68	1718.25
483.88	1683.43
484.08	1615.85
484.29	1679.33
484.49	1730.53
484.69	1738.73
484.89	1767.40
485.09	1701.86
485.29	1728.49
485.50	1732.58
485.70	1740.77
485.90	1789.92
486.10	1665.00
486.30	1724.39
486.50	1808.36
486.71	1656.81
486.91	1738.73
487.11	1841.12
487.31	1636.33
487.51	1689.57
487.71	1705.96
487.91	1697.77
488.12	1634.28
488.32	1597.42
488.52	1656.81
488.72	1656.81
488.92	1630.18
489.12	1787.88
489.32	1769.44
489.53	1773.54
489.73	1654.76
489.93	1773.54
490.13	1667.05
490.33	1595.37
490.53	1687.53
490.73	1826.79
490.94	1656.81
491.14	1732.58
491.34	1828.84
491.54	2125.79
491.74	2539.48
491.94	2973.65
492.14	2959.31
492.34	2920.40
492.54	2813.91
492.75	2516.95
492.95	2516.95
493.15	2381.79
493.35	2250.72
493.55	2340.83
493.75	2127.84
493.95	2107.36
494.15	1972.19
494.35	1908.71
494.56	1832.93
494.76	1853.41
494.96	1783.78
495.16	1843.17
495.36	1691.62
495.56	1804.26
495.76	1701.86
495.96	1708.01
496.16	1722.34
496.36	1781.73
496.56	1742.82
496.77	1667.05
496.97	1701.86
497.17	1796.07
497.37	1656.81
497.57	1734.63
497.77	1820.64
497.97	1634.28
498.17	1759.21
498.37	1722.34
498.57	1761.25
498.77	1734.63
498.97	1806.31
499.17	1787.88
499.38	1652.71
499.58	1832.93
499.78	1751.01
499.98	1820.64
500.18	1697.77
500.38	1689.57
500.58	1923.04
500.78	2482.14
500.98	4536.25
501.18	6002.60
501.38	6789.02
501.58	7034.77
501.78	6713.24
501.98	5468.08
502.18	4982.71
502.38	4429.76
502.58	4120.51
502.78	3692.49
502.98	3649.48
503.18	3469.26
503.38	3235.79
503.59	2813.91
503.79	2676.70
503.99	2519.00
504.19	2303.96
504.39	2205.66
504.59	2113.50
504.79	2078.69
504.99	2045.92
505.19	1789.92
505.39	1894.37
505.59	1916.90
505.79	1955.81
505.99	1837.03
506.19	1800.16
506.39	1845.22
506.59	1712.10
506.79	1781.73
506.99	1830.88
507.19	1804.26
507.39	1777.64
507.59	1687.53
507.79	1640.42
507.99	1677.29
508.19	1669.09
508.39	1665.00
508.59	1677.29
508.79	1783.78
508.99	1832.93
509.19	1662.95
509.39	1720.29
509.59	1644.52
509.79	1648.61
509.99	1689.57
510.19	1791.97
510.39	1789.92
510.59	1744.87
510.79	1732.58
510.99	1621.99
511.19	1777.64
511.39	1841.12
511.59	1830.88
511.79	1826.79
511.99	1763.30
512.19	1726.44
512.38	1785.83
512.58	1658.85
512.78	1669.09
512.98	1804.26
513.18	1814.50
513.38	1654.76
513.58	1773.54
513.78	1724.39
513.98	1687.53
514.18	1753.06
514.38	1681.38
514.58	1755.11
514.78	1679.33
514.98	1591.27
515.18	1660.90
515.38	1710.05
515.58	1859.56
515.78	1671.14
515.98	1671.14
516.18	1869.80
516.38	1763.30
516.57	1656.81
516.77	1701.86
516.97	1660.90
517.17	1714.15
517.37	1662.95
517.57	1722.34
517.77	1630.18
517.97	1708.01
518.17	1771.49
518.37	1634.28
518.57	1673.19
518.77	1734.63
518.97	1714.15
519.16	1812.45
519.36	1798.12
519.56	1724.39
519.76	1767.40
519.96	1648.61
520.16	1767.40
520.36	1648.61
520.56	1794.02
520.76	1660.90
520.96	1714.15
521.16	1789.92
521.35	1800.16
521.55	1814.50
521.75	1718.25
521.95	1691.62
522.15	1701.86
522.35	1640.42
522.55	1671.14
522.75	1779.68
522.95	1703.91
523.14	1671.14
523.34	1748.97
523.54	1744.87
523.74	1734.63
523.94	1738.73
524.14	1697.77
524.34	1794.02
524.54	1841.12
524.73	1693.67
524.93	1734.63
525.13	1794.02
525.33	1685.48
525.53	1845.22
525.73	1798.12
525.93	1675.24
526.13	1667.05
526.32	1578.98
526.52	1763.30
526.72	1796.07
526.92	1681.38
527.12	1714.15
527.32	1636.33
527.52	1755.11
527.71	1787.88
527.91	1775.59
528.11	1693.67
528.31	1705.96
528.51	1685.48
528.71	1753.06
528.90	1759.21
529.10	1787.88
529.30	1787.88
529.50	1636.33
529.70	1724.39
529.90	1722.34
530.09	1742.82
530.29	1687.53
530.49	1699.81
530.69	1798.12
530.89	1736.68
531.09	1834.98
531.28	1673.19
531.48	1732.58
531.68	1769.44
531.88	1753.06
532.08	1714.15
532.28	1714.15
532.47	1748.97
532.67	1800.16
532.87	1863.65
533.07	1685.48
533.27	1722.34
533.46	1755.11
533.66	1695.72
533.86	1775.59
534.06	1617.90
534.26	1724.39
534.45	1761.25
534.65	1740.77
534.85	1822.69
535.05	1720.29
535.25	1763.30
535.44	1689.57
535.64	1697.77
535.84	1755.11
536.04	1705.96
536.24	1730.53
536.43	1732.58
536.63	1767.40
536.83	1652.71
537.03	1687.53
537.22	1611.75
537.42	1667.05
537.62	1771.49
537.82	1605.61
538.02	1765.35
538.21	1779.68
538.41	1918.95
538.61	1822.69
538.81	1687.53
539.00	1730.53
539.20	1648.61
539.40	1658.85
539.60	1742.82
539.79	1824.74
539.99	1693.67
540.19	1697.77
540.39	1818.60
540.58	1722.34
540.78	1832.93
540.98	1722.34
541.18	1759.21
541.37	1810.40
541.57	1783.78
541.77	1740.77
541.97	1671.14
542.16	1673.19
542.36	1701.86
542.56	1667.05
542.76	1740.77
542.95	1681.38
543.15	1759.21
543.35	1730.53
543.54	1632.23
543.74	1695.72
543.94	1912.80
544.14	1691.62
544.33	1800.16
544.53	1765.35
544.73	1751.01
544.93	1773.54
545.12	1669.09
545.32	1683.43
545.52	1748.97
545.71	1697.77
545.91	1681.38
546.11	1677.29
546.30	1740.77
546.50	1759.21
546.70	1757.16
546.90	1761.25
547.09	1581.03
547.29	1724.39
547.49	1826.79
547.68	1630.18
547.88	1613.80
548.08	1800.16
548.27	2181.09
548.47	1652.71
548.67	1724.39
548.87	1857.51
549.06	1738.73
549.26	1812.45
549.46	1699.81
549.65	1738.73
549.85	1693.67
550.05	1718.25
550.24	1708.01
550.44	1726.44
550.64	1716.20
550.83	1771.49
551.03	1873.89
551.23	1816.55
551.42	1728.49
551.62	1742.82
551.82	1726.44
552.01	1736.68
552.21	1832.93
552.41	1783.78
552.60	1798.12
552.80	1748.97
553.00	1744.87
553.19	1738.73
553.39	1849.32
553.59	1667.05
553.78	1779.68
553.98	1742.82
554.17	1591.27
554.37	1771.49
554.57	1781.73
554.76	1632.23
554.96	1753.06
555.16	1728.49
555.35	1779.68
555.55	1839.08
555.75	1738.73
555.94	1705.96
556.14	1734.63
556.33	1771.49
556.53	1751.01
556.73	1673.19
556.92	1787.88
557.12	1880.04
557.32	1898.47
557.51	1828.84
557.71	1693.67
557.90	1787.88
558.10	1818.60
558.30	1677.29
558.49	1771.49
558.69	1773.54
558.88	1796.07
559.08	1755.11
559.28	1736.68
559.47	1703.91
559.67	1755.11
559.86	1812.45
560.06	1703.91
560.26	1800.16
560.45	1775.59
560.65	1759.21
560.84	1728.49
561.04	1642.47
561.24	1820.64
561.43	1728.49
561.63	1779.68
561.82	1746.92
562.02	1773.54
562.22	1662.95
562.41	1683.43
562.61	1722.34
562.80	1728.49
563.00	1925.09
563.19	1771.49
563.39	1742.82
563.59	1812.45
563.78	1726.44
563.98	1603.56
564.17	1722.34
564.37	1613.80
564.56	1667.05
564.76	1640.42
564.96	1791.97
565.15	1748.97
565.35	1843.17
565.54	1720.29
565.74	1699.81
565.93	1705.96
566.13	1787.88
566.32	1779.68
566.52	1773.54
566.71	1710.05
566.91	1804.26
567.11	1714.15
567.30	1624.04
567.50	1769.44
567.69	1744.87
567.89	1716.20
568.08	1632.23
568.28	1712.10
568.47	1744.87
568.67	1771.49
568.86	1748.97
569.06	1740.77
569.25	1736.68
569.45	1675.24
569.64	1722.34
569.84	1693.67
570.04	1834.98
570.23	1656.81
570.43	1777.64
570.62	1843.17
570.82	1867.75
571.01	1642.47
571.21	1650.66
571.40	1677.29
571.60	1783.78
571.79	1734.63
571.99	1751.01
572.18	1728.49
572.38	1787.88
572.57	1697.77
572.77	1771.49
572.96	1843.17
573.16	1734.63
573.35	1738.73
573.55	1832.93
573.74	1787.88
573.94	1712.10
574.13	1728.49
574.33	1761.25
574.52	1783.78
574.71	1767.40
574.91	1720.29
575.10	1630.18
575.30	1689.57
575.49	1697.77
575.69	1652.71
575.88	1775.59
576.08	1667.05
576.27	1708.01
576.47	1697.77
576.66	1830.88
576.86	1755.11
577.05	1689.57
577.25	1744.87
577.44	1804.26
577.64	1714.15
577.83	1767.40
578.02	1708.01
578.22	1771.49
578.41	1837.03
578.61	1746.92
578.80	1710.05
579.00	1812.45
579.19	1726.44
579.39	1755.11
579.58	1779.68
579.77	1769.44
579.97	1818.60
580.16	1791.97
580.36	1781.73
580.55	1859.56
580.75	1820.64
580.94	1712.10
581.13	1857.51
581.33	1837.03
581.52	1777.64
581.72	1867.75
581.91	1943.52
582.11	1673.19
582.30	1755.11
582.49	1699.81
582.69	1757.16
582.88	1802.21
583.08	1841.12
583.27	1755.11
583.47	1677.29
583.66	1712.10
583.85	1736.68
584.05	1787.88
584.24	1718.25
584.44	1724.39
584.63	1869.80
584.82	1849.32
585.02	1845.22
585.21	1824.74
585.41	1826.79
585.60	1857.51
585.79	1900.52
585.99	1937.38
586.18	1853.41
586.37	2181.09
586.57	3348.43
586.76	10094.44
586.96	24766.09
587.15	34981.35
587.34	41186.70
587.54	42974.58
587.73	37234.12
587.93	26539.63
588.12	21718.71
588.31	18435.81
588.51	16596.74
588.70	15398.68
588.89	14362.40
589.09	12846.91
589.28	11163.48
589.47	9523.05
589.67	8089.48
589.86	6395.81
590.06	4870.07
590.25	3860.42
590.44	3106.77
590.64	2537.43
590.83	2220.00
591.02	2023.39
591.22	1939.43
591.41	1880.04
591.60	1779.68
591.80	1941.47
591.99	1726.44
592.18	1769.44
592.38	1818.60
592.57	1800.16
592.76	1773.54
592.96	1724.39
593.15	1796.07
593.34	1877.99
593.54	1730.53
593.73	1787.88
593.92	1789.92
594.12	1830.88
594.31	1763.30
594.50	1873.89
594.70	1769.44
594.89	1896.42
595.08	1714.15
595.28	1673.19
595.47	1920.99
595.66	1822.69
595.86	1619.94
596.05	1722.34
596.24	1650.66
596.43	1929.19
596.63	1845.22
596.82	1714.15
597.01	1761.25
597.21	1822.69
597.40	1689.57
597.59	1712.10
597.79	1705.96
597.98	1845.22
598.17	1785.83
598.36	1712.10
598.56	1765.35
598.75	1669.09
598.94	1742.82
599.14	1742.82
599.33	1665.00
599.52	1771.49
599.71	1769.44
599.91	1765.35
600.10	1783.78
600.29	1763.30
600.48	1738.73
600.68	1736.68
600.87	1687.53
601.06	1697.77
601.26	1718.25
601.45	1738.73
601.64	1742.82
601.83	1728.49
602.03	1677.29
602.22	1662.95
602.41	1816.55
602.60	1923.04
602.80	1738.73
602.99	1710.05
603.18	1695.72
603.37	1791.97
603.57	1746.92
603.76	1796.07
603.95	1771.49
604.14	1703.91
604.34	1755.11
604.53	1675.24
604.72	1710.05
604.91	1804.26
605.10	1785.83
605.30	1714.15
605.49	1873.89
605.68	1771.49
605.87	1755.11
606.07	1677.29
606.26	1689.57
606.45	1699.81
606.64	1781.73
606.84	1755.11
607.03	1757.16
607.22	1769.44
607.41	1712.10
607.60	1691.62
607.80	1783.78
607.99	1701.86
608.18	1720.29
608.37	1689.57
608.56	1697.77
608.76	1763.30
608.95	1841.12
609.14	1759.21
609.33	1667.05
609.52	1853.41
609.72	1728.49
609.91	1787.88
610.10	1671.14
610.29	1740.77
610.48	1763.30
610.68	1808.36
610.87	1673.19
611.06	1808.36
611.25	1681.38
611.44	1800.16
611.63	1710.05
611.83	1759.21
612.02	1634.28
612.21	1814.50
612.40	1677.29
612.59	1665.00
612.79	1644.52
612.98	1699.81
613.17	1894.37
613.36	1703.91
613.55	1828.84
613.74	1679.33
613.93	1658.85
614.13	1759.21
614.32	1693.67
614.51	1781.73
614.70	1769.44
614.89	1755.11
615.08	1720.29
615.28	2056.16
615.47	1687.53
615.66	1742.82
615.85	1671.14
616.04	1773.54
616.23	1708.01
616.42	1689.57
616.62	1746.92
616.81	1769.44
617.00	1705.96
617.19	1787.88
617.38	1703.91
617.57	1687.53
617.76	1804.26
617.95	1753.06
618.15	1722.34
618.34	1843.17
618.53	1687.53
618.72	1802.21
618.91	1820.64
619.10	1798.12
619.29	1738.73
619.48	1714.15
619.68	1681.38
619.87	1660.90
620.06	1669.09
620.25	1705.96
620.44	1738.73
620.63	1738.73
620.82	1773.54
621.01	1751.01
621.20	1679.33
621.39	1771.49
621.59	1738.73
621.78	1673.19
621.97	1705.96
622.16	1771.49
622.35	1685.48
622.54	1794.02
622.73	1830.88
622.92	1671.14
623.11	1742.82
623.30	1671.14
623.49	1736.68
623.68	1648.61
623.88	1796.07
624.07	1716.20
624.26	1716.20
624.45	1796.07
624.64	1683.43
624.83	1765.35
625.02	1683.43
625.21	1730.53
625.40	1665.00
625.59	1755.11
625.78	1757.16
625.97	1783.78
626.16	1728.49
626.35	1779.68
626.54	1677.29
626.74	1691.62
626.93	1728.49
627.12	1757.16
627.31	1742.82
627.50	1746.92
627.69	1753.06
627.88	1728.49
628.07	1730.53
628.26	1665.00
628.45	1697.77
628.64	1658.85
628.83	1697.77
629.02	1634.28
629.21	1669.09
629.40	1708.01
629.59	1660.90
629.78	1697.77
629.97	1701.86
630.16	1693.67
630.35	1658.85
630.54	1677.29
630.73	1687.53
630.92	1767.40
631.11	1671.14
631.30	1724.39
631.49	1740.77
631.68	1708.01
631.87	1665.00
632.06	1671.14
632.25	1859.56
632.44	1691.62
632.63	1802.21
632.82	1742.82
633.01	1646.57
633.20	1650.66
633.39	1665.00
633.58	1677.29
633.77	1783.78
633.96	1679.33
634.15	1705.96
634.34	1779.68
634.53	1738.73
634.72	1742.82
634.91	1658.85
635.10	1736.68
635.29	1740.77
635.48	1617.90
635.67	1675.24
635.86	1644.52
636.05	1812.45
636.24	1742.82
636.43	1738.73
636.62	1757.16
636.81	1632.23
637.00	1767.40
637.19	1761.25
637.38	1720.29
637.57	1699.81
637.76	1712.10
637.95	1740.77
638.14	1699.81
638.33	1701.86
638.52	1746.92
638.71	1640.42
638.89	1656.81
639.08	1875.94
639.27	1712.10
639.46	1640.42
639.65	1681.38
639.84	1710.05
640.03	1863.65
640.22	1652.71
640.41	1746.92
640.60	1681.38
640.79	1746.92
640.98	1697.77
641.17	1755.11
641.36	1812.45
641.55	1689.57
641.74	1763.30
641.92	1689.57
642.11	1652.71
642.30	1718.25
642.49	1624.04
642.68	1656.81
642.87	1712.10
643.06	1779.68
643.25	1650.66
643.44	1675.24
643.63	1681.38
643.82	1705.96
644.00	1654.76
644.19	1714.15
644.38	1695.72
644.57	1759.21
644.76	1673.19
644.95	1718.25
645.14	1687.53
645.33	1705.96
645.52	1724.39
645.71	1681.38
645.89	1671.14
646.08	1689.57
646.27	1701.86
646.46	1824.74
646.65	1603.56
646.84	1710.05
647.03	1732.58
647.22	1746.92
647.40	1746.92
647.59	1697.77
647.78	1658.85
647.97	1673.19
648.16	1597.42
648.35	1740.77
648.54	1765.35
648.73	1765.35
648.91	1720.29
649.10	1753.06
649.29	1652.71
649.48	1730.53
649.67	1746.92
649.86	1779.68
650.05	1642.47
650.23	1726.44
650.42	1646.57
650.61	1753.06
650.80	1740.77
650.99	1859.56
651.18	1693.67
651.36	1669.09
651.55	1691.62
651.74	1808.36
651.93	1732.58
652.12	1691.62
652.31	1748.97
652.49	1699.81
652.68	1660.90
652.87	1744.87
653.06	1773.54
653.25	1861.60
653.44	1691.62
653.62	1755.11
653.81	1665.00
654.00	1751.01
654.19	1820.64
654.38	1888.23
654.56	1761.25
654.75	1701.86
654.94	1777.64
655.13	1652.71
655.32	1691.62
655.51	1736.68
655.69	1771.49
655.88	1753.06
656.07	1638.38
656.26	1757.16
656.45	1689.57
656.63	1689.57
656.82	1751.01
657.01	1738.73
657.20	1734.63
657.38	1800.16
657.57	1701.86
657.76	1613.80
657.95	1714.15
658.14	1701.86
658.32	1740.77
658.51	1665.00
658.70	1665.00
658.89	1763.30
659.08	1662.95
659.26	1773.54
659.45	1621.99
659.64	1708.01
659.83	1654.76
660.01	1916.90
660.20	1751.01
660.39	1763.30
660.58	1605.61
660.76	1814.50
660.95	1669.09
661.14	1767.40
661.33	1624.04
661.51	1736.68
661.70	1710.05
661.89	1734.63
662.08	1755.11
662.26	1658.85
662.45	1587.18
662.64	1789.92
662.83	1771.49
663.01	1644.52
663.20	1738.73
663.39	1830.88
663.58	1748.97
663.76	1705.96
663.95	1632.23
664.14	1679.33
664.32	1718.25
664.51	1671.14
664.70	1632.23
664.89	1722.34
665.07	1673.19
665.26	1783.78
665.45	1630.18
665.64	1773.54
665.82	1697.77
666.01	1734.63
666.20	1687.53
666.38	1779.68
666.57	1742.82
666.76	2283.49
666.95	4544.44
667.13	10407.78
667.32	15441.68
667.51	18058.99
667.69	19064.54
667.88	17864.43
668.07	12339.01
668.25	9645.93
668.44	8284.03
668.63	7411.60
668.81	6954.90
669.00	6352.80
669.19	5642.15
669.38	5138.35
669.56	4718.52
669.75	3938.24
669.94	3479.50
670.12	2893.78
670.31	2471.90
670.50	2271.20
670.68	2037.73
670.87	1920.99
671.06	1802.21
671.24	1834.98
671.43	1816.55
671.62	1705.96
671.80	1767.40
671.99	1687.53
672.18	1761.25
672.36	1736.68
672.55	1785.83
672.74	1665.00
672.92	1671.14
673.11	1693.67
673.29	1703.91
673.48	1789.92
673.67	1728.49
673.85	1804.26
674.04	1687.53
674.23	1796.07
674.41	1714.15
674.60	1705.96
674.79	1644.52
674.97	1697.77
675.16	1734.63
675.34	1775.59
675.53	1621.99
675.72	1746.92
675.90	1853.41
676.09	1697.77
676.28	1720.29
676.46	1673.19
676.65	1669.09
676.83	1681.38
677.02	1730.53
677.21	1748.97
677.39	1703.91
677.58	1617.90
677.77	1589.22
677.95	1624.04
678.14	1703.91
678.32	1636.33
678.51	1720.29
678.70	1841.12
678.88	1740.77
679.07	1771.49
679.25	1681.38
679.44	1705.96
679.63	1679.33
679.81	1708.01
680.00	1806.31
680.18	1722.34
680.37	1755.11
680.55	1714.15
680.74	1712.10
680.93	1576.94
681.11	1734.63
681.30	1718.25
681.48	1705.96
681.67	1673.19
681.85	1726.44
682.04	1658.85
682.23	1705.96
682.41	1744.87
682.60	1656.81
682.78	1724.39
682.97	1658.85
683.15	1660.90
683.34	1636.33
683.53	1796.07
683.71	1568.74
683.90	1824.74
684.08	1755.11
684.27	1681.38
684.45	1685.48
684.64	1740.77
684.82	1708.01
685.01	1710.05
685.19	1771.49
685.38	1783.78
685.57	1724.39
685.75	1705.96
685.94	1656.81
686.12	1699.81
686.31	1624.04
686.49	1849.32
686.68	1705.96
686.86	1748.97
687.05	1714.15
687.23	1789.92
687.42	1576.94
687.60	1689.57
687.79	1769.44
687.97	1751.01
688.16	1806.31
688.34	1755.11
688.53	1621.99
688.71	1742.82
688.90	1822.69
689.08	1751.01
689.27	1615.85
689.45	1777.64
689.64	1708.01
689.82	1662.95
690.01	1730.53
690.19	1822.69
690.38	1607.66
690.56	1771.49
690.75	1644.52
690.93	1677.29
691.12	1591.27
691.30	1681.38
691.49	1695.72
691.67	1693.67
691.86	1816.55
692.04	1654.76
692.23	1714.15
692.41	1712.10
692.60	1869.80
692.78	1703.91
692.97	1728.49
693.15	1705.96
693.34	1820.64
693.52	1734.63
693.71	1689.57
693.89	1607.66
694.08	1552.36
694.26	1724.39
694.44	1718.25
694.63	1802.21
694.81	1583.08
695.00	1621.99
695.18	1712.10
695.37	1818.60
695.55	1710.05
695.74	1714.15
695.92	1626.09
696.10	1783.78
696.29	1703.91
696.47	1677.29
696.66	1642.47
696.84	1673.19
697.03	1722.34
697.21	1794.02
697.40	2308.06
697.58	1746.92
697.76	1681.38
697.95	1693.67
698.13	1671.14
698.32	1673.19
698.50	1669.09
698.68	1701.86
698.87	1730.53
699.05	1773.54
699.24	1662.95
699.42	1695.72
699.61	1691.62
699.79	1738.73
699.97	1648.61
700.16	1687.53
700.34	1683.43
700.53	1726.44
700.71	1771.49
700.89	1675.24
701.08	1683.43
701.26	1675.24
701.45	2047.97
701.63	1718.25
701.81	1734.63
702.00	1689.57
702.18	1685.48
702.37	1722.34
702.55	1669.09
702.73	1755.11
702.92	1636.33
703.10	1738.73
703.28	1724.39
703.47	1693.67
703.65	1732.58
703.84	1740.77
704.02	1712.10
704.20	1837.03
704.39	1695.72
704.57	1712.10
704.75	1824.74
704.94	1861.60
705.12	1687.53
705.30	1806.31
705.49	2330.59
705.67	4462.52
705.86	9490.29
706.04	12609.34
706.22	14647.07
706.41	15724.30
706.59	13950.76
706.77	9725.80
706.96	7407.50
707.14	6813.59
707.32	5900.20
707.51	5703.59
707.69	4925.36
707.87	4360.13
708.06	3602.38
708.24	2965.46
708.42	2437.08
708.61	2140.13
708.79	1929.19
708.97	1857.51
709.16	1855.46
709.34	1748.97
709.52	1728.49
709.71	1681.38
709.89	1708.01
710.07	1718.25
710.26	1683.43
710.44	1699.81
710.62	1767.40
710.80	1732.58
710.99	1787.88
711.17	1806.31
711.35	1673.19
711.54	1665.00
711.72	1853.41
711.90	1724.39
712.09	1761.25
712.27	1675.24
712.45	1722.34
712.63	1640.42
712.82	1724.39
713.00	1665.00
713.18	1712.10
713.37	1755.11
713.55	1701.86
713.73	1703.91
713.91	1751.01
714.10	1722.34
714.28	1726.44
714.46	1634.28
714.65	1732.58
714.83	1740.77
715.01	1763.30
715.19	1675.24
715.38	1730.53
715.56	1787.88
715.74	1681.38
715.92	1701.86
716.11	1824.74
716.29	1669.09
716.47	1791.97
716.65	1660.90
716.84	1646.57
717.02	1705.96
717.20	1593.32
717.38	1644.52
717.57	1771.49
717.75	1642.47
717.93	1693.67
718.11	1771.49
718.30	1677.29
718.48	1789.92
718.66	1761.25
718.84	1740.77
719.03	1710.05
719.21	1656.81
719.39	1775.59
719.57	1716.20
719.75	1730.53
719.94	1718.25
720.12	1687.53
720.30	1751.01
720.48	1839.08
720.67	1636.33
720.85	1654.76
721.03	1718.25
721.21	1648.61
721.39	1636.33
721.58	1724.39
721.76	1728.49
721.94	1730.53
722.12	1705.96
722.30	1808.36
722.49	1675.24
722.67	1708.01
722.85	1695.72
723.03	1640.42
723.21	1669.09
723.40	1685.48
723.58	1724.39
723.76	1761.25
723.94	1755.11
724.12	1665.00
724.30	1761.25
724.49	1740.77
724.67	1652.71
724.85	1742.82
725.03	1576.94
725.21	1812.45
725.40	1654.76
725.58	1740.77
725.76	1708.01
725.94	1734.63
726.12	1658.85
726.30	1734.63
726.49	1621.99
726.67	1609.70
726.85	1654.76
727.03	1798.12
727.21	2113.50
727.39	2936.79
727.57	3813.32
727.76	4163.52
727.94	4300.73
728.12	4310.97
728.30	3700.68
728.48	2987.99
728.66	2744.28
728.84	2592.73
729.03	2293.72
729.21	2125.79
729.39	1970.15
729.57	1904.61
729.75	1837.03
729.93	1839.08
730.11	1740.77
730.30	1667.05
730.48	1677.29
730.66	1810.40
730.84	1716.20
731.02	1652.71
731.20	1667.05
731.38	1734.63
731.56	1640.42
731.74	1630.18
731.93	1746.92
732.11	1746.92
732.29	1648.61
732.47	1732.58
732.65	1705.96
732.83	1781.73
733.01	1669.09
733.19	1581.03
733.37	1757.16
733.56	1761.25
733.74	1689.57
733.92	1763.30
734.10	1669.09
734.28	1746.92
734.46	1587.18
734.64	1632.23
734.82	1701.86
735.00	1665.00
735.18	1613.80
735.36	1697.77
735.54	1775.59
735.73	1695.72
735.91	1695.72
736.09	1716.20
736.27	1697.77
736.45	1703.91
736.63	1591.27
736.81	1701.86
736.99	1738.73
737.17	1794.02
737.35	1679.33
737.53	1730.53
737.71	1671.14
737.89	1810.40
738.07	1673.19
738.25	1683.43
738.43	1632.23
738.61	1628.14
738.80	1685.48
738.98	1652.71
739.16	1675.24
739.34	1660.90
739.52	1746.92
739.70	1662.95
739.88	1773.54
740.06	1806.31
740.24	1562.60
740.42	1718.25
740.60	1632.23
740.78	1662.95
740.96	1538.02
741.14	1708.01
741.32	1718.25
741.50	1611.75
741.68	1822.69
741.86	1800.16
742.04	1728.49
742.22	1681.38
742.40	1673.19
742.58	1701.86
742.76	1673.19
742.94	1787.88
743.12	1652.71
743.30	1714.15
743.48	1728.49
743.66	1667.05
743.84	1775.59
744.02	1677.29
744.20	1689.57
744.38	1693.67
744.56	1648.61
744.74	1800.16
744.92	1714.15
745.10	1726.44
745.28	1720.29
745.46	1818.60
745.64	1652.71
745.82	1738.73
746.00	1662.95
746.18	1751.01
746.36	1626.09
746.54	1722.34
746.72	1726.44
746.90	1648.61
747.08	1757.16
747.26	1665.00
747.44	1716.20
747.62	1753.06
747.80	1742.82
747.98	1720.29
748.15	1654.76
748.33	1689.57
748.51	1681.38
748.69	1775.59
748.87	1654.76
749.05	1652.71
749.23	1705.96
749.41	1751.01
749.59	1679.33
749.77	1796.07
749.95	1718.25
750.13	1646.57
750.31	1748.97
750.49	1767.40
750.67	1714.15
750.85	1753.06
751.03	1656.81
751.20	1755.11
751.38	1746.92
751.56	1681.38
751.74	1732.58
751.92	1720.29
752.10	1583.08
752.28	1673.19
752.46	1697.77
752.64	1669.09
752.82	1773.54
753.00	1748.97
753.18	1656.81
753.35	1673.19
753.53	1667.05
753.71	1656.81
753.89	1660.90
754.07	1771.49
754.25	1748.97
754.43	1714.15
754.61	1617.90
754.79	1718.25
754.97	1691.62
755.14	1787.88
755.32	1626.09
755.50	1667.05
755.68	1732.58
755.86	1669.09
756.04	1642.47
756.22	1656.81
756.40	1728.49
756.57	1800.16
756.75	1665.00
756.93	1701.86
757.11	1802.21
757.29	1572.84
757.47	1605.61
757.65	1574.89
757.82	1587.18
758.00	1724.39
758.18	1642.47
758.36	1675.24
758.54	1812.45
758.72	1593.32
758.90	1759.21
759.07	1724.39
759.25	1615.85
759.43	1720.29
759.61	1621.99
759.79	2181.09
759.97	1757.16
760.15	1652.71
760.32	1656.81
760.50	1722.34
760.68	1814.50
760.86	1615.85
761.04	1742.82
761.22	1757.16
761.39	1677.29
761.57	1693.67
761.75	1687.53
761.93	1740.77
762.11	1689.57
762.28	1730.53
762.46	1693.67
762.64	1767.40
762.82	1599.46
763.00	1703.91
763.18	1773.54
763.35	1671.14
763.53	1757.16
763.71	1665.00
763.89	1701.86
764.07	1703.91
764.24	1687.53
764.42	1728.49
764.60	1738.73
764.78	1710.05
764.96	1753.06
765.13	1742.82
765.31	1679.33
765.49	1814.50
765.67	1636.33
765.84	1591.27
766.02	1607.66
766.20	1660.90
766.38	1742.82
766.56	1705.96
766.73	1800.16
766.91	1736.68
767.09	1665.00
767.27	1689.57
767.44	1609.70
767.62	1687.53
767.80	1746.92
767.98	1658.85
768.15	1691.62
768.33	1660.90
768.51	1789.92
768.69	1648.61
768.87	1714.15
769.04	1705.96
769.22	1884.13
769.40	1718.25
769.58	1781.73
769.75	1802.21
769.93	1738.73
770.11	1683.43
770.28	1710.05
770.46	1738.73
770.64	1710.05
770.82	1746.92
770.99	1689.57
771.17	1716.20
771.35	1587.18
771.53	1669.09
771.70	1720.29
771.88	1720.29
772.06	1693.67
772.23	1701.86
772.41	1724.39
772.59	1724.39
772.77	1593.32
772.94	1660.90
773.12	1671.14
773.30	1730.53
773.47	1730.53
773.65	1644.52
773.83	1751.01
774.01	1716.20
774.18	1552.36
774.36	1685.48
774.54	1632.23
774.71	1716.20
774.89	1609.70
775.07	1699.81
775.24	1697.77
775.42	1576.94
775.60	1763.30
775.78	1538.02
775.95	1607.66
776.13	1611.75
776.31	1574.89
776.48	1632.23
776.66	1826.79
776.84	1611.75
777.01	1605.61
777.19	1665.00
777.37	1656.81
777.54	1724.39
777.72	1796.07
777.90	1642.47
778.07	1730.53
778.25	1877.99
778.43	1796.07
778.60	1718.25
778.78	1806.31
778.96	1746.92
779.13	1691.62
779.31	1732.58
779.49	1669.09
779.66	1742.82
779.84	1708.01
780.01	1714.15
780.19	1665.00
780.37	1726.44
780.54	1763.30
780.72	1671.14
780.90	1787.88
781.07	1671.14
781.25	1656.81
781.43	1710.05
781.60	1726.44
781.78	1755.11
781.95	1734.63
782.13	1671.14
782.31	1669.09
782.48	1583.08
782.66	1650.66
782.83	1755.11
783.01	1740.77
783.19	1724.39
783.36	1771.49
783.54	1671.14
783.72	1689.57
783.89	1583.08
784.07	1705.96
784.24	1648.61
784.42	1767.40
784.60	1734.63
784.77	1714.15
784.95	1591.27
785.12	1693.67
785.30	1705.96
785.47	1695.72
785.65	1617.90
785.83	1665.00
786.00	1689.57
786.18	1724.39
786.35	1656.81
786.53	1667.05
786.71	1761.25
786.88	1722.34
787.06	1726.44
787.23	1683.43
787.41	1560.55
787.58	1714.15
787.76	1662.95
787.94	1742.82
788.11	1671.14
788.29	1642.47
788.46	1619.94
788.64	1587.18
788.81	1671.14
788.99	1642.47
789.16	1687.53
789.34	1624.04
789.52	1691.62
789.69	1662.95
789.87	1558.50
790.04	1677.29
790.22	1689.57
790.39	1828.84
790.57	1683.43
790.74	1697.77
790.92	1708.01
791.09	1650.66
791.27	1689.57
791.44	1791.97
791.62	1673.19
791.79	1796.07
791.97	1744.87
792.15	1773.54
792.32	1681.38
792.50	1677.29
792.67	1796.07
792.85	1791.97
793.02	1771.49
793.20	1734.63
793.37	1640.42
793.55	1703.91
793.72	1636.33
793.90	1679.33
794.07	1669.09
794.25	1621.99
794.42	1724.39
794.60	1605.61
794.77	1681.38
794.95	1718.25
795.12	1746.92
795.30	1611.75
795.47	1595.37
795.65	1849.32
795.82	1691.62
796.00	1644.52
796.17	1695.72
796.34	1734.63
796.52	1609.70
796.69	1726.44
796.87	1720.29
797.04	1665.00
797.22	1697.77
797.39	1767.40
797.57	1777.64
797.74	1681.38
797.92	1732.58
798.09	1660.90
798.27	1695.72
798.44	1720.29
798.62	1705.96
798.79	1771.49
798.96	1705.96
799.14	1710.05
799.31	1796.07
799.49	1671.14
799.66	1656.81
799.84	1687.53
800.01	1636.33
800.19	1773.54
800.36	1626.09
800.53	1710.05
800.71	1642.47
800.88	1800.16
801.06	1744.87
801.23	1609.70
801.41	1759.21
801.58	1640.42
801.75	1712.10
801.93	1767.40
802.10	1712.10
802.28	1695.72
802.45	1699.81
802.63	1761.25
802.80	1824.74
802.97	1669.09
803.15	1726.44
803.32	1695.72
803.50	1677.29
803.67	1652.71
803.84	1714.15
804.02	1662.95
804.19	1636.33
804.37	1544.17
804.54	1611.75
804.71	1699.81
804.89	1759.21
805.06	1646.57
805.24	1636.33
805.41	1740.77
805.58	1742.82
805.76	1847.27
805.93	1757.16
806.10	1808.36
806.28	1736.68
806.45	1681.38
806.63	1695.72
806.80	1742.82
806.97	1691.62
807.15	1691.62
807.32	1681.38
807.49	1624.04
807.67	1617.90
807.84	1693.67
808.01	1587.18
808.19	1853.41
808.36	1724.39
808.54	1621.99
808.71	1646.57
808.88	1736.68
809.06	1697.77
809.23	1814.50
809.40	1640.42
809.58	1767.40
809.75	1689.57
809.92	1628.14
810.10	1816.55
810.27	1705.96
810.44	1753.06
810.62	1748.97
810.79	1718.25
810.96	1679.33
811.14	1699.81
811.31	1771.49
811.48	1730.53
811.66	1671.14
811.83	1703.91
812.00	1759.21
812.18	1718.25
812.35	1779.68
812.52	1648.61
812.69	1652.71
812.87	1640.42
813.04	1693.67
813.21	1650.66
813.39	1673.19
813.56	1638.38
813.73	1695.72
813.91	1640.42
814.08	1699.81
814.25	1724.39
814.42	1605.61
814.60	1716.20
814.77	1710.05
814.94	1683.43
815.12	1701.86
815.29	1771.49
815.46	1624.04
815.63	1732.58
815.81	1697.77
815.98	1658.85
816.15	1677.29
816.33	1705.96
816.50	1685.48
816.67	1640.42
816.84	1695.72
817.02	1654.76
817.19	1636.33
817.36	1648.61
817.53	1716.20
817.71	1556.46
817.88	1738.73
818.05	1701.86
818.22	1689.57
818.40	1779.68
818.57	1738.73
818.74	1634.28
818.91	1644.52
819.09	1677.29
819.26	1718.25
819.43	1658.85
819.60	1652.71
819.78	1794.02
819.95	1712.10
820.12	1624.04
820.29	1767.40
820.47	1777.64
820.64	1683.43
820.81	1595.37
820.98	1632.23
821.15	1583.08
821.33	1796.07
821.50	1552.36
821.67	1718.25
821.84	1667.05
822.02	1777.64
822.19	1804.26
822.36	1710.05
822.53	1726.44
822.70	1640.42
822.88	1716.20
823.05	1734.63
823.22	1677.29
823.39	1779.68
823.56	1753.06
823.74	1767.40
823.91	1585.13
824.08	1640.42
824.25	1662.95
824.42	1751.01
824.60	1640.42
824.77	1665.00
824.94	1607.66
825.11	1738.73
825.28	1646.57
825.45	1718.25
825.63	1675.24
825.80	1695.72
825.97	1716.20
826.14	1761.25
826.31	1619.94
826.48	1695.72
826.66	1562.60
826.83	1712.10
827.00	1759.21
827.17	1714.15
827.34	1710.05
827.51	1619.94
827.69	1619.94
827.86	1587.18
828.03	1632.23
828.20	1673.19
828.37	1660.90
828.54	1791.97
828.71	1697.77
828.89	1734.63
829.06	1683.43
829.23	1767.40
829.40	1673.19
829.57	1654.76
829.74	1716.20
829.91	1755.11
830.09	1701.86
830.26	1662.95
830.43	1751.01
830.60	1679.33
830.77	1761.25
830.94	1742.82
831.11	1740.77
831.28	1576.94
831.46	1681.38
831.63	1705.96
831.80	1761.25
831.97	1675.24
832.14	1660.90
832.31	1671.14
832.48	1689.57
832.65	1820.64
832.82	1697.77
832.99	1777.64
833.17	1654.76
833.34	1781.73
833.51	1726.44
833.68	1624.04
833.85	1755.11
834.02	1613.80
834.19	1640.42
834.36	1650.66
834.53	1742.82
834.70	1722.34
834.87	1748.97
835.04	1734.63
835.22	1673.19
835.39	1652.71
835.56	1599.46
835.73	1697.77
835.90	1708.01
836.07	1634.28
836.24	1738.73
836.41	1667.05
836.58	1619.94
836.75	1779.68
836.92	1652.71
837.09	1642.47
837.26	1705.96
837.43	1669.09
837.60	1742.82
837.77	1687.53
837.94	1724.39
838.12	1732.58
838.29	1753.06
838.46	1624.04
838.63	1673.19
838.80	1736.68
838.97	1740.77
839.14	1712.10
839.31	1642.47
839.48	1730.53
839.65	1638.38
839.82	1767.40
839.99	1665.00
840.16	1730.53
840.33	1648.61
840.50	1689.57
840.67	1675.24
840.84	1626.09
841.01	1642.47
841.18	1665.00
841.35	1687.53
841.52	1800.16
841.69	1753.06
841.86	1654.76
842.03	1665.00
842.20	1763.30
842.37	1687.53
842.54	1710.05
842.71	1691.62
842.88	1626.09
843.05	1767.40
843.22	1710.05
843.39	1738.73
843.56	1677.29
843.73	1679.33
843.90	1726.44
844.07	1691.62
844.24	1722.34
844.41	1669.09
844.58	1691.62
844.75	1681.38
844.92	1697.77
845.09	1738.73
845.26	1562.60
845.43	1753.06
845.60	1689.57
845.77	1697.77
845.94	1695.72
846.10	1757.16
846.27	1650.66
846.44	1683.43
846.61	1617.90
846.78	1693.67
846.95	1681.38
847.12	1685.48
847.29	1679.33
847.46	1574.89
847.63	1771.49
847.80	1654.76
847.97	1648.61
848.14	1773.54
848.31	1673.19
848.48	1665.00
848.65	1640.42
848.82	1595.37
848.98	1865.70
849.15	1695.72
849.32	1757.16
849.49	1720.29
849.66	1718.25
849.83	1665.00
850.00	1607.66
850.17	1755.11
850.34	1705.96
850.51	1683.43
850.68	1716.20
850.85	1804.26
851.01	1742.82
851.18	1722.34
851.35	1669.09
851.52	1742.82
851.69	1765.35
851.86	1615.85
852.03	1642.47
852.20	1748.97
852.37	1683.43
852.53	1615.85
852.70	1658.85
852.87	1617.90
853.04	1740.77
853.21	1734.63
853.38	1783.78
853.55	1765.35
853.72	1728.49
853.89	1734.63
854.05	1693.67
854.22	1693.67
854.39	1660.90
854.56	1673.19
854.73	1791.97
854.90	1732.58
855.07	1724.39
855.23	1589.22
855.40	1642.47
855.57	1677.29
855.74	1626.09
855.91	1853.41
856.08	1667.05
856.25	1687.53
856.41	1642.47
856.58	1742.82
856.75	1683.43
856.92	1699.81
857.09	1755.11
857.26	1591.27
857.42	1716.20
857.59	1759.21
857.76	1691.62
857.93	1775.59
858.10	1679.33
858.27	1656.81
858.43	1609.70
858.60	1722.34
858.77	1576.94
858.94	1726.44
859.11	1697.77
859.27	1681.38
859.44	1724.39
859.61	1753.06
859.78	1746.92
859.95	1693.67
860.12	1673.19
860.28	1884.13
860.45	1779.68
860.62	1693.67
860.79	1714.15
860.95	1673.19
861.12	1689.57
861.29	1675.24
861.46	1683.43
861.63	1650.66
861.79	1677.29
861.96	1660.90
862.13	1675.24
862.30	1742.82
862.47	1621.99
862.63	1650.66
862.80	1763.30
862.97	1714.15
863.14	1763.30
863.30	1701.86
863.47	1644.52
863.64	1798.12
863.81	1800.16
863.97	1636.33
864.14	1710.05
864.31	1585.13
864.48	1751.01
864.65	1673.19
864.81	1673.19
864.98	1753.06
865.15	1722.34
865.32	1697.77
865.48	1728.49
865.65	1791.97
865.82	1689.57
865.98	1693.67
866.15	1708.01
866.32	1701.86
866.49	1722.34
866.65	1802.21
866.82	1652.71
866.99	1671.14
867.16	1665.00
867.32	1699.81
867.49	1701.86
867.66	1660.90
867.83	1632.23
867.99	1685.48
868.16	1662.95
868.33	1671.14
868.49	1626.09
868.66	1650.66
868.83	1789.92
868.99	1767.40
869.16	1701.86
869.33	1714.15
869.50	1712.10
869.66	1693.67
869.83	1693.67
870.00	1617.90
870.16	1728.49
870.33	1705.96
870.50	1699.81
870.66	1677.29
870.83	1791.97
871.00	1652.71
871.17	1648.61
871.33	1738.73
871.50	1656.81
871.67	1673.19
871.83	1570.79
872.00	1791.97
872.17	1671.14
872.33	1789.92
872.50	1798.12
872.67	1697.77
872.83	1605.61
873.00	1738.73
873.17	1724.39
873.33	1769.44
873.50	1697.77
873.67	1624.04
873.83	1581.03
874.00	1636.33
874.16	1783.78
874.33	1703.91
874.50	1609.70
874.66	1730.53
874.83	1665.00
875.00	1798.12
875.16	1728.49
875.33	1748.97
875.50	1599.46
875.66	1701.86
875.83	1730.53
875.99	1689.57
876.16	1673.19
876.33	1681.38
876.49	1681.38
876.66	1728.49
876.83	1736.68
876.99	1669.09
877.16	1722.34
877.32	1630.18
877.49	1613.80
877.66	1662.95
877.82	1763.30
877.99	1759.21
878.15	1796.07
878.32	1685.48
878.49	1773.54
878.65	1718.25
878.82	1775.59
878.98	1662.95
879.15	1761.25
879.32	1775.59
879.48	1611.75
879.65	1732.58
879.81	1667.05
879.98	1638.38
880.15	1701.86
880.31	1785.83
880.48	1650.66
880.64	1791.97
880.81	1677.29
880.97	1751.01
881.14	1775.59
881.31	1722.34
881.47	1863.65
881.64	1667.05
881.80	1652.71
881.97	1695.72
882.13	1718.25
882.30	1701.86
882.47	1708.01
882.63	1628.14
882.80	1660.90
882.96	1710.05
883.13	1730.53
883.29	1658.85
883.46	1669.09
883.62	1800.16
883.79	1761.25
883.95	1712.10
884.12	1665.00
884.29	1697.77
884.45	1697.77
884.62	1767.40
884.78	1712.10
884.95	1818.60
885.11	1689.57
885.28	1791.97
885.44	1667.05
885.61	1732.58
885.77	1767.40
885.94	1763.30
886.10	1677.29
886.27	1720.29
886.43	1767.40
886.60	1751.01
886.76	1658.85
886.93	1626.09
887.09	1777.64
887.26	1677.29
887.42	1697.77
887.59	1755.11
887.75	1822.69
887.92	1759.21
888.08	1798.12
888.25	1794.02
888.41	1652.71
888.58	1654.76
888.74	1630.18
888.91	1648.61
>>>>>End Processed Spectral Data<<<<<
