SpectraSuite Data File
++++++++++++++++++++++++++++++++++++
Date: Mon Jun 06 13:15:17 CEST 2016
User: root
Dark Spectrum Present: No
Reference Spectrum Present: No
Number of Sampled Component Spectra: 1
Spectrometers: USB4C02835
Integration Time (usec): 100000 (USB4C02835)
Spectra Averaged: 1 (USB4C02835)
Boxcar Smoothing: 0 (USB4C02835)
Correct for Electrical Dark: No (USB4C02835)
Strobe/Lamp Enabled: No (USB4C02835)
Correct for Detector Non-linearity: No (USB4C02835)
Correct for Stray Light: No (USB4C02835)
Number of Pixels in Processed Spectrum: 3648
>>>>>Begin Processed Spectral Data<<<<<
177.47	1472.49
177.69	1472.49
177.91	1472.49
178.13	1495.02
178.36	1400.81
178.58	1587.18
178.80	1675.24
179.02	1562.60
179.24	1669.09
179.46	1718.25
179.68	1742.82
179.90	1656.81
180.13	1667.05
180.35	1660.90
180.57	1675.24
180.79	1746.92
181.01	1685.48
181.23	1806.31
181.45	1779.68
181.67	1789.92
181.90	1718.25
182.12	1689.57
182.34	1628.14
182.56	1693.67
182.78	1771.49
183.00	1751.01
183.22	1652.71
183.44	1619.94
183.66	1869.80
183.89	1785.83
184.11	1724.39
184.33	1759.21
184.55	1751.01
184.77	1701.86
184.99	1771.49
185.21	1699.81
185.43	1796.07
185.65	1607.66
185.87	1738.73
186.10	1767.40
186.32	1783.78
186.54	1757.16
186.76	1761.25
186.98	1757.16
187.20	1691.62
187.42	1640.42
187.64	1710.05
187.86	1632.23
188.08	1822.69
188.30	1673.19
188.52	1677.29
188.75	1757.16
188.97	1779.68
189.19	1685.48
189.41	1669.09
189.63	1699.81
189.85	1697.77
190.07	1677.29
190.29	1656.81
190.51	1724.39
190.73	1658.85
190.95	1808.36
191.17	1675.24
191.39	1681.38
191.61	1669.09
191.84	1697.77
192.06	1753.06
192.28	1558.50
192.50	1839.08
192.72	1726.44
192.94	1695.72
193.16	1751.01
193.38	1671.14
193.60	1701.86
193.82	1650.66
194.04	1789.92
194.26	1691.62
194.48	1636.33
194.70	1654.76
194.92	1695.72
195.14	1742.82
195.36	1662.95
195.58	1638.38
195.80	1671.14
196.02	1667.05
196.24	1626.09
196.46	1724.39
196.69	1593.32
196.91	1718.25
197.13	1677.29
197.35	1644.52
197.57	1794.02
197.79	1708.01
198.01	1771.49
198.23	1683.43
198.45	1687.53
198.67	1624.04
198.89	1667.05
199.11	1757.16
199.33	1648.61
199.55	1617.90
199.77	1712.10
199.99	1746.92
200.21	1671.14
200.43	1775.59
200.65	1636.33
200.87	1578.98
201.09	1673.19
201.31	1640.42
201.53	1697.77
201.75	1730.53
201.97	1712.10
202.19	1775.59
202.41	1683.43
202.63	1816.55
202.85	1705.96
203.07	1755.11
203.29	1734.63
203.51	1607.66
203.73	1693.67
203.95	1841.12
204.17	1689.57
204.39	1697.77
204.61	1654.76
204.83	1697.77
205.05	1800.16
205.27	1730.53
205.49	1816.55
205.71	1642.47
205.93	1542.12
206.15	1646.57
206.37	1691.62
206.59	1646.57
206.81	1699.81
207.03	1681.38
207.25	1708.01
207.47	1705.96
207.69	1683.43
207.91	1746.92
208.13	1753.06
208.34	1755.11
208.56	1624.04
208.78	1751.01
209.00	1665.00
209.22	1677.29
209.44	1693.67
209.66	1605.61
209.88	1671.14
210.10	1689.57
210.32	1708.01
210.54	1738.73
210.76	1712.10
210.98	1708.01
211.20	1624.04
211.42	1656.81
211.64	1785.83
211.86	1748.97
212.08	1683.43
212.30	1671.14
212.52	1708.01
212.74	1673.19
212.96	1683.43
213.17	1738.73
213.39	1728.49
213.61	1771.49
213.83	1787.88
214.05	1615.85
214.27	1673.19
214.49	1619.94
214.71	1716.20
214.93	1746.92
215.15	1683.43
215.37	1720.29
215.59	1603.56
215.81	1738.73
216.03	1828.84
216.24	1697.77
216.46	1697.77
216.68	1689.57
216.90	1695.72
217.12	1742.82
217.34	1638.38
217.56	1773.54
217.78	1740.77
218.00	1687.53
218.22	1730.53
218.44	1736.68
218.66	1687.53
218.87	1787.88
219.09	1716.20
219.31	1757.16
219.53	1646.57
219.75	1660.90
219.97	1765.35
220.19	1675.24
220.41	1695.72
220.63	1837.03
220.85	1740.77
221.06	1619.94
221.28	1826.79
221.50	1734.63
221.72	1791.97
221.94	1699.81
222.16	1681.38
222.38	1724.39
222.60	1710.05
222.82	1695.72
223.03	1675.24
223.25	1648.61
223.47	1783.78
223.69	1763.30
223.91	1675.24
224.13	1769.44
224.35	1687.53
224.57	1767.40
224.78	1751.01
225.00	1626.09
225.22	1728.49
225.44	1689.57
225.66	1800.16
225.88	1703.91
226.10	1806.31
226.32	1718.25
226.53	1863.65
226.75	1683.43
226.97	1662.95
227.19	1714.15
227.41	1654.76
227.63	1613.80
227.85	1558.50
228.06	1699.81
228.28	1679.33
228.50	1742.82
228.72	1636.33
228.94	1576.94
229.16	1603.56
229.37	1648.61
229.59	1705.96
229.81	1742.82
230.03	1671.14
230.25	1548.26
230.47	1593.32
230.69	1644.52
230.90	1771.49
231.12	1720.29
231.34	1716.20
231.56	1787.88
231.78	1681.38
232.00	1720.29
232.21	1677.29
232.43	1705.96
232.65	1599.46
232.87	1656.81
233.09	1679.33
233.30	1681.38
233.52	1769.44
233.74	1669.09
233.96	1611.75
234.18	1718.25
234.40	1673.19
234.61	1765.35
234.83	1660.90
235.05	1681.38
235.27	1814.50
235.49	1783.78
235.70	1781.73
235.92	1732.58
236.14	1748.97
236.36	1851.36
236.58	1656.81
236.79	1761.25
237.01	1693.67
237.23	1755.11
237.45	1789.92
237.67	1716.20
237.88	1679.33
238.10	1804.26
238.32	1656.81
238.54	1726.44
238.76	1730.53
238.97	1697.77
239.19	1626.09
239.41	1763.30
239.63	1730.53
239.85	1669.09
240.06	1644.52
240.28	1638.38
240.50	1738.73
240.72	1689.57
240.93	1615.85
241.15	1777.64
241.37	1681.38
241.59	1757.16
241.81	1710.05
242.02	1681.38
242.24	1677.29
242.46	1771.49
242.68	1587.18
242.89	1773.54
243.11	1804.26
243.33	1734.63
243.55	1734.63
243.76	1775.59
243.98	1724.39
244.20	1609.70
244.42	1755.11
244.64	1667.05
244.85	1658.85
245.07	1687.53
245.29	1769.44
245.51	1753.06
245.72	1726.44
245.94	1699.81
246.16	1669.09
246.38	1753.06
246.59	1632.23
246.81	1658.85
247.03	1626.09
247.24	1609.70
247.46	1693.67
247.68	1660.90
247.90	1669.09
248.11	1687.53
248.33	1771.49
248.55	1703.91
248.77	1665.00
248.98	1767.40
249.20	1796.07
249.42	1693.67
249.64	1730.53
249.85	1718.25
250.07	1673.19
250.29	1738.73
250.50	1759.21
250.72	1660.90
250.94	1681.38
251.16	1816.55
251.37	1771.49
251.59	1765.35
251.81	1787.88
252.02	1771.49
252.24	1705.96
252.46	1832.93
252.68	1771.49
252.89	1656.81
253.11	1691.62
253.33	1746.92
253.54	1757.16
253.76	1679.33
253.98	1683.43
254.20	1722.34
254.41	1652.71
254.63	1726.44
254.85	1638.38
255.06	1681.38
255.28	1708.01
255.50	1705.96
255.71	1681.38
255.93	1701.86
256.15	1658.85
256.36	1701.86
256.58	1708.01
256.80	1798.12
257.02	1656.81
257.23	1660.90
257.45	1681.38
257.67	1783.78
257.88	1652.71
258.10	1650.66
258.32	1726.44
258.53	1705.96
258.75	1751.01
258.97	1630.18
259.18	1638.38
259.40	1671.14
259.62	1837.03
259.83	1896.42
260.05	1771.49
260.27	1900.52
260.48	1748.97
260.70	1615.85
260.92	1689.57
261.13	1730.53
261.35	1763.30
261.57	1779.68
261.78	1607.66
262.00	1624.04
262.22	1710.05
262.43	1699.81
262.65	1671.14
262.86	1738.73
263.08	1865.70
263.30	1710.05
263.51	1648.61
263.73	1630.18
263.95	1851.36
264.16	1644.52
264.38	1660.90
264.60	1726.44
264.81	1667.05
265.03	1738.73
265.25	1759.21
265.46	1675.24
265.68	1718.25
265.89	1789.92
266.11	1644.52
266.33	1742.82
266.54	1744.87
266.76	1669.09
266.98	1650.66
267.19	1810.40
267.41	1660.90
267.62	1652.71
267.84	1636.33
268.06	1785.83
268.27	1791.97
268.49	1746.92
268.70	1763.30
268.92	1753.06
269.14	1683.43
269.35	1679.33
269.57	1775.59
269.79	1757.16
270.00	1646.57
270.22	1828.84
270.43	1665.00
270.65	1642.47
270.87	1632.23
271.08	1755.11
271.30	1728.49
271.51	1675.24
271.73	1712.10
271.95	1853.41
272.16	1697.77
272.38	1722.34
272.59	1748.97
272.81	1755.11
273.02	1728.49
273.24	1703.91
273.46	1675.24
273.67	1646.57
273.89	1628.14
274.10	1724.39
274.32	1755.11
274.54	1751.01
274.75	1699.81
274.97	1740.77
275.18	1710.05
275.40	1730.53
275.61	1658.85
275.83	1685.48
276.05	1615.85
276.26	1726.44
276.48	1728.49
276.69	1675.24
276.91	1597.42
277.12	1742.82
277.34	1763.30
277.55	1724.39
277.77	1681.38
277.99	1705.96
278.20	1675.24
278.42	1730.53
278.63	1667.05
278.85	1638.38
279.06	1587.18
279.28	1699.81
279.49	1822.69
279.71	1718.25
279.93	1761.25
280.14	1683.43
280.36	1607.66
280.57	1746.92
280.79	1765.35
281.00	1648.61
281.22	1695.72
281.43	1665.00
281.65	1564.65
281.86	1662.95
282.08	1710.05
282.29	1847.27
282.51	1597.42
282.73	1564.65
282.94	1576.94
283.16	1699.81
283.37	1882.08
283.59	1683.43
283.80	1714.15
284.02	1722.34
284.23	1683.43
284.45	1693.67
284.66	1650.66
284.88	1628.14
285.09	1681.38
285.31	1720.29
285.52	1714.15
285.74	1685.48
285.95	1759.21
286.17	1691.62
286.38	1714.15
286.60	1656.81
286.81	1716.20
287.03	1695.72
287.24	1687.53
287.46	1683.43
287.67	1677.29
287.89	1798.12
288.10	1708.01
288.32	1720.29
288.53	1820.64
288.75	1691.62
288.96	1685.48
289.18	1693.67
289.39	1744.87
289.61	1699.81
289.82	1804.26
290.04	1728.49
290.25	1572.84
290.47	1703.91
290.68	1624.04
290.90	1708.01
291.11	1607.66
291.33	1771.49
291.54	1648.61
291.76	1712.10
291.97	1689.57
292.18	1701.86
292.40	1728.49
292.61	1697.77
292.83	1728.49
293.04	1710.05
293.26	1681.38
293.47	1761.25
293.69	1599.46
293.90	1658.85
294.12	1757.16
294.33	1708.01
294.55	1734.63
294.76	1873.89
294.97	1771.49
295.19	1851.36
295.40	1640.42
295.62	1716.20
295.83	1671.14
296.05	1740.77
296.26	1779.68
296.48	1673.19
296.69	1740.77
296.90	1714.15
297.12	1837.03
297.33	1763.30
297.55	1720.29
297.76	1742.82
297.98	1703.91
298.19	1687.53
298.41	1722.34
298.62	1697.77
298.83	1845.22
299.05	1720.29
299.26	1640.42
299.48	1671.14
299.69	1726.44
299.90	1736.68
300.12	1708.01
300.33	1724.39
300.55	1710.05
300.76	1773.54
300.98	1662.95
301.19	1714.15
301.40	1665.00
301.62	1701.86
301.83	1740.77
302.05	1726.44
302.26	1724.39
302.47	1710.05
302.69	1652.71
302.90	1736.68
303.12	1587.18
303.33	1681.38
303.54	1789.92
303.76	1667.05
303.97	1658.85
304.19	1773.54
304.40	1607.66
304.61	1775.59
304.83	1738.73
305.04	1808.36
305.26	1705.96
305.47	1644.52
305.68	1634.28
305.90	1597.42
306.11	1798.12
306.33	1642.47
306.54	1660.90
306.75	1695.72
306.97	1619.94
307.18	1566.70
307.39	1605.61
307.61	1753.06
307.82	1697.77
308.04	1738.73
308.25	1667.05
308.46	1714.15
308.68	1703.91
308.89	1712.10
309.10	1773.54
309.32	1714.15
309.53	1671.14
309.74	1724.39
309.96	1693.67
310.17	1726.44
310.39	1675.24
310.60	1736.68
310.81	1732.58
311.03	1628.14
311.24	1757.16
311.45	1689.57
311.67	1818.60
311.88	1660.90
312.09	1683.43
312.31	1683.43
312.52	1695.72
312.73	1742.82
312.95	1626.09
313.16	1644.52
313.37	1734.63
313.59	1781.73
313.80	1767.40
314.01	1722.34
314.23	1722.34
314.44	1710.05
314.65	1615.85
314.87	1665.00
315.08	1652.71
315.29	1550.31
315.51	1687.53
315.72	1660.90
315.93	1755.11
316.15	1783.78
316.36	1650.66
316.57	1683.43
316.79	1673.19
317.00	1677.29
317.21	1728.49
317.43	1544.17
317.64	1656.81
317.85	1621.99
318.07	1726.44
318.28	1763.30
318.49	1847.27
318.70	1892.32
318.92	1806.31
319.13	1853.41
319.34	1818.60
319.56	1722.34
319.77	1775.59
319.98	1806.31
320.20	1765.35
320.41	1740.77
320.62	1705.96
320.83	1656.81
321.05	1777.64
321.26	1681.38
321.47	1628.14
321.69	1787.88
321.90	1630.18
322.11	1638.38
322.32	1677.29
322.54	1804.26
322.75	1796.07
322.96	1884.13
323.18	1646.57
323.39	1587.18
323.60	1587.18
323.81	1783.78
324.03	1679.33
324.24	1611.75
324.45	1677.29
324.66	1724.39
324.88	1734.63
325.09	1802.21
325.30	1730.53
325.52	1771.49
325.73	1753.06
325.94	1677.29
326.15	1609.70
326.37	1705.96
326.58	1691.62
326.79	1738.73
327.00	1654.76
327.22	1673.19
327.43	1673.19
327.64	1591.27
327.85	1662.95
328.07	1712.10
328.28	1697.77
328.49	1716.20
328.70	1734.63
328.92	1701.86
329.13	1665.00
329.34	1738.73
329.55	1781.73
329.76	1732.58
329.98	1673.19
330.19	1763.30
330.40	1732.58
330.61	1748.97
330.83	1755.11
331.04	1624.04
331.25	1724.39
331.46	1665.00
331.68	1632.23
331.89	1789.92
332.10	1685.48
332.31	1681.38
332.52	1693.67
332.74	1759.21
332.95	1662.95
333.16	1763.30
333.37	1728.49
333.58	1667.05
333.80	1740.77
334.01	1521.64
334.22	1644.52
334.43	1644.52
334.64	1621.99
334.86	1681.38
335.07	1677.29
335.28	1863.65
335.49	1648.61
335.70	1716.20
335.92	1740.77
336.13	1794.02
336.34	1697.77
336.55	1662.95
336.76	1703.91
336.98	1642.47
337.19	1785.83
337.40	1771.49
337.61	1837.03
337.82	1662.95
338.04	1736.68
338.25	1693.67
338.46	1650.66
338.67	1685.48
338.88	1665.00
339.09	1619.94
339.31	1703.91
339.52	1656.81
339.73	1597.42
339.94	1730.53
340.15	1816.55
340.36	1673.19
340.58	1687.53
340.79	1548.26
341.00	1753.06
341.21	1640.42
341.42	1765.35
341.63	1687.53
341.85	1771.49
342.06	1677.29
342.27	1652.71
342.48	1712.10
342.69	1669.09
342.90	1769.44
343.12	1798.12
343.33	1640.42
343.54	1726.44
343.75	1769.44
343.96	1683.43
344.17	1693.67
344.38	1671.14
344.60	1634.28
344.81	1652.71
345.02	1722.34
345.23	1748.97
345.44	1779.68
345.65	1671.14
345.86	1740.77
346.07	1650.66
346.29	1632.23
346.50	1728.49
346.71	1730.53
346.92	1710.05
347.13	1812.45
347.34	1654.76
347.55	1681.38
347.76	1660.90
347.98	1624.04
348.19	1697.77
348.40	1787.88
348.61	1665.00
348.82	1726.44
349.03	1742.82
349.24	1662.95
349.45	1832.93
349.66	1587.18
349.88	1679.33
350.09	1710.05
350.30	1769.44
350.51	1781.73
350.72	1712.10
350.93	1648.61
351.14	1585.13
351.35	1683.43
351.56	1665.00
351.77	1656.81
351.99	1726.44
352.20	1726.44
352.41	1705.96
352.62	1605.61
352.83	1642.47
353.04	1718.25
353.25	1640.42
353.46	1732.58
353.67	1667.05
353.88	1581.03
354.09	1771.49
354.30	1679.33
354.52	1748.97
354.73	1665.00
354.94	1673.19
355.15	1697.77
355.36	1730.53
355.57	1615.85
355.78	1769.44
355.99	1673.19
356.20	1656.81
356.41	1755.11
356.62	1648.61
356.83	1746.92
357.04	1763.30
357.25	1583.08
357.46	1765.35
357.68	1636.33
357.89	1626.09
358.10	1634.28
358.31	1667.05
358.52	1697.77
358.73	1566.70
358.94	1638.38
359.15	1724.39
359.36	1779.68
359.57	1728.49
359.78	1685.48
359.99	1732.58
360.20	1681.38
360.41	1656.81
360.62	1773.54
360.83	1701.86
361.04	1658.85
361.25	1728.49
361.46	1771.49
361.67	1720.29
361.88	1748.97
362.09	1787.88
362.30	1710.05
362.51	1650.66
362.72	1681.38
362.93	1787.88
363.14	1775.59
363.35	1738.73
363.56	1646.57
363.78	1816.55
363.99	1841.12
364.20	1619.94
364.41	1708.01
364.62	1732.58
364.83	1683.43
365.04	1697.77
365.25	1712.10
365.46	1738.73
365.67	1658.85
365.88	1648.61
366.09	1689.57
366.30	1667.05
366.51	1689.57
366.72	1650.66
366.93	1722.34
367.14	1732.58
367.35	1722.34
367.56	1712.10
367.77	1761.25
367.98	1611.75
368.18	1726.44
368.39	1742.82
368.60	1638.38
368.81	1777.64
369.02	1642.47
369.23	1685.48
369.44	1605.61
369.65	1744.87
369.86	1675.24
370.07	1789.92
370.28	1665.00
370.49	1722.34
370.70	1714.15
370.91	1621.99
371.12	1558.50
371.33	1705.96
371.54	1626.09
371.75	1779.68
371.96	1591.27
372.17	1654.76
372.38	1681.38
372.59	1738.73
372.80	1656.81
373.01	1714.15
373.22	1708.01
373.43	1736.68
373.64	1615.85
373.85	1843.17
374.06	1753.06
374.26	1816.55
374.47	1787.88
374.68	1742.82
374.89	1753.06
375.10	1665.00
375.31	1783.78
375.52	1660.90
375.73	1691.62
375.94	1718.25
376.15	1791.97
376.36	1642.47
376.57	1624.04
376.78	1648.61
376.99	1748.97
377.20	1767.40
377.40	1656.81
377.61	1703.91
377.82	1656.81
378.03	1708.01
378.24	1644.52
378.45	1722.34
378.66	1697.77
378.87	1638.38
379.08	1495.02
379.29	1697.77
379.50	1761.25
379.71	1671.14
379.91	1740.77
380.12	1718.25
380.33	1681.38
380.54	1642.47
380.75	1755.11
380.96	1693.67
381.17	1796.07
381.38	1796.07
381.59	1761.25
381.80	1736.68
382.00	1830.88
382.21	1744.87
382.42	1865.70
382.63	1861.60
382.84	1775.59
383.05	1742.82
383.26	1814.50
383.47	1761.25
383.68	1800.16
383.88	1726.44
384.09	1654.76
384.30	1787.88
384.51	1765.35
384.72	1699.81
384.93	1552.36
385.14	1703.91
385.35	1771.49
385.55	1615.85
385.76	1822.69
385.97	1742.82
386.18	1650.66
386.39	1658.85
386.60	1722.34
386.81	1650.66
387.02	1619.94
387.22	1691.62
387.43	1775.59
387.64	1781.73
387.85	1884.13
388.06	2199.52
388.27	4245.44
388.48	6936.47
388.68	8173.44
388.89	9461.62
389.10	9783.15
389.31	8497.02
389.52	7620.49
389.73	6786.97
389.93	6260.64
390.14	5937.06
390.35	5242.80
390.56	4587.45
390.77	3710.92
390.98	3024.85
391.18	2379.74
391.39	2172.89
391.60	1849.32
391.81	1730.53
392.02	1748.97
392.23	1796.07
392.43	1738.73
392.64	1888.23
392.85	1796.07
393.06	1869.80
393.27	1689.57
393.47	1701.86
393.68	1656.81
393.89	1695.72
394.10	1789.92
394.31	1619.94
394.52	1642.47
394.72	1716.20
394.93	1779.68
395.14	1656.81
395.35	1755.11
395.56	1632.23
395.76	1701.86
395.97	1730.53
396.18	1849.32
396.39	1869.80
396.60	1961.95
396.80	1880.04
397.01	1875.94
397.22	1771.49
397.43	1806.31
397.64	1726.44
397.84	1755.11
398.05	1771.49
398.26	1761.25
398.47	1796.07
398.67	1753.06
398.88	1722.34
399.09	1744.87
399.30	1730.53
399.51	1812.45
399.71	1611.75
399.92	1722.34
400.13	1722.34
400.34	1669.09
400.54	1677.29
400.75	1789.92
400.96	1759.21
401.17	1837.03
401.37	1744.87
401.58	1720.29
401.79	1724.39
402.00	1925.09
402.21	2009.06
402.41	1933.28
402.62	1992.67
402.83	2041.82
403.04	1877.99
403.24	2088.93
403.45	1906.66
403.66	1863.65
403.87	1816.55
404.07	1841.12
404.28	1867.75
404.49	1888.23
404.70	1767.40
404.90	1751.01
405.11	1718.25
405.32	1716.20
405.52	1685.48
405.73	1718.25
405.94	1642.47
406.15	1617.90
406.35	1675.24
406.56	1761.25
406.77	1759.21
406.98	1734.63
407.18	1578.98
407.39	1751.01
407.60	1726.44
407.80	1716.20
408.01	1642.47
408.22	1671.14
408.43	1714.15
408.63	1742.82
408.84	1730.53
409.05	1615.85
409.25	1679.33
409.46	1675.24
409.67	1714.15
409.88	1732.58
410.08	1724.39
410.29	1691.62
410.50	1720.29
410.70	1724.39
410.91	1683.43
411.12	1781.73
411.32	1720.29
411.53	1714.15
411.74	1740.77
411.95	1767.40
412.15	1703.91
412.36	1781.73
412.57	1759.21
412.77	1832.93
412.98	1753.06
413.19	1724.39
413.39	1763.30
413.60	1697.77
413.81	1757.16
414.01	1646.57
414.22	1730.53
414.43	1796.07
414.63	1742.82
414.84	1777.64
415.05	1783.78
415.25	1613.80
415.46	1734.63
415.67	1693.67
415.87	1701.86
416.08	1691.62
416.29	1677.29
416.49	1779.68
416.70	1740.77
416.91	1667.05
417.11	1656.81
417.32	1748.97
417.53	1755.11
417.73	1775.59
417.94	1636.33
418.15	1732.58
418.35	1671.14
418.56	1796.07
418.77	1808.36
418.97	1636.33
419.18	1783.78
419.38	1607.66
419.59	1646.57
419.80	1855.46
420.00	1712.10
420.21	1687.53
420.42	1753.06
420.62	1699.81
420.83	1603.56
421.04	1677.29
421.24	1703.91
421.45	1775.59
421.65	1775.59
421.86	1722.34
422.07	1755.11
422.27	1785.83
422.48	1748.97
422.69	1644.52
422.89	1640.42
423.10	1605.61
423.30	1615.85
423.51	1757.16
423.72	1740.77
423.92	1746.92
424.13	1648.61
424.33	1650.66
424.54	1714.15
424.75	1722.34
424.95	1742.82
425.16	1777.64
425.36	1669.09
425.57	1783.78
425.78	1701.86
425.98	1761.25
426.19	1726.44
426.39	1626.09
426.60	1656.81
426.81	1759.21
427.01	1732.58
427.22	1591.27
427.42	1652.71
427.63	1677.29
427.83	1763.30
428.04	1787.88
428.25	1771.49
428.45	1857.51
428.66	1783.78
428.86	1751.01
429.07	1660.90
429.28	1705.96
429.48	1619.94
429.69	1669.09
429.89	1626.09
430.10	1673.19
430.30	1687.53
430.51	1732.58
430.71	1632.23
430.92	1667.05
431.13	1732.58
431.33	1730.53
431.54	1769.44
431.74	1845.22
431.95	1863.65
432.15	1619.94
432.36	1671.14
432.56	1804.26
432.77	1820.64
432.98	1708.01
433.18	1714.15
433.39	1712.10
433.59	1644.52
433.80	1804.26
434.00	1882.08
434.21	1705.96
434.41	1621.99
434.62	1832.93
434.82	1687.53
435.03	1689.57
435.23	1755.11
435.44	1626.09
435.64	1732.58
435.85	1736.68
436.06	1841.12
436.26	1761.25
436.47	1708.01
436.67	1675.24
436.88	1720.29
437.08	1765.35
437.29	1744.87
437.49	1726.44
437.70	1796.07
437.90	1683.43
438.11	1869.80
438.31	1777.64
438.52	1890.28
438.72	1869.80
438.93	1978.34
439.13	1820.64
439.34	1759.21
439.54	1767.40
439.75	1757.16
439.95	1748.97
440.16	1714.15
440.36	1691.62
440.57	1652.71
440.77	1708.01
440.98	1736.68
441.18	1773.54
441.39	1652.71
441.59	1669.09
441.80	1800.16
442.00	1726.44
442.21	1755.11
442.41	1665.00
442.62	1789.92
442.82	1646.57
443.02	1728.49
443.23	1800.16
443.43	1708.01
443.64	1839.08
443.84	1695.72
444.05	1783.78
444.25	1679.33
444.46	1683.43
444.66	1703.91
444.87	1781.73
445.07	1619.94
445.28	1677.29
445.48	1826.79
445.69	1734.63
445.89	1890.28
446.09	1738.73
446.30	1949.67
446.50	2656.22
446.71	3692.49
446.91	4196.29
447.12	4777.91
447.32	4825.01
447.53	4265.92
447.73	3813.32
447.93	3549.13
448.14	3278.80
448.34	3256.27
448.55	2883.54
448.75	2772.95
448.96	2746.33
449.16	2412.51
449.36	2248.67
449.57	2045.92
449.77	1857.51
449.98	1818.60
450.18	1853.41
450.39	1816.55
450.59	1769.44
450.79	1751.01
451.00	1699.81
451.20	1761.25
451.41	1714.15
451.61	1728.49
451.81	1732.58
452.02	1738.73
452.22	1638.38
452.43	1695.72
452.63	1726.44
452.84	1791.97
453.04	1757.16
453.24	1751.01
453.45	1728.49
453.65	1812.45
453.86	1744.87
454.06	1640.42
454.26	1767.40
454.47	1685.48
454.67	1714.15
454.87	1718.25
455.08	1773.54
455.28	1920.99
455.49	1759.21
455.69	1679.33
455.89	1886.18
456.10	1818.60
456.30	1710.05
456.51	1767.40
456.71	1794.02
456.91	1785.83
457.12	1746.92
457.32	1710.05
457.52	1636.33
457.73	1796.07
457.93	1771.49
458.14	1697.77
458.34	1636.33
458.54	1748.97
458.75	1724.39
458.95	1742.82
459.15	1773.54
459.36	1716.20
459.56	1796.07
459.76	1767.40
459.97	1746.92
460.17	1769.44
460.37	1726.44
460.58	1693.67
460.78	1710.05
460.99	1714.15
461.19	1689.57
461.39	1714.15
461.60	1714.15
461.80	1794.02
462.00	1609.70
462.21	1685.48
462.41	1648.61
462.61	1726.44
462.82	1626.09
463.02	1740.77
463.22	1779.68
463.43	1802.21
463.63	1791.97
463.83	1828.84
464.04	1771.49
464.24	1710.05
464.44	1654.76
464.64	1755.11
464.85	1755.11
465.05	1796.07
465.25	1742.82
465.46	1669.09
465.66	1802.21
465.86	1787.88
466.07	1742.82
466.27	1751.01
466.47	1701.86
466.68	1685.48
466.88	1800.16
467.08	1810.40
467.29	1732.58
467.49	1712.10
467.69	1665.00
467.89	1751.01
468.10	1740.77
468.30	1689.57
468.50	1746.92
468.71	1730.53
468.91	1665.00
469.11	1834.98
469.31	1779.68
469.52	1669.09
469.72	1796.07
469.92	1755.11
470.13	1701.86
470.33	1748.97
470.53	1906.66
470.73	2000.87
470.94	2312.16
471.14	2346.97
471.34	2521.05
471.54	2424.80
471.75	2287.58
471.95	2172.89
472.15	2060.26
472.36	2066.40
472.56	2045.92
472.76	2093.02
472.96	2031.58
473.17	1890.28
473.37	1882.08
473.57	1722.34
473.77	1810.40
473.98	1746.92
474.18	1658.85
474.38	1867.75
474.58	1640.42
474.79	1632.23
474.99	1701.86
475.19	1804.26
475.39	1656.81
475.60	1685.48
475.80	1746.92
476.00	1726.44
476.20	1689.57
476.41	1718.25
476.61	1785.83
476.81	1757.16
477.01	1705.96
477.21	1824.74
477.42	1783.78
477.62	1693.67
477.82	1736.68
478.02	1722.34
478.23	1742.82
478.43	1767.40
478.63	1642.47
478.83	1650.66
479.03	1724.39
479.24	1761.25
479.44	1873.89
479.64	1669.09
479.84	1568.74
480.04	1662.95
480.25	1755.11
480.45	1714.15
480.65	1671.14
480.85	1767.40
481.06	1683.43
481.26	1701.86
481.46	1824.74
481.66	1736.68
481.86	1626.09
482.06	1806.31
482.27	1685.48
482.47	1611.75
482.67	1746.92
482.87	1693.67
483.07	1794.02
483.28	1632.23
483.48	1679.33
483.68	1742.82
483.88	1665.00
484.08	1574.89
484.29	1722.34
484.49	1742.82
484.69	1722.34
484.89	1798.12
485.09	1773.54
485.29	1767.40
485.50	1837.03
485.70	1632.23
485.90	1738.73
486.10	1742.82
486.30	1781.73
486.50	1773.54
486.71	1714.15
486.91	1814.50
487.11	1746.92
487.31	1660.90
487.51	1724.39
487.71	1693.67
487.91	1640.42
488.12	1724.39
488.32	1603.56
488.52	1652.71
488.72	1609.70
488.92	1751.01
489.12	1714.15
489.32	1751.01
489.53	1740.77
489.73	1619.94
489.93	1830.88
490.13	1710.05
490.33	1640.42
490.53	1703.91
490.73	1714.15
490.94	1656.81
491.14	1798.12
491.34	1834.98
491.54	2170.85
491.74	2498.52
491.94	3035.09
492.14	2951.12
492.34	2965.46
492.54	2713.56
492.75	2471.90
492.95	2478.04
493.15	2265.05
493.35	2224.09
493.55	2222.05
493.75	2193.37
493.95	2074.59
494.15	1990.63
494.35	1867.75
494.56	1871.84
494.76	1783.78
494.96	1818.60
495.16	1810.40
495.36	1673.19
495.56	1753.06
495.76	1701.86
495.96	1667.05
496.16	1650.66
496.36	1794.02
496.56	1771.49
496.77	1738.73
496.97	1689.57
497.17	1789.92
497.37	1648.61
497.57	1769.44
497.77	1710.05
497.97	1675.24
498.17	1755.11
498.37	1656.81
498.57	1746.92
498.77	1679.33
498.97	1796.07
499.17	1804.26
499.38	1732.58
499.58	1841.12
499.78	1843.17
499.98	1800.16
500.18	1693.67
500.38	1716.20
500.58	1890.28
500.78	2490.33
500.98	4499.39
501.18	5646.25
501.38	6746.01
501.58	7098.26
501.78	6668.19
501.98	5558.19
502.18	4984.76
502.38	4380.61
502.58	4177.86
502.78	3729.35
502.98	3633.10
503.18	3358.67
503.38	3147.73
503.59	2869.20
503.79	2738.13
503.99	2457.56
504.19	2324.44
504.39	2215.90
504.59	2181.09
504.79	2174.94
504.99	2013.15
505.19	1892.32
505.39	1939.43
505.59	1951.71
505.79	1837.03
505.99	1839.08
506.19	1802.21
506.39	1828.84
506.59	1732.58
506.79	1781.73
506.99	1818.60
507.19	1822.69
507.39	1826.79
507.59	1722.34
507.79	1677.29
507.99	1695.72
508.19	1728.49
508.39	1714.15
508.59	1669.09
508.79	1769.44
508.99	1798.12
509.19	1736.68
509.39	1728.49
509.59	1703.91
509.79	1695.72
509.99	1773.54
510.19	1802.21
510.39	1718.25
510.59	1794.02
510.79	1720.29
510.99	1726.44
511.19	1740.77
511.39	1728.49
511.59	1794.02
511.79	1771.49
511.99	1732.58
512.19	1736.68
512.38	1720.29
512.58	1712.10
512.78	1716.20
512.98	1808.36
513.18	1777.64
513.38	1581.03
513.58	1705.96
513.78	1791.97
513.98	1755.11
514.18	1730.53
514.38	1755.11
514.58	1738.73
514.78	1689.57
514.98	1660.90
515.18	1716.20
515.38	1658.85
515.58	1818.60
515.78	1710.05
515.98	1775.59
516.18	1683.43
516.38	1730.53
516.57	1687.53
516.77	1734.63
516.97	1724.39
517.17	1662.95
517.37	1626.09
517.57	1812.45
517.77	1634.28
517.97	1701.86
518.17	1767.40
518.37	1751.01
518.57	1685.48
518.77	1755.11
518.97	1736.68
519.16	1759.21
519.36	1748.97
519.56	1722.34
519.76	1714.15
519.96	1761.25
520.16	1822.69
520.36	1722.34
520.56	1779.68
520.76	1701.86
520.96	1755.11
521.16	1699.81
521.35	1791.97
521.55	1806.31
521.75	1736.68
521.95	1685.48
522.15	1662.95
522.35	1681.38
522.55	1679.33
522.75	1789.92
522.95	1736.68
523.14	1662.95
523.34	1765.35
523.54	1705.96
523.74	1730.53
523.94	1746.92
524.14	1644.52
524.34	1718.25
524.54	1800.16
524.73	1730.53
524.93	1759.21
525.13	1748.97
525.33	1605.61
525.53	1906.66
525.73	1785.83
525.93	1798.12
526.13	1640.42
526.32	1699.81
526.52	1806.31
526.72	1789.92
526.92	1710.05
527.12	1675.24
527.32	1640.42
527.52	1736.68
527.71	1775.59
527.91	1738.73
528.11	1740.77
528.31	1660.90
528.51	1607.66
528.71	1755.11
528.90	1763.30
529.10	1800.16
529.30	1892.32
529.50	1570.79
529.70	1755.11
529.90	1691.62
530.09	1710.05
530.29	1646.57
530.49	1648.61
530.69	1865.70
530.89	1699.81
531.09	1779.68
531.28	1660.90
531.48	1759.21
531.68	1724.39
531.88	1728.49
532.08	1761.25
532.28	1744.87
532.47	1708.01
532.67	1806.31
532.87	1730.53
533.07	1685.48
533.27	1726.44
533.46	1759.21
533.66	1787.88
533.86	1697.77
534.06	1722.34
534.26	1728.49
534.45	1595.37
534.65	1834.98
534.85	1689.57
535.05	1710.05
535.25	1779.68
535.44	1705.96
535.64	1814.50
535.84	1705.96
536.04	1773.54
536.24	1669.09
536.43	1726.44
536.63	1693.67
536.83	1689.57
537.03	1710.05
537.22	1589.22
537.42	1665.00
537.62	1753.06
537.82	1746.92
538.02	1847.27
538.21	1787.88
538.41	1873.89
538.61	1648.61
538.81	1736.68
539.00	1746.92
539.20	1605.61
539.40	1771.49
539.60	1798.12
539.79	1730.53
539.99	1787.88
540.19	1615.85
540.39	1708.01
540.58	1720.29
540.78	1798.12
540.98	1779.68
541.18	1808.36
541.37	1742.82
541.57	1744.87
541.77	1728.49
541.97	1740.77
542.16	1708.01
542.36	1691.62
542.56	1613.80
542.76	1837.03
542.95	1736.68
543.15	1783.78
543.35	1732.58
543.54	1720.29
543.74	1730.53
543.94	1812.45
544.14	1705.96
544.33	1728.49
544.53	1746.92
544.73	1726.44
544.93	1710.05
545.12	1796.07
545.32	1736.68
545.52	1701.86
545.71	1693.67
545.91	1689.57
546.11	1665.00
546.30	1683.43
546.50	1746.92
546.70	1808.36
546.90	1841.12
547.09	1634.28
547.29	1714.15
547.49	1697.77
547.68	1718.25
547.88	1669.09
548.08	1796.07
548.27	2121.70
548.47	1718.25
548.67	1740.77
548.87	1781.73
549.06	1683.43
549.26	1779.68
549.46	1738.73
549.65	1628.14
549.85	1806.31
550.05	1779.68
550.24	1654.76
550.44	1687.53
550.64	1691.62
550.83	1671.14
551.03	1812.45
551.23	1814.50
551.42	1757.16
551.62	1738.73
551.82	1740.77
552.01	1755.11
552.21	1759.21
552.41	1740.77
552.60	1781.73
552.80	1761.25
553.00	1648.61
553.19	1705.96
553.39	1863.65
553.59	1763.30
553.78	1738.73
553.98	1708.01
554.17	1654.76
554.37	1736.68
554.57	1789.92
554.76	1624.04
554.96	1705.96
555.16	1675.24
555.35	1740.77
555.55	1746.92
555.75	1800.16
555.94	1816.55
556.14	1722.34
556.33	1765.35
556.53	1685.48
556.73	1806.31
556.92	1761.25
557.12	1845.22
557.32	1777.64
557.51	1789.92
557.71	1781.73
557.90	1736.68
558.10	1771.49
558.30	1775.59
558.49	1787.88
558.69	1716.20
558.88	1730.53
559.08	1660.90
559.28	1720.29
559.47	1667.05
559.67	1791.97
559.86	1826.79
560.06	1761.25
560.26	1722.34
560.45	1767.40
560.65	1734.63
560.84	1791.97
561.04	1738.73
561.24	1699.81
561.43	1656.81
561.63	1800.16
561.82	1732.58
562.02	1810.40
562.22	1724.39
562.41	1658.85
562.61	1701.86
562.80	1665.00
563.00	1855.46
563.19	1724.39
563.39	1744.87
563.59	1771.49
563.78	1691.62
563.98	1603.56
564.17	1722.34
564.37	1724.39
564.56	1693.67
564.76	1605.61
564.96	1767.40
565.15	1703.91
565.35	1853.41
565.54	1681.38
565.74	1759.21
565.93	1755.11
566.13	1716.20
566.32	1781.73
566.52	1701.86
566.71	1724.39
566.91	1781.73
567.11	1769.44
567.30	1767.40
567.50	1738.73
567.69	1708.01
567.89	1722.34
568.08	1669.09
568.28	1734.63
568.47	1730.53
568.67	1789.92
568.86	1710.05
569.06	1806.31
569.25	1736.68
569.45	1648.61
569.64	1693.67
569.84	1699.81
570.04	1732.58
570.23	1708.01
570.43	1736.68
570.62	1820.64
570.82	1777.64
571.01	1681.38
571.21	1615.85
571.40	1671.14
571.60	1781.73
571.79	1705.96
571.99	1730.53
572.18	1712.10
572.38	1718.25
572.57	1791.97
572.77	1798.12
572.96	1849.32
573.16	1746.92
573.35	1705.96
573.55	1910.75
573.74	1759.21
573.94	1685.48
574.13	1718.25
574.33	1791.97
574.52	1849.32
574.71	1728.49
574.91	1714.15
575.10	1609.70
575.30	1755.11
575.49	1687.53
575.69	1701.86
575.88	1800.16
576.08	1726.44
576.27	1787.88
576.47	1777.64
576.66	1863.65
576.86	1718.25
577.05	1773.54
577.25	1832.93
577.44	1812.45
577.64	1648.61
577.83	1861.60
578.02	1714.15
578.22	1730.53
578.41	1814.50
578.61	1738.73
578.80	1705.96
579.00	1712.10
579.19	1755.11
579.39	1751.01
579.58	1808.36
579.77	1619.94
579.97	1880.04
580.16	1832.93
580.36	1804.26
580.55	1873.89
580.75	1740.77
580.94	1724.39
581.13	1843.17
581.33	1765.35
581.52	1722.34
581.72	1845.22
581.91	1818.60
582.11	1683.43
582.30	1802.21
582.49	1708.01
582.69	1826.79
582.88	1771.49
583.08	1800.16
583.27	1851.36
583.47	1742.82
583.66	1773.54
583.85	1703.91
584.05	1701.86
584.24	1841.12
584.44	1767.40
584.63	1740.77
584.82	1796.07
585.02	1841.12
585.21	1802.21
585.41	1861.60
585.60	1812.45
585.79	1929.19
585.99	1951.71
586.18	1880.04
586.37	2140.13
586.57	3315.66
586.76	9946.98
586.96	24731.27
587.15	34403.83
587.34	40627.60
587.54	42026.37
587.73	36812.24
587.93	26822.25
588.12	21782.20
588.31	18421.48
588.51	16512.77
588.70	15296.28
588.89	14055.21
589.09	12646.21
589.28	11165.53
589.47	9480.05
589.67	8062.85
589.86	6465.44
590.06	4988.85
590.25	3977.16
590.44	3051.47
590.64	2664.41
590.83	2256.86
591.02	2090.98
591.22	1920.99
591.41	1902.56
591.60	1877.99
591.80	1925.09
591.99	1781.73
592.18	1730.53
592.38	1847.27
592.57	1691.62
592.76	1789.92
592.96	1761.25
593.15	1759.21
593.34	1814.50
593.54	1730.53
593.73	1740.77
593.92	1687.53
594.12	1718.25
594.31	1767.40
594.50	1785.83
594.70	1771.49
594.89	1920.99
595.08	1619.94
595.28	1830.88
595.47	1888.23
595.66	1783.78
595.86	1603.56
596.05	1753.06
596.24	1724.39
596.43	1785.83
596.63	1767.40
596.82	1771.49
597.01	1675.24
597.21	1789.92
597.40	1779.68
597.59	1748.97
597.79	1654.76
597.98	1683.43
598.17	1722.34
598.36	1738.73
598.56	1767.40
598.75	1691.62
598.94	1732.58
599.14	1773.54
599.33	1652.71
599.52	1730.53
599.71	1771.49
599.91	1794.02
600.10	1724.39
600.29	1779.68
600.48	1667.05
600.68	1755.11
600.87	1726.44
601.06	1740.77
601.26	1746.92
601.45	1794.02
601.64	1716.20
601.83	1804.26
602.03	1703.91
602.22	1642.47
602.41	1810.40
602.60	1863.65
602.80	1708.01
602.99	1777.64
603.18	1658.85
603.37	1742.82
603.57	1789.92
603.76	1798.12
603.95	1751.01
604.14	1626.09
604.34	1650.66
604.53	1730.53
604.72	1724.39
604.91	1720.29
605.10	1796.07
605.30	1646.57
605.49	1855.46
605.68	1730.53
605.87	1718.25
606.07	1751.01
606.26	1673.19
606.45	1732.58
606.64	1669.09
606.84	1718.25
607.03	1738.73
607.22	1787.88
607.41	1748.97
607.60	1673.19
607.80	1787.88
607.99	1732.58
608.18	1785.83
608.37	1720.29
608.56	1693.67
608.76	1765.35
608.95	1806.31
609.14	1794.02
609.33	1759.21
609.52	1814.50
609.72	1773.54
609.91	1720.29
610.10	1716.20
610.29	1822.69
610.48	1759.21
610.68	1734.63
610.87	1636.33
611.06	1802.21
611.25	1746.92
611.44	1722.34
611.63	1624.04
611.83	1839.08
612.02	1611.75
612.21	1802.21
612.40	1591.27
612.59	1669.09
612.79	1746.92
612.98	1710.05
613.17	1781.73
613.36	1665.00
613.55	1779.68
613.74	1613.80
613.93	1677.29
614.13	1693.67
614.32	1691.62
614.51	1787.88
614.70	1712.10
614.89	1738.73
615.08	1718.25
615.28	2080.74
615.47	1595.37
615.66	1798.12
615.85	1744.87
616.04	1886.18
616.23	1697.77
616.42	1691.62
616.62	1791.97
616.81	1787.88
617.00	1736.68
617.19	1732.58
617.38	1669.09
617.57	1681.38
617.76	1769.44
617.95	1796.07
618.15	1802.21
618.34	1839.08
618.53	1648.61
618.72	1742.82
618.91	1796.07
619.10	1834.98
619.29	1695.72
619.48	1722.34
619.68	1662.95
619.87	1615.85
620.06	1660.90
620.25	1751.01
620.44	1724.39
620.63	1714.15
620.82	1703.91
621.01	1718.25
621.20	1794.02
621.39	1619.94
621.59	1732.58
621.78	1755.11
621.97	1685.48
622.16	1746.92
622.35	1771.49
622.54	1822.69
622.73	1853.41
622.92	1632.23
623.11	1812.45
623.30	1767.40
623.49	1789.92
623.68	1724.39
623.88	1791.97
624.07	1773.54
624.26	1738.73
624.45	1789.92
624.64	1722.34
624.83	1667.05
625.02	1714.15
625.21	1714.15
625.40	1781.73
625.59	1824.74
625.78	1751.01
625.97	1761.25
626.16	1753.06
626.35	1730.53
626.54	1685.48
626.74	1783.78
626.93	1677.29
627.12	1638.38
627.31	1787.88
627.50	1789.92
627.69	1781.73
627.88	1652.71
628.07	1742.82
628.26	1595.37
628.45	1720.29
628.64	1665.00
628.83	1662.95
629.02	1644.52
629.21	1708.01
629.40	1703.91
629.59	1695.72
629.78	1697.77
629.97	1689.57
630.16	1742.82
630.35	1687.53
630.54	1732.58
630.73	1648.61
630.92	1722.34
631.11	1671.14
631.30	1732.58
631.49	1761.25
631.68	1662.95
631.87	1685.48
632.06	1648.61
632.25	1853.41
632.44	1703.91
632.63	1701.86
632.82	1757.16
633.01	1644.52
633.20	1777.64
633.39	1632.23
633.58	1624.04
633.77	1748.97
633.96	1697.77
634.15	1802.21
634.34	1695.72
634.53	1705.96
634.72	1638.38
634.91	1630.18
635.10	1738.73
635.29	1697.77
635.48	1755.11
635.67	1652.71
635.86	1660.90
636.05	1767.40
636.24	1638.38
636.43	1755.11
636.62	1783.78
636.81	1552.36
637.00	1683.43
637.19	1779.68
637.38	1716.20
637.57	1683.43
637.76	1744.87
637.95	1689.57
638.14	1673.19
638.33	1667.05
638.52	1691.62
638.71	1695.72
638.89	1640.42
639.08	1818.60
639.27	1773.54
639.46	1673.19
639.65	1810.40
639.84	1730.53
640.03	1773.54
640.22	1671.14
640.41	1830.88
640.60	1703.91
640.79	1705.96
640.98	1701.86
641.17	1759.21
641.36	1753.06
641.55	1712.10
641.74	1611.75
641.92	1671.14
642.11	1642.47
642.30	1691.62
642.49	1675.24
642.68	1732.58
642.87	1755.11
643.06	1685.48
643.25	1681.38
643.44	1720.29
643.63	1755.11
643.82	1798.12
644.00	1761.25
644.19	1705.96
644.38	1673.19
644.57	1726.44
644.76	1691.62
644.95	1738.73
645.14	1697.77
645.33	1703.91
645.52	1744.87
645.71	1644.52
645.89	1609.70
646.08	1730.53
646.27	1648.61
646.46	1847.27
646.65	1638.38
646.84	1744.87
647.03	1652.71
647.22	1800.16
647.40	1703.91
647.59	1703.91
647.78	1619.94
647.97	1626.09
648.16	1685.48
648.35	1789.92
648.54	1718.25
648.73	1640.42
648.91	1728.49
649.10	1826.79
649.29	1695.72
649.48	1693.67
649.67	1794.02
649.86	1767.40
650.05	1755.11
650.23	1775.59
650.42	1658.85
650.61	1693.67
650.80	1783.78
650.99	1861.60
651.18	1724.39
651.36	1787.88
651.55	1712.10
651.74	1679.33
651.93	1671.14
652.12	1685.48
652.31	1634.28
652.49	1601.51
652.68	1689.57
652.87	1812.45
653.06	1695.72
653.25	1845.22
653.44	1673.19
653.62	1785.83
653.81	1708.01
654.00	1689.57
654.19	1759.21
654.38	1908.71
654.56	1718.25
654.75	1755.11
654.94	1748.97
655.13	1718.25
655.32	1714.15
655.51	1777.64
655.69	1697.77
655.88	1757.16
656.07	1630.18
656.26	1798.12
656.45	1699.81
656.63	1640.42
656.82	1746.92
657.01	1781.73
657.20	1656.81
657.38	1773.54
657.57	1671.14
657.76	1640.42
657.95	1783.78
658.14	1693.67
658.32	1642.47
658.51	1667.05
658.70	1716.20
658.89	1751.01
659.08	1701.86
659.26	1794.02
659.45	1538.02
659.64	1779.68
659.83	1697.77
660.01	1865.70
660.20	1769.44
660.39	1783.78
660.58	1554.41
660.76	1740.77
660.95	1656.81
661.14	1660.90
661.33	1605.61
661.51	1673.19
661.70	1695.72
661.89	1710.05
662.08	1710.05
662.26	1609.70
662.45	1705.96
662.64	1808.36
662.83	1843.17
663.01	1671.14
663.20	1708.01
663.39	1765.35
663.58	1714.15
663.76	1789.92
663.95	1718.25
664.14	1669.09
664.32	1716.20
664.51	1683.43
664.70	1679.33
664.89	1705.96
665.07	1673.19
665.26	1812.45
665.45	1718.25
665.64	1771.49
665.82	1656.81
666.01	1701.86
666.20	1658.85
666.38	1779.68
666.57	1783.78
666.76	2133.98
666.95	4474.81
667.13	10354.53
667.32	15226.65
667.51	17643.25
667.69	18956.00
667.88	17635.06
668.07	12384.07
668.25	9430.90
668.44	8134.53
668.63	7231.38
668.81	6735.77
669.00	6358.94
669.19	5582.76
669.38	5191.60
669.56	4501.44
669.75	3999.68
669.94	3364.81
670.12	2932.69
670.31	2494.43
670.50	2265.05
670.68	2070.50
670.87	1886.18
671.06	1841.12
671.24	1847.27
671.43	1775.59
671.62	1742.82
671.80	1665.00
671.99	1720.29
672.18	1673.19
672.36	1841.12
672.55	1763.30
672.74	1693.67
672.92	1648.61
673.11	1714.15
673.29	1667.05
673.48	1751.01
673.67	1722.34
673.85	1757.16
674.04	1685.48
674.23	1746.92
674.41	1779.68
674.60	1642.47
674.79	1591.27
674.97	1671.14
675.16	1785.83
675.34	1705.96
675.53	1705.96
675.72	1773.54
675.90	1701.86
676.09	1710.05
676.28	1691.62
676.46	1585.13
676.65	1775.59
676.83	1646.57
677.02	1779.68
677.21	1669.09
677.39	1722.34
677.58	1658.85
677.77	1675.24
677.95	1669.09
678.14	1681.38
678.32	1753.06
678.51	1697.77
678.70	1798.12
678.88	1656.81
679.07	1705.96
679.25	1744.87
679.44	1697.77
679.63	1646.57
679.81	1767.40
680.00	1765.35
680.18	1730.53
680.37	1748.97
680.55	1656.81
680.74	1574.89
680.93	1552.36
681.11	1759.21
681.30	1660.90
681.48	1712.10
681.67	1689.57
681.85	1691.62
682.04	1626.09
682.23	1787.88
682.41	1722.34
682.60	1650.66
682.78	1720.29
682.97	1615.85
683.15	1714.15
683.34	1701.86
683.53	1785.83
683.71	1689.57
683.90	1865.70
684.08	1796.07
684.27	1669.09
684.45	1738.73
684.64	1765.35
684.82	1726.44
685.01	1763.30
685.19	1759.21
685.38	1789.92
685.57	1701.86
685.75	1714.15
685.94	1714.15
686.12	1656.81
686.31	1656.81
686.49	1789.92
686.68	1636.33
686.86	1740.77
687.05	1669.09
687.23	1722.34
687.42	1679.33
687.60	1671.14
687.79	1761.25
687.97	1765.35
688.16	1808.36
688.34	1783.78
688.53	1611.75
688.71	1742.82
688.90	1771.49
689.08	1689.57
689.27	1652.71
689.45	1753.06
689.64	1726.44
689.82	1763.30
690.01	1699.81
690.19	1724.39
690.38	1757.16
690.56	1714.15
690.75	1685.48
690.93	1681.38
691.12	1728.49
691.30	1681.38
691.49	1716.20
691.67	1765.35
691.86	1910.75
692.04	1722.34
692.23	1671.14
692.41	1724.39
692.60	1832.93
692.78	1746.92
692.97	1621.99
693.15	1748.97
693.34	1798.12
693.52	1773.54
693.71	1662.95
693.89	1734.63
694.08	1689.57
694.26	1748.97
694.44	1753.06
694.63	1724.39
694.81	1699.81
695.00	1599.46
695.18	1800.16
695.37	1845.22
695.55	1685.48
695.74	1759.21
695.92	1640.42
696.10	1740.77
696.29	1609.70
696.47	1687.53
696.66	1650.66
696.84	1624.04
697.03	1687.53
697.21	1804.26
697.40	2328.54
697.58	1753.06
697.76	1621.99
697.95	1626.09
698.13	1669.09
698.32	1687.53
698.50	1677.29
698.68	1828.84
698.87	1755.11
699.05	1834.98
699.24	1662.95
699.42	1689.57
699.61	1671.14
699.79	1757.16
699.97	1755.11
700.16	1615.85
700.34	1621.99
700.53	1675.24
700.71	1822.69
700.89	1632.23
701.08	1607.66
701.26	1751.01
701.45	2105.31
701.63	1613.80
701.81	1650.66
702.00	1681.38
702.18	1697.77
702.37	1685.48
702.55	1777.64
702.73	1685.48
702.92	1642.47
703.10	1669.09
703.28	1640.42
703.47	1697.77
703.65	1701.86
703.84	1695.72
704.02	1677.29
704.20	1812.45
704.39	1665.00
704.57	1677.29
704.75	1726.44
704.94	1771.49
705.12	1683.43
705.30	1859.56
705.49	2326.49
705.67	4425.66
705.86	9430.90
706.04	12703.55
706.22	14638.88
706.41	15490.84
706.59	13952.81
706.77	9738.09
706.96	7374.74
707.14	6578.08
707.32	5900.20
707.51	5674.92
707.69	5029.81
707.87	4272.06
708.06	3553.23
708.24	2973.65
708.42	2373.60
708.61	2269.15
708.79	1923.04
708.97	1935.33
709.16	1869.80
709.34	1789.92
709.52	1689.57
709.71	1705.96
709.89	1746.92
710.07	1701.86
710.26	1632.23
710.44	1753.06
710.62	1691.62
710.80	1695.72
710.99	1744.87
711.17	1687.53
711.35	1638.38
711.54	1609.70
711.72	1748.97
711.90	1656.81
712.09	1771.49
712.27	1675.24
712.45	1724.39
712.63	1667.05
712.82	1714.15
713.00	1742.82
713.18	1738.73
713.37	1781.73
713.55	1812.45
713.73	1660.90
713.91	1757.16
714.10	1673.19
714.28	1624.04
714.46	1724.39
714.65	1716.20
714.83	1755.11
715.01	1775.59
715.19	1746.92
715.38	1654.76
715.56	1796.07
715.74	1621.99
715.92	1667.05
716.11	1755.11
716.29	1601.51
716.47	1742.82
716.65	1714.15
716.84	1607.66
717.02	1779.68
717.20	1626.09
717.38	1722.34
717.57	1679.33
717.75	1722.34
717.93	1708.01
718.11	1759.21
718.30	1572.84
718.48	1771.49
718.66	1808.36
718.84	1734.63
719.03	1615.85
719.21	1699.81
719.39	1783.78
719.57	1728.49
719.75	1816.55
719.94	1744.87
720.12	1671.14
720.30	1720.29
720.48	1703.91
720.67	1662.95
720.85	1632.23
721.03	1746.92
721.21	1617.90
721.39	1746.92
721.58	1695.72
721.76	1765.35
721.94	1681.38
722.12	1628.14
722.30	1796.07
722.49	1722.34
722.67	1640.42
722.85	1722.34
723.03	1669.09
723.21	1669.09
723.40	1728.49
723.58	1798.12
723.76	1730.53
723.94	1744.87
724.12	1763.30
724.30	1816.55
724.49	1710.05
724.67	1587.18
724.85	1839.08
725.03	1646.57
725.21	1787.88
725.40	1859.56
725.58	1656.81
725.76	1781.73
725.94	1722.34
726.12	1634.28
726.30	1705.96
726.49	1599.46
726.67	1619.94
726.85	1705.96
727.03	1796.07
727.21	2097.12
727.39	2863.06
727.57	3913.67
727.76	4102.08
727.94	4417.47
728.12	4349.89
728.30	3796.93
728.48	3008.47
728.66	2787.29
728.84	2486.23
729.03	2320.35
729.21	2213.85
729.39	2000.87
729.57	1816.55
729.75	1763.30
729.93	1834.98
730.11	1687.53
730.30	1761.25
730.48	1705.96
730.66	1771.49
730.84	1787.88
731.02	1669.09
731.20	1671.14
731.38	1685.48
731.56	1630.18
731.74	1611.75
731.93	1703.91
732.11	1757.16
732.29	1683.43
732.47	1738.73
732.65	1830.88
732.83	1814.50
733.01	1791.97
733.19	1665.00
733.37	1710.05
733.56	1658.85
733.74	1673.19
733.92	1781.73
734.10	1744.87
734.28	1693.67
734.46	1677.29
734.64	1693.67
734.82	1697.77
735.00	1730.53
735.18	1691.62
735.36	1669.09
735.54	1732.58
735.73	1701.86
735.91	1783.78
736.09	1708.01
736.27	1701.86
736.45	1767.40
736.63	1599.46
736.81	1697.77
736.99	1753.06
737.17	1738.73
737.35	1677.29
737.53	1699.81
737.71	1724.39
737.89	1716.20
738.07	1660.90
738.25	1722.34
738.43	1681.38
738.61	1669.09
738.80	1648.61
738.98	1624.04
739.16	1617.90
739.34	1652.71
739.52	1806.31
739.70	1576.94
739.88	1765.35
740.06	1751.01
740.24	1632.23
740.42	1748.97
740.60	1607.66
740.78	1656.81
740.96	1634.28
741.14	1683.43
741.32	1636.33
741.50	1611.75
741.68	1800.16
741.86	1804.26
742.04	1636.33
742.22	1665.00
742.40	1761.25
742.58	1699.81
742.76	1601.51
742.94	1714.15
743.12	1646.57
743.30	1640.42
743.48	1697.77
743.66	1624.04
743.84	1777.64
744.02	1589.22
744.20	1746.92
744.38	1699.81
744.56	1624.04
744.74	1759.21
744.92	1701.86
745.10	1708.01
745.28	1703.91
745.46	1839.08
745.64	1665.00
745.82	1705.96
746.00	1728.49
746.18	1658.85
746.36	1673.19
746.54	1773.54
746.72	1689.57
746.90	1570.79
747.08	1804.26
747.26	1665.00
747.44	1773.54
747.62	1646.57
747.80	1726.44
747.98	1746.92
748.15	1638.38
748.33	1861.60
748.51	1665.00
748.69	1662.95
748.87	1703.91
749.05	1687.53
749.23	1671.14
749.41	1673.19
749.59	1677.29
749.77	1771.49
749.95	1703.91
750.13	1660.90
750.31	1769.44
750.49	1769.44
750.67	1728.49
750.85	1771.49
751.03	1697.77
751.20	1804.26
751.38	1710.05
751.56	1695.72
751.74	1697.77
751.92	1640.42
752.10	1714.15
752.28	1781.73
752.46	1642.47
752.64	1615.85
752.82	1671.14
753.00	1794.02
753.18	1619.94
753.35	1708.01
753.53	1714.15
753.71	1720.29
753.89	1734.63
754.07	1673.19
754.25	1755.11
754.43	1665.00
754.61	1677.29
754.79	1685.48
754.97	1701.86
755.14	1767.40
755.32	1714.15
755.50	1658.85
755.68	1634.28
755.86	1587.18
756.04	1705.96
756.22	1624.04
756.40	1679.33
756.57	1869.80
756.75	1683.43
756.93	1730.53
757.11	1734.63
757.29	1665.00
757.47	1642.47
757.65	1564.65
757.82	1527.78
758.00	1603.56
758.18	1669.09
758.36	1656.81
758.54	1771.49
758.72	1615.85
758.90	1746.92
759.07	1644.52
759.25	1642.47
759.43	1679.33
759.61	1652.71
759.79	2205.66
759.97	1775.59
760.15	1662.95
760.32	1638.38
760.50	1689.57
760.68	1804.26
760.86	1646.57
761.04	1738.73
761.22	1771.49
761.39	1742.82
761.57	1705.96
761.75	1708.01
761.93	1621.99
762.11	1648.61
762.28	1775.59
762.46	1746.92
762.64	1763.30
762.82	1708.01
763.00	1699.81
763.18	1751.01
763.35	1638.38
763.53	1718.25
763.71	1736.68
763.89	1665.00
764.07	1744.87
764.24	1699.81
764.42	1677.29
764.60	1697.77
764.78	1705.96
764.96	1824.74
765.13	1693.67
765.31	1650.66
765.49	1785.83
765.67	1730.53
765.84	1665.00
766.02	1705.96
766.20	1589.22
766.38	1679.33
766.56	1648.61
766.73	1738.73
766.91	1683.43
767.09	1652.71
767.27	1728.49
767.44	1619.94
767.62	1673.19
767.80	1652.71
767.98	1613.80
768.15	1667.05
768.33	1710.05
768.51	1714.15
768.69	1646.57
768.87	1765.35
769.04	1632.23
769.22	1820.64
769.40	1736.68
769.58	1818.60
769.75	1710.05
769.93	1751.01
770.11	1626.09
770.28	1652.71
770.46	1734.63
770.64	1734.63
770.82	1691.62
770.99	1720.29
771.17	1724.39
771.35	1718.25
771.53	1681.38
771.70	1732.58
771.88	1656.81
772.06	1585.13
772.23	1742.82
772.41	1703.91
772.59	1726.44
772.77	1599.46
772.94	1673.19
773.12	1695.72
773.30	1691.62
773.47	1687.53
773.65	1644.52
773.83	1740.77
774.01	1652.71
774.18	1662.95
774.36	1677.29
774.54	1671.14
774.71	1828.84
774.89	1677.29
775.07	1646.57
775.24	1656.81
775.42	1681.38
775.60	1757.16
775.78	1671.14
775.95	1685.48
776.13	1591.27
776.31	1626.09
776.48	1667.05
776.66	1853.41
776.84	1665.00
777.01	1650.66
777.19	1685.48
777.37	1673.19
777.54	1703.91
777.72	1783.78
777.90	1740.77
778.07	1656.81
778.25	1841.12
778.43	1748.97
778.60	1642.47
778.78	1724.39
778.96	1779.68
779.13	1650.66
779.31	1705.96
779.49	1703.91
779.66	1751.01
779.84	1714.15
780.01	1636.33
780.19	1640.42
780.37	1777.64
780.54	1763.30
780.72	1648.61
780.90	1703.91
781.07	1695.72
781.25	1634.28
781.43	1693.67
781.60	1677.29
781.78	1734.63
781.95	1742.82
782.13	1662.95
782.31	1691.62
782.48	1531.88
782.66	1746.92
782.83	1736.68
783.01	1738.73
783.19	1738.73
783.36	1648.61
783.54	1630.18
783.72	1767.40
783.89	1673.19
784.07	1730.53
784.24	1705.96
784.42	1787.88
784.60	1816.55
784.77	1726.44
784.95	1587.18
785.12	1636.33
785.30	1669.09
785.47	1671.14
785.65	1732.58
785.83	1679.33
786.00	1697.77
786.18	1691.62
786.35	1609.70
786.53	1636.33
786.71	1751.01
786.88	1763.30
787.06	1753.06
787.23	1667.05
787.41	1675.24
787.58	1744.87
787.76	1677.29
787.94	1703.91
788.11	1759.21
788.29	1636.33
788.46	1646.57
788.64	1591.27
788.81	1667.05
788.99	1650.66
789.16	1644.52
789.34	1660.90
789.52	1783.78
789.69	1683.43
789.87	1617.90
790.04	1693.67
790.22	1697.77
790.39	1914.85
790.57	1638.38
790.74	1624.04
790.92	1751.01
791.09	1671.14
791.27	1722.34
791.44	1789.92
791.62	1759.21
791.79	1804.26
791.97	1697.77
792.15	1865.70
792.32	1773.54
792.50	1787.88
792.67	1740.77
792.85	1804.26
793.02	1730.53
793.20	1662.95
793.37	1599.46
793.55	1628.14
793.72	1634.28
793.90	1714.15
794.07	1681.38
794.25	1650.66
794.42	1701.86
794.60	1667.05
794.77	1763.30
794.95	1773.54
795.12	1746.92
795.30	1677.29
795.47	1669.09
795.65	1849.32
795.82	1673.19
796.00	1689.57
796.17	1689.57
796.34	1697.77
796.52	1734.63
796.69	1726.44
796.87	1730.53
797.04	1740.77
797.22	1734.63
797.39	1703.91
797.57	1767.40
797.74	1744.87
797.92	1728.49
798.09	1677.29
798.27	1685.48
798.44	1804.26
798.62	1638.38
798.79	1687.53
798.96	1652.71
799.14	1665.00
799.31	1828.84
799.49	1675.24
799.66	1716.20
799.84	1705.96
800.01	1656.81
800.19	1771.49
800.36	1613.80
800.53	1656.81
800.71	1660.90
800.88	1785.83
801.06	1640.42
801.23	1658.85
801.41	1716.20
801.58	1724.39
801.75	1687.53
801.93	1755.11
802.10	1738.73
802.28	1652.71
802.45	1675.24
802.63	1716.20
802.80	1783.78
802.97	1757.16
803.15	1662.95
803.32	1714.15
803.50	1640.42
803.67	1615.85
803.84	1576.94
804.02	1667.05
804.19	1585.13
804.37	1578.98
804.54	1648.61
804.71	1689.57
804.89	1699.81
805.06	1732.58
805.24	1671.14
805.41	1654.76
805.58	1669.09
805.76	1804.26
805.93	1726.44
806.10	1759.21
806.28	1759.21
806.45	1677.29
806.63	1708.01
806.80	1763.30
806.97	1740.77
807.15	1693.67
807.32	1656.81
807.49	1681.38
807.67	1621.99
807.84	1748.97
808.01	1646.57
808.19	1769.44
808.36	1830.88
808.54	1640.42
808.71	1660.90
808.88	1675.24
809.06	1697.77
809.23	1845.22
809.40	1646.57
809.58	1822.69
809.75	1691.62
809.92	1703.91
810.10	1834.98
810.27	1697.77
810.44	1695.72
810.62	1734.63
810.79	1769.44
810.96	1619.94
811.14	1667.05
811.31	1693.67
811.48	1716.20
811.66	1646.57
811.83	1808.36
812.00	1673.19
812.18	1730.53
812.35	1814.50
812.52	1669.09
812.69	1656.81
812.87	1703.91
813.04	1650.66
813.21	1748.97
813.39	1673.19
813.56	1615.85
813.73	1746.92
813.91	1546.22
814.08	1650.66
814.25	1705.96
814.42	1603.56
814.60	1671.14
814.77	1656.81
814.94	1671.14
815.12	1693.67
815.29	1751.01
815.46	1640.42
815.63	1695.72
815.81	1730.53
815.98	1619.94
816.15	1740.77
816.33	1738.73
816.50	1683.43
816.67	1652.71
816.84	1728.49
817.02	1544.17
817.19	1658.85
817.36	1705.96
817.53	1755.11
817.71	1609.70
817.88	1724.39
818.05	1730.53
818.22	1714.15
818.40	1783.78
818.57	1665.00
818.74	1718.25
818.91	1728.49
819.09	1773.54
819.26	1761.25
819.43	1558.50
819.60	1679.33
819.78	1701.86
819.95	1679.33
820.12	1679.33
820.29	1718.25
820.47	1826.79
820.64	1644.52
820.81	1511.40
820.98	1644.52
821.15	1667.05
821.33	1650.66
821.50	1556.46
821.67	1656.81
821.84	1640.42
822.02	1755.11
822.19	1791.97
822.36	1607.66
822.53	1642.47
822.70	1560.55
822.88	1714.15
823.05	1751.01
823.22	1636.33
823.39	1716.20
823.56	1763.30
823.74	1802.21
823.91	1601.51
824.08	1679.33
824.25	1654.76
824.42	1755.11
824.60	1603.56
824.77	1640.42
824.94	1705.96
825.11	1746.92
825.28	1638.38
825.45	1681.38
825.63	1691.62
825.80	1638.38
825.97	1683.43
826.14	1673.19
826.31	1531.88
826.48	1716.20
826.66	1634.28
826.83	1658.85
827.00	1699.81
827.17	1615.85
827.34	1687.53
827.51	1667.05
827.69	1685.48
827.86	1626.09
828.03	1730.53
828.20	1689.57
828.37	1638.38
828.54	1673.19
828.71	1548.26
828.89	1845.22
829.06	1714.15
829.23	1802.21
829.40	1624.04
829.57	1624.04
829.74	1716.20
829.91	1669.09
830.09	1722.34
830.26	1755.11
830.43	1789.92
830.60	1624.04
830.77	1699.81
830.94	1769.44
831.11	1769.44
831.28	1667.05
831.46	1724.39
831.63	1681.38
831.80	1830.88
831.97	1699.81
832.14	1677.29
832.31	1779.68
832.48	1738.73
832.65	1771.49
832.82	1710.05
832.99	1742.82
833.17	1603.56
833.34	1839.08
833.51	1695.72
833.68	1562.60
833.85	1748.97
834.02	1654.76
834.19	1595.37
834.36	1650.66
834.53	1722.34
834.70	1763.30
834.87	1767.40
835.04	1759.21
835.22	1638.38
835.39	1576.94
835.56	1642.47
835.73	1683.43
835.90	1673.19
836.07	1632.23
836.24	1765.35
836.41	1642.47
836.58	1697.77
836.75	1767.40
836.92	1697.77
837.09	1626.09
837.26	1781.73
837.43	1687.53
837.60	1742.82
837.77	1630.18
837.94	1701.86
838.12	1763.30
838.29	1675.24
838.46	1609.70
838.63	1636.33
838.80	1777.64
838.97	1730.53
839.14	1693.67
839.31	1691.62
839.48	1802.21
839.65	1658.85
839.82	1783.78
839.99	1722.34
840.16	1673.19
840.33	1576.94
840.50	1701.86
840.67	1613.80
840.84	1685.48
841.01	1687.53
841.18	1705.96
841.35	1658.85
841.52	1734.63
841.69	1802.21
841.86	1695.72
842.03	1669.09
842.20	1761.25
842.37	1730.53
842.54	1689.57
842.71	1675.24
842.88	1589.22
843.05	1769.44
843.22	1644.52
843.39	1769.44
843.56	1671.14
843.73	1724.39
843.90	1714.15
844.07	1736.68
844.24	1673.19
844.41	1738.73
844.58	1683.43
844.75	1734.63
844.92	1699.81
845.09	1689.57
845.26	1628.14
845.43	1705.96
845.60	1632.23
845.77	1787.88
845.94	1675.24
846.10	1724.39
846.27	1589.22
846.44	1632.23
846.61	1748.97
846.78	1726.44
846.95	1728.49
847.12	1787.88
847.29	1724.39
847.46	1685.48
847.63	1757.16
847.80	1681.38
847.97	1650.66
848.14	1851.36
848.31	1644.52
848.48	1591.27
848.65	1624.04
848.82	1648.61
848.98	1826.79
849.15	1734.63
849.32	1730.53
849.49	1740.77
849.66	1630.18
849.83	1705.96
850.00	1656.81
850.17	1777.64
850.34	1689.57
850.51	1683.43
850.68	1646.57
850.85	1890.28
851.01	1693.67
851.18	1751.01
851.35	1693.67
851.52	1757.16
851.69	1763.30
851.86	1662.95
852.03	1662.95
852.20	1708.01
852.37	1816.55
852.53	1587.18
852.70	1734.63
852.87	1687.53
853.04	1744.87
853.21	1748.97
853.38	1746.92
853.55	1765.35
853.72	1697.77
853.89	1656.81
854.05	1634.28
854.22	1658.85
854.39	1621.99
854.56	1669.09
854.73	1722.34
854.90	1673.19
855.07	1720.29
855.23	1687.53
855.40	1693.67
855.57	1660.90
855.74	1613.80
855.91	1832.93
856.08	1566.70
856.25	1624.04
856.41	1638.38
856.58	1648.61
856.75	1683.43
856.92	1595.37
857.09	1789.92
857.26	1583.08
857.42	1701.86
857.59	1742.82
857.76	1710.05
857.93	1757.16
858.10	1634.28
858.27	1585.13
858.43	1742.82
858.60	1613.80
858.77	1636.33
858.94	1628.14
859.11	1755.11
859.27	1658.85
859.44	1699.81
859.61	1892.32
859.78	1730.53
859.95	1675.24
860.12	1603.56
860.28	1820.64
860.45	1816.55
860.62	1652.71
860.79	1720.29
860.95	1658.85
861.12	1566.70
861.29	1587.18
861.46	1626.09
861.63	1671.14
861.79	1693.67
861.96	1648.61
862.13	1716.20
862.30	1849.32
862.47	1619.94
862.63	1628.14
862.80	1765.35
862.97	1783.78
863.14	1656.81
863.30	1673.19
863.47	1654.76
863.64	1808.36
863.81	1667.05
863.97	1677.29
864.14	1740.77
864.31	1701.86
864.48	1648.61
864.65	1691.62
864.81	1738.73
864.98	1662.95
865.15	1685.48
865.32	1697.77
865.48	1796.07
865.65	1820.64
865.82	1724.39
865.98	1746.92
866.15	1683.43
866.32	1677.29
866.49	1673.19
866.65	1771.49
866.82	1632.23
866.99	1710.05
867.16	1652.71
867.32	1583.08
867.49	1660.90
867.66	1660.90
867.83	1722.34
867.99	1593.32
868.16	1693.67
868.33	1621.99
868.49	1621.99
868.66	1603.56
868.83	1800.16
868.99	1669.09
869.16	1734.63
869.33	1832.93
869.50	1751.01
869.66	1654.76
869.83	1650.66
870.00	1732.58
870.16	1703.91
870.33	1708.01
870.50	1753.06
870.66	1730.53
870.83	1761.25
871.00	1601.51
871.17	1695.72
871.33	1775.59
871.50	1658.85
871.67	1738.73
871.83	1636.33
872.00	1789.92
872.17	1648.61
872.33	1818.60
872.50	1742.82
872.67	1775.59
872.83	1642.47
873.00	1701.86
873.17	1638.38
873.33	1662.95
873.50	1757.16
873.67	1630.18
873.83	1654.76
874.00	1644.52
874.16	1767.40
874.33	1662.95
874.50	1599.46
874.66	1693.67
874.83	1703.91
875.00	1732.58
875.16	1755.11
875.33	1683.43
875.50	1632.23
875.66	1607.66
875.83	1640.42
875.99	1699.81
876.16	1693.67
876.33	1585.13
876.49	1662.95
876.66	1734.63
876.83	1695.72
876.99	1585.13
877.16	1705.96
877.32	1687.53
877.49	1665.00
877.66	1681.38
877.82	1662.95
877.99	1656.81
878.15	1705.96
878.32	1685.48
878.49	1658.85
878.65	1646.57
878.82	1775.59
878.98	1697.77
879.15	1779.68
879.32	1828.84
879.48	1644.52
879.65	1671.14
879.81	1611.75
879.98	1710.05
880.15	1720.29
880.31	1665.00
880.48	1621.99
880.64	1710.05
880.81	1751.01
880.97	1761.25
881.14	1687.53
881.31	1609.70
881.47	1820.64
881.64	1636.33
881.80	1640.42
881.97	1785.83
882.13	1812.45
882.30	1718.25
882.47	1718.25
882.63	1665.00
882.80	1689.57
882.96	1677.29
883.13	1796.07
883.29	1703.91
883.46	1708.01
883.62	1787.88
883.79	1724.39
883.95	1683.43
884.12	1693.67
884.29	1761.25
884.45	1683.43
884.62	1798.12
884.78	1665.00
884.95	1779.68
885.11	1667.05
885.28	1701.86
885.44	1685.48
885.61	1746.92
885.77	1834.98
885.94	1705.96
886.10	1624.04
886.27	1634.28
886.43	1738.73
886.60	1720.29
886.76	1613.80
886.93	1687.53
887.09	1726.44
887.26	1560.55
887.42	1636.33
887.59	1779.68
887.75	1830.88
887.92	1748.97
888.08	1722.34
888.25	1826.79
888.41	1652.71
888.58	1724.39
888.74	1589.22
888.91	1681.38
>>>>>End Processed Spectral Data<<<<<
