SpectraSuite Data File
++++++++++++++++++++++++++++++++++++
Date: Mon Jun 06 13:10:17 CEST 2016
User: root
Dark Spectrum Present: No
Reference Spectrum Present: No
Number of Sampled Component Spectra: 1
Spectrometers: USB4C02835
Integration Time (usec): 100000 (USB4C02835)
Spectra Averaged: 1 (USB4C02835)
Boxcar Smoothing: 0 (USB4C02835)
Correct for Electrical Dark: No (USB4C02835)
Strobe/Lamp Enabled: No (USB4C02835)
Correct for Detector Non-linearity: No (USB4C02835)
Correct for Stray Light: No (USB4C02835)
Number of Pixels in Processed Spectrum: 3648
>>>>>Begin Processed Spectral Data<<<<<
177.47	1517.54
177.69	1517.54
177.91	1517.54
178.13	1429.48
178.36	1419.24
178.58	1560.55
178.80	1740.77
179.02	1519.59
179.24	1683.43
179.46	1673.19
179.68	1808.36
179.90	1640.42
180.13	1695.72
180.35	1599.46
180.57	1710.05
180.79	1751.01
181.01	1724.39
181.23	1693.67
181.45	1800.16
181.67	1791.97
181.90	1710.05
182.12	1628.14
182.34	1621.99
182.56	1748.97
182.78	1746.92
183.00	1693.67
183.22	1748.97
183.44	1587.18
183.66	1824.74
183.89	1759.21
184.11	1728.49
184.33	1757.16
184.55	1808.36
184.77	1732.58
184.99	1714.15
185.21	1650.66
185.43	1759.21
185.65	1656.81
185.87	1689.57
186.10	1830.88
186.32	1822.69
186.54	1691.62
186.76	1728.49
186.98	1726.44
187.20	1783.78
187.42	1724.39
187.64	1705.96
187.86	1701.86
188.08	1712.10
188.30	1701.86
188.52	1673.19
188.75	1841.12
188.97	1765.35
189.19	1699.81
189.41	1658.85
189.63	1710.05
189.85	1587.18
190.07	1669.09
190.29	1595.37
190.51	1744.87
190.73	1679.33
190.95	1761.25
191.17	1759.21
191.39	1650.66
191.61	1695.72
191.84	1679.33
192.06	1748.97
192.28	1628.14
192.50	1814.50
192.72	1710.05
192.94	1728.49
193.16	1662.95
193.38	1718.25
193.60	1685.48
193.82	1755.11
194.04	1767.40
194.26	1628.14
194.48	1615.85
194.70	1665.00
194.92	1634.28
195.14	1753.06
195.36	1624.04
195.58	1681.38
195.80	1730.53
196.02	1675.24
196.24	1628.14
196.46	1816.55
196.69	1634.28
196.91	1933.28
197.13	1669.09
197.35	1665.00
197.57	1759.21
197.79	1640.42
198.01	1708.01
198.23	1810.40
198.45	1761.25
198.67	1689.57
198.89	1683.43
199.11	1763.30
199.33	1716.20
199.55	1550.31
199.77	1632.23
199.99	1734.63
200.21	1677.29
200.43	1808.36
200.65	1578.98
200.87	1533.93
201.09	1681.38
201.31	1652.71
201.53	1751.01
201.75	1708.01
201.97	1685.48
202.19	1720.29
202.41	1705.96
202.63	1820.64
202.85	1703.91
203.07	1658.85
203.29	1722.34
203.51	1595.37
203.73	1675.24
203.95	1863.65
204.17	1724.39
204.39	1726.44
204.61	1755.11
204.83	1671.14
205.05	1685.48
205.27	1722.34
205.49	1712.10
205.71	1740.77
205.93	1603.56
206.15	1630.18
206.37	1644.52
206.59	1583.08
206.81	1644.52
207.03	1716.20
207.25	1650.66
207.47	1691.62
207.69	1681.38
207.91	1744.87
208.13	1800.16
208.34	1646.57
208.56	1630.18
208.78	1697.77
209.00	1669.09
209.22	1681.38
209.44	1640.42
209.66	1689.57
209.88	1736.68
210.10	1646.57
210.32	1605.61
210.54	1728.49
210.76	1701.86
210.98	1781.73
211.20	1538.02
211.42	1712.10
211.64	1765.35
211.86	1800.16
212.08	1748.97
212.30	1673.19
212.52	1755.11
212.74	1673.19
212.96	1675.24
213.17	1775.59
213.39	1753.06
213.61	1779.68
213.83	1765.35
214.05	1732.58
214.27	1728.49
214.49	1597.42
214.71	1658.85
214.93	1695.72
215.15	1763.30
215.37	1755.11
215.59	1574.89
215.81	1751.01
216.03	1769.44
216.24	1656.81
216.46	1693.67
216.68	1724.39
216.90	1779.68
217.12	1738.73
217.34	1677.29
217.56	1697.77
217.78	1779.68
218.00	1679.33
218.22	1714.15
218.44	1720.29
218.66	1789.92
218.87	1810.40
219.09	1638.38
219.31	1748.97
219.53	1683.43
219.75	1665.00
219.97	1648.61
220.19	1652.71
220.41	1710.05
220.63	1816.55
220.85	1761.25
221.06	1697.77
221.28	1785.83
221.50	1650.66
221.72	1685.48
221.94	1665.00
222.16	1777.64
222.38	1677.29
222.60	1720.29
222.82	1652.71
223.03	1705.96
223.25	1589.22
223.47	1798.12
223.69	1812.45
223.91	1699.81
224.13	1773.54
224.35	1710.05
224.57	1665.00
224.78	1724.39
225.00	1591.27
225.22	1773.54
225.44	1720.29
225.66	1677.29
225.88	1671.14
226.10	1695.72
226.32	1767.40
226.53	1806.31
226.75	1638.38
226.97	1683.43
227.19	1701.86
227.41	1736.68
227.63	1683.43
227.85	1603.56
228.06	1691.62
228.28	1714.15
228.50	1757.16
228.72	1679.33
228.94	1679.33
229.16	1650.66
229.37	1611.75
229.59	1679.33
229.81	1746.92
230.03	1687.53
230.25	1640.42
230.47	1624.04
230.69	1601.51
230.90	1724.39
231.12	1585.13
231.34	1751.01
231.56	1740.77
231.78	1673.19
232.00	1779.68
232.21	1671.14
232.43	1632.23
232.65	1611.75
232.87	1763.30
233.09	1626.09
233.30	1697.77
233.52	1769.44
233.74	1712.10
233.96	1691.62
234.18	1726.44
234.40	1658.85
234.61	1816.55
234.83	1714.15
235.05	1568.74
235.27	1804.26
235.49	1746.92
235.70	1708.01
235.92	1730.53
236.14	1703.91
236.36	1853.41
236.58	1611.75
236.79	1665.00
237.01	1685.48
237.23	1708.01
237.45	1810.40
237.67	1581.03
237.88	1699.81
238.10	1806.31
238.32	1632.23
238.54	1667.05
238.76	1634.28
238.97	1632.23
239.19	1718.25
239.41	1744.87
239.63	1761.25
239.85	1722.34
240.06	1685.48
240.28	1607.66
240.50	1755.11
240.72	1734.63
240.93	1718.25
241.15	1701.86
241.37	1712.10
241.59	1812.45
241.81	1714.15
242.02	1646.57
242.24	1783.78
242.46	1744.87
242.68	1626.09
242.89	1687.53
243.11	1794.02
243.33	1683.43
243.55	1705.96
243.76	1763.30
243.98	1642.47
244.20	1769.44
244.42	1759.21
244.64	1740.77
244.85	1669.09
245.07	1699.81
245.29	1740.77
245.51	1705.96
245.72	1767.40
245.94	1806.31
246.16	1669.09
246.38	1753.06
246.59	1638.38
246.81	1665.00
247.03	1685.48
247.24	1683.43
247.46	1644.52
247.68	1650.66
247.90	1720.29
248.11	1679.33
248.33	1761.25
248.55	1699.81
248.77	1798.12
248.98	1722.34
249.20	1753.06
249.42	1742.82
249.64	1675.24
249.85	1681.38
250.07	1603.56
250.29	1714.15
250.50	1730.53
250.72	1617.90
250.94	1687.53
251.16	1822.69
251.37	1791.97
251.59	1744.87
251.81	1697.77
252.02	1757.16
252.24	1681.38
252.46	1839.08
252.68	1621.99
252.89	1601.51
253.11	1589.22
253.33	1781.73
253.54	1812.45
253.76	1722.34
253.98	1644.52
254.20	1621.99
254.41	1652.71
254.63	1724.39
254.85	1656.81
255.06	1777.64
255.28	1738.73
255.50	1695.72
255.71	1675.24
255.93	1619.94
256.15	1687.53
256.36	1777.64
256.58	1658.85
256.80	1746.92
257.02	1675.24
257.23	1726.44
257.45	1675.24
257.67	1718.25
257.88	1681.38
258.10	1640.42
258.32	1675.24
258.53	1632.23
258.75	1771.49
258.97	1740.77
259.18	1685.48
259.40	1742.82
259.62	1757.16
259.83	1751.01
260.05	1759.21
260.27	1933.28
260.48	1742.82
260.70	1628.14
260.92	1615.85
261.13	1671.14
261.35	1714.15
261.57	1671.14
261.78	1572.84
262.00	1660.90
262.22	1787.88
262.43	1611.75
262.65	1621.99
262.86	1716.20
263.08	1906.66
263.30	1748.97
263.51	1615.85
263.73	1740.77
263.95	1796.07
264.16	1566.70
264.38	1617.90
264.60	1740.77
264.81	1599.46
265.03	1705.96
265.25	1681.38
265.46	1697.77
265.68	1814.50
265.89	1710.05
266.11	1628.14
266.33	1738.73
266.54	1732.58
266.76	1787.88
266.98	1742.82
267.19	1822.69
267.41	1660.90
267.62	1730.53
267.84	1611.75
268.06	1726.44
268.27	1691.62
268.49	1800.16
268.70	1722.34
268.92	1714.15
269.14	1552.36
269.35	1632.23
269.57	1648.61
269.79	1734.63
270.00	1701.86
270.22	1773.54
270.43	1677.29
270.65	1585.13
270.87	1710.05
271.08	1726.44
271.30	1767.40
271.51	1714.15
271.73	1701.86
271.95	1746.92
272.16	1718.25
272.38	1746.92
272.59	1742.82
272.81	1681.38
273.02	1730.53
273.24	1824.74
273.46	1753.06
273.67	1613.80
273.89	1675.24
274.10	1656.81
274.32	1767.40
274.54	1744.87
274.75	1681.38
274.97	1634.28
275.18	1746.92
275.40	1681.38
275.61	1683.43
275.83	1738.73
276.05	1603.56
276.26	1646.57
276.48	1736.68
276.69	1726.44
276.91	1726.44
277.12	1794.02
277.34	1769.44
277.55	1718.25
277.77	1716.20
277.99	1673.19
278.20	1695.72
278.42	1673.19
278.63	1701.86
278.85	1681.38
279.06	1562.60
279.28	1681.38
279.49	1771.49
279.71	1761.25
279.93	1671.14
280.14	1728.49
280.36	1646.57
280.57	1699.81
280.79	1759.21
281.00	1638.38
281.22	1656.81
281.43	1804.26
281.65	1560.55
281.86	1675.24
282.08	1740.77
282.29	1845.22
282.51	1603.56
282.73	1675.24
282.94	1695.72
283.16	1814.50
283.37	1767.40
283.59	1687.53
283.80	1671.14
284.02	1697.77
284.23	1658.85
284.45	1742.82
284.66	1564.65
284.88	1591.27
285.09	1736.68
285.31	1726.44
285.52	1685.48
285.74	1609.70
285.95	1701.86
286.17	1697.77
286.38	1763.30
286.60	1585.13
286.81	1644.52
287.03	1738.73
287.24	1716.20
287.46	1730.53
287.67	1730.53
287.89	1812.45
288.10	1697.77
288.32	1757.16
288.53	1779.68
288.75	1667.05
288.96	1751.01
289.18	1636.33
289.39	1677.29
289.61	1718.25
289.82	1802.21
290.04	1826.79
290.25	1648.61
290.47	1665.00
290.68	1558.50
290.90	1705.96
291.11	1624.04
291.33	1867.75
291.54	1538.02
291.76	1644.52
291.97	1712.10
292.18	1708.01
292.40	1705.96
292.61	1681.38
292.83	1853.41
293.04	1771.49
293.26	1683.43
293.47	1658.85
293.69	1665.00
293.90	1658.85
294.12	1736.68
294.33	1800.16
294.55	1697.77
294.76	1681.38
294.97	1769.44
295.19	1771.49
295.40	1681.38
295.62	1736.68
295.83	1744.87
296.05	1705.96
296.26	1812.45
296.48	1675.24
296.69	1740.77
296.90	1732.58
297.12	1701.86
297.33	1773.54
297.55	1730.53
297.76	1677.29
297.98	1777.64
298.19	1767.40
298.41	1644.52
298.62	1562.60
298.83	1837.03
299.05	1691.62
299.26	1628.14
299.48	1656.81
299.69	1726.44
299.90	1705.96
300.12	1615.85
300.33	1699.81
300.55	1740.77
300.76	1744.87
300.98	1601.51
301.19	1796.07
301.40	1736.68
301.62	1712.10
301.83	1738.73
302.05	1710.05
302.26	1718.25
302.47	1673.19
302.69	1656.81
302.90	1740.77
303.12	1585.13
303.33	1763.30
303.54	1773.54
303.76	1658.85
303.97	1742.82
304.19	1685.48
304.40	1609.70
304.61	1720.29
304.83	1812.45
305.04	1734.63
305.26	1722.34
305.47	1638.38
305.68	1740.77
305.90	1634.28
306.11	1759.21
306.33	1650.66
306.54	1630.18
306.75	1673.19
306.97	1576.94
307.18	1665.00
307.39	1652.71
307.61	1794.02
307.82	1652.71
308.04	1732.58
308.25	1601.51
308.46	1755.11
308.68	1675.24
308.89	1695.72
309.10	1746.92
309.32	1699.81
309.53	1712.10
309.74	1667.05
309.96	1650.66
310.17	1787.88
310.39	1673.19
310.60	1761.25
310.81	1646.57
311.03	1591.27
311.24	1753.06
311.45	1714.15
311.67	1892.32
311.88	1748.97
312.09	1742.82
312.31	1726.44
312.52	1685.48
312.73	1722.34
312.95	1626.09
313.16	1683.43
313.37	1755.11
313.59	1773.54
313.80	1708.01
314.01	1853.41
314.23	1675.24
314.44	1615.85
314.65	1638.38
314.87	1669.09
315.08	1703.91
315.29	1691.62
315.51	1681.38
315.72	1689.57
315.93	1822.69
316.15	1757.16
316.36	1660.90
316.57	1744.87
316.79	1695.72
317.00	1673.19
317.21	1716.20
317.43	1687.53
317.64	1765.35
317.85	1683.43
318.07	1716.20
318.28	1761.25
318.49	1783.78
318.70	1863.65
318.92	1820.64
319.13	1828.84
319.34	1820.64
319.56	1744.87
319.77	1763.30
319.98	1814.50
320.20	1781.73
320.41	1757.16
320.62	1810.40
320.83	1648.61
321.05	1783.78
321.26	1685.48
321.47	1703.91
321.69	1755.11
321.90	1710.05
322.11	1679.33
322.32	1646.57
322.54	1724.39
322.75	1634.28
322.96	1796.07
323.18	1667.05
323.39	1611.75
323.60	1687.53
323.81	1794.02
324.03	1587.18
324.24	1671.14
324.45	1695.72
324.66	1697.77
324.88	1783.78
325.09	1794.02
325.30	1675.24
325.52	1740.77
325.73	1689.57
325.94	1712.10
326.15	1617.90
326.37	1697.77
326.58	1820.64
326.79	1769.44
327.00	1640.42
327.22	1648.61
327.43	1742.82
327.64	1730.53
327.85	1689.57
328.07	1740.77
328.28	1787.88
328.49	1691.62
328.70	1695.72
328.92	1679.33
329.13	1691.62
329.34	1650.66
329.55	1865.70
329.76	1771.49
329.98	1705.96
330.19	1775.59
330.40	1695.72
330.61	1757.16
330.83	1832.93
331.04	1671.14
331.25	1726.44
331.46	1693.67
331.68	1677.29
331.89	1742.82
332.10	1730.53
332.31	1621.99
332.52	1671.14
332.74	1802.21
332.95	1644.52
333.16	1785.83
333.37	1673.19
333.58	1689.57
333.80	1697.77
334.01	1591.27
334.22	1708.01
334.43	1751.01
334.64	1708.01
334.86	1550.31
335.07	1677.29
335.28	1761.25
335.49	1585.13
335.70	1757.16
335.92	1773.54
336.13	1947.62
336.34	1783.78
336.55	1611.75
336.76	1769.44
336.98	1665.00
337.19	1722.34
337.40	1837.03
337.61	1867.75
337.82	1705.96
338.04	1757.16
338.25	1626.09
338.46	1669.09
338.67	1708.01
338.88	1660.90
339.09	1642.47
339.31	1689.57
339.52	1595.37
339.73	1673.19
339.94	1691.62
340.15	1730.53
340.36	1642.47
340.58	1615.85
340.79	1665.00
341.00	1693.67
341.21	1669.09
341.42	1830.88
341.63	1693.67
341.85	1724.39
342.06	1751.01
342.27	1705.96
342.48	1734.63
342.69	1585.13
342.90	1705.96
343.12	1757.16
343.33	1607.66
343.54	1658.85
343.75	1730.53
343.96	1677.29
344.17	1624.04
344.38	1785.83
344.60	1644.52
344.81	1654.76
345.02	1740.77
345.23	1671.14
345.44	1880.04
345.65	1779.68
345.86	1732.58
346.07	1691.62
346.29	1685.48
346.50	1687.53
346.71	1738.73
346.92	1804.26
347.13	1830.88
347.34	1628.14
347.55	1669.09
347.76	1732.58
347.98	1634.28
348.19	1703.91
348.40	1771.49
348.61	1601.51
348.82	1828.84
349.03	1773.54
349.24	1640.42
349.45	1718.25
349.66	1630.18
349.88	1722.34
350.09	1554.41
350.30	1773.54
350.51	1804.26
350.72	1708.01
350.93	1736.68
351.14	1687.53
351.35	1730.53
351.56	1669.09
351.77	1726.44
351.99	1708.01
352.20	1796.07
352.41	1767.40
352.62	1587.18
352.83	1667.05
353.04	1691.62
353.25	1681.38
353.46	1783.78
353.67	1734.63
353.88	1599.46
354.09	1675.24
354.30	1699.81
354.52	1697.77
354.73	1705.96
354.94	1689.57
355.15	1771.49
355.36	1837.03
355.57	1611.75
355.78	1656.81
355.99	1677.29
356.20	1710.05
356.41	1740.77
356.62	1683.43
356.83	1728.49
357.04	1779.68
357.25	1593.32
357.46	1685.48
357.68	1624.04
357.89	1640.42
358.10	1617.90
358.31	1632.23
358.52	1658.85
358.73	1626.09
358.94	1626.09
359.15	1708.01
359.36	1751.01
359.57	1697.77
359.78	1734.63
359.99	1710.05
360.20	1626.09
360.41	1646.57
360.62	1746.92
360.83	1665.00
361.04	1724.39
361.25	1714.15
361.46	1777.64
361.67	1746.92
361.88	1746.92
362.09	1718.25
362.30	1685.48
362.51	1615.85
362.72	1632.23
362.93	1761.25
363.14	1716.20
363.35	1759.21
363.56	1730.53
363.78	1761.25
363.99	1738.73
364.20	1652.71
364.41	1720.29
364.62	1773.54
364.83	1826.79
365.04	1683.43
365.25	1648.61
365.46	1800.16
365.67	1687.53
365.88	1630.18
366.09	1591.27
366.30	1615.85
366.51	1685.48
366.72	1632.23
366.93	1705.96
367.14	1685.48
367.35	1712.10
367.56	1736.68
367.77	1701.86
367.98	1697.77
368.18	1726.44
368.39	1771.49
368.60	1705.96
368.81	1738.73
369.02	1691.62
369.23	1662.95
369.44	1652.71
369.65	1675.24
369.86	1714.15
370.07	1748.97
370.28	1701.86
370.49	1710.05
370.70	1828.84
370.91	1718.25
371.12	1605.61
371.33	1695.72
371.54	1681.38
371.75	1841.12
371.96	1628.14
372.17	1767.40
372.38	1724.39
372.59	1736.68
372.80	1591.27
373.01	1722.34
373.22	1624.04
373.43	1613.80
373.64	1640.42
373.85	1691.62
374.06	1849.32
374.26	1705.96
374.47	1716.20
374.68	1828.84
374.89	1740.77
375.10	1738.73
375.31	1755.11
375.52	1648.61
375.73	1656.81
375.94	1660.90
376.15	1744.87
376.36	1675.24
376.57	1660.90
376.78	1667.05
376.99	1712.10
377.20	1744.87
377.40	1665.00
377.61	1873.89
377.82	1691.62
378.03	1742.82
378.24	1720.29
378.45	1675.24
378.66	1718.25
378.87	1634.28
379.08	1605.61
379.29	1665.00
379.50	1763.30
379.71	1716.20
379.91	1718.25
380.12	1757.16
380.33	1691.62
380.54	1665.00
380.75	1712.10
380.96	1689.57
381.17	1689.57
381.38	1746.92
381.59	1785.83
381.80	1703.91
382.00	1777.64
382.21	1724.39
382.42	1882.08
382.63	1859.56
382.84	1761.25
383.05	1818.60
383.26	1800.16
383.47	1736.68
383.68	1753.06
383.88	1751.01
384.09	1771.49
384.30	1738.73
384.51	1736.68
384.72	1634.28
384.93	1689.57
385.14	1728.49
385.35	1761.25
385.55	1576.94
385.76	1804.26
385.97	1693.67
386.18	1642.47
386.39	1716.20
386.60	1689.57
386.81	1761.25
387.02	1640.42
387.22	1677.29
387.43	1738.73
387.64	1726.44
387.85	1839.08
388.06	2156.51
388.27	4261.82
388.48	6827.93
388.68	8271.75
388.89	9752.43
389.10	9766.76
389.31	8652.67
389.52	7485.33
389.73	6746.01
389.93	6385.57
390.14	6098.85
390.35	5144.50
390.56	4511.68
390.77	3708.87
390.98	3047.38
391.18	2492.38
391.39	2050.02
391.60	1916.90
391.81	1851.36
392.02	1724.39
392.23	1859.56
392.43	1746.92
392.64	1740.77
392.85	1726.44
393.06	1820.64
393.27	1783.78
393.47	1679.33
393.68	1677.29
393.89	1634.28
394.10	1779.68
394.31	1751.01
394.52	1632.23
394.72	1656.81
394.93	1724.39
395.14	1646.57
395.35	1705.96
395.56	1746.92
395.76	1718.25
395.97	1857.51
396.18	1843.17
396.39	1775.59
396.60	2000.87
396.80	1947.62
397.01	1900.52
397.22	1871.84
397.43	1802.21
397.64	1771.49
397.84	1748.97
398.05	1785.83
398.26	1722.34
398.47	1787.88
398.67	1814.50
398.88	1708.01
399.09	1732.58
399.30	1673.19
399.51	1773.54
399.71	1638.38
399.92	1720.29
400.13	1726.44
400.34	1681.38
400.54	1699.81
400.75	1814.50
400.96	1746.92
401.17	1738.73
401.37	1730.53
401.58	1732.58
401.79	1722.34
402.00	1882.08
402.21	1996.77
402.41	1941.47
402.62	2002.91
402.83	2064.35
403.04	1972.19
403.24	2013.15
403.45	1843.17
403.66	1882.08
403.87	1896.42
404.07	1998.82
404.28	1859.56
404.49	1837.03
404.70	1763.30
404.90	1701.86
405.11	1730.53
405.32	1763.30
405.52	1710.05
405.73	1685.48
405.94	1658.85
406.15	1621.99
406.35	1724.39
406.56	1755.11
406.77	1689.57
406.98	1697.77
407.18	1679.33
407.39	1751.01
407.60	1722.34
407.80	1687.53
408.01	1665.00
408.22	1796.07
408.43	1669.09
408.63	1769.44
408.84	1734.63
409.05	1685.48
409.25	1646.57
409.46	1619.94
409.67	1703.91
409.88	1675.24
410.08	1742.82
410.29	1660.90
410.50	1722.34
410.70	1769.44
410.91	1662.95
411.12	1687.53
411.32	1701.86
411.53	1621.99
411.74	1703.91
411.95	1755.11
412.15	1738.73
412.36	1755.11
412.57	1710.05
412.77	1849.32
412.98	1744.87
413.19	1697.77
413.39	1697.77
413.60	1812.45
413.81	1763.30
414.01	1710.05
414.22	1779.68
414.43	1673.19
414.63	1691.62
414.84	1808.36
415.05	1738.73
415.25	1669.09
415.46	1761.25
415.67	1730.53
415.87	1732.58
416.08	1765.35
416.29	1697.77
416.49	1742.82
416.70	1714.15
416.91	1626.09
417.11	1671.14
417.32	1800.16
417.53	1800.16
417.73	1646.57
417.94	1662.95
418.15	1650.66
418.35	1665.00
418.56	1669.09
418.77	1880.04
418.97	1705.96
419.18	1652.71
419.38	1552.36
419.59	1689.57
419.80	1800.16
420.00	1673.19
420.21	1656.81
420.42	1810.40
420.62	1712.10
420.83	1656.81
421.04	1681.38
421.24	1736.68
421.45	1814.50
421.65	1791.97
421.86	1652.71
422.07	1830.88
422.27	1722.34
422.48	1656.81
422.69	1718.25
422.89	1708.01
423.10	1705.96
423.30	1609.70
423.51	1691.62
423.72	1693.67
423.92	1708.01
424.13	1658.85
424.33	1800.16
424.54	1734.63
424.75	1701.86
424.95	1705.96
425.16	1724.39
425.36	1642.47
425.57	1730.53
425.78	1630.18
425.98	1699.81
426.19	1699.81
426.39	1609.70
426.60	1720.29
426.81	1757.16
427.01	1701.86
427.22	1624.04
427.42	1656.81
427.63	1656.81
427.83	1718.25
428.04	1791.97
428.25	1789.92
428.45	1777.64
428.66	1841.12
428.86	1703.91
429.07	1662.95
429.28	1705.96
429.48	1701.86
429.69	1753.06
429.89	1730.53
430.10	1626.09
430.30	1744.87
430.51	1755.11
430.71	1730.53
430.92	1759.21
431.13	1705.96
431.33	1773.54
431.54	1734.63
431.74	1757.16
431.95	1785.83
432.15	1669.09
432.36	1665.00
432.56	1660.90
432.77	1744.87
432.98	1714.15
433.18	1722.34
433.39	1712.10
433.59	1705.96
433.80	1783.78
434.00	1871.84
434.21	1683.43
434.41	1708.01
434.62	1863.65
434.82	1724.39
435.03	1677.29
435.23	1724.39
435.44	1665.00
435.64	1789.92
435.85	1677.29
436.06	1800.16
436.26	1726.44
436.47	1669.09
436.67	1697.77
436.88	1675.24
437.08	1722.34
437.29	1800.16
437.49	1708.01
437.70	1779.68
437.90	1693.67
438.11	1880.04
438.31	1775.59
438.52	1806.31
438.72	1818.60
438.93	1824.74
439.13	1814.50
439.34	1767.40
439.54	1738.73
439.75	1816.55
439.95	1742.82
440.16	1693.67
440.36	1714.15
440.57	1755.11
440.77	1761.25
440.98	1759.21
441.18	1728.49
441.39	1710.05
441.59	1679.33
441.80	1820.64
442.00	1767.40
442.21	1779.68
442.41	1683.43
442.62	1771.49
442.82	1712.10
443.02	1746.92
443.23	1755.11
443.43	1644.52
443.64	1896.42
443.84	1681.38
444.05	1742.82
444.25	1724.39
444.46	1755.11
444.66	1763.30
444.87	1724.39
445.07	1716.20
445.28	1718.25
445.48	1787.88
445.69	1757.16
445.89	1806.31
446.09	1796.07
446.30	2066.40
446.50	2564.06
446.71	3682.25
446.91	4315.07
447.12	4796.34
447.32	4816.82
447.53	4337.60
447.73	3864.52
447.93	3502.03
448.14	3307.47
448.34	3112.91
448.55	2926.55
448.75	2760.66
448.96	2656.22
449.16	2371.55
449.36	2277.34
449.57	2086.88
449.77	1964.00
449.98	1806.31
450.18	1798.12
450.39	1824.74
450.59	1757.16
450.79	1720.29
451.00	1771.49
451.20	1814.50
451.41	1693.67
451.61	1703.91
451.81	1679.33
452.02	1650.66
452.22	1691.62
452.43	1695.72
452.63	1714.15
452.84	1794.02
453.04	1708.01
453.24	1738.73
453.45	1689.57
453.65	1677.29
453.86	1785.83
454.06	1722.34
454.26	1783.78
454.47	1646.57
454.67	1769.44
454.87	1732.58
455.08	1730.53
455.28	1828.84
455.49	1787.88
455.69	1617.90
455.89	1769.44
456.10	1816.55
456.30	1804.26
456.51	1748.97
456.71	1798.12
456.91	1699.81
457.12	1857.51
457.32	1718.25
457.52	1705.96
457.73	1748.97
457.93	1755.11
458.14	1701.86
458.34	1665.00
458.54	1677.29
458.75	1681.38
458.95	1816.55
459.15	1763.30
459.36	1759.21
459.56	1755.11
459.76	1832.93
459.97	1740.77
460.17	1673.19
460.37	1863.65
460.58	1708.01
460.78	1763.30
460.99	1712.10
461.19	1705.96
461.39	1669.09
461.60	1652.71
461.80	1783.78
462.00	1677.29
462.21	1728.49
462.41	1654.76
462.61	1716.20
462.82	1621.99
463.02	1722.34
463.22	1699.81
463.43	1794.02
463.63	1767.40
463.83	1789.92
464.04	1689.57
464.24	1753.06
464.44	1634.28
464.64	1718.25
464.85	1708.01
465.05	1761.25
465.25	1699.81
465.46	1683.43
465.66	1748.97
465.86	1843.17
466.07	1705.96
466.27	1697.77
466.47	1650.66
466.68	1630.18
466.88	1822.69
467.08	1746.92
467.29	1748.97
467.49	1851.36
467.69	1687.53
467.89	1767.40
468.10	1761.25
468.30	1687.53
468.50	1851.36
468.71	1703.91
468.91	1599.46
469.11	1841.12
469.31	1763.30
469.52	1634.28
469.72	1816.55
469.92	1843.17
470.13	1699.81
470.33	1804.26
470.53	1820.64
470.73	2185.18
470.94	2299.87
471.14	2273.25
471.34	2539.48
471.54	2426.84
471.75	2242.53
471.95	2183.13
472.15	2115.55
472.36	2095.07
472.56	2025.44
472.76	2101.22
472.96	1972.19
473.17	1923.04
473.37	1894.37
473.57	1794.02
473.77	1781.73
473.98	1785.83
474.18	1724.39
474.38	1939.43
474.58	1677.29
474.79	1687.53
474.99	1804.26
475.19	1832.93
475.39	1689.57
475.60	1796.07
475.80	1748.97
476.00	1732.58
476.20	1630.18
476.41	1669.09
476.61	1740.77
476.81	1785.83
477.01	1671.14
477.21	1816.55
477.42	1751.01
477.62	1642.47
477.82	1748.97
478.02	1695.72
478.23	1748.97
478.43	1722.34
478.63	1683.43
478.83	1783.78
479.03	1740.77
479.24	1744.87
479.44	1841.12
479.64	1748.97
479.84	1613.80
480.04	1708.01
480.25	1816.55
480.45	1634.28
480.65	1720.29
480.85	1705.96
481.06	1673.19
481.26	1662.95
481.46	1724.39
481.66	1701.86
481.86	1626.09
482.06	1834.98
482.27	1650.66
482.47	1746.92
482.67	1722.34
482.87	1705.96
483.07	1748.97
483.28	1621.99
483.48	1615.85
483.68	1771.49
483.88	1621.99
484.08	1566.70
484.29	1703.91
484.49	1730.53
484.69	1626.09
484.89	1757.16
485.09	1724.39
485.29	1751.01
485.50	1771.49
485.70	1720.29
485.90	1738.73
486.10	1671.14
486.30	1693.67
486.50	1726.44
486.71	1720.29
486.91	1753.06
487.11	1718.25
487.31	1675.24
487.51	1798.12
487.71	1593.32
487.91	1669.09
488.12	1660.90
488.32	1581.03
488.52	1687.53
488.72	1601.51
488.92	1703.91
489.12	1781.73
489.32	1800.16
489.53	1796.07
489.73	1601.51
489.93	1785.83
490.13	1751.01
490.33	1656.81
490.53	1767.40
490.73	1767.40
490.94	1644.52
491.14	1744.87
491.34	1867.75
491.54	2107.36
491.74	2541.53
491.94	2869.20
492.14	3008.47
492.34	3055.57
492.54	2744.28
492.75	2475.99
492.95	2465.75
493.15	2363.36
493.35	2351.07
493.55	2322.40
493.75	2131.94
493.95	2115.55
494.15	1992.67
494.35	1912.80
494.56	1837.03
494.76	1783.78
494.96	1824.74
495.16	1826.79
495.36	1751.01
495.56	1755.11
495.76	1734.63
495.96	1716.20
496.16	1595.37
496.36	1828.84
496.56	1732.58
496.77	1779.68
496.97	1685.48
497.17	1851.36
497.37	1681.38
497.57	1740.77
497.77	1720.29
497.97	1591.27
498.17	1736.68
498.37	1699.81
498.57	1740.77
498.77	1714.15
498.97	1738.73
499.17	1865.70
499.38	1779.68
499.58	1785.83
499.78	1787.88
499.98	1851.36
500.18	1697.77
500.38	1722.34
500.58	1953.76
500.78	2643.93
500.98	4464.57
501.18	5767.08
501.38	6821.78
501.58	7065.49
501.78	6698.91
501.98	5468.08
502.18	5089.20
502.38	4396.99
502.58	4138.94
502.78	3827.65
502.98	3545.03
503.18	3534.79
503.38	3229.65
503.59	2791.38
503.79	2783.19
503.99	2457.56
504.19	2334.68
504.39	2189.28
504.59	2103.26
504.79	2133.98
504.99	2021.35
505.19	1949.67
505.39	1859.56
505.59	1990.63
505.79	1892.32
505.99	1853.41
506.19	1796.07
506.39	1863.65
506.59	1710.05
506.79	1740.77
506.99	1867.75
507.19	1794.02
507.39	1714.15
507.59	1748.97
507.79	1667.05
507.99	1677.29
508.19	1693.67
508.39	1681.38
508.59	1761.25
508.79	1763.30
508.99	1820.64
509.19	1683.43
509.39	1701.86
509.59	1796.07
509.79	1683.43
509.99	1728.49
510.19	1789.92
510.39	1732.58
510.59	1748.97
510.79	1751.01
510.99	1746.92
511.19	1695.72
511.39	1773.54
511.59	1779.68
511.79	1822.69
511.99	1693.67
512.19	1822.69
512.38	1775.59
512.58	1693.67
512.78	1722.34
512.98	1802.21
513.18	1789.92
513.38	1650.66
513.58	1834.98
513.78	1730.53
513.98	1673.19
514.18	1689.57
514.38	1656.81
514.58	1714.15
514.78	1710.05
514.98	1730.53
515.18	1681.38
515.38	1660.90
515.58	1771.49
515.78	1773.54
515.98	1689.57
516.18	1753.06
516.38	1611.75
516.57	1742.82
516.77	1654.76
516.97	1732.58
517.17	1773.54
517.37	1681.38
517.57	1804.26
517.77	1724.39
517.97	1642.47
518.17	1738.73
518.37	1609.70
518.57	1718.25
518.77	1722.34
518.97	1724.39
519.16	1714.15
519.36	1882.08
519.56	1785.83
519.76	1783.78
519.96	1703.91
520.16	1839.08
520.36	1695.72
520.56	1820.64
520.76	1730.53
520.96	1683.43
521.16	1783.78
521.35	1839.08
521.55	1757.16
521.75	1701.86
521.95	1730.53
522.15	1689.57
522.35	1677.29
522.55	1636.33
522.75	1763.30
522.95	1861.60
523.14	1669.09
523.34	1763.30
523.54	1665.00
523.74	1783.78
523.94	1810.40
524.14	1697.77
524.34	1824.74
524.54	1849.32
524.73	1675.24
524.93	1763.30
525.13	1734.63
525.33	1683.43
525.53	1755.11
525.73	1701.86
525.93	1705.96
526.13	1736.68
526.32	1740.77
526.52	1785.83
526.72	1744.87
526.92	1728.49
527.12	1714.15
527.32	1628.14
527.52	1755.11
527.71	1787.88
527.91	1705.96
528.11	1710.05
528.31	1757.16
528.51	1619.94
528.71	1787.88
528.90	1847.27
529.10	1789.92
529.30	1789.92
529.50	1656.81
529.70	1751.01
529.90	1744.87
530.09	1771.49
530.29	1632.23
530.49	1716.20
530.69	1890.28
530.89	1767.40
531.09	1685.48
531.28	1701.86
531.48	1718.25
531.68	1716.20
531.88	1808.36
532.08	1751.01
532.28	1644.52
532.47	1763.30
532.67	1812.45
532.87	1843.17
533.07	1742.82
533.27	1738.73
533.46	1755.11
533.66	1857.51
533.86	1669.09
534.06	1820.64
534.26	1681.38
534.45	1662.95
534.65	1796.07
534.85	1871.84
535.05	1701.86
535.25	1804.26
535.44	1675.24
535.64	1810.40
535.84	1726.44
536.04	1746.92
536.24	1697.77
536.43	1681.38
536.63	1773.54
536.83	1751.01
537.03	1812.45
537.22	1738.73
537.42	1632.23
537.62	1755.11
537.82	1699.81
538.02	1757.16
538.21	1837.03
538.41	1871.84
538.61	1757.16
538.81	1765.35
539.00	1798.12
539.20	1615.85
539.40	1679.33
539.60	1660.90
539.79	1761.25
539.99	1728.49
540.19	1726.44
540.39	1746.92
540.58	1757.16
540.78	1730.53
540.98	1757.16
541.18	1787.88
541.37	1765.35
541.57	1742.82
541.77	1732.58
541.97	1689.57
542.16	1646.57
542.36	1734.63
542.56	1689.57
542.76	1875.94
542.95	1794.02
543.15	1814.50
543.35	1736.68
543.54	1763.30
543.74	1716.20
543.94	1843.17
544.14	1677.29
544.33	1714.15
544.53	1787.88
544.73	1710.05
544.93	1767.40
545.12	1621.99
545.32	1738.73
545.52	1689.57
545.71	1667.05
545.91	1662.95
546.11	1656.81
546.30	1705.96
546.50	1689.57
546.70	1791.97
546.90	1685.48
547.09	1669.09
547.29	1716.20
547.49	1724.39
547.68	1775.59
547.88	1652.71
548.08	1730.53
548.27	2162.66
548.47	1619.94
548.67	1699.81
548.87	1753.06
549.06	1759.21
549.26	1849.32
549.46	1814.50
549.65	1652.71
549.85	1843.17
550.05	1820.64
550.24	1689.57
550.44	1724.39
550.64	1761.25
550.83	1734.63
551.03	1843.17
551.23	1832.93
551.42	1759.21
551.62	1714.15
551.82	1695.72
552.01	1767.40
552.21	1755.11
552.41	1767.40
552.60	1755.11
552.80	1759.21
553.00	1716.20
553.19	1726.44
553.39	1808.36
553.59	1693.67
553.78	1832.93
553.98	1775.59
554.17	1671.14
554.37	1683.43
554.57	1814.50
554.76	1648.61
554.96	1730.53
555.16	1785.83
555.35	1726.44
555.55	1761.25
555.75	1742.82
555.94	1769.44
556.14	1632.23
556.33	1755.11
556.53	1742.82
556.73	1740.77
556.92	1779.68
557.12	1841.12
557.32	1855.46
557.51	1798.12
557.71	1802.21
557.90	1873.89
558.10	1816.55
558.30	1789.92
558.49	1687.53
558.69	1787.88
558.88	1744.87
559.08	1726.44
559.28	1697.77
559.47	1734.63
559.67	1806.31
559.86	1888.23
560.06	1734.63
560.26	1771.49
560.45	1736.68
560.65	1755.11
560.84	1845.22
561.04	1722.34
561.24	1777.64
561.43	1671.14
561.63	1791.97
561.82	1736.68
562.02	1708.01
562.22	1714.15
562.41	1730.53
562.61	1716.20
562.80	1714.15
563.00	1826.79
563.19	1787.88
563.39	1701.86
563.59	1800.16
563.78	1703.91
563.98	1617.90
564.17	1699.81
564.37	1697.77
564.56	1632.23
564.76	1730.53
564.96	1853.41
565.15	1734.63
565.35	1853.41
565.54	1689.57
565.74	1773.54
565.93	1785.83
566.13	1703.91
566.32	1765.35
566.52	1763.30
566.71	1638.38
566.91	1710.05
567.11	1761.25
567.30	1703.91
567.50	1791.97
567.69	1798.12
567.89	1746.92
568.08	1728.49
568.28	1777.64
568.47	1693.67
568.67	1746.92
568.86	1689.57
569.06	1806.31
569.25	1722.34
569.45	1636.33
569.64	1763.30
569.84	1705.96
570.04	1800.16
570.23	1724.39
570.43	1779.68
570.62	1775.59
570.82	1877.99
571.01	1703.91
571.21	1718.25
571.40	1638.38
571.60	1746.92
571.79	1773.54
571.99	1834.98
572.18	1667.05
572.38	1708.01
572.57	1710.05
572.77	1689.57
572.96	1882.08
573.16	1759.21
573.35	1781.73
573.55	1812.45
573.74	1753.06
573.94	1779.68
574.13	1705.96
574.33	1812.45
574.52	1748.97
574.71	1742.82
574.91	1738.73
575.10	1644.52
575.30	1769.44
575.49	1683.43
575.69	1685.48
575.88	1730.53
576.08	1748.97
576.27	1779.68
576.47	1716.20
576.66	1775.59
576.86	1894.37
577.05	1746.92
577.25	1787.88
577.44	1912.80
577.64	1769.44
577.83	1781.73
578.02	1794.02
578.22	1816.55
578.41	1775.59
578.61	1693.67
578.80	1636.33
579.00	1779.68
579.19	1808.36
579.39	1877.99
579.58	1837.03
579.77	1775.59
579.97	1837.03
580.16	1816.55
580.36	1824.74
580.55	1822.69
580.75	1697.77
580.94	1748.97
581.13	1867.75
581.33	1845.22
581.52	1751.01
581.72	1824.74
581.91	1845.22
582.11	1730.53
582.30	1818.60
582.49	1781.73
582.69	1808.36
582.88	1748.97
583.08	1730.53
583.27	1767.40
583.47	1732.58
583.66	1652.71
583.85	1763.30
584.05	1798.12
584.24	1834.98
584.44	1787.88
584.63	1818.60
584.82	1871.84
585.02	1877.99
585.21	1828.84
585.41	1904.61
585.60	1834.98
585.79	1976.29
585.99	1869.80
586.18	1820.64
586.37	2197.47
586.57	3430.35
586.76	9930.60
586.96	24555.15
587.15	34633.20
587.34	40873.36
587.54	42706.29
587.73	37072.33
587.93	26869.35
588.12	21638.84
588.31	18556.64
588.51	16344.84
588.70	15329.05
588.89	14370.60
589.09	12674.88
589.28	11218.77
589.47	9400.18
589.67	8136.58
589.86	6567.84
590.06	5015.48
590.25	3921.86
590.44	3203.02
590.64	2598.87
590.83	2256.86
591.02	2093.02
591.22	1859.56
591.41	1812.45
591.60	1816.55
591.80	1951.71
591.99	1787.88
592.18	1861.60
592.38	1810.40
592.57	1763.30
592.76	1773.54
592.96	1738.73
593.15	1736.68
593.34	1884.13
593.54	1720.29
593.73	1791.97
593.92	1665.00
594.12	1818.60
594.31	1751.01
594.50	1869.80
594.70	1748.97
594.89	1916.90
595.08	1722.34
595.28	1783.78
595.47	1828.84
595.66	1748.97
595.86	1699.81
596.05	1769.44
596.24	1775.59
596.43	1787.88
596.63	1843.17
596.82	1791.97
597.01	1746.92
597.21	1820.64
597.40	1808.36
597.59	1708.01
597.79	1775.59
597.98	1785.83
598.17	1712.10
598.36	1693.67
598.56	1785.83
598.75	1697.77
598.94	1761.25
599.14	1804.26
599.33	1669.09
599.52	1806.31
599.71	1740.77
599.91	1765.35
600.10	1808.36
600.29	1660.90
600.48	1763.30
600.68	1730.53
600.87	1738.73
601.06	1751.01
601.26	1656.81
601.45	1798.12
601.64	1748.97
601.83	1734.63
602.03	1693.67
602.22	1757.16
602.41	1822.69
602.60	1785.83
602.80	1746.92
602.99	1755.11
603.18	1699.81
603.37	1796.07
603.57	1757.16
603.76	1669.09
603.95	1785.83
604.14	1693.67
604.34	1718.25
604.53	1703.91
604.72	1746.92
604.91	1753.06
605.10	1728.49
605.30	1705.96
605.49	1863.65
605.68	1738.73
605.87	1751.01
606.07	1742.82
606.26	1710.05
606.45	1746.92
606.64	1695.72
606.84	1685.48
607.03	1732.58
607.22	1808.36
607.41	1738.73
607.60	1728.49
607.80	1789.92
607.99	1746.92
608.18	1687.53
608.37	1748.97
608.56	1748.97
608.76	1775.59
608.95	1818.60
609.14	1794.02
609.33	1675.24
609.52	1687.53
609.72	1611.75
609.91	1820.64
610.10	1796.07
610.29	1783.78
610.48	1787.88
610.68	1822.69
610.87	1712.10
611.06	1757.16
611.25	1738.73
611.44	1753.06
611.63	1718.25
611.83	1808.36
612.02	1658.85
612.21	1734.63
612.40	1673.19
612.59	1673.19
612.79	1574.89
612.98	1746.92
613.17	1777.64
613.36	1677.29
613.55	1779.68
613.74	1689.57
613.93	1740.77
614.13	1654.76
614.32	1677.29
614.51	1718.25
614.70	1695.72
614.89	1732.58
615.08	1732.58
615.28	1982.43
615.47	1658.85
615.66	1763.30
615.85	1738.73
616.04	1859.56
616.23	1705.96
616.42	1679.33
616.62	1726.44
616.81	1677.29
617.00	1681.38
617.19	1865.70
617.38	1615.85
617.57	1734.63
617.76	1734.63
617.95	1771.49
618.15	1703.91
618.34	1812.45
618.53	1632.23
618.72	1732.58
618.91	1779.68
619.10	1851.36
619.29	1744.87
619.48	1765.35
619.68	1675.24
619.87	1742.82
620.06	1646.57
620.25	1705.96
620.44	1783.78
620.63	1708.01
620.82	1718.25
621.01	1710.05
621.20	1650.66
621.39	1697.77
621.59	1761.25
621.78	1757.16
621.97	1800.16
622.16	1791.97
622.35	1757.16
622.54	1769.44
622.73	1779.68
622.92	1619.94
623.11	1785.83
623.30	1689.57
623.49	1775.59
623.68	1773.54
623.88	1798.12
624.07	1746.92
624.26	1703.91
624.45	1736.68
624.64	1708.01
624.83	1763.30
625.02	1648.61
625.21	1718.25
625.40	1755.11
625.59	1763.30
625.78	1767.40
625.97	1763.30
626.16	1703.91
626.35	1685.48
626.54	1693.67
626.74	1800.16
626.93	1689.57
627.12	1662.95
627.31	1832.93
627.50	1679.33
627.69	1808.36
627.88	1689.57
628.07	1691.62
628.26	1726.44
628.45	1687.53
628.64	1636.33
628.83	1714.15
629.02	1689.57
629.21	1714.15
629.40	1701.86
629.59	1685.48
629.78	1730.53
629.97	1640.42
630.16	1744.87
630.35	1710.05
630.54	1654.76
630.73	1662.95
630.92	1775.59
631.11	1714.15
631.30	1726.44
631.49	1730.53
631.68	1677.29
631.87	1755.11
632.06	1697.77
632.25	1894.37
632.44	1687.53
632.63	1763.30
632.82	1679.33
633.01	1699.81
633.20	1677.29
633.39	1697.77
633.58	1615.85
633.77	1705.96
633.96	1748.97
634.15	1800.16
634.34	1814.50
634.53	1705.96
634.72	1667.05
634.91	1624.04
635.10	1714.15
635.29	1781.73
635.48	1693.67
635.67	1714.15
635.86	1646.57
636.05	1855.46
636.24	1763.30
636.43	1695.72
636.62	1757.16
636.81	1605.61
637.00	1697.77
637.19	1656.81
637.38	1697.77
637.57	1603.56
637.76	1718.25
637.95	1708.01
638.14	1669.09
638.33	1748.97
638.52	1730.53
638.71	1677.29
638.89	1667.05
639.08	1814.50
639.27	1765.35
639.46	1681.38
639.65	1794.02
639.84	1763.30
640.03	1644.52
640.22	1662.95
640.41	1794.02
640.60	1705.96
640.79	1800.16
640.98	1708.01
641.17	1759.21
641.36	1806.31
641.55	1771.49
641.74	1687.53
641.92	1640.42
642.11	1708.01
642.30	1705.96
642.49	1675.24
642.68	1742.82
642.87	1687.53
643.06	1808.36
643.25	1695.72
643.44	1617.90
643.63	1794.02
643.82	1816.55
644.00	1710.05
644.19	1716.20
644.38	1665.00
644.57	1779.68
644.76	1738.73
644.95	1734.63
645.14	1712.10
645.33	1687.53
645.52	1781.73
645.71	1685.48
645.89	1613.80
646.08	1789.92
646.27	1763.30
646.46	1824.74
646.65	1589.22
646.84	1697.77
647.03	1595.37
647.22	1812.45
647.40	1716.20
647.59	1722.34
647.78	1540.07
647.97	1691.62
648.16	1624.04
648.35	1834.98
648.54	1808.36
648.73	1740.77
648.91	1732.58
649.10	1730.53
649.29	1648.61
649.48	1726.44
649.67	1705.96
649.86	1609.70
650.05	1695.72
650.23	1708.01
650.42	1665.00
650.61	1787.88
650.80	1775.59
650.99	1810.40
651.18	1740.77
651.36	1773.54
651.55	1640.42
651.74	1828.84
651.93	1730.53
652.12	1716.20
652.31	1705.96
652.49	1701.86
652.68	1660.90
652.87	1783.78
653.06	1763.30
653.25	1849.32
653.44	1736.68
653.62	1746.92
653.81	1773.54
654.00	1673.19
654.19	1769.44
654.38	1890.28
654.56	1708.01
654.75	1687.53
654.94	1708.01
655.13	1662.95
655.32	1697.77
655.51	1757.16
655.69	1693.67
655.88	1740.77
656.07	1691.62
656.26	1820.64
656.45	1644.52
656.63	1726.44
656.82	1734.63
657.01	1699.81
657.20	1691.62
657.38	1732.58
657.57	1738.73
657.76	1576.94
657.95	1900.52
658.14	1667.05
658.32	1744.87
658.51	1634.28
658.70	1759.21
658.89	1703.91
659.08	1738.73
659.26	1812.45
659.45	1765.35
659.64	1787.88
659.83	1732.58
660.01	1847.27
660.20	1705.96
660.39	1796.07
660.58	1636.33
660.76	1763.30
660.95	1708.01
661.14	1751.01
661.33	1609.70
661.51	1701.86
661.70	1699.81
661.89	1746.92
662.08	1765.35
662.26	1642.47
662.45	1624.04
662.64	1806.31
662.83	1771.49
663.01	1621.99
663.20	1644.52
663.39	1839.08
663.58	1703.91
663.76	1765.35
663.95	1746.92
664.14	1726.44
664.32	1710.05
664.51	1716.20
664.70	1660.90
664.89	1705.96
665.07	1669.09
665.26	1800.16
665.45	1685.48
665.64	1753.06
665.82	1701.86
666.01	1730.53
666.20	1732.58
666.38	1732.58
666.57	1832.93
666.76	2197.47
666.95	4444.09
667.13	10618.72
667.32	15349.53
667.51	17829.62
667.69	19193.56
667.88	17815.28
668.07	12269.38
668.25	9635.69
668.44	8292.23
668.63	7497.61
668.81	6733.72
669.00	6154.15
669.19	5617.58
669.38	5072.82
669.56	4548.54
669.75	3983.30
669.94	3477.45
670.12	2891.73
670.31	2494.43
670.50	2299.87
670.68	2000.87
670.87	1961.95
671.06	1724.39
671.24	1763.30
671.43	1818.60
671.62	1777.64
671.80	1685.48
671.99	1673.19
672.18	1712.10
672.36	1742.82
672.55	1763.30
672.74	1722.34
672.92	1697.77
673.11	1806.31
673.29	1689.57
673.48	1734.63
673.67	1646.57
673.85	1781.73
674.04	1607.66
674.23	1755.11
674.41	1791.97
674.60	1632.23
674.79	1615.85
674.97	1746.92
675.16	1753.06
675.34	1759.21
675.53	1671.14
675.72	1734.63
675.90	1808.36
676.09	1613.80
676.28	1824.74
676.46	1638.38
676.65	1789.92
676.83	1701.86
677.02	1671.14
677.21	1710.05
677.39	1724.39
677.58	1742.82
677.77	1646.57
677.95	1738.73
678.14	1656.81
678.32	1714.15
678.51	1748.97
678.70	1867.75
678.88	1708.01
679.07	1722.34
679.25	1773.54
679.44	1740.77
679.63	1648.61
679.81	1689.57
680.00	1783.78
680.18	1765.35
680.37	1767.40
680.55	1763.30
680.74	1669.09
680.93	1540.07
681.11	1769.44
681.30	1730.53
681.48	1720.29
681.67	1644.52
681.85	1697.77
682.04	1640.42
682.23	1769.44
682.41	1785.83
682.60	1730.53
682.78	1689.57
682.97	1689.57
683.15	1671.14
683.34	1757.16
683.53	1718.25
683.71	1673.19
683.90	1748.97
684.08	1824.74
684.27	1765.35
684.45	1691.62
684.64	1744.87
684.82	1722.34
685.01	1710.05
685.19	1755.11
685.38	1847.27
685.57	1697.77
685.75	1697.77
685.94	1718.25
686.12	1624.04
686.31	1648.61
686.49	1806.31
686.68	1615.85
686.86	1673.19
687.05	1683.43
687.23	1714.15
687.42	1710.05
687.60	1681.38
687.79	1783.78
687.97	1910.75
688.16	1830.88
688.34	1716.20
688.53	1646.57
688.71	1718.25
688.90	1781.73
689.08	1697.77
689.27	1652.71
689.45	1705.96
689.64	1738.73
689.82	1675.24
690.01	1695.72
690.19	1759.21
690.38	1757.16
690.56	1882.08
690.75	1669.09
690.93	1683.43
691.12	1685.48
691.30	1748.97
691.49	1695.72
691.67	1646.57
691.86	1861.60
692.04	1697.77
692.23	1658.85
692.41	1761.25
692.60	1785.83
692.78	1812.45
692.97	1554.41
693.15	1710.05
693.34	1802.21
693.52	1808.36
693.71	1728.49
693.89	1626.09
694.08	1546.22
694.26	1783.78
694.44	1802.21
694.63	1755.11
694.81	1701.86
695.00	1626.09
695.18	1718.25
695.37	1816.55
695.55	1646.57
695.74	1658.85
695.92	1650.66
696.10	1767.40
696.29	1585.13
696.47	1740.77
696.66	1632.23
696.84	1640.42
697.03	1785.83
697.21	1837.03
697.40	2377.69
697.58	1759.21
697.76	1640.42
697.95	1710.05
698.13	1734.63
698.32	1742.82
698.50	1732.58
698.68	1791.97
698.87	1685.48
699.05	1740.77
699.24	1695.72
699.42	1685.48
699.61	1691.62
699.79	1708.01
699.97	1732.58
700.16	1665.00
700.34	1621.99
700.53	1746.92
700.71	1808.36
700.89	1796.07
701.08	1683.43
701.26	1675.24
701.45	2070.50
701.63	1665.00
701.81	1607.66
702.00	1665.00
702.18	1660.90
702.37	1605.61
702.55	1769.44
702.73	1710.05
702.92	1626.09
703.10	1744.87
703.28	1656.81
703.47	1613.80
703.65	1722.34
703.84	1783.78
704.02	1585.13
704.20	1769.44
704.39	1679.33
704.57	1634.28
704.75	1767.40
704.94	1697.77
705.12	1710.05
705.30	1744.87
705.49	2224.09
705.67	4440.00
705.86	9437.04
706.04	12707.65
706.22	14757.66
706.41	15601.43
706.59	13985.58
706.77	9840.49
706.96	7432.08
707.14	6684.57
707.32	5941.16
707.51	5492.65
707.69	4911.03
707.87	4302.78
708.06	3565.51
708.24	2916.31
708.42	2342.88
708.61	2283.49
708.79	1912.80
708.97	1892.32
709.16	1816.55
709.34	1738.73
709.52	1740.77
709.71	1755.11
709.89	1751.01
710.07	1724.39
710.26	1744.87
710.44	1779.68
710.62	1683.43
710.80	1744.87
710.99	1755.11
711.17	1763.30
711.35	1644.52
711.54	1642.47
711.72	1832.93
711.90	1716.20
712.09	1689.57
712.27	1693.67
712.45	1710.05
712.63	1609.70
712.82	1697.77
713.00	1679.33
713.18	1777.64
713.37	1787.88
713.55	1824.74
713.73	1730.53
713.91	1736.68
714.10	1662.95
714.28	1722.34
714.46	1732.58
714.65	1785.83
714.83	1773.54
715.01	1703.91
715.19	1677.29
715.38	1669.09
715.56	1748.97
715.74	1699.81
715.92	1619.94
716.11	1814.50
716.29	1611.75
716.47	1689.57
716.65	1730.53
716.84	1615.85
717.02	1800.16
717.20	1638.38
717.38	1662.95
717.57	1718.25
717.75	1816.55
717.93	1708.01
718.11	1789.92
718.30	1701.86
718.48	1794.02
718.66	1726.44
718.84	1722.34
719.03	1703.91
719.21	1632.23
719.39	1806.31
719.57	1708.01
719.75	1718.25
719.94	1673.19
720.12	1693.67
720.30	1708.01
720.48	1806.31
720.67	1660.90
720.85	1636.33
721.03	1679.33
721.21	1673.19
721.39	1736.68
721.58	1708.01
721.76	1705.96
721.94	1748.97
722.12	1798.12
722.30	1771.49
722.49	1671.14
722.67	1681.38
722.85	1701.86
723.03	1667.05
723.21	1613.80
723.40	1781.73
723.58	1701.86
723.76	1789.92
723.94	1796.07
724.12	1755.11
724.30	1763.30
724.49	1822.69
724.67	1665.00
724.85	1847.27
725.03	1648.61
725.21	1806.31
725.40	1755.11
725.58	1595.37
725.76	1701.86
725.94	1738.73
726.12	1724.39
726.30	1710.05
726.49	1685.48
726.67	1710.05
726.85	1791.97
727.03	1771.49
727.21	2205.66
727.39	2891.73
727.57	3663.82
727.76	4255.68
727.94	4401.08
728.12	4425.66
728.30	3653.58
728.48	3037.14
728.66	2734.04
728.84	2508.76
729.03	2375.64
729.21	2136.03
729.39	2002.91
729.57	1806.31
729.75	1787.88
729.93	1820.64
730.11	1714.15
730.30	1695.72
730.48	1693.67
730.66	1757.16
730.84	1779.68
731.02	1751.01
731.20	1675.24
731.38	1701.86
731.56	1648.61
731.74	1597.42
731.93	1769.44
732.11	1738.73
732.29	1726.44
732.47	1708.01
732.65	1724.39
732.83	1753.06
733.01	1705.96
733.19	1636.33
733.37	1734.63
733.56	1705.96
733.74	1683.43
733.92	1816.55
734.10	1708.01
734.28	1689.57
734.46	1615.85
734.64	1744.87
734.82	1718.25
735.00	1669.09
735.18	1644.52
735.36	1718.25
735.54	1746.92
735.73	1673.19
735.91	1650.66
736.09	1746.92
736.27	1732.58
736.45	1679.33
736.63	1601.51
736.81	1669.09
736.99	1800.16
737.17	1730.53
737.35	1626.09
737.53	1742.82
737.71	1699.81
737.89	1802.21
738.07	1697.77
738.25	1570.79
738.43	1613.80
738.61	1638.38
738.80	1669.09
738.98	1675.24
739.16	1671.14
739.34	1687.53
739.52	1800.16
739.70	1730.53
739.88	1722.34
740.06	1740.77
740.24	1615.85
740.42	1693.67
740.60	1640.42
740.78	1654.76
740.96	1624.04
741.14	1759.21
741.32	1738.73
741.50	1624.04
741.68	1812.45
741.86	1697.77
742.04	1736.68
742.22	1638.38
742.40	1728.49
742.58	1740.77
742.76	1646.57
742.94	1744.87
743.12	1714.15
743.30	1683.43
743.48	1728.49
743.66	1660.90
743.84	1667.05
744.02	1701.86
744.20	1724.39
744.38	1601.51
744.56	1628.14
744.74	1781.73
744.92	1765.35
745.10	1763.30
745.28	1779.68
745.46	1773.54
745.64	1628.14
745.82	1667.05
746.00	1736.68
746.18	1652.71
746.36	1601.51
746.54	1787.88
746.72	1650.66
746.90	1665.00
747.08	1740.77
747.26	1708.01
747.44	1796.07
747.62	1689.57
747.80	1693.67
747.98	1718.25
748.15	1705.96
748.33	1828.84
748.51	1722.34
748.69	1738.73
748.87	1658.85
749.05	1665.00
749.23	1716.20
749.41	1800.16
749.59	1669.09
749.77	1773.54
749.95	1718.25
750.13	1662.95
750.31	1751.01
750.49	1708.01
750.67	1746.92
750.85	1798.12
751.03	1685.48
751.20	1771.49
751.38	1691.62
751.56	1685.48
751.74	1726.44
751.92	1695.72
752.10	1660.90
752.28	1787.88
752.46	1652.71
752.64	1740.77
752.82	1650.66
753.00	1785.83
753.18	1710.05
753.35	1693.67
753.53	1671.14
753.71	1646.57
753.89	1669.09
754.07	1728.49
754.25	1699.81
754.43	1675.24
754.61	1675.24
754.79	1728.49
754.97	1703.91
755.14	1714.15
755.32	1574.89
755.50	1656.81
755.68	1757.16
755.86	1695.72
756.04	1656.81
756.22	1609.70
756.40	1722.34
756.57	1832.93
756.75	1658.85
756.93	1808.36
757.11	1746.92
757.29	1701.86
757.47	1609.70
757.65	1607.66
757.82	1554.41
758.00	1650.66
758.18	1697.77
758.36	1728.49
758.54	1779.68
758.72	1640.42
758.90	1753.06
759.07	1734.63
759.25	1710.05
759.43	1818.60
759.61	1665.00
759.79	2197.47
759.97	1652.71
760.15	1640.42
760.32	1665.00
760.50	1705.96
760.68	1794.02
760.86	1562.60
761.04	1791.97
761.22	1708.01
761.39	1716.20
761.57	1785.83
761.75	1763.30
761.93	1796.07
762.11	1669.09
762.28	1685.48
762.46	1740.77
762.64	1714.15
762.82	1685.48
763.00	1640.42
763.18	1757.16
763.35	1658.85
763.53	1718.25
763.71	1689.57
763.89	1730.53
764.07	1681.38
764.24	1699.81
764.42	1697.77
764.60	1693.67
764.78	1693.67
764.96	1802.21
765.13	1808.36
765.31	1681.38
765.49	1640.42
765.67	1730.53
765.84	1671.14
766.02	1658.85
766.20	1656.81
766.38	1771.49
766.56	1712.10
766.73	1789.92
766.91	1681.38
767.09	1740.77
767.27	1824.74
767.44	1615.85
767.62	1744.87
767.80	1675.24
767.98	1724.39
768.15	1734.63
768.33	1804.26
768.51	1695.72
768.69	1775.59
768.87	1728.49
769.04	1703.91
769.22	1806.31
769.40	1746.92
769.58	1753.06
769.75	1714.15
769.93	1755.11
770.11	1636.33
770.28	1689.57
770.46	1724.39
770.64	1716.20
770.82	1730.53
770.99	1689.57
771.17	1714.15
771.35	1677.29
771.53	1724.39
771.70	1650.66
771.88	1712.10
772.06	1718.25
772.23	1695.72
772.41	1787.88
772.59	1724.39
772.77	1671.14
772.94	1681.38
773.12	1650.66
773.30	1636.33
773.47	1783.78
773.65	1679.33
773.83	1816.55
774.01	1662.95
774.18	1640.42
774.36	1701.86
774.54	1644.52
774.71	1695.72
774.89	1585.13
775.07	1613.80
775.24	1644.52
775.42	1703.91
775.60	1818.60
775.78	1683.43
775.95	1605.61
776.13	1699.81
776.31	1495.02
776.48	1828.84
776.66	1736.68
776.84	1689.57
777.01	1638.38
777.19	1712.10
777.37	1691.62
777.54	1828.84
777.72	1804.26
777.90	1712.10
778.07	1595.37
778.25	1927.14
778.43	1775.59
778.60	1671.14
778.78	1746.92
778.96	1818.60
779.13	1695.72
779.31	1708.01
779.49	1703.91
779.66	1734.63
779.84	1724.39
780.01	1648.61
780.19	1648.61
780.37	1753.06
780.54	1763.30
780.72	1660.90
780.90	1757.16
781.07	1646.57
781.25	1667.05
781.43	1738.73
781.60	1599.46
781.78	1660.90
781.95	1687.53
782.13	1675.24
782.31	1712.10
782.48	1658.85
782.66	1736.68
782.83	1708.01
783.01	1724.39
783.19	1798.12
783.36	1679.33
783.54	1589.22
783.72	1699.81
783.89	1630.18
784.07	1767.40
784.24	1751.01
784.42	1779.68
784.60	1710.05
784.77	1742.82
784.95	1578.98
785.12	1642.47
785.30	1710.05
785.47	1681.38
785.65	1685.48
785.83	1646.57
786.00	1640.42
786.18	1665.00
786.35	1624.04
786.53	1658.85
786.71	1714.15
786.88	1742.82
787.06	1677.29
787.23	1681.38
787.41	1720.29
787.58	1738.73
787.76	1603.56
787.94	1720.29
788.11	1705.96
788.29	1652.71
788.46	1621.99
788.64	1609.70
788.81	1687.53
788.99	1691.62
789.16	1619.94
789.34	1636.33
789.52	1675.24
789.69	1648.61
789.87	1660.90
790.04	1726.44
790.22	1665.00
790.39	1814.50
790.57	1665.00
790.74	1673.19
790.92	1724.39
791.09	1667.05
791.27	1611.75
791.44	1800.16
791.62	1675.24
791.79	1781.73
791.97	1722.34
792.15	1886.18
792.32	1730.53
792.50	1751.01
792.67	1820.64
792.85	1753.06
793.02	1699.81
793.20	1697.77
793.37	1570.79
793.55	1701.86
793.72	1621.99
793.90	1716.20
794.07	1652.71
794.25	1708.01
794.42	1665.00
794.60	1699.81
794.77	1720.29
794.95	1773.54
795.12	1812.45
795.30	1648.61
795.47	1578.98
795.65	1873.89
795.82	1755.11
796.00	1695.72
796.17	1718.25
796.34	1642.47
796.52	1660.90
796.69	1765.35
796.87	1734.63
797.04	1708.01
797.22	1726.44
797.39	1695.72
797.57	1740.77
797.74	1738.73
797.92	1624.04
798.09	1640.42
798.27	1759.21
798.44	1697.77
798.62	1679.33
798.79	1736.68
798.96	1798.12
799.14	1656.81
799.31	1839.08
799.49	1632.23
799.66	1662.95
799.84	1765.35
800.01	1710.05
800.19	1746.92
800.36	1566.70
800.53	1701.86
800.71	1740.77
800.88	1851.36
801.06	1636.33
801.23	1708.01
801.41	1673.19
801.58	1681.38
801.75	1724.39
801.93	1800.16
802.10	1679.33
802.28	1675.24
802.45	1630.18
802.63	1732.58
802.80	1755.11
802.97	1708.01
803.15	1685.48
803.32	1675.24
803.50	1621.99
803.67	1718.25
803.84	1667.05
804.02	1710.05
804.19	1585.13
804.37	1609.70
804.54	1681.38
804.71	1724.39
804.89	1701.86
805.06	1603.56
805.24	1638.38
805.41	1658.85
805.58	1656.81
805.76	1849.32
805.93	1658.85
806.10	1791.97
806.28	1748.97
806.45	1689.57
806.63	1708.01
806.80	1722.34
806.97	1718.25
807.15	1693.67
807.32	1734.63
807.49	1740.77
807.67	1716.20
807.84	1755.11
808.01	1607.66
808.19	1722.34
808.36	1800.16
808.54	1701.86
808.71	1693.67
808.88	1732.58
809.06	1718.25
809.23	1757.16
809.40	1621.99
809.58	1761.25
809.75	1730.53
809.92	1710.05
810.10	1853.41
810.27	1654.76
810.44	1691.62
810.62	1693.67
810.79	1726.44
810.96	1665.00
811.14	1673.19
811.31	1675.24
811.48	1630.18
811.66	1699.81
811.83	1712.10
812.00	1755.11
812.18	1648.61
812.35	1765.35
812.52	1673.19
812.69	1751.01
812.87	1683.43
813.04	1652.71
813.21	1642.47
813.39	1632.23
813.56	1650.66
813.73	1847.27
813.91	1646.57
814.08	1636.33
814.25	1718.25
814.42	1611.75
814.60	1701.86
814.77	1751.01
814.94	1740.77
815.12	1726.44
815.29	1720.29
815.46	1712.10
815.63	1726.44
815.81	1638.38
815.98	1669.09
816.15	1667.05
816.33	1695.72
816.50	1603.56
816.67	1767.40
816.84	1611.75
817.02	1617.90
817.19	1677.29
817.36	1662.95
817.53	1716.20
817.71	1615.85
817.88	1679.33
818.05	1710.05
818.22	1671.14
818.40	1818.60
818.57	1691.62
818.74	1800.16
818.91	1701.86
819.09	1720.29
819.26	1755.11
819.43	1619.94
819.60	1667.05
819.78	1675.24
819.95	1742.82
820.12	1583.08
820.29	1746.92
820.47	1724.39
820.64	1697.77
820.81	1619.94
820.98	1619.94
821.15	1669.09
821.33	1730.53
821.50	1599.46
821.67	1728.49
821.84	1638.38
822.02	1787.88
822.19	1720.29
822.36	1722.34
822.53	1728.49
822.70	1597.42
822.88	1738.73
823.05	1812.45
823.22	1677.29
823.39	1718.25
823.56	1724.39
823.74	1734.63
823.91	1683.43
824.08	1695.72
824.25	1650.66
824.42	1767.40
824.60	1669.09
824.77	1718.25
824.94	1638.38
825.11	1763.30
825.28	1595.37
825.45	1755.11
825.63	1734.63
825.80	1699.81
825.97	1677.29
826.14	1730.53
826.31	1601.51
826.48	1775.59
826.66	1671.14
826.83	1593.32
827.00	1708.01
827.17	1650.66
827.34	1693.67
827.51	1671.14
827.69	1699.81
827.86	1632.23
828.03	1660.90
828.20	1703.91
828.37	1693.67
828.54	1658.85
828.71	1671.14
828.89	1818.60
829.06	1767.40
829.23	1730.53
829.40	1568.74
829.57	1673.19
829.74	1740.77
829.91	1685.48
830.09	1662.95
830.26	1691.62
830.43	1791.97
830.60	1660.90
830.77	1765.35
830.94	1730.53
831.11	1759.21
831.28	1728.49
831.46	1736.68
831.63	1671.14
831.80	1703.91
831.97	1646.57
832.14	1617.90
832.31	1673.19
832.48	1689.57
832.65	1738.73
832.82	1708.01
832.99	1763.30
833.17	1695.72
833.34	1789.92
833.51	1777.64
833.68	1607.66
833.85	1714.15
834.02	1722.34
834.19	1681.38
834.36	1677.29
834.53	1673.19
834.70	1738.73
834.87	1757.16
835.04	1708.01
835.22	1681.38
835.39	1748.97
835.56	1599.46
835.73	1634.28
835.90	1662.95
836.07	1628.14
836.24	1720.29
836.41	1650.66
836.58	1642.47
836.75	1726.44
836.92	1689.57
837.09	1681.38
837.26	1779.68
837.43	1718.25
837.60	1658.85
837.77	1648.61
837.94	1746.92
838.12	1773.54
838.29	1689.57
838.46	1628.14
838.63	1644.52
838.80	1769.44
838.97	1730.53
839.14	1671.14
839.31	1765.35
839.48	1751.01
839.65	1751.01
839.82	1703.91
839.99	1728.49
840.16	1722.34
840.33	1685.48
840.50	1697.77
840.67	1669.09
840.84	1685.48
841.01	1744.87
841.18	1656.81
841.35	1671.14
841.52	1677.29
841.69	1791.97
841.86	1681.38
842.03	1638.38
842.20	1744.87
842.37	1689.57
842.54	1650.66
842.71	1615.85
842.88	1597.42
843.05	1787.88
843.22	1644.52
843.39	1751.01
843.56	1665.00
843.73	1757.16
843.90	1728.49
844.07	1738.73
844.24	1667.05
844.41	1703.91
844.58	1722.34
844.75	1732.58
844.92	1738.73
845.09	1673.19
845.26	1613.80
845.43	1746.92
845.60	1673.19
845.77	1783.78
845.94	1726.44
846.10	1675.24
846.27	1611.75
846.44	1611.75
846.61	1695.72
846.78	1603.56
846.95	1773.54
847.12	1597.42
847.29	1624.04
847.46	1667.05
847.63	1687.53
847.80	1681.38
847.97	1705.96
848.14	1808.36
848.31	1636.33
848.48	1644.52
848.65	1728.49
848.82	1671.14
848.98	1771.49
849.15	1808.36
849.32	1730.53
849.49	1746.92
849.66	1683.43
849.83	1710.05
850.00	1673.19
850.17	1734.63
850.34	1695.72
850.51	1677.29
850.68	1652.71
850.85	1767.40
851.01	1751.01
851.18	1763.30
851.35	1634.28
851.52	1677.29
851.69	1880.04
851.86	1617.90
852.03	1624.04
852.20	1730.53
852.37	1730.53
852.53	1597.42
852.70	1724.39
852.87	1726.44
853.04	1673.19
853.21	1665.00
853.38	1708.01
853.55	1767.40
853.72	1726.44
853.89	1628.14
854.05	1671.14
854.22	1718.25
854.39	1685.48
854.56	1734.63
854.73	1722.34
854.90	1656.81
855.07	1728.49
855.23	1697.77
855.40	1669.09
855.57	1732.58
855.74	1607.66
855.91	1832.93
856.08	1621.99
856.25	1624.04
856.41	1603.56
856.58	1718.25
856.75	1708.01
856.92	1646.57
857.09	1765.35
857.26	1603.56
857.42	1628.14
857.59	1796.07
857.76	1650.66
857.93	1746.92
858.10	1710.05
858.27	1578.98
858.43	1667.05
858.60	1642.47
858.77	1675.24
858.94	1667.05
859.11	1765.35
859.27	1679.33
859.44	1726.44
859.61	1873.89
859.78	1708.01
859.95	1642.47
860.12	1697.77
860.28	1787.88
860.45	1714.15
860.62	1683.43
860.79	1691.62
860.95	1693.67
861.12	1630.18
861.29	1728.49
861.46	1683.43
861.63	1685.48
861.79	1679.33
861.96	1662.95
862.13	1714.15
862.30	1742.82
862.47	1691.62
862.63	1673.19
862.80	1708.01
862.97	1726.44
863.14	1724.39
863.30	1742.82
863.47	1691.62
863.64	1826.79
863.81	1730.53
863.97	1736.68
864.14	1753.06
864.31	1716.20
864.48	1718.25
864.65	1705.96
864.81	1767.40
864.98	1748.97
865.15	1673.19
865.32	1779.68
865.48	1710.05
865.65	1808.36
865.82	1665.00
865.98	1726.44
866.15	1748.97
866.32	1732.58
866.49	1654.76
866.65	1757.16
866.82	1603.56
866.99	1660.90
867.16	1699.81
867.32	1693.67
867.49	1658.85
867.66	1689.57
867.83	1673.19
867.99	1603.56
868.16	1703.91
868.33	1583.08
868.49	1681.38
868.66	1589.22
868.83	1734.63
868.99	1691.62
869.16	1718.25
869.33	1820.64
869.50	1748.97
869.66	1724.39
869.83	1710.05
870.00	1705.96
870.16	1703.91
870.33	1699.81
870.50	1810.40
870.66	1716.20
870.83	1779.68
871.00	1701.86
871.17	1654.76
871.33	1716.20
871.50	1697.77
871.67	1687.53
871.83	1562.60
872.00	1839.08
872.17	1708.01
872.33	1738.73
872.50	1742.82
872.67	1695.72
872.83	1640.42
873.00	1740.77
873.17	1718.25
873.33	1716.20
873.50	1757.16
873.67	1642.47
873.83	1660.90
874.00	1673.19
874.16	1769.44
874.33	1718.25
874.50	1624.04
874.66	1705.96
874.83	1656.81
875.00	1775.59
875.16	1785.83
875.33	1728.49
875.50	1550.31
875.66	1648.61
875.83	1648.61
875.99	1722.34
876.16	1748.97
876.33	1671.14
876.49	1689.57
876.66	1638.38
876.83	1640.42
876.99	1650.66
877.16	1591.27
877.32	1679.33
877.49	1753.06
877.66	1673.19
877.82	1787.88
877.99	1716.20
878.15	1763.30
878.32	1744.87
878.49	1724.39
878.65	1685.48
878.82	1834.98
878.98	1671.14
879.15	1761.25
879.32	1765.35
879.48	1683.43
879.65	1695.72
879.81	1597.42
879.98	1619.94
880.15	1599.46
880.31	1789.92
880.48	1648.61
880.64	1824.74
880.81	1728.49
880.97	1755.11
881.14	1712.10
881.31	1650.66
881.47	1779.68
881.64	1638.38
881.80	1595.37
881.97	1691.62
882.13	1703.91
882.30	1679.33
882.47	1722.34
882.63	1671.14
882.80	1685.48
882.96	1687.53
883.13	1712.10
883.29	1681.38
883.46	1732.58
883.62	1763.30
883.79	1785.83
883.95	1771.49
884.12	1656.81
884.29	1779.68
884.45	1648.61
884.62	1726.44
884.78	1632.23
884.95	1738.73
885.11	1640.42
885.28	1681.38
885.44	1685.48
885.61	1759.21
885.77	1808.36
885.94	1732.58
886.10	1736.68
886.27	1708.01
886.43	1771.49
886.60	1722.34
886.76	1601.51
886.93	1654.76
887.09	1650.66
887.26	1712.10
887.42	1644.52
887.59	1732.58
887.75	1804.26
887.92	1736.68
888.08	1757.16
888.25	1746.92
888.41	1714.15
888.58	1757.16
888.74	1667.05
888.91	1599.46
>>>>>End Processed Spectral Data<<<<<
