SpectraSuite Data File
++++++++++++++++++++++++++++++++++++
Date: Mon Jun 06 15:27:37 CEST 2016
User: root
Dark Spectrum Present: No
Reference Spectrum Present: No
Number of Sampled Component Spectra: 1
Spectrometers: USB4C02835
Integration Time (usec): 100000 (USB4C02835)
Spectra Averaged: 1 (USB4C02835)
Boxcar Smoothing: 0 (USB4C02835)
Correct for Electrical Dark: No (USB4C02835)
Strobe/Lamp Enabled: No (USB4C02835)
Correct for Detector Non-linearity: No (USB4C02835)
Correct for Stray Light: No (USB4C02835)
Number of Pixels in Processed Spectrum: 3648
>>>>>Begin Processed Spectral Data<<<<<
177.47	1490.92
177.69	1490.92
177.91	1490.92
178.13	1415.15
178.36	1427.43
178.58	1701.86
178.80	1730.53
179.02	1648.61
179.24	1605.61
179.46	1705.96
179.68	1800.16
179.90	1751.01
180.13	1755.11
180.35	1658.85
180.57	1656.81
180.79	1748.97
181.01	1734.63
181.23	1767.40
181.45	1814.50
181.67	1740.77
181.90	1763.30
182.12	1685.48
182.34	1689.57
182.56	1665.00
182.78	1646.57
183.00	1730.53
183.22	1763.30
183.44	1538.02
183.66	1834.98
183.89	1761.25
184.11	1710.05
184.33	1755.11
184.55	1800.16
184.77	1716.20
184.99	1757.16
185.21	1693.67
185.43	1912.80
185.65	1648.61
185.87	1714.15
186.10	1896.42
186.32	1875.94
186.54	1746.92
186.76	1691.62
186.98	1755.11
187.20	1705.96
187.42	1722.34
187.64	1689.57
187.86	1763.30
188.08	1738.73
188.30	1728.49
188.52	1705.96
188.75	1806.31
188.97	1771.49
189.19	1716.20
189.41	1650.66
189.63	1738.73
189.85	1695.72
190.07	1626.09
190.29	1695.72
190.51	1738.73
190.73	1658.85
190.95	1751.01
191.17	1699.81
191.39	1619.94
191.61	1693.67
191.84	1718.25
192.06	1751.01
192.28	1591.27
192.50	1900.52
192.72	1677.29
192.94	1656.81
193.16	1677.29
193.38	1779.68
193.60	1697.77
193.82	1787.88
194.04	1748.97
194.26	1742.82
194.48	1767.40
194.70	1646.57
194.92	1695.72
195.14	1773.54
195.36	1671.14
195.58	1720.29
195.80	1683.43
196.02	1738.73
196.24	1667.05
196.46	1701.86
196.69	1689.57
196.91	1890.28
197.13	1720.29
197.35	1634.28
197.57	1818.60
197.79	1744.87
198.01	1755.11
198.23	1671.14
198.45	1689.57
198.67	1671.14
198.89	1640.42
199.11	1746.92
199.33	1654.76
199.55	1570.79
199.77	1685.48
199.99	1697.77
200.21	1703.91
200.43	1736.68
200.65	1699.81
200.87	1591.27
201.09	1714.15
201.31	1703.91
201.53	1746.92
201.75	1814.50
201.97	1703.91
202.19	1740.77
202.41	1810.40
202.63	1800.16
202.85	1759.21
203.07	1705.96
203.29	1744.87
203.51	1677.29
203.73	1703.91
203.95	1976.29
204.17	1730.53
204.39	1691.62
204.61	1683.43
204.83	1679.33
205.05	1712.10
205.27	1710.05
205.49	1853.41
205.71	1720.29
205.93	1607.66
206.15	1628.14
206.37	1685.48
206.59	1697.77
206.81	1710.05
207.03	1751.01
207.25	1683.43
207.47	1738.73
207.69	1677.29
207.91	1814.50
208.13	1783.78
208.34	1681.38
208.56	1642.47
208.78	1712.10
209.00	1740.77
209.22	1685.48
209.44	1654.76
209.66	1716.20
209.88	1687.53
210.10	1763.30
210.32	1689.57
210.54	1771.49
210.76	1673.19
210.98	1695.72
211.20	1638.38
211.42	1757.16
211.64	1787.88
211.86	1755.11
212.08	1738.73
212.30	1783.78
212.52	1636.33
212.74	1765.35
212.96	1777.64
213.17	1671.14
213.39	1781.73
213.61	1845.22
213.83	1800.16
214.05	1617.90
214.27	1810.40
214.49	1634.28
214.71	1617.90
214.93	1810.40
215.15	1708.01
215.37	1701.86
215.59	1574.89
215.81	1812.45
216.03	1857.51
216.24	1771.49
216.46	1673.19
216.68	1769.44
216.90	1726.44
217.12	1742.82
217.34	1767.40
217.56	1748.97
217.78	1910.75
218.00	1714.15
218.22	1665.00
218.44	1773.54
218.66	1763.30
218.87	1873.89
219.09	1677.29
219.31	1775.59
219.53	1726.44
219.75	1765.35
219.97	1708.01
220.19	1738.73
220.41	1646.57
220.63	1816.55
220.85	1783.78
221.06	1679.33
221.28	1761.25
221.50	1726.44
221.72	1691.62
221.94	1726.44
222.16	1685.48
222.38	1746.92
222.60	1716.20
222.82	1705.96
223.03	1808.36
223.25	1658.85
223.47	1728.49
223.69	1798.12
223.91	1761.25
224.13	1714.15
224.35	1722.34
224.57	1746.92
224.78	1765.35
225.00	1650.66
225.22	1773.54
225.44	1783.78
225.66	1722.34
225.88	1699.81
226.10	1765.35
226.32	1796.07
226.53	1841.12
226.75	1705.96
226.97	1736.68
227.19	1720.29
227.41	1619.94
227.63	1568.74
227.85	1613.80
228.06	1742.82
228.28	1652.71
228.50	1771.49
228.72	1712.10
228.94	1732.58
229.16	1613.80
229.37	1695.72
229.59	1636.33
229.81	1861.60
230.03	1738.73
230.25	1578.98
230.47	1617.90
230.69	1669.09
230.90	1763.30
231.12	1681.38
231.34	1757.16
231.56	1679.33
231.78	1652.71
232.00	1769.44
232.21	1720.29
232.43	1730.53
232.65	1544.17
232.87	1665.00
233.09	1710.05
233.30	1703.91
233.52	1636.33
233.74	1691.62
233.96	1675.24
234.18	1755.11
234.40	1726.44
234.61	1769.44
234.83	1671.14
235.05	1642.47
235.27	1859.56
235.49	1798.12
235.70	1718.25
235.92	1767.40
236.14	1773.54
236.36	1875.94
236.58	1603.56
236.79	1734.63
237.01	1734.63
237.23	1783.78
237.45	1763.30
237.67	1736.68
237.88	1669.09
238.10	1783.78
238.32	1677.29
238.54	1708.01
238.76	1693.67
238.97	1689.57
239.19	1683.43
239.41	1755.11
239.63	1734.63
239.85	1710.05
240.06	1681.38
240.28	1740.77
240.50	1740.77
240.72	1740.77
240.93	1656.81
241.15	1783.78
241.37	1748.97
241.59	1779.68
241.81	1638.38
242.02	1697.77
242.24	1744.87
242.46	1796.07
242.68	1697.77
242.89	1767.40
243.11	1751.01
243.33	1673.19
243.55	1718.25
243.76	1759.21
243.98	1722.34
244.20	1691.62
244.42	1662.95
244.64	1775.59
244.85	1609.70
245.07	1656.81
245.29	1736.68
245.51	1710.05
245.72	1722.34
245.94	1763.30
246.16	1820.64
246.38	1775.59
246.59	1609.70
246.81	1662.95
247.03	1697.77
247.24	1705.96
247.46	1660.90
247.68	1693.67
247.90	1759.21
248.11	1642.47
248.33	1746.92
248.55	1734.63
248.77	1703.91
248.98	1736.68
249.20	1757.16
249.42	1734.63
249.64	1800.16
249.85	1675.24
250.07	1644.52
250.29	1765.35
250.50	1736.68
250.72	1626.09
250.94	1779.68
251.16	1804.26
251.37	1736.68
251.59	1787.88
251.81	1705.96
252.02	1820.64
252.24	1673.19
252.46	1759.21
252.68	1611.75
252.89	1699.81
253.11	1654.76
253.33	1898.47
253.54	1830.88
253.76	1560.55
253.98	1675.24
254.20	1724.39
254.41	1669.09
254.63	1720.29
254.85	1665.00
255.06	1718.25
255.28	1732.58
255.50	1736.68
255.71	1677.29
255.93	1697.77
256.15	1669.09
256.36	1757.16
256.58	1679.33
256.80	1738.73
257.02	1677.29
257.23	1660.90
257.45	1718.25
257.67	1761.25
257.88	1656.81
258.10	1724.39
258.32	1722.34
258.53	1734.63
258.75	1789.92
258.97	1724.39
259.18	1753.06
259.40	1730.53
259.62	1777.64
259.83	1843.17
260.05	1710.05
260.27	1939.43
260.48	1718.25
260.70	1550.31
260.92	1751.01
261.13	1671.14
261.35	1650.66
261.57	1718.25
261.78	1624.04
262.00	1708.01
262.22	1757.16
262.43	1695.72
262.65	1728.49
262.86	1689.57
263.08	1804.26
263.30	1755.11
263.51	1642.47
263.73	1652.71
263.95	1751.01
264.16	1724.39
264.38	1634.28
264.60	1763.30
264.81	1634.28
265.03	1867.75
265.25	1740.77
265.46	1746.92
265.68	1722.34
265.89	1757.16
266.11	1628.14
266.33	1810.40
266.54	1755.11
266.76	1765.35
266.98	1789.92
267.19	1767.40
267.41	1748.97
267.62	1660.90
267.84	1619.94
268.06	1705.96
268.27	1701.86
268.49	1800.16
268.70	1847.27
268.92	1740.77
269.14	1640.42
269.35	1626.09
269.57	1708.01
269.79	1746.92
270.00	1673.19
270.22	1849.32
270.43	1603.56
270.65	1611.75
270.87	1738.73
271.08	1773.54
271.30	1703.91
271.51	1755.11
271.73	1851.36
271.95	1757.16
272.16	1718.25
272.38	1857.51
272.59	1681.38
272.81	1826.79
273.02	1687.53
273.24	1708.01
273.46	1775.59
273.67	1695.72
273.89	1699.81
274.10	1665.00
274.32	1748.97
274.54	1746.92
274.75	1759.21
274.97	1644.52
275.18	1755.11
275.40	1769.44
275.61	1699.81
275.83	1716.20
276.05	1603.56
276.26	1746.92
276.48	1724.39
276.69	1660.90
276.91	1681.38
277.12	1826.79
277.34	1742.82
277.55	1804.26
277.77	1798.12
277.99	1705.96
278.20	1619.94
278.42	1701.86
278.63	1746.92
278.85	1675.24
279.06	1632.23
279.28	1744.87
279.49	1787.88
279.71	1714.15
279.93	1726.44
280.14	1714.15
280.36	1710.05
280.57	1765.35
280.79	1763.30
281.00	1755.11
281.22	1693.67
281.43	1785.83
281.65	1601.51
281.86	1673.19
282.08	1677.29
282.29	1787.88
282.51	1656.81
282.73	1695.72
282.94	1605.61
283.16	1730.53
283.37	1783.78
283.59	1687.53
283.80	1744.87
284.02	1708.01
284.23	1701.86
284.45	1732.58
284.66	1693.67
284.88	1658.85
285.09	1753.06
285.31	1748.97
285.52	1679.33
285.74	1648.61
285.95	1738.73
286.17	1724.39
286.38	1761.25
286.60	1660.90
286.81	1738.73
287.03	1730.53
287.24	1681.38
287.46	1677.29
287.67	1732.58
287.89	1794.02
288.10	1656.81
288.32	1773.54
288.53	1834.98
288.75	1716.20
288.96	1816.55
289.18	1652.71
289.39	1703.91
289.61	1658.85
289.82	1832.93
290.04	1804.26
290.25	1679.33
290.47	1744.87
290.68	1714.15
290.90	1855.46
291.11	1689.57
291.33	1794.02
291.54	1724.39
291.76	1685.48
291.97	1669.09
292.18	1806.31
292.40	1710.05
292.61	1624.04
292.83	1802.21
293.04	1730.53
293.26	1751.01
293.47	1697.77
293.69	1642.47
293.90	1681.38
294.12	1796.07
294.33	1712.10
294.55	1665.00
294.76	1722.34
294.97	1736.68
295.19	1886.18
295.40	1621.99
295.62	1748.97
295.83	1802.21
296.05	1705.96
296.26	1677.29
296.48	1669.09
296.69	1716.20
296.90	1724.39
297.12	1740.77
297.33	1812.45
297.55	1759.21
297.76	1765.35
297.98	1701.86
298.19	1761.25
298.41	1683.43
298.62	1675.24
298.83	1806.31
299.05	1728.49
299.26	1714.15
299.48	1718.25
299.69	1832.93
299.90	1697.77
300.12	1751.01
300.33	1728.49
300.55	1677.29
300.76	1755.11
300.98	1740.77
301.19	1814.50
301.40	1675.24
301.62	1779.68
301.83	1734.63
302.05	1785.83
302.26	1712.10
302.47	1718.25
302.69	1693.67
302.90	1662.95
303.12	1593.32
303.33	1726.44
303.54	1822.69
303.76	1630.18
303.97	1728.49
304.19	1814.50
304.40	1693.67
304.61	1783.78
304.83	1873.89
305.04	1753.06
305.26	1765.35
305.47	1636.33
305.68	1703.91
305.90	1665.00
306.11	1751.01
306.33	1714.15
306.54	1652.71
306.75	1681.38
306.97	1593.32
307.18	1689.57
307.39	1656.81
307.61	1800.16
307.82	1669.09
308.04	1787.88
308.25	1753.06
308.46	1722.34
308.68	1683.43
308.89	1730.53
309.10	1753.06
309.32	1755.11
309.53	1687.53
309.74	1759.21
309.96	1697.77
310.17	1740.77
310.39	1677.29
310.60	1691.62
310.81	1746.92
311.03	1634.28
311.24	1740.77
311.45	1714.15
311.67	1830.88
311.88	1769.44
312.09	1728.49
312.31	1636.33
312.52	1699.81
312.73	1675.24
312.95	1621.99
313.16	1619.94
313.37	1724.39
313.59	1791.97
313.80	1695.72
314.01	1814.50
314.23	1652.71
314.44	1716.20
314.65	1660.90
314.87	1681.38
315.08	1738.73
315.29	1675.24
315.51	1714.15
315.72	1675.24
315.93	1796.07
316.15	1773.54
316.36	1722.34
316.57	1755.11
316.79	1779.68
317.00	1755.11
317.21	1742.82
317.43	1685.48
317.64	1806.31
317.85	1652.71
318.07	1652.71
318.28	1746.92
318.49	1810.40
318.70	1902.56
318.92	1869.80
319.13	1806.31
319.34	1886.18
319.56	1828.84
319.77	1728.49
319.98	1773.54
320.20	1761.25
320.41	1828.84
320.62	1712.10
320.83	1714.15
321.05	1859.56
321.26	1730.53
321.47	1697.77
321.69	1738.73
321.90	1652.71
322.11	1669.09
322.32	1693.67
322.54	1787.88
322.75	1714.15
322.96	1828.84
323.18	1634.28
323.39	1619.94
323.60	1726.44
323.81	1748.97
324.03	1687.53
324.24	1617.90
324.45	1753.06
324.66	1693.67
324.88	1785.83
325.09	1767.40
325.30	1658.85
325.52	1812.45
325.73	1761.25
325.94	1640.42
326.15	1585.13
326.37	1675.24
326.58	1820.64
326.79	1814.50
327.00	1724.39
327.22	1746.92
327.43	1681.38
327.64	1632.23
327.85	1689.57
328.07	1753.06
328.28	1839.08
328.49	1718.25
328.70	1679.33
328.92	1689.57
329.13	1679.33
329.34	1697.77
329.55	1837.03
329.76	1849.32
329.98	1689.57
330.19	1832.93
330.40	1730.53
330.61	1712.10
330.83	1699.81
331.04	1728.49
331.25	1755.11
331.46	1699.81
331.68	1726.44
331.89	1728.49
332.10	1736.68
332.31	1648.61
332.52	1742.82
332.74	1789.92
332.95	1595.37
333.16	1728.49
333.37	1755.11
333.58	1689.57
333.80	1742.82
334.01	1619.94
334.22	1720.29
334.43	1640.42
334.64	1738.73
334.86	1621.99
335.07	1646.57
335.28	1837.03
335.49	1685.48
335.70	1740.77
335.92	1753.06
336.13	1886.18
336.34	1800.16
336.55	1718.25
336.76	1781.73
336.98	1634.28
337.19	1746.92
337.40	1857.51
337.61	1796.07
337.82	1695.72
338.04	1705.96
338.25	1673.19
338.46	1738.73
338.67	1726.44
338.88	1652.71
339.09	1685.48
339.31	1761.25
339.52	1617.90
339.73	1654.76
339.94	1660.90
340.15	1769.44
340.36	1720.29
340.58	1652.71
340.79	1662.95
341.00	1751.01
341.21	1681.38
341.42	1845.22
341.63	1708.01
341.85	1738.73
342.06	1767.40
342.27	1634.28
342.48	1740.77
342.69	1615.85
342.90	1734.63
343.12	1726.44
343.33	1681.38
343.54	1767.40
343.75	1732.58
343.96	1685.48
344.17	1640.42
344.38	1662.95
344.60	1712.10
344.81	1638.38
345.02	1667.05
345.23	1814.50
345.44	1865.70
345.65	1765.35
345.86	1708.01
346.07	1738.73
346.29	1730.53
346.50	1685.48
346.71	1720.29
346.92	1781.73
347.13	1800.16
347.34	1732.58
347.55	1689.57
347.76	1751.01
347.98	1658.85
348.19	1656.81
348.40	1775.59
348.61	1667.05
348.82	1837.03
349.03	1789.92
349.24	1673.19
349.45	1810.40
349.66	1613.80
349.88	1740.77
350.09	1689.57
350.30	1804.26
350.51	1755.11
350.72	1744.87
350.93	1771.49
351.14	1665.00
351.35	1765.35
351.56	1748.97
351.77	1689.57
351.99	1759.21
352.20	1863.65
352.41	1837.03
352.62	1599.46
352.83	1808.36
353.04	1722.34
353.25	1660.90
353.46	1708.01
353.67	1802.21
353.88	1667.05
354.09	1832.93
354.30	1712.10
354.52	1710.05
354.73	1628.14
354.94	1683.43
355.15	1738.73
355.36	1773.54
355.57	1667.05
355.78	1722.34
355.99	1667.05
356.20	1742.82
356.41	1775.59
356.62	1767.40
356.83	1710.05
357.04	1810.40
357.25	1642.47
357.46	1693.67
357.68	1677.29
357.89	1677.29
358.10	1691.62
358.31	1703.91
358.52	1705.96
358.73	1671.14
358.94	1695.72
359.15	1681.38
359.36	1751.01
359.57	1667.05
359.78	1656.81
359.99	1712.10
360.20	1591.27
360.41	1652.71
360.62	1720.29
360.83	1701.86
361.04	1800.16
361.25	1810.40
361.46	1837.03
361.67	1722.34
361.88	1791.97
362.09	1810.40
362.30	1746.92
362.51	1681.38
362.72	1740.77
362.93	1748.97
363.14	1800.16
363.35	1677.29
363.56	1601.51
363.78	1826.79
363.99	1740.77
364.20	1673.19
364.41	1714.15
364.62	1767.40
364.83	1771.49
365.04	1742.82
365.25	1732.58
365.46	1892.32
365.67	1695.72
365.88	1640.42
366.09	1665.00
366.30	1699.81
366.51	1656.81
366.72	1644.52
366.93	1744.87
367.14	1701.86
367.35	1861.60
367.56	1753.06
367.77	1863.65
367.98	1791.97
368.18	1779.68
368.39	1693.67
368.60	1654.76
368.81	1685.48
369.02	1767.40
369.23	1740.77
369.44	1636.33
369.65	1677.29
369.86	1632.23
370.07	1791.97
370.28	1675.24
370.49	1714.15
370.70	1710.05
370.91	1636.33
371.12	1583.08
371.33	1806.31
371.54	1677.29
371.75	1794.02
371.96	1585.13
372.17	1726.44
372.38	1726.44
372.59	1685.48
372.80	1677.29
373.01	1708.01
373.22	1755.11
373.43	1728.49
373.64	1679.33
373.85	1800.16
374.06	1765.35
374.26	1783.78
374.47	1644.52
374.68	1722.34
374.89	1796.07
375.10	1675.24
375.31	1906.66
375.52	1708.01
375.73	1683.43
375.94	1708.01
376.15	1736.68
376.36	1658.85
376.57	1701.86
376.78	1796.07
376.99	1669.09
377.20	1820.64
377.40	1689.57
377.61	1787.88
377.82	1607.66
378.03	1779.68
378.24	1796.07
378.45	1681.38
378.66	1734.63
378.87	1570.79
379.08	1673.19
379.29	1689.57
379.50	1771.49
379.71	1714.15
379.91	1740.77
380.12	1665.00
380.33	1746.92
380.54	1681.38
380.75	1736.68
380.96	1708.01
381.17	1771.49
381.38	1740.77
381.59	1810.40
381.80	1710.05
382.00	1839.08
382.21	1796.07
382.42	1814.50
382.63	1816.55
382.84	1781.73
383.05	1796.07
383.26	1820.64
383.47	1734.63
383.68	1767.40
383.88	1697.77
384.09	1710.05
384.30	1800.16
384.51	1728.49
384.72	1716.20
384.93	1689.57
385.14	1718.25
385.35	1757.16
385.55	1693.67
385.76	1763.30
385.97	1742.82
386.18	1757.16
386.39	1697.77
386.60	1712.10
386.81	1691.62
387.02	1718.25
387.22	1685.48
387.43	1783.78
387.64	1810.40
387.85	1834.98
388.06	2168.80
388.27	4239.30
388.48	6684.57
388.68	8069.00
388.89	9430.90
389.10	9570.16
389.31	8376.19
389.52	7427.98
389.73	6553.50
389.93	6289.31
390.14	5855.14
390.35	5064.63
390.56	4427.71
390.77	3729.35
390.98	3024.85
391.18	2492.38
391.39	2127.84
391.60	1798.12
391.81	1871.84
392.02	1753.06
392.23	1789.92
392.43	1814.50
392.64	1732.58
392.85	1677.29
393.06	1794.02
393.27	1685.48
393.47	1685.48
393.68	1789.92
393.89	1710.05
394.10	1798.12
394.31	1710.05
394.52	1697.77
394.72	1734.63
394.93	1740.77
395.14	1624.04
395.35	1738.73
395.56	1681.38
395.76	1755.11
395.97	1843.17
396.18	1757.16
396.39	1796.07
396.60	2058.21
396.80	1853.41
397.01	1830.88
397.22	1847.27
397.43	1847.27
397.64	1746.92
397.84	1824.74
398.05	1802.21
398.26	1734.63
398.47	1767.40
398.67	1763.30
398.88	1783.78
399.09	1738.73
399.30	1652.71
399.51	1738.73
399.71	1640.42
399.92	1689.57
400.13	1779.68
400.34	1687.53
400.54	1714.15
400.75	1818.60
400.96	1746.92
401.17	1763.30
401.37	1697.77
401.58	1714.15
401.79	1773.54
402.00	1796.07
402.21	1834.98
402.41	2033.63
402.62	1980.39
402.83	2041.82
403.04	2000.87
403.24	2060.26
403.45	1873.89
403.66	1953.76
403.87	1914.85
404.07	2000.87
404.28	1923.04
404.49	1882.08
404.70	1773.54
404.90	1705.96
405.11	1726.44
405.32	1800.16
405.52	1691.62
405.73	1697.77
405.94	1767.40
406.15	1724.39
406.35	1746.92
406.56	1728.49
406.77	1726.44
406.98	1691.62
407.18	1691.62
407.39	1791.97
407.60	1685.48
407.80	1839.08
408.01	1685.48
408.22	1728.49
408.43	1693.67
408.63	1693.67
408.84	1738.73
409.05	1732.58
409.25	1654.76
409.46	1665.00
409.67	1746.92
409.88	1710.05
410.08	1734.63
410.29	1675.24
410.50	1761.25
410.70	1773.54
410.91	1658.85
411.12	1665.00
411.32	1742.82
411.53	1724.39
411.74	1798.12
411.95	1773.54
412.15	1759.21
412.36	1748.97
412.57	1771.49
412.77	1798.12
412.98	1695.72
413.19	1730.53
413.39	1732.58
413.60	1730.53
413.81	1832.93
414.01	1673.19
414.22	1742.82
414.43	1826.79
414.63	1703.91
414.84	1814.50
415.05	1728.49
415.25	1603.56
415.46	1777.64
415.67	1722.34
415.87	1734.63
416.08	1724.39
416.29	1662.95
416.49	1830.88
416.70	1710.05
416.91	1671.14
417.11	1722.34
417.32	1726.44
417.53	1763.30
417.73	1742.82
417.94	1738.73
418.15	1746.92
418.35	1738.73
418.56	1824.74
418.77	1863.65
418.97	1734.63
419.18	1675.24
419.38	1599.46
419.59	1746.92
419.80	1845.22
420.00	1689.57
420.21	1718.25
420.42	1734.63
420.62	1714.15
420.83	1671.14
421.04	1781.73
421.24	1726.44
421.45	1771.49
421.65	1783.78
421.86	1691.62
422.07	1736.68
422.27	1794.02
422.48	1695.72
422.69	1683.43
422.89	1710.05
423.10	1701.86
423.30	1648.61
423.51	1738.73
423.72	1691.62
423.92	1779.68
424.13	1642.47
424.33	1796.07
424.54	1742.82
424.75	1632.23
424.95	1828.84
425.16	1761.25
425.36	1763.30
425.57	1738.73
425.78	1738.73
425.98	1808.36
426.19	1771.49
426.39	1685.48
426.60	1701.86
426.81	1818.60
427.01	1695.72
427.22	1708.01
427.42	1648.61
427.63	1710.05
427.83	1736.68
428.04	1775.59
428.25	1728.49
428.45	1857.51
428.66	1734.63
428.86	1718.25
429.07	1779.68
429.28	1675.24
429.48	1705.96
429.69	1662.95
429.89	1751.01
430.10	1667.05
430.30	1705.96
430.51	1804.26
430.71	1677.29
430.92	1740.77
431.13	1648.61
431.33	1757.16
431.54	1732.58
431.74	1828.84
431.95	1896.42
432.15	1738.73
432.36	1755.11
432.56	1722.34
432.77	1794.02
432.98	1810.40
433.18	1742.82
433.39	1730.53
433.59	1718.25
433.80	1787.88
434.00	1890.28
434.21	1705.96
434.41	1724.39
434.62	1796.07
434.82	1665.00
435.03	1683.43
435.23	1773.54
435.44	1648.61
435.64	1740.77
435.85	1796.07
436.06	1787.88
436.26	1800.16
436.47	1691.62
436.67	1726.44
436.88	1695.72
437.08	1789.92
437.29	1832.93
437.49	1791.97
437.70	1826.79
437.90	1634.28
438.11	1828.84
438.31	1763.30
438.52	1822.69
438.72	1871.84
438.93	1968.10
439.13	1800.16
439.34	1841.12
439.54	1738.73
439.75	1742.82
439.95	1705.96
440.16	1785.83
440.36	1812.45
440.57	1808.36
440.77	1791.97
440.98	1740.77
441.18	1769.44
441.39	1712.10
441.59	1742.82
441.80	1849.32
442.00	1806.31
442.21	1839.08
442.41	1665.00
442.62	1820.64
442.82	1732.58
443.02	1757.16
443.23	1773.54
443.43	1722.34
443.64	1841.12
443.84	1665.00
444.05	1757.16
444.25	1716.20
444.46	1726.44
444.66	1677.29
444.87	1812.45
445.07	1607.66
445.28	1769.44
445.48	1808.36
445.69	1857.51
445.89	1943.52
446.09	1714.15
446.30	2062.30
446.50	2607.06
446.71	3712.97
446.91	4175.81
447.12	4612.03
447.32	4806.58
447.53	4263.87
447.73	3788.74
447.93	3563.47
448.14	3221.45
448.34	3198.93
448.55	2838.48
448.75	2787.29
448.96	2709.46
449.16	2426.84
449.36	2293.72
449.57	2017.25
449.77	1886.18
449.98	1781.73
450.18	1904.61
450.39	1787.88
450.59	1716.20
450.79	1746.92
451.00	1726.44
451.20	1804.26
451.41	1695.72
451.61	1867.75
451.81	1726.44
452.02	1705.96
452.22	1693.67
452.43	1730.53
452.63	1679.33
452.84	1742.82
453.04	1769.44
453.24	1728.49
453.45	1732.58
453.65	1761.25
453.86	1785.83
454.06	1710.05
454.26	1771.49
454.47	1699.81
454.67	1837.03
454.87	1742.82
455.08	1763.30
455.28	1812.45
455.49	1789.92
455.69	1689.57
455.89	1886.18
456.10	1812.45
456.30	1691.62
456.51	1824.74
456.71	1818.60
456.91	1703.91
457.12	1759.21
457.32	1791.97
457.52	1714.15
457.73	1785.83
457.93	1834.98
458.14	1720.29
458.34	1677.29
458.54	1705.96
458.75	1726.44
458.95	1802.21
459.15	1742.82
459.36	1728.49
459.56	1820.64
459.76	1859.56
459.97	1746.92
460.17	1716.20
460.37	1863.65
460.58	1748.97
460.78	1843.17
460.99	1673.19
461.19	1701.86
461.39	1705.96
461.60	1720.29
461.80	1755.11
462.00	1718.25
462.21	1708.01
462.41	1753.06
462.61	1665.00
462.82	1646.57
463.02	1791.97
463.22	1763.30
463.43	1800.16
463.63	1695.72
463.83	1830.88
464.04	1746.92
464.24	1785.83
464.44	1691.62
464.64	1796.07
464.85	1802.21
465.05	1736.68
465.25	1757.16
465.46	1685.48
465.66	1740.77
465.86	1808.36
466.07	1734.63
466.27	1753.06
466.47	1665.00
466.68	1693.67
466.88	1845.22
467.08	1730.53
467.29	1783.78
467.49	1781.73
467.69	1791.97
467.89	1796.07
468.10	1705.96
468.30	1759.21
468.50	1843.17
468.71	1775.59
468.91	1714.15
469.11	1812.45
469.31	1775.59
469.52	1716.20
469.72	1853.41
469.92	1880.04
470.13	1730.53
470.33	1701.86
470.53	1796.07
470.73	2136.03
470.94	2361.31
471.14	2353.12
471.34	2572.25
471.54	2496.47
471.75	2226.14
471.95	2148.32
472.15	2121.70
472.36	2086.88
472.56	2129.89
472.76	2082.78
472.96	1945.57
473.17	1947.62
473.37	1888.23
473.57	1855.46
473.77	1851.36
473.98	1812.45
474.18	1667.05
474.38	1953.76
474.58	1675.24
474.79	1732.58
474.99	1763.30
475.19	1785.83
475.39	1720.29
475.60	1728.49
475.80	1789.92
476.00	1738.73
476.20	1722.34
476.41	1699.81
476.61	1816.55
476.81	1769.44
477.01	1689.57
477.21	1894.37
477.42	1861.60
477.62	1669.09
477.82	1785.83
478.02	1767.40
478.23	1728.49
478.43	1732.58
478.63	1681.38
478.83	1791.97
479.03	1748.97
479.24	1802.21
479.44	1769.44
479.64	1753.06
479.84	1683.43
480.04	1681.38
480.25	1734.63
480.45	1744.87
480.65	1822.69
480.85	1847.27
481.06	1732.58
481.26	1753.06
481.46	1714.15
481.66	1753.06
481.86	1699.81
482.06	1816.55
482.27	1814.50
482.47	1761.25
482.67	1722.34
482.87	1710.05
483.07	1843.17
483.28	1683.43
483.48	1738.73
483.68	1693.67
483.88	1669.09
484.08	1585.13
484.29	1619.94
484.49	1771.49
484.69	1705.96
484.89	1841.12
485.09	1777.64
485.29	1796.07
485.50	1761.25
485.70	1710.05
485.90	1826.79
486.10	1757.16
486.30	1746.92
486.50	1751.01
486.71	1718.25
486.91	1816.55
487.11	1751.01
487.31	1621.99
487.51	1728.49
487.71	1722.34
487.91	1628.14
488.12	1634.28
488.32	1689.57
488.52	1681.38
488.72	1595.37
488.92	1669.09
489.12	1810.40
489.32	1787.88
489.53	1796.07
489.73	1677.29
489.93	1839.08
490.13	1710.05
490.33	1675.24
490.53	1730.53
490.73	1763.30
490.94	1650.66
491.14	1822.69
491.34	1832.93
491.54	2107.36
491.74	2519.00
491.94	2934.74
492.14	2996.18
492.34	2971.60
492.54	2756.57
492.75	2516.95
492.95	2367.45
493.15	2389.98
493.35	2320.35
493.55	2263.01
493.75	2170.85
493.95	2099.17
494.15	2033.63
494.35	1910.75
494.56	1796.07
494.76	1828.84
494.96	1855.46
495.16	1763.30
495.36	1695.72
495.56	1740.77
495.76	1783.78
495.96	1642.47
496.16	1646.57
496.36	1820.64
496.56	1832.93
496.77	1816.55
496.97	1738.73
497.17	1845.22
497.37	1673.19
497.57	1751.01
497.77	1759.21
497.97	1732.58
498.17	1691.62
498.37	1708.01
498.57	1814.50
498.77	1677.29
498.97	1671.14
499.17	1798.12
499.38	1767.40
499.58	1787.88
499.78	1812.45
499.98	1828.84
500.18	1652.71
500.38	1699.81
500.58	1937.38
500.78	2508.76
500.98	4693.94
501.18	5736.36
501.38	6651.80
501.58	6997.91
501.78	6588.32
501.98	5324.72
502.18	4786.10
502.38	4360.13
502.58	4079.55
502.78	3801.03
502.98	3479.50
503.18	3321.81
503.38	3149.78
503.59	2775.00
503.79	2578.39
503.99	2478.04
504.19	2258.91
504.39	2193.37
504.59	2213.85
504.79	2045.92
504.99	2043.87
505.19	1988.58
505.39	1966.05
505.59	1927.14
505.79	1908.71
505.99	1906.66
506.19	1751.01
506.39	1886.18
506.59	1777.64
506.79	1755.11
506.99	1867.75
507.19	1734.63
507.39	1763.30
507.59	1624.04
507.79	1716.20
507.99	1675.24
508.19	1763.30
508.39	1691.62
508.59	1714.15
508.79	1816.55
508.99	1888.23
509.19	1730.53
509.39	1781.73
509.59	1628.14
509.79	1697.77
509.99	1785.83
510.19	1847.27
510.39	1791.97
510.59	1730.53
510.79	1591.27
510.99	1751.01
511.19	1765.35
511.39	1814.50
511.59	1718.25
511.79	1808.36
511.99	1800.16
512.19	1845.22
512.38	1820.64
512.58	1732.58
512.78	1759.21
512.98	1775.59
513.18	1802.21
513.38	1675.24
513.58	1804.26
513.78	1761.25
513.98	1732.58
514.18	1751.01
514.38	1742.82
514.58	1759.21
514.78	1716.20
514.98	1724.39
515.18	1740.77
515.38	1669.09
515.58	1886.18
515.78	1701.86
515.98	1781.73
516.18	1767.40
516.38	1742.82
516.57	1804.26
516.77	1665.00
516.97	1740.77
517.17	1746.92
517.37	1595.37
517.57	1751.01
517.77	1800.16
517.97	1705.96
518.17	1773.54
518.37	1695.72
518.57	1685.48
518.77	1687.53
518.97	1730.53
519.16	1759.21
519.36	1779.68
519.56	1693.67
519.76	1710.05
519.96	1712.10
520.16	1861.60
520.36	1681.38
520.56	1755.11
520.76	1699.81
520.96	1718.25
521.16	1783.78
521.35	1716.20
521.55	1787.88
521.75	1669.09
521.95	1800.16
522.15	1654.76
522.35	1644.52
522.55	1712.10
522.75	1877.99
522.95	1693.67
523.14	1710.05
523.34	1734.63
523.54	1734.63
523.74	1822.69
523.94	1779.68
524.14	1652.71
524.34	1781.73
524.54	1789.92
524.73	1683.43
524.93	1763.30
525.13	1759.21
525.33	1640.42
525.53	1865.70
525.73	1800.16
525.93	1742.82
526.13	1683.43
526.32	1740.77
526.52	1759.21
526.72	1783.78
526.92	1685.48
527.12	1724.39
527.32	1759.21
527.52	1816.55
527.71	1708.01
527.91	1763.30
528.11	1816.55
528.31	1691.62
528.51	1697.77
528.71	1781.73
528.90	1830.88
529.10	1855.46
529.30	1865.70
529.50	1648.61
529.70	1714.15
529.90	1724.39
530.09	1662.95
530.29	1687.53
530.49	1677.29
530.69	1890.28
530.89	1736.68
531.09	1728.49
531.28	1638.38
531.48	1820.64
531.68	1763.30
531.88	1759.21
532.08	1699.81
532.28	1765.35
532.47	1767.40
532.67	1857.51
532.87	1816.55
533.07	1642.47
533.27	1771.49
533.46	1779.68
533.66	1791.97
533.86	1742.82
534.06	1701.86
534.26	1775.59
534.45	1751.01
534.65	1802.21
534.85	1716.20
535.05	1783.78
535.25	1728.49
535.44	1673.19
535.64	1726.44
535.84	1769.44
536.04	1720.29
536.24	1771.49
536.43	1714.15
536.63	1800.16
536.83	1779.68
537.03	1675.24
537.22	1667.05
537.42	1640.42
537.62	1808.36
537.82	1751.01
538.02	1759.21
538.21	1816.55
538.41	1941.47
538.61	1814.50
538.81	1658.85
539.00	1816.55
539.20	1679.33
539.40	1656.81
539.60	1730.53
539.79	1841.12
539.99	1708.01
540.19	1718.25
540.39	1724.39
540.58	1761.25
540.78	1816.55
540.98	1744.87
541.18	1816.55
541.37	1839.08
541.57	1773.54
541.77	1808.36
541.97	1738.73
542.16	1640.42
542.36	1710.05
542.56	1693.67
542.76	1828.84
542.95	1751.01
543.15	1775.59
543.35	1765.35
543.54	1691.62
543.74	1804.26
543.94	1820.64
544.14	1781.73
544.33	1802.21
544.53	1722.34
544.73	1665.00
544.93	1759.21
545.12	1806.31
545.32	1802.21
545.52	1714.15
545.71	1705.96
545.91	1701.86
546.11	1769.44
546.30	1703.91
546.50	1722.34
546.70	1708.01
546.90	1796.07
547.09	1703.91
547.29	1806.31
547.49	1771.49
547.68	1734.63
547.88	1720.29
548.08	1746.92
548.27	2176.99
548.47	1708.01
548.67	1763.30
548.87	1765.35
549.06	1710.05
549.26	1724.39
549.46	1775.59
549.65	1714.15
549.85	1775.59
550.05	1791.97
550.24	1576.94
550.44	1705.96
550.64	1816.55
550.83	1724.39
551.03	1869.80
551.23	1783.78
551.42	1816.55
551.62	1751.01
551.82	1726.44
552.01	1765.35
552.21	1802.21
552.41	1699.81
552.60	1832.93
552.80	1712.10
553.00	1757.16
553.19	1816.55
553.39	1855.46
553.59	1724.39
553.78	1800.16
553.98	1798.12
554.17	1722.34
554.37	1787.88
554.57	1744.87
554.76	1765.35
554.96	1751.01
555.16	1767.40
555.35	1757.16
555.55	1828.84
555.75	1802.21
555.94	1800.16
556.14	1738.73
556.33	1773.54
556.53	1773.54
556.73	1783.78
556.92	1839.08
557.12	1873.89
557.32	1771.49
557.51	1740.77
557.71	1751.01
557.90	1800.16
558.10	1824.74
558.30	1755.11
558.49	1734.63
558.69	1761.25
558.88	1773.54
559.08	1720.29
559.28	1699.81
559.47	1742.82
559.67	1787.88
559.86	1974.24
560.06	1728.49
560.26	1794.02
560.45	1691.62
560.65	1742.82
560.84	1820.64
561.04	1714.15
561.24	1742.82
561.43	1603.56
561.63	1781.73
561.82	1824.74
562.02	1734.63
562.22	1685.48
562.41	1701.86
562.61	1728.49
562.80	1726.44
563.00	1824.74
563.19	1824.74
563.39	1847.27
563.59	1843.17
563.78	1603.56
563.98	1597.42
564.17	1789.92
564.37	1654.76
564.56	1791.97
564.76	1681.38
564.96	1832.93
565.15	1722.34
565.35	1927.14
565.54	1779.68
565.74	1771.49
565.93	1787.88
566.13	1757.16
566.32	1705.96
566.52	1843.17
566.71	1728.49
566.91	1763.30
567.11	1718.25
567.30	1683.43
567.50	1763.30
567.69	1775.59
567.89	1757.16
568.08	1724.39
568.28	1824.74
568.47	1685.48
568.67	1708.01
568.86	1697.77
569.06	1804.26
569.25	1701.86
569.45	1705.96
569.64	1773.54
569.84	1738.73
570.04	1783.78
570.23	1728.49
570.43	1679.33
570.62	1841.12
570.82	1824.74
571.01	1685.48
571.21	1740.77
571.40	1714.15
571.60	1800.16
571.79	1744.87
571.99	1730.53
572.18	1677.29
572.38	1783.78
572.57	1656.81
572.77	1744.87
572.96	1951.71
573.16	1787.88
573.35	1773.54
573.55	1804.26
573.74	1728.49
573.94	1761.25
574.13	1787.88
574.33	1830.88
574.52	1820.64
574.71	1828.84
574.91	1802.21
575.10	1697.77
575.30	1716.20
575.49	1652.71
575.69	1656.81
575.88	1765.35
576.08	1757.16
576.27	1730.53
576.47	1734.63
576.66	1859.56
576.86	1845.22
577.05	1708.01
577.25	1730.53
577.44	1869.80
577.64	1757.16
577.83	1767.40
578.02	1705.96
578.22	1775.59
578.41	1806.31
578.61	1771.49
578.80	1720.29
579.00	1814.50
579.19	1755.11
579.39	1810.40
579.58	1769.44
579.77	1691.62
579.97	1900.52
580.16	1855.46
580.36	1796.07
580.55	1820.64
580.75	1773.54
580.94	1771.49
581.13	1910.75
581.33	1796.07
581.52	1726.44
581.72	1902.56
581.91	1769.44
582.11	1722.34
582.30	1798.12
582.49	1818.60
582.69	1791.97
582.88	1728.49
583.08	1771.49
583.27	1851.36
583.47	1771.49
583.66	1777.64
583.85	1607.66
584.05	1714.15
584.24	1794.02
584.44	1839.08
584.63	1847.27
584.82	1814.50
585.02	1814.50
585.21	1837.03
585.41	1869.80
585.60	1847.27
585.79	1959.91
585.99	1898.47
586.18	1875.94
586.37	2203.61
586.57	3317.71
586.76	9928.55
586.96	23797.40
587.15	33768.96
587.34	39390.63
587.54	40719.76
587.73	35698.14
587.93	25405.05
588.12	21008.06
588.31	18106.09
588.51	15804.17
588.70	14815.01
588.89	13651.76
589.09	12334.92
589.28	10841.95
589.47	9260.91
589.67	7968.65
589.86	6309.79
590.06	4870.07
590.25	3852.23
590.44	3014.61
590.64	2578.39
590.83	2242.53
591.02	2074.59
591.22	1992.67
591.41	1964.00
591.60	1822.69
591.80	2000.87
591.99	1681.38
592.18	1789.92
592.38	1849.32
592.57	1767.40
592.76	1738.73
592.96	1775.59
593.15	1779.68
593.34	1812.45
593.54	1773.54
593.73	1773.54
593.92	1789.92
594.12	1783.78
594.31	1742.82
594.50	1845.22
594.70	1841.12
594.89	1877.99
595.08	1728.49
595.28	1773.54
595.47	1914.85
595.66	1779.68
595.86	1724.39
596.05	1748.97
596.24	1738.73
596.43	1804.26
596.63	1853.41
596.82	1771.49
597.01	1781.73
597.21	1816.55
597.40	1785.83
597.59	1765.35
597.79	1779.68
597.98	1820.64
598.17	1703.91
598.36	1748.97
598.56	1787.88
598.75	1796.07
598.94	1777.64
599.14	1779.68
599.33	1673.19
599.52	1847.27
599.71	1755.11
599.91	1861.60
600.10	1753.06
600.29	1796.07
600.48	1722.34
600.68	1779.68
600.87	1748.97
601.06	1681.38
601.26	1708.01
601.45	1734.63
601.64	1681.38
601.83	1849.32
602.03	1722.34
602.22	1732.58
602.41	1771.49
602.60	1859.56
602.80	1791.97
602.99	1781.73
603.18	1710.05
603.37	1814.50
603.57	1687.53
603.76	1703.91
603.95	1744.87
604.14	1701.86
604.34	1669.09
604.53	1738.73
604.72	1742.82
604.91	1773.54
605.10	1726.44
605.30	1697.77
605.49	1814.50
605.68	1773.54
605.87	1810.40
606.07	1665.00
606.26	1677.29
606.45	1755.11
606.64	1738.73
606.84	1753.06
607.03	1751.01
607.22	1742.82
607.41	1714.15
607.60	1732.58
607.80	1796.07
607.99	1710.05
608.18	1748.97
608.37	1787.88
608.56	1765.35
608.76	1884.13
608.95	1767.40
609.14	1779.68
609.33	1744.87
609.52	1787.88
609.72	1681.38
609.91	1722.34
610.10	1736.68
610.29	1871.84
610.48	1794.02
610.68	1839.08
610.87	1691.62
611.06	1763.30
611.25	1794.02
611.44	1802.21
611.63	1742.82
611.83	1783.78
612.02	1652.71
612.21	1757.16
612.40	1722.34
612.59	1624.04
612.79	1757.16
612.98	1681.38
613.17	1828.84
613.36	1699.81
613.55	1851.36
613.74	1665.00
613.93	1695.72
614.13	1667.05
614.32	1705.96
614.51	1775.59
614.70	1759.21
614.89	1640.42
615.08	1660.90
615.28	2131.94
615.47	1748.97
615.66	1710.05
615.85	1689.57
616.04	1837.03
616.23	1675.24
616.42	1753.06
616.62	1839.08
616.81	1726.44
617.00	1714.15
617.19	1806.31
617.38	1679.33
617.57	1757.16
617.76	1814.50
617.95	1738.73
618.15	1755.11
618.34	1857.51
618.53	1640.42
618.72	1826.79
618.91	1857.51
619.10	1824.74
619.29	1742.82
619.48	1787.88
619.68	1626.09
619.87	1716.20
620.06	1617.90
620.25	1826.79
620.44	1718.25
620.63	1740.77
620.82	1751.01
621.01	1712.10
621.20	1738.73
621.39	1738.73
621.59	1740.77
621.78	1626.09
621.97	1746.92
622.16	1677.29
622.35	1771.49
622.54	1722.34
622.73	1818.60
622.92	1728.49
623.11	1830.88
623.30	1677.29
623.49	1779.68
623.68	1693.67
623.88	1789.92
624.07	1763.30
624.26	1757.16
624.45	1734.63
624.64	1697.77
624.83	1771.49
625.02	1673.19
625.21	1748.97
625.40	1753.06
625.59	1816.55
625.78	1669.09
625.97	1744.87
626.16	1728.49
626.35	1794.02
626.54	1808.36
626.74	1826.79
626.93	1654.76
627.12	1751.01
627.31	1847.27
627.50	1720.29
627.69	1660.90
627.88	1650.66
628.07	1669.09
628.26	1665.00
628.45	1693.67
628.64	1681.38
628.83	1701.86
629.02	1685.48
629.21	1785.83
629.40	1757.16
629.59	1695.72
629.78	1718.25
629.97	1734.63
630.16	1712.10
630.35	1652.71
630.54	1703.91
630.73	1697.77
630.92	1710.05
631.11	1665.00
631.30	1662.95
631.49	1732.58
631.68	1693.67
631.87	1818.60
632.06	1693.67
632.25	1908.71
632.44	1710.05
632.63	1716.20
632.82	1714.15
633.01	1660.90
633.20	1777.64
633.39	1632.23
633.58	1677.29
633.77	1728.49
633.96	1699.81
634.15	1751.01
634.34	1744.87
634.53	1740.77
634.72	1697.77
634.91	1679.33
635.10	1777.64
635.29	1826.79
635.48	1703.91
635.67	1763.30
635.86	1722.34
636.05	1865.70
636.24	1681.38
636.43	1751.01
636.62	1701.86
636.81	1619.94
637.00	1832.93
637.19	1787.88
637.38	1730.53
637.57	1714.15
637.76	1705.96
637.95	1783.78
638.14	1724.39
638.33	1710.05
638.52	1724.39
638.71	1650.66
638.89	1718.25
639.08	1935.33
639.27	1839.08
639.46	1673.19
639.65	1824.74
639.84	1671.14
640.03	1771.49
640.22	1703.91
640.41	1824.74
640.60	1624.04
640.79	1746.92
640.98	1740.77
641.17	1724.39
641.36	1773.54
641.55	1724.39
641.74	1619.94
641.92	1701.86
642.11	1605.61
642.30	1736.68
642.49	1722.34
642.68	1701.86
642.87	1744.87
643.06	1763.30
643.25	1773.54
643.44	1609.70
643.63	1665.00
643.82	1738.73
644.00	1683.43
644.19	1720.29
644.38	1607.66
644.57	1734.63
644.76	1765.35
644.95	1615.85
645.14	1734.63
645.33	1681.38
645.52	1757.16
645.71	1746.92
645.89	1703.91
646.08	1753.06
646.27	1736.68
646.46	1814.50
646.65	1628.14
646.84	1757.16
647.03	1675.24
647.22	1814.50
647.40	1777.64
647.59	1708.01
647.78	1624.04
647.97	1640.42
648.16	1669.09
648.35	1759.21
648.54	1834.98
648.73	1671.14
648.91	1787.88
649.10	1718.25
649.29	1716.20
649.48	1738.73
649.67	1689.57
649.86	1728.49
650.05	1675.24
650.23	1724.39
650.42	1687.53
650.61	1830.88
650.80	1697.77
650.99	1853.41
651.18	1781.73
651.36	1718.25
651.55	1769.44
651.74	1738.73
651.93	1730.53
652.12	1681.38
652.31	1761.25
652.49	1771.49
652.68	1675.24
652.87	1826.79
653.06	1746.92
653.25	1839.08
653.44	1736.68
653.62	1800.16
653.81	1681.38
654.00	1697.77
654.19	1705.96
654.38	1914.85
654.56	1759.21
654.75	1744.87
654.94	1767.40
655.13	1812.45
655.32	1724.39
655.51	1773.54
655.69	1695.72
655.88	1806.31
656.07	1712.10
656.26	1757.16
656.45	1701.86
656.63	1681.38
656.82	1730.53
657.01	1759.21
657.20	1689.57
657.38	1832.93
657.57	1714.15
657.76	1591.27
657.95	1681.38
658.14	1650.66
658.32	1777.64
658.51	1710.05
658.70	1775.59
658.89	1716.20
659.08	1779.68
659.26	1773.54
659.45	1656.81
659.64	1773.54
659.83	1636.33
660.01	1943.52
660.20	1828.84
660.39	1808.36
660.58	1644.52
660.76	1716.20
660.95	1656.81
661.14	1755.11
661.33	1591.27
661.51	1669.09
661.70	1691.62
661.89	1701.86
662.08	1740.77
662.26	1650.66
662.45	1691.62
662.64	1826.79
662.83	1765.35
663.01	1642.47
663.20	1703.91
663.39	1791.97
663.58	1646.57
663.76	1671.14
663.95	1773.54
664.14	1691.62
664.32	1685.48
664.51	1658.85
664.70	1667.05
664.89	1695.72
665.07	1619.94
665.26	1816.55
665.45	1697.77
665.64	1828.84
665.82	1730.53
666.01	1736.68
666.20	1708.01
666.38	1826.79
666.57	1820.64
666.76	2144.22
666.95	4523.96
667.13	10319.71
667.32	15052.57
667.51	17393.40
667.69	18523.88
667.88	17200.89
668.07	11982.67
668.25	9281.39
668.44	7915.40
668.63	7200.66
668.81	6674.33
669.00	5984.16
669.19	5783.46
669.38	5013.43
669.56	4464.57
669.75	3907.52
669.94	3252.17
670.12	2815.96
670.31	2514.91
670.50	2344.92
670.68	2029.54
670.87	1976.29
671.06	1773.54
671.24	1812.45
671.43	1861.60
671.62	1861.60
671.80	1738.73
671.99	1738.73
672.18	1693.67
672.36	1785.83
672.55	1746.92
672.74	1732.58
672.92	1710.05
673.11	1773.54
673.29	1654.76
673.48	1839.08
673.67	1724.39
673.85	1740.77
674.04	1757.16
674.23	1755.11
674.41	1857.51
674.60	1607.66
674.79	1748.97
674.97	1716.20
675.16	1751.01
675.34	1753.06
675.53	1683.43
675.72	1740.77
675.90	1869.80
676.09	1689.57
676.28	1718.25
676.46	1632.23
676.65	1720.29
676.83	1718.25
677.02	1742.82
677.21	1714.15
677.39	1734.63
677.58	1685.48
677.77	1763.30
677.95	1667.05
678.14	1720.29
678.32	1789.92
678.51	1712.10
678.70	1828.84
678.88	1732.58
679.07	1724.39
679.25	1691.62
679.44	1724.39
679.63	1689.57
679.81	1726.44
680.00	1781.73
680.18	1794.02
680.37	1818.60
680.55	1744.87
680.74	1593.32
680.93	1595.37
681.11	1755.11
681.30	1689.57
681.48	1757.16
681.67	1681.38
681.85	1697.77
682.04	1683.43
682.23	1742.82
682.41	1728.49
682.60	1695.72
682.78	1650.66
682.97	1697.77
683.15	1632.23
683.34	1701.86
683.53	1730.53
683.71	1632.23
683.90	1816.55
684.08	1822.69
684.27	1632.23
684.45	1755.11
684.64	1787.88
684.82	1744.87
685.01	1759.21
685.19	1736.68
685.38	1816.55
685.57	1662.95
685.75	1607.66
685.94	1693.67
686.12	1644.52
686.31	1675.24
686.49	1820.64
686.68	1581.03
686.86	1689.57
687.05	1669.09
687.23	1818.60
687.42	1699.81
687.60	1607.66
687.79	1738.73
687.97	1804.26
688.16	1806.31
688.34	1761.25
688.53	1673.19
688.71	1699.81
688.90	1736.68
689.08	1654.76
689.27	1687.53
689.45	1804.26
689.64	1804.26
689.82	1751.01
690.01	1714.15
690.19	1759.21
690.38	1742.82
690.56	1839.08
690.75	1677.29
690.93	1654.76
691.12	1638.38
691.30	1751.01
691.49	1681.38
691.67	1701.86
691.86	1775.59
692.04	1669.09
692.23	1708.01
692.41	1611.75
692.60	1828.84
692.78	1800.16
692.97	1728.49
693.15	1689.57
693.34	1841.12
693.52	1773.54
693.71	1757.16
693.89	1695.72
694.08	1656.81
694.26	1847.27
694.44	1785.83
694.63	1732.58
694.81	1636.33
695.00	1658.85
695.18	1773.54
695.37	1818.60
695.55	1703.91
695.74	1689.57
695.92	1648.61
696.10	1771.49
696.29	1595.37
696.47	1685.48
696.66	1693.67
696.84	1636.33
697.03	1617.90
697.21	1818.60
697.40	2326.49
697.58	1759.21
697.76	1714.15
697.95	1732.58
698.13	1636.33
698.32	1738.73
698.50	1728.49
698.68	1775.59
698.87	1734.63
699.05	1828.84
699.24	1712.10
699.42	1716.20
699.61	1705.96
699.79	1748.97
699.97	1708.01
700.16	1722.34
700.34	1601.51
700.53	1757.16
700.71	1798.12
700.89	1843.17
701.08	1683.43
701.26	1722.34
701.45	2140.13
701.63	1673.19
701.81	1654.76
702.00	1640.42
702.18	1710.05
702.37	1728.49
702.55	1691.62
702.73	1783.78
702.92	1685.48
703.10	1712.10
703.28	1755.11
703.47	1681.38
703.65	1796.07
703.84	1798.12
704.02	1701.86
704.20	1757.16
704.39	1681.38
704.57	1681.38
704.75	1849.32
704.94	1802.21
705.12	1630.18
705.30	1853.41
705.49	2301.92
705.67	4595.64
705.86	9301.87
706.04	12298.05
706.22	14006.06
706.41	15062.81
706.59	13489.97
706.77	9195.38
706.96	7376.78
707.14	6481.82
707.32	5844.90
707.51	5461.93
707.69	4679.61
707.87	4034.50
708.06	3540.94
708.24	2904.02
708.42	2396.12
708.61	2293.72
708.79	1906.66
708.97	1865.70
709.16	1824.74
709.34	1787.88
709.52	1742.82
709.71	1724.39
709.89	1906.66
710.07	1738.73
710.26	1718.25
710.44	1771.49
710.62	1755.11
710.80	1675.24
710.99	1851.36
711.17	1765.35
711.35	1720.29
711.54	1632.23
711.72	1802.21
711.90	1808.36
712.09	1732.58
712.27	1644.52
712.45	1824.74
712.63	1624.04
712.82	1769.44
713.00	1751.01
713.18	1769.44
713.37	1744.87
713.55	1654.76
713.73	1759.21
713.91	1742.82
714.10	1751.01
714.28	1642.47
714.46	1818.60
714.65	1746.92
714.83	1761.25
715.01	1746.92
715.19	1718.25
715.38	1628.14
715.56	1710.05
715.74	1728.49
715.92	1654.76
716.11	1785.83
716.29	1558.50
716.47	1753.06
716.65	1671.14
716.84	1665.00
717.02	1769.44
717.20	1695.72
717.38	1689.57
717.57	1699.81
717.75	1710.05
717.93	1679.33
718.11	1740.77
718.30	1609.70
718.48	1804.26
718.66	1804.26
718.84	1892.32
719.03	1691.62
719.21	1697.77
719.39	1861.60
719.57	1734.63
719.75	1804.26
719.94	1669.09
720.12	1777.64
720.30	1710.05
720.48	1804.26
720.67	1677.29
720.85	1677.29
721.03	1751.01
721.21	1638.38
721.39	1726.44
721.58	1742.82
721.76	1751.01
721.94	1689.57
722.12	1697.77
722.30	1761.25
722.49	1628.14
722.67	1787.88
722.85	1726.44
723.03	1693.67
723.21	1718.25
723.40	1763.30
723.58	1787.88
723.76	1724.39
723.94	1746.92
724.12	1689.57
724.30	1730.53
724.49	1710.05
724.67	1689.57
724.85	1763.30
725.03	1662.95
725.21	1781.73
725.40	1740.77
725.58	1648.61
725.76	1810.40
725.94	1730.53
726.12	1726.44
726.30	1681.38
726.49	1658.85
726.67	1626.09
726.85	1751.01
727.03	1843.17
727.21	2279.39
727.39	3006.42
727.57	3841.99
727.76	4171.71
727.94	4415.42
728.12	4331.45
728.30	3598.28
728.48	2963.41
728.66	2811.86
728.84	2508.76
729.03	2254.81
729.21	2138.08
729.39	1941.47
729.57	1843.17
729.75	1787.88
729.93	1843.17
730.11	1763.30
730.30	1724.39
730.48	1714.15
730.66	1841.12
730.84	1759.21
731.02	1787.88
731.20	1656.81
731.38	1740.77
731.56	1626.09
731.74	1714.15
731.93	1683.43
732.11	1734.63
732.29	1744.87
732.47	1611.75
732.65	1798.12
732.83	1814.50
733.01	1693.67
733.19	1683.43
733.37	1710.05
733.56	1759.21
733.74	1724.39
733.92	1771.49
734.10	1746.92
734.28	1640.42
734.46	1665.00
734.64	1708.01
734.82	1681.38
735.00	1665.00
735.18	1669.09
735.36	1726.44
735.54	1724.39
735.73	1734.63
735.91	1656.81
736.09	1712.10
736.27	1718.25
736.45	1818.60
736.63	1656.81
736.81	1710.05
736.99	1708.01
737.17	1832.93
737.35	1665.00
737.53	1798.12
737.71	1679.33
737.89	1798.12
738.07	1697.77
738.25	1740.77
738.43	1552.36
738.61	1673.19
738.80	1697.77
738.98	1726.44
739.16	1630.18
739.34	1683.43
739.52	1693.67
739.70	1763.30
739.88	1771.49
740.06	1820.64
740.24	1593.32
740.42	1824.74
740.60	1617.90
740.78	1675.24
740.96	1701.86
741.14	1636.33
741.32	1742.82
741.50	1636.33
741.68	1845.22
741.86	1730.53
742.04	1689.57
742.22	1632.23
742.40	1669.09
742.58	1742.82
742.76	1673.19
742.94	1761.25
743.12	1611.75
743.30	1693.67
743.48	1689.57
743.66	1609.70
743.84	1771.49
744.02	1660.90
744.20	1658.85
744.38	1724.39
744.56	1673.19
744.74	1830.88
744.92	1726.44
745.10	1779.68
745.28	1724.39
745.46	1841.12
745.64	1658.85
745.82	1759.21
746.00	1716.20
746.18	1753.06
746.36	1603.56
746.54	1798.12
746.72	1748.97
746.90	1712.10
747.08	1759.21
747.26	1716.20
747.44	1783.78
747.62	1746.92
747.80	1779.68
747.98	1791.97
748.15	1708.01
748.33	1726.44
748.51	1730.53
748.69	1748.97
748.87	1710.05
749.05	1716.20
749.23	1677.29
749.41	1751.01
749.59	1763.30
749.77	1759.21
749.95	1624.04
750.13	1716.20
750.31	1785.83
750.49	1701.86
750.67	1791.97
750.85	1816.55
751.03	1732.58
751.20	1822.69
751.38	1794.02
751.56	1710.05
751.74	1697.77
751.92	1785.83
752.10	1621.99
752.28	1828.84
752.46	1660.90
752.64	1734.63
752.82	1673.19
753.00	1810.40
753.18	1679.33
753.35	1693.67
753.53	1734.63
753.71	1701.86
753.89	1703.91
754.07	1763.30
754.25	1751.01
754.43	1693.67
754.61	1607.66
754.79	1771.49
754.97	1699.81
755.14	1847.27
755.32	1624.04
755.50	1732.58
755.68	1710.05
755.86	1699.81
756.04	1681.38
756.22	1644.52
756.40	1791.97
756.57	1810.40
756.75	1716.20
756.93	1773.54
757.11	1898.47
757.29	1605.61
757.47	1773.54
757.65	1619.94
757.82	1554.41
758.00	1636.33
758.18	1742.82
758.36	1691.62
758.54	1845.22
758.72	1673.19
758.90	1804.26
759.07	1804.26
759.25	1753.06
759.43	1802.21
759.61	1687.53
759.79	2215.90
759.97	1746.92
760.15	1679.33
760.32	1675.24
760.50	1738.73
760.68	1769.44
760.86	1646.57
761.04	1789.92
761.22	1640.42
761.39	1712.10
761.57	1718.25
761.75	1675.24
761.93	1783.78
762.11	1738.73
762.28	1763.30
762.46	1773.54
762.64	1722.34
762.82	1603.56
763.00	1689.57
763.18	1820.64
763.35	1640.42
763.53	1730.53
763.71	1671.14
763.89	1724.39
764.07	1720.29
764.24	1591.27
764.42	1783.78
764.60	1701.86
764.78	1701.86
764.96	1800.16
765.13	1767.40
765.31	1667.05
765.49	1732.58
765.67	1665.00
765.84	1632.23
766.02	1660.90
766.20	1748.97
766.38	1804.26
766.56	1677.29
766.73	1712.10
766.91	1748.97
767.09	1787.88
767.27	1775.59
767.44	1638.38
767.62	1726.44
767.80	1667.05
767.98	1705.96
768.15	1714.15
768.33	1740.77
768.51	1808.36
768.69	1687.53
768.87	1783.78
769.04	1695.72
769.22	1853.41
769.40	1898.47
769.58	1812.45
769.75	1726.44
769.93	1920.99
770.11	1677.29
770.28	1685.48
770.46	1806.31
770.64	1679.33
770.82	1769.44
770.99	1638.38
771.17	1673.19
771.35	1669.09
771.53	1765.35
771.70	1632.23
771.88	1816.55
772.06	1673.19
772.23	1738.73
772.41	1730.53
772.59	1619.94
772.77	1636.33
772.94	1736.68
773.12	1681.38
773.30	1683.43
773.47	1740.77
773.65	1683.43
773.83	1816.55
774.01	1757.16
774.18	1654.76
774.36	1757.16
774.54	1609.70
774.71	1667.05
774.89	1656.81
775.07	1656.81
775.24	1654.76
775.42	1677.29
775.60	1837.03
775.78	1759.21
775.95	1738.73
776.13	1605.61
776.31	1607.66
776.48	1736.68
776.66	1755.11
776.84	1652.71
777.01	1621.99
777.19	1632.23
777.37	1642.47
777.54	1671.14
777.72	1896.42
777.90	1789.92
778.07	1669.09
778.25	1927.14
778.43	1718.25
778.60	1685.48
778.78	1822.69
778.96	1783.78
779.13	1617.90
779.31	1820.64
779.49	1710.05
779.66	1671.14
779.84	1796.07
780.01	1677.29
780.19	1710.05
780.37	1787.88
780.54	1771.49
780.72	1710.05
780.90	1726.44
781.07	1693.67
781.25	1650.66
781.43	1705.96
781.60	1654.76
781.78	1826.79
781.95	1703.91
782.13	1662.95
782.31	1671.14
782.48	1640.42
782.66	1689.57
782.83	1906.66
783.01	1757.16
783.19	1771.49
783.36	1732.58
783.54	1648.61
783.72	1736.68
783.89	1718.25
784.07	1804.26
784.24	1730.53
784.42	1773.54
784.60	1718.25
784.77	1687.53
784.95	1570.79
785.12	1718.25
785.30	1665.00
785.47	1613.80
785.65	1708.01
785.83	1673.19
786.00	1652.71
786.18	1755.11
786.35	1603.56
786.53	1669.09
786.71	1771.49
786.88	1761.25
787.06	1710.05
787.23	1730.53
787.41	1587.18
787.58	1728.49
787.76	1669.09
787.94	1683.43
788.11	1728.49
788.29	1589.22
788.46	1693.67
788.64	1609.70
788.81	1687.53
788.99	1689.57
789.16	1683.43
789.34	1671.14
789.52	1683.43
789.69	1658.85
789.87	1628.14
790.04	1687.53
790.22	1794.02
790.39	1757.16
790.57	1667.05
790.74	1703.91
790.92	1763.30
791.09	1648.61
791.27	1714.15
791.44	1810.40
791.62	1740.77
791.79	1742.82
791.97	1722.34
792.15	1939.43
792.32	1746.92
792.50	1714.15
792.67	1791.97
792.85	1789.92
793.02	1718.25
793.20	1699.81
793.37	1660.90
793.55	1705.96
793.72	1730.53
793.90	1730.53
794.07	1648.61
794.25	1685.48
794.42	1718.25
794.60	1714.15
794.77	1791.97
794.95	1744.87
795.12	1773.54
795.30	1726.44
795.47	1601.51
795.65	1830.88
795.82	1724.39
796.00	1667.05
796.17	1708.01
796.34	1755.11
796.52	1751.01
796.69	1775.59
796.87	1767.40
797.04	1648.61
797.22	1677.29
797.39	1675.24
797.57	1777.64
797.74	1693.67
797.92	1662.95
798.09	1685.48
798.27	1787.88
798.44	1744.87
798.62	1628.14
798.79	1794.02
798.96	1818.60
799.14	1673.19
799.31	1923.04
799.49	1632.23
799.66	1662.95
799.84	1703.91
800.01	1648.61
800.19	1675.24
800.36	1595.37
800.53	1755.11
800.71	1724.39
800.88	1812.45
801.06	1695.72
801.23	1679.33
801.41	1689.57
801.58	1675.24
801.75	1599.46
801.93	1712.10
802.10	1648.61
802.28	1673.19
802.45	1755.11
802.63	1693.67
802.80	1826.79
802.97	1753.06
803.15	1708.01
803.32	1693.67
803.50	1699.81
803.67	1644.52
803.84	1644.52
804.02	1753.06
804.19	1710.05
804.37	1550.31
804.54	1656.81
804.71	1703.91
804.89	1669.09
805.06	1705.96
805.24	1642.47
805.41	1710.05
805.58	1654.76
805.76	1859.56
805.93	1767.40
806.10	1734.63
806.28	1697.77
806.45	1718.25
806.63	1734.63
806.80	1738.73
806.97	1746.92
807.15	1609.70
807.32	1656.81
807.49	1728.49
807.67	1632.23
807.84	1773.54
808.01	1685.48
808.19	1804.26
808.36	1734.63
808.54	1689.57
808.71	1734.63
808.88	1757.16
809.06	1845.22
809.23	1765.35
809.40	1701.86
809.58	1748.97
809.75	1611.75
809.92	1656.81
810.10	1814.50
810.27	1757.16
810.44	1724.39
810.62	1773.54
810.79	1738.73
810.96	1712.10
811.14	1673.19
811.31	1804.26
811.48	1734.63
811.66	1695.72
811.83	1740.77
812.00	1773.54
812.18	1767.40
812.35	1839.08
812.52	1751.01
812.69	1681.38
812.87	1724.39
813.04	1665.00
813.21	1722.34
813.39	1673.19
813.56	1603.56
813.73	1794.02
813.91	1636.33
814.08	1695.72
814.25	1728.49
814.42	1587.18
814.60	1701.86
814.77	1781.73
814.94	1724.39
815.12	1732.58
815.29	1769.44
815.46	1697.77
815.63	1697.77
815.81	1642.47
815.98	1748.97
816.15	1667.05
816.33	1701.86
816.50	1669.09
816.67	1632.23
816.84	1689.57
817.02	1671.14
817.19	1726.44
817.36	1714.15
817.53	1773.54
817.71	1640.42
817.88	1804.26
818.05	1648.61
818.22	1703.91
818.40	1820.64
818.57	1685.48
818.74	1791.97
818.91	1652.71
819.09	1824.74
819.26	1765.35
819.43	1775.59
819.60	1724.39
819.78	1726.44
819.95	1798.12
820.12	1630.18
820.29	1757.16
820.47	1746.92
820.64	1716.20
820.81	1644.52
820.98	1636.33
821.15	1710.05
821.33	1744.87
821.50	1585.13
821.67	1775.59
821.84	1685.48
822.02	1820.64
822.19	1744.87
822.36	1712.10
822.53	1697.77
822.70	1626.09
822.88	1718.25
823.05	1755.11
823.22	1716.20
823.39	1685.48
823.56	1722.34
823.74	1796.07
823.91	1638.38
824.08	1716.20
824.25	1638.38
824.42	1830.88
824.60	1605.61
824.77	1695.72
824.94	1683.43
825.11	1746.92
825.28	1687.53
825.45	1730.53
825.63	1787.88
825.80	1705.96
825.97	1761.25
826.14	1718.25
826.31	1697.77
826.48	1775.59
826.66	1689.57
826.83	1746.92
827.00	1681.38
827.17	1685.48
827.34	1753.06
827.51	1689.57
827.69	1673.19
827.86	1642.47
828.03	1746.92
828.20	1679.33
828.37	1675.24
828.54	1738.73
828.71	1708.01
828.89	1865.70
829.06	1687.53
829.23	1834.98
829.40	1685.48
829.57	1644.52
829.74	1746.92
829.91	1681.38
830.09	1681.38
830.26	1734.63
830.43	1787.88
830.60	1732.58
830.77	1675.24
830.94	1822.69
831.11	1769.44
831.28	1679.33
831.46	1740.77
831.63	1673.19
831.80	1779.68
831.97	1722.34
832.14	1677.29
832.31	1667.05
832.48	1701.86
832.65	1798.12
832.82	1720.29
832.99	1748.97
833.17	1687.53
833.34	1771.49
833.51	1648.61
833.68	1642.47
833.85	1798.12
834.02	1667.05
834.19	1617.90
834.36	1687.53
834.53	1771.49
834.70	1734.63
834.87	1740.77
835.04	1701.86
835.22	1705.96
835.39	1699.81
835.56	1685.48
835.73	1675.24
835.90	1810.40
836.07	1640.42
836.24	1783.78
836.41	1648.61
836.58	1632.23
836.75	1691.62
836.92	1777.64
837.09	1673.19
837.26	1757.16
837.43	1708.01
837.60	1779.68
837.77	1652.71
837.94	1781.73
838.12	1843.17
838.29	1710.05
838.46	1617.90
838.63	1640.42
838.80	1814.50
838.97	1716.20
839.14	1687.53
839.31	1703.91
839.48	1728.49
839.65	1632.23
839.82	1791.97
839.99	1677.29
840.16	1669.09
840.33	1705.96
840.50	1724.39
840.67	1656.81
840.84	1591.27
841.01	1800.16
841.18	1656.81
841.35	1804.26
841.52	1746.92
841.69	1798.12
841.86	1726.44
842.03	1710.05
842.20	1724.39
842.37	1734.63
842.54	1673.19
842.71	1662.95
842.88	1619.94
843.05	1783.78
843.22	1732.58
843.39	1759.21
843.56	1644.52
843.73	1714.15
843.90	1751.01
844.07	1697.77
844.24	1714.15
844.41	1673.19
844.58	1736.68
844.75	1777.64
844.92	1755.11
845.09	1763.30
845.26	1736.68
845.43	1705.96
845.60	1689.57
845.77	1806.31
845.94	1687.53
846.10	1755.11
846.27	1658.85
846.44	1705.96
846.61	1740.77
846.78	1710.05
846.95	1757.16
847.12	1669.09
847.29	1681.38
847.46	1638.38
847.63	1740.77
847.80	1767.40
847.97	1746.92
848.14	1794.02
848.31	1720.29
848.48	1636.33
848.65	1722.34
848.82	1681.38
848.98	1851.36
849.15	1701.86
849.32	1794.02
849.49	1748.97
849.66	1697.77
849.83	1777.64
850.00	1636.33
850.17	1748.97
850.34	1740.77
850.51	1671.14
850.68	1703.91
850.85	1828.84
851.01	1824.74
851.18	1679.33
851.35	1695.72
851.52	1671.14
851.69	1722.34
851.86	1548.26
852.03	1677.29
852.20	1703.91
852.37	1734.63
852.53	1544.17
852.70	1640.42
852.87	1720.29
853.04	1742.82
853.21	1730.53
853.38	1798.12
853.55	1728.49
853.72	1796.07
853.89	1615.85
854.05	1626.09
854.22	1679.33
854.39	1675.24
854.56	1728.49
854.73	1691.62
854.90	1619.94
855.07	1720.29
855.23	1644.52
855.40	1581.03
855.57	1683.43
855.74	1564.65
855.91	1898.47
856.08	1601.51
856.25	1648.61
856.41	1701.86
856.58	1701.86
856.75	1755.11
856.92	1617.90
857.09	1734.63
857.26	1652.71
857.42	1722.34
857.59	1716.20
857.76	1656.81
857.93	1775.59
858.10	1732.58
858.27	1619.94
858.43	1757.16
858.60	1619.94
858.77	1607.66
858.94	1761.25
859.11	1779.68
859.27	1759.21
859.44	1763.30
859.61	1843.17
859.78	1691.62
859.95	1636.33
860.12	1656.81
860.28	1818.60
860.45	1791.97
860.62	1691.62
860.79	1753.06
860.95	1615.85
861.12	1634.28
861.29	1705.96
861.46	1693.67
861.63	1685.48
861.79	1742.82
861.96	1642.47
862.13	1677.29
862.30	1816.55
862.47	1722.34
862.63	1615.85
862.80	1705.96
862.97	1763.30
863.14	1746.92
863.30	1671.14
863.47	1718.25
863.64	1820.64
863.81	1732.58
863.97	1671.14
864.14	1718.25
864.31	1693.67
864.48	1708.01
864.65	1728.49
864.81	1777.64
864.98	1761.25
865.15	1738.73
865.32	1724.39
865.48	1748.97
865.65	1751.01
865.82	1720.29
865.98	1685.48
866.15	1685.48
866.32	1626.09
866.49	1679.33
866.65	1779.68
866.82	1650.66
866.99	1697.77
867.16	1669.09
867.32	1677.29
867.49	1675.24
867.66	1705.96
867.83	1685.48
867.99	1605.61
868.16	1748.97
868.33	1708.01
868.49	1716.20
868.66	1728.49
868.83	1720.29
868.99	1720.29
869.16	1648.61
869.33	1751.01
869.50	1794.02
869.66	1695.72
869.83	1718.25
870.00	1601.51
870.16	1716.20
870.33	1691.62
870.50	1701.86
870.66	1775.59
870.83	1808.36
871.00	1761.25
871.17	1781.73
871.33	1763.30
871.50	1703.91
871.67	1640.42
871.83	1667.05
872.00	1837.03
872.17	1689.57
872.33	1820.64
872.50	1769.44
872.67	1689.57
872.83	1705.96
873.00	1761.25
873.17	1667.05
873.33	1771.49
873.50	1730.53
873.67	1701.86
873.83	1693.67
874.00	1628.14
874.16	1734.63
874.33	1703.91
874.50	1681.38
874.66	1654.76
874.83	1716.20
875.00	1769.44
875.16	1740.77
875.33	1734.63
875.50	1601.51
875.66	1701.86
875.83	1675.24
875.99	1732.58
876.16	1658.85
876.33	1677.29
876.49	1701.86
876.66	1746.92
876.83	1687.53
876.99	1603.56
877.16	1691.62
877.32	1740.77
877.49	1609.70
877.66	1695.72
877.82	1802.21
877.99	1697.77
878.15	1734.63
878.32	1734.63
878.49	1736.68
878.65	1705.96
878.82	1757.16
878.98	1722.34
879.15	1701.86
879.32	1800.16
879.48	1708.01
879.65	1685.48
879.81	1697.77
879.98	1687.53
880.15	1685.48
880.31	1814.50
880.48	1675.24
880.64	1740.77
880.81	1744.87
880.97	1884.13
881.14	1773.54
881.31	1683.43
881.47	1869.80
881.64	1710.05
881.80	1603.56
881.97	1779.68
882.13	1779.68
882.30	1677.29
882.47	1699.81
882.63	1669.09
882.80	1675.24
882.96	1619.94
883.13	1804.26
883.29	1619.94
883.46	1722.34
883.62	1787.88
883.79	1697.77
883.95	1712.10
884.12	1673.19
884.29	1785.83
884.45	1765.35
884.62	1771.49
884.78	1665.00
884.95	1732.58
885.11	1708.01
885.28	1658.85
885.44	1720.29
885.61	1746.92
885.77	1755.11
885.94	1767.40
886.10	1650.66
886.27	1673.19
886.43	1775.59
886.60	1787.88
886.76	1716.20
886.93	1640.42
887.09	1669.09
887.26	1708.01
887.42	1757.16
887.59	1744.87
887.75	1832.93
887.92	1822.69
888.08	1732.58
888.25	1781.73
888.41	1810.40
888.58	1710.05
888.74	1660.90
888.91	1726.44
>>>>>End Processed Spectral Data<<<<<
