SpectraSuite Data File
++++++++++++++++++++++++++++++++++++
Date: Mon Jun 06 14:24:57 CEST 2016
User: root
Dark Spectrum Present: No
Reference Spectrum Present: No
Number of Sampled Component Spectra: 1
Spectrometers: USB4C02835
Integration Time (usec): 100000 (USB4C02835)
Spectra Averaged: 1 (USB4C02835)
Boxcar Smoothing: 0 (USB4C02835)
Correct for Electrical Dark: No (USB4C02835)
Strobe/Lamp Enabled: No (USB4C02835)
Correct for Detector Non-linearity: No (USB4C02835)
Correct for Stray Light: No (USB4C02835)
Number of Pixels in Processed Spectrum: 3648
>>>>>Begin Processed Spectral Data<<<<<
177.47	1513.45
177.69	1513.45
177.91	1513.45
178.13	1497.07
178.36	1519.59
178.58	1562.60
178.80	1736.68
179.02	1654.76
179.24	1646.57
179.46	1656.81
179.68	1746.92
179.90	1720.29
180.13	1697.77
180.35	1628.14
180.57	1691.62
180.79	1740.77
181.01	1726.44
181.23	1796.07
181.45	1789.92
181.67	1753.06
181.90	1738.73
182.12	1687.53
182.34	1648.61
182.56	1603.56
182.78	1734.63
183.00	1658.85
183.22	1701.86
183.44	1523.69
183.66	1845.22
183.89	1800.16
184.11	1751.01
184.33	1736.68
184.55	1701.86
184.77	1775.59
184.99	1708.01
185.21	1720.29
185.43	1853.41
185.65	1611.75
185.87	1699.81
186.10	1902.56
186.32	1794.02
186.54	1693.67
186.76	1777.64
186.98	1775.59
187.20	1667.05
187.42	1652.71
187.64	1691.62
187.86	1730.53
188.08	1779.68
188.30	1714.15
188.52	1701.86
188.75	1929.19
188.97	1816.55
189.19	1751.01
189.41	1736.68
189.63	1722.34
189.85	1695.72
190.07	1638.38
190.29	1554.41
190.51	1734.63
190.73	1611.75
190.95	1798.12
191.17	1691.62
191.39	1607.66
191.61	1740.77
191.84	1712.10
192.06	1763.30
192.28	1583.08
192.50	1943.52
192.72	1705.96
192.94	1683.43
193.16	1658.85
193.38	1675.24
193.60	1681.38
193.82	1632.23
194.04	1705.96
194.26	1742.82
194.48	1732.58
194.70	1642.47
194.92	1626.09
195.14	1765.35
195.36	1564.65
195.58	1710.05
195.80	1691.62
196.02	1687.53
196.24	1738.73
196.46	1728.49
196.69	1701.86
196.91	1869.80
197.13	1669.09
197.35	1593.32
197.57	1785.83
197.79	1757.16
198.01	1726.44
198.23	1695.72
198.45	1693.67
198.67	1589.22
198.89	1654.76
199.11	1724.39
199.33	1734.63
199.55	1626.09
199.77	1806.31
199.99	1755.11
200.21	1701.86
200.43	1718.25
200.65	1619.94
200.87	1652.71
201.09	1736.68
201.31	1685.48
201.53	1720.29
201.75	1708.01
201.97	1845.22
202.19	1742.82
202.41	1703.91
202.63	1853.41
202.85	1757.16
203.07	1751.01
203.29	1691.62
203.51	1671.14
203.73	1650.66
203.95	1853.41
204.17	1697.77
204.39	1732.58
204.61	1736.68
204.83	1755.11
205.05	1738.73
205.27	1781.73
205.49	1851.36
205.71	1732.58
205.93	1644.52
206.15	1689.57
206.37	1626.09
206.59	1662.95
206.81	1583.08
207.03	1681.38
207.25	1667.05
207.47	1744.87
207.69	1732.58
207.91	1753.06
208.13	1796.07
208.34	1662.95
208.56	1658.85
208.78	1763.30
209.00	1687.53
209.22	1656.81
209.44	1695.72
209.66	1624.04
209.88	1630.18
210.10	1665.00
210.32	1677.29
210.54	1853.41
210.76	1658.85
210.98	1746.92
211.20	1609.70
211.42	1720.29
211.64	1761.25
211.86	1777.64
212.08	1693.67
212.30	1701.86
212.52	1679.33
212.74	1755.11
212.96	1724.39
213.17	1724.39
213.39	1722.34
213.61	1773.54
213.83	1656.81
214.05	1675.24
214.27	1806.31
214.49	1673.19
214.71	1636.33
214.93	1837.03
215.15	1718.25
215.37	1820.64
215.59	1716.20
215.81	1691.62
216.03	1775.59
216.24	1697.77
216.46	1667.05
216.68	1626.09
216.90	1693.67
217.12	1755.11
217.34	1705.96
217.56	1742.82
217.78	1787.88
218.00	1714.15
218.22	1748.97
218.44	1732.58
218.66	1679.33
218.87	1804.26
219.09	1695.72
219.31	1695.72
219.53	1769.44
219.75	1611.75
219.97	1710.05
220.19	1689.57
220.41	1705.96
220.63	1720.29
220.85	1681.38
221.06	1644.52
221.28	1877.99
221.50	1712.10
221.72	1724.39
221.94	1624.04
222.16	1638.38
222.38	1759.21
222.60	1804.26
222.82	1568.74
223.03	1716.20
223.25	1638.38
223.47	1708.01
223.69	1751.01
223.91	1787.88
224.13	1671.14
224.35	1695.72
224.57	1710.05
224.78	1718.25
225.00	1683.43
225.22	1681.38
225.44	1779.68
225.66	1794.02
225.88	1691.62
226.10	1769.44
226.32	1710.05
226.53	1759.21
226.75	1619.94
226.97	1634.28
227.19	1734.63
227.41	1677.29
227.63	1632.23
227.85	1613.80
228.06	1763.30
228.28	1671.14
228.50	1765.35
228.72	1650.66
228.94	1681.38
229.16	1599.46
229.37	1716.20
229.59	1689.57
229.81	1806.31
230.03	1687.53
230.25	1560.55
230.47	1605.61
230.69	1656.81
230.90	1734.63
231.12	1679.33
231.34	1679.33
231.56	1718.25
231.78	1703.91
232.00	1697.77
232.21	1642.47
232.43	1671.14
232.65	1556.46
232.87	1742.82
233.09	1642.47
233.30	1570.79
233.52	1734.63
233.74	1722.34
233.96	1710.05
234.18	1755.11
234.40	1724.39
234.61	1877.99
234.83	1640.42
235.05	1693.67
235.27	1771.49
235.49	1763.30
235.70	1699.81
235.92	1804.26
236.14	1798.12
236.36	1898.47
236.58	1630.18
236.79	1738.73
237.01	1693.67
237.23	1730.53
237.45	1796.07
237.67	1671.14
237.88	1673.19
238.10	1834.98
238.32	1628.14
238.54	1660.90
238.76	1697.77
238.97	1693.67
239.19	1710.05
239.41	1771.49
239.63	1748.97
239.85	1656.81
240.06	1734.63
240.28	1708.01
240.50	1767.40
240.72	1703.91
240.93	1683.43
241.15	1738.73
241.37	1667.05
241.59	1812.45
241.81	1642.47
242.02	1767.40
242.24	1773.54
242.46	1765.35
242.68	1730.53
242.89	1705.96
243.11	1730.53
243.33	1724.39
243.55	1648.61
243.76	1773.54
243.98	1738.73
244.20	1712.10
244.42	1673.19
244.64	1740.77
244.85	1583.08
245.07	1687.53
245.29	1697.77
245.51	1656.81
245.72	1681.38
245.94	1701.86
246.16	1708.01
246.38	1751.01
246.59	1648.61
246.81	1697.77
247.03	1677.29
247.24	1708.01
247.46	1705.96
247.68	1697.77
247.90	1685.48
248.11	1679.33
248.33	1755.11
248.55	1669.09
248.77	1777.64
248.98	1767.40
249.20	1816.55
249.42	1757.16
249.64	1773.54
249.85	1701.86
250.07	1638.38
250.29	1720.29
250.50	1787.88
250.72	1621.99
250.94	1708.01
251.16	1800.16
251.37	1769.44
251.59	1787.88
251.81	1794.02
252.02	1808.36
252.24	1650.66
252.46	1742.82
252.68	1638.38
252.89	1621.99
253.11	1648.61
253.33	1787.88
253.54	1753.06
253.76	1581.03
253.98	1722.34
254.20	1736.68
254.41	1609.70
254.63	1648.61
254.85	1679.33
255.06	1703.91
255.28	1689.57
255.50	1683.43
255.71	1699.81
255.93	1693.67
256.15	1634.28
256.36	1685.48
256.58	1669.09
256.80	1716.20
257.02	1726.44
257.23	1701.86
257.45	1738.73
257.67	1714.15
257.88	1644.52
258.10	1781.73
258.32	1755.11
258.53	1658.85
258.75	1822.69
258.97	1691.62
259.18	1742.82
259.40	1679.33
259.62	1812.45
259.83	1763.30
260.05	1742.82
260.27	2002.91
260.48	1832.93
260.70	1677.29
260.92	1679.33
261.13	1691.62
261.35	1681.38
261.57	1673.19
261.78	1628.14
262.00	1599.46
262.22	1660.90
262.43	1720.29
262.65	1681.38
262.86	1705.96
263.08	1832.93
263.30	1779.68
263.51	1585.13
263.73	1619.94
263.95	1740.77
264.16	1665.00
264.38	1716.20
264.60	1640.42
264.81	1634.28
265.03	1755.11
265.25	1708.01
265.46	1689.57
265.68	1755.11
265.89	1755.11
266.11	1632.23
266.33	1746.92
266.54	1773.54
266.76	1763.30
266.98	1759.21
267.19	1732.58
267.41	1708.01
267.62	1724.39
267.84	1650.66
268.06	1738.73
268.27	1658.85
268.49	1748.97
268.70	1732.58
268.92	1648.61
269.14	1615.85
269.35	1617.90
269.57	1685.48
269.79	1771.49
270.00	1648.61
270.22	1820.64
270.43	1669.09
270.65	1599.46
270.87	1705.96
271.08	1710.05
271.30	1742.82
271.51	1689.57
271.73	1779.68
271.95	1785.83
272.16	1736.68
272.38	1724.39
272.59	1687.53
272.81	1724.39
273.02	1689.57
273.24	1755.11
273.46	1665.00
273.67	1656.81
273.89	1730.53
274.10	1701.86
274.32	1767.40
274.54	1724.39
274.75	1742.82
274.97	1646.57
275.18	1755.11
275.40	1791.97
275.61	1634.28
275.83	1755.11
276.05	1636.33
276.26	1693.67
276.48	1669.09
276.69	1751.01
276.91	1634.28
277.12	1746.92
277.34	1763.30
277.55	1740.77
277.77	1703.91
277.99	1726.44
278.20	1640.42
278.42	1658.85
278.63	1679.33
278.85	1669.09
279.06	1636.33
279.28	1720.29
279.49	1687.53
279.71	1742.82
279.93	1695.72
280.14	1613.80
280.36	1669.09
280.57	1796.07
280.79	1714.15
281.00	1685.48
281.22	1638.38
281.43	1751.01
281.65	1583.08
281.86	1652.71
282.08	1697.77
282.29	1828.84
282.51	1574.89
282.73	1675.24
282.94	1703.91
283.16	1798.12
283.37	1849.32
283.59	1701.86
283.80	1665.00
284.02	1732.58
284.23	1689.57
284.45	1697.77
284.66	1648.61
284.88	1665.00
285.09	1806.31
285.31	1742.82
285.52	1732.58
285.74	1638.38
285.95	1781.73
286.17	1714.15
286.38	1703.91
286.60	1691.62
286.81	1652.71
287.03	1619.94
287.24	1599.46
287.46	1763.30
287.67	1669.09
287.89	1730.53
288.10	1736.68
288.32	1718.25
288.53	1744.87
288.75	1755.11
288.96	1746.92
289.18	1667.05
289.39	1675.24
289.61	1777.64
289.82	1832.93
290.04	1785.83
290.25	1638.38
290.47	1667.05
290.68	1648.61
290.90	1701.86
291.11	1562.60
291.33	1699.81
291.54	1613.80
291.76	1724.39
291.97	1679.33
292.18	1730.53
292.40	1677.29
292.61	1652.71
292.83	1812.45
293.04	1689.57
293.26	1736.68
293.47	1650.66
293.69	1695.72
293.90	1679.33
294.12	1785.83
294.33	1753.06
294.55	1701.86
294.76	1767.40
294.97	1798.12
295.19	1802.21
295.40	1603.56
295.62	1656.81
295.83	1685.48
296.05	1685.48
296.26	1693.67
296.48	1693.67
296.69	1685.48
296.90	1722.34
297.12	1783.78
297.33	1800.16
297.55	1742.82
297.76	1689.57
297.98	1753.06
298.19	1691.62
298.41	1697.77
298.62	1628.14
298.83	1820.64
299.05	1693.67
299.26	1605.61
299.48	1683.43
299.69	1761.25
299.90	1726.44
300.12	1718.25
300.33	1812.45
300.55	1695.72
300.76	1796.07
300.98	1703.91
301.19	1662.95
301.40	1699.81
301.62	1669.09
301.83	1734.63
302.05	1703.91
302.26	1697.77
302.47	1662.95
302.69	1599.46
302.90	1630.18
303.12	1574.89
303.33	1761.25
303.54	1753.06
303.76	1691.62
303.97	1767.40
304.19	1771.49
304.40	1632.23
304.61	1777.64
304.83	1884.13
305.04	1738.73
305.26	1734.63
305.47	1726.44
305.68	1683.43
305.90	1589.22
306.11	1794.02
306.33	1617.90
306.54	1685.48
306.75	1665.00
306.97	1660.90
307.18	1636.33
307.39	1646.57
307.61	1804.26
307.82	1609.70
308.04	1777.64
308.25	1652.71
308.46	1798.12
308.68	1738.73
308.89	1722.34
309.10	1800.16
309.32	1671.14
309.53	1767.40
309.74	1673.19
309.96	1654.76
310.17	1787.88
310.39	1652.71
310.60	1681.38
310.81	1671.14
311.03	1644.52
311.24	1712.10
311.45	1660.90
311.67	1826.79
311.88	1769.44
312.09	1740.77
312.31	1738.73
312.52	1677.29
312.73	1728.49
312.95	1685.48
313.16	1697.77
313.37	1796.07
313.59	1728.49
313.80	1826.79
314.01	1738.73
314.23	1675.24
314.44	1638.38
314.65	1605.61
314.87	1613.80
315.08	1693.67
315.29	1660.90
315.51	1714.15
315.72	1656.81
315.93	1748.97
316.15	1789.92
316.36	1667.05
316.57	1658.85
316.79	1665.00
317.00	1681.38
317.21	1720.29
317.43	1685.48
317.64	1693.67
317.85	1710.05
318.07	1640.42
318.28	1705.96
318.49	1787.88
318.70	1914.85
318.92	1826.79
319.13	1775.59
319.34	1806.31
319.56	1837.03
319.77	1826.79
319.98	1783.78
320.20	1853.41
320.41	1773.54
320.62	1740.77
320.83	1656.81
321.05	1834.98
321.26	1761.25
321.47	1734.63
321.69	1714.15
321.90	1626.09
322.11	1636.33
322.32	1718.25
322.54	1796.07
322.75	1671.14
322.96	1787.88
323.18	1685.48
323.39	1621.99
323.60	1677.29
323.81	1769.44
324.03	1734.63
324.24	1744.87
324.45	1781.73
324.66	1710.05
324.88	1757.16
325.09	1746.92
325.30	1673.19
325.52	1716.20
325.73	1763.30
325.94	1628.14
326.15	1638.38
326.37	1609.70
326.58	1687.53
326.79	1722.34
327.00	1712.10
327.22	1757.16
327.43	1632.23
327.64	1599.46
327.85	1697.77
328.07	1773.54
328.28	1740.77
328.49	1589.22
328.70	1681.38
328.92	1693.67
329.13	1763.30
329.34	1740.77
329.55	1763.30
329.76	1699.81
329.98	1679.33
330.19	1812.45
330.40	1722.34
330.61	1718.25
330.83	1826.79
331.04	1712.10
331.25	1691.62
331.46	1658.85
331.68	1705.96
331.89	1708.01
332.10	1697.77
332.31	1650.66
332.52	1691.62
332.74	1757.16
332.95	1687.53
333.16	1712.10
333.37	1708.01
333.58	1609.70
333.80	1683.43
334.01	1638.38
334.22	1722.34
334.43	1720.29
334.64	1691.62
334.86	1570.79
335.07	1708.01
335.28	1779.68
335.49	1646.57
335.70	1675.24
335.92	1732.58
336.13	1814.50
336.34	1726.44
336.55	1705.96
336.76	1804.26
336.98	1523.69
337.19	1701.86
337.40	1767.40
337.61	1828.84
337.82	1642.47
338.04	1751.01
338.25	1619.94
338.46	1746.92
338.67	1660.90
338.88	1626.09
339.09	1642.47
339.31	1701.86
339.52	1671.14
339.73	1728.49
339.94	1759.21
340.15	1722.34
340.36	1648.61
340.58	1720.29
340.79	1708.01
341.00	1738.73
341.21	1640.42
341.42	1869.80
341.63	1701.86
341.85	1697.77
342.06	1724.39
342.27	1644.52
342.48	1779.68
342.69	1644.52
342.90	1708.01
343.12	1779.68
343.33	1617.90
343.54	1775.59
343.75	1712.10
343.96	1624.04
344.17	1689.57
344.38	1650.66
344.60	1607.66
344.81	1681.38
345.02	1689.57
345.23	1757.16
345.44	1800.16
345.65	1767.40
345.86	1777.64
346.07	1638.38
346.29	1724.39
346.50	1746.92
346.71	1767.40
346.92	1722.34
347.13	1828.84
347.34	1687.53
347.55	1742.82
347.76	1767.40
347.98	1572.84
348.19	1683.43
348.40	1761.25
348.61	1701.86
348.82	1816.55
349.03	1802.21
349.24	1673.19
349.45	1769.44
349.66	1624.04
349.88	1701.86
350.09	1609.70
350.30	1748.97
350.51	1734.63
350.72	1787.88
350.93	1628.14
351.14	1644.52
351.35	1738.73
351.56	1693.67
351.77	1705.96
351.99	1738.73
352.20	1804.26
352.41	1779.68
352.62	1615.85
352.83	1695.72
353.04	1650.66
353.25	1724.39
353.46	1843.17
353.67	1810.40
353.88	1648.61
354.09	1722.34
354.30	1730.53
354.52	1714.15
354.73	1693.67
354.94	1667.05
355.15	1720.29
355.36	1781.73
355.57	1677.29
355.78	1779.68
355.99	1605.61
356.20	1705.96
356.41	1779.68
356.62	1722.34
356.83	1632.23
357.04	1802.21
357.25	1634.28
357.46	1722.34
357.68	1632.23
357.89	1630.18
358.10	1703.91
358.31	1708.01
358.52	1753.06
358.73	1599.46
358.94	1599.46
359.15	1636.33
359.36	1724.39
359.57	1765.35
359.78	1705.96
359.99	1697.77
360.20	1683.43
360.41	1644.52
360.62	1734.63
360.83	1710.05
361.04	1699.81
361.25	1771.49
361.46	1783.78
361.67	1722.34
361.88	1730.53
362.09	1703.91
362.30	1738.73
362.51	1665.00
362.72	1724.39
362.93	1710.05
363.14	1728.49
363.35	1705.96
363.56	1632.23
363.78	1716.20
363.99	1814.50
364.20	1638.38
364.41	1730.53
364.62	1789.92
364.83	1705.96
365.04	1712.10
365.25	1718.25
365.46	1777.64
365.67	1751.01
365.88	1591.27
366.09	1722.34
366.30	1656.81
366.51	1630.18
366.72	1687.53
366.93	1691.62
367.14	1744.87
367.35	1783.78
367.56	1685.48
367.77	1832.93
367.98	1683.43
368.18	1685.48
368.39	1726.44
368.60	1720.29
368.81	1705.96
369.02	1726.44
369.23	1648.61
369.44	1656.81
369.65	1650.66
369.86	1757.16
370.07	1769.44
370.28	1585.13
370.49	1730.53
370.70	1730.53
370.91	1652.71
371.12	1621.99
371.33	1734.63
371.54	1662.95
371.75	1812.45
371.96	1572.84
372.17	1650.66
372.38	1708.01
372.59	1820.64
372.80	1761.25
373.01	1730.53
373.22	1724.39
373.43	1724.39
373.64	1681.38
373.85	1787.88
374.06	1748.97
374.26	1744.87
374.47	1665.00
374.68	1849.32
374.89	1689.57
375.10	1736.68
375.31	1730.53
375.52	1726.44
375.73	1712.10
375.94	1626.09
376.15	1761.25
376.36	1626.09
376.57	1710.05
376.78	1679.33
376.99	1689.57
377.20	1724.39
377.40	1773.54
377.61	1787.88
377.82	1665.00
378.03	1812.45
378.24	1652.71
378.45	1691.62
378.66	1681.38
378.87	1650.66
379.08	1724.39
379.29	1708.01
379.50	1810.40
379.71	1716.20
379.91	1714.15
380.12	1744.87
380.33	1648.61
380.54	1720.29
380.75	1642.47
380.96	1626.09
381.17	1759.21
381.38	1726.44
381.59	1783.78
381.80	1656.81
382.00	1869.80
382.21	1765.35
382.42	1806.31
382.63	1927.14
382.84	1779.68
383.05	1806.31
383.26	1748.97
383.47	1746.92
383.68	1736.68
383.88	1746.92
384.09	1644.52
384.30	1861.60
384.51	1683.43
384.72	1718.25
384.93	1677.29
385.14	1718.25
385.35	1814.50
385.55	1619.94
385.76	1769.44
385.97	1677.29
386.18	1681.38
386.39	1665.00
386.60	1636.33
386.81	1714.15
387.02	1613.80
387.22	1630.18
387.43	1740.77
387.64	1742.82
387.85	1880.04
388.06	2238.43
388.27	4265.92
388.48	6700.95
388.68	8275.84
388.89	9932.65
389.10	9750.38
389.31	8900.47
389.52	7796.62
389.73	6926.23
389.93	6240.16
390.14	5996.45
390.35	5273.52
390.56	4650.94
390.77	3846.09
390.98	3182.54
391.18	2574.30
391.39	2103.26
391.60	1873.89
391.81	1804.26
392.02	1669.09
392.23	1834.98
392.43	1718.25
392.64	1871.84
392.85	1708.01
393.06	1791.97
393.27	1669.09
393.47	1673.19
393.68	1705.96
393.89	1724.39
394.10	1779.68
394.31	1771.49
394.52	1626.09
394.72	1628.14
394.93	1849.32
395.14	1650.66
395.35	1746.92
395.56	1640.42
395.76	1650.66
395.97	1730.53
396.18	1781.73
396.39	1861.60
396.60	1992.67
396.80	1849.32
397.01	1882.08
397.22	1849.32
397.43	1826.79
397.64	1738.73
397.84	1818.60
398.05	1865.70
398.26	1798.12
398.47	1734.63
398.67	1732.58
398.88	1650.66
399.09	1755.11
399.30	1697.77
399.51	1724.39
399.71	1632.23
399.92	1691.62
400.13	1742.82
400.34	1695.72
400.54	1736.68
400.75	1746.92
400.96	1697.77
401.17	1802.21
401.37	1714.15
401.58	1705.96
401.79	1689.57
402.00	1886.18
402.21	1972.19
402.41	1910.75
402.62	2015.20
402.83	2013.15
403.04	2054.11
403.24	2121.70
403.45	1796.07
403.66	1927.14
403.87	1869.80
404.07	1937.38
404.28	1880.04
404.49	1847.27
404.70	1767.40
404.90	1759.21
405.11	1816.55
405.32	1767.40
405.52	1650.66
405.73	1603.56
405.94	1681.38
406.15	1708.01
406.35	1714.15
406.56	1732.58
406.77	1738.73
406.98	1746.92
407.18	1714.15
407.39	1845.22
407.60	1597.42
407.80	1783.78
408.01	1722.34
408.22	1656.81
408.43	1693.67
408.63	1785.83
408.84	1755.11
409.05	1763.30
409.25	1642.47
409.46	1585.13
409.67	1656.81
409.88	1642.47
410.08	1714.15
410.29	1734.63
410.50	1703.91
410.70	1746.92
410.91	1611.75
411.12	1746.92
411.32	1644.52
411.53	1732.58
411.74	1857.51
411.95	1785.83
412.15	1763.30
412.36	1740.77
412.57	1775.59
412.77	1877.99
412.98	1757.16
413.19	1689.57
413.39	1722.34
413.60	1732.58
413.81	1791.97
414.01	1699.81
414.22	1843.17
414.43	1705.96
414.63	1669.09
414.84	1779.68
415.05	1755.11
415.25	1611.75
415.46	1800.16
415.67	1712.10
415.87	1775.59
416.08	1714.15
416.29	1671.14
416.49	1714.15
416.70	1665.00
416.91	1789.92
417.11	1681.38
417.32	1744.87
417.53	1742.82
417.73	1697.77
417.94	1705.96
418.15	1767.40
418.35	1726.44
418.56	1714.15
418.77	1769.44
418.97	1751.01
419.18	1740.77
419.38	1638.38
419.59	1681.38
419.80	1753.06
420.00	1630.18
420.21	1724.39
420.42	1800.16
420.62	1691.62
420.83	1761.25
421.04	1763.30
421.24	1734.63
421.45	1722.34
421.65	1679.33
421.86	1693.67
422.07	1718.25
422.27	1724.39
422.48	1685.48
422.69	1644.52
422.89	1746.92
423.10	1624.04
423.30	1628.14
423.51	1744.87
423.72	1771.49
423.92	1814.50
424.13	1636.33
424.33	1726.44
424.54	1732.58
424.75	1757.16
424.95	1816.55
425.16	1763.30
425.36	1671.14
425.57	1722.34
425.78	1740.77
425.98	1701.86
426.19	1689.57
426.39	1667.05
426.60	1703.91
426.81	1740.77
427.01	1759.21
427.22	1722.34
427.42	1660.90
427.63	1769.44
427.83	1705.96
428.04	1789.92
428.25	1871.84
428.45	1714.15
428.66	1744.87
428.86	1755.11
429.07	1710.05
429.28	1746.92
429.48	1671.14
429.69	1675.24
429.89	1779.68
430.10	1591.27
430.30	1736.68
430.51	1773.54
430.71	1628.14
430.92	1689.57
431.13	1705.96
431.33	1638.38
431.54	1718.25
431.74	1804.26
431.95	1794.02
432.15	1587.18
432.36	1658.85
432.56	1658.85
432.77	1863.65
432.98	1851.36
433.18	1652.71
433.39	1740.77
433.59	1779.68
433.80	1832.93
434.00	1800.16
434.21	1681.38
434.41	1726.44
434.62	1810.40
434.82	1753.06
435.03	1693.67
435.23	1748.97
435.44	1716.20
435.64	1660.90
435.85	1648.61
436.06	1800.16
436.26	1779.68
436.47	1675.24
436.67	1738.73
436.88	1712.10
437.08	1781.73
437.29	1777.64
437.49	1701.86
437.70	1689.57
437.90	1689.57
438.11	1931.23
438.31	1812.45
438.52	1824.74
438.72	1830.88
438.93	1927.14
439.13	1839.08
439.34	1912.80
439.54	1761.25
439.75	1853.41
439.95	1853.41
440.16	1728.49
440.36	1716.20
440.57	1816.55
440.77	1771.49
440.98	1726.44
441.18	1830.88
441.39	1675.24
441.59	1718.25
441.80	1767.40
442.00	1695.72
442.21	1802.21
442.41	1638.38
442.62	1777.64
442.82	1689.57
443.02	1742.82
443.23	1742.82
443.43	1716.20
443.64	1849.32
443.84	1599.46
444.05	1808.36
444.25	1716.20
444.46	1712.10
444.66	1720.29
444.87	1757.16
445.07	1654.76
445.28	1714.15
445.48	1796.07
445.69	1816.55
445.89	1853.41
446.09	1796.07
446.30	2099.17
446.50	2609.11
446.71	3723.21
446.91	4444.09
447.12	4759.48
447.32	5021.62
447.53	4413.37
447.73	3854.28
447.93	3530.70
448.14	3379.15
448.34	3203.02
448.55	2883.54
448.75	2879.44
448.96	2688.98
449.16	2449.37
449.36	2293.72
449.57	2039.78
449.77	1859.56
449.98	1794.02
450.18	1783.78
450.39	1839.08
450.59	1783.78
450.79	1683.43
451.00	1630.18
451.20	1755.11
451.41	1720.29
451.61	1730.53
451.81	1658.85
452.02	1736.68
452.22	1660.90
452.43	1710.05
452.63	1722.34
452.84	1738.73
453.04	1644.52
453.24	1724.39
453.45	1701.86
453.65	1730.53
453.86	1773.54
454.06	1746.92
454.26	1648.61
454.47	1675.24
454.67	1804.26
454.87	1755.11
455.08	1648.61
455.28	1859.56
455.49	1789.92
455.69	1699.81
455.89	1933.28
456.10	1812.45
456.30	1736.68
456.51	1798.12
456.71	1800.16
456.91	1763.30
457.12	1783.78
457.32	1748.97
457.52	1671.14
457.73	1808.36
457.93	1796.07
458.14	1646.57
458.34	1703.91
458.54	1730.53
458.75	1710.05
458.95	1769.44
459.15	1705.96
459.36	1775.59
459.56	1783.78
459.76	1908.71
459.97	1740.77
460.17	1794.02
460.37	1857.51
460.58	1746.92
460.78	1710.05
460.99	1800.16
461.19	1671.14
461.39	1730.53
461.60	1662.95
461.80	1787.88
462.00	1644.52
462.21	1705.96
462.41	1726.44
462.61	1693.67
462.82	1621.99
463.02	1726.44
463.22	1730.53
463.43	1804.26
463.63	1689.57
463.83	1738.73
464.04	1791.97
464.24	1673.19
464.44	1654.76
464.64	1777.64
464.85	1859.56
465.05	1798.12
465.25	1742.82
465.46	1759.21
465.66	1726.44
465.86	1783.78
466.07	1783.78
466.27	1697.77
466.47	1636.33
466.68	1654.76
466.88	1744.87
467.08	1773.54
467.29	1726.44
467.49	1783.78
467.69	1755.11
467.89	1779.68
468.10	1722.34
468.30	1716.20
468.50	1822.69
468.71	1804.26
468.91	1673.19
469.11	1873.89
469.31	1732.58
469.52	1665.00
469.72	1798.12
469.92	1783.78
470.13	1658.85
470.33	1708.01
470.53	1853.41
470.73	2072.54
470.94	2310.11
471.14	2336.73
471.34	2570.20
471.54	2418.65
471.75	2279.39
471.95	2164.70
472.15	2068.45
472.36	2117.60
472.56	1976.29
472.76	2009.06
472.96	1933.28
473.17	1884.13
473.37	1845.22
473.57	1789.92
473.77	1867.75
473.98	1730.53
474.18	1640.42
474.38	1908.71
474.58	1726.44
474.79	1611.75
474.99	1763.30
475.19	1820.64
475.39	1701.86
475.60	1728.49
475.80	1712.10
476.00	1705.96
476.20	1755.11
476.41	1757.16
476.61	1785.83
476.81	1757.16
477.01	1675.24
477.21	1837.03
477.42	1841.12
477.62	1613.80
477.82	1779.68
478.02	1701.86
478.23	1837.03
478.43	1730.53
478.63	1708.01
478.83	1710.05
479.03	1730.53
479.24	1748.97
479.44	1828.84
479.64	1669.09
479.84	1644.52
480.04	1730.53
480.25	1744.87
480.45	1763.30
480.65	1763.30
480.85	1824.74
481.06	1712.10
481.26	1693.67
481.46	1783.78
481.66	1718.25
481.86	1714.15
482.06	1769.44
482.27	1705.96
482.47	1624.04
482.67	1763.30
482.87	1744.87
483.07	1808.36
483.28	1705.96
483.48	1634.28
483.68	1816.55
483.88	1730.53
484.08	1599.46
484.29	1652.71
484.49	1726.44
484.69	1660.90
484.89	1732.58
485.09	1859.56
485.29	1714.15
485.50	1763.30
485.70	1671.14
485.90	1738.73
486.10	1703.91
486.30	1785.83
486.50	1787.88
486.71	1783.78
486.91	1714.15
487.11	1812.45
487.31	1615.85
487.51	1710.05
487.71	1648.61
487.91	1607.66
488.12	1662.95
488.32	1574.89
488.52	1626.09
488.72	1679.33
488.92	1689.57
489.12	1775.59
489.32	1798.12
489.53	1785.83
489.73	1755.11
489.93	1767.40
490.13	1638.38
490.33	1656.81
490.53	1744.87
490.73	1781.73
490.94	1644.52
491.14	1800.16
491.34	1787.88
491.54	2150.37
491.74	2688.98
491.94	2947.03
492.14	3071.95
492.34	2971.60
492.54	2725.85
492.75	2514.91
492.95	2422.75
493.15	2314.20
493.35	2222.05
493.55	2203.61
493.75	2023.39
493.95	2207.71
494.15	1970.15
494.35	1882.08
494.56	1839.08
494.76	1755.11
494.96	1826.79
495.16	1775.59
495.36	1753.06
495.56	1751.01
495.76	1742.82
495.96	1710.05
496.16	1703.91
496.36	1828.84
496.56	1728.49
496.77	1746.92
496.97	1763.30
497.17	1787.88
497.37	1656.81
497.57	1724.39
497.77	1763.30
497.97	1710.05
498.17	1734.63
498.37	1683.43
498.57	1796.07
498.77	1695.72
498.97	1789.92
499.17	1798.12
499.38	1669.09
499.58	1804.26
499.78	1853.41
499.98	1787.88
500.18	1673.19
500.38	1757.16
500.58	1920.99
500.78	2559.96
500.98	4540.35
501.18	5832.62
501.38	6891.41
501.58	7301.01
501.78	6827.93
501.98	5853.09
502.18	4970.42
502.38	4519.87
502.58	4173.76
502.78	3774.41
502.98	3721.16
503.18	3364.81
503.38	3092.43
503.59	2908.12
503.79	2713.56
503.99	2527.19
504.19	2283.49
504.39	2220.00
504.59	2181.09
504.79	2142.18
504.99	2050.02
505.19	1904.61
505.39	1851.36
505.59	1964.00
505.79	1888.23
505.99	1943.52
506.19	1820.64
506.39	1873.89
506.59	1787.88
506.79	1693.67
506.99	1767.40
507.19	1773.54
507.39	1708.01
507.59	1753.06
507.79	1751.01
507.99	1669.09
508.19	1771.49
508.39	1662.95
508.59	1753.06
508.79	1859.56
508.99	1871.84
509.19	1687.53
509.39	1871.84
509.59	1730.53
509.79	1642.47
509.99	1701.86
510.19	1693.67
510.39	1785.83
510.59	1744.87
510.79	1759.21
510.99	1677.29
511.19	1730.53
511.39	1753.06
511.59	1738.73
511.79	1800.16
511.99	1755.11
512.19	1826.79
512.38	1751.01
512.58	1644.52
512.78	1683.43
512.98	1828.84
513.18	1763.30
513.38	1728.49
513.58	1800.16
513.78	1802.21
513.98	1683.43
514.18	1716.20
514.38	1695.72
514.58	1763.30
514.78	1662.95
514.98	1716.20
515.18	1751.01
515.38	1576.94
515.58	1877.99
515.78	1677.29
515.98	1767.40
516.18	1775.59
516.38	1773.54
516.57	1716.20
516.77	1687.53
516.97	1800.16
517.17	1744.87
517.37	1656.81
517.57	1683.43
517.77	1839.08
517.97	1701.86
518.17	1800.16
518.37	1669.09
518.57	1662.95
518.77	1708.01
518.97	1685.48
519.16	1802.21
519.36	1794.02
519.56	1640.42
519.76	1757.16
519.96	1718.25
520.16	1853.41
520.36	1621.99
520.56	1818.60
520.76	1718.25
520.96	1679.33
521.16	1783.78
521.35	1830.88
521.55	1886.18
521.75	1755.11
521.95	1722.34
522.15	1703.91
522.35	1660.90
522.55	1644.52
522.75	1718.25
522.95	1703.91
523.14	1693.67
523.34	1753.06
523.54	1662.95
523.74	1771.49
523.94	1791.97
524.14	1626.09
524.34	1730.53
524.54	1789.92
524.73	1693.67
524.93	1714.15
525.13	1783.78
525.33	1628.14
525.53	1877.99
525.73	1734.63
525.93	1695.72
526.13	1800.16
526.32	1789.92
526.52	1773.54
526.72	1763.30
526.92	1650.66
527.12	1787.88
527.32	1689.57
527.52	1787.88
527.71	1785.83
527.91	1720.29
528.11	1597.42
528.31	1742.82
528.51	1665.00
528.71	1714.15
528.90	1775.59
529.10	1677.29
529.30	1828.84
529.50	1642.47
529.70	1697.77
529.90	1726.44
530.09	1746.92
530.29	1638.38
530.49	1681.38
530.69	1871.84
530.89	1728.49
531.09	1789.92
531.28	1794.02
531.48	1773.54
531.68	1726.44
531.88	1671.14
532.08	1847.27
532.28	1724.39
532.47	1734.63
532.67	1783.78
532.87	1736.68
533.07	1683.43
533.27	1748.97
533.46	1800.16
533.66	1695.72
533.86	1712.10
534.06	1689.57
534.26	1751.01
534.45	1699.81
534.65	1779.68
534.85	1691.62
535.05	1712.10
535.25	1763.30
535.44	1658.85
535.64	1755.11
535.84	1755.11
536.04	1736.68
536.24	1765.35
536.43	1716.20
536.63	1740.77
536.83	1718.25
537.03	1681.38
537.22	1738.73
537.42	1662.95
537.62	1742.82
537.82	1669.09
538.02	1748.97
538.21	1759.21
538.41	1863.65
538.61	1740.77
538.81	1744.87
539.00	1779.68
539.20	1718.25
539.40	1697.77
539.60	1783.78
539.79	1724.39
539.99	1757.16
540.19	1683.43
540.39	1687.53
540.58	1763.30
540.78	1853.41
540.98	1718.25
541.18	1845.22
541.37	1730.53
541.57	1822.69
541.77	1789.92
541.97	1710.05
542.16	1613.80
542.36	1746.92
542.56	1726.44
542.76	1841.12
542.95	1796.07
543.15	1802.21
543.35	1796.07
543.54	1759.21
543.74	1712.10
543.94	1851.36
544.14	1673.19
544.33	1673.19
544.53	1777.64
544.73	1710.05
544.93	1722.34
545.12	1751.01
545.32	1730.53
545.52	1714.15
545.71	1687.53
545.91	1710.05
546.11	1705.96
546.30	1691.62
546.50	1755.11
546.70	1697.77
546.90	1755.11
547.09	1624.04
547.29	1722.34
547.49	1773.54
547.68	1714.15
547.88	1748.97
548.08	1740.77
548.27	2211.81
548.47	1744.87
548.67	1650.66
548.87	1695.72
549.06	1775.59
549.26	1697.77
549.46	1701.86
549.65	1701.86
549.85	1720.29
550.05	1726.44
550.24	1677.29
550.44	1703.91
550.64	1771.49
550.83	1710.05
551.03	1841.12
551.23	1779.68
551.42	1814.50
551.62	1746.92
551.82	1738.73
552.01	1720.29
552.21	1892.32
552.41	1759.21
552.60	1843.17
552.80	1779.68
553.00	1697.77
553.19	1775.59
553.39	1847.27
553.59	1595.37
553.78	1818.60
553.98	1734.63
554.17	1646.57
554.37	1751.01
554.57	1751.01
554.76	1675.24
554.96	1667.05
555.16	1763.30
555.35	1761.25
555.55	1789.92
555.75	1763.30
555.94	1802.21
556.14	1658.85
556.33	1851.36
556.53	1763.30
556.73	1687.53
556.92	1804.26
557.12	1804.26
557.32	1904.61
557.51	1789.92
557.71	1755.11
557.90	1794.02
558.10	1828.84
558.30	1712.10
558.49	1755.11
558.69	1726.44
558.88	1771.49
559.08	1751.01
559.28	1748.97
559.47	1718.25
559.67	1773.54
559.86	1824.74
560.06	1748.97
560.26	1746.92
560.45	1734.63
560.65	1755.11
560.84	1849.32
561.04	1730.53
561.24	1796.07
561.43	1665.00
561.63	1796.07
561.82	1767.40
562.02	1712.10
562.22	1771.49
562.41	1613.80
562.61	1677.29
562.80	1699.81
563.00	1945.57
563.19	1751.01
563.39	1761.25
563.59	1765.35
563.78	1632.23
563.98	1648.61
564.17	1673.19
564.37	1738.73
564.56	1826.79
564.76	1613.80
564.96	1783.78
565.15	1730.53
565.35	1738.73
565.54	1710.05
565.74	1722.34
565.93	1753.06
566.13	1796.07
566.32	1744.87
566.52	1800.16
566.71	1740.77
566.91	1724.39
567.11	1742.82
567.30	1765.35
567.50	1699.81
567.69	1822.69
567.89	1728.49
568.08	1705.96
568.28	1736.68
568.47	1665.00
568.67	1791.97
568.86	1701.86
569.06	1730.53
569.25	1710.05
569.45	1687.53
569.64	1699.81
569.84	1656.81
570.04	1724.39
570.23	1761.25
570.43	1703.91
570.62	1748.97
570.82	1849.32
571.01	1701.86
571.21	1771.49
571.40	1613.80
571.60	1767.40
571.79	1761.25
571.99	1773.54
572.18	1677.29
572.38	1757.16
572.57	1767.40
572.77	1787.88
572.96	1894.37
573.16	1757.16
573.35	1740.77
573.55	1785.83
573.74	1783.78
573.94	1714.15
574.13	1718.25
574.33	1841.12
574.52	1767.40
574.71	1736.68
574.91	1785.83
575.10	1673.19
575.30	1716.20
575.49	1724.39
575.69	1689.57
575.88	1738.73
576.08	1689.57
576.27	1746.92
576.47	1714.15
576.66	1771.49
576.86	1761.25
577.05	1744.87
577.25	1841.12
577.44	1871.84
577.64	1734.63
577.83	1767.40
578.02	1628.14
578.22	1808.36
578.41	1834.98
578.61	1744.87
578.80	1748.97
579.00	1738.73
579.19	1796.07
579.39	1783.78
579.58	1789.92
579.77	1738.73
579.97	1853.41
580.16	1763.30
580.36	1824.74
580.55	1791.97
580.75	1763.30
580.94	1769.44
581.13	1861.60
581.33	1933.28
581.52	1757.16
581.72	1822.69
581.91	1800.16
582.11	1751.01
582.30	1804.26
582.49	1826.79
582.69	1853.41
582.88	1736.68
583.08	1748.97
583.27	1734.63
583.47	1753.06
583.66	1695.72
583.85	1683.43
584.05	1755.11
584.24	1800.16
584.44	1794.02
584.63	1806.31
584.82	1896.42
585.02	1865.70
585.21	1800.16
585.41	1861.60
585.60	1861.60
585.79	1906.66
585.99	1875.94
586.18	1939.43
586.37	2144.22
586.57	3377.10
586.76	10065.77
586.96	24966.79
587.15	35280.36
587.34	41424.26
587.54	43480.42
587.73	37633.47
587.93	27047.52
588.12	22122.16
588.31	18960.09
588.51	16867.07
588.70	15681.30
588.89	14485.28
589.09	12648.26
589.28	11460.43
589.47	9697.13
589.67	8208.26
589.86	6616.99
590.06	5021.62
590.25	3864.52
590.44	3076.05
590.64	2572.25
590.83	2342.88
591.02	2117.60
591.22	1986.53
591.41	1812.45
591.60	1812.45
591.80	1910.75
591.99	1808.36
592.18	1689.57
592.38	1828.84
592.57	1808.36
592.76	1804.26
592.96	1740.77
593.15	1767.40
593.34	1847.27
593.54	1767.40
593.73	1802.21
593.92	1769.44
594.12	1755.11
594.31	1769.44
594.50	1761.25
594.70	1826.79
594.89	1865.70
595.08	1646.57
595.28	1755.11
595.47	1935.33
595.66	1773.54
595.86	1665.00
596.05	1697.77
596.24	1718.25
596.43	1748.97
596.63	1810.40
596.82	1650.66
597.01	1738.73
597.21	1796.07
597.40	1783.78
597.59	1665.00
597.79	1716.20
597.98	1742.82
598.17	1828.84
598.36	1800.16
598.56	1861.60
598.75	1724.39
598.94	1832.93
599.14	1736.68
599.33	1650.66
599.52	1794.02
599.71	1771.49
599.91	1734.63
600.10	1841.12
600.29	1789.92
600.48	1857.51
600.68	1789.92
600.87	1736.68
601.06	1697.77
601.26	1714.15
601.45	1779.68
601.64	1769.44
601.83	1773.54
602.03	1746.92
602.22	1675.24
602.41	1824.74
602.60	1935.33
602.80	1781.73
602.99	1740.77
603.18	1765.35
603.37	1679.33
603.57	1728.49
603.76	1779.68
603.95	1710.05
604.14	1744.87
604.34	1679.33
604.53	1746.92
604.72	1753.06
604.91	1779.68
605.10	1808.36
605.30	1703.91
605.49	1865.70
605.68	1783.78
605.87	1775.59
606.07	1648.61
606.26	1730.53
606.45	1755.11
606.64	1732.58
606.84	1648.61
607.03	1738.73
607.22	1755.11
607.41	1648.61
607.60	1650.66
607.80	1761.25
607.99	1757.16
608.18	1705.96
608.37	1794.02
608.56	1675.24
608.76	1796.07
608.95	1824.74
609.14	1726.44
609.33	1748.97
609.52	1791.97
609.72	1697.77
609.91	1705.96
610.10	1699.81
610.29	1822.69
610.48	1746.92
610.68	1708.01
610.87	1722.34
611.06	1710.05
611.25	1685.48
611.44	1828.84
611.63	1691.62
611.83	1834.98
612.02	1640.42
612.21	1783.78
612.40	1550.31
612.59	1701.86
612.79	1656.81
612.98	1714.15
613.17	1787.88
613.36	1781.73
613.55	1779.68
613.74	1677.29
613.93	1755.11
614.13	1697.77
614.32	1724.39
614.51	1761.25
614.70	1712.10
614.89	1671.14
615.08	1763.30
615.28	2109.41
615.47	1683.43
615.66	1771.49
615.85	1734.63
616.04	1830.88
616.23	1714.15
616.42	1771.49
616.62	1703.91
616.81	1689.57
617.00	1679.33
617.19	1722.34
617.38	1697.77
617.57	1689.57
617.76	1832.93
617.95	1677.29
618.15	1669.09
618.34	1781.73
618.53	1605.61
618.72	1738.73
618.91	1796.07
619.10	1812.45
619.29	1701.86
619.48	1714.15
619.68	1630.18
619.87	1693.67
620.06	1644.52
620.25	1746.92
620.44	1691.62
620.63	1708.01
620.82	1728.49
621.01	1724.39
621.20	1662.95
621.39	1691.62
621.59	1791.97
621.78	1681.38
621.97	1794.02
622.16	1767.40
622.35	1714.15
622.54	1796.07
622.73	1748.97
622.92	1605.61
623.11	1800.16
623.30	1677.29
623.49	1677.29
623.68	1730.53
623.88	1820.64
624.07	1744.87
624.26	1724.39
624.45	1730.53
624.64	1685.48
624.83	1759.21
625.02	1755.11
625.21	1691.62
625.40	1712.10
625.59	1726.44
625.78	1765.35
625.97	1718.25
626.16	1716.20
626.35	1771.49
626.54	1638.38
626.74	1781.73
626.93	1708.01
627.12	1763.30
627.31	1824.74
627.50	1724.39
627.69	1751.01
627.88	1689.57
628.07	1652.71
628.26	1646.57
628.45	1636.33
628.64	1714.15
628.83	1730.53
629.02	1701.86
629.21	1736.68
629.40	1791.97
629.59	1718.25
629.78	1624.04
629.97	1689.57
630.16	1826.79
630.35	1714.15
630.54	1751.01
630.73	1662.95
630.92	1751.01
631.11	1740.77
631.30	1716.20
631.49	1787.88
631.68	1746.92
631.87	1773.54
632.06	1634.28
632.25	1904.61
632.44	1734.63
632.63	1748.97
632.82	1716.20
633.01	1732.58
633.20	1718.25
633.39	1669.09
633.58	1607.66
633.77	1728.49
633.96	1720.29
634.15	1726.44
634.34	1730.53
634.53	1734.63
634.72	1722.34
634.91	1746.92
635.10	1765.35
635.29	1779.68
635.48	1824.74
635.67	1718.25
635.86	1648.61
636.05	1734.63
636.24	1828.84
636.43	1667.05
636.62	1730.53
636.81	1626.09
637.00	1736.68
637.19	1734.63
637.38	1771.49
637.57	1611.75
637.76	1732.58
637.95	1748.97
638.14	1705.96
638.33	1699.81
638.52	1771.49
638.71	1691.62
638.89	1607.66
639.08	1794.02
639.27	1730.53
639.46	1767.40
639.65	1740.77
639.84	1753.06
640.03	1763.30
640.22	1654.76
640.41	1853.41
640.60	1669.09
640.79	1640.42
640.98	1701.86
641.17	1748.97
641.36	1638.38
641.55	1744.87
641.74	1632.23
641.92	1656.81
642.11	1654.76
642.30	1802.21
642.49	1697.77
642.68	1679.33
642.87	1703.91
643.06	1783.78
643.25	1650.66
643.44	1726.44
643.63	1759.21
643.82	1763.30
644.00	1665.00
644.19	1677.29
644.38	1673.19
644.57	1705.96
644.76	1701.86
644.95	1699.81
645.14	1808.36
645.33	1671.14
645.52	1738.73
645.71	1701.86
645.89	1720.29
646.08	1748.97
646.27	1644.52
646.46	1830.88
646.65	1665.00
646.84	1689.57
647.03	1755.11
647.22	1730.53
647.40	1759.21
647.59	1689.57
647.78	1724.39
647.97	1699.81
648.16	1677.29
648.35	1841.12
648.54	1736.68
648.73	1708.01
648.91	1791.97
649.10	1798.12
649.29	1712.10
649.48	1724.39
649.67	1699.81
649.86	1675.24
650.05	1665.00
650.23	1746.92
650.42	1652.71
650.61	1765.35
650.80	1783.78
650.99	1810.40
651.18	1746.92
651.36	1789.92
651.55	1644.52
651.74	1755.11
651.93	1640.42
652.12	1665.00
652.31	1763.30
652.49	1681.38
652.68	1734.63
652.87	1791.97
653.06	1726.44
653.25	1775.59
653.44	1662.95
653.62	1845.22
653.81	1703.91
654.00	1755.11
654.19	1767.40
654.38	1871.84
654.56	1744.87
654.75	1755.11
654.94	1767.40
655.13	1755.11
655.32	1701.86
655.51	1718.25
655.69	1583.08
655.88	1732.58
656.07	1671.14
656.26	1796.07
656.45	1683.43
656.63	1656.81
656.82	1761.25
657.01	1761.25
657.20	1634.28
657.38	1800.16
657.57	1755.11
657.76	1626.09
657.95	1751.01
658.14	1691.62
658.32	1765.35
658.51	1611.75
658.70	1763.30
658.89	1699.81
659.08	1642.47
659.26	1773.54
659.45	1675.24
659.64	1785.83
659.83	1703.91
660.01	1955.81
660.20	1720.29
660.39	1789.92
660.58	1630.18
660.76	1816.55
660.95	1587.18
661.14	1695.72
661.33	1677.29
661.51	1736.68
661.70	1740.77
661.89	1693.67
662.08	1761.25
662.26	1642.47
662.45	1681.38
662.64	1882.08
662.83	1753.06
663.01	1720.29
663.20	1640.42
663.39	1787.88
663.58	1732.58
663.76	1759.21
663.95	1759.21
664.14	1705.96
664.32	1673.19
664.51	1773.54
664.70	1603.56
664.89	1712.10
665.07	1669.09
665.26	1828.84
665.45	1708.01
665.64	1742.82
665.82	1728.49
666.01	1773.54
666.20	1712.10
666.38	1839.08
666.57	1783.78
666.76	2205.66
666.95	4562.87
667.13	10397.54
667.32	15718.16
667.51	18046.70
667.69	19652.31
667.88	18110.19
668.07	12678.97
668.25	9688.94
668.44	8361.86
668.63	7485.33
668.81	6868.89
669.00	6414.24
669.19	5851.05
669.38	5230.51
669.56	4618.17
669.75	4143.04
669.94	3532.75
670.12	2957.27
670.31	2619.35
670.50	2254.81
670.68	2002.91
670.87	1933.28
671.06	1759.21
671.24	1859.56
671.43	1816.55
671.62	1738.73
671.80	1728.49
671.99	1701.86
672.18	1744.87
672.36	1718.25
672.55	1673.19
672.74	1642.47
672.92	1757.16
673.11	1734.63
673.29	1703.91
673.48	1759.21
673.67	1710.05
673.85	1757.16
674.04	1697.77
674.23	1787.88
674.41	1773.54
674.60	1599.46
674.79	1669.09
674.97	1695.72
675.16	1710.05
675.34	1724.39
675.53	1687.53
675.72	1773.54
675.90	1777.64
676.09	1722.34
676.28	1677.29
676.46	1644.52
676.65	1705.96
676.83	1689.57
677.02	1740.77
677.21	1671.14
677.39	1779.68
677.58	1570.79
677.77	1654.76
677.95	1650.66
678.14	1699.81
678.32	1662.95
678.51	1660.90
678.70	1785.83
678.88	1716.20
679.07	1859.56
679.25	1675.24
679.44	1687.53
679.63	1621.99
679.81	1722.34
680.00	1759.21
680.18	1697.77
680.37	1695.72
680.55	1681.38
680.74	1632.23
680.93	1599.46
681.11	1685.48
681.30	1650.66
681.48	1771.49
681.67	1669.09
681.85	1683.43
682.04	1689.57
682.23	1744.87
682.41	1705.96
682.60	1744.87
682.78	1746.92
682.97	1675.24
683.15	1695.72
683.34	1748.97
683.53	1851.36
683.71	1652.71
683.90	1814.50
684.08	1683.43
684.27	1738.73
684.45	1746.92
684.64	1734.63
684.82	1734.63
685.01	1769.44
685.19	1662.95
685.38	1853.41
685.57	1724.39
685.75	1751.01
685.94	1675.24
686.12	1681.38
686.31	1718.25
686.49	1828.84
686.68	1626.09
686.86	1802.21
687.05	1679.33
687.23	1886.18
687.42	1656.81
687.60	1662.95
687.79	1751.01
687.97	1736.68
688.16	1777.64
688.34	1728.49
688.53	1613.80
688.71	1724.39
688.90	1783.78
689.08	1667.05
689.27	1599.46
689.45	1765.35
689.64	1738.73
689.82	1716.20
690.01	1699.81
690.19	1656.81
690.38	1753.06
690.56	1814.50
690.75	1621.99
690.93	1691.62
691.12	1626.09
691.30	1619.94
691.49	1683.43
691.67	1726.44
691.86	1841.12
692.04	1615.85
692.23	1630.18
692.41	1712.10
692.60	1802.21
692.78	1742.82
692.97	1687.53
693.15	1781.73
693.34	1865.70
693.52	1761.25
693.71	1642.47
693.89	1697.77
694.08	1644.52
694.26	1714.15
694.44	1806.31
694.63	1689.57
694.81	1705.96
695.00	1738.73
695.18	1705.96
695.37	1830.88
695.55	1701.86
695.74	1697.77
695.92	1636.33
696.10	1812.45
696.29	1718.25
696.47	1691.62
696.66	1632.23
696.84	1624.04
697.03	1722.34
697.21	1888.23
697.40	2193.37
697.58	1781.73
697.76	1701.86
697.95	1732.58
698.13	1660.90
698.32	1677.29
698.50	1724.39
698.68	1771.49
698.87	1748.97
699.05	1753.06
699.24	1611.75
699.42	1667.05
699.61	1726.44
699.79	1669.09
699.97	1710.05
700.16	1740.77
700.34	1640.42
700.53	1781.73
700.71	1796.07
700.89	1708.01
701.08	1679.33
701.26	1630.18
701.45	2039.78
701.63	1697.77
701.81	1757.16
702.00	1642.47
702.18	1656.81
702.37	1636.33
702.55	1695.72
702.73	1683.43
702.92	1638.38
703.10	1671.14
703.28	1761.25
703.47	1619.94
703.65	1775.59
703.84	1751.01
704.02	1660.90
704.20	1769.44
704.39	1701.86
704.57	1685.48
704.75	1673.19
704.94	1775.59
705.12	1740.77
705.30	1771.49
705.49	2289.63
705.67	4351.93
705.86	9742.19
706.04	12963.64
706.22	14952.22
706.41	15572.75
706.59	14239.53
706.77	9785.19
706.96	7595.92
707.14	6784.92
707.32	6178.72
707.51	5668.78
707.69	5097.39
707.87	4345.79
708.06	3469.26
708.24	3033.04
708.42	2459.61
708.61	2203.61
708.79	1863.65
708.97	1855.46
709.16	1779.68
709.34	1722.34
709.52	1697.77
709.71	1769.44
709.89	1746.92
710.07	1650.66
710.26	1665.00
710.44	1714.15
710.62	1746.92
710.80	1718.25
710.99	1798.12
711.17	1751.01
711.35	1665.00
711.54	1665.00
711.72	1898.47
711.90	1779.68
712.09	1730.53
712.27	1642.47
712.45	1755.11
712.63	1730.53
712.82	1720.29
713.00	1716.20
713.18	1746.92
713.37	1712.10
713.55	1757.16
713.73	1751.01
713.91	1728.49
714.10	1703.91
714.28	1626.09
714.46	1712.10
714.65	1722.34
714.83	1740.77
715.01	1681.38
715.19	1669.09
715.38	1650.66
715.56	1648.61
715.74	1701.86
715.92	1667.05
716.11	1769.44
716.29	1581.03
716.47	1656.81
716.65	1624.04
716.84	1669.09
717.02	1724.39
717.20	1607.66
717.38	1708.01
717.57	1724.39
717.75	1730.53
717.93	1609.70
718.11	1701.86
718.30	1591.27
718.48	1755.11
718.66	1783.78
718.84	1820.64
719.03	1677.29
719.21	1646.57
719.39	1818.60
719.57	1761.25
719.75	1710.05
719.94	1673.19
720.12	1673.19
720.30	1746.92
720.48	1730.53
720.67	1693.67
720.85	1675.24
721.03	1679.33
721.21	1624.04
721.39	1775.59
721.58	1746.92
721.76	1734.63
721.94	1611.75
722.12	1720.29
722.30	1757.16
722.49	1689.57
722.67	1736.68
722.85	1732.58
723.03	1673.19
723.21	1742.82
723.40	1687.53
723.58	1798.12
723.76	1708.01
723.94	1736.68
724.12	1673.19
724.30	1818.60
724.49	1765.35
724.67	1636.33
724.85	1710.05
725.03	1615.85
725.21	1722.34
725.40	1738.73
725.58	1662.95
725.76	1837.03
725.94	1689.57
726.12	1640.42
726.30	1783.78
726.49	1746.92
726.67	1677.29
726.85	1751.01
727.03	1789.92
727.21	2160.61
727.39	2979.79
727.57	3819.46
727.76	4380.61
727.94	4493.24
728.12	4571.07
728.30	3690.44
728.48	2975.70
728.66	2797.53
728.84	2508.76
729.03	2299.87
729.21	2183.13
729.39	2056.16
729.57	1824.74
729.75	1828.84
729.93	1771.49
730.11	1683.43
730.30	1626.09
730.48	1755.11
730.66	1787.88
730.84	1705.96
731.02	1716.20
731.20	1609.70
731.38	1757.16
731.56	1724.39
731.74	1603.56
731.93	1710.05
732.11	1705.96
732.29	1705.96
732.47	1675.24
732.65	1660.90
732.83	1783.78
733.01	1748.97
733.19	1689.57
733.37	1748.97
733.56	1675.24
733.74	1619.94
733.92	1767.40
734.10	1761.25
734.28	1738.73
734.46	1607.66
734.64	1624.04
734.82	1652.71
735.00	1677.29
735.18	1656.81
735.36	1730.53
735.54	1781.73
735.73	1765.35
735.91	1761.25
736.09	1722.34
736.27	1761.25
736.45	1728.49
736.63	1568.74
736.81	1628.14
736.99	1732.58
737.17	1816.55
737.35	1683.43
737.53	1734.63
737.71	1722.34
737.89	1726.44
738.07	1572.84
738.25	1660.90
738.43	1626.09
738.61	1648.61
738.80	1681.38
738.98	1669.09
739.16	1660.90
739.34	1652.71
739.52	1695.72
739.70	1667.05
739.88	1714.15
740.06	1744.87
740.24	1581.03
740.42	1757.16
740.60	1617.90
740.78	1652.71
740.96	1605.61
741.14	1658.85
741.32	1718.25
741.50	1593.32
741.68	1771.49
741.86	1730.53
742.04	1628.14
742.22	1689.57
742.40	1687.53
742.58	1730.53
742.76	1634.28
742.94	1732.58
743.12	1593.32
743.30	1689.57
743.48	1685.48
743.66	1689.57
743.84	1753.06
744.02	1581.03
744.20	1691.62
744.38	1603.56
744.56	1650.66
744.74	1787.88
744.92	1689.57
745.10	1787.88
745.28	1751.01
745.46	1769.44
745.64	1730.53
745.82	1740.77
746.00	1695.72
746.18	1746.92
746.36	1597.42
746.54	1720.29
746.72	1687.53
746.90	1638.38
747.08	1748.97
747.26	1714.15
747.44	1763.30
747.62	1648.61
747.80	1671.14
747.98	1732.58
748.15	1699.81
748.33	1800.16
748.51	1669.09
748.69	1695.72
748.87	1615.85
749.05	1662.95
749.23	1712.10
749.41	1726.44
749.59	1759.21
749.77	1689.57
749.95	1742.82
750.13	1617.90
750.31	1744.87
750.49	1708.01
750.67	1734.63
750.85	1810.40
751.03	1591.27
751.20	1810.40
751.38	1677.29
751.56	1714.15
751.74	1693.67
751.92	1687.53
752.10	1640.42
752.28	1755.11
752.46	1714.15
752.64	1675.24
752.82	1665.00
753.00	1722.34
753.18	1634.28
753.35	1681.38
753.53	1673.19
753.71	1683.43
753.89	1687.53
754.07	1667.05
754.25	1849.32
754.43	1710.05
754.61	1636.33
754.79	1732.58
754.97	1667.05
755.14	1783.78
755.32	1581.03
755.50	1703.91
755.68	1738.73
755.86	1652.71
756.04	1677.29
756.22	1595.37
756.40	1757.16
756.57	1720.29
756.75	1679.33
756.93	1767.40
757.11	1691.62
757.29	1734.63
757.47	1593.32
757.65	1552.36
757.82	1609.70
758.00	1687.53
758.18	1665.00
758.36	1681.38
758.54	1759.21
758.72	1632.23
758.90	1761.25
759.07	1714.15
759.25	1693.67
759.43	1736.68
759.61	1609.70
759.79	2191.33
759.97	1771.49
760.15	1701.86
760.32	1708.01
760.50	1609.70
760.68	1779.68
760.86	1611.75
761.04	1761.25
761.22	1740.77
761.39	1734.63
761.57	1730.53
761.75	1667.05
761.93	1705.96
762.11	1634.28
762.28	1699.81
762.46	1665.00
762.64	1728.49
762.82	1609.70
763.00	1714.15
763.18	1724.39
763.35	1617.90
763.53	1658.85
763.71	1730.53
763.89	1689.57
764.07	1695.72
764.24	1722.34
764.42	1716.20
764.60	1681.38
764.78	1701.86
764.96	1710.05
765.13	1701.86
765.31	1705.96
765.49	1742.82
765.67	1656.81
765.84	1574.89
766.02	1642.47
766.20	1597.42
766.38	1687.53
766.56	1767.40
766.73	1677.29
766.91	1693.67
767.09	1757.16
767.27	1755.11
767.44	1673.19
767.62	1759.21
767.80	1716.20
767.98	1689.57
768.15	1640.42
768.33	1679.33
768.51	1732.58
768.69	1761.25
768.87	1787.88
769.04	1667.05
769.22	1822.69
769.40	1746.92
769.58	1892.32
769.75	1753.06
769.93	1751.01
770.11	1705.96
770.28	1646.57
770.46	1726.44
770.64	1773.54
770.82	1609.70
770.99	1732.58
771.17	1785.83
771.35	1718.25
771.53	1642.47
771.70	1699.81
771.88	1783.78
772.06	1779.68
772.23	1615.85
772.41	1697.77
772.59	1632.23
772.77	1658.85
772.94	1716.20
773.12	1722.34
773.30	1677.29
773.47	1685.48
773.65	1761.25
773.83	1718.25
774.01	1701.86
774.18	1568.74
774.36	1714.15
774.54	1634.28
774.71	1753.06
774.89	1660.90
775.07	1593.32
775.24	1662.95
775.42	1691.62
775.60	1798.12
775.78	1644.52
775.95	1591.27
776.13	1607.66
776.31	1603.56
776.48	1775.59
776.66	1736.68
776.84	1636.33
777.01	1669.09
777.19	1673.19
777.37	1710.05
777.54	1751.01
777.72	1751.01
777.90	1687.53
778.07	1740.77
778.25	1841.12
778.43	1742.82
778.60	1689.57
778.78	1787.88
778.96	1787.88
779.13	1632.23
779.31	1705.96
779.49	1648.61
779.66	1697.77
779.84	1671.14
780.01	1656.81
780.19	1689.57
780.37	1742.82
780.54	1769.44
780.72	1538.02
780.90	1691.62
781.07	1708.01
781.25	1656.81
781.43	1740.77
781.60	1693.67
781.78	1763.30
781.95	1746.92
782.13	1607.66
782.31	1691.62
782.48	1621.99
782.66	1837.03
782.83	1826.79
783.01	1738.73
783.19	1877.99
783.36	1708.01
783.54	1722.34
783.72	1769.44
783.89	1611.75
784.07	1705.96
784.24	1656.81
784.42	1828.84
784.60	1751.01
784.77	1759.21
784.95	1628.14
785.12	1685.48
785.30	1724.39
785.47	1628.14
785.65	1755.11
785.83	1701.86
786.00	1677.29
786.18	1736.68
786.35	1619.94
786.53	1703.91
786.71	1687.53
786.88	1755.11
787.06	1660.90
787.23	1773.54
787.41	1660.90
787.58	1783.78
787.76	1689.57
787.94	1675.24
788.11	1691.62
788.29	1632.23
788.46	1630.18
788.64	1648.61
788.81	1646.57
788.99	1720.29
789.16	1619.94
789.34	1685.48
789.52	1644.52
789.69	1662.95
789.87	1611.75
790.04	1675.24
790.22	1665.00
790.39	1851.36
790.57	1681.38
790.74	1619.94
790.92	1710.05
791.09	1605.61
791.27	1746.92
791.44	1775.59
791.62	1714.15
791.79	1839.08
791.97	1757.16
792.15	1908.71
792.32	1654.76
792.50	1714.15
792.67	1810.40
792.85	1697.77
793.02	1701.86
793.20	1724.39
793.37	1679.33
793.55	1710.05
793.72	1675.24
793.90	1716.20
794.07	1636.33
794.25	1667.05
794.42	1665.00
794.60	1693.67
794.77	1726.44
794.95	1726.44
795.12	1650.66
795.30	1621.99
795.47	1662.95
795.65	1896.42
795.82	1695.72
796.00	1658.85
796.17	1634.28
796.34	1714.15
796.52	1724.39
796.69	1759.21
796.87	1701.86
797.04	1695.72
797.22	1755.11
797.39	1689.57
797.57	1789.92
797.74	1779.68
797.92	1730.53
798.09	1714.15
798.27	1767.40
798.44	1763.30
798.62	1703.91
798.79	1714.15
798.96	1769.44
799.14	1662.95
799.31	1814.50
799.49	1669.09
799.66	1658.85
799.84	1691.62
800.01	1705.96
800.19	1671.14
800.36	1605.61
800.53	1730.53
800.71	1748.97
800.88	1740.77
801.06	1656.81
801.23	1705.96
801.41	1695.72
801.58	1652.71
801.75	1615.85
801.93	1763.30
802.10	1740.77
802.28	1689.57
802.45	1675.24
802.63	1808.36
802.80	1746.92
802.97	1660.90
803.15	1703.91
803.32	1640.42
803.50	1669.09
803.67	1658.85
803.84	1658.85
804.02	1687.53
804.19	1753.06
804.37	1591.27
804.54	1638.38
804.71	1667.05
804.89	1714.15
805.06	1673.19
805.24	1597.42
805.41	1685.48
805.58	1685.48
805.76	1871.84
805.93	1705.96
806.10	1781.73
806.28	1763.30
806.45	1677.29
806.63	1718.25
806.80	1673.19
806.97	1740.77
807.15	1734.63
807.32	1681.38
807.49	1628.14
807.67	1732.58
807.84	1783.78
808.01	1626.09
808.19	1777.64
808.36	1814.50
808.54	1685.48
808.71	1621.99
808.88	1724.39
809.06	1738.73
809.23	1798.12
809.40	1624.04
809.58	1736.68
809.75	1677.29
809.92	1665.00
810.10	1841.12
810.27	1705.96
810.44	1650.66
810.62	1703.91
810.79	1660.90
810.96	1634.28
811.14	1630.18
811.31	1701.86
811.48	1798.12
811.66	1699.81
811.83	1732.58
812.00	1708.01
812.18	1734.63
812.35	1767.40
812.52	1566.70
812.69	1652.71
812.87	1730.53
813.04	1728.49
813.21	1675.24
813.39	1683.43
813.56	1624.04
813.73	1693.67
813.91	1630.18
814.08	1654.76
814.25	1693.67
814.42	1640.42
814.60	1589.22
814.77	1734.63
814.94	1814.50
815.12	1673.19
815.29	1841.12
815.46	1673.19
815.63	1771.49
815.81	1675.24
815.98	1673.19
816.15	1708.01
816.33	1732.58
816.50	1710.05
816.67	1691.62
816.84	1693.67
817.02	1626.09
817.19	1724.39
817.36	1734.63
817.53	1714.15
817.71	1593.32
817.88	1687.53
818.05	1695.72
818.22	1710.05
818.40	1837.03
818.57	1695.72
818.74	1791.97
818.91	1652.71
819.09	1671.14
819.26	1806.31
819.43	1662.95
819.60	1607.66
819.78	1751.01
819.95	1740.77
820.12	1626.09
820.29	1732.58
820.47	1785.83
820.64	1652.71
820.81	1636.33
820.98	1617.90
821.15	1685.48
821.33	1796.07
821.50	1693.67
821.67	1763.30
821.84	1656.81
822.02	1703.91
822.19	1665.00
822.36	1656.81
822.53	1679.33
822.70	1640.42
822.88	1685.48
823.05	1783.78
823.22	1726.44
823.39	1681.38
823.56	1660.90
823.74	1783.78
823.91	1693.67
824.08	1613.80
824.25	1603.56
824.42	1761.25
824.60	1667.05
824.77	1748.97
824.94	1753.06
825.11	1816.55
825.28	1679.33
825.45	1652.71
825.63	1701.86
825.80	1652.71
825.97	1781.73
826.14	1693.67
826.31	1595.37
826.48	1748.97
826.66	1724.39
826.83	1665.00
827.00	1640.42
827.17	1662.95
827.34	1714.15
827.51	1642.47
827.69	1642.47
827.86	1570.79
828.03	1636.33
828.20	1732.58
828.37	1675.24
828.54	1757.16
828.71	1683.43
828.89	1693.67
829.06	1660.90
829.23	1763.30
829.40	1558.50
829.57	1656.81
829.74	1751.01
829.91	1718.25
830.09	1648.61
830.26	1644.52
830.43	1722.34
830.60	1734.63
830.77	1701.86
830.94	1718.25
831.11	1703.91
831.28	1699.81
831.46	1843.17
831.63	1689.57
831.80	1681.38
831.97	1621.99
832.14	1648.61
832.31	1738.73
832.48	1744.87
832.65	1814.50
832.82	1773.54
832.99	1716.20
833.17	1617.90
833.34	1816.55
833.51	1726.44
833.68	1638.38
833.85	1761.25
834.02	1634.28
834.19	1595.37
834.36	1648.61
834.53	1710.05
834.70	1742.82
834.87	1800.16
835.04	1746.92
835.22	1689.57
835.39	1742.82
835.56	1593.32
835.73	1701.86
835.90	1703.91
836.07	1624.04
836.24	1710.05
836.41	1607.66
836.58	1665.00
836.75	1775.59
836.92	1810.40
837.09	1617.90
837.26	1783.78
837.43	1720.29
837.60	1740.77
837.77	1628.14
837.94	1683.43
838.12	1746.92
838.29	1714.15
838.46	1624.04
838.63	1662.95
838.80	1744.87
838.97	1740.77
839.14	1673.19
839.31	1751.01
839.48	1748.97
839.65	1736.68
839.82	1708.01
839.99	1765.35
840.16	1648.61
840.33	1660.90
840.50	1695.72
840.67	1646.57
840.84	1615.85
841.01	1742.82
841.18	1701.86
841.35	1656.81
841.52	1746.92
841.69	1855.46
841.86	1716.20
842.03	1708.01
842.20	1740.77
842.37	1652.71
842.54	1720.29
842.71	1689.57
842.88	1632.23
843.05	1742.82
843.22	1714.15
843.39	1765.35
843.56	1701.86
843.73	1716.20
843.90	1818.60
844.07	1679.33
844.24	1808.36
844.41	1804.26
844.58	1759.21
844.75	1728.49
844.92	1742.82
845.09	1736.68
845.26	1656.81
845.43	1732.58
845.60	1632.23
845.77	1744.87
845.94	1720.29
846.10	1710.05
846.27	1601.51
846.44	1710.05
846.61	1658.85
846.78	1759.21
846.95	1781.73
847.12	1746.92
847.29	1736.68
847.46	1660.90
847.63	1755.11
847.80	1646.57
847.97	1701.86
848.14	1849.32
848.31	1722.34
848.48	1685.48
848.65	1781.73
848.82	1638.38
848.98	1910.75
849.15	1775.59
849.32	1740.77
849.49	1718.25
849.66	1683.43
849.83	1732.58
850.00	1628.14
850.17	1697.77
850.34	1761.25
850.51	1697.77
850.68	1644.52
850.85	1843.17
851.01	1607.66
851.18	1726.44
851.35	1671.14
851.52	1685.48
851.69	1834.98
851.86	1570.79
852.03	1679.33
852.20	1738.73
852.37	1683.43
852.53	1648.61
852.70	1669.09
852.87	1687.53
853.04	1755.11
853.21	1669.09
853.38	1771.49
853.55	1789.92
853.72	1763.30
853.89	1667.05
854.05	1656.81
854.22	1675.24
854.39	1728.49
854.56	1671.14
854.73	1718.25
854.90	1710.05
855.07	1660.90
855.23	1599.46
855.40	1624.04
855.57	1650.66
855.74	1542.12
855.91	1900.52
856.08	1722.34
856.25	1630.18
856.41	1679.33
856.58	1687.53
856.75	1777.64
856.92	1667.05
857.09	1708.01
857.26	1687.53
857.42	1708.01
857.59	1722.34
857.76	1681.38
857.93	1665.00
858.10	1767.40
858.27	1648.61
858.43	1658.85
858.60	1640.42
858.77	1603.56
858.94	1665.00
859.11	1781.73
859.27	1673.19
859.44	1726.44
859.61	1796.07
859.78	1712.10
859.95	1665.00
860.12	1650.66
860.28	1783.78
860.45	1787.88
860.62	1671.14
860.79	1710.05
860.95	1636.33
861.12	1619.94
861.29	1644.52
861.46	1718.25
861.63	1603.56
861.79	1699.81
861.96	1716.20
862.13	1634.28
862.30	1849.32
862.47	1626.09
862.63	1652.71
862.80	1681.38
862.97	1761.25
863.14	1673.19
863.30	1734.63
863.47	1699.81
863.64	1763.30
863.81	1681.38
863.97	1703.91
864.14	1705.96
864.31	1740.77
864.48	1714.15
864.65	1650.66
864.81	1755.11
864.98	1718.25
865.15	1691.62
865.32	1642.47
865.48	1775.59
865.65	1796.07
865.82	1632.23
865.98	1820.64
866.15	1775.59
866.32	1736.68
866.49	1595.37
866.65	1716.20
866.82	1740.77
866.99	1685.48
867.16	1656.81
867.32	1605.61
867.49	1660.90
867.66	1642.47
867.83	1640.42
867.99	1689.57
868.16	1609.70
868.33	1656.81
868.49	1712.10
868.66	1679.33
868.83	1640.42
868.99	1720.29
869.16	1685.48
869.33	1832.93
869.50	1755.11
869.66	1732.58
869.83	1687.53
870.00	1642.47
870.16	1789.92
870.33	1726.44
870.50	1789.92
870.66	1703.91
870.83	1794.02
871.00	1693.67
871.17	1697.77
871.33	1683.43
871.50	1667.05
871.67	1751.01
871.83	1544.17
872.00	1757.16
872.17	1656.81
872.33	1759.21
872.50	1808.36
872.67	1671.14
872.83	1671.14
873.00	1705.96
873.17	1677.29
873.33	1695.72
873.50	1703.91
873.67	1738.73
873.83	1728.49
874.00	1695.72
874.16	1773.54
874.33	1589.22
874.50	1681.38
874.66	1763.30
874.83	1757.16
875.00	1767.40
875.16	1781.73
875.33	1693.67
875.50	1591.27
875.66	1755.11
875.83	1763.30
875.99	1775.59
876.16	1687.53
876.33	1679.33
876.49	1636.33
876.66	1673.19
876.83	1724.39
876.99	1654.76
877.16	1761.25
877.32	1650.66
877.49	1601.51
877.66	1669.09
877.82	1783.78
877.99	1662.95
878.15	1746.92
878.32	1738.73
878.49	1714.15
878.65	1597.42
878.82	1769.44
878.98	1705.96
879.15	1755.11
879.32	1759.21
879.48	1726.44
879.65	1742.82
879.81	1697.77
879.98	1689.57
880.15	1673.19
880.31	1746.92
880.48	1591.27
880.64	1746.92
880.81	1708.01
880.97	1787.88
881.14	1802.21
881.31	1681.38
881.47	1847.27
881.64	1681.38
881.80	1648.61
881.97	1710.05
882.13	1720.29
882.30	1685.48
882.47	1632.23
882.63	1636.33
882.80	1626.09
882.96	1730.53
883.13	1701.86
883.29	1734.63
883.46	1742.82
883.62	1806.31
883.79	1660.90
883.95	1748.97
884.12	1681.38
884.29	1710.05
884.45	1724.39
884.62	1738.73
884.78	1648.61
884.95	1761.25
885.11	1681.38
885.28	1724.39
885.44	1681.38
885.61	1742.82
885.77	1769.44
885.94	1699.81
886.10	1671.14
886.27	1675.24
886.43	1757.16
886.60	1771.49
886.76	1712.10
886.93	1626.09
887.09	1689.57
887.26	1566.70
887.42	1718.25
887.59	1748.97
887.75	1757.16
887.92	1736.68
888.08	1777.64
888.25	1804.26
888.41	1779.68
888.58	1757.16
888.74	1667.05
888.91	1613.80
>>>>>End Processed Spectral Data<<<<<
