SpectraSuite Data File
++++++++++++++++++++++++++++++++++++
Date: Mon Jun 06 14:10:57 CEST 2016
User: root
Dark Spectrum Present: No
Reference Spectrum Present: No
Number of Sampled Component Spectra: 1
Spectrometers: USB4C02835
Integration Time (usec): 100000 (USB4C02835)
Spectra Averaged: 1 (USB4C02835)
Boxcar Smoothing: 0 (USB4C02835)
Correct for Electrical Dark: No (USB4C02835)
Strobe/Lamp Enabled: No (USB4C02835)
Correct for Detector Non-linearity: No (USB4C02835)
Correct for Stray Light: No (USB4C02835)
Number of Pixels in Processed Spectrum: 3648
>>>>>Begin Processed Spectral Data<<<<<
177.47	1464.30
177.69	1464.30
177.91	1464.30
178.13	1433.58
178.36	1445.87
178.58	1656.81
178.80	1722.34
179.02	1607.66
179.24	1665.00
179.46	1699.81
179.68	1759.21
179.90	1681.38
180.13	1669.09
180.35	1724.39
180.57	1746.92
180.79	1824.74
181.01	1687.53
181.23	1785.83
181.45	1728.49
181.67	1708.01
181.90	1744.87
182.12	1632.23
182.34	1640.42
182.56	1748.97
182.78	1638.38
183.00	1705.96
183.22	1685.48
183.44	1601.51
183.66	1927.14
183.89	1773.54
184.11	1724.39
184.33	1708.01
184.55	1798.12
184.77	1665.00
184.99	1746.92
185.21	1685.48
185.43	1800.16
185.65	1677.29
185.87	1683.43
186.10	1849.32
186.32	1720.29
186.54	1746.92
186.76	1722.34
186.98	1775.59
187.20	1714.15
187.42	1703.91
187.64	1665.00
187.86	1746.92
188.08	1773.54
188.30	1728.49
188.52	1710.05
188.75	1771.49
188.97	1818.60
189.19	1757.16
189.41	1671.14
189.63	1703.91
189.85	1693.67
190.07	1628.14
190.29	1701.86
190.51	1718.25
190.73	1642.47
190.95	1814.50
191.17	1691.62
191.39	1648.61
191.61	1669.09
191.84	1685.48
192.06	1718.25
192.28	1640.42
192.50	1906.66
192.72	1753.06
192.94	1677.29
193.16	1773.54
193.38	1708.01
193.60	1665.00
193.82	1615.85
194.04	1746.92
194.26	1656.81
194.48	1761.25
194.70	1669.09
194.92	1638.38
195.14	1806.31
195.36	1732.58
195.58	1726.44
195.80	1710.05
196.02	1679.33
196.24	1667.05
196.46	1730.53
196.69	1691.62
196.91	1771.49
197.13	1632.23
197.35	1734.63
197.57	1761.25
197.79	1791.97
198.01	1734.63
198.23	1726.44
198.45	1691.62
198.67	1607.66
198.89	1763.30
199.11	1718.25
199.33	1681.38
199.55	1718.25
199.77	1671.14
199.99	1736.68
200.21	1611.75
200.43	1746.92
200.65	1613.80
200.87	1591.27
201.09	1755.11
201.31	1665.00
201.53	1716.20
201.75	1730.53
201.97	1738.73
202.19	1759.21
202.41	1734.63
202.63	1849.32
202.85	1767.40
203.07	1744.87
203.29	1656.81
203.51	1624.04
203.73	1619.94
203.95	1902.56
204.17	1722.34
204.39	1751.01
204.61	1724.39
204.83	1673.19
205.05	1677.29
205.27	1791.97
205.49	1830.88
205.71	1681.38
205.93	1642.47
206.15	1667.05
206.37	1654.76
206.59	1697.77
206.81	1632.23
207.03	1609.70
207.25	1675.24
207.47	1728.49
207.69	1705.96
207.91	1812.45
208.13	1761.25
208.34	1767.40
208.56	1671.14
208.78	1724.39
209.00	1732.58
209.22	1703.91
209.44	1708.01
209.66	1662.95
209.88	1697.77
210.10	1640.42
210.32	1662.95
210.54	1710.05
210.76	1701.86
210.98	1759.21
211.20	1576.94
211.42	1708.01
211.64	1746.92
211.86	1697.77
212.08	1763.30
212.30	1681.38
212.52	1722.34
212.74	1689.57
212.96	1652.71
213.17	1767.40
213.39	1824.74
213.61	1765.35
213.83	1730.53
214.05	1609.70
214.27	1699.81
214.49	1628.14
214.71	1626.09
214.93	1779.68
215.15	1755.11
215.37	1814.50
215.59	1634.28
215.81	1732.58
216.03	1767.40
216.24	1701.86
216.46	1609.70
216.68	1724.39
216.90	1730.53
217.12	1722.34
217.34	1794.02
217.56	1708.01
217.78	1763.30
218.00	1621.99
218.22	1675.24
218.44	1769.44
218.66	1720.29
218.87	1855.46
219.09	1679.33
219.31	1722.34
219.53	1710.05
219.75	1687.53
219.97	1662.95
220.19	1730.53
220.41	1665.00
220.63	1789.92
220.85	1708.01
221.06	1738.73
221.28	1710.05
221.50	1740.77
221.72	1751.01
221.94	1695.72
222.16	1697.77
222.38	1804.26
222.60	1718.25
222.82	1705.96
223.03	1681.38
223.25	1642.47
223.47	1742.82
223.69	1800.16
223.91	1722.34
224.13	1665.00
224.35	1746.92
224.57	1740.77
224.78	1812.45
225.00	1720.29
225.22	1611.75
225.44	1648.61
225.66	1726.44
225.88	1683.43
226.10	1785.83
226.32	1730.53
226.53	1744.87
226.75	1671.14
226.97	1679.33
227.19	1677.29
227.41	1708.01
227.63	1638.38
227.85	1609.70
228.06	1765.35
228.28	1685.48
228.50	1697.77
228.72	1671.14
228.94	1607.66
229.16	1632.23
229.37	1599.46
229.59	1652.71
229.81	1775.59
230.03	1693.67
230.25	1613.80
230.47	1630.18
230.69	1667.05
230.90	1746.92
231.12	1662.95
231.34	1675.24
231.56	1806.31
231.78	1701.86
232.00	1767.40
232.21	1626.09
232.43	1632.23
232.65	1576.94
232.87	1705.96
233.09	1671.14
233.30	1695.72
233.52	1724.39
233.74	1677.29
233.96	1699.81
234.18	1695.72
234.40	1654.76
234.61	1859.56
234.83	1669.09
235.05	1636.33
235.27	1855.46
235.49	1771.49
235.70	1654.76
235.92	1775.59
236.14	1697.77
236.36	1806.31
236.58	1574.89
236.79	1736.68
237.01	1671.14
237.23	1621.99
237.45	1818.60
237.67	1679.33
237.88	1695.72
238.10	1847.27
238.32	1640.42
238.54	1632.23
238.76	1716.20
238.97	1654.76
239.19	1710.05
239.41	1718.25
239.63	1734.63
239.85	1652.71
240.06	1693.67
240.28	1619.94
240.50	1751.01
240.72	1722.34
240.93	1660.90
241.15	1773.54
241.37	1689.57
241.59	1804.26
241.81	1679.33
242.02	1654.76
242.24	1783.78
242.46	1687.53
242.68	1646.57
242.89	1716.20
243.11	1767.40
243.33	1726.44
243.55	1689.57
243.76	1791.97
243.98	1669.09
244.20	1728.49
244.42	1718.25
244.64	1652.71
244.85	1654.76
245.07	1609.70
245.29	1761.25
245.51	1632.23
245.72	1693.67
245.94	1771.49
246.16	1679.33
246.38	1644.52
246.59	1630.18
246.81	1595.37
247.03	1708.01
247.24	1628.14
247.46	1658.85
247.68	1738.73
247.90	1761.25
248.11	1683.43
248.33	1785.83
248.55	1722.34
248.77	1718.25
248.98	1748.97
249.20	1722.34
249.42	1667.05
249.64	1648.61
249.85	1705.96
250.07	1574.89
250.29	1789.92
250.50	1718.25
250.72	1613.80
250.94	1738.73
251.16	1888.23
251.37	1712.10
251.59	1771.49
251.81	1748.97
252.02	1740.77
252.24	1595.37
252.46	1804.26
252.68	1675.24
252.89	1667.05
253.11	1503.21
253.33	1812.45
253.54	1777.64
253.76	1544.17
253.98	1681.38
254.20	1695.72
254.41	1615.85
254.63	1734.63
254.85	1705.96
255.06	1681.38
255.28	1753.06
255.50	1671.14
255.71	1597.42
255.93	1574.89
256.15	1628.14
256.36	1736.68
256.58	1679.33
256.80	1621.99
257.02	1646.57
257.23	1677.29
257.45	1701.86
257.67	1738.73
257.88	1650.66
258.10	1675.24
258.32	1724.39
258.53	1736.68
258.75	1767.40
258.97	1617.90
259.18	1667.05
259.40	1787.88
259.62	1783.78
259.83	1777.64
260.05	1767.40
260.27	1980.39
260.48	1718.25
260.70	1648.61
260.92	1714.15
261.13	1761.25
261.35	1710.05
261.57	1730.53
261.78	1587.18
262.00	1654.76
262.22	1767.40
262.43	1654.76
262.65	1652.71
262.86	1755.11
263.08	1843.17
263.30	1738.73
263.51	1556.46
263.73	1630.18
263.95	1798.12
264.16	1699.81
264.38	1732.58
264.60	1753.06
264.81	1632.23
265.03	1806.31
265.25	1744.87
265.46	1722.34
265.68	1748.97
265.89	1744.87
266.11	1619.94
266.33	1755.11
266.54	1779.68
266.76	1701.86
266.98	1771.49
267.19	1746.92
267.41	1732.58
267.62	1699.81
267.84	1642.47
268.06	1716.20
268.27	1701.86
268.49	1773.54
268.70	1753.06
268.92	1755.11
269.14	1644.52
269.35	1613.80
269.57	1662.95
269.79	1759.21
270.00	1714.15
270.22	1779.68
270.43	1611.75
270.65	1644.52
270.87	1722.34
271.08	1777.64
271.30	1722.34
271.51	1732.58
271.73	1716.20
271.95	1744.87
272.16	1701.86
272.38	1701.86
272.59	1687.53
272.81	1716.20
273.02	1736.68
273.24	1683.43
273.46	1710.05
273.67	1634.28
273.89	1638.38
274.10	1675.24
274.32	1669.09
274.54	1693.67
274.75	1689.57
274.97	1617.90
275.18	1773.54
275.40	1722.34
275.61	1720.29
275.83	1724.39
276.05	1671.14
276.26	1726.44
276.48	1804.26
276.69	1714.15
276.91	1617.90
277.12	1800.16
277.34	1834.98
277.55	1708.01
277.77	1775.59
277.99	1697.77
278.20	1638.38
278.42	1630.18
278.63	1654.76
278.85	1714.15
279.06	1605.61
279.28	1621.99
279.49	1771.49
279.71	1728.49
279.93	1642.47
280.14	1665.00
280.36	1626.09
280.57	1718.25
280.79	1718.25
281.00	1591.27
281.22	1685.48
281.43	1765.35
281.65	1589.22
281.86	1632.23
282.08	1718.25
282.29	1812.45
282.51	1593.32
282.73	1619.94
282.94	1660.90
283.16	1763.30
283.37	1810.40
283.59	1738.73
283.80	1730.53
284.02	1746.92
284.23	1599.46
284.45	1675.24
284.66	1673.19
284.88	1617.90
285.09	1757.16
285.31	1779.68
285.52	1802.21
285.74	1603.56
285.95	1785.83
286.17	1720.29
286.38	1744.87
286.60	1726.44
286.81	1693.67
287.03	1714.15
287.24	1697.77
287.46	1769.44
287.67	1701.86
287.89	1837.03
288.10	1765.35
288.32	1808.36
288.53	1789.92
288.75	1693.67
288.96	1726.44
289.18	1619.94
289.39	1685.48
289.61	1744.87
289.82	1796.07
290.04	1781.73
290.25	1699.81
290.47	1716.20
290.68	1650.66
290.90	1791.97
291.11	1603.56
291.33	1763.30
291.54	1599.46
291.76	1705.96
291.97	1806.31
292.18	1722.34
292.40	1669.09
292.61	1603.56
292.83	1863.65
293.04	1736.68
293.26	1726.44
293.47	1722.34
293.69	1703.91
293.90	1751.01
294.12	1798.12
294.33	1710.05
294.55	1675.24
294.76	1718.25
294.97	1734.63
295.19	1806.31
295.40	1671.14
295.62	1650.66
295.83	1814.50
296.05	1640.42
296.26	1761.25
296.48	1650.66
296.69	1691.62
296.90	1708.01
297.12	1810.40
297.33	1728.49
297.55	1699.81
297.76	1720.29
297.98	1761.25
298.19	1722.34
298.41	1695.72
298.62	1566.70
298.83	1748.97
299.05	1638.38
299.26	1771.49
299.48	1691.62
299.69	1703.91
299.90	1755.11
300.12	1744.87
300.33	1738.73
300.55	1671.14
300.76	1679.33
300.98	1652.71
301.19	1771.49
301.40	1730.53
301.62	1681.38
301.83	1783.78
302.05	1611.75
302.26	1712.10
302.47	1738.73
302.69	1665.00
302.90	1714.15
303.12	1667.05
303.33	1779.68
303.54	1820.64
303.76	1685.48
303.97	1699.81
304.19	1804.26
304.40	1595.37
304.61	1806.31
304.83	1753.06
305.04	1796.07
305.26	1763.30
305.47	1671.14
305.68	1738.73
305.90	1626.09
306.11	1824.74
306.33	1656.81
306.54	1626.09
306.75	1693.67
306.97	1632.23
307.18	1648.61
307.39	1677.29
307.61	1703.91
307.82	1669.09
308.04	1701.86
308.25	1677.29
308.46	1726.44
308.68	1689.57
308.89	1718.25
309.10	1705.96
309.32	1693.67
309.53	1759.21
309.74	1716.20
309.96	1673.19
310.17	1708.01
310.39	1683.43
310.60	1736.68
310.81	1736.68
311.03	1566.70
311.24	1646.57
311.45	1779.68
311.67	1714.15
311.88	1708.01
312.09	1730.53
312.31	1712.10
312.52	1722.34
312.73	1693.67
312.95	1566.70
313.16	1724.39
313.37	1796.07
313.59	1691.62
313.80	1708.01
314.01	1783.78
314.23	1685.48
314.44	1689.57
314.65	1617.90
314.87	1607.66
315.08	1632.23
315.29	1681.38
315.51	1669.09
315.72	1621.99
315.93	1718.25
316.15	1734.63
316.36	1671.14
316.57	1744.87
316.79	1787.88
317.00	1621.99
317.21	1746.92
317.43	1718.25
317.64	1693.67
317.85	1642.47
318.07	1716.20
318.28	1679.33
318.49	1832.93
318.70	1859.56
318.92	1882.08
319.13	1777.64
319.34	1886.18
319.56	1777.64
319.77	1828.84
319.98	1806.31
320.20	1806.31
320.41	1757.16
320.62	1658.85
320.83	1665.00
321.05	1867.75
321.26	1718.25
321.47	1669.09
321.69	1705.96
321.90	1650.66
322.11	1689.57
322.32	1660.90
322.54	1757.16
322.75	1703.91
322.96	1880.04
323.18	1636.33
323.39	1656.81
323.60	1662.95
323.81	1773.54
324.03	1691.62
324.24	1671.14
324.45	1720.29
324.66	1730.53
324.88	1763.30
325.09	1796.07
325.30	1718.25
325.52	1734.63
325.73	1714.15
325.94	1615.85
326.15	1640.42
326.37	1693.67
326.58	1738.73
326.79	1796.07
327.00	1658.85
327.22	1740.77
327.43	1705.96
327.64	1634.28
327.85	1781.73
328.07	1777.64
328.28	1777.64
328.49	1648.61
328.70	1697.77
328.92	1705.96
329.13	1730.53
329.34	1818.60
329.55	1808.36
329.76	1812.45
329.98	1689.57
330.19	1738.73
330.40	1755.11
330.61	1732.58
330.83	1769.44
331.04	1632.23
331.25	1736.68
331.46	1667.05
331.68	1677.29
331.89	1773.54
332.10	1714.15
332.31	1609.70
332.52	1763.30
332.74	1718.25
332.95	1669.09
333.16	1761.25
333.37	1691.62
333.58	1679.33
333.80	1734.63
334.01	1730.53
334.22	1599.46
334.43	1675.24
334.64	1697.77
334.86	1619.94
335.07	1677.29
335.28	1777.64
335.49	1634.28
335.70	1722.34
335.92	1763.30
336.13	1818.60
336.34	1755.11
336.55	1773.54
336.76	1720.29
336.98	1648.61
337.19	1679.33
337.40	1845.22
337.61	1855.46
337.82	1675.24
338.04	1736.68
338.25	1628.14
338.46	1742.82
338.67	1640.42
338.88	1603.56
339.09	1634.28
339.31	1718.25
339.52	1640.42
339.73	1689.57
339.94	1710.05
340.15	1724.39
340.36	1683.43
340.58	1669.09
340.79	1617.90
341.00	1697.77
341.21	1646.57
341.42	1816.55
341.63	1667.05
341.85	1738.73
342.06	1665.00
342.27	1734.63
342.48	1738.73
342.69	1755.11
342.90	1632.23
343.12	1712.10
343.33	1695.72
343.54	1665.00
343.75	1765.35
343.96	1665.00
344.17	1660.90
344.38	1714.15
344.60	1662.95
344.81	1652.71
345.02	1677.29
345.23	1794.02
345.44	1843.17
345.65	1701.86
345.86	1685.48
346.07	1720.29
346.29	1636.33
346.50	1773.54
346.71	1718.25
346.92	1746.92
347.13	1789.92
347.34	1697.77
347.55	1675.24
347.76	1751.01
347.98	1587.18
348.19	1695.72
348.40	1796.07
348.61	1710.05
348.82	1804.26
349.03	1722.34
349.24	1652.71
349.45	1871.84
349.66	1615.85
349.88	1703.91
350.09	1677.29
350.30	1710.05
350.51	1699.81
350.72	1697.77
350.93	1746.92
351.14	1621.99
351.35	1689.57
351.56	1736.68
351.77	1742.82
351.99	1703.91
352.20	1857.51
352.41	1816.55
352.62	1624.04
352.83	1697.77
353.04	1650.66
353.25	1683.43
353.46	1734.63
353.67	1722.34
353.88	1681.38
354.09	1677.29
354.30	1626.09
354.52	1730.53
354.73	1728.49
354.94	1701.86
355.15	1677.29
355.36	1822.69
355.57	1681.38
355.78	1798.12
355.99	1697.77
356.20	1648.61
356.41	1755.11
356.62	1716.20
356.83	1667.05
357.04	1791.97
357.25	1708.01
357.46	1679.33
357.68	1609.70
357.89	1642.47
358.10	1777.64
358.31	1644.52
358.52	1681.38
358.73	1595.37
358.94	1708.01
359.15	1677.29
359.36	1765.35
359.57	1650.66
359.78	1693.67
359.99	1773.54
360.20	1632.23
360.41	1621.99
360.62	1689.57
360.83	1718.25
361.04	1667.05
361.25	1736.68
361.46	1767.40
361.67	1708.01
361.88	1785.83
362.09	1708.01
362.30	1697.77
362.51	1640.42
362.72	1699.81
362.93	1763.30
363.14	1722.34
363.35	1714.15
363.56	1703.91
363.78	1744.87
363.99	1800.16
364.20	1671.14
364.41	1742.82
364.62	1818.60
364.83	1767.40
365.04	1665.00
365.25	1712.10
365.46	1857.51
365.67	1687.53
365.88	1597.42
366.09	1710.05
366.30	1644.52
366.51	1724.39
366.72	1640.42
366.93	1677.29
367.14	1671.14
367.35	1781.73
367.56	1726.44
367.77	1738.73
367.98	1615.85
368.18	1679.33
368.39	1779.68
368.60	1650.66
368.81	1714.15
369.02	1652.71
369.23	1703.91
369.44	1597.42
369.65	1654.76
369.86	1746.92
370.07	1724.39
370.28	1554.41
370.49	1736.68
370.70	1691.62
370.91	1705.96
371.12	1638.38
371.33	1710.05
371.54	1701.86
371.75	1742.82
371.96	1546.22
372.17	1728.49
372.38	1693.67
372.59	1746.92
372.80	1720.29
373.01	1689.57
373.22	1722.34
373.43	1669.09
373.64	1677.29
373.85	1738.73
374.06	1857.51
374.26	1691.62
374.47	1703.91
374.68	1742.82
374.89	1667.05
375.10	1697.77
375.31	1708.01
375.52	1689.57
375.73	1722.34
375.94	1648.61
376.15	1755.11
376.36	1714.15
376.57	1681.38
376.78	1671.14
376.99	1720.29
377.20	1818.60
377.40	1650.66
377.61	1746.92
377.82	1689.57
378.03	1763.30
378.24	1730.53
378.45	1634.28
378.66	1798.12
378.87	1685.48
379.08	1560.55
379.29	1701.86
379.50	1781.73
379.71	1615.85
379.91	1755.11
380.12	1687.53
380.33	1716.20
380.54	1658.85
380.75	1685.48
380.96	1746.92
381.17	1751.01
381.38	1640.42
381.59	1728.49
381.80	1744.87
382.00	1908.71
382.21	1757.16
382.42	1845.22
382.63	1869.80
382.84	1734.63
383.05	1722.34
383.26	1812.45
383.47	1703.91
383.68	1654.76
383.88	1744.87
384.09	1787.88
384.30	1841.12
384.51	1726.44
384.72	1669.09
384.93	1634.28
385.14	1673.19
385.35	1796.07
385.55	1628.14
385.76	1746.92
385.97	1708.01
386.18	1677.29
386.39	1654.76
386.60	1665.00
386.81	1640.42
387.02	1671.14
387.22	1634.28
387.43	1800.16
387.64	1789.92
387.85	1826.79
388.06	2119.65
388.27	4198.34
388.48	6813.59
388.68	8224.64
388.89	9707.37
389.10	9682.80
389.31	8546.17
389.52	7688.07
389.73	6737.82
389.93	6301.60
390.14	5853.09
390.35	5234.61
390.56	4507.58
390.77	3868.61
390.98	3030.99
391.18	2531.29
391.39	2164.70
391.60	1853.41
391.81	1845.22
392.02	1695.72
392.23	1886.18
392.43	1738.73
392.64	1808.36
392.85	1675.24
393.06	1832.93
393.27	1693.67
393.47	1544.17
393.68	1669.09
393.89	1748.97
394.10	1806.31
394.31	1701.86
394.52	1660.90
394.72	1683.43
394.93	1824.74
395.14	1660.90
395.35	1714.15
395.56	1724.39
395.76	1759.21
395.97	1832.93
396.18	1880.04
396.39	1804.26
396.60	2052.06
396.80	1880.04
397.01	1783.78
397.22	1718.25
397.43	1888.23
397.64	1751.01
397.84	1767.40
398.05	1896.42
398.26	1759.21
398.47	1734.63
398.67	1765.35
398.88	1726.44
399.09	1734.63
399.30	1619.94
399.51	1783.78
399.71	1640.42
399.92	1705.96
400.13	1683.43
400.34	1685.48
400.54	1720.29
400.75	1736.68
400.96	1734.63
401.17	1722.34
401.37	1763.30
401.58	1683.43
401.79	1679.33
402.00	1918.95
402.21	2017.25
402.41	1935.33
402.62	2000.87
402.83	2033.63
403.04	1996.77
403.24	2076.64
403.45	1820.64
403.66	1816.55
403.87	1908.71
404.07	1945.57
404.28	1851.36
404.49	1841.12
404.70	1808.36
404.90	1718.25
405.11	1753.06
405.32	1703.91
405.52	1677.29
405.73	1632.23
405.94	1685.48
406.15	1665.00
406.35	1714.15
406.56	1748.97
406.77	1646.57
406.98	1705.96
407.18	1648.61
407.39	1665.00
407.60	1685.48
407.80	1734.63
408.01	1628.14
408.22	1714.15
408.43	1671.14
408.63	1763.30
408.84	1751.01
409.05	1777.64
409.25	1665.00
409.46	1642.47
409.67	1648.61
409.88	1673.19
410.08	1708.01
410.29	1636.33
410.50	1671.14
410.70	1761.25
410.91	1675.24
411.12	1718.25
411.32	1773.54
411.53	1636.33
411.74	1820.64
411.95	1769.44
412.15	1785.83
412.36	1703.91
412.57	1742.82
412.77	1771.49
412.98	1730.53
413.19	1763.30
413.39	1744.87
413.60	1779.68
413.81	1796.07
414.01	1693.67
414.22	1712.10
414.43	1705.96
414.63	1671.14
414.84	1730.53
415.05	1761.25
415.25	1652.71
415.46	1761.25
415.67	1667.05
415.87	1708.01
416.08	1701.86
416.29	1648.61
416.49	1673.19
416.70	1644.52
416.91	1656.81
417.11	1693.67
417.32	1726.44
417.53	1761.25
417.73	1689.57
417.94	1681.38
418.15	1744.87
418.35	1740.77
418.56	1730.53
418.77	1816.55
418.97	1775.59
419.18	1652.71
419.38	1591.27
419.59	1693.67
419.80	1736.68
420.00	1734.63
420.21	1718.25
420.42	1777.64
420.62	1708.01
420.83	1689.57
421.04	1611.75
421.24	1742.82
421.45	1701.86
421.65	1710.05
421.86	1697.77
422.07	1767.40
422.27	1724.39
422.48	1621.99
422.69	1708.01
422.89	1726.44
423.10	1667.05
423.30	1720.29
423.51	1691.62
423.72	1652.71
423.92	1718.25
424.13	1656.81
424.33	1728.49
424.54	1773.54
424.75	1765.35
424.95	1853.41
425.16	1779.68
425.36	1675.24
425.57	1757.16
425.78	1746.92
425.98	1755.11
426.19	1599.46
426.39	1689.57
426.60	1763.30
426.81	1826.79
427.01	1693.67
427.22	1681.38
427.42	1681.38
427.63	1652.71
427.83	1730.53
428.04	1849.32
428.25	1775.59
428.45	1734.63
428.66	1775.59
428.86	1734.63
429.07	1671.14
429.28	1728.49
429.48	1722.34
429.69	1660.90
429.89	1724.39
430.10	1667.05
430.30	1738.73
430.51	1710.05
430.71	1677.29
430.92	1634.28
431.13	1757.16
431.33	1697.77
431.54	1656.81
431.74	1779.68
431.95	1830.88
432.15	1599.46
432.36	1677.29
432.56	1710.05
432.77	1767.40
432.98	1863.65
433.18	1738.73
433.39	1738.73
433.59	1669.09
433.80	1886.18
434.00	1855.46
434.21	1740.77
434.41	1669.09
434.62	1896.42
434.82	1644.52
435.03	1636.33
435.23	1751.01
435.44	1617.90
435.64	1632.23
435.85	1720.29
436.06	1763.30
436.26	1646.57
436.47	1730.53
436.67	1658.85
436.88	1724.39
437.08	1740.77
437.29	1861.60
437.49	1769.44
437.70	1787.88
437.90	1718.25
438.11	1822.69
438.31	1761.25
438.52	1845.22
438.72	1869.80
438.93	1920.99
439.13	1796.07
439.34	1861.60
439.54	1849.32
439.75	1830.88
439.95	1832.93
440.16	1734.63
440.36	1697.77
440.57	1769.44
440.77	1714.15
440.98	1814.50
441.18	1755.11
441.39	1630.18
441.59	1642.47
441.80	1810.40
442.00	1689.57
442.21	1851.36
442.41	1705.96
442.62	1722.34
442.82	1730.53
443.02	1677.29
443.23	1693.67
443.43	1667.05
443.64	1779.68
443.84	1681.38
444.05	1824.74
444.25	1740.77
444.46	1748.97
444.66	1689.57
444.87	1746.92
445.07	1712.10
445.28	1685.48
445.48	1800.16
445.69	1697.77
445.89	1882.08
446.09	1798.12
446.30	2115.55
446.50	2594.78
446.71	3729.35
446.91	4249.54
447.12	4833.21
447.32	4786.10
447.53	4208.58
447.73	3848.13
447.93	3520.46
448.14	3332.05
448.34	3241.93
448.55	2863.06
448.75	2795.48
448.96	2605.02
449.16	2443.23
449.36	2369.50
449.57	2066.40
449.77	1976.29
449.98	1875.94
450.18	1814.50
450.39	1845.22
450.59	1746.92
450.79	1724.39
451.00	1695.72
451.20	1755.11
451.41	1730.53
451.61	1767.40
451.81	1738.73
452.02	1728.49
452.22	1722.34
452.43	1708.01
452.63	1697.77
452.84	1746.92
453.04	1716.20
453.24	1785.83
453.45	1705.96
453.65	1800.16
453.86	1679.33
454.06	1683.43
454.26	1783.78
454.47	1693.67
454.67	1855.46
454.87	1716.20
455.08	1689.57
455.28	1820.64
455.49	1671.14
455.69	1636.33
455.89	1966.05
456.10	1775.59
456.30	1720.29
456.51	1744.87
456.71	1775.59
456.91	1839.08
457.12	1791.97
457.32	1785.83
457.52	1712.10
457.73	1771.49
457.93	1794.02
458.14	1734.63
458.34	1646.57
458.54	1763.30
458.75	1662.95
458.95	1843.17
459.15	1736.68
459.36	1753.06
459.56	1701.86
459.76	1832.93
459.97	1757.16
460.17	1791.97
460.37	1779.68
460.58	1775.59
460.78	1732.58
460.99	1667.05
461.19	1808.36
461.39	1701.86
461.60	1748.97
461.80	1718.25
462.00	1626.09
462.21	1714.15
462.41	1697.77
462.61	1730.53
462.82	1673.19
463.02	1714.15
463.22	1802.21
463.43	1802.21
463.63	1730.53
463.83	1804.26
464.04	1826.79
464.24	1742.82
464.44	1660.90
464.64	1660.90
464.85	1722.34
465.05	1728.49
465.25	1621.99
465.46	1640.42
465.66	1720.29
465.86	1763.30
466.07	1699.81
466.27	1765.35
466.47	1658.85
466.68	1665.00
466.88	1748.97
467.08	1720.29
467.29	1812.45
467.49	1720.29
467.69	1761.25
467.89	1724.39
468.10	1722.34
468.30	1822.69
468.50	1806.31
468.71	1716.20
468.91	1658.85
469.11	1794.02
469.31	1777.64
469.52	1648.61
469.72	1804.26
469.92	1900.52
470.13	1763.30
470.33	1710.05
470.53	1812.45
470.73	2054.11
470.94	2256.86
471.14	2316.25
471.34	2533.34
471.54	2330.59
471.75	2248.67
471.95	2072.54
472.15	2064.35
472.36	2168.80
472.56	2037.73
472.76	2062.30
472.96	2009.06
473.17	1970.15
473.37	1894.37
473.57	1775.59
473.77	1839.08
473.98	1751.01
474.18	1765.35
474.38	1892.32
474.58	1736.68
474.79	1773.54
474.99	1771.49
475.19	1783.78
475.39	1611.75
475.60	1767.40
475.80	1687.53
476.00	1736.68
476.20	1714.15
476.41	1763.30
476.61	1769.44
476.81	1761.25
477.01	1714.15
477.21	1820.64
477.42	1824.74
477.62	1652.71
477.82	1697.77
478.02	1775.59
478.23	1738.73
478.43	1669.09
478.63	1609.70
478.83	1636.33
479.03	1624.04
479.24	1843.17
479.44	1816.55
479.64	1728.49
479.84	1644.52
480.04	1607.66
480.25	1726.44
480.45	1667.05
480.65	1763.30
480.85	1757.16
481.06	1742.82
481.26	1742.82
481.46	1785.83
481.66	1763.30
481.86	1697.77
482.06	1716.20
482.27	1683.43
482.47	1710.05
482.67	1742.82
482.87	1691.62
483.07	1746.92
483.28	1730.53
483.48	1667.05
483.68	1769.44
483.88	1585.13
484.08	1642.47
484.29	1632.23
484.49	1716.20
484.69	1665.00
484.89	1810.40
485.09	1771.49
485.29	1718.25
485.50	1703.91
485.70	1691.62
485.90	1734.63
486.10	1693.67
486.30	1779.68
486.50	1701.86
486.71	1779.68
486.91	1800.16
487.11	1767.40
487.31	1679.33
487.51	1697.77
487.71	1689.57
487.91	1732.58
488.12	1660.90
488.32	1607.66
488.52	1728.49
488.72	1656.81
488.92	1677.29
489.12	1755.11
489.32	1728.49
489.53	1755.11
489.73	1632.23
489.93	1791.97
490.13	1695.72
490.33	1644.52
490.53	1718.25
490.73	1787.88
490.94	1585.13
491.14	1744.87
491.34	1820.64
491.54	2133.98
491.74	2576.34
491.94	2951.12
492.14	3030.99
492.34	2944.98
492.54	2713.56
492.75	2441.18
492.95	2398.17
493.15	2361.31
493.35	2287.58
493.55	2228.19
493.75	2174.94
493.95	2176.99
494.15	2033.63
494.35	1959.91
494.56	1832.93
494.76	1763.30
494.96	1843.17
495.16	1703.91
495.36	1714.15
495.56	1804.26
495.76	1716.20
495.96	1658.85
496.16	1699.81
496.36	1824.74
496.56	1845.22
496.77	1751.01
496.97	1734.63
497.17	1804.26
497.37	1642.47
497.57	1804.26
497.77	1699.81
497.97	1621.99
498.17	1718.25
498.37	1691.62
498.57	1775.59
498.77	1748.97
498.97	1642.47
499.17	1822.69
499.38	1667.05
499.58	1812.45
499.78	1730.53
499.98	1812.45
500.18	1765.35
500.38	1718.25
500.58	1877.99
500.78	2519.00
500.98	4507.58
501.18	5769.13
501.38	6807.45
501.58	7083.92
501.78	6623.13
501.98	5502.89
502.18	4956.08
502.38	4331.45
502.58	3960.77
502.78	3776.45
502.98	3635.14
503.18	3545.03
503.38	3196.88
503.59	2877.40
503.79	2818.00
503.99	2484.19
504.19	2275.29
504.39	2156.51
504.59	2148.32
504.79	2146.27
504.99	2011.11
505.19	1890.28
505.39	1902.56
505.59	1994.72
505.79	1873.89
505.99	1845.22
506.19	1841.12
506.39	1918.95
506.59	1671.14
506.79	1834.98
506.99	1810.40
507.19	1746.92
507.39	1763.30
507.59	1748.97
507.79	1697.77
507.99	1644.52
508.19	1609.70
508.39	1738.73
508.59	1744.87
508.79	1845.22
508.99	1851.36
509.19	1712.10
509.39	1800.16
509.59	1658.85
509.79	1699.81
509.99	1777.64
510.19	1796.07
510.39	1787.88
510.59	1759.21
510.79	1662.95
510.99	1660.90
511.19	1693.67
511.39	1816.55
511.59	1810.40
511.79	1783.78
511.99	1677.29
512.19	1769.44
512.38	1687.53
512.58	1656.81
512.78	1748.97
512.98	1712.10
513.18	1798.12
513.38	1619.94
513.58	1837.03
513.78	1669.09
513.98	1677.29
514.18	1718.25
514.38	1669.09
514.58	1689.57
514.78	1656.81
514.98	1693.67
515.18	1687.53
515.38	1669.09
515.58	1853.41
515.78	1701.86
515.98	1660.90
516.18	1732.58
516.38	1644.52
516.57	1734.63
516.77	1617.90
516.97	1794.02
517.17	1755.11
517.37	1636.33
517.57	1718.25
517.77	1810.40
517.97	1673.19
518.17	1789.92
518.37	1689.57
518.57	1699.81
518.77	1699.81
518.97	1767.40
519.16	1771.49
519.36	1849.32
519.56	1652.71
519.76	1736.68
519.96	1759.21
520.16	1773.54
520.36	1697.77
520.56	1812.45
520.76	1699.81
520.96	1751.01
521.16	1787.88
521.35	1785.83
521.55	1798.12
521.75	1736.68
521.95	1652.71
522.15	1791.97
522.35	1593.32
522.55	1761.25
522.75	1726.44
522.95	1667.05
523.14	1681.38
523.34	1742.82
523.54	1726.44
523.74	1841.12
523.94	1812.45
524.14	1658.85
524.34	1771.49
524.54	1820.64
524.73	1765.35
524.93	1755.11
525.13	1730.53
525.33	1611.75
525.53	1865.70
525.73	1769.44
525.93	1718.25
526.13	1687.53
526.32	1697.77
526.52	1824.74
526.72	1849.32
526.92	1642.47
527.12	1728.49
527.32	1632.23
527.52	1775.59
527.71	1757.16
527.91	1769.44
528.11	1800.16
528.31	1753.06
528.51	1652.71
528.71	1841.12
528.90	1748.97
529.10	1714.15
529.30	1849.32
529.50	1599.46
529.70	1773.54
529.90	1660.90
530.09	1785.83
530.29	1753.06
530.49	1736.68
530.69	1902.56
530.89	1781.73
531.09	1804.26
531.28	1748.97
531.48	1820.64
531.68	1728.49
531.88	1800.16
532.08	1787.88
532.28	1710.05
532.47	1800.16
532.67	1734.63
532.87	1753.06
533.07	1685.48
533.27	1841.12
533.46	1761.25
533.66	1744.87
533.86	1701.86
534.06	1654.76
534.26	1755.11
534.45	1730.53
534.65	1773.54
534.85	1740.77
535.05	1710.05
535.25	1796.07
535.44	1576.94
535.64	1779.68
535.84	1695.72
536.04	1667.05
536.24	1652.71
536.43	1708.01
536.63	1738.73
536.83	1648.61
537.03	1769.44
537.22	1648.61
537.42	1654.76
537.62	1796.07
537.82	1705.96
538.02	1746.92
538.21	1845.22
538.41	1888.23
538.61	1759.21
538.81	1703.91
539.00	1779.68
539.20	1671.14
539.40	1705.96
539.60	1740.77
539.79	1755.11
539.99	1783.78
540.19	1730.53
540.39	1703.91
540.58	1689.57
540.78	1753.06
540.98	1730.53
541.18	1822.69
541.37	1751.01
541.57	1812.45
541.77	1794.02
541.97	1624.04
542.16	1681.38
542.36	1656.81
542.56	1669.09
542.76	1869.80
542.95	1800.16
543.15	1767.40
543.35	1789.92
543.54	1703.91
543.74	1630.18
543.94	1828.84
544.14	1656.81
544.33	1732.58
544.53	1763.30
544.73	1644.52
544.93	1689.57
545.12	1640.42
545.32	1771.49
545.52	1761.25
545.71	1679.33
545.91	1648.61
546.11	1759.21
546.30	1757.16
546.50	1705.96
546.70	1847.27
546.90	1726.44
547.09	1613.80
547.29	1759.21
547.49	1818.60
547.68	1722.34
547.88	1667.05
548.08	1787.88
548.27	2148.32
548.47	1691.62
548.67	1748.97
548.87	1800.16
549.06	1656.81
549.26	1771.49
549.46	1767.40
549.65	1722.34
549.85	1697.77
550.05	1753.06
550.24	1716.20
550.44	1736.68
550.64	1808.36
550.83	1730.53
551.03	1828.84
551.23	1796.07
551.42	1759.21
551.62	1667.05
551.82	1693.67
552.01	1716.20
552.21	1863.65
552.41	1695.72
552.60	1787.88
552.80	1734.63
553.00	1640.42
553.19	1656.81
553.39	1773.54
553.59	1691.62
553.78	1730.53
553.98	1769.44
554.17	1701.86
554.37	1759.21
554.57	1742.82
554.76	1689.57
554.96	1693.67
555.16	1765.35
555.35	1681.38
555.55	1699.81
555.75	1759.21
555.94	1751.01
556.14	1626.09
556.33	1845.22
556.53	1669.09
556.73	1744.87
556.92	1834.98
557.12	1812.45
557.32	1783.78
557.51	1718.25
557.71	1771.49
557.90	1880.04
558.10	1841.12
558.30	1753.06
558.49	1732.58
558.69	1785.83
558.88	1763.30
559.08	1789.92
559.28	1677.29
559.47	1755.11
559.67	1732.58
559.86	1888.23
560.06	1740.77
560.26	1720.29
560.45	1755.11
560.65	1662.95
560.84	1847.27
561.04	1705.96
561.24	1720.29
561.43	1656.81
561.63	1855.46
561.82	1779.68
562.02	1755.11
562.22	1665.00
562.41	1736.68
562.61	1740.77
562.80	1720.29
563.00	1937.38
563.19	1736.68
563.39	1742.82
563.59	1816.55
563.78	1703.91
563.98	1609.70
564.17	1691.62
564.37	1683.43
564.56	1783.78
564.76	1705.96
564.96	1798.12
565.15	1720.29
565.35	1888.23
565.54	1816.55
565.74	1630.18
565.93	1673.19
566.13	1708.01
566.32	1839.08
566.52	1757.16
566.71	1804.26
566.91	1810.40
567.11	1767.40
567.30	1712.10
567.50	1748.97
567.69	1671.14
567.89	1779.68
568.08	1683.43
568.28	1685.48
568.47	1699.81
568.67	1693.67
568.86	1724.39
569.06	1771.49
569.25	1730.53
569.45	1718.25
569.64	1681.38
569.84	1742.82
570.04	1773.54
570.23	1654.76
570.43	1695.72
570.62	1820.64
570.82	1843.17
571.01	1697.77
571.21	1691.62
571.40	1691.62
571.60	1787.88
571.79	1732.58
571.99	1755.11
572.18	1679.33
572.38	1771.49
572.57	1732.58
572.77	1660.90
572.96	1898.47
573.16	1832.93
573.35	1710.05
573.55	1806.31
573.74	1703.91
573.94	1753.06
574.13	1654.76
574.33	1736.68
574.52	1748.97
574.71	1771.49
574.91	1785.83
575.10	1689.57
575.30	1746.92
575.49	1689.57
575.69	1755.11
575.88	1730.53
576.08	1738.73
576.27	1693.67
576.47	1730.53
576.66	1892.32
576.86	1865.70
577.05	1789.92
577.25	1769.44
577.44	1857.51
577.64	1781.73
577.83	1740.77
578.02	1710.05
578.22	1845.22
578.41	1798.12
578.61	1722.34
578.80	1650.66
579.00	1773.54
579.19	1654.76
579.39	1794.02
579.58	1775.59
579.77	1732.58
579.97	1773.54
580.16	1871.84
580.36	1832.93
580.55	1798.12
580.75	1763.30
580.94	1853.41
581.13	1896.42
581.33	1800.16
581.52	1671.14
581.72	1953.76
581.91	1867.75
582.11	1761.25
582.30	1781.73
582.49	1777.64
582.69	1837.03
582.88	1740.77
583.08	1748.97
583.27	1796.07
583.47	1736.68
583.66	1677.29
583.85	1703.91
584.05	1703.91
584.24	1791.97
584.44	1867.75
584.63	1796.07
584.82	1828.84
585.02	1857.51
585.21	1900.52
585.41	1898.47
585.60	1890.28
585.79	1953.76
585.99	2023.39
586.18	1851.36
586.37	2191.33
586.57	3397.58
586.76	9811.82
586.96	24710.79
587.15	34645.49
587.34	40312.22
587.54	42278.27
587.73	36787.66
587.93	26392.17
588.12	21397.18
588.31	18386.66
588.51	16500.48
588.70	15146.78
588.89	14083.88
589.09	12744.51
589.28	10919.77
589.47	9465.71
589.67	7919.50
589.86	6580.12
590.06	4956.08
590.25	3889.09
590.44	3147.73
590.64	2727.89
590.83	2197.47
591.02	2011.11
591.22	2043.87
591.41	1935.33
591.60	1769.44
591.80	1941.47
591.99	1712.10
592.18	1798.12
592.38	1814.50
592.57	1783.78
592.76	1808.36
592.96	1773.54
593.15	1730.53
593.34	1861.60
593.54	1730.53
593.73	1824.74
593.92	1820.64
594.12	1787.88
594.31	1757.16
594.50	1791.97
594.70	1708.01
594.89	1890.28
595.08	1671.14
595.28	1740.77
595.47	1923.04
595.66	1736.68
595.86	1705.96
596.05	1718.25
596.24	1679.33
596.43	1800.16
596.63	1822.69
596.82	1820.64
597.01	1705.96
597.21	1816.55
597.40	1736.68
597.59	1763.30
597.79	1765.35
597.98	1757.16
598.17	1791.97
598.36	1726.44
598.56	1761.25
598.75	1722.34
598.94	1640.42
599.14	1781.73
599.33	1708.01
599.52	1812.45
599.71	1798.12
599.91	1714.15
600.10	1734.63
600.29	1671.14
600.48	1726.44
600.68	1740.77
600.87	1757.16
601.06	1701.86
601.26	1677.29
601.45	1740.77
601.64	1695.72
601.83	1820.64
602.03	1738.73
602.22	1634.28
602.41	1826.79
602.60	1839.08
602.80	1794.02
602.99	1759.21
603.18	1699.81
603.37	1746.92
603.57	1763.30
603.76	1730.53
603.95	1730.53
604.14	1677.29
604.34	1734.63
604.53	1802.21
604.72	1730.53
604.91	1724.39
605.10	1800.16
605.30	1638.38
605.49	1882.08
605.68	1826.79
605.87	1779.68
606.07	1718.25
606.26	1785.83
606.45	1656.81
606.64	1771.49
606.84	1718.25
607.03	1789.92
607.22	1738.73
607.41	1656.81
607.60	1683.43
607.80	1779.68
607.99	1685.48
608.18	1810.40
608.37	1714.15
608.56	1697.77
608.76	1765.35
608.95	1820.64
609.14	1695.72
609.33	1791.97
609.52	1834.98
609.72	1755.11
609.91	1810.40
610.10	1773.54
610.29	1841.12
610.48	1777.64
610.68	1705.96
610.87	1753.06
611.06	1781.73
611.25	1660.90
611.44	1802.21
611.63	1677.29
611.83	1816.55
612.02	1593.32
612.21	1841.12
612.40	1619.94
612.59	1673.19
612.79	1662.95
612.98	1730.53
613.17	1796.07
613.36	1724.39
613.55	1875.94
613.74	1611.75
613.93	1753.06
614.13	1736.68
614.32	1759.21
614.51	1740.77
614.70	1716.20
614.89	1681.38
615.08	1705.96
615.28	2037.73
615.47	1667.05
615.66	1712.10
615.85	1736.68
616.04	1789.92
616.23	1691.62
616.42	1689.57
616.62	1705.96
616.81	1744.87
617.00	1728.49
617.19	1826.79
617.38	1687.53
617.57	1722.34
617.76	1734.63
617.95	1738.73
618.15	1665.00
618.34	1837.03
618.53	1652.71
618.72	1830.88
618.91	1808.36
619.10	1839.08
619.29	1701.86
619.48	1744.87
619.68	1624.04
619.87	1736.68
620.06	1705.96
620.25	1824.74
620.44	1744.87
620.63	1720.29
620.82	1759.21
621.01	1748.97
621.20	1734.63
621.39	1779.68
621.59	1644.52
621.78	1693.67
621.97	1742.82
622.16	1783.78
622.35	1669.09
622.54	1812.45
622.73	1796.07
622.92	1646.57
623.11	1744.87
623.30	1746.92
623.49	1765.35
623.68	1654.76
623.88	1791.97
624.07	1673.19
624.26	1683.43
624.45	1757.16
624.64	1677.29
624.83	1755.11
625.02	1642.47
625.21	1742.82
625.40	1734.63
625.59	1812.45
625.78	1705.96
625.97	1724.39
626.16	1748.97
626.35	1798.12
626.54	1697.77
626.74	1818.60
626.93	1642.47
627.12	1699.81
627.31	1779.68
627.50	1724.39
627.69	1802.21
627.88	1662.95
628.07	1705.96
628.26	1697.77
628.45	1667.05
628.64	1679.33
628.83	1730.53
629.02	1677.29
629.21	1738.73
629.40	1740.77
629.59	1677.29
629.78	1791.97
629.97	1701.86
630.16	1687.53
630.35	1685.48
630.54	1673.19
630.73	1630.18
630.92	1728.49
631.11	1685.48
631.30	1773.54
631.49	1765.35
631.68	1716.20
631.87	1726.44
632.06	1646.57
632.25	1859.56
632.44	1701.86
632.63	1708.01
632.82	1624.04
633.01	1624.04
633.20	1701.86
633.39	1603.56
633.58	1640.42
633.77	1746.92
633.96	1730.53
634.15	1791.97
634.34	1730.53
634.53	1753.06
634.72	1642.47
634.91	1636.33
635.10	1742.82
635.29	1738.73
635.48	1685.48
635.67	1669.09
635.86	1730.53
636.05	1767.40
636.24	1718.25
636.43	1740.77
636.62	1740.77
636.81	1542.12
637.00	1681.38
637.19	1705.96
637.38	1738.73
637.57	1675.24
637.76	1775.59
637.95	1734.63
638.14	1751.01
638.33	1720.29
638.52	1675.24
638.71	1687.53
638.89	1574.89
639.08	1855.46
639.27	1794.02
639.46	1689.57
639.65	1781.73
639.84	1728.49
640.03	1751.01
640.22	1714.15
640.41	1804.26
640.60	1677.29
640.79	1687.53
640.98	1755.11
641.17	1800.16
641.36	1726.44
641.55	1787.88
641.74	1607.66
641.92	1658.85
642.11	1708.01
642.30	1738.73
642.49	1665.00
642.68	1591.27
642.87	1746.92
643.06	1781.73
643.25	1710.05
643.44	1642.47
643.63	1738.73
643.82	1744.87
644.00	1658.85
644.19	1767.40
644.38	1683.43
644.57	1751.01
644.76	1728.49
644.95	1728.49
645.14	1685.48
645.33	1703.91
645.52	1773.54
645.71	1669.09
645.89	1728.49
646.08	1693.67
646.27	1650.66
646.46	1849.32
646.65	1585.13
646.84	1753.06
647.03	1648.61
647.22	1820.64
647.40	1675.24
647.59	1687.53
647.78	1646.57
647.97	1697.77
648.16	1634.28
648.35	1802.21
648.54	1810.40
648.73	1644.52
648.91	1744.87
649.10	1669.09
649.29	1689.57
649.48	1615.85
649.67	1759.21
649.86	1689.57
650.05	1710.05
650.23	1775.59
650.42	1697.77
650.61	1718.25
650.80	1798.12
650.99	1796.07
651.18	1730.53
651.36	1701.86
651.55	1669.09
651.74	1716.20
651.93	1724.39
652.12	1685.48
652.31	1736.68
652.49	1718.25
652.68	1671.14
652.87	1818.60
653.06	1691.62
653.25	1802.21
653.44	1669.09
653.62	1794.02
653.81	1708.01
654.00	1701.86
654.19	1757.16
654.38	1826.79
654.56	1736.68
654.75	1714.15
654.94	1734.63
655.13	1677.29
655.32	1724.39
655.51	1730.53
655.69	1736.68
655.88	1820.64
656.07	1587.18
656.26	1767.40
656.45	1609.70
656.63	1695.72
656.82	1751.01
657.01	1740.77
657.20	1640.42
657.38	1773.54
657.57	1665.00
657.76	1714.15
657.95	1740.77
658.14	1654.76
658.32	1744.87
658.51	1665.00
658.70	1736.68
658.89	1742.82
659.08	1710.05
659.26	1789.92
659.45	1665.00
659.64	1669.09
659.83	1656.81
660.01	1935.33
660.20	1808.36
660.39	1812.45
660.58	1609.70
660.76	1777.64
660.95	1665.00
661.14	1722.34
661.33	1652.71
661.51	1650.66
661.70	1808.36
661.89	1753.06
662.08	1826.79
662.26	1632.23
662.45	1638.38
662.64	1830.88
662.83	1722.34
663.01	1673.19
663.20	1632.23
663.39	1810.40
663.58	1701.86
663.76	1665.00
663.95	1787.88
664.14	1607.66
664.32	1685.48
664.51	1613.80
664.70	1615.85
664.89	1765.35
665.07	1687.53
665.26	1783.78
665.45	1607.66
665.64	1718.25
665.82	1660.90
666.01	1701.86
666.20	1646.57
666.38	1865.70
666.57	1894.37
666.76	2148.32
666.95	4523.96
667.13	10213.22
667.32	15374.10
667.51	17870.58
667.69	19035.87
667.88	17565.43
668.07	12535.62
668.25	9480.05
668.44	8136.58
668.63	7401.36
668.81	7004.05
669.00	6313.89
669.19	5724.07
669.38	5015.48
669.56	4458.43
669.75	4001.73
669.94	3450.83
670.12	2879.44
670.31	2574.30
670.50	2172.89
670.68	2131.94
670.87	1912.80
671.06	1837.03
671.24	1816.55
671.43	1880.04
671.62	1724.39
671.80	1691.62
671.99	1734.63
672.18	1675.24
672.36	1759.21
672.55	1751.01
672.74	1744.87
672.92	1714.15
673.11	1685.48
673.29	1695.72
673.48	1746.92
673.67	1687.53
673.85	1796.07
674.04	1640.42
674.23	1724.39
674.41	1781.73
674.60	1636.33
674.79	1652.71
674.97	1685.48
675.16	1773.54
675.34	1748.97
675.53	1699.81
675.72	1742.82
675.90	1826.79
676.09	1677.29
676.28	1763.30
676.46	1636.33
676.65	1796.07
676.83	1697.77
677.02	1748.97
677.21	1759.21
677.39	1724.39
677.58	1757.16
677.77	1662.95
677.95	1685.48
678.14	1660.90
678.32	1716.20
678.51	1613.80
678.70	1832.93
678.88	1626.09
679.07	1738.73
679.25	1748.97
679.44	1691.62
679.63	1652.71
679.81	1710.05
680.00	1734.63
680.18	1667.05
680.37	1783.78
680.55	1724.39
680.74	1648.61
680.93	1556.46
681.11	1699.81
681.30	1732.58
681.48	1744.87
681.67	1701.86
681.85	1701.86
682.04	1708.01
682.23	1783.78
682.41	1771.49
682.60	1722.34
682.78	1730.53
682.97	1646.57
683.15	1826.79
683.34	1726.44
683.53	1791.97
683.71	1640.42
683.90	1775.59
684.08	1757.16
684.27	1652.71
684.45	1767.40
684.64	1771.49
684.82	1718.25
685.01	1755.11
685.19	1748.97
685.38	1837.03
685.57	1718.25
685.75	1705.96
685.94	1689.57
686.12	1640.42
686.31	1677.29
686.49	1777.64
686.68	1599.46
686.86	1693.67
687.05	1720.29
687.23	1808.36
687.42	1695.72
687.60	1677.29
687.79	1761.25
687.97	1732.58
688.16	1751.01
688.34	1773.54
688.53	1636.33
688.71	1726.44
688.90	1755.11
689.08	1708.01
689.27	1611.75
689.45	1759.21
689.64	1814.50
689.82	1685.48
690.01	1757.16
690.19	1744.87
690.38	1691.62
690.56	1849.32
690.75	1665.00
690.93	1669.09
691.12	1673.19
691.30	1730.53
691.49	1730.53
691.67	1722.34
691.86	1820.64
692.04	1624.04
692.23	1691.62
692.41	1587.18
692.60	1746.92
692.78	1755.11
692.97	1679.33
693.15	1734.63
693.34	1810.40
693.52	1724.39
693.71	1681.38
693.89	1779.68
694.08	1665.00
694.26	1767.40
694.44	1748.97
694.63	1796.07
694.81	1712.10
695.00	1611.75
695.18	1826.79
695.37	1841.12
695.55	1722.34
695.74	1624.04
695.92	1677.29
696.10	1755.11
696.29	1652.71
696.47	1658.85
696.66	1669.09
696.84	1673.19
697.03	1783.78
697.21	1785.83
697.40	2330.59
697.58	1771.49
697.76	1736.68
697.95	1617.90
698.13	1695.72
698.32	1804.26
698.50	1626.09
698.68	1730.53
698.87	1769.44
699.05	1787.88
699.24	1755.11
699.42	1558.50
699.61	1791.97
699.79	1701.86
699.97	1728.49
700.16	1658.85
700.34	1611.75
700.53	1714.15
700.71	1808.36
700.89	1720.29
701.08	1791.97
701.26	1644.52
701.45	2060.26
701.63	1685.48
701.81	1714.15
702.00	1753.06
702.18	1658.85
702.37	1648.61
702.55	1714.15
702.73	1755.11
702.92	1548.26
703.10	1783.78
703.28	1714.15
703.47	1628.14
703.65	1734.63
703.84	1701.86
704.02	1716.20
704.20	1742.82
704.39	1673.19
704.57	1654.76
704.75	1720.29
704.94	1812.45
705.12	1730.53
705.30	1851.36
705.49	2330.59
705.67	4458.43
705.86	9314.16
706.04	12625.73
706.22	14479.14
706.41	15380.25
706.59	13948.72
706.77	9625.45
706.96	7415.69
707.14	6768.54
707.32	6025.12
707.51	5562.28
707.69	5007.28
707.87	4284.35
708.06	3542.99
708.24	3010.51
708.42	2506.71
708.61	2322.40
708.79	1959.91
708.97	1929.19
709.16	1849.32
709.34	1826.79
709.52	1693.67
709.71	1722.34
709.89	1798.12
710.07	1710.05
710.26	1630.18
710.44	1658.85
710.62	1683.43
710.80	1708.01
710.99	1748.97
711.17	1712.10
711.35	1669.09
711.54	1732.58
711.72	1777.64
711.90	1798.12
712.09	1763.30
712.27	1699.81
712.45	1763.30
712.63	1619.94
712.82	1708.01
713.00	1710.05
713.18	1783.78
713.37	1732.58
713.55	1820.64
713.73	1769.44
713.91	1677.29
714.10	1593.32
714.28	1730.53
714.46	1771.49
714.65	1730.53
714.83	1746.92
715.01	1703.91
715.19	1730.53
715.38	1640.42
715.56	1791.97
715.74	1662.95
715.92	1693.67
716.11	1796.07
716.29	1583.08
716.47	1791.97
716.65	1673.19
716.84	1607.66
717.02	1742.82
717.20	1646.57
717.38	1681.38
717.57	1687.53
717.75	1652.71
717.93	1693.67
718.11	1714.15
718.30	1716.20
718.48	1705.96
718.66	1728.49
718.84	1710.05
719.03	1677.29
719.21	1675.24
719.39	1748.97
719.57	1802.21
719.75	1722.34
719.94	1652.71
720.12	1712.10
720.30	1728.49
720.48	1808.36
720.67	1646.57
720.85	1697.77
721.03	1681.38
721.21	1656.81
721.39	1845.22
721.58	1675.24
721.76	1697.77
721.94	1687.53
722.12	1730.53
722.30	1705.96
722.49	1697.77
722.67	1656.81
722.85	1724.39
723.03	1669.09
723.21	1648.61
723.40	1740.77
723.58	1789.92
723.76	1695.72
723.94	1802.21
724.12	1693.67
724.30	1806.31
724.49	1800.16
724.67	1650.66
724.85	1755.11
725.03	1595.37
725.21	1697.77
725.40	1769.44
725.58	1701.86
725.76	1757.16
725.94	1751.01
726.12	1646.57
726.30	1650.66
726.49	1714.15
726.67	1710.05
726.85	1691.62
727.03	1847.27
727.21	2136.03
727.39	2770.90
727.57	3737.54
727.76	4218.82
727.94	4442.04
728.12	4435.90
728.30	3780.55
728.48	3020.75
728.66	2738.13
728.84	2615.26
729.03	2351.07
729.21	2166.75
729.39	2017.25
729.57	1822.69
729.75	1806.31
729.93	1837.03
730.11	1775.59
730.30	1771.49
730.48	1730.53
730.66	1816.55
730.84	1751.01
731.02	1650.66
731.20	1638.38
731.38	1697.77
731.56	1611.75
731.74	1632.23
731.93	1736.68
732.11	1755.11
732.29	1685.48
732.47	1779.68
732.65	1779.68
732.83	1730.53
733.01	1789.92
733.19	1675.24
733.37	1681.38
733.56	1673.19
733.74	1765.35
733.92	1783.78
734.10	1656.81
734.28	1781.73
734.46	1677.29
734.64	1689.57
734.82	1656.81
735.00	1708.01
735.18	1632.23
735.36	1730.53
735.54	1675.24
735.73	1736.68
735.91	1681.38
736.09	1804.26
736.27	1697.77
736.45	1800.16
736.63	1656.81
736.81	1642.47
736.99	1763.30
737.17	1816.55
737.35	1701.86
737.53	1761.25
737.71	1681.38
737.89	1779.68
738.07	1705.96
738.25	1714.15
738.43	1669.09
738.61	1640.42
738.80	1703.91
738.98	1681.38
739.16	1683.43
739.34	1609.70
739.52	1753.06
739.70	1730.53
739.88	1726.44
740.06	1732.58
740.24	1619.94
740.42	1703.91
740.60	1609.70
740.78	1689.57
740.96	1558.50
741.14	1656.81
741.32	1722.34
741.50	1640.42
741.68	1789.92
741.86	1753.06
742.04	1630.18
742.22	1728.49
742.40	1703.91
742.58	1656.81
742.76	1710.05
742.94	1701.86
743.12	1632.23
743.30	1617.90
743.48	1714.15
743.66	1685.48
743.84	1773.54
744.02	1669.09
744.20	1665.00
744.38	1624.04
744.56	1662.95
744.74	1748.97
744.92	1650.66
745.10	1787.88
745.28	1763.30
745.46	1761.25
745.64	1687.53
745.82	1667.05
746.00	1671.14
746.18	1708.01
746.36	1669.09
746.54	1724.39
746.72	1710.05
746.90	1683.43
747.08	1791.97
747.26	1560.55
747.44	1822.69
747.62	1742.82
747.80	1810.40
747.98	1789.92
748.15	1757.16
748.33	1781.73
748.51	1703.91
748.69	1724.39
748.87	1724.39
749.05	1650.66
749.23	1615.85
749.41	1712.10
749.59	1728.49
749.77	1781.73
749.95	1712.10
750.13	1621.99
750.31	1652.71
750.49	1755.11
750.67	1787.88
750.85	1771.49
751.03	1669.09
751.20	1759.21
751.38	1732.58
751.56	1626.09
751.74	1677.29
751.92	1671.14
752.10	1630.18
752.28	1742.82
752.46	1703.91
752.64	1712.10
752.82	1763.30
753.00	1798.12
753.18	1626.09
753.35	1734.63
753.53	1701.86
753.71	1730.53
753.89	1675.24
754.07	1677.29
754.25	1677.29
754.43	1732.58
754.61	1685.48
754.79	1718.25
754.97	1716.20
755.14	1818.60
755.32	1697.77
755.50	1646.57
755.68	1677.29
755.86	1703.91
756.04	1726.44
756.22	1607.66
756.40	1763.30
756.57	1816.55
756.75	1652.71
756.93	1746.92
757.11	1810.40
757.29	1636.33
757.47	1624.04
757.65	1546.22
757.82	1632.23
758.00	1613.80
758.18	1714.15
758.36	1607.66
758.54	1767.40
758.72	1578.98
758.90	1746.92
759.07	1705.96
759.25	1583.08
759.43	1777.64
759.61	1566.70
759.79	2172.89
759.97	1755.11
760.15	1581.03
760.32	1660.90
760.50	1695.72
760.68	1746.92
760.86	1761.25
761.04	1759.21
761.22	1716.20
761.39	1722.34
761.57	1740.77
761.75	1744.87
761.93	1763.30
762.11	1699.81
762.28	1687.53
762.46	1705.96
762.64	1746.92
762.82	1626.09
763.00	1697.77
763.18	1732.58
763.35	1697.77
763.53	1755.11
763.71	1685.48
763.89	1730.53
764.07	1759.21
764.24	1705.96
764.42	1671.14
764.60	1718.25
764.78	1730.53
764.96	1732.58
765.13	1714.15
765.31	1636.33
765.49	1757.16
765.67	1691.62
765.84	1677.29
766.02	1730.53
766.20	1634.28
766.38	1714.15
766.56	1742.82
766.73	1724.39
766.91	1687.53
767.09	1585.13
767.27	1648.61
767.44	1671.14
767.62	1779.68
767.80	1695.72
767.98	1693.67
768.15	1669.09
768.33	1738.73
768.51	1720.29
768.69	1746.92
768.87	1787.88
769.04	1689.57
769.22	1755.11
769.40	1755.11
769.58	1892.32
769.75	1710.05
769.93	1800.16
770.11	1687.53
770.28	1656.81
770.46	1777.64
770.64	1757.16
770.82	1648.61
770.99	1712.10
771.17	1832.93
771.35	1689.57
771.53	1691.62
771.70	1591.27
771.88	1728.49
772.06	1708.01
772.23	1675.24
772.41	1738.73
772.59	1652.71
772.77	1638.38
772.94	1773.54
773.12	1720.29
773.30	1662.95
773.47	1677.29
773.65	1648.61
773.83	1785.83
774.01	1699.81
774.18	1615.85
774.36	1671.14
774.54	1671.14
774.71	1703.91
774.89	1652.71
775.07	1714.15
775.24	1724.39
775.42	1646.57
775.60	1777.64
775.78	1703.91
775.95	1656.81
776.13	1591.27
776.31	1636.33
776.48	1703.91
776.66	1742.82
776.84	1626.09
777.01	1642.47
777.19	1740.77
777.37	1607.66
777.54	1779.68
777.72	1810.40
777.90	1726.44
778.07	1693.67
778.25	1896.42
778.43	1736.68
778.60	1710.05
778.78	1675.24
778.96	1810.40
779.13	1681.38
779.31	1771.49
779.49	1685.48
779.66	1699.81
779.84	1636.33
780.01	1689.57
780.19	1568.74
780.37	1759.21
780.54	1755.11
780.72	1693.67
780.90	1712.10
781.07	1685.48
781.25	1712.10
781.43	1699.81
781.60	1705.96
781.78	1751.01
781.95	1703.91
782.13	1693.67
782.31	1630.18
782.48	1517.54
782.66	1740.77
782.83	1763.30
783.01	1716.20
783.19	1763.30
783.36	1681.38
783.54	1630.18
783.72	1775.59
783.89	1697.77
784.07	1724.39
784.24	1722.34
784.42	1808.36
784.60	1728.49
784.77	1734.63
784.95	1572.84
785.12	1607.66
785.30	1634.28
785.47	1644.52
785.65	1699.81
785.83	1646.57
786.00	1742.82
786.18	1675.24
786.35	1693.67
786.53	1701.86
786.71	1785.83
786.88	1705.96
787.06	1732.58
787.23	1712.10
787.41	1603.56
787.58	1703.91
787.76	1648.61
787.94	1759.21
788.11	1697.77
788.29	1640.42
788.46	1624.04
788.64	1628.14
788.81	1708.01
788.99	1656.81
789.16	1681.38
789.34	1710.05
789.52	1658.85
789.69	1646.57
789.87	1611.75
790.04	1642.47
790.22	1617.90
790.39	1775.59
790.57	1619.94
790.74	1724.39
790.92	1722.34
791.09	1681.38
791.27	1693.67
791.44	1781.73
791.62	1687.53
791.79	1687.53
791.97	1722.34
792.15	1845.22
792.32	1734.63
792.50	1714.15
792.67	1667.05
792.85	1734.63
793.02	1677.29
793.20	1671.14
793.37	1662.95
793.55	1681.38
793.72	1648.61
793.90	1697.77
794.07	1656.81
794.25	1662.95
794.42	1691.62
794.60	1683.43
794.77	1748.97
794.95	1716.20
795.12	1812.45
795.30	1728.49
795.47	1642.47
795.65	1834.98
795.82	1673.19
796.00	1636.33
796.17	1714.15
796.34	1740.77
796.52	1701.86
796.69	1751.01
796.87	1751.01
797.04	1722.34
797.22	1689.57
797.39	1740.77
797.57	1701.86
797.74	1755.11
797.92	1683.43
798.09	1697.77
798.27	1712.10
798.44	1740.77
798.62	1642.47
798.79	1765.35
798.96	1687.53
799.14	1730.53
799.31	1904.61
799.49	1753.06
799.66	1689.57
799.84	1662.95
800.01	1589.22
800.19	1712.10
800.36	1540.07
800.53	1642.47
800.71	1705.96
800.88	1785.83
801.06	1605.61
801.23	1667.05
801.41	1744.87
801.58	1716.20
801.75	1753.06
801.93	1665.00
802.10	1781.73
802.28	1699.81
802.45	1675.24
802.63	1720.29
802.80	1748.97
802.97	1613.80
803.15	1658.85
803.32	1726.44
803.50	1603.56
803.67	1636.33
803.84	1673.19
804.02	1619.94
804.19	1683.43
804.37	1615.85
804.54	1656.81
804.71	1650.66
804.89	1712.10
805.06	1650.66
805.24	1671.14
805.41	1652.71
805.58	1632.23
805.76	1843.17
805.93	1677.29
806.10	1738.73
806.28	1716.20
806.45	1759.21
806.63	1708.01
806.80	1740.77
806.97	1679.33
807.15	1720.29
807.32	1720.29
807.49	1685.48
807.67	1615.85
807.84	1650.66
808.01	1566.70
808.19	1701.86
808.36	1705.96
808.54	1652.71
808.71	1656.81
808.88	1681.38
809.06	1710.05
809.23	1783.78
809.40	1689.57
809.58	1728.49
809.75	1689.57
809.92	1652.71
810.10	1877.99
810.27	1683.43
810.44	1714.15
810.62	1804.26
810.79	1710.05
810.96	1642.47
811.14	1640.42
811.31	1705.96
811.48	1730.53
811.66	1679.33
811.83	1761.25
812.00	1738.73
812.18	1656.81
812.35	1869.80
812.52	1681.38
812.69	1634.28
812.87	1665.00
813.04	1646.57
813.21	1658.85
813.39	1697.77
813.56	1660.90
813.73	1724.39
813.91	1597.42
814.08	1693.67
814.25	1650.66
814.42	1599.46
814.60	1611.75
814.77	1732.58
814.94	1689.57
815.12	1681.38
815.29	1863.65
815.46	1746.92
815.63	1681.38
815.81	1697.77
815.98	1730.53
816.15	1703.91
816.33	1748.97
816.50	1636.33
816.67	1656.81
816.84	1691.62
817.02	1648.61
817.19	1802.21
817.36	1773.54
817.53	1753.06
817.71	1718.25
817.88	1718.25
818.05	1716.20
818.22	1636.33
818.40	1759.21
818.57	1693.67
818.74	1691.62
818.91	1714.15
819.09	1757.16
819.26	1751.01
819.43	1665.00
819.60	1660.90
819.78	1736.68
819.95	1802.21
820.12	1660.90
820.29	1818.60
820.47	1703.91
820.64	1644.52
820.81	1662.95
820.98	1718.25
821.15	1667.05
821.33	1808.36
821.50	1589.22
821.67	1734.63
821.84	1693.67
822.02	1671.14
822.19	1742.82
822.36	1730.53
822.53	1679.33
822.70	1683.43
822.88	1650.66
823.05	1802.21
823.22	1705.96
823.39	1718.25
823.56	1783.78
823.74	1734.63
823.91	1628.14
824.08	1660.90
824.25	1589.22
824.42	1753.06
824.60	1691.62
824.77	1732.58
824.94	1705.96
825.11	1736.68
825.28	1683.43
825.45	1697.77
825.63	1679.33
825.80	1630.18
825.97	1693.67
826.14	1677.29
826.31	1697.77
826.48	1683.43
826.66	1714.15
826.83	1724.39
827.00	1665.00
827.17	1638.38
827.34	1640.42
827.51	1648.61
827.69	1701.86
827.86	1607.66
828.03	1736.68
828.20	1751.01
828.37	1693.67
828.54	1691.62
828.71	1667.05
828.89	1736.68
829.06	1761.25
829.23	1761.25
829.40	1581.03
829.57	1654.76
829.74	1730.53
829.91	1652.71
830.09	1660.90
830.26	1734.63
830.43	1804.26
830.60	1662.95
830.77	1738.73
830.94	1697.77
831.11	1695.72
831.28	1685.48
831.46	1800.16
831.63	1679.33
831.80	1703.91
831.97	1738.73
832.14	1681.38
832.31	1767.40
832.48	1681.38
832.65	1783.78
832.82	1699.81
832.99	1753.06
833.17	1642.47
833.34	1812.45
833.51	1761.25
833.68	1568.74
833.85	1728.49
834.02	1675.24
834.19	1710.05
834.36	1634.28
834.53	1669.09
834.70	1765.35
834.87	1777.64
835.04	1705.96
835.22	1703.91
835.39	1632.23
835.56	1548.26
835.73	1656.81
835.90	1824.74
836.07	1718.25
836.24	1722.34
836.41	1638.38
836.58	1660.90
836.75	1757.16
836.92	1751.01
837.09	1632.23
837.26	1714.15
837.43	1808.36
837.60	1656.81
837.77	1587.18
837.94	1669.09
838.12	1777.64
838.29	1769.44
838.46	1630.18
838.63	1591.27
838.80	1765.35
838.97	1791.97
839.14	1697.77
839.31	1679.33
839.48	1816.55
839.65	1662.95
839.82	1773.54
839.99	1720.29
840.16	1689.57
840.33	1626.09
840.50	1648.61
840.67	1671.14
840.84	1572.84
841.01	1708.01
841.18	1644.52
841.35	1689.57
841.52	1753.06
841.69	1853.41
841.86	1751.01
842.03	1703.91
842.20	1773.54
842.37	1683.43
842.54	1726.44
842.71	1693.67
842.88	1652.71
843.05	1744.87
843.22	1624.04
843.39	1720.29
843.56	1624.04
843.73	1708.01
843.90	1679.33
844.07	1665.00
844.24	1638.38
844.41	1751.01
844.58	1714.15
844.75	1681.38
844.92	1757.16
845.09	1677.29
845.26	1607.66
845.43	1781.73
845.60	1656.81
845.77	1834.98
845.94	1699.81
846.10	1703.91
846.27	1630.18
846.44	1611.75
846.61	1650.66
846.78	1708.01
846.95	1773.54
847.12	1744.87
847.29	1712.10
847.46	1617.90
847.63	1804.26
847.80	1654.76
847.97	1642.47
848.14	1798.12
848.31	1638.38
848.48	1609.70
848.65	1720.29
848.82	1673.19
848.98	1798.12
849.15	1732.58
849.32	1834.98
849.49	1697.77
849.66	1701.86
849.83	1705.96
850.00	1646.57
850.17	1714.15
850.34	1673.19
850.51	1617.90
850.68	1648.61
850.85	1791.97
851.01	1736.68
851.18	1716.20
851.35	1675.24
851.52	1681.38
851.69	1753.06
851.86	1607.66
852.03	1677.29
852.20	1757.16
852.37	1714.15
852.53	1548.26
852.70	1693.67
852.87	1714.15
853.04	1734.63
853.21	1722.34
853.38	1759.21
853.55	1763.30
853.72	1777.64
853.89	1744.87
854.05	1681.38
854.22	1718.25
854.39	1730.53
854.56	1699.81
854.73	1816.55
854.90	1619.94
855.07	1658.85
855.23	1697.77
855.40	1687.53
855.57	1658.85
855.74	1572.84
855.91	1818.60
856.08	1591.27
856.25	1648.61
856.41	1658.85
856.58	1697.77
856.75	1714.15
856.92	1624.04
857.09	1794.02
857.26	1630.18
857.42	1679.33
857.59	1779.68
857.76	1722.34
857.93	1730.53
858.10	1677.29
858.27	1652.71
858.43	1763.30
858.60	1660.90
858.77	1624.04
858.94	1669.09
859.11	1658.85
859.27	1650.66
859.44	1714.15
859.61	1814.50
859.78	1728.49
859.95	1693.67
860.12	1697.77
860.28	1785.83
860.45	1828.84
860.62	1671.14
860.79	1660.90
860.95	1669.09
861.12	1632.23
861.29	1634.28
861.46	1648.61
861.63	1708.01
861.79	1718.25
861.96	1648.61
862.13	1617.90
862.30	1742.82
862.47	1646.57
862.63	1650.66
862.80	1718.25
862.97	1697.77
863.14	1718.25
863.30	1712.10
863.47	1640.42
863.64	1757.16
863.81	1724.39
863.97	1650.66
864.14	1685.48
864.31	1695.72
864.48	1708.01
864.65	1685.48
864.81	1761.25
864.98	1699.81
865.15	1802.21
865.32	1744.87
865.48	1718.25
865.65	1804.26
865.82	1642.47
865.98	1693.67
866.15	1765.35
866.32	1648.61
866.49	1650.66
866.65	1740.77
866.82	1634.28
866.99	1679.33
867.16	1742.82
867.32	1679.33
867.49	1642.47
867.66	1660.90
867.83	1671.14
867.99	1540.07
868.16	1673.19
868.33	1599.46
868.49	1685.48
868.66	1683.43
868.83	1755.11
868.99	1660.90
869.16	1683.43
869.33	1751.01
869.50	1763.30
869.66	1703.91
869.83	1665.00
870.00	1540.07
870.16	1732.58
870.33	1710.05
870.50	1861.60
870.66	1671.14
870.83	1832.93
871.00	1652.71
871.17	1714.15
871.33	1710.05
871.50	1722.34
871.67	1603.56
871.83	1738.73
872.00	1759.21
872.17	1730.53
872.33	1832.93
872.50	1748.97
872.67	1677.29
872.83	1703.91
873.00	1769.44
873.17	1732.58
873.33	1748.97
873.50	1742.82
873.67	1685.48
873.83	1650.66
874.00	1656.81
874.16	1789.92
874.33	1640.42
874.50	1681.38
874.66	1726.44
874.83	1656.81
875.00	1744.87
875.16	1712.10
875.33	1791.97
875.50	1492.97
875.66	1677.29
875.83	1675.24
875.99	1742.82
876.16	1722.34
876.33	1632.23
876.49	1730.53
876.66	1714.15
876.83	1693.67
876.99	1624.04
877.16	1669.09
877.32	1687.53
877.49	1656.81
877.66	1796.07
877.82	1724.39
877.99	1691.62
878.15	1720.29
878.32	1679.33
878.49	1720.29
878.65	1728.49
878.82	1800.16
878.98	1671.14
879.15	1724.39
879.32	1734.63
879.48	1714.15
879.65	1671.14
879.81	1681.38
879.98	1693.67
880.15	1619.94
880.31	1701.86
880.48	1703.91
880.64	1773.54
880.81	1730.53
880.97	1746.92
881.14	1748.97
881.31	1624.04
881.47	1818.60
881.64	1652.71
881.80	1615.85
881.97	1775.59
882.13	1771.49
882.30	1660.90
882.47	1644.52
882.63	1687.53
882.80	1687.53
882.96	1626.09
883.13	1755.11
883.29	1716.20
883.46	1748.97
883.62	1779.68
883.79	1714.15
883.95	1730.53
884.12	1701.86
884.29	1677.29
884.45	1705.96
884.62	1742.82
884.78	1677.29
884.95	1779.68
885.11	1652.71
885.28	1726.44
885.44	1746.92
885.61	1648.61
885.77	1746.92
885.94	1695.72
886.10	1697.77
886.27	1714.15
886.43	1738.73
886.60	1789.92
886.76	1634.28
886.93	1595.37
887.09	1705.96
887.26	1581.03
887.42	1691.62
887.59	1673.19
887.75	1822.69
887.92	1820.64
888.08	1826.79
888.25	1832.93
888.41	1779.68
888.58	1791.97
888.74	1646.57
888.91	1665.00
>>>>>End Processed Spectral Data<<<<<
