SpectraSuite Data File
++++++++++++++++++++++++++++++++++++
Date: Mon Jun 06 15:28:17 CEST 2016
User: root
Dark Spectrum Present: No
Reference Spectrum Present: No
Number of Sampled Component Spectra: 1
Spectrometers: USB4C02835
Integration Time (usec): 100000 (USB4C02835)
Spectra Averaged: 1 (USB4C02835)
Boxcar Smoothing: 0 (USB4C02835)
Correct for Electrical Dark: No (USB4C02835)
Strobe/Lamp Enabled: No (USB4C02835)
Correct for Detector Non-linearity: No (USB4C02835)
Correct for Stray Light: No (USB4C02835)
Number of Pixels in Processed Spectrum: 3648
>>>>>Begin Processed Spectral Data<<<<<
177.47	1507.30
177.69	1507.30
177.91	1507.30
178.13	1478.63
178.36	1454.06
178.58	1644.52
178.80	1738.73
179.02	1667.05
179.24	1683.43
179.46	1718.25
179.68	1703.91
179.90	1718.25
180.13	1740.77
180.35	1687.53
180.57	1755.11
180.79	1691.62
181.01	1722.34
181.23	1789.92
181.45	1738.73
181.67	1751.01
181.90	1742.82
182.12	1689.57
182.34	1652.71
182.56	1685.48
182.78	1667.05
183.00	1726.44
183.22	1699.81
183.44	1617.90
183.66	1822.69
183.89	1787.88
184.11	1638.38
184.33	1794.02
184.55	1748.97
184.77	1728.49
184.99	1787.88
185.21	1636.33
185.43	1847.27
185.65	1671.14
185.87	1738.73
186.10	1841.12
186.32	1806.31
186.54	1662.95
186.76	1748.97
186.98	1724.39
187.20	1665.00
187.42	1771.49
187.64	1722.34
187.86	1748.97
188.08	1726.44
188.30	1699.81
188.52	1726.44
188.75	1841.12
188.97	1880.04
189.19	1658.85
189.41	1703.91
189.63	1710.05
189.85	1748.97
190.07	1669.09
190.29	1648.61
190.51	1687.53
190.73	1626.09
190.95	1804.26
191.17	1681.38
191.39	1613.80
191.61	1748.97
191.84	1617.90
192.06	1751.01
192.28	1595.37
192.50	2002.91
192.72	1781.73
192.94	1654.76
193.16	1763.30
193.38	1783.78
193.60	1648.61
193.82	1689.57
194.04	1744.87
194.26	1794.02
194.48	1724.39
194.70	1689.57
194.92	1697.77
195.14	1763.30
195.36	1712.10
195.58	1771.49
195.80	1714.15
196.02	1652.71
196.24	1675.24
196.46	1710.05
196.69	1736.68
196.91	1871.84
197.13	1722.34
197.35	1679.33
197.57	1755.11
197.79	1808.36
198.01	1710.05
198.23	1695.72
198.45	1681.38
198.67	1652.71
198.89	1722.34
199.11	1716.20
199.33	1656.81
199.55	1523.69
199.77	1783.78
199.99	1761.25
200.21	1640.42
200.43	1730.53
200.65	1677.29
200.87	1572.84
201.09	1677.29
201.31	1640.42
201.53	1742.82
201.75	1722.34
201.97	1730.53
202.19	1773.54
202.41	1720.29
202.63	1912.80
202.85	1785.83
203.07	1683.43
203.29	1769.44
203.51	1613.80
203.73	1767.40
203.95	1912.80
204.17	1798.12
204.39	1794.02
204.61	1744.87
204.83	1681.38
205.05	1794.02
205.27	1773.54
205.49	1892.32
205.71	1804.26
205.93	1677.29
206.15	1617.90
206.37	1716.20
206.59	1726.44
206.81	1607.66
207.03	1665.00
207.25	1601.51
207.47	1710.05
207.69	1673.19
207.91	1744.87
208.13	1744.87
208.34	1716.20
208.56	1603.56
208.78	1800.16
209.00	1677.29
209.22	1662.95
209.44	1599.46
209.66	1669.09
209.88	1732.58
210.10	1685.48
210.32	1665.00
210.54	1746.92
210.76	1679.33
210.98	1738.73
211.20	1626.09
211.42	1667.05
211.64	1843.17
211.86	1669.09
212.08	1783.78
212.30	1681.38
212.52	1712.10
212.74	1722.34
212.96	1714.15
213.17	1753.06
213.39	1763.30
213.61	1742.82
213.83	1738.73
214.05	1609.70
214.27	1781.73
214.49	1689.57
214.71	1603.56
214.93	1742.82
215.15	1781.73
215.37	1718.25
215.59	1626.09
215.81	1703.91
216.03	1763.30
216.24	1714.15
216.46	1652.71
216.68	1703.91
216.90	1794.02
217.12	1775.59
217.34	1728.49
217.56	1730.53
217.78	1798.12
218.00	1761.25
218.22	1785.83
218.44	1705.96
218.66	1669.09
218.87	1775.59
219.09	1712.10
219.31	1736.68
219.53	1742.82
219.75	1671.14
219.97	1730.53
220.19	1751.01
220.41	1689.57
220.63	1783.78
220.85	1697.77
221.06	1667.05
221.28	1775.59
221.50	1689.57
221.72	1705.96
221.94	1691.62
222.16	1693.67
222.38	1783.78
222.60	1767.40
222.82	1624.04
223.03	1738.73
223.25	1654.76
223.47	1744.87
223.69	1785.83
223.91	1779.68
224.13	1710.05
224.35	1699.81
224.57	1748.97
224.78	1689.57
225.00	1640.42
225.22	1687.53
225.44	1779.68
225.66	1800.16
225.88	1658.85
226.10	1673.19
226.32	1689.57
226.53	1796.07
226.75	1644.52
226.97	1669.09
227.19	1730.53
227.41	1619.94
227.63	1656.81
227.85	1621.99
228.06	1685.48
228.28	1759.21
228.50	1789.92
228.72	1685.48
228.94	1634.28
229.16	1621.99
229.37	1685.48
229.59	1621.99
229.81	1673.19
230.03	1796.07
230.25	1660.90
230.47	1611.75
230.69	1669.09
230.90	1816.55
231.12	1740.77
231.34	1671.14
231.56	1728.49
231.78	1728.49
232.00	1681.38
232.21	1744.87
232.43	1691.62
232.65	1581.03
232.87	1728.49
233.09	1681.38
233.30	1601.51
233.52	1726.44
233.74	1740.77
233.96	1708.01
234.18	1783.78
234.40	1607.66
234.61	1738.73
234.83	1630.18
235.05	1638.38
235.27	1957.86
235.49	1853.41
235.70	1742.82
235.92	1783.78
236.14	1697.77
236.36	1816.55
236.58	1705.96
236.79	1781.73
237.01	1722.34
237.23	1687.53
237.45	1832.93
237.67	1650.66
237.88	1714.15
238.10	1888.23
238.32	1662.95
238.54	1730.53
238.76	1783.78
238.97	1630.18
239.19	1701.86
239.41	1820.64
239.63	1802.21
239.85	1714.15
240.06	1701.86
240.28	1755.11
240.50	1736.68
240.72	1705.96
240.93	1697.77
241.15	1798.12
241.37	1708.01
241.59	1830.88
241.81	1687.53
242.02	1722.34
242.24	1761.25
242.46	1753.06
242.68	1724.39
242.89	1714.15
243.11	1734.63
243.33	1806.31
243.55	1705.96
243.76	1800.16
243.98	1677.29
244.20	1734.63
244.42	1667.05
244.64	1800.16
244.85	1650.66
245.07	1724.39
245.29	1744.87
245.51	1777.64
245.72	1820.64
245.94	1771.49
246.16	1730.53
246.38	1804.26
246.59	1646.57
246.81	1683.43
247.03	1681.38
247.24	1638.38
247.46	1697.77
247.68	1714.15
247.90	1724.39
248.11	1769.44
248.33	1839.08
248.55	1728.49
248.77	1669.09
248.98	1804.26
249.20	1800.16
249.42	1746.92
249.64	1720.29
249.85	1742.82
250.07	1730.53
250.29	1728.49
250.50	1810.40
250.72	1593.32
250.94	1728.49
251.16	1812.45
251.37	1767.40
251.59	1734.63
251.81	1808.36
252.02	1814.50
252.24	1730.53
252.46	1701.86
252.68	1695.72
252.89	1646.57
253.11	1665.00
253.33	1834.98
253.54	1794.02
253.76	1687.53
253.98	1611.75
254.20	1738.73
254.41	1595.37
254.63	1730.53
254.85	1593.32
255.06	1767.40
255.28	1777.64
255.50	1751.01
255.71	1740.77
255.93	1679.33
256.15	1708.01
256.36	1753.06
256.58	1693.67
256.80	1796.07
257.02	1820.64
257.23	1771.49
257.45	1712.10
257.67	1806.31
257.88	1656.81
258.10	1720.29
258.32	1705.96
258.53	1740.77
258.75	1767.40
258.97	1783.78
259.18	1640.42
259.40	1712.10
259.62	1824.74
259.83	1761.25
260.05	1695.72
260.27	1951.71
260.48	1759.21
260.70	1718.25
260.92	1724.39
261.13	1730.53
261.35	1695.72
261.57	1662.95
261.78	1630.18
262.00	1675.24
262.22	1724.39
262.43	1703.91
262.65	1785.83
262.86	1648.61
263.08	1851.36
263.30	1650.66
263.51	1613.80
263.73	1691.62
263.95	1810.40
264.16	1652.71
264.38	1572.84
264.60	1773.54
264.81	1687.53
265.03	1757.16
265.25	1796.07
265.46	1665.00
265.68	1759.21
265.89	1806.31
266.11	1685.48
266.33	1804.26
266.54	1826.79
266.76	1744.87
266.98	1722.34
267.19	1742.82
267.41	1691.62
267.62	1695.72
267.84	1617.90
268.06	1763.30
268.27	1732.58
268.49	1806.31
268.70	1800.16
268.92	1699.81
269.14	1652.71
269.35	1558.50
269.57	1673.19
269.79	1740.77
270.00	1685.48
270.22	1779.68
270.43	1703.91
270.65	1605.61
270.87	1748.97
271.08	1693.67
271.30	1720.29
271.51	1665.00
271.73	1771.49
271.95	1738.73
272.16	1746.92
272.38	1669.09
272.59	1697.77
272.81	1689.57
273.02	1716.20
273.24	1748.97
273.46	1716.20
273.67	1660.90
273.89	1656.81
274.10	1693.67
274.32	1740.77
274.54	1781.73
274.75	1738.73
274.97	1759.21
275.18	1763.30
275.40	1759.21
275.61	1771.49
275.83	1761.25
276.05	1714.15
276.26	1748.97
276.48	1763.30
276.69	1724.39
276.91	1777.64
277.12	1751.01
277.34	1791.97
277.55	1830.88
277.77	1789.92
277.99	1697.77
278.20	1671.14
278.42	1677.29
278.63	1683.43
278.85	1685.48
279.06	1669.09
279.28	1714.15
279.49	1738.73
279.71	1701.86
279.93	1726.44
280.14	1705.96
280.36	1642.47
280.57	1783.78
280.79	1800.16
281.00	1591.27
281.22	1761.25
281.43	1753.06
281.65	1572.84
281.86	1691.62
282.08	1673.19
282.29	1845.22
282.51	1638.38
282.73	1677.29
282.94	1636.33
283.16	1763.30
283.37	1771.49
283.59	1683.43
283.80	1697.77
284.02	1738.73
284.23	1779.68
284.45	1722.34
284.66	1677.29
284.88	1685.48
285.09	1675.24
285.31	1679.33
285.52	1714.15
285.74	1689.57
285.95	1671.14
286.17	1769.44
286.38	1849.32
286.60	1691.62
286.81	1685.48
287.03	1675.24
287.24	1703.91
287.46	1751.01
287.67	1701.86
287.89	1896.42
288.10	1767.40
288.32	1740.77
288.53	1839.08
288.75	1787.88
288.96	1748.97
289.18	1703.91
289.39	1675.24
289.61	1804.26
289.82	1886.18
290.04	1834.98
290.25	1642.47
290.47	1722.34
290.68	1669.09
290.90	1798.12
291.11	1654.76
291.33	1789.92
291.54	1591.27
291.76	1714.15
291.97	1763.30
292.18	1738.73
292.40	1732.58
292.61	1654.76
292.83	1888.23
293.04	1716.20
293.26	1695.72
293.47	1679.33
293.69	1642.47
293.90	1667.05
294.12	1736.68
294.33	1724.39
294.55	1730.53
294.76	1802.21
294.97	1732.58
295.19	1832.93
295.40	1656.81
295.62	1681.38
295.83	1779.68
296.05	1695.72
296.26	1753.06
296.48	1669.09
296.69	1746.92
296.90	1697.77
297.12	1757.16
297.33	1748.97
297.55	1679.33
297.76	1783.78
297.98	1763.30
298.19	1746.92
298.41	1724.39
298.62	1628.14
298.83	1794.02
299.05	1732.58
299.26	1689.57
299.48	1701.86
299.69	1794.02
299.90	1763.30
300.12	1769.44
300.33	1804.26
300.55	1761.25
300.76	1746.92
300.98	1667.05
301.19	1781.73
301.40	1658.85
301.62	1665.00
301.83	1773.54
302.05	1687.53
302.26	1746.92
302.47	1665.00
302.69	1646.57
302.90	1710.05
303.12	1566.70
303.33	1802.21
303.54	1800.16
303.76	1730.53
303.97	1722.34
304.19	1843.17
304.40	1730.53
304.61	1783.78
304.83	1873.89
305.04	1748.97
305.26	1665.00
305.47	1712.10
305.68	1724.39
305.90	1652.71
306.11	1796.07
306.33	1699.81
306.54	1679.33
306.75	1640.42
306.97	1632.23
307.18	1734.63
307.39	1763.30
307.61	1767.40
307.82	1681.38
308.04	1751.01
308.25	1701.86
308.46	1646.57
308.68	1755.11
308.89	1660.90
309.10	1740.77
309.32	1708.01
309.53	1714.15
309.74	1689.57
309.96	1687.53
310.17	1712.10
310.39	1720.29
310.60	1712.10
310.81	1765.35
311.03	1636.33
311.24	1724.39
311.45	1708.01
311.67	1812.45
311.88	1736.68
312.09	1681.38
312.31	1697.77
312.52	1654.76
312.73	1697.77
312.95	1681.38
313.16	1658.85
313.37	1742.82
313.59	1777.64
313.80	1730.53
314.01	1763.30
314.23	1722.34
314.44	1662.95
314.65	1646.57
314.87	1712.10
315.08	1673.19
315.29	1630.18
315.51	1671.14
315.72	1744.87
315.93	1773.54
316.15	1751.01
316.36	1656.81
316.57	1701.86
316.79	1689.57
317.00	1705.96
317.21	1697.77
317.43	1728.49
317.64	1759.21
317.85	1724.39
318.07	1775.59
318.28	1677.29
318.49	1773.54
318.70	1877.99
318.92	1804.26
319.13	1855.46
319.34	1816.55
319.56	1857.51
319.77	1810.40
319.98	1806.31
320.20	1748.97
320.41	1812.45
320.62	1697.77
320.83	1665.00
321.05	1791.97
321.26	1771.49
321.47	1710.05
321.69	1722.34
321.90	1628.14
322.11	1660.90
322.32	1726.44
322.54	1761.25
322.75	1703.91
322.96	1787.88
323.18	1673.19
323.39	1624.04
323.60	1603.56
323.81	1746.92
324.03	1654.76
324.24	1675.24
324.45	1685.48
324.66	1746.92
324.88	1843.17
325.09	1697.77
325.30	1775.59
325.52	1724.39
325.73	1837.03
325.94	1640.42
326.15	1632.23
326.37	1675.24
326.58	1808.36
326.79	1796.07
327.00	1611.75
327.22	1744.87
327.43	1642.47
327.64	1683.43
327.85	1783.78
328.07	1654.76
328.28	1789.92
328.49	1638.38
328.70	1710.05
328.92	1687.53
329.13	1669.09
329.34	1757.16
329.55	1757.16
329.76	1769.44
329.98	1734.63
330.19	1746.92
330.40	1767.40
330.61	1714.15
330.83	1789.92
331.04	1683.43
331.25	1734.63
331.46	1728.49
331.68	1683.43
331.89	1738.73
332.10	1693.67
332.31	1644.52
332.52	1697.77
332.74	1736.68
332.95	1603.56
333.16	1722.34
333.37	1714.15
333.58	1736.68
333.80	1767.40
334.01	1648.61
334.22	1722.34
334.43	1705.96
334.64	1744.87
334.86	1685.48
335.07	1603.56
335.28	1765.35
335.49	1593.32
335.70	1671.14
335.92	1708.01
336.13	1861.60
336.34	1669.09
336.55	1660.90
336.76	1742.82
336.98	1619.94
337.19	1708.01
337.40	1828.84
337.61	1916.90
337.82	1640.42
338.04	1720.29
338.25	1660.90
338.46	1703.91
338.67	1705.96
338.88	1628.14
339.09	1605.61
339.31	1665.00
339.52	1640.42
339.73	1652.71
339.94	1740.77
340.15	1773.54
340.36	1744.87
340.58	1773.54
340.79	1691.62
341.00	1722.34
341.21	1679.33
341.42	1839.08
341.63	1646.57
341.85	1712.10
342.06	1759.21
342.27	1654.76
342.48	1734.63
342.69	1679.33
342.90	1638.38
343.12	1791.97
343.33	1716.20
343.54	1695.72
343.75	1771.49
343.96	1728.49
344.17	1662.95
344.38	1734.63
344.60	1630.18
344.81	1679.33
345.02	1705.96
345.23	1810.40
345.44	1794.02
345.65	1796.07
345.86	1718.25
346.07	1759.21
346.29	1691.62
346.50	1738.73
346.71	1730.53
346.92	1834.98
347.13	1869.80
347.34	1658.85
347.55	1708.01
347.76	1753.06
347.98	1660.90
348.19	1669.09
348.40	1845.22
348.61	1626.09
348.82	1886.18
349.03	1822.69
349.24	1710.05
349.45	1855.46
349.66	1630.18
349.88	1701.86
350.09	1628.14
350.30	1806.31
350.51	1744.87
350.72	1683.43
350.93	1755.11
351.14	1675.24
351.35	1730.53
351.56	1697.77
351.77	1755.11
351.99	1744.87
352.20	1820.64
352.41	1775.59
352.62	1634.28
352.83	1687.53
353.04	1675.24
353.25	1650.66
353.46	1742.82
353.67	1775.59
353.88	1632.23
354.09	1787.88
354.30	1732.58
354.52	1773.54
354.73	1730.53
354.94	1714.15
355.15	1710.05
355.36	1773.54
355.57	1656.81
355.78	1767.40
355.99	1648.61
356.20	1699.81
356.41	1806.31
356.62	1716.20
356.83	1765.35
357.04	1740.77
357.25	1650.66
357.46	1734.63
357.68	1697.77
357.89	1628.14
358.10	1697.77
358.31	1669.09
358.52	1761.25
358.73	1695.72
358.94	1673.19
359.15	1701.86
359.36	1789.92
359.57	1779.68
359.78	1652.71
359.99	1804.26
360.20	1695.72
360.41	1720.29
360.62	1800.16
360.83	1718.25
361.04	1781.73
361.25	1710.05
361.46	1744.87
361.67	1767.40
361.88	1783.78
362.09	1753.06
362.30	1787.88
362.51	1589.22
362.72	1677.29
362.93	1791.97
363.14	1796.07
363.35	1740.77
363.56	1673.19
363.78	1738.73
363.99	1740.77
364.20	1751.01
364.41	1779.68
364.62	1839.08
364.83	1695.72
365.04	1634.28
365.25	1671.14
365.46	1824.74
365.67	1708.01
365.88	1691.62
366.09	1675.24
366.30	1708.01
366.51	1650.66
366.72	1603.56
366.93	1716.20
367.14	1716.20
367.35	1810.40
367.56	1781.73
367.77	1738.73
367.98	1730.53
368.18	1757.16
368.39	1654.76
368.60	1634.28
368.81	1783.78
369.02	1738.73
369.23	1738.73
369.44	1705.96
369.65	1746.92
369.86	1812.45
370.07	1777.64
370.28	1703.91
370.49	1822.69
370.70	1720.29
370.91	1687.53
371.12	1667.05
371.33	1841.12
371.54	1699.81
371.75	1808.36
371.96	1550.31
372.17	1763.30
372.38	1746.92
372.59	1767.40
372.80	1658.85
373.01	1759.21
373.22	1693.67
373.43	1665.00
373.64	1742.82
373.85	1703.91
374.06	1843.17
374.26	1787.88
374.47	1726.44
374.68	1777.64
374.89	1675.24
375.10	1652.71
375.31	1746.92
375.52	1720.29
375.73	1705.96
375.94	1611.75
376.15	1785.83
376.36	1679.33
376.57	1685.48
376.78	1615.85
376.99	1742.82
377.20	1779.68
377.40	1695.72
377.61	1802.21
377.82	1697.77
378.03	1791.97
378.24	1751.01
378.45	1748.97
378.66	1730.53
378.87	1626.09
379.08	1632.23
379.29	1685.48
379.50	1740.77
379.71	1650.66
379.91	1732.58
380.12	1658.85
380.33	1689.57
380.54	1773.54
380.75	1722.34
380.96	1646.57
381.17	1738.73
381.38	1736.68
381.59	1767.40
381.80	1773.54
382.00	1861.60
382.21	1736.68
382.42	1902.56
382.63	1894.37
382.84	1720.29
383.05	1808.36
383.26	1789.92
383.47	1726.44
383.68	1746.92
383.88	1779.68
384.09	1689.57
384.30	1822.69
384.51	1675.24
384.72	1646.57
384.93	1701.86
385.14	1738.73
385.35	1761.25
385.55	1679.33
385.76	1732.58
385.97	1722.34
386.18	1679.33
386.39	1675.24
386.60	1773.54
386.81	1665.00
387.02	1656.81
387.22	1724.39
387.43	1771.49
387.64	1886.18
387.85	1867.75
388.06	2119.65
388.27	4081.60
388.48	6522.78
388.68	8028.04
388.89	9303.92
389.10	9557.87
389.31	8284.03
389.52	7362.45
389.73	6539.16
389.93	5975.97
390.14	5713.83
390.35	5124.02
390.56	4480.96
390.77	3839.94
390.98	2969.55
391.18	2426.84
391.39	2090.98
391.60	1841.12
391.81	1951.71
392.02	1648.61
392.23	1830.88
392.43	1771.49
392.64	1763.30
392.85	1763.30
393.06	1824.74
393.27	1695.72
393.47	1722.34
393.68	1720.29
393.89	1728.49
394.10	1834.98
394.31	1675.24
394.52	1669.09
394.72	1695.72
394.93	1822.69
395.14	1640.42
395.35	1722.34
395.56	1638.38
395.76	1712.10
395.97	1822.69
396.18	1857.51
396.39	1804.26
396.60	2025.44
396.80	1839.08
397.01	1798.12
397.22	1832.93
397.43	1855.46
397.64	1746.92
397.84	1873.89
398.05	1884.13
398.26	1789.92
398.47	1767.40
398.67	1841.12
398.88	1787.88
399.09	1806.31
399.30	1703.91
399.51	1714.15
399.71	1662.95
399.92	1716.20
400.13	1701.86
400.34	1705.96
400.54	1642.47
400.75	1810.40
400.96	1800.16
401.17	1746.92
401.37	1753.06
401.58	1708.01
401.79	1703.91
402.00	1824.74
402.21	2027.49
402.41	1927.14
402.62	1961.95
402.83	1949.67
403.04	1964.00
403.24	2074.59
403.45	1787.88
403.66	1912.80
403.87	1812.45
404.07	1906.66
404.28	1916.90
404.49	1884.13
404.70	1757.16
404.90	1837.03
405.11	1777.64
405.32	1779.68
405.52	1650.66
405.73	1689.57
405.94	1699.81
406.15	1708.01
406.35	1777.64
406.56	1798.12
406.77	1705.96
406.98	1771.49
407.18	1660.90
407.39	1812.45
407.60	1724.39
407.80	1755.11
408.01	1638.38
408.22	1759.21
408.43	1742.82
408.63	1699.81
408.84	1738.73
409.05	1755.11
409.25	1605.61
409.46	1632.23
409.67	1730.53
409.88	1679.33
410.08	1732.58
410.29	1689.57
410.50	1744.87
410.70	1724.39
410.91	1648.61
411.12	1773.54
411.32	1722.34
411.53	1597.42
411.74	1820.64
411.95	1779.68
412.15	1748.97
412.36	1763.30
412.57	1798.12
412.77	1871.84
412.98	1746.92
413.19	1761.25
413.39	1734.63
413.60	1769.44
413.81	1806.31
414.01	1710.05
414.22	1732.58
414.43	1794.02
414.63	1769.44
414.84	1853.41
415.05	1757.16
415.25	1652.71
415.46	1759.21
415.67	1656.81
415.87	1742.82
416.08	1726.44
416.29	1673.19
416.49	1699.81
416.70	1675.24
416.91	1691.62
417.11	1679.33
417.32	1798.12
417.53	1695.72
417.73	1765.35
417.94	1716.20
418.15	1718.25
418.35	1693.67
418.56	1705.96
418.77	1886.18
418.97	1646.57
419.18	1691.62
419.38	1576.94
419.59	1677.29
419.80	1800.16
420.00	1693.67
420.21	1759.21
420.42	1751.01
420.62	1730.53
420.83	1744.87
421.04	1710.05
421.24	1607.66
421.45	1791.97
421.65	1765.35
421.86	1669.09
422.07	1746.92
422.27	1767.40
422.48	1767.40
422.69	1685.48
422.89	1699.81
423.10	1677.29
423.30	1599.46
423.51	1783.78
423.72	1632.23
423.92	1773.54
424.13	1632.23
424.33	1738.73
424.54	1814.50
424.75	1755.11
424.95	1810.40
425.16	1771.49
425.36	1665.00
425.57	1800.16
425.78	1736.68
425.98	1781.73
426.19	1703.91
426.39	1644.52
426.60	1779.68
426.81	1869.80
427.01	1722.34
427.22	1632.23
427.42	1701.86
427.63	1687.53
427.83	1791.97
428.04	1843.17
428.25	1761.25
428.45	1763.30
428.66	1771.49
428.86	1716.20
429.07	1656.81
429.28	1771.49
429.48	1650.66
429.69	1681.38
429.89	1660.90
430.10	1689.57
430.30	1810.40
430.51	1806.31
430.71	1675.24
430.92	1748.97
431.13	1718.25
431.33	1765.35
431.54	1669.09
431.74	1832.93
431.95	1820.64
432.15	1658.85
432.36	1769.44
432.56	1746.92
432.77	1873.89
432.98	1855.46
433.18	1767.40
433.39	1658.85
433.59	1677.29
433.80	1773.54
434.00	1859.56
434.21	1652.71
434.41	1683.43
434.62	1929.19
434.82	1603.56
435.03	1619.94
435.23	1658.85
435.44	1669.09
435.64	1783.78
435.85	1699.81
436.06	1763.30
436.26	1781.73
436.47	1705.96
436.67	1697.77
436.88	1779.68
437.08	1734.63
437.29	1800.16
437.49	1787.88
437.70	1740.77
437.90	1726.44
438.11	1800.16
438.31	1765.35
438.52	1861.60
438.72	1890.28
438.93	1908.71
439.13	1812.45
439.34	1847.27
439.54	1720.29
439.75	1812.45
439.95	1675.24
440.16	1679.33
440.36	1724.39
440.57	1814.50
440.77	1753.06
440.98	1734.63
441.18	1763.30
441.39	1673.19
441.59	1683.43
441.80	1902.56
442.00	1730.53
442.21	1783.78
442.41	1689.57
442.62	1828.84
442.82	1738.73
443.02	1665.00
443.23	1755.11
443.43	1677.29
443.64	1837.03
443.84	1671.14
444.05	1810.40
444.25	1665.00
444.46	1632.23
444.66	1759.21
444.87	1837.03
445.07	1679.33
445.28	1726.44
445.48	1765.35
445.69	1714.15
445.89	1849.32
446.09	1738.73
446.30	2017.25
446.50	2639.83
446.71	3758.02
446.91	4124.61
447.12	4822.97
447.32	4767.67
447.53	4227.01
447.73	3833.80
447.93	3434.44
448.14	3327.95
448.34	3200.98
448.55	2926.55
448.75	2783.19
448.96	2607.06
449.16	2484.19
449.36	2303.96
449.57	2066.40
449.77	2009.06
449.98	1724.39
450.18	1777.64
450.39	1826.79
450.59	1755.11
450.79	1796.07
451.00	1671.14
451.20	1796.07
451.41	1701.86
451.61	1773.54
451.81	1724.39
452.02	1816.55
452.22	1712.10
452.43	1734.63
452.63	1722.34
452.84	1703.91
453.04	1718.25
453.24	1783.78
453.45	1695.72
453.65	1748.97
453.86	1720.29
454.06	1736.68
454.26	1746.92
454.47	1775.59
454.67	1839.08
454.87	1779.68
455.08	1726.44
455.28	1845.22
455.49	1757.16
455.69	1683.43
455.89	1796.07
456.10	1785.83
456.30	1679.33
456.51	1814.50
456.71	1734.63
456.91	1732.58
457.12	1759.21
457.32	1773.54
457.52	1761.25
457.73	1820.64
457.93	1800.16
458.14	1728.49
458.34	1699.81
458.54	1636.33
458.75	1777.64
458.95	1763.30
459.15	1830.88
459.36	1732.58
459.56	1660.90
459.76	1871.84
459.97	1763.30
460.17	1726.44
460.37	1785.83
460.58	1671.14
460.78	1736.68
460.99	1726.44
461.19	1708.01
461.39	1736.68
461.60	1722.34
461.80	1781.73
462.00	1708.01
462.21	1708.01
462.41	1607.66
462.61	1669.09
462.82	1636.33
463.02	1724.39
463.22	1767.40
463.43	1771.49
463.63	1732.58
463.83	1800.16
464.04	1769.44
464.24	1814.50
464.44	1722.34
464.64	1748.97
464.85	1789.92
465.05	1845.22
465.25	1761.25
465.46	1753.06
465.66	1804.26
465.86	1755.11
466.07	1742.82
466.27	1746.92
466.47	1624.04
466.68	1662.95
466.88	1828.84
467.08	1757.16
467.29	1810.40
467.49	1742.82
467.69	1656.81
467.89	1802.21
468.10	1718.25
468.30	1744.87
468.50	1818.60
468.71	1787.88
468.91	1617.90
469.11	1822.69
469.31	1806.31
469.52	1652.71
469.72	1812.45
469.92	1832.93
470.13	1748.97
470.33	1695.72
470.53	1880.04
470.73	2148.32
470.94	2263.01
471.14	2338.78
471.34	2494.43
471.54	2381.79
471.75	2127.84
471.95	2144.22
472.15	2017.25
472.36	2074.59
472.56	2037.73
472.76	2035.68
472.96	2015.20
473.17	2035.68
473.37	1966.05
473.57	1800.16
473.77	1837.03
473.98	1669.09
474.18	1593.32
474.38	1837.03
474.58	1732.58
474.79	1798.12
474.99	1720.29
475.19	1800.16
475.39	1712.10
475.60	1738.73
475.80	1748.97
476.00	1746.92
476.20	1734.63
476.41	1738.73
476.61	1751.01
476.81	1855.46
477.01	1746.92
477.21	1830.88
477.42	1865.70
477.62	1611.75
477.82	1816.55
478.02	1673.19
478.23	1798.12
478.43	1724.39
478.63	1710.05
478.83	1648.61
479.03	1724.39
479.24	1837.03
479.44	1816.55
479.64	1636.33
479.84	1589.22
480.04	1726.44
480.25	1826.79
480.45	1665.00
480.65	1841.12
480.85	1812.45
481.06	1714.15
481.26	1759.21
481.46	1773.54
481.66	1785.83
481.86	1703.91
482.06	1814.50
482.27	1794.02
482.47	1759.21
482.67	1736.68
482.87	1697.77
483.07	1812.45
483.28	1708.01
483.48	1617.90
483.68	1708.01
483.88	1734.63
484.08	1585.13
484.29	1642.47
484.49	1830.88
484.69	1613.80
484.89	1851.36
485.09	1779.68
485.29	1689.57
485.50	1798.12
485.70	1699.81
485.90	1759.21
486.10	1767.40
486.30	1722.34
486.50	1794.02
486.71	1681.38
486.91	1796.07
487.11	1822.69
487.31	1685.48
487.51	1767.40
487.71	1669.09
487.91	1689.57
488.12	1652.71
488.32	1583.08
488.52	1732.58
488.72	1683.43
488.92	1695.72
489.12	1751.01
489.32	1904.61
489.53	1716.20
489.73	1652.71
489.93	1837.03
490.13	1695.72
490.33	1665.00
490.53	1744.87
490.73	1787.88
490.94	1701.86
491.14	1779.68
491.34	1787.88
491.54	2066.40
491.74	2535.39
491.94	2963.41
492.14	3030.99
492.34	2967.51
492.54	2856.92
492.75	2414.56
492.95	2435.03
493.15	2326.49
493.35	2252.77
493.55	2187.23
493.75	2125.79
493.95	2099.17
494.15	2035.68
494.35	1875.94
494.56	1880.04
494.76	1705.96
494.96	1814.50
495.16	1789.92
495.36	1695.72
495.56	1755.11
495.76	1767.40
495.96	1687.53
496.16	1703.91
496.36	1765.35
496.56	1763.30
496.77	1708.01
496.97	1744.87
497.17	1839.08
497.37	1665.00
497.57	1779.68
497.77	1781.73
497.97	1607.66
498.17	1703.91
498.37	1724.39
498.57	1726.44
498.77	1689.57
498.97	1812.45
499.17	1910.75
499.38	1789.92
499.58	1763.30
499.78	1851.36
499.98	1769.44
500.18	1751.01
500.38	1767.40
500.58	1931.23
500.78	2527.19
500.98	4560.83
501.18	5703.59
501.38	6674.33
501.58	7006.10
501.78	6551.45
501.98	5433.26
502.18	4847.54
502.38	4392.89
502.58	3905.48
502.78	3669.96
502.98	3559.37
503.18	3461.07
503.38	3133.39
503.59	2754.52
503.79	2695.13
503.99	2504.67
504.19	2252.77
504.39	2189.28
504.59	2176.99
504.79	2131.94
504.99	2136.03
505.19	1892.32
505.39	1925.09
505.59	1933.28
505.79	1892.32
505.99	1918.95
506.19	1820.64
506.39	1920.99
506.59	1767.40
506.79	1804.26
506.99	1824.74
507.19	1869.80
507.39	1710.05
507.59	1710.05
507.79	1722.34
507.99	1693.67
508.19	1767.40
508.39	1769.44
508.59	1714.15
508.79	1787.88
508.99	1851.36
509.19	1722.34
509.39	1705.96
509.59	1660.90
509.79	1681.38
509.99	1812.45
510.19	1865.70
510.39	1824.74
510.59	1767.40
510.79	1710.05
510.99	1642.47
511.19	1722.34
511.39	1804.26
511.59	1845.22
511.79	1789.92
511.99	1769.44
512.19	1898.47
512.38	1769.44
512.58	1712.10
512.78	1802.21
512.98	1824.74
513.18	1822.69
513.38	1671.14
513.58	1820.64
513.78	1730.53
513.98	1710.05
514.18	1718.25
514.38	1677.29
514.58	1703.91
514.78	1787.88
514.98	1685.48
515.18	1744.87
515.38	1724.39
515.58	1877.99
515.78	1755.11
515.98	1757.16
516.18	1738.73
516.38	1738.73
516.57	1636.33
516.77	1722.34
516.97	1853.41
517.17	1755.11
517.37	1558.50
517.57	1824.74
517.77	1677.29
517.97	1746.92
518.17	1763.30
518.37	1677.29
518.57	1722.34
518.77	1751.01
518.97	1671.14
519.16	1796.07
519.36	1931.23
519.56	1740.77
519.76	1675.24
519.96	1775.59
520.16	1798.12
520.36	1724.39
520.56	1806.31
520.76	1693.67
520.96	1748.97
521.16	1767.40
521.35	1810.40
521.55	1822.69
521.75	1767.40
521.95	1765.35
522.15	1705.96
522.35	1652.71
522.55	1769.44
522.75	1787.88
522.95	1679.33
523.14	1628.14
523.34	1734.63
523.54	1730.53
523.74	1744.87
523.94	1660.90
524.14	1675.24
524.34	1787.88
524.54	1822.69
524.73	1714.15
524.93	1779.68
525.13	1789.92
525.33	1751.01
525.53	1820.64
525.73	1771.49
525.93	1804.26
526.13	1667.05
526.32	1632.23
526.52	1796.07
526.72	1796.07
526.92	1781.73
527.12	1773.54
527.32	1675.24
527.52	1775.59
527.71	1785.83
527.91	1748.97
528.11	1701.86
528.31	1718.25
528.51	1671.14
528.71	1789.92
528.90	1820.64
529.10	1785.83
529.30	1839.08
529.50	1640.42
529.70	1738.73
529.90	1732.58
530.09	1771.49
530.29	1654.76
530.49	1757.16
530.69	1931.23
530.89	1695.72
531.09	1861.60
531.28	1722.34
531.48	1779.68
531.68	1767.40
531.88	1759.21
532.08	1730.53
532.28	1726.44
532.47	1832.93
532.67	1779.68
532.87	1773.54
533.07	1748.97
533.27	1767.40
533.46	1804.26
533.66	1757.16
533.86	1718.25
534.06	1681.38
534.26	1693.67
534.45	1697.77
534.65	1855.46
534.85	1810.40
535.05	1665.00
535.25	1804.26
535.44	1722.34
535.64	1791.97
535.84	1783.78
536.04	1687.53
536.24	1662.95
536.43	1650.66
536.63	1828.84
536.83	1732.58
537.03	1683.43
537.22	1701.86
537.42	1638.38
537.62	1734.63
537.82	1796.07
538.02	1830.88
538.21	1771.49
538.41	1888.23
538.61	1728.49
538.81	1787.88
539.00	1820.64
539.20	1677.29
539.40	1757.16
539.60	1726.44
539.79	1742.82
539.99	1742.82
540.19	1646.57
540.39	1703.91
540.58	1748.97
540.78	1890.28
540.98	1738.73
541.18	1816.55
541.37	1830.88
541.57	1800.16
541.77	1724.39
541.97	1693.67
542.16	1648.61
542.36	1740.77
542.56	1763.30
542.76	1873.89
542.95	1796.07
543.15	1755.11
543.35	1742.82
543.54	1714.15
543.74	1751.01
543.94	1867.75
544.14	1705.96
544.33	1859.56
544.53	1685.48
544.73	1757.16
544.93	1716.20
545.12	1748.97
545.32	1789.92
545.52	1732.58
545.71	1667.05
545.91	1751.01
546.11	1791.97
546.30	1599.46
546.50	1796.07
546.70	1771.49
546.90	1787.88
547.09	1671.14
547.29	1787.88
547.49	1748.97
547.68	1787.88
547.88	1646.57
548.08	1710.05
548.27	2236.38
548.47	1673.19
548.67	1617.90
548.87	1816.55
549.06	1689.57
549.26	1779.68
549.46	1740.77
549.65	1755.11
549.85	1734.63
550.05	1730.53
550.24	1710.05
550.44	1763.30
550.64	1738.73
550.83	1765.35
551.03	1775.59
551.23	1781.73
551.42	1771.49
551.62	1757.16
551.82	1806.31
552.01	1777.64
552.21	1767.40
552.41	1785.83
552.60	1841.12
552.80	1779.68
553.00	1748.97
553.19	1804.26
553.39	1861.60
553.59	1740.77
553.78	1822.69
553.98	1710.05
554.17	1701.86
554.37	1763.30
554.57	1822.69
554.76	1679.33
554.96	1730.53
555.16	1771.49
555.35	1761.25
555.55	1771.49
555.75	1826.79
555.94	1791.97
556.14	1693.67
556.33	1785.83
556.53	1761.25
556.73	1712.10
556.92	1783.78
557.12	1888.23
557.32	1888.23
557.51	1880.04
557.71	1839.08
557.90	1877.99
558.10	1830.88
558.30	1705.96
558.49	1765.35
558.69	1722.34
558.88	1697.77
559.08	1744.87
559.28	1767.40
559.47	1697.77
559.67	1796.07
559.86	1820.64
560.06	1798.12
560.26	1773.54
560.45	1761.25
560.65	1722.34
560.84	1808.36
561.04	1693.67
561.24	1755.11
561.43	1746.92
561.63	1820.64
561.82	1851.36
562.02	1794.02
562.22	1656.81
562.41	1781.73
562.61	1732.58
562.80	1757.16
563.00	1867.75
563.19	1859.56
563.39	1738.73
563.59	1714.15
563.78	1699.81
563.98	1681.38
564.17	1757.16
564.37	1728.49
564.56	1753.06
564.76	1757.16
564.96	1822.69
565.15	1783.78
565.35	1920.99
565.54	1697.77
565.74	1826.79
565.93	1761.25
566.13	1767.40
566.32	1779.68
566.52	1845.22
566.71	1767.40
566.91	1777.64
567.11	1783.78
567.30	1689.57
567.50	1748.97
567.69	1732.58
567.89	1800.16
568.08	1728.49
568.28	1794.02
568.47	1724.39
568.67	1742.82
568.86	1720.29
569.06	1785.83
569.25	1734.63
569.45	1773.54
569.64	1712.10
569.84	1738.73
570.04	1746.92
570.23	1800.16
570.43	1673.19
570.62	1734.63
570.82	1851.36
571.01	1736.68
571.21	1728.49
571.40	1630.18
571.60	1703.91
571.79	1740.77
571.99	1740.77
572.18	1665.00
572.38	1783.78
572.57	1785.83
572.77	1789.92
572.96	1880.04
573.16	1765.35
573.35	1712.10
573.55	1900.52
573.74	1740.77
573.94	1724.39
574.13	1789.92
574.33	1843.17
574.52	1759.21
574.71	1794.02
574.91	1755.11
575.10	1683.43
575.30	1654.76
575.49	1689.57
575.69	1767.40
575.88	1789.92
576.08	1734.63
576.27	1773.54
576.47	1767.40
576.66	1859.56
576.86	1857.51
577.05	1789.92
577.25	1791.97
577.44	1859.56
577.64	1697.77
577.83	1751.01
578.02	1779.68
578.22	1808.36
578.41	1880.04
578.61	1796.07
578.80	1617.90
579.00	1736.68
579.19	1718.25
579.39	1779.68
579.58	1808.36
579.77	1683.43
579.97	1814.50
580.16	1851.36
580.36	1781.73
580.55	1832.93
580.75	1832.93
580.94	1796.07
581.13	1816.55
581.33	1816.55
581.52	1759.21
581.72	1890.28
581.91	1806.31
582.11	1757.16
582.30	1849.32
582.49	1796.07
582.69	1839.08
582.88	1787.88
583.08	1769.44
583.27	1761.25
583.47	1779.68
583.66	1783.78
583.85	1691.62
584.05	1697.77
584.24	1818.60
584.44	1800.16
584.63	1824.74
584.82	1896.42
585.02	1853.41
585.21	1834.98
585.41	1806.31
585.60	1816.55
585.79	1880.04
585.99	1943.52
586.18	1888.23
586.37	2222.05
586.57	3420.11
586.76	9705.32
586.96	23674.52
587.15	33140.23
587.34	39206.31
587.54	40787.35
587.73	34899.44
587.93	25298.56
588.12	20827.84
588.31	17893.10
588.51	15822.61
588.70	14634.78
588.89	13559.60
589.09	12070.73
589.28	10792.80
589.47	9099.13
589.67	7579.53
589.86	6111.14
590.06	4769.72
590.25	3876.80
590.44	3117.01
590.64	2615.26
590.83	2183.13
591.02	2158.56
591.22	1990.63
591.41	1912.80
591.60	1820.64
591.80	1923.04
591.99	1769.44
592.18	1787.88
592.38	1849.32
592.57	1734.63
592.76	1818.60
592.96	1751.01
593.15	1763.30
593.34	1832.93
593.54	1818.60
593.73	1863.65
593.92	1869.80
594.12	1794.02
594.31	1757.16
594.50	1818.60
594.70	1812.45
594.89	1920.99
595.08	1748.97
595.28	1785.83
595.47	1935.33
595.66	1834.98
595.86	1710.05
596.05	1699.81
596.24	1755.11
596.43	1816.55
596.63	1886.18
596.82	1828.84
597.01	1775.59
597.21	1832.93
597.40	1695.72
597.59	1763.30
597.79	1738.73
597.98	1734.63
598.17	1812.45
598.36	1798.12
598.56	1716.20
598.75	1820.64
598.94	1857.51
599.14	1820.64
599.33	1681.38
599.52	1775.59
599.71	1828.84
599.91	1812.45
600.10	1824.74
600.29	1720.29
600.48	1843.17
600.68	1779.68
600.87	1705.96
601.06	1671.14
601.26	1732.58
601.45	1738.73
601.64	1720.29
601.83	1775.59
602.03	1787.88
602.22	1695.72
602.41	1785.83
602.60	1937.38
602.80	1767.40
602.99	1755.11
603.18	1726.44
603.37	1746.92
603.57	1808.36
603.76	1796.07
603.95	1820.64
604.14	1679.33
604.34	1675.24
604.53	1773.54
604.72	1841.12
604.91	1822.69
605.10	1759.21
605.30	1693.67
605.49	1816.55
605.68	1896.42
605.87	1712.10
606.07	1763.30
606.26	1810.40
606.45	1791.97
606.64	1681.38
606.84	1759.21
607.03	1738.73
607.22	1837.03
607.41	1726.44
607.60	1677.29
607.80	1816.55
607.99	1658.85
608.18	1697.77
608.37	1732.58
608.56	1671.14
608.76	1796.07
608.95	1824.74
609.14	1736.68
609.33	1849.32
609.52	1775.59
609.72	1783.78
609.91	1804.26
610.10	1734.63
610.29	1869.80
610.48	1806.31
610.68	1757.16
610.87	1673.19
611.06	1822.69
611.25	1757.16
611.44	1894.37
611.63	1710.05
611.83	1857.51
612.02	1732.58
612.21	1732.58
612.40	1714.15
612.59	1673.19
612.79	1671.14
612.98	1699.81
613.17	1779.68
613.36	1751.01
613.55	1861.60
613.74	1667.05
613.93	1767.40
614.13	1714.15
614.32	1773.54
614.51	1708.01
614.70	1765.35
614.89	1716.20
615.08	1798.12
615.28	2013.15
615.47	1632.23
615.66	1757.16
615.85	1769.44
616.04	1845.22
616.23	1697.77
616.42	1669.09
616.62	1814.50
616.81	1804.26
617.00	1726.44
617.19	1755.11
617.38	1744.87
617.57	1816.55
617.76	1796.07
617.95	1734.63
618.15	1806.31
618.34	1818.60
618.53	1693.67
618.72	1773.54
618.91	1812.45
619.10	1785.83
619.29	1710.05
619.48	1679.33
619.68	1728.49
619.87	1761.25
620.06	1671.14
620.25	1751.01
620.44	1656.81
620.63	1708.01
620.82	1765.35
621.01	1787.88
621.20	1773.54
621.39	1736.68
621.59	1837.03
621.78	1685.48
621.97	1699.81
622.16	1820.64
622.35	1728.49
622.54	1759.21
622.73	1767.40
622.92	1650.66
623.11	1787.88
623.30	1701.86
623.49	1783.78
623.68	1718.25
623.88	1779.68
624.07	1662.95
624.26	1734.63
624.45	1738.73
624.64	1718.25
624.83	1714.15
625.02	1763.30
625.21	1738.73
625.40	1746.92
625.59	1785.83
625.78	1751.01
625.97	1810.40
626.16	1771.49
626.35	1771.49
626.54	1802.21
626.74	1841.12
626.93	1691.62
627.12	1767.40
627.31	1816.55
627.50	1783.78
627.69	1871.84
627.88	1710.05
628.07	1609.70
628.26	1703.91
628.45	1671.14
628.64	1628.14
628.83	1720.29
629.02	1677.29
629.21	1763.30
629.40	1767.40
629.59	1669.09
629.78	1673.19
629.97	1771.49
630.16	1761.25
630.35	1751.01
630.54	1691.62
630.73	1705.96
630.92	1685.48
631.11	1716.20
631.30	1734.63
631.49	1785.83
631.68	1744.87
631.87	1789.92
632.06	1710.05
632.25	1802.21
632.44	1755.11
632.63	1689.57
632.82	1767.40
633.01	1671.14
633.20	1693.67
633.39	1712.10
633.58	1591.27
633.77	1781.73
633.96	1730.53
634.15	1751.01
634.34	1683.43
634.53	1701.86
634.72	1669.09
634.91	1636.33
635.10	1812.45
635.29	1837.03
635.48	1730.53
635.67	1714.15
635.86	1595.37
636.05	1740.77
636.24	1753.06
636.43	1728.49
636.62	1673.19
636.81	1593.32
637.00	1757.16
637.19	1779.68
637.38	1765.35
637.57	1693.67
637.76	1681.38
637.95	1791.97
638.14	1673.19
638.33	1718.25
638.52	1742.82
638.71	1656.81
638.89	1605.61
639.08	1937.38
639.27	1839.08
639.46	1730.53
639.65	1804.26
639.84	1724.39
640.03	1783.78
640.22	1781.73
640.41	1843.17
640.60	1632.23
640.79	1658.85
640.98	1716.20
641.17	1857.51
641.36	1757.16
641.55	1808.36
641.74	1621.99
641.92	1669.09
642.11	1654.76
642.30	1787.88
642.49	1597.42
642.68	1660.90
642.87	1695.72
643.06	1740.77
643.25	1714.15
643.44	1697.77
643.63	1689.57
643.82	1718.25
644.00	1783.78
644.19	1683.43
644.38	1695.72
644.57	1763.30
644.76	1703.91
644.95	1710.05
645.14	1783.78
645.33	1771.49
645.52	1744.87
645.71	1667.05
645.89	1642.47
646.08	1748.97
646.27	1722.34
646.46	1843.17
646.65	1601.51
646.84	1705.96
647.03	1722.34
647.22	1779.68
647.40	1738.73
647.59	1720.29
647.78	1603.56
647.97	1646.57
648.16	1619.94
648.35	1808.36
648.54	1781.73
648.73	1669.09
648.91	1751.01
649.10	1705.96
649.29	1693.67
649.48	1746.92
649.67	1722.34
649.86	1685.48
650.05	1652.71
650.23	1701.86
650.42	1654.76
650.61	1783.78
650.80	1767.40
650.99	1933.28
651.18	1646.57
651.36	1806.31
651.55	1687.53
651.74	1806.31
651.93	1665.00
652.12	1773.54
652.31	1769.44
652.49	1689.57
652.68	1767.40
652.87	1820.64
653.06	1710.05
653.25	1894.37
653.44	1763.30
653.62	1773.54
653.81	1712.10
654.00	1759.21
654.19	1767.40
654.38	1812.45
654.56	1806.31
654.75	1703.91
654.94	1794.02
655.13	1755.11
655.32	1734.63
655.51	1832.93
655.69	1726.44
655.88	1787.88
656.07	1630.18
656.26	1720.29
656.45	1718.25
656.63	1757.16
656.82	1777.64
657.01	1740.77
657.20	1755.11
657.38	1796.07
657.57	1734.63
657.76	1677.29
657.95	1751.01
658.14	1675.24
658.32	1742.82
658.51	1689.57
658.70	1751.01
658.89	1708.01
659.08	1789.92
659.26	1777.64
659.45	1712.10
659.64	1732.58
659.83	1673.19
660.01	1914.85
660.20	1800.16
660.39	1873.89
660.58	1673.19
660.76	1847.27
660.95	1679.33
661.14	1724.39
661.33	1650.66
661.51	1720.29
661.70	1689.57
661.89	1796.07
662.08	1812.45
662.26	1697.77
662.45	1642.47
662.64	1812.45
662.83	1740.77
663.01	1673.19
663.20	1722.34
663.39	1783.78
663.58	1742.82
663.76	1689.57
663.95	1771.49
664.14	1712.10
664.32	1673.19
664.51	1681.38
664.70	1615.85
664.89	1791.97
665.07	1693.67
665.26	1761.25
665.45	1714.15
665.64	1736.68
665.82	1759.21
666.01	1746.92
666.20	1724.39
666.38	1787.88
666.57	1794.02
666.76	2314.20
666.95	4464.57
667.13	10125.16
667.32	14855.97
667.51	17372.92
667.69	18810.59
667.88	17043.20
668.07	11863.88
668.25	9179.00
668.44	7849.86
668.63	7196.56
668.81	6694.81
669.00	5982.12
669.19	5566.38
669.38	5070.77
669.56	4415.42
669.75	3901.38
669.94	3358.67
670.12	2826.20
670.31	2484.19
670.50	2277.34
670.68	2062.30
670.87	1886.18
671.06	1810.40
671.24	1820.64
671.43	1861.60
671.62	1748.97
671.80	1679.33
671.99	1783.78
672.18	1777.64
672.36	1736.68
672.55	1726.44
672.74	1744.87
672.92	1808.36
673.11	1738.73
673.29	1722.34
673.48	1830.88
673.67	1724.39
673.85	1736.68
674.04	1714.15
674.23	1767.40
674.41	1849.32
674.60	1675.24
674.79	1630.18
674.97	1667.05
675.16	1767.40
675.34	1771.49
675.53	1689.57
675.72	1783.78
675.90	1841.12
676.09	1652.71
676.28	1744.87
676.46	1611.75
676.65	1787.88
676.83	1740.77
677.02	1652.71
677.21	1724.39
677.39	1697.77
677.58	1669.09
677.77	1734.63
677.95	1689.57
678.14	1673.19
678.32	1683.43
678.51	1734.63
678.70	1871.84
678.88	1669.09
679.07	1796.07
679.25	1765.35
679.44	1771.49
679.63	1734.63
679.81	1726.44
680.00	1775.59
680.18	1816.55
680.37	1847.27
680.55	1773.54
680.74	1708.01
680.93	1621.99
681.11	1726.44
681.30	1705.96
681.48	1787.88
681.67	1763.30
681.85	1714.15
682.04	1683.43
682.23	1726.44
682.41	1654.76
682.60	1771.49
682.78	1748.97
682.97	1730.53
683.15	1652.71
683.34	1746.92
683.53	1767.40
683.71	1685.48
683.90	1806.31
684.08	1826.79
684.27	1708.01
684.45	1742.82
684.64	1734.63
684.82	1746.92
685.01	1804.26
685.19	1728.49
685.38	1822.69
685.57	1744.87
685.75	1705.96
685.94	1763.30
686.12	1740.77
686.31	1710.05
686.49	1785.83
686.68	1701.86
686.86	1712.10
687.05	1697.77
687.23	1755.11
687.42	1724.39
687.60	1615.85
687.79	1812.45
687.97	1783.78
688.16	1779.68
688.34	1753.06
688.53	1646.57
688.71	1773.54
688.90	1761.25
689.08	1726.44
689.27	1578.98
689.45	1806.31
689.64	1710.05
689.82	1742.82
690.01	1667.05
690.19	1755.11
690.38	1728.49
690.56	1738.73
690.75	1757.16
690.93	1697.77
691.12	1728.49
691.30	1740.77
691.49	1722.34
691.67	1689.57
691.86	1814.50
692.04	1771.49
692.23	1683.43
692.41	1638.38
692.60	1869.80
692.78	1748.97
692.97	1667.05
693.15	1783.78
693.34	1894.37
693.52	1800.16
693.71	1703.91
693.89	1689.57
694.08	1564.65
694.26	1757.16
694.44	1798.12
694.63	1730.53
694.81	1632.23
695.00	1669.09
695.18	1794.02
695.37	1861.60
695.55	1736.68
695.74	1644.52
695.92	1697.77
696.10	1771.49
696.29	1654.76
696.47	1660.90
696.66	1662.95
696.84	1681.38
697.03	1695.72
697.21	1855.46
697.40	2377.69
697.58	1740.77
697.76	1746.92
697.95	1697.77
698.13	1689.57
698.32	1726.44
698.50	1755.11
698.68	1800.16
698.87	1681.38
699.05	1822.69
699.24	1794.02
699.42	1714.15
699.61	1738.73
699.79	1763.30
699.97	1740.77
700.16	1683.43
700.34	1607.66
700.53	1787.88
700.71	1812.45
700.89	1699.81
701.08	1701.86
701.26	1718.25
701.45	2029.54
701.63	1665.00
701.81	1716.20
702.00	1669.09
702.18	1712.10
702.37	1771.49
702.55	1765.35
702.73	1779.68
702.92	1697.77
703.10	1779.68
703.28	1703.91
703.47	1691.62
703.65	1834.98
703.84	1736.68
704.02	1705.96
704.20	1771.49
704.39	1658.85
704.57	1751.01
704.75	1746.92
704.94	1765.35
705.12	1734.63
705.30	1738.73
705.49	2275.29
705.67	4425.66
705.86	9138.04
706.04	12197.70
706.22	13799.21
706.41	15040.28
706.59	13422.39
706.77	9258.87
706.96	7112.60
707.14	6377.37
707.32	5797.80
707.51	5271.47
707.69	4788.15
707.87	4052.93
708.06	3434.44
708.24	2815.96
708.42	2408.41
708.61	2306.01
708.79	1970.15
708.97	1824.74
709.16	1779.68
709.34	1714.15
709.52	1740.77
709.71	1834.98
709.89	1730.53
710.07	1652.71
710.26	1626.09
710.44	1759.21
710.62	1695.72
710.80	1728.49
710.99	1757.16
711.17	1765.35
711.35	1687.53
711.54	1644.52
711.72	1710.05
711.90	1763.30
712.09	1726.44
712.27	1779.68
712.45	1802.21
712.63	1742.82
712.82	1697.77
713.00	1691.62
713.18	1755.11
713.37	1789.92
713.55	1722.34
713.73	1716.20
713.91	1761.25
714.10	1722.34
714.28	1691.62
714.46	1751.01
714.65	1773.54
714.83	1710.05
715.01	1701.86
715.19	1757.16
715.38	1644.52
715.56	1777.64
715.74	1683.43
715.92	1638.38
716.11	1832.93
716.29	1621.99
716.47	1705.96
716.65	1710.05
716.84	1681.38
717.02	1728.49
717.20	1726.44
717.38	1673.19
717.57	1683.43
717.75	1779.68
717.93	1687.53
718.11	1685.48
718.30	1644.52
718.48	1769.44
718.66	1814.50
718.84	1783.78
719.03	1669.09
719.21	1650.66
719.39	1822.69
719.57	1656.81
719.75	1810.40
719.94	1767.40
720.12	1646.57
720.30	1771.49
720.48	1837.03
720.67	1763.30
720.85	1667.05
721.03	1695.72
721.21	1724.39
721.39	1785.83
721.58	1769.44
721.76	1730.53
721.94	1791.97
722.12	1759.21
722.30	1800.16
722.49	1718.25
722.67	1746.92
722.85	1775.59
723.03	1681.38
723.21	1718.25
723.40	1697.77
723.58	1722.34
723.76	1714.15
723.94	1830.88
724.12	1736.68
724.30	1738.73
724.49	1783.78
724.67	1597.42
724.85	1812.45
725.03	1665.00
725.21	1794.02
725.40	1773.54
725.58	1683.43
725.76	1845.22
725.94	1720.29
726.12	1697.77
726.30	1732.58
726.49	1767.40
726.67	1679.33
726.85	1703.91
727.03	1810.40
727.21	2217.95
727.39	2930.64
727.57	3653.58
727.76	4175.81
727.94	4302.78
728.12	4163.52
728.30	3686.34
728.48	2922.45
728.66	2658.26
728.84	2535.39
729.03	2260.96
729.21	2148.32
729.39	1976.29
729.57	1826.79
729.75	1804.26
729.93	1843.17
730.11	1716.20
730.30	1722.34
730.48	1761.25
730.66	1785.83
730.84	1804.26
731.02	1673.19
731.20	1658.85
731.38	1679.33
731.56	1695.72
731.74	1615.85
731.93	1695.72
732.11	1708.01
732.29	1695.72
732.47	1722.34
732.65	1685.48
732.83	1808.36
733.01	1761.25
733.19	1701.86
733.37	1847.27
733.56	1742.82
733.74	1677.29
733.92	1818.60
734.10	1732.58
734.28	1779.68
734.46	1646.57
734.64	1679.33
734.82	1671.14
735.00	1720.29
735.18	1777.64
735.36	1746.92
735.54	1669.09
735.73	1771.49
735.91	1775.59
736.09	1771.49
736.27	1816.55
736.45	1810.40
736.63	1609.70
736.81	1738.73
736.99	1789.92
737.17	1855.46
737.35	1683.43
737.53	1681.38
737.71	1685.48
737.89	1798.12
738.07	1654.76
738.25	1607.66
738.43	1677.29
738.61	1617.90
738.80	1705.96
738.98	1701.86
739.16	1638.38
739.34	1710.05
739.52	1738.73
739.70	1687.53
739.88	1734.63
740.06	1787.88
740.24	1576.94
740.42	1755.11
740.60	1628.14
740.78	1660.90
740.96	1652.71
741.14	1701.86
741.32	1808.36
741.50	1642.47
741.68	1845.22
741.86	1800.16
742.04	1624.04
742.22	1691.62
742.40	1769.44
742.58	1763.30
742.76	1630.18
742.94	1763.30
743.12	1605.61
743.30	1714.15
743.48	1734.63
743.66	1712.10
743.84	1759.21
744.02	1732.58
744.20	1746.92
744.38	1660.90
744.56	1703.91
744.74	1716.20
744.92	1722.34
745.10	1808.36
745.28	1697.77
745.46	1810.40
745.64	1665.00
745.82	1820.64
746.00	1730.53
746.18	1744.87
746.36	1697.77
746.54	1791.97
746.72	1718.25
746.90	1673.19
747.08	1791.97
747.26	1638.38
747.44	1765.35
747.62	1675.24
747.80	1660.90
747.98	1759.21
748.15	1689.57
748.33	1869.80
748.51	1687.53
748.69	1820.64
748.87	1675.24
749.05	1712.10
749.23	1732.58
749.41	1718.25
749.59	1726.44
749.77	1787.88
749.95	1677.29
750.13	1644.52
750.31	1701.86
750.49	1701.86
750.67	1841.12
750.85	1845.22
751.03	1724.39
751.20	1853.41
751.38	1710.05
751.56	1599.46
751.74	1720.29
751.92	1720.29
752.10	1771.49
752.28	1748.97
752.46	1681.38
752.64	1685.48
752.82	1728.49
753.00	1847.27
753.18	1693.67
753.35	1669.09
753.53	1658.85
753.71	1667.05
753.89	1779.68
754.07	1718.25
754.25	1746.92
754.43	1669.09
754.61	1673.19
754.79	1738.73
754.97	1730.53
755.14	1806.31
755.32	1701.86
755.50	1724.39
755.68	1755.11
755.86	1613.80
756.04	1695.72
756.22	1566.70
756.40	1798.12
756.57	1867.75
756.75	1654.76
756.93	1814.50
757.11	1798.12
757.29	1654.76
757.47	1734.63
757.65	1593.32
757.82	1621.99
758.00	1677.29
758.18	1718.25
758.36	1677.29
758.54	1789.92
758.72	1695.72
758.90	1812.45
759.07	1726.44
759.25	1665.00
759.43	1773.54
759.61	1697.77
759.79	2152.42
759.97	1726.44
760.15	1712.10
760.32	1732.58
760.50	1755.11
760.68	1767.40
760.86	1611.75
761.04	1732.58
761.22	1703.91
761.39	1658.85
761.57	1748.97
761.75	1724.39
761.93	1751.01
762.11	1755.11
762.28	1669.09
762.46	1665.00
762.64	1767.40
762.82	1673.19
763.00	1677.29
763.18	1796.07
763.35	1630.18
763.53	1777.64
763.71	1671.14
763.89	1738.73
764.07	1724.39
764.24	1677.29
764.42	1781.73
764.60	1654.76
764.78	1746.92
764.96	1746.92
765.13	1689.57
765.31	1654.76
765.49	1783.78
765.67	1720.29
765.84	1710.05
766.02	1591.27
766.20	1601.51
766.38	1724.39
766.56	1789.92
766.73	1748.97
766.91	1701.86
767.09	1765.35
767.27	1789.92
767.44	1675.24
767.62	1779.68
767.80	1705.96
767.98	1732.58
768.15	1699.81
768.33	1748.97
768.51	1714.15
768.69	1722.34
768.87	1742.82
769.04	1677.29
769.22	1820.64
769.40	1789.92
769.58	1855.46
769.75	1734.63
769.93	1800.16
770.11	1703.91
770.28	1708.01
770.46	1701.86
770.64	1753.06
770.82	1720.29
770.99	1783.78
771.17	1779.68
771.35	1683.43
771.53	1673.19
771.70	1683.43
771.88	1755.11
772.06	1714.15
772.23	1748.97
772.41	1675.24
772.59	1710.05
772.77	1632.23
772.94	1652.71
773.12	1695.72
773.30	1683.43
773.47	1693.67
773.65	1693.67
773.83	1779.68
774.01	1626.09
774.18	1683.43
774.36	1728.49
774.54	1665.00
774.71	1806.31
774.89	1701.86
775.07	1660.90
775.24	1722.34
775.42	1675.24
775.60	1892.32
775.78	1714.15
775.95	1656.81
776.13	1632.23
776.31	1595.37
776.48	1716.20
776.66	1732.58
776.84	1679.33
777.01	1720.29
777.19	1652.71
777.37	1708.01
777.54	1763.30
777.72	1804.26
777.90	1699.81
778.07	1701.86
778.25	1785.83
778.43	1728.49
778.60	1607.66
778.78	1812.45
778.96	1763.30
779.13	1691.62
779.31	1724.39
779.49	1718.25
779.66	1746.92
779.84	1759.21
780.01	1697.77
780.19	1601.51
780.37	1744.87
780.54	1753.06
780.72	1628.14
780.90	1669.09
781.07	1689.57
781.25	1673.19
781.43	1808.36
781.60	1691.62
781.78	1804.26
781.95	1687.53
782.13	1671.14
782.31	1746.92
782.48	1621.99
782.66	1734.63
782.83	1820.64
783.01	1798.12
783.19	1736.68
783.36	1673.19
783.54	1660.90
783.72	1767.40
783.89	1726.44
784.07	1755.11
784.24	1691.62
784.42	1759.21
784.60	1744.87
784.77	1681.38
784.95	1619.94
785.12	1644.52
785.30	1759.21
785.47	1609.70
785.65	1673.19
785.83	1697.77
786.00	1654.76
786.18	1753.06
786.35	1624.04
786.53	1671.14
786.71	1791.97
786.88	1781.73
787.06	1757.16
787.23	1724.39
787.41	1640.42
787.58	1708.01
787.76	1685.48
787.94	1775.59
788.11	1716.20
788.29	1646.57
788.46	1617.90
788.64	1578.98
788.81	1703.91
788.99	1642.47
789.16	1742.82
789.34	1671.14
789.52	1681.38
789.69	1728.49
789.87	1624.04
790.04	1630.18
790.22	1689.57
790.39	1867.75
790.57	1662.95
790.74	1710.05
790.92	1630.18
791.09	1558.50
791.27	1759.21
791.44	1742.82
791.62	1644.52
791.79	1834.98
791.97	1738.73
792.15	1908.71
792.32	1720.29
792.50	1820.64
792.67	1746.92
792.85	1814.50
793.02	1714.15
793.20	1740.77
793.37	1687.53
793.55	1689.57
793.72	1634.28
793.90	1802.21
794.07	1691.62
794.25	1669.09
794.42	1597.42
794.60	1683.43
794.77	1714.15
794.95	1691.62
795.12	1734.63
795.30	1699.81
795.47	1644.52
795.65	1873.89
795.82	1677.29
796.00	1726.44
796.17	1685.48
796.34	1669.09
796.52	1726.44
796.69	1861.60
796.87	1689.57
797.04	1730.53
797.22	1748.97
797.39	1781.73
797.57	1751.01
797.74	1720.29
797.92	1693.67
798.09	1738.73
798.27	1746.92
798.44	1789.92
798.62	1589.22
798.79	1642.47
798.96	1724.39
799.14	1744.87
799.31	1843.17
799.49	1730.53
799.66	1732.58
799.84	1759.21
800.01	1632.23
800.19	1716.20
800.36	1605.61
800.53	1777.64
800.71	1751.01
800.88	1746.92
801.06	1695.72
801.23	1679.33
801.41	1720.29
801.58	1740.77
801.75	1636.33
801.93	1722.34
802.10	1744.87
802.28	1615.85
802.45	1705.96
802.63	1732.58
802.80	1787.88
802.97	1679.33
803.15	1740.77
803.32	1740.77
803.50	1691.62
803.67	1751.01
803.84	1640.42
804.02	1734.63
804.19	1691.62
804.37	1585.13
804.54	1632.23
804.71	1708.01
804.89	1689.57
805.06	1714.15
805.24	1624.04
805.41	1669.09
805.58	1685.48
805.76	1830.88
805.93	1691.62
806.10	1845.22
806.28	1724.39
806.45	1732.58
806.63	1767.40
806.80	1701.86
806.97	1720.29
807.15	1626.09
807.32	1730.53
807.49	1673.19
807.67	1568.74
807.84	1730.53
808.01	1613.80
808.19	1787.88
808.36	1810.40
808.54	1687.53
808.71	1615.85
808.88	1734.63
809.06	1755.11
809.23	1775.59
809.40	1683.43
809.58	1759.21
809.75	1738.73
809.92	1677.29
810.10	1830.88
810.27	1734.63
810.44	1689.57
810.62	1765.35
810.79	1714.15
810.96	1624.04
811.14	1671.14
811.31	1765.35
811.48	1730.53
811.66	1642.47
811.83	1822.69
812.00	1759.21
812.18	1767.40
812.35	1777.64
812.52	1724.39
812.69	1724.39
812.87	1697.77
813.04	1689.57
813.21	1691.62
813.39	1730.53
813.56	1654.76
813.73	1771.49
813.91	1652.71
814.08	1640.42
814.25	1732.58
814.42	1652.71
814.60	1685.48
814.77	1767.40
814.94	1665.00
815.12	1703.91
815.29	1783.78
815.46	1656.81
815.63	1681.38
815.81	1736.68
815.98	1691.62
816.15	1767.40
816.33	1738.73
816.50	1718.25
816.67	1740.77
816.84	1755.11
817.02	1650.66
817.19	1607.66
817.36	1705.96
817.53	1751.01
817.71	1675.24
817.88	1822.69
818.05	1673.19
818.22	1597.42
818.40	1820.64
818.57	1671.14
818.74	1746.92
818.91	1712.10
819.09	1732.58
819.26	1734.63
819.43	1722.34
819.60	1687.53
819.78	1710.05
819.95	1806.31
820.12	1677.29
820.29	1796.07
820.47	1705.96
820.64	1671.14
820.81	1597.42
820.98	1636.33
821.15	1744.87
821.33	1734.63
821.50	1626.09
821.67	1701.86
821.84	1675.24
822.02	1787.88
822.19	1732.58
822.36	1722.34
822.53	1765.35
822.70	1673.19
822.88	1716.20
823.05	1824.74
823.22	1683.43
823.39	1765.35
823.56	1677.29
823.74	1796.07
823.91	1650.66
824.08	1667.05
824.25	1624.04
824.42	1886.18
824.60	1646.57
824.77	1708.01
824.94	1701.86
825.11	1742.82
825.28	1599.46
825.45	1734.63
825.63	1677.29
825.80	1734.63
825.97	1689.57
826.14	1755.11
826.31	1611.75
826.48	1765.35
826.66	1675.24
826.83	1794.02
827.00	1726.44
827.17	1685.48
827.34	1691.62
827.51	1701.86
827.69	1726.44
827.86	1667.05
828.03	1671.14
828.20	1699.81
828.37	1613.80
828.54	1810.40
828.71	1671.14
828.89	1830.88
829.06	1705.96
829.23	1841.12
829.40	1701.86
829.57	1671.14
829.74	1712.10
829.91	1720.29
830.09	1671.14
830.26	1761.25
830.43	1742.82
830.60	1695.72
830.77	1722.34
830.94	1765.35
831.11	1679.33
831.28	1716.20
831.46	1763.30
831.63	1654.76
831.80	1722.34
831.97	1677.29
832.14	1638.38
832.31	1744.87
832.48	1794.02
832.65	1738.73
832.82	1822.69
832.99	1771.49
833.17	1656.81
833.34	1800.16
833.51	1755.11
833.68	1626.09
833.85	1763.30
834.02	1671.14
834.19	1654.76
834.36	1677.29
834.53	1730.53
834.70	1810.40
834.87	1748.97
835.04	1771.49
835.22	1621.99
835.39	1656.81
835.56	1619.94
835.73	1710.05
835.90	1730.53
836.07	1667.05
836.24	1722.34
836.41	1644.52
836.58	1691.62
836.75	1759.21
836.92	1695.72
837.09	1697.77
837.26	1738.73
837.43	1761.25
837.60	1763.30
837.77	1716.20
837.94	1755.11
838.12	1781.73
838.29	1757.16
838.46	1662.95
838.63	1652.71
838.80	1751.01
838.97	1806.31
839.14	1730.53
839.31	1724.39
839.48	1734.63
839.65	1769.44
839.82	1816.55
839.99	1806.31
840.16	1726.44
840.33	1685.48
840.50	1705.96
840.67	1615.85
840.84	1615.85
841.01	1748.97
841.18	1683.43
841.35	1728.49
841.52	1755.11
841.69	1775.59
841.86	1742.82
842.03	1701.86
842.20	1726.44
842.37	1703.91
842.54	1691.62
842.71	1763.30
842.88	1665.00
843.05	1712.10
843.22	1685.48
843.39	1771.49
843.56	1757.16
843.73	1699.81
843.90	1732.58
844.07	1718.25
844.24	1773.54
844.41	1720.29
844.58	1751.01
844.75	1744.87
844.92	1732.58
845.09	1757.16
845.26	1675.24
845.43	1773.54
845.60	1658.85
845.77	1779.68
845.94	1740.77
846.10	1759.21
846.27	1658.85
846.44	1736.68
846.61	1654.76
846.78	1722.34
846.95	1826.79
847.12	1689.57
847.29	1667.05
847.46	1703.91
847.63	1785.83
847.80	1544.17
847.97	1746.92
848.14	1845.22
848.31	1675.24
848.48	1597.42
848.65	1679.33
848.82	1656.81
848.98	1800.16
849.15	1667.05
849.32	1732.58
849.49	1746.92
849.66	1697.77
849.83	1808.36
850.00	1669.09
850.17	1665.00
850.34	1730.53
850.51	1636.33
850.68	1675.24
850.85	1857.51
851.01	1761.25
851.18	1697.77
851.35	1755.11
851.52	1759.21
851.69	1785.83
851.86	1578.98
852.03	1699.81
852.20	1783.78
852.37	1656.81
852.53	1613.80
852.70	1705.96
852.87	1685.48
853.04	1738.73
853.21	1710.05
853.38	1736.68
853.55	1757.16
853.72	1818.60
853.89	1652.71
854.05	1642.47
854.22	1681.38
854.39	1675.24
854.56	1777.64
854.73	1769.44
854.90	1607.66
855.07	1699.81
855.23	1671.14
855.40	1609.70
855.57	1773.54
855.74	1583.08
855.91	1847.27
856.08	1638.38
856.25	1667.05
856.41	1642.47
856.58	1720.29
856.75	1703.91
856.92	1607.66
857.09	1767.40
857.26	1697.77
857.42	1705.96
857.59	1701.86
857.76	1648.61
857.93	1757.16
858.10	1779.68
858.27	1642.47
858.43	1665.00
858.60	1679.33
858.77	1619.94
858.94	1679.33
859.11	1757.16
859.27	1675.24
859.44	1724.39
859.61	1839.08
859.78	1757.16
859.95	1705.96
860.12	1695.72
860.28	1794.02
860.45	1748.97
860.62	1673.19
860.79	1671.14
860.95	1703.91
861.12	1683.43
861.29	1621.99
861.46	1679.33
861.63	1675.24
861.79	1734.63
861.96	1660.90
862.13	1634.28
862.30	1763.30
862.47	1656.81
862.63	1609.70
862.80	1740.77
862.97	1742.82
863.14	1753.06
863.30	1712.10
863.47	1669.09
863.64	1794.02
863.81	1751.01
863.97	1693.67
864.14	1732.58
864.31	1695.72
864.48	1855.46
864.65	1689.57
864.81	1718.25
864.98	1771.49
865.15	1802.21
865.32	1789.92
865.48	1777.64
865.65	1820.64
865.82	1701.86
865.98	1765.35
866.15	1806.31
866.32	1675.24
866.49	1617.90
866.65	1785.83
866.82	1679.33
866.99	1648.61
867.16	1665.00
867.32	1718.25
867.49	1679.33
867.66	1611.75
867.83	1669.09
867.99	1665.00
868.16	1640.42
868.33	1681.38
868.49	1732.58
868.66	1716.20
868.83	1734.63
868.99	1718.25
869.16	1695.72
869.33	1767.40
869.50	1681.38
869.66	1755.11
869.83	1751.01
870.00	1626.09
870.16	1789.92
870.33	1710.05
870.50	1701.86
870.66	1697.77
870.83	1779.68
871.00	1751.01
871.17	1738.73
871.33	1687.53
871.50	1722.34
871.67	1720.29
871.83	1665.00
872.00	1746.92
872.17	1650.66
872.33	1814.50
872.50	1812.45
872.67	1703.91
872.83	1744.87
873.00	1712.10
873.17	1763.30
873.33	1769.44
873.50	1732.58
873.67	1689.57
873.83	1576.94
874.00	1699.81
874.16	1751.01
874.33	1662.95
874.50	1683.43
874.66	1714.15
874.83	1779.68
875.00	1796.07
875.16	1771.49
875.33	1783.78
875.50	1607.66
875.66	1705.96
875.83	1720.29
875.99	1693.67
876.16	1730.53
876.33	1705.96
876.49	1634.28
876.66	1787.88
876.83	1736.68
876.99	1650.66
877.16	1718.25
877.32	1705.96
877.49	1689.57
877.66	1845.22
877.82	1781.73
877.99	1761.25
878.15	1783.78
878.32	1673.19
878.49	1748.97
878.65	1708.01
878.82	1767.40
878.98	1603.56
879.15	1759.21
879.32	1714.15
879.48	1660.90
879.65	1697.77
879.81	1714.15
879.98	1646.57
880.15	1638.38
880.31	1810.40
880.48	1650.66
880.64	1791.97
880.81	1761.25
880.97	1796.07
881.14	1787.88
881.31	1665.00
881.47	1898.47
881.64	1703.91
881.80	1654.76
881.97	1755.11
882.13	1832.93
882.30	1675.24
882.47	1650.66
882.63	1624.04
882.80	1599.46
882.96	1728.49
883.13	1791.97
883.29	1662.95
883.46	1681.38
883.62	1740.77
883.79	1753.06
883.95	1763.30
884.12	1601.51
884.29	1783.78
884.45	1730.53
884.62	1658.85
884.78	1615.85
884.95	1734.63
885.11	1656.81
885.28	1777.64
885.44	1710.05
885.61	1726.44
885.77	1855.46
885.94	1714.15
886.10	1689.57
886.27	1662.95
886.43	1781.73
886.60	1761.25
886.76	1689.57
886.93	1669.09
887.09	1730.53
887.26	1648.61
887.42	1755.11
887.59	1751.01
887.75	1847.27
887.92	1822.69
888.08	1701.86
888.25	1849.32
888.41	1781.73
888.58	1767.40
888.74	1656.81
888.91	1710.05
>>>>>End Processed Spectral Data<<<<<
