SpectraSuite Data File
++++++++++++++++++++++++++++++++++++
Date: Mon Jun 06 14:13:57 CEST 2016
User: root
Dark Spectrum Present: No
Reference Spectrum Present: No
Number of Sampled Component Spectra: 1
Spectrometers: USB4C02835
Integration Time (usec): 100000 (USB4C02835)
Spectra Averaged: 1 (USB4C02835)
Boxcar Smoothing: 0 (USB4C02835)
Correct for Electrical Dark: No (USB4C02835)
Strobe/Lamp Enabled: No (USB4C02835)
Correct for Detector Non-linearity: No (USB4C02835)
Correct for Stray Light: No (USB4C02835)
Number of Pixels in Processed Spectrum: 3648
>>>>>Begin Processed Spectral Data<<<<<
177.47	1490.92
177.69	1490.92
177.91	1490.92
178.13	1482.73
178.36	1542.12
178.58	1607.66
178.80	1730.53
179.02	1626.09
179.24	1677.29
179.46	1673.19
179.68	1724.39
179.90	1617.90
180.13	1816.55
180.35	1630.18
180.57	1667.05
180.79	1763.30
181.01	1675.24
181.23	1808.36
181.45	1736.68
181.67	1769.44
181.90	1714.15
182.12	1783.78
182.34	1644.52
182.56	1730.53
182.78	1748.97
183.00	1714.15
183.22	1669.09
183.44	1626.09
183.66	1869.80
183.89	1812.45
184.11	1681.38
184.33	1718.25
184.55	1716.20
184.77	1798.12
184.99	1708.01
185.21	1654.76
185.43	1824.74
185.65	1652.71
185.87	1673.19
186.10	1767.40
186.32	1875.94
186.54	1697.77
186.76	1724.39
186.98	1744.87
187.20	1693.67
187.42	1646.57
187.64	1648.61
187.86	1703.91
188.08	1771.49
188.30	1624.04
188.52	1673.19
188.75	1710.05
188.97	1730.53
189.19	1703.91
189.41	1685.48
189.63	1726.44
189.85	1689.57
190.07	1587.18
190.29	1632.23
190.51	1656.81
190.73	1609.70
190.95	1841.12
191.17	1662.95
191.39	1652.71
191.61	1648.61
191.84	1683.43
192.06	1751.01
192.28	1589.22
192.50	1863.65
192.72	1738.73
192.94	1718.25
193.16	1798.12
193.38	1730.53
193.60	1656.81
193.82	1658.85
194.04	1697.77
194.26	1665.00
194.48	1699.81
194.70	1638.38
194.92	1652.71
195.14	1791.97
195.36	1705.96
195.58	1736.68
195.80	1712.10
196.02	1689.57
196.24	1605.61
196.46	1705.96
196.69	1644.52
196.91	1734.63
197.13	1662.95
197.35	1689.57
197.57	1787.88
197.79	1720.29
198.01	1767.40
198.23	1705.96
198.45	1658.85
198.67	1650.66
198.89	1695.72
199.11	1738.73
199.33	1720.29
199.55	1621.99
199.77	1751.01
199.99	1834.98
200.21	1654.76
200.43	1732.58
200.65	1675.24
200.87	1574.89
201.09	1658.85
201.31	1761.25
201.53	1718.25
201.75	1730.53
201.97	1652.71
202.19	1689.57
202.41	1753.06
202.63	1806.31
202.85	1710.05
203.07	1781.73
203.29	1673.19
203.51	1689.57
203.73	1665.00
203.95	1918.95
204.17	1708.01
204.39	1689.57
204.61	1660.90
204.83	1699.81
205.05	1708.01
205.27	1746.92
205.49	1765.35
205.71	1708.01
205.93	1587.18
206.15	1730.53
206.37	1740.77
206.59	1685.48
206.81	1646.57
207.03	1597.42
207.25	1703.91
207.47	1806.31
207.69	1685.48
207.91	1732.58
208.13	1781.73
208.34	1705.96
208.56	1699.81
208.78	1722.34
209.00	1671.14
209.22	1656.81
209.44	1609.70
209.66	1658.85
209.88	1730.53
210.10	1759.21
210.32	1687.53
210.54	1703.91
210.76	1669.09
210.98	1769.44
211.20	1576.94
211.42	1660.90
211.64	1763.30
211.86	1716.20
212.08	1722.34
212.30	1740.77
212.52	1648.61
212.74	1746.92
212.96	1724.39
213.17	1789.92
213.39	1777.64
213.61	1759.21
213.83	1714.15
214.05	1652.71
214.27	1759.21
214.49	1650.66
214.71	1632.23
214.93	1775.59
215.15	1701.86
215.37	1699.81
215.59	1665.00
215.81	1742.82
216.03	1822.69
216.24	1722.34
216.46	1626.09
216.68	1697.77
216.90	1802.21
217.12	1744.87
217.34	1771.49
217.56	1691.62
217.78	1787.88
218.00	1791.97
218.22	1703.91
218.44	1734.63
218.66	1638.38
218.87	1832.93
219.09	1587.18
219.31	1779.68
219.53	1738.73
219.75	1669.09
219.97	1730.53
220.19	1671.14
220.41	1667.05
220.63	1861.60
220.85	1785.83
221.06	1585.13
221.28	1787.88
221.50	1689.57
221.72	1656.81
221.94	1710.05
222.16	1689.57
222.38	1767.40
222.60	1779.68
222.82	1665.00
223.03	1779.68
223.25	1552.36
223.47	1757.16
223.69	1783.78
223.91	1710.05
224.13	1693.67
224.35	1656.81
224.57	1783.78
224.78	1736.68
225.00	1632.23
225.22	1681.38
225.44	1673.19
225.66	1789.92
225.88	1626.09
226.10	1789.92
226.32	1714.15
226.53	1796.07
226.75	1689.57
226.97	1697.77
227.19	1718.25
227.41	1669.09
227.63	1703.91
227.85	1619.94
228.06	1738.73
228.28	1681.38
228.50	1705.96
228.72	1671.14
228.94	1720.29
229.16	1572.84
229.37	1624.04
229.59	1597.42
229.81	1816.55
230.03	1673.19
230.25	1638.38
230.47	1656.81
230.69	1566.70
230.90	1734.63
231.12	1652.71
231.34	1718.25
231.56	1701.86
231.78	1628.14
232.00	1640.42
232.21	1667.05
232.43	1716.20
232.65	1595.37
232.87	1722.34
233.09	1685.48
233.30	1660.90
233.52	1718.25
233.74	1654.76
233.96	1665.00
234.18	1640.42
234.40	1671.14
234.61	1767.40
234.83	1615.85
235.05	1665.00
235.27	1843.17
235.49	1734.63
235.70	1751.01
235.92	1732.58
236.14	1685.48
236.36	1902.56
236.58	1646.57
236.79	1771.49
237.01	1648.61
237.23	1689.57
237.45	1839.08
237.67	1626.09
237.88	1681.38
238.10	1769.44
238.32	1597.42
238.54	1724.39
238.76	1673.19
238.97	1656.81
239.19	1648.61
239.41	1812.45
239.63	1751.01
239.85	1667.05
240.06	1736.68
240.28	1689.57
240.50	1734.63
240.72	1662.95
240.93	1732.58
241.15	1738.73
241.37	1667.05
241.59	1732.58
241.81	1771.49
242.02	1615.85
242.24	1753.06
242.46	1703.91
242.68	1658.85
242.89	1708.01
243.11	1730.53
243.33	1710.05
243.55	1685.48
243.76	1605.61
243.98	1683.43
244.20	1626.09
244.42	1679.33
244.64	1683.43
244.85	1650.66
245.07	1710.05
245.29	1796.07
245.51	1695.72
245.72	1757.16
245.94	1755.11
246.16	1644.52
246.38	1726.44
246.59	1705.96
246.81	1671.14
247.03	1697.77
247.24	1640.42
247.46	1591.27
247.68	1720.29
247.90	1746.92
248.11	1677.29
248.33	1820.64
248.55	1632.23
248.77	1693.67
248.98	1722.34
249.20	1730.53
249.42	1730.53
249.64	1681.38
249.85	1671.14
250.07	1648.61
250.29	1742.82
250.50	1746.92
250.72	1603.56
250.94	1673.19
251.16	1810.40
251.37	1847.27
251.59	1744.87
251.81	1779.68
252.02	1757.16
252.24	1658.85
252.46	1763.30
252.68	1718.25
252.89	1671.14
253.11	1607.66
253.33	1730.53
253.54	1726.44
253.76	1583.08
253.98	1628.14
254.20	1677.29
254.41	1581.03
254.63	1722.34
254.85	1673.19
255.06	1681.38
255.28	1673.19
255.50	1716.20
255.71	1695.72
255.93	1591.27
256.15	1730.53
256.36	1791.97
256.58	1613.80
256.80	1724.39
257.02	1640.42
257.23	1667.05
257.45	1718.25
257.67	1771.49
257.88	1617.90
258.10	1779.68
258.32	1656.81
258.53	1634.28
258.75	1716.20
258.97	1636.33
259.18	1681.38
259.40	1693.67
259.62	1724.39
259.83	1767.40
260.05	1675.24
260.27	2021.35
260.48	1775.59
260.70	1656.81
260.92	1740.77
261.13	1714.15
261.35	1656.81
261.57	1708.01
261.78	1570.79
262.00	1615.85
262.22	1808.36
262.43	1683.43
262.65	1626.09
262.86	1734.63
263.08	1832.93
263.30	1652.71
263.51	1626.09
263.73	1619.94
263.95	1767.40
264.16	1652.71
264.38	1746.92
264.60	1710.05
264.81	1738.73
265.03	1744.87
265.25	1794.02
265.46	1681.38
265.68	1779.68
265.89	1748.97
266.11	1681.38
266.33	1771.49
266.54	1761.25
266.76	1714.15
266.98	1742.82
267.19	1787.88
267.41	1720.29
267.62	1603.56
267.84	1572.84
268.06	1720.29
268.27	1714.15
268.49	1716.20
268.70	1798.12
268.92	1697.77
269.14	1685.48
269.35	1640.42
269.57	1654.76
269.79	1826.79
270.00	1609.70
270.22	1761.25
270.43	1660.90
270.65	1609.70
270.87	1671.14
271.08	1714.15
271.30	1751.01
271.51	1705.96
271.73	1710.05
271.95	1726.44
272.16	1681.38
272.38	1701.86
272.59	1662.95
272.81	1724.39
273.02	1769.44
273.24	1771.49
273.46	1763.30
273.67	1669.09
273.89	1685.48
274.10	1665.00
274.32	1767.40
274.54	1732.58
274.75	1675.24
274.97	1726.44
275.18	1705.96
275.40	1708.01
275.61	1681.38
275.83	1689.57
276.05	1689.57
276.26	1771.49
276.48	1740.77
276.69	1564.65
276.91	1603.56
277.12	1824.74
277.34	1703.91
277.55	1753.06
277.77	1781.73
277.99	1671.14
278.20	1693.67
278.42	1689.57
278.63	1642.47
278.85	1677.29
279.06	1599.46
279.28	1781.73
279.49	1748.97
279.71	1746.92
279.93	1667.05
280.14	1687.53
280.36	1632.23
280.57	1767.40
280.79	1701.86
281.00	1601.51
281.22	1634.28
281.43	1775.59
281.65	1603.56
281.86	1681.38
282.08	1783.78
282.29	1789.92
282.51	1595.37
282.73	1611.75
282.94	1634.28
283.16	1658.85
283.37	1742.82
283.59	1650.66
283.80	1714.15
284.02	1695.72
284.23	1769.44
284.45	1669.09
284.66	1683.43
284.88	1624.04
285.09	1744.87
285.31	1757.16
285.52	1708.01
285.74	1621.99
285.95	1728.49
286.17	1720.29
286.38	1730.53
286.60	1595.37
286.81	1669.09
287.03	1781.73
287.24	1695.72
287.46	1720.29
287.67	1615.85
287.89	1849.32
288.10	1660.90
288.32	1718.25
288.53	1767.40
288.75	1685.48
288.96	1665.00
289.18	1597.42
289.39	1718.25
289.61	1783.78
289.82	1787.88
290.04	1789.92
290.25	1640.42
290.47	1732.58
290.68	1658.85
290.90	1783.78
291.11	1703.91
291.33	1738.73
291.54	1722.34
291.76	1589.22
291.97	1734.63
292.18	1677.29
292.40	1693.67
292.61	1705.96
292.83	1898.47
293.04	1746.92
293.26	1712.10
293.47	1642.47
293.69	1689.57
293.90	1624.04
294.12	1787.88
294.33	1689.57
294.55	1673.19
294.76	1716.20
294.97	1888.23
295.19	1828.84
295.40	1648.61
295.62	1673.19
295.83	1687.53
296.05	1617.90
296.26	1669.09
296.48	1640.42
296.69	1736.68
296.90	1751.01
297.12	1701.86
297.33	1697.77
297.55	1687.53
297.76	1732.58
297.98	1767.40
298.19	1732.58
298.41	1695.72
298.62	1691.62
298.83	1699.81
299.05	1667.05
299.26	1609.70
299.48	1669.09
299.69	1689.57
299.90	1746.92
300.12	1619.94
300.33	1697.77
300.55	1736.68
300.76	1744.87
300.98	1660.90
301.19	1773.54
301.40	1648.61
301.62	1697.77
301.83	1732.58
302.05	1751.01
302.26	1759.21
302.47	1699.81
302.69	1675.24
302.90	1697.77
303.12	1583.08
303.33	1591.27
303.54	1665.00
303.76	1611.75
303.97	1681.38
304.19	1820.64
304.40	1611.75
304.61	1718.25
304.83	1851.36
305.04	1798.12
305.26	1771.49
305.47	1669.09
305.68	1724.39
305.90	1624.04
306.11	1791.97
306.33	1658.85
306.54	1677.29
306.75	1603.56
306.97	1585.13
307.18	1583.08
307.39	1654.76
307.61	1804.26
307.82	1595.37
308.04	1724.39
308.25	1697.77
308.46	1640.42
308.68	1691.62
308.89	1650.66
309.10	1734.63
309.32	1748.97
309.53	1656.81
309.74	1669.09
309.96	1654.76
310.17	1787.88
310.39	1671.14
310.60	1714.15
310.81	1746.92
311.03	1720.29
311.24	1767.40
311.45	1693.67
311.67	1837.03
311.88	1693.67
312.09	1667.05
312.31	1693.67
312.52	1665.00
312.73	1691.62
312.95	1650.66
313.16	1636.33
313.37	1718.25
313.59	1779.68
313.80	1736.68
314.01	1830.88
314.23	1730.53
314.44	1726.44
314.65	1597.42
314.87	1652.71
315.08	1632.23
315.29	1757.16
315.51	1644.52
315.72	1615.85
315.93	1726.44
316.15	1714.15
316.36	1714.15
316.57	1716.20
316.79	1732.58
317.00	1652.71
317.21	1777.64
317.43	1650.66
317.64	1636.33
317.85	1617.90
318.07	1636.33
318.28	1720.29
318.49	1814.50
318.70	1904.61
318.92	1759.21
319.13	1785.83
319.34	1796.07
319.56	1798.12
319.77	1671.14
319.98	1808.36
320.20	1755.11
320.41	1763.30
320.62	1685.48
320.83	1681.38
321.05	1816.55
321.26	1755.11
321.47	1753.06
321.69	1730.53
321.90	1683.43
322.11	1689.57
322.32	1822.69
322.54	1730.53
322.75	1685.48
322.96	1787.88
323.18	1587.18
323.39	1503.21
323.60	1683.43
323.81	1751.01
324.03	1753.06
324.24	1712.10
324.45	1767.40
324.66	1722.34
324.88	1763.30
325.09	1738.73
325.30	1746.92
325.52	1615.85
325.73	1716.20
325.94	1607.66
326.15	1634.28
326.37	1724.39
326.58	1734.63
326.79	1759.21
327.00	1615.85
327.22	1744.87
327.43	1685.48
327.64	1658.85
327.85	1796.07
328.07	1710.05
328.28	1800.16
328.49	1710.05
328.70	1697.77
328.92	1732.58
329.13	1697.77
329.34	1746.92
329.55	1785.83
329.76	1796.07
329.98	1658.85
330.19	1814.50
330.40	1734.63
330.61	1665.00
330.83	1736.68
331.04	1681.38
331.25	1734.63
331.46	1648.61
331.68	1609.70
331.89	1759.21
332.10	1710.05
332.31	1624.04
332.52	1628.14
332.74	1757.16
332.95	1632.23
333.16	1728.49
333.37	1791.97
333.58	1619.94
333.80	1662.95
334.01	1673.19
334.22	1673.19
334.43	1738.73
334.64	1816.55
334.86	1677.29
335.07	1667.05
335.28	1816.55
335.49	1665.00
335.70	1730.53
335.92	1810.40
336.13	1736.68
336.34	1673.19
336.55	1738.73
336.76	1726.44
336.98	1540.07
337.19	1697.77
337.40	1755.11
337.61	1800.16
337.82	1751.01
338.04	1806.31
338.25	1581.03
338.46	1710.05
338.67	1740.77
338.88	1656.81
339.09	1654.76
339.31	1736.68
339.52	1640.42
339.73	1665.00
339.94	1732.58
340.15	1734.63
340.36	1691.62
340.58	1660.90
340.79	1656.81
341.00	1742.82
341.21	1683.43
341.42	1826.79
341.63	1669.09
341.85	1767.40
342.06	1738.73
342.27	1585.13
342.48	1744.87
342.69	1617.90
342.90	1671.14
343.12	1796.07
343.33	1705.96
343.54	1841.12
343.75	1800.16
343.96	1718.25
344.17	1574.89
344.38	1726.44
344.60	1626.09
344.81	1667.05
345.02	1708.01
345.23	1791.97
345.44	1775.59
345.65	1775.59
345.86	1671.14
346.07	1726.44
346.29	1669.09
346.50	1736.68
346.71	1759.21
346.92	1779.68
347.13	1763.30
347.34	1773.54
347.55	1693.67
347.76	1748.97
347.98	1591.27
348.19	1685.48
348.40	1751.01
348.61	1687.53
348.82	1796.07
349.03	1767.40
349.24	1644.52
349.45	1781.73
349.66	1546.22
349.88	1779.68
350.09	1660.90
350.30	1771.49
350.51	1701.86
350.72	1701.86
350.93	1771.49
351.14	1710.05
351.35	1736.68
351.56	1681.38
351.77	1718.25
351.99	1757.16
352.20	1826.79
352.41	1775.59
352.62	1572.84
352.83	1742.82
353.04	1722.34
353.25	1722.34
353.46	1785.83
353.67	1804.26
353.88	1587.18
354.09	1658.85
354.30	1705.96
354.52	1742.82
354.73	1738.73
354.94	1687.53
355.15	1746.92
355.36	1843.17
355.57	1720.29
355.78	1685.48
355.99	1705.96
356.20	1712.10
356.41	1730.53
356.62	1767.40
356.83	1728.49
357.04	1796.07
357.25	1697.77
357.46	1669.09
357.68	1683.43
357.89	1611.75
358.10	1699.81
358.31	1720.29
358.52	1656.81
358.73	1650.66
358.94	1638.38
359.15	1718.25
359.36	1763.30
359.57	1728.49
359.78	1677.29
359.99	1673.19
360.20	1599.46
360.41	1681.38
360.62	1708.01
360.83	1724.39
361.04	1640.42
361.25	1728.49
361.46	1824.74
361.67	1685.48
361.88	1714.15
362.09	1755.11
362.30	1730.53
362.51	1650.66
362.72	1703.91
362.93	1724.39
363.14	1771.49
363.35	1712.10
363.56	1642.47
363.78	1761.25
363.99	1689.57
364.20	1691.62
364.41	1673.19
364.62	1816.55
364.83	1695.72
365.04	1685.48
365.25	1718.25
365.46	1730.53
365.67	1689.57
365.88	1619.94
366.09	1691.62
366.30	1708.01
366.51	1787.88
366.72	1581.03
366.93	1726.44
367.14	1665.00
367.35	1791.97
367.56	1753.06
367.77	1814.50
367.98	1650.66
368.18	1720.29
368.39	1820.64
368.60	1705.96
368.81	1744.87
369.02	1683.43
369.23	1714.15
369.44	1599.46
369.65	1726.44
369.86	1710.05
370.07	1691.62
370.28	1681.38
370.49	1716.20
370.70	1699.81
370.91	1628.14
371.12	1540.07
371.33	1736.68
371.54	1687.53
371.75	1751.01
371.96	1636.33
372.17	1679.33
372.38	1665.00
372.59	1767.40
372.80	1705.96
373.01	1699.81
373.22	1771.49
373.43	1728.49
373.64	1632.23
373.85	1771.49
374.06	1734.63
374.26	1746.92
374.47	1738.73
374.68	1775.59
374.89	1744.87
375.10	1701.86
375.31	1826.79
375.52	1673.19
375.73	1726.44
375.94	1619.94
376.15	1779.68
376.36	1632.23
376.57	1687.53
376.78	1722.34
376.99	1716.20
377.20	1732.58
377.40	1658.85
377.61	1853.41
377.82	1697.77
378.03	1785.83
378.24	1722.34
378.45	1687.53
378.66	1771.49
378.87	1570.79
379.08	1601.51
379.29	1685.48
379.50	1740.77
379.71	1710.05
379.91	1751.01
380.12	1734.63
380.33	1675.24
380.54	1703.91
380.75	1689.57
380.96	1648.61
381.17	1822.69
381.38	1716.20
381.59	1689.57
381.80	1636.33
382.00	1851.36
382.21	1769.44
382.42	1808.36
382.63	1863.65
382.84	1830.88
383.05	1718.25
383.26	1830.88
383.47	1687.53
383.68	1761.25
383.88	1675.24
384.09	1718.25
384.30	1818.60
384.51	1732.58
384.72	1724.39
384.93	1712.10
385.14	1626.09
385.35	1765.35
385.55	1660.90
385.76	1753.06
385.97	1603.56
386.18	1601.51
386.39	1628.14
386.60	1714.15
386.81	1703.91
387.02	1675.24
387.22	1669.09
387.43	1738.73
387.64	1800.16
387.85	1812.45
388.06	2207.71
388.27	4243.39
388.48	6858.65
388.68	8368.00
388.89	9678.70
389.10	9967.46
389.31	8685.44
389.52	7751.56
389.73	6799.26
389.93	6322.08
390.14	5861.29
390.35	5345.20
390.56	4691.90
390.77	3850.18
390.98	3039.19
391.18	2541.53
391.39	2131.94
391.60	1939.43
391.81	1914.85
392.02	1689.57
392.23	1832.93
392.43	1744.87
392.64	1775.59
392.85	1714.15
393.06	1802.21
393.27	1716.20
393.47	1632.23
393.68	1755.11
393.89	1671.14
394.10	1777.64
394.31	1669.09
394.52	1634.28
394.72	1611.75
394.93	1789.92
395.14	1652.71
395.35	1767.40
395.56	1675.24
395.76	1724.39
395.97	1779.68
396.18	1732.58
396.39	1861.60
396.60	1945.57
396.80	1873.89
397.01	1892.32
397.22	1816.55
397.43	1841.12
397.64	1683.43
397.84	1812.45
398.05	1865.70
398.26	1753.06
398.47	1759.21
398.67	1806.31
398.88	1730.53
399.09	1746.92
399.30	1738.73
399.51	1779.68
399.71	1712.10
399.92	1783.78
400.13	1705.96
400.34	1632.23
400.54	1726.44
400.75	1859.56
400.96	1765.35
401.17	1802.21
401.37	1689.57
401.58	1734.63
401.79	1794.02
402.00	1828.84
402.21	1976.29
402.41	2029.54
402.62	1976.29
402.83	2072.54
403.04	1976.29
403.24	2082.78
403.45	1839.08
403.66	1966.05
403.87	1892.32
404.07	1933.28
404.28	1894.37
404.49	1875.94
404.70	1781.73
404.90	1757.16
405.11	1740.77
405.32	1796.07
405.52	1716.20
405.73	1667.05
405.94	1669.09
406.15	1691.62
406.35	1787.88
406.56	1734.63
406.77	1755.11
406.98	1652.71
407.18	1646.57
407.39	1779.68
407.60	1648.61
407.80	1734.63
408.01	1738.73
408.22	1755.11
408.43	1730.53
408.63	1736.68
408.84	1746.92
409.05	1724.39
409.25	1650.66
409.46	1654.76
409.67	1671.14
409.88	1683.43
410.08	1693.67
410.29	1673.19
410.50	1777.64
410.70	1732.58
410.91	1757.16
411.12	1742.82
411.32	1728.49
411.53	1708.01
411.74	1839.08
411.95	1767.40
412.15	1773.54
412.36	1779.68
412.57	1705.96
412.77	1773.54
412.98	1675.24
413.19	1798.12
413.39	1724.39
413.60	1728.49
413.81	1814.50
414.01	1697.77
414.22	1800.16
414.43	1710.05
414.63	1710.05
414.84	1687.53
415.05	1697.77
415.25	1619.94
415.46	1712.10
415.67	1759.21
415.87	1724.39
416.08	1648.61
416.29	1726.44
416.49	1687.53
416.70	1730.53
416.91	1705.96
417.11	1675.24
417.32	1718.25
417.53	1714.15
417.73	1828.84
417.94	1697.77
418.15	1804.26
418.35	1714.15
418.56	1732.58
418.77	1837.03
418.97	1724.39
419.18	1644.52
419.38	1583.08
419.59	1658.85
419.80	1798.12
420.00	1724.39
420.21	1660.90
420.42	1796.07
420.62	1755.11
420.83	1712.10
421.04	1665.00
421.24	1693.67
421.45	1767.40
421.65	1742.82
421.86	1689.57
422.07	1720.29
422.27	1697.77
422.48	1697.77
422.69	1652.71
422.89	1710.05
423.10	1718.25
423.30	1677.29
423.51	1685.48
423.72	1691.62
423.92	1787.88
424.13	1572.84
424.33	1728.49
424.54	1699.81
424.75	1705.96
424.95	1775.59
425.16	1681.38
425.36	1724.39
425.57	1710.05
425.78	1757.16
425.98	1744.87
426.19	1681.38
426.39	1605.61
426.60	1654.76
426.81	1839.08
427.01	1669.09
427.22	1660.90
427.42	1603.56
427.63	1650.66
427.83	1724.39
428.04	1837.03
428.25	1826.79
428.45	1787.88
428.66	1718.25
428.86	1648.61
429.07	1681.38
429.28	1759.21
429.48	1697.77
429.69	1667.05
429.89	1697.77
430.10	1660.90
430.30	1746.92
430.51	1779.68
430.71	1671.14
430.92	1689.57
431.13	1660.90
431.33	1718.25
431.54	1701.86
431.74	1755.11
431.95	1800.16
432.15	1617.90
432.36	1759.21
432.56	1746.92
432.77	1808.36
432.98	1769.44
433.18	1742.82
433.39	1677.29
433.59	1656.81
433.80	1798.12
434.00	1824.74
434.21	1705.96
434.41	1665.00
434.62	1861.60
434.82	1697.77
435.03	1712.10
435.23	1757.16
435.44	1658.85
435.64	1738.73
435.85	1716.20
436.06	1738.73
436.26	1794.02
436.47	1636.33
436.67	1597.42
436.88	1771.49
437.08	1765.35
437.29	1757.16
437.49	1773.54
437.70	1787.88
437.90	1681.38
438.11	1765.35
438.31	1783.78
438.52	1771.49
438.72	1802.21
438.93	1892.32
439.13	1787.88
439.34	1791.97
439.54	1763.30
439.75	1751.01
439.95	1849.32
440.16	1687.53
440.36	1751.01
440.57	1751.01
440.77	1796.07
440.98	1679.33
441.18	1855.46
441.39	1656.81
441.59	1603.56
441.80	1886.18
442.00	1720.29
442.21	1767.40
442.41	1673.19
442.62	1781.73
442.82	1732.58
443.02	1726.44
443.23	1673.19
443.43	1720.29
443.64	1757.16
443.84	1624.04
444.05	1857.51
444.25	1728.49
444.46	1748.97
444.66	1714.15
444.87	1775.59
445.07	1716.20
445.28	1714.15
445.48	1769.44
445.69	1816.55
445.89	1783.78
446.09	1771.49
446.30	2035.68
446.50	2654.17
446.71	3803.08
446.91	4460.48
447.12	4755.38
447.32	4812.73
447.53	4329.41
447.73	3835.85
447.93	3698.63
448.14	3354.57
448.34	3168.21
448.55	2893.78
448.75	2867.16
448.96	2678.74
449.16	2457.56
449.36	2316.25
449.57	2037.73
449.77	1894.37
449.98	1832.93
450.18	1808.36
450.39	1882.08
450.59	1791.97
450.79	1744.87
451.00	1652.71
451.20	1775.59
451.41	1613.80
451.61	1830.88
451.81	1677.29
452.02	1734.63
452.22	1738.73
452.43	1681.38
452.63	1650.66
452.84	1695.72
453.04	1650.66
453.24	1732.58
453.45	1681.38
453.65	1781.73
453.86	1785.83
454.06	1742.82
454.26	1761.25
454.47	1679.33
454.67	1855.46
454.87	1753.06
455.08	1734.63
455.28	1781.73
455.49	1740.77
455.69	1701.86
455.89	1972.19
456.10	1798.12
456.30	1650.66
456.51	1718.25
456.71	1746.92
456.91	1748.97
457.12	1775.59
457.32	1697.77
457.52	1693.67
457.73	1748.97
457.93	1757.16
458.14	1695.72
458.34	1732.58
458.54	1714.15
458.75	1767.40
458.95	1740.77
459.15	1769.44
459.36	1751.01
459.56	1796.07
459.76	1882.08
459.97	1773.54
460.17	1767.40
460.37	1812.45
460.58	1736.68
460.78	1734.63
460.99	1718.25
461.19	1740.77
461.39	1695.72
461.60	1726.44
461.80	1669.09
462.00	1724.39
462.21	1708.01
462.41	1640.42
462.61	1693.67
462.82	1691.62
463.02	1679.33
463.22	1722.34
463.43	1794.02
463.63	1779.68
463.83	1763.30
464.04	1714.15
464.24	1705.96
464.44	1705.96
464.64	1667.05
464.85	1796.07
465.05	1810.40
465.25	1728.49
465.46	1673.19
465.66	1728.49
465.86	1777.64
466.07	1767.40
466.27	1738.73
466.47	1644.52
466.68	1720.29
466.88	1785.83
467.08	1683.43
467.29	1789.92
467.49	1761.25
467.69	1714.15
467.89	1675.24
468.10	1738.73
468.30	1728.49
468.50	1763.30
468.71	1796.07
468.91	1648.61
469.11	1884.13
469.31	1708.01
469.52	1660.90
469.72	1791.97
469.92	1861.60
470.13	1767.40
470.33	1777.64
470.53	1851.36
470.73	2201.57
470.94	2406.36
471.14	2361.31
471.34	2504.67
471.54	2406.36
471.75	2275.29
471.95	2084.83
472.15	2093.02
472.36	2121.70
472.56	2162.66
472.76	2107.36
472.96	1961.95
473.17	1890.28
473.37	1867.75
473.57	1773.54
473.77	1771.49
473.98	1738.73
474.18	1773.54
474.38	1890.28
474.58	1691.62
474.79	1699.81
474.99	1857.51
475.19	1808.36
475.39	1697.77
475.60	1738.73
475.80	1755.11
476.00	1755.11
476.20	1656.81
476.41	1667.05
476.61	1834.98
476.81	1763.30
477.01	1681.38
477.21	1847.27
477.42	1787.88
477.62	1679.33
477.82	1755.11
478.02	1775.59
478.23	1767.40
478.43	1683.43
478.63	1724.39
478.83	1740.77
479.03	1730.53
479.24	1798.12
479.44	1818.60
479.64	1720.29
479.84	1644.52
480.04	1638.38
480.25	1734.63
480.45	1660.90
480.65	1652.71
480.85	1834.98
481.06	1689.57
481.26	1722.34
481.46	1779.68
481.66	1730.53
481.86	1671.14
482.06	1734.63
482.27	1699.81
482.47	1675.24
482.67	1728.49
482.87	1736.68
483.07	1718.25
483.28	1646.57
483.48	1685.48
483.68	1722.34
483.88	1642.47
484.08	1628.14
484.29	1652.71
484.49	1673.19
484.69	1669.09
484.89	1777.64
485.09	1720.29
485.29	1832.93
485.50	1736.68
485.70	1615.85
485.90	1779.68
486.10	1757.16
486.30	1681.38
486.50	1832.93
486.71	1689.57
486.91	1691.62
487.11	1779.68
487.31	1521.64
487.51	1665.00
487.71	1728.49
487.91	1601.51
488.12	1693.67
488.32	1585.13
488.52	1675.24
488.72	1617.90
488.92	1699.81
489.12	1771.49
489.32	1755.11
489.53	1804.26
489.73	1632.23
489.93	1755.11
490.13	1687.53
490.33	1738.73
490.53	1781.73
490.73	1810.40
490.94	1689.57
491.14	1763.30
491.34	1904.61
491.54	2207.71
491.74	2598.87
491.94	2938.84
492.14	3076.05
492.34	2953.17
492.54	2791.38
492.75	2508.76
492.95	2451.42
493.15	2361.31
493.35	2246.62
493.55	2199.52
493.75	2107.36
493.95	2174.94
494.15	1996.77
494.35	1877.99
494.56	1820.64
494.76	1757.16
494.96	1775.59
495.16	1791.97
495.36	1767.40
495.56	1773.54
495.76	1669.09
495.96	1718.25
496.16	1662.95
496.36	1871.84
496.56	1687.53
496.77	1763.30
496.97	1697.77
497.17	1806.31
497.37	1695.72
497.57	1757.16
497.77	1710.05
497.97	1736.68
498.17	1785.83
498.37	1759.21
498.57	1767.40
498.77	1714.15
498.97	1785.83
499.17	1820.64
499.38	1720.29
499.58	1746.92
499.78	1834.98
499.98	1787.88
500.18	1763.30
500.38	1757.16
500.58	1925.09
500.78	2584.54
500.98	4614.07
501.18	5951.40
501.38	6881.18
501.58	7036.82
501.78	6746.01
501.98	5722.02
502.18	5081.01
502.38	4440.00
502.58	4255.68
502.78	3770.31
502.98	3653.58
503.18	3526.60
503.38	3217.36
503.59	2832.34
503.79	2697.17
503.99	2449.37
504.19	2316.25
504.39	2123.74
504.59	2168.80
504.79	2191.33
504.99	1972.19
505.19	1961.95
505.39	1800.16
505.59	1925.09
505.79	1880.04
505.99	1843.17
506.19	1779.68
506.39	1851.36
506.59	1767.40
506.79	1738.73
506.99	1830.88
507.19	1720.29
507.39	1746.92
507.59	1712.10
507.79	1718.25
507.99	1624.04
508.19	1748.97
508.39	1683.43
508.59	1769.44
508.79	1828.84
508.99	1802.21
509.19	1662.95
509.39	1726.44
509.59	1689.57
509.79	1648.61
509.99	1681.38
510.19	1755.11
510.39	1804.26
510.59	1683.43
510.79	1728.49
510.99	1681.38
511.19	1705.96
511.39	1824.74
511.59	1783.78
511.79	1806.31
511.99	1771.49
512.19	1763.30
512.38	1691.62
512.58	1734.63
512.78	1787.88
512.98	1765.35
513.18	1828.84
513.38	1669.09
513.58	1732.58
513.78	1695.72
513.98	1646.57
514.18	1720.29
514.38	1781.73
514.58	1787.88
514.78	1697.77
514.98	1644.52
515.18	1626.09
515.38	1683.43
515.58	1853.41
515.78	1759.21
515.98	1789.92
516.18	1734.63
516.38	1789.92
516.57	1712.10
516.77	1738.73
516.97	1744.87
517.17	1693.67
517.37	1660.90
517.57	1755.11
517.77	1748.97
517.97	1654.76
518.17	1748.97
518.37	1708.01
518.57	1652.71
518.77	1642.47
518.97	1710.05
519.16	1771.49
519.36	1814.50
519.56	1740.77
519.76	1703.91
519.96	1728.49
520.16	1830.88
520.36	1689.57
520.56	1798.12
520.76	1722.34
520.96	1667.05
521.16	1769.44
521.35	1779.68
521.55	1822.69
521.75	1714.15
521.95	1701.86
522.15	1681.38
522.35	1671.14
522.55	1656.81
522.75	1822.69
522.95	1755.11
523.14	1685.48
523.34	1726.44
523.54	1615.85
523.74	1822.69
523.94	1662.95
524.14	1658.85
524.34	1722.34
524.54	1763.30
524.73	1701.86
524.93	1751.01
525.13	1718.25
525.33	1722.34
525.53	1888.23
525.73	1785.83
525.93	1759.21
526.13	1705.96
526.32	1626.09
526.52	1796.07
526.72	1744.87
526.92	1814.50
527.12	1751.01
527.32	1554.41
527.52	1755.11
527.71	1832.93
527.91	1791.97
528.11	1665.00
528.31	1769.44
528.51	1679.33
528.71	1755.11
528.90	1724.39
529.10	1738.73
529.30	1841.12
529.50	1609.70
529.70	1783.78
529.90	1687.53
530.09	1724.39
530.29	1646.57
530.49	1654.76
530.69	1832.93
530.89	1742.82
531.09	1771.49
531.28	1677.29
531.48	1882.08
531.68	1814.50
531.88	1724.39
532.08	1759.21
532.28	1701.86
532.47	1761.25
532.67	1667.05
532.87	1705.96
533.07	1722.34
533.27	1748.97
533.46	1763.30
533.66	1757.16
533.86	1748.97
534.06	1677.29
534.26	1701.86
534.45	1701.86
534.65	1837.03
534.85	1802.21
535.05	1796.07
535.25	1763.30
535.44	1650.66
535.64	1794.02
535.84	1738.73
536.04	1689.57
536.24	1658.85
536.43	1736.68
536.63	1722.34
536.83	1658.85
537.03	1697.77
537.22	1705.96
537.42	1615.85
537.62	1808.36
537.82	1658.85
538.02	1781.73
538.21	1718.25
538.41	1894.37
538.61	1771.49
538.81	1720.29
539.00	1691.62
539.20	1656.81
539.40	1681.38
539.60	1738.73
539.79	1746.92
539.99	1687.53
540.19	1714.15
540.39	1732.58
540.58	1751.01
540.78	1714.15
540.98	1826.79
541.18	1771.49
541.37	1767.40
541.57	1716.20
541.77	1777.64
541.97	1761.25
542.16	1611.75
542.36	1628.14
542.56	1646.57
542.76	1765.35
542.95	1775.59
543.15	1691.62
543.35	1763.30
543.54	1671.14
543.74	1665.00
543.94	1767.40
544.14	1665.00
544.33	1826.79
544.53	1656.81
544.73	1769.44
544.93	1689.57
545.12	1779.68
545.32	1716.20
545.52	1712.10
545.71	1619.94
545.91	1716.20
546.11	1683.43
546.30	1652.71
546.50	1695.72
546.70	1755.11
546.90	1832.93
547.09	1677.29
547.29	1695.72
547.49	1736.68
547.68	1701.86
547.88	1646.57
548.08	1757.16
548.27	2088.93
548.47	1736.68
548.67	1728.49
548.87	1744.87
549.06	1650.66
549.26	1691.62
549.46	1751.01
549.65	1697.77
549.85	1753.06
550.05	1761.25
550.24	1691.62
550.44	1718.25
550.64	1794.02
550.83	1679.33
551.03	1740.77
551.23	1839.08
551.42	1781.73
551.62	1765.35
551.82	1769.44
552.01	1710.05
552.21	1873.89
552.41	1712.10
552.60	1828.84
552.80	1787.88
553.00	1705.96
553.19	1724.39
553.39	1867.75
553.59	1681.38
553.78	1755.11
553.98	1796.07
554.17	1673.19
554.37	1759.21
554.57	1794.02
554.76	1675.24
554.96	1669.09
555.16	1779.68
555.35	1779.68
555.55	1767.40
555.75	1824.74
555.94	1714.15
556.14	1685.48
556.33	1773.54
556.53	1705.96
556.73	1804.26
556.92	1812.45
557.12	1853.41
557.32	1855.46
557.51	1789.92
557.71	1853.41
557.90	1822.69
558.10	1822.69
558.30	1751.01
558.49	1675.24
558.69	1640.42
558.88	1685.48
559.08	1781.73
559.28	1826.79
559.47	1677.29
559.67	1773.54
559.86	1861.60
560.06	1695.72
560.26	1667.05
560.45	1712.10
560.65	1753.06
560.84	1802.21
561.04	1771.49
561.24	1785.83
561.43	1712.10
561.63	1843.17
561.82	1734.63
562.02	1783.78
562.22	1751.01
562.41	1722.34
562.61	1701.86
562.80	1681.38
563.00	1933.28
563.19	1714.15
563.39	1714.15
563.59	1771.49
563.78	1691.62
563.98	1644.52
564.17	1689.57
564.37	1644.52
564.56	1804.26
564.76	1716.20
564.96	1765.35
565.15	1814.50
565.35	1867.75
565.54	1660.90
565.74	1708.01
565.93	1779.68
566.13	1734.63
566.32	1705.96
566.52	1755.11
566.71	1796.07
566.91	1837.03
567.11	1808.36
567.30	1681.38
567.50	1841.12
567.69	1699.81
567.89	1777.64
568.08	1646.57
568.28	1755.11
568.47	1656.81
568.67	1732.58
568.86	1660.90
569.06	1769.44
569.25	1679.33
569.45	1718.25
569.64	1687.53
569.84	1730.53
570.04	1763.30
570.23	1703.91
570.43	1667.05
570.62	1710.05
570.82	1832.93
571.01	1722.34
571.21	1652.71
571.40	1703.91
571.60	1834.98
571.79	1734.63
571.99	1830.88
572.18	1662.95
572.38	1708.01
572.57	1748.97
572.77	1742.82
572.96	1855.46
573.16	1804.26
573.35	1759.21
573.55	1800.16
573.74	1794.02
573.94	1740.77
574.13	1646.57
574.33	1720.29
574.52	1830.88
574.71	1798.12
574.91	1773.54
575.10	1638.38
575.30	1718.25
575.49	1728.49
575.69	1722.34
575.88	1693.67
576.08	1734.63
576.27	1636.33
576.47	1687.53
576.66	1800.16
576.86	1806.31
577.05	1740.77
577.25	1804.26
577.44	1824.74
577.64	1724.39
577.83	1865.70
578.02	1716.20
578.22	1808.36
578.41	1841.12
578.61	1796.07
578.80	1660.90
579.00	1787.88
579.19	1701.86
579.39	1675.24
579.58	1841.12
579.77	1691.62
579.97	1853.41
580.16	1839.08
580.36	1740.77
580.55	1851.36
580.75	1810.40
580.94	1783.78
581.13	1910.75
581.33	1769.44
581.52	1738.73
581.72	1822.69
581.91	1857.51
582.11	1708.01
582.30	1861.60
582.49	1736.68
582.69	1710.05
582.88	1740.77
583.08	1787.88
583.27	1884.13
583.47	1779.68
583.66	1714.15
583.85	1685.48
584.05	1771.49
584.24	1689.57
584.44	1736.68
584.63	1892.32
584.82	1859.56
585.02	1832.93
585.21	1806.31
585.41	1888.23
585.60	1775.59
585.79	1916.90
585.99	1953.76
586.18	1834.98
586.37	2080.74
586.57	3428.30
586.76	10026.86
586.96	25003.65
587.15	35157.48
587.34	41459.08
587.54	43085.17
587.73	37406.15
587.93	26769.00
588.12	21874.35
588.31	18710.24
588.51	16750.34
588.70	15546.13
588.89	14374.69
589.09	12740.41
589.28	11093.85
589.47	9693.04
589.67	8107.91
589.86	6354.85
590.06	5109.68
590.25	4026.31
590.44	3090.38
590.64	2662.36
590.83	2240.48
591.02	2050.02
591.22	1923.04
591.41	1896.42
591.60	1843.17
591.80	1937.38
591.99	1761.25
592.18	1771.49
592.38	1812.45
592.57	1767.40
592.76	1742.82
592.96	1775.59
593.15	1830.88
593.34	1869.80
593.54	1734.63
593.73	1796.07
593.92	1773.54
594.12	1773.54
594.31	1775.59
594.50	1912.80
594.70	1726.44
594.89	1931.23
595.08	1695.72
595.28	1837.03
595.47	1902.56
595.66	1808.36
595.86	1679.33
596.05	1765.35
596.24	1710.05
596.43	1822.69
596.63	1714.15
596.82	1791.97
597.01	1710.05
597.21	1853.41
597.40	1718.25
597.59	1708.01
597.79	1791.97
597.98	1677.29
598.17	1783.78
598.36	1734.63
598.56	1738.73
598.75	1722.34
598.94	1857.51
599.14	1724.39
599.33	1771.49
599.52	1755.11
599.71	1755.11
599.91	1796.07
600.10	1779.68
600.29	1714.15
600.48	1789.92
600.68	1802.21
600.87	1714.15
601.06	1734.63
601.26	1757.16
601.45	1748.97
601.64	1746.92
601.83	1802.21
602.03	1671.14
602.22	1634.28
602.41	1824.74
602.60	1857.51
602.80	1759.21
602.99	1724.39
603.18	1689.57
603.37	1775.59
603.57	1697.77
603.76	1748.97
603.95	1806.31
604.14	1742.82
604.34	1673.19
604.53	1697.77
604.72	1691.62
604.91	1734.63
605.10	1708.01
605.30	1648.61
605.49	1820.64
605.68	1720.29
605.87	1814.50
606.07	1728.49
606.26	1814.50
606.45	1703.91
606.64	1662.95
606.84	1697.77
607.03	1726.44
607.22	1775.59
607.41	1777.64
607.60	1753.06
607.80	1875.94
607.99	1677.29
608.18	1720.29
608.37	1753.06
608.56	1681.38
608.76	1773.54
608.95	1855.46
609.14	1718.25
609.33	1746.92
609.52	1777.64
609.72	1691.62
609.91	1751.01
610.10	1705.96
610.29	1753.06
610.48	1757.16
610.68	1759.21
610.87	1769.44
611.06	1732.58
611.25	1683.43
611.44	1789.92
611.63	1724.39
611.83	1714.15
612.02	1689.57
612.21	1834.98
612.40	1697.77
612.59	1726.44
612.79	1665.00
612.98	1677.29
613.17	1804.26
613.36	1761.25
613.55	1812.45
613.74	1746.92
613.93	1660.90
614.13	1796.07
614.32	1794.02
614.51	1671.14
614.70	1697.77
614.89	1656.81
615.08	1736.68
615.28	2099.17
615.47	1685.48
615.66	1781.73
615.85	1662.95
616.04	1908.71
616.23	1703.91
616.42	1697.77
616.62	1777.64
616.81	1732.58
617.00	1730.53
617.19	1724.39
617.38	1742.82
617.57	1726.44
617.76	1763.30
617.95	1681.38
618.15	1693.67
618.34	1894.37
618.53	1638.38
618.72	1763.30
618.91	1882.08
619.10	1796.07
619.29	1726.44
619.48	1736.68
619.68	1689.57
619.87	1718.25
620.06	1683.43
620.25	1814.50
620.44	1720.29
620.63	1775.59
620.82	1660.90
621.01	1705.96
621.20	1636.33
621.39	1708.01
621.59	1718.25
621.78	1714.15
621.97	1705.96
622.16	1712.10
622.35	1689.57
622.54	1794.02
622.73	1796.07
622.92	1673.19
623.11	1783.78
623.30	1722.34
623.49	1734.63
623.68	1601.51
623.88	1767.40
624.07	1640.42
624.26	1724.39
624.45	1742.82
624.64	1636.33
624.83	1818.60
625.02	1726.44
625.21	1681.38
625.40	1746.92
625.59	1722.34
625.78	1697.77
625.97	1736.68
626.16	1787.88
626.35	1738.73
626.54	1697.77
626.74	1808.36
626.93	1724.39
627.12	1697.77
627.31	1796.07
627.50	1734.63
627.69	1798.12
627.88	1665.00
628.07	1726.44
628.26	1624.04
628.45	1671.14
628.64	1685.48
628.83	1740.77
629.02	1677.29
629.21	1742.82
629.40	1724.39
629.59	1712.10
629.78	1654.76
629.97	1724.39
630.16	1736.68
630.35	1714.15
630.54	1638.38
630.73	1689.57
630.92	1695.72
631.11	1687.53
631.30	1712.10
631.49	1767.40
631.68	1746.92
631.87	1849.32
632.06	1736.68
632.25	1843.17
632.44	1757.16
632.63	1716.20
632.82	1724.39
633.01	1658.85
633.20	1767.40
633.39	1599.46
633.58	1621.99
633.77	1710.05
633.96	1732.58
634.15	1677.29
634.34	1689.57
634.53	1740.77
634.72	1705.96
634.91	1652.71
635.10	1806.31
635.29	1738.73
635.48	1665.00
635.67	1671.14
635.86	1593.32
636.05	1802.21
636.24	1824.74
636.43	1679.33
636.62	1701.86
636.81	1574.89
637.00	1683.43
637.19	1734.63
637.38	1761.25
637.57	1632.23
637.76	1677.29
637.95	1712.10
638.14	1691.62
638.33	1759.21
638.52	1665.00
638.71	1660.90
638.89	1638.38
639.08	1914.85
639.27	1748.97
639.46	1683.43
639.65	1845.22
639.84	1701.86
640.03	1755.11
640.22	1710.05
640.41	1785.83
640.60	1738.73
640.79	1671.14
640.98	1613.80
641.17	1699.81
641.36	1751.01
641.55	1812.45
641.74	1681.38
641.92	1626.09
642.11	1708.01
642.30	1744.87
642.49	1656.81
642.68	1785.83
642.87	1746.92
643.06	1677.29
643.25	1685.48
643.44	1673.19
643.63	1724.39
643.82	1703.91
644.00	1619.94
644.19	1681.38
644.38	1650.66
644.57	1726.44
644.76	1734.63
644.95	1728.49
645.14	1730.53
645.33	1730.53
645.52	1744.87
645.71	1656.81
645.89	1595.37
646.08	1757.16
646.27	1716.20
646.46	1853.41
646.65	1634.28
646.84	1640.42
647.03	1685.48
647.22	1716.20
647.40	1748.97
647.59	1658.85
647.78	1621.99
647.97	1652.71
648.16	1632.23
648.35	1746.92
648.54	1728.49
648.73	1667.05
648.91	1791.97
649.10	1656.81
649.29	1714.15
649.48	1667.05
649.67	1738.73
649.86	1701.86
650.05	1662.95
650.23	1767.40
650.42	1695.72
650.61	1716.20
650.80	1777.64
650.99	1865.70
651.18	1748.97
651.36	1755.11
651.55	1621.99
651.74	1724.39
651.93	1703.91
652.12	1615.85
652.31	1648.61
652.49	1652.71
652.68	1695.72
652.87	1773.54
653.06	1705.96
653.25	1873.89
653.44	1624.04
653.62	1767.40
653.81	1724.39
654.00	1662.95
654.19	1796.07
654.38	1845.22
654.56	1765.35
654.75	1640.42
654.94	1798.12
655.13	1742.82
655.32	1675.24
655.51	1740.77
655.69	1662.95
655.88	1746.92
656.07	1665.00
656.26	1769.44
656.45	1718.25
656.63	1746.92
656.82	1648.61
657.01	1828.84
657.20	1658.85
657.38	1695.72
657.57	1628.14
657.76	1720.29
657.95	1775.59
658.14	1695.72
658.32	1636.33
658.51	1644.52
658.70	1736.68
658.89	1796.07
659.08	1687.53
659.26	1826.79
659.45	1576.94
659.64	1761.25
659.83	1673.19
660.01	1830.88
660.20	1759.21
660.39	1781.73
660.58	1626.09
660.76	1763.30
660.95	1681.38
661.14	1722.34
661.33	1656.81
661.51	1667.05
661.70	1681.38
661.89	1691.62
662.08	1738.73
662.26	1652.71
662.45	1585.13
662.64	1818.60
662.83	1841.12
663.01	1675.24
663.20	1634.28
663.39	1796.07
663.58	1691.62
663.76	1681.38
663.95	1816.55
664.14	1695.72
664.32	1673.19
664.51	1730.53
664.70	1665.00
664.89	1757.16
665.07	1632.23
665.26	1765.35
665.45	1656.81
665.64	1736.68
665.82	1724.39
666.01	1812.45
666.20	1644.52
666.38	1853.41
666.57	1826.79
666.76	2162.66
666.95	4474.81
667.13	10481.50
667.32	15630.10
667.51	18202.35
667.69	19103.45
667.88	17940.21
668.07	12590.91
668.25	9820.01
668.44	8191.88
668.63	7501.71
668.81	7122.84
669.00	6299.55
669.19	5793.70
669.38	5191.60
669.56	4622.27
669.75	4005.83
669.94	3471.31
670.12	2906.07
670.31	2539.48
670.50	2299.87
670.68	2160.61
670.87	1964.00
671.06	1753.06
671.24	1693.67
671.43	1796.07
671.62	1720.29
671.80	1738.73
671.99	1746.92
672.18	1691.62
672.36	1710.05
672.55	1763.30
672.74	1734.63
672.92	1730.53
673.11	1763.30
673.29	1669.09
673.48	1753.06
673.67	1693.67
673.85	1818.60
674.04	1634.28
674.23	1767.40
674.41	1802.21
674.60	1654.76
674.79	1636.33
674.97	1652.71
675.16	1718.25
675.34	1785.83
675.53	1673.19
675.72	1716.20
675.90	1834.98
676.09	1656.81
676.28	1753.06
676.46	1585.13
676.65	1763.30
676.83	1683.43
677.02	1802.21
677.21	1736.68
677.39	1767.40
677.58	1703.91
677.77	1677.29
677.95	1697.77
678.14	1611.75
678.32	1685.48
678.51	1630.18
678.70	1816.55
678.88	1617.90
679.07	1728.49
679.25	1746.92
679.44	1660.90
679.63	1665.00
679.81	1714.15
680.00	1812.45
680.18	1810.40
680.37	1730.53
680.55	1726.44
680.74	1648.61
680.93	1644.52
681.11	1703.91
681.30	1705.96
681.48	1705.96
681.67	1695.72
681.85	1697.77
682.04	1628.14
682.23	1726.44
682.41	1787.88
682.60	1683.43
682.78	1746.92
682.97	1658.85
683.15	1705.96
683.34	1759.21
683.53	1759.21
683.71	1701.86
683.90	1843.17
684.08	1767.40
684.27	1646.57
684.45	1710.05
684.64	1742.82
684.82	1619.94
685.01	1673.19
685.19	1683.43
685.38	1796.07
685.57	1624.04
685.75	1624.04
685.94	1744.87
686.12	1609.70
686.31	1746.92
686.49	1806.31
686.68	1609.70
686.86	1753.06
687.05	1685.48
687.23	1808.36
687.42	1671.14
687.60	1605.61
687.79	1748.97
687.97	1748.97
688.16	1675.24
688.34	1716.20
688.53	1589.22
688.71	1794.02
688.90	1767.40
689.08	1640.42
689.27	1636.33
689.45	1671.14
689.64	1710.05
689.82	1730.53
690.01	1714.15
690.19	1714.15
690.38	1775.59
690.56	1828.84
690.75	1685.48
690.93	1689.57
691.12	1677.29
691.30	1671.14
691.49	1658.85
691.67	1669.09
691.86	1767.40
692.04	1683.43
692.23	1636.33
692.41	1681.38
692.60	1861.60
692.78	1748.97
692.97	1632.23
693.15	1708.01
693.34	1730.53
693.52	1722.34
693.71	1689.57
693.89	1636.33
694.08	1681.38
694.26	1777.64
694.44	1765.35
694.63	1738.73
694.81	1648.61
695.00	1697.77
695.18	1742.82
695.37	1773.54
695.55	1755.11
695.74	1644.52
695.92	1695.72
696.10	1718.25
696.29	1687.53
696.47	1662.95
696.66	1654.76
696.84	1697.77
697.03	1767.40
697.21	1761.25
697.40	2287.58
697.58	1751.01
697.76	1687.53
697.95	1665.00
698.13	1652.71
698.32	1712.10
698.50	1730.53
698.68	1724.39
698.87	1701.86
699.05	1730.53
699.24	1695.72
699.42	1720.29
699.61	1681.38
699.79	1667.05
699.97	1699.81
700.16	1650.66
700.34	1615.85
700.53	1730.53
700.71	1816.55
700.89	1738.73
701.08	1701.86
701.26	1693.67
701.45	2103.26
701.63	1691.62
701.81	1658.85
702.00	1656.81
702.18	1767.40
702.37	1662.95
702.55	1771.49
702.73	1732.58
702.92	1626.09
703.10	1761.25
703.28	1673.19
703.47	1615.85
703.65	1796.07
703.84	1763.30
704.02	1685.48
704.20	1757.16
704.39	1585.13
704.57	1677.29
704.75	1759.21
704.94	1732.58
705.12	1695.72
705.30	1726.44
705.49	2289.63
705.67	4474.81
705.86	9688.94
706.04	12781.37
706.22	14765.85
706.41	15589.14
706.59	14128.94
706.77	9600.88
706.96	7608.20
707.14	6625.18
707.32	6129.57
707.51	5638.06
707.69	5064.63
707.87	4222.91
708.06	3629.00
708.24	3037.14
708.42	2496.47
708.61	2295.77
708.79	1947.62
708.97	1859.56
709.16	1812.45
709.34	1740.77
709.52	1748.97
709.71	1705.96
709.89	1802.21
710.07	1667.05
710.26	1703.91
710.44	1771.49
710.62	1746.92
710.80	1708.01
710.99	1783.78
711.17	1783.78
711.35	1626.09
711.54	1640.42
711.72	1728.49
711.90	1658.85
712.09	1656.81
712.27	1681.38
712.45	1724.39
712.63	1697.77
712.82	1691.62
713.00	1718.25
713.18	1726.44
713.37	1812.45
713.55	1683.43
713.73	1759.21
713.91	1800.16
714.10	1687.53
714.28	1652.71
714.46	1738.73
714.65	1720.29
714.83	1800.16
715.01	1650.66
715.19	1742.82
715.38	1699.81
715.56	1785.83
715.74	1708.01
715.92	1693.67
716.11	1697.77
716.29	1566.70
716.47	1640.42
716.65	1726.44
716.84	1697.77
717.02	1656.81
717.20	1654.76
717.38	1703.91
717.57	1732.58
717.75	1769.44
717.93	1652.71
718.11	1726.44
718.30	1675.24
718.48	1712.10
718.66	1769.44
718.84	1787.88
719.03	1677.29
719.21	1566.70
719.39	1779.68
719.57	1718.25
719.75	1716.20
719.94	1689.57
720.12	1615.85
720.30	1746.92
720.48	1755.11
720.67	1677.29
720.85	1732.58
721.03	1654.76
721.21	1654.76
721.39	1738.73
721.58	1679.33
721.76	1675.24
721.94	1705.96
722.12	1689.57
722.30	1820.64
722.49	1712.10
722.67	1644.52
722.85	1769.44
723.03	1624.04
723.21	1638.38
723.40	1748.97
723.58	1718.25
723.76	1763.30
723.94	1697.77
724.12	1689.57
724.30	1775.59
724.49	1773.54
724.67	1701.86
724.85	1732.58
725.03	1638.38
725.21	1689.57
725.40	1751.01
725.58	1697.77
725.76	1701.86
725.94	1757.16
726.12	1681.38
726.30	1722.34
726.49	1763.30
726.67	1718.25
726.85	1722.34
727.03	1755.11
727.21	2099.17
727.39	2906.07
727.57	3815.37
727.76	4208.58
727.94	4560.83
728.12	4374.46
728.30	3706.82
728.48	3049.43
728.66	2717.65
728.84	2580.44
729.03	2310.11
729.21	2129.89
729.39	2027.49
729.57	1816.55
729.75	1789.92
729.93	1834.98
730.11	1730.53
730.30	1734.63
730.48	1720.29
730.66	1812.45
730.84	1710.05
731.02	1650.66
731.20	1726.44
731.38	1726.44
731.56	1609.70
731.74	1632.23
731.93	1796.07
732.11	1671.14
732.29	1693.67
732.47	1660.90
732.65	1693.67
732.83	1812.45
733.01	1689.57
733.19	1619.94
733.37	1703.91
733.56	1734.63
733.74	1695.72
733.92	1816.55
734.10	1710.05
734.28	1708.01
734.46	1652.71
734.64	1677.29
734.82	1712.10
735.00	1667.05
735.18	1685.48
735.36	1683.43
735.54	1671.14
735.73	1734.63
735.91	1738.73
736.09	1705.96
736.27	1632.23
736.45	1800.16
736.63	1576.94
736.81	1689.57
736.99	1785.83
737.17	1779.68
737.35	1642.47
737.53	1740.77
737.71	1665.00
737.89	1767.40
738.07	1648.61
738.25	1630.18
738.43	1607.66
738.61	1726.44
738.80	1718.25
738.98	1656.81
739.16	1708.01
739.34	1589.22
739.52	1761.25
739.70	1699.81
739.88	1726.44
740.06	1761.25
740.24	1669.09
740.42	1720.29
740.60	1607.66
740.78	1689.57
740.96	1658.85
741.14	1660.90
741.32	1763.30
741.50	1662.95
741.68	1814.50
741.86	1759.21
742.04	1705.96
742.22	1654.76
742.40	1660.90
742.58	1720.29
742.76	1617.90
742.94	1650.66
743.12	1599.46
743.30	1636.33
743.48	1718.25
743.66	1675.24
743.84	1718.25
744.02	1652.71
744.20	1705.96
744.38	1624.04
744.56	1687.53
744.74	1753.06
744.92	1656.81
745.10	1730.53
745.28	1742.82
745.46	1767.40
745.64	1640.42
745.82	1787.88
746.00	1730.53
746.18	1748.97
746.36	1693.67
746.54	1681.38
746.72	1734.63
746.90	1628.14
747.08	1761.25
747.26	1734.63
747.44	1710.05
747.62	1718.25
747.80	1626.09
747.98	1794.02
748.15	1673.19
748.33	1777.64
748.51	1587.18
748.69	1665.00
748.87	1685.48
749.05	1695.72
749.23	1667.05
749.41	1710.05
749.59	1681.38
749.77	1759.21
749.95	1609.70
750.13	1722.34
750.31	1648.61
750.49	1640.42
750.67	1744.87
750.85	1746.92
751.03	1777.64
751.20	1820.64
751.38	1730.53
751.56	1699.81
751.74	1771.49
751.92	1669.09
752.10	1671.14
752.28	1697.77
752.46	1665.00
752.64	1740.77
752.82	1636.33
753.00	1746.92
753.18	1648.61
753.35	1646.57
753.53	1658.85
753.71	1673.19
753.89	1691.62
754.07	1665.00
754.25	1734.63
754.43	1736.68
754.61	1628.14
754.79	1716.20
754.97	1648.61
755.14	1720.29
755.32	1734.63
755.50	1632.23
755.68	1775.59
755.86	1660.90
756.04	1689.57
756.22	1615.85
756.40	1667.05
756.57	1814.50
756.75	1624.04
756.93	1759.21
757.11	1744.87
757.29	1615.85
757.47	1746.92
757.65	1615.85
757.82	1548.26
758.00	1640.42
758.18	1603.56
758.36	1640.42
758.54	1820.64
758.72	1630.18
758.90	1775.59
759.07	1705.96
759.25	1574.89
759.43	1742.82
759.61	1538.02
759.79	2195.42
759.97	1771.49
760.15	1615.85
760.32	1695.72
760.50	1574.89
760.68	1720.29
760.86	1570.79
761.04	1757.16
761.22	1740.77
761.39	1759.21
761.57	1712.10
761.75	1738.73
761.93	1710.05
762.11	1689.57
762.28	1654.76
762.46	1607.66
762.64	1761.25
762.82	1603.56
763.00	1662.95
763.18	1785.83
763.35	1619.94
763.53	1660.90
763.71	1673.19
763.89	1677.29
764.07	1705.96
764.24	1681.38
764.42	1746.92
764.60	1660.90
764.78	1742.82
764.96	1796.07
765.13	1722.34
765.31	1718.25
765.49	1814.50
765.67	1697.77
765.84	1648.61
766.02	1615.85
766.20	1609.70
766.38	1777.64
766.56	1775.59
766.73	1714.15
766.91	1718.25
767.09	1730.53
767.27	1798.12
767.44	1642.47
767.62	1710.05
767.80	1705.96
767.98	1697.77
768.15	1701.86
768.33	1757.16
768.51	1796.07
768.69	1681.38
768.87	1720.29
769.04	1585.13
769.22	1783.78
769.40	1843.17
769.58	1787.88
769.75	1738.73
769.93	1812.45
770.11	1669.09
770.28	1673.19
770.46	1828.84
770.64	1681.38
770.82	1634.28
770.99	1675.24
771.17	1798.12
771.35	1703.91
771.53	1710.05
771.70	1652.71
771.88	1718.25
772.06	1722.34
772.23	1755.11
772.41	1728.49
772.59	1701.86
772.77	1638.38
772.94	1642.47
773.12	1812.45
773.30	1744.87
773.47	1669.09
773.65	1669.09
773.83	1751.01
774.01	1744.87
774.18	1601.51
774.36	1755.11
774.54	1630.18
774.71	1712.10
774.89	1529.83
775.07	1652.71
775.24	1714.15
775.42	1624.04
775.60	1771.49
775.78	1693.67
775.95	1675.24
776.13	1566.70
776.31	1591.27
776.48	1665.00
776.66	1898.47
776.84	1671.14
777.01	1699.81
777.19	1665.00
777.37	1624.04
777.54	1773.54
777.72	1886.18
777.90	1718.25
778.07	1685.48
778.25	1894.37
778.43	1667.05
778.60	1716.20
778.78	1710.05
778.96	1800.16
779.13	1652.71
779.31	1742.82
779.49	1726.44
779.66	1728.49
779.84	1748.97
780.01	1710.05
780.19	1689.57
780.37	1746.92
780.54	1759.21
780.72	1671.14
780.90	1697.77
781.07	1681.38
781.25	1609.70
781.43	1744.87
781.60	1708.01
781.78	1785.83
781.95	1718.25
782.13	1628.14
782.31	1730.53
782.48	1654.76
782.66	1732.58
782.83	1796.07
783.01	1701.86
783.19	1724.39
783.36	1667.05
783.54	1626.09
783.72	1767.40
783.89	1710.05
784.07	1695.72
784.24	1703.91
784.42	1820.64
784.60	1736.68
784.77	1716.20
784.95	1603.56
785.12	1599.46
785.30	1699.81
785.47	1691.62
785.65	1587.18
785.83	1673.19
786.00	1662.95
786.18	1640.42
786.35	1626.09
786.53	1675.24
786.71	1751.01
786.88	1753.06
787.06	1675.24
787.23	1650.66
787.41	1646.57
787.58	1642.47
787.76	1683.43
787.94	1714.15
788.11	1667.05
788.29	1587.18
788.46	1621.99
788.64	1628.14
788.81	1687.53
788.99	1693.67
789.16	1660.90
789.34	1654.76
789.52	1675.24
789.69	1671.14
789.87	1603.56
790.04	1681.38
790.22	1701.86
790.39	1914.85
790.57	1628.14
790.74	1595.37
790.92	1744.87
791.09	1613.80
791.27	1748.97
791.44	1808.36
791.62	1667.05
791.79	1757.16
791.97	1652.71
792.15	1855.46
792.32	1736.68
792.50	1783.78
792.67	1744.87
792.85	1849.32
793.02	1693.67
793.20	1705.96
793.37	1574.89
793.55	1769.44
793.72	1615.85
793.90	1728.49
794.07	1675.24
794.25	1646.57
794.42	1732.58
794.60	1742.82
794.77	1757.16
794.95	1746.92
795.12	1767.40
795.30	1685.48
795.47	1546.22
795.65	1845.22
795.82	1656.81
796.00	1689.57
796.17	1636.33
796.34	1654.76
796.52	1689.57
796.69	1693.67
796.87	1738.73
797.04	1751.01
797.22	1751.01
797.39	1703.91
797.57	1748.97
797.74	1638.38
797.92	1718.25
798.09	1691.62
798.27	1742.82
798.44	1712.10
798.62	1595.37
798.79	1753.06
798.96	1781.73
799.14	1761.25
799.31	1853.41
799.49	1781.73
799.66	1710.05
799.84	1718.25
800.01	1621.99
800.19	1730.53
800.36	1662.95
800.53	1681.38
800.71	1777.64
800.88	1759.21
801.06	1689.57
801.23	1624.04
801.41	1679.33
801.58	1646.57
801.75	1576.94
801.93	1787.88
802.10	1712.10
802.28	1617.90
802.45	1613.80
802.63	1640.42
802.80	1767.40
802.97	1683.43
803.15	1636.33
803.32	1736.68
803.50	1746.92
803.67	1665.00
803.84	1673.19
804.02	1708.01
804.19	1634.28
804.37	1632.23
804.54	1648.61
804.71	1705.96
804.89	1687.53
805.06	1658.85
805.24	1578.98
805.41	1693.67
805.58	1632.23
805.76	1839.08
805.93	1785.83
806.10	1738.73
806.28	1710.05
806.45	1736.68
806.63	1681.38
806.80	1742.82
806.97	1722.34
807.15	1660.90
807.32	1685.48
807.49	1652.71
807.67	1687.53
807.84	1746.92
808.01	1617.90
808.19	1814.50
808.36	1765.35
808.54	1716.20
808.71	1667.05
808.88	1779.68
809.06	1677.29
809.23	1726.44
809.40	1595.37
809.58	1740.77
809.75	1679.33
809.92	1589.22
810.10	1818.60
810.27	1722.34
810.44	1667.05
810.62	1740.77
810.79	1748.97
810.96	1669.09
811.14	1675.24
811.31	1705.96
811.48	1753.06
811.66	1796.07
811.83	1662.95
812.00	1744.87
812.18	1677.29
812.35	1791.97
812.52	1728.49
812.69	1677.29
812.87	1769.44
813.04	1665.00
813.21	1724.39
813.39	1648.61
813.56	1683.43
813.73	1757.16
813.91	1585.13
814.08	1732.58
814.25	1708.01
814.42	1636.33
814.60	1638.38
814.77	1671.14
814.94	1685.48
815.12	1685.48
815.29	1826.79
815.46	1673.19
815.63	1812.45
815.81	1681.38
815.98	1679.33
816.15	1710.05
816.33	1724.39
816.50	1673.19
816.67	1728.49
816.84	1732.58
817.02	1566.70
817.19	1642.47
817.36	1759.21
817.53	1728.49
817.71	1691.62
817.88	1884.13
818.05	1710.05
818.22	1660.90
818.40	1830.88
818.57	1740.77
818.74	1673.19
818.91	1652.71
819.09	1769.44
819.26	1791.97
819.43	1632.23
819.60	1671.14
819.78	1708.01
819.95	1751.01
820.12	1654.76
820.29	1734.63
820.47	1777.64
820.64	1720.29
820.81	1560.55
820.98	1751.01
821.15	1708.01
821.33	1726.44
821.50	1613.80
821.67	1734.63
821.84	1665.00
822.02	1730.53
822.19	1673.19
822.36	1701.86
822.53	1638.38
822.70	1648.61
822.88	1732.58
823.05	1712.10
823.22	1642.47
823.39	1767.40
823.56	1693.67
823.74	1810.40
823.91	1636.33
824.08	1675.24
824.25	1581.03
824.42	1710.05
824.60	1628.14
824.77	1779.68
824.94	1634.28
825.11	1744.87
825.28	1638.38
825.45	1603.56
825.63	1763.30
825.80	1628.14
825.97	1603.56
826.14	1714.15
826.31	1642.47
826.48	1689.57
826.66	1662.95
826.83	1613.80
827.00	1681.38
827.17	1646.57
827.34	1697.77
827.51	1740.77
827.69	1667.05
827.86	1662.95
828.03	1638.38
828.20	1724.39
828.37	1669.09
828.54	1744.87
828.71	1617.90
828.89	1787.88
829.06	1699.81
829.23	1775.59
829.40	1656.81
829.57	1607.66
829.74	1769.44
829.91	1701.86
830.09	1611.75
830.26	1718.25
830.43	1777.64
830.60	1701.86
830.77	1744.87
830.94	1763.30
831.11	1697.77
831.28	1619.94
831.46	1703.91
831.63	1701.86
831.80	1777.64
831.97	1621.99
832.14	1687.53
832.31	1773.54
832.48	1742.82
832.65	1732.58
832.82	1771.49
832.99	1691.62
833.17	1644.52
833.34	1732.58
833.51	1845.22
833.68	1660.90
833.85	1699.81
834.02	1626.09
834.19	1660.90
834.36	1697.77
834.53	1683.43
834.70	1730.53
834.87	1746.92
835.04	1658.85
835.22	1675.24
835.39	1632.23
835.56	1669.09
835.73	1708.01
835.90	1720.29
836.07	1605.61
836.24	1744.87
836.41	1722.34
836.58	1591.27
836.75	1732.58
836.92	1701.86
837.09	1609.70
837.26	1744.87
837.43	1685.48
837.60	1673.19
837.77	1699.81
837.94	1650.66
838.12	1730.53
838.29	1662.95
838.46	1611.75
838.63	1640.42
838.80	1820.64
838.97	1777.64
839.14	1720.29
839.31	1636.33
839.48	1767.40
839.65	1724.39
839.82	1732.58
839.99	1669.09
840.16	1697.77
840.33	1611.75
840.50	1703.91
840.67	1660.90
840.84	1591.27
841.01	1724.39
841.18	1642.47
841.35	1658.85
841.52	1742.82
841.69	1804.26
841.86	1652.71
842.03	1732.58
842.20	1746.92
842.37	1681.38
842.54	1693.67
842.71	1753.06
842.88	1632.23
843.05	1665.00
843.22	1671.14
843.39	1748.97
843.56	1667.05
843.73	1685.48
843.90	1724.39
844.07	1753.06
844.24	1730.53
844.41	1748.97
844.58	1746.92
844.75	1685.48
844.92	1755.11
845.09	1673.19
845.26	1630.18
845.43	1746.92
845.60	1662.95
845.77	1818.60
845.94	1683.43
846.10	1705.96
846.27	1638.38
846.44	1589.22
846.61	1660.90
846.78	1722.34
846.95	1757.16
847.12	1695.72
847.29	1613.80
847.46	1662.95
847.63	1699.81
847.80	1613.80
847.97	1736.68
848.14	1816.55
848.31	1726.44
848.48	1673.19
848.65	1726.44
848.82	1576.94
848.98	1816.55
849.15	1701.86
849.32	1826.79
849.49	1701.86
849.66	1705.96
849.83	1703.91
850.00	1556.46
850.17	1665.00
850.34	1619.94
850.51	1677.29
850.68	1605.61
850.85	1802.21
851.01	1701.86
851.18	1687.53
851.35	1679.33
851.52	1656.81
851.69	1753.06
851.86	1646.57
852.03	1646.57
852.20	1744.87
852.37	1765.35
852.53	1626.09
852.70	1685.48
852.87	1781.73
853.04	1751.01
853.21	1677.29
853.38	1716.20
853.55	1730.53
853.72	1794.02
853.89	1638.38
854.05	1722.34
854.22	1603.56
854.39	1701.86
854.56	1761.25
854.73	1724.39
854.90	1687.53
855.07	1673.19
855.23	1685.48
855.40	1695.72
855.57	1638.38
855.74	1615.85
855.91	1816.55
856.08	1681.38
856.25	1626.09
856.41	1716.20
856.58	1630.18
856.75	1714.15
856.92	1626.09
857.09	1685.48
857.26	1611.75
857.42	1722.34
857.59	1757.16
857.76	1665.00
857.93	1679.33
858.10	1697.77
858.27	1685.48
858.43	1619.94
858.60	1705.96
858.77	1562.60
858.94	1642.47
859.11	1703.91
859.27	1636.33
859.44	1691.62
859.61	1800.16
859.78	1697.77
859.95	1665.00
860.12	1605.61
860.28	1755.11
860.45	1818.60
860.62	1642.47
860.79	1738.73
860.95	1712.10
861.12	1628.14
861.29	1619.94
861.46	1654.76
861.63	1730.53
861.79	1685.48
861.96	1705.96
862.13	1626.09
862.30	1869.80
862.47	1632.23
862.63	1626.09
862.80	1720.29
862.97	1841.12
863.14	1728.49
863.30	1748.97
863.47	1648.61
863.64	1771.49
863.81	1714.15
863.97	1720.29
864.14	1673.19
864.31	1671.14
864.48	1693.67
864.65	1759.21
864.81	1789.92
864.98	1730.53
865.15	1804.26
865.32	1753.06
865.48	1724.39
865.65	1720.29
865.82	1640.42
865.98	1740.77
866.15	1755.11
866.32	1697.77
866.49	1658.85
866.65	1683.43
866.82	1685.48
866.99	1722.34
867.16	1675.24
867.32	1624.04
867.49	1699.81
867.66	1644.52
867.83	1626.09
867.99	1603.56
868.16	1603.56
868.33	1611.75
868.49	1714.15
868.66	1681.38
868.83	1824.74
868.99	1695.72
869.16	1736.68
869.33	1775.59
869.50	1794.02
869.66	1726.44
869.83	1667.05
870.00	1636.33
870.16	1740.77
870.33	1736.68
870.50	1722.34
870.66	1642.47
870.83	1847.27
871.00	1644.52
871.17	1697.77
871.33	1710.05
871.50	1748.97
871.67	1617.90
871.83	1583.08
872.00	1775.59
872.17	1726.44
872.33	1814.50
872.50	1771.49
872.67	1648.61
872.83	1673.19
873.00	1771.49
873.17	1644.52
873.33	1757.16
873.50	1685.48
873.67	1650.66
873.83	1632.23
874.00	1699.81
874.16	1785.83
874.33	1718.25
874.50	1736.68
874.66	1726.44
874.83	1710.05
875.00	1742.82
875.16	1691.62
875.33	1755.11
875.50	1583.08
875.66	1665.00
875.83	1640.42
875.99	1748.97
876.16	1665.00
876.33	1642.47
876.49	1673.19
876.66	1810.40
876.83	1714.15
876.99	1593.32
877.16	1697.77
877.32	1755.11
877.49	1724.39
877.66	1742.82
877.82	1755.11
877.99	1701.86
878.15	1755.11
878.32	1683.43
878.49	1710.05
878.65	1726.44
878.82	1716.20
878.98	1677.29
879.15	1779.68
879.32	1722.34
879.48	1675.24
879.65	1667.05
879.81	1646.57
879.98	1632.23
880.15	1624.04
880.31	1701.86
880.48	1658.85
880.64	1726.44
880.81	1691.62
880.97	1849.32
881.14	1656.81
881.31	1613.80
881.47	1820.64
881.64	1718.25
881.80	1595.37
881.97	1730.53
882.13	1753.06
882.30	1624.04
882.47	1652.71
882.63	1640.42
882.80	1738.73
882.96	1646.57
883.13	1779.68
883.29	1712.10
883.46	1697.77
883.62	1789.92
883.79	1681.38
883.95	1740.77
884.12	1767.40
884.29	1744.87
884.45	1699.81
884.62	1701.86
884.78	1630.18
884.95	1796.07
885.11	1687.53
885.28	1710.05
885.44	1615.85
885.61	1722.34
885.77	1824.74
885.94	1748.97
886.10	1738.73
886.27	1703.91
886.43	1746.92
886.60	1789.92
886.76	1636.33
886.93	1751.01
887.09	1693.67
887.26	1556.46
887.42	1728.49
887.59	1796.07
887.75	1791.97
887.92	1755.11
888.08	1687.53
888.25	1794.02
888.41	1697.77
888.58	1636.33
888.74	1650.66
888.91	1593.32
>>>>>End Processed Spectral Data<<<<<
