SpectraSuite Data File
++++++++++++++++++++++++++++++++++++
Date: Mon Jun 06 17:39:57 CEST 2016
User: root
Dark Spectrum Present: No
Reference Spectrum Present: No
Number of Sampled Component Spectra: 1
Spectrometers: USB4C02835
Integration Time (usec): 100000 (USB4C02835)
Spectra Averaged: 1 (USB4C02835)
Boxcar Smoothing: 0 (USB4C02835)
Correct for Electrical Dark: No (USB4C02835)
Strobe/Lamp Enabled: No (USB4C02835)
Correct for Detector Non-linearity: No (USB4C02835)
Correct for Stray Light: No (USB4C02835)
Number of Pixels in Processed Spectrum: 3648
>>>>>Begin Processed Spectral Data<<<<<
177.47	1486.83
177.69	1486.83
177.91	1486.83
178.13	1488.87
178.36	1411.05
178.58	1732.58
178.80	1761.25
179.02	1658.85
179.24	1650.66
179.46	1697.77
179.68	1683.43
179.90	1732.58
180.13	1646.57
180.35	1685.48
180.57	1740.77
180.79	1775.59
181.01	1671.14
181.23	1787.88
181.45	1730.53
181.67	1714.15
181.90	1732.58
182.12	1677.29
182.34	1648.61
182.56	1722.34
182.78	1734.63
183.00	1693.67
183.22	1722.34
183.44	1587.18
183.66	1871.84
183.89	1734.63
184.11	1720.29
184.33	1812.45
184.55	1798.12
184.77	1738.73
184.99	1738.73
185.21	1648.61
185.43	1824.74
185.65	1734.63
185.87	1708.01
186.10	1943.52
186.32	1869.80
186.54	1773.54
186.76	1810.40
186.98	1675.24
187.20	1736.68
187.42	1677.29
187.64	1662.95
187.86	1744.87
188.08	1781.73
188.30	1738.73
188.52	1734.63
188.75	1783.78
188.97	1804.26
189.19	1636.33
189.41	1716.20
189.63	1683.43
189.85	1748.97
190.07	1617.90
190.29	1660.90
190.51	1767.40
190.73	1658.85
190.95	1753.06
191.17	1695.72
191.39	1660.90
191.61	1667.05
191.84	1722.34
192.06	1738.73
192.28	1634.28
192.50	1906.66
192.72	1777.64
192.94	1671.14
193.16	1734.63
193.38	1742.82
193.60	1634.28
193.82	1714.15
194.04	1744.87
194.26	1753.06
194.48	1757.16
194.70	1648.61
194.92	1726.44
195.14	1779.68
195.36	1624.04
195.58	1681.38
195.80	1757.16
196.02	1730.53
196.24	1740.77
196.46	1720.29
196.69	1677.29
196.91	1802.21
197.13	1685.48
197.35	1681.38
197.57	1761.25
197.79	1730.53
198.01	1728.49
198.23	1791.97
198.45	1755.11
198.67	1683.43
198.89	1748.97
199.11	1763.30
199.33	1695.72
199.55	1572.84
199.77	1761.25
199.99	1814.50
200.21	1695.72
200.43	1748.97
200.65	1648.61
200.87	1595.37
201.09	1732.58
201.31	1675.24
201.53	1802.21
201.75	1718.25
201.97	1722.34
202.19	1720.29
202.41	1755.11
202.63	1832.93
202.85	1716.20
203.07	1673.19
203.29	1671.14
203.51	1667.05
203.73	1736.68
203.95	1943.52
204.17	1744.87
204.39	1746.92
204.61	1699.81
204.83	1673.19
205.05	1767.40
205.27	1738.73
205.49	1849.32
205.71	1779.68
205.93	1581.03
206.15	1687.53
206.37	1679.33
206.59	1669.09
206.81	1628.14
207.03	1619.94
207.25	1658.85
207.47	1728.49
207.69	1716.20
207.91	1779.68
208.13	1822.69
208.34	1615.85
208.56	1691.62
208.78	1714.15
209.00	1669.09
209.22	1732.58
209.44	1722.34
209.66	1732.58
209.88	1734.63
210.10	1681.38
210.32	1734.63
210.54	1877.99
210.76	1718.25
210.98	1826.79
211.20	1685.48
211.42	1775.59
211.64	1820.64
211.86	1759.21
212.08	1730.53
212.30	1708.01
212.52	1658.85
212.74	1726.44
212.96	1642.47
213.17	1744.87
213.39	1753.06
213.61	1812.45
213.83	1714.15
214.05	1701.86
214.27	1716.20
214.49	1665.00
214.71	1675.24
214.93	1763.30
215.15	1671.14
215.37	1804.26
215.59	1587.18
215.81	1861.60
216.03	1765.35
216.24	1755.11
216.46	1720.29
216.68	1701.86
216.90	1724.39
217.12	1822.69
217.34	1683.43
217.56	1712.10
217.78	1689.57
218.00	1746.92
218.22	1728.49
218.44	1734.63
218.66	1701.86
218.87	1820.64
219.09	1638.38
219.31	1779.68
219.53	1787.88
219.75	1732.58
219.97	1716.20
220.19	1687.53
220.41	1712.10
220.63	1779.68
220.85	1742.82
221.06	1667.05
221.28	1853.41
221.50	1736.68
221.72	1771.49
221.94	1757.16
222.16	1691.62
222.38	1746.92
222.60	1687.53
222.82	1722.34
223.03	1726.44
223.25	1665.00
223.47	1695.72
223.69	1804.26
223.91	1746.92
224.13	1677.29
224.35	1638.38
224.57	1771.49
224.78	1761.25
225.00	1716.20
225.22	1740.77
225.44	1658.85
225.66	1722.34
225.88	1660.90
226.10	1789.92
226.32	1791.97
226.53	1871.84
226.75	1726.44
226.97	1683.43
227.19	1708.01
227.41	1632.23
227.63	1710.05
227.85	1652.71
228.06	1714.15
228.28	1728.49
228.50	1716.20
228.72	1681.38
228.94	1759.21
229.16	1642.47
229.37	1595.37
229.59	1705.96
229.81	1796.07
230.03	1695.72
230.25	1640.42
230.47	1654.76
230.69	1581.03
230.90	1746.92
231.12	1669.09
231.34	1712.10
231.56	1738.73
231.78	1693.67
232.00	1716.20
232.21	1710.05
232.43	1734.63
232.65	1611.75
232.87	1732.58
233.09	1691.62
233.30	1679.33
233.52	1798.12
233.74	1665.00
233.96	1691.62
234.18	1751.01
234.40	1708.01
234.61	1888.23
234.83	1642.47
235.05	1624.04
235.27	1918.95
235.49	1839.08
235.70	1734.63
235.92	1791.97
236.14	1769.44
236.36	1859.56
236.58	1617.90
236.79	1755.11
237.01	1675.24
237.23	1677.29
237.45	1853.41
237.67	1701.86
237.88	1746.92
238.10	1761.25
238.32	1710.05
238.54	1742.82
238.76	1751.01
238.97	1724.39
239.19	1703.91
239.41	1779.68
239.63	1818.60
239.85	1642.47
240.06	1724.39
240.28	1703.91
240.50	1751.01
240.72	1675.24
240.93	1693.67
241.15	1845.22
241.37	1748.97
241.59	1767.40
241.81	1648.61
242.02	1699.81
242.24	1736.68
242.46	1753.06
242.68	1712.10
242.89	1697.77
243.11	1712.10
243.33	1691.62
243.55	1697.77
243.76	1693.67
243.98	1722.34
244.20	1767.40
244.42	1695.72
244.64	1675.24
244.85	1665.00
245.07	1665.00
245.29	1800.16
245.51	1744.87
245.72	1714.15
245.94	1779.68
246.16	1730.53
246.38	1705.96
246.59	1638.38
246.81	1644.52
247.03	1671.14
247.24	1685.48
247.46	1656.81
247.68	1714.15
247.90	1605.61
248.11	1691.62
248.33	1755.11
248.55	1669.09
248.77	1708.01
248.98	1755.11
249.20	1900.52
249.42	1724.39
249.64	1757.16
249.85	1703.91
250.07	1736.68
250.29	1757.16
250.50	1730.53
250.72	1669.09
250.94	1789.92
251.16	1853.41
251.37	1722.34
251.59	1775.59
251.81	1746.92
252.02	1787.88
252.24	1744.87
252.46	1871.84
252.68	1658.85
252.89	1738.73
253.11	1632.23
253.33	1810.40
253.54	1730.53
253.76	1605.61
253.98	1693.67
254.20	1763.30
254.41	1705.96
254.63	1716.20
254.85	1673.19
255.06	1783.78
255.28	1665.00
255.50	1630.18
255.71	1662.95
255.93	1656.81
256.15	1675.24
256.36	1718.25
256.58	1726.44
256.80	1779.68
257.02	1714.15
257.23	1656.81
257.45	1798.12
257.67	1789.92
257.88	1753.06
258.10	1716.20
258.32	1748.97
258.53	1650.66
258.75	1802.21
258.97	1634.28
259.18	1791.97
259.40	1720.29
259.62	1771.49
259.83	1798.12
260.05	1644.52
260.27	1953.76
260.48	1800.16
260.70	1634.28
260.92	1722.34
261.13	1708.01
261.35	1710.05
261.57	1759.21
261.78	1570.79
262.00	1628.14
262.22	1925.09
262.43	1708.01
262.65	1660.90
262.86	1677.29
263.08	1820.64
263.30	1734.63
263.51	1685.48
263.73	1695.72
263.95	1757.16
264.16	1705.96
264.38	1632.23
264.60	1789.92
264.81	1736.68
265.03	1773.54
265.25	1787.88
265.46	1656.81
265.68	1708.01
265.89	1802.21
266.11	1642.47
266.33	1810.40
266.54	1845.22
266.76	1804.26
266.98	1757.16
267.19	1789.92
267.41	1802.21
267.62	1710.05
267.84	1624.04
268.06	1708.01
268.27	1734.63
268.49	1779.68
268.70	1746.92
268.92	1679.33
269.14	1642.47
269.35	1742.82
269.57	1710.05
269.79	1763.30
270.00	1705.96
270.22	1710.05
270.43	1685.48
270.65	1671.14
270.87	1685.48
271.08	1765.35
271.30	1794.02
271.51	1732.58
271.73	1785.83
271.95	1798.12
272.16	1732.58
272.38	1734.63
272.59	1665.00
272.81	1751.01
273.02	1738.73
273.24	1718.25
273.46	1810.40
273.67	1656.81
273.89	1660.90
274.10	1681.38
274.32	1703.91
274.54	1771.49
274.75	1753.06
274.97	1695.72
275.18	1746.92
275.40	1755.11
275.61	1738.73
275.83	1728.49
276.05	1673.19
276.26	1705.96
276.48	1779.68
276.69	1685.48
276.91	1681.38
277.12	1767.40
277.34	1816.55
277.55	1697.77
277.77	1777.64
277.99	1730.53
278.20	1681.38
278.42	1687.53
278.63	1658.85
278.85	1693.67
279.06	1687.53
279.28	1810.40
279.49	1671.14
279.71	1744.87
279.93	1708.01
280.14	1783.78
280.36	1683.43
280.57	1775.59
280.79	1781.73
281.00	1640.42
281.22	1708.01
281.43	1810.40
281.65	1693.67
281.86	1673.19
282.08	1701.86
282.29	1830.88
282.51	1660.90
282.73	1630.18
282.94	1589.22
283.16	1740.77
283.37	1867.75
283.59	1757.16
283.80	1710.05
284.02	1751.01
284.23	1796.07
284.45	1742.82
284.66	1693.67
284.88	1621.99
285.09	1722.34
285.31	1724.39
285.52	1748.97
285.74	1638.38
285.95	1808.36
286.17	1773.54
286.38	1820.64
286.60	1650.66
286.81	1691.62
287.03	1738.73
287.24	1691.62
287.46	1718.25
287.67	1726.44
287.89	1869.80
288.10	1681.38
288.32	1771.49
288.53	1794.02
288.75	1642.47
288.96	1679.33
289.18	1662.95
289.39	1759.21
289.61	1751.01
289.82	1804.26
290.04	1773.54
290.25	1699.81
290.47	1648.61
290.68	1693.67
290.90	1789.92
291.11	1609.70
291.33	1718.25
291.54	1691.62
291.76	1609.70
291.97	1828.84
292.18	1738.73
292.40	1712.10
292.61	1689.57
292.83	1900.52
293.04	1814.50
293.26	1718.25
293.47	1642.47
293.69	1742.82
293.90	1777.64
294.12	1730.53
294.33	1738.73
294.55	1769.44
294.76	1812.45
294.97	1802.21
295.19	1865.70
295.40	1693.67
295.62	1681.38
295.83	1820.64
296.05	1648.61
296.26	1738.73
296.48	1646.57
296.69	1695.72
296.90	1656.81
297.12	1759.21
297.33	1785.83
297.55	1771.49
297.76	1722.34
297.98	1830.88
298.19	1708.01
298.41	1753.06
298.62	1701.86
298.83	1779.68
299.05	1671.14
299.26	1665.00
299.48	1669.09
299.69	1826.79
299.90	1755.11
300.12	1685.48
300.33	1726.44
300.55	1808.36
300.76	1710.05
300.98	1595.37
301.19	1716.20
301.40	1781.73
301.62	1759.21
301.83	1744.87
302.05	1699.81
302.26	1654.76
302.47	1751.01
302.69	1687.53
302.90	1689.57
303.12	1617.90
303.33	1720.29
303.54	1882.08
303.76	1671.14
303.97	1740.77
304.19	1824.74
304.40	1632.23
304.61	1708.01
304.83	1886.18
305.04	1779.68
305.26	1806.31
305.47	1734.63
305.68	1730.53
305.90	1703.91
306.11	1720.29
306.33	1689.57
306.54	1685.48
306.75	1705.96
306.97	1673.19
307.18	1675.24
307.39	1675.24
307.61	1787.88
307.82	1669.09
308.04	1763.30
308.25	1689.57
308.46	1800.16
308.68	1695.72
308.89	1705.96
309.10	1791.97
309.32	1781.73
309.53	1742.82
309.74	1699.81
309.96	1685.48
310.17	1867.75
310.39	1669.09
310.60	1753.06
310.81	1708.01
311.03	1662.95
311.24	1755.11
311.45	1734.63
311.67	1781.73
311.88	1710.05
312.09	1685.48
312.31	1667.05
312.52	1722.34
312.73	1685.48
312.95	1554.41
313.16	1679.33
313.37	1787.88
313.59	1738.73
313.80	1734.63
314.01	1834.98
314.23	1626.09
314.44	1757.16
314.65	1728.49
314.87	1734.63
315.08	1681.38
315.29	1718.25
315.51	1697.77
315.72	1710.05
315.93	1701.86
316.15	1849.32
316.36	1710.05
316.57	1652.71
316.79	1722.34
317.00	1763.30
317.21	1744.87
317.43	1757.16
317.64	1716.20
317.85	1710.05
318.07	1681.38
318.28	1722.34
318.49	1763.30
318.70	1949.67
318.92	1877.99
319.13	1822.69
319.34	1851.36
319.56	1794.02
319.77	1810.40
319.98	1783.78
320.20	1763.30
320.41	1740.77
320.62	1734.63
320.83	1630.18
321.05	1847.27
321.26	1789.92
321.47	1705.96
321.69	1796.07
321.90	1699.81
322.11	1660.90
322.32	1771.49
322.54	1814.50
322.75	1689.57
322.96	1865.70
323.18	1634.28
323.39	1662.95
323.60	1710.05
323.81	1820.64
324.03	1716.20
324.24	1722.34
324.45	1761.25
324.66	1718.25
324.88	1716.20
325.09	1789.92
325.30	1757.16
325.52	1703.91
325.73	1714.15
325.94	1642.47
326.15	1603.56
326.37	1705.96
326.58	1791.97
326.79	1761.25
327.00	1626.09
327.22	1798.12
327.43	1689.57
327.64	1611.75
327.85	1720.29
328.07	1740.77
328.28	1837.03
328.49	1660.90
328.70	1773.54
328.92	1734.63
329.13	1677.29
329.34	1765.35
329.55	1857.51
329.76	1824.74
329.98	1716.20
330.19	1820.64
330.40	1806.31
330.61	1748.97
330.83	1787.88
331.04	1644.52
331.25	1685.48
331.46	1806.31
331.68	1603.56
331.89	1751.01
332.10	1763.30
332.31	1665.00
332.52	1746.92
332.74	1800.16
332.95	1624.04
333.16	1687.53
333.37	1751.01
333.58	1716.20
333.80	1783.78
334.01	1615.85
334.22	1736.68
334.43	1665.00
334.64	1746.92
334.86	1630.18
335.07	1677.29
335.28	1724.39
335.49	1636.33
335.70	1755.11
335.92	1753.06
336.13	1841.12
336.34	1755.11
336.55	1798.12
336.76	1777.64
336.98	1611.75
337.19	1660.90
337.40	1810.40
337.61	1818.60
337.82	1708.01
338.04	1779.68
338.25	1599.46
338.46	1648.61
338.67	1669.09
338.88	1675.24
339.09	1679.33
339.31	1607.66
339.52	1695.72
339.73	1689.57
339.94	1683.43
340.15	1746.92
340.36	1681.38
340.58	1693.67
340.79	1681.38
341.00	1742.82
341.21	1581.03
341.42	1808.36
341.63	1683.43
341.85	1781.73
342.06	1746.92
342.27	1658.85
342.48	1804.26
342.69	1705.96
342.90	1763.30
343.12	1712.10
343.33	1693.67
343.54	1818.60
343.75	1871.84
343.96	1730.53
344.17	1644.52
344.38	1734.63
344.60	1738.73
344.81	1652.71
345.02	1703.91
345.23	1757.16
345.44	1871.84
345.65	1703.91
345.86	1779.68
346.07	1650.66
346.29	1644.52
346.50	1751.01
346.71	1755.11
346.92	1781.73
347.13	1886.18
347.34	1716.20
347.55	1667.05
347.76	1689.57
347.98	1656.81
348.19	1667.05
348.40	1753.06
348.61	1644.52
348.82	1808.36
349.03	1748.97
349.24	1687.53
349.45	1746.92
349.66	1601.51
349.88	1761.25
350.09	1673.19
350.30	1710.05
350.51	1769.44
350.72	1781.73
350.93	1667.05
351.14	1671.14
351.35	1757.16
351.56	1740.77
351.77	1730.53
351.99	1751.01
352.20	1808.36
352.41	1781.73
352.62	1640.42
352.83	1705.96
353.04	1607.66
353.25	1642.47
353.46	1853.41
353.67	1781.73
353.88	1597.42
354.09	1673.19
354.30	1720.29
354.52	1763.30
354.73	1730.53
354.94	1730.53
355.15	1771.49
355.36	1849.32
355.57	1701.86
355.78	1751.01
355.99	1665.00
356.20	1738.73
356.41	1746.92
356.62	1691.62
356.83	1730.53
357.04	1734.63
357.25	1566.70
357.46	1744.87
357.68	1646.57
357.89	1626.09
358.10	1687.53
358.31	1673.19
358.52	1658.85
358.73	1630.18
358.94	1703.91
359.15	1730.53
359.36	1759.21
359.57	1746.92
359.78	1677.29
359.99	1693.67
360.20	1669.09
360.41	1742.82
360.62	1810.40
360.83	1679.33
361.04	1699.81
361.25	1748.97
361.46	1861.60
361.67	1732.58
361.88	1753.06
362.09	1818.60
362.30	1761.25
362.51	1738.73
362.72	1714.15
362.93	1755.11
363.14	1775.59
363.35	1767.40
363.56	1685.48
363.78	1755.11
363.99	1775.59
364.20	1738.73
364.41	1689.57
364.62	1886.18
364.83	1724.39
365.04	1656.81
365.25	1701.86
365.46	1843.17
365.67	1738.73
365.88	1671.14
366.09	1718.25
366.30	1656.81
366.51	1771.49
366.72	1615.85
366.93	1763.30
367.14	1701.86
367.35	1853.41
367.56	1660.90
367.77	1843.17
367.98	1724.39
368.18	1738.73
368.39	1779.68
368.60	1652.71
368.81	1779.68
369.02	1705.96
369.23	1660.90
369.44	1667.05
369.65	1660.90
369.86	1710.05
370.07	1822.69
370.28	1712.10
370.49	1716.20
370.70	1800.16
370.91	1660.90
371.12	1679.33
371.33	1740.77
371.54	1748.97
371.75	1828.84
371.96	1583.08
372.17	1789.92
372.38	1673.19
372.59	1736.68
372.80	1685.48
373.01	1755.11
373.22	1751.01
373.43	1736.68
373.64	1613.80
373.85	1832.93
374.06	1814.50
374.26	1757.16
374.47	1796.07
374.68	1828.84
374.89	1665.00
375.10	1734.63
375.31	1740.77
375.52	1724.39
375.73	1705.96
375.94	1687.53
376.15	1755.11
376.36	1689.57
376.57	1691.62
376.78	1708.01
376.99	1701.86
377.20	1820.64
377.40	1730.53
377.61	1824.74
377.82	1607.66
378.03	1794.02
378.24	1796.07
378.45	1742.82
378.66	1769.44
378.87	1658.85
379.08	1626.09
379.29	1785.83
379.50	1804.26
379.71	1671.14
379.91	1785.83
380.12	1705.96
380.33	1712.10
380.54	1746.92
380.75	1699.81
380.96	1695.72
381.17	1740.77
381.38	1787.88
381.59	1828.84
381.80	1759.21
382.00	1873.89
382.21	1689.57
382.42	1855.46
382.63	1884.13
382.84	1789.92
383.05	1853.41
383.26	1900.52
383.47	1845.22
383.68	1755.11
383.88	1794.02
384.09	1746.92
384.30	1820.64
384.51	1714.15
384.72	1675.24
384.93	1687.53
385.14	1712.10
385.35	1773.54
385.55	1626.09
385.76	1767.40
385.97	1775.59
386.18	1691.62
386.39	1689.57
386.60	1714.15
386.81	1662.95
387.02	1708.01
387.22	1642.47
387.43	1853.41
387.64	1820.64
387.85	1832.93
388.06	2154.46
388.27	4196.29
388.48	6885.27
388.68	8200.07
388.89	9686.89
389.10	9918.31
389.31	8740.73
389.52	7589.77
389.73	6649.75
389.93	6156.19
390.14	5752.74
390.35	5263.28
390.56	4677.56
390.77	3786.69
390.98	3119.06
391.18	2557.91
391.39	2039.78
391.60	1853.41
391.81	1818.60
392.02	1744.87
392.23	1824.74
392.43	1740.77
392.64	1820.64
392.85	1662.95
393.06	1802.21
393.27	1822.69
393.47	1703.91
393.68	1818.60
393.89	1724.39
394.10	1802.21
394.31	1662.95
394.52	1681.38
394.72	1712.10
394.93	1804.26
395.14	1689.57
395.35	1796.07
395.56	1662.95
395.76	1769.44
395.97	1722.34
396.18	1927.14
396.39	1861.60
396.60	2002.91
396.80	1992.67
397.01	1853.41
397.22	1861.60
397.43	1828.84
397.64	1814.50
397.84	1804.26
398.05	1859.56
398.26	1755.11
398.47	1826.79
398.67	1761.25
398.88	1685.48
399.09	1714.15
399.30	1642.47
399.51	1728.49
399.71	1671.14
399.92	1636.33
400.13	1759.21
400.34	1675.24
400.54	1695.72
400.75	1845.22
400.96	1738.73
401.17	1732.58
401.37	1716.20
401.58	1767.40
401.79	1746.92
402.00	1888.23
402.21	2035.68
402.41	1980.39
402.62	1998.82
402.83	2011.11
403.04	1974.24
403.24	2107.36
403.45	1865.70
403.66	1953.76
403.87	1828.84
404.07	1990.63
404.28	1923.04
404.49	1927.14
404.70	1837.03
404.90	1767.40
405.11	1787.88
405.32	1781.73
405.52	1689.57
405.73	1677.29
405.94	1644.52
406.15	1726.44
406.35	1814.50
406.56	1730.53
406.77	1644.52
406.98	1689.57
407.18	1611.75
407.39	1748.97
407.60	1687.53
407.80	1773.54
408.01	1695.72
408.22	1710.05
408.43	1769.44
408.63	1697.77
408.84	1728.49
409.05	1794.02
409.25	1703.91
409.46	1632.23
409.67	1683.43
409.88	1675.24
410.08	1705.96
410.29	1783.78
410.50	1734.63
410.70	1703.91
410.91	1677.29
411.12	1730.53
411.32	1654.76
411.53	1724.39
411.74	1841.12
411.95	1884.13
412.15	1724.39
412.36	1757.16
412.57	1767.40
412.77	1812.45
412.98	1697.77
413.19	1732.58
413.39	1738.73
413.60	1806.31
413.81	1828.84
414.01	1685.48
414.22	1785.83
414.43	1787.88
414.63	1697.77
414.84	1812.45
415.05	1679.33
415.25	1730.53
415.46	1775.59
415.67	1708.01
415.87	1734.63
416.08	1826.79
416.29	1695.72
416.49	1722.34
416.70	1685.48
416.91	1769.44
417.11	1701.86
417.32	1751.01
417.53	1837.03
417.73	1798.12
417.94	1787.88
418.15	1804.26
418.35	1650.66
418.56	1724.39
418.77	1832.93
418.97	1714.15
419.18	1751.01
419.38	1570.79
419.59	1761.25
419.80	1863.65
420.00	1683.43
420.21	1765.35
420.42	1828.84
420.62	1712.10
420.83	1691.62
421.04	1724.39
421.24	1796.07
421.45	1804.26
421.65	1763.30
421.86	1746.92
422.07	1697.77
422.27	1691.62
422.48	1769.44
422.69	1697.77
422.89	1738.73
423.10	1742.82
423.30	1714.15
423.51	1718.25
423.72	1732.58
423.92	1779.68
424.13	1667.05
424.33	1755.11
424.54	1736.68
424.75	1738.73
424.95	1767.40
425.16	1779.68
425.36	1648.61
425.57	1714.15
425.78	1705.96
425.98	1773.54
426.19	1714.15
426.39	1716.20
426.60	1724.39
426.81	1855.46
427.01	1712.10
427.22	1685.48
427.42	1712.10
427.63	1669.09
427.83	1740.77
428.04	1783.78
428.25	1775.59
428.45	1822.69
428.66	1781.73
428.86	1689.57
429.07	1742.82
429.28	1787.88
429.48	1742.82
429.69	1751.01
429.89	1738.73
430.10	1675.24
430.30	1777.64
430.51	1800.16
430.71	1742.82
430.92	1759.21
431.13	1671.14
431.33	1775.59
431.54	1746.92
431.74	1746.92
431.95	1851.36
432.15	1665.00
432.36	1689.57
432.56	1732.58
432.77	1808.36
432.98	1832.93
433.18	1730.53
433.39	1712.10
433.59	1728.49
433.80	1837.03
434.00	1920.99
434.21	1652.71
434.41	1689.57
434.62	1816.55
434.82	1644.52
435.03	1755.11
435.23	1742.82
435.44	1621.99
435.64	1753.06
435.85	1808.36
436.06	1808.36
436.26	1763.30
436.47	1787.88
436.67	1714.15
436.88	1710.05
437.08	1724.39
437.29	1779.68
437.49	1804.26
437.70	1839.08
437.90	1716.20
438.11	1847.27
438.31	1841.12
438.52	1873.89
438.72	1824.74
438.93	1935.33
439.13	1757.16
439.34	1818.60
439.54	1736.68
439.75	1808.36
439.95	1857.51
440.16	1738.73
440.36	1656.81
440.57	1839.08
440.77	1781.73
440.98	1703.91
441.18	1759.21
441.39	1712.10
441.59	1693.67
441.80	1808.36
442.00	1777.64
442.21	1882.08
442.41	1734.63
442.62	1771.49
442.82	1615.85
443.02	1787.88
443.23	1753.06
443.43	1695.72
443.64	1843.17
443.84	1667.05
444.05	1810.40
444.25	1671.14
444.46	1802.21
444.66	1708.01
444.87	1884.13
445.07	1624.04
445.28	1740.77
445.48	1896.42
445.69	1712.10
445.89	1828.84
446.09	1779.68
446.30	2023.39
446.50	2713.56
446.71	3725.26
446.91	4366.27
447.12	4841.40
447.32	4927.41
447.53	4431.80
447.73	3956.68
447.93	3608.52
448.14	3356.62
448.34	3190.74
448.55	2897.88
448.75	2916.31
448.96	2688.98
449.16	2465.75
449.36	2217.95
449.57	2090.98
449.77	1902.56
449.98	1798.12
450.18	1796.07
450.39	1826.79
450.59	1763.30
450.79	1775.59
451.00	1781.73
451.20	1791.97
451.41	1771.49
451.61	1703.91
451.81	1755.11
452.02	1781.73
452.22	1740.77
452.43	1779.68
452.63	1673.19
452.84	1699.81
453.04	1742.82
453.24	1751.01
453.45	1746.92
453.65	1728.49
453.86	1841.12
454.06	1718.25
454.26	1728.49
454.47	1708.01
454.67	1873.89
454.87	1796.07
455.08	1763.30
455.28	1880.04
455.49	1675.24
455.69	1724.39
455.89	1873.89
456.10	1798.12
456.30	1773.54
456.51	1738.73
456.71	1755.11
456.91	1740.77
457.12	1724.39
457.32	1767.40
457.52	1628.14
457.73	1753.06
457.93	1798.12
458.14	1701.86
458.34	1658.85
458.54	1748.97
458.75	1742.82
458.95	1828.84
459.15	1710.05
459.36	1849.32
459.56	1789.92
459.76	1865.70
459.97	1720.29
460.17	1808.36
460.37	1759.21
460.58	1753.06
460.78	1777.64
460.99	1703.91
461.19	1703.91
461.39	1722.34
461.60	1732.58
461.80	1814.50
462.00	1675.24
462.21	1759.21
462.41	1728.49
462.61	1773.54
462.82	1656.81
463.02	1880.04
463.22	1751.01
463.43	1796.07
463.63	1683.43
463.83	1777.64
464.04	1773.54
464.24	1697.77
464.44	1759.21
464.64	1839.08
464.85	1783.78
465.05	1841.12
465.25	1800.16
465.46	1775.59
465.66	1804.26
465.86	1759.21
466.07	1736.68
466.27	1726.44
466.47	1595.37
466.68	1646.57
466.88	1894.37
467.08	1798.12
467.29	1822.69
467.49	1751.01
467.69	1746.92
467.89	1775.59
468.10	1665.00
468.30	1775.59
468.50	1826.79
468.71	1789.92
468.91	1722.34
469.11	1855.46
469.31	1769.44
469.52	1689.57
469.72	1814.50
469.92	1875.94
470.13	1738.73
470.33	1824.74
470.53	1806.31
470.73	2090.98
470.94	2287.58
471.14	2355.16
471.34	2549.72
471.54	2437.08
471.75	2254.81
471.95	2138.08
472.15	2115.55
472.36	2129.89
472.56	2017.25
472.76	2021.35
472.96	2090.98
473.17	2019.30
473.37	1894.37
473.57	1845.22
473.77	1798.12
473.98	1804.26
474.18	1626.09
474.38	1976.29
474.58	1720.29
474.79	1732.58
474.99	1841.12
475.19	1724.39
475.39	1730.53
475.60	1720.29
475.80	1755.11
476.00	1748.97
476.20	1763.30
476.41	1751.01
476.61	1806.31
476.81	1759.21
477.01	1783.78
477.21	1875.94
477.42	1785.83
477.62	1683.43
477.82	1708.01
478.02	1732.58
478.23	1814.50
478.43	1710.05
478.63	1640.42
478.83	1757.16
479.03	1765.35
479.24	1740.77
479.44	1837.03
479.64	1626.09
479.84	1576.94
480.04	1730.53
480.25	1765.35
480.45	1701.86
480.65	1687.53
480.85	1796.07
481.06	1701.86
481.26	1716.20
481.46	1794.02
481.66	1781.73
481.86	1662.95
482.06	1753.06
482.27	1685.48
482.47	1714.15
482.67	1828.84
482.87	1660.90
483.07	1800.16
483.28	1697.77
483.48	1675.24
483.68	1722.34
483.88	1701.86
484.08	1646.57
484.29	1640.42
484.49	1773.54
484.69	1632.23
484.89	1789.92
485.09	1808.36
485.29	1751.01
485.50	1794.02
485.70	1710.05
485.90	1755.11
486.10	1701.86
486.30	1775.59
486.50	1769.44
486.71	1753.06
486.91	1738.73
487.11	1824.74
487.31	1624.04
487.51	1742.82
487.71	1740.77
487.91	1695.72
488.12	1642.47
488.32	1626.09
488.52	1769.44
488.72	1595.37
488.92	1763.30
489.12	1791.97
489.32	1890.28
489.53	1802.21
489.73	1667.05
489.93	1796.07
490.13	1779.68
490.33	1697.77
490.53	1818.60
490.73	1787.88
490.94	1638.38
491.14	1814.50
491.34	1927.14
491.54	2150.37
491.74	2594.78
491.94	2834.39
492.14	3059.67
492.34	3061.71
492.54	2803.67
492.75	2516.95
492.95	2471.90
493.15	2238.43
493.35	2265.05
493.55	2164.70
493.75	2154.46
493.95	2066.40
494.15	2021.35
494.35	1937.38
494.56	1832.93
494.76	1777.64
494.96	1904.61
495.16	1730.53
495.36	1806.31
495.56	1798.12
495.76	1783.78
495.96	1761.25
496.16	1630.18
496.36	1853.41
496.56	1748.97
496.77	1791.97
496.97	1738.73
497.17	1806.31
497.37	1687.53
497.57	1826.79
497.77	1722.34
497.97	1736.68
498.17	1734.63
498.37	1636.33
498.57	1775.59
498.77	1652.71
498.97	1763.30
499.17	1816.55
499.38	1693.67
499.58	1767.40
499.78	1837.03
499.98	1851.36
500.18	1708.01
500.38	1755.11
500.58	1910.75
500.78	2652.12
500.98	4589.50
501.18	5750.70
501.38	6715.29
501.58	7155.60
501.78	6606.75
501.98	5644.20
502.18	5076.91
502.38	4452.28
502.58	4171.71
502.78	3870.66
502.98	3676.10
503.18	3446.73
503.38	3203.02
503.59	2861.01
503.79	2664.41
503.99	2445.27
504.19	2254.81
504.39	2269.15
504.59	2193.37
504.79	2150.37
504.99	2115.55
505.19	1986.53
505.39	1935.33
505.59	1974.24
505.79	1906.66
505.99	1820.64
506.19	1867.75
506.39	1871.84
506.59	1769.44
506.79	1812.45
506.99	1779.68
507.19	1746.92
507.39	1746.92
507.59	1697.77
507.79	1757.16
507.99	1689.57
508.19	1732.58
508.39	1695.72
508.59	1751.01
508.79	1779.68
508.99	1867.75
509.19	1634.28
509.39	1865.70
509.59	1656.81
509.79	1775.59
509.99	1753.06
510.19	1912.80
510.39	1824.74
510.59	1687.53
510.79	1720.29
510.99	1671.14
511.19	1834.98
511.39	1806.31
511.59	1802.21
511.79	1859.56
511.99	1708.01
512.19	1806.31
512.38	1791.97
512.58	1736.68
512.78	1726.44
512.98	1830.88
513.18	1839.08
513.38	1662.95
513.58	1763.30
513.78	1740.77
513.98	1679.33
514.18	1751.01
514.38	1787.88
514.58	1839.08
514.78	1798.12
514.98	1650.66
515.18	1724.39
515.38	1669.09
515.58	1859.56
515.78	1726.44
515.98	1769.44
516.18	1771.49
516.38	1839.08
516.57	1726.44
516.77	1656.81
516.97	1855.46
517.17	1763.30
517.37	1619.94
517.57	1816.55
517.77	1726.44
517.97	1761.25
518.17	1849.32
518.37	1730.53
518.57	1685.48
518.77	1677.29
518.97	1779.68
519.16	1808.36
519.36	1798.12
519.56	1699.81
519.76	1740.77
519.96	1679.33
520.16	1904.61
520.36	1761.25
520.56	1830.88
520.76	1718.25
520.96	1767.40
521.16	1888.23
521.35	1759.21
521.55	1863.65
521.75	1818.60
521.95	1697.77
522.15	1673.19
522.35	1640.42
522.55	1685.48
522.75	1781.73
522.95	1710.05
523.14	1693.67
523.34	1751.01
523.54	1734.63
523.74	1777.64
523.94	1705.96
524.14	1710.05
524.34	1687.53
524.54	1871.84
524.73	1796.07
524.93	1769.44
525.13	1726.44
525.33	1689.57
525.53	1845.22
525.73	1783.78
525.93	1798.12
526.13	1755.11
526.32	1740.77
526.52	1853.41
526.72	1740.77
526.92	1714.15
527.12	1751.01
527.32	1677.29
527.52	1812.45
527.71	1791.97
527.91	1751.01
528.11	1675.24
528.31	1818.60
528.51	1687.53
528.71	1791.97
528.90	1769.44
529.10	1814.50
529.30	1736.68
529.50	1640.42
529.70	1759.21
529.90	1695.72
530.09	1798.12
530.29	1675.24
530.49	1665.00
530.69	1906.66
530.89	1789.92
531.09	1796.07
531.28	1751.01
531.48	1867.75
531.68	1841.12
531.88	1804.26
532.08	1777.64
532.28	1787.88
532.47	1759.21
532.67	1849.32
532.87	1814.50
533.07	1689.57
533.27	1818.60
533.46	1802.21
533.66	1728.49
533.86	1703.91
534.06	1665.00
534.26	1820.64
534.45	1693.67
534.65	1787.88
534.85	1742.82
535.05	1728.49
535.25	1791.97
535.44	1695.72
535.64	1818.60
535.84	1667.05
536.04	1683.43
536.24	1759.21
536.43	1755.11
536.63	1769.44
536.83	1761.25
537.03	1783.78
537.22	1644.52
537.42	1765.35
537.62	1773.54
537.82	1642.47
538.02	1828.84
538.21	1775.59
538.41	1877.99
538.61	1738.73
538.81	1712.10
539.00	1800.16
539.20	1738.73
539.40	1675.24
539.60	1783.78
539.79	1812.45
539.99	1824.74
540.19	1689.57
540.39	1787.88
540.58	1775.59
540.78	1843.17
540.98	1759.21
541.18	1775.59
541.37	1873.89
541.57	1847.27
541.77	1744.87
541.97	1765.35
542.16	1716.20
542.36	1755.11
542.56	1710.05
542.76	1855.46
542.95	1785.83
543.15	1794.02
543.35	1736.68
543.54	1755.11
543.74	1738.73
543.94	1837.03
544.14	1660.90
544.33	1812.45
544.53	1732.58
544.73	1800.16
544.93	1732.58
545.12	1718.25
545.32	1751.01
545.52	1685.48
545.71	1771.49
545.91	1738.73
546.11	1660.90
546.30	1693.67
546.50	1738.73
546.70	1720.29
546.90	1863.65
547.09	1660.90
547.29	1791.97
547.49	1796.07
547.68	1701.86
547.88	1693.67
548.08	1732.58
548.27	2101.22
548.47	1751.01
548.67	1644.52
548.87	1796.07
549.06	1685.48
549.26	1834.98
549.46	1751.01
549.65	1693.67
549.85	1730.53
550.05	1736.68
550.24	1837.03
550.44	1734.63
550.64	1695.72
550.83	1701.86
551.03	1759.21
551.23	1841.12
551.42	1773.54
551.62	1726.44
551.82	1755.11
552.01	1787.88
552.21	1857.51
552.41	1761.25
552.60	1812.45
552.80	1765.35
553.00	1738.73
553.19	1800.16
553.39	1796.07
553.59	1628.14
553.78	1832.93
553.98	1777.64
554.17	1726.44
554.37	1720.29
554.57	1763.30
554.76	1726.44
554.96	1681.38
555.16	1783.78
555.35	1771.49
555.55	1796.07
555.75	1742.82
555.94	1800.16
556.14	1710.05
556.33	1773.54
556.53	1761.25
556.73	1824.74
556.92	1773.54
557.12	1867.75
557.32	1882.08
557.51	1798.12
557.71	1802.21
557.90	1841.12
558.10	1869.80
558.30	1714.15
558.49	1777.64
558.69	1763.30
558.88	1806.31
559.08	1689.57
559.28	1804.26
559.47	1771.49
559.67	1755.11
559.86	1949.67
560.06	1679.33
560.26	1732.58
560.45	1814.50
560.65	1740.77
560.84	1824.74
561.04	1705.96
561.24	1810.40
561.43	1677.29
561.63	1828.84
561.82	1734.63
562.02	1771.49
562.22	1681.38
562.41	1724.39
562.61	1769.44
562.80	1677.29
563.00	1873.89
563.19	1734.63
563.39	1751.01
563.59	1781.73
563.78	1734.63
563.98	1587.18
564.17	1779.68
564.37	1624.04
564.56	1720.29
564.76	1671.14
564.96	1865.70
565.15	1763.30
565.35	1912.80
565.54	1777.64
565.74	1800.16
565.93	1730.53
566.13	1726.44
566.32	1767.40
566.52	1796.07
566.71	1757.16
566.91	1865.70
567.11	1728.49
567.30	1773.54
567.50	1791.97
567.69	1769.44
567.89	1763.30
568.08	1753.06
568.28	1763.30
568.47	1685.48
568.67	1789.92
568.86	1771.49
569.06	1777.64
569.25	1742.82
569.45	1671.14
569.64	1699.81
569.84	1716.20
570.04	1796.07
570.23	1755.11
570.43	1789.92
570.62	1765.35
570.82	1857.51
571.01	1673.19
571.21	1738.73
571.40	1718.25
571.60	1806.31
571.79	1767.40
571.99	1755.11
572.18	1794.02
572.38	1748.97
572.57	1710.05
572.77	1773.54
572.96	1890.28
573.16	1667.05
573.35	1695.72
573.55	1808.36
573.74	1808.36
573.94	1708.01
574.13	1779.68
574.33	1804.26
574.52	1834.98
574.71	1683.43
574.91	1853.41
575.10	1679.33
575.30	1785.83
575.49	1742.82
575.69	1716.20
575.88	1767.40
576.08	1773.54
576.27	1783.78
576.47	1730.53
576.66	1865.70
576.86	1779.68
577.05	1789.92
577.25	1791.97
577.44	1849.32
577.64	1681.38
577.83	1765.35
578.02	1730.53
578.22	1853.41
578.41	1933.28
578.61	1718.25
578.80	1626.09
579.00	1781.73
579.19	1740.77
579.39	1806.31
579.58	1818.60
579.77	1736.68
579.97	1873.89
580.16	1822.69
580.36	1898.47
580.55	1882.08
580.75	1802.21
580.94	1705.96
581.13	1927.14
581.33	1890.28
581.52	1818.60
581.72	1904.61
581.91	1853.41
582.11	1787.88
582.30	1730.53
582.49	1789.92
582.69	1853.41
582.88	1802.21
583.08	1859.56
583.27	1791.97
583.47	1802.21
583.66	1763.30
583.85	1802.21
584.05	1810.40
584.24	1820.64
584.44	1779.68
584.63	1818.60
584.82	1810.40
585.02	1900.52
585.21	1863.65
585.41	1873.89
585.60	1816.55
585.79	1994.72
585.99	1908.71
586.18	1923.04
586.37	2230.24
586.57	3432.40
586.76	10245.99
586.96	24333.96
587.15	34528.75
587.34	40809.87
587.54	41964.93
587.73	36691.41
587.93	26365.55
588.12	21409.47
588.31	18323.18
588.51	16455.43
588.70	15132.44
588.89	14126.89
589.09	12652.35
589.28	10790.75
589.47	9265.01
589.67	7878.54
589.86	6432.67
590.06	4859.83
590.25	3903.43
590.44	3172.30
590.64	2504.67
590.83	2187.23
591.02	2086.88
591.22	1910.75
591.41	1892.32
591.60	1861.60
591.80	1978.34
591.99	1814.50
592.18	1855.46
592.38	1855.46
592.57	1773.54
592.76	1763.30
592.96	1746.92
593.15	1746.92
593.34	1847.27
593.54	1873.89
593.73	1800.16
593.92	1779.68
594.12	1804.26
594.31	1804.26
594.50	1890.28
594.70	1867.75
594.89	1869.80
595.08	1646.57
595.28	1837.03
595.47	1920.99
595.66	1820.64
595.86	1648.61
596.05	1746.92
596.24	1722.34
596.43	1814.50
596.63	1865.70
596.82	1738.73
597.01	1816.55
597.21	1857.51
597.40	1837.03
597.59	1732.58
597.79	1728.49
597.98	1826.79
598.17	1716.20
598.36	1718.25
598.56	1757.16
598.75	1763.30
598.94	1742.82
599.14	1675.24
599.33	1705.96
599.52	1804.26
599.71	1785.83
599.91	1746.92
600.10	1785.83
600.29	1728.49
600.48	1767.40
600.68	1779.68
600.87	1777.64
601.06	1724.39
601.26	1708.01
601.45	1804.26
601.64	1720.29
601.83	1877.99
602.03	1681.38
602.22	1734.63
602.41	1845.22
602.60	1818.60
602.80	1843.17
602.99	1761.25
603.18	1753.06
603.37	1812.45
603.57	1777.64
603.76	1798.12
603.95	1826.79
604.14	1734.63
604.34	1658.85
604.53	1708.01
604.72	1718.25
604.91	1806.31
605.10	1822.69
605.30	1683.43
605.49	1865.70
605.68	1865.70
605.87	1818.60
606.07	1705.96
606.26	1787.88
606.45	1789.92
606.64	1771.49
606.84	1759.21
607.03	1738.73
607.22	1767.40
607.41	1740.77
607.60	1742.82
607.80	1779.68
607.99	1742.82
608.18	1718.25
608.37	1771.49
608.56	1777.64
608.76	1816.55
608.95	1873.89
609.14	1755.11
609.33	1832.93
609.52	1810.40
609.72	1802.21
609.91	1769.44
610.10	1787.88
610.29	1832.93
610.48	1789.92
610.68	1718.25
610.87	1714.15
611.06	1839.08
611.25	1716.20
611.44	1794.02
611.63	1656.81
611.83	1845.22
612.02	1648.61
612.21	1730.53
612.40	1714.15
612.59	1708.01
612.79	1744.87
612.98	1808.36
613.17	1820.64
613.36	1755.11
613.55	1822.69
613.74	1605.61
613.93	1769.44
614.13	1716.20
614.32	1757.16
614.51	1861.60
614.70	1693.67
614.89	1689.57
615.08	1740.77
615.28	2068.45
615.47	1685.48
615.66	1708.01
615.85	1703.91
616.04	1832.93
616.23	1773.54
616.42	1746.92
616.62	1785.83
616.81	1751.01
617.00	1728.49
617.19	1759.21
617.38	1841.12
617.57	1744.87
617.76	1746.92
617.95	1791.97
618.15	1687.53
618.34	1927.14
618.53	1648.61
618.72	1777.64
618.91	1816.55
619.10	1863.65
619.29	1675.24
619.48	1705.96
619.68	1710.05
619.87	1783.78
620.06	1730.53
620.25	1777.64
620.44	1710.05
620.63	1785.83
620.82	1769.44
621.01	1718.25
621.20	1798.12
621.39	1687.53
621.59	1837.03
621.78	1736.68
621.97	1806.31
622.16	1767.40
622.35	1800.16
622.54	1853.41
622.73	1783.78
622.92	1679.33
623.11	1865.70
623.30	1669.09
623.49	1720.29
623.68	1746.92
623.88	1818.60
624.07	1734.63
624.26	1753.06
624.45	1765.35
624.64	1740.77
624.83	1738.73
625.02	1755.11
625.21	1744.87
625.40	1755.11
625.59	1804.26
625.78	1730.53
625.97	1755.11
626.16	1843.17
626.35	1681.38
626.54	1724.39
626.74	1806.31
626.93	1712.10
627.12	1761.25
627.31	1734.63
627.50	1794.02
627.69	1746.92
627.88	1605.61
628.07	1665.00
628.26	1636.33
628.45	1656.81
628.64	1677.29
628.83	1771.49
629.02	1638.38
629.21	1832.93
629.40	1779.68
629.59	1609.70
629.78	1718.25
629.97	1650.66
630.16	1748.97
630.35	1703.91
630.54	1701.86
630.73	1708.01
630.92	1724.39
631.11	1667.05
631.30	1685.48
631.49	1804.26
631.68	1697.77
631.87	1726.44
632.06	1685.48
632.25	1822.69
632.44	1812.45
632.63	1732.58
632.82	1718.25
633.01	1720.29
633.20	1732.58
633.39	1652.71
633.58	1679.33
633.77	1675.24
633.96	1830.88
634.15	1746.92
634.34	1691.62
634.53	1701.86
634.72	1740.77
634.91	1734.63
635.10	1789.92
635.29	1785.83
635.48	1720.29
635.67	1730.53
635.86	1716.20
636.05	1822.69
636.24	1708.01
636.43	1828.84
636.62	1730.53
636.81	1632.23
637.00	1748.97
637.19	1714.15
637.38	1679.33
637.57	1701.86
637.76	1746.92
637.95	1755.11
638.14	1675.24
638.33	1744.87
638.52	1708.01
638.71	1687.53
638.89	1593.32
639.08	1818.60
639.27	1777.64
639.46	1748.97
639.65	1804.26
639.84	1765.35
640.03	1785.83
640.22	1677.29
640.41	1800.16
640.60	1628.14
640.79	1681.38
640.98	1687.53
641.17	1740.77
641.36	1703.91
641.55	1746.92
641.74	1689.57
641.92	1679.33
642.11	1728.49
642.30	1728.49
642.49	1646.57
642.68	1800.16
642.87	1804.26
643.06	1724.39
643.25	1802.21
643.44	1667.05
643.63	1726.44
643.82	1730.53
644.00	1617.90
644.19	1753.06
644.38	1677.29
644.57	1783.78
644.76	1763.30
644.95	1685.48
645.14	1804.26
645.33	1759.21
645.52	1662.95
645.71	1689.57
645.89	1611.75
646.08	1714.15
646.27	1677.29
646.46	1822.69
646.65	1636.33
646.84	1726.44
647.03	1734.63
647.22	1785.83
647.40	1742.82
647.59	1740.77
647.78	1679.33
647.97	1671.14
648.16	1677.29
648.35	1775.59
648.54	1804.26
648.73	1667.05
648.91	1759.21
649.10	1755.11
649.29	1720.29
649.48	1732.58
649.67	1728.49
649.86	1734.63
650.05	1640.42
650.23	1777.64
650.42	1673.19
650.61	1740.77
650.80	1763.30
650.99	1841.12
651.18	1765.35
651.36	1796.07
651.55	1761.25
651.74	1710.05
651.93	1669.09
652.12	1724.39
652.31	1761.25
652.49	1763.30
652.68	1697.77
652.87	1789.92
653.06	1708.01
653.25	1804.26
653.44	1697.77
653.62	1808.36
653.81	1705.96
654.00	1806.31
654.19	1802.21
654.38	1877.99
654.56	1759.21
654.75	1722.34
654.94	1783.78
655.13	1671.14
655.32	1638.38
655.51	1789.92
655.69	1654.76
655.88	1902.56
656.07	1591.27
656.26	1818.60
656.45	1665.00
656.63	1785.83
656.82	1697.77
657.01	1812.45
657.20	1736.68
657.38	1787.88
657.57	1724.39
657.76	1761.25
657.95	1791.97
658.14	1722.34
658.32	1748.97
658.51	1673.19
658.70	1761.25
658.89	1798.12
659.08	1697.77
659.26	1783.78
659.45	1619.94
659.64	1714.15
659.83	1699.81
660.01	1937.38
660.20	1736.68
660.39	1824.74
660.58	1689.57
660.76	1783.78
660.95	1658.85
661.14	1642.47
661.33	1660.90
661.51	1675.24
661.70	1673.19
661.89	1722.34
662.08	1701.86
662.26	1619.94
662.45	1607.66
662.64	1818.60
662.83	1751.01
663.01	1656.81
663.20	1665.00
663.39	1771.49
663.58	1751.01
663.76	1759.21
663.95	1716.20
664.14	1662.95
664.32	1771.49
664.51	1615.85
664.70	1611.75
664.89	1722.34
665.07	1628.14
665.26	1812.45
665.45	1591.27
665.64	1718.25
665.82	1740.77
666.01	1761.25
666.20	1675.24
666.38	1855.46
666.57	1798.12
666.76	2246.62
666.95	4677.56
667.13	10663.77
667.32	15580.95
667.51	17913.58
667.69	19142.36
667.88	17970.93
668.07	12246.85
668.25	9523.05
668.44	8052.61
668.63	7481.23
668.81	6893.46
669.00	6397.85
669.19	5699.50
669.38	5140.40
669.56	4632.51
669.75	3930.05
669.94	3430.35
670.12	2885.59
670.31	2459.61
670.50	2336.73
670.68	2015.20
670.87	1988.58
671.06	1841.12
671.24	1834.98
671.43	1789.92
671.62	1769.44
671.80	1718.25
671.99	1841.12
672.18	1703.91
672.36	1810.40
672.55	1837.03
672.74	1777.64
672.92	1687.53
673.11	1771.49
673.29	1718.25
673.48	1796.07
673.67	1689.57
673.85	1824.74
674.04	1687.53
674.23	1775.59
674.41	1800.16
674.60	1748.97
674.79	1660.90
674.97	1621.99
675.16	1759.21
675.34	1767.40
675.53	1675.24
675.72	1755.11
675.90	1806.31
676.09	1728.49
676.28	1753.06
676.46	1681.38
676.65	1783.78
676.83	1652.71
677.02	1751.01
677.21	1740.77
677.39	1724.39
677.58	1673.19
677.77	1710.05
677.95	1650.66
678.14	1660.90
678.32	1691.62
678.51	1746.92
678.70	1826.79
678.88	1771.49
679.07	1687.53
679.25	1742.82
679.44	1740.77
679.63	1638.38
679.81	1708.01
680.00	1779.68
680.18	1716.20
680.37	1875.94
680.55	1673.19
680.74	1675.24
680.93	1599.46
681.11	1775.59
681.30	1710.05
681.48	1730.53
681.67	1775.59
681.85	1748.97
682.04	1701.86
682.23	1787.88
682.41	1742.82
682.60	1724.39
682.78	1732.58
682.97	1658.85
683.15	1771.49
683.34	1796.07
683.53	1832.93
683.71	1691.62
683.90	1765.35
684.08	1818.60
684.27	1732.58
684.45	1834.98
684.64	1855.46
684.82	1722.34
685.01	1794.02
685.19	1669.09
685.38	1814.50
685.57	1824.74
685.75	1687.53
685.94	1740.77
686.12	1650.66
686.31	1693.67
686.49	1841.12
686.68	1636.33
686.86	1652.71
687.05	1695.72
687.23	1814.50
687.42	1630.18
687.60	1656.81
687.79	1779.68
687.97	1865.70
688.16	1869.80
688.34	1769.44
688.53	1675.24
688.71	1791.97
688.90	1822.69
689.08	1699.81
689.27	1646.57
689.45	1732.58
689.64	1755.11
689.82	1800.16
690.01	1716.20
690.19	1736.68
690.38	1681.38
690.56	1759.21
690.75	1722.34
690.93	1755.11
691.12	1708.01
691.30	1673.19
691.49	1689.57
691.67	1681.38
691.86	1820.64
692.04	1642.47
692.23	1736.68
692.41	1662.95
692.60	1834.98
692.78	1771.49
692.97	1693.67
693.15	1732.58
693.34	1853.41
693.52	1798.12
693.71	1693.67
693.89	1732.58
694.08	1611.75
694.26	1804.26
694.44	1753.06
694.63	1810.40
694.81	1669.09
695.00	1689.57
695.18	1718.25
695.37	1853.41
695.55	1816.55
695.74	1724.39
695.92	1656.81
696.10	1744.87
696.29	1705.96
696.47	1697.77
696.66	1687.53
696.84	1753.06
697.03	1753.06
697.21	1857.51
697.40	2306.01
697.58	1845.22
697.76	1689.57
697.95	1611.75
698.13	1705.96
698.32	1681.38
698.50	1753.06
698.68	1730.53
698.87	1779.68
699.05	1794.02
699.24	1767.40
699.42	1656.81
699.61	1701.86
699.79	1769.44
699.97	1742.82
700.16	1619.94
700.34	1738.73
700.53	1757.16
700.71	1849.32
700.89	1781.73
701.08	1761.25
701.26	1695.72
701.45	2117.60
701.63	1714.15
701.81	1693.67
702.00	1718.25
702.18	1859.56
702.37	1667.05
702.55	1755.11
702.73	1740.77
702.92	1648.61
703.10	1843.17
703.28	1652.71
703.47	1642.47
703.65	1785.83
703.84	1763.30
704.02	1695.72
704.20	1798.12
704.39	1695.72
704.57	1691.62
704.75	1767.40
704.94	1783.78
705.12	1734.63
705.30	1765.35
705.49	2254.81
705.67	4521.92
705.86	9709.42
706.04	12664.64
706.22	14479.14
706.41	15148.82
706.59	13741.87
706.77	9600.88
706.96	7460.75
707.14	6625.18
707.32	6023.08
707.51	5597.10
707.69	4849.59
707.87	4134.85
708.06	3524.55
708.24	2893.78
708.42	2422.75
708.61	2283.49
708.79	2017.25
708.97	1812.45
709.16	1843.17
709.34	1779.68
709.52	1808.36
709.71	1748.97
709.89	1775.59
710.07	1685.48
710.26	1683.43
710.44	1705.96
710.62	1855.46
710.80	1687.53
710.99	1810.40
711.17	1787.88
711.35	1650.66
711.54	1675.24
711.72	1837.03
711.90	1740.77
712.09	1746.92
712.27	1722.34
712.45	1724.39
712.63	1785.83
712.82	1785.83
713.00	1767.40
713.18	1837.03
713.37	1787.88
713.55	1812.45
713.73	1716.20
713.91	1791.97
714.10	1726.44
714.28	1683.43
714.46	1810.40
714.65	1771.49
714.83	1728.49
715.01	1748.97
715.19	1730.53
715.38	1665.00
715.56	1722.34
715.74	1714.15
715.92	1693.67
716.11	1822.69
716.29	1611.75
716.47	1779.68
716.65	1693.67
716.84	1652.71
717.02	1789.92
717.20	1646.57
717.38	1712.10
717.57	1736.68
717.75	1751.01
717.93	1632.23
718.11	1751.01
718.30	1615.85
718.48	1759.21
718.66	1771.49
718.84	1738.73
719.03	1744.87
719.21	1755.11
719.39	1787.88
719.57	1847.27
719.75	1769.44
719.94	1640.42
720.12	1687.53
720.30	1796.07
720.48	1718.25
720.67	1665.00
720.85	1730.53
721.03	1722.34
721.21	1724.39
721.39	1814.50
721.58	1794.02
721.76	1765.35
721.94	1804.26
722.12	1677.29
722.30	1779.68
722.49	1687.53
722.67	1681.38
722.85	1744.87
723.03	1617.90
723.21	1732.58
723.40	1708.01
723.58	1755.11
723.76	1771.49
723.94	1832.93
724.12	1744.87
724.30	1701.86
724.49	1677.29
724.67	1685.48
724.85	1755.11
725.03	1656.81
725.21	1773.54
725.40	1812.45
725.58	1638.38
725.76	1832.93
725.94	1763.30
726.12	1708.01
726.30	1789.92
726.49	1732.58
726.67	1671.14
726.85	1746.92
727.03	1771.49
727.21	2246.62
727.39	3028.95
727.57	3954.63
727.76	4278.21
727.94	4401.08
728.12	4378.56
728.30	3721.16
728.48	3035.09
728.66	2779.09
728.84	2605.02
729.03	2316.25
729.21	2160.61
729.39	1957.86
729.57	1888.23
729.75	1806.31
729.93	1822.69
730.11	1665.00
730.30	1656.81
730.48	1744.87
730.66	1767.40
730.84	1787.88
731.02	1705.96
731.20	1751.01
731.38	1775.59
731.56	1697.77
731.74	1693.67
731.93	1753.06
732.11	1736.68
732.29	1773.54
732.47	1763.30
732.65	1740.77
732.83	1759.21
733.01	1738.73
733.19	1499.11
733.37	1806.31
733.56	1738.73
733.74	1794.02
733.92	1845.22
734.10	1669.09
734.28	1714.15
734.46	1593.32
734.64	1726.44
734.82	1662.95
735.00	1740.77
735.18	1722.34
735.36	1673.19
735.54	1722.34
735.73	1708.01
735.91	1685.48
736.09	1763.30
736.27	1724.39
736.45	1804.26
736.63	1626.09
736.81	1751.01
736.99	1718.25
737.17	1796.07
737.35	1724.39
737.53	1691.62
737.71	1689.57
737.89	1810.40
738.07	1720.29
738.25	1710.05
738.43	1650.66
738.61	1771.49
738.80	1689.57
738.98	1665.00
739.16	1748.97
739.34	1701.86
739.52	1820.64
739.70	1724.39
739.88	1759.21
740.06	1734.63
740.24	1617.90
740.42	1882.08
740.60	1562.60
740.78	1703.91
740.96	1705.96
741.14	1687.53
741.32	1757.16
741.50	1603.56
741.68	1816.55
741.86	1771.49
742.04	1701.86
742.22	1740.77
742.40	1675.24
742.58	1775.59
742.76	1628.14
742.94	1798.12
743.12	1656.81
743.30	1740.77
743.48	1787.88
743.66	1636.33
743.84	1736.68
744.02	1660.90
744.20	1693.67
744.38	1683.43
744.56	1679.33
744.74	1824.74
744.92	1746.92
745.10	1814.50
745.28	1853.41
745.46	1767.40
745.64	1667.05
745.82	1695.72
746.00	1763.30
746.18	1867.75
746.36	1658.85
746.54	1675.24
746.72	1732.58
746.90	1751.01
747.08	1773.54
747.26	1681.38
747.44	1794.02
747.62	1802.21
747.80	1738.73
747.98	1757.16
748.15	1634.28
748.33	1808.36
748.51	1712.10
748.69	1773.54
748.87	1667.05
749.05	1716.20
749.23	1650.66
749.41	1763.30
749.59	1705.96
749.77	1767.40
749.95	1681.38
750.13	1740.77
750.31	1738.73
750.49	1662.95
750.67	1744.87
750.85	1777.64
751.03	1783.78
751.20	1826.79
751.38	1669.09
751.56	1744.87
751.74	1767.40
751.92	1740.77
752.10	1691.62
752.28	1761.25
752.46	1689.57
752.64	1710.05
752.82	1746.92
753.00	1759.21
753.18	1767.40
753.35	1767.40
753.53	1722.34
753.71	1712.10
753.89	1783.78
754.07	1730.53
754.25	1765.35
754.43	1755.11
754.61	1578.98
754.79	1658.85
754.97	1734.63
755.14	1771.49
755.32	1652.71
755.50	1652.71
755.68	1763.30
755.86	1660.90
756.04	1656.81
756.22	1685.48
756.40	1796.07
756.57	1791.97
756.75	1619.94
756.93	1789.92
757.11	1880.04
757.29	1656.81
757.47	1701.86
757.65	1650.66
757.82	1634.28
758.00	1724.39
758.18	1687.53
758.36	1656.81
758.54	1757.16
758.72	1591.27
758.90	1771.49
759.07	1777.64
759.25	1689.57
759.43	1771.49
759.61	1634.28
759.79	2193.37
759.97	1744.87
760.15	1718.25
760.32	1708.01
760.50	1775.59
760.68	1775.59
760.86	1621.99
761.04	1787.88
761.22	1757.16
761.39	1730.53
761.57	1722.34
761.75	1777.64
761.93	1775.59
762.11	1708.01
762.28	1689.57
762.46	1654.76
762.64	1755.11
762.82	1636.33
763.00	1732.58
763.18	1714.15
763.35	1685.48
763.53	1665.00
763.71	1722.34
763.89	1744.87
764.07	1769.44
764.24	1699.81
764.42	1738.73
764.60	1699.81
764.78	1755.11
764.96	1820.64
765.13	1785.83
765.31	1746.92
765.49	1744.87
765.67	1710.05
765.84	1701.86
766.02	1716.20
766.20	1578.98
766.38	1718.25
766.56	1697.77
766.73	1746.92
766.91	1710.05
767.09	1660.90
767.27	1689.57
767.44	1632.23
767.62	1839.08
767.80	1722.34
767.98	1642.47
768.15	1726.44
768.33	1701.86
768.51	1781.73
768.69	1832.93
768.87	1697.77
769.04	1730.53
769.22	1849.32
769.40	1859.56
769.58	1865.70
769.75	1710.05
769.93	1773.54
770.11	1808.36
770.28	1677.29
770.46	1761.25
770.64	1781.73
770.82	1730.53
770.99	1755.11
771.17	1808.36
771.35	1722.34
771.53	1701.86
771.70	1724.39
771.88	1742.82
772.06	1708.01
772.23	1834.98
772.41	1777.64
772.59	1728.49
772.77	1667.05
772.94	1689.57
773.12	1755.11
773.30	1656.81
773.47	1675.24
773.65	1636.33
773.83	1802.21
774.01	1669.09
774.18	1667.05
774.36	1681.38
774.54	1699.81
774.71	1791.97
774.89	1654.76
775.07	1687.53
775.24	1716.20
775.42	1689.57
775.60	1751.01
775.78	1628.14
775.95	1693.67
776.13	1630.18
776.31	1626.09
776.48	1775.59
776.66	1751.01
776.84	1677.29
777.01	1738.73
777.19	1681.38
777.37	1796.07
777.54	1693.67
777.72	1890.28
777.90	1761.25
778.07	1697.77
778.25	1826.79
778.43	1804.26
778.60	1615.85
778.78	1779.68
778.96	1765.35
779.13	1718.25
779.31	1724.39
779.49	1781.73
779.66	1705.96
779.84	1701.86
780.01	1751.01
780.19	1626.09
780.37	1824.74
780.54	1705.96
780.72	1617.90
780.90	1726.44
781.07	1732.58
781.25	1748.97
781.43	1736.68
781.60	1767.40
781.78	1791.97
781.95	1710.05
782.13	1626.09
782.31	1714.15
782.48	1574.89
782.66	1732.58
782.83	1800.16
783.01	1796.07
783.19	1796.07
783.36	1771.49
783.54	1671.14
783.72	1779.68
783.89	1669.09
784.07	1746.92
784.24	1734.63
784.42	1777.64
784.60	1742.82
784.77	1730.53
784.95	1609.70
785.12	1658.85
785.30	1802.21
785.47	1558.50
785.65	1671.14
785.83	1773.54
786.00	1667.05
786.18	1779.68
786.35	1607.66
786.53	1660.90
786.71	1812.45
786.88	1730.53
787.06	1732.58
787.23	1730.53
787.41	1662.95
787.58	1703.91
787.76	1738.73
787.94	1642.47
788.11	1712.10
788.29	1617.90
788.46	1708.01
788.64	1654.76
788.81	1679.33
788.99	1687.53
789.16	1665.00
789.34	1695.72
789.52	1669.09
789.69	1732.58
789.87	1650.66
790.04	1658.85
790.22	1740.77
790.39	1783.78
790.57	1710.05
790.74	1701.86
790.92	1738.73
791.09	1669.09
791.27	1730.53
791.44	1828.84
791.62	1802.21
791.79	1746.92
791.97	1726.44
792.15	1871.84
792.32	1777.64
792.50	1841.12
792.67	1802.21
792.85	1789.92
793.02	1695.72
793.20	1716.20
793.37	1617.90
793.55	1740.77
793.72	1615.85
793.90	1751.01
794.07	1660.90
794.25	1677.29
794.42	1656.81
794.60	1681.38
794.77	1675.24
794.95	1796.07
795.12	1701.86
795.30	1697.77
795.47	1546.22
795.65	1888.23
795.82	1777.64
796.00	1634.28
796.17	1669.09
796.34	1617.90
796.52	1701.86
796.69	1730.53
796.87	1794.02
797.04	1744.87
797.22	1783.78
797.39	1751.01
797.57	1779.68
797.74	1724.39
797.92	1796.07
798.09	1701.86
798.27	1722.34
798.44	1767.40
798.62	1710.05
798.79	1779.68
798.96	1773.54
799.14	1683.43
799.31	1894.37
799.49	1681.38
799.66	1697.77
799.84	1697.77
800.01	1632.23
800.19	1816.55
800.36	1617.90
800.53	1830.88
800.71	1722.34
800.88	1748.97
801.06	1669.09
801.23	1689.57
801.41	1705.96
801.58	1730.53
801.75	1703.91
801.93	1789.92
802.10	1738.73
802.28	1720.29
802.45	1693.67
802.63	1775.59
802.80	1769.44
802.97	1683.43
803.15	1626.09
803.32	1742.82
803.50	1593.32
803.67	1705.96
803.84	1714.15
804.02	1689.57
804.19	1714.15
804.37	1595.37
804.54	1701.86
804.71	1687.53
804.89	1798.12
805.06	1660.90
805.24	1669.09
805.41	1703.91
805.58	1697.77
805.76	1880.04
805.93	1728.49
806.10	1832.93
806.28	1820.64
806.45	1695.72
806.63	1791.97
806.80	1720.29
806.97	1765.35
807.15	1701.86
807.32	1746.92
807.49	1734.63
807.67	1665.00
807.84	1763.30
808.01	1689.57
808.19	1875.94
808.36	1722.34
808.54	1724.39
808.71	1615.85
808.88	1753.06
809.06	1777.64
809.23	1773.54
809.40	1691.62
809.58	1777.64
809.75	1724.39
809.92	1646.57
810.10	1869.80
810.27	1701.86
810.44	1791.97
810.62	1665.00
810.79	1791.97
810.96	1718.25
811.14	1665.00
811.31	1705.96
811.48	1755.11
811.66	1703.91
811.83	1705.96
812.00	1748.97
812.18	1699.81
812.35	1892.32
812.52	1767.40
812.69	1728.49
812.87	1689.57
813.04	1675.24
813.21	1644.52
813.39	1708.01
813.56	1658.85
813.73	1826.79
813.91	1675.24
814.08	1767.40
814.25	1798.12
814.42	1609.70
814.60	1654.76
814.77	1748.97
814.94	1777.64
815.12	1730.53
815.29	1748.97
815.46	1624.04
815.63	1816.55
815.81	1728.49
815.98	1683.43
816.15	1718.25
816.33	1771.49
816.50	1705.96
816.67	1644.52
816.84	1755.11
817.02	1669.09
817.19	1773.54
817.36	1703.91
817.53	1794.02
817.71	1636.33
817.88	1820.64
818.05	1703.91
818.22	1734.63
818.40	1820.64
818.57	1669.09
818.74	1767.40
818.91	1755.11
819.09	1757.16
819.26	1822.69
819.43	1667.05
819.60	1656.81
819.78	1718.25
819.95	1810.40
820.12	1638.38
820.29	1812.45
820.47	1791.97
820.64	1619.94
820.81	1642.47
820.98	1720.29
821.15	1701.86
821.33	1771.49
821.50	1660.90
821.67	1710.05
821.84	1730.53
822.02	1802.21
822.19	1849.32
822.36	1699.81
822.53	1742.82
822.70	1683.43
822.88	1712.10
823.05	1775.59
823.22	1773.54
823.39	1638.38
823.56	1685.48
823.74	1783.78
823.91	1677.29
824.08	1675.24
824.25	1583.08
824.42	1910.75
824.60	1613.80
824.77	1718.25
824.94	1742.82
825.11	1773.54
825.28	1576.94
825.45	1701.86
825.63	1724.39
825.80	1646.57
825.97	1740.77
826.14	1636.33
826.31	1619.94
826.48	1726.44
826.66	1699.81
826.83	1699.81
827.00	1765.35
827.17	1720.29
827.34	1724.39
827.51	1722.34
827.69	1652.71
827.86	1673.19
828.03	1720.29
828.20	1607.66
828.37	1732.58
828.54	1693.67
828.71	1701.86
828.89	1812.45
829.06	1773.54
829.23	1757.16
829.40	1656.81
829.57	1687.53
829.74	1834.98
829.91	1601.51
830.09	1738.73
830.26	1738.73
830.43	1839.08
830.60	1769.44
830.77	1781.73
830.94	1871.84
831.11	1742.82
831.28	1658.85
831.46	1738.73
831.63	1728.49
831.80	1771.49
831.97	1681.38
832.14	1679.33
832.31	1771.49
832.48	1697.77
832.65	1779.68
832.82	1791.97
832.99	1718.25
833.17	1746.92
833.34	1832.93
833.51	1685.48
833.68	1615.85
833.85	1845.22
834.02	1699.81
834.19	1681.38
834.36	1662.95
834.53	1720.29
834.70	1775.59
834.87	1775.59
835.04	1699.81
835.22	1624.04
835.39	1662.95
835.56	1619.94
835.73	1595.37
835.90	1718.25
836.07	1730.53
836.24	1773.54
836.41	1746.92
836.58	1656.81
836.75	1724.39
836.92	1665.00
837.09	1648.61
837.26	1734.63
837.43	1789.92
837.60	1781.73
837.77	1685.48
837.94	1757.16
838.12	1773.54
838.29	1746.92
838.46	1607.66
838.63	1615.85
838.80	1798.12
838.97	1693.67
839.14	1742.82
839.31	1683.43
839.48	1734.63
839.65	1675.24
839.82	1751.01
839.99	1701.86
840.16	1789.92
840.33	1703.91
840.50	1681.38
840.67	1689.57
840.84	1626.09
841.01	1722.34
841.18	1714.15
841.35	1714.15
841.52	1746.92
841.69	1822.69
841.86	1744.87
842.03	1673.19
842.20	1738.73
842.37	1751.01
842.54	1751.01
842.71	1675.24
842.88	1652.71
843.05	1726.44
843.22	1720.29
843.39	1722.34
843.56	1722.34
843.73	1669.09
843.90	1705.96
844.07	1767.40
844.24	1759.21
844.41	1771.49
844.58	1781.73
844.75	1693.67
844.92	1701.86
845.09	1775.59
845.26	1644.52
845.43	1683.43
845.60	1714.15
845.77	1767.40
845.94	1681.38
846.10	1650.66
846.27	1572.84
846.44	1693.67
846.61	1624.04
846.78	1695.72
846.95	1775.59
847.12	1675.24
847.29	1669.09
847.46	1675.24
847.63	1816.55
847.80	1652.71
847.97	1656.81
848.14	1869.80
848.31	1695.72
848.48	1632.23
848.65	1681.38
848.82	1677.29
848.98	1808.36
849.15	1716.20
849.32	1773.54
849.49	1744.87
849.66	1757.16
849.83	1722.34
850.00	1677.29
850.17	1757.16
850.34	1699.81
850.51	1728.49
850.68	1636.33
850.85	1810.40
851.01	1759.21
851.18	1748.97
851.35	1738.73
851.52	1722.34
851.69	1794.02
851.86	1736.68
852.03	1753.06
852.20	1787.88
852.37	1656.81
852.53	1628.14
852.70	1691.62
852.87	1697.77
853.04	1689.57
853.21	1781.73
853.38	1755.11
853.55	1703.91
853.72	1691.62
853.89	1677.29
854.05	1667.05
854.22	1716.20
854.39	1783.78
854.56	1755.11
854.73	1775.59
854.90	1648.61
855.07	1716.20
855.23	1632.23
855.40	1738.73
855.57	1710.05
855.74	1556.46
855.91	1902.56
856.08	1597.42
856.25	1636.33
856.41	1671.14
856.58	1740.77
856.75	1761.25
856.92	1626.09
857.09	1691.62
857.26	1601.51
857.42	1738.73
857.59	1726.44
857.76	1679.33
857.93	1718.25
858.10	1699.81
858.27	1665.00
858.43	1708.01
858.60	1679.33
858.77	1640.42
858.94	1722.34
859.11	1845.22
859.27	1662.95
859.44	1748.97
859.61	1890.28
859.78	1718.25
859.95	1712.10
860.12	1687.53
860.28	1806.31
860.45	1781.73
860.62	1716.20
860.79	1691.62
860.95	1771.49
861.12	1722.34
861.29	1689.57
861.46	1656.81
861.63	1671.14
861.79	1757.16
861.96	1593.32
862.13	1730.53
862.30	1769.44
862.47	1615.85
862.63	1595.37
862.80	1763.30
862.97	1757.16
863.14	1701.86
863.30	1748.97
863.47	1710.05
863.64	1767.40
863.81	1767.40
863.97	1695.72
864.14	1738.73
864.31	1689.57
864.48	1716.20
864.65	1773.54
864.81	1728.49
864.98	1734.63
865.15	1759.21
865.32	1783.78
865.48	1777.64
865.65	1808.36
865.82	1613.80
865.98	1726.44
866.15	1738.73
866.32	1636.33
866.49	1689.57
866.65	1748.97
866.82	1708.01
866.99	1671.14
867.16	1665.00
867.32	1632.23
867.49	1683.43
867.66	1701.86
867.83	1701.86
867.99	1677.29
868.16	1738.73
868.33	1697.77
868.49	1708.01
868.66	1724.39
868.83	1746.92
868.99	1730.53
869.16	1679.33
869.33	1761.25
869.50	1761.25
869.66	1720.29
869.83	1726.44
870.00	1665.00
870.16	1638.38
870.33	1570.79
870.50	1736.68
870.66	1712.10
870.83	1837.03
871.00	1685.48
871.17	1740.77
871.33	1695.72
871.50	1679.33
871.67	1763.30
871.83	1607.66
872.00	1800.16
872.17	1724.39
872.33	1767.40
872.50	1720.29
872.67	1767.40
872.83	1679.33
873.00	1791.97
873.17	1777.64
873.33	1771.49
873.50	1722.34
873.67	1646.57
873.83	1732.58
874.00	1722.34
874.16	1814.50
874.33	1673.19
874.50	1570.79
874.66	1781.73
874.83	1679.33
875.00	1812.45
875.16	1773.54
875.33	1783.78
875.50	1619.94
875.66	1730.53
875.83	1748.97
875.99	1794.02
876.16	1767.40
876.33	1689.57
876.49	1685.48
876.66	1689.57
876.83	1681.38
876.99	1691.62
877.16	1626.09
877.32	1708.01
877.49	1771.49
877.66	1699.81
877.82	1779.68
877.99	1753.06
878.15	1787.88
878.32	1738.73
878.49	1705.96
878.65	1705.96
878.82	1787.88
878.98	1722.34
879.15	1767.40
879.32	1767.40
879.48	1796.07
879.65	1675.24
879.81	1730.53
879.98	1714.15
880.15	1609.70
880.31	1771.49
880.48	1665.00
880.64	1824.74
880.81	1779.68
880.97	1820.64
881.14	1806.31
881.31	1624.04
881.47	1796.07
881.64	1738.73
881.80	1662.95
881.97	1746.92
882.13	1732.58
882.30	1689.57
882.47	1658.85
882.63	1673.19
882.80	1722.34
882.96	1724.39
883.13	1871.84
883.29	1693.67
883.46	1826.79
883.62	1832.93
883.79	1773.54
883.95	1748.97
884.12	1728.49
884.29	1771.49
884.45	1744.87
884.62	1710.05
884.78	1705.96
884.95	1898.47
885.11	1689.57
885.28	1722.34
885.44	1673.19
885.61	1800.16
885.77	1732.58
885.94	1728.49
886.10	1699.81
886.27	1699.81
886.43	1841.12
886.60	1763.30
886.76	1673.19
886.93	1685.48
887.09	1751.01
887.26	1665.00
887.42	1732.58
887.59	1791.97
887.75	1886.18
887.92	1787.88
888.08	1814.50
888.25	1753.06
888.41	1710.05
888.58	1769.44
888.74	1658.85
888.91	1722.34
>>>>>End Processed Spectral Data<<<<<
