SpectraSuite Data File
++++++++++++++++++++++++++++++++++++
Date: Mon Jun 06 17:06:37 CEST 2016
User: root
Dark Spectrum Present: No
Reference Spectrum Present: No
Number of Sampled Component Spectra: 1
Spectrometers: USB4C02835
Integration Time (usec): 100000 (USB4C02835)
Spectra Averaged: 1 (USB4C02835)
Boxcar Smoothing: 0 (USB4C02835)
Correct for Electrical Dark: No (USB4C02835)
Strobe/Lamp Enabled: No (USB4C02835)
Correct for Detector Non-linearity: No (USB4C02835)
Correct for Stray Light: No (USB4C02835)
Number of Pixels in Processed Spectrum: 3648
>>>>>Begin Processed Spectral Data<<<<<
177.47	1525.74
177.69	1525.74
177.91	1525.74
178.13	1533.93
178.36	1507.30
178.58	1550.31
178.80	1783.78
179.02	1724.39
179.24	1701.86
179.46	1701.86
179.68	1742.82
179.90	1716.20
180.13	1738.73
180.35	1681.38
180.57	1689.57
180.79	1769.44
181.01	1683.43
181.23	1748.97
181.45	1773.54
181.67	1683.43
181.90	1779.68
182.12	1689.57
182.34	1652.71
182.56	1755.11
182.78	1695.72
183.00	1617.90
183.22	1724.39
183.44	1665.00
183.66	1863.65
183.89	1781.73
184.11	1720.29
184.33	1681.38
184.55	1761.25
184.77	1681.38
184.99	1744.87
185.21	1599.46
185.43	1857.51
185.65	1605.61
185.87	1755.11
186.10	1824.74
186.32	1853.41
186.54	1728.49
186.76	1730.53
186.98	1748.97
187.20	1656.81
187.42	1699.81
187.64	1648.61
187.86	1699.81
188.08	1722.34
188.30	1636.33
188.52	1650.66
188.75	1781.73
188.97	1816.55
189.19	1617.90
189.41	1730.53
189.63	1771.49
189.85	1718.25
190.07	1705.96
190.29	1628.14
190.51	1732.58
190.73	1572.84
190.95	1855.46
191.17	1777.64
191.39	1683.43
191.61	1728.49
191.84	1693.67
192.06	1726.44
192.28	1615.85
192.50	1884.13
192.72	1763.30
192.94	1742.82
193.16	1744.87
193.38	1685.48
193.60	1699.81
193.82	1658.85
194.04	1722.34
194.26	1724.39
194.48	1644.52
194.70	1730.53
194.92	1681.38
195.14	1791.97
195.36	1652.71
195.58	1746.92
195.80	1689.57
196.02	1675.24
196.24	1712.10
196.46	1730.53
196.69	1665.00
196.91	1816.55
197.13	1722.34
197.35	1732.58
197.57	1740.77
197.79	1658.85
198.01	1734.63
198.23	1771.49
198.45	1705.96
198.67	1718.25
198.89	1705.96
199.11	1732.58
199.33	1632.23
199.55	1568.74
199.77	1755.11
199.99	1767.40
200.21	1673.19
200.43	1669.09
200.65	1679.33
200.87	1628.14
201.09	1744.87
201.31	1701.86
201.53	1779.68
201.75	1658.85
201.97	1673.19
202.19	1671.14
202.41	1787.88
202.63	1814.50
202.85	1726.44
203.07	1746.92
203.29	1648.61
203.51	1640.42
203.73	1634.28
203.95	1867.75
204.17	1800.16
204.39	1751.01
204.61	1617.90
204.83	1673.19
205.05	1769.44
205.27	1757.16
205.49	1859.56
205.71	1656.81
205.93	1720.29
206.15	1746.92
206.37	1761.25
206.59	1744.87
206.81	1624.04
207.03	1658.85
207.25	1609.70
207.47	1738.73
207.69	1724.39
207.91	1773.54
208.13	1826.79
208.34	1699.81
208.56	1722.34
208.78	1744.87
209.00	1646.57
209.22	1742.82
209.44	1701.86
209.66	1734.63
209.88	1722.34
210.10	1650.66
210.32	1634.28
210.54	1771.49
210.76	1691.62
210.98	1705.96
211.20	1634.28
211.42	1738.73
211.64	1667.05
211.86	1812.45
212.08	1800.16
212.30	1769.44
212.52	1730.53
212.74	1646.57
212.96	1718.25
213.17	1794.02
213.39	1689.57
213.61	1802.21
213.83	1701.86
214.05	1730.53
214.27	1816.55
214.49	1689.57
214.71	1691.62
214.93	1730.53
215.15	1701.86
215.37	1824.74
215.59	1693.67
215.81	1785.83
216.03	1787.88
216.24	1654.76
216.46	1695.72
216.68	1726.44
216.90	1726.44
217.12	1796.07
217.34	1722.34
217.56	1705.96
217.78	1804.26
218.00	1695.72
218.22	1779.68
218.44	1755.11
218.66	1679.33
218.87	1808.36
219.09	1693.67
219.31	1681.38
219.53	1728.49
219.75	1640.42
219.97	1673.19
220.19	1738.73
220.41	1658.85
220.63	1712.10
220.85	1722.34
221.06	1681.38
221.28	1722.34
221.50	1748.97
221.72	1634.28
221.94	1732.58
222.16	1728.49
222.38	1724.39
222.60	1742.82
222.82	1763.30
223.03	1691.62
223.25	1615.85
223.47	1746.92
223.69	1812.45
223.91	1808.36
224.13	1701.86
224.35	1685.48
224.57	1806.31
224.78	1767.40
225.00	1630.18
225.22	1683.43
225.44	1665.00
225.66	1796.07
225.88	1708.01
226.10	1791.97
226.32	1693.67
226.53	1789.92
226.75	1714.15
226.97	1710.05
227.19	1738.73
227.41	1656.81
227.63	1755.11
227.85	1617.90
228.06	1656.81
228.28	1683.43
228.50	1753.06
228.72	1710.05
228.94	1677.29
229.16	1574.89
229.37	1632.23
229.59	1687.53
229.81	1789.92
230.03	1697.77
230.25	1658.85
230.47	1611.75
230.69	1613.80
230.90	1787.88
231.12	1638.38
231.34	1691.62
231.56	1804.26
231.78	1634.28
232.00	1712.10
232.21	1765.35
232.43	1695.72
232.65	1574.89
232.87	1738.73
233.09	1710.05
233.30	1705.96
233.52	1716.20
233.74	1689.57
233.96	1697.77
234.18	1675.24
234.40	1718.25
234.61	1855.46
234.83	1656.81
235.05	1681.38
235.27	1820.64
235.49	1785.83
235.70	1675.24
235.92	1728.49
236.14	1708.01
236.36	1861.60
236.58	1615.85
236.79	1751.01
237.01	1650.66
237.23	1599.46
237.45	1742.82
237.67	1652.71
237.88	1716.20
238.10	1898.47
238.32	1630.18
238.54	1691.62
238.76	1728.49
238.97	1691.62
239.19	1738.73
239.41	1812.45
239.63	1818.60
239.85	1634.28
240.06	1705.96
240.28	1640.42
240.50	1763.30
240.72	1728.49
240.93	1665.00
241.15	1753.06
241.37	1755.11
241.59	1837.03
241.81	1708.01
242.02	1701.86
242.24	1746.92
242.46	1791.97
242.68	1634.28
242.89	1730.53
243.11	1761.25
243.33	1656.81
243.55	1722.34
243.76	1693.67
243.98	1699.81
244.20	1708.01
244.42	1748.97
244.64	1638.38
244.85	1630.18
245.07	1605.61
245.29	1769.44
245.51	1679.33
245.72	1718.25
245.94	1740.77
246.16	1722.34
246.38	1783.78
246.59	1617.90
246.81	1636.33
247.03	1689.57
247.24	1626.09
247.46	1685.48
247.68	1638.38
247.90	1626.09
248.11	1638.38
248.33	1716.20
248.55	1708.01
248.77	1687.53
248.98	1726.44
249.20	1816.55
249.42	1732.58
249.64	1720.29
249.85	1736.68
250.07	1744.87
250.29	1755.11
250.50	1712.10
250.72	1644.52
250.94	1714.15
251.16	1910.75
251.37	1724.39
251.59	1769.44
251.81	1820.64
252.02	1759.21
252.24	1632.23
252.46	1812.45
252.68	1658.85
252.89	1699.81
253.11	1593.32
253.33	1828.84
253.54	1804.26
253.76	1578.98
253.98	1652.71
254.20	1765.35
254.41	1656.81
254.63	1685.48
254.85	1648.61
255.06	1658.85
255.28	1687.53
255.50	1710.05
255.71	1726.44
255.93	1724.39
256.15	1705.96
256.36	1718.25
256.58	1681.38
256.80	1746.92
257.02	1742.82
257.23	1705.96
257.45	1693.67
257.67	1767.40
257.88	1695.72
258.10	1751.01
258.32	1671.14
258.53	1693.67
258.75	1785.83
258.97	1669.09
259.18	1734.63
259.40	1716.20
259.62	1765.35
259.83	1851.36
260.05	1716.20
260.27	2031.58
260.48	1837.03
260.70	1667.05
260.92	1695.72
261.13	1732.58
261.35	1779.68
261.57	1730.53
261.78	1654.76
262.00	1662.95
262.22	1730.53
262.43	1652.71
262.65	1693.67
262.86	1763.30
263.08	1882.08
263.30	1742.82
263.51	1654.76
263.73	1691.62
263.95	1783.78
264.16	1646.57
264.38	1619.94
264.60	1662.95
264.81	1767.40
265.03	1783.78
265.25	1769.44
265.46	1730.53
265.68	1781.73
265.89	1746.92
266.11	1599.46
266.33	1779.68
266.54	1742.82
266.76	1701.86
266.98	1781.73
267.19	1791.97
267.41	1728.49
267.62	1652.71
267.84	1705.96
268.06	1769.44
268.27	1769.44
268.49	1734.63
268.70	1714.15
268.92	1671.14
269.14	1679.33
269.35	1624.04
269.57	1665.00
269.79	1697.77
270.00	1628.14
270.22	1890.28
270.43	1669.09
270.65	1650.66
270.87	1765.35
271.08	1765.35
271.30	1755.11
271.51	1722.34
271.73	1714.15
271.95	1781.73
272.16	1763.30
272.38	1771.49
272.59	1712.10
272.81	1712.10
273.02	1773.54
273.24	1767.40
273.46	1732.58
273.67	1679.33
273.89	1701.86
274.10	1748.97
274.32	1740.77
274.54	1726.44
274.75	1736.68
274.97	1724.39
275.18	1828.84
275.40	1673.19
275.61	1654.76
275.83	1730.53
276.05	1585.13
276.26	1736.68
276.48	1724.39
276.69	1570.79
276.91	1652.71
277.12	1761.25
277.34	1769.44
277.55	1710.05
277.77	1665.00
277.99	1677.29
278.20	1642.47
278.42	1671.14
278.63	1681.38
278.85	1644.52
279.06	1755.11
279.28	1701.86
279.49	1736.68
279.71	1728.49
279.93	1712.10
280.14	1712.10
280.36	1517.54
280.57	1746.92
280.79	1808.36
281.00	1705.96
281.22	1691.62
281.43	1787.88
281.65	1574.89
281.86	1601.51
282.08	1757.16
282.29	1781.73
282.51	1667.05
282.73	1681.38
282.94	1642.47
283.16	1746.92
283.37	1751.01
283.59	1638.38
283.80	1726.44
284.02	1671.14
284.23	1722.34
284.45	1705.96
284.66	1669.09
284.88	1644.52
285.09	1689.57
285.31	1718.25
285.52	1726.44
285.74	1636.33
285.95	1751.01
286.17	1703.91
286.38	1767.40
286.60	1642.47
286.81	1757.16
287.03	1687.53
287.24	1703.91
287.46	1730.53
287.67	1697.77
287.89	1796.07
288.10	1724.39
288.32	1699.81
288.53	1751.01
288.75	1726.44
288.96	1753.06
289.18	1671.14
289.39	1658.85
289.61	1701.86
289.82	1822.69
290.04	1794.02
290.25	1619.94
290.47	1730.53
290.68	1681.38
290.90	1767.40
291.11	1615.85
291.33	1773.54
291.54	1667.05
291.76	1685.48
291.97	1751.01
292.18	1642.47
292.40	1732.58
292.61	1687.53
292.83	1865.70
293.04	1773.54
293.26	1742.82
293.47	1718.25
293.69	1644.52
293.90	1705.96
294.12	1802.21
294.33	1730.53
294.55	1742.82
294.76	1736.68
294.97	1796.07
295.19	1834.98
295.40	1718.25
295.62	1736.68
295.83	1785.83
296.05	1708.01
296.26	1806.31
296.48	1710.05
296.69	1624.04
296.90	1619.94
297.12	1728.49
297.33	1759.21
297.55	1646.57
297.76	1708.01
297.98	1767.40
298.19	1714.15
298.41	1660.90
298.62	1734.63
298.83	1830.88
299.05	1673.19
299.26	1693.67
299.48	1697.77
299.69	1773.54
299.90	1695.72
300.12	1665.00
300.33	1726.44
300.55	1708.01
300.76	1779.68
300.98	1624.04
301.19	1708.01
301.40	1701.86
301.62	1671.14
301.83	1763.30
302.05	1734.63
302.26	1681.38
302.47	1669.09
302.69	1617.90
302.90	1726.44
303.12	1570.79
303.33	1724.39
303.54	1814.50
303.76	1689.57
303.97	1779.68
304.19	1753.06
304.40	1662.95
304.61	1742.82
304.83	1746.92
305.04	1779.68
305.26	1734.63
305.47	1757.16
305.68	1748.97
305.90	1648.61
306.11	1767.40
306.33	1728.49
306.54	1624.04
306.75	1724.39
306.97	1673.19
307.18	1671.14
307.39	1699.81
307.61	1718.25
307.82	1630.18
308.04	1738.73
308.25	1693.67
308.46	1740.77
308.68	1662.95
308.89	1773.54
309.10	1775.59
309.32	1693.67
309.53	1677.29
309.74	1718.25
309.96	1734.63
310.17	1769.44
310.39	1693.67
310.60	1781.73
310.81	1697.77
311.03	1619.94
311.24	1759.21
311.45	1634.28
311.67	1839.08
311.88	1695.72
312.09	1644.52
312.31	1640.42
312.52	1761.25
312.73	1693.67
312.95	1652.71
313.16	1650.66
313.37	1820.64
313.59	1757.16
313.80	1693.67
314.01	1845.22
314.23	1671.14
314.44	1640.42
314.65	1634.28
314.87	1632.23
315.08	1681.38
315.29	1640.42
315.51	1681.38
315.72	1581.03
315.93	1806.31
316.15	1736.68
316.36	1630.18
316.57	1691.62
316.79	1779.68
317.00	1763.30
317.21	1746.92
317.43	1705.96
317.64	1705.96
317.85	1615.85
318.07	1679.33
318.28	1746.92
318.49	1806.31
318.70	1925.09
318.92	1740.77
319.13	1824.74
319.34	1802.21
319.56	1763.30
319.77	1826.79
319.98	1834.98
320.20	1794.02
320.41	1753.06
320.62	1728.49
320.83	1705.96
321.05	1822.69
321.26	1783.78
321.47	1712.10
321.69	1724.39
321.90	1632.23
322.11	1753.06
322.32	1765.35
322.54	1757.16
322.75	1708.01
322.96	1789.92
323.18	1583.08
323.39	1544.17
323.60	1673.19
323.81	1736.68
324.03	1740.77
324.24	1636.33
324.45	1726.44
324.66	1615.85
324.88	1849.32
325.09	1734.63
325.30	1726.44
325.52	1744.87
325.73	1730.53
325.94	1722.34
326.15	1658.85
326.37	1722.34
326.58	1767.40
326.79	1810.40
327.00	1724.39
327.22	1798.12
327.43	1730.53
327.64	1636.33
327.85	1767.40
328.07	1769.44
328.28	1837.03
328.49	1691.62
328.70	1728.49
328.92	1693.67
329.13	1710.05
329.34	1783.78
329.55	1826.79
329.76	1767.40
329.98	1667.05
330.19	1769.44
330.40	1779.68
330.61	1658.85
330.83	1730.53
331.04	1667.05
331.25	1738.73
331.46	1730.53
331.68	1632.23
331.89	1742.82
332.10	1726.44
332.31	1689.57
332.52	1701.86
332.74	1818.60
332.95	1640.42
333.16	1701.86
333.37	1693.67
333.58	1712.10
333.80	1720.29
334.01	1650.66
334.22	1759.21
334.43	1656.81
334.64	1722.34
334.86	1675.24
335.07	1697.77
335.28	1806.31
335.49	1624.04
335.70	1751.01
335.92	1800.16
336.13	1814.50
336.34	1701.86
336.55	1730.53
336.76	1757.16
336.98	1531.88
337.19	1732.58
337.40	1740.77
337.61	1853.41
337.82	1648.61
338.04	1783.78
338.25	1578.98
338.46	1732.58
338.67	1667.05
338.88	1693.67
339.09	1634.28
339.31	1683.43
339.52	1669.09
339.73	1662.95
339.94	1714.15
340.15	1751.01
340.36	1646.57
340.58	1728.49
340.79	1714.15
341.00	1689.57
341.21	1658.85
341.42	1812.45
341.63	1673.19
341.85	1771.49
342.06	1601.51
342.27	1669.09
342.48	1697.77
342.69	1605.61
342.90	1685.48
343.12	1757.16
343.33	1759.21
343.54	1779.68
343.75	1849.32
343.96	1660.90
344.17	1738.73
344.38	1722.34
344.60	1644.52
344.81	1652.71
345.02	1720.29
345.23	1828.84
345.44	1783.78
345.65	1748.97
345.86	1820.64
346.07	1656.81
346.29	1708.01
346.50	1734.63
346.71	1722.34
346.92	1767.40
347.13	1847.27
347.34	1642.47
347.55	1658.85
347.76	1738.73
347.98	1665.00
348.19	1646.57
348.40	1722.34
348.61	1708.01
348.82	1806.31
349.03	1751.01
349.24	1644.52
349.45	1869.80
349.66	1636.33
349.88	1765.35
350.09	1691.62
350.30	1761.25
350.51	1779.68
350.72	1734.63
350.93	1769.44
351.14	1689.57
351.35	1744.87
351.56	1699.81
351.77	1687.53
351.99	1724.39
352.20	1820.64
352.41	1748.97
352.62	1640.42
352.83	1800.16
353.04	1740.77
353.25	1640.42
353.46	1726.44
353.67	1798.12
353.88	1538.02
354.09	1775.59
354.30	1740.77
354.52	1730.53
354.73	1699.81
354.94	1724.39
355.15	1726.44
355.36	1751.01
355.57	1726.44
355.78	1779.68
355.99	1746.92
356.20	1626.09
356.41	1820.64
356.62	1708.01
356.83	1738.73
357.04	1828.84
357.25	1613.80
357.46	1699.81
357.68	1609.70
357.89	1644.52
358.10	1697.77
358.31	1705.96
358.52	1652.71
358.73	1705.96
358.94	1603.56
359.15	1656.81
359.36	1820.64
359.57	1703.91
359.78	1740.77
359.99	1849.32
360.20	1701.86
360.41	1679.33
360.62	1771.49
360.83	1726.44
361.04	1722.34
361.25	1769.44
361.46	1869.80
361.67	1714.15
361.88	1763.30
362.09	1785.83
362.30	1744.87
362.51	1665.00
362.72	1708.01
362.93	1763.30
363.14	1773.54
363.35	1687.53
363.56	1630.18
363.78	1759.21
363.99	1769.44
364.20	1728.49
364.41	1683.43
364.62	1877.99
364.83	1755.11
365.04	1689.57
365.25	1714.15
365.46	1800.16
365.67	1687.53
365.88	1685.48
366.09	1636.33
366.30	1740.77
366.51	1695.72
366.72	1624.04
366.93	1724.39
367.14	1705.96
367.35	1769.44
367.56	1753.06
367.77	1789.92
367.98	1667.05
368.18	1728.49
368.39	1705.96
368.60	1650.66
368.81	1742.82
369.02	1716.20
369.23	1648.61
369.44	1642.47
369.65	1673.19
369.86	1783.78
370.07	1703.91
370.28	1683.43
370.49	1798.12
370.70	1808.36
370.91	1652.71
371.12	1619.94
371.33	1800.16
371.54	1722.34
371.75	1812.45
371.96	1542.12
372.17	1703.91
372.38	1853.41
372.59	1775.59
372.80	1712.10
373.01	1761.25
373.22	1675.24
373.43	1705.96
373.64	1656.81
373.85	1746.92
374.06	1824.74
374.26	1779.68
374.47	1728.49
374.68	1812.45
374.89	1708.01
375.10	1738.73
375.31	1796.07
375.52	1759.21
375.73	1740.77
375.94	1708.01
376.15	1804.26
376.36	1673.19
376.57	1673.19
376.78	1701.86
376.99	1744.87
377.20	1779.68
377.40	1640.42
377.61	1804.26
377.82	1665.00
378.03	1779.68
378.24	1740.77
378.45	1712.10
378.66	1669.09
378.87	1570.79
379.08	1675.24
379.29	1712.10
379.50	1697.77
379.71	1734.63
379.91	1783.78
380.12	1677.29
380.33	1687.53
380.54	1712.10
380.75	1677.29
380.96	1761.25
381.17	1779.68
381.38	1652.71
381.59	1755.11
381.80	1724.39
382.00	1959.91
382.21	1710.05
382.42	1902.56
382.63	1810.40
382.84	1783.78
383.05	1710.05
383.26	1877.99
383.47	1777.64
383.68	1738.73
383.88	1738.73
384.09	1716.20
384.30	1791.97
384.51	1734.63
384.72	1705.96
384.93	1691.62
385.14	1722.34
385.35	1736.68
385.55	1632.23
385.76	1746.92
385.97	1791.97
386.18	1665.00
386.39	1701.86
386.60	1681.38
386.81	1720.29
387.02	1638.38
387.22	1636.33
387.43	1796.07
387.64	1708.01
387.85	1865.70
388.06	2154.46
388.27	4216.77
388.48	6778.78
388.68	8202.11
388.89	9660.27
389.10	9883.50
389.31	8853.37
389.52	7614.35
389.73	6768.54
389.93	6268.83
390.14	5840.81
390.35	5214.13
390.56	4659.13
390.77	3858.37
390.98	2934.74
391.18	2453.47
391.39	2148.32
391.60	1808.36
391.81	1785.83
392.02	1726.44
392.23	1818.60
392.43	1787.88
392.64	1867.75
392.85	1724.39
393.06	1787.88
393.27	1705.96
393.47	1732.58
393.68	1794.02
393.89	1640.42
394.10	1927.14
394.31	1683.43
394.52	1675.24
394.72	1714.15
394.93	1820.64
395.14	1697.77
395.35	1722.34
395.56	1701.86
395.76	1732.58
395.97	1859.56
396.18	1861.60
396.39	1818.60
396.60	2074.59
396.80	1912.80
397.01	1929.19
397.22	1818.60
397.43	1871.84
397.64	1714.15
397.84	1783.78
398.05	1826.79
398.26	1771.49
398.47	1781.73
398.67	1783.78
398.88	1703.91
399.09	1685.48
399.30	1722.34
399.51	1669.09
399.71	1630.18
399.92	1691.62
400.13	1726.44
400.34	1730.53
400.54	1732.58
400.75	1746.92
400.96	1714.15
401.17	1861.60
401.37	1683.43
401.58	1710.05
401.79	1767.40
402.00	1888.23
402.21	2025.44
402.41	1959.91
402.62	2045.92
402.83	1978.34
403.04	1937.38
403.24	2062.30
403.45	1884.13
403.66	1900.52
403.87	1845.22
404.07	1904.61
404.28	1908.71
404.49	1873.89
404.70	1740.77
404.90	1810.40
405.11	1662.95
405.32	1738.73
405.52	1742.82
405.73	1697.77
405.94	1634.28
406.15	1675.24
406.35	1695.72
406.56	1710.05
406.77	1724.39
406.98	1742.82
407.18	1726.44
407.39	1820.64
407.60	1791.97
407.80	1675.24
408.01	1722.34
408.22	1675.24
408.43	1667.05
408.63	1712.10
408.84	1746.92
409.05	1763.30
409.25	1634.28
409.46	1679.33
409.67	1660.90
409.88	1677.29
410.08	1753.06
410.29	1714.15
410.50	1710.05
410.70	1712.10
410.91	1697.77
411.12	1703.91
411.32	1644.52
411.53	1705.96
411.74	1832.93
411.95	1798.12
412.15	1767.40
412.36	1837.03
412.57	1763.30
412.77	1890.28
412.98	1730.53
413.19	1736.68
413.39	1791.97
413.60	1845.22
413.81	1740.77
414.01	1607.66
414.22	1748.97
414.43	1855.46
414.63	1644.52
414.84	1744.87
415.05	1705.96
415.25	1679.33
415.46	1808.36
415.67	1665.00
415.87	1722.34
416.08	1789.92
416.29	1673.19
416.49	1740.77
416.70	1712.10
416.91	1751.01
417.11	1732.58
417.32	1736.68
417.53	1755.11
417.73	1705.96
417.94	1703.91
418.15	1677.29
418.35	1712.10
418.56	1724.39
418.77	1863.65
418.97	1730.53
419.18	1755.11
419.38	1601.51
419.59	1736.68
419.80	1730.53
420.00	1699.81
420.21	1746.92
420.42	1759.21
420.62	1771.49
420.83	1681.38
421.04	1681.38
421.24	1703.91
421.45	1738.73
421.65	1742.82
421.86	1734.63
422.07	1785.83
422.27	1714.15
422.48	1708.01
422.69	1662.95
422.89	1781.73
423.10	1685.48
423.30	1628.14
423.51	1773.54
423.72	1683.43
423.92	1701.86
424.13	1652.71
424.33	1714.15
424.54	1775.59
424.75	1703.91
424.95	1730.53
425.16	1691.62
425.36	1665.00
425.57	1791.97
425.78	1828.84
425.98	1810.40
426.19	1734.63
426.39	1691.62
426.60	1683.43
426.81	1738.73
427.01	1708.01
427.22	1671.14
427.42	1632.23
427.63	1746.92
427.83	1738.73
428.04	1763.30
428.25	1783.78
428.45	1759.21
428.66	1785.83
428.86	1705.96
429.07	1665.00
429.28	1701.86
429.48	1695.72
429.69	1646.57
429.89	1814.50
430.10	1689.57
430.30	1730.53
430.51	1826.79
430.71	1675.24
430.92	1724.39
431.13	1685.48
431.33	1753.06
431.54	1671.14
431.74	1755.11
431.95	1830.88
432.15	1591.27
432.36	1730.53
432.56	1763.30
432.77	1865.70
432.98	1824.74
433.18	1751.01
433.39	1667.05
433.59	1722.34
433.80	1828.84
434.00	1910.75
434.21	1714.15
434.41	1718.25
434.62	1826.79
434.82	1722.34
435.03	1679.33
435.23	1677.29
435.44	1535.98
435.64	1708.01
435.85	1736.68
436.06	1722.34
436.26	1757.16
436.47	1718.25
436.67	1732.58
436.88	1757.16
437.08	1761.25
437.29	1824.74
437.49	1726.44
437.70	1769.44
437.90	1714.15
438.11	1814.50
438.31	1712.10
438.52	1828.84
438.72	1910.75
438.93	1902.56
439.13	1855.46
439.34	1804.26
439.54	1724.39
439.75	1773.54
439.95	1808.36
440.16	1658.85
440.36	1832.93
440.57	1781.73
440.77	1710.05
440.98	1742.82
441.18	1681.38
441.39	1638.38
441.59	1581.03
441.80	1839.08
442.00	1789.92
442.21	1820.64
442.41	1648.61
442.62	1834.98
442.82	1685.48
443.02	1656.81
443.23	1701.86
443.43	1742.82
443.64	1763.30
443.84	1734.63
444.05	1765.35
444.25	1761.25
444.46	1652.71
444.66	1769.44
444.87	1841.12
445.07	1640.42
445.28	1685.48
445.48	1877.99
445.69	1742.82
445.89	1914.85
446.09	1736.68
446.30	1939.43
446.50	2650.07
446.71	3774.41
446.91	4310.97
447.12	4800.44
447.32	4884.41
447.53	4317.12
447.73	3930.05
447.93	3424.20
448.14	3360.72
448.34	3266.51
448.55	2842.58
448.75	2844.63
448.96	2607.06
449.16	2447.32
449.36	2318.30
449.57	2070.50
449.77	1910.75
449.98	1736.68
450.18	1820.64
450.39	1832.93
450.59	1775.59
450.79	1687.53
451.00	1697.77
451.20	1753.06
451.41	1714.15
451.61	1789.92
451.81	1724.39
452.02	1611.75
452.22	1773.54
452.43	1730.53
452.63	1687.53
452.84	1644.52
453.04	1781.73
453.24	1714.15
453.45	1673.19
453.65	1691.62
453.86	1734.63
454.06	1716.20
454.26	1834.98
454.47	1728.49
454.67	1843.17
454.87	1796.07
455.08	1755.11
455.28	1834.98
455.49	1732.58
455.69	1650.66
455.89	1869.80
456.10	1828.84
456.30	1771.49
456.51	1798.12
456.71	1767.40
456.91	1779.68
457.12	1728.49
457.32	1757.16
457.52	1689.57
457.73	1796.07
457.93	1822.69
458.14	1761.25
458.34	1669.09
458.54	1746.92
458.75	1779.68
458.95	1757.16
459.15	1771.49
459.36	1755.11
459.56	1734.63
459.76	1828.84
459.97	1748.97
460.17	1794.02
460.37	1886.18
460.58	1759.21
460.78	1746.92
460.99	1834.98
461.19	1695.72
461.39	1767.40
461.60	1726.44
461.80	1742.82
462.00	1673.19
462.21	1757.16
462.41	1662.95
462.61	1701.86
462.82	1681.38
463.02	1855.46
463.22	1667.05
463.43	1847.27
463.63	1726.44
463.83	1830.88
464.04	1689.57
464.24	1740.77
464.44	1685.48
464.64	1695.72
464.85	1775.59
465.05	1830.88
465.25	1779.68
465.46	1667.05
465.66	1822.69
465.86	1751.01
466.07	1685.48
466.27	1781.73
466.47	1665.00
466.68	1697.77
466.88	1832.93
467.08	1775.59
467.29	1751.01
467.49	1759.21
467.69	1834.98
467.89	1751.01
468.10	1683.43
468.30	1699.81
468.50	1728.49
468.71	1773.54
468.91	1710.05
469.11	1814.50
469.31	1738.73
469.52	1677.29
469.72	1855.46
469.92	1828.84
470.13	1791.97
470.33	1812.45
470.53	1882.08
470.73	2078.69
470.94	2295.77
471.14	2381.79
471.34	2539.48
471.54	2400.22
471.75	2306.01
471.95	2111.46
472.15	2125.79
472.36	2097.12
472.56	2146.27
472.76	2080.74
472.96	2023.39
473.17	1966.05
473.37	1937.38
473.57	1826.79
473.77	1828.84
473.98	1757.16
474.18	1693.67
474.38	1861.60
474.58	1705.96
474.79	1716.20
474.99	1773.54
475.19	1816.55
475.39	1726.44
475.60	1779.68
475.80	1720.29
476.00	1746.92
476.20	1787.88
476.41	1720.29
476.61	1785.83
476.81	1865.70
477.01	1730.53
477.21	1769.44
477.42	1804.26
477.62	1597.42
477.82	1806.31
478.02	1718.25
478.23	1742.82
478.43	1728.49
478.63	1701.86
478.83	1738.73
479.03	1732.58
479.24	1769.44
479.44	1861.60
479.64	1652.71
479.84	1638.38
480.04	1693.67
480.25	1767.40
480.45	1652.71
480.65	1689.57
480.85	1822.69
481.06	1759.21
481.26	1755.11
481.46	1757.16
481.66	1763.30
481.86	1689.57
482.06	1804.26
482.27	1796.07
482.47	1667.05
482.67	1757.16
482.87	1761.25
483.07	1787.88
483.28	1691.62
483.48	1652.71
483.68	1667.05
483.88	1716.20
484.08	1595.37
484.29	1681.38
484.49	1761.25
484.69	1691.62
484.89	1806.31
485.09	1857.51
485.29	1812.45
485.50	1769.44
485.70	1613.80
485.90	1779.68
486.10	1751.01
486.30	1779.68
486.50	1748.97
486.71	1714.15
486.91	1824.74
487.11	1810.40
487.31	1624.04
487.51	1751.01
487.71	1652.71
487.91	1648.61
488.12	1695.72
488.32	1630.18
488.52	1755.11
488.72	1628.14
488.92	1716.20
489.12	1781.73
489.32	1748.97
489.53	1755.11
489.73	1669.09
489.93	1839.08
490.13	1751.01
490.33	1642.47
490.53	1710.05
490.73	1798.12
490.94	1689.57
491.14	1767.40
491.34	1869.80
491.54	2119.65
491.74	2535.39
491.94	2861.01
492.14	3018.71
492.34	3088.34
492.54	2764.76
492.75	2484.19
492.95	2516.95
493.15	2389.98
493.35	2248.67
493.55	2166.75
493.75	2131.94
493.95	2156.51
494.15	1998.82
494.35	1873.89
494.56	1927.14
494.76	1791.97
494.96	1767.40
495.16	1757.16
495.36	1785.83
495.56	1685.48
495.76	1814.50
495.96	1675.24
496.16	1724.39
496.36	1822.69
496.56	1714.15
496.77	1705.96
496.97	1740.77
497.17	1767.40
497.37	1605.61
497.57	1693.67
497.77	1716.20
497.97	1619.94
498.17	1673.19
498.37	1775.59
498.57	1775.59
498.77	1720.29
498.97	1822.69
499.17	1822.69
499.38	1755.11
499.58	1730.53
499.78	1808.36
499.98	1734.63
500.18	1701.86
500.38	1730.53
500.58	1966.05
500.78	2475.99
500.98	4523.96
501.18	5711.78
501.38	6905.75
501.58	7067.54
501.78	6733.72
501.98	5550.00
502.18	4886.45
502.38	4388.80
502.58	4161.47
502.78	3827.65
502.98	3731.40
503.18	3459.02
503.38	3213.26
503.59	2820.05
503.79	2715.61
503.99	2418.65
504.19	2238.43
504.39	2215.90
504.59	2215.90
504.79	2090.98
504.99	2115.55
505.19	1920.99
505.39	1927.14
505.59	1992.67
505.79	1898.47
505.99	1933.28
506.19	1886.18
506.39	1902.56
506.59	1742.82
506.79	1724.39
506.99	1820.64
507.19	1806.31
507.39	1691.62
507.59	1691.62
507.79	1728.49
507.99	1740.77
508.19	1683.43
508.39	1667.05
508.59	1746.92
508.79	1853.41
508.99	1875.94
509.19	1748.97
509.39	1742.82
509.59	1730.53
509.79	1683.43
509.99	1724.39
510.19	1806.31
510.39	1769.44
510.59	1753.06
510.79	1761.25
510.99	1734.63
511.19	1783.78
511.39	1822.69
511.59	1732.58
511.79	1794.02
511.99	1728.49
512.19	1748.97
512.38	1691.62
512.58	1687.53
512.78	1808.36
512.98	1779.68
513.18	1863.65
513.38	1677.29
513.58	1742.82
513.78	1695.72
513.98	1736.68
514.18	1785.83
514.38	1730.53
514.58	1748.97
514.78	1695.72
514.98	1646.57
515.18	1683.43
515.38	1646.57
515.58	1837.03
515.78	1650.66
515.98	1734.63
516.18	1726.44
516.38	1705.96
516.57	1771.49
516.77	1642.47
516.97	1814.50
517.17	1757.16
517.37	1585.13
517.57	1830.88
517.77	1785.83
517.97	1763.30
518.17	1834.98
518.37	1697.77
518.57	1640.42
518.77	1699.81
518.97	1753.06
519.16	1806.31
519.36	1839.08
519.56	1716.20
519.76	1748.97
519.96	1738.73
520.16	1759.21
520.36	1671.14
520.56	1740.77
520.76	1753.06
520.96	1744.87
521.16	1783.78
521.35	1746.92
521.55	1832.93
521.75	1675.24
521.95	1724.39
522.15	1681.38
522.35	1568.74
522.55	1695.72
522.75	1828.84
522.95	1628.14
523.14	1660.90
523.34	1765.35
523.54	1763.30
523.74	1740.77
523.94	1761.25
524.14	1632.23
524.34	1732.58
524.54	1810.40
524.73	1718.25
524.93	1765.35
525.13	1785.83
525.33	1669.09
525.53	1898.47
525.73	1810.40
525.93	1675.24
526.13	1796.07
526.32	1767.40
526.52	1808.36
526.72	1798.12
526.92	1783.78
527.12	1726.44
527.32	1615.85
527.52	1720.29
527.71	1826.79
527.91	1777.64
528.11	1701.86
528.31	1720.29
528.51	1722.34
528.71	1791.97
528.90	1708.01
529.10	1777.64
529.30	1875.94
529.50	1587.18
529.70	1791.97
529.90	1708.01
530.09	1683.43
530.29	1695.72
530.49	1693.67
530.69	1908.71
530.89	1728.49
531.09	1779.68
531.28	1673.19
531.48	1767.40
531.68	1751.01
531.88	1783.78
532.08	1746.92
532.28	1720.29
532.47	1781.73
532.67	1802.21
532.87	1789.92
533.07	1650.66
533.27	1789.92
533.46	1863.65
533.66	1701.86
533.86	1730.53
534.06	1746.92
534.26	1759.21
534.45	1744.87
534.65	1785.83
534.85	1775.59
535.05	1748.97
535.25	1742.82
535.44	1695.72
535.64	1751.01
535.84	1728.49
536.04	1742.82
536.24	1718.25
536.43	1716.20
536.63	1806.31
536.83	1638.38
537.03	1685.48
537.22	1669.09
537.42	1656.81
537.62	1714.15
537.82	1751.01
538.02	1806.31
538.21	1816.55
538.41	1865.70
538.61	1746.92
538.81	1732.58
539.00	1828.84
539.20	1648.61
539.40	1708.01
539.60	1810.40
539.79	1812.45
539.99	1671.14
540.19	1710.05
540.39	1802.21
540.58	1742.82
540.78	1724.39
540.98	1714.15
541.18	1820.64
541.37	1726.44
541.57	1806.31
541.77	1714.15
541.97	1777.64
542.16	1660.90
542.36	1673.19
542.56	1765.35
542.76	1851.36
542.95	1751.01
543.15	1769.44
543.35	1814.50
543.54	1681.38
543.74	1732.58
543.94	1816.55
544.14	1714.15
544.33	1826.79
544.53	1812.45
544.73	1777.64
544.93	1644.52
545.12	1705.96
545.32	1765.35
545.52	1691.62
545.71	1654.76
545.91	1759.21
546.11	1681.38
546.30	1714.15
546.50	1734.63
546.70	1708.01
546.90	1822.69
547.09	1605.61
547.29	1693.67
547.49	1781.73
547.68	1724.39
547.88	1640.42
548.08	1830.88
548.27	2119.65
548.47	1740.77
548.67	1746.92
548.87	1828.84
549.06	1744.87
549.26	1673.19
549.46	1730.53
549.65	1763.30
549.85	1718.25
550.05	1730.53
550.24	1640.42
550.44	1710.05
550.64	1724.39
550.83	1789.92
551.03	1796.07
551.23	1804.26
551.42	1773.54
551.62	1722.34
551.82	1812.45
552.01	1738.73
552.21	1820.64
552.41	1779.68
552.60	1773.54
552.80	1787.88
553.00	1705.96
553.19	1755.11
553.39	1869.80
553.59	1658.85
553.78	1734.63
553.98	1722.34
554.17	1701.86
554.37	1806.31
554.57	1804.26
554.76	1665.00
554.96	1693.67
555.16	1769.44
555.35	1796.07
555.55	1808.36
555.75	1708.01
555.94	1796.07
556.14	1617.90
556.33	1773.54
556.53	1789.92
556.73	1773.54
556.92	1751.01
557.12	1822.69
557.32	1877.99
557.51	1830.88
557.71	1744.87
557.90	1816.55
558.10	1855.46
558.30	1724.39
558.49	1730.53
558.69	1783.78
558.88	1791.97
559.08	1773.54
559.28	1681.38
559.47	1820.64
559.67	1787.88
559.86	1918.95
560.06	1773.54
560.26	1738.73
560.45	1865.70
560.65	1740.77
560.84	1808.36
561.04	1763.30
561.24	1773.54
561.43	1624.04
561.63	1837.03
561.82	1693.67
562.02	1841.12
562.22	1693.67
562.41	1726.44
562.61	1728.49
562.80	1697.77
563.00	1959.91
563.19	1734.63
563.39	1712.10
563.59	1714.15
563.78	1714.15
563.98	1673.19
564.17	1753.06
564.37	1658.85
564.56	1798.12
564.76	1689.57
564.96	1880.04
565.15	1710.05
565.35	1914.85
565.54	1675.24
565.74	1771.49
565.93	1818.60
566.13	1761.25
566.32	1757.16
566.52	1740.77
566.71	1740.77
566.91	1775.59
567.11	1734.63
567.30	1677.29
567.50	1804.26
567.69	1787.88
567.89	1650.66
568.08	1701.86
568.28	1777.64
568.47	1667.05
568.67	1730.53
568.86	1679.33
569.06	1789.92
569.25	1718.25
569.45	1746.92
569.64	1705.96
569.84	1689.57
570.04	1773.54
570.23	1746.92
570.43	1796.07
570.62	1832.93
570.82	1761.25
571.01	1734.63
571.21	1710.05
571.40	1642.47
571.60	1796.07
571.79	1820.64
571.99	1849.32
572.18	1628.14
572.38	1767.40
572.57	1708.01
572.77	1738.73
572.96	1906.66
573.16	1746.92
573.35	1740.77
573.55	1853.41
573.74	1714.15
573.94	1685.48
574.13	1724.39
574.33	1773.54
574.52	1755.11
574.71	1779.68
574.91	1800.16
575.10	1699.81
575.30	1734.63
575.49	1757.16
575.69	1677.29
575.88	1769.44
576.08	1689.57
576.27	1794.02
576.47	1742.82
576.66	1787.88
576.86	1849.32
577.05	1732.58
577.25	1759.21
577.44	1869.80
577.64	1718.25
577.83	1826.79
578.02	1726.44
578.22	1875.94
578.41	1882.08
578.61	1791.97
578.80	1714.15
579.00	1812.45
579.19	1746.92
579.39	1779.68
579.58	1810.40
579.77	1808.36
579.97	1796.07
580.16	1839.08
580.36	1832.93
580.55	1804.26
580.75	1826.79
580.94	1789.92
581.13	1755.11
581.33	1875.94
581.52	1662.95
581.72	1837.03
581.91	1771.49
582.11	1763.30
582.30	1794.02
582.49	1691.62
582.69	1837.03
582.88	1740.77
583.08	1783.78
583.27	1914.85
583.47	1816.55
583.66	1691.62
583.85	1726.44
584.05	1732.58
584.24	1822.69
584.44	1804.26
584.63	1775.59
584.82	1791.97
585.02	1814.50
585.21	1855.46
585.41	1843.17
585.60	1837.03
585.79	1943.52
585.99	1880.04
586.18	1859.56
586.37	2207.71
586.57	3381.20
586.76	9744.24
586.96	24321.68
587.15	34264.57
587.34	40412.57
587.54	42130.81
587.73	36845.01
587.93	26580.59
588.12	21376.70
588.31	18308.84
588.51	16221.96
588.70	15253.27
588.89	13958.96
589.09	12562.24
589.28	11165.53
589.47	9396.08
589.67	7888.78
589.86	6461.34
590.06	4997.04
590.25	4032.45
590.44	3098.58
590.64	2664.41
590.83	2265.05
591.02	2138.08
591.22	1927.14
591.41	1880.04
591.60	1824.74
591.80	2088.93
591.99	1775.59
592.18	1775.59
592.38	1847.27
592.57	1740.77
592.76	1818.60
592.96	1808.36
593.15	1759.21
593.34	1834.98
593.54	1769.44
593.73	1853.41
593.92	1751.01
594.12	1800.16
594.31	1755.11
594.50	1789.92
594.70	1824.74
594.89	1861.60
595.08	1771.49
595.28	1791.97
595.47	1910.75
595.66	1742.82
595.86	1683.43
596.05	1665.00
596.24	1695.72
596.43	1880.04
596.63	1849.32
596.82	1775.59
597.01	1748.97
597.21	1787.88
597.40	1794.02
597.59	1791.97
597.79	1746.92
597.98	1800.16
598.17	1771.49
598.36	1771.49
598.56	1740.77
598.75	1685.48
598.94	1728.49
599.14	1710.05
599.33	1662.95
599.52	1814.50
599.71	1718.25
599.91	1798.12
600.10	1763.30
600.29	1732.58
600.48	1742.82
600.68	1718.25
600.87	1742.82
601.06	1708.01
601.26	1759.21
601.45	1740.77
601.64	1720.29
601.83	1820.64
602.03	1726.44
602.22	1626.09
602.41	1751.01
602.60	1822.69
602.80	1837.03
602.99	1779.68
603.18	1652.71
603.37	1765.35
603.57	1738.73
603.76	1732.58
603.95	1779.68
604.14	1726.44
604.34	1763.30
604.53	1763.30
604.72	1798.12
604.91	1714.15
605.10	1877.99
605.30	1720.29
605.49	1929.19
605.68	1808.36
605.87	1781.73
606.07	1748.97
606.26	1685.48
606.45	1757.16
606.64	1771.49
606.84	1681.38
607.03	1714.15
607.22	1783.78
607.41	1677.29
607.60	1767.40
607.80	1734.63
607.99	1820.64
608.18	1759.21
608.37	1777.64
608.56	1705.96
608.76	1734.63
608.95	1832.93
609.14	1701.86
609.33	1826.79
609.52	1757.16
609.72	1722.34
609.91	1810.40
610.10	1841.12
610.29	1794.02
610.48	1765.35
610.68	1740.77
610.87	1714.15
611.06	1742.82
611.25	1734.63
611.44	1814.50
611.63	1714.15
611.83	1849.32
612.02	1665.00
612.21	1787.88
612.40	1658.85
612.59	1650.66
612.79	1632.23
612.98	1716.20
613.17	1847.27
613.36	1812.45
613.55	1843.17
613.74	1701.86
613.93	1691.62
614.13	1740.77
614.32	1691.62
614.51	1714.15
614.70	1681.38
614.89	1722.34
615.08	1732.58
615.28	2056.16
615.47	1632.23
615.66	1720.29
615.85	1679.33
616.04	1791.97
616.23	1722.34
616.42	1697.77
616.62	1724.39
616.81	1728.49
617.00	1691.62
617.19	1736.68
617.38	1781.73
617.57	1714.15
617.76	1732.58
617.95	1787.88
618.15	1660.90
618.34	1828.84
618.53	1722.34
618.72	1804.26
618.91	1761.25
619.10	1834.98
619.29	1767.40
619.48	1701.86
619.68	1794.02
619.87	1726.44
620.06	1683.43
620.25	1798.12
620.44	1683.43
620.63	1773.54
620.82	1744.87
621.01	1660.90
621.20	1665.00
621.39	1761.25
621.59	1697.77
621.78	1656.81
621.97	1720.29
622.16	1802.21
622.35	1736.68
622.54	1759.21
622.73	1810.40
622.92	1642.47
623.11	1763.30
623.30	1763.30
623.49	1693.67
623.68	1708.01
623.88	1851.36
624.07	1677.29
624.26	1794.02
624.45	1753.06
624.64	1732.58
624.83	1742.82
625.02	1660.90
625.21	1744.87
625.40	1724.39
625.59	1857.51
625.78	1742.82
625.97	1816.55
626.16	1785.83
626.35	1783.78
626.54	1761.25
626.74	1748.97
626.93	1703.91
627.12	1718.25
627.31	1789.92
627.50	1699.81
627.69	1794.02
627.88	1697.77
628.07	1712.10
628.26	1654.76
628.45	1703.91
628.64	1734.63
628.83	1701.86
629.02	1634.28
629.21	1714.15
629.40	1708.01
629.59	1681.38
629.78	1691.62
629.97	1685.48
630.16	1691.62
630.35	1753.06
630.54	1751.01
630.73	1679.33
630.92	1689.57
631.11	1697.77
631.30	1751.01
631.49	1820.64
631.68	1679.33
631.87	1767.40
632.06	1650.66
632.25	1863.65
632.44	1705.96
632.63	1701.86
632.82	1720.29
633.01	1683.43
633.20	1746.92
633.39	1644.52
633.58	1658.85
633.77	1726.44
633.96	1748.97
634.15	1814.50
634.34	1779.68
634.53	1757.16
634.72	1724.39
634.91	1632.23
635.10	1783.78
635.29	1773.54
635.48	1691.62
635.67	1703.91
635.86	1658.85
636.05	1771.49
636.24	1693.67
636.43	1757.16
636.62	1708.01
636.81	1652.71
637.00	1757.16
637.19	1742.82
637.38	1730.53
637.57	1726.44
637.76	1714.15
637.95	1712.10
638.14	1779.68
638.33	1736.68
638.52	1687.53
638.71	1638.38
638.89	1611.75
639.08	1886.18
639.27	1687.53
639.46	1695.72
639.65	1794.02
639.84	1632.23
640.03	1746.92
640.22	1697.77
640.41	1845.22
640.60	1665.00
640.79	1714.15
640.98	1665.00
641.17	1759.21
641.36	1742.82
641.55	1742.82
641.74	1646.57
641.92	1693.67
642.11	1683.43
642.30	1669.09
642.49	1734.63
642.68	1660.90
642.87	1683.43
643.06	1777.64
643.25	1673.19
643.44	1693.67
643.63	1728.49
643.82	1716.20
644.00	1701.86
644.19	1783.78
644.38	1677.29
644.57	1748.97
644.76	1738.73
644.95	1746.92
645.14	1763.30
645.33	1642.47
645.52	1751.01
645.71	1681.38
645.89	1640.42
646.08	1722.34
646.27	1695.72
646.46	1816.55
646.65	1697.77
646.84	1746.92
647.03	1726.44
647.22	1681.38
647.40	1722.34
647.59	1691.62
647.78	1712.10
647.97	1697.77
648.16	1681.38
648.35	1841.12
648.54	1818.60
648.73	1681.38
648.91	1837.03
649.10	1763.30
649.29	1642.47
649.48	1740.77
649.67	1740.77
649.86	1636.33
650.05	1708.01
650.23	1783.78
650.42	1679.33
650.61	1759.21
650.80	1806.31
650.99	1871.84
651.18	1751.01
651.36	1796.07
651.55	1671.14
651.74	1765.35
651.93	1708.01
652.12	1681.38
652.31	1689.57
652.49	1689.57
652.68	1644.52
652.87	1740.77
653.06	1746.92
653.25	1804.26
653.44	1771.49
653.62	1773.54
653.81	1691.62
654.00	1724.39
654.19	1763.30
654.38	1832.93
654.56	1718.25
654.75	1650.66
654.94	1820.64
655.13	1751.01
655.32	1765.35
655.51	1837.03
655.69	1775.59
655.88	1695.72
656.07	1693.67
656.26	1748.97
656.45	1642.47
656.63	1771.49
656.82	1724.39
657.01	1781.73
657.20	1640.42
657.38	1779.68
657.57	1701.86
657.76	1701.86
657.95	1722.34
658.14	1710.05
658.32	1708.01
658.51	1691.62
658.70	1683.43
658.89	1796.07
659.08	1722.34
659.26	1732.58
659.45	1699.81
659.64	1767.40
659.83	1722.34
660.01	1982.43
660.20	1695.72
660.39	1787.88
660.58	1607.66
660.76	1849.32
660.95	1703.91
661.14	1718.25
661.33	1642.47
661.51	1728.49
661.70	1640.42
661.89	1779.68
662.08	1787.88
662.26	1658.85
662.45	1687.53
662.64	1763.30
662.83	1693.67
663.01	1681.38
663.20	1695.72
663.39	1796.07
663.58	1712.10
663.76	1734.63
663.95	1779.68
664.14	1689.57
664.32	1677.29
664.51	1705.96
664.70	1644.52
664.89	1755.11
665.07	1677.29
665.26	1820.64
665.45	1632.23
665.64	1814.50
665.82	1726.44
666.01	1755.11
666.20	1656.81
666.38	1734.63
666.57	1724.39
666.76	2205.66
666.95	4485.05
667.13	10346.34
667.32	15271.70
667.51	17657.59
667.69	19052.25
667.88	18048.75
668.07	12359.49
668.25	9693.04
668.44	8142.72
668.63	7436.17
668.81	6827.93
669.00	6358.94
669.19	5836.71
669.38	5107.63
669.56	4509.63
669.75	4009.92
669.94	3502.03
670.12	2969.55
670.31	2510.81
670.50	2402.27
670.68	2117.60
670.87	1871.84
671.06	1804.26
671.24	1900.52
671.43	1841.12
671.62	1783.78
671.80	1767.40
671.99	1656.81
672.18	1705.96
672.36	1740.77
672.55	1714.15
672.74	1734.63
672.92	1728.49
673.11	1900.52
673.29	1660.90
673.48	1708.01
673.67	1699.81
673.85	1843.17
674.04	1677.29
674.23	1740.77
674.41	1861.60
674.60	1689.57
674.79	1636.33
674.97	1699.81
675.16	1787.88
675.34	1775.59
675.53	1718.25
675.72	1777.64
675.90	1834.98
676.09	1728.49
676.28	1718.25
676.46	1736.68
676.65	1744.87
676.83	1660.90
677.02	1794.02
677.21	1800.16
677.39	1681.38
677.58	1665.00
677.77	1681.38
677.95	1665.00
678.14	1656.81
678.32	1712.10
678.51	1644.52
678.70	1877.99
678.88	1699.81
679.07	1695.72
679.25	1699.81
679.44	1665.00
679.63	1669.09
679.81	1697.77
680.00	1845.22
680.18	1746.92
680.37	1740.77
680.55	1650.66
680.74	1665.00
680.93	1605.61
681.11	1712.10
681.30	1775.59
681.48	1753.06
681.67	1712.10
681.85	1716.20
682.04	1738.73
682.23	1710.05
682.41	1761.25
682.60	1767.40
682.78	1689.57
682.97	1669.09
683.15	1738.73
683.34	1757.16
683.53	1773.54
683.71	1660.90
683.90	1812.45
684.08	1800.16
684.27	1703.91
684.45	1728.49
684.64	1783.78
684.82	1665.00
685.01	1763.30
685.19	1832.93
685.38	1781.73
685.57	1701.86
685.75	1665.00
685.94	1761.25
686.12	1609.70
686.31	1693.67
686.49	1787.88
686.68	1652.71
686.86	1757.16
687.05	1636.33
687.23	1812.45
687.42	1730.53
687.60	1705.96
687.79	1740.77
687.97	1849.32
688.16	1867.75
688.34	1763.30
688.53	1542.12
688.71	1757.16
688.90	1851.36
689.08	1742.82
689.27	1578.98
689.45	1783.78
689.64	1769.44
689.82	1751.01
690.01	1804.26
690.19	1726.44
690.38	1667.05
690.56	1783.78
690.75	1734.63
690.93	1697.77
691.12	1634.28
691.30	1746.92
691.49	1697.77
691.67	1675.24
691.86	1814.50
692.04	1761.25
692.23	1710.05
692.41	1757.16
692.60	1859.56
692.78	1751.01
692.97	1679.33
693.15	1712.10
693.34	1873.89
693.52	1751.01
693.71	1689.57
693.89	1708.01
694.08	1626.09
694.26	1720.29
694.44	1697.77
694.63	1730.53
694.81	1640.42
695.00	1683.43
695.18	1767.40
695.37	1779.68
695.55	1742.82
695.74	1722.34
695.92	1650.66
696.10	1748.97
696.29	1669.09
696.47	1665.00
696.66	1603.56
696.84	1656.81
697.03	1763.30
697.21	1789.92
697.40	2306.01
697.58	1800.16
697.76	1712.10
697.95	1669.09
698.13	1656.81
698.32	1734.63
698.50	1726.44
698.68	1751.01
698.87	1712.10
699.05	1748.97
699.24	1765.35
699.42	1773.54
699.61	1738.73
699.79	1710.05
699.97	1742.82
700.16	1675.24
700.34	1640.42
700.53	1665.00
700.71	1802.21
700.89	1820.64
701.08	1650.66
701.26	1689.57
701.45	2078.69
701.63	1660.90
701.81	1710.05
702.00	1705.96
702.18	1644.52
702.37	1632.23
702.55	1744.87
702.73	1669.09
702.92	1626.09
703.10	1763.30
703.28	1771.49
703.47	1667.05
703.65	1681.38
703.84	1710.05
704.02	1701.86
704.20	1800.16
704.39	1746.92
704.57	1765.35
704.75	1779.68
704.94	1787.88
705.12	1744.87
705.30	1849.32
705.49	2138.08
705.67	4390.84
705.86	9400.18
706.04	12523.33
706.22	14446.37
706.41	15202.07
706.59	13809.45
706.77	9613.17
706.96	7370.64
707.14	6473.63
707.32	6010.79
707.51	5601.19
707.69	4995.00
707.87	4257.73
708.06	3526.60
708.24	3020.75
708.42	2365.40
708.61	2256.86
708.79	1777.64
708.97	1857.51
709.16	1871.84
709.34	1755.11
709.52	1742.82
709.71	1751.01
709.89	1724.39
710.07	1691.62
710.26	1714.15
710.44	1806.31
710.62	1763.30
710.80	1728.49
710.99	1767.40
711.17	1765.35
711.35	1669.09
711.54	1667.05
711.72	1765.35
711.90	1724.39
712.09	1726.44
712.27	1632.23
712.45	1730.53
712.63	1730.53
712.82	1730.53
713.00	1712.10
713.18	1669.09
713.37	1746.92
713.55	1783.78
713.73	1787.88
713.91	1736.68
714.10	1679.33
714.28	1701.86
714.46	1753.06
714.65	1726.44
714.83	1699.81
715.01	1726.44
715.19	1746.92
715.38	1595.37
715.56	1769.44
715.74	1673.19
715.92	1685.48
716.11	1712.10
716.29	1581.03
716.47	1708.01
716.65	1837.03
716.84	1681.38
717.02	1712.10
717.20	1572.84
717.38	1691.62
717.57	1728.49
717.75	1791.97
717.93	1681.38
718.11	1773.54
718.30	1701.86
718.48	1650.66
718.66	1804.26
718.84	1722.34
719.03	1695.72
719.21	1669.09
719.39	1849.32
719.57	1714.15
719.75	1787.88
719.94	1699.81
720.12	1720.29
720.30	1699.81
720.48	1783.78
720.67	1718.25
720.85	1757.16
721.03	1691.62
721.21	1665.00
721.39	1843.17
721.58	1615.85
721.76	1703.91
721.94	1748.97
722.12	1755.11
722.30	1781.73
722.49	1626.09
722.67	1714.15
722.85	1683.43
723.03	1634.28
723.21	1679.33
723.40	1667.05
723.58	1755.11
723.76	1693.67
723.94	1812.45
724.12	1759.21
724.30	1779.68
724.49	1853.41
724.67	1671.14
724.85	1841.12
725.03	1595.37
725.21	1689.57
725.40	1740.77
725.58	1593.32
725.76	1708.01
725.94	1714.15
726.12	1658.85
726.30	1679.33
726.49	1697.77
726.67	1714.15
726.85	1724.39
727.03	1890.28
727.21	2140.13
727.39	2856.92
727.57	3688.39
727.76	4233.15
727.94	4462.52
728.12	4396.99
728.30	3782.60
728.48	2979.79
728.66	2820.05
728.84	2582.49
729.03	2285.53
729.21	2232.29
729.39	2017.25
729.57	1943.52
729.75	1873.89
729.93	1923.04
730.11	1759.21
730.30	1701.86
730.48	1705.96
730.66	1783.78
730.84	1669.09
731.02	1808.36
731.20	1607.66
731.38	1738.73
731.56	1693.67
731.74	1660.90
731.93	1722.34
732.11	1732.58
732.29	1703.91
732.47	1746.92
732.65	1714.15
732.83	1720.29
733.01	1757.16
733.19	1716.20
733.37	1783.78
733.56	1738.73
733.74	1619.94
733.92	1763.30
734.10	1705.96
734.28	1759.21
734.46	1570.79
734.64	1712.10
734.82	1691.62
735.00	1742.82
735.18	1599.46
735.36	1759.21
735.54	1705.96
735.73	1771.49
735.91	1779.68
736.09	1761.25
736.27	1681.38
736.45	1730.53
736.63	1564.65
736.81	1732.58
736.99	1767.40
737.17	1716.20
737.35	1683.43
737.53	1691.62
737.71	1728.49
737.89	1839.08
738.07	1701.86
738.25	1638.38
738.43	1710.05
738.61	1644.52
738.80	1665.00
738.98	1681.38
739.16	1667.05
739.34	1787.88
739.52	1812.45
739.70	1738.73
739.88	1751.01
740.06	1761.25
740.24	1599.46
740.42	1781.73
740.60	1626.09
740.78	1705.96
740.96	1599.46
741.14	1669.09
741.32	1644.52
741.50	1619.94
741.68	1841.12
741.86	1794.02
742.04	1705.96
742.22	1644.52
742.40	1787.88
742.58	1736.68
742.76	1675.24
742.94	1757.16
743.12	1634.28
743.30	1671.14
743.48	1755.11
743.66	1658.85
743.84	1775.59
744.02	1681.38
744.20	1681.38
744.38	1716.20
744.56	1714.15
744.74	1820.64
744.92	1718.25
745.10	1832.93
745.28	1751.01
745.46	1873.89
745.64	1740.77
745.82	1830.88
746.00	1748.97
746.18	1734.63
746.36	1595.37
746.54	1767.40
746.72	1689.57
746.90	1654.76
747.08	1740.77
747.26	1681.38
747.44	1736.68
747.62	1703.91
747.80	1742.82
747.98	1755.11
748.15	1675.24
748.33	1808.36
748.51	1675.24
748.69	1781.73
748.87	1628.14
749.05	1718.25
749.23	1730.53
749.41	1779.68
749.59	1718.25
749.77	1791.97
749.95	1665.00
750.13	1722.34
750.31	1660.90
750.49	1705.96
750.67	1765.35
750.85	1863.65
751.03	1679.33
751.20	1849.32
751.38	1665.00
751.56	1736.68
751.74	1689.57
751.92	1621.99
752.10	1611.75
752.28	1902.56
752.46	1691.62
752.64	1667.05
752.82	1705.96
753.00	1804.26
753.18	1757.16
753.35	1718.25
753.53	1691.62
753.71	1634.28
753.89	1720.29
754.07	1724.39
754.25	1771.49
754.43	1722.34
754.61	1593.32
754.79	1777.64
754.97	1705.96
755.14	1773.54
755.32	1628.14
755.50	1761.25
755.68	1685.48
755.86	1669.09
756.04	1730.53
756.22	1667.05
756.40	1837.03
756.57	1834.98
756.75	1755.11
756.93	1781.73
757.11	1783.78
757.29	1695.72
757.47	1601.51
757.65	1642.47
757.82	1624.04
758.00	1636.33
758.18	1656.81
758.36	1589.22
758.54	1882.08
758.72	1589.22
758.90	1771.49
759.07	1744.87
759.25	1685.48
759.43	1724.39
759.61	1736.68
759.79	2250.72
759.97	1775.59
760.15	1693.67
760.32	1658.85
760.50	1640.42
760.68	1871.84
760.86	1673.19
761.04	1734.63
761.22	1712.10
761.39	1681.38
761.57	1755.11
761.75	1763.30
761.93	1720.29
762.11	1699.81
762.28	1642.47
762.46	1652.71
762.64	1755.11
762.82	1603.56
763.00	1679.33
763.18	1759.21
763.35	1705.96
763.53	1769.44
763.71	1695.72
763.89	1742.82
764.07	1740.77
764.24	1689.57
764.42	1755.11
764.60	1699.81
764.78	1738.73
764.96	1736.68
765.13	1736.68
765.31	1638.38
765.49	1781.73
765.67	1609.70
765.84	1671.14
766.02	1679.33
766.20	1605.61
766.38	1724.39
766.56	1728.49
766.73	1787.88
766.91	1665.00
767.09	1710.05
767.27	1689.57
767.44	1703.91
767.62	1677.29
767.80	1746.92
767.98	1703.91
768.15	1716.20
768.33	1763.30
768.51	1722.34
768.69	1814.50
768.87	1757.16
769.04	1710.05
769.22	1867.75
769.40	1877.99
769.58	1908.71
769.75	1767.40
769.93	1785.83
770.11	1742.82
770.28	1712.10
770.46	1751.01
770.64	1683.43
770.82	1699.81
770.99	1724.39
771.17	1712.10
771.35	1728.49
771.53	1607.66
771.70	1662.95
771.88	1730.53
772.06	1763.30
772.23	1667.05
772.41	1744.87
772.59	1630.18
772.77	1626.09
772.94	1775.59
773.12	1783.78
773.30	1736.68
773.47	1728.49
773.65	1617.90
773.83	1773.54
774.01	1714.15
774.18	1576.94
774.36	1652.71
774.54	1683.43
774.71	1703.91
774.89	1587.18
775.07	1755.11
775.24	1648.61
775.42	1628.14
775.60	1757.16
775.78	1683.43
775.95	1656.81
776.13	1634.28
776.31	1558.50
776.48	1722.34
776.66	1714.15
776.84	1693.67
777.01	1697.77
777.19	1767.40
777.37	1677.29
777.54	1738.73
777.72	1837.03
777.90	1732.58
778.07	1640.42
778.25	1902.56
778.43	1710.05
778.60	1589.22
778.78	1748.97
778.96	1789.92
779.13	1624.04
779.31	1724.39
779.49	1769.44
779.66	1720.29
779.84	1722.34
780.01	1693.67
780.19	1656.81
780.37	1826.79
780.54	1808.36
780.72	1671.14
780.90	1736.68
781.07	1773.54
781.25	1687.53
781.43	1683.43
781.60	1718.25
781.78	1818.60
781.95	1714.15
782.13	1673.19
782.31	1757.16
782.48	1611.75
782.66	1652.71
782.83	1828.84
783.01	1740.77
783.19	1781.73
783.36	1683.43
783.54	1640.42
783.72	1730.53
783.89	1665.00
784.07	1705.96
784.24	1751.01
784.42	1847.27
784.60	1732.58
784.77	1777.64
784.95	1562.60
785.12	1699.81
785.30	1720.29
785.47	1705.96
785.65	1628.14
785.83	1730.53
786.00	1699.81
786.18	1730.53
786.35	1685.48
786.53	1638.38
786.71	1810.40
786.88	1701.86
787.06	1714.15
787.23	1646.57
787.41	1679.33
787.58	1726.44
787.76	1712.10
787.94	1814.50
788.11	1712.10
788.29	1675.24
788.46	1722.34
788.64	1697.77
788.81	1755.11
788.99	1712.10
789.16	1675.24
789.34	1705.96
789.52	1683.43
789.69	1650.66
789.87	1632.23
790.04	1693.67
790.22	1699.81
790.39	1820.64
790.57	1695.72
790.74	1644.52
790.92	1632.23
791.09	1630.18
791.27	1669.09
791.44	1761.25
791.62	1740.77
791.79	1802.21
791.97	1681.38
792.15	1888.23
792.32	1769.44
792.50	1785.83
792.67	1769.44
792.85	1757.16
793.02	1673.19
793.20	1728.49
793.37	1619.94
793.55	1763.30
793.72	1714.15
793.90	1697.77
794.07	1677.29
794.25	1677.29
794.42	1753.06
794.60	1671.14
794.77	1748.97
794.95	1798.12
795.12	1761.25
795.30	1701.86
795.47	1601.51
795.65	1849.32
795.82	1710.05
796.00	1728.49
796.17	1740.77
796.34	1714.15
796.52	1791.97
796.69	1765.35
796.87	1742.82
797.04	1746.92
797.22	1699.81
797.39	1744.87
797.57	1716.20
797.74	1759.21
797.92	1724.39
798.09	1644.52
798.27	1761.25
798.44	1738.73
798.62	1624.04
798.79	1738.73
798.96	1826.79
799.14	1726.44
799.31	1789.92
799.49	1703.91
799.66	1761.25
799.84	1734.63
800.01	1632.23
800.19	1748.97
800.36	1538.02
800.53	1699.81
800.71	1685.48
800.88	1787.88
801.06	1646.57
801.23	1660.90
801.41	1705.96
801.58	1681.38
801.75	1746.92
801.93	1730.53
802.10	1748.97
802.28	1648.61
802.45	1769.44
802.63	1742.82
802.80	1824.74
802.97	1644.52
803.15	1621.99
803.32	1632.23
803.50	1708.01
803.67	1687.53
803.84	1630.18
804.02	1763.30
804.19	1720.29
804.37	1624.04
804.54	1628.14
804.71	1675.24
804.89	1746.92
805.06	1619.94
805.24	1640.42
805.41	1665.00
805.58	1705.96
805.76	1828.84
805.93	1679.33
806.10	1757.16
806.28	1724.39
806.45	1697.77
806.63	1736.68
806.80	1742.82
806.97	1724.39
807.15	1691.62
807.32	1701.86
807.49	1697.77
807.67	1677.29
807.84	1703.91
808.01	1607.66
808.19	1818.60
808.36	1830.88
808.54	1574.89
808.71	1642.47
808.88	1708.01
809.06	1771.49
809.23	1855.46
809.40	1673.19
809.58	1787.88
809.75	1683.43
809.92	1695.72
810.10	1757.16
810.27	1796.07
810.44	1767.40
810.62	1810.40
810.79	1746.92
810.96	1679.33
811.14	1660.90
811.31	1722.34
811.48	1689.57
811.66	1734.63
811.83	1751.01
812.00	1775.59
812.18	1796.07
812.35	1865.70
812.52	1720.29
812.69	1738.73
812.87	1712.10
813.04	1609.70
813.21	1730.53
813.39	1714.15
813.56	1599.46
813.73	1734.63
813.91	1611.75
814.08	1667.05
814.25	1665.00
814.42	1679.33
814.60	1662.95
814.77	1712.10
814.94	1728.49
815.12	1761.25
815.29	1785.83
815.46	1718.25
815.63	1742.82
815.81	1708.01
815.98	1703.91
816.15	1705.96
816.33	1714.15
816.50	1714.15
816.67	1740.77
816.84	1636.33
817.02	1667.05
817.19	1734.63
817.36	1679.33
817.53	1689.57
817.71	1701.86
817.88	1708.01
818.05	1693.67
818.22	1617.90
818.40	1820.64
818.57	1701.86
818.74	1695.72
818.91	1636.33
819.09	1701.86
819.26	1755.11
819.43	1710.05
819.60	1703.91
819.78	1728.49
819.95	1794.02
820.12	1681.38
820.29	1828.84
820.47	1757.16
820.64	1708.01
820.81	1683.43
820.98	1640.42
821.15	1703.91
821.33	1769.44
821.50	1624.04
821.67	1699.81
821.84	1718.25
822.02	1720.29
822.19	1746.92
822.36	1720.29
822.53	1689.57
822.70	1652.71
822.88	1677.29
823.05	1816.55
823.22	1744.87
823.39	1708.01
823.56	1667.05
823.74	1781.73
823.91	1673.19
824.08	1689.57
824.25	1603.56
824.42	1779.68
824.60	1683.43
824.77	1789.92
824.94	1755.11
825.11	1888.23
825.28	1611.75
825.45	1712.10
825.63	1738.73
825.80	1691.62
825.97	1714.15
826.14	1687.53
826.31	1681.38
826.48	1689.57
826.66	1689.57
826.83	1712.10
827.00	1691.62
827.17	1617.90
827.34	1652.71
827.51	1699.81
827.69	1644.52
827.86	1621.99
828.03	1658.85
828.20	1683.43
828.37	1656.81
828.54	1722.34
828.71	1689.57
828.89	1837.03
829.06	1685.48
829.23	1771.49
829.40	1701.86
829.57	1693.67
829.74	1722.34
829.91	1699.81
830.09	1597.42
830.26	1648.61
830.43	1820.64
830.60	1648.61
830.77	1722.34
830.94	1759.21
831.11	1732.58
831.28	1603.56
831.46	1779.68
831.63	1714.15
831.80	1734.63
831.97	1646.57
832.14	1665.00
832.31	1775.59
832.48	1755.11
832.65	1806.31
832.82	1697.77
832.99	1787.88
833.17	1677.29
833.34	1820.64
833.51	1669.09
833.68	1609.70
833.85	1736.68
834.02	1685.48
834.19	1671.14
834.36	1656.81
834.53	1677.29
834.70	1759.21
834.87	1697.77
835.04	1800.16
835.22	1695.72
835.39	1689.57
835.56	1611.75
835.73	1699.81
835.90	1791.97
836.07	1560.55
836.24	1755.11
836.41	1671.14
836.58	1662.95
836.75	1757.16
836.92	1621.99
837.09	1767.40
837.26	1746.92
837.43	1685.48
837.60	1746.92
837.77	1644.52
837.94	1693.67
838.12	1732.58
838.29	1720.29
838.46	1566.70
838.63	1630.18
838.80	1818.60
838.97	1728.49
839.14	1705.96
839.31	1732.58
839.48	1779.68
839.65	1708.01
839.82	1646.57
839.99	1777.64
840.16	1701.86
840.33	1712.10
840.50	1722.34
840.67	1691.62
840.84	1550.31
841.01	1773.54
841.18	1669.09
841.35	1656.81
841.52	1695.72
841.69	1880.04
841.86	1748.97
842.03	1673.19
842.20	1740.77
842.37	1705.96
842.54	1687.53
842.71	1699.81
842.88	1609.70
843.05	1705.96
843.22	1718.25
843.39	1757.16
843.56	1613.80
843.73	1726.44
843.90	1744.87
844.07	1619.94
844.24	1689.57
844.41	1816.55
844.58	1724.39
844.75	1685.48
844.92	1724.39
845.09	1740.77
845.26	1636.33
845.43	1689.57
845.60	1716.20
845.77	1800.16
845.94	1665.00
846.10	1744.87
846.27	1615.85
846.44	1621.99
846.61	1667.05
846.78	1777.64
846.95	1769.44
847.12	1695.72
847.29	1703.91
847.46	1675.24
847.63	1722.34
847.80	1671.14
847.97	1724.39
848.14	1834.98
848.31	1701.86
848.48	1587.18
848.65	1757.16
848.82	1705.96
848.98	1912.80
849.15	1726.44
849.32	1818.60
849.49	1720.29
849.66	1693.67
849.83	1640.42
850.00	1603.56
850.17	1755.11
850.34	1679.33
850.51	1648.61
850.68	1669.09
850.85	1869.80
851.01	1636.33
851.18	1777.64
851.35	1701.86
851.52	1746.92
851.69	1751.01
851.86	1525.74
852.03	1757.16
852.20	1812.45
852.37	1746.92
852.53	1665.00
852.70	1642.47
852.87	1703.91
853.04	1687.53
853.21	1669.09
853.38	1736.68
853.55	1742.82
853.72	1771.49
853.89	1703.91
854.05	1658.85
854.22	1617.90
854.39	1705.96
854.56	1746.92
854.73	1765.35
854.90	1679.33
855.07	1660.90
855.23	1667.05
855.40	1605.61
855.57	1708.01
855.74	1609.70
855.91	1902.56
856.08	1695.72
856.25	1628.14
856.41	1642.47
856.58	1742.82
856.75	1763.30
856.92	1583.08
857.09	1732.58
857.26	1638.38
857.42	1732.58
857.59	1701.86
857.76	1685.48
857.93	1722.34
858.10	1699.81
858.27	1646.57
858.43	1691.62
858.60	1650.66
858.77	1665.00
858.94	1660.90
859.11	1751.01
859.27	1734.63
859.44	1644.52
859.61	1869.80
859.78	1699.81
859.95	1751.01
860.12	1624.04
860.28	1837.03
860.45	1775.59
860.62	1572.84
860.79	1720.29
860.95	1603.56
861.12	1656.81
861.29	1652.71
861.46	1689.57
861.63	1767.40
861.79	1755.11
861.96	1654.76
862.13	1740.77
862.30	1798.12
862.47	1683.43
862.63	1671.14
862.80	1804.26
862.97	1714.15
863.14	1751.01
863.30	1714.15
863.47	1646.57
863.64	1728.49
863.81	1724.39
863.97	1656.81
864.14	1658.85
864.31	1712.10
864.48	1753.06
864.65	1697.77
864.81	1718.25
864.98	1683.43
865.15	1791.97
865.32	1800.16
865.48	1726.44
865.65	1708.01
865.82	1740.77
865.98	1763.30
866.15	1779.68
866.32	1724.39
866.49	1705.96
866.65	1775.59
866.82	1632.23
866.99	1726.44
867.16	1681.38
867.32	1650.66
867.49	1714.15
867.66	1699.81
867.83	1730.53
867.99	1607.66
868.16	1697.77
868.33	1671.14
868.49	1722.34
868.66	1667.05
868.83	1847.27
868.99	1718.25
869.16	1691.62
869.33	1755.11
869.50	1714.15
869.66	1677.29
869.83	1689.57
870.00	1636.33
870.16	1783.78
870.33	1705.96
870.50	1763.30
870.66	1679.33
870.83	1900.52
871.00	1681.38
871.17	1689.57
871.33	1716.20
871.50	1689.57
871.67	1603.56
871.83	1601.51
872.00	1753.06
872.17	1726.44
872.33	1787.88
872.50	1771.49
872.67	1638.38
872.83	1718.25
873.00	1703.91
873.17	1722.34
873.33	1791.97
873.50	1775.59
873.67	1677.29
873.83	1656.81
874.00	1791.97
874.16	1826.79
874.33	1705.96
874.50	1619.94
874.66	1615.85
874.83	1773.54
875.00	1783.78
875.16	1683.43
875.33	1761.25
875.50	1538.02
875.66	1753.06
875.83	1718.25
875.99	1708.01
876.16	1732.58
876.33	1683.43
876.49	1726.44
876.66	1765.35
876.83	1722.34
876.99	1652.71
877.16	1652.71
877.32	1665.00
877.49	1687.53
877.66	1718.25
877.82	1767.40
877.99	1695.72
878.15	1767.40
878.32	1685.48
878.49	1751.01
878.65	1695.72
878.82	1746.92
878.98	1656.81
879.15	1765.35
879.32	1806.31
879.48	1757.16
879.65	1679.33
879.81	1613.80
879.98	1640.42
880.15	1681.38
880.31	1648.61
880.48	1669.09
880.64	1722.34
880.81	1736.68
880.97	1785.83
881.14	1746.92
881.31	1746.92
881.47	1839.08
881.64	1705.96
881.80	1634.28
881.97	1728.49
882.13	1691.62
882.30	1662.95
882.47	1705.96
882.63	1677.29
882.80	1708.01
882.96	1656.81
883.13	1703.91
883.29	1650.66
883.46	1673.19
883.62	1759.21
883.79	1771.49
883.95	1722.34
884.12	1730.53
884.29	1796.07
884.45	1732.58
884.62	1777.64
884.78	1599.46
884.95	1802.21
885.11	1677.29
885.28	1740.77
885.44	1654.76
885.61	1683.43
885.77	1798.12
885.94	1687.53
886.10	1660.90
886.27	1742.82
886.43	1804.26
886.60	1748.97
886.76	1609.70
886.93	1640.42
887.09	1722.34
887.26	1632.23
887.42	1677.29
887.59	1806.31
887.75	1837.03
887.92	1796.07
888.08	1802.21
888.25	1730.53
888.41	1818.60
888.58	1716.20
888.74	1593.32
888.91	1644.52
>>>>>End Processed Spectral Data<<<<<
