SpectraSuite Data File
++++++++++++++++++++++++++++++++++++
Date: Mon Jun 06 13:41:17 CEST 2016
User: root
Dark Spectrum Present: No
Reference Spectrum Present: No
Number of Sampled Component Spectra: 1
Spectrometers: USB4C02835
Integration Time (usec): 100000 (USB4C02835)
Spectra Averaged: 1 (USB4C02835)
Boxcar Smoothing: 0 (USB4C02835)
Correct for Electrical Dark: No (USB4C02835)
Strobe/Lamp Enabled: No (USB4C02835)
Correct for Detector Non-linearity: No (USB4C02835)
Correct for Stray Light: No (USB4C02835)
Number of Pixels in Processed Spectrum: 3648
>>>>>Begin Processed Spectral Data<<<<<
177.47	1503.21
177.69	1503.21
177.91	1503.21
178.13	1447.91
178.36	1460.20
178.58	1732.58
178.80	1816.55
179.02	1613.80
179.24	1617.90
179.46	1732.58
179.68	1732.58
179.90	1699.81
180.13	1677.29
180.35	1699.81
180.57	1677.29
180.79	1718.25
181.01	1726.44
181.23	1794.02
181.45	1783.78
181.67	1662.95
181.90	1667.05
182.12	1626.09
182.34	1599.46
182.56	1738.73
182.78	1681.38
183.00	1705.96
183.22	1679.33
183.44	1605.61
183.66	1812.45
183.89	1773.54
184.11	1693.67
184.33	1705.96
184.55	1781.73
184.77	1697.77
184.99	1726.44
185.21	1665.00
185.43	1783.78
185.65	1671.14
185.87	1644.52
186.10	1882.08
186.32	1837.03
186.54	1738.73
186.76	1755.11
186.98	1834.98
187.20	1705.96
187.42	1568.74
187.64	1701.86
187.86	1734.63
188.08	1732.58
188.30	1781.73
188.52	1667.05
188.75	1748.97
188.97	1724.39
189.19	1665.00
189.41	1703.91
189.63	1742.82
189.85	1632.23
190.07	1671.14
190.29	1617.90
190.51	1744.87
190.73	1613.80
190.95	1742.82
191.17	1667.05
191.39	1578.98
191.61	1740.77
191.84	1695.72
192.06	1787.88
192.28	1628.14
192.50	1961.95
192.72	1728.49
192.94	1710.05
193.16	1716.20
193.38	1673.19
193.60	1634.28
193.82	1677.29
194.04	1732.58
194.26	1699.81
194.48	1648.61
194.70	1658.85
194.92	1656.81
195.14	1708.01
195.36	1689.57
195.58	1724.39
195.80	1691.62
196.02	1634.28
196.24	1652.71
196.46	1761.25
196.69	1605.61
196.91	1773.54
197.13	1714.15
197.35	1632.23
197.57	1791.97
197.79	1714.15
198.01	1746.92
198.23	1716.20
198.45	1771.49
198.67	1673.19
198.89	1697.77
199.11	1757.16
199.33	1654.76
199.55	1626.09
199.77	1607.66
199.99	1830.88
200.21	1628.14
200.43	1771.49
200.65	1611.75
200.87	1581.03
201.09	1679.33
201.31	1716.20
201.53	1761.25
201.75	1669.09
201.97	1757.16
202.19	1744.87
202.41	1701.86
202.63	1804.26
202.85	1662.95
203.07	1679.33
203.29	1701.86
203.51	1726.44
203.73	1705.96
203.95	1830.88
204.17	1724.39
204.39	1742.82
204.61	1699.81
204.83	1603.56
205.05	1720.29
205.27	1730.53
205.49	1875.94
205.71	1644.52
205.93	1624.04
206.15	1572.84
206.37	1718.25
206.59	1656.81
206.81	1644.52
207.03	1640.42
207.25	1611.75
207.47	1757.16
207.69	1712.10
207.91	1794.02
208.13	1759.21
208.34	1683.43
208.56	1652.71
208.78	1765.35
209.00	1667.05
209.22	1722.34
209.44	1748.97
209.66	1603.56
209.88	1740.77
210.10	1677.29
210.32	1697.77
210.54	1701.86
210.76	1665.00
210.98	1730.53
211.20	1669.09
211.42	1667.05
211.64	1701.86
211.86	1683.43
212.08	1697.77
212.30	1701.86
212.52	1689.57
212.74	1681.38
212.96	1736.68
213.17	1687.53
213.39	1751.01
213.61	1755.11
213.83	1656.81
214.05	1630.18
214.27	1787.88
214.49	1615.85
214.71	1697.77
214.93	1796.07
215.15	1683.43
215.37	1751.01
215.59	1595.37
215.81	1736.68
216.03	1724.39
216.24	1734.63
216.46	1681.38
216.68	1697.77
216.90	1732.58
217.12	1751.01
217.34	1613.80
217.56	1703.91
217.78	1740.77
218.00	1658.85
218.22	1728.49
218.44	1730.53
218.66	1656.81
218.87	1798.12
219.09	1691.62
219.31	1742.82
219.53	1701.86
219.75	1722.34
219.97	1624.04
220.19	1787.88
220.41	1628.14
220.63	1757.16
220.85	1673.19
221.06	1656.81
221.28	1834.98
221.50	1751.01
221.72	1724.39
221.94	1773.54
222.16	1777.64
222.38	1808.36
222.60	1736.68
222.82	1746.92
223.03	1775.59
223.25	1591.27
223.47	1740.77
223.69	1849.32
223.91	1691.62
224.13	1691.62
224.35	1687.53
224.57	1697.77
224.78	1697.77
225.00	1660.90
225.22	1740.77
225.44	1615.85
225.66	1710.05
225.88	1630.18
226.10	1746.92
226.32	1765.35
226.53	1816.55
226.75	1601.51
226.97	1693.67
227.19	1689.57
227.41	1693.67
227.63	1675.24
227.85	1601.51
228.06	1656.81
228.28	1701.86
228.50	1673.19
228.72	1554.41
228.94	1619.94
229.16	1607.66
229.37	1658.85
229.59	1677.29
229.81	1783.78
230.03	1697.77
230.25	1621.99
230.47	1671.14
230.69	1638.38
230.90	1791.97
231.12	1681.38
231.34	1621.99
231.56	1744.87
231.78	1636.33
232.00	1638.38
232.21	1691.62
232.43	1746.92
232.65	1632.23
232.87	1759.21
233.09	1677.29
233.30	1669.09
233.52	1701.86
233.74	1712.10
233.96	1677.29
234.18	1701.86
234.40	1679.33
234.61	1791.97
234.83	1660.90
235.05	1656.81
235.27	1822.69
235.49	1765.35
235.70	1775.59
235.92	1781.73
236.14	1677.29
236.36	1820.64
236.58	1617.90
236.79	1767.40
237.01	1697.77
237.23	1718.25
237.45	1791.97
237.67	1681.38
237.88	1693.67
238.10	1802.21
238.32	1619.94
238.54	1738.73
238.76	1683.43
238.97	1705.96
239.19	1658.85
239.41	1730.53
239.63	1767.40
239.85	1708.01
240.06	1652.71
240.28	1652.71
240.50	1751.01
240.72	1718.25
240.93	1746.92
241.15	1757.16
241.37	1650.66
241.59	1800.16
241.81	1652.71
242.02	1677.29
242.24	1689.57
242.46	1634.28
242.68	1648.61
242.89	1720.29
243.11	1751.01
243.33	1683.43
243.55	1703.91
243.76	1628.14
243.98	1550.31
244.20	1732.58
244.42	1675.24
244.64	1665.00
244.85	1652.71
245.07	1693.67
245.29	1773.54
245.51	1742.82
245.72	1714.15
245.94	1800.16
246.16	1722.34
246.38	1742.82
246.59	1673.19
246.81	1691.62
247.03	1673.19
247.24	1624.04
247.46	1693.67
247.68	1650.66
247.90	1681.38
248.11	1708.01
248.33	1662.95
248.55	1796.07
248.77	1693.67
248.98	1783.78
249.20	1802.21
249.42	1679.33
249.64	1744.87
249.85	1681.38
250.07	1744.87
250.29	1699.81
250.50	1740.77
250.72	1699.81
250.94	1681.38
251.16	1828.84
251.37	1755.11
251.59	1730.53
251.81	1724.39
252.02	1789.92
252.24	1636.33
252.46	1650.66
252.68	1665.00
252.89	1628.14
253.11	1595.37
253.33	1787.88
253.54	1800.16
253.76	1662.95
253.98	1683.43
254.20	1675.24
254.41	1656.81
254.63	1658.85
254.85	1593.32
255.06	1662.95
255.28	1767.40
255.50	1710.05
255.71	1703.91
255.93	1630.18
256.15	1685.48
256.36	1685.48
256.58	1726.44
256.80	1765.35
257.02	1730.53
257.23	1685.48
257.45	1660.90
257.67	1763.30
257.88	1683.43
258.10	1755.11
258.32	1742.82
258.53	1726.44
258.75	1853.41
258.97	1665.00
259.18	1714.15
259.40	1689.57
259.62	1832.93
259.83	1775.59
260.05	1798.12
260.27	1935.33
260.48	1742.82
260.70	1585.13
260.92	1728.49
261.13	1804.26
261.35	1802.21
261.57	1695.72
261.78	1683.43
262.00	1658.85
262.22	1763.30
262.43	1648.61
262.65	1626.09
262.86	1744.87
263.08	1783.78
263.30	1681.38
263.51	1654.76
263.73	1716.20
263.95	1718.25
264.16	1652.71
264.38	1720.29
264.60	1787.88
264.81	1708.01
265.03	1724.39
265.25	1724.39
265.46	1708.01
265.68	1810.40
265.89	1736.68
266.11	1683.43
266.33	1710.05
266.54	1798.12
266.76	1804.26
266.98	1732.58
267.19	1822.69
267.41	1734.63
267.62	1736.68
267.84	1632.23
268.06	1695.72
268.27	1685.48
268.49	1769.44
268.70	1714.15
268.92	1763.30
269.14	1677.29
269.35	1615.85
269.57	1705.96
269.79	1714.15
270.00	1658.85
270.22	1755.11
270.43	1642.47
270.65	1662.95
270.87	1712.10
271.08	1710.05
271.30	1656.81
271.51	1673.19
271.73	1738.73
271.95	1771.49
272.16	1751.01
272.38	1708.01
272.59	1734.63
272.81	1683.43
273.02	1691.62
273.24	1699.81
273.46	1789.92
273.67	1671.14
273.89	1673.19
274.10	1744.87
274.32	1839.08
274.54	1669.09
274.75	1652.71
274.97	1736.68
275.18	1781.73
275.40	1712.10
275.61	1681.38
275.83	1650.66
276.05	1578.98
276.26	1671.14
276.48	1822.69
276.69	1658.85
276.91	1665.00
277.12	1765.35
277.34	1695.72
277.55	1765.35
277.77	1679.33
277.99	1628.14
278.20	1689.57
278.42	1718.25
278.63	1689.57
278.85	1675.24
279.06	1650.66
279.28	1789.92
279.49	1697.77
279.71	1765.35
279.93	1691.62
280.14	1763.30
280.36	1658.85
280.57	1714.15
280.79	1742.82
281.00	1640.42
281.22	1665.00
281.43	1751.01
281.65	1597.42
281.86	1687.53
282.08	1718.25
282.29	1800.16
282.51	1621.99
282.73	1611.75
282.94	1669.09
283.16	1724.39
283.37	1812.45
283.59	1697.77
283.80	1740.77
284.02	1742.82
284.23	1716.20
284.45	1607.66
284.66	1683.43
284.88	1675.24
285.09	1746.92
285.31	1744.87
285.52	1693.67
285.74	1572.84
285.95	1714.15
286.17	1763.30
286.38	1644.52
286.60	1615.85
286.81	1638.38
287.03	1677.29
287.24	1640.42
287.46	1734.63
287.67	1669.09
287.89	1882.08
288.10	1716.20
288.32	1722.34
288.53	1806.31
288.75	1636.33
288.96	1730.53
289.18	1734.63
289.39	1671.14
289.61	1732.58
289.82	1826.79
290.04	1787.88
290.25	1652.71
290.47	1658.85
290.68	1693.67
290.90	1693.67
291.11	1679.33
291.33	1716.20
291.54	1669.09
291.76	1630.18
291.97	1679.33
292.18	1734.63
292.40	1615.85
292.61	1718.25
292.83	1814.50
293.04	1763.30
293.26	1769.44
293.47	1736.68
293.69	1652.71
293.90	1689.57
294.12	1710.05
294.33	1714.15
294.55	1740.77
294.76	1763.30
294.97	1730.53
295.19	1777.64
295.40	1652.71
295.62	1617.90
295.83	1732.58
296.05	1658.85
296.26	1757.16
296.48	1650.66
296.69	1738.73
296.90	1701.86
297.12	1744.87
297.33	1746.92
297.55	1671.14
297.76	1701.86
297.98	1759.21
298.19	1742.82
298.41	1726.44
298.62	1697.77
298.83	1875.94
299.05	1675.24
299.26	1652.71
299.48	1718.25
299.69	1726.44
299.90	1757.16
300.12	1662.95
300.33	1748.97
300.55	1742.82
300.76	1708.01
300.98	1695.72
301.19	1701.86
301.40	1685.48
301.62	1718.25
301.83	1746.92
302.05	1671.14
302.26	1722.34
302.47	1636.33
302.69	1583.08
302.90	1644.52
303.12	1566.70
303.33	1781.73
303.54	1738.73
303.76	1681.38
303.97	1697.77
304.19	1787.88
304.40	1648.61
304.61	1679.33
304.83	1847.27
305.04	1728.49
305.26	1675.24
305.47	1671.14
305.68	1679.33
305.90	1628.14
306.11	1791.97
306.33	1746.92
306.54	1724.39
306.75	1644.52
306.97	1617.90
307.18	1744.87
307.39	1699.81
307.61	1787.88
307.82	1652.71
308.04	1656.81
308.25	1705.96
308.46	1695.72
308.68	1746.92
308.89	1726.44
309.10	1710.05
309.32	1732.58
309.53	1732.58
309.74	1710.05
309.96	1626.09
310.17	1759.21
310.39	1646.57
310.60	1732.58
310.81	1646.57
311.03	1632.23
311.24	1755.11
311.45	1726.44
311.67	1718.25
311.88	1679.33
312.09	1628.14
312.31	1638.38
312.52	1728.49
312.73	1755.11
312.95	1624.04
313.16	1621.99
313.37	1744.87
313.59	1726.44
313.80	1656.81
314.01	1753.06
314.23	1673.19
314.44	1667.05
314.65	1673.19
314.87	1734.63
315.08	1619.94
315.29	1640.42
315.51	1652.71
315.72	1632.23
315.93	1722.34
316.15	1732.58
316.36	1675.24
316.57	1701.86
316.79	1822.69
317.00	1599.46
317.21	1730.53
317.43	1642.47
317.64	1681.38
317.85	1767.40
318.07	1624.04
318.28	1746.92
318.49	1796.07
318.70	1890.28
318.92	1734.63
319.13	1771.49
319.34	1898.47
319.56	1738.73
319.77	1804.26
319.98	1693.67
320.20	1738.73
320.41	1722.34
320.62	1861.60
320.83	1646.57
321.05	1847.27
321.26	1703.91
321.47	1755.11
321.69	1791.97
321.90	1689.57
322.11	1683.43
322.32	1667.05
322.54	1767.40
322.75	1697.77
322.96	1796.07
323.18	1572.84
323.39	1589.22
323.60	1613.80
323.81	1753.06
324.03	1648.61
324.24	1699.81
324.45	1658.85
324.66	1722.34
324.88	1740.77
325.09	1748.97
325.30	1710.05
325.52	1708.01
325.73	1689.57
325.94	1658.85
326.15	1652.71
326.37	1669.09
326.58	1654.76
326.79	1742.82
327.00	1560.55
327.22	1767.40
327.43	1703.91
327.64	1712.10
327.85	1697.77
328.07	1669.09
328.28	1808.36
328.49	1630.18
328.70	1734.63
328.92	1669.09
329.13	1675.24
329.34	1740.77
329.55	1837.03
329.76	1779.68
329.98	1705.96
330.19	1771.49
330.40	1740.77
330.61	1787.88
330.83	1693.67
331.04	1626.09
331.25	1705.96
331.46	1726.44
331.68	1669.09
331.89	1724.39
332.10	1658.85
332.31	1568.74
332.52	1722.34
332.74	1748.97
332.95	1542.12
333.16	1681.38
333.37	1740.77
333.58	1732.58
333.80	1726.44
334.01	1652.71
334.22	1642.47
334.43	1726.44
334.64	1734.63
334.86	1624.04
335.07	1634.28
335.28	1804.26
335.49	1615.85
335.70	1779.68
335.92	1761.25
336.13	1761.25
336.34	1640.42
336.55	1714.15
336.76	1732.58
336.98	1673.19
337.19	1722.34
337.40	1824.74
337.61	1865.70
337.82	1662.95
338.04	1759.21
338.25	1576.94
338.46	1720.29
338.67	1734.63
338.88	1642.47
339.09	1624.04
339.31	1562.60
339.52	1667.05
339.73	1603.56
339.94	1689.57
340.15	1650.66
340.36	1656.81
340.58	1697.77
340.79	1613.80
341.00	1781.73
341.21	1648.61
341.42	1857.51
341.63	1728.49
341.85	1757.16
342.06	1712.10
342.27	1660.90
342.48	1734.63
342.69	1689.57
342.90	1701.86
343.12	1691.62
343.33	1673.19
343.54	1683.43
343.75	1787.88
343.96	1710.05
344.17	1652.71
344.38	1681.38
344.60	1714.15
344.81	1677.29
345.02	1708.01
345.23	1726.44
345.44	1759.21
345.65	1732.58
345.86	1701.86
346.07	1630.18
346.29	1609.70
346.50	1697.77
346.71	1732.58
346.92	1789.92
347.13	1820.64
347.34	1708.01
347.55	1755.11
347.76	1681.38
347.98	1677.29
348.19	1685.48
348.40	1730.53
348.61	1626.09
348.82	1765.35
349.03	1658.85
349.24	1617.90
349.45	1775.59
349.66	1591.27
349.88	1730.53
350.09	1613.80
350.30	1804.26
350.51	1712.10
350.72	1689.57
350.93	1726.44
351.14	1703.91
351.35	1757.16
351.56	1658.85
351.77	1669.09
351.99	1722.34
352.20	1751.01
352.41	1736.68
352.62	1673.19
352.83	1701.86
353.04	1662.95
353.25	1736.68
353.46	1779.68
353.67	1814.50
353.88	1603.56
354.09	1781.73
354.30	1746.92
354.52	1716.20
354.73	1710.05
354.94	1667.05
355.15	1716.20
355.36	1710.05
355.57	1730.53
355.78	1705.96
355.99	1734.63
356.20	1648.61
356.41	1796.07
356.62	1740.77
356.83	1730.53
357.04	1787.88
357.25	1662.95
357.46	1621.99
357.68	1675.24
357.89	1615.85
358.10	1652.71
358.31	1701.86
358.52	1683.43
358.73	1607.66
358.94	1679.33
359.15	1644.52
359.36	1740.77
359.57	1621.99
359.78	1658.85
359.99	1652.71
360.20	1624.04
360.41	1722.34
360.62	1753.06
360.83	1675.24
361.04	1705.96
361.25	1728.49
361.46	1841.12
361.67	1742.82
361.88	1744.87
362.09	1759.21
362.30	1736.68
362.51	1662.95
362.72	1701.86
362.93	1656.81
363.14	1703.91
363.35	1681.38
363.56	1675.24
363.78	1734.63
363.99	1785.83
364.20	1746.92
364.41	1736.68
364.62	1851.36
364.83	1710.05
365.04	1671.14
365.25	1665.00
365.46	1869.80
365.67	1599.46
365.88	1587.18
366.09	1675.24
366.30	1652.71
366.51	1724.39
366.72	1646.57
366.93	1701.86
367.14	1722.34
367.35	1796.07
367.56	1701.86
367.77	1804.26
367.98	1656.81
368.18	1705.96
368.39	1683.43
368.60	1667.05
368.81	1726.44
369.02	1701.86
369.23	1687.53
369.44	1578.98
369.65	1671.14
369.86	1744.87
370.07	1742.82
370.28	1648.61
370.49	1718.25
370.70	1708.01
370.91	1703.91
371.12	1607.66
371.33	1783.78
371.54	1634.28
371.75	1828.84
371.96	1597.42
372.17	1718.25
372.38	1732.58
372.59	1710.05
372.80	1650.66
373.01	1681.38
373.22	1671.14
373.43	1755.11
373.64	1701.86
373.85	1781.73
374.06	1783.78
374.26	1730.53
374.47	1665.00
374.68	1734.63
374.89	1720.29
375.10	1634.28
375.31	1767.40
375.52	1716.20
375.73	1736.68
375.94	1648.61
376.15	1767.40
376.36	1689.57
376.57	1591.27
376.78	1658.85
376.99	1691.62
377.20	1705.96
377.40	1652.71
377.61	1765.35
377.82	1675.24
378.03	1738.73
378.24	1722.34
378.45	1718.25
378.66	1769.44
378.87	1667.05
379.08	1689.57
379.29	1685.48
379.50	1800.16
379.71	1648.61
379.91	1720.29
380.12	1693.67
380.33	1722.34
380.54	1687.53
380.75	1650.66
380.96	1681.38
381.17	1691.62
381.38	1669.09
381.59	1796.07
381.80	1642.47
382.00	1839.08
382.21	1705.96
382.42	1767.40
382.63	1927.14
382.84	1763.30
383.05	1822.69
383.26	1759.21
383.47	1695.72
383.68	1814.50
383.88	1636.33
384.09	1751.01
384.30	1753.06
384.51	1720.29
384.72	1646.57
384.93	1681.38
385.14	1693.67
385.35	1720.29
385.55	1607.66
385.76	1708.01
385.97	1724.39
386.18	1724.39
386.39	1646.57
386.60	1710.05
386.81	1716.20
387.02	1628.14
387.22	1591.27
387.43	1826.79
387.64	1734.63
387.85	1845.22
388.06	2293.72
388.27	4313.02
388.48	6709.15
388.68	8329.09
388.89	9555.82
389.10	9799.53
389.31	8587.13
389.52	7563.15
389.73	6571.93
389.93	6227.87
390.14	5838.76
390.35	5205.94
390.56	4448.19
390.77	3721.16
390.98	3004.37
391.18	2549.72
391.39	2119.65
391.60	1804.26
391.81	1834.98
392.02	1759.21
392.23	1861.60
392.43	1767.40
392.64	1812.45
392.85	1732.58
393.06	1867.75
393.27	1759.21
393.47	1658.85
393.68	1726.44
393.89	1687.53
394.10	1734.63
394.31	1640.42
394.52	1675.24
394.72	1730.53
394.93	1796.07
395.14	1595.37
395.35	1771.49
395.56	1738.73
395.76	1746.92
395.97	1757.16
396.18	1855.46
396.39	1820.64
396.60	2017.25
396.80	1875.94
397.01	1847.27
397.22	1761.25
397.43	1845.22
397.64	1783.78
397.84	1808.36
398.05	1890.28
398.26	1675.24
398.47	1826.79
398.67	1710.05
398.88	1699.81
399.09	1751.01
399.30	1617.90
399.51	1746.92
399.71	1669.09
399.92	1652.71
400.13	1691.62
400.34	1685.48
400.54	1714.15
400.75	1740.77
400.96	1718.25
401.17	1806.31
401.37	1722.34
401.58	1710.05
401.79	1642.47
402.00	1943.52
402.21	2033.63
402.41	1951.71
402.62	2019.30
402.83	2113.50
403.04	1927.14
403.24	2050.02
403.45	1898.47
403.66	1839.08
403.87	1849.32
404.07	1943.52
404.28	1906.66
404.49	1863.65
404.70	1710.05
404.90	1769.44
405.11	1701.86
405.32	1834.98
405.52	1755.11
405.73	1652.71
405.94	1615.85
406.15	1658.85
406.35	1755.11
406.56	1687.53
406.77	1648.61
406.98	1767.40
407.18	1630.18
407.39	1732.58
407.60	1681.38
407.80	1693.67
408.01	1695.72
408.22	1767.40
408.43	1705.96
408.63	1683.43
408.84	1761.25
409.05	1755.11
409.25	1624.04
409.46	1714.15
409.67	1626.09
409.88	1681.38
410.08	1705.96
410.29	1654.76
410.50	1720.29
410.70	1744.87
410.91	1701.86
411.12	1681.38
411.32	1716.20
411.53	1662.95
411.74	1834.98
411.95	1755.11
412.15	1701.86
412.36	1765.35
412.57	1740.77
412.77	1746.92
412.98	1658.85
413.19	1675.24
413.39	1712.10
413.60	1746.92
413.81	1724.39
414.01	1648.61
414.22	1730.53
414.43	1730.53
414.63	1701.86
414.84	1798.12
415.05	1720.29
415.25	1587.18
415.46	1687.53
415.67	1738.73
415.87	1785.83
416.08	1626.09
416.29	1619.94
416.49	1685.48
416.70	1671.14
416.91	1738.73
417.11	1675.24
417.32	1775.59
417.53	1755.11
417.73	1669.09
417.94	1699.81
418.15	1759.21
418.35	1738.73
418.56	1681.38
418.77	1800.16
418.97	1673.19
419.18	1638.38
419.38	1630.18
419.59	1691.62
419.80	1828.84
420.00	1689.57
420.21	1681.38
420.42	1779.68
420.62	1755.11
420.83	1636.33
421.04	1701.86
421.24	1632.23
421.45	1703.91
421.65	1763.30
421.86	1685.48
422.07	1679.33
422.27	1693.67
422.48	1695.72
422.69	1724.39
422.89	1722.34
423.10	1687.53
423.30	1660.90
423.51	1716.20
423.72	1705.96
423.92	1738.73
424.13	1576.94
424.33	1751.01
424.54	1751.01
424.75	1767.40
424.95	1732.58
425.16	1742.82
425.36	1697.77
425.57	1714.15
425.78	1703.91
425.98	1724.39
426.19	1730.53
426.39	1605.61
426.60	1742.82
426.81	1708.01
427.01	1746.92
427.22	1724.39
427.42	1626.09
427.63	1681.38
427.83	1714.15
428.04	1783.78
428.25	1701.86
428.45	1738.73
428.66	1748.97
428.86	1652.71
429.07	1587.18
429.28	1654.76
429.48	1710.05
429.69	1648.61
429.89	1769.44
430.10	1658.85
430.30	1775.59
430.51	1730.53
430.71	1693.67
430.92	1683.43
431.13	1665.00
431.33	1751.01
431.54	1599.46
431.74	1769.44
431.95	1832.93
432.15	1695.72
432.36	1640.42
432.56	1720.29
432.77	1740.77
432.98	1853.41
433.18	1658.85
433.39	1701.86
433.59	1714.15
433.80	1828.84
434.00	1810.40
434.21	1718.25
434.41	1638.38
434.62	1843.17
434.82	1718.25
435.03	1654.76
435.23	1777.64
435.44	1673.19
435.64	1626.09
435.85	1701.86
436.06	1728.49
436.26	1695.72
436.47	1767.40
436.67	1697.77
436.88	1685.48
437.08	1767.40
437.29	1765.35
437.49	1802.21
437.70	1722.34
437.90	1746.92
438.11	1800.16
438.31	1832.93
438.52	1849.32
438.72	1884.13
438.93	1904.61
439.13	1718.25
439.34	1841.12
439.54	1708.01
439.75	1845.22
439.95	1771.49
440.16	1712.10
440.36	1673.19
440.57	1716.20
440.77	1695.72
440.98	1722.34
441.18	1775.59
441.39	1660.90
441.59	1683.43
441.80	1804.26
442.00	1746.92
442.21	1810.40
442.41	1613.80
442.62	1730.53
442.82	1732.58
443.02	1720.29
443.23	1810.40
443.43	1689.57
443.64	1800.16
443.84	1671.14
444.05	1789.92
444.25	1761.25
444.46	1771.49
444.66	1746.92
444.87	1820.64
445.07	1656.81
445.28	1753.06
445.48	1798.12
445.69	1800.16
445.89	1849.32
446.09	1787.88
446.30	2002.91
446.50	2691.03
446.71	3758.02
446.91	4310.97
447.12	4788.15
447.32	4872.12
447.53	4345.79
447.73	3925.96
447.93	3549.13
448.14	3336.14
448.34	3168.21
448.55	2811.86
448.75	2801.62
448.96	2731.99
449.16	2385.88
449.36	2271.20
449.57	1957.86
449.77	1791.97
449.98	1798.12
450.18	1841.12
450.39	1834.98
450.59	1714.15
450.79	1658.85
451.00	1667.05
451.20	1832.93
451.41	1757.16
451.61	1771.49
451.81	1634.28
452.02	1705.96
452.22	1673.19
452.43	1697.77
452.63	1681.38
452.84	1673.19
453.04	1669.09
453.24	1697.77
453.45	1710.05
453.65	1675.24
453.86	1730.53
454.06	1806.31
454.26	1751.01
454.47	1669.09
454.67	1789.92
454.87	1714.15
455.08	1761.25
455.28	1816.55
455.49	1736.68
455.69	1783.78
455.89	1820.64
456.10	1830.88
456.30	1714.15
456.51	1900.52
456.71	1714.15
456.91	1767.40
457.12	1796.07
457.32	1822.69
457.52	1689.57
457.73	1806.31
457.93	1761.25
458.14	1617.90
458.34	1681.38
458.54	1650.66
458.75	1658.85
458.95	1787.88
459.15	1705.96
459.36	1675.24
459.56	1765.35
459.76	1869.80
459.97	1748.97
460.17	1779.68
460.37	1730.53
460.58	1636.33
460.78	1773.54
460.99	1667.05
461.19	1742.82
461.39	1630.18
461.60	1652.71
461.80	1712.10
462.00	1691.62
462.21	1757.16
462.41	1691.62
462.61	1634.28
462.82	1646.57
463.02	1736.68
463.22	1779.68
463.43	1767.40
463.63	1710.05
463.83	1796.07
464.04	1705.96
464.24	1736.68
464.44	1685.48
464.64	1761.25
464.85	1757.16
465.05	1816.55
465.25	1734.63
465.46	1695.72
465.66	1837.03
465.86	1742.82
466.07	1771.49
466.27	1685.48
466.47	1617.90
466.68	1621.99
466.88	1775.59
467.08	1806.31
467.29	1746.92
467.49	1744.87
467.69	1718.25
467.89	1689.57
468.10	1673.19
468.30	1755.11
468.50	1802.21
468.71	1738.73
468.91	1722.34
469.11	1859.56
469.31	1710.05
469.52	1619.94
469.72	1820.64
469.92	1804.26
470.13	1789.92
470.33	1769.44
470.53	1800.16
470.73	2070.50
470.94	2355.16
471.14	2316.25
471.34	2557.91
471.54	2394.08
471.75	2224.09
471.95	2123.74
472.15	2074.59
472.36	2121.70
472.56	2035.68
472.76	2019.30
472.96	1996.77
473.17	1939.43
473.37	1920.99
473.57	1787.88
473.77	1910.75
473.98	1693.67
474.18	1695.72
474.38	1882.08
474.58	1642.47
474.79	1689.57
474.99	1718.25
475.19	1822.69
475.39	1697.77
475.60	1646.57
475.80	1740.77
476.00	1697.77
476.20	1718.25
476.41	1748.97
476.61	1869.80
476.81	1771.49
477.01	1644.52
477.21	1882.08
477.42	1802.21
477.62	1701.86
477.82	1767.40
478.02	1681.38
478.23	1761.25
478.43	1632.23
478.63	1783.78
478.83	1720.29
479.03	1732.58
479.24	1714.15
479.44	1837.03
479.64	1689.57
479.84	1480.68
480.04	1671.14
480.25	1751.01
480.45	1650.66
480.65	1755.11
480.85	1886.18
481.06	1683.43
481.26	1716.20
481.46	1716.20
481.66	1773.54
481.86	1681.38
482.06	1871.84
482.27	1712.10
482.47	1714.15
482.67	1800.16
482.87	1654.76
483.07	1814.50
483.28	1667.05
483.48	1665.00
483.68	1701.86
483.88	1644.52
484.08	1595.37
484.29	1607.66
484.49	1720.29
484.69	1677.29
484.89	1708.01
485.09	1804.26
485.29	1716.20
485.50	1730.53
485.70	1675.24
485.90	1779.68
486.10	1787.88
486.30	1761.25
486.50	1763.30
486.71	1673.19
486.91	1802.21
487.11	1775.59
487.31	1673.19
487.51	1665.00
487.71	1642.47
487.91	1669.09
488.12	1636.33
488.32	1605.61
488.52	1607.66
488.72	1609.70
488.92	1748.97
489.12	1832.93
489.32	1806.31
489.53	1775.59
489.73	1681.38
489.93	1771.49
490.13	1656.81
490.33	1671.14
490.53	1673.19
490.73	1726.44
490.94	1673.19
491.14	1804.26
491.34	1882.08
491.54	2064.35
491.74	2621.40
491.94	2940.88
492.14	3041.23
492.34	3024.85
492.54	2717.65
492.75	2578.39
492.95	2500.57
493.15	2295.77
493.35	2299.87
493.55	2279.39
493.75	2244.57
493.95	2101.22
494.15	1949.67
494.35	1894.37
494.56	1837.03
494.76	1798.12
494.96	1757.16
495.16	1751.01
495.36	1685.48
495.56	1705.96
495.76	1783.78
495.96	1761.25
496.16	1695.72
496.36	1841.12
496.56	1732.58
496.77	1703.91
496.97	1693.67
497.17	1787.88
497.37	1718.25
497.57	1740.77
497.77	1751.01
497.97	1677.29
498.17	1708.01
498.37	1722.34
498.57	1753.06
498.77	1746.92
498.97	1814.50
499.17	1886.18
499.38	1607.66
499.58	1826.79
499.78	1734.63
499.98	1767.40
500.18	1665.00
500.38	1683.43
500.58	1869.80
500.78	2586.58
500.98	4491.20
501.18	5865.38
501.38	6553.50
501.58	6965.14
501.78	6629.27
501.98	5472.17
502.18	4876.21
502.38	4577.21
502.58	3983.30
502.78	3801.03
502.98	3684.30
503.18	3426.25
503.38	3266.51
503.59	2832.34
503.79	2543.58
503.99	2475.99
504.19	2273.25
504.39	2164.70
504.59	2287.58
504.79	2037.73
504.99	2066.40
505.19	1884.13
505.39	1869.80
505.59	1939.43
505.79	1877.99
505.99	1894.37
506.19	1738.73
506.39	1925.09
506.59	1734.63
506.79	1746.92
506.99	1718.25
507.19	1798.12
507.39	1687.53
507.59	1673.19
507.79	1783.78
507.99	1765.35
508.19	1753.06
508.39	1699.81
508.59	1761.25
508.79	1888.23
508.99	1798.12
509.19	1689.57
509.39	1765.35
509.59	1701.86
509.79	1656.81
509.99	1742.82
510.19	1791.97
510.39	1765.35
510.59	1763.30
510.79	1701.86
510.99	1669.09
511.19	1724.39
511.39	1748.97
511.59	1726.44
511.79	1806.31
511.99	1724.39
512.19	1773.54
512.38	1699.81
512.58	1720.29
512.78	1751.01
512.98	1837.03
513.18	1867.75
513.38	1689.57
513.58	1787.88
513.78	1656.81
513.98	1724.39
514.18	1759.21
514.38	1697.77
514.58	1662.95
514.78	1714.15
514.98	1665.00
515.18	1736.68
515.38	1673.19
515.58	1828.84
515.78	1685.48
515.98	1755.11
516.18	1734.63
516.38	1783.78
516.57	1681.38
516.77	1722.34
516.97	1798.12
517.17	1671.14
517.37	1597.42
517.57	1728.49
517.77	1683.43
517.97	1693.67
518.17	1714.15
518.37	1677.29
518.57	1746.92
518.77	1671.14
518.97	1705.96
519.16	1789.92
519.36	1726.44
519.56	1751.01
519.76	1767.40
519.96	1781.73
520.16	1755.11
520.36	1705.96
520.56	1730.53
520.76	1685.48
520.96	1683.43
521.16	1765.35
521.35	1857.51
521.55	1796.07
521.75	1746.92
521.95	1613.80
522.15	1685.48
522.35	1591.27
522.55	1617.90
522.75	1732.58
522.95	1685.48
523.14	1748.97
523.34	1794.02
523.54	1675.24
523.74	1794.02
523.94	1820.64
524.14	1626.09
524.34	1759.21
524.54	1871.84
524.73	1710.05
524.93	1787.88
525.13	1660.90
525.33	1630.18
525.53	1867.75
525.73	1699.81
525.93	1748.97
526.13	1755.11
526.32	1742.82
526.52	1777.64
526.72	1767.40
526.92	1699.81
527.12	1658.85
527.32	1601.51
527.52	1761.25
527.71	1751.01
527.91	1689.57
528.11	1775.59
528.31	1722.34
528.51	1632.23
528.71	1748.97
528.90	1679.33
529.10	1841.12
529.30	1806.31
529.50	1628.14
529.70	1714.15
529.90	1710.05
530.09	1744.87
530.29	1705.96
530.49	1634.28
530.69	1791.97
530.89	1675.24
531.09	1761.25
531.28	1761.25
531.48	1757.16
531.68	1755.11
531.88	1689.57
532.08	1843.17
532.28	1771.49
532.47	1816.55
532.67	1849.32
532.87	1742.82
533.07	1597.42
533.27	1804.26
533.46	1718.25
533.66	1761.25
533.86	1732.58
534.06	1728.49
534.26	1777.64
534.45	1658.85
534.65	1781.73
534.85	1806.31
535.05	1699.81
535.25	1769.44
535.44	1652.71
535.64	1861.60
535.84	1708.01
536.04	1787.88
536.24	1665.00
536.43	1669.09
536.63	1757.16
536.83	1699.81
537.03	1681.38
537.22	1615.85
537.42	1656.81
537.62	1767.40
537.82	1662.95
538.02	1744.87
538.21	1828.84
538.41	1933.28
538.61	1726.44
538.81	1742.82
539.00	1765.35
539.20	1630.18
539.40	1724.39
539.60	1746.92
539.79	1736.68
539.99	1671.14
540.19	1695.72
540.39	1705.96
540.58	1697.77
540.78	1773.54
540.98	1701.86
541.18	1777.64
541.37	1714.15
541.57	1685.48
541.77	1738.73
541.97	1667.05
542.16	1628.14
542.36	1693.67
542.56	1658.85
542.76	1853.41
542.95	1734.63
543.15	1746.92
543.35	1744.87
543.54	1677.29
543.74	1724.39
543.94	1796.07
544.14	1714.15
544.33	1802.21
544.53	1714.15
544.73	1628.14
544.93	1761.25
545.12	1736.68
545.32	1755.11
545.52	1708.01
545.71	1642.47
545.91	1767.40
546.11	1671.14
546.30	1714.15
546.50	1714.15
546.70	1783.78
546.90	1732.58
547.09	1646.57
547.29	1722.34
547.49	1705.96
547.68	1740.77
547.88	1730.53
548.08	1763.30
548.27	2254.81
548.47	1736.68
548.67	1714.15
548.87	1845.22
549.06	1703.91
549.26	1814.50
549.46	1763.30
549.65	1644.52
549.85	1722.34
550.05	1767.40
550.24	1748.97
550.44	1677.29
550.64	1744.87
550.83	1759.21
551.03	1794.02
551.23	1765.35
551.42	1736.68
551.62	1697.77
551.82	1757.16
552.01	1720.29
552.21	1802.21
552.41	1748.97
552.60	1789.92
552.80	1728.49
553.00	1699.81
553.19	1724.39
553.39	1779.68
553.59	1681.38
553.78	1763.30
553.98	1740.77
554.17	1591.27
554.37	1787.88
554.57	1710.05
554.76	1644.52
554.96	1681.38
555.16	1693.67
555.35	1789.92
555.55	1761.25
555.75	1794.02
555.94	1853.41
556.14	1667.05
556.33	1732.58
556.53	1804.26
556.73	1714.15
556.92	1773.54
557.12	1759.21
557.32	1814.50
557.51	1853.41
557.71	1699.81
557.90	1783.78
558.10	1789.92
558.30	1730.53
558.49	1687.53
558.69	1708.01
558.88	1718.25
559.08	1746.92
559.28	1763.30
559.47	1738.73
559.67	1779.68
559.86	1869.80
560.06	1757.16
560.26	1675.24
560.45	1722.34
560.65	1665.00
560.84	1767.40
561.04	1685.48
561.24	1800.16
561.43	1646.57
561.63	1796.07
561.82	1767.40
562.02	1759.21
562.22	1730.53
562.41	1646.57
562.61	1791.97
562.80	1621.99
563.00	1843.17
563.19	1804.26
563.39	1800.16
563.59	1722.34
563.78	1685.48
563.98	1626.09
564.17	1724.39
564.37	1650.66
564.56	1605.61
564.76	1671.14
564.96	1796.07
565.15	1800.16
565.35	1849.32
565.54	1724.39
565.74	1783.78
565.93	1751.01
566.13	1742.82
566.32	1767.40
566.52	1785.83
566.71	1791.97
566.91	1771.49
567.11	1699.81
567.30	1699.81
567.50	1771.49
567.69	1724.39
567.89	1681.38
568.08	1701.86
568.28	1673.19
568.47	1667.05
568.67	1757.16
568.86	1685.48
569.06	1763.30
569.25	1748.97
569.45	1697.77
569.64	1640.42
569.84	1701.86
570.04	1759.21
570.23	1689.57
570.43	1724.39
570.62	1759.21
570.82	1796.07
571.01	1613.80
571.21	1693.67
571.40	1708.01
571.60	1763.30
571.79	1701.86
571.99	1728.49
572.18	1712.10
572.38	1746.92
572.57	1697.77
572.77	1673.19
572.96	1931.23
573.16	1728.49
573.35	1783.78
573.55	1869.80
573.74	1802.21
573.94	1689.57
574.13	1734.63
574.33	1783.78
574.52	1783.78
574.71	1808.36
574.91	1816.55
575.10	1640.42
575.30	1728.49
575.49	1716.20
575.69	1722.34
575.88	1777.64
576.08	1660.90
576.27	1761.25
576.47	1791.97
576.66	1882.08
576.86	1853.41
577.05	1726.44
577.25	1800.16
577.44	1787.88
577.64	1820.64
577.83	1837.03
578.02	1673.19
578.22	1804.26
578.41	1818.60
578.61	1669.09
578.80	1632.23
579.00	1742.82
579.19	1767.40
579.39	1810.40
579.58	1751.01
579.77	1773.54
579.97	1789.92
580.16	1824.74
580.36	1746.92
580.55	1779.68
580.75	1783.78
580.94	1771.49
581.13	1882.08
581.33	1814.50
581.52	1693.67
581.72	1863.65
581.91	1847.27
582.11	1669.09
582.30	1781.73
582.49	1699.81
582.69	1808.36
582.88	1791.97
583.08	1810.40
583.27	1824.74
583.47	1808.36
583.66	1783.78
583.85	1656.81
584.05	1726.44
584.24	1693.67
584.44	1699.81
584.63	1824.74
584.82	1841.12
585.02	1771.49
585.21	1841.12
585.41	1832.93
585.60	1814.50
585.79	1867.75
585.99	1894.37
586.18	1908.71
586.37	2265.05
586.57	3260.37
586.76	9734.00
586.96	24354.44
587.15	34346.48
587.34	40396.18
587.54	42423.67
587.73	36818.38
587.93	26388.08
588.12	21671.61
588.31	18319.08
588.51	16418.57
588.70	15011.61
588.89	14233.38
589.09	12668.73
589.28	11349.84
589.47	9340.79
589.67	8165.25
589.86	6481.82
590.06	4837.30
590.25	3962.82
590.44	3108.82
590.64	2512.86
590.83	2297.82
591.02	2066.40
591.22	2004.96
591.41	1929.19
591.60	1853.41
591.80	1972.19
591.99	1753.06
592.18	1740.77
592.38	1826.79
592.57	1755.11
592.76	1822.69
592.96	1761.25
593.15	1710.05
593.34	1824.74
593.54	1742.82
593.73	1789.92
593.92	1761.25
594.12	1763.30
594.31	1775.59
594.50	1830.88
594.70	1810.40
594.89	1904.61
595.08	1632.23
595.28	1734.63
595.47	1902.56
595.66	1832.93
595.86	1742.82
596.05	1765.35
596.24	1720.29
596.43	1890.28
596.63	1785.83
596.82	1734.63
597.01	1794.02
597.21	1851.36
597.40	1767.40
597.59	1746.92
597.79	1783.78
597.98	1755.11
598.17	1658.85
598.36	1761.25
598.56	1777.64
598.75	1683.43
598.94	1751.01
599.14	1834.98
599.33	1773.54
599.52	1718.25
599.71	1701.86
599.91	1746.92
600.10	1777.64
600.29	1748.97
600.48	1824.74
600.68	1832.93
600.87	1675.24
601.06	1722.34
601.26	1724.39
601.45	1738.73
601.64	1679.33
601.83	1800.16
602.03	1783.78
602.22	1712.10
602.41	1798.12
602.60	1830.88
602.80	1783.78
602.99	1806.31
603.18	1613.80
603.37	1757.16
603.57	1712.10
603.76	1738.73
603.95	1789.92
604.14	1753.06
604.34	1697.77
604.53	1812.45
604.72	1759.21
604.91	1781.73
605.10	1683.43
605.30	1691.62
605.49	1824.74
605.68	1687.53
605.87	1765.35
606.07	1691.62
606.26	1779.68
606.45	1648.61
606.64	1753.06
606.84	1718.25
607.03	1806.31
607.22	1789.92
607.41	1687.53
607.60	1757.16
607.80	1824.74
607.99	1759.21
608.18	1775.59
608.37	1771.49
608.56	1691.62
608.76	1791.97
608.95	1859.56
609.14	1710.05
609.33	1748.97
609.52	1853.41
609.72	1710.05
609.91	1757.16
610.10	1660.90
610.29	1804.26
610.48	1800.16
610.68	1673.19
610.87	1738.73
611.06	1675.24
611.25	1757.16
611.44	1779.68
611.63	1802.21
611.83	1808.36
612.02	1691.62
612.21	1816.55
612.40	1619.94
612.59	1703.91
612.79	1744.87
612.98	1744.87
613.17	1742.82
613.36	1703.91
613.55	1787.88
613.74	1650.66
613.93	1693.67
614.13	1708.01
614.32	1646.57
614.51	1734.63
614.70	1683.43
614.89	1712.10
615.08	1783.78
615.28	2041.82
615.47	1652.71
615.66	1763.30
615.85	1744.87
616.04	1798.12
616.23	1693.67
616.42	1759.21
616.62	1705.96
616.81	1740.77
617.00	1732.58
617.19	1746.92
617.38	1746.92
617.57	1726.44
617.76	1748.97
617.95	1765.35
618.15	1716.20
618.34	1683.43
618.53	1628.14
618.72	1716.20
618.91	1843.17
619.10	1832.93
619.29	1763.30
619.48	1693.67
619.68	1708.01
619.87	1689.57
620.06	1642.47
620.25	1771.49
620.44	1685.48
620.63	1775.59
620.82	1775.59
621.01	1720.29
621.20	1714.15
621.39	1736.68
621.59	1830.88
621.78	1718.25
621.97	1685.48
622.16	1796.07
622.35	1669.09
622.54	1769.44
622.73	1767.40
622.92	1603.56
623.11	1763.30
623.30	1738.73
623.49	1804.26
623.68	1708.01
623.88	1779.68
624.07	1675.24
624.26	1705.96
624.45	1751.01
624.64	1718.25
624.83	1800.16
625.02	1665.00
625.21	1699.81
625.40	1753.06
625.59	1828.84
625.78	1671.14
625.97	1703.91
626.16	1824.74
626.35	1751.01
626.54	1685.48
626.74	1794.02
626.93	1656.81
627.12	1650.66
627.31	1777.64
627.50	1710.05
627.69	1736.68
627.88	1679.33
628.07	1681.38
628.26	1632.23
628.45	1669.09
628.64	1646.57
628.83	1728.49
629.02	1607.66
629.21	1763.30
629.40	1730.53
629.59	1705.96
629.78	1703.91
629.97	1689.57
630.16	1755.11
630.35	1640.42
630.54	1683.43
630.73	1585.13
630.92	1728.49
631.11	1699.81
631.30	1646.57
631.49	1753.06
631.68	1689.57
631.87	1748.97
632.06	1677.29
632.25	1845.22
632.44	1689.57
632.63	1685.48
632.82	1673.19
633.01	1632.23
633.20	1673.19
633.39	1613.80
633.58	1667.05
633.77	1744.87
633.96	1787.88
634.15	1744.87
634.34	1771.49
634.53	1746.92
634.72	1650.66
634.91	1638.38
635.10	1708.01
635.29	1765.35
635.48	1642.47
635.67	1699.81
635.86	1742.82
636.05	1791.97
636.24	1665.00
636.43	1775.59
636.62	1724.39
636.81	1675.24
637.00	1644.52
637.19	1734.63
637.38	1703.91
637.57	1705.96
637.76	1783.78
637.95	1685.48
638.14	1710.05
638.33	1712.10
638.52	1695.72
638.71	1685.48
638.89	1640.42
639.08	1902.56
639.27	1767.40
639.46	1671.14
639.65	1757.16
639.84	1767.40
640.03	1794.02
640.22	1708.01
640.41	1808.36
640.60	1667.05
640.79	1732.58
640.98	1687.53
641.17	1714.15
641.36	1660.90
641.55	1683.43
641.74	1671.14
641.92	1720.29
642.11	1708.01
642.30	1658.85
642.49	1658.85
642.68	1640.42
642.87	1726.44
643.06	1787.88
643.25	1636.33
643.44	1695.72
643.63	1705.96
643.82	1826.79
644.00	1603.56
644.19	1705.96
644.38	1679.33
644.57	1748.97
644.76	1751.01
644.95	1771.49
645.14	1695.72
645.33	1730.53
645.52	1767.40
645.71	1708.01
645.89	1683.43
646.08	1714.15
646.27	1697.77
646.46	1882.08
646.65	1683.43
646.84	1714.15
647.03	1669.09
647.22	1775.59
647.40	1701.86
647.59	1722.34
647.78	1617.90
647.97	1667.05
648.16	1669.09
648.35	1800.16
648.54	1703.91
648.73	1679.33
648.91	1804.26
649.10	1775.59
649.29	1601.51
649.48	1675.24
649.67	1738.73
649.86	1669.09
650.05	1679.33
650.23	1775.59
650.42	1576.94
650.61	1703.91
650.80	1781.73
650.99	1796.07
651.18	1761.25
651.36	1771.49
651.55	1667.05
651.74	1826.79
651.93	1673.19
652.12	1597.42
652.31	1722.34
652.49	1669.09
652.68	1693.67
652.87	1808.36
653.06	1703.91
653.25	1718.25
653.44	1636.33
653.62	1718.25
653.81	1734.63
654.00	1669.09
654.19	1746.92
654.38	1902.56
654.56	1718.25
654.75	1699.81
654.94	1734.63
655.13	1642.47
655.32	1683.43
655.51	1738.73
655.69	1728.49
655.88	1705.96
656.07	1638.38
656.26	1802.21
656.45	1609.70
656.63	1673.19
656.82	1742.82
657.01	1726.44
657.20	1722.34
657.38	1806.31
657.57	1708.01
657.76	1667.05
657.95	1724.39
658.14	1726.44
658.32	1720.29
658.51	1624.04
658.70	1738.73
658.89	1644.52
659.08	1734.63
659.26	1708.01
659.45	1699.81
659.64	1722.34
659.83	1613.80
660.01	1865.70
660.20	1699.81
660.39	1798.12
660.58	1583.08
660.76	1759.21
660.95	1679.33
661.14	1675.24
661.33	1615.85
661.51	1710.05
661.70	1708.01
661.89	1722.34
662.08	1632.23
662.26	1683.43
662.45	1654.76
662.64	1837.03
662.83	1689.57
663.01	1652.71
663.20	1753.06
663.39	1869.80
663.58	1640.42
663.76	1681.38
663.95	1746.92
664.14	1630.18
664.32	1761.25
664.51	1697.77
664.70	1652.71
664.89	1722.34
665.07	1685.48
665.26	1734.63
665.45	1730.53
665.64	1714.15
665.82	1736.68
666.01	1787.88
666.20	1687.53
666.38	1828.84
666.57	1783.78
666.76	2232.29
666.95	4440.00
667.13	10325.86
667.32	15146.78
667.51	17811.18
667.69	19236.57
667.88	17493.75
668.07	12369.73
668.25	9523.05
668.44	8124.29
668.63	7235.47
668.81	6762.39
669.00	6217.63
669.19	5666.73
669.38	5138.35
669.56	4476.86
669.75	3960.77
669.94	3422.16
670.12	2818.00
670.31	2516.95
670.50	2248.67
670.68	1984.48
670.87	1845.22
671.06	1665.00
671.24	1779.68
671.43	1765.35
671.62	1779.68
671.80	1683.43
671.99	1810.40
672.18	1734.63
672.36	1771.49
672.55	1712.10
672.74	1634.28
672.92	1675.24
673.11	1660.90
673.29	1710.05
673.48	1705.96
673.67	1699.81
673.85	1757.16
674.04	1699.81
674.23	1724.39
674.41	1812.45
674.60	1679.33
674.79	1638.38
674.97	1642.47
675.16	1771.49
675.34	1755.11
675.53	1628.14
675.72	1800.16
675.90	1736.68
676.09	1728.49
676.28	1736.68
676.46	1593.32
676.65	1730.53
676.83	1667.05
677.02	1761.25
677.21	1652.71
677.39	1781.73
677.58	1716.20
677.77	1765.35
677.95	1683.43
678.14	1662.95
678.32	1751.01
678.51	1720.29
678.70	1853.41
678.88	1679.33
679.07	1722.34
679.25	1726.44
679.44	1683.43
679.63	1587.18
679.81	1683.43
680.00	1738.73
680.18	1759.21
680.37	1775.59
680.55	1771.49
680.74	1667.05
680.93	1560.55
681.11	1769.44
681.30	1759.21
681.48	1708.01
681.67	1705.96
681.85	1730.53
682.04	1701.86
682.23	1748.97
682.41	1769.44
682.60	1699.81
682.78	1714.15
682.97	1636.33
683.15	1740.77
683.34	1615.85
683.53	1822.69
683.71	1656.81
683.90	1851.36
684.08	1763.30
684.27	1603.56
684.45	1710.05
684.64	1722.34
684.82	1736.68
685.01	1701.86
685.19	1712.10
685.38	1851.36
685.57	1646.57
685.75	1644.52
685.94	1570.79
686.12	1665.00
686.31	1675.24
686.49	1767.40
686.68	1634.28
686.86	1771.49
687.05	1669.09
687.23	1814.50
687.42	1679.33
687.60	1595.37
687.79	1791.97
687.97	1722.34
688.16	1761.25
688.34	1765.35
688.53	1570.79
688.71	1753.06
688.90	1679.33
689.08	1718.25
689.27	1632.23
689.45	1724.39
689.64	1744.87
689.82	1767.40
690.01	1736.68
690.19	1730.53
690.38	1779.68
690.56	1798.12
690.75	1632.23
690.93	1724.39
691.12	1654.76
691.30	1779.68
691.49	1656.81
691.67	1779.68
691.86	1800.16
692.04	1671.14
692.23	1544.17
692.41	1714.15
692.60	1828.84
692.78	1708.01
692.97	1662.95
693.15	1718.25
693.34	1769.44
693.52	1738.73
693.71	1624.04
693.89	1679.33
694.08	1642.47
694.26	1894.37
694.44	1787.88
694.63	1736.68
694.81	1628.14
695.00	1599.46
695.18	1806.31
695.37	1882.08
695.55	1775.59
695.74	1722.34
695.92	1578.98
696.10	1732.58
696.29	1626.09
696.47	1697.77
696.66	1572.84
696.84	1683.43
697.03	1652.71
697.21	1796.07
697.40	2297.82
697.58	1773.54
697.76	1726.44
697.95	1621.99
698.13	1677.29
698.32	1716.20
698.50	1691.62
698.68	1757.16
698.87	1710.05
699.05	1757.16
699.24	1738.73
699.42	1640.42
699.61	1677.29
699.79	1703.91
699.97	1703.91
700.16	1611.75
700.34	1689.57
700.53	1685.48
700.71	1783.78
700.89	1720.29
701.08	1675.24
701.26	1665.00
701.45	2099.17
701.63	1646.57
701.81	1689.57
702.00	1789.92
702.18	1708.01
702.37	1722.34
702.55	1740.77
702.73	1693.67
702.92	1656.81
703.10	1701.86
703.28	1775.59
703.47	1650.66
703.65	1800.16
703.84	1710.05
704.02	1681.38
704.20	1839.08
704.39	1703.91
704.57	1722.34
704.75	1738.73
704.94	1746.92
705.12	1701.86
705.30	1738.73
705.49	2211.81
705.67	4356.03
705.86	9326.45
706.04	12459.84
706.22	14114.60
706.41	15361.81
706.59	13739.82
706.77	9545.58
706.96	7348.11
707.14	6565.79
707.32	5859.24
707.51	5699.50
707.69	5007.28
707.87	4274.11
708.06	3506.12
708.24	3004.37
708.42	2426.84
708.61	2256.86
708.79	1945.57
708.97	1875.94
709.16	1816.55
709.34	1677.29
709.52	1779.68
709.71	1746.92
709.89	1814.50
710.07	1699.81
710.26	1640.42
710.44	1685.48
710.62	1787.88
710.80	1808.36
710.99	1742.82
711.17	1730.53
711.35	1710.05
711.54	1697.77
711.72	1767.40
711.90	1740.77
712.09	1816.55
712.27	1681.38
712.45	1746.92
712.63	1714.15
712.82	1746.92
713.00	1714.15
713.18	1785.83
713.37	1808.36
713.55	1703.91
713.73	1710.05
713.91	1640.42
714.10	1677.29
714.28	1791.97
714.46	1689.57
714.65	1662.95
714.83	1699.81
715.01	1746.92
715.19	1771.49
715.38	1560.55
715.56	1732.58
715.74	1710.05
715.92	1660.90
716.11	1767.40
716.29	1591.27
716.47	1624.04
716.65	1705.96
716.84	1658.85
717.02	1828.84
717.20	1650.66
717.38	1673.19
717.57	1652.71
717.75	1710.05
717.93	1673.19
718.11	1669.09
718.30	1632.23
718.48	1744.87
718.66	1832.93
718.84	1812.45
719.03	1687.53
719.21	1617.90
719.39	1794.02
719.57	1681.38
719.75	1789.92
719.94	1656.81
720.12	1570.79
720.30	1697.77
720.48	1724.39
720.67	1648.61
720.85	1632.23
721.03	1630.18
721.21	1660.90
721.39	1730.53
721.58	1722.34
721.76	1660.90
721.94	1681.38
722.12	1671.14
722.30	1722.34
722.49	1697.77
722.67	1724.39
722.85	1736.68
723.03	1644.52
723.21	1660.90
723.40	1710.05
723.58	1695.72
723.76	1669.09
723.94	1759.21
724.12	1742.82
724.30	1748.97
724.49	1755.11
724.67	1673.19
724.85	1834.98
725.03	1558.50
725.21	1712.10
725.40	1820.64
725.58	1675.24
725.76	1746.92
725.94	1693.67
726.12	1697.77
726.30	1724.39
726.49	1740.77
726.67	1589.22
726.85	1722.34
727.03	1791.97
727.21	2097.12
727.39	2899.92
727.57	3694.54
727.76	4208.58
727.94	4366.27
728.12	4313.02
728.30	3702.73
728.48	2957.27
728.66	2807.77
728.84	2490.33
729.03	2324.44
729.21	2138.08
729.39	1984.48
729.57	1808.36
729.75	1818.60
729.93	1890.28
730.11	1716.20
730.30	1624.04
730.48	1705.96
730.66	1705.96
730.84	1722.34
731.02	1679.33
731.20	1710.05
731.38	1734.63
731.56	1673.19
731.74	1677.29
731.93	1742.82
732.11	1650.66
732.29	1677.29
732.47	1697.77
732.65	1681.38
732.83	1732.58
733.01	1763.30
733.19	1667.05
733.37	1677.29
733.56	1675.24
733.74	1679.33
733.92	1716.20
734.10	1728.49
734.28	1644.52
734.46	1638.38
734.64	1748.97
734.82	1669.09
735.00	1693.67
735.18	1687.53
735.36	1708.01
735.54	1675.24
735.73	1677.29
735.91	1734.63
736.09	1736.68
736.27	1710.05
736.45	1722.34
736.63	1701.86
736.81	1712.10
736.99	1765.35
737.17	1826.79
737.35	1681.38
737.53	1689.57
737.71	1730.53
737.89	1791.97
738.07	1640.42
738.25	1644.52
738.43	1599.46
738.61	1667.05
738.80	1685.48
738.98	1601.51
739.16	1757.16
739.34	1648.61
739.52	1849.32
739.70	1693.67
739.88	1677.29
740.06	1820.64
740.24	1591.27
740.42	1734.63
740.60	1589.22
740.78	1681.38
740.96	1593.32
741.14	1718.25
741.32	1632.23
741.50	1671.14
741.68	1808.36
741.86	1779.68
742.04	1656.81
742.22	1632.23
742.40	1761.25
742.58	1720.29
742.76	1646.57
742.94	1767.40
743.12	1581.03
743.30	1689.57
743.48	1724.39
743.66	1683.43
743.84	1730.53
744.02	1742.82
744.20	1740.77
744.38	1642.47
744.56	1648.61
744.74	1828.84
744.92	1759.21
745.10	1802.21
745.28	1722.34
745.46	1789.92
745.64	1656.81
745.82	1742.82
746.00	1736.68
746.18	1738.73
746.36	1589.22
746.54	1773.54
746.72	1746.92
746.90	1607.66
747.08	1767.40
747.26	1734.63
747.44	1697.77
747.62	1765.35
747.80	1767.40
747.98	1779.68
748.15	1703.91
748.33	1746.92
748.51	1675.24
748.69	1660.90
748.87	1689.57
749.05	1667.05
749.23	1689.57
749.41	1748.97
749.59	1746.92
749.77	1767.40
749.95	1689.57
750.13	1605.61
750.31	1708.01
750.49	1658.85
750.67	1769.44
750.85	1761.25
751.03	1703.91
751.20	1830.88
751.38	1687.53
751.56	1636.33
751.74	1699.81
751.92	1656.81
752.10	1607.66
752.28	1775.59
752.46	1689.57
752.64	1755.11
752.82	1708.01
753.00	1771.49
753.18	1613.80
753.35	1644.52
753.53	1634.28
753.71	1712.10
753.89	1699.81
754.07	1722.34
754.25	1714.15
754.43	1730.53
754.61	1607.66
754.79	1724.39
754.97	1703.91
755.14	1699.81
755.32	1603.56
755.50	1638.38
755.68	1726.44
755.86	1689.57
756.04	1705.96
756.22	1540.07
756.40	1765.35
756.57	1808.36
756.75	1652.71
756.93	1783.78
757.11	1701.86
757.29	1628.14
757.47	1589.22
757.65	1615.85
757.82	1601.51
758.00	1689.57
758.18	1654.76
758.36	1630.18
758.54	1738.73
758.72	1609.70
758.90	1837.03
759.07	1720.29
759.25	1607.66
759.43	1755.11
759.61	1587.18
759.79	2142.18
759.97	1777.64
760.15	1703.91
760.32	1681.38
760.50	1683.43
760.68	1834.98
760.86	1734.63
761.04	1841.12
761.22	1806.31
761.39	1675.24
761.57	1683.43
761.75	1732.58
761.93	1722.34
762.11	1654.76
762.28	1693.67
762.46	1593.32
762.64	1734.63
762.82	1591.27
763.00	1769.44
763.18	1697.77
763.35	1652.71
763.53	1710.05
763.71	1660.90
763.89	1714.15
764.07	1724.39
764.24	1730.53
764.42	1804.26
764.60	1689.57
764.78	1691.62
764.96	1722.34
765.13	1771.49
765.31	1736.68
765.49	1746.92
765.67	1687.53
765.84	1708.01
766.02	1722.34
766.20	1640.42
766.38	1775.59
766.56	1705.96
766.73	1705.96
766.91	1650.66
767.09	1716.20
767.27	1761.25
767.44	1611.75
767.62	1712.10
767.80	1689.57
767.98	1701.86
768.15	1712.10
768.33	1767.40
768.51	1701.86
768.69	1708.01
768.87	1695.72
769.04	1589.22
769.22	1855.46
769.40	1773.54
769.58	1841.12
769.75	1716.20
769.93	1732.58
770.11	1740.77
770.28	1658.85
770.46	1744.87
770.64	1669.09
770.82	1728.49
770.99	1671.14
771.17	1701.86
771.35	1714.15
771.53	1714.15
771.70	1691.62
771.88	1710.05
772.06	1679.33
772.23	1759.21
772.41	1695.72
772.59	1691.62
772.77	1617.90
772.94	1652.71
773.12	1665.00
773.30	1683.43
773.47	1650.66
773.65	1677.29
773.83	1822.69
774.01	1699.81
774.18	1576.94
774.36	1650.66
774.54	1576.94
774.71	1714.15
774.89	1624.04
775.07	1677.29
775.24	1615.85
775.42	1691.62
775.60	1669.09
775.78	1662.95
775.95	1570.79
776.13	1605.61
776.31	1669.09
776.48	1650.66
776.66	1751.01
776.84	1675.24
777.01	1687.53
777.19	1683.43
777.37	1714.15
777.54	1736.68
777.72	1812.45
777.90	1773.54
778.07	1630.18
778.25	1869.80
778.43	1732.58
778.60	1683.43
778.78	1701.86
778.96	1738.73
779.13	1665.00
779.31	1779.68
779.49	1693.67
779.66	1724.39
779.84	1699.81
780.01	1701.86
780.19	1632.23
780.37	1857.51
780.54	1757.16
780.72	1671.14
780.90	1632.23
781.07	1671.14
781.25	1605.61
781.43	1689.57
781.60	1681.38
781.78	1798.12
781.95	1722.34
782.13	1683.43
782.31	1683.43
782.48	1644.52
782.66	1732.58
782.83	1806.31
783.01	1656.81
783.19	1806.31
783.36	1710.05
783.54	1691.62
783.72	1691.62
783.89	1646.57
784.07	1667.05
784.24	1691.62
784.42	1826.79
784.60	1728.49
784.77	1726.44
784.95	1599.46
785.12	1705.96
785.30	1753.06
785.47	1615.85
785.65	1613.80
785.83	1683.43
786.00	1595.37
786.18	1712.10
786.35	1679.33
786.53	1665.00
786.71	1650.66
786.88	1691.62
787.06	1701.86
787.23	1658.85
787.41	1628.14
787.58	1687.53
787.76	1628.14
787.94	1675.24
788.11	1689.57
788.29	1640.42
788.46	1648.61
788.64	1650.66
788.81	1669.09
788.99	1701.86
789.16	1576.94
789.34	1677.29
789.52	1697.77
789.69	1597.42
789.87	1605.61
790.04	1609.70
790.22	1685.48
790.39	1863.65
790.57	1642.47
790.74	1626.09
790.92	1665.00
791.09	1568.74
791.27	1665.00
791.44	1722.34
791.62	1624.04
791.79	1746.92
791.97	1689.57
792.15	1865.70
792.32	1763.30
792.50	1705.96
792.67	1802.21
792.85	1753.06
793.02	1601.51
793.20	1662.95
793.37	1669.09
793.55	1673.19
793.72	1603.56
793.90	1703.91
794.07	1667.05
794.25	1722.34
794.42	1671.14
794.60	1722.34
794.77	1755.11
794.95	1730.53
795.12	1761.25
795.30	1736.68
795.47	1560.55
795.65	1898.47
795.82	1689.57
796.00	1648.61
796.17	1685.48
796.34	1650.66
796.52	1746.92
796.69	1791.97
796.87	1658.85
797.04	1726.44
797.22	1732.58
797.39	1708.01
797.57	1746.92
797.74	1681.38
797.92	1677.29
798.09	1691.62
798.27	1716.20
798.44	1759.21
798.62	1660.90
798.79	1640.42
798.96	1730.53
799.14	1730.53
799.31	1832.93
799.49	1710.05
799.66	1742.82
799.84	1771.49
800.01	1566.70
800.19	1652.71
800.36	1691.62
800.53	1648.61
800.71	1638.38
800.88	1769.44
801.06	1619.94
801.23	1677.29
801.41	1642.47
801.58	1677.29
801.75	1648.61
801.93	1636.33
802.10	1738.73
802.28	1714.15
802.45	1671.14
802.63	1732.58
802.80	1796.07
802.97	1673.19
803.15	1667.05
803.32	1714.15
803.50	1665.00
803.67	1601.51
803.84	1697.77
804.02	1791.97
804.19	1662.95
804.37	1570.79
804.54	1652.71
804.71	1685.48
804.89	1726.44
805.06	1718.25
805.24	1689.57
805.41	1675.24
805.58	1609.70
805.76	1822.69
805.93	1677.29
806.10	1796.07
806.28	1708.01
806.45	1665.00
806.63	1730.53
806.80	1660.90
806.97	1734.63
807.15	1656.81
807.32	1777.64
807.49	1685.48
807.67	1628.14
807.84	1728.49
808.01	1605.61
808.19	1773.54
808.36	1834.98
808.54	1626.09
808.71	1646.57
808.88	1718.25
809.06	1742.82
809.23	1794.02
809.40	1656.81
809.58	1712.10
809.75	1738.73
809.92	1640.42
810.10	1855.46
810.27	1624.04
810.44	1740.77
810.62	1703.91
810.79	1669.09
810.96	1632.23
811.14	1673.19
811.31	1683.43
811.48	1673.19
811.66	1667.05
811.83	1691.62
812.00	1781.73
812.18	1724.39
812.35	1738.73
812.52	1701.86
812.69	1705.96
812.87	1724.39
813.04	1703.91
813.21	1638.38
813.39	1734.63
813.56	1642.47
813.73	1746.92
813.91	1654.76
814.08	1642.47
814.25	1677.29
814.42	1593.32
814.60	1667.05
814.77	1699.81
814.94	1673.19
815.12	1761.25
815.29	1787.88
815.46	1656.81
815.63	1765.35
815.81	1636.33
815.98	1652.71
816.15	1597.42
816.33	1697.77
816.50	1603.56
816.67	1689.57
816.84	1650.66
817.02	1677.29
817.19	1705.96
817.36	1667.05
817.53	1755.11
817.71	1677.29
817.88	1714.15
818.05	1642.47
818.22	1714.15
818.40	1804.26
818.57	1646.57
818.74	1777.64
818.91	1679.33
819.09	1769.44
819.26	1773.54
819.43	1716.20
819.60	1691.62
819.78	1734.63
819.95	1800.16
820.12	1683.43
820.29	1691.62
820.47	1806.31
820.64	1683.43
820.81	1650.66
820.98	1542.12
821.15	1638.38
821.33	1740.77
821.50	1617.90
821.67	1722.34
821.84	1646.57
822.02	1773.54
822.19	1818.60
822.36	1640.42
822.53	1597.42
822.70	1675.24
822.88	1673.19
823.05	1830.88
823.22	1669.09
823.39	1753.06
823.56	1675.24
823.74	1722.34
823.91	1714.15
824.08	1632.23
824.25	1689.57
824.42	1722.34
824.60	1634.28
824.77	1738.73
824.94	1648.61
825.11	1787.88
825.28	1566.70
825.45	1662.95
825.63	1714.15
825.80	1638.38
825.97	1685.48
826.14	1697.77
826.31	1675.24
826.48	1665.00
826.66	1617.90
826.83	1718.25
827.00	1685.48
827.17	1677.29
827.34	1644.52
827.51	1658.85
827.69	1753.06
827.86	1621.99
828.03	1687.53
828.20	1740.77
828.37	1675.24
828.54	1757.16
828.71	1621.99
828.89	1812.45
829.06	1722.34
829.23	1718.25
829.40	1636.33
829.57	1654.76
829.74	1714.15
829.91	1728.49
830.09	1722.34
830.26	1718.25
830.43	1730.53
830.60	1665.00
830.77	1718.25
830.94	1826.79
831.11	1691.62
831.28	1673.19
831.46	1763.30
831.63	1701.86
831.80	1726.44
831.97	1619.94
832.14	1632.23
832.31	1769.44
832.48	1658.85
832.65	1734.63
832.82	1732.58
832.99	1767.40
833.17	1660.90
833.34	1777.64
833.51	1853.41
833.68	1609.70
833.85	1718.25
834.02	1542.12
834.19	1716.20
834.36	1578.98
834.53	1714.15
834.70	1781.73
834.87	1771.49
835.04	1654.76
835.22	1693.67
835.39	1652.71
835.56	1697.77
835.73	1693.67
835.90	1712.10
836.07	1593.32
836.24	1740.77
836.41	1646.57
836.58	1634.28
836.75	1703.91
836.92	1701.86
837.09	1644.52
837.26	1662.95
837.43	1714.15
837.60	1710.05
837.77	1658.85
837.94	1699.81
838.12	1816.55
838.29	1685.48
838.46	1583.08
838.63	1607.66
838.80	1765.35
838.97	1720.29
839.14	1740.77
839.31	1718.25
839.48	1656.81
839.65	1714.15
839.82	1591.27
839.99	1658.85
840.16	1755.11
840.33	1718.25
840.50	1677.29
840.67	1656.81
840.84	1542.12
841.01	1744.87
841.18	1662.95
841.35	1628.14
841.52	1798.12
841.69	1865.70
841.86	1720.29
842.03	1681.38
842.20	1779.68
842.37	1648.61
842.54	1736.68
842.71	1691.62
842.88	1587.18
843.05	1705.96
843.22	1632.23
843.39	1718.25
843.56	1705.96
843.73	1722.34
843.90	1726.44
844.07	1685.48
844.24	1720.29
844.41	1677.29
844.58	1708.01
844.75	1699.81
844.92	1685.48
845.09	1722.34
845.26	1652.71
845.43	1775.59
845.60	1730.53
845.77	1728.49
845.94	1699.81
846.10	1736.68
846.27	1607.66
846.44	1667.05
846.61	1621.99
846.78	1718.25
846.95	1718.25
847.12	1689.57
847.29	1660.90
847.46	1660.90
847.63	1761.25
847.80	1632.23
847.97	1619.94
848.14	1826.79
848.31	1693.67
848.48	1591.27
848.65	1697.77
848.82	1611.75
848.98	1796.07
849.15	1742.82
849.32	1763.30
849.49	1714.15
849.66	1695.72
849.83	1738.73
850.00	1583.08
850.17	1703.91
850.34	1722.34
850.51	1673.19
850.68	1691.62
850.85	1880.04
851.01	1738.73
851.18	1687.53
851.35	1701.86
851.52	1691.62
851.69	1853.41
851.86	1564.65
852.03	1701.86
852.20	1763.30
852.37	1693.67
852.53	1708.01
852.70	1681.38
852.87	1689.57
853.04	1701.86
853.21	1687.53
853.38	1714.15
853.55	1769.44
853.72	1806.31
853.89	1705.96
854.05	1656.81
854.22	1697.77
854.39	1648.61
854.56	1669.09
854.73	1783.78
854.90	1603.56
855.07	1757.16
855.23	1699.81
855.40	1699.81
855.57	1646.57
855.74	1517.54
855.91	1902.56
856.08	1665.00
856.25	1576.94
856.41	1652.71
856.58	1624.04
856.75	1708.01
856.92	1697.77
857.09	1738.73
857.26	1613.80
857.42	1656.81
857.59	1722.34
857.76	1767.40
857.93	1665.00
858.10	1712.10
858.27	1705.96
858.43	1773.54
858.60	1667.05
858.77	1605.61
858.94	1656.81
859.11	1755.11
859.27	1650.66
859.44	1716.20
859.61	1751.01
859.78	1714.15
859.95	1685.48
860.12	1658.85
860.28	1779.68
860.45	1867.75
860.62	1701.86
860.79	1802.21
860.95	1705.96
861.12	1636.33
861.29	1712.10
861.46	1677.29
861.63	1613.80
861.79	1693.67
861.96	1695.72
862.13	1624.04
862.30	1785.83
862.47	1710.05
862.63	1699.81
862.80	1828.84
862.97	1826.79
863.14	1740.77
863.30	1652.71
863.47	1718.25
863.64	1716.20
863.81	1732.58
863.97	1665.00
864.14	1724.39
864.31	1652.71
864.48	1720.29
864.65	1675.24
864.81	1763.30
864.98	1693.67
865.15	1748.97
865.32	1736.68
865.48	1806.31
865.65	1732.58
865.82	1675.24
865.98	1751.01
866.15	1708.01
866.32	1660.90
866.49	1705.96
866.65	1708.01
866.82	1658.85
866.99	1667.05
867.16	1642.47
867.32	1648.61
867.49	1683.43
867.66	1710.05
867.83	1626.09
867.99	1621.99
868.16	1708.01
868.33	1583.08
868.49	1671.14
868.66	1662.95
868.83	1796.07
868.99	1693.67
869.16	1683.43
869.33	1691.62
869.50	1712.10
869.66	1628.14
869.83	1603.56
870.00	1675.24
870.16	1787.88
870.33	1697.77
870.50	1757.16
870.66	1742.82
870.83	1810.40
871.00	1667.05
871.17	1708.01
871.33	1720.29
871.50	1691.62
871.67	1714.15
871.83	1587.18
872.00	1808.36
872.17	1738.73
872.33	1791.97
872.50	1779.68
872.67	1689.57
872.83	1699.81
873.00	1742.82
873.17	1751.01
873.33	1722.34
873.50	1722.34
873.67	1652.71
873.83	1597.42
874.00	1695.72
874.16	1751.01
874.33	1673.19
874.50	1675.24
874.66	1736.68
874.83	1722.34
875.00	1712.10
875.16	1830.88
875.33	1781.73
875.50	1581.03
875.66	1650.66
875.83	1638.38
875.99	1736.68
876.16	1785.83
876.33	1667.05
876.49	1665.00
876.66	1687.53
876.83	1720.29
876.99	1644.52
877.16	1642.47
877.32	1744.87
877.49	1621.99
877.66	1771.49
877.82	1714.15
877.99	1714.15
878.15	1728.49
878.32	1716.20
878.49	1679.33
878.65	1628.14
878.82	1800.16
878.98	1712.10
879.15	1791.97
879.32	1761.25
879.48	1697.77
879.65	1691.62
879.81	1632.23
879.98	1691.62
880.15	1650.66
880.31	1755.11
880.48	1685.48
880.64	1742.82
880.81	1744.87
880.97	1826.79
881.14	1771.49
881.31	1701.86
881.47	1802.21
881.64	1722.34
881.80	1562.60
881.97	1681.38
882.13	1742.82
882.30	1667.05
882.47	1568.74
882.63	1642.47
882.80	1650.66
882.96	1650.66
883.13	1705.96
883.29	1695.72
883.46	1722.34
883.62	1869.80
883.79	1683.43
883.95	1746.92
884.12	1712.10
884.29	1748.97
884.45	1714.15
884.62	1732.58
884.78	1652.71
884.95	1714.15
885.11	1701.86
885.28	1646.57
885.44	1683.43
885.61	1812.45
885.77	1796.07
885.94	1710.05
886.10	1734.63
886.27	1703.91
886.43	1798.12
886.60	1712.10
886.76	1705.96
886.93	1683.43
887.09	1646.57
887.26	1613.80
887.42	1658.85
887.59	1683.43
887.75	1800.16
887.92	1742.82
888.08	1740.77
888.25	1767.40
888.41	1771.49
888.58	1689.57
888.74	1681.38
888.91	1681.38
>>>>>End Processed Spectral Data<<<<<
