SpectraSuite Data File
++++++++++++++++++++++++++++++++++++
Date: Mon Jun 06 15:45:37 CEST 2016
User: root
Dark Spectrum Present: No
Reference Spectrum Present: No
Number of Sampled Component Spectra: 1
Spectrometers: USB4C02835
Integration Time (usec): 100000 (USB4C02835)
Spectra Averaged: 1 (USB4C02835)
Boxcar Smoothing: 0 (USB4C02835)
Correct for Electrical Dark: No (USB4C02835)
Strobe/Lamp Enabled: No (USB4C02835)
Correct for Detector Non-linearity: No (USB4C02835)
Correct for Stray Light: No (USB4C02835)
Number of Pixels in Processed Spectrum: 3648
>>>>>Begin Processed Spectral Data<<<<<
177.47	1527.78
177.69	1527.78
177.91	1527.78
178.13	1497.07
178.36	1443.82
178.58	1640.42
178.80	1796.07
179.02	1648.61
179.24	1679.33
179.46	1710.05
179.68	1769.44
179.90	1794.02
180.13	1691.62
180.35	1703.91
180.57	1734.63
180.79	1728.49
181.01	1716.20
181.23	1837.03
181.45	1751.01
181.67	1732.58
181.90	1736.68
182.12	1677.29
182.34	1665.00
182.56	1685.48
182.78	1759.21
183.00	1699.81
183.22	1708.01
183.44	1613.80
183.66	1789.92
183.89	1771.49
184.11	1677.29
184.33	1765.35
184.55	1798.12
184.77	1724.39
184.99	1724.39
185.21	1648.61
185.43	1832.93
185.65	1781.73
185.87	1789.92
186.10	1847.27
186.32	1861.60
186.54	1669.09
186.76	1685.48
186.98	1724.39
187.20	1656.81
187.42	1744.87
187.64	1705.96
187.86	1703.91
188.08	1751.01
188.30	1763.30
188.52	1697.77
188.75	1796.07
188.97	1865.70
189.19	1695.72
189.41	1726.44
189.63	1808.36
189.85	1687.53
190.07	1677.29
190.29	1640.42
190.51	1728.49
190.73	1615.85
190.95	1810.40
191.17	1716.20
191.39	1624.04
191.61	1708.01
191.84	1714.15
192.06	1679.33
192.28	1656.81
192.50	1886.18
192.72	1744.87
192.94	1714.15
193.16	1781.73
193.38	1779.68
193.60	1681.38
193.82	1708.01
194.04	1847.27
194.26	1744.87
194.48	1775.59
194.70	1679.33
194.92	1730.53
195.14	1781.73
195.36	1605.61
195.58	1667.05
195.80	1773.54
196.02	1648.61
196.24	1708.01
196.46	1746.92
196.69	1683.43
196.91	1849.32
197.13	1716.20
197.35	1603.56
197.57	1851.36
197.79	1824.74
198.01	1648.61
198.23	1691.62
198.45	1767.40
198.67	1634.28
198.89	1732.58
199.11	1738.73
199.33	1626.09
199.55	1572.84
199.77	1726.44
199.99	1771.49
200.21	1720.29
200.43	1761.25
200.65	1695.72
200.87	1658.85
201.09	1730.53
201.31	1685.48
201.53	1755.11
201.75	1820.64
201.97	1759.21
202.19	1763.30
202.41	1746.92
202.63	1853.41
202.85	1798.12
203.07	1763.30
203.29	1732.58
203.51	1691.62
203.73	1693.67
203.95	1869.80
204.17	1742.82
204.39	1796.07
204.61	1712.10
204.83	1710.05
205.05	1761.25
205.27	1824.74
205.49	1820.64
205.71	1697.77
205.93	1662.95
206.15	1726.44
206.37	1712.10
206.59	1738.73
206.81	1714.15
207.03	1656.81
207.25	1673.19
207.47	1757.16
207.69	1695.72
207.91	1761.25
208.13	1740.77
208.34	1673.19
208.56	1710.05
208.78	1789.92
209.00	1658.85
209.22	1720.29
209.44	1759.21
209.66	1730.53
209.88	1730.53
210.10	1732.58
210.32	1683.43
210.54	1804.26
210.76	1734.63
210.98	1783.78
211.20	1603.56
211.42	1685.48
211.64	1810.40
211.86	1740.77
212.08	1669.09
212.30	1757.16
212.52	1695.72
212.74	1779.68
212.96	1683.43
213.17	1765.35
213.39	1722.34
213.61	1857.51
213.83	1656.81
214.05	1578.98
214.27	1783.78
214.49	1595.37
214.71	1687.53
214.93	1763.30
215.15	1697.77
215.37	1710.05
215.59	1615.85
215.81	1783.78
216.03	1826.79
216.24	1705.96
216.46	1648.61
216.68	1689.57
216.90	1712.10
217.12	1818.60
217.34	1744.87
217.56	1699.81
217.78	1800.16
218.00	1773.54
218.22	1720.29
218.44	1751.01
218.66	1722.34
218.87	1798.12
219.09	1734.63
219.31	1771.49
219.53	1732.58
219.75	1671.14
219.97	1714.15
220.19	1726.44
220.41	1691.62
220.63	1759.21
220.85	1701.86
221.06	1705.96
221.28	1845.22
221.50	1695.72
221.72	1697.77
221.94	1734.63
222.16	1681.38
222.38	1744.87
222.60	1767.40
222.82	1638.38
223.03	1746.92
223.25	1658.85
223.47	1789.92
223.69	1802.21
223.91	1781.73
224.13	1765.35
224.35	1693.67
224.57	1773.54
224.78	1804.26
225.00	1681.38
225.22	1722.34
225.44	1701.86
225.66	1671.14
225.88	1605.61
226.10	1714.15
226.32	1720.29
226.53	1802.21
226.75	1687.53
226.97	1656.81
227.19	1681.38
227.41	1642.47
227.63	1615.85
227.85	1640.42
228.06	1718.25
228.28	1712.10
228.50	1865.70
228.72	1716.20
228.94	1697.77
229.16	1630.18
229.37	1714.15
229.59	1673.19
229.81	1798.12
230.03	1765.35
230.25	1652.71
230.47	1581.03
230.69	1605.61
230.90	1722.34
231.12	1748.97
231.34	1701.86
231.56	1720.29
231.78	1656.81
232.00	1738.73
232.21	1671.14
232.43	1724.39
232.65	1619.94
232.87	1722.34
233.09	1601.51
233.30	1701.86
233.52	1701.86
233.74	1736.68
233.96	1728.49
234.18	1781.73
234.40	1677.29
234.61	1859.56
234.83	1660.90
235.05	1644.52
235.27	1761.25
235.49	1757.16
235.70	1759.21
235.92	1734.63
236.14	1763.30
236.36	1916.90
236.58	1679.33
236.79	1701.86
237.01	1720.29
237.23	1730.53
237.45	1859.56
237.67	1603.56
237.88	1699.81
238.10	1771.49
238.32	1673.19
238.54	1710.05
238.76	1644.52
238.97	1681.38
239.19	1617.90
239.41	1789.92
239.63	1710.05
239.85	1675.24
240.06	1677.29
240.28	1665.00
240.50	1724.39
240.72	1695.72
240.93	1763.30
241.15	1763.30
241.37	1708.01
241.59	1740.77
241.81	1630.18
242.02	1773.54
242.24	1757.16
242.46	1748.97
242.68	1726.44
242.89	1724.39
243.11	1701.86
243.33	1753.06
243.55	1746.92
243.76	1757.16
243.98	1675.24
244.20	1763.30
244.42	1646.57
244.64	1744.87
244.85	1652.71
245.07	1650.66
245.29	1683.43
245.51	1751.01
245.72	1685.48
245.94	1806.31
246.16	1720.29
246.38	1773.54
246.59	1662.95
246.81	1689.57
247.03	1634.28
247.24	1609.70
247.46	1728.49
247.68	1751.01
247.90	1724.39
248.11	1632.23
248.33	1783.78
248.55	1699.81
248.77	1785.83
248.98	1738.73
249.20	1816.55
249.42	1705.96
249.64	1701.86
249.85	1732.58
250.07	1646.57
250.29	1712.10
250.50	1824.74
250.72	1695.72
250.94	1738.73
251.16	1808.36
251.37	1800.16
251.59	1689.57
251.81	1718.25
252.02	1794.02
252.24	1726.44
252.46	1834.98
252.68	1708.01
252.89	1675.24
253.11	1628.14
253.33	1880.04
253.54	1757.16
253.76	1710.05
253.98	1701.86
254.20	1705.96
254.41	1648.61
254.63	1755.11
254.85	1628.14
255.06	1665.00
255.28	1796.07
255.50	1685.48
255.71	1652.71
255.93	1642.47
256.15	1683.43
256.36	1691.62
256.58	1662.95
256.80	1748.97
257.02	1712.10
257.23	1681.38
257.45	1708.01
257.67	1724.39
257.88	1667.05
258.10	1744.87
258.32	1695.72
258.53	1730.53
258.75	1783.78
258.97	1699.81
259.18	1720.29
259.40	1751.01
259.62	1753.06
259.83	1826.79
260.05	1699.81
260.27	1918.95
260.48	1767.40
260.70	1581.03
260.92	1601.51
261.13	1705.96
261.35	1712.10
261.57	1738.73
261.78	1644.52
262.00	1708.01
262.22	1785.83
262.43	1658.85
262.65	1748.97
262.86	1652.71
263.08	1751.01
263.30	1640.42
263.51	1591.27
263.73	1722.34
263.95	1765.35
264.16	1701.86
264.38	1734.63
264.60	1757.16
264.81	1753.06
265.03	1710.05
265.25	1794.02
265.46	1732.58
265.68	1755.11
265.89	1685.48
266.11	1650.66
266.33	1771.49
266.54	1773.54
266.76	1724.39
266.98	1806.31
267.19	1779.68
267.41	1771.49
267.62	1683.43
267.84	1660.90
268.06	1722.34
268.27	1757.16
268.49	1834.98
268.70	1839.08
268.92	1677.29
269.14	1660.90
269.35	1595.37
269.57	1714.15
269.79	1796.07
270.00	1654.76
270.22	1855.46
270.43	1705.96
270.65	1654.76
270.87	1753.06
271.08	1779.68
271.30	1787.88
271.51	1753.06
271.73	1759.21
271.95	1785.83
272.16	1777.64
272.38	1740.77
272.59	1703.91
272.81	1720.29
273.02	1728.49
273.24	1767.40
273.46	1738.73
273.67	1615.85
273.89	1640.42
274.10	1722.34
274.32	1759.21
274.54	1730.53
274.75	1742.82
274.97	1679.33
275.18	1697.77
275.40	1714.15
275.61	1765.35
275.83	1748.97
276.05	1599.46
276.26	1636.33
276.48	1775.59
276.69	1820.64
276.91	1720.29
277.12	1859.56
277.34	1802.21
277.55	1675.24
277.77	1730.53
277.99	1675.24
278.20	1662.95
278.42	1677.29
278.63	1718.25
278.85	1685.48
279.06	1673.19
279.28	1669.09
279.49	1699.81
279.71	1699.81
279.93	1740.77
280.14	1689.57
280.36	1675.24
280.57	1746.92
280.79	1759.21
281.00	1689.57
281.22	1685.48
281.43	1761.25
281.65	1648.61
281.86	1621.99
282.08	1669.09
282.29	1806.31
282.51	1656.81
282.73	1652.71
282.94	1599.46
283.16	1714.15
283.37	1904.61
283.59	1738.73
283.80	1751.01
284.02	1677.29
284.23	1730.53
284.45	1669.09
284.66	1724.39
284.88	1689.57
285.09	1720.29
285.31	1679.33
285.52	1687.53
285.74	1630.18
285.95	1812.45
286.17	1705.96
286.38	1775.59
286.60	1689.57
286.81	1703.91
287.03	1695.72
287.24	1730.53
287.46	1824.74
287.67	1816.55
287.89	1777.64
288.10	1695.72
288.32	1779.68
288.53	1779.68
288.75	1705.96
288.96	1755.11
289.18	1644.52
289.39	1671.14
289.61	1794.02
289.82	1802.21
290.04	1708.01
290.25	1632.23
290.47	1710.05
290.68	1708.01
290.90	1812.45
291.11	1650.66
291.33	1724.39
291.54	1642.47
291.76	1665.00
291.97	1763.30
292.18	1701.86
292.40	1697.77
292.61	1585.13
292.83	1880.04
293.04	1705.96
293.26	1693.67
293.47	1642.47
293.69	1665.00
293.90	1714.15
294.12	1718.25
294.33	1769.44
294.55	1720.29
294.76	1755.11
294.97	1828.84
295.19	1861.60
295.40	1742.82
295.62	1724.39
295.83	1822.69
296.05	1781.73
296.26	1755.11
296.48	1687.53
296.69	1665.00
296.90	1699.81
297.12	1753.06
297.33	1832.93
297.55	1685.48
297.76	1703.91
297.98	1712.10
298.19	1701.86
298.41	1726.44
298.62	1677.29
298.83	1794.02
299.05	1761.25
299.26	1714.15
299.48	1636.33
299.69	1736.68
299.90	1738.73
300.12	1652.71
300.33	1828.84
300.55	1685.48
300.76	1658.85
300.98	1714.15
301.19	1718.25
301.40	1705.96
301.62	1665.00
301.83	1824.74
302.05	1767.40
302.26	1669.09
302.47	1751.01
302.69	1665.00
302.90	1683.43
303.12	1605.61
303.33	1720.29
303.54	1918.95
303.76	1691.62
303.97	1738.73
304.19	1742.82
304.40	1671.14
304.61	1714.15
304.83	1802.21
305.04	1775.59
305.26	1755.11
305.47	1683.43
305.68	1658.85
305.90	1556.46
306.11	1771.49
306.33	1591.27
306.54	1679.33
306.75	1718.25
306.97	1603.56
307.18	1689.57
307.39	1656.81
307.61	1744.87
307.82	1693.67
308.04	1822.69
308.25	1654.76
308.46	1771.49
308.68	1730.53
308.89	1720.29
309.10	1808.36
309.32	1681.38
309.53	1748.97
309.74	1783.78
309.96	1673.19
310.17	1773.54
310.39	1621.99
310.60	1771.49
310.81	1667.05
311.03	1708.01
311.24	1755.11
311.45	1720.29
311.67	1855.46
311.88	1697.77
312.09	1697.77
312.31	1654.76
312.52	1665.00
312.73	1714.15
312.95	1701.86
313.16	1671.14
313.37	1816.55
313.59	1730.53
313.80	1775.59
314.01	1748.97
314.23	1650.66
314.44	1691.62
314.65	1615.85
314.87	1716.20
315.08	1656.81
315.29	1677.29
315.51	1642.47
315.72	1710.05
315.93	1791.97
316.15	1814.50
316.36	1671.14
316.57	1746.92
316.79	1685.48
317.00	1722.34
317.21	1777.64
317.43	1632.23
317.64	1642.47
317.85	1636.33
318.07	1638.38
318.28	1771.49
318.49	1849.32
318.70	1918.95
318.92	1834.98
319.13	1853.41
319.34	1798.12
319.56	1810.40
319.77	1744.87
319.98	1849.32
320.20	1791.97
320.41	1765.35
320.62	1740.77
320.83	1611.75
321.05	1937.38
321.26	1710.05
321.47	1712.10
321.69	1771.49
321.90	1665.00
322.11	1656.81
322.32	1716.20
322.54	1755.11
322.75	1646.57
322.96	1886.18
323.18	1681.38
323.39	1669.09
323.60	1585.13
323.81	1730.53
324.03	1687.53
324.24	1757.16
324.45	1771.49
324.66	1716.20
324.88	1773.54
325.09	1806.31
325.30	1722.34
325.52	1716.20
325.73	1710.05
325.94	1654.76
326.15	1609.70
326.37	1628.14
326.58	1748.97
326.79	1722.34
327.00	1697.77
327.22	1712.10
327.43	1669.09
327.64	1628.14
327.85	1751.01
328.07	1656.81
328.28	1810.40
328.49	1619.94
328.70	1736.68
328.92	1718.25
329.13	1744.87
329.34	1736.68
329.55	1920.99
329.76	1681.38
329.98	1748.97
330.19	1822.69
330.40	1677.29
330.61	1685.48
330.83	1808.36
331.04	1626.09
331.25	1683.43
331.46	1681.38
331.68	1599.46
331.89	1785.83
332.10	1693.67
332.31	1691.62
332.52	1658.85
332.74	1753.06
332.95	1597.42
333.16	1669.09
333.37	1748.97
333.58	1753.06
333.80	1691.62
334.01	1667.05
334.22	1777.64
334.43	1716.20
334.64	1716.20
334.86	1640.42
335.07	1628.14
335.28	1773.54
335.49	1621.99
335.70	1804.26
335.92	1751.01
336.13	1882.08
336.34	1773.54
336.55	1730.53
336.76	1775.59
336.98	1599.46
337.19	1726.44
337.40	1824.74
337.61	1888.23
337.82	1722.34
338.04	1773.54
338.25	1650.66
338.46	1695.72
338.67	1634.28
338.88	1642.47
339.09	1681.38
339.31	1693.67
339.52	1648.61
339.73	1675.24
339.94	1720.29
340.15	1798.12
340.36	1654.76
340.58	1648.61
340.79	1730.53
341.00	1705.96
341.21	1671.14
341.42	1796.07
341.63	1640.42
341.85	1853.41
342.06	1701.86
342.27	1669.09
342.48	1720.29
342.69	1642.47
342.90	1669.09
343.12	1699.81
343.33	1712.10
343.54	1775.59
343.75	1728.49
343.96	1685.48
344.17	1648.61
344.38	1732.58
344.60	1701.86
344.81	1675.24
345.02	1720.29
345.23	1722.34
345.44	1771.49
345.65	1740.77
345.86	1830.88
346.07	1720.29
346.29	1636.33
346.50	1791.97
346.71	1681.38
346.92	1751.01
347.13	1839.08
347.34	1697.77
347.55	1724.39
347.76	1726.44
347.98	1669.09
348.19	1683.43
348.40	1638.38
348.61	1675.24
348.82	1783.78
349.03	1738.73
349.24	1726.44
349.45	1755.11
349.66	1665.00
349.88	1708.01
350.09	1669.09
350.30	1791.97
350.51	1796.07
350.72	1693.67
350.93	1720.29
351.14	1695.72
351.35	1693.67
351.56	1769.44
351.77	1662.95
351.99	1708.01
352.20	1869.80
352.41	1777.64
352.62	1607.66
352.83	1712.10
353.04	1705.96
353.25	1630.18
353.46	1798.12
353.67	1773.54
353.88	1624.04
354.09	1617.90
354.30	1689.57
354.52	1689.57
354.73	1650.66
354.94	1689.57
355.15	1679.33
355.36	1740.77
355.57	1751.01
355.78	1810.40
355.99	1730.53
356.20	1652.71
356.41	1785.83
356.62	1703.91
356.83	1740.77
357.04	1781.73
357.25	1632.23
357.46	1751.01
357.68	1650.66
357.89	1699.81
358.10	1685.48
358.31	1667.05
358.52	1755.11
358.73	1673.19
358.94	1638.38
359.15	1718.25
359.36	1693.67
359.57	1779.68
359.78	1681.38
359.99	1732.58
360.20	1687.53
360.41	1742.82
360.62	1837.03
360.83	1705.96
361.04	1705.96
361.25	1740.77
361.46	1765.35
361.67	1796.07
361.88	1783.78
362.09	1796.07
362.30	1673.19
362.51	1650.66
362.72	1746.92
362.93	1761.25
363.14	1742.82
363.35	1703.91
363.56	1773.54
363.78	1740.77
363.99	1748.97
364.20	1703.91
364.41	1748.97
364.62	1884.13
364.83	1708.01
365.04	1710.05
365.25	1697.77
365.46	1787.88
365.67	1675.24
365.88	1640.42
366.09	1728.49
366.30	1695.72
366.51	1728.49
366.72	1615.85
366.93	1665.00
367.14	1720.29
367.35	1748.97
367.56	1785.83
367.77	1861.60
367.98	1726.44
368.18	1710.05
368.39	1769.44
368.60	1632.23
368.81	1763.30
369.02	1697.77
369.23	1685.48
369.44	1583.08
369.65	1630.18
369.86	1779.68
370.07	1787.88
370.28	1701.86
370.49	1755.11
370.70	1757.16
370.91	1642.47
371.12	1701.86
371.33	1761.25
371.54	1691.62
371.75	1822.69
371.96	1593.32
372.17	1650.66
372.38	1695.72
372.59	1783.78
372.80	1720.29
373.01	1671.14
373.22	1736.68
373.43	1705.96
373.64	1669.09
373.85	1742.82
374.06	1796.07
374.26	1761.25
374.47	1740.77
374.68	1779.68
374.89	1695.72
375.10	1730.53
375.31	1740.77
375.52	1791.97
375.73	1718.25
375.94	1617.90
376.15	1849.32
376.36	1705.96
376.57	1609.70
376.78	1681.38
376.99	1740.77
377.20	1779.68
377.40	1746.92
377.61	1834.98
377.82	1671.14
378.03	1728.49
378.24	1740.77
378.45	1708.01
378.66	1722.34
378.87	1683.43
379.08	1591.27
379.29	1710.05
379.50	1697.77
379.71	1755.11
379.91	1791.97
380.12	1693.67
380.33	1671.14
380.54	1632.23
380.75	1638.38
380.96	1755.11
381.17	1732.58
381.38	1748.97
381.59	1773.54
381.80	1763.30
382.00	1861.60
382.21	1779.68
382.42	1802.21
382.63	1863.65
382.84	1794.02
383.05	1753.06
383.26	1810.40
383.47	1742.82
383.68	1759.21
383.88	1726.44
384.09	1781.73
384.30	1863.65
384.51	1775.59
384.72	1638.38
384.93	1691.62
385.14	1718.25
385.35	1816.55
385.55	1650.66
385.76	1736.68
385.97	1708.01
386.18	1667.05
386.39	1662.95
386.60	1693.67
386.81	1697.77
387.02	1732.58
387.22	1751.01
387.43	1751.01
387.64	1812.45
387.85	1886.18
388.06	2144.22
388.27	4165.57
388.48	6705.05
388.68	8136.58
388.89	9488.24
389.10	9783.15
389.31	8421.25
389.52	7534.48
389.73	6672.28
389.93	6156.19
390.14	5830.57
390.35	5072.82
390.56	4638.65
390.77	3772.36
390.98	3078.10
391.18	2545.63
391.39	2136.03
391.60	1849.32
391.81	1904.61
392.02	1722.34
392.23	1845.22
392.43	1789.92
392.64	1781.73
392.85	1742.82
393.06	1806.31
393.27	1650.66
393.47	1683.43
393.68	1722.34
393.89	1699.81
394.10	1877.99
394.31	1640.42
394.52	1671.14
394.72	1642.47
394.93	1796.07
395.14	1615.85
395.35	1730.53
395.56	1736.68
395.76	1746.92
395.97	1769.44
396.18	1886.18
396.39	1853.41
396.60	1992.67
396.80	1900.52
397.01	1886.18
397.22	1779.68
397.43	1843.17
397.64	1716.20
397.84	1789.92
398.05	1892.32
398.26	1843.17
398.47	1818.60
398.67	1875.94
398.88	1660.90
399.09	1746.92
399.30	1697.77
399.51	1806.31
399.71	1624.04
399.92	1791.97
400.13	1796.07
400.34	1677.29
400.54	1732.58
400.75	1841.12
400.96	1789.92
401.17	1787.88
401.37	1759.21
401.58	1628.14
401.79	1681.38
402.00	1845.22
402.21	1980.39
402.41	1974.24
402.62	2009.06
402.83	2002.91
403.04	2041.82
403.24	2105.31
403.45	1816.55
403.66	1855.46
403.87	1912.80
404.07	1894.37
404.28	1908.71
404.49	1771.49
404.70	1714.15
404.90	1763.30
405.11	1781.73
405.32	1855.46
405.52	1710.05
405.73	1619.94
405.94	1658.85
406.15	1728.49
406.35	1779.68
406.56	1767.40
406.77	1673.19
406.98	1751.01
407.18	1714.15
407.39	1814.50
407.60	1765.35
407.80	1751.01
408.01	1658.85
408.22	1783.78
408.43	1648.61
408.63	1748.97
408.84	1724.39
409.05	1783.78
409.25	1718.25
409.46	1755.11
409.67	1732.58
409.88	1632.23
410.08	1740.77
410.29	1708.01
410.50	1693.67
410.70	1746.92
410.91	1716.20
411.12	1722.34
411.32	1765.35
411.53	1718.25
411.74	1796.07
411.95	1794.02
412.15	1742.82
412.36	1775.59
412.57	1787.88
412.77	1798.12
412.98	1761.25
413.19	1716.20
413.39	1824.74
413.60	1773.54
413.81	1834.98
414.01	1662.95
414.22	1744.87
414.43	1771.49
414.63	1660.90
414.84	1861.60
415.05	1791.97
415.25	1626.09
415.46	1791.97
415.67	1689.57
415.87	1751.01
416.08	1779.68
416.29	1705.96
416.49	1705.96
416.70	1636.33
416.91	1742.82
417.11	1763.30
417.32	1806.31
417.53	1753.06
417.73	1746.92
417.94	1689.57
418.15	1665.00
418.35	1726.44
418.56	1763.30
418.77	1931.23
418.97	1671.14
419.18	1710.05
419.38	1544.17
419.59	1662.95
419.80	1751.01
420.00	1675.24
420.21	1759.21
420.42	1736.68
420.62	1800.16
420.83	1683.43
421.04	1681.38
421.24	1710.05
421.45	1779.68
421.65	1726.44
421.86	1759.21
422.07	1789.92
422.27	1765.35
422.48	1726.44
422.69	1738.73
422.89	1675.24
423.10	1771.49
423.30	1638.38
423.51	1615.85
423.72	1671.14
423.92	1665.00
424.13	1611.75
424.33	1765.35
424.54	1761.25
424.75	1722.34
424.95	1777.64
425.16	1734.63
425.36	1751.01
425.57	1832.93
425.78	1705.96
425.98	1806.31
426.19	1693.67
426.39	1648.61
426.60	1708.01
426.81	1742.82
427.01	1615.85
427.22	1640.42
427.42	1593.32
427.63	1738.73
427.83	1716.20
428.04	1849.32
428.25	1763.30
428.45	1837.03
428.66	1832.93
428.86	1746.92
429.07	1601.51
429.28	1691.62
429.48	1687.53
429.69	1685.48
429.89	1798.12
430.10	1642.47
430.30	1740.77
430.51	1812.45
430.71	1677.29
430.92	1695.72
431.13	1699.81
431.33	1796.07
431.54	1771.49
431.74	1794.02
431.95	1812.45
432.15	1746.92
432.36	1738.73
432.56	1697.77
432.77	1859.56
432.98	1863.65
433.18	1699.81
433.39	1742.82
433.59	1671.14
433.80	1845.22
434.00	1880.04
434.21	1658.85
434.41	1722.34
434.62	1869.80
434.82	1693.67
435.03	1665.00
435.23	1716.20
435.44	1601.51
435.64	1722.34
435.85	1736.68
436.06	1642.47
436.26	1734.63
436.47	1728.49
436.67	1699.81
436.88	1685.48
437.08	1759.21
437.29	1796.07
437.49	1724.39
437.70	1812.45
437.90	1746.92
438.11	1841.12
438.31	1779.68
438.52	1839.08
438.72	1906.66
438.93	1884.13
439.13	1718.25
439.34	1775.59
439.54	1755.11
439.75	1802.21
439.95	1820.64
440.16	1640.42
440.36	1732.58
440.57	1787.88
440.77	1679.33
440.98	1804.26
441.18	1794.02
441.39	1738.73
441.59	1677.29
441.80	1828.84
442.00	1718.25
442.21	1814.50
442.41	1624.04
442.62	1689.57
442.82	1798.12
443.02	1712.10
443.23	1765.35
443.43	1730.53
443.64	1820.64
443.84	1701.86
444.05	1824.74
444.25	1771.49
444.46	1742.82
444.66	1669.09
444.87	1877.99
445.07	1665.00
445.28	1724.39
445.48	1773.54
445.69	1761.25
445.89	1751.01
446.09	1751.01
446.30	2043.87
446.50	2588.63
446.71	3723.21
446.91	4302.78
447.12	4722.62
447.32	4800.44
447.53	4308.93
447.73	3887.04
447.93	3454.92
448.14	3360.72
448.34	3278.80
448.55	2818.00
448.75	2813.91
448.96	2758.61
449.16	2410.46
449.36	2226.14
449.57	2101.22
449.77	1945.57
449.98	1773.54
450.18	1779.68
450.39	1828.84
450.59	1806.31
450.79	1765.35
451.00	1689.57
451.20	1777.64
451.41	1685.48
451.61	1765.35
451.81	1724.39
452.02	1847.27
452.22	1656.81
452.43	1695.72
452.63	1701.86
452.84	1728.49
453.04	1634.28
453.24	1644.52
453.45	1693.67
453.65	1769.44
453.86	1798.12
454.06	1681.38
454.26	1765.35
454.47	1697.77
454.67	1853.41
454.87	1712.10
455.08	1738.73
455.28	1806.31
455.49	1753.06
455.69	1650.66
455.89	1841.12
456.10	1751.01
456.30	1693.67
456.51	1732.58
456.71	1771.49
456.91	1779.68
457.12	1796.07
457.32	1705.96
457.52	1665.00
457.73	1773.54
457.93	1732.58
458.14	1736.68
458.34	1660.90
458.54	1710.05
458.75	1687.53
458.95	1775.59
459.15	1845.22
459.36	1693.67
459.56	1771.49
459.76	1826.79
459.97	1785.83
460.17	1763.30
460.37	1814.50
460.58	1710.05
460.78	1796.07
460.99	1703.91
461.19	1757.16
461.39	1687.53
461.60	1662.95
461.80	1808.36
462.00	1642.47
462.21	1728.49
462.41	1769.44
462.61	1742.82
462.82	1656.81
463.02	1781.73
463.22	1681.38
463.43	1765.35
463.63	1740.77
463.83	1765.35
464.04	1769.44
464.24	1724.39
464.44	1673.19
464.64	1755.11
464.85	1767.40
465.05	1716.20
465.25	1791.97
465.46	1662.95
465.66	1673.19
465.86	1808.36
466.07	1726.44
466.27	1671.14
466.47	1656.81
466.68	1685.48
466.88	1783.78
467.08	1718.25
467.29	1798.12
467.49	1751.01
467.69	1730.53
467.89	1738.73
468.10	1751.01
468.30	1724.39
468.50	1806.31
468.71	1808.36
468.91	1669.09
469.11	1867.75
469.31	1699.81
469.52	1689.57
469.72	1755.11
469.92	1783.78
470.13	1775.59
470.33	1714.15
470.53	1918.95
470.73	2183.13
470.94	2314.20
471.14	2351.07
471.34	2525.15
471.54	2367.45
471.75	2336.73
471.95	2035.68
472.15	2109.41
472.36	2136.03
472.56	2088.93
472.76	2072.54
472.96	1918.95
473.17	2017.25
473.37	1902.56
473.57	1738.73
473.77	1818.60
473.98	1810.40
474.18	1808.36
474.38	1904.61
474.58	1699.81
474.79	1667.05
474.99	1744.87
475.19	1771.49
475.39	1681.38
475.60	1787.88
475.80	1697.77
476.00	1738.73
476.20	1701.86
476.41	1654.76
476.61	1859.56
476.81	1781.73
477.01	1724.39
477.21	1898.47
477.42	1802.21
477.62	1648.61
477.82	1832.93
478.02	1748.97
478.23	1755.11
478.43	1734.63
478.63	1714.15
478.83	1701.86
479.03	1714.15
479.24	1783.78
479.44	1830.88
479.64	1613.80
479.84	1564.65
480.04	1660.90
480.25	1751.01
480.45	1644.52
480.65	1718.25
480.85	1814.50
481.06	1730.53
481.26	1705.96
481.46	1753.06
481.66	1777.64
481.86	1689.57
482.06	1837.03
482.27	1599.46
482.47	1722.34
482.67	1693.67
482.87	1734.63
483.07	1734.63
483.28	1691.62
483.48	1783.78
483.68	1671.14
483.88	1705.96
484.08	1619.94
484.29	1671.14
484.49	1712.10
484.69	1708.01
484.89	1767.40
485.09	1808.36
485.29	1834.98
485.50	1740.77
485.70	1703.91
485.90	1767.40
486.10	1636.33
486.30	1740.77
486.50	1769.44
486.71	1726.44
486.91	1845.22
487.11	1751.01
487.31	1703.91
487.51	1810.40
487.71	1650.66
487.91	1648.61
488.12	1722.34
488.32	1589.22
488.52	1644.52
488.72	1628.14
488.92	1767.40
489.12	1804.26
489.32	1769.44
489.53	1779.68
489.73	1703.91
489.93	1759.21
490.13	1669.09
490.33	1695.72
490.53	1771.49
490.73	1824.74
490.94	1689.57
491.14	1787.88
491.34	1888.23
491.54	2146.27
491.74	2609.11
491.94	2891.73
492.14	3057.62
492.34	3000.27
492.54	2764.76
492.75	2471.90
492.95	2435.03
493.15	2389.98
493.35	2252.77
493.55	2265.05
493.75	2123.74
493.95	2121.70
494.15	1986.53
494.35	1923.04
494.56	1861.60
494.76	1783.78
494.96	1832.93
495.16	1810.40
495.36	1744.87
495.56	1701.86
495.76	1740.77
495.96	1714.15
496.16	1615.85
496.36	1875.94
496.56	1699.81
496.77	1746.92
496.97	1689.57
497.17	1898.47
497.37	1736.68
497.57	1718.25
497.77	1681.38
497.97	1769.44
498.17	1742.82
498.37	1742.82
498.57	1755.11
498.77	1714.15
498.97	1791.97
499.17	1902.56
499.38	1755.11
499.58	1787.88
499.78	1818.60
499.98	1861.60
500.18	1685.48
500.38	1710.05
500.58	1927.14
500.78	2574.30
500.98	4487.10
501.18	5945.25
501.38	6608.80
501.58	7100.31
501.78	6535.07
501.98	5527.47
502.18	4966.32
502.38	4427.71
502.58	4079.55
502.78	3729.35
502.98	3610.57
503.18	3446.73
503.38	3168.21
503.59	2830.29
503.79	2691.03
503.99	2416.60
504.19	2246.62
504.39	2217.95
504.59	2285.53
504.79	2119.65
504.99	2041.82
505.19	1939.43
505.39	1884.13
505.59	1968.10
505.79	1904.61
505.99	1931.23
506.19	1763.30
506.39	1898.47
506.59	1763.30
506.79	1755.11
506.99	1820.64
507.19	1691.62
507.39	1753.06
507.59	1697.77
507.79	1646.57
507.99	1701.86
508.19	1732.58
508.39	1751.01
508.59	1744.87
508.79	1851.36
508.99	1855.46
509.19	1665.00
509.39	1785.83
509.59	1791.97
509.79	1683.43
509.99	1746.92
510.19	1777.64
510.39	1771.49
510.59	1736.68
510.79	1685.48
510.99	1673.19
511.19	1771.49
511.39	1849.32
511.59	1761.25
511.79	1804.26
511.99	1746.92
512.19	1839.08
512.38	1785.83
512.58	1701.86
512.78	1759.21
512.98	1822.69
513.18	1828.84
513.38	1665.00
513.58	1789.92
513.78	1642.47
513.98	1658.85
514.18	1746.92
514.38	1679.33
514.58	1722.34
514.78	1767.40
514.98	1722.34
515.18	1722.34
515.38	1771.49
515.58	1894.37
515.78	1703.91
515.98	1693.67
516.18	1736.68
516.38	1669.09
516.57	1701.86
516.77	1771.49
516.97	1759.21
517.17	1714.15
517.37	1644.52
517.57	1869.80
517.77	1693.67
517.97	1732.58
518.17	1695.72
518.37	1634.28
518.57	1724.39
518.77	1761.25
518.97	1718.25
519.16	1742.82
519.36	1806.31
519.56	1681.38
519.76	1726.44
519.96	1763.30
520.16	1843.17
520.36	1679.33
520.56	1906.66
520.76	1763.30
520.96	1701.86
521.16	1832.93
521.35	1767.40
521.55	1843.17
521.75	1781.73
521.95	1703.91
522.15	1755.11
522.35	1650.66
522.55	1746.92
522.75	1830.88
522.95	1759.21
523.14	1652.71
523.34	1675.24
523.54	1722.34
523.74	1814.50
523.94	1681.38
524.14	1665.00
524.34	1837.03
524.54	1843.17
524.73	1646.57
524.93	1798.12
525.13	1769.44
525.33	1712.10
525.53	1937.38
525.73	1767.40
525.93	1822.69
526.13	1744.87
526.32	1646.57
526.52	1798.12
526.72	1812.45
526.92	1693.67
527.12	1708.01
527.32	1691.62
527.52	1755.11
527.71	1755.11
527.91	1781.73
528.11	1730.53
528.31	1824.74
528.51	1724.39
528.71	1791.97
528.90	1705.96
529.10	1882.08
529.30	1787.88
529.50	1634.28
529.70	1748.97
529.90	1751.01
530.09	1724.39
530.29	1650.66
530.49	1767.40
530.69	1902.56
530.89	1808.36
531.09	1814.50
531.28	1775.59
531.48	1826.79
531.68	1820.64
531.88	1791.97
532.08	1796.07
532.28	1689.57
532.47	1730.53
532.67	1849.32
532.87	1791.97
533.07	1708.01
533.27	1771.49
533.46	1757.16
533.66	1767.40
533.86	1722.34
534.06	1710.05
534.26	1765.35
534.45	1824.74
534.65	1771.49
534.85	1800.16
535.05	1732.58
535.25	1779.68
535.44	1701.86
535.64	1716.20
535.84	1724.39
536.04	1697.77
536.24	1746.92
536.43	1695.72
536.63	1751.01
536.83	1765.35
537.03	1689.57
537.22	1736.68
537.42	1708.01
537.62	1726.44
537.82	1742.82
538.02	1888.23
538.21	1785.83
538.41	1957.86
538.61	1738.73
538.81	1834.98
539.00	1787.88
539.20	1603.56
539.40	1736.68
539.60	1757.16
539.79	1765.35
539.99	1689.57
540.19	1697.77
540.39	1748.97
540.58	1824.74
540.78	1769.44
540.98	1777.64
541.18	1830.88
541.37	1724.39
541.57	1730.53
541.77	1746.92
541.97	1703.91
542.16	1656.81
542.36	1716.20
542.56	1843.17
542.76	1867.75
542.95	1791.97
543.15	1748.97
543.35	1751.01
543.54	1615.85
543.74	1757.16
543.94	1800.16
544.14	1734.63
544.33	1732.58
544.53	1691.62
544.73	1806.31
544.93	1705.96
545.12	1740.77
545.32	1728.49
545.52	1796.07
545.71	1722.34
545.91	1695.72
546.11	1744.87
546.30	1708.01
546.50	1751.01
546.70	1718.25
546.90	1785.83
547.09	1505.26
547.29	1765.35
547.49	1800.16
547.68	1689.57
547.88	1714.15
548.08	1771.49
548.27	2201.57
548.47	1687.53
548.67	1767.40
548.87	1781.73
549.06	1705.96
549.26	1800.16
549.46	1712.10
549.65	1744.87
549.85	1693.67
550.05	1824.74
550.24	1632.23
550.44	1748.97
550.64	1718.25
550.83	1697.77
551.03	1800.16
551.23	1834.98
551.42	1791.97
551.62	1744.87
551.82	1759.21
552.01	1638.38
552.21	1822.69
552.41	1699.81
552.60	1869.80
552.80	1798.12
553.00	1701.86
553.19	1691.62
553.39	1865.70
553.59	1701.86
553.78	1806.31
553.98	1751.01
554.17	1681.38
554.37	1738.73
554.57	1730.53
554.76	1697.77
554.96	1730.53
555.16	1787.88
555.35	1765.35
555.55	1730.53
555.75	1791.97
555.94	1742.82
556.14	1628.14
556.33	1722.34
556.53	1701.86
556.73	1687.53
556.92	1828.84
557.12	1832.93
557.32	1802.21
557.51	1849.32
557.71	1759.21
557.90	1851.36
558.10	1853.41
558.30	1732.58
558.49	1779.68
558.69	1714.15
558.88	1730.53
559.08	1728.49
559.28	1716.20
559.47	1705.96
559.67	1759.21
559.86	1894.37
560.06	1761.25
560.26	1769.44
560.45	1773.54
560.65	1697.77
560.84	1810.40
561.04	1794.02
561.24	1714.15
561.43	1740.77
561.63	1957.86
561.82	1779.68
562.02	1781.73
562.22	1687.53
562.41	1783.78
562.61	1787.88
562.80	1763.30
563.00	1906.66
563.19	1812.45
563.39	1820.64
563.59	1767.40
563.78	1630.18
563.98	1665.00
564.17	1675.24
564.37	1568.74
564.56	1767.40
564.76	1740.77
564.96	1820.64
565.15	1755.11
565.35	1877.99
565.54	1667.05
565.74	1769.44
565.93	1710.05
566.13	1869.80
566.32	1806.31
566.52	1794.02
566.71	1791.97
566.91	1818.60
567.11	1808.36
567.30	1695.72
567.50	1759.21
567.69	1759.21
567.89	1777.64
568.08	1687.53
568.28	1791.97
568.47	1820.64
568.67	1693.67
568.86	1714.15
569.06	1705.96
569.25	1746.92
569.45	1695.72
569.64	1675.24
569.84	1744.87
570.04	1716.20
570.23	1738.73
570.43	1642.47
570.62	1802.21
570.82	1892.32
571.01	1701.86
571.21	1726.44
571.40	1734.63
571.60	1800.16
571.79	1730.53
571.99	1773.54
572.18	1642.47
572.38	1841.12
572.57	1669.09
572.77	1796.07
572.96	1892.32
573.16	1822.69
573.35	1656.81
573.55	1791.97
573.74	1759.21
573.94	1701.86
574.13	1728.49
574.33	1861.60
574.52	1748.97
574.71	1820.64
574.91	1804.26
575.10	1669.09
575.30	1796.07
575.49	1773.54
575.69	1703.91
575.88	1777.64
576.08	1728.49
576.27	1828.84
576.47	1730.53
576.66	1888.23
576.86	1755.11
577.05	1826.79
577.25	1824.74
577.44	1880.04
577.64	1773.54
577.83	1751.01
578.02	1757.16
578.22	1738.73
578.41	1853.41
578.61	1785.83
578.80	1697.77
579.00	1798.12
579.19	1681.38
579.39	1816.55
579.58	1798.12
579.77	1767.40
579.97	1845.22
580.16	1920.99
580.36	1740.77
580.55	1857.51
580.75	1742.82
580.94	1783.78
581.13	1880.04
581.33	1839.08
581.52	1718.25
581.72	1896.42
581.91	1931.23
582.11	1642.47
582.30	1888.23
582.49	1773.54
582.69	1826.79
582.88	1845.22
583.08	1730.53
583.27	1773.54
583.47	1716.20
583.66	1710.05
583.85	1712.10
584.05	1728.49
584.24	1828.84
584.44	1759.21
584.63	1791.97
584.82	1804.26
585.02	1857.51
585.21	1796.07
585.41	1828.84
585.60	1796.07
585.79	1968.10
585.99	2002.91
586.18	1900.52
586.37	2115.55
586.57	3420.11
586.76	9860.97
586.96	23963.28
587.15	33838.59
587.34	39884.19
587.54	41772.42
587.73	35958.24
587.93	26164.85
588.12	21468.86
588.31	17882.86
588.51	16410.37
588.70	15054.62
588.89	13954.86
589.09	12492.61
589.28	10923.87
589.47	9430.90
589.67	7874.44
589.86	6289.31
590.06	4853.69
590.25	3700.68
590.44	3102.67
590.64	2527.19
590.83	2238.43
591.02	2090.98
591.22	1986.53
591.41	1890.28
591.60	1877.99
591.80	2025.44
591.99	1746.92
592.18	1832.93
592.38	1847.27
592.57	1767.40
592.76	1902.56
592.96	1884.13
593.15	1814.50
593.34	1796.07
593.54	1886.18
593.73	1789.92
593.92	1744.87
594.12	1714.15
594.31	1757.16
594.50	1894.37
594.70	1673.19
594.89	1886.18
595.08	1734.63
595.28	1900.52
595.47	1918.95
595.66	1796.07
595.86	1744.87
596.05	1730.53
596.24	1701.86
596.43	1787.88
596.63	1832.93
596.82	1851.36
597.01	1787.88
597.21	1882.08
597.40	1736.68
597.59	1699.81
597.79	1744.87
597.98	1826.79
598.17	1767.40
598.36	1718.25
598.56	1781.73
598.75	1675.24
598.94	1812.45
599.14	1718.25
599.33	1740.77
599.52	1837.03
599.71	1689.57
599.91	1753.06
600.10	1888.23
600.29	1703.91
600.48	1824.74
600.68	1769.44
600.87	1759.21
601.06	1712.10
601.26	1755.11
601.45	1722.34
601.64	1779.68
601.83	1861.60
602.03	1755.11
602.22	1699.81
602.41	1767.40
602.60	1779.68
602.80	1808.36
602.99	1802.21
603.18	1742.82
603.37	1794.02
603.57	1703.91
603.76	1796.07
603.95	1845.22
604.14	1724.39
604.34	1787.88
604.53	1759.21
604.72	1724.39
604.91	1830.88
605.10	1859.56
605.30	1765.35
605.49	1818.60
605.68	1859.56
605.87	1796.07
606.07	1718.25
606.26	1742.82
606.45	1722.34
606.64	1703.91
606.84	1716.20
607.03	1669.09
607.22	1822.69
607.41	1583.08
607.60	1748.97
607.80	1808.36
607.99	1685.48
608.18	1740.77
608.37	1828.84
608.56	1744.87
608.76	1767.40
608.95	1808.36
609.14	1789.92
609.33	1773.54
609.52	1740.77
609.72	1837.03
609.91	1769.44
610.10	1742.82
610.29	1810.40
610.48	1794.02
610.68	1701.86
610.87	1748.97
611.06	1755.11
611.25	1794.02
611.44	1796.07
611.63	1759.21
611.83	1863.65
612.02	1667.05
612.21	1853.41
612.40	1673.19
612.59	1656.81
612.79	1665.00
612.98	1757.16
613.17	1847.27
613.36	1787.88
613.55	1771.49
613.74	1726.44
613.93	1767.40
614.13	1804.26
614.32	1701.86
614.51	1683.43
614.70	1785.83
614.89	1716.20
615.08	1800.16
615.28	2131.94
615.47	1638.38
615.66	1753.06
615.85	1753.06
616.04	1871.84
616.23	1751.01
616.42	1820.64
616.62	1716.20
616.81	1759.21
617.00	1771.49
617.19	1777.64
617.38	1744.87
617.57	1785.83
617.76	1703.91
617.95	1802.21
618.15	1796.07
618.34	1828.84
618.53	1689.57
618.72	1822.69
618.91	1800.16
619.10	1871.84
619.29	1763.30
619.48	1708.01
619.68	1744.87
619.87	1714.15
620.06	1667.05
620.25	1748.97
620.44	1771.49
620.63	1775.59
620.82	1720.29
621.01	1763.30
621.20	1738.73
621.39	1730.53
621.59	1697.77
621.78	1624.04
621.97	1720.29
622.16	1837.03
622.35	1724.39
622.54	1830.88
622.73	1755.11
622.92	1665.00
623.11	1834.98
623.30	1705.96
623.49	1880.04
623.68	1712.10
623.88	1814.50
624.07	1679.33
624.26	1683.43
624.45	1748.97
624.64	1728.49
624.83	1748.97
625.02	1687.53
625.21	1701.86
625.40	1748.97
625.59	1787.88
625.78	1662.95
625.97	1748.97
626.16	1738.73
626.35	1714.15
626.54	1742.82
626.74	1812.45
626.93	1716.20
627.12	1703.91
627.31	1808.36
627.50	1738.73
627.69	1748.97
627.88	1665.00
628.07	1742.82
628.26	1748.97
628.45	1742.82
628.64	1730.53
628.83	1691.62
629.02	1705.96
629.21	1761.25
629.40	1785.83
629.59	1675.24
629.78	1814.50
629.97	1718.25
630.16	1728.49
630.35	1718.25
630.54	1689.57
630.73	1689.57
630.92	1761.25
631.11	1630.18
631.30	1753.06
631.49	1814.50
631.68	1724.39
631.87	1738.73
632.06	1642.47
632.25	1839.08
632.44	1716.20
632.63	1791.97
632.82	1632.23
633.01	1648.61
633.20	1636.33
633.39	1679.33
633.58	1640.42
633.77	1761.25
633.96	1765.35
634.15	1736.68
634.34	1830.88
634.53	1736.68
634.72	1742.82
634.91	1650.66
635.10	1687.53
635.29	1927.14
635.48	1724.39
635.67	1726.44
635.86	1660.90
636.05	1781.73
636.24	1791.97
636.43	1695.72
636.62	1812.45
636.81	1554.41
637.00	1695.72
637.19	1787.88
637.38	1806.31
637.57	1732.58
637.76	1726.44
637.95	1773.54
638.14	1724.39
638.33	1714.15
638.52	1767.40
638.71	1681.38
638.89	1646.57
639.08	1800.16
639.27	1765.35
639.46	1722.34
639.65	1804.26
639.84	1742.82
640.03	1763.30
640.22	1697.77
640.41	1918.95
640.60	1693.67
640.79	1779.68
640.98	1673.19
641.17	1861.60
641.36	1714.15
641.55	1820.64
641.74	1638.38
641.92	1677.29
642.11	1679.33
642.30	1716.20
642.49	1691.62
642.68	1730.53
642.87	1789.92
643.06	1738.73
643.25	1669.09
643.44	1675.24
643.63	1753.06
643.82	1779.68
644.00	1671.14
644.19	1718.25
644.38	1722.34
644.57	1718.25
644.76	1693.67
644.95	1748.97
645.14	1775.59
645.33	1734.63
645.52	1724.39
645.71	1691.62
645.89	1703.91
646.08	1708.01
646.27	1685.48
646.46	1820.64
646.65	1634.28
646.84	1724.39
647.03	1638.38
647.22	1789.92
647.40	1740.77
647.59	1697.77
647.78	1701.86
647.97	1699.81
648.16	1656.81
648.35	1785.83
648.54	1789.92
648.73	1675.24
648.91	1765.35
649.10	1765.35
649.29	1736.68
649.48	1779.68
649.67	1830.88
649.86	1675.24
650.05	1708.01
650.23	1816.55
650.42	1687.53
650.61	1689.57
650.80	1738.73
650.99	1832.93
651.18	1759.21
651.36	1734.63
651.55	1681.38
651.74	1726.44
651.93	1675.24
652.12	1701.86
652.31	1781.73
652.49	1755.11
652.68	1734.63
652.87	1806.31
653.06	1708.01
653.25	1853.41
653.44	1720.29
653.62	1789.92
653.81	1685.48
654.00	1791.97
654.19	1783.78
654.38	1794.02
654.56	1753.06
654.75	1705.96
654.94	1716.20
655.13	1734.63
655.32	1720.29
655.51	1728.49
655.69	1736.68
655.88	1841.12
656.07	1593.32
656.26	1880.04
656.45	1658.85
656.63	1746.92
656.82	1701.86
657.01	1804.26
657.20	1656.81
657.38	1839.08
657.57	1722.34
657.76	1601.51
657.95	1798.12
658.14	1744.87
658.32	1761.25
658.51	1611.75
658.70	1773.54
658.89	1734.63
659.08	1742.82
659.26	1869.80
659.45	1697.77
659.64	1742.82
659.83	1691.62
660.01	1886.18
660.20	1685.48
660.39	1800.16
660.58	1615.85
660.76	1740.77
660.95	1642.47
661.14	1691.62
661.33	1599.46
661.51	1722.34
661.70	1728.49
661.89	1806.31
662.08	1767.40
662.26	1714.15
662.45	1669.09
662.64	1791.97
662.83	1755.11
663.01	1636.33
663.20	1699.81
663.39	1794.02
663.58	1720.29
663.76	1681.38
663.95	1767.40
664.14	1759.21
664.32	1669.09
664.51	1724.39
664.70	1679.33
664.89	1781.73
665.07	1634.28
665.26	1763.30
665.45	1593.32
665.64	1757.16
665.82	1828.84
666.01	1738.73
666.20	1679.33
666.38	1785.83
666.57	1787.88
666.76	2144.22
666.95	4480.96
667.13	10452.83
667.32	15152.92
667.51	17837.81
667.69	18972.38
667.88	17544.95
668.07	12283.72
668.25	9416.56
668.44	8085.38
668.63	7237.52
668.81	6807.45
669.00	6217.63
669.19	5670.83
669.38	5056.43
669.56	4597.69
669.75	3979.20
669.94	3440.59
670.12	2801.62
670.31	2455.51
670.50	2283.49
670.68	2074.59
670.87	1931.23
671.06	1763.30
671.24	1806.31
671.43	1837.03
671.62	1736.68
671.80	1787.88
671.99	1773.54
672.18	1726.44
672.36	1789.92
672.55	1654.76
672.74	1765.35
672.92	1705.96
673.11	1755.11
673.29	1646.57
673.48	1763.30
673.67	1744.87
673.85	1841.12
674.04	1759.21
674.23	1703.91
674.41	1804.26
674.60	1675.24
674.79	1665.00
674.97	1697.77
675.16	1691.62
675.34	1828.84
675.53	1652.71
675.72	1677.29
675.90	1845.22
676.09	1667.05
676.28	1726.44
676.46	1654.76
676.65	1683.43
676.83	1691.62
677.02	1785.83
677.21	1726.44
677.39	1771.49
677.58	1632.23
677.77	1640.42
677.95	1730.53
678.14	1755.11
678.32	1660.90
678.51	1632.23
678.70	1834.98
678.88	1734.63
679.07	1710.05
679.25	1753.06
679.44	1705.96
679.63	1679.33
679.81	1734.63
680.00	1828.84
680.18	1775.59
680.37	1796.07
680.55	1755.11
680.74	1613.80
680.93	1572.84
681.11	1732.58
681.30	1699.81
681.48	1712.10
681.67	1703.91
681.85	1718.25
682.04	1689.57
682.23	1757.16
682.41	1732.58
682.60	1652.71
682.78	1716.20
682.97	1636.33
683.15	1689.57
683.34	1738.73
683.53	1824.74
683.71	1636.33
683.90	1851.36
684.08	1841.12
684.27	1685.48
684.45	1714.15
684.64	1822.69
684.82	1736.68
685.01	1736.68
685.19	1746.92
685.38	1847.27
685.57	1724.39
685.75	1617.90
685.94	1675.24
686.12	1722.34
686.31	1687.53
686.49	1787.88
686.68	1538.02
686.86	1757.16
687.05	1779.68
687.23	1771.49
687.42	1722.34
687.60	1619.94
687.79	1832.93
687.97	1822.69
688.16	1845.22
688.34	1759.21
688.53	1568.74
688.71	1781.73
688.90	1714.15
689.08	1755.11
689.27	1640.42
689.45	1832.93
689.64	1783.78
689.82	1751.01
690.01	1826.79
690.19	1718.25
690.38	1681.38
690.56	1791.97
690.75	1665.00
690.93	1718.25
691.12	1753.06
691.30	1662.95
691.49	1671.14
691.67	1730.53
691.86	1873.89
692.04	1632.23
692.23	1699.81
692.41	1652.71
692.60	1914.85
692.78	1773.54
692.97	1683.43
693.15	1761.25
693.34	1841.12
693.52	1751.01
693.71	1730.53
693.89	1685.48
694.08	1638.38
694.26	1791.97
694.44	1757.16
694.63	1818.60
694.81	1665.00
695.00	1742.82
695.18	1787.88
695.37	1796.07
695.55	1787.88
695.74	1667.05
695.92	1677.29
696.10	1822.69
696.29	1621.99
696.47	1718.25
696.66	1648.61
696.84	1613.80
697.03	1791.97
697.21	1847.27
697.40	2328.54
697.58	1775.59
697.76	1730.53
697.95	1767.40
698.13	1683.43
698.32	1654.76
698.50	1720.29
698.68	1675.24
698.87	1710.05
699.05	1877.99
699.24	1656.81
699.42	1669.09
699.61	1710.05
699.79	1673.19
699.97	1726.44
700.16	1689.57
700.34	1744.87
700.53	1767.40
700.71	1828.84
700.89	1787.88
701.08	1712.10
701.26	1789.92
701.45	2189.28
701.63	1648.61
701.81	1703.91
702.00	1773.54
702.18	1781.73
702.37	1654.76
702.55	1746.92
702.73	1699.81
702.92	1634.28
703.10	1783.78
703.28	1662.95
703.47	1726.44
703.65	1796.07
703.84	1771.49
704.02	1679.33
704.20	1812.45
704.39	1714.15
704.57	1705.96
704.75	1724.39
704.94	1771.49
705.12	1744.87
705.30	1779.68
705.49	2287.58
705.67	4460.48
705.86	9369.46
706.04	12414.79
706.22	14440.23
706.41	15103.77
706.59	13221.69
706.77	9500.53
706.96	7354.26
707.14	6467.49
707.32	5984.16
707.51	5318.57
707.69	4861.88
707.87	4222.91
708.06	3405.77
708.24	2873.30
708.42	2363.36
708.61	2201.57
708.79	1873.89
708.97	1939.43
709.16	1841.12
709.34	1800.16
709.52	1720.29
709.71	1767.40
709.89	1851.36
710.07	1615.85
710.26	1763.30
710.44	1753.06
710.62	1755.11
710.80	1689.57
710.99	1771.49
711.17	1804.26
711.35	1624.04
711.54	1652.71
711.72	1818.60
711.90	1718.25
712.09	1769.44
712.27	1636.33
712.45	1769.44
712.63	1699.81
712.82	1740.77
713.00	1740.77
713.18	1773.54
713.37	1722.34
713.55	1734.63
713.73	1683.43
713.91	1703.91
714.10	1634.28
714.28	1718.25
714.46	1779.68
714.65	1742.82
714.83	1849.32
715.01	1796.07
715.19	1730.53
715.38	1638.38
715.56	1667.05
715.74	1671.14
715.92	1642.47
716.11	1796.07
716.29	1593.32
716.47	1773.54
716.65	1765.35
716.84	1656.81
717.02	1757.16
717.20	1693.67
717.38	1718.25
717.57	1791.97
717.75	1771.49
717.93	1665.00
718.11	1730.53
718.30	1570.79
718.48	1808.36
718.66	1748.97
718.84	1781.73
719.03	1730.53
719.21	1656.81
719.39	1783.78
719.57	1744.87
719.75	1761.25
719.94	1724.39
720.12	1751.01
720.30	1804.26
720.48	1701.86
720.67	1701.86
720.85	1753.06
721.03	1734.63
721.21	1720.29
721.39	1781.73
721.58	1746.92
721.76	1753.06
721.94	1746.92
722.12	1681.38
722.30	1804.26
722.49	1693.67
722.67	1791.97
722.85	1796.07
723.03	1665.00
723.21	1673.19
723.40	1736.68
723.58	1732.58
723.76	1730.53
723.94	1771.49
724.12	1665.00
724.30	1783.78
724.49	1767.40
724.67	1619.94
724.85	1716.20
725.03	1595.37
725.21	1734.63
725.40	1738.73
725.58	1669.09
725.76	1824.74
725.94	1771.49
726.12	1660.90
726.30	1738.73
726.49	1695.72
726.67	1628.14
726.85	1708.01
727.03	1808.36
727.21	2136.03
727.39	2916.31
727.57	3862.47
727.76	4171.71
727.94	4595.64
728.12	4374.46
728.30	3735.50
728.48	2951.12
728.66	2744.28
728.84	2598.87
729.03	2254.81
729.21	2201.57
729.39	1980.39
729.57	1779.68
729.75	1773.54
729.93	1851.36
730.11	1771.49
730.30	1742.82
730.48	1814.50
730.66	1796.07
730.84	1783.78
731.02	1667.05
731.20	1724.39
731.38	1759.21
731.56	1708.01
731.74	1734.63
731.93	1746.92
732.11	1679.33
732.29	1679.33
732.47	1787.88
732.65	1675.24
732.83	1722.34
733.01	1765.35
733.19	1644.52
733.37	1791.97
733.56	1693.67
733.74	1681.38
733.92	1800.16
734.10	1587.18
734.28	1759.21
734.46	1552.36
734.64	1783.78
734.82	1714.15
735.00	1679.33
735.18	1636.33
735.36	1708.01
735.54	1708.01
735.73	1734.63
735.91	1681.38
736.09	1845.22
736.27	1724.39
736.45	1775.59
736.63	1632.23
736.81	1710.05
736.99	1812.45
737.17	1746.92
737.35	1648.61
737.53	1712.10
737.71	1687.53
737.89	1748.97
738.07	1654.76
738.25	1689.57
738.43	1701.86
738.61	1644.52
738.80	1658.85
738.98	1722.34
739.16	1603.56
739.34	1648.61
739.52	1791.97
739.70	1714.15
739.88	1812.45
740.06	1791.97
740.24	1587.18
740.42	1861.60
740.60	1603.56
740.78	1628.14
740.96	1638.38
741.14	1763.30
741.32	1714.15
741.50	1581.03
741.68	1828.84
741.86	1804.26
742.04	1621.99
742.22	1626.09
742.40	1767.40
742.58	1699.81
742.76	1712.10
742.94	1808.36
743.12	1650.66
743.30	1677.29
743.48	1677.29
743.66	1626.09
743.84	1773.54
744.02	1673.19
744.20	1714.15
744.38	1724.39
744.56	1669.09
744.74	1843.17
744.92	1761.25
745.10	1843.17
745.28	1746.92
745.46	1783.78
745.64	1710.05
745.82	1742.82
746.00	1691.62
746.18	1796.07
746.36	1728.49
746.54	1687.53
746.72	1810.40
746.90	1634.28
747.08	1816.55
747.26	1689.57
747.44	1748.97
747.62	1650.66
747.80	1708.01
747.98	1689.57
748.15	1701.86
748.33	1822.69
748.51	1769.44
748.69	1742.82
748.87	1683.43
749.05	1681.38
749.23	1751.01
749.41	1652.71
749.59	1710.05
749.77	1832.93
749.95	1665.00
750.13	1640.42
750.31	1748.97
750.49	1734.63
750.67	1804.26
750.85	1789.92
751.03	1740.77
751.20	1816.55
751.38	1652.71
751.56	1738.73
751.74	1689.57
751.92	1685.48
752.10	1687.53
752.28	1753.06
752.46	1652.71
752.64	1787.88
752.82	1726.44
753.00	1779.68
753.18	1691.62
753.35	1656.81
753.53	1681.38
753.71	1673.19
753.89	1779.68
754.07	1757.16
754.25	1701.86
754.43	1806.31
754.61	1550.31
754.79	1783.78
754.97	1751.01
755.14	1832.93
755.32	1757.16
755.50	1710.05
755.68	1728.49
755.86	1687.53
756.04	1677.29
756.22	1669.09
756.40	1738.73
756.57	1724.39
756.75	1658.85
756.93	1781.73
757.11	1724.39
757.29	1650.66
757.47	1619.94
757.65	1660.90
757.82	1646.57
758.00	1683.43
758.18	1787.88
758.36	1685.48
758.54	1804.26
758.72	1697.77
758.90	1751.01
759.07	1681.38
759.25	1656.81
759.43	1742.82
759.61	1591.27
759.79	2164.70
759.97	1781.73
760.15	1652.71
760.32	1667.05
760.50	1742.82
760.68	1757.16
760.86	1593.32
761.04	1773.54
761.22	1748.97
761.39	1708.01
761.57	1763.30
761.75	1665.00
761.93	1781.73
762.11	1708.01
762.28	1710.05
762.46	1593.32
762.64	1769.44
762.82	1607.66
763.00	1791.97
763.18	1748.97
763.35	1621.99
763.53	1691.62
763.71	1695.72
763.89	1675.24
764.07	1769.44
764.24	1667.05
764.42	1804.26
764.60	1724.39
764.78	1708.01
764.96	1742.82
765.13	1808.36
765.31	1751.01
765.49	1742.82
765.67	1697.77
765.84	1632.23
766.02	1646.57
766.20	1632.23
766.38	1759.21
766.56	1714.15
766.73	1738.73
766.91	1691.62
767.09	1728.49
767.27	1718.25
767.44	1619.94
767.62	1771.49
767.80	1748.97
767.98	1648.61
768.15	1722.34
768.33	1759.21
768.51	1705.96
768.69	1814.50
768.87	1673.19
769.04	1736.68
769.22	1890.28
769.40	1800.16
769.58	1847.27
769.75	1714.15
769.93	1849.32
770.11	1599.46
770.28	1621.99
770.46	1753.06
770.64	1718.25
770.82	1660.90
770.99	1722.34
771.17	1728.49
771.35	1765.35
771.53	1746.92
771.70	1681.38
771.88	1681.38
772.06	1716.20
772.23	1740.77
772.41	1615.85
772.59	1740.77
772.77	1605.61
772.94	1765.35
773.12	1689.57
773.30	1697.77
773.47	1703.91
773.65	1648.61
773.83	1855.46
774.01	1689.57
774.18	1581.03
774.36	1814.50
774.54	1665.00
774.71	1732.58
774.89	1654.76
775.07	1669.09
775.24	1658.85
775.42	1695.72
775.60	1769.44
775.78	1751.01
775.95	1634.28
776.13	1691.62
776.31	1599.46
776.48	1701.86
776.66	1796.07
776.84	1671.14
777.01	1714.15
777.19	1742.82
777.37	1705.96
777.54	1781.73
777.72	1894.37
777.90	1699.81
778.07	1671.14
778.25	1853.41
778.43	1794.02
778.60	1632.23
778.78	1773.54
778.96	1785.83
779.13	1652.71
779.31	1710.05
779.49	1677.29
779.66	1781.73
779.84	1714.15
780.01	1710.05
780.19	1681.38
780.37	1757.16
780.54	1775.59
780.72	1665.00
780.90	1732.58
781.07	1697.77
781.25	1654.76
781.43	1773.54
781.60	1734.63
781.78	1691.62
781.95	1742.82
782.13	1599.46
782.31	1748.97
782.48	1644.52
782.66	1693.67
782.83	1789.92
783.01	1771.49
783.19	1689.57
783.36	1753.06
783.54	1689.57
783.72	1808.36
783.89	1691.62
784.07	1773.54
784.24	1710.05
784.42	1820.64
784.60	1730.53
784.77	1730.53
784.95	1597.42
785.12	1712.10
785.30	1650.66
785.47	1662.95
785.65	1615.85
785.83	1669.09
786.00	1624.04
786.18	1681.38
786.35	1730.53
786.53	1697.77
786.71	1775.59
786.88	1755.11
787.06	1710.05
787.23	1751.01
787.41	1669.09
787.58	1689.57
787.76	1677.29
787.94	1742.82
788.11	1669.09
788.29	1607.66
788.46	1677.29
788.64	1705.96
788.81	1746.92
788.99	1730.53
789.16	1654.76
789.34	1681.38
789.52	1593.32
789.69	1714.15
789.87	1556.46
790.04	1705.96
790.22	1736.68
790.39	1816.55
790.57	1603.56
790.74	1685.48
790.92	1787.88
791.09	1607.66
791.27	1736.68
791.44	1802.21
791.62	1693.67
791.79	1738.73
791.97	1771.49
792.15	1798.12
792.32	1789.92
792.50	1726.44
792.67	1787.88
792.85	1748.97
793.02	1703.91
793.20	1658.85
793.37	1656.81
793.55	1708.01
793.72	1585.13
793.90	1746.92
794.07	1671.14
794.25	1712.10
794.42	1681.38
794.60	1732.58
794.77	1689.57
794.95	1720.29
795.12	1771.49
795.30	1665.00
795.47	1615.85
795.65	1853.41
795.82	1755.11
796.00	1660.90
796.17	1654.76
796.34	1726.44
796.52	1626.09
796.69	1796.07
796.87	1701.86
797.04	1689.57
797.22	1785.83
797.39	1738.73
797.57	1763.30
797.74	1683.43
797.92	1716.20
798.09	1724.39
798.27	1771.49
798.44	1730.53
798.62	1712.10
798.79	1697.77
798.96	1720.29
799.14	1740.77
799.31	1839.08
799.49	1757.16
799.66	1601.51
799.84	1710.05
800.01	1640.42
800.19	1773.54
800.36	1693.67
800.53	1734.63
800.71	1734.63
800.88	1818.60
801.06	1693.67
801.23	1660.90
801.41	1746.92
801.58	1695.72
801.75	1654.76
801.93	1730.53
802.10	1755.11
802.28	1691.62
802.45	1689.57
802.63	1740.77
802.80	1808.36
802.97	1693.67
803.15	1703.91
803.32	1728.49
803.50	1642.47
803.67	1710.05
803.84	1669.09
804.02	1824.74
804.19	1630.18
804.37	1634.28
804.54	1673.19
804.71	1722.34
804.89	1662.95
805.06	1683.43
805.24	1734.63
805.41	1644.52
805.58	1621.99
805.76	1812.45
805.93	1718.25
806.10	1806.31
806.28	1746.92
806.45	1724.39
806.63	1822.69
806.80	1626.09
806.97	1775.59
807.15	1730.53
807.32	1773.54
807.49	1671.14
807.67	1630.18
807.84	1748.97
808.01	1650.66
808.19	1857.51
808.36	1822.69
808.54	1708.01
808.71	1697.77
808.88	1759.21
809.06	1744.87
809.23	1701.86
809.40	1617.90
809.58	1822.69
809.75	1693.67
809.92	1677.29
810.10	1800.16
810.27	1714.15
810.44	1755.11
810.62	1748.97
810.79	1685.48
810.96	1665.00
811.14	1578.98
811.31	1736.68
811.48	1710.05
811.66	1693.67
811.83	1804.26
812.00	1665.00
812.18	1742.82
812.35	1724.39
812.52	1683.43
812.69	1658.85
812.87	1675.24
813.04	1634.28
813.21	1642.47
813.39	1691.62
813.56	1630.18
813.73	1777.64
813.91	1656.81
814.08	1748.97
814.25	1757.16
814.42	1644.52
814.60	1656.81
814.77	1744.87
814.94	1738.73
815.12	1703.91
815.29	1794.02
815.46	1624.04
815.63	1673.19
815.81	1703.91
815.98	1697.77
816.15	1734.63
816.33	1730.53
816.50	1630.18
816.67	1662.95
816.84	1722.34
817.02	1708.01
817.19	1615.85
817.36	1726.44
817.53	1759.21
817.71	1683.43
817.88	1736.68
818.05	1708.01
818.22	1798.12
818.40	1837.03
818.57	1730.53
818.74	1728.49
818.91	1642.47
819.09	1806.31
819.26	1816.55
819.43	1599.46
819.60	1687.53
819.78	1718.25
819.95	1742.82
820.12	1744.87
820.29	1736.68
820.47	1765.35
820.64	1626.09
820.81	1644.52
820.98	1632.23
821.15	1624.04
821.33	1691.62
821.50	1609.70
821.67	1734.63
821.84	1650.66
822.02	1783.78
822.19	1722.34
822.36	1691.62
822.53	1730.53
822.70	1677.29
822.88	1703.91
823.05	1742.82
823.22	1642.47
823.39	1746.92
823.56	1705.96
823.74	1771.49
823.91	1665.00
824.08	1687.53
824.25	1662.95
824.42	1806.31
824.60	1710.05
824.77	1718.25
824.94	1785.83
825.11	1816.55
825.28	1632.23
825.45	1722.34
825.63	1705.96
825.80	1732.58
825.97	1755.11
826.14	1701.86
826.31	1581.03
826.48	1783.78
826.66	1697.77
826.83	1716.20
827.00	1771.49
827.17	1519.59
827.34	1705.96
827.51	1687.53
827.69	1714.15
827.86	1679.33
828.03	1673.19
828.20	1726.44
828.37	1697.77
828.54	1775.59
828.71	1665.00
828.89	1832.93
829.06	1720.29
829.23	1796.07
829.40	1656.81
829.57	1656.81
829.74	1701.86
829.91	1697.77
830.09	1675.24
830.26	1767.40
830.43	1787.88
830.60	1662.95
830.77	1697.77
830.94	1796.07
831.11	1755.11
831.28	1679.33
831.46	1834.98
831.63	1708.01
831.80	1808.36
831.97	1665.00
832.14	1705.96
832.31	1794.02
832.48	1742.82
832.65	1781.73
832.82	1699.81
832.99	1757.16
833.17	1658.85
833.34	1839.08
833.51	1765.35
833.68	1656.81
833.85	1763.30
834.02	1701.86
834.19	1650.66
834.36	1662.95
834.53	1626.09
834.70	1837.03
834.87	1775.59
835.04	1714.15
835.22	1613.80
835.39	1722.34
835.56	1718.25
835.73	1685.48
835.90	1722.34
836.07	1646.57
836.24	1738.73
836.41	1654.76
836.58	1656.81
836.75	1708.01
836.92	1681.38
837.09	1669.09
837.26	1699.81
837.43	1691.62
837.60	1738.73
837.77	1779.68
837.94	1751.01
838.12	1785.83
838.29	1744.87
838.46	1658.85
838.63	1640.42
838.80	1769.44
838.97	1732.58
839.14	1705.96
839.31	1757.16
839.48	1701.86
839.65	1751.01
839.82	1742.82
839.99	1703.91
840.16	1746.92
840.33	1763.30
840.50	1767.40
840.67	1646.57
840.84	1624.04
841.01	1679.33
841.18	1683.43
841.35	1718.25
841.52	1687.53
841.69	1826.79
841.86	1736.68
842.03	1701.86
842.20	1771.49
842.37	1679.33
842.54	1794.02
842.71	1742.82
842.88	1644.52
843.05	1748.97
843.22	1716.20
843.39	1822.69
843.56	1683.43
843.73	1800.16
843.90	1744.87
844.07	1677.29
844.24	1636.33
844.41	1748.97
844.58	1681.38
844.75	1734.63
844.92	1824.74
845.09	1652.71
845.26	1667.05
845.43	1753.06
845.60	1683.43
845.77	1775.59
845.94	1613.80
846.10	1759.21
846.27	1634.28
846.44	1583.08
846.61	1689.57
846.78	1761.25
846.95	1751.01
847.12	1673.19
847.29	1689.57
847.46	1673.19
847.63	1724.39
847.80	1593.32
847.97	1671.14
848.14	1810.40
848.31	1679.33
848.48	1679.33
848.65	1710.05
848.82	1679.33
848.98	1880.04
849.15	1761.25
849.32	1779.68
849.49	1789.92
849.66	1677.29
849.83	1724.39
850.00	1609.70
850.17	1783.78
850.34	1691.62
850.51	1650.66
850.68	1660.90
850.85	1812.45
851.01	1730.53
851.18	1703.91
851.35	1677.29
851.52	1787.88
851.69	1759.21
851.86	1615.85
852.03	1736.68
852.20	1689.57
852.37	1687.53
852.53	1642.47
852.70	1761.25
852.87	1683.43
853.04	1722.34
853.21	1683.43
853.38	1718.25
853.55	1720.29
853.72	1748.97
853.89	1644.52
854.05	1644.52
854.22	1716.20
854.39	1689.57
854.56	1662.95
854.73	1837.03
854.90	1607.66
855.07	1705.96
855.23	1683.43
855.40	1685.48
855.57	1679.33
855.74	1546.22
855.91	1902.56
856.08	1695.72
856.25	1613.80
856.41	1732.58
856.58	1667.05
856.75	1724.39
856.92	1597.42
857.09	1746.92
857.26	1701.86
857.42	1714.15
857.59	1787.88
857.76	1742.82
857.93	1677.29
858.10	1769.44
858.27	1675.24
858.43	1765.35
858.60	1699.81
858.77	1566.70
858.94	1697.77
859.11	1751.01
859.27	1669.09
859.44	1675.24
859.61	1771.49
859.78	1763.30
859.95	1619.94
860.12	1644.52
860.28	1785.83
860.45	1865.70
860.62	1675.24
860.79	1703.91
860.95	1691.62
861.12	1638.38
861.29	1656.81
861.46	1703.91
861.63	1572.84
861.79	1703.91
861.96	1617.90
862.13	1710.05
862.30	1773.54
862.47	1699.81
862.63	1630.18
862.80	1738.73
862.97	1783.78
863.14	1810.40
863.30	1814.50
863.47	1691.62
863.64	1791.97
863.81	1636.33
863.97	1691.62
864.14	1716.20
864.31	1660.90
864.48	1679.33
864.65	1742.82
864.81	1861.60
864.98	1673.19
865.15	1726.44
865.32	1783.78
865.48	1785.83
865.65	1767.40
865.82	1654.76
865.98	1783.78
866.15	1779.68
866.32	1783.78
866.49	1673.19
866.65	1767.40
866.82	1576.94
866.99	1701.86
867.16	1716.20
867.32	1628.14
867.49	1660.90
867.66	1671.14
867.83	1632.23
867.99	1581.03
868.16	1689.57
868.33	1624.04
868.49	1665.00
868.66	1634.28
868.83	1730.53
868.99	1742.82
869.16	1681.38
869.33	1761.25
869.50	1759.21
869.66	1730.53
869.83	1630.18
870.00	1679.33
870.16	1732.58
870.33	1712.10
870.50	1769.44
870.66	1738.73
870.83	1826.79
871.00	1738.73
871.17	1683.43
871.33	1773.54
871.50	1783.78
871.67	1685.48
871.83	1734.63
872.00	1802.21
872.17	1691.62
872.33	1814.50
872.50	1775.59
872.67	1638.38
872.83	1667.05
873.00	1705.96
873.17	1783.78
873.33	1726.44
873.50	1736.68
873.67	1687.53
873.83	1634.28
874.00	1630.18
874.16	1789.92
874.33	1705.96
874.50	1638.38
874.66	1720.29
874.83	1708.01
875.00	1779.68
875.16	1783.78
875.33	1765.35
875.50	1589.22
875.66	1689.57
875.83	1681.38
875.99	1759.21
876.16	1732.58
876.33	1626.09
876.49	1730.53
876.66	1724.39
876.83	1710.05
876.99	1658.85
877.16	1693.67
877.32	1783.78
877.49	1630.18
877.66	1771.49
877.82	1718.25
877.99	1748.97
878.15	1718.25
878.32	1826.79
878.49	1714.15
878.65	1714.15
878.82	1658.85
878.98	1636.33
879.15	1816.55
879.32	1615.85
879.48	1714.15
879.65	1730.53
879.81	1595.37
879.98	1648.61
880.15	1654.76
880.31	1726.44
880.48	1632.23
880.64	1710.05
880.81	1671.14
880.97	1746.92
881.14	1738.73
881.31	1660.90
881.47	1845.22
881.64	1697.77
881.80	1697.77
881.97	1779.68
882.13	1771.49
882.30	1685.48
882.47	1730.53
882.63	1708.01
882.80	1718.25
882.96	1605.61
883.13	1765.35
883.29	1624.04
883.46	1720.29
883.62	1896.42
883.79	1689.57
883.95	1763.30
884.12	1718.25
884.29	1744.87
884.45	1613.80
884.62	1759.21
884.78	1736.68
884.95	1767.40
885.11	1708.01
885.28	1718.25
885.44	1632.23
885.61	1794.02
885.77	1765.35
885.94	1681.38
886.10	1691.62
886.27	1828.84
886.43	1775.59
886.60	1767.40
886.76	1642.47
886.93	1677.29
887.09	1728.49
887.26	1630.18
887.42	1703.91
887.59	1742.82
887.75	1779.68
887.92	1814.50
888.08	1730.53
888.25	1812.45
888.41	1810.40
888.58	1677.29
888.74	1722.34
888.91	1652.71
>>>>>End Processed Spectral Data<<<<<
