SpectraSuite Data File
++++++++++++++++++++++++++++++++++++
Date: Mon Jun 06 16:06:37 CEST 2016
User: root
Dark Spectrum Present: No
Reference Spectrum Present: No
Number of Sampled Component Spectra: 1
Spectrometers: USB4C02835
Integration Time (usec): 100000 (USB4C02835)
Spectra Averaged: 1 (USB4C02835)
Boxcar Smoothing: 0 (USB4C02835)
Correct for Electrical Dark: No (USB4C02835)
Strobe/Lamp Enabled: No (USB4C02835)
Correct for Detector Non-linearity: No (USB4C02835)
Correct for Stray Light: No (USB4C02835)
Number of Pixels in Processed Spectrum: 3648
>>>>>Begin Processed Spectral Data<<<<<
177.47	1578.98
177.69	1578.98
177.91	1578.98
178.13	1492.97
178.36	1480.68
178.58	1701.86
178.80	1708.01
179.02	1652.71
179.24	1640.42
179.46	1755.11
179.68	1718.25
179.90	1697.77
180.13	1708.01
180.35	1730.53
180.57	1712.10
180.79	1789.92
181.01	1630.18
181.23	1816.55
181.45	1695.72
181.67	1804.26
181.90	1689.57
182.12	1689.57
182.34	1740.77
182.56	1740.77
182.78	1730.53
183.00	1671.14
183.22	1744.87
183.44	1652.71
183.66	1779.68
183.89	1767.40
184.11	1705.96
184.33	1826.79
184.55	1734.63
184.77	1775.59
184.99	1759.21
185.21	1683.43
185.43	1828.84
185.65	1673.19
185.87	1691.62
186.10	1798.12
186.32	1861.60
186.54	1687.53
186.76	1777.64
186.98	1808.36
187.20	1775.59
187.42	1728.49
187.64	1761.25
187.86	1695.72
188.08	1744.87
188.30	1677.29
188.52	1679.33
188.75	1736.68
188.97	1794.02
189.19	1746.92
189.41	1759.21
189.63	1755.11
189.85	1716.20
190.07	1656.81
190.29	1638.38
190.51	1771.49
190.73	1607.66
190.95	1767.40
191.17	1671.14
191.39	1619.94
191.61	1789.92
191.84	1710.05
192.06	1716.20
192.28	1671.14
192.50	1869.80
192.72	1767.40
192.94	1712.10
193.16	1695.72
193.38	1734.63
193.60	1632.23
193.82	1667.05
194.04	1695.72
194.26	1716.20
194.48	1699.81
194.70	1662.95
194.92	1751.01
195.14	1703.91
195.36	1708.01
195.58	1697.77
195.80	1744.87
196.02	1652.71
196.24	1660.90
196.46	1753.06
196.69	1697.77
196.91	1839.08
197.13	1718.25
197.35	1671.14
197.57	1806.31
197.79	1730.53
198.01	1685.48
198.23	1751.01
198.45	1710.05
198.67	1662.95
198.89	1652.71
199.11	1789.92
199.33	1667.05
199.55	1632.23
199.77	1732.58
199.99	1751.01
200.21	1646.57
200.43	1759.21
200.65	1605.61
200.87	1599.46
201.09	1757.16
201.31	1699.81
201.53	1818.60
201.75	1691.62
201.97	1789.92
202.19	1730.53
202.41	1820.64
202.63	1880.04
202.85	1740.77
203.07	1748.97
203.29	1742.82
203.51	1669.09
203.73	1593.32
203.95	1808.36
204.17	1759.21
204.39	1759.21
204.61	1689.57
204.83	1671.14
205.05	1738.73
205.27	1755.11
205.49	1798.12
205.71	1724.39
205.93	1652.71
206.15	1726.44
206.37	1714.15
206.59	1826.79
206.81	1673.19
207.03	1705.96
207.25	1628.14
207.47	1771.49
207.69	1722.34
207.91	1794.02
208.13	1775.59
208.34	1708.01
208.56	1697.77
208.78	1744.87
209.00	1648.61
209.22	1665.00
209.44	1685.48
209.66	1599.46
209.88	1669.09
210.10	1734.63
210.32	1734.63
210.54	1834.98
210.76	1732.58
210.98	1828.84
211.20	1587.18
211.42	1734.63
211.64	1736.68
211.86	1708.01
212.08	1796.07
212.30	1716.20
212.52	1755.11
212.74	1720.29
212.96	1728.49
213.17	1798.12
213.39	1634.28
213.61	1687.53
213.83	1720.29
214.05	1640.42
214.27	1740.77
214.49	1681.38
214.71	1626.09
214.93	1656.81
215.15	1705.96
215.37	1796.07
215.59	1662.95
215.81	1796.07
216.03	1808.36
216.24	1679.33
216.46	1716.20
216.68	1701.86
216.90	1779.68
217.12	1783.78
217.34	1724.39
217.56	1765.35
217.78	1736.68
218.00	1748.97
218.22	1726.44
218.44	1837.03
218.66	1710.05
218.87	1839.08
219.09	1742.82
219.31	1718.25
219.53	1673.19
219.75	1703.91
219.97	1656.81
220.19	1820.64
220.41	1734.63
220.63	1736.68
220.85	1796.07
221.06	1644.52
221.28	1802.21
221.50	1722.34
221.72	1693.67
221.94	1748.97
222.16	1736.68
222.38	1728.49
222.60	1755.11
222.82	1574.89
223.03	1732.58
223.25	1613.80
223.47	1753.06
223.69	1849.32
223.91	1804.26
224.13	1769.44
224.35	1644.52
224.57	1791.97
224.78	1751.01
225.00	1605.61
225.22	1660.90
225.44	1753.06
225.66	1724.39
225.88	1669.09
226.10	1726.44
226.32	1736.68
226.53	1804.26
226.75	1689.57
226.97	1675.24
227.19	1689.57
227.41	1716.20
227.63	1679.33
227.85	1642.47
228.06	1710.05
228.28	1710.05
228.50	1712.10
228.72	1640.42
228.94	1687.53
229.16	1665.00
229.37	1720.29
229.59	1677.29
229.81	1746.92
230.03	1718.25
230.25	1607.66
230.47	1667.05
230.69	1665.00
230.90	1824.74
231.12	1656.81
231.34	1718.25
231.56	1773.54
231.78	1636.33
232.00	1718.25
232.21	1773.54
232.43	1652.71
232.65	1562.60
232.87	1755.11
233.09	1671.14
233.30	1683.43
233.52	1740.77
233.74	1689.57
233.96	1748.97
234.18	1716.20
234.40	1722.34
234.61	1847.27
234.83	1566.70
235.05	1652.71
235.27	1832.93
235.49	1718.25
235.70	1683.43
235.92	1763.30
236.14	1665.00
236.36	1816.55
236.58	1605.61
236.79	1748.97
237.01	1693.67
237.23	1710.05
237.45	1759.21
237.67	1665.00
237.88	1751.01
238.10	1787.88
238.32	1681.38
238.54	1718.25
238.76	1697.77
238.97	1675.24
239.19	1722.34
239.41	1755.11
239.63	1755.11
239.85	1716.20
240.06	1740.77
240.28	1738.73
240.50	1771.49
240.72	1669.09
240.93	1697.77
241.15	1759.21
241.37	1699.81
241.59	1837.03
241.81	1701.86
242.02	1701.86
242.24	1681.38
242.46	1810.40
242.68	1673.19
242.89	1703.91
243.11	1685.48
243.33	1730.53
243.55	1751.01
243.76	1757.16
243.98	1669.09
244.20	1720.29
244.42	1683.43
244.64	1697.77
244.85	1621.99
245.07	1675.24
245.29	1751.01
245.51	1765.35
245.72	1759.21
245.94	1798.12
246.16	1728.49
246.38	1744.87
246.59	1753.06
246.81	1708.01
247.03	1669.09
247.24	1583.08
247.46	1660.90
247.68	1781.73
247.90	1683.43
248.11	1640.42
248.33	1849.32
248.55	1583.08
248.77	1728.49
248.98	1763.30
249.20	1734.63
249.42	1744.87
249.64	1802.21
249.85	1714.15
250.07	1751.01
250.29	1716.20
250.50	1734.63
250.72	1644.52
250.94	1728.49
251.16	1857.51
251.37	1783.78
251.59	1673.19
251.81	1722.34
252.02	1767.40
252.24	1648.61
252.46	1814.50
252.68	1679.33
252.89	1732.58
253.11	1689.57
253.33	1810.40
253.54	1769.44
253.76	1675.24
253.98	1781.73
254.20	1642.47
254.41	1562.60
254.63	1718.25
254.85	1632.23
255.06	1783.78
255.28	1761.25
255.50	1734.63
255.71	1718.25
255.93	1662.95
256.15	1734.63
256.36	1746.92
256.58	1665.00
256.80	1794.02
257.02	1765.35
257.23	1753.06
257.45	1775.59
257.67	1714.15
257.88	1718.25
258.10	1736.68
258.32	1742.82
258.53	1748.97
258.75	1834.98
258.97	1714.15
259.18	1675.24
259.40	1734.63
259.62	1796.07
259.83	1755.11
260.05	1773.54
260.27	2054.11
260.48	1816.55
260.70	1683.43
260.92	1722.34
261.13	1710.05
261.35	1734.63
261.57	1714.15
261.78	1665.00
262.00	1595.37
262.22	1691.62
262.43	1648.61
262.65	1722.34
262.86	1665.00
263.08	1798.12
263.30	1736.68
263.51	1660.90
263.73	1689.57
263.95	1761.25
264.16	1617.90
264.38	1667.05
264.60	1658.85
264.81	1708.01
265.03	1763.30
265.25	1716.20
265.46	1652.71
265.68	1705.96
265.89	1841.12
266.11	1665.00
266.33	1759.21
266.54	1695.72
266.76	1710.05
266.98	1779.68
267.19	1800.16
267.41	1746.92
267.62	1710.05
267.84	1626.09
268.06	1742.82
268.27	1669.09
268.49	1806.31
268.70	1783.78
268.92	1691.62
269.14	1628.14
269.35	1691.62
269.57	1714.15
269.79	1710.05
270.00	1714.15
270.22	1783.78
270.43	1687.53
270.65	1599.46
270.87	1714.15
271.08	1728.49
271.30	1718.25
271.51	1732.58
271.73	1703.91
271.95	1783.78
272.16	1697.77
272.38	1744.87
272.59	1718.25
272.81	1703.91
273.02	1732.58
273.24	1798.12
273.46	1718.25
273.67	1632.23
273.89	1697.77
274.10	1681.38
274.32	1708.01
274.54	1757.16
274.75	1669.09
274.97	1642.47
275.18	1740.77
275.40	1812.45
275.61	1753.06
275.83	1697.77
276.05	1730.53
276.26	1738.73
276.48	1857.51
276.69	1601.51
276.91	1652.71
277.12	1791.97
277.34	1800.16
277.55	1757.16
277.77	1689.57
277.99	1683.43
278.20	1730.53
278.42	1648.61
278.63	1755.11
278.85	1734.63
279.06	1665.00
279.28	1746.92
279.49	1746.92
279.71	1810.40
279.93	1673.19
280.14	1710.05
280.36	1689.57
280.57	1742.82
280.79	1804.26
281.00	1701.86
281.22	1673.19
281.43	1779.68
281.65	1640.42
281.86	1662.95
282.08	1789.92
282.29	1824.74
282.51	1644.52
282.73	1648.61
282.94	1669.09
283.16	1800.16
283.37	1845.22
283.59	1800.16
283.80	1746.92
284.02	1755.11
284.23	1759.21
284.45	1689.57
284.66	1724.39
284.88	1665.00
285.09	1767.40
285.31	1779.68
285.52	1701.86
285.74	1673.19
285.95	1703.91
286.17	1771.49
286.38	1781.73
286.60	1644.52
286.81	1644.52
287.03	1708.01
287.24	1697.77
287.46	1742.82
287.67	1632.23
287.89	1830.88
288.10	1730.53
288.32	1703.91
288.53	1789.92
288.75	1669.09
288.96	1730.53
289.18	1771.49
289.39	1683.43
289.61	1738.73
289.82	1894.37
290.04	1796.07
290.25	1699.81
290.47	1656.81
290.68	1697.77
290.90	1832.93
291.11	1669.09
291.33	1724.39
291.54	1718.25
291.76	1705.96
291.97	1675.24
292.18	1826.79
292.40	1691.62
292.61	1724.39
292.83	1767.40
293.04	1675.24
293.26	1775.59
293.47	1800.16
293.69	1650.66
293.90	1632.23
294.12	1816.55
294.33	1751.01
294.55	1751.01
294.76	1796.07
294.97	1771.49
295.19	1849.32
295.40	1697.77
295.62	1798.12
295.83	1763.30
296.05	1708.01
296.26	1773.54
296.48	1656.81
296.69	1755.11
296.90	1705.96
297.12	1738.73
297.33	1669.09
297.55	1720.29
297.76	1775.59
297.98	1746.92
298.19	1746.92
298.41	1689.57
298.62	1703.91
298.83	1873.89
299.05	1767.40
299.26	1714.15
299.48	1697.77
299.69	1808.36
299.90	1791.97
300.12	1660.90
300.33	1789.92
300.55	1722.34
300.76	1746.92
300.98	1609.70
301.19	1716.20
301.40	1683.43
301.62	1681.38
301.83	1699.81
302.05	1753.06
302.26	1742.82
302.47	1693.67
302.69	1656.81
302.90	1681.38
303.12	1640.42
303.33	1796.07
303.54	1761.25
303.76	1640.42
303.97	1730.53
304.19	1730.53
304.40	1628.14
304.61	1769.44
304.83	1791.97
305.04	1761.25
305.26	1736.68
305.47	1708.01
305.68	1697.77
305.90	1599.46
306.11	1738.73
306.33	1677.29
306.54	1656.81
306.75	1691.62
306.97	1619.94
307.18	1644.52
307.39	1650.66
307.61	1697.77
307.82	1708.01
308.04	1730.53
308.25	1660.90
308.46	1783.78
308.68	1693.67
308.89	1673.19
309.10	1804.26
309.32	1708.01
309.53	1677.29
309.74	1822.69
309.96	1718.25
310.17	1814.50
310.39	1712.10
310.60	1734.63
310.81	1771.49
311.03	1746.92
311.24	1812.45
311.45	1716.20
311.67	1828.84
311.88	1751.01
312.09	1714.15
312.31	1665.00
312.52	1736.68
312.73	1742.82
312.95	1654.76
313.16	1679.33
313.37	1759.21
313.59	1738.73
313.80	1779.68
314.01	1771.49
314.23	1751.01
314.44	1642.47
314.65	1677.29
314.87	1742.82
315.08	1767.40
315.29	1722.34
315.51	1748.97
315.72	1662.95
315.93	1779.68
316.15	1708.01
316.36	1703.91
316.57	1746.92
316.79	1787.88
317.00	1732.58
317.21	1777.64
317.43	1603.56
317.64	1695.72
317.85	1697.77
318.07	1710.05
318.28	1757.16
318.49	1869.80
318.70	1929.19
318.92	1904.61
319.13	1826.79
319.34	1890.28
319.56	1742.82
319.77	1798.12
319.98	1787.88
320.20	1855.46
320.41	1779.68
320.62	1740.77
320.83	1611.75
321.05	1882.08
321.26	1726.44
321.47	1794.02
321.69	1855.46
321.90	1687.53
322.11	1757.16
322.32	1703.91
322.54	1763.30
322.75	1701.86
322.96	1841.12
323.18	1628.14
323.39	1658.85
323.60	1648.61
323.81	1853.41
324.03	1665.00
324.24	1701.86
324.45	1701.86
324.66	1636.33
324.88	1710.05
325.09	1787.88
325.30	1681.38
325.52	1718.25
325.73	1779.68
325.94	1685.48
326.15	1667.05
326.37	1695.72
326.58	1802.21
326.79	1761.25
327.00	1650.66
327.22	1730.53
327.43	1644.52
327.64	1646.57
327.85	1783.78
328.07	1703.91
328.28	1767.40
328.49	1699.81
328.70	1734.63
328.92	1730.53
329.13	1679.33
329.34	1761.25
329.55	1828.84
329.76	1777.64
329.98	1642.47
330.19	1898.47
330.40	1832.93
330.61	1726.44
330.83	1718.25
331.04	1751.01
331.25	1720.29
331.46	1812.45
331.68	1689.57
331.89	1765.35
332.10	1773.54
332.31	1648.61
332.52	1767.40
332.74	1722.34
332.95	1613.80
333.16	1705.96
333.37	1812.45
333.58	1679.33
333.80	1697.77
334.01	1691.62
334.22	1703.91
334.43	1705.96
334.64	1701.86
334.86	1628.14
335.07	1726.44
335.28	1808.36
335.49	1652.71
335.70	1759.21
335.92	1798.12
336.13	1800.16
336.34	1767.40
336.55	1689.57
336.76	1753.06
336.98	1626.09
337.19	1744.87
337.40	1824.74
337.61	1855.46
337.82	1708.01
338.04	1791.97
338.25	1656.81
338.46	1800.16
338.67	1746.92
338.88	1656.81
339.09	1648.61
339.31	1691.62
339.52	1658.85
339.73	1628.14
339.94	1683.43
340.15	1763.30
340.36	1687.53
340.58	1726.44
340.79	1662.95
341.00	1775.59
341.21	1697.77
341.42	1777.64
341.63	1759.21
341.85	1716.20
342.06	1693.67
342.27	1599.46
342.48	1773.54
342.69	1626.09
342.90	1791.97
343.12	1683.43
343.33	1689.57
343.54	1767.40
343.75	1865.70
343.96	1716.20
344.17	1677.29
344.38	1714.15
344.60	1638.38
344.81	1615.85
345.02	1675.24
345.23	1798.12
345.44	1812.45
345.65	1740.77
345.86	1705.96
346.07	1712.10
346.29	1669.09
346.50	1742.82
346.71	1779.68
346.92	1712.10
347.13	1759.21
347.34	1699.81
347.55	1724.39
347.76	1722.34
347.98	1613.80
348.19	1748.97
348.40	1814.50
348.61	1761.25
348.82	1837.03
349.03	1804.26
349.24	1679.33
349.45	1894.37
349.66	1630.18
349.88	1728.49
350.09	1689.57
350.30	1761.25
350.51	1761.25
350.72	1675.24
350.93	1665.00
351.14	1685.48
351.35	1763.30
351.56	1673.19
351.77	1767.40
351.99	1697.77
352.20	1787.88
352.41	1746.92
352.62	1572.84
352.83	1710.05
353.04	1769.44
353.25	1660.90
353.46	1789.92
353.67	1734.63
353.88	1609.70
354.09	1781.73
354.30	1753.06
354.52	1779.68
354.73	1628.14
354.94	1644.52
355.15	1751.01
355.36	1826.79
355.57	1642.47
355.78	1746.92
355.99	1675.24
356.20	1603.56
356.41	1720.29
356.62	1818.60
356.83	1720.29
357.04	1759.21
357.25	1652.71
357.46	1697.77
357.68	1605.61
357.89	1644.52
358.10	1660.90
358.31	1691.62
358.52	1724.39
358.73	1650.66
358.94	1652.71
359.15	1697.77
359.36	1746.92
359.57	1746.92
359.78	1769.44
359.99	1757.16
360.20	1697.77
360.41	1662.95
360.62	1802.21
360.83	1748.97
361.04	1728.49
361.25	1722.34
361.46	1812.45
361.67	1742.82
361.88	1767.40
362.09	1777.64
362.30	1640.42
362.51	1656.81
362.72	1687.53
362.93	1736.68
363.14	1775.59
363.35	1607.66
363.56	1673.19
363.78	1802.21
363.99	1785.83
364.20	1665.00
364.41	1648.61
364.62	1824.74
364.83	1730.53
365.04	1740.77
365.25	1665.00
365.46	1734.63
365.67	1695.72
365.88	1607.66
366.09	1691.62
366.30	1695.72
366.51	1695.72
366.72	1714.15
366.93	1742.82
367.14	1687.53
367.35	1800.16
367.56	1779.68
367.77	1796.07
367.98	1794.02
368.18	1689.57
368.39	1814.50
368.60	1652.71
368.81	1763.30
369.02	1783.78
369.23	1751.01
369.44	1667.05
369.65	1669.09
369.86	1683.43
370.07	1763.30
370.28	1710.05
370.49	1685.48
370.70	1685.48
370.91	1685.48
371.12	1621.99
371.33	1769.44
371.54	1734.63
371.75	1771.49
371.96	1591.27
372.17	1732.58
372.38	1673.19
372.59	1705.96
372.80	1689.57
373.01	1748.97
373.22	1716.20
373.43	1708.01
373.64	1648.61
373.85	1794.02
374.06	1787.88
374.26	1812.45
374.47	1785.83
374.68	1753.06
374.89	1722.34
375.10	1736.68
375.31	1728.49
375.52	1705.96
375.73	1710.05
375.94	1656.81
376.15	1755.11
376.36	1656.81
376.57	1697.77
376.78	1744.87
376.99	1695.72
377.20	1738.73
377.40	1769.44
377.61	1843.17
377.82	1650.66
378.03	1808.36
378.24	1759.21
378.45	1673.19
378.66	1722.34
378.87	1640.42
379.08	1628.14
379.29	1710.05
379.50	1775.59
379.71	1794.02
379.91	1738.73
380.12	1773.54
380.33	1724.39
380.54	1753.06
380.75	1683.43
380.96	1804.26
381.17	1683.43
381.38	1699.81
381.59	1708.01
381.80	1775.59
382.00	1904.61
382.21	1712.10
382.42	1794.02
382.63	1863.65
382.84	1814.50
383.05	1757.16
383.26	1853.41
383.47	1771.49
383.68	1722.34
383.88	1732.58
384.09	1736.68
384.30	1818.60
384.51	1726.44
384.72	1701.86
384.93	1624.04
385.14	1683.43
385.35	1783.78
385.55	1646.57
385.76	1759.21
385.97	1746.92
386.18	1708.01
386.39	1757.16
386.60	1730.53
386.81	1673.19
387.02	1650.66
387.22	1683.43
387.43	1787.88
387.64	1834.98
387.85	1851.36
388.06	2189.28
388.27	4341.69
388.48	6680.47
388.68	7993.22
388.89	9389.94
389.10	9791.34
389.31	8558.46
389.52	7548.81
389.73	6604.70
389.93	6170.53
390.14	5842.85
390.35	5140.40
390.56	4396.99
390.77	3753.93
390.98	3002.32
391.18	2508.76
391.39	2203.61
391.60	1837.03
391.81	1845.22
392.02	1746.92
392.23	1791.97
392.43	1742.82
392.64	1828.84
392.85	1695.72
393.06	1785.83
393.27	1761.25
393.47	1693.67
393.68	1726.44
393.89	1720.29
394.10	1800.16
394.31	1742.82
394.52	1728.49
394.72	1644.52
394.93	1845.22
395.14	1689.57
395.35	1796.07
395.56	1708.01
395.76	1757.16
395.97	1808.36
396.18	1859.56
396.39	1906.66
396.60	2066.40
396.80	1906.66
397.01	1806.31
397.22	1818.60
397.43	1906.66
397.64	1857.51
397.84	1875.94
398.05	1865.70
398.26	1732.58
398.47	1763.30
398.67	1904.61
398.88	1724.39
399.09	1734.63
399.30	1585.13
399.51	1755.11
399.71	1646.57
399.92	1769.44
400.13	1789.92
400.34	1775.59
400.54	1751.01
400.75	1875.94
400.96	1763.30
401.17	1755.11
401.37	1708.01
401.58	1705.96
401.79	1757.16
402.00	1841.12
402.21	1996.77
402.41	1902.56
402.62	2033.63
402.83	2076.64
403.04	2019.30
403.24	2047.97
403.45	1806.31
403.66	1828.84
403.87	1886.18
404.07	1843.17
404.28	1914.85
404.49	1904.61
404.70	1839.08
404.90	1714.15
405.11	1722.34
405.32	1755.11
405.52	1681.38
405.73	1757.16
405.94	1734.63
406.15	1687.53
406.35	1796.07
406.56	1718.25
406.77	1791.97
406.98	1787.88
407.18	1679.33
407.39	1755.11
407.60	1636.33
407.80	1740.77
408.01	1695.72
408.22	1751.01
408.43	1740.77
408.63	1798.12
408.84	1755.11
409.05	1830.88
409.25	1665.00
409.46	1656.81
409.67	1675.24
409.88	1732.58
410.08	1728.49
410.29	1648.61
410.50	1691.62
410.70	1738.73
410.91	1685.48
411.12	1656.81
411.32	1695.72
411.53	1673.19
411.74	1783.78
411.95	1798.12
412.15	1757.16
412.36	1732.58
412.57	1736.68
412.77	1830.88
412.98	1724.39
413.19	1720.29
413.39	1716.20
413.60	1798.12
413.81	1816.55
414.01	1746.92
414.22	1677.29
414.43	1787.88
414.63	1683.43
414.84	1705.96
415.05	1761.25
415.25	1611.75
415.46	1794.02
415.67	1642.47
415.87	1761.25
416.08	1720.29
416.29	1695.72
416.49	1759.21
416.70	1794.02
416.91	1665.00
417.11	1693.67
417.32	1843.17
417.53	1785.83
417.73	1738.73
417.94	1693.67
418.15	1724.39
418.35	1742.82
418.56	1761.25
418.77	1761.25
418.97	1740.77
419.18	1798.12
419.38	1574.89
419.59	1685.48
419.80	1765.35
420.00	1669.09
420.21	1701.86
420.42	1794.02
420.62	1699.81
420.83	1669.09
421.04	1689.57
421.24	1701.86
421.45	1834.98
421.65	1798.12
421.86	1740.77
422.07	1720.29
422.27	1697.77
422.48	1691.62
422.69	1681.38
422.89	1716.20
423.10	1683.43
423.30	1703.91
423.51	1675.24
423.72	1757.16
423.92	1730.53
424.13	1693.67
424.33	1759.21
424.54	1757.16
424.75	1730.53
424.95	1898.47
425.16	1724.39
425.36	1730.53
425.57	1714.15
425.78	1753.06
425.98	1812.45
426.19	1691.62
426.39	1732.58
426.60	1783.78
426.81	1794.02
427.01	1705.96
427.22	1677.29
427.42	1675.24
427.63	1734.63
427.83	1808.36
428.04	1810.40
428.25	1761.25
428.45	1697.77
428.66	1716.20
428.86	1708.01
429.07	1728.49
429.28	1716.20
429.48	1640.42
429.69	1640.42
429.89	1767.40
430.10	1587.18
430.30	1728.49
430.51	1759.21
430.71	1691.62
430.92	1775.59
431.13	1705.96
431.33	1742.82
431.54	1693.67
431.74	1888.23
431.95	1884.13
432.15	1716.20
432.36	1738.73
432.56	1716.20
432.77	1849.32
432.98	1779.68
433.18	1753.06
433.39	1642.47
433.59	1734.63
433.80	1853.41
434.00	1853.41
434.21	1689.57
434.41	1755.11
434.62	1867.75
434.82	1732.58
435.03	1691.62
435.23	1691.62
435.44	1630.18
435.64	1693.67
435.85	1767.40
436.06	1724.39
436.26	1806.31
436.47	1648.61
436.67	1669.09
436.88	1744.87
437.08	1728.49
437.29	1759.21
437.49	1732.58
437.70	1771.49
437.90	1751.01
438.11	1783.78
438.31	1755.11
438.52	1830.88
438.72	1861.60
438.93	1855.46
439.13	1712.10
439.34	1814.50
439.54	1751.01
439.75	1751.01
439.95	1724.39
440.16	1662.95
440.36	1736.68
440.57	1826.79
440.77	1775.59
440.98	1728.49
441.18	1796.07
441.39	1603.56
441.59	1632.23
441.80	1888.23
442.00	1726.44
442.21	1857.51
442.41	1669.09
442.62	1828.84
442.82	1722.34
443.02	1736.68
443.23	1773.54
443.43	1771.49
443.64	1873.89
443.84	1728.49
444.05	1757.16
444.25	1796.07
444.46	1740.77
444.66	1714.15
444.87	1861.60
445.07	1640.42
445.28	1746.92
445.48	1796.07
445.69	1841.12
445.89	1935.33
446.09	1765.35
446.30	1974.24
446.50	2625.50
446.71	3657.67
446.91	4329.41
447.12	4571.07
447.32	4712.38
447.53	4282.30
447.73	3880.90
447.93	3350.48
448.14	3364.81
448.34	3184.59
448.55	2992.08
448.75	2834.39
448.96	2744.28
449.16	2394.08
449.36	2301.92
449.57	2150.37
449.77	1947.62
449.98	1777.64
450.18	1845.22
450.39	1877.99
450.59	1794.02
450.79	1787.88
451.00	1712.10
451.20	1812.45
451.41	1730.53
451.61	1716.20
451.81	1732.58
452.02	1767.40
452.22	1724.39
452.43	1669.09
452.63	1722.34
452.84	1769.44
453.04	1712.10
453.24	1800.16
453.45	1765.35
453.65	1718.25
453.86	1734.63
454.06	1697.77
454.26	1787.88
454.47	1648.61
454.67	1880.04
454.87	1789.92
455.08	1734.63
455.28	1830.88
455.49	1759.21
455.69	1673.19
455.89	1886.18
456.10	1865.70
456.30	1689.57
456.51	1744.87
456.71	1722.34
456.91	1767.40
457.12	1804.26
457.32	1763.30
457.52	1619.94
457.73	1763.30
457.93	1767.40
458.14	1677.29
458.34	1658.85
458.54	1705.96
458.75	1693.67
458.95	1785.83
459.15	1771.49
459.36	1822.69
459.56	1703.91
459.76	1853.41
459.97	1685.48
460.17	1775.59
460.37	1841.12
460.58	1757.16
460.78	1769.44
460.99	1736.68
461.19	1689.57
461.39	1703.91
461.60	1701.86
461.80	1769.44
462.00	1669.09
462.21	1708.01
462.41	1681.38
462.61	1701.86
462.82	1638.38
463.02	1837.03
463.22	1763.30
463.43	1763.30
463.63	1728.49
463.83	1710.05
464.04	1794.02
464.24	1744.87
464.44	1691.62
464.64	1767.40
464.85	1738.73
465.05	1734.63
465.25	1693.67
465.46	1701.86
465.66	1841.12
465.86	1726.44
466.07	1781.73
466.27	1683.43
466.47	1705.96
466.68	1613.80
466.88	1861.60
467.08	1822.69
467.29	1787.88
467.49	1720.29
467.69	1820.64
467.89	1759.21
468.10	1736.68
468.30	1767.40
468.50	1796.07
468.71	1751.01
468.91	1654.76
469.11	1787.88
469.31	1796.07
469.52	1697.77
469.72	1841.12
469.92	1783.78
470.13	1742.82
470.33	1794.02
470.53	1906.66
470.73	2050.02
470.94	2285.53
471.14	2275.29
471.34	2516.95
471.54	2443.23
471.75	2240.48
471.95	2183.13
472.15	2142.18
472.36	2070.50
472.56	2035.68
472.76	2117.60
472.96	1984.48
473.17	1984.48
473.37	1918.95
473.57	1863.65
473.77	1822.69
473.98	1822.69
474.18	1736.68
474.38	1857.51
474.58	1699.81
474.79	1687.53
474.99	1753.06
475.19	1806.31
475.39	1708.01
475.60	1701.86
475.80	1751.01
476.00	1689.57
476.20	1691.62
476.41	1691.62
476.61	1828.84
476.81	1816.55
477.01	1673.19
477.21	1947.62
477.42	1845.22
477.62	1681.38
477.82	1771.49
478.02	1699.81
478.23	1796.07
478.43	1673.19
478.63	1742.82
478.83	1673.19
479.03	1726.44
479.24	1753.06
479.44	1806.31
479.64	1652.71
479.84	1615.85
480.04	1744.87
480.25	1814.50
480.45	1728.49
480.65	1791.97
480.85	1771.49
481.06	1662.95
481.26	1691.62
481.46	1771.49
481.66	1804.26
481.86	1714.15
482.06	1824.74
482.27	1761.25
482.47	1769.44
482.67	1789.92
482.87	1716.20
483.07	1699.81
483.28	1742.82
483.48	1646.57
483.68	1695.72
483.88	1714.15
484.08	1593.32
484.29	1705.96
484.49	1761.25
484.69	1691.62
484.89	1779.68
485.09	1794.02
485.29	1816.55
485.50	1775.59
485.70	1771.49
485.90	1834.98
486.10	1808.36
486.30	1740.77
486.50	1753.06
486.71	1785.83
486.91	1826.79
487.11	1834.98
487.31	1619.94
487.51	1744.87
487.71	1667.05
487.91	1691.62
488.12	1701.86
488.32	1562.60
488.52	1753.06
488.72	1665.00
488.92	1746.92
489.12	1753.06
489.32	1798.12
489.53	1804.26
489.73	1689.57
489.93	1861.60
490.13	1691.62
490.33	1632.23
490.53	1781.73
490.73	1837.03
490.94	1718.25
491.14	1816.55
491.34	1824.74
491.54	2121.70
491.74	2623.45
491.94	2897.88
492.14	3033.04
492.34	2990.03
492.54	2697.17
492.75	2490.33
492.95	2484.19
493.15	2316.25
493.35	2238.43
493.55	2205.66
493.75	2201.57
493.95	2162.66
494.15	1982.43
494.35	1931.23
494.56	1847.27
494.76	1763.30
494.96	1748.97
495.16	1744.87
495.36	1779.68
495.56	1810.40
495.76	1677.29
495.96	1675.24
496.16	1726.44
496.36	1863.65
496.56	1767.40
496.77	1812.45
496.97	1755.11
497.17	1775.59
497.37	1626.09
497.57	1734.63
497.77	1705.96
497.97	1677.29
498.17	1638.38
498.37	1816.55
498.57	1810.40
498.77	1732.58
498.97	1687.53
499.17	1812.45
499.38	1763.30
499.58	1740.77
499.78	1806.31
499.98	1789.92
500.18	1785.83
500.38	1783.78
500.58	1972.19
500.78	2551.77
500.98	4532.15
501.18	5744.55
501.38	6545.31
501.58	6989.72
501.78	6553.50
501.98	5498.80
502.18	4827.06
502.38	4421.56
502.58	4202.43
502.78	3815.37
502.98	3577.80
503.18	3348.43
503.38	3092.43
503.59	2781.14
503.79	2684.89
503.99	2584.54
504.19	2406.36
504.39	2103.26
504.59	2256.86
504.79	2213.85
504.99	2062.30
505.19	1912.80
505.39	1908.71
505.59	1970.15
505.79	1945.57
505.99	1966.05
506.19	1814.50
506.39	1853.41
506.59	1703.91
506.79	1796.07
506.99	1824.74
507.19	1812.45
507.39	1773.54
507.59	1691.62
507.79	1697.77
507.99	1687.53
508.19	1720.29
508.39	1705.96
508.59	1701.86
508.79	1791.97
508.99	1802.21
509.19	1689.57
509.39	1724.39
509.59	1716.20
509.79	1716.20
509.99	1787.88
510.19	1751.01
510.39	1767.40
510.59	1734.63
510.79	1665.00
510.99	1734.63
511.19	1673.19
511.39	1818.60
511.59	1746.92
511.79	1781.73
511.99	1734.63
512.19	1746.92
512.38	1800.16
512.58	1703.91
512.78	1767.40
512.98	1720.29
513.18	1839.08
513.38	1595.37
513.58	1736.68
513.78	1712.10
513.98	1732.58
514.18	1724.39
514.38	1665.00
514.58	1697.77
514.78	1662.95
514.98	1714.15
515.18	1656.81
515.38	1697.77
515.58	1888.23
515.78	1677.29
515.98	1689.57
516.18	1767.40
516.38	1763.30
516.57	1675.24
516.77	1724.39
516.97	1810.40
517.17	1718.25
517.37	1581.03
517.57	1771.49
517.77	1740.77
517.97	1710.05
518.17	1814.50
518.37	1689.57
518.57	1685.48
518.77	1685.48
518.97	1734.63
519.16	1787.88
519.36	1798.12
519.56	1685.48
519.76	1742.82
519.96	1742.82
520.16	1726.44
520.36	1687.53
520.56	1837.03
520.76	1685.48
520.96	1742.82
521.16	1759.21
521.35	1875.94
521.55	1853.41
521.75	1765.35
521.95	1718.25
522.15	1763.30
522.35	1665.00
522.55	1714.15
522.75	1730.53
522.95	1751.01
523.14	1697.77
523.34	1728.49
523.54	1685.48
523.74	1746.92
523.94	1714.15
524.14	1785.83
524.34	1763.30
524.54	1783.78
524.73	1755.11
524.93	1814.50
525.13	1767.40
525.33	1769.44
525.53	1933.28
525.73	1738.73
525.93	1779.68
526.13	1751.01
526.32	1736.68
526.52	1734.63
526.72	1806.31
526.92	1740.77
527.12	1689.57
527.32	1605.61
527.52	1724.39
527.71	1806.31
527.91	1777.64
528.11	1730.53
528.31	1720.29
528.51	1658.85
528.71	1691.62
528.90	1787.88
529.10	1837.03
529.30	1875.94
529.50	1638.38
529.70	1822.69
529.90	1738.73
530.09	1791.97
530.29	1722.34
530.49	1697.77
530.69	1824.74
530.89	1748.97
531.09	1806.31
531.28	1781.73
531.48	1757.16
531.68	1738.73
531.88	1789.92
532.08	1777.64
532.28	1708.01
532.47	1738.73
532.67	1857.51
532.87	1775.59
533.07	1679.33
533.27	1722.34
533.46	1732.58
533.66	1695.72
533.86	1748.97
534.06	1734.63
534.26	1785.83
534.45	1736.68
534.65	1791.97
534.85	1744.87
535.05	1665.00
535.25	1771.49
535.44	1583.08
535.64	1806.31
535.84	1738.73
536.04	1677.29
536.24	1794.02
536.43	1724.39
536.63	1771.49
536.83	1777.64
537.03	1689.57
537.22	1695.72
537.42	1644.52
537.62	1693.67
537.82	1652.71
538.02	1781.73
538.21	1759.21
538.41	1916.90
538.61	1761.25
538.81	1718.25
539.00	1865.70
539.20	1656.81
539.40	1755.11
539.60	1751.01
539.79	1824.74
539.99	1759.21
540.19	1722.34
540.39	1673.19
540.58	1763.30
540.78	1757.16
540.98	1759.21
541.18	1824.74
541.37	1814.50
541.57	1767.40
541.77	1746.92
541.97	1687.53
542.16	1689.57
542.36	1646.57
542.56	1810.40
542.76	1933.28
542.95	1818.60
543.15	1810.40
543.35	1810.40
543.54	1728.49
543.74	1718.25
543.94	1857.51
544.14	1673.19
544.33	1820.64
544.53	1687.53
544.73	1710.05
544.93	1791.97
545.12	1773.54
545.32	1738.73
545.52	1710.05
545.71	1691.62
545.91	1726.44
546.11	1751.01
546.30	1734.63
546.50	1753.06
546.70	1730.53
546.90	1765.35
547.09	1644.52
547.29	1785.83
547.49	1755.11
547.68	1632.23
547.88	1660.90
548.08	1763.30
548.27	2299.87
548.47	1712.10
548.67	1705.96
548.87	1849.32
549.06	1703.91
549.26	1777.64
549.46	1767.40
549.65	1673.19
549.85	1820.64
550.05	1751.01
550.24	1732.58
550.44	1789.92
550.64	1794.02
550.83	1740.77
551.03	1828.84
551.23	1787.88
551.42	1728.49
551.62	1699.81
551.82	1812.45
552.01	1757.16
552.21	1828.84
552.41	1781.73
552.60	1877.99
552.80	1742.82
553.00	1753.06
553.19	1722.34
553.39	1810.40
553.59	1718.25
553.78	1822.69
553.98	1738.73
554.17	1658.85
554.37	1757.16
554.57	1761.25
554.76	1720.29
554.96	1671.14
555.16	1730.53
555.35	1759.21
555.55	1761.25
555.75	1724.39
555.94	1748.97
556.14	1619.94
556.33	1789.92
556.53	1796.07
556.73	1759.21
556.92	1873.89
557.12	1869.80
557.32	1841.12
557.51	1759.21
557.71	1736.68
557.90	1757.16
558.10	1873.89
558.30	1748.97
558.49	1769.44
558.69	1808.36
558.88	1820.64
559.08	1781.73
559.28	1753.06
559.47	1740.77
559.67	1775.59
559.86	1873.89
560.06	1718.25
560.26	1705.96
560.45	1791.97
560.65	1726.44
560.84	1736.68
561.04	1740.77
561.24	1863.65
561.43	1738.73
561.63	1724.39
561.82	1740.77
562.02	1781.73
562.22	1722.34
562.41	1658.85
562.61	1689.57
562.80	1673.19
563.00	1898.47
563.19	1685.48
563.39	1773.54
563.59	1755.11
563.78	1722.34
563.98	1683.43
564.17	1642.47
564.37	1634.28
564.56	1679.33
564.76	1628.14
564.96	1894.37
565.15	1861.60
565.35	1863.65
565.54	1667.05
565.74	1771.49
565.93	1757.16
566.13	1730.53
566.32	1812.45
566.52	1759.21
566.71	1808.36
566.91	1755.11
567.11	1830.88
567.30	1615.85
567.50	1744.87
567.69	1755.11
567.89	1722.34
568.08	1724.39
568.28	1730.53
568.47	1687.53
568.67	1794.02
568.86	1785.83
569.06	1787.88
569.25	1689.57
569.45	1628.14
569.64	1675.24
569.84	1765.35
570.04	1751.01
570.23	1648.61
570.43	1697.77
570.62	1755.11
570.82	1822.69
571.01	1730.53
571.21	1742.82
571.40	1769.44
571.60	1851.36
571.79	1746.92
571.99	1695.72
572.18	1728.49
572.38	1730.53
572.57	1820.64
572.77	1820.64
572.96	1882.08
573.16	1714.15
573.35	1767.40
573.55	1773.54
573.74	1794.02
573.94	1746.92
574.13	1724.39
574.33	1830.88
574.52	1781.73
574.71	1669.09
574.91	1875.94
575.10	1697.77
575.30	1679.33
575.49	1667.05
575.69	1791.97
575.88	1859.56
576.08	1751.01
576.27	1746.92
576.47	1730.53
576.66	1787.88
576.86	1789.92
577.05	1730.53
577.25	1798.12
577.44	1873.89
577.64	1775.59
577.83	1767.40
578.02	1751.01
578.22	1775.59
578.41	1820.64
578.61	1767.40
578.80	1689.57
579.00	1748.97
579.19	1818.60
579.39	1822.69
579.58	1871.84
579.77	1753.06
579.97	1871.84
580.16	1890.28
580.36	1794.02
580.55	1826.79
580.75	1796.07
580.94	1687.53
581.13	1869.80
581.33	1847.27
581.52	1722.34
581.72	1894.37
581.91	1857.51
582.11	1742.82
582.30	1822.69
582.49	1818.60
582.69	1888.23
582.88	1791.97
583.08	1820.64
583.27	1824.74
583.47	1769.44
583.66	1695.72
583.85	1742.82
584.05	1755.11
584.24	1812.45
584.44	1779.68
584.63	1851.36
584.82	1890.28
585.02	1861.60
585.21	1886.18
585.41	1769.44
585.60	1791.97
585.79	1908.71
585.99	1961.95
586.18	1812.45
586.37	2201.57
586.57	3348.43
586.76	9848.68
586.96	24071.82
587.15	33633.79
587.34	39587.24
587.54	40949.14
587.73	35462.63
587.93	25767.54
588.12	21040.83
588.31	17962.73
588.51	15970.06
588.70	14798.62
588.89	13774.64
589.09	12357.44
589.28	10827.61
589.47	9170.80
589.67	7638.92
589.86	6164.39
590.06	4814.77
590.25	3858.37
590.44	3098.58
590.64	2486.23
590.83	2224.09
591.02	2093.02
591.22	1929.19
591.41	1910.75
591.60	1820.64
591.80	1937.38
591.99	1816.55
592.18	1888.23
592.38	1767.40
592.57	1814.50
592.76	1802.21
592.96	1802.21
593.15	1787.88
593.34	1763.30
593.54	1734.63
593.73	1845.22
593.92	1779.68
594.12	1714.15
594.31	1777.64
594.50	1869.80
594.70	1800.16
594.89	1806.31
595.08	1640.42
595.28	1796.07
595.47	1920.99
595.66	1822.69
595.86	1718.25
596.05	1751.01
596.24	1738.73
596.43	1839.08
596.63	1804.26
596.82	1746.92
597.01	1794.02
597.21	1853.41
597.40	1738.73
597.59	1775.59
597.79	1798.12
597.98	1802.21
598.17	1804.26
598.36	1820.64
598.56	1775.59
598.75	1759.21
598.94	1767.40
599.14	1781.73
599.33	1794.02
599.52	1769.44
599.71	1730.53
599.91	1800.16
600.10	1812.45
600.29	1796.07
600.48	1732.58
600.68	1740.77
600.87	1746.92
601.06	1738.73
601.26	1845.22
601.45	1810.40
601.64	1630.18
601.83	1814.50
602.03	1789.92
602.22	1652.71
602.41	1728.49
602.60	1871.84
602.80	1834.98
602.99	1755.11
603.18	1679.33
603.37	1761.25
603.57	1736.68
603.76	1777.64
603.95	1736.68
604.14	1769.44
604.34	1748.97
604.53	1746.92
604.72	1771.49
604.91	1767.40
605.10	1775.59
605.30	1656.81
605.49	1837.03
605.68	1734.63
605.87	1755.11
606.07	1683.43
606.26	1794.02
606.45	1796.07
606.64	1720.29
606.84	1732.58
607.03	1714.15
607.22	1796.07
607.41	1699.81
607.60	1773.54
607.80	1722.34
607.99	1751.01
608.18	1693.67
608.37	1705.96
608.56	1675.24
608.76	1837.03
608.95	1886.18
609.14	1744.87
609.33	1779.68
609.52	1732.58
609.72	1724.39
609.91	1791.97
610.10	1769.44
610.29	1845.22
610.48	1765.35
610.68	1730.53
610.87	1734.63
611.06	1828.84
611.25	1779.68
611.44	1837.03
611.63	1693.67
611.83	1853.41
612.02	1597.42
612.21	1847.27
612.40	1654.76
612.59	1675.24
612.79	1642.47
612.98	1718.25
613.17	1828.84
613.36	1720.29
613.55	1875.94
613.74	1724.39
613.93	1667.05
614.13	1718.25
614.32	1671.14
614.51	1755.11
614.70	1732.58
614.89	1763.30
615.08	1771.49
615.28	2140.13
615.47	1636.33
615.66	1708.01
615.85	1751.01
616.04	1837.03
616.23	1744.87
616.42	1675.24
616.62	1785.83
616.81	1701.86
617.00	1669.09
617.19	1884.13
617.38	1712.10
617.57	1722.34
617.76	1730.53
617.95	1849.32
618.15	1824.74
618.34	1773.54
618.53	1562.60
618.72	1814.50
618.91	1814.50
619.10	1882.08
619.29	1771.49
619.48	1796.07
619.68	1736.68
619.87	1685.48
620.06	1738.73
620.25	1757.16
620.44	1734.63
620.63	1722.34
620.82	1806.31
621.01	1742.82
621.20	1726.44
621.39	1726.44
621.59	1773.54
621.78	1748.97
621.97	1740.77
622.16	1742.82
622.35	1757.16
622.54	1765.35
622.73	1771.49
622.92	1679.33
623.11	1732.58
623.30	1753.06
623.49	1736.68
623.68	1632.23
623.88	1796.07
624.07	1837.03
624.26	1779.68
624.45	1669.09
624.64	1689.57
624.83	1714.15
625.02	1773.54
625.21	1748.97
625.40	1746.92
625.59	1865.70
625.78	1714.15
625.97	1697.77
626.16	1796.07
626.35	1806.31
626.54	1800.16
626.74	1771.49
626.93	1728.49
627.12	1742.82
627.31	1832.93
627.50	1765.35
627.69	1785.83
627.88	1716.20
628.07	1722.34
628.26	1638.38
628.45	1660.90
628.64	1667.05
628.83	1708.01
629.02	1755.11
629.21	1806.31
629.40	1761.25
629.59	1755.11
629.78	1716.20
629.97	1716.20
630.16	1683.43
630.35	1609.70
630.54	1693.67
630.73	1673.19
630.92	1677.29
631.11	1656.81
631.30	1695.72
631.49	1783.78
631.68	1703.91
631.87	1773.54
632.06	1708.01
632.25	1820.64
632.44	1701.86
632.63	1763.30
632.82	1748.97
633.01	1599.46
633.20	1689.57
633.39	1640.42
633.58	1634.28
633.77	1789.92
633.96	1748.97
634.15	1757.16
634.34	1783.78
634.53	1742.82
634.72	1720.29
634.91	1675.24
635.10	1742.82
635.29	1796.07
635.48	1712.10
635.67	1697.77
635.86	1718.25
636.05	1837.03
636.24	1714.15
636.43	1787.88
636.62	1734.63
636.81	1542.12
637.00	1726.44
637.19	1771.49
637.38	1767.40
637.57	1720.29
637.76	1748.97
637.95	1820.64
638.14	1720.29
638.33	1722.34
638.52	1740.77
638.71	1628.14
638.89	1701.86
639.08	1843.17
639.27	1771.49
639.46	1726.44
639.65	1765.35
639.84	1701.86
640.03	1798.12
640.22	1714.15
640.41	1857.51
640.60	1695.72
640.79	1738.73
640.98	1675.24
641.17	1685.48
641.36	1734.63
641.55	1773.54
641.74	1687.53
641.92	1660.90
642.11	1607.66
642.30	1697.77
642.49	1671.14
642.68	1789.92
642.87	1822.69
643.06	1816.55
643.25	1730.53
643.44	1640.42
643.63	1742.82
643.82	1767.40
644.00	1699.81
644.19	1740.77
644.38	1683.43
644.57	1757.16
644.76	1814.50
644.95	1689.57
645.14	1738.73
645.33	1685.48
645.52	1746.92
645.71	1693.67
645.89	1685.48
646.08	1802.21
646.27	1791.97
646.46	1869.80
646.65	1763.30
646.84	1683.43
647.03	1705.96
647.22	1730.53
647.40	1759.21
647.59	1695.72
647.78	1617.90
647.97	1640.42
648.16	1761.25
648.35	1755.11
648.54	1771.49
648.73	1656.81
648.91	1808.36
649.10	1779.68
649.29	1662.95
649.48	1675.24
649.67	1724.39
649.86	1697.77
650.05	1685.48
650.23	1796.07
650.42	1624.04
650.61	1820.64
650.80	1771.49
650.99	1832.93
651.18	1720.29
651.36	1839.08
651.55	1648.61
651.74	1791.97
651.93	1701.86
652.12	1703.91
652.31	1701.86
652.49	1757.16
652.68	1662.95
652.87	1748.97
653.06	1708.01
653.25	1814.50
653.44	1742.82
653.62	1787.88
653.81	1652.71
654.00	1708.01
654.19	1771.49
654.38	1884.13
654.56	1783.78
654.75	1716.20
654.94	1796.07
655.13	1746.92
655.32	1744.87
655.51	1759.21
655.69	1755.11
655.88	1748.97
656.07	1626.09
656.26	1718.25
656.45	1738.73
656.63	1722.34
656.82	1746.92
657.01	1763.30
657.20	1732.58
657.38	1748.97
657.57	1757.16
657.76	1615.85
657.95	1724.39
658.14	1746.92
658.32	1746.92
658.51	1673.19
658.70	1710.05
658.89	1761.25
659.08	1724.39
659.26	1849.32
659.45	1658.85
659.64	1777.64
659.83	1650.66
660.01	1980.39
660.20	1687.53
660.39	1834.98
660.58	1570.79
660.76	1783.78
660.95	1609.70
661.14	1763.30
661.33	1605.61
661.51	1648.61
661.70	1699.81
661.89	1759.21
662.08	1730.53
662.26	1644.52
662.45	1716.20
662.64	1892.32
662.83	1791.97
663.01	1669.09
663.20	1726.44
663.39	1859.56
663.58	1654.76
663.76	1710.05
663.95	1767.40
664.14	1697.77
664.32	1681.38
664.51	1710.05
664.70	1681.38
664.89	1759.21
665.07	1677.29
665.26	1822.69
665.45	1658.85
665.64	1779.68
665.82	1710.05
666.01	1804.26
666.20	1650.66
666.38	1841.12
666.57	1781.73
666.76	2220.00
666.95	4675.51
667.13	10366.82
667.32	14978.84
667.51	17469.17
667.69	18482.92
667.88	17340.15
668.07	12119.88
668.25	9389.94
668.44	7985.03
668.63	7126.93
668.81	6711.19
669.00	6170.53
669.19	5734.31
669.38	5023.67
669.56	4532.15
669.75	3936.20
669.94	3350.48
670.12	2832.34
670.31	2523.10
670.50	2295.77
670.68	2090.98
670.87	1974.24
671.06	1820.64
671.24	1882.08
671.43	1877.99
671.62	1761.25
671.80	1708.01
671.99	1742.82
672.18	1765.35
672.36	1773.54
672.55	1775.59
672.74	1724.39
672.92	1697.77
673.11	1765.35
673.29	1654.76
673.48	1794.02
673.67	1671.14
673.85	1775.59
674.04	1716.20
674.23	1753.06
674.41	1783.78
674.60	1673.19
674.79	1669.09
674.97	1689.57
675.16	1777.64
675.34	1806.31
675.53	1753.06
675.72	1771.49
675.90	1841.12
676.09	1669.09
676.28	1644.52
676.46	1632.23
676.65	1794.02
676.83	1662.95
677.02	1755.11
677.21	1683.43
677.39	1714.15
677.58	1740.77
677.77	1730.53
677.95	1660.90
678.14	1687.53
678.32	1683.43
678.51	1644.52
678.70	1896.42
678.88	1624.04
679.07	1763.30
679.25	1767.40
679.44	1744.87
679.63	1646.57
679.81	1726.44
680.00	1699.81
680.18	1748.97
680.37	1740.77
680.55	1669.09
680.74	1646.57
680.93	1624.04
681.11	1695.72
681.30	1728.49
681.48	1705.96
681.67	1665.00
681.85	1677.29
682.04	1712.10
682.23	1820.64
682.41	1691.62
682.60	1783.78
682.78	1738.73
682.97	1693.67
683.15	1812.45
683.34	1761.25
683.53	1812.45
683.71	1574.89
683.90	1757.16
684.08	1814.50
684.27	1748.97
684.45	1777.64
684.64	1730.53
684.82	1681.38
685.01	1712.10
685.19	1640.42
685.38	1837.03
685.57	1787.88
685.75	1685.48
685.94	1632.23
686.12	1708.01
686.31	1615.85
686.49	1816.55
686.68	1671.14
686.86	1722.34
687.05	1697.77
687.23	1855.46
687.42	1646.57
687.60	1642.47
687.79	1773.54
687.97	1759.21
688.16	1771.49
688.34	1814.50
688.53	1617.90
688.71	1751.01
688.90	1757.16
689.08	1712.10
689.27	1658.85
689.45	1701.86
689.64	1824.74
689.82	1736.68
690.01	1757.16
690.19	1716.20
690.38	1697.77
690.56	1779.68
690.75	1644.52
690.93	1722.34
691.12	1660.90
691.30	1761.25
691.49	1689.57
691.67	1662.95
691.86	1871.84
692.04	1648.61
692.23	1630.18
692.41	1646.57
692.60	1787.88
692.78	1775.59
692.97	1714.15
693.15	1720.29
693.34	1800.16
693.52	1724.39
693.71	1689.57
693.89	1683.43
694.08	1650.66
694.26	1816.55
694.44	1720.29
694.63	1742.82
694.81	1609.70
695.00	1650.66
695.18	1718.25
695.37	1837.03
695.55	1703.91
695.74	1755.11
695.92	1675.24
696.10	1886.18
696.29	1656.81
696.47	1681.38
696.66	1624.04
696.84	1656.81
697.03	1699.81
697.21	1789.92
697.40	2306.01
697.58	1765.35
697.76	1695.72
697.95	1632.23
698.13	1640.42
698.32	1695.72
698.50	1755.11
698.68	1716.20
698.87	1738.73
699.05	1806.31
699.24	1759.21
699.42	1644.52
699.61	1742.82
699.79	1701.86
699.97	1701.86
700.16	1597.42
700.34	1708.01
700.53	1728.49
700.71	1920.99
700.89	1777.64
701.08	1712.10
701.26	1787.88
701.45	2097.12
701.63	1761.25
701.81	1712.10
702.00	1710.05
702.18	1708.01
702.37	1677.29
702.55	1748.97
702.73	1660.90
702.92	1695.72
703.10	1751.01
703.28	1701.86
703.47	1652.71
703.65	1787.88
703.84	1796.07
704.02	1769.44
704.20	1828.84
704.39	1685.48
704.57	1697.77
704.75	1757.16
704.94	1828.84
705.12	1800.16
705.30	1822.69
705.49	2287.58
705.67	4480.96
705.86	9164.66
706.04	12322.63
706.22	14567.20
706.41	15099.67
706.59	13336.37
706.77	9322.35
706.96	7088.02
707.14	6539.16
707.32	5912.49
707.51	5648.30
707.69	4763.58
707.87	4237.25
708.06	3489.74
708.24	2963.41
708.42	2435.03
708.61	2254.81
708.79	1951.71
708.97	1886.18
709.16	1888.23
709.34	1818.60
709.52	1746.92
709.71	1740.77
709.89	1779.68
710.07	1675.24
710.26	1685.48
710.44	1718.25
710.62	1816.55
710.80	1685.48
710.99	1767.40
711.17	1730.53
711.35	1714.15
711.54	1689.57
711.72	1791.97
711.90	1730.53
712.09	1685.48
712.27	1761.25
712.45	1775.59
712.63	1708.01
712.82	1705.96
713.00	1720.29
713.18	1671.14
713.37	1681.38
713.55	1759.21
713.73	1761.25
713.91	1783.78
714.10	1683.43
714.28	1722.34
714.46	1726.44
714.65	1708.01
714.83	1755.11
715.01	1794.02
715.19	1701.86
715.38	1640.42
715.56	1744.87
715.74	1691.62
715.92	1701.86
716.11	1818.60
716.29	1607.66
716.47	1646.57
716.65	1693.67
716.84	1660.90
717.02	1800.16
717.20	1648.61
717.38	1667.05
717.57	1691.62
717.75	1746.92
717.93	1755.11
718.11	1648.61
718.30	1673.19
718.48	1732.58
718.66	1726.44
718.84	1796.07
719.03	1712.10
719.21	1636.33
719.39	1785.83
719.57	1787.88
719.75	1798.12
719.94	1771.49
720.12	1665.00
720.30	1689.57
720.48	1740.77
720.67	1624.04
720.85	1665.00
721.03	1730.53
721.21	1638.38
721.39	1791.97
721.58	1695.72
721.76	1691.62
721.94	1736.68
722.12	1714.15
722.30	1857.51
722.49	1656.81
722.67	1722.34
722.85	1708.01
723.03	1607.66
723.21	1671.14
723.40	1751.01
723.58	1832.93
723.76	1720.29
723.94	1798.12
724.12	1712.10
724.30	1783.78
724.49	1753.06
724.67	1714.15
724.85	1767.40
725.03	1654.76
725.21	1724.39
725.40	1800.16
725.58	1701.86
725.76	1757.16
725.94	1716.20
726.12	1679.33
726.30	1761.25
726.49	1765.35
726.67	1658.85
726.85	1765.35
727.03	1800.16
727.21	2131.94
727.39	2916.31
727.57	3872.71
727.76	4194.24
727.94	4431.80
728.12	4216.77
728.30	3690.44
728.48	2953.17
728.66	2787.29
728.84	2498.52
729.03	2291.68
729.21	2146.27
729.39	2056.16
729.57	1808.36
729.75	1761.25
729.93	1865.70
730.11	1724.39
730.30	1755.11
730.48	1732.58
730.66	1775.59
730.84	1734.63
731.02	1740.77
731.20	1669.09
731.38	1708.01
731.56	1642.47
731.74	1591.27
731.93	1751.01
732.11	1791.97
732.29	1761.25
732.47	1699.81
732.65	1759.21
732.83	1834.98
733.01	1800.16
733.19	1689.57
733.37	1673.19
733.56	1724.39
733.74	1648.61
733.92	1822.69
734.10	1732.58
734.28	1720.29
734.46	1665.00
734.64	1679.33
734.82	1697.77
735.00	1650.66
735.18	1691.62
735.36	1716.20
735.54	1724.39
735.73	1744.87
735.91	1642.47
736.09	1824.74
736.27	1751.01
736.45	1703.91
736.63	1619.94
736.81	1771.49
736.99	1720.29
737.17	1802.21
737.35	1703.91
737.53	1730.53
737.71	1699.81
737.89	1703.91
738.07	1656.81
738.25	1667.05
738.43	1607.66
738.61	1734.63
738.80	1687.53
738.98	1648.61
739.16	1669.09
739.34	1638.38
739.52	1757.16
739.70	1726.44
739.88	1677.29
740.06	1724.39
740.24	1607.66
740.42	1789.92
740.60	1660.90
740.78	1687.53
740.96	1654.76
741.14	1705.96
741.32	1779.68
741.50	1652.71
741.68	1787.88
741.86	1777.64
742.04	1710.05
742.22	1660.90
742.40	1748.97
742.58	1781.73
742.76	1630.18
742.94	1738.73
743.12	1634.28
743.30	1681.38
743.48	1755.11
743.66	1648.61
743.84	1765.35
744.02	1710.05
744.20	1751.01
744.38	1632.23
744.56	1665.00
744.74	1820.64
744.92	1681.38
745.10	1806.31
745.28	1781.73
745.46	1783.78
745.64	1667.05
745.82	1814.50
746.00	1806.31
746.18	1712.10
746.36	1699.81
746.54	1695.72
746.72	1732.58
746.90	1628.14
747.08	1765.35
747.26	1679.33
747.44	1773.54
747.62	1796.07
747.80	1681.38
747.98	1740.77
748.15	1681.38
748.33	1865.70
748.51	1730.53
748.69	1705.96
748.87	1636.33
749.05	1730.53
749.23	1730.53
749.41	1763.30
749.59	1734.63
749.77	1802.21
749.95	1699.81
750.13	1644.52
750.31	1783.78
750.49	1724.39
750.67	1849.32
750.85	1824.74
751.03	1779.68
751.20	1843.17
751.38	1697.77
751.56	1624.04
751.74	1683.43
751.92	1685.48
752.10	1640.42
752.28	1818.60
752.46	1738.73
752.64	1708.01
752.82	1724.39
753.00	1751.01
753.18	1695.72
753.35	1615.85
753.53	1673.19
753.71	1693.67
753.89	1699.81
754.07	1703.91
754.25	1718.25
754.43	1691.62
754.61	1589.22
754.79	1677.29
754.97	1724.39
755.14	1841.12
755.32	1621.99
755.50	1693.67
755.68	1683.43
755.86	1689.57
756.04	1632.23
756.22	1566.70
756.40	1755.11
756.57	1796.07
756.75	1673.19
756.93	1839.08
757.11	1765.35
757.29	1656.81
757.47	1617.90
757.65	1714.15
757.82	1595.37
758.00	1705.96
758.18	1712.10
758.36	1693.67
758.54	1748.97
758.72	1638.38
758.90	1748.97
759.07	1751.01
759.25	1634.28
759.43	1855.46
759.61	1628.14
759.79	2250.72
759.97	1751.01
760.15	1660.90
760.32	1695.72
760.50	1699.81
760.68	1781.73
760.86	1585.13
761.04	1822.69
761.22	1789.92
761.39	1701.86
761.57	1748.97
761.75	1656.81
761.93	1751.01
762.11	1744.87
762.28	1689.57
762.46	1689.57
762.64	1753.06
762.82	1642.47
763.00	1708.01
763.18	1816.55
763.35	1636.33
763.53	1714.15
763.71	1656.81
763.89	1708.01
764.07	1705.96
764.24	1748.97
764.42	1736.68
764.60	1771.49
764.78	1677.29
764.96	1763.30
765.13	1740.77
765.31	1642.47
765.49	1714.15
765.67	1650.66
765.84	1619.94
766.02	1677.29
766.20	1632.23
766.38	1718.25
766.56	1798.12
766.73	1732.58
766.91	1763.30
767.09	1697.77
767.27	1783.78
767.44	1640.42
767.62	1812.45
767.80	1710.05
767.98	1703.91
768.15	1855.46
768.33	1699.81
768.51	1769.44
768.69	1697.77
768.87	1765.35
769.04	1718.25
769.22	1787.88
769.40	1798.12
769.58	1857.51
769.75	1744.87
769.93	1824.74
770.11	1697.77
770.28	1648.61
770.46	1703.91
770.64	1685.48
770.82	1710.05
770.99	1738.73
771.17	1800.16
771.35	1636.33
771.53	1669.09
771.70	1689.57
771.88	1783.78
772.06	1730.53
772.23	1660.90
772.41	1708.01
772.59	1705.96
772.77	1689.57
772.94	1705.96
773.12	1732.58
773.30	1652.71
773.47	1685.48
773.65	1691.62
773.83	1781.73
774.01	1677.29
774.18	1632.23
774.36	1693.67
774.54	1652.71
774.71	1675.24
774.89	1656.81
775.07	1695.72
775.24	1691.62
775.42	1751.01
775.60	1851.36
775.78	1599.46
775.95	1650.66
776.13	1576.94
776.31	1634.28
776.48	1687.53
776.66	1759.21
776.84	1720.29
777.01	1693.67
777.19	1695.72
777.37	1632.23
777.54	1773.54
777.72	1857.51
777.90	1685.48
778.07	1634.28
778.25	1865.70
778.43	1755.11
778.60	1640.42
778.78	1734.63
778.96	1775.59
779.13	1576.94
779.31	1732.58
779.49	1771.49
779.66	1697.77
779.84	1714.15
780.01	1685.48
780.19	1691.62
780.37	1787.88
780.54	1701.86
780.72	1718.25
780.90	1638.38
781.07	1689.57
781.25	1740.77
781.43	1761.25
781.60	1718.25
781.78	1791.97
781.95	1691.62
782.13	1658.85
782.31	1730.53
782.48	1628.14
782.66	1755.11
782.83	1824.74
783.01	1722.34
783.19	1781.73
783.36	1691.62
783.54	1646.57
783.72	1740.77
783.89	1681.38
784.07	1730.53
784.24	1697.77
784.42	1789.92
784.60	1687.53
784.77	1714.15
784.95	1626.09
785.12	1619.94
785.30	1728.49
785.47	1634.28
785.65	1621.99
785.83	1722.34
786.00	1714.15
786.18	1646.57
786.35	1632.23
786.53	1654.76
786.71	1753.06
786.88	1732.58
787.06	1769.44
787.23	1746.92
787.41	1658.85
787.58	1701.86
787.76	1693.67
787.94	1724.39
788.11	1732.58
788.29	1609.70
788.46	1660.90
788.64	1673.19
788.81	1708.01
788.99	1677.29
789.16	1644.52
789.34	1775.59
789.52	1744.87
789.69	1705.96
789.87	1603.56
790.04	1705.96
790.22	1697.77
790.39	1818.60
790.57	1683.43
790.74	1763.30
790.92	1761.25
791.09	1636.33
791.27	1720.29
791.44	1802.21
791.62	1615.85
791.79	1693.67
791.97	1714.15
792.15	1849.32
792.32	1789.92
792.50	1800.16
792.67	1824.74
792.85	1796.07
793.02	1744.87
793.20	1689.57
793.37	1605.61
793.55	1687.53
793.72	1708.01
793.90	1662.95
794.07	1646.57
794.25	1718.25
794.42	1683.43
794.60	1738.73
794.77	1767.40
794.95	1755.11
795.12	1712.10
795.30	1748.97
795.47	1552.36
795.65	1904.61
795.82	1718.25
796.00	1753.06
796.17	1675.24
796.34	1718.25
796.52	1681.38
796.69	1771.49
796.87	1791.97
797.04	1691.62
797.22	1783.78
797.39	1689.57
797.57	1718.25
797.74	1730.53
797.92	1718.25
798.09	1771.49
798.27	1783.78
798.44	1761.25
798.62	1769.44
798.79	1722.34
798.96	1759.21
799.14	1712.10
799.31	1834.98
799.49	1695.72
799.66	1722.34
799.84	1740.77
800.01	1626.09
800.19	1714.15
800.36	1638.38
800.53	1763.30
800.71	1636.33
800.88	1755.11
801.06	1689.57
801.23	1624.04
801.41	1689.57
801.58	1720.29
801.75	1626.09
801.93	1789.92
802.10	1742.82
802.28	1679.33
802.45	1667.05
802.63	1775.59
802.80	1785.83
802.97	1691.62
803.15	1734.63
803.32	1748.97
803.50	1636.33
803.67	1603.56
803.84	1665.00
804.02	1705.96
804.19	1665.00
804.37	1644.52
804.54	1591.27
804.71	1701.86
804.89	1738.73
805.06	1722.34
805.24	1699.81
805.41	1646.57
805.58	1681.38
805.76	1746.92
805.93	1697.77
806.10	1675.24
806.28	1687.53
806.45	1806.31
806.63	1748.97
806.80	1646.57
806.97	1726.44
807.15	1726.44
807.32	1742.82
807.49	1701.86
807.67	1578.98
807.84	1689.57
808.01	1644.52
808.19	1849.32
808.36	1804.26
808.54	1726.44
808.71	1644.52
808.88	1671.14
809.06	1744.87
809.23	1791.97
809.40	1691.62
809.58	1763.30
809.75	1726.44
809.92	1722.34
810.10	1847.27
810.27	1714.15
810.44	1785.83
810.62	1742.82
810.79	1761.25
810.96	1701.86
811.14	1615.85
811.31	1789.92
811.48	1746.92
811.66	1691.62
811.83	1740.77
812.00	1726.44
812.18	1683.43
812.35	1830.88
812.52	1736.68
812.69	1656.81
812.87	1693.67
813.04	1697.77
813.21	1753.06
813.39	1642.47
813.56	1722.34
813.73	1714.15
813.91	1652.71
814.08	1753.06
814.25	1718.25
814.42	1603.56
814.60	1708.01
814.77	1701.86
814.94	1646.57
815.12	1691.62
815.29	1812.45
815.46	1660.90
815.63	1714.15
815.81	1626.09
815.98	1632.23
816.15	1667.05
816.33	1724.39
816.50	1710.05
816.67	1726.44
816.84	1720.29
817.02	1656.81
817.19	1673.19
817.36	1742.82
817.53	1773.54
817.71	1669.09
817.88	1765.35
818.05	1632.23
818.22	1726.44
818.40	1867.75
818.57	1691.62
818.74	1718.25
818.91	1712.10
819.09	1699.81
819.26	1740.77
819.43	1626.09
819.60	1640.42
819.78	1624.04
819.95	1787.88
820.12	1634.28
820.29	1824.74
820.47	1720.29
820.64	1732.58
820.81	1621.99
820.98	1656.81
821.15	1763.30
821.33	1794.02
821.50	1581.03
821.67	1789.92
821.84	1691.62
822.02	1855.46
822.19	1783.78
822.36	1693.67
822.53	1656.81
822.70	1722.34
822.88	1697.77
823.05	1787.88
823.22	1730.53
823.39	1771.49
823.56	1724.39
823.74	1800.16
823.91	1677.29
824.08	1679.33
824.25	1671.14
824.42	1722.34
824.60	1599.46
824.77	1648.61
824.94	1660.90
825.11	1697.77
825.28	1597.42
825.45	1710.05
825.63	1710.05
825.80	1642.47
825.97	1724.39
826.14	1771.49
826.31	1644.52
826.48	1718.25
826.66	1673.19
826.83	1730.53
827.00	1716.20
827.17	1601.51
827.34	1714.15
827.51	1687.53
827.69	1621.99
827.86	1650.66
828.03	1669.09
828.20	1716.20
828.37	1605.61
828.54	1726.44
828.71	1693.67
828.89	1849.32
829.06	1759.21
829.23	1765.35
829.40	1677.29
829.57	1665.00
829.74	1785.83
829.91	1642.47
830.09	1746.92
830.26	1720.29
830.43	1800.16
830.60	1675.24
830.77	1730.53
830.94	1796.07
831.11	1771.49
831.28	1640.42
831.46	1775.59
831.63	1613.80
831.80	1724.39
831.97	1679.33
832.14	1652.71
832.31	1695.72
832.48	1699.81
832.65	1845.22
832.82	1722.34
832.99	1738.73
833.17	1652.71
833.34	1816.55
833.51	1789.92
833.68	1583.08
833.85	1708.01
834.02	1667.05
834.19	1701.86
834.36	1599.46
834.53	1714.15
834.70	1869.80
834.87	1724.39
835.04	1669.09
835.22	1693.67
835.39	1738.73
835.56	1714.15
835.73	1638.38
835.90	1800.16
836.07	1712.10
836.24	1708.01
836.41	1701.86
836.58	1636.33
836.75	1738.73
836.92	1773.54
837.09	1685.48
837.26	1722.34
837.43	1753.06
837.60	1726.44
837.77	1722.34
837.94	1753.06
838.12	1736.68
838.29	1746.92
838.46	1609.70
838.63	1546.22
838.80	1765.35
838.97	1734.63
839.14	1730.53
839.31	1681.38
839.48	1669.09
839.65	1615.85
839.82	1804.26
839.99	1740.77
840.16	1671.14
840.33	1691.62
840.50	1751.01
840.67	1675.24
840.84	1619.94
841.01	1724.39
841.18	1767.40
841.35	1736.68
841.52	1775.59
841.69	1761.25
841.86	1697.77
842.03	1689.57
842.20	1730.53
842.37	1748.97
842.54	1705.96
842.71	1669.09
842.88	1708.01
843.05	1742.82
843.22	1740.77
843.39	1705.96
843.56	1681.38
843.73	1628.14
843.90	1705.96
844.07	1705.96
844.24	1779.68
844.41	1730.53
844.58	1728.49
844.75	1685.48
844.92	1703.91
845.09	1695.72
845.26	1708.01
845.43	1781.73
845.60	1693.67
845.77	1761.25
845.94	1722.34
846.10	1685.48
846.27	1648.61
846.44	1703.91
846.61	1671.14
846.78	1691.62
846.95	1824.74
847.12	1740.77
847.29	1691.62
847.46	1658.85
847.63	1755.11
847.80	1665.00
847.97	1714.15
848.14	1834.98
848.31	1701.86
848.48	1587.18
848.65	1761.25
848.82	1681.38
848.98	1849.32
849.15	1730.53
849.32	1820.64
849.49	1757.16
849.66	1724.39
849.83	1720.29
850.00	1609.70
850.17	1734.63
850.34	1724.39
850.51	1640.42
850.68	1699.81
850.85	1828.84
851.01	1691.62
851.18	1744.87
851.35	1624.04
851.52	1669.09
851.69	1791.97
851.86	1689.57
852.03	1695.72
852.20	1720.29
852.37	1740.77
852.53	1605.61
852.70	1746.92
852.87	1736.68
853.04	1724.39
853.21	1691.62
853.38	1794.02
853.55	1769.44
853.72	1755.11
853.89	1681.38
854.05	1662.95
854.22	1712.10
854.39	1710.05
854.56	1701.86
854.73	1736.68
854.90	1562.60
855.07	1730.53
855.23	1693.67
855.40	1787.88
855.57	1656.81
855.74	1578.98
855.91	1859.56
856.08	1693.67
856.25	1636.33
856.41	1714.15
856.58	1624.04
856.75	1701.86
856.92	1644.52
857.09	1804.26
857.26	1648.61
857.42	1697.77
857.59	1771.49
857.76	1718.25
857.93	1757.16
858.10	1765.35
858.27	1662.95
858.43	1714.15
858.60	1675.24
858.77	1667.05
858.94	1710.05
859.11	1781.73
859.27	1683.43
859.44	1753.06
859.61	1816.55
859.78	1705.96
859.95	1789.92
860.12	1624.04
860.28	1771.49
860.45	1814.50
860.62	1642.47
860.79	1650.66
860.95	1669.09
861.12	1691.62
861.29	1665.00
861.46	1701.86
861.63	1693.67
861.79	1710.05
861.96	1640.42
862.13	1615.85
862.30	1742.82
862.47	1685.48
862.63	1675.24
862.80	1757.16
862.97	1767.40
863.14	1757.16
863.30	1798.12
863.47	1660.90
863.64	1720.29
863.81	1689.57
863.97	1720.29
864.14	1671.14
864.31	1630.18
864.48	1759.21
864.65	1726.44
864.81	1763.30
864.98	1751.01
865.15	1763.30
865.32	1748.97
865.48	1794.02
865.65	1730.53
865.82	1718.25
865.98	1763.30
866.15	1675.24
866.32	1722.34
866.49	1728.49
866.65	1699.81
866.82	1669.09
866.99	1812.45
867.16	1656.81
867.32	1701.86
867.49	1720.29
867.66	1673.19
867.83	1636.33
867.99	1603.56
868.16	1734.63
868.33	1642.47
868.49	1708.01
868.66	1734.63
868.83	1794.02
868.99	1769.44
869.16	1667.05
869.33	1724.39
869.50	1744.87
869.66	1744.87
869.83	1746.92
870.00	1607.66
870.16	1773.54
870.33	1738.73
870.50	1748.97
870.66	1732.58
870.83	1810.40
871.00	1759.21
871.17	1685.48
871.33	1771.49
871.50	1708.01
871.67	1701.86
871.83	1652.71
872.00	1837.03
872.17	1767.40
872.33	1812.45
872.50	1705.96
872.67	1691.62
872.83	1769.44
873.00	1726.44
873.17	1665.00
873.33	1677.29
873.50	1669.09
873.67	1634.28
873.83	1728.49
874.00	1732.58
874.16	1785.83
874.33	1714.15
874.50	1587.18
874.66	1728.49
874.83	1755.11
875.00	1820.64
875.16	1806.31
875.33	1800.16
875.50	1624.04
875.66	1708.01
875.83	1744.87
875.99	1703.91
876.16	1753.06
876.33	1714.15
876.49	1734.63
876.66	1767.40
876.83	1673.19
876.99	1658.85
877.16	1732.58
877.32	1699.81
877.49	1667.05
877.66	1701.86
877.82	1861.60
877.99	1693.67
878.15	1720.29
878.32	1755.11
878.49	1724.39
878.65	1669.09
878.82	1777.64
878.98	1636.33
879.15	1757.16
879.32	1783.78
879.48	1695.72
879.65	1755.11
879.81	1671.14
879.98	1628.14
880.15	1695.72
880.31	1679.33
880.48	1581.03
880.64	1779.68
880.81	1710.05
880.97	1796.07
881.14	1722.34
881.31	1574.89
881.47	1818.60
881.64	1783.78
881.80	1597.42
881.97	1734.63
882.13	1773.54
882.30	1683.43
882.47	1669.09
882.63	1621.99
882.80	1736.68
882.96	1734.63
883.13	1775.59
883.29	1716.20
883.46	1730.53
883.62	1865.70
883.79	1763.30
883.95	1718.25
884.12	1697.77
884.29	1822.69
884.45	1673.19
884.62	1710.05
884.78	1644.52
884.95	1800.16
885.11	1619.94
885.28	1812.45
885.44	1759.21
885.61	1726.44
885.77	1804.26
885.94	1796.07
886.10	1716.20
886.27	1699.81
886.43	1847.27
886.60	1738.73
886.76	1720.29
886.93	1593.32
887.09	1761.25
887.26	1654.76
887.42	1732.58
887.59	1810.40
887.75	1861.60
887.92	1732.58
888.08	1767.40
888.25	1763.30
888.41	1783.78
888.58	1736.68
888.74	1665.00
888.91	1693.67
>>>>>End Processed Spectral Data<<<<<
