SpectraSuite Data File
++++++++++++++++++++++++++++++++++++
Date: Mon Jun 06 17:00:57 CEST 2016
User: root
Dark Spectrum Present: No
Reference Spectrum Present: No
Number of Sampled Component Spectra: 1
Spectrometers: USB4C02835
Integration Time (usec): 100000 (USB4C02835)
Spectra Averaged: 1 (USB4C02835)
Boxcar Smoothing: 0 (USB4C02835)
Correct for Electrical Dark: No (USB4C02835)
Strobe/Lamp Enabled: No (USB4C02835)
Correct for Detector Non-linearity: No (USB4C02835)
Correct for Stray Light: No (USB4C02835)
Number of Pixels in Processed Spectrum: 3648
>>>>>Begin Processed Spectral Data<<<<<
177.47	1497.07
177.69	1497.07
177.91	1497.07
178.13	1464.30
178.36	1529.83
178.58	1646.57
178.80	1718.25
179.02	1644.52
179.24	1656.81
179.46	1671.14
179.68	1779.68
179.90	1665.00
180.13	1681.38
180.35	1697.77
180.57	1695.72
180.79	1781.73
181.01	1689.57
181.23	1777.64
181.45	1757.16
181.67	1691.62
181.90	1771.49
182.12	1714.15
182.34	1681.38
182.56	1746.92
182.78	1667.05
183.00	1714.15
183.22	1751.01
183.44	1576.94
183.66	1939.43
183.89	1837.03
184.11	1777.64
184.33	1722.34
184.55	1734.63
184.77	1734.63
184.99	1757.16
185.21	1740.77
185.43	1796.07
185.65	1671.14
185.87	1701.86
186.10	1869.80
186.32	1843.17
186.54	1710.05
186.76	1740.77
186.98	1781.73
187.20	1648.61
187.42	1701.86
187.64	1708.01
187.86	1679.33
188.08	1763.30
188.30	1693.67
188.52	1665.00
188.75	1796.07
188.97	1796.07
189.19	1708.01
189.41	1691.62
189.63	1710.05
189.85	1685.48
190.07	1609.70
190.29	1683.43
190.51	1771.49
190.73	1644.52
190.95	1761.25
191.17	1720.29
191.39	1634.28
191.61	1658.85
191.84	1675.24
192.06	1722.34
192.28	1677.29
192.50	1888.23
192.72	1720.29
192.94	1691.62
193.16	1828.84
193.38	1716.20
193.60	1611.75
193.82	1755.11
194.04	1736.68
194.26	1705.96
194.48	1665.00
194.70	1724.39
194.92	1714.15
195.14	1738.73
195.36	1669.09
195.58	1720.29
195.80	1708.01
196.02	1673.19
196.24	1710.05
196.46	1769.44
196.69	1654.76
196.91	1886.18
197.13	1679.33
197.35	1716.20
197.57	1775.59
197.79	1771.49
198.01	1628.14
198.23	1689.57
198.45	1689.57
198.67	1648.61
198.89	1726.44
199.11	1738.73
199.33	1665.00
199.55	1615.85
199.77	1712.10
199.99	1820.64
200.21	1675.24
200.43	1642.47
200.65	1589.22
200.87	1632.23
201.09	1697.77
201.31	1716.20
201.53	1771.49
201.75	1759.21
201.97	1710.05
202.19	1689.57
202.41	1757.16
202.63	1804.26
202.85	1734.63
203.07	1767.40
203.29	1685.48
203.51	1722.34
203.73	1677.29
203.95	1920.99
204.17	1673.19
204.39	1730.53
204.61	1732.58
204.83	1689.57
205.05	1738.73
205.27	1722.34
205.49	1849.32
205.71	1652.71
205.93	1636.33
206.15	1767.40
206.37	1726.44
206.59	1732.58
206.81	1636.33
207.03	1607.66
207.25	1662.95
207.47	1804.26
207.69	1679.33
207.91	1789.92
208.13	1705.96
208.34	1581.03
208.56	1656.81
208.78	1738.73
209.00	1759.21
209.22	1617.90
209.44	1705.96
209.66	1697.77
209.88	1791.97
210.10	1626.09
210.32	1636.33
210.54	1773.54
210.76	1660.90
210.98	1724.39
211.20	1599.46
211.42	1699.81
211.64	1773.54
211.86	1789.92
212.08	1720.29
212.30	1765.35
212.52	1714.15
212.74	1720.29
212.96	1769.44
213.17	1712.10
213.39	1769.44
213.61	1777.64
213.83	1679.33
214.05	1578.98
214.27	1880.04
214.49	1642.47
214.71	1656.81
214.93	1773.54
215.15	1669.09
215.37	1755.11
215.59	1558.50
215.81	1726.44
216.03	1828.84
216.24	1716.20
216.46	1701.86
216.68	1736.68
216.90	1761.25
217.12	1771.49
217.34	1742.82
217.56	1720.29
217.78	1812.45
218.00	1667.05
218.22	1705.96
218.44	1710.05
218.66	1701.86
218.87	1781.73
219.09	1693.67
219.31	1724.39
219.53	1689.57
219.75	1697.77
219.97	1638.38
220.19	1734.63
220.41	1691.62
220.63	1812.45
220.85	1712.10
221.06	1628.14
221.28	1804.26
221.50	1734.63
221.72	1736.68
221.94	1689.57
222.16	1638.38
222.38	1787.88
222.60	1753.06
222.82	1710.05
223.03	1642.47
223.25	1652.71
223.47	1722.34
223.69	1841.12
223.91	1730.53
224.13	1689.57
224.35	1693.67
224.57	1787.88
224.78	1798.12
225.00	1626.09
225.22	1806.31
225.44	1787.88
225.66	1677.29
225.88	1691.62
226.10	1732.58
226.32	1779.68
226.53	1816.55
226.75	1640.42
226.97	1699.81
227.19	1665.00
227.41	1656.81
227.63	1697.77
227.85	1650.66
228.06	1716.20
228.28	1705.96
228.50	1746.92
228.72	1650.66
228.94	1712.10
229.16	1636.33
229.37	1665.00
229.59	1660.90
229.81	1771.49
230.03	1691.62
230.25	1679.33
230.47	1665.00
230.69	1613.80
230.90	1753.06
231.12	1687.53
231.34	1693.67
231.56	1808.36
231.78	1568.74
232.00	1660.90
232.21	1722.34
232.43	1691.62
232.65	1609.70
232.87	1748.97
233.09	1646.57
233.30	1691.62
233.52	1761.25
233.74	1656.81
233.96	1650.66
234.18	1714.15
234.40	1697.77
234.61	1783.78
234.83	1570.79
235.05	1617.90
235.27	1818.60
235.49	1832.93
235.70	1658.85
235.92	1779.68
236.14	1732.58
236.36	1843.17
236.58	1630.18
236.79	1830.88
237.01	1685.48
237.23	1681.38
237.45	1800.16
237.67	1636.33
237.88	1736.68
238.10	1769.44
238.32	1734.63
238.54	1726.44
238.76	1652.71
238.97	1660.90
239.19	1587.18
239.41	1726.44
239.63	1732.58
239.85	1722.34
240.06	1595.37
240.28	1699.81
240.50	1718.25
240.72	1671.14
240.93	1679.33
241.15	1761.25
241.37	1726.44
241.59	1787.88
241.81	1740.77
242.02	1701.86
242.24	1710.05
242.46	1763.30
242.68	1619.94
242.89	1697.77
243.11	1765.35
243.33	1673.19
243.55	1767.40
243.76	1736.68
243.98	1701.86
244.20	1681.38
244.42	1644.52
244.64	1650.66
244.85	1673.19
245.07	1648.61
245.29	1687.53
245.51	1753.06
245.72	1691.62
245.94	1753.06
246.16	1730.53
246.38	1685.48
246.59	1701.86
246.81	1705.96
247.03	1712.10
247.24	1583.08
247.46	1636.33
247.68	1794.02
247.90	1757.16
248.11	1654.76
248.33	1759.21
248.55	1689.57
248.77	1701.86
248.98	1712.10
249.20	1746.92
249.42	1697.77
249.64	1718.25
249.85	1677.29
250.07	1701.86
250.29	1759.21
250.50	1732.58
250.72	1632.23
250.94	1642.47
251.16	1869.80
251.37	1769.44
251.59	1687.53
251.81	1642.47
252.02	1871.84
252.24	1675.24
252.46	1798.12
252.68	1656.81
252.89	1673.19
253.11	1624.04
253.33	1796.07
253.54	1726.44
253.76	1693.67
253.98	1693.67
254.20	1726.44
254.41	1572.84
254.63	1677.29
254.85	1607.66
255.06	1703.91
255.28	1720.29
255.50	1697.77
255.71	1689.57
255.93	1673.19
256.15	1751.01
256.36	1722.34
256.58	1693.67
256.80	1703.91
257.02	1751.01
257.23	1689.57
257.45	1677.29
257.67	1738.73
257.88	1773.54
258.10	1691.62
258.32	1677.29
258.53	1765.35
258.75	1869.80
258.97	1595.37
259.18	1720.29
259.40	1699.81
259.62	1806.31
259.83	1734.63
260.05	1775.59
260.27	2021.35
260.48	1740.77
260.70	1671.14
260.92	1708.01
261.13	1726.44
261.35	1710.05
261.57	1736.68
261.78	1576.94
262.00	1689.57
262.22	1714.15
262.43	1683.43
262.65	1728.49
262.86	1759.21
263.08	1839.08
263.30	1742.82
263.51	1697.77
263.73	1648.61
263.95	1726.44
264.16	1667.05
264.38	1710.05
264.60	1765.35
264.81	1726.44
265.03	1738.73
265.25	1798.12
265.46	1699.81
265.68	1787.88
265.89	1720.29
266.11	1591.27
266.33	1658.85
266.54	1736.68
266.76	1746.92
266.98	1753.06
267.19	1802.21
267.41	1755.11
267.62	1740.77
267.84	1675.24
268.06	1699.81
268.27	1730.53
268.49	1783.78
268.70	1718.25
268.92	1685.48
269.14	1722.34
269.35	1617.90
269.57	1658.85
269.79	1779.68
270.00	1613.80
270.22	1843.17
270.43	1630.18
270.65	1591.27
270.87	1730.53
271.08	1748.97
271.30	1765.35
271.51	1681.38
271.73	1748.97
271.95	1693.67
272.16	1783.78
272.38	1712.10
272.59	1632.23
272.81	1726.44
273.02	1699.81
273.24	1783.78
273.46	1826.79
273.67	1761.25
273.89	1658.85
274.10	1673.19
274.32	1804.26
274.54	1742.82
274.75	1755.11
274.97	1665.00
275.18	1802.21
275.40	1714.15
275.61	1759.21
275.83	1767.40
276.05	1636.33
276.26	1681.38
276.48	1677.29
276.69	1726.44
276.91	1605.61
277.12	1744.87
277.34	1759.21
277.55	1789.92
277.77	1730.53
277.99	1644.52
278.20	1552.36
278.42	1705.96
278.63	1662.95
278.85	1634.28
279.06	1628.14
279.28	1720.29
279.49	1697.77
279.71	1703.91
279.93	1675.24
280.14	1687.53
280.36	1677.29
280.57	1765.35
280.79	1785.83
281.00	1710.05
281.22	1691.62
281.43	1816.55
281.65	1572.84
281.86	1667.05
282.08	1800.16
282.29	1810.40
282.51	1624.04
282.73	1681.38
282.94	1640.42
283.16	1759.21
283.37	1781.73
283.59	1718.25
283.80	1703.91
284.02	1697.77
284.23	1708.01
284.45	1691.62
284.66	1648.61
284.88	1703.91
285.09	1806.31
285.31	1730.53
285.52	1724.39
285.74	1601.51
285.95	1787.88
286.17	1705.96
286.38	1810.40
286.60	1665.00
286.81	1683.43
287.03	1572.84
287.24	1660.90
287.46	1738.73
287.67	1646.57
287.89	1859.56
288.10	1736.68
288.32	1757.16
288.53	1808.36
288.75	1695.72
288.96	1765.35
289.18	1697.77
289.39	1677.29
289.61	1763.30
289.82	1851.36
290.04	1779.68
290.25	1710.05
290.47	1730.53
290.68	1716.20
290.90	1810.40
291.11	1636.33
291.33	1740.77
291.54	1630.18
291.76	1693.67
291.97	1630.18
292.18	1730.53
292.40	1648.61
292.61	1667.05
292.83	1906.66
293.04	1650.66
293.26	1730.53
293.47	1648.61
293.69	1671.14
293.90	1689.57
294.12	1732.58
294.33	1673.19
294.55	1636.33
294.76	1789.92
294.97	1734.63
295.19	1781.73
295.40	1693.67
295.62	1699.81
295.83	1796.07
296.05	1640.42
296.26	1718.25
296.48	1675.24
296.69	1718.25
296.90	1775.59
297.12	1791.97
297.33	1841.12
297.55	1691.62
297.76	1773.54
297.98	1791.97
298.19	1679.33
298.41	1693.67
298.62	1656.81
298.83	1742.82
299.05	1730.53
299.26	1685.48
299.48	1624.04
299.69	1777.64
299.90	1669.09
300.12	1636.33
300.33	1771.49
300.55	1730.53
300.76	1742.82
300.98	1648.61
301.19	1673.19
301.40	1740.77
301.62	1757.16
301.83	1746.92
302.05	1685.48
302.26	1730.53
302.47	1658.85
302.69	1626.09
302.90	1640.42
303.12	1642.47
303.33	1808.36
303.54	1843.17
303.76	1681.38
303.97	1685.48
304.19	1724.39
304.40	1632.23
304.61	1771.49
304.83	1722.34
305.04	1791.97
305.26	1775.59
305.47	1617.90
305.68	1730.53
305.90	1650.66
306.11	1746.92
306.33	1714.15
306.54	1718.25
306.75	1640.42
306.97	1644.52
307.18	1646.57
307.39	1701.86
307.61	1705.96
307.82	1697.77
308.04	1781.73
308.25	1632.23
308.46	1740.77
308.68	1744.87
308.89	1689.57
309.10	1753.06
309.32	1755.11
309.53	1724.39
309.74	1726.44
309.96	1724.39
310.17	1773.54
310.39	1722.34
310.60	1748.97
310.81	1654.76
311.03	1656.81
311.24	1804.26
311.45	1605.61
311.67	1789.92
311.88	1689.57
312.09	1730.53
312.31	1751.01
312.52	1718.25
312.73	1648.61
312.95	1581.03
313.16	1679.33
313.37	1753.06
313.59	1718.25
313.80	1767.40
314.01	1748.97
314.23	1705.96
314.44	1708.01
314.65	1591.27
314.87	1710.05
315.08	1773.54
315.29	1632.23
315.51	1677.29
315.72	1591.27
315.93	1808.36
316.15	1818.60
316.36	1710.05
316.57	1689.57
316.79	1791.97
317.00	1669.09
317.21	1685.48
317.43	1671.14
317.64	1734.63
317.85	1728.49
318.07	1636.33
318.28	1705.96
318.49	1791.97
318.70	1822.69
318.92	1828.84
319.13	1763.30
319.34	1849.32
319.56	1837.03
319.77	1822.69
319.98	1761.25
320.20	1787.88
320.41	1771.49
320.62	1759.21
320.83	1675.24
321.05	1834.98
321.26	1730.53
321.47	1691.62
321.69	1828.84
321.90	1673.19
322.11	1736.68
322.32	1673.19
322.54	1841.12
322.75	1632.23
322.96	1841.12
323.18	1656.81
323.39	1646.57
323.60	1689.57
323.81	1822.69
324.03	1642.47
324.24	1722.34
324.45	1693.67
324.66	1703.91
324.88	1730.53
325.09	1777.64
325.30	1687.53
325.52	1744.87
325.73	1726.44
325.94	1648.61
326.15	1603.56
326.37	1640.42
326.58	1734.63
326.79	1812.45
327.00	1720.29
327.22	1740.77
327.43	1648.61
327.64	1658.85
327.85	1777.64
328.07	1681.38
328.28	1847.27
328.49	1648.61
328.70	1658.85
328.92	1669.09
329.13	1701.86
329.34	1691.62
329.55	1800.16
329.76	1691.62
329.98	1814.50
330.19	1693.67
330.40	1679.33
330.61	1667.05
330.83	1761.25
331.04	1628.14
331.25	1675.24
331.46	1652.71
331.68	1638.38
331.89	1751.01
332.10	1609.70
332.31	1632.23
332.52	1660.90
332.74	1798.12
332.95	1609.70
333.16	1763.30
333.37	1777.64
333.58	1624.04
333.80	1720.29
334.01	1691.62
334.22	1683.43
334.43	1617.90
334.64	1716.20
334.86	1624.04
335.07	1654.76
335.28	1736.68
335.49	1632.23
335.70	1769.44
335.92	1802.21
336.13	1867.75
336.34	1644.52
336.55	1685.48
336.76	1679.33
336.98	1570.79
337.19	1691.62
337.40	1783.78
337.61	1937.38
337.82	1673.19
338.04	1759.21
338.25	1673.19
338.46	1671.14
338.67	1679.33
338.88	1683.43
339.09	1597.42
339.31	1675.24
339.52	1615.85
339.73	1593.32
339.94	1736.68
340.15	1798.12
340.36	1675.24
340.58	1701.86
340.79	1689.57
341.00	1787.88
341.21	1693.67
341.42	1785.83
341.63	1691.62
341.85	1705.96
342.06	1712.10
342.27	1722.34
342.48	1757.16
342.69	1656.81
342.90	1748.97
343.12	1771.49
343.33	1669.09
343.54	1796.07
343.75	1722.34
343.96	1716.20
344.17	1732.58
344.38	1630.18
344.60	1585.13
344.81	1621.99
345.02	1675.24
345.23	1779.68
345.44	1757.16
345.65	1742.82
345.86	1681.38
346.07	1714.15
346.29	1708.01
346.50	1804.26
346.71	1751.01
346.92	1810.40
347.13	1871.84
347.34	1701.86
347.55	1740.77
347.76	1705.96
347.98	1675.24
348.19	1650.66
348.40	1828.84
348.61	1681.38
348.82	1816.55
349.03	1710.05
349.24	1685.48
349.45	1804.26
349.66	1609.70
349.88	1658.85
350.09	1705.96
350.30	1781.73
350.51	1775.59
350.72	1722.34
350.93	1695.72
351.14	1624.04
351.35	1695.72
351.56	1644.52
351.77	1783.78
351.99	1701.86
352.20	1789.92
352.41	1775.59
352.62	1535.98
352.83	1693.67
353.04	1736.68
353.25	1691.62
353.46	1734.63
353.67	1765.35
353.88	1605.61
354.09	1730.53
354.30	1736.68
354.52	1705.96
354.73	1675.24
354.94	1634.28
355.15	1769.44
355.36	1822.69
355.57	1644.52
355.78	1757.16
355.99	1677.29
356.20	1730.53
356.41	1748.97
356.62	1730.53
356.83	1675.24
357.04	1767.40
357.25	1642.47
357.46	1718.25
357.68	1628.14
357.89	1650.66
358.10	1673.19
358.31	1714.15
358.52	1701.86
358.73	1648.61
358.94	1683.43
359.15	1642.47
359.36	1800.16
359.57	1681.38
359.78	1703.91
359.99	1710.05
360.20	1626.09
360.41	1728.49
360.62	1763.30
360.83	1710.05
361.04	1740.77
361.25	1787.88
361.46	1816.55
361.67	1730.53
361.88	1777.64
362.09	1847.27
362.30	1751.01
362.51	1687.53
362.72	1673.19
362.93	1734.63
363.14	1722.34
363.35	1720.29
363.56	1611.75
363.78	1748.97
363.99	1744.87
364.20	1648.61
364.41	1730.53
364.62	1824.74
364.83	1800.16
365.04	1751.01
365.25	1689.57
365.46	1847.27
365.67	1667.05
365.88	1652.71
366.09	1726.44
366.30	1693.67
366.51	1718.25
366.72	1685.48
366.93	1640.42
367.14	1710.05
367.35	1763.30
367.56	1761.25
367.77	1794.02
367.98	1697.77
368.18	1748.97
368.39	1755.11
368.60	1595.37
368.81	1708.01
369.02	1804.26
369.23	1626.09
369.44	1626.09
369.65	1624.04
369.86	1718.25
370.07	1763.30
370.28	1710.05
370.49	1675.24
370.70	1730.53
370.91	1619.94
371.12	1632.23
371.33	1712.10
371.54	1724.39
371.75	1771.49
371.96	1603.56
372.17	1701.86
372.38	1685.48
372.59	1773.54
372.80	1730.53
373.01	1699.81
373.22	1726.44
373.43	1773.54
373.64	1675.24
373.85	1734.63
374.06	1810.40
374.26	1738.73
374.47	1730.53
374.68	1787.88
374.89	1701.86
375.10	1650.66
375.31	1769.44
375.52	1714.15
375.73	1726.44
375.94	1681.38
376.15	1812.45
376.36	1619.94
376.57	1679.33
376.78	1697.77
376.99	1689.57
377.20	1853.41
377.40	1665.00
377.61	1845.22
377.82	1746.92
378.03	1820.64
378.24	1779.68
378.45	1685.48
378.66	1734.63
378.87	1572.84
379.08	1691.62
379.29	1660.90
379.50	1740.77
379.71	1667.05
379.91	1734.63
380.12	1669.09
380.33	1660.90
380.54	1697.77
380.75	1701.86
380.96	1615.85
381.17	1736.68
381.38	1705.96
381.59	1769.44
381.80	1681.38
382.00	1804.26
382.21	1775.59
382.42	1794.02
382.63	1888.23
382.84	1697.77
383.05	1773.54
383.26	1767.40
383.47	1687.53
383.68	1714.15
383.88	1710.05
384.09	1779.68
384.30	1869.80
384.51	1671.14
384.72	1722.34
384.93	1675.24
385.14	1703.91
385.35	1820.64
385.55	1574.89
385.76	1773.54
385.97	1753.06
386.18	1591.27
386.39	1656.81
386.60	1689.57
386.81	1708.01
387.02	1705.96
387.22	1662.95
387.43	1753.06
387.64	1841.12
387.85	1951.71
388.06	2123.74
388.27	4110.27
388.48	6672.28
388.68	8128.39
388.89	9367.41
389.10	9805.67
389.31	8427.39
389.52	7448.46
389.73	6606.75
389.93	6143.91
390.14	5758.89
390.35	5232.56
390.56	4476.86
390.77	3862.47
390.98	2985.94
391.18	2469.85
391.39	2138.08
391.60	1812.45
391.81	1855.46
392.02	1673.19
392.23	1845.22
392.43	1779.68
392.64	1785.83
392.85	1769.44
393.06	1910.75
393.27	1740.77
393.47	1695.72
393.68	1740.77
393.89	1728.49
394.10	1708.01
394.31	1679.33
394.52	1656.81
394.72	1677.29
394.93	1798.12
395.14	1665.00
395.35	1748.97
395.56	1681.38
395.76	1710.05
395.97	1832.93
396.18	1820.64
396.39	1890.28
396.60	2033.63
396.80	1755.11
397.01	1851.36
397.22	1779.68
397.43	1751.01
397.64	1728.49
397.84	1800.16
398.05	1869.80
398.26	1742.82
398.47	1789.92
398.67	1722.34
398.88	1720.29
399.09	1751.01
399.30	1675.24
399.51	1658.85
399.71	1675.24
399.92	1712.10
400.13	1683.43
400.34	1753.06
400.54	1728.49
400.75	1820.64
400.96	1677.29
401.17	1800.16
401.37	1761.25
401.58	1748.97
401.79	1744.87
402.00	1867.75
402.21	1982.43
402.41	1933.28
402.62	2002.91
402.83	2074.59
403.04	1970.15
403.24	2017.25
403.45	1894.37
403.66	1890.28
403.87	1931.23
404.07	1923.04
404.28	1822.69
404.49	1923.04
404.70	1810.40
404.90	1820.64
405.11	1728.49
405.32	1718.25
405.52	1654.76
405.73	1628.14
405.94	1755.11
406.15	1744.87
406.35	1755.11
406.56	1683.43
406.77	1789.92
406.98	1734.63
407.18	1650.66
407.39	1796.07
407.60	1714.15
407.80	1771.49
408.01	1660.90
408.22	1800.16
408.43	1740.77
408.63	1677.29
408.84	1785.83
409.05	1755.11
409.25	1660.90
409.46	1617.90
409.67	1716.20
409.88	1642.47
410.08	1796.07
410.29	1613.80
410.50	1800.16
410.70	1763.30
410.91	1689.57
411.12	1746.92
411.32	1673.19
411.53	1619.94
411.74	1832.93
411.95	1751.01
412.15	1763.30
412.36	1789.92
412.57	1740.77
412.77	1847.27
412.98	1681.38
413.19	1677.29
413.39	1822.69
413.60	1804.26
413.81	1824.74
414.01	1697.77
414.22	1722.34
414.43	1697.77
414.63	1771.49
414.84	1783.78
415.05	1701.86
415.25	1615.85
415.46	1779.68
415.67	1673.19
415.87	1757.16
416.08	1648.61
416.29	1671.14
416.49	1742.82
416.70	1615.85
416.91	1689.57
417.11	1720.29
417.32	1728.49
417.53	1773.54
417.73	1693.67
417.94	1742.82
418.15	1687.53
418.35	1681.38
418.56	1695.72
418.77	1859.56
418.97	1742.82
419.18	1697.77
419.38	1679.33
419.59	1765.35
419.80	1822.69
420.00	1669.09
420.21	1722.34
420.42	1861.60
420.62	1701.86
420.83	1632.23
421.04	1728.49
421.24	1675.24
421.45	1775.59
421.65	1734.63
421.86	1724.39
422.07	1804.26
422.27	1705.96
422.48	1679.33
422.69	1603.56
422.89	1697.77
423.10	1681.38
423.30	1646.57
423.51	1730.53
423.72	1775.59
423.92	1773.54
424.13	1671.14
424.33	1746.92
424.54	1746.92
424.75	1712.10
424.95	1822.69
425.16	1683.43
425.36	1695.72
425.57	1724.39
425.78	1789.92
425.98	1753.06
426.19	1718.25
426.39	1671.14
426.60	1738.73
426.81	1828.84
427.01	1636.33
427.22	1730.53
427.42	1654.76
427.63	1642.47
427.83	1753.06
428.04	1822.69
428.25	1789.92
428.45	1777.64
428.66	1714.15
428.86	1677.29
429.07	1738.73
429.28	1720.29
429.48	1683.43
429.69	1638.38
429.89	1794.02
430.10	1671.14
430.30	1716.20
430.51	1779.68
430.71	1615.85
430.92	1751.01
431.13	1650.66
431.33	1748.97
431.54	1695.72
431.74	1800.16
431.95	1853.41
432.15	1669.09
432.36	1755.11
432.56	1771.49
432.77	1871.84
432.98	1802.21
433.18	1765.35
433.39	1681.38
433.59	1751.01
433.80	1863.65
434.00	1824.74
434.21	1665.00
434.41	1724.39
434.62	1824.74
434.82	1708.01
435.03	1634.28
435.23	1654.76
435.44	1675.24
435.64	1687.53
435.85	1708.01
436.06	1712.10
436.26	1808.36
436.47	1658.85
436.67	1726.44
436.88	1748.97
437.08	1822.69
437.29	1802.21
437.49	1681.38
437.70	1810.40
437.90	1728.49
438.11	1843.17
438.31	1779.68
438.52	1865.70
438.72	1798.12
438.93	1959.91
439.13	1853.41
439.34	1886.18
439.54	1771.49
439.75	1880.04
439.95	1839.08
440.16	1710.05
440.36	1804.26
440.57	1740.77
440.77	1683.43
440.98	1738.73
441.18	1818.60
441.39	1701.86
441.59	1656.81
441.80	1738.73
442.00	1699.81
442.21	1773.54
442.41	1642.47
442.62	1875.94
442.82	1650.66
443.02	1732.58
443.23	1800.16
443.43	1779.68
443.64	1837.03
443.84	1714.15
444.05	1736.68
444.25	1701.86
444.46	1710.05
444.66	1763.30
444.87	1763.30
445.07	1609.70
445.28	1685.48
445.48	1873.89
445.69	1785.83
445.89	1914.85
446.09	1751.01
446.30	1984.48
446.50	2623.45
446.71	3758.02
446.91	4220.86
447.12	4728.76
447.32	4794.29
447.53	4167.62
447.73	3846.09
447.93	3614.66
448.14	3342.28
448.34	3289.04
448.55	2928.60
448.75	2742.23
448.96	2713.56
449.16	2379.74
449.36	2326.49
449.57	2097.12
449.77	1871.84
449.98	1755.11
450.18	1820.64
450.39	1734.63
450.59	1810.40
450.79	1753.06
451.00	1677.29
451.20	1775.59
451.41	1675.24
451.61	1781.73
451.81	1781.73
452.02	1708.01
452.22	1798.12
452.43	1722.34
452.63	1705.96
452.84	1777.64
453.04	1718.25
453.24	1800.16
453.45	1679.33
453.65	1695.72
453.86	1722.34
454.06	1837.03
454.26	1730.53
454.47	1677.29
454.67	1855.46
454.87	1748.97
455.08	1775.59
455.28	1843.17
455.49	1746.92
455.69	1662.95
455.89	1896.42
456.10	1861.60
456.30	1689.57
456.51	1791.97
456.71	1761.25
456.91	1812.45
457.12	1751.01
457.32	1757.16
457.52	1757.16
457.73	1724.39
457.93	1810.40
458.14	1751.01
458.34	1665.00
458.54	1693.67
458.75	1695.72
458.95	1689.57
459.15	1751.01
459.36	1775.59
459.56	1820.64
459.76	1867.75
459.97	1794.02
460.17	1718.25
460.37	1837.03
460.58	1697.77
460.78	1738.73
460.99	1708.01
461.19	1765.35
461.39	1640.42
461.60	1708.01
461.80	1787.88
462.00	1679.33
462.21	1775.59
462.41	1744.87
462.61	1724.39
462.82	1665.00
463.02	1748.97
463.22	1718.25
463.43	1806.31
463.63	1755.11
463.83	1847.27
464.04	1718.25
464.24	1765.35
464.44	1660.90
464.64	1767.40
464.85	1708.01
465.05	1705.96
465.25	1732.58
465.46	1576.94
465.66	1800.16
465.86	1818.60
466.07	1693.67
466.27	1755.11
466.47	1609.70
466.68	1660.90
466.88	1871.84
467.08	1744.87
467.29	1871.84
467.49	1716.20
467.69	1744.87
467.89	1697.77
468.10	1742.82
468.30	1748.97
468.50	1808.36
468.71	1791.97
468.91	1636.33
469.11	1798.12
469.31	1734.63
469.52	1796.07
469.72	1853.41
469.92	1886.18
470.13	1710.05
470.33	1740.77
470.53	1896.42
470.73	2101.22
470.94	2256.86
471.14	2326.49
471.34	2527.19
471.54	2396.12
471.75	2181.09
471.95	2056.16
472.15	2090.98
472.36	2111.46
472.56	2086.88
472.76	2033.63
472.96	2029.54
473.17	1927.14
473.37	1974.24
473.57	1800.16
473.77	1824.74
473.98	1724.39
474.18	1775.59
474.38	1877.99
474.58	1673.19
474.79	1710.05
474.99	1730.53
475.19	1689.57
475.39	1705.96
475.60	1753.06
475.80	1736.68
476.00	1710.05
476.20	1687.53
476.41	1716.20
476.61	1767.40
476.81	1826.79
477.01	1697.77
477.21	1789.92
477.42	1779.68
477.62	1703.91
477.82	1816.55
478.02	1726.44
478.23	1763.30
478.43	1718.25
478.63	1693.67
478.83	1634.28
479.03	1796.07
479.24	1771.49
479.44	1861.60
479.64	1660.90
479.84	1632.23
480.04	1742.82
480.25	1804.26
480.45	1638.38
480.65	1714.15
480.85	1839.08
481.06	1654.76
481.26	1773.54
481.46	1728.49
481.66	1789.92
481.86	1703.91
482.06	1769.44
482.27	1675.24
482.47	1665.00
482.67	1783.78
482.87	1712.10
483.07	1775.59
483.28	1681.38
483.48	1640.42
483.68	1695.72
483.88	1640.42
484.08	1718.25
484.29	1689.57
484.49	1765.35
484.69	1652.71
484.89	1759.21
485.09	1810.40
485.29	1720.29
485.50	1773.54
485.70	1634.28
485.90	1812.45
486.10	1734.63
486.30	1812.45
486.50	1857.51
486.71	1732.58
486.91	1771.49
487.11	1734.63
487.31	1652.71
487.51	1789.92
487.71	1667.05
487.91	1607.66
488.12	1679.33
488.32	1634.28
488.52	1757.16
488.72	1673.19
488.92	1656.81
489.12	1798.12
489.32	1767.40
489.53	1763.30
489.73	1621.99
489.93	1730.53
490.13	1691.62
490.33	1671.14
490.53	1804.26
490.73	1757.16
490.94	1589.22
491.14	1763.30
491.34	1802.21
491.54	2148.32
491.74	2592.73
491.94	2912.21
492.14	3018.71
492.34	2963.41
492.54	2789.33
492.75	2455.51
492.95	2428.89
493.15	2224.09
493.35	2328.54
493.55	2207.71
493.75	2152.42
493.95	2064.35
494.15	1996.77
494.35	1947.62
494.56	1929.19
494.76	1818.60
494.96	1826.79
495.16	1810.40
495.36	1796.07
495.56	1787.88
495.76	1783.78
495.96	1724.39
496.16	1671.14
496.36	1853.41
496.56	1712.10
496.77	1763.30
496.97	1730.53
497.17	1832.93
497.37	1673.19
497.57	1695.72
497.77	1820.64
497.97	1714.15
498.17	1699.81
498.37	1787.88
498.57	1845.22
498.77	1703.91
498.97	1757.16
499.17	1855.46
499.38	1767.40
499.58	1714.15
499.78	1726.44
499.98	1763.30
500.18	1796.07
500.38	1679.33
500.58	1935.33
500.78	2471.90
500.98	4388.80
501.18	5689.26
501.38	6713.24
501.58	7018.39
501.78	6698.91
501.98	5451.69
502.18	4960.18
502.38	4472.76
502.58	3950.53
502.78	3803.08
502.98	3569.61
503.18	3561.42
503.38	3239.89
503.59	2910.16
503.79	2619.35
503.99	2385.88
504.19	2420.70
504.39	2226.14
504.59	2224.09
504.79	2166.75
504.99	1998.82
505.19	1986.53
505.39	1894.37
505.59	1996.77
505.79	1929.19
505.99	1855.46
506.19	1791.97
506.39	1828.84
506.59	1720.29
506.79	1763.30
506.99	1794.02
507.19	1691.62
507.39	1798.12
507.59	1705.96
507.79	1693.67
507.99	1771.49
508.19	1726.44
508.39	1730.53
508.59	1701.86
508.79	1837.03
508.99	1986.53
509.19	1710.05
509.39	1781.73
509.59	1617.90
509.79	1640.42
509.99	1779.68
510.19	1798.12
510.39	1761.25
510.59	1742.82
510.79	1791.97
510.99	1699.81
511.19	1667.05
511.39	1837.03
511.59	1781.73
511.79	1773.54
511.99	1812.45
512.19	1812.45
512.38	1738.73
512.58	1710.05
512.78	1703.91
512.98	1798.12
513.18	1869.80
513.38	1742.82
513.58	1744.87
513.78	1755.11
513.98	1753.06
514.18	1695.72
514.38	1718.25
514.58	1748.97
514.78	1746.92
514.98	1728.49
515.18	1705.96
515.38	1738.73
515.58	1818.60
515.78	1746.92
515.98	1718.25
516.18	1810.40
516.38	1763.30
516.57	1628.14
516.77	1744.87
516.97	1814.50
517.17	1673.19
517.37	1636.33
517.57	1804.26
517.77	1753.06
517.97	1703.91
518.17	1841.12
518.37	1759.21
518.57	1621.99
518.77	1712.10
518.97	1714.15
519.16	1779.68
519.36	1834.98
519.56	1665.00
519.76	1777.64
519.96	1775.59
520.16	1869.80
520.36	1701.86
520.56	1841.12
520.76	1685.48
520.96	1738.73
521.16	1779.68
521.35	1765.35
521.55	1812.45
521.75	1759.21
521.95	1722.34
522.15	1683.43
522.35	1705.96
522.55	1691.62
522.75	1796.07
522.95	1761.25
523.14	1705.96
523.34	1759.21
523.54	1695.72
523.74	1796.07
523.94	1755.11
524.14	1710.05
524.34	1834.98
524.54	1794.02
524.73	1759.21
524.93	1726.44
525.13	1791.97
525.33	1654.76
525.53	1910.75
525.73	1789.92
525.93	1814.50
526.13	1703.91
526.32	1757.16
526.52	1796.07
526.72	1816.55
526.92	1718.25
527.12	1728.49
527.32	1693.67
527.52	1804.26
527.71	1722.34
527.91	1763.30
528.11	1722.34
528.31	1751.01
528.51	1615.85
528.71	1800.16
528.90	1785.83
529.10	1855.46
529.30	1789.92
529.50	1574.89
529.70	1769.44
529.90	1689.57
530.09	1822.69
530.29	1644.52
530.49	1630.18
530.69	1853.41
530.89	1757.16
531.09	1812.45
531.28	1712.10
531.48	1863.65
531.68	1814.50
531.88	1650.66
532.08	1765.35
532.28	1765.35
532.47	1763.30
532.67	1740.77
532.87	1785.83
533.07	1689.57
533.27	1761.25
533.46	1783.78
533.66	1757.16
533.86	1695.72
534.06	1673.19
534.26	1738.73
534.45	1734.63
534.65	1818.60
534.85	1759.21
535.05	1701.86
535.25	1800.16
535.44	1632.23
535.64	1802.21
535.84	1718.25
536.04	1695.72
536.24	1677.29
536.43	1683.43
536.63	1767.40
536.83	1785.83
537.03	1716.20
537.22	1593.32
537.42	1656.81
537.62	1746.92
537.82	1628.14
538.02	1771.49
538.21	1890.28
538.41	1951.71
538.61	1828.84
538.81	1744.87
539.00	1837.03
539.20	1636.33
539.40	1728.49
539.60	1746.92
539.79	1730.53
539.99	1779.68
540.19	1742.82
540.39	1675.24
540.58	1724.39
540.78	1875.94
540.98	1710.05
541.18	1822.69
541.37	1800.16
541.57	1732.58
541.77	1730.53
541.97	1646.57
542.16	1624.04
542.36	1710.05
542.56	1771.49
542.76	1902.56
542.95	1808.36
543.15	1751.01
543.35	1746.92
543.54	1689.57
543.74	1718.25
543.94	1787.88
544.14	1708.01
544.33	1720.29
544.53	1681.38
544.73	1794.02
544.93	1636.33
545.12	1722.34
545.32	1712.10
545.52	1710.05
545.71	1695.72
545.91	1746.92
546.11	1777.64
546.30	1710.05
546.50	1773.54
546.70	1679.33
546.90	1814.50
547.09	1710.05
547.29	1665.00
547.49	1771.49
547.68	1783.78
547.88	1695.72
548.08	1779.68
548.27	2207.71
548.47	1673.19
548.67	1667.05
548.87	1759.21
549.06	1757.16
549.26	1695.72
549.46	1722.34
549.65	1699.81
549.85	1800.16
550.05	1765.35
550.24	1744.87
550.44	1736.68
550.64	1775.59
550.83	1710.05
551.03	1796.07
551.23	1724.39
551.42	1771.49
551.62	1744.87
551.82	1779.68
552.01	1681.38
552.21	1751.01
552.41	1775.59
552.60	1818.60
552.80	1720.29
553.00	1769.44
553.19	1744.87
553.39	1830.88
553.59	1699.81
553.78	1767.40
553.98	1757.16
554.17	1611.75
554.37	1771.49
554.57	1820.64
554.76	1675.24
554.96	1685.48
555.16	1794.02
555.35	1832.93
555.55	1755.11
555.75	1734.63
555.94	1798.12
556.14	1685.48
556.33	1738.73
556.53	1710.05
556.73	1687.53
556.92	1826.79
557.12	1822.69
557.32	1818.60
557.51	1800.16
557.71	1740.77
557.90	1853.41
558.10	1845.22
558.30	1744.87
558.49	1714.15
558.69	1714.15
558.88	1834.98
559.08	1785.83
559.28	1718.25
559.47	1763.30
559.67	1658.85
559.86	1773.54
560.06	1728.49
560.26	1742.82
560.45	1800.16
560.65	1716.20
560.84	1810.40
561.04	1687.53
561.24	1748.97
561.43	1714.15
561.63	1775.59
561.82	1736.68
562.02	1802.21
562.22	1660.90
562.41	1753.06
562.61	1730.53
562.80	1671.14
563.00	1880.04
563.19	1775.59
563.39	1820.64
563.59	1761.25
563.78	1710.05
563.98	1652.71
564.17	1730.53
564.37	1673.19
564.56	1785.83
564.76	1681.38
564.96	1822.69
565.15	1798.12
565.35	1812.45
565.54	1712.10
565.74	1751.01
565.93	1794.02
566.13	1732.58
566.32	1800.16
566.52	1773.54
566.71	1710.05
566.91	1728.49
567.11	1734.63
567.30	1759.21
567.50	1755.11
567.69	1785.83
567.89	1673.19
568.08	1718.25
568.28	1757.16
568.47	1740.77
568.67	1738.73
568.86	1742.82
569.06	1763.30
569.25	1746.92
569.45	1705.96
569.64	1675.24
569.84	1746.92
570.04	1820.64
570.23	1710.05
570.43	1665.00
570.62	1785.83
570.82	1828.84
571.01	1722.34
571.21	1761.25
571.40	1763.30
571.60	1837.03
571.79	1789.92
571.99	1791.97
572.18	1724.39
572.38	1804.26
572.57	1714.15
572.77	1732.58
572.96	1916.90
573.16	1785.83
573.35	1777.64
573.55	1851.36
573.74	1779.68
573.94	1740.77
574.13	1773.54
574.33	1787.88
574.52	1834.98
574.71	1746.92
574.91	1759.21
575.10	1673.19
575.30	1720.29
575.49	1648.61
575.69	1755.11
575.88	1759.21
576.08	1765.35
576.27	1834.98
576.47	1708.01
576.66	1853.41
576.86	1769.44
577.05	1689.57
577.25	1744.87
577.44	1937.38
577.64	1730.53
577.83	1796.07
578.02	1806.31
578.22	1773.54
578.41	1863.65
578.61	1738.73
578.80	1665.00
579.00	1800.16
579.19	1748.97
579.39	1796.07
579.58	1812.45
579.77	1755.11
579.97	1806.31
580.16	1859.56
580.36	1695.72
580.55	1882.08
580.75	1800.16
580.94	1730.53
581.13	1908.71
581.33	1863.65
581.52	1720.29
581.72	1861.60
581.91	1845.22
582.11	1701.86
582.30	1794.02
582.49	1765.35
582.69	1863.65
582.88	1777.64
583.08	1748.97
583.27	1861.60
583.47	1761.25
583.66	1671.14
583.85	1685.48
584.05	1734.63
584.24	1791.97
584.44	1753.06
584.63	1843.17
584.82	1806.31
585.02	1789.92
585.21	1843.17
585.41	1802.21
585.60	1814.50
585.79	1912.80
585.99	1968.10
586.18	1843.17
586.37	2205.66
586.57	3346.38
586.76	9668.46
586.96	23922.32
587.15	33762.81
587.34	39728.55
587.54	41340.30
587.73	35878.36
587.93	25992.82
588.12	21196.48
588.31	17987.31
588.51	15980.30
588.70	14829.34
588.89	13817.65
589.09	12232.52
589.28	10932.06
589.47	9398.13
589.67	8017.80
589.86	6463.39
590.06	4935.60
590.25	3770.31
590.44	3127.25
590.64	2555.86
590.83	2267.10
591.02	2140.13
591.22	1929.19
591.41	1945.57
591.60	1861.60
591.80	1947.62
591.99	1777.64
592.18	1753.06
592.38	1843.17
592.57	1826.79
592.76	1746.92
592.96	1824.74
593.15	1839.08
593.34	1855.46
593.54	1802.21
593.73	1773.54
593.92	1796.07
594.12	1824.74
594.31	1744.87
594.50	1822.69
594.70	1888.23
594.89	1925.09
595.08	1697.77
595.28	1832.93
595.47	1949.67
595.66	1810.40
595.86	1636.33
596.05	1701.86
596.24	1775.59
596.43	1771.49
596.63	1837.03
596.82	1808.36
597.01	1832.93
597.21	1910.75
597.40	1779.68
597.59	1689.57
597.79	1724.39
597.98	1855.46
598.17	1808.36
598.36	1787.88
598.56	1834.98
598.75	1687.53
598.94	1746.92
599.14	1734.63
599.33	1759.21
599.52	1798.12
599.71	1763.30
599.91	1873.89
600.10	1822.69
600.29	1697.77
600.48	1724.39
600.68	1718.25
600.87	1732.58
601.06	1705.96
601.26	1796.07
601.45	1812.45
601.64	1683.43
601.83	1789.92
602.03	1705.96
602.22	1740.77
602.41	1794.02
602.60	1853.41
602.80	1818.60
602.99	1806.31
603.18	1724.39
603.37	1875.94
603.57	1789.92
603.76	1765.35
603.95	1765.35
604.14	1781.73
604.34	1703.91
604.53	1726.44
604.72	1753.06
604.91	1763.30
605.10	1724.39
605.30	1671.14
605.49	1832.93
605.68	1779.68
605.87	1720.29
606.07	1742.82
606.26	1853.41
606.45	1730.53
606.64	1708.01
606.84	1748.97
607.03	1673.19
607.22	1804.26
607.41	1685.48
607.60	1781.73
607.80	1773.54
607.99	1748.97
608.18	1683.43
608.37	1748.97
608.56	1726.44
608.76	1783.78
608.95	1882.08
609.14	1718.25
609.33	1804.26
609.52	1783.78
609.72	1708.01
609.91	1822.69
610.10	1730.53
610.29	1855.46
610.48	1779.68
610.68	1826.79
610.87	1740.77
611.06	1771.49
611.25	1798.12
611.44	1791.97
611.63	1724.39
611.83	1902.56
612.02	1650.66
612.21	1757.16
612.40	1673.19
612.59	1773.54
612.79	1660.90
612.98	1710.05
613.17	1810.40
613.36	1787.88
613.55	1828.84
613.74	1746.92
613.93	1697.77
614.13	1728.49
614.32	1703.91
614.51	1769.44
614.70	1753.06
614.89	1716.20
615.08	1820.64
615.28	2072.54
615.47	1722.34
615.66	1830.88
615.85	1691.62
616.04	1877.99
616.23	1660.90
616.42	1757.16
616.62	1757.16
616.81	1736.68
617.00	1718.25
617.19	1822.69
617.38	1716.20
617.57	1755.11
617.76	1789.92
617.95	1798.12
618.15	1736.68
618.34	1789.92
618.53	1654.76
618.72	1837.03
618.91	1832.93
619.10	1796.07
619.29	1730.53
619.48	1746.92
619.68	1679.33
619.87	1712.10
620.06	1691.62
620.25	1720.29
620.44	1662.95
620.63	1724.39
620.82	1753.06
621.01	1814.50
621.20	1691.62
621.39	1779.68
621.59	1779.68
621.78	1734.63
621.97	1712.10
622.16	1771.49
622.35	1798.12
622.54	1748.97
622.73	1740.77
622.92	1640.42
623.11	1875.94
623.30	1697.77
623.49	1800.16
623.68	1708.01
623.88	1753.06
624.07	1753.06
624.26	1648.61
624.45	1767.40
624.64	1718.25
624.83	1767.40
625.02	1744.87
625.21	1705.96
625.40	1748.97
625.59	1755.11
625.78	1722.34
625.97	1751.01
626.16	1783.78
626.35	1779.68
626.54	1710.05
626.74	1701.86
626.93	1683.43
627.12	1722.34
627.31	1746.92
627.50	1767.40
627.69	1828.84
627.88	1648.61
628.07	1687.53
628.26	1691.62
628.45	1640.42
628.64	1703.91
628.83	1744.87
629.02	1705.96
629.21	1746.92
629.40	1787.88
629.59	1722.34
629.78	1730.53
629.97	1679.33
630.16	1705.96
630.35	1763.30
630.54	1765.35
630.73	1656.81
630.92	1718.25
631.11	1705.96
631.30	1691.62
631.49	1798.12
631.68	1748.97
631.87	1714.15
632.06	1650.66
632.25	1873.89
632.44	1763.30
632.63	1771.49
632.82	1646.57
633.01	1691.62
633.20	1722.34
633.39	1765.35
633.58	1714.15
633.77	1681.38
633.96	1701.86
634.15	1757.16
634.34	1779.68
634.53	1660.90
634.72	1705.96
634.91	1683.43
635.10	1757.16
635.29	1816.55
635.48	1740.77
635.67	1705.96
635.86	1726.44
636.05	1806.31
636.24	1650.66
636.43	1812.45
636.62	1718.25
636.81	1662.95
637.00	1734.63
637.19	1763.30
637.38	1738.73
637.57	1632.23
637.76	1691.62
637.95	1677.29
638.14	1718.25
638.33	1730.53
638.52	1722.34
638.71	1714.15
638.89	1665.00
639.08	1855.46
639.27	1796.07
639.46	1595.37
639.65	1798.12
639.84	1683.43
640.03	1771.49
640.22	1683.43
640.41	1787.88
640.60	1681.38
640.79	1767.40
640.98	1644.52
641.17	1761.25
641.36	1759.21
641.55	1722.34
641.74	1650.66
641.92	1710.05
642.11	1636.33
642.30	1708.01
642.49	1710.05
642.68	1705.96
642.87	1730.53
643.06	1714.15
643.25	1656.81
643.44	1751.01
643.63	1695.72
643.82	1746.92
644.00	1669.09
644.19	1724.39
644.38	1621.99
644.57	1697.77
644.76	1740.77
644.95	1658.85
645.14	1714.15
645.33	1679.33
645.52	1734.63
645.71	1665.00
645.89	1673.19
646.08	1718.25
646.27	1710.05
646.46	1814.50
646.65	1599.46
646.84	1714.15
647.03	1644.52
647.22	1812.45
647.40	1763.30
647.59	1642.47
647.78	1677.29
647.97	1671.14
648.16	1720.29
648.35	1816.55
648.54	1789.92
648.73	1667.05
648.91	1812.45
649.10	1777.64
649.29	1679.33
649.48	1710.05
649.67	1685.48
649.86	1783.78
650.05	1687.53
650.23	1810.40
650.42	1648.61
650.61	1697.77
650.80	1777.64
650.99	1742.82
651.18	1724.39
651.36	1828.84
651.55	1779.68
651.74	1824.74
651.93	1755.11
652.12	1695.72
652.31	1740.77
652.49	1724.39
652.68	1638.38
652.87	1824.74
653.06	1773.54
653.25	1748.97
653.44	1671.14
653.62	1798.12
653.81	1730.53
654.00	1710.05
654.19	1767.40
654.38	1746.92
654.56	1728.49
654.75	1714.15
654.94	1837.03
655.13	1738.73
655.32	1748.97
655.51	1724.39
655.69	1732.58
655.88	1789.92
656.07	1656.81
656.26	1773.54
656.45	1617.90
656.63	1699.81
656.82	1771.49
657.01	1794.02
657.20	1712.10
657.38	1767.40
657.57	1736.68
657.76	1652.71
657.95	1755.11
658.14	1755.11
658.32	1697.77
658.51	1734.63
658.70	1789.92
658.89	1740.77
659.08	1703.91
659.26	1796.07
659.45	1671.14
659.64	1773.54
659.83	1708.01
660.01	1880.04
660.20	1800.16
660.39	1857.51
660.58	1662.95
660.76	1712.10
660.95	1656.81
661.14	1755.11
661.33	1636.33
661.51	1652.71
661.70	1665.00
661.89	1785.83
662.08	1708.01
662.26	1605.61
662.45	1679.33
662.64	1822.69
662.83	1777.64
663.01	1714.15
663.20	1763.30
663.39	1824.74
663.58	1728.49
663.76	1697.77
663.95	1742.82
664.14	1650.66
664.32	1687.53
664.51	1662.95
664.70	1642.47
664.89	1759.21
665.07	1650.66
665.26	1861.60
665.45	1669.09
665.64	1740.77
665.82	1718.25
666.01	1771.49
666.20	1695.72
666.38	1834.98
666.57	1814.50
666.76	2176.99
666.95	4573.11
667.13	10270.56
667.32	15116.06
667.51	17503.99
667.69	18743.01
667.88	17276.66
668.07	12130.12
668.25	9512.81
668.44	7997.32
668.63	7331.73
668.81	6770.58
669.00	6164.39
669.19	5793.70
669.38	5076.91
669.56	4552.63
669.75	3895.24
669.94	3393.48
670.12	2916.31
670.31	2529.24
670.50	2265.05
670.68	2103.26
670.87	1935.33
671.06	1806.31
671.24	1789.92
671.43	1843.17
671.62	1775.59
671.80	1605.61
671.99	1732.58
672.18	1783.78
672.36	1798.12
672.55	1691.62
672.74	1712.10
672.92	1720.29
673.11	1728.49
673.29	1595.37
673.48	1738.73
673.67	1728.49
673.85	1755.11
674.04	1689.57
674.23	1806.31
674.41	1787.88
674.60	1673.19
674.79	1628.14
674.97	1658.85
675.16	1675.24
675.34	1783.78
675.53	1626.09
675.72	1746.92
675.90	1828.84
676.09	1728.49
676.28	1732.58
676.46	1638.38
676.65	1763.30
676.83	1693.67
677.02	1728.49
677.21	1730.53
677.39	1708.01
677.58	1677.29
677.77	1673.19
677.95	1671.14
678.14	1736.68
678.32	1740.77
678.51	1630.18
678.70	1845.22
678.88	1716.20
679.07	1720.29
679.25	1675.24
679.44	1689.57
679.63	1712.10
679.81	1720.29
680.00	1736.68
680.18	1744.87
680.37	1834.98
680.55	1751.01
680.74	1683.43
680.93	1574.89
681.11	1724.39
681.30	1642.47
681.48	1748.97
681.67	1742.82
681.85	1705.96
682.04	1734.63
682.23	1744.87
682.41	1765.35
682.60	1714.15
682.78	1673.19
682.97	1726.44
683.15	1728.49
683.34	1738.73
683.53	1744.87
683.71	1636.33
683.90	1837.03
684.08	1789.92
684.27	1708.01
684.45	1705.96
684.64	1689.57
684.82	1691.62
685.01	1683.43
685.19	1769.44
685.38	1800.16
685.57	1738.73
685.75	1732.58
685.94	1736.68
686.12	1724.39
686.31	1710.05
686.49	1800.16
686.68	1628.14
686.86	1746.92
687.05	1621.99
687.23	1775.59
687.42	1755.11
687.60	1671.14
687.79	1738.73
687.97	1800.16
688.16	1769.44
688.34	1808.36
688.53	1650.66
688.71	1757.16
688.90	1761.25
689.08	1695.72
689.27	1632.23
689.45	1673.19
689.64	1742.82
689.82	1730.53
690.01	1732.58
690.19	1785.83
690.38	1720.29
690.56	1753.06
690.75	1705.96
690.93	1705.96
691.12	1673.19
691.30	1839.08
691.49	1658.85
691.67	1648.61
691.86	1828.84
692.04	1734.63
692.23	1703.91
692.41	1640.42
692.60	1830.88
692.78	1705.96
692.97	1648.61
693.15	1779.68
693.34	1851.36
693.52	1783.78
693.71	1671.14
693.89	1673.19
694.08	1683.43
694.26	1703.91
694.44	1812.45
694.63	1697.77
694.81	1744.87
695.00	1693.67
695.18	1728.49
695.37	1806.31
695.55	1796.07
695.74	1636.33
695.92	1605.61
696.10	1769.44
696.29	1685.48
696.47	1718.25
696.66	1650.66
696.84	1693.67
697.03	1667.05
697.21	1818.60
697.40	2363.36
697.58	1761.25
697.76	1736.68
697.95	1687.53
698.13	1761.25
698.32	1691.62
698.50	1771.49
698.68	1738.73
698.87	1699.81
699.05	1755.11
699.24	1726.44
699.42	1771.49
699.61	1755.11
699.79	1732.58
699.97	1746.92
700.16	1636.33
700.34	1708.01
700.53	1693.67
700.71	1808.36
700.89	1841.12
701.08	1726.44
701.26	1718.25
701.45	2144.22
701.63	1660.90
701.81	1662.95
702.00	1667.05
702.18	1734.63
702.37	1751.01
702.55	1753.06
702.73	1691.62
702.92	1718.25
703.10	1779.68
703.28	1744.87
703.47	1632.23
703.65	1730.53
703.84	1800.16
704.02	1619.94
704.20	1865.70
704.39	1708.01
704.57	1705.96
704.75	1763.30
704.94	1773.54
705.12	1787.88
705.30	1724.39
705.49	2287.58
705.67	4368.32
705.86	9045.88
706.04	12281.67
706.22	14239.53
706.41	14911.26
706.59	13633.33
706.77	9459.57
706.96	7200.66
707.14	6483.87
707.32	5908.39
707.51	5437.36
707.69	4700.09
707.87	4116.42
708.06	3530.70
708.24	2930.64
708.42	2435.03
708.61	2222.05
708.79	1859.56
708.97	1869.80
709.16	1810.40
709.34	1763.30
709.52	1654.76
709.71	1753.06
709.89	1736.68
710.07	1685.48
710.26	1660.90
710.44	1697.77
710.62	1800.16
710.80	1720.29
710.99	1695.72
711.17	1808.36
711.35	1751.01
711.54	1656.81
711.72	1748.97
711.90	1771.49
712.09	1761.25
712.27	1677.29
712.45	1722.34
712.63	1703.91
712.82	1708.01
713.00	1689.57
713.18	1697.77
713.37	1701.86
713.55	1710.05
713.73	1783.78
713.91	1767.40
714.10	1669.09
714.28	1687.53
714.46	1736.68
714.65	1746.92
714.83	1699.81
715.01	1734.63
715.19	1703.91
715.38	1656.81
715.56	1728.49
715.74	1615.85
715.92	1621.99
716.11	1804.26
716.29	1615.85
716.47	1705.96
716.65	1656.81
716.84	1695.72
717.02	1824.74
717.20	1587.18
717.38	1673.19
717.57	1669.09
717.75	1802.21
717.93	1697.77
718.11	1753.06
718.30	1644.52
718.48	1697.77
718.66	1818.60
718.84	1744.87
719.03	1718.25
719.21	1624.04
719.39	1771.49
719.57	1751.01
719.75	1775.59
719.94	1542.12
720.12	1757.16
720.30	1652.71
720.48	1828.84
720.67	1656.81
720.85	1665.00
721.03	1691.62
721.21	1628.14
721.39	1796.07
721.58	1718.25
721.76	1685.48
721.94	1695.72
722.12	1779.68
722.30	1816.55
722.49	1697.77
722.67	1751.01
722.85	1796.07
723.03	1550.31
723.21	1671.14
723.40	1652.71
723.58	1804.26
723.76	1781.73
723.94	1730.53
724.12	1662.95
724.30	1736.68
724.49	1744.87
724.67	1714.15
724.85	1734.63
725.03	1621.99
725.21	1712.10
725.40	1740.77
725.58	1728.49
725.76	1875.94
725.94	1691.62
726.12	1673.19
726.30	1710.05
726.49	1699.81
726.67	1652.71
726.85	1773.54
727.03	1828.84
727.21	2156.51
727.39	3010.51
727.57	3727.30
727.76	4218.82
727.94	4294.59
728.12	4394.94
728.30	3563.47
728.48	3002.32
728.66	2789.33
728.84	2551.77
729.03	2303.96
729.21	2164.70
729.39	1968.10
729.57	1839.08
729.75	1789.92
729.93	1900.52
730.11	1656.81
730.30	1744.87
730.48	1730.53
730.66	1748.97
730.84	1796.07
731.02	1783.78
731.20	1689.57
731.38	1628.14
731.56	1665.00
731.74	1644.52
731.93	1703.91
732.11	1763.30
732.29	1714.15
732.47	1736.68
732.65	1748.97
732.83	1783.78
733.01	1677.29
733.19	1570.79
733.37	1755.11
733.56	1720.29
733.74	1730.53
733.92	1826.79
734.10	1632.23
734.28	1746.92
734.46	1710.05
734.64	1701.86
734.82	1681.38
735.00	1626.09
735.18	1632.23
735.36	1673.19
735.54	1681.38
735.73	1742.82
735.91	1777.64
736.09	1724.39
736.27	1699.81
736.45	1722.34
736.63	1646.57
736.81	1671.14
736.99	1746.92
737.17	1751.01
737.35	1621.99
737.53	1759.21
737.71	1642.47
737.89	1761.25
738.07	1656.81
738.25	1714.15
738.43	1648.61
738.61	1736.68
738.80	1607.66
738.98	1703.91
739.16	1656.81
739.34	1693.67
739.52	1785.83
739.70	1691.62
739.88	1751.01
740.06	1738.73
740.24	1607.66
740.42	1853.41
740.60	1646.57
740.78	1740.77
740.96	1636.33
741.14	1681.38
741.32	1742.82
741.50	1667.05
741.68	1939.43
741.86	1769.44
742.04	1624.04
742.22	1677.29
742.40	1740.77
742.58	1720.29
742.76	1685.48
742.94	1794.02
743.12	1593.32
743.30	1716.20
743.48	1771.49
743.66	1644.52
743.84	1701.86
744.02	1685.48
744.20	1587.18
744.38	1685.48
744.56	1640.42
744.74	1837.03
744.92	1699.81
745.10	1802.21
745.28	1783.78
745.46	1820.64
745.64	1691.62
745.82	1734.63
746.00	1732.58
746.18	1783.78
746.36	1681.38
746.54	1677.29
746.72	1726.44
746.90	1675.24
747.08	1796.07
747.26	1677.29
747.44	1773.54
747.62	1730.53
747.80	1746.92
747.98	1775.59
748.15	1755.11
748.33	1761.25
748.51	1744.87
748.69	1806.31
748.87	1705.96
749.05	1656.81
749.23	1642.47
749.41	1746.92
749.59	1697.77
749.77	1744.87
749.95	1718.25
750.13	1628.14
750.31	1722.34
750.49	1675.24
750.67	1734.63
750.85	1796.07
751.03	1726.44
751.20	1857.51
751.38	1687.53
751.56	1708.01
751.74	1607.66
751.92	1658.85
752.10	1669.09
752.28	1826.79
752.46	1658.85
752.64	1767.40
752.82	1691.62
753.00	1820.64
753.18	1695.72
753.35	1630.18
753.53	1693.67
753.71	1740.77
753.89	1781.73
754.07	1724.39
754.25	1765.35
754.43	1689.57
754.61	1632.23
754.79	1824.74
754.97	1722.34
755.14	1761.25
755.32	1632.23
755.50	1687.53
755.68	1722.34
755.86	1626.09
756.04	1611.75
756.22	1546.22
756.40	1798.12
756.57	1886.18
756.75	1703.91
756.93	1703.91
757.11	1753.06
757.29	1693.67
757.47	1658.85
757.65	1630.18
757.82	1607.66
758.00	1640.42
758.18	1609.70
758.36	1679.33
758.54	1855.46
758.72	1636.33
758.90	1738.73
759.07	1744.87
759.25	1648.61
759.43	1646.57
759.61	1708.01
759.79	2217.95
759.97	1685.48
760.15	1552.36
760.32	1644.52
760.50	1720.29
760.68	1740.77
760.86	1617.90
761.04	1714.15
761.22	1710.05
761.39	1769.44
761.57	1724.39
761.75	1771.49
761.93	1695.72
762.11	1687.53
762.28	1697.77
762.46	1615.85
762.64	1681.38
762.82	1687.53
763.00	1650.66
763.18	1771.49
763.35	1619.94
763.53	1726.44
763.71	1609.70
763.89	1714.15
764.07	1703.91
764.24	1634.28
764.42	1769.44
764.60	1624.04
764.78	1714.15
764.96	1798.12
765.13	1802.21
765.31	1738.73
765.49	1712.10
765.67	1632.23
765.84	1656.81
766.02	1710.05
766.20	1669.09
766.38	1791.97
766.56	1845.22
766.73	1759.21
766.91	1755.11
767.09	1671.14
767.27	1771.49
767.44	1658.85
767.62	1734.63
767.80	1791.97
767.98	1658.85
768.15	1755.11
768.33	1708.01
768.51	1722.34
768.69	1652.71
768.87	1810.40
769.04	1636.33
769.22	1863.65
769.40	1777.64
769.58	1839.08
769.75	1726.44
769.93	1722.34
770.11	1708.01
770.28	1591.27
770.46	1740.77
770.64	1710.05
770.82	1724.39
770.99	1673.19
771.17	1701.86
771.35	1701.86
771.53	1646.57
771.70	1734.63
771.88	1654.76
772.06	1650.66
772.23	1621.99
772.41	1738.73
772.59	1701.86
772.77	1708.01
772.94	1769.44
773.12	1691.62
773.30	1730.53
773.47	1755.11
773.65	1681.38
773.83	1746.92
774.01	1705.96
774.18	1480.68
774.36	1730.53
774.54	1632.23
774.71	1748.97
774.89	1636.33
775.07	1609.70
775.24	1660.90
775.42	1714.15
775.60	1841.12
775.78	1679.33
775.95	1689.57
776.13	1597.42
776.31	1603.56
776.48	1693.67
776.66	1773.54
776.84	1720.29
777.01	1671.14
777.19	1650.66
777.37	1626.09
777.54	1746.92
777.72	1834.98
777.90	1783.78
778.07	1693.67
778.25	1863.65
778.43	1789.92
778.60	1738.73
778.78	1761.25
778.96	1771.49
779.13	1642.47
779.31	1738.73
779.49	1738.73
779.66	1689.57
779.84	1740.77
780.01	1746.92
780.19	1677.29
780.37	1818.60
780.54	1746.92
780.72	1667.05
780.90	1738.73
781.07	1693.67
781.25	1619.94
781.43	1734.63
781.60	1654.76
781.78	1771.49
781.95	1736.68
782.13	1646.57
782.31	1732.58
782.48	1552.36
782.66	1681.38
782.83	1877.99
783.01	1738.73
783.19	1722.34
783.36	1669.09
783.54	1601.51
783.72	1765.35
783.89	1738.73
784.07	1644.52
784.24	1765.35
784.42	1791.97
784.60	1759.21
784.77	1748.97
784.95	1642.47
785.12	1685.48
785.30	1699.81
785.47	1652.71
785.65	1634.28
785.83	1734.63
786.00	1687.53
786.18	1746.92
786.35	1673.19
786.53	1671.14
786.71	1730.53
786.88	1746.92
787.06	1677.29
787.23	1695.72
787.41	1650.66
787.58	1683.43
787.76	1650.66
787.94	1734.63
788.11	1687.53
788.29	1636.33
788.46	1603.56
788.64	1642.47
788.81	1697.77
788.99	1619.94
789.16	1669.09
789.34	1652.71
789.52	1609.70
789.69	1708.01
789.87	1634.28
790.04	1728.49
790.22	1720.29
790.39	1791.97
790.57	1621.99
790.74	1656.81
790.92	1671.14
791.09	1667.05
791.27	1591.27
791.44	1759.21
791.62	1613.80
791.79	1812.45
791.97	1695.72
792.15	1918.95
792.32	1712.10
792.50	1685.48
792.67	1849.32
792.85	1832.93
793.02	1683.43
793.20	1738.73
793.37	1646.57
793.55	1648.61
793.72	1681.38
793.90	1765.35
794.07	1710.05
794.25	1591.27
794.42	1660.90
794.60	1824.74
794.77	1722.34
794.95	1794.02
795.12	1751.01
795.30	1650.66
795.47	1615.85
795.65	1916.90
795.82	1757.16
796.00	1699.81
796.17	1726.44
796.34	1695.72
796.52	1728.49
796.69	1777.64
796.87	1757.16
797.04	1708.01
797.22	1763.30
797.39	1806.31
797.57	1736.68
797.74	1722.34
797.92	1683.43
798.09	1718.25
798.27	1689.57
798.44	1757.16
798.62	1691.62
798.79	1699.81
798.96	1800.16
799.14	1806.31
799.31	1806.31
799.49	1681.38
799.66	1640.42
799.84	1687.53
800.01	1605.61
800.19	1693.67
800.36	1611.75
800.53	1771.49
800.71	1669.09
800.88	1759.21
801.06	1759.21
801.23	1681.38
801.41	1615.85
801.58	1687.53
801.75	1701.86
801.93	1681.38
802.10	1746.92
802.28	1662.95
802.45	1685.48
802.63	1748.97
802.80	1796.07
802.97	1658.85
803.15	1730.53
803.32	1660.90
803.50	1714.15
803.67	1634.28
803.84	1650.66
804.02	1642.47
804.19	1726.44
804.37	1638.38
804.54	1650.66
804.71	1730.53
804.89	1724.39
805.06	1662.95
805.24	1667.05
805.41	1671.14
805.58	1710.05
805.76	1802.21
805.93	1820.64
806.10	1734.63
806.28	1800.16
806.45	1785.83
806.63	1744.87
806.80	1771.49
806.97	1722.34
807.15	1710.05
807.32	1705.96
807.49	1679.33
807.67	1654.76
807.84	1734.63
808.01	1685.48
808.19	1882.08
808.36	1816.55
808.54	1675.24
808.71	1632.23
808.88	1697.77
809.06	1640.42
809.23	1775.59
809.40	1734.63
809.58	1716.20
809.75	1695.72
809.92	1599.46
810.10	1800.16
810.27	1683.43
810.44	1718.25
810.62	1705.96
810.79	1654.76
810.96	1724.39
811.14	1687.53
811.31	1722.34
811.48	1804.26
811.66	1726.44
811.83	1824.74
812.00	1714.15
812.18	1714.15
812.35	1771.49
812.52	1640.42
812.69	1693.67
812.87	1695.72
813.04	1714.15
813.21	1730.53
813.39	1677.29
813.56	1646.57
813.73	1755.11
813.91	1642.47
814.08	1665.00
814.25	1740.77
814.42	1732.58
814.60	1667.05
814.77	1660.90
814.94	1673.19
815.12	1722.34
815.29	1779.68
815.46	1650.66
815.63	1746.92
815.81	1658.85
815.98	1679.33
816.15	1685.48
816.33	1742.82
816.50	1615.85
816.67	1703.91
816.84	1695.72
817.02	1675.24
817.19	1677.29
817.36	1777.64
817.53	1765.35
817.71	1648.61
817.88	1701.86
818.05	1667.05
818.22	1697.77
818.40	1871.84
818.57	1689.57
818.74	1681.38
818.91	1691.62
819.09	1742.82
819.26	1814.50
819.43	1624.04
819.60	1683.43
819.78	1757.16
819.95	1757.16
820.12	1652.71
820.29	1730.53
820.47	1767.40
820.64	1705.96
820.81	1638.38
820.98	1640.42
821.15	1658.85
821.33	1785.83
821.50	1628.14
821.67	1654.76
821.84	1734.63
822.02	1718.25
822.19	1763.30
822.36	1675.24
822.53	1638.38
822.70	1583.08
822.88	1714.15
823.05	1806.31
823.22	1665.00
823.39	1755.11
823.56	1667.05
823.74	1677.29
823.91	1701.86
824.08	1599.46
824.25	1630.18
824.42	1740.77
824.60	1626.09
824.77	1724.39
824.94	1628.14
825.11	1796.07
825.28	1699.81
825.45	1722.34
825.63	1705.96
825.80	1658.85
825.97	1705.96
826.14	1675.24
826.31	1671.14
826.48	1746.92
826.66	1632.23
826.83	1646.57
827.00	1767.40
827.17	1626.09
827.34	1675.24
827.51	1624.04
827.69	1609.70
827.86	1603.56
828.03	1669.09
828.20	1783.78
828.37	1718.25
828.54	1701.86
828.71	1701.86
828.89	1810.40
829.06	1751.01
829.23	1781.73
829.40	1656.81
829.57	1654.76
829.74	1771.49
829.91	1714.15
830.09	1716.20
830.26	1689.57
830.43	1789.92
830.60	1681.38
830.77	1646.57
830.94	1812.45
831.11	1775.59
831.28	1681.38
831.46	1810.40
831.63	1697.77
831.80	1796.07
831.97	1687.53
832.14	1728.49
832.31	1697.77
832.48	1687.53
832.65	1705.96
832.82	1685.48
832.99	1691.62
833.17	1667.05
833.34	1785.83
833.51	1740.77
833.68	1607.66
833.85	1697.77
834.02	1642.47
834.19	1638.38
834.36	1650.66
834.53	1673.19
834.70	1796.07
834.87	1808.36
835.04	1789.92
835.22	1658.85
835.39	1675.24
835.56	1599.46
835.73	1650.66
835.90	1748.97
836.07	1648.61
836.24	1806.31
836.41	1675.24
836.58	1593.32
836.75	1705.96
836.92	1712.10
837.09	1736.68
837.26	1730.53
837.43	1687.53
837.60	1748.97
837.77	1767.40
837.94	1734.63
838.12	1816.55
838.29	1689.57
838.46	1673.19
838.63	1671.14
838.80	1755.11
838.97	1685.48
839.14	1787.88
839.31	1759.21
839.48	1753.06
839.65	1644.52
839.82	1742.82
839.99	1697.77
840.16	1652.71
840.33	1695.72
840.50	1685.48
840.67	1740.77
840.84	1607.66
841.01	1761.25
841.18	1648.61
841.35	1746.92
841.52	1667.05
841.69	1847.27
841.86	1673.19
842.03	1648.61
842.20	1738.73
842.37	1722.34
842.54	1734.63
842.71	1660.90
842.88	1558.50
843.05	1806.31
843.22	1699.81
843.39	1812.45
843.56	1746.92
843.73	1730.53
843.90	1732.58
844.07	1703.91
844.24	1812.45
844.41	1740.77
844.58	1636.33
844.75	1628.14
844.92	1673.19
845.09	1679.33
845.26	1658.85
845.43	1617.90
845.60	1671.14
845.77	1730.53
845.94	1705.96
846.10	1765.35
846.27	1628.14
846.44	1656.81
846.61	1611.75
846.78	1767.40
846.95	1705.96
847.12	1693.67
847.29	1683.43
847.46	1710.05
847.63	1773.54
847.80	1722.34
847.97	1703.91
848.14	1759.21
848.31	1697.77
848.48	1587.18
848.65	1734.63
848.82	1697.77
848.98	1804.26
849.15	1761.25
849.32	1806.31
849.49	1806.31
849.66	1689.57
849.83	1763.30
850.00	1644.52
850.17	1808.36
850.34	1720.29
850.51	1703.91
850.68	1656.81
850.85	1771.49
851.01	1742.82
851.18	1669.09
851.35	1681.38
851.52	1683.43
851.69	1824.74
851.86	1632.23
852.03	1656.81
852.20	1673.19
852.37	1708.01
852.53	1583.08
852.70	1765.35
852.87	1697.77
853.04	1742.82
853.21	1675.24
853.38	1714.15
853.55	1824.74
853.72	1777.64
853.89	1712.10
854.05	1701.86
854.22	1761.25
854.39	1679.33
854.56	1738.73
854.73	1736.68
854.90	1705.96
855.07	1720.29
855.23	1654.76
855.40	1646.57
855.57	1714.15
855.74	1564.65
855.91	1814.50
856.08	1662.95
856.25	1722.34
856.41	1578.98
856.58	1671.14
856.75	1759.21
856.92	1660.90
857.09	1714.15
857.26	1652.71
857.42	1720.29
857.59	1708.01
857.76	1677.29
857.93	1685.48
858.10	1617.90
858.27	1671.14
858.43	1683.43
858.60	1589.22
858.77	1611.75
858.94	1669.09
859.11	1808.36
859.27	1642.47
859.44	1689.57
859.61	1810.40
859.78	1748.97
859.95	1736.68
860.12	1722.34
860.28	1724.39
860.45	1832.93
860.62	1660.90
860.79	1705.96
860.95	1765.35
861.12	1605.61
861.29	1687.53
861.46	1671.14
861.63	1697.77
861.79	1710.05
861.96	1656.81
862.13	1794.02
862.30	1791.97
862.47	1685.48
862.63	1681.38
862.80	1722.34
862.97	1720.29
863.14	1734.63
863.30	1738.73
863.47	1652.71
863.64	1769.44
863.81	1708.01
863.97	1662.95
864.14	1693.67
864.31	1730.53
864.48	1724.39
864.65	1718.25
864.81	1708.01
864.98	1796.07
865.15	1703.91
865.32	1742.82
865.48	1771.49
865.65	1802.21
865.82	1652.71
865.98	1658.85
866.15	1794.02
866.32	1677.29
866.49	1771.49
866.65	1753.06
866.82	1669.09
866.99	1658.85
867.16	1673.19
867.32	1667.05
867.49	1718.25
867.66	1712.10
867.83	1712.10
867.99	1595.37
868.16	1738.73
868.33	1656.81
868.49	1699.81
868.66	1761.25
868.83	1814.50
868.99	1724.39
869.16	1687.53
869.33	1777.64
869.50	1705.96
869.66	1691.62
869.83	1687.53
870.00	1640.42
870.16	1718.25
870.33	1693.67
870.50	1777.64
870.66	1638.38
870.83	1798.12
871.00	1652.71
871.17	1699.81
871.33	1820.64
871.50	1669.09
871.67	1728.49
871.83	1710.05
872.00	1761.25
872.17	1689.57
872.33	1714.15
872.50	1699.81
872.67	1712.10
872.83	1701.86
873.00	1753.06
873.17	1665.00
873.33	1738.73
873.50	1742.82
873.67	1691.62
873.83	1695.72
874.00	1689.57
874.16	1794.02
874.33	1714.15
874.50	1660.90
874.66	1771.49
874.83	1722.34
875.00	1814.50
875.16	1761.25
875.33	1808.36
875.50	1650.66
875.66	1708.01
875.83	1677.29
875.99	1742.82
876.16	1654.76
876.33	1718.25
876.49	1650.66
876.66	1763.30
876.83	1683.43
876.99	1681.38
877.16	1691.62
877.32	1640.42
877.49	1607.66
877.66	1710.05
877.82	1761.25
877.99	1751.01
878.15	1759.21
878.32	1705.96
878.49	1746.92
878.65	1652.71
878.82	1837.03
878.98	1724.39
879.15	1757.16
879.32	1824.74
879.48	1718.25
879.65	1753.06
879.81	1673.19
879.98	1740.77
880.15	1742.82
880.31	1705.96
880.48	1726.44
880.64	1736.68
880.81	1714.15
880.97	1773.54
881.14	1837.03
881.31	1617.90
881.47	1849.32
881.64	1771.49
881.80	1617.90
881.97	1734.63
882.13	1695.72
882.30	1658.85
882.47	1646.57
882.63	1705.96
882.80	1656.81
882.96	1687.53
883.13	1761.25
883.29	1785.83
883.46	1703.91
883.62	1767.40
883.79	1789.92
883.95	1761.25
884.12	1716.20
884.29	1777.64
884.45	1744.87
884.62	1665.00
884.78	1665.00
884.95	1820.64
885.11	1689.57
885.28	1665.00
885.44	1746.92
885.61	1732.58
885.77	1693.67
885.94	1787.88
886.10	1705.96
886.27	1714.15
886.43	1796.07
886.60	1728.49
886.76	1681.38
886.93	1720.29
887.09	1677.29
887.26	1589.22
887.42	1730.53
887.59	1703.91
887.75	1824.74
887.92	1757.16
888.08	1773.54
888.25	1804.26
888.41	1777.64
888.58	1744.87
888.74	1675.24
888.91	1679.33
>>>>>End Processed Spectral Data<<<<<
