SpectraSuite Data File
++++++++++++++++++++++++++++++++++++
Date: Mon Jun 06 17:25:57 CEST 2016
User: root
Dark Spectrum Present: No
Reference Spectrum Present: No
Number of Sampled Component Spectra: 1
Spectrometers: USB4C02835
Integration Time (usec): 100000 (USB4C02835)
Spectra Averaged: 1 (USB4C02835)
Boxcar Smoothing: 0 (USB4C02835)
Correct for Electrical Dark: No (USB4C02835)
Strobe/Lamp Enabled: No (USB4C02835)
Correct for Detector Non-linearity: No (USB4C02835)
Correct for Stray Light: No (USB4C02835)
Number of Pixels in Processed Spectrum: 3648
>>>>>Begin Processed Spectral Data<<<<<
177.47	1490.92
177.69	1490.92
177.91	1490.92
178.13	1454.06
178.36	1452.01
178.58	1693.67
178.80	1703.91
179.02	1673.19
179.24	1640.42
179.46	1673.19
179.68	1763.30
179.90	1771.49
180.13	1652.71
180.35	1716.20
180.57	1669.09
180.79	1718.25
181.01	1613.80
181.23	1722.34
181.45	1726.44
181.67	1757.16
181.90	1716.20
182.12	1730.53
182.34	1568.74
182.56	1757.16
182.78	1769.44
183.00	1703.91
183.22	1773.54
183.44	1601.51
183.66	1849.32
183.89	1791.97
184.11	1746.92
184.33	1779.68
184.55	1806.31
184.77	1734.63
184.99	1718.25
185.21	1679.33
185.43	1875.94
185.65	1746.92
185.87	1685.48
186.10	1783.78
186.32	1869.80
186.54	1701.86
186.76	1710.05
186.98	1720.29
187.20	1671.14
187.42	1695.72
187.64	1650.66
187.86	1716.20
188.08	1818.60
188.30	1691.62
188.52	1675.24
188.75	1763.30
188.97	1746.92
189.19	1695.72
189.41	1640.42
189.63	1751.01
189.85	1671.14
190.07	1687.53
190.29	1689.57
190.51	1808.36
190.73	1675.24
190.95	1789.92
191.17	1722.34
191.39	1679.33
191.61	1734.63
191.84	1695.72
192.06	1736.68
192.28	1607.66
192.50	1882.08
192.72	1755.11
192.94	1665.00
193.16	1845.22
193.38	1763.30
193.60	1722.34
193.82	1714.15
194.04	1796.07
194.26	1755.11
194.48	1746.92
194.70	1601.51
194.92	1638.38
195.14	1785.83
195.36	1660.90
195.58	1746.92
195.80	1669.09
196.02	1683.43
196.24	1767.40
196.46	1785.83
196.69	1697.77
196.91	1808.36
197.13	1701.86
197.35	1669.09
197.57	1775.59
197.79	1740.77
198.01	1773.54
198.23	1783.78
198.45	1675.24
198.67	1581.03
198.89	1683.43
199.11	1671.14
199.33	1650.66
199.55	1550.31
199.77	1671.14
199.99	1722.34
200.21	1699.81
200.43	1718.25
200.65	1624.04
200.87	1648.61
201.09	1683.43
201.31	1738.73
201.53	1777.64
201.75	1808.36
201.97	1732.58
202.19	1718.25
202.41	1732.58
202.63	1834.98
202.85	1730.53
203.07	1779.68
203.29	1671.14
203.51	1726.44
203.73	1624.04
203.95	1927.14
204.17	1681.38
204.39	1677.29
204.61	1744.87
204.83	1734.63
205.05	1779.68
205.27	1804.26
205.49	1808.36
205.71	1687.53
205.93	1621.99
206.15	1642.47
206.37	1724.39
206.59	1753.06
206.81	1673.19
207.03	1701.86
207.25	1710.05
207.47	1787.88
207.69	1796.07
207.91	1771.49
208.13	1763.30
208.34	1763.30
208.56	1638.38
208.78	1734.63
209.00	1757.16
209.22	1665.00
209.44	1722.34
209.66	1681.38
209.88	1765.35
210.10	1728.49
210.32	1617.90
210.54	1757.16
210.76	1675.24
210.98	1769.44
211.20	1560.55
211.42	1710.05
211.64	1794.02
211.86	1751.01
212.08	1857.51
212.30	1658.85
212.52	1658.85
212.74	1726.44
212.96	1724.39
213.17	1806.31
213.39	1724.39
213.61	1765.35
213.83	1693.67
214.05	1730.53
214.27	1671.14
214.49	1632.23
214.71	1703.91
214.93	1775.59
215.15	1619.94
215.37	1748.97
215.59	1642.47
215.81	1800.16
216.03	1806.31
216.24	1796.07
216.46	1667.05
216.68	1658.85
216.90	1777.64
217.12	1779.68
217.34	1689.57
217.56	1824.74
217.78	1753.06
218.00	1705.96
218.22	1783.78
218.44	1710.05
218.66	1724.39
218.87	1824.74
219.09	1695.72
219.31	1822.69
219.53	1791.97
219.75	1753.06
219.97	1695.72
220.19	1816.55
220.41	1728.49
220.63	1736.68
220.85	1748.97
221.06	1603.56
221.28	1828.84
221.50	1724.39
221.72	1767.40
221.94	1744.87
222.16	1753.06
222.38	1843.17
222.60	1806.31
222.82	1695.72
223.03	1751.01
223.25	1642.47
223.47	1783.78
223.69	1814.50
223.91	1753.06
224.13	1701.86
224.35	1712.10
224.57	1789.92
224.78	1746.92
225.00	1611.75
225.22	1689.57
225.44	1738.73
225.66	1753.06
225.88	1746.92
226.10	1798.12
226.32	1724.39
226.53	1812.45
226.75	1642.47
226.97	1808.36
227.19	1724.39
227.41	1720.29
227.63	1683.43
227.85	1603.56
228.06	1712.10
228.28	1734.63
228.50	1775.59
228.72	1712.10
228.94	1669.09
229.16	1591.27
229.37	1624.04
229.59	1695.72
229.81	1783.78
230.03	1693.67
230.25	1677.29
230.47	1599.46
230.69	1652.71
230.90	1775.59
231.12	1630.18
231.34	1767.40
231.56	1771.49
231.78	1617.90
232.00	1738.73
232.21	1716.20
232.43	1673.19
232.65	1517.54
232.87	1789.92
233.09	1710.05
233.30	1597.42
233.52	1794.02
233.74	1722.34
233.96	1736.68
234.18	1763.30
234.40	1701.86
234.61	1828.84
234.83	1640.42
235.05	1660.90
235.27	1869.80
235.49	1832.93
235.70	1728.49
235.92	1796.07
236.14	1697.77
236.36	1818.60
236.58	1689.57
236.79	1738.73
237.01	1644.52
237.23	1742.82
237.45	1796.07
237.67	1714.15
237.88	1843.17
238.10	1849.32
238.32	1660.90
238.54	1689.57
238.76	1677.29
238.97	1646.57
239.19	1587.18
239.41	1734.63
239.63	1812.45
239.85	1804.26
240.06	1732.58
240.28	1701.86
240.50	1777.64
240.72	1736.68
240.93	1738.73
241.15	1820.64
241.37	1787.88
241.59	1791.97
241.81	1712.10
242.02	1667.05
242.24	1767.40
242.46	1697.77
242.68	1699.81
242.89	1736.68
243.11	1744.87
243.33	1738.73
243.55	1701.86
243.76	1685.48
243.98	1712.10
244.20	1685.48
244.42	1695.72
244.64	1716.20
244.85	1673.19
245.07	1650.66
245.29	1765.35
245.51	1687.53
245.72	1742.82
245.94	1746.92
246.16	1738.73
246.38	1728.49
246.59	1710.05
246.81	1701.86
247.03	1765.35
247.24	1599.46
247.46	1677.29
247.68	1679.33
247.90	1724.39
248.11	1687.53
248.33	1804.26
248.55	1751.01
248.77	1730.53
248.98	1802.21
249.20	1775.59
249.42	1705.96
249.64	1777.64
249.85	1720.29
250.07	1626.09
250.29	1773.54
250.50	1765.35
250.72	1615.85
250.94	1697.77
251.16	1798.12
251.37	1812.45
251.59	1869.80
251.81	1683.43
252.02	1732.58
252.24	1665.00
252.46	1800.16
252.68	1628.14
252.89	1730.53
253.11	1617.90
253.33	1812.45
253.54	1779.68
253.76	1689.57
253.98	1728.49
254.20	1708.01
254.41	1734.63
254.63	1689.57
254.85	1679.33
255.06	1728.49
255.28	1722.34
255.50	1689.57
255.71	1652.71
255.93	1624.04
256.15	1599.46
256.36	1732.58
256.58	1624.04
256.80	1722.34
257.02	1697.77
257.23	1765.35
257.45	1689.57
257.67	1820.64
257.88	1640.42
258.10	1681.38
258.32	1699.81
258.53	1759.21
258.75	1783.78
258.97	1648.61
259.18	1791.97
259.40	1734.63
259.62	1857.51
259.83	1730.53
260.05	1695.72
260.27	1961.95
260.48	1732.58
260.70	1642.47
260.92	1681.38
261.13	1738.73
261.35	1693.67
261.57	1787.88
261.78	1665.00
262.00	1636.33
262.22	1800.16
262.43	1632.23
262.65	1738.73
262.86	1744.87
263.08	1742.82
263.30	1763.30
263.51	1662.95
263.73	1689.57
263.95	1828.84
264.16	1587.18
264.38	1660.90
264.60	1681.38
264.81	1691.62
265.03	1722.34
265.25	1738.73
265.46	1714.15
265.68	1753.06
265.89	1742.82
266.11	1720.29
266.33	1726.44
266.54	1769.44
266.76	1767.40
266.98	1701.86
267.19	1837.03
267.41	1763.30
267.62	1726.44
267.84	1560.55
268.06	1742.82
268.27	1687.53
268.49	1869.80
268.70	1796.07
268.92	1642.47
269.14	1644.52
269.35	1658.85
269.57	1751.01
269.79	1781.73
270.00	1687.53
270.22	1822.69
270.43	1697.77
270.65	1595.37
270.87	1759.21
271.08	1775.59
271.30	1736.68
271.51	1746.92
271.73	1710.05
271.95	1812.45
272.16	1751.01
272.38	1724.39
272.59	1712.10
272.81	1812.45
273.02	1662.95
273.24	1695.72
273.46	1708.01
273.67	1652.71
273.89	1638.38
274.10	1724.39
274.32	1802.21
274.54	1726.44
274.75	1794.02
274.97	1699.81
275.18	1701.86
275.40	1736.68
275.61	1748.97
275.83	1693.67
276.05	1708.01
276.26	1705.96
276.48	1722.34
276.69	1701.86
276.91	1628.14
277.12	1767.40
277.34	1765.35
277.55	1814.50
277.77	1806.31
277.99	1656.81
278.20	1730.53
278.42	1667.05
278.63	1601.51
278.85	1736.68
279.06	1632.23
279.28	1679.33
279.49	1769.44
279.71	1796.07
279.93	1714.15
280.14	1642.47
280.36	1660.90
280.57	1771.49
280.79	1718.25
281.00	1730.53
281.22	1665.00
281.43	1726.44
281.65	1552.36
281.86	1636.33
282.08	1728.49
282.29	1847.27
282.51	1628.14
282.73	1626.09
282.94	1640.42
283.16	1714.15
283.37	1751.01
283.59	1665.00
283.80	1763.30
284.02	1673.19
284.23	1791.97
284.45	1708.01
284.66	1634.28
284.88	1646.57
285.09	1720.29
285.31	1757.16
285.52	1757.16
285.74	1566.70
285.95	1736.68
286.17	1775.59
286.38	1787.88
286.60	1722.34
286.81	1722.34
287.03	1730.53
287.24	1705.96
287.46	1734.63
287.67	1757.16
287.89	1796.07
288.10	1716.20
288.32	1718.25
288.53	1810.40
288.75	1738.73
288.96	1736.68
289.18	1667.05
289.39	1683.43
289.61	1791.97
289.82	1755.11
290.04	1845.22
290.25	1624.04
290.47	1712.10
290.68	1650.66
290.90	1834.98
291.11	1597.42
291.33	1812.45
291.54	1652.71
291.76	1712.10
291.97	1777.64
292.18	1726.44
292.40	1728.49
292.61	1708.01
292.83	1886.18
293.04	1738.73
293.26	1755.11
293.47	1693.67
293.69	1716.20
293.90	1714.15
294.12	1787.88
294.33	1687.53
294.55	1695.72
294.76	1759.21
294.97	1839.08
295.19	1871.84
295.40	1691.62
295.62	1714.15
295.83	1716.20
296.05	1652.71
296.26	1767.40
296.48	1656.81
296.69	1751.01
296.90	1724.39
297.12	1744.87
297.33	1683.43
297.55	1687.53
297.76	1730.53
297.98	1773.54
298.19	1738.73
298.41	1730.53
298.62	1693.67
298.83	1798.12
299.05	1697.77
299.26	1695.72
299.48	1714.15
299.69	1755.11
299.90	1689.57
300.12	1699.81
300.33	1730.53
300.55	1703.91
300.76	1775.59
300.98	1638.38
301.19	1722.34
301.40	1656.81
301.62	1628.14
301.83	1726.44
302.05	1697.77
302.26	1742.82
302.47	1673.19
302.69	1613.80
302.90	1705.96
303.12	1589.22
303.33	1732.58
303.54	1728.49
303.76	1650.66
303.97	1693.67
304.19	1794.02
304.40	1742.82
304.61	1697.77
304.83	1804.26
305.04	1740.77
305.26	1697.77
305.47	1632.23
305.68	1757.16
305.90	1650.66
306.11	1728.49
306.33	1746.92
306.54	1705.96
306.75	1667.05
306.97	1634.28
307.18	1626.09
307.39	1761.25
307.61	1744.87
307.82	1712.10
308.04	1771.49
308.25	1718.25
308.46	1677.29
308.68	1738.73
308.89	1714.15
309.10	1746.92
309.32	1816.55
309.53	1669.09
309.74	1738.73
309.96	1621.99
310.17	1767.40
310.39	1714.15
310.60	1757.16
310.81	1669.09
311.03	1660.90
311.24	1800.16
311.45	1728.49
311.67	1826.79
311.88	1693.67
312.09	1679.33
312.31	1718.25
312.52	1693.67
312.73	1679.33
312.95	1656.81
313.16	1705.96
313.37	1851.36
313.59	1662.95
313.80	1746.92
314.01	1796.07
314.23	1660.90
314.44	1685.48
314.65	1701.86
314.87	1642.47
315.08	1675.24
315.29	1699.81
315.51	1703.91
315.72	1677.29
315.93	1886.18
316.15	1765.35
316.36	1691.62
316.57	1775.59
316.79	1732.58
317.00	1722.34
317.21	1755.11
317.43	1699.81
317.64	1744.87
317.85	1757.16
318.07	1681.38
318.28	1796.07
318.49	1814.50
318.70	1898.47
318.92	1861.60
319.13	1890.28
319.34	1867.75
319.56	1763.30
319.77	1781.73
319.98	1796.07
320.20	1785.83
320.41	1722.34
320.62	1757.16
320.83	1769.44
321.05	1812.45
321.26	1845.22
321.47	1753.06
321.69	1769.44
321.90	1648.61
322.11	1683.43
322.32	1703.91
322.54	1765.35
322.75	1738.73
322.96	1853.41
323.18	1665.00
323.39	1595.37
323.60	1701.86
323.81	1701.86
324.03	1679.33
324.24	1685.48
324.45	1726.44
324.66	1677.29
324.88	1740.77
325.09	1724.39
325.30	1693.67
325.52	1718.25
325.73	1650.66
325.94	1607.66
326.15	1632.23
326.37	1691.62
326.58	1794.02
326.79	1830.88
327.00	1744.87
327.22	1710.05
327.43	1667.05
327.64	1632.23
327.85	1730.53
328.07	1759.21
328.28	1789.92
328.49	1658.85
328.70	1699.81
328.92	1626.09
329.13	1699.81
329.34	1716.20
329.55	1779.68
329.76	1773.54
329.98	1683.43
330.19	1724.39
330.40	1775.59
330.61	1712.10
330.83	1783.78
331.04	1697.77
331.25	1767.40
331.46	1685.48
331.68	1728.49
331.89	1775.59
332.10	1746.92
332.31	1693.67
332.52	1660.90
332.74	1849.32
332.95	1652.71
333.16	1667.05
333.37	1730.53
333.58	1654.76
333.80	1738.73
334.01	1658.85
334.22	1724.39
334.43	1652.71
334.64	1695.72
334.86	1607.66
335.07	1658.85
335.28	1785.83
335.49	1648.61
335.70	1703.91
335.92	1695.72
336.13	1802.21
336.34	1812.45
336.55	1806.31
336.76	1714.15
336.98	1599.46
337.19	1648.61
337.40	1824.74
337.61	1855.46
337.82	1640.42
338.04	1699.81
338.25	1601.51
338.46	1703.91
338.67	1714.15
338.88	1640.42
339.09	1662.95
339.31	1679.33
339.52	1673.19
339.73	1705.96
339.94	1714.15
340.15	1800.16
340.36	1634.28
340.58	1767.40
340.79	1699.81
341.00	1746.92
341.21	1599.46
341.42	1783.78
341.63	1779.68
341.85	1783.78
342.06	1660.90
342.27	1671.14
342.48	1773.54
342.69	1601.51
342.90	1734.63
343.12	1757.16
343.33	1697.77
343.54	1714.15
343.75	1800.16
343.96	1701.86
344.17	1683.43
344.38	1685.48
344.60	1753.06
344.81	1638.38
345.02	1720.29
345.23	1796.07
345.44	1796.07
345.65	1759.21
345.86	1701.86
346.07	1673.19
346.29	1759.21
346.50	1705.96
346.71	1808.36
346.92	1814.50
347.13	1830.88
347.34	1746.92
347.55	1714.15
347.76	1771.49
347.98	1658.85
348.19	1662.95
348.40	1722.34
348.61	1677.29
348.82	1763.30
349.03	1677.29
349.24	1728.49
349.45	1865.70
349.66	1609.70
349.88	1742.82
350.09	1746.92
350.30	1832.93
350.51	1771.49
350.72	1742.82
350.93	1697.77
351.14	1714.15
351.35	1718.25
351.56	1744.87
351.77	1689.57
351.99	1646.57
352.20	1812.45
352.41	1748.97
352.62	1650.66
352.83	1765.35
353.04	1648.61
353.25	1687.53
353.46	1775.59
353.67	1837.03
353.88	1695.72
354.09	1732.58
354.30	1675.24
354.52	1843.17
354.73	1705.96
354.94	1673.19
355.15	1617.90
355.36	1837.03
355.57	1634.28
355.78	1734.63
355.99	1705.96
356.20	1712.10
356.41	1785.83
356.62	1648.61
356.83	1771.49
357.04	1816.55
357.25	1677.29
357.46	1695.72
357.68	1597.42
357.89	1681.38
358.10	1722.34
358.31	1662.95
358.52	1671.14
358.73	1673.19
358.94	1687.53
359.15	1755.11
359.36	1753.06
359.57	1675.24
359.78	1683.43
359.99	1748.97
360.20	1638.38
360.41	1728.49
360.62	1763.30
360.83	1681.38
361.04	1693.67
361.25	1773.54
361.46	1851.36
361.67	1712.10
361.88	1722.34
362.09	1736.68
362.30	1812.45
362.51	1654.76
362.72	1740.77
362.93	1705.96
363.14	1845.22
363.35	1726.44
363.56	1714.15
363.78	1787.88
363.99	1789.92
364.20	1726.44
364.41	1722.34
364.62	1781.73
364.83	1665.00
365.04	1697.77
365.25	1734.63
365.46	1834.98
365.67	1730.53
365.88	1609.70
366.09	1644.52
366.30	1777.64
366.51	1714.15
366.72	1699.81
366.93	1708.01
367.14	1746.92
367.35	1863.65
367.56	1753.06
367.77	1828.84
367.98	1763.30
368.18	1712.10
368.39	1691.62
368.60	1593.32
368.81	1730.53
369.02	1804.26
369.23	1671.14
369.44	1591.27
369.65	1681.38
369.86	1712.10
370.07	1796.07
370.28	1722.34
370.49	1734.63
370.70	1734.63
370.91	1566.70
371.12	1685.48
371.33	1775.59
371.54	1638.38
371.75	1814.50
371.96	1621.99
372.17	1783.78
372.38	1724.39
372.59	1667.05
372.80	1699.81
373.01	1753.06
373.22	1667.05
373.43	1716.20
373.64	1705.96
373.85	1800.16
374.06	1757.16
374.26	1734.63
374.47	1806.31
374.68	1712.10
374.89	1665.00
375.10	1742.82
375.31	1820.64
375.52	1755.11
375.73	1732.58
375.94	1662.95
376.15	1802.21
376.36	1691.62
376.57	1679.33
376.78	1644.52
376.99	1726.44
377.20	1744.87
377.40	1708.01
377.61	1824.74
377.82	1681.38
378.03	1802.21
378.24	1691.62
378.45	1724.39
378.66	1765.35
378.87	1648.61
379.08	1624.04
379.29	1734.63
379.50	1816.55
379.71	1722.34
379.91	1830.88
380.12	1634.28
380.33	1693.67
380.54	1695.72
380.75	1648.61
380.96	1644.52
381.17	1769.44
381.38	1703.91
381.59	1730.53
381.80	1757.16
382.00	1832.93
382.21	1789.92
382.42	1843.17
382.63	1814.50
382.84	1697.77
383.05	1814.50
383.26	1812.45
383.47	1732.58
383.68	1675.24
383.88	1724.39
384.09	1697.77
384.30	1820.64
384.51	1716.20
384.72	1656.81
384.93	1718.25
385.14	1701.86
385.35	1751.01
385.55	1609.70
385.76	1746.92
385.97	1734.63
386.18	1613.80
386.39	1705.96
386.60	1697.77
386.81	1765.35
387.02	1681.38
387.22	1695.72
387.43	1740.77
387.64	1785.83
387.85	1814.50
388.06	2191.33
388.27	4163.52
388.48	6735.77
388.68	8198.02
388.89	9668.46
389.10	9858.92
389.31	8609.66
389.52	7499.66
389.73	6729.63
389.93	6205.35
390.14	5779.37
390.35	5054.39
390.56	4491.20
390.77	3749.83
390.98	3008.47
391.18	2500.57
391.39	2088.93
391.60	1816.55
391.81	1822.69
392.02	1720.29
392.23	1937.38
392.43	1716.20
392.64	1798.12
392.85	1773.54
393.06	1812.45
393.27	1734.63
393.47	1665.00
393.68	1771.49
393.89	1753.06
394.10	1771.49
394.31	1656.81
394.52	1720.29
394.72	1726.44
394.93	1783.78
395.14	1626.09
395.35	1705.96
395.56	1730.53
395.76	1736.68
395.97	1794.02
396.18	1830.88
396.39	1843.17
396.60	2002.91
396.80	1875.94
397.01	1859.56
397.22	1781.73
397.43	1828.84
397.64	1810.40
397.84	1800.16
398.05	1853.41
398.26	1767.40
398.47	1763.30
398.67	1849.32
398.88	1722.34
399.09	1804.26
399.30	1601.51
399.51	1734.63
399.71	1648.61
399.92	1789.92
400.13	1718.25
400.34	1728.49
400.54	1681.38
400.75	1738.73
400.96	1759.21
401.17	1839.08
401.37	1765.35
401.58	1755.11
401.79	1691.62
402.00	1890.28
402.21	2000.87
402.41	1951.71
402.62	1941.47
402.83	2015.20
403.04	1998.82
403.24	2029.54
403.45	1951.71
403.66	1923.04
403.87	1869.80
404.07	1918.95
404.28	1898.47
404.49	1839.08
404.70	1718.25
404.90	1808.36
405.11	1673.19
405.32	1763.30
405.52	1699.81
405.73	1699.81
405.94	1658.85
406.15	1718.25
406.35	1734.63
406.56	1746.92
406.77	1753.06
406.98	1767.40
407.18	1722.34
407.39	1771.49
407.60	1746.92
407.80	1751.01
408.01	1656.81
408.22	1708.01
408.43	1677.29
408.63	1757.16
408.84	1740.77
409.05	1734.63
409.25	1718.25
409.46	1701.86
409.67	1691.62
409.88	1656.81
410.08	1843.17
410.29	1734.63
410.50	1705.96
410.70	1720.29
410.91	1722.34
411.12	1658.85
411.32	1753.06
411.53	1705.96
411.74	1837.03
411.95	1765.35
412.15	1718.25
412.36	1724.39
412.57	1724.39
412.77	1730.53
412.98	1710.05
413.19	1726.44
413.39	1753.06
413.60	1730.53
413.81	1783.78
414.01	1730.53
414.22	1722.34
414.43	1781.73
414.63	1667.05
414.84	1804.26
415.05	1714.15
415.25	1726.44
415.46	1726.44
415.67	1748.97
415.87	1812.45
416.08	1740.77
416.29	1634.28
416.49	1822.69
416.70	1636.33
416.91	1667.05
417.11	1687.53
417.32	1736.68
417.53	1820.64
417.73	1812.45
417.94	1677.29
418.15	1746.92
418.35	1701.86
418.56	1763.30
418.77	1794.02
418.97	1699.81
419.18	1654.76
419.38	1628.14
419.59	1675.24
419.80	1853.41
420.00	1693.67
420.21	1751.01
420.42	1796.07
420.62	1748.97
420.83	1720.29
421.04	1681.38
421.24	1603.56
421.45	1761.25
421.65	1726.44
421.86	1652.71
422.07	1796.07
422.27	1699.81
422.48	1726.44
422.69	1607.66
422.89	1738.73
423.10	1708.01
423.30	1656.81
423.51	1765.35
423.72	1648.61
423.92	1781.73
424.13	1701.86
424.33	1755.11
424.54	1705.96
424.75	1775.59
424.95	1806.31
425.16	1771.49
425.36	1685.48
425.57	1796.07
425.78	1763.30
425.98	1753.06
426.19	1734.63
426.39	1683.43
426.60	1703.91
426.81	1742.82
427.01	1705.96
427.22	1683.43
427.42	1595.37
427.63	1562.60
427.83	1689.57
428.04	1800.16
428.25	1820.64
428.45	1800.16
428.66	1740.77
428.86	1804.26
429.07	1730.53
429.28	1691.62
429.48	1710.05
429.69	1601.51
429.89	1769.44
430.10	1679.33
430.30	1710.05
430.51	1808.36
430.71	1716.20
430.92	1769.44
431.13	1640.42
431.33	1751.01
431.54	1740.77
431.74	1820.64
431.95	1845.22
432.15	1720.29
432.36	1789.92
432.56	1791.97
432.77	1787.88
432.98	1806.31
433.18	1695.72
433.39	1705.96
433.59	1626.09
433.80	1822.69
434.00	1855.46
434.21	1652.71
434.41	1728.49
434.62	1800.16
434.82	1648.61
435.03	1697.77
435.23	1708.01
435.44	1628.14
435.64	1658.85
435.85	1785.83
436.06	1708.01
436.26	1896.42
436.47	1669.09
436.67	1669.09
436.88	1757.16
437.08	1818.60
437.29	1853.41
437.49	1662.95
437.70	1779.68
437.90	1787.88
438.11	1882.08
438.31	1765.35
438.52	1830.88
438.72	1898.47
438.93	1892.32
439.13	1777.64
439.34	1742.82
439.54	1699.81
439.75	1828.84
439.95	1834.98
440.16	1751.01
440.36	1732.58
440.57	1742.82
440.77	1744.87
440.98	1712.10
441.18	1847.27
441.39	1660.90
441.59	1656.81
441.80	1814.50
442.00	1802.21
442.21	1834.98
442.41	1613.80
442.62	1779.68
442.82	1712.10
443.02	1740.77
443.23	1736.68
443.43	1689.57
443.64	1863.65
443.84	1714.15
444.05	1845.22
444.25	1703.91
444.46	1775.59
444.66	1701.86
444.87	1796.07
445.07	1648.61
445.28	1730.53
445.48	1824.74
445.69	1779.68
445.89	1941.47
446.09	1787.88
446.30	2029.54
446.50	2672.60
446.71	3737.54
446.91	4390.84
447.12	4886.45
447.32	4812.73
447.53	4319.17
447.73	3835.85
447.93	3585.99
448.14	3409.87
448.34	3211.22
448.55	2942.93
448.75	2772.95
448.96	2607.06
449.16	2451.42
449.36	2306.01
449.57	1986.53
449.77	1920.99
449.98	1796.07
450.18	1847.27
450.39	1828.84
450.59	1775.59
450.79	1818.60
451.00	1751.01
451.20	1845.22
451.41	1644.52
451.61	1787.88
451.81	1736.68
452.02	1728.49
452.22	1724.39
452.43	1722.34
452.63	1746.92
452.84	1669.09
453.04	1697.77
453.24	1796.07
453.45	1736.68
453.65	1763.30
453.86	1683.43
454.06	1746.92
454.26	1730.53
454.47	1675.24
454.67	1875.94
454.87	1771.49
455.08	1732.58
455.28	1869.80
455.49	1705.96
455.69	1673.19
455.89	1843.17
456.10	1798.12
456.30	1728.49
456.51	1728.49
456.71	1755.11
456.91	1771.49
457.12	1804.26
457.32	1767.40
457.52	1656.81
457.73	1832.93
457.93	1779.68
458.14	1654.76
458.34	1658.85
458.54	1720.29
458.75	1718.25
458.95	1742.82
459.15	1753.06
459.36	1771.49
459.56	1697.77
459.76	1814.50
459.97	1785.83
460.17	1667.05
460.37	1789.92
460.58	1714.15
460.78	1775.59
460.99	1728.49
461.19	1751.01
461.39	1691.62
461.60	1734.63
461.80	1769.44
462.00	1736.68
462.21	1701.86
462.41	1681.38
462.61	1695.72
462.82	1593.32
463.02	1710.05
463.22	1810.40
463.43	1802.21
463.63	1802.21
463.83	1812.45
464.04	1773.54
464.24	1738.73
464.44	1558.50
464.64	1701.86
464.85	1800.16
465.05	1808.36
465.25	1744.87
465.46	1748.97
465.66	1857.51
465.86	1705.96
466.07	1783.78
466.27	1734.63
466.47	1624.04
466.68	1644.52
466.88	1851.36
467.08	1722.34
467.29	1767.40
467.49	1736.68
467.69	1714.15
467.89	1738.73
468.10	1722.34
468.30	1779.68
468.50	1826.79
468.71	1769.44
468.91	1681.38
469.11	1949.67
469.31	1665.00
469.52	1669.09
469.72	1806.31
469.92	1843.17
470.13	1712.10
470.33	1722.34
470.53	1832.93
470.73	2050.02
470.94	2310.11
471.14	2316.25
471.34	2525.15
471.54	2432.99
471.75	2256.86
471.95	2099.17
472.15	2045.92
472.36	2066.40
472.56	2025.44
472.76	2052.06
472.96	2035.68
473.17	1972.19
473.37	1906.66
473.57	1800.16
473.77	1845.22
473.98	1773.54
474.18	1767.40
474.38	1976.29
474.58	1718.25
474.79	1708.01
474.99	1789.92
475.19	1791.97
475.39	1718.25
475.60	1751.01
475.80	1826.79
476.00	1730.53
476.20	1701.86
476.41	1744.87
476.61	1937.38
476.81	1873.89
477.01	1667.05
477.21	1794.02
477.42	1808.36
477.62	1677.29
477.82	1755.11
478.02	1703.91
478.23	1722.34
478.43	1710.05
478.63	1650.66
478.83	1712.10
479.03	1695.72
479.24	1814.50
479.44	1869.80
479.64	1726.44
479.84	1619.94
480.04	1679.33
480.25	1753.06
480.45	1761.25
480.65	1740.77
480.85	1845.22
481.06	1730.53
481.26	1697.77
481.46	1761.25
481.66	1810.40
481.86	1755.11
482.06	1875.94
482.27	1691.62
482.47	1693.67
482.67	1804.26
482.87	1710.05
483.07	1796.07
483.28	1699.81
483.48	1642.47
483.68	1837.03
483.88	1695.72
484.08	1578.98
484.29	1646.57
484.49	1748.97
484.69	1658.85
484.89	1830.88
485.09	1742.82
485.29	1716.20
485.50	1796.07
485.70	1691.62
485.90	1769.44
486.10	1753.06
486.30	1796.07
486.50	1775.59
486.71	1708.01
486.91	1812.45
487.11	1722.34
487.31	1640.42
487.51	1808.36
487.71	1669.09
487.91	1693.67
488.12	1681.38
488.32	1607.66
488.52	1710.05
488.72	1632.23
488.92	1695.72
489.12	1816.55
489.32	1800.16
489.53	1771.49
489.73	1689.57
489.93	1804.26
490.13	1677.29
490.33	1660.90
490.53	1746.92
490.73	1839.08
490.94	1669.09
491.14	1855.46
491.34	1863.65
491.54	2127.84
491.74	2629.59
491.94	2998.23
492.14	3076.05
492.34	3139.54
492.54	2803.67
492.75	2570.20
492.95	2475.99
493.15	2330.59
493.35	2183.13
493.55	2254.81
493.75	2095.07
493.95	2189.28
494.15	2031.58
494.35	1986.53
494.56	1920.99
494.76	1798.12
494.96	1767.40
495.16	1802.21
495.36	1828.84
495.56	1724.39
495.76	1826.79
495.96	1759.21
496.16	1687.53
496.36	1818.60
496.56	1718.25
496.77	1808.36
496.97	1695.72
497.17	1798.12
497.37	1691.62
497.57	1886.18
497.77	1718.25
497.97	1722.34
498.17	1726.44
498.37	1773.54
498.57	1740.77
498.77	1730.53
498.97	1800.16
499.17	1746.92
499.38	1775.59
499.58	1738.73
499.78	1812.45
499.98	1804.26
500.18	1736.68
500.38	1697.77
500.58	1875.94
500.78	2475.99
500.98	4532.15
501.18	5846.95
501.38	6797.21
501.58	7030.68
501.78	6750.10
501.98	5515.18
502.18	5056.43
502.38	4392.89
502.58	4122.56
502.78	3788.74
502.98	3631.05
503.18	3418.06
503.38	3090.38
503.59	2867.16
503.79	2658.26
503.99	2484.19
504.19	2398.17
504.39	2205.66
504.59	2220.00
504.79	2181.09
504.99	2050.02
505.19	1894.37
505.39	1939.43
505.59	1904.61
505.79	1910.75
505.99	1814.50
506.19	1832.93
506.39	1904.61
506.59	1806.31
506.79	1722.34
506.99	1906.66
507.19	1759.21
507.39	1800.16
507.59	1710.05
507.79	1767.40
507.99	1679.33
508.19	1691.62
508.39	1718.25
508.59	1775.59
508.79	1796.07
508.99	1871.84
509.19	1738.73
509.39	1763.30
509.59	1779.68
509.79	1783.78
509.99	1724.39
510.19	1777.64
510.39	1763.30
510.59	1753.06
510.79	1761.25
510.99	1724.39
511.19	1779.68
511.39	1892.32
511.59	1765.35
511.79	1769.44
511.99	1773.54
512.19	1800.16
512.38	1767.40
512.58	1681.38
512.78	1738.73
512.98	1802.21
513.18	1810.40
513.38	1556.46
513.58	1761.25
513.78	1732.58
513.98	1744.87
514.18	1753.06
514.38	1746.92
514.58	1669.09
514.78	1699.81
514.98	1595.37
515.18	1699.81
515.38	1665.00
515.58	1865.70
515.78	1730.53
515.98	1681.38
516.18	1753.06
516.38	1695.72
516.57	1744.87
516.77	1660.90
516.97	1722.34
517.17	1779.68
517.37	1669.09
517.57	1753.06
517.77	1755.11
517.97	1714.15
518.17	1808.36
518.37	1732.58
518.57	1738.73
518.77	1699.81
518.97	1697.77
519.16	1759.21
519.36	1806.31
519.56	1779.68
519.76	1742.82
519.96	1703.91
520.16	1714.15
520.36	1671.14
520.56	1748.97
520.76	1775.59
520.96	1738.73
521.16	1865.70
521.35	1771.49
521.55	1857.51
521.75	1697.77
521.95	1722.34
522.15	1685.48
522.35	1652.71
522.55	1734.63
522.75	1769.44
522.95	1705.96
523.14	1738.73
523.34	1712.10
523.54	1718.25
523.74	1722.34
523.94	1759.21
524.14	1665.00
524.34	1789.92
524.54	1859.56
524.73	1730.53
524.93	1798.12
525.13	1755.11
525.33	1662.95
525.53	1865.70
525.73	1755.11
525.93	1738.73
526.13	1738.73
526.32	1703.91
526.52	1798.12
526.72	1804.26
526.92	1798.12
527.12	1665.00
527.32	1697.77
527.52	1720.29
527.71	1785.83
527.91	1757.16
528.11	1722.34
528.31	1779.68
528.51	1710.05
528.71	1839.08
528.90	1738.73
529.10	1826.79
529.30	1789.92
529.50	1673.19
529.70	1699.81
529.90	1748.97
530.09	1804.26
530.29	1771.49
530.49	1697.77
530.69	1898.47
530.89	1685.48
531.09	1781.73
531.28	1701.86
531.48	1763.30
531.68	1753.06
531.88	1783.78
532.08	1820.64
532.28	1714.15
532.47	1724.39
532.67	1802.21
532.87	1736.68
533.07	1662.95
533.27	1822.69
533.46	1718.25
533.66	1859.56
533.86	1779.68
534.06	1812.45
534.26	1769.44
534.45	1669.09
534.65	1783.78
534.85	1744.87
535.05	1697.77
535.25	1796.07
535.44	1650.66
535.64	1820.64
535.84	1695.72
536.04	1685.48
536.24	1728.49
536.43	1779.68
536.63	1757.16
536.83	1746.92
537.03	1746.92
537.22	1705.96
537.42	1632.23
537.62	1751.01
537.82	1699.81
538.02	1834.98
538.21	1816.55
538.41	1873.89
538.61	1804.26
538.81	1771.49
539.00	1841.12
539.20	1595.37
539.40	1691.62
539.60	1789.92
539.79	1761.25
539.99	1718.25
540.19	1689.57
540.39	1742.82
540.58	1734.63
540.78	1808.36
540.98	1708.01
541.18	1765.35
541.37	1765.35
541.57	1816.55
541.77	1834.98
541.97	1609.70
542.16	1685.48
542.36	1757.16
542.56	1789.92
542.76	1894.37
542.95	1751.01
543.15	1820.64
543.35	1732.58
543.54	1714.15
543.74	1630.18
543.94	1796.07
544.14	1724.39
544.33	1728.49
544.53	1787.88
544.73	1783.78
544.93	1660.90
545.12	1724.39
545.32	1816.55
545.52	1714.15
545.71	1638.38
545.91	1755.11
546.11	1740.77
546.30	1621.99
546.50	1834.98
546.70	1789.92
546.90	1777.64
547.09	1650.66
547.29	1732.58
547.49	1796.07
547.68	1767.40
547.88	1812.45
548.08	1714.15
548.27	2183.13
548.47	1718.25
548.67	1734.63
548.87	1777.64
549.06	1726.44
549.26	1812.45
549.46	1812.45
549.65	1716.20
549.85	1759.21
550.05	1814.50
550.24	1638.38
550.44	1771.49
550.64	1789.92
550.83	1728.49
551.03	1791.97
551.23	1847.27
551.42	1859.56
551.62	1746.92
551.82	1701.86
552.01	1794.02
552.21	1740.77
552.41	1722.34
552.60	1849.32
552.80	1734.63
553.00	1681.38
553.19	1828.84
553.39	1814.50
553.59	1652.71
553.78	1828.84
553.98	1738.73
554.17	1683.43
554.37	1722.34
554.57	1843.17
554.76	1732.58
554.96	1681.38
555.16	1746.92
555.35	1705.96
555.55	1703.91
555.75	1806.31
555.94	1769.44
556.14	1697.77
556.33	1705.96
556.53	1751.01
556.73	1734.63
556.92	1710.05
557.12	1810.40
557.32	1816.55
557.51	1816.55
557.71	1779.68
557.90	1871.84
558.10	1906.66
558.30	1746.92
558.49	1767.40
558.69	1746.92
558.88	1814.50
559.08	1716.20
559.28	1814.50
559.47	1814.50
559.67	1761.25
559.86	1890.28
560.06	1806.31
560.26	1812.45
560.45	1785.83
560.65	1740.77
560.84	1853.41
561.04	1800.16
561.24	1783.78
561.43	1763.30
561.63	1888.23
561.82	1839.08
562.02	1722.34
562.22	1710.05
562.41	1732.58
562.61	1755.11
562.80	1712.10
563.00	1832.93
563.19	1751.01
563.39	1742.82
563.59	1794.02
563.78	1665.00
563.98	1603.56
564.17	1689.57
564.37	1624.04
564.56	1759.21
564.76	1722.34
564.96	1787.88
565.15	1748.97
565.35	1804.26
565.54	1681.38
565.74	1796.07
565.93	1763.30
566.13	1767.40
566.32	1720.29
566.52	1767.40
566.71	1769.44
566.91	1855.46
567.11	1685.48
567.30	1644.52
567.50	1748.97
567.69	1814.50
567.89	1787.88
568.08	1714.15
568.28	1785.83
568.47	1705.96
568.67	1877.99
568.86	1716.20
569.06	1814.50
569.25	1710.05
569.45	1636.33
569.64	1712.10
569.84	1710.05
570.04	1689.57
570.23	1703.91
570.43	1642.47
570.62	1746.92
570.82	1875.94
571.01	1681.38
571.21	1640.42
571.40	1714.15
571.60	1781.73
571.79	1804.26
571.99	1738.73
572.18	1646.57
572.38	1724.39
572.57	1783.78
572.77	1763.30
572.96	1933.28
573.16	1763.30
573.35	1791.97
573.55	1783.78
573.74	1734.63
573.94	1796.07
574.13	1734.63
574.33	1812.45
574.52	1818.60
574.71	1787.88
574.91	1734.63
575.10	1656.81
575.30	1701.86
575.49	1738.73
575.69	1689.57
575.88	1832.93
576.08	1820.64
576.27	1826.79
576.47	1748.97
576.66	1853.41
576.86	1845.22
577.05	1783.78
577.25	1861.60
577.44	1791.97
577.64	1720.29
577.83	1839.08
578.02	1820.64
578.22	1814.50
578.41	1830.88
578.61	1728.49
578.80	1695.72
579.00	1779.68
579.19	1779.68
579.39	1834.98
579.58	1822.69
579.77	1740.77
579.97	1853.41
580.16	1794.02
580.36	1845.22
580.55	1820.64
580.75	1787.88
580.94	1722.34
581.13	1845.22
581.33	1800.16
581.52	1779.68
581.72	1875.94
581.91	1839.08
582.11	1656.81
582.30	1794.02
582.49	1740.77
582.69	1806.31
582.88	1779.68
583.08	1810.40
583.27	1771.49
583.47	1824.74
583.66	1761.25
583.85	1658.85
584.05	1875.94
584.24	1777.64
584.44	1771.49
584.63	1769.44
584.82	1847.27
585.02	1871.84
585.21	1892.32
585.41	1769.44
585.60	1834.98
585.79	1972.19
585.99	1974.24
586.18	1865.70
586.37	2248.67
586.57	3350.48
586.76	9873.26
586.96	24526.47
587.15	34039.29
587.34	40066.46
587.54	41921.92
587.73	36130.26
587.93	26121.84
588.12	21368.51
588.31	18063.08
588.51	16029.45
588.70	15066.91
588.89	13956.91
589.09	12554.05
589.28	10987.35
589.47	9328.50
589.67	7833.48
589.86	6414.24
590.06	4947.89
590.25	3809.22
590.44	3041.23
590.64	2519.00
590.83	2269.15
591.02	2072.54
591.22	1974.24
591.41	1869.80
591.60	1927.14
591.80	1966.05
591.99	1812.45
592.18	1845.22
592.38	1816.55
592.57	1769.44
592.76	1746.92
592.96	1853.41
593.15	1697.77
593.34	1849.32
593.54	1824.74
593.73	1765.35
593.92	1787.88
594.12	1861.60
594.31	1767.40
594.50	1892.32
594.70	1748.97
594.89	1851.36
595.08	1775.59
595.28	1744.87
595.47	1933.28
595.66	1767.40
595.86	1611.75
596.05	1779.68
596.24	1738.73
596.43	1765.35
596.63	1726.44
596.82	1714.15
597.01	1722.34
597.21	1794.02
597.40	1681.38
597.59	1759.21
597.79	1665.00
597.98	1820.64
598.17	1736.68
598.36	1771.49
598.56	1779.68
598.75	1732.58
598.94	1744.87
599.14	1742.82
599.33	1701.86
599.52	1789.92
599.71	1796.07
599.91	1804.26
600.10	1789.92
600.29	1740.77
600.48	1853.41
600.68	1804.26
600.87	1763.30
601.06	1740.77
601.26	1697.77
601.45	1759.21
601.64	1712.10
601.83	1812.45
602.03	1685.48
602.22	1677.29
602.41	1820.64
602.60	1904.61
602.80	1796.07
602.99	1775.59
603.18	1669.09
603.37	1689.57
603.57	1718.25
603.76	1765.35
603.95	1791.97
604.14	1718.25
604.34	1738.73
604.53	1701.86
604.72	1798.12
604.91	1810.40
605.10	1828.84
605.30	1673.19
605.49	1810.40
605.68	1771.49
605.87	1714.15
606.07	1724.39
606.26	1699.81
606.45	1765.35
606.64	1794.02
606.84	1681.38
607.03	1726.44
607.22	1759.21
607.41	1726.44
607.60	1703.91
607.80	1787.88
607.99	1746.92
608.18	1724.39
608.37	1732.58
608.56	1716.20
608.76	1767.40
608.95	1818.60
609.14	1761.25
609.33	1759.21
609.52	1814.50
609.72	1765.35
609.91	1806.31
610.10	1712.10
610.29	1865.70
610.48	1794.02
610.68	1796.07
610.87	1738.73
611.06	1697.77
611.25	1755.11
611.44	1826.79
611.63	1740.77
611.83	1853.41
612.02	1681.38
612.21	1794.02
612.40	1716.20
612.59	1701.86
612.79	1726.44
612.98	1863.65
613.17	1851.36
613.36	1724.39
613.55	1849.32
613.74	1740.77
613.93	1646.57
614.13	1722.34
614.32	1789.92
614.51	1789.92
614.70	1777.64
614.89	1712.10
615.08	1767.40
615.28	2080.74
615.47	1665.00
615.66	1791.97
615.85	1726.44
616.04	1888.23
616.23	1769.44
616.42	1697.77
616.62	1748.97
616.81	1742.82
617.00	1763.30
617.19	1748.97
617.38	1691.62
617.57	1818.60
617.76	1769.44
617.95	1814.50
618.15	1863.65
618.34	1814.50
618.53	1675.24
618.72	1742.82
618.91	1853.41
619.10	1804.26
619.29	1767.40
619.48	1718.25
619.68	1763.30
619.87	1716.20
620.06	1646.57
620.25	1800.16
620.44	1738.73
620.63	1718.25
620.82	1740.77
621.01	1748.97
621.20	1763.30
621.39	1783.78
621.59	1765.35
621.78	1757.16
621.97	1742.82
622.16	1755.11
622.35	1726.44
622.54	1787.88
622.73	1822.69
622.92	1634.28
623.11	1841.12
623.30	1712.10
623.49	1785.83
623.68	1757.16
623.88	1755.11
624.07	1759.21
624.26	1699.81
624.45	1759.21
624.64	1716.20
624.83	1708.01
625.02	1703.91
625.21	1767.40
625.40	1773.54
625.59	1810.40
625.78	1714.15
625.97	1865.70
626.16	1843.17
626.35	1734.63
626.54	1753.06
626.74	1722.34
626.93	1609.70
627.12	1794.02
627.31	1847.27
627.50	1791.97
627.69	1822.69
627.88	1701.86
628.07	1806.31
628.26	1699.81
628.45	1697.77
628.64	1697.77
628.83	1687.53
629.02	1624.04
629.21	1773.54
629.40	1730.53
629.59	1681.38
629.78	1667.05
629.97	1755.11
630.16	1671.14
630.35	1665.00
630.54	1693.67
630.73	1779.68
630.92	1732.58
631.11	1728.49
631.30	1724.39
631.49	1746.92
631.68	1794.02
631.87	1761.25
632.06	1730.53
632.25	1877.99
632.44	1718.25
632.63	1748.97
632.82	1710.05
633.01	1718.25
633.20	1771.49
633.39	1710.05
633.58	1638.38
633.77	1740.77
633.96	1705.96
634.15	1798.12
634.34	1765.35
634.53	1773.54
634.72	1751.01
634.91	1628.14
635.10	1753.06
635.29	1781.73
635.48	1703.91
635.67	1671.14
635.86	1658.85
636.05	1787.88
636.24	1781.73
636.43	1697.77
636.62	1759.21
636.81	1587.18
637.00	1705.96
637.19	1734.63
637.38	1724.39
637.57	1671.14
637.76	1689.57
637.95	1720.29
638.14	1740.77
638.33	1697.77
638.52	1693.67
638.71	1712.10
638.89	1603.56
639.08	1810.40
639.27	1853.41
639.46	1705.96
639.65	1804.26
639.84	1746.92
640.03	1810.40
640.22	1730.53
640.41	1791.97
640.60	1689.57
640.79	1734.63
640.98	1814.50
641.17	1744.87
641.36	1728.49
641.55	1755.11
641.74	1617.90
641.92	1683.43
642.11	1693.67
642.30	1732.58
642.49	1734.63
642.68	1699.81
642.87	1699.81
643.06	1705.96
643.25	1718.25
643.44	1751.01
643.63	1748.97
643.82	1783.78
644.00	1667.05
644.19	1734.63
644.38	1693.67
644.57	1730.53
644.76	1810.40
644.95	1681.38
645.14	1767.40
645.33	1650.66
645.52	1736.68
645.71	1734.63
645.89	1593.32
646.08	1665.00
646.27	1722.34
646.46	1845.22
646.65	1708.01
646.84	1755.11
647.03	1665.00
647.22	1746.92
647.40	1710.05
647.59	1685.48
647.78	1667.05
647.97	1603.56
648.16	1687.53
648.35	1787.88
648.54	1812.45
648.73	1693.67
648.91	1779.68
649.10	1751.01
649.29	1720.29
649.48	1718.25
649.67	1718.25
649.86	1703.91
650.05	1798.12
650.23	1812.45
650.42	1679.33
650.61	1808.36
650.80	1720.29
650.99	1867.75
651.18	1744.87
651.36	1763.30
651.55	1619.94
651.74	1834.98
651.93	1683.43
652.12	1783.78
652.31	1712.10
652.49	1701.86
652.68	1779.68
652.87	1787.88
653.06	1746.92
653.25	1759.21
653.44	1763.30
653.62	1832.93
653.81	1695.72
654.00	1773.54
654.19	1716.20
654.38	1816.55
654.56	1783.78
654.75	1658.85
654.94	1853.41
655.13	1708.01
655.32	1671.14
655.51	1742.82
655.69	1705.96
655.88	1748.97
656.07	1701.86
656.26	1759.21
656.45	1681.38
656.63	1677.29
656.82	1738.73
657.01	1785.83
657.20	1734.63
657.38	1765.35
657.57	1769.44
657.76	1632.23
657.95	1796.07
658.14	1720.29
658.32	1705.96
658.51	1583.08
658.70	1738.73
658.89	1806.31
659.08	1744.87
659.26	1787.88
659.45	1681.38
659.64	1857.51
659.83	1732.58
660.01	1849.32
660.20	1744.87
660.39	1806.31
660.58	1632.23
660.76	1800.16
660.95	1685.48
661.14	1720.29
661.33	1689.57
661.51	1738.73
661.70	1710.05
661.89	1736.68
662.08	1695.72
662.26	1761.25
662.45	1744.87
662.64	1841.12
662.83	1712.10
663.01	1720.29
663.20	1728.49
663.39	1771.49
663.58	1773.54
663.76	1732.58
663.95	1787.88
664.14	1662.95
664.32	1732.58
664.51	1624.04
664.70	1658.85
664.89	1763.30
665.07	1667.05
665.26	1779.68
665.45	1714.15
665.64	1761.25
665.82	1787.88
666.01	1798.12
666.20	1757.16
666.38	1787.88
666.57	1796.07
666.76	2277.34
666.95	4456.38
667.13	10432.35
667.32	15253.27
667.51	17786.61
667.69	18947.81
667.88	17524.47
668.07	12228.42
668.25	9455.47
668.44	7980.93
668.63	7395.22
668.81	6823.83
669.00	6131.62
669.19	5801.90
669.38	5158.83
669.56	4458.43
669.75	4018.11
669.94	3362.76
670.12	2906.07
670.31	2537.43
670.50	2242.53
670.68	1968.10
670.87	1898.47
671.06	1865.70
671.24	1708.01
671.43	1873.89
671.62	1826.79
671.80	1734.63
671.99	1816.55
672.18	1748.97
672.36	1740.77
672.55	1728.49
672.74	1671.14
672.92	1728.49
673.11	1785.83
673.29	1714.15
673.48	1820.64
673.67	1738.73
673.85	1714.15
674.04	1746.92
674.23	1669.09
674.41	1867.75
674.60	1646.57
674.79	1652.71
674.97	1689.57
675.16	1794.02
675.34	1822.69
675.53	1685.48
675.72	1783.78
675.90	1847.27
676.09	1757.16
676.28	1712.10
676.46	1603.56
676.65	1724.39
676.83	1712.10
677.02	1642.47
677.21	1785.83
677.39	1765.35
677.58	1603.56
677.77	1681.38
677.95	1740.77
678.14	1757.16
678.32	1736.68
678.51	1732.58
678.70	1775.59
678.88	1693.67
679.07	1683.43
679.25	1787.88
679.44	1718.25
679.63	1669.09
679.81	1742.82
680.00	1773.54
680.18	1779.68
680.37	1820.64
680.55	1701.86
680.74	1607.66
680.93	1685.48
681.11	1691.62
681.30	1736.68
681.48	1726.44
681.67	1656.81
681.85	1710.05
682.04	1703.91
682.23	1791.97
682.41	1728.49
682.60	1609.70
682.78	1787.88
682.97	1691.62
683.15	1755.11
683.34	1722.34
683.53	1816.55
683.71	1654.76
683.90	1720.29
684.08	1751.01
684.27	1705.96
684.45	1742.82
684.64	1744.87
684.82	1691.62
685.01	1691.62
685.19	1796.07
685.38	1796.07
685.57	1705.96
685.75	1650.66
685.94	1708.01
686.12	1746.92
686.31	1603.56
686.49	1888.23
686.68	1617.90
686.86	1761.25
687.05	1712.10
687.23	1875.94
687.42	1642.47
687.60	1691.62
687.79	1820.64
687.97	1781.73
688.16	1830.88
688.34	1783.78
688.53	1634.28
688.71	1761.25
688.90	1722.34
689.08	1628.14
689.27	1646.57
689.45	1806.31
689.64	1746.92
689.82	1767.40
690.01	1785.83
690.19	1736.68
690.38	1746.92
690.56	1779.68
690.75	1640.42
690.93	1677.29
691.12	1683.43
691.30	1654.76
691.49	1708.01
691.67	1726.44
691.86	1705.96
692.04	1716.20
692.23	1746.92
692.41	1662.95
692.60	1875.94
692.78	1708.01
692.97	1675.24
693.15	1697.77
693.34	1869.80
693.52	1742.82
693.71	1685.48
693.89	1675.24
694.08	1636.33
694.26	1884.13
694.44	1755.11
694.63	1800.16
694.81	1677.29
695.00	1738.73
695.18	1744.87
695.37	1832.93
695.55	1693.67
695.74	1734.63
695.92	1712.10
696.10	1757.16
696.29	1605.61
696.47	1671.14
696.66	1693.67
696.84	1615.85
697.03	1648.61
697.21	1804.26
697.40	2418.65
697.58	1820.64
697.76	1644.52
697.95	1708.01
698.13	1710.05
698.32	1689.57
698.50	1759.21
698.68	1738.73
698.87	1658.85
699.05	1787.88
699.24	1767.40
699.42	1685.48
699.61	1740.77
699.79	1673.19
699.97	1705.96
700.16	1630.18
700.34	1718.25
700.53	1757.16
700.71	1775.59
700.89	1736.68
701.08	1724.39
701.26	1683.43
701.45	2074.59
701.63	1644.52
701.81	1689.57
702.00	1699.81
702.18	1722.34
702.37	1683.43
702.55	1712.10
702.73	1669.09
702.92	1636.33
703.10	1841.12
703.28	1716.20
703.47	1654.76
703.65	1761.25
703.84	1791.97
704.02	1736.68
704.20	1798.12
704.39	1742.82
704.57	1728.49
704.75	1738.73
704.94	1746.92
705.12	1748.97
705.30	1826.79
705.49	2326.49
705.67	4421.56
705.86	9248.63
706.04	12480.32
706.22	14464.80
706.41	15181.59
706.59	13643.57
706.77	9310.07
706.96	7235.47
707.14	6498.20
707.32	5820.33
707.51	5625.77
707.69	4773.82
707.87	4143.04
708.06	3579.85
708.24	2961.36
708.42	2385.88
708.61	2238.43
708.79	1890.28
708.97	1828.84
709.16	1867.75
709.34	1863.65
709.52	1730.53
709.71	1685.48
709.89	1718.25
710.07	1650.66
710.26	1671.14
710.44	1736.68
710.62	1775.59
710.80	1755.11
710.99	1769.44
711.17	1787.88
711.35	1693.67
711.54	1724.39
711.72	1814.50
711.90	1755.11
712.09	1705.96
712.27	1697.77
712.45	1751.01
712.63	1683.43
712.82	1730.53
713.00	1720.29
713.18	1746.92
713.37	1740.77
713.55	1871.84
713.73	1724.39
713.91	1740.77
714.10	1648.61
714.28	1722.34
714.46	1718.25
714.65	1804.26
714.83	1757.16
715.01	1712.10
715.19	1703.91
715.38	1675.24
715.56	1755.11
715.74	1652.71
715.92	1628.14
716.11	1832.93
716.29	1611.75
716.47	1679.33
716.65	1720.29
716.84	1693.67
717.02	1724.39
717.20	1619.94
717.38	1701.86
717.57	1777.64
717.75	1681.38
717.93	1697.77
718.11	1720.29
718.30	1669.09
718.48	1738.73
718.66	1804.26
718.84	1718.25
719.03	1710.05
719.21	1675.24
719.39	1865.70
719.57	1730.53
719.75	1748.97
719.94	1650.66
720.12	1722.34
720.30	1697.77
720.48	1742.82
720.67	1665.00
720.85	1712.10
721.03	1675.24
721.21	1636.33
721.39	1830.88
721.58	1734.63
721.76	1730.53
721.94	1757.16
722.12	1746.92
722.30	1796.07
722.49	1648.61
722.67	1648.61
722.85	1671.14
723.03	1656.81
723.21	1730.53
723.40	1730.53
723.58	1650.66
723.76	1748.97
723.94	1787.88
724.12	1746.92
724.30	1787.88
724.49	1738.73
724.67	1638.38
724.85	1791.97
725.03	1656.81
725.21	1746.92
725.40	1796.07
725.58	1644.52
725.76	1761.25
725.94	1730.53
726.12	1671.14
726.30	1679.33
726.49	1710.05
726.67	1679.33
726.85	1726.44
727.03	1779.68
727.21	2207.71
727.39	2992.08
727.57	3770.31
727.76	4286.40
727.94	4474.81
728.12	4372.41
728.30	3672.01
728.48	2979.79
728.66	2803.67
728.84	2703.32
729.03	2310.11
729.21	2226.14
729.39	2041.82
729.57	1767.40
729.75	1820.64
729.93	1773.54
730.11	1714.15
730.30	1714.15
730.48	1732.58
730.66	1839.08
730.84	1771.49
731.02	1759.21
731.20	1671.14
731.38	1777.64
731.56	1681.38
731.74	1638.38
731.93	1693.67
732.11	1730.53
732.29	1705.96
732.47	1806.31
732.65	1751.01
732.83	1837.03
733.01	1701.86
733.19	1667.05
733.37	1746.92
733.56	1716.20
733.74	1673.19
733.92	1787.88
734.10	1677.29
734.28	1728.49
734.46	1613.80
734.64	1689.57
734.82	1656.81
735.00	1726.44
735.18	1716.20
735.36	1710.05
735.54	1697.77
735.73	1701.86
735.91	1761.25
736.09	1697.77
736.27	1769.44
736.45	1759.21
736.63	1583.08
736.81	1726.44
736.99	1765.35
737.17	1771.49
737.35	1699.81
737.53	1693.67
737.71	1679.33
737.89	1847.27
738.07	1613.80
738.25	1638.38
738.43	1574.89
738.61	1665.00
738.80	1685.48
738.98	1660.90
739.16	1710.05
739.34	1718.25
739.52	1814.50
739.70	1701.86
739.88	1849.32
740.06	1791.97
740.24	1607.66
740.42	1722.34
740.60	1585.13
740.78	1669.09
740.96	1665.00
741.14	1638.38
741.32	1763.30
741.50	1546.22
741.68	1857.51
741.86	1816.55
742.04	1683.43
742.22	1607.66
742.40	1708.01
742.58	1656.81
742.76	1673.19
742.94	1779.68
743.12	1660.90
743.30	1720.29
743.48	1787.88
743.66	1667.05
743.84	1722.34
744.02	1728.49
744.20	1675.24
744.38	1640.42
744.56	1695.72
744.74	1802.21
744.92	1769.44
745.10	1763.30
745.28	1691.62
745.46	1771.49
745.64	1771.49
745.82	1716.20
746.00	1777.64
746.18	1763.30
746.36	1656.81
746.54	1773.54
746.72	1681.38
746.90	1705.96
747.08	1826.79
747.26	1671.14
747.44	1732.58
747.62	1728.49
747.80	1732.58
747.98	1779.68
748.15	1693.67
748.33	1800.16
748.51	1624.04
748.69	1769.44
748.87	1724.39
749.05	1695.72
749.23	1755.11
749.41	1765.35
749.59	1748.97
749.77	1781.73
749.95	1781.73
750.13	1746.92
750.31	1816.55
750.49	1665.00
750.67	1748.97
750.85	1826.79
751.03	1718.25
751.20	1877.99
751.38	1689.57
751.56	1689.57
751.74	1697.77
751.92	1683.43
752.10	1683.43
752.28	1775.59
752.46	1687.53
752.64	1734.63
752.82	1705.96
753.00	1800.16
753.18	1708.01
753.35	1683.43
753.53	1701.86
753.71	1701.86
753.89	1728.49
754.07	1771.49
754.25	1724.39
754.43	1722.34
754.61	1652.71
754.79	1746.92
754.97	1736.68
755.14	1779.68
755.32	1665.00
755.50	1802.21
755.68	1634.28
755.86	1673.19
756.04	1675.24
756.22	1617.90
756.40	1755.11
756.57	1820.64
756.75	1710.05
756.93	1722.34
757.11	1759.21
757.29	1609.70
757.47	1669.09
757.65	1656.81
757.82	1558.50
758.00	1716.20
758.18	1644.52
758.36	1617.90
758.54	1839.08
758.72	1611.75
758.90	1757.16
759.07	1734.63
759.25	1673.19
759.43	1785.83
759.61	1626.09
759.79	2260.96
759.97	1755.11
760.15	1714.15
760.32	1693.67
760.50	1767.40
760.68	1802.21
760.86	1665.00
761.04	1853.41
761.22	1753.06
761.39	1763.30
761.57	1708.01
761.75	1574.89
761.93	1763.30
762.11	1669.09
762.28	1693.67
762.46	1607.66
762.64	1701.86
762.82	1621.99
763.00	1691.62
763.18	1697.77
763.35	1644.52
763.53	1740.77
763.71	1685.48
763.89	1693.67
764.07	1701.86
764.24	1751.01
764.42	1730.53
764.60	1660.90
764.78	1669.09
764.96	1736.68
765.13	1763.30
765.31	1738.73
765.49	1730.53
765.67	1740.77
765.84	1671.14
766.02	1677.29
766.20	1640.42
766.38	1710.05
766.56	1718.25
766.73	1701.86
766.91	1710.05
767.09	1656.81
767.27	1693.67
767.44	1679.33
767.62	1771.49
767.80	1773.54
767.98	1646.57
768.15	1738.73
768.33	1753.06
768.51	1755.11
768.69	1730.53
768.87	1751.01
769.04	1703.91
769.22	1748.97
769.40	1787.88
769.58	1877.99
769.75	1677.29
769.93	1855.46
770.11	1683.43
770.28	1701.86
770.46	1761.25
770.64	1791.97
770.82	1660.90
770.99	1634.28
771.17	1804.26
771.35	1634.28
771.53	1681.38
771.70	1789.92
771.88	1662.95
772.06	1742.82
772.23	1665.00
772.41	1771.49
772.59	1685.48
772.77	1624.04
772.94	1691.62
773.12	1802.21
773.30	1714.15
773.47	1740.77
773.65	1685.48
773.83	1806.31
774.01	1740.77
774.18	1632.23
774.36	1753.06
774.54	1587.18
774.71	1751.01
774.89	1669.09
775.07	1673.19
775.24	1650.66
775.42	1634.28
775.60	1763.30
775.78	1644.52
775.95	1665.00
776.13	1634.28
776.31	1607.66
776.48	1648.61
776.66	1779.68
776.84	1691.62
777.01	1695.72
777.19	1697.77
777.37	1671.14
777.54	1681.38
777.72	1882.08
777.90	1736.68
778.07	1738.73
778.25	1873.89
778.43	1708.01
778.60	1630.18
778.78	1679.33
778.96	1826.79
779.13	1656.81
779.31	1828.84
779.49	1730.53
779.66	1708.01
779.84	1726.44
780.01	1806.31
780.19	1665.00
780.37	1816.55
780.54	1828.84
780.72	1701.86
780.90	1775.59
781.07	1691.62
781.25	1644.52
781.43	1738.73
781.60	1673.19
781.78	1757.16
781.95	1718.25
782.13	1744.87
782.31	1703.91
782.48	1646.57
782.66	1771.49
782.83	1779.68
783.01	1730.53
783.19	1714.15
783.36	1765.35
783.54	1648.61
783.72	1843.17
783.89	1679.33
784.07	1667.05
784.24	1800.16
784.42	1755.11
784.60	1763.30
784.77	1744.87
784.95	1628.14
785.12	1708.01
785.30	1683.43
785.47	1636.33
785.65	1597.42
785.83	1708.01
786.00	1705.96
786.18	1736.68
786.35	1566.70
786.53	1687.53
786.71	1740.77
786.88	1642.47
787.06	1669.09
787.23	1716.20
787.41	1562.60
787.58	1724.39
787.76	1630.18
787.94	1820.64
788.11	1806.31
788.29	1591.27
788.46	1624.04
788.64	1636.33
788.81	1648.61
788.99	1656.81
789.16	1632.23
789.34	1675.24
789.52	1691.62
789.69	1691.62
789.87	1677.29
790.04	1716.20
790.22	1683.43
790.39	1820.64
790.57	1636.33
790.74	1701.86
790.92	1761.25
791.09	1597.42
791.27	1798.12
791.44	1773.54
791.62	1673.19
791.79	1886.18
791.97	1734.63
792.15	1892.32
792.32	1730.53
792.50	1789.92
792.67	1857.51
792.85	1757.16
793.02	1705.96
793.20	1673.19
793.37	1665.00
793.55	1681.38
793.72	1603.56
793.90	1718.25
794.07	1644.52
794.25	1660.90
794.42	1677.29
794.60	1720.29
794.77	1791.97
794.95	1712.10
795.12	1839.08
795.30	1753.06
795.47	1626.09
795.65	1789.92
795.82	1789.92
796.00	1675.24
796.17	1646.57
796.34	1722.34
796.52	1791.97
796.69	1724.39
796.87	1759.21
797.04	1718.25
797.22	1730.53
797.39	1671.14
797.57	1705.96
797.74	1740.77
797.92	1718.25
798.09	1603.56
798.27	1751.01
798.44	1802.21
798.62	1630.18
798.79	1755.11
798.96	1736.68
799.14	1691.62
799.31	1843.17
799.49	1644.52
799.66	1714.15
799.84	1710.05
800.01	1658.85
800.19	1761.25
800.36	1605.61
800.53	1699.81
800.71	1759.21
800.88	1794.02
801.06	1703.91
801.23	1650.66
801.41	1695.72
801.58	1681.38
801.75	1646.57
801.93	1732.58
802.10	1714.15
802.28	1685.48
802.45	1617.90
802.63	1744.87
802.80	1783.78
802.97	1646.57
803.15	1662.95
803.32	1654.76
803.50	1691.62
803.67	1652.71
803.84	1632.23
804.02	1740.77
804.19	1669.09
804.37	1646.57
804.54	1628.14
804.71	1763.30
804.89	1724.39
805.06	1724.39
805.24	1675.24
805.41	1660.90
805.58	1660.90
805.76	1869.80
805.93	1708.01
806.10	1763.30
806.28	1748.97
806.45	1787.88
806.63	1662.95
806.80	1751.01
806.97	1751.01
807.15	1701.86
807.32	1751.01
807.49	1714.15
807.67	1695.72
807.84	1761.25
808.01	1656.81
808.19	1855.46
808.36	1834.98
808.54	1703.91
808.71	1636.33
808.88	1679.33
809.06	1665.00
809.23	1718.25
809.40	1638.38
809.58	1744.87
809.75	1695.72
809.92	1595.37
810.10	1865.70
810.27	1652.71
810.44	1820.64
810.62	1642.47
810.79	1640.42
810.96	1798.12
811.14	1624.04
811.31	1738.73
811.48	1703.91
811.66	1650.66
811.83	1753.06
812.00	1748.97
812.18	1726.44
812.35	1822.69
812.52	1615.85
812.69	1742.82
812.87	1679.33
813.04	1677.29
813.21	1738.73
813.39	1640.42
813.56	1660.90
813.73	1861.60
813.91	1560.55
814.08	1751.01
814.25	1683.43
814.42	1632.23
814.60	1669.09
814.77	1677.29
814.94	1736.68
815.12	1734.63
815.29	1757.16
815.46	1710.05
815.63	1660.90
815.81	1697.77
815.98	1775.59
816.15	1705.96
816.33	1785.83
816.50	1658.85
816.67	1687.53
816.84	1728.49
817.02	1681.38
817.19	1644.52
817.36	1712.10
817.53	1769.44
817.71	1619.94
817.88	1781.73
818.05	1710.05
818.22	1652.71
818.40	1804.26
818.57	1685.48
818.74	1763.30
818.91	1714.15
819.09	1697.77
819.26	1726.44
819.43	1669.09
819.60	1718.25
819.78	1777.64
819.95	1845.22
820.12	1640.42
820.29	1765.35
820.47	1771.49
820.64	1714.15
820.81	1640.42
820.98	1660.90
821.15	1722.34
821.33	1806.31
821.50	1613.80
821.67	1765.35
821.84	1667.05
822.02	1763.30
822.19	1681.38
822.36	1718.25
822.53	1611.75
822.70	1640.42
822.88	1669.09
823.05	1791.97
823.22	1669.09
823.39	1699.81
823.56	1634.28
823.74	1791.97
823.91	1712.10
824.08	1665.00
824.25	1683.43
824.42	1845.22
824.60	1683.43
824.77	1794.02
824.94	1648.61
825.11	1714.15
825.28	1607.66
825.45	1636.33
825.63	1787.88
825.80	1632.23
825.97	1734.63
826.14	1691.62
826.31	1652.71
826.48	1798.12
826.66	1654.76
826.83	1714.15
827.00	1728.49
827.17	1665.00
827.34	1667.05
827.51	1650.66
827.69	1673.19
827.86	1644.52
828.03	1722.34
828.20	1648.61
828.37	1712.10
828.54	1712.10
828.71	1701.86
828.89	1804.26
829.06	1742.82
829.23	1785.83
829.40	1732.58
829.57	1675.24
829.74	1718.25
829.91	1677.29
830.09	1712.10
830.26	1787.88
830.43	1775.59
830.60	1650.66
830.77	1730.53
830.94	1822.69
831.11	1728.49
831.28	1667.05
831.46	1705.96
831.63	1681.38
831.80	1757.16
831.97	1652.71
832.14	1621.99
832.31	1734.63
832.48	1804.26
832.65	1814.50
832.82	1734.63
832.99	1697.77
833.17	1675.24
833.34	1910.75
833.51	1830.88
833.68	1601.51
833.85	1744.87
834.02	1677.29
834.19	1638.38
834.36	1697.77
834.53	1632.23
834.70	1798.12
834.87	1738.73
835.04	1718.25
835.22	1691.62
835.39	1689.57
835.56	1662.95
835.73	1640.42
835.90	1783.78
836.07	1673.19
836.24	1722.34
836.41	1640.42
836.58	1587.18
836.75	1798.12
836.92	1806.31
837.09	1673.19
837.26	1796.07
837.43	1722.34
837.60	1740.77
837.77	1736.68
837.94	1742.82
838.12	1769.44
838.29	1742.82
838.46	1671.14
838.63	1529.83
838.80	1824.74
838.97	1746.92
839.14	1697.77
839.31	1726.44
839.48	1718.25
839.65	1759.21
839.82	1787.88
839.99	1693.67
840.16	1724.39
840.33	1665.00
840.50	1701.86
840.67	1665.00
840.84	1609.70
841.01	1712.10
841.18	1673.19
841.35	1728.49
841.52	1814.50
841.69	1851.36
841.86	1816.55
842.03	1714.15
842.20	1730.53
842.37	1710.05
842.54	1738.73
842.71	1701.86
842.88	1634.28
843.05	1716.20
843.22	1738.73
843.39	1734.63
843.56	1636.33
843.73	1662.95
843.90	1687.53
844.07	1773.54
844.24	1730.53
844.41	1730.53
844.58	1761.25
844.75	1720.29
844.92	1773.54
845.09	1677.29
845.26	1697.77
845.43	1736.68
845.60	1728.49
845.77	1800.16
845.94	1755.11
846.10	1777.64
846.27	1683.43
846.44	1732.58
846.61	1628.14
846.78	1767.40
846.95	1734.63
847.12	1677.29
847.29	1679.33
847.46	1652.71
847.63	1826.79
847.80	1636.33
847.97	1697.77
848.14	1824.74
848.31	1736.68
848.48	1708.01
848.65	1732.58
848.82	1675.24
848.98	1890.28
849.15	1757.16
849.32	1859.56
849.49	1730.53
849.66	1626.09
849.83	1728.49
850.00	1669.09
850.17	1734.63
850.34	1701.86
850.51	1644.52
850.68	1646.57
850.85	1771.49
851.01	1726.44
851.18	1734.63
851.35	1761.25
851.52	1734.63
851.69	1783.78
851.86	1611.75
852.03	1648.61
852.20	1732.58
852.37	1669.09
852.53	1628.14
852.70	1763.30
852.87	1806.31
853.04	1763.30
853.21	1660.90
853.38	1773.54
853.55	1761.25
853.72	1783.78
853.89	1693.67
854.05	1757.16
854.22	1687.53
854.39	1673.19
854.56	1767.40
854.73	1773.54
854.90	1615.85
855.07	1681.38
855.23	1658.85
855.40	1673.19
855.57	1701.86
855.74	1621.99
855.91	1861.60
856.08	1755.11
856.25	1675.24
856.41	1630.18
856.58	1726.44
856.75	1665.00
856.92	1714.15
857.09	1724.39
857.26	1675.24
857.42	1697.77
857.59	1783.78
857.76	1644.52
857.93	1695.72
858.10	1724.39
858.27	1634.28
858.43	1718.25
858.60	1644.52
858.77	1685.48
858.94	1665.00
859.11	1794.02
859.27	1718.25
859.44	1726.44
859.61	1837.03
859.78	1708.01
859.95	1701.86
860.12	1650.66
860.28	1708.01
860.45	1775.59
860.62	1589.22
860.79	1775.59
860.95	1654.76
861.12	1714.15
861.29	1716.20
861.46	1671.14
861.63	1703.91
861.79	1746.92
861.96	1669.09
862.13	1681.38
862.30	1820.64
862.47	1634.28
862.63	1656.81
862.80	1777.64
862.97	1738.73
863.14	1697.77
863.30	1765.35
863.47	1685.48
863.64	1806.31
863.81	1675.24
863.97	1693.67
864.14	1716.20
864.31	1685.48
864.48	1726.44
864.65	1722.34
864.81	1810.40
864.98	1685.48
865.15	1738.73
865.32	1656.81
865.48	1783.78
865.65	1818.60
865.82	1779.68
865.98	1730.53
866.15	1808.36
866.32	1679.33
866.49	1771.49
866.65	1812.45
866.82	1718.25
866.99	1667.05
867.16	1736.68
867.32	1701.86
867.49	1656.81
867.66	1744.87
867.83	1687.53
867.99	1718.25
868.16	1771.49
868.33	1652.71
868.49	1775.59
868.66	1693.67
868.83	1757.16
868.99	1755.11
869.16	1714.15
869.33	1763.30
869.50	1814.50
869.66	1740.77
869.83	1718.25
870.00	1632.23
870.16	1773.54
870.33	1720.29
870.50	1738.73
870.66	1716.20
870.83	1863.65
871.00	1728.49
871.17	1699.81
871.33	1751.01
871.50	1669.09
871.67	1703.91
871.83	1691.62
872.00	1824.74
872.17	1675.24
872.33	1808.36
872.50	1722.34
872.67	1683.43
872.83	1677.29
873.00	1720.29
873.17	1691.62
873.33	1763.30
873.50	1728.49
873.67	1675.24
873.83	1607.66
874.00	1701.86
874.16	1748.97
874.33	1683.43
874.50	1652.71
874.66	1738.73
874.83	1701.86
875.00	1785.83
875.16	1808.36
875.33	1779.68
875.50	1667.05
875.66	1667.05
875.83	1763.30
875.99	1767.40
876.16	1724.39
876.33	1716.20
876.49	1691.62
876.66	1755.11
876.83	1699.81
876.99	1583.08
877.16	1789.92
877.32	1738.73
877.49	1681.38
877.66	1746.92
877.82	1800.16
877.99	1665.00
878.15	1705.96
878.32	1783.78
878.49	1777.64
878.65	1648.61
878.82	1847.27
878.98	1673.19
879.15	1714.15
879.32	1765.35
879.48	1763.30
879.65	1728.49
879.81	1693.67
879.98	1783.78
880.15	1597.42
880.31	1759.21
880.48	1640.42
880.64	1816.55
880.81	1705.96
880.97	1800.16
881.14	1777.64
881.31	1636.33
881.47	1847.27
881.64	1705.96
881.80	1570.79
881.97	1708.01
882.13	1740.77
882.30	1689.57
882.47	1687.53
882.63	1665.00
882.80	1703.91
882.96	1671.14
883.13	1751.01
883.29	1695.72
883.46	1740.77
883.62	1746.92
883.79	1695.72
883.95	1742.82
884.12	1669.09
884.29	1742.82
884.45	1738.73
884.62	1755.11
884.78	1640.42
884.95	1753.06
885.11	1648.61
885.28	1787.88
885.44	1681.38
885.61	1730.53
885.77	1828.84
885.94	1736.68
886.10	1724.39
886.27	1646.57
886.43	1826.79
886.60	1771.49
886.76	1597.42
886.93	1691.62
887.09	1779.68
887.26	1619.94
887.42	1712.10
887.59	1761.25
887.75	1853.41
887.92	1710.05
888.08	1802.21
888.25	1826.79
888.41	1751.01
888.58	1753.06
888.74	1628.14
888.91	1679.33
>>>>>End Processed Spectral Data<<<<<
