SpectraSuite Data File
++++++++++++++++++++++++++++++++++++
Date: Mon Jun 06 16:00:37 CEST 2016
User: root
Dark Spectrum Present: No
Reference Spectrum Present: No
Number of Sampled Component Spectra: 1
Spectrometers: USB4C02835
Integration Time (usec): 100000 (USB4C02835)
Spectra Averaged: 1 (USB4C02835)
Boxcar Smoothing: 0 (USB4C02835)
Correct for Electrical Dark: No (USB4C02835)
Strobe/Lamp Enabled: No (USB4C02835)
Correct for Detector Non-linearity: No (USB4C02835)
Correct for Stray Light: No (USB4C02835)
Number of Pixels in Processed Spectrum: 3648
>>>>>Begin Processed Spectral Data<<<<<
177.47	1445.87
177.69	1445.87
177.91	1445.87
178.13	1538.02
178.36	1511.40
178.58	1656.81
178.80	1675.24
179.02	1650.66
179.24	1669.09
179.46	1691.62
179.68	1724.39
179.90	1718.25
180.13	1697.77
180.35	1662.95
180.57	1660.90
180.79	1763.30
181.01	1691.62
181.23	1759.21
181.45	1771.49
181.67	1624.04
181.90	1712.10
182.12	1648.61
182.34	1617.90
182.56	1746.92
182.78	1767.40
183.00	1691.62
183.22	1662.95
183.44	1576.94
183.66	1884.13
183.89	1736.68
184.11	1753.06
184.33	1759.21
184.55	1773.54
184.77	1767.40
184.99	1818.60
185.21	1738.73
185.43	1859.56
185.65	1675.24
185.87	1710.05
186.10	1867.75
186.32	1884.13
186.54	1789.92
186.76	1765.35
186.98	1736.68
187.20	1667.05
187.42	1781.73
187.64	1740.77
187.86	1675.24
188.08	1740.77
188.30	1720.29
188.52	1734.63
188.75	1779.68
188.97	1787.88
189.19	1736.68
189.41	1699.81
189.63	1658.85
189.85	1691.62
190.07	1626.09
190.29	1665.00
190.51	1726.44
190.73	1632.23
190.95	1832.93
191.17	1783.78
191.39	1689.57
191.61	1732.58
191.84	1767.40
192.06	1775.59
192.28	1675.24
192.50	1896.42
192.72	1716.20
192.94	1570.79
193.16	1734.63
193.38	1734.63
193.60	1652.71
193.82	1705.96
194.04	1816.55
194.26	1796.07
194.48	1669.09
194.70	1701.86
194.92	1628.14
195.14	1742.82
195.36	1626.09
195.58	1640.42
195.80	1738.73
196.02	1689.57
196.24	1701.86
196.46	1755.11
196.69	1689.57
196.91	1890.28
197.13	1708.01
197.35	1701.86
197.57	1791.97
197.79	1742.82
198.01	1755.11
198.23	1724.39
198.45	1765.35
198.67	1644.52
198.89	1730.53
199.11	1755.11
199.33	1605.61
199.55	1568.74
199.77	1673.19
199.99	1853.41
200.21	1650.66
200.43	1732.58
200.65	1632.23
200.87	1538.02
201.09	1724.39
201.31	1685.48
201.53	1701.86
201.75	1751.01
201.97	1697.77
202.19	1728.49
202.41	1794.02
202.63	1765.35
202.85	1742.82
203.07	1695.72
203.29	1632.23
203.51	1603.56
203.73	1605.61
203.95	1912.80
204.17	1679.33
204.39	1720.29
204.61	1642.47
204.83	1685.48
205.05	1757.16
205.27	1746.92
205.49	1783.78
205.71	1769.44
205.93	1630.18
206.15	1697.77
206.37	1761.25
206.59	1671.14
206.81	1624.04
207.03	1660.90
207.25	1609.70
207.47	1800.16
207.69	1748.97
207.91	1753.06
208.13	1738.73
208.34	1699.81
208.56	1759.21
208.78	1765.35
209.00	1677.29
209.22	1730.53
209.44	1656.81
209.66	1646.57
209.88	1724.39
210.10	1732.58
210.32	1665.00
210.54	1822.69
210.76	1705.96
210.98	1761.25
211.20	1552.36
211.42	1791.97
211.64	1734.63
211.86	1699.81
212.08	1736.68
212.30	1738.73
212.52	1722.34
212.74	1787.88
212.96	1677.29
213.17	1767.40
213.39	1781.73
213.61	1822.69
213.83	1728.49
214.05	1607.66
214.27	1769.44
214.49	1576.94
214.71	1644.52
214.93	1751.01
215.15	1703.91
215.37	1783.78
215.59	1593.32
215.81	1699.81
216.03	1832.93
216.24	1742.82
216.46	1671.14
216.68	1681.38
216.90	1667.05
217.12	1765.35
217.34	1701.86
217.56	1701.86
217.78	1759.21
218.00	1761.25
218.22	1726.44
218.44	1781.73
218.66	1695.72
218.87	1824.74
219.09	1699.81
219.31	1755.11
219.53	1816.55
219.75	1697.77
219.97	1693.67
220.19	1714.15
220.41	1695.72
220.63	1824.74
220.85	1744.87
221.06	1761.25
221.28	1796.07
221.50	1703.91
221.72	1693.67
221.94	1740.77
222.16	1693.67
222.38	1732.58
222.60	1753.06
222.82	1736.68
223.03	1699.81
223.25	1613.80
223.47	1832.93
223.69	1736.68
223.91	1787.88
224.13	1695.72
224.35	1710.05
224.57	1779.68
224.78	1714.15
225.00	1624.04
225.22	1783.78
225.44	1695.72
225.66	1802.21
225.88	1783.78
226.10	1718.25
226.32	1777.64
226.53	1771.49
226.75	1673.19
226.97	1675.24
227.19	1824.74
227.41	1695.72
227.63	1718.25
227.85	1578.98
228.06	1751.01
228.28	1720.29
228.50	1771.49
228.72	1691.62
228.94	1771.49
229.16	1607.66
229.37	1671.14
229.59	1710.05
229.81	1791.97
230.03	1642.47
230.25	1701.86
230.47	1697.77
230.69	1650.66
230.90	1796.07
231.12	1712.10
231.34	1718.25
231.56	1783.78
231.78	1646.57
232.00	1705.96
232.21	1638.38
232.43	1726.44
232.65	1603.56
232.87	1695.72
233.09	1687.53
233.30	1732.58
233.52	1736.68
233.74	1628.14
233.96	1708.01
234.18	1791.97
234.40	1695.72
234.61	1992.67
234.83	1609.70
235.05	1685.48
235.27	1826.79
235.49	1791.97
235.70	1718.25
235.92	1767.40
236.14	1755.11
236.36	1945.57
236.58	1685.48
236.79	1691.62
237.01	1748.97
237.23	1742.82
237.45	1789.92
237.67	1589.22
237.88	1675.24
238.10	1802.21
238.32	1660.90
238.54	1710.05
238.76	1701.86
238.97	1648.61
239.19	1675.24
239.41	1796.07
239.63	1841.12
239.85	1671.14
240.06	1734.63
240.28	1742.82
240.50	1699.81
240.72	1658.85
240.93	1656.81
241.15	1779.68
241.37	1710.05
241.59	1789.92
241.81	1665.00
242.02	1705.96
242.24	1736.68
242.46	1738.73
242.68	1681.38
242.89	1746.92
243.11	1742.82
243.33	1771.49
243.55	1791.97
243.76	1667.05
243.98	1689.57
244.20	1796.07
244.42	1689.57
244.64	1763.30
244.85	1673.19
245.07	1634.28
245.29	1808.36
245.51	1722.34
245.72	1787.88
245.94	1791.97
246.16	1669.09
246.38	1736.68
246.59	1632.23
246.81	1636.33
247.03	1667.05
247.24	1628.14
247.46	1716.20
247.68	1781.73
247.90	1775.59
248.11	1701.86
248.33	1748.97
248.55	1714.15
248.77	1675.24
248.98	1724.39
249.20	1812.45
249.42	1722.34
249.64	1761.25
249.85	1701.86
250.07	1732.58
250.29	1730.53
250.50	1800.16
250.72	1619.94
250.94	1662.95
251.16	1841.12
251.37	1755.11
251.59	1751.01
251.81	1705.96
252.02	1718.25
252.24	1761.25
252.46	1849.32
252.68	1642.47
252.89	1660.90
253.11	1640.42
253.33	1771.49
253.54	1832.93
253.76	1648.61
253.98	1742.82
254.20	1701.86
254.41	1568.74
254.63	1734.63
254.85	1642.47
255.06	1687.53
255.28	1714.15
255.50	1685.48
255.71	1681.38
255.93	1667.05
256.15	1642.47
256.36	1744.87
256.58	1728.49
256.80	1761.25
257.02	1667.05
257.23	1621.99
257.45	1679.33
257.67	1763.30
257.88	1705.96
258.10	1755.11
258.32	1757.16
258.53	1701.86
258.75	1808.36
258.97	1722.34
259.18	1708.01
259.40	1673.19
259.62	1849.32
259.83	1798.12
260.05	1695.72
260.27	2056.16
260.48	1705.96
260.70	1687.53
260.92	1695.72
261.13	1769.44
261.35	1701.86
261.57	1816.55
261.78	1652.71
262.00	1667.05
262.22	1785.83
262.43	1720.29
262.65	1697.77
262.86	1751.01
263.08	1849.32
263.30	1755.11
263.51	1652.71
263.73	1662.95
263.95	1843.17
264.16	1634.28
264.38	1677.29
264.60	1722.34
264.81	1693.67
265.03	1818.60
265.25	1787.88
265.46	1708.01
265.68	1804.26
265.89	1728.49
266.11	1636.33
266.33	1787.88
266.54	1738.73
266.76	1748.97
266.98	1798.12
267.19	1806.31
267.41	1828.84
267.62	1753.06
267.84	1667.05
268.06	1722.34
268.27	1710.05
268.49	1767.40
268.70	1728.49
268.92	1796.07
269.14	1753.06
269.35	1687.53
269.57	1732.58
269.79	1787.88
270.00	1679.33
270.22	1757.16
270.43	1662.95
270.65	1687.53
270.87	1599.46
271.08	1855.46
271.30	1716.20
271.51	1701.86
271.73	1703.91
271.95	1757.16
272.16	1679.33
272.38	1746.92
272.59	1578.98
272.81	1755.11
273.02	1761.25
273.24	1624.04
273.46	1812.45
273.67	1648.61
273.89	1724.39
274.10	1642.47
274.32	1791.97
274.54	1761.25
274.75	1730.53
274.97	1615.85
275.18	1740.77
275.40	1726.44
275.61	1714.15
275.83	1642.47
276.05	1595.37
276.26	1691.62
276.48	1740.77
276.69	1685.48
276.91	1607.66
277.12	1763.30
277.34	1699.81
277.55	1773.54
277.77	1732.58
277.99	1658.85
278.20	1660.90
278.42	1667.05
278.63	1648.61
278.85	1681.38
279.06	1642.47
279.28	1779.68
279.49	1816.55
279.71	1728.49
279.93	1689.57
280.14	1710.05
280.36	1722.34
280.57	1718.25
280.79	1669.09
281.00	1656.81
281.22	1687.53
281.43	1767.40
281.65	1552.36
281.86	1640.42
282.08	1703.91
282.29	1873.89
282.51	1708.01
282.73	1652.71
282.94	1669.09
283.16	1726.44
283.37	1773.54
283.59	1701.86
283.80	1794.02
284.02	1673.19
284.23	1779.68
284.45	1660.90
284.66	1740.77
284.88	1626.09
285.09	1789.92
285.31	1832.93
285.52	1734.63
285.74	1665.00
285.95	1724.39
286.17	1722.34
286.38	1820.64
286.60	1708.01
286.81	1708.01
287.03	1624.04
287.24	1726.44
287.46	1777.64
287.67	1722.34
287.89	1880.04
288.10	1689.57
288.32	1746.92
288.53	1771.49
288.75	1654.76
288.96	1714.15
289.18	1652.71
289.39	1699.81
289.61	1646.57
289.82	1816.55
290.04	1820.64
290.25	1615.85
290.47	1732.58
290.68	1712.10
290.90	1851.36
291.11	1603.56
291.33	1804.26
291.54	1712.10
291.76	1683.43
291.97	1740.77
292.18	1804.26
292.40	1644.52
292.61	1648.61
292.83	1902.56
293.04	1724.39
293.26	1761.25
293.47	1746.92
293.69	1656.81
293.90	1675.24
294.12	1759.21
294.33	1716.20
294.55	1671.14
294.76	1693.67
294.97	1830.88
295.19	1822.69
295.40	1640.42
295.62	1763.30
295.83	1808.36
296.05	1697.77
296.26	1810.40
296.48	1746.92
296.69	1716.20
296.90	1726.44
297.12	1779.68
297.33	1806.31
297.55	1751.01
297.76	1740.77
297.98	1726.44
298.19	1703.91
298.41	1691.62
298.62	1660.90
298.83	1695.72
299.05	1699.81
299.26	1679.33
299.48	1744.87
299.69	1708.01
299.90	1732.58
300.12	1603.56
300.33	1701.86
300.55	1712.10
300.76	1718.25
300.98	1714.15
301.19	1744.87
301.40	1681.38
301.62	1751.01
301.83	1701.86
302.05	1728.49
302.26	1654.76
302.47	1716.20
302.69	1675.24
302.90	1724.39
303.12	1578.98
303.33	1783.78
303.54	1845.22
303.76	1703.91
303.97	1726.44
304.19	1781.73
304.40	1656.81
304.61	1779.68
304.83	1828.84
305.04	1738.73
305.26	1841.12
305.47	1746.92
305.68	1679.33
305.90	1628.14
306.11	1757.16
306.33	1722.34
306.54	1742.82
306.75	1773.54
306.97	1662.95
307.18	1671.14
307.39	1726.44
307.61	1765.35
307.82	1665.00
308.04	1685.48
308.25	1671.14
308.46	1726.44
308.68	1685.48
308.89	1751.01
309.10	1763.30
309.32	1710.05
309.53	1685.48
309.74	1779.68
309.96	1693.67
310.17	1730.53
310.39	1650.66
310.60	1716.20
310.81	1728.49
311.03	1726.44
311.24	1714.15
311.45	1769.44
311.67	1765.35
311.88	1730.53
312.09	1699.81
312.31	1675.24
312.52	1671.14
312.73	1712.10
312.95	1644.52
313.16	1665.00
313.37	1724.39
313.59	1722.34
313.80	1763.30
314.01	1765.35
314.23	1644.52
314.44	1736.68
314.65	1646.57
314.87	1697.77
315.08	1718.25
315.29	1732.58
315.51	1722.34
315.72	1640.42
315.93	1830.88
316.15	1800.16
316.36	1667.05
316.57	1701.86
316.79	1800.16
317.00	1722.34
317.21	1734.63
317.43	1646.57
317.64	1722.34
317.85	1669.09
318.07	1720.29
318.28	1685.48
318.49	1828.84
318.70	2000.87
318.92	1804.26
319.13	1865.70
319.34	1828.84
319.56	1748.97
319.77	1802.21
319.98	1796.07
320.20	1812.45
320.41	1755.11
320.62	1771.49
320.83	1646.57
321.05	1816.55
321.26	1724.39
321.47	1710.05
321.69	1753.06
321.90	1683.43
322.11	1656.81
322.32	1726.44
322.54	1796.07
322.75	1673.19
322.96	1857.51
323.18	1658.85
323.39	1607.66
323.60	1642.47
323.81	1746.92
324.03	1755.11
324.24	1638.38
324.45	1740.77
324.66	1673.19
324.88	1753.06
325.09	1748.97
325.30	1714.15
325.52	1779.68
325.73	1714.15
325.94	1689.57
326.15	1689.57
326.37	1732.58
326.58	1693.67
326.79	1820.64
327.00	1703.91
327.22	1697.77
327.43	1730.53
327.64	1665.00
327.85	1759.21
328.07	1708.01
328.28	1767.40
328.49	1759.21
328.70	1716.20
328.92	1683.43
329.13	1677.29
329.34	1773.54
329.55	1773.54
329.76	1818.60
329.98	1630.18
330.19	1820.64
330.40	1751.01
330.61	1740.77
330.83	1771.49
331.04	1656.81
331.25	1687.53
331.46	1765.35
331.68	1624.04
331.89	1759.21
332.10	1679.33
332.31	1617.90
332.52	1679.33
332.74	1775.59
332.95	1599.46
333.16	1658.85
333.37	1712.10
333.58	1734.63
333.80	1697.77
334.01	1550.31
334.22	1644.52
334.43	1744.87
334.64	1685.48
334.86	1652.71
335.07	1636.33
335.28	1751.01
335.49	1576.94
335.70	1759.21
335.92	1728.49
336.13	1834.98
336.34	1789.92
336.55	1714.15
336.76	1746.92
336.98	1617.90
337.19	1665.00
337.40	1794.02
337.61	1820.64
337.82	1742.82
338.04	1791.97
338.25	1544.17
338.46	1763.30
338.67	1632.23
338.88	1685.48
339.09	1638.38
339.31	1689.57
339.52	1630.18
339.73	1689.57
339.94	1732.58
340.15	1783.78
340.36	1632.23
340.58	1708.01
340.79	1656.81
341.00	1753.06
341.21	1703.91
341.42	1789.92
341.63	1648.61
341.85	1705.96
342.06	1708.01
342.27	1660.90
342.48	1746.92
342.69	1576.94
342.90	1732.58
343.12	1679.33
343.33	1675.24
343.54	1681.38
343.75	1851.36
343.96	1652.71
344.17	1710.05
344.38	1712.10
344.60	1640.42
344.81	1748.97
345.02	1701.86
345.23	1740.77
345.44	1806.31
345.65	1763.30
345.86	1787.88
346.07	1656.81
346.29	1693.67
346.50	1791.97
346.71	1730.53
346.92	1759.21
347.13	1832.93
347.34	1708.01
347.55	1685.48
347.76	1744.87
347.98	1677.29
348.19	1675.24
348.40	1794.02
348.61	1640.42
348.82	1806.31
349.03	1738.73
349.24	1722.34
349.45	1781.73
349.66	1681.38
349.88	1779.68
350.09	1685.48
350.30	1751.01
350.51	1796.07
350.72	1697.77
350.93	1695.72
351.14	1691.62
351.35	1724.39
351.56	1689.57
351.77	1710.05
351.99	1718.25
352.20	1796.07
352.41	1665.00
352.62	1605.61
352.83	1695.72
353.04	1703.91
353.25	1660.90
353.46	1740.77
353.67	1765.35
353.88	1648.61
354.09	1681.38
354.30	1755.11
354.52	1751.01
354.73	1640.42
354.94	1693.67
355.15	1742.82
355.36	1746.92
355.57	1701.86
355.78	1740.77
355.99	1681.38
356.20	1679.33
356.41	1779.68
356.62	1703.91
356.83	1705.96
357.04	1820.64
357.25	1560.55
357.46	1712.10
357.68	1638.38
357.89	1671.14
358.10	1683.43
358.31	1732.58
358.52	1716.20
358.73	1679.33
358.94	1665.00
359.15	1712.10
359.36	1771.49
359.57	1650.66
359.78	1728.49
359.99	1744.87
360.20	1609.70
360.41	1673.19
360.62	1740.77
360.83	1755.11
361.04	1681.38
361.25	1746.92
361.46	1828.84
361.67	1718.25
361.88	1804.26
362.09	1718.25
362.30	1677.29
362.51	1714.15
362.72	1714.15
362.93	1712.10
363.14	1796.07
363.35	1808.36
363.56	1605.61
363.78	1738.73
363.99	1808.36
364.20	1697.77
364.41	1742.82
364.62	1851.36
364.83	1716.20
365.04	1779.68
365.25	1734.63
365.46	1777.64
365.67	1677.29
365.88	1689.57
366.09	1685.48
366.30	1693.67
366.51	1665.00
366.72	1640.42
366.93	1751.01
367.14	1705.96
367.35	1832.93
367.56	1650.66
367.77	1787.88
367.98	1712.10
368.18	1730.53
368.39	1789.92
368.60	1679.33
368.81	1726.44
369.02	1744.87
369.23	1658.85
369.44	1599.46
369.65	1669.09
369.86	1761.25
370.07	1755.11
370.28	1708.01
370.49	1718.25
370.70	1748.97
370.91	1636.33
371.12	1669.09
371.33	1857.51
371.54	1755.11
371.75	1931.23
371.96	1644.52
372.17	1632.23
372.38	1630.18
372.59	1732.58
372.80	1648.61
373.01	1703.91
373.22	1699.81
373.43	1757.16
373.64	1640.42
373.85	1771.49
374.06	1755.11
374.26	1843.17
374.47	1701.86
374.68	1775.59
374.89	1734.63
375.10	1732.58
375.31	1806.31
375.52	1759.21
375.73	1732.58
375.94	1636.33
376.15	1804.26
376.36	1667.05
376.57	1628.14
376.78	1732.58
376.99	1669.09
377.20	1771.49
377.40	1687.53
377.61	1746.92
377.82	1681.38
378.03	1783.78
378.24	1714.15
378.45	1701.86
378.66	1710.05
378.87	1626.09
379.08	1566.70
379.29	1697.77
379.50	1720.29
379.71	1734.63
379.91	1816.55
380.12	1724.39
380.33	1626.09
380.54	1644.52
380.75	1710.05
380.96	1701.86
381.17	1667.05
381.38	1714.15
381.59	1826.79
381.80	1722.34
382.00	1820.64
382.21	1695.72
382.42	1794.02
382.63	1869.80
382.84	1763.30
383.05	1802.21
383.26	1886.18
383.47	1726.44
383.68	1638.38
383.88	1775.59
384.09	1718.25
384.30	1875.94
384.51	1794.02
384.72	1675.24
384.93	1652.71
385.14	1667.05
385.35	1812.45
385.55	1607.66
385.76	1832.93
385.97	1638.38
386.18	1769.44
386.39	1710.05
386.60	1755.11
386.81	1673.19
387.02	1718.25
387.22	1734.63
387.43	1818.60
387.64	1880.04
387.85	1845.22
388.06	2195.42
388.27	4194.24
388.48	6815.64
388.68	7956.36
388.89	9570.16
389.10	9635.69
389.31	8664.96
389.52	7487.37
389.73	6590.36
389.93	6104.99
390.14	5863.33
390.35	5220.27
390.56	4497.34
390.77	3739.59
390.98	3024.85
391.18	2559.96
391.39	2107.36
391.60	1810.40
391.81	1894.37
392.02	1665.00
392.23	1908.71
392.43	1751.01
392.64	1720.29
392.85	1685.48
393.06	1783.78
393.27	1746.92
393.47	1755.11
393.68	1751.01
393.89	1765.35
394.10	1791.97
394.31	1720.29
394.52	1679.33
394.72	1736.68
394.93	1734.63
395.14	1654.76
395.35	1779.68
395.56	1665.00
395.76	1800.16
395.97	1800.16
396.18	1882.08
396.39	1877.99
396.60	2031.58
396.80	1869.80
397.01	1877.99
397.22	1884.13
397.43	1839.08
397.64	1771.49
397.84	1746.92
398.05	1865.70
398.26	1810.40
398.47	1769.44
398.67	1812.45
398.88	1724.39
399.09	1728.49
399.30	1697.77
399.51	1785.83
399.71	1726.44
399.92	1740.77
400.13	1755.11
400.34	1701.86
400.54	1728.49
400.75	1783.78
400.96	1677.29
401.17	1820.64
401.37	1769.44
401.58	1732.58
401.79	1675.24
402.00	1791.97
402.21	2021.35
402.41	1972.19
402.62	1976.29
402.83	2009.06
403.04	1964.00
403.24	2045.92
403.45	1941.47
403.66	1910.75
403.87	1900.52
404.07	1880.04
404.28	1867.75
404.49	1886.18
404.70	1763.30
404.90	1781.73
405.11	1693.67
405.32	1771.49
405.52	1722.34
405.73	1740.77
405.94	1697.77
406.15	1701.86
406.35	1751.01
406.56	1718.25
406.77	1759.21
406.98	1765.35
407.18	1732.58
407.39	1834.98
407.60	1755.11
407.80	1779.68
408.01	1689.57
408.22	1761.25
408.43	1656.81
408.63	1669.09
408.84	1845.22
409.05	1730.53
409.25	1671.14
409.46	1703.91
409.67	1701.86
409.88	1644.52
410.08	1742.82
410.29	1699.81
410.50	1734.63
410.70	1656.81
410.91	1646.57
411.12	1777.64
411.32	1689.57
411.53	1732.58
411.74	1800.16
411.95	1757.16
412.15	1714.15
412.36	1783.78
412.57	1773.54
412.77	1798.12
412.98	1800.16
413.19	1691.62
413.39	1755.11
413.60	1748.97
413.81	1843.17
414.01	1689.57
414.22	1720.29
414.43	1773.54
414.63	1703.91
414.84	1761.25
415.05	1724.39
415.25	1656.81
415.46	1722.34
415.67	1656.81
415.87	1746.92
416.08	1665.00
416.29	1708.01
416.49	1699.81
416.70	1703.91
416.91	1687.53
417.11	1689.57
417.32	1703.91
417.53	1728.49
417.73	1738.73
417.94	1691.62
418.15	1759.21
418.35	1744.87
418.56	1718.25
418.77	1888.23
418.97	1720.29
419.18	1669.09
419.38	1626.09
419.59	1722.34
419.80	1812.45
420.00	1638.38
420.21	1681.38
420.42	1744.87
420.62	1757.16
420.83	1710.05
421.04	1724.39
421.24	1683.43
421.45	1755.11
421.65	1714.15
421.86	1730.53
422.07	1744.87
422.27	1658.85
422.48	1662.95
422.69	1638.38
422.89	1734.63
423.10	1701.86
423.30	1683.43
423.51	1714.15
423.72	1712.10
423.92	1787.88
424.13	1621.99
424.33	1779.68
424.54	1748.97
424.75	1746.92
424.95	1781.73
425.16	1785.83
425.36	1763.30
425.57	1810.40
425.78	1773.54
425.98	1771.49
426.19	1697.77
426.39	1658.85
426.60	1693.67
426.81	1722.34
427.01	1699.81
427.22	1640.42
427.42	1560.55
427.63	1679.33
427.83	1800.16
428.04	1865.70
428.25	1771.49
428.45	1804.26
428.66	1816.55
428.86	1734.63
429.07	1775.59
429.28	1730.53
429.48	1720.29
429.69	1689.57
429.89	1722.34
430.10	1648.61
430.30	1751.01
430.51	1757.16
430.71	1640.42
430.92	1691.62
431.13	1767.40
431.33	1736.68
431.54	1802.21
431.74	1736.68
431.95	1837.03
432.15	1738.73
432.36	1742.82
432.56	1804.26
432.77	1806.31
432.98	1822.69
433.18	1738.73
433.39	1660.90
433.59	1669.09
433.80	1818.60
434.00	1890.28
434.21	1703.91
434.41	1720.29
434.62	1910.75
434.82	1662.95
435.03	1667.05
435.23	1820.64
435.44	1615.85
435.64	1736.68
435.85	1710.05
436.06	1765.35
436.26	1873.89
436.47	1746.92
436.67	1685.48
436.88	1771.49
437.08	1734.63
437.29	1837.03
437.49	1769.44
437.70	1759.21
437.90	1773.54
438.11	1873.89
438.31	1802.21
438.52	1888.23
438.72	1861.60
438.93	1912.80
439.13	1816.55
439.34	1847.27
439.54	1728.49
439.75	1771.49
439.95	1734.63
440.16	1736.68
440.36	1726.44
440.57	1802.21
440.77	1734.63
440.98	1751.01
441.18	1787.88
441.39	1687.53
441.59	1687.53
441.80	1861.60
442.00	1775.59
442.21	1800.16
442.41	1677.29
442.62	1808.36
442.82	1669.09
443.02	1740.77
443.23	1771.49
443.43	1734.63
443.64	1920.99
443.84	1658.85
444.05	1822.69
444.25	1841.12
444.46	1665.00
444.66	1724.39
444.87	1845.22
445.07	1652.71
445.28	1740.77
445.48	1843.17
445.69	1728.49
445.89	1845.22
446.09	1787.88
446.30	2099.17
446.50	2645.98
446.71	3760.07
446.91	4296.64
447.12	4745.14
447.32	4734.90
447.53	4337.60
447.73	3897.28
447.93	3610.57
448.14	3313.61
448.34	3147.73
448.55	2918.36
448.75	2756.57
448.96	2701.27
449.16	2402.27
449.36	2260.96
449.57	2058.21
449.77	1927.14
449.98	1806.31
450.18	1834.98
450.39	1791.97
450.59	1828.84
450.79	1722.34
451.00	1767.40
451.20	1804.26
451.41	1759.21
451.61	1728.49
451.81	1744.87
452.02	1710.05
452.22	1718.25
452.43	1806.31
452.63	1662.95
452.84	1855.46
453.04	1763.30
453.24	1775.59
453.45	1705.96
453.65	1720.29
453.86	1816.55
454.06	1779.68
454.26	1705.96
454.47	1679.33
454.67	1832.93
454.87	1818.60
455.08	1732.58
455.28	1787.88
455.49	1716.20
455.69	1642.47
455.89	1861.60
456.10	1843.17
456.30	1734.63
456.51	1775.59
456.71	1781.73
456.91	1685.48
457.12	1689.57
457.32	1667.05
457.52	1660.90
457.73	1748.97
457.93	1775.59
458.14	1689.57
458.34	1621.99
458.54	1742.82
458.75	1722.34
458.95	1855.46
459.15	1732.58
459.36	1722.34
459.56	1769.44
459.76	1845.22
459.97	1722.34
460.17	1697.77
460.37	1783.78
460.58	1767.40
460.78	1757.16
460.99	1689.57
461.19	1753.06
461.39	1683.43
461.60	1732.58
461.80	1800.16
462.00	1683.43
462.21	1722.34
462.41	1634.28
462.61	1660.90
462.82	1710.05
463.02	1740.77
463.22	1794.02
463.43	1880.04
463.63	1742.82
463.83	1818.60
464.04	1722.34
464.24	1791.97
464.44	1712.10
464.64	1740.77
464.85	1794.02
465.05	1724.39
465.25	1708.01
465.46	1683.43
465.66	1828.84
465.86	1814.50
466.07	1718.25
466.27	1761.25
466.47	1746.92
466.68	1689.57
466.88	1832.93
467.08	1693.67
467.29	1810.40
467.49	1781.73
467.69	1722.34
467.89	1794.02
468.10	1710.05
468.30	1669.09
468.50	1849.32
468.71	1738.73
468.91	1617.90
469.11	1804.26
469.31	1685.48
469.52	1779.68
469.72	1865.70
469.92	1898.47
470.13	1712.10
470.33	1726.44
470.53	1816.55
470.73	2076.64
470.94	2314.20
471.14	2461.66
471.34	2504.67
471.54	2443.23
471.75	2250.72
471.95	2160.61
472.15	2090.98
472.36	2093.02
472.56	2013.15
472.76	2115.55
472.96	1970.15
473.17	1925.09
473.37	1955.81
473.57	1804.26
473.77	1804.26
473.98	1753.06
474.18	1695.72
474.38	1929.19
474.58	1705.96
474.79	1660.90
474.99	1773.54
475.19	1757.16
475.39	1675.24
475.60	1804.26
475.80	1714.15
476.00	1867.75
476.20	1779.68
476.41	1765.35
476.61	1798.12
476.81	1779.68
477.01	1710.05
477.21	1841.12
477.42	1820.64
477.62	1662.95
477.82	1816.55
478.02	1697.77
478.23	1763.30
478.43	1681.38
478.63	1630.18
478.83	1695.72
479.03	1708.01
479.24	1783.78
479.44	1834.98
479.64	1755.11
479.84	1591.27
480.04	1740.77
480.25	1812.45
480.45	1693.67
480.65	1740.77
480.85	1865.70
481.06	1701.86
481.26	1716.20
481.46	1730.53
481.66	1718.25
481.86	1757.16
482.06	1796.07
482.27	1730.53
482.47	1693.67
482.67	1708.01
482.87	1695.72
483.07	1832.93
483.28	1728.49
483.48	1736.68
483.68	1720.29
483.88	1650.66
484.08	1665.00
484.29	1681.38
484.49	1722.34
484.69	1667.05
484.89	1818.60
485.09	1826.79
485.29	1732.58
485.50	1689.57
485.70	1621.99
485.90	1800.16
486.10	1746.92
486.30	1820.64
486.50	1812.45
486.71	1816.55
486.91	1724.39
487.11	1773.54
487.31	1677.29
487.51	1748.97
487.71	1746.92
487.91	1634.28
488.12	1673.19
488.32	1656.81
488.52	1726.44
488.72	1654.76
488.92	1730.53
489.12	1787.88
489.32	1802.21
489.53	1789.92
489.73	1650.66
489.93	1777.64
490.13	1732.58
490.33	1658.85
490.53	1753.06
490.73	1806.31
490.94	1601.51
491.14	1796.07
491.34	1894.37
491.54	2174.94
491.74	2531.29
491.94	2895.83
492.14	2969.55
492.34	3043.28
492.54	2783.19
492.75	2367.45
492.95	2439.13
493.15	2394.08
493.35	2330.59
493.55	2308.06
493.75	2160.61
493.95	2123.74
494.15	2072.54
494.35	1912.80
494.56	1832.93
494.76	1763.30
494.96	1761.25
495.16	1742.82
495.36	1769.44
495.56	1693.67
495.76	1730.53
495.96	1703.91
496.16	1724.39
496.36	1882.08
496.56	1699.81
496.77	1785.83
496.97	1714.15
497.17	1798.12
497.37	1632.23
497.57	1822.69
497.77	1703.91
497.97	1734.63
498.17	1769.44
498.37	1640.42
498.57	1697.77
498.77	1710.05
498.97	1724.39
499.17	1845.22
499.38	1724.39
499.58	1771.49
499.78	1771.49
499.98	1890.28
500.18	1691.62
500.38	1728.49
500.58	1910.75
500.78	2574.30
500.98	4566.97
501.18	5752.74
501.38	6735.77
501.58	7124.88
501.78	6567.84
501.98	5398.45
502.18	4847.54
502.38	4374.46
502.58	4171.71
502.78	3719.11
502.98	3684.30
503.18	3317.71
503.38	3217.36
503.59	2801.62
503.79	2723.80
503.99	2467.80
504.19	2303.96
504.39	2226.14
504.59	2113.50
504.79	2093.02
504.99	2043.87
505.19	1931.23
505.39	1970.15
505.59	1927.14
505.79	1898.47
505.99	1851.36
506.19	1798.12
506.39	1904.61
506.59	1769.44
506.79	1773.54
506.99	1818.60
507.19	1744.87
507.39	1837.03
507.59	1632.23
507.79	1744.87
507.99	1734.63
508.19	1816.55
508.39	1734.63
508.59	1740.77
508.79	1871.84
508.99	1861.60
509.19	1652.71
509.39	1763.30
509.59	1658.85
509.79	1710.05
509.99	1740.77
510.19	1849.32
510.39	1779.68
510.59	1726.44
510.79	1742.82
510.99	1662.95
511.19	1755.11
511.39	1779.68
511.59	1791.97
511.79	1783.78
511.99	1730.53
512.19	1800.16
512.38	1708.01
512.58	1718.25
512.78	1777.64
512.98	1812.45
513.18	1877.99
513.38	1648.61
513.58	1765.35
513.78	1710.05
513.98	1689.57
514.18	1660.90
514.38	1675.24
514.58	1742.82
514.78	1753.06
514.98	1720.29
515.18	1798.12
515.38	1736.68
515.58	1865.70
515.78	1740.77
515.98	1705.96
516.18	1810.40
516.38	1765.35
516.57	1679.33
516.77	1718.25
516.97	1767.40
517.17	1710.05
517.37	1662.95
517.57	1796.07
517.77	1751.01
517.97	1634.28
518.17	1726.44
518.37	1705.96
518.57	1732.58
518.77	1765.35
518.97	1748.97
519.16	1759.21
519.36	1744.87
519.56	1746.92
519.76	1775.59
519.96	1775.59
520.16	1855.46
520.36	1705.96
520.56	1816.55
520.76	1673.19
520.96	1646.57
521.16	1779.68
521.35	1746.92
521.55	1816.55
521.75	1705.96
521.95	1732.58
522.15	1701.86
522.35	1665.00
522.55	1746.92
522.75	1804.26
522.95	1705.96
523.14	1724.39
523.34	1812.45
523.54	1777.64
523.74	1734.63
523.94	1769.44
524.14	1665.00
524.34	1808.36
524.54	1802.21
524.73	1734.63
524.93	1816.55
525.13	1759.21
525.33	1677.29
525.53	1900.52
525.73	1751.01
525.93	1775.59
526.13	1660.90
526.32	1673.19
526.52	1841.12
526.72	1787.88
526.92	1654.76
527.12	1718.25
527.32	1685.48
527.52	1748.97
527.71	1783.78
527.91	1759.21
528.11	1693.67
528.31	1648.61
528.51	1656.81
528.71	1771.49
528.90	1791.97
529.10	1824.74
529.30	1834.98
529.50	1683.43
529.70	1730.53
529.90	1679.33
530.09	1710.05
530.29	1675.24
530.49	1716.20
530.69	1824.74
530.89	1705.96
531.09	1822.69
531.28	1673.19
531.48	1759.21
531.68	1867.75
531.88	1753.06
532.08	1759.21
532.28	1701.86
532.47	1767.40
532.67	1742.82
532.87	1775.59
533.07	1681.38
533.27	1863.65
533.46	1785.83
533.66	1722.34
533.86	1783.78
534.06	1753.06
534.26	1757.16
534.45	1724.39
534.65	1753.06
534.85	1697.77
535.05	1675.24
535.25	1847.27
535.44	1701.86
535.64	1816.55
535.84	1705.96
536.04	1669.09
536.24	1693.67
536.43	1675.24
536.63	1759.21
536.83	1767.40
537.03	1714.15
537.22	1691.62
537.42	1630.18
537.62	1726.44
537.82	1726.44
538.02	1814.50
538.21	1742.82
538.41	1904.61
538.61	1857.51
538.81	1675.24
539.00	1802.21
539.20	1640.42
539.40	1644.52
539.60	1751.01
539.79	1787.88
539.99	1763.30
540.19	1681.38
540.39	1722.34
540.58	1822.69
540.78	1755.11
540.98	1828.84
541.18	1763.30
541.37	1781.73
541.57	1775.59
541.77	1781.73
541.97	1654.76
542.16	1732.58
542.36	1771.49
542.56	1703.91
542.76	1931.23
542.95	1802.21
543.15	1814.50
543.35	1767.40
543.54	1753.06
543.74	1691.62
543.94	1859.56
544.14	1644.52
544.33	1755.11
544.53	1726.44
544.73	1734.63
544.93	1687.53
545.12	1744.87
545.32	1665.00
545.52	1724.39
545.71	1695.72
545.91	1759.21
546.11	1732.58
546.30	1703.91
546.50	1777.64
546.70	1734.63
546.90	1755.11
547.09	1609.70
547.29	1691.62
547.49	1771.49
547.68	1789.92
547.88	1718.25
548.08	1796.07
548.27	2154.46
548.47	1701.86
548.67	1730.53
548.87	1812.45
549.06	1773.54
549.26	1814.50
549.46	1763.30
549.65	1755.11
549.85	1804.26
550.05	1781.73
550.24	1705.96
550.44	1800.16
550.64	1716.20
550.83	1763.30
551.03	1800.16
551.23	1884.13
551.42	1755.11
551.62	1701.86
551.82	1787.88
552.01	1714.15
552.21	1828.84
552.41	1703.91
552.60	1832.93
552.80	1712.10
553.00	1730.53
553.19	1820.64
553.39	1804.26
553.59	1677.29
553.78	1746.92
553.98	1712.10
554.17	1681.38
554.37	1765.35
554.57	1748.97
554.76	1673.19
554.96	1691.62
555.16	1800.16
555.35	1736.68
555.55	1767.40
555.75	1728.49
555.94	1853.41
556.14	1685.48
556.33	1740.77
556.53	1738.73
556.73	1691.62
556.92	1787.88
557.12	1837.03
557.32	1837.03
557.51	1857.51
557.71	1847.27
557.90	1867.75
558.10	1814.50
558.30	1710.05
558.49	1779.68
558.69	1718.25
558.88	1734.63
559.08	1746.92
559.28	1763.30
559.47	1738.73
559.67	1816.55
559.86	1798.12
560.06	1746.92
560.26	1767.40
560.45	1732.58
560.65	1701.86
560.84	1810.40
561.04	1742.82
561.24	1789.92
561.43	1732.58
561.63	1841.12
561.82	1759.21
562.02	1775.59
562.22	1767.40
562.41	1675.24
562.61	1705.96
562.80	1708.01
563.00	1890.28
563.19	1800.16
563.39	1757.16
563.59	1708.01
563.78	1660.90
563.98	1617.90
564.17	1751.01
564.37	1689.57
564.56	1683.43
564.76	1697.77
564.96	1845.22
565.15	1767.40
565.35	1808.36
565.54	1705.96
565.74	1787.88
565.93	1751.01
566.13	1732.58
566.32	1755.11
566.52	1816.55
566.71	1724.39
566.91	1845.22
567.11	1761.25
567.30	1740.77
567.50	1787.88
567.69	1779.68
567.89	1804.26
568.08	1714.15
568.28	1824.74
568.47	1808.36
568.67	1771.49
568.86	1748.97
569.06	1791.97
569.25	1712.10
569.45	1681.38
569.64	1744.87
569.84	1755.11
570.04	1724.39
570.23	1689.57
570.43	1794.02
570.62	1730.53
570.82	1816.55
571.01	1656.81
571.21	1691.62
571.40	1710.05
571.60	1812.45
571.79	1771.49
571.99	1787.88
572.18	1728.49
572.38	1800.16
572.57	1736.68
572.77	1808.36
572.96	1894.37
573.16	1701.86
573.35	1708.01
573.55	1804.26
573.74	1736.68
573.94	1689.57
574.13	1693.67
574.33	1843.17
574.52	1771.49
574.71	1767.40
574.91	1734.63
575.10	1658.85
575.30	1759.21
575.49	1728.49
575.69	1726.44
575.88	1753.06
576.08	1714.15
576.27	1791.97
576.47	1746.92
576.66	1781.73
576.86	1818.60
577.05	1808.36
577.25	1781.73
577.44	1861.60
577.64	1710.05
577.83	1841.12
578.02	1759.21
578.22	1736.68
578.41	1873.89
578.61	1773.54
578.80	1787.88
579.00	1755.11
579.19	1767.40
579.39	1781.73
579.58	1806.31
579.77	1763.30
579.97	1814.50
580.16	1791.97
580.36	1857.51
580.55	1765.35
580.75	1748.97
580.94	1765.35
581.13	1769.44
581.33	1877.99
581.52	1763.30
581.72	1904.61
581.91	1918.95
582.11	1767.40
582.30	1837.03
582.49	1761.25
582.69	1845.22
582.88	1779.68
583.08	1841.12
583.27	1822.69
583.47	1800.16
583.66	1652.71
583.85	1730.53
584.05	1703.91
584.24	1765.35
584.44	1800.16
584.63	1818.60
584.82	1837.03
585.02	1816.55
585.21	1867.75
585.41	1806.31
585.60	1773.54
585.79	1968.10
585.99	1914.85
586.18	1886.18
586.37	2217.95
586.57	3325.90
586.76	9914.22
586.96	24252.05
587.15	33498.62
587.34	40011.17
587.54	41731.46
587.73	36191.70
587.93	25865.85
588.12	21085.89
588.31	18011.89
588.51	16107.27
588.70	14933.79
588.89	13995.82
589.09	12588.86
589.28	10930.01
589.47	9168.76
589.67	7706.51
589.86	6469.53
590.06	4798.39
590.25	3817.41
590.44	3035.09
590.64	2600.92
590.83	2246.62
591.02	1978.34
591.22	1988.58
591.41	1855.46
591.60	1830.88
591.80	1861.60
591.99	1761.25
592.18	1755.11
592.38	1791.97
592.57	1779.68
592.76	1828.84
592.96	1736.68
593.15	1693.67
593.34	1830.88
593.54	1808.36
593.73	1839.08
593.92	1726.44
594.12	1800.16
594.31	1753.06
594.50	1744.87
594.70	1800.16
594.89	1886.18
595.08	1714.15
595.28	1820.64
595.47	1943.52
595.66	1751.01
595.86	1708.01
596.05	1732.58
596.24	1755.11
596.43	1806.31
596.63	1802.21
596.82	1726.44
597.01	1671.14
597.21	1839.08
597.40	1722.34
597.59	1789.92
597.79	1718.25
597.98	1834.98
598.17	1773.54
598.36	1751.01
598.56	1773.54
598.75	1703.91
598.94	1783.78
599.14	1714.15
599.33	1771.49
599.52	1804.26
599.71	1744.87
599.91	1900.52
600.10	1763.30
600.29	1724.39
600.48	1761.25
600.68	1781.73
600.87	1804.26
601.06	1748.97
601.26	1800.16
601.45	1734.63
601.64	1847.27
601.83	1820.64
602.03	1703.91
602.22	1640.42
602.41	1810.40
602.60	1955.81
602.80	1773.54
602.99	1722.34
603.18	1730.53
603.37	1755.11
603.57	1658.85
603.76	1845.22
603.95	1847.27
604.14	1810.40
604.34	1624.04
604.53	1738.73
604.72	1726.44
604.91	1804.26
605.10	1742.82
605.30	1685.48
605.49	1904.61
605.68	1804.26
605.87	1703.91
606.07	1687.53
606.26	1697.77
606.45	1796.07
606.64	1744.87
606.84	1722.34
607.03	1710.05
607.22	1699.81
607.41	1689.57
607.60	1761.25
607.80	1828.84
607.99	1742.82
608.18	1716.20
608.37	1695.72
608.56	1681.38
608.76	1763.30
608.95	1845.22
609.14	1667.05
609.33	1742.82
609.52	1798.12
609.72	1671.14
609.91	1806.31
610.10	1699.81
610.29	1773.54
610.48	1779.68
610.68	1777.64
610.87	1751.01
611.06	1798.12
611.25	1751.01
611.44	1871.84
611.63	1705.96
611.83	1884.13
612.02	1669.09
612.21	1763.30
612.40	1656.81
612.59	1734.63
612.79	1693.67
612.98	1779.68
613.17	1822.69
613.36	1734.63
613.55	1888.23
613.74	1748.97
613.93	1669.09
614.13	1740.77
614.32	1736.68
614.51	1677.29
614.70	1742.82
614.89	1744.87
615.08	1773.54
615.28	2078.69
615.47	1695.72
615.66	1730.53
615.85	1673.19
616.04	1884.13
616.23	1755.11
616.42	1624.04
616.62	1773.54
616.81	1800.16
617.00	1712.10
617.19	1705.96
617.38	1705.96
617.57	1781.73
617.76	1828.84
617.95	1779.68
618.15	1705.96
618.34	1826.79
618.53	1705.96
618.72	1740.77
618.91	1882.08
619.10	1779.68
619.29	1783.78
619.48	1617.90
619.68	1683.43
619.87	1808.36
620.06	1658.85
620.25	1771.49
620.44	1763.30
620.63	1681.38
620.82	1693.67
621.01	1703.91
621.20	1738.73
621.39	1808.36
621.59	1777.64
621.78	1714.15
621.97	1742.82
622.16	1828.84
622.35	1767.40
622.54	1791.97
622.73	1794.02
622.92	1665.00
623.11	1843.17
623.30	1740.77
623.49	1787.88
623.68	1701.86
623.88	1849.32
624.07	1660.90
624.26	1736.68
624.45	1726.44
624.64	1683.43
624.83	1751.01
625.02	1716.20
625.21	1673.19
625.40	1716.20
625.59	1783.78
625.78	1763.30
625.97	1781.73
626.16	1781.73
626.35	1671.14
626.54	1728.49
626.74	1751.01
626.93	1771.49
627.12	1746.92
627.31	1841.12
627.50	1748.97
627.69	1769.44
627.88	1681.38
628.07	1751.01
628.26	1738.73
628.45	1667.05
628.64	1710.05
628.83	1761.25
629.02	1552.36
629.21	1798.12
629.40	1722.34
629.59	1644.52
629.78	1763.30
629.97	1761.25
630.16	1714.15
630.35	1734.63
630.54	1787.88
630.73	1705.96
630.92	1738.73
631.11	1691.62
631.30	1759.21
631.49	1759.21
631.68	1775.59
631.87	1636.33
632.06	1611.75
632.25	1877.99
632.44	1730.53
632.63	1673.19
632.82	1697.77
633.01	1699.81
633.20	1744.87
633.39	1658.85
633.58	1587.18
633.77	1755.11
633.96	1685.48
634.15	1775.59
634.34	1771.49
634.53	1738.73
634.72	1652.71
634.91	1689.57
635.10	1767.40
635.29	1753.06
635.48	1800.16
635.67	1677.29
635.86	1714.15
636.05	1755.11
636.24	1738.73
636.43	1804.26
636.62	1808.36
636.81	1662.95
637.00	1734.63
637.19	1775.59
637.38	1755.11
637.57	1660.90
637.76	1671.14
637.95	1628.14
638.14	1683.43
638.33	1687.53
638.52	1710.05
638.71	1650.66
638.89	1681.38
639.08	1826.79
639.27	1730.53
639.46	1697.77
639.65	1734.63
639.84	1740.77
640.03	1757.16
640.22	1716.20
640.41	1812.45
640.60	1650.66
640.79	1720.29
640.98	1732.58
641.17	1781.73
641.36	1757.16
641.55	1839.08
641.74	1640.42
641.92	1630.18
642.11	1646.57
642.30	1722.34
642.49	1628.14
642.68	1718.25
642.87	1708.01
643.06	1708.01
643.25	1726.44
643.44	1720.29
643.63	1724.39
643.82	1742.82
644.00	1683.43
644.19	1677.29
644.38	1667.05
644.57	1720.29
644.76	1798.12
644.95	1701.86
645.14	1669.09
645.33	1714.15
645.52	1765.35
645.71	1642.47
645.89	1615.85
646.08	1720.29
646.27	1708.01
646.46	1806.31
646.65	1617.90
646.84	1714.15
647.03	1597.42
647.22	1832.93
647.40	1630.18
647.59	1730.53
647.78	1677.29
647.97	1619.94
648.16	1714.15
648.35	1822.69
648.54	1732.58
648.73	1728.49
648.91	1736.68
649.10	1751.01
649.29	1646.57
649.48	1714.15
649.67	1781.73
649.86	1693.67
650.05	1615.85
650.23	1781.73
650.42	1634.28
650.61	1769.44
650.80	1746.92
650.99	1845.22
651.18	1755.11
651.36	1804.26
651.55	1755.11
651.74	1751.01
651.93	1611.75
652.12	1683.43
652.31	1755.11
652.49	1630.18
652.68	1640.42
652.87	1755.11
653.06	1665.00
653.25	1798.12
653.44	1730.53
653.62	1822.69
653.81	1679.33
654.00	1751.01
654.19	1703.91
654.38	1832.93
654.56	1773.54
654.75	1677.29
654.94	1748.97
655.13	1771.49
655.32	1783.78
655.51	1691.62
655.69	1697.77
655.88	1775.59
656.07	1636.33
656.26	1757.16
656.45	1634.28
656.63	1691.62
656.82	1767.40
657.01	1863.65
657.20	1710.05
657.38	1882.08
657.57	1714.15
657.76	1695.72
657.95	1783.78
658.14	1744.87
658.32	1714.15
658.51	1626.09
658.70	1751.01
658.89	1761.25
659.08	1710.05
659.26	1798.12
659.45	1589.22
659.64	1755.11
659.83	1683.43
660.01	1943.52
660.20	1775.59
660.39	1820.64
660.58	1652.71
660.76	1808.36
660.95	1667.05
661.14	1681.38
661.33	1626.09
661.51	1730.53
661.70	1722.34
661.89	1763.30
662.08	1722.34
662.26	1671.14
662.45	1691.62
662.64	1785.83
662.83	1796.07
663.01	1615.85
663.20	1705.96
663.39	1820.64
663.58	1640.42
663.76	1777.64
663.95	1748.97
664.14	1632.23
664.32	1714.15
664.51	1724.39
664.70	1628.14
664.89	1705.96
665.07	1712.10
665.26	1757.16
665.45	1642.47
665.64	1775.59
665.82	1708.01
666.01	1746.92
666.20	1722.34
666.38	1767.40
666.57	1806.31
666.76	2189.28
666.95	4440.00
667.13	10444.64
667.32	15095.58
667.51	17534.71
667.69	19054.30
667.88	17534.71
668.07	12253.00
668.25	9465.71
668.44	8058.76
668.63	7212.95
668.81	6778.78
669.00	6135.71
669.19	5660.59
669.38	5064.63
669.56	4503.48
669.75	3948.48
669.94	3430.35
670.12	2828.24
670.31	2533.34
670.50	2250.72
670.68	2072.54
670.87	1877.99
671.06	1746.92
671.24	1877.99
671.43	1759.21
671.62	1697.77
671.80	1673.19
671.99	1742.82
672.18	1716.20
672.36	1796.07
672.55	1662.95
672.74	1746.92
672.92	1640.42
673.11	1761.25
673.29	1626.09
673.48	1808.36
673.67	1697.77
673.85	1847.27
674.04	1673.19
674.23	1798.12
674.41	1814.50
674.60	1673.19
674.79	1617.90
674.97	1693.67
675.16	1785.83
675.34	1777.64
675.53	1697.77
675.72	1765.35
675.90	1816.55
676.09	1773.54
676.28	1773.54
676.46	1705.96
676.65	1753.06
676.83	1689.57
677.02	1728.49
677.21	1761.25
677.39	1705.96
677.58	1701.86
677.77	1693.67
677.95	1669.09
678.14	1794.02
678.32	1728.49
678.51	1693.67
678.70	1828.84
678.88	1695.72
679.07	1757.16
679.25	1775.59
679.44	1763.30
679.63	1689.57
679.81	1724.39
680.00	1730.53
680.18	1769.44
680.37	1771.49
680.55	1714.15
680.74	1513.45
680.93	1652.71
681.11	1798.12
681.30	1703.91
681.48	1810.40
681.67	1740.77
681.85	1734.63
682.04	1644.52
682.23	1724.39
682.41	1712.10
682.60	1677.29
682.78	1697.77
682.97	1650.66
683.15	1828.84
683.34	1685.48
683.53	1757.16
683.71	1656.81
683.90	1771.49
684.08	1837.03
684.27	1648.61
684.45	1738.73
684.64	1775.59
684.82	1667.05
685.01	1695.72
685.19	1775.59
685.38	1755.11
685.57	1779.68
685.75	1658.85
685.94	1765.35
686.12	1791.97
686.31	1699.81
686.49	1753.06
686.68	1632.23
686.86	1701.86
687.05	1683.43
687.23	1783.78
687.42	1751.01
687.60	1656.81
687.79	1693.67
687.97	1769.44
688.16	1800.16
688.34	1759.21
688.53	1658.85
688.71	1724.39
688.90	1853.41
689.08	1691.62
689.27	1587.18
689.45	1751.01
689.64	1736.68
689.82	1705.96
690.01	1791.97
690.19	1726.44
690.38	1705.96
690.56	1832.93
690.75	1632.23
690.93	1650.66
691.12	1744.87
691.30	1822.69
691.49	1697.77
691.67	1720.29
691.86	1873.89
692.04	1708.01
692.23	1675.24
692.41	1681.38
692.60	1824.74
692.78	1761.25
692.97	1718.25
693.15	1751.01
693.34	1791.97
693.52	1757.16
693.71	1712.10
693.89	1654.76
694.08	1574.89
694.26	1789.92
694.44	1708.01
694.63	1783.78
694.81	1644.52
695.00	1650.66
695.18	1826.79
695.37	1877.99
695.55	1675.24
695.74	1683.43
695.92	1701.86
696.10	1738.73
696.29	1599.46
696.47	1642.47
696.66	1634.28
696.84	1697.77
697.03	1746.92
697.21	1912.80
697.40	2414.56
697.58	1804.26
697.76	1718.25
697.95	1628.14
698.13	1646.57
698.32	1689.57
698.50	1697.77
698.68	1753.06
698.87	1869.80
699.05	1800.16
699.24	1773.54
699.42	1699.81
699.61	1624.04
699.79	1724.39
699.97	1679.33
700.16	1632.23
700.34	1685.48
700.53	1681.38
700.71	1781.73
700.89	1843.17
701.08	1712.10
701.26	1730.53
701.45	2207.71
701.63	1730.53
701.81	1714.15
702.00	1665.00
702.18	1650.66
702.37	1669.09
702.55	1718.25
702.73	1658.85
702.92	1615.85
703.10	1726.44
703.28	1687.53
703.47	1636.33
703.65	1763.30
703.84	1775.59
704.02	1652.71
704.20	1816.55
704.39	1701.86
704.57	1708.01
704.75	1796.07
704.94	1775.59
705.12	1644.52
705.30	1794.02
705.49	2244.57
705.67	4483.00
705.86	9611.12
706.04	12449.60
706.22	14266.15
706.41	15197.98
706.59	13426.48
706.77	9512.81
706.96	7341.97
707.14	6705.05
707.32	5896.10
707.51	5349.29
707.69	4724.66
707.87	4261.82
708.06	3411.92
708.24	2975.70
708.42	2416.60
708.61	2279.39
708.79	1884.13
708.97	1853.41
709.16	1824.74
709.34	1851.36
709.52	1761.25
709.71	1636.33
709.89	1769.44
710.07	1675.24
710.26	1599.46
710.44	1724.39
710.62	1753.06
710.80	1746.92
710.99	1794.02
711.17	1761.25
711.35	1693.67
711.54	1669.09
711.72	1685.48
711.90	1751.01
712.09	1687.53
712.27	1630.18
712.45	1787.88
712.63	1718.25
712.82	1736.68
713.00	1693.67
713.18	1716.20
713.37	1697.77
713.55	1662.95
713.73	1761.25
713.91	1757.16
714.10	1679.33
714.28	1634.28
714.46	1705.96
714.65	1781.73
714.83	1689.57
715.01	1728.49
715.19	1732.58
715.38	1716.20
715.56	1779.68
715.74	1665.00
715.92	1585.13
716.11	1865.70
716.29	1665.00
716.47	1652.71
716.65	1703.91
716.84	1599.46
717.02	1804.26
717.20	1677.29
717.38	1699.81
717.57	1685.48
717.75	1738.73
717.93	1669.09
718.11	1775.59
718.30	1615.85
718.48	1753.06
718.66	1742.82
718.84	1771.49
719.03	1716.20
719.21	1708.01
719.39	1779.68
719.57	1742.82
719.75	1779.68
719.94	1742.82
720.12	1716.20
720.30	1718.25
720.48	1710.05
720.67	1628.14
720.85	1652.71
721.03	1710.05
721.21	1716.20
721.39	1832.93
721.58	1718.25
721.76	1728.49
721.94	1693.67
722.12	1714.15
722.30	1884.13
722.49	1667.05
722.67	1759.21
722.85	1777.64
723.03	1621.99
723.21	1677.29
723.40	1681.38
723.58	1751.01
723.76	1705.96
723.94	1763.30
724.12	1816.55
724.30	1798.12
724.49	1755.11
724.67	1662.95
724.85	1789.92
725.03	1640.42
725.21	1804.26
725.40	1726.44
725.58	1746.92
725.76	1765.35
725.94	1701.86
726.12	1701.86
726.30	1687.53
726.49	1724.39
726.67	1699.81
726.85	1732.58
727.03	1705.96
727.21	2179.04
727.39	2979.79
727.57	3788.74
727.76	4118.47
727.94	4474.81
728.12	4403.13
728.30	3655.62
728.48	3006.42
728.66	2711.51
728.84	2535.39
729.03	2291.68
729.21	2076.64
729.39	2056.16
729.57	1800.16
729.75	1787.88
729.93	1800.16
730.11	1718.25
730.30	1773.54
730.48	1714.15
730.66	1851.36
730.84	1814.50
731.02	1626.09
731.20	1685.48
731.38	1726.44
731.56	1656.81
731.74	1714.15
731.93	1716.20
732.11	1787.88
732.29	1714.15
732.47	1785.83
732.65	1759.21
732.83	1669.09
733.01	1755.11
733.19	1703.91
733.37	1705.96
733.56	1730.53
733.74	1710.05
733.92	1773.54
734.10	1705.96
734.28	1767.40
734.46	1605.61
734.64	1705.96
734.82	1665.00
735.00	1665.00
735.18	1689.57
735.36	1742.82
735.54	1748.97
735.73	1669.09
735.91	1732.58
736.09	1736.68
736.27	1751.01
736.45	1689.57
736.63	1687.53
736.81	1638.38
736.99	1787.88
737.17	1761.25
737.35	1669.09
737.53	1701.86
737.71	1708.01
737.89	1839.08
738.07	1683.43
738.25	1720.29
738.43	1607.66
738.61	1640.42
738.80	1712.10
738.98	1724.39
739.16	1648.61
739.34	1722.34
739.52	1757.16
739.70	1658.85
739.88	1779.68
740.06	1781.73
740.24	1593.32
740.42	1794.02
740.60	1693.67
740.78	1697.77
740.96	1611.75
741.14	1722.34
741.32	1722.34
741.50	1624.04
741.68	1863.65
741.86	1773.54
742.04	1677.29
742.22	1621.99
742.40	1699.81
742.58	1769.44
742.76	1603.56
742.94	1798.12
743.12	1581.03
743.30	1703.91
743.48	1724.39
743.66	1609.70
743.84	1794.02
744.02	1728.49
744.20	1738.73
744.38	1699.81
744.56	1642.47
744.74	1808.36
744.92	1738.73
745.10	1759.21
745.28	1806.31
745.46	1785.83
745.64	1724.39
745.82	1757.16
746.00	1728.49
746.18	1763.30
746.36	1697.77
746.54	1777.64
746.72	1726.44
746.90	1603.56
747.08	1759.21
747.26	1701.86
747.44	1740.77
747.62	1724.39
747.80	1660.90
747.98	1755.11
748.15	1738.73
748.33	1882.08
748.51	1685.48
748.69	1796.07
748.87	1683.43
749.05	1736.68
749.23	1687.53
749.41	1767.40
749.59	1630.18
749.77	1775.59
749.95	1673.19
750.13	1679.33
750.31	1765.35
750.49	1660.90
750.67	1814.50
750.85	1785.83
751.03	1748.97
751.20	1794.02
751.38	1648.61
751.56	1685.48
751.74	1685.48
751.92	1722.34
752.10	1738.73
752.28	1722.34
752.46	1611.75
752.64	1669.09
752.82	1714.15
753.00	1695.72
753.18	1665.00
753.35	1667.05
753.53	1667.05
753.71	1751.01
753.89	1736.68
754.07	1716.20
754.25	1744.87
754.43	1732.58
754.61	1648.61
754.79	1746.92
754.97	1671.14
755.14	1789.92
755.32	1689.57
755.50	1738.73
755.68	1714.15
755.86	1734.63
756.04	1619.94
756.22	1607.66
756.40	1785.83
756.57	1824.74
756.75	1656.81
756.93	1824.74
757.11	1734.63
757.29	1716.20
757.47	1712.10
757.65	1587.18
757.82	1648.61
758.00	1705.96
758.18	1689.57
758.36	1619.94
758.54	1804.26
758.72	1638.38
758.90	1771.49
759.07	1726.44
759.25	1615.85
759.43	1730.53
759.61	1697.77
759.79	2224.09
759.97	1695.72
760.15	1673.19
760.32	1740.77
760.50	1722.34
760.68	1763.30
760.86	1695.72
761.04	1765.35
761.22	1843.17
761.39	1779.68
761.57	1724.39
761.75	1691.62
761.93	1736.68
762.11	1656.81
762.28	1773.54
762.46	1673.19
762.64	1771.49
762.82	1693.67
763.00	1691.62
763.18	1857.51
763.35	1660.90
763.53	1693.67
763.71	1667.05
763.89	1738.73
764.07	1718.25
764.24	1734.63
764.42	1843.17
764.60	1724.39
764.78	1665.00
764.96	1841.12
765.13	1732.58
765.31	1720.29
765.49	1748.97
765.67	1669.09
765.84	1648.61
766.02	1697.77
766.20	1722.34
766.38	1695.72
766.56	1765.35
766.73	1742.82
766.91	1732.58
767.09	1761.25
767.27	1751.01
767.44	1665.00
767.62	1773.54
767.80	1656.81
767.98	1751.01
768.15	1665.00
768.33	1781.73
768.51	1785.83
768.69	1775.59
768.87	1822.69
769.04	1763.30
769.22	1900.52
769.40	1759.21
769.58	1925.09
769.75	1759.21
769.93	1865.70
770.11	1689.57
770.28	1638.38
770.46	1720.29
770.64	1742.82
770.82	1787.88
770.99	1626.09
771.17	1736.68
771.35	1656.81
771.53	1693.67
771.70	1611.75
771.88	1775.59
772.06	1708.01
772.23	1736.68
772.41	1724.39
772.59	1751.01
772.77	1613.80
772.94	1726.44
773.12	1767.40
773.30	1695.72
773.47	1730.53
773.65	1617.90
773.83	1765.35
774.01	1693.67
774.18	1554.41
774.36	1746.92
774.54	1644.52
774.71	1675.24
774.89	1605.61
775.07	1683.43
775.24	1689.57
775.42	1697.77
775.60	1837.03
775.78	1671.14
775.95	1558.50
776.13	1595.37
776.31	1601.51
776.48	1689.57
776.66	1740.77
776.84	1726.44
777.01	1796.07
777.19	1667.05
777.37	1746.92
777.54	1656.81
777.72	1785.83
777.90	1796.07
778.07	1667.05
778.25	1920.99
778.43	1775.59
778.60	1697.77
778.78	1765.35
778.96	1777.64
779.13	1722.34
779.31	1777.64
779.49	1716.20
779.66	1654.76
779.84	1693.67
780.01	1738.73
780.19	1638.38
780.37	1746.92
780.54	1687.53
780.72	1675.24
780.90	1746.92
781.07	1671.14
781.25	1683.43
781.43	1763.30
781.60	1667.05
781.78	1765.35
781.95	1708.01
782.13	1619.94
782.31	1744.87
782.48	1654.76
782.66	1712.10
782.83	1740.77
783.01	1746.92
783.19	1744.87
783.36	1734.63
783.54	1648.61
783.72	1806.31
783.89	1742.82
784.07	1720.29
784.24	1757.16
784.42	1802.21
784.60	1724.39
784.77	1771.49
784.95	1636.33
785.12	1677.29
785.30	1769.44
785.47	1644.52
785.65	1611.75
785.83	1665.00
786.00	1681.38
786.18	1738.73
786.35	1681.38
786.53	1662.95
786.71	1796.07
786.88	1787.88
787.06	1820.64
787.23	1621.99
787.41	1658.85
787.58	1755.11
787.76	1763.30
787.94	1724.39
788.11	1753.06
788.29	1658.85
788.46	1710.05
788.64	1599.46
788.81	1687.53
788.99	1640.42
789.16	1648.61
789.34	1671.14
789.52	1697.77
789.69	1624.04
789.87	1638.38
790.04	1667.05
790.22	1720.29
790.39	1773.54
790.57	1595.37
790.74	1615.85
790.92	1767.40
791.09	1621.99
791.27	1736.68
791.44	1767.40
791.62	1718.25
791.79	1787.88
791.97	1693.67
792.15	1808.36
792.32	1773.54
792.50	1726.44
792.67	1781.73
792.85	1812.45
793.02	1685.48
793.20	1681.38
793.37	1652.71
793.55	1738.73
793.72	1568.74
793.90	1789.92
794.07	1656.81
794.25	1689.57
794.42	1724.39
794.60	1646.57
794.77	1773.54
794.95	1746.92
795.12	1763.30
795.30	1644.52
795.47	1591.27
795.65	1830.88
795.82	1779.68
796.00	1728.49
796.17	1708.01
796.34	1693.67
796.52	1699.81
796.69	1834.98
796.87	1769.44
797.04	1755.11
797.22	1708.01
797.39	1703.91
797.57	1730.53
797.74	1712.10
797.92	1703.91
798.09	1665.00
798.27	1828.84
798.44	1701.86
798.62	1693.67
798.79	1753.06
798.96	1761.25
799.14	1703.91
799.31	1851.36
799.49	1724.39
799.66	1656.81
799.84	1701.86
800.01	1624.04
800.19	1777.64
800.36	1671.14
800.53	1777.64
800.71	1685.48
800.88	1781.73
801.06	1716.20
801.23	1705.96
801.41	1744.87
801.58	1695.72
801.75	1669.09
801.93	1789.92
802.10	1675.24
802.28	1703.91
802.45	1642.47
802.63	1771.49
802.80	1771.49
802.97	1722.34
803.15	1736.68
803.32	1667.05
803.50	1726.44
803.67	1705.96
803.84	1718.25
804.02	1689.57
804.19	1687.53
804.37	1650.66
804.54	1683.43
804.71	1679.33
804.89	1669.09
805.06	1783.78
805.24	1601.51
805.41	1609.70
805.58	1703.91
805.76	1841.12
805.93	1718.25
806.10	1763.30
806.28	1816.55
806.45	1767.40
806.63	1685.48
806.80	1652.71
806.97	1767.40
807.15	1726.44
807.32	1748.97
807.49	1695.72
807.67	1603.56
807.84	1679.33
808.01	1634.28
808.19	1804.26
808.36	1810.40
808.54	1601.51
808.71	1648.61
808.88	1730.53
809.06	1746.92
809.23	1769.44
809.40	1683.43
809.58	1820.64
809.75	1757.16
809.92	1705.96
810.10	1820.64
810.27	1710.05
810.44	1703.91
810.62	1822.69
810.79	1740.77
810.96	1671.14
811.14	1726.44
811.31	1787.88
811.48	1710.05
811.66	1722.34
811.83	1716.20
812.00	1701.86
812.18	1800.16
812.35	1781.73
812.52	1650.66
812.69	1687.53
812.87	1687.53
813.04	1697.77
813.21	1710.05
813.39	1677.29
813.56	1654.76
813.73	1804.26
813.91	1595.37
814.08	1695.72
814.25	1767.40
814.42	1599.46
814.60	1695.72
814.77	1685.48
814.94	1710.05
815.12	1732.58
815.29	1789.92
815.46	1744.87
815.63	1734.63
815.81	1726.44
815.98	1636.33
816.15	1675.24
816.33	1753.06
816.50	1708.01
816.67	1843.17
816.84	1660.90
817.02	1611.75
817.19	1753.06
817.36	1662.95
817.53	1804.26
817.71	1642.47
817.88	1755.11
818.05	1724.39
818.22	1734.63
818.40	1791.97
818.57	1603.56
818.74	1703.91
818.91	1660.90
819.09	1779.68
819.26	1828.84
819.43	1746.92
819.60	1650.66
819.78	1785.83
819.95	1849.32
820.12	1632.23
820.29	1779.68
820.47	1705.96
820.64	1699.81
820.81	1705.96
820.98	1718.25
821.15	1636.33
821.33	1722.34
821.50	1636.33
821.67	1824.74
821.84	1777.64
822.02	1732.58
822.19	1726.44
822.36	1732.58
822.53	1640.42
822.70	1683.43
822.88	1621.99
823.05	1726.44
823.22	1716.20
823.39	1748.97
823.56	1720.29
823.74	1806.31
823.91	1691.62
824.08	1667.05
824.25	1638.38
824.42	1724.39
824.60	1630.18
824.77	1732.58
824.94	1714.15
825.11	1732.58
825.28	1689.57
825.45	1687.53
825.63	1726.44
825.80	1619.94
825.97	1732.58
826.14	1703.91
826.31	1644.52
826.48	1791.97
826.66	1689.57
826.83	1658.85
827.00	1683.43
827.17	1667.05
827.34	1759.21
827.51	1638.38
827.69	1681.38
827.86	1624.04
828.03	1798.12
828.20	1701.86
828.37	1689.57
828.54	1742.82
828.71	1691.62
828.89	1822.69
829.06	1650.66
829.23	1777.64
829.40	1628.14
829.57	1771.49
829.74	1775.59
829.91	1689.57
830.09	1679.33
830.26	1687.53
830.43	1845.22
830.60	1662.95
830.77	1794.02
830.94	1804.26
831.11	1755.11
831.28	1636.33
831.46	1751.01
831.63	1716.20
831.80	1665.00
831.97	1705.96
832.14	1669.09
832.31	1763.30
832.48	1738.73
832.65	1730.53
832.82	1734.63
832.99	1738.73
833.17	1660.90
833.34	1777.64
833.51	1697.77
833.68	1605.61
833.85	1837.03
834.02	1673.19
834.19	1718.25
834.36	1656.81
834.53	1697.77
834.70	1769.44
834.87	1796.07
835.04	1701.86
835.22	1673.19
835.39	1652.71
835.56	1708.01
835.73	1763.30
835.90	1763.30
836.07	1703.91
836.24	1718.25
836.41	1689.57
836.58	1660.90
836.75	1771.49
836.92	1705.96
837.09	1738.73
837.26	1689.57
837.43	1720.29
837.60	1744.87
837.77	1705.96
837.94	1716.20
838.12	1736.68
838.29	1726.44
838.46	1624.04
838.63	1662.95
838.80	1791.97
838.97	1720.29
839.14	1816.55
839.31	1718.25
839.48	1724.39
839.65	1660.90
839.82	1685.48
839.99	1695.72
840.16	1656.81
840.33	1669.09
840.50	1679.33
840.67	1660.90
840.84	1607.66
841.01	1730.53
841.18	1652.71
841.35	1654.76
841.52	1710.05
841.69	1802.21
841.86	1744.87
842.03	1748.97
842.20	1726.44
842.37	1685.48
842.54	1718.25
842.71	1716.20
842.88	1648.61
843.05	1769.44
843.22	1673.19
843.39	1804.26
843.56	1734.63
843.73	1724.39
843.90	1683.43
844.07	1716.20
844.24	1738.73
844.41	1847.27
844.58	1667.05
844.75	1710.05
844.92	1726.44
845.09	1646.57
845.26	1765.35
845.43	1746.92
845.60	1687.53
845.77	1728.49
845.94	1730.53
846.10	1746.92
846.27	1587.18
846.44	1665.00
846.61	1640.42
846.78	1769.44
846.95	1798.12
847.12	1687.53
847.29	1724.39
847.46	1697.77
847.63	1759.21
847.80	1654.76
847.97	1738.73
848.14	1775.59
848.31	1646.57
848.48	1607.66
848.65	1791.97
848.82	1710.05
848.98	1855.46
849.15	1689.57
849.32	1779.68
849.49	1724.39
849.66	1705.96
849.83	1628.14
850.00	1656.81
850.17	1628.14
850.34	1730.53
850.51	1699.81
850.68	1632.23
850.85	1869.80
851.01	1701.86
851.18	1767.40
851.35	1708.01
851.52	1677.29
851.69	1822.69
851.86	1595.37
852.03	1708.01
852.20	1748.97
852.37	1751.01
852.53	1714.15
852.70	1687.53
852.87	1665.00
853.04	1656.81
853.21	1685.48
853.38	1699.81
853.55	1816.55
853.72	1816.55
853.89	1677.29
854.05	1642.47
854.22	1685.48
854.39	1689.57
854.56	1697.77
854.73	1755.11
854.90	1710.05
855.07	1681.38
855.23	1695.72
855.40	1734.63
855.57	1677.29
855.74	1589.22
855.91	1892.32
856.08	1613.80
856.25	1615.85
856.41	1621.99
856.58	1691.62
856.75	1712.10
856.92	1628.14
857.09	1828.84
857.26	1609.70
857.42	1744.87
857.59	1705.96
857.76	1628.14
857.93	1736.68
858.10	1751.01
858.27	1624.04
858.43	1689.57
858.60	1628.14
858.77	1593.32
858.94	1683.43
859.11	1777.64
859.27	1759.21
859.44	1671.14
859.61	1759.21
859.78	1820.64
859.95	1714.15
860.12	1714.15
860.28	1869.80
860.45	1820.64
860.62	1716.20
860.79	1755.11
860.95	1685.48
861.12	1675.24
861.29	1738.73
861.46	1574.89
861.63	1701.86
861.79	1705.96
861.96	1648.61
862.13	1695.72
862.30	1785.83
862.47	1607.66
862.63	1681.38
862.80	1834.98
862.97	1726.44
863.14	1773.54
863.30	1667.05
863.47	1607.66
863.64	1765.35
863.81	1726.44
863.97	1675.24
864.14	1724.39
864.31	1748.97
864.48	1660.90
864.65	1701.86
864.81	1759.21
864.98	1714.15
865.15	1781.73
865.32	1812.45
865.48	1759.21
865.65	1724.39
865.82	1621.99
865.98	1708.01
866.15	1722.34
866.32	1652.71
866.49	1609.70
866.65	1755.11
866.82	1662.95
866.99	1742.82
867.16	1652.71
867.32	1689.57
867.49	1730.53
867.66	1662.95
867.83	1746.92
867.99	1667.05
868.16	1679.33
868.33	1626.09
868.49	1763.30
868.66	1681.38
868.83	1798.12
868.99	1755.11
869.16	1755.11
869.33	1826.79
869.50	1763.30
869.66	1730.53
869.83	1621.99
870.00	1607.66
870.16	1697.77
870.33	1748.97
870.50	1708.01
870.66	1742.82
870.83	1781.73
871.00	1734.63
871.17	1751.01
871.33	1722.34
871.50	1722.34
871.67	1693.67
871.83	1714.15
872.00	1822.69
872.17	1732.58
872.33	1828.84
872.50	1767.40
872.67	1693.67
872.83	1671.14
873.00	1689.57
873.17	1695.72
873.33	1699.81
873.50	1808.36
873.67	1609.70
873.83	1621.99
874.00	1679.33
874.16	1759.21
874.33	1738.73
874.50	1699.81
874.66	1724.39
874.83	1675.24
875.00	1796.07
875.16	1746.92
875.33	1738.73
875.50	1591.27
875.66	1724.39
875.83	1732.58
875.99	1775.59
876.16	1736.68
876.33	1665.00
876.49	1693.67
876.66	1755.11
876.83	1783.78
876.99	1603.56
877.16	1681.38
877.32	1640.42
877.49	1683.43
877.66	1724.39
877.82	1894.37
877.99	1744.87
878.15	1753.06
878.32	1761.25
878.49	1732.58
878.65	1712.10
878.82	1695.72
878.98	1703.91
879.15	1804.26
879.32	1714.15
879.48	1693.67
879.65	1695.72
879.81	1673.19
879.98	1652.71
880.15	1738.73
880.31	1765.35
880.48	1656.81
880.64	1814.50
880.81	1769.44
880.97	1791.97
881.14	1775.59
881.31	1632.23
881.47	1742.82
881.64	1667.05
881.80	1613.80
881.97	1665.00
882.13	1775.59
882.30	1667.05
882.47	1691.62
882.63	1648.61
882.80	1673.19
882.96	1673.19
883.13	1759.21
883.29	1730.53
883.46	1710.05
883.62	1761.25
883.79	1695.72
883.95	1765.35
884.12	1708.01
884.29	1824.74
884.45	1642.47
884.62	1796.07
884.78	1560.55
884.95	1787.88
885.11	1646.57
885.28	1742.82
885.44	1736.68
885.61	1718.25
885.77	1771.49
885.94	1716.20
886.10	1716.20
886.27	1726.44
886.43	1810.40
886.60	1794.02
886.76	1695.72
886.93	1697.77
887.09	1753.06
887.26	1638.38
887.42	1718.25
887.59	1728.49
887.75	1935.33
887.92	1806.31
888.08	1757.16
888.25	1841.12
888.41	1775.59
888.58	1791.97
888.74	1714.15
888.91	1693.67
>>>>>End Processed Spectral Data<<<<<
