SpectraSuite Data File
++++++++++++++++++++++++++++++++++++
Date: Mon Jun 06 12:43:37 CEST 2016
User: root
Dark Spectrum Present: No
Reference Spectrum Present: No
Number of Sampled Component Spectra: 1
Spectrometers: USB4C02835
Integration Time (usec): 100000 (USB4C02835)
Spectra Averaged: 1 (USB4C02835)
Boxcar Smoothing: 0 (USB4C02835)
Correct for Electrical Dark: No (USB4C02835)
Strobe/Lamp Enabled: No (USB4C02835)
Correct for Detector Non-linearity: No (USB4C02835)
Correct for Stray Light: No (USB4C02835)
Number of Pixels in Processed Spectrum: 3648
>>>>>Begin Processed Spectral Data<<<<<
177.47	1419.24
177.69	1419.24
177.91	1419.24
178.13	1486.83
178.36	1464.30
178.58	1695.72
178.80	1693.67
179.02	1695.72
179.24	1689.57
179.46	1644.52
179.68	1718.25
179.90	1693.67
180.13	1767.40
180.35	1648.61
180.57	1718.25
180.79	1716.20
181.01	1751.01
181.23	1775.59
181.45	1730.53
181.67	1724.39
181.90	1738.73
182.12	1722.34
182.34	1626.09
182.56	1697.77
182.78	1726.44
183.00	1683.43
183.22	1767.40
183.44	1570.79
183.66	1847.27
183.89	1779.68
184.11	1736.68
184.33	1714.15
184.55	1757.16
184.77	1685.48
184.99	1796.07
185.21	1708.01
185.43	1753.06
185.65	1593.32
185.87	1656.81
186.10	1771.49
186.32	1812.45
186.54	1738.73
186.76	1724.39
186.98	1791.97
187.20	1652.71
187.42	1650.66
187.64	1710.05
187.86	1705.96
188.08	1734.63
188.30	1679.33
188.52	1759.21
188.75	1751.01
188.97	1798.12
189.19	1689.57
189.41	1673.19
189.63	1720.29
189.85	1652.71
190.07	1560.55
190.29	1591.27
190.51	1753.06
190.73	1626.09
190.95	1791.97
191.17	1677.29
191.39	1562.60
191.61	1708.01
191.84	1576.94
192.06	1665.00
192.28	1632.23
192.50	1802.21
192.72	1763.30
192.94	1681.38
193.16	1789.92
193.38	1720.29
193.60	1693.67
193.82	1656.81
194.04	1769.44
194.26	1710.05
194.48	1720.29
194.70	1699.81
194.92	1626.09
195.14	1748.97
195.36	1701.86
195.58	1822.69
195.80	1673.19
196.02	1685.48
196.24	1746.92
196.46	1740.77
196.69	1640.42
196.91	1839.08
197.13	1738.73
197.35	1652.71
197.57	1738.73
197.79	1759.21
198.01	1695.72
198.23	1732.58
198.45	1693.67
198.67	1617.90
198.89	1712.10
199.11	1650.66
199.33	1650.66
199.55	1515.50
199.77	1636.33
199.99	1761.25
200.21	1701.86
200.43	1697.77
200.65	1662.95
200.87	1568.74
201.09	1701.86
201.31	1732.58
201.53	1730.53
201.75	1648.61
201.97	1734.63
202.19	1693.67
202.41	1722.34
202.63	1849.32
202.85	1759.21
203.07	1667.05
203.29	1722.34
203.51	1675.24
203.73	1705.96
203.95	1890.28
204.17	1720.29
204.39	1714.15
204.61	1730.53
204.83	1746.92
205.05	1714.15
205.27	1732.58
205.49	1912.80
205.71	1679.33
205.93	1628.14
206.15	1695.72
206.37	1714.15
206.59	1685.48
206.81	1570.79
207.03	1632.23
207.25	1697.77
207.47	1751.01
207.69	1640.42
207.91	1753.06
208.13	1718.25
208.34	1705.96
208.56	1636.33
208.78	1699.81
209.00	1652.71
209.22	1628.14
209.44	1646.57
209.66	1687.53
209.88	1671.14
210.10	1681.38
210.32	1755.11
210.54	1763.30
210.76	1665.00
210.98	1783.78
211.20	1566.70
211.42	1724.39
211.64	1740.77
211.86	1673.19
212.08	1779.68
212.30	1728.49
212.52	1734.63
212.74	1746.92
212.96	1673.19
213.17	1748.97
213.39	1767.40
213.61	1695.72
213.83	1751.01
214.05	1605.61
214.27	1703.91
214.49	1613.80
214.71	1693.67
214.93	1781.73
215.15	1677.29
215.37	1687.53
215.59	1624.04
215.81	1673.19
216.03	1779.68
216.24	1722.34
216.46	1628.14
216.68	1697.77
216.90	1722.34
217.12	1675.24
217.34	1710.05
217.56	1728.49
217.78	1824.74
218.00	1726.44
218.22	1720.29
218.44	1701.86
218.66	1730.53
218.87	1734.63
219.09	1697.77
219.31	1722.34
219.53	1710.05
219.75	1660.90
219.97	1669.09
220.19	1703.91
220.41	1665.00
220.63	1779.68
220.85	1701.86
221.06	1679.33
221.28	1769.44
221.50	1701.86
221.72	1638.38
221.94	1703.91
222.16	1669.09
222.38	1720.29
222.60	1710.05
222.82	1636.33
223.03	1705.96
223.25	1626.09
223.47	1736.68
223.69	1853.41
223.91	1748.97
224.13	1630.18
224.35	1669.09
224.57	1714.15
224.78	1675.24
225.00	1714.15
225.22	1724.39
225.44	1697.77
225.66	1759.21
225.88	1697.77
226.10	1791.97
226.32	1708.01
226.53	1794.02
226.75	1671.14
226.97	1658.85
227.19	1679.33
227.41	1665.00
227.63	1703.91
227.85	1603.56
228.06	1654.76
228.28	1683.43
228.50	1761.25
228.72	1710.05
228.94	1595.37
229.16	1613.80
229.37	1624.04
229.59	1685.48
229.81	1730.53
230.03	1736.68
230.25	1599.46
230.47	1636.33
230.69	1617.90
230.90	1691.62
231.12	1613.80
231.34	1716.20
231.56	1759.21
231.78	1566.70
232.00	1669.09
232.21	1771.49
232.43	1609.70
232.65	1587.18
232.87	1759.21
233.09	1679.33
233.30	1669.09
233.52	1804.26
233.74	1689.57
233.96	1703.91
234.18	1710.05
234.40	1640.42
234.61	1849.32
234.83	1630.18
235.05	1652.71
235.27	1820.64
235.49	1822.69
235.70	1667.05
235.92	1810.40
236.14	1673.19
236.36	1890.28
236.58	1568.74
236.79	1740.77
237.01	1621.99
237.23	1689.57
237.45	1720.29
237.67	1695.72
237.88	1726.44
238.10	1812.45
238.32	1642.47
238.54	1724.39
238.76	1714.15
238.97	1701.86
239.19	1603.56
239.41	1773.54
239.63	1816.55
239.85	1660.90
240.06	1710.05
240.28	1689.57
240.50	1753.06
240.72	1740.77
240.93	1679.33
241.15	1757.16
241.37	1648.61
241.59	1773.54
241.81	1765.35
242.02	1646.57
242.24	1734.63
242.46	1650.66
242.68	1671.14
242.89	1705.96
243.11	1771.49
243.33	1685.48
243.55	1671.14
243.76	1718.25
243.98	1683.43
244.20	1714.15
244.42	1732.58
244.64	1665.00
244.85	1615.85
245.07	1562.60
245.29	1695.72
245.51	1716.20
245.72	1712.10
245.94	1759.21
246.16	1746.92
246.38	1667.05
246.59	1705.96
246.81	1599.46
247.03	1685.48
247.24	1626.09
247.46	1652.71
247.68	1734.63
247.90	1720.29
248.11	1740.77
248.33	1755.11
248.55	1714.15
248.77	1683.43
248.98	1675.24
249.20	1810.40
249.42	1705.96
249.64	1740.77
249.85	1753.06
250.07	1665.00
250.29	1755.11
250.50	1720.29
250.72	1568.74
250.94	1748.97
251.16	1839.08
251.37	1814.50
251.59	1779.68
251.81	1708.01
252.02	1806.31
252.24	1599.46
252.46	1769.44
252.68	1648.61
252.89	1693.67
253.11	1599.46
253.33	1820.64
253.54	1753.06
253.76	1601.51
253.98	1722.34
254.20	1697.77
254.41	1570.79
254.63	1724.39
254.85	1619.94
255.06	1710.05
255.28	1734.63
255.50	1660.90
255.71	1660.90
255.93	1574.89
256.15	1683.43
256.36	1722.34
256.58	1669.09
256.80	1683.43
257.02	1669.09
257.23	1669.09
257.45	1722.34
257.67	1804.26
257.88	1681.38
258.10	1658.85
258.32	1755.11
258.53	1691.62
258.75	1769.44
258.97	1681.38
259.18	1710.05
259.40	1724.39
259.62	1828.84
259.83	1718.25
260.05	1703.91
260.27	1902.56
260.48	1802.21
260.70	1599.46
260.92	1742.82
261.13	1673.19
261.35	1650.66
261.57	1671.14
261.78	1677.29
262.00	1642.47
262.22	1796.07
262.43	1617.90
262.65	1624.04
262.86	1710.05
263.08	1837.03
263.30	1685.48
263.51	1578.98
263.73	1689.57
263.95	1703.91
264.16	1638.38
264.38	1648.61
264.60	1714.15
264.81	1673.19
265.03	1771.49
265.25	1677.29
265.46	1744.87
265.68	1820.64
265.89	1642.47
266.11	1576.94
266.33	1708.01
266.54	1761.25
266.76	1726.44
266.98	1652.71
267.19	1804.26
267.41	1656.81
267.62	1708.01
267.84	1587.18
268.06	1722.34
268.27	1720.29
268.49	1738.73
268.70	1751.01
268.92	1732.58
269.14	1660.90
269.35	1642.47
269.57	1703.91
269.79	1701.86
270.00	1681.38
270.22	1861.60
270.43	1689.57
270.65	1505.26
270.87	1656.81
271.08	1689.57
271.30	1765.35
271.51	1679.33
271.73	1697.77
271.95	1765.35
272.16	1681.38
272.38	1710.05
272.59	1679.33
272.81	1775.59
273.02	1677.29
273.24	1738.73
273.46	1751.01
273.67	1691.62
273.89	1701.86
274.10	1662.95
274.32	1791.97
274.54	1689.57
274.75	1689.57
274.97	1638.38
275.18	1730.53
275.40	1689.57
275.61	1656.81
275.83	1681.38
276.05	1640.42
276.26	1683.43
276.48	1759.21
276.69	1615.85
276.91	1705.96
277.12	1798.12
277.34	1740.77
277.55	1722.34
277.77	1708.01
277.99	1691.62
278.20	1644.52
278.42	1527.78
278.63	1679.33
278.85	1708.01
279.06	1591.27
279.28	1681.38
279.49	1714.15
279.71	1728.49
279.93	1775.59
280.14	1740.77
280.36	1734.63
280.57	1794.02
280.79	1753.06
281.00	1675.24
281.22	1673.19
281.43	1775.59
281.65	1636.33
281.86	1630.18
282.08	1751.01
282.29	1806.31
282.51	1658.85
282.73	1658.85
282.94	1597.42
283.16	1759.21
283.37	1753.06
283.59	1624.04
283.80	1681.38
284.02	1665.00
284.23	1703.91
284.45	1656.81
284.66	1714.15
284.88	1689.57
285.09	1759.21
285.31	1736.68
285.52	1726.44
285.74	1572.84
285.95	1681.38
286.17	1732.58
286.38	1746.92
286.60	1617.90
286.81	1705.96
287.03	1658.85
287.24	1652.71
287.46	1724.39
287.67	1767.40
287.89	1712.10
288.10	1669.09
288.32	1736.68
288.53	1785.83
288.75	1679.33
288.96	1755.11
289.18	1648.61
289.39	1669.09
289.61	1738.73
289.82	1789.92
290.04	1767.40
290.25	1619.94
290.47	1689.57
290.68	1658.85
290.90	1789.92
291.11	1621.99
291.33	1761.25
291.54	1685.48
291.76	1687.53
291.97	1730.53
292.18	1730.53
292.40	1581.03
292.61	1785.83
292.83	1849.32
293.04	1755.11
293.26	1726.44
293.47	1687.53
293.69	1677.29
293.90	1746.92
294.12	1791.97
294.33	1740.77
294.55	1675.24
294.76	1712.10
294.97	1728.49
295.19	1775.59
295.40	1710.05
295.62	1787.88
295.83	1691.62
296.05	1660.90
296.26	1777.64
296.48	1626.09
296.69	1708.01
296.90	1697.77
297.12	1699.81
297.33	1775.59
297.55	1710.05
297.76	1761.25
297.98	1738.73
298.19	1757.16
298.41	1671.14
298.62	1716.20
298.83	1718.25
299.05	1740.77
299.26	1675.24
299.48	1675.24
299.69	1710.05
299.90	1656.81
300.12	1617.90
300.33	1681.38
300.55	1763.30
300.76	1685.48
300.98	1642.47
301.19	1710.05
301.40	1667.05
301.62	1660.90
301.83	1728.49
302.05	1669.09
302.26	1691.62
302.47	1722.34
302.69	1638.38
302.90	1738.73
303.12	1593.32
303.33	1802.21
303.54	1800.16
303.76	1687.53
303.97	1789.92
304.19	1757.16
304.40	1673.19
304.61	1708.01
304.83	1798.12
305.04	1794.02
305.26	1728.49
305.47	1585.13
305.68	1718.25
305.90	1677.29
306.11	1777.64
306.33	1720.29
306.54	1724.39
306.75	1621.99
306.97	1681.38
307.18	1705.96
307.39	1646.57
307.61	1689.57
307.82	1705.96
308.04	1712.10
308.25	1720.29
308.46	1726.44
308.68	1681.38
308.89	1761.25
309.10	1808.36
309.32	1767.40
309.53	1646.57
309.74	1685.48
309.96	1716.20
310.17	1718.25
310.39	1642.47
310.60	1701.86
310.81	1660.90
311.03	1585.13
311.24	1677.29
311.45	1720.29
311.67	1794.02
311.88	1714.15
312.09	1650.66
312.31	1693.67
312.52	1689.57
312.73	1699.81
312.95	1624.04
313.16	1681.38
313.37	1779.68
313.59	1726.44
313.80	1744.87
314.01	1828.84
314.23	1669.09
314.44	1701.86
314.65	1613.80
314.87	1744.87
315.08	1617.90
315.29	1697.77
315.51	1679.33
315.72	1660.90
315.93	1869.80
316.15	1781.73
316.36	1581.03
316.57	1703.91
316.79	1697.77
317.00	1673.19
317.21	1742.82
317.43	1648.61
317.64	1689.57
317.85	1648.61
318.07	1669.09
318.28	1726.44
318.49	1761.25
318.70	1867.75
318.92	1806.31
319.13	1814.50
319.34	1861.60
319.56	1783.78
319.77	1834.98
319.98	1798.12
320.20	1826.79
320.41	1757.16
320.62	1630.18
320.83	1665.00
321.05	1841.12
321.26	1722.34
321.47	1767.40
321.69	1767.40
321.90	1597.42
322.11	1685.48
322.32	1710.05
322.54	1748.97
322.75	1703.91
322.96	1839.08
323.18	1640.42
323.39	1617.90
323.60	1714.15
323.81	1751.01
324.03	1681.38
324.24	1665.00
324.45	1703.91
324.66	1636.33
324.88	1683.43
325.09	1751.01
325.30	1738.73
325.52	1710.05
325.73	1691.62
325.94	1660.90
326.15	1669.09
326.37	1681.38
326.58	1732.58
326.79	1740.77
327.00	1679.33
327.22	1755.11
327.43	1726.44
327.64	1601.51
327.85	1714.15
328.07	1714.15
328.28	1818.60
328.49	1660.90
328.70	1695.72
328.92	1720.29
329.13	1656.81
329.34	1730.53
329.55	1783.78
329.76	1751.01
329.98	1703.91
330.19	1705.96
330.40	1736.68
330.61	1658.85
330.83	1738.73
331.04	1658.85
331.25	1650.66
331.46	1648.61
331.68	1650.66
331.89	1755.11
332.10	1724.39
332.31	1626.09
332.52	1728.49
332.74	1744.87
332.95	1615.85
333.16	1687.53
333.37	1763.30
333.58	1583.08
333.80	1714.15
334.01	1634.28
334.22	1728.49
334.43	1685.48
334.64	1669.09
334.86	1681.38
335.07	1650.66
335.28	1773.54
335.49	1570.79
335.70	1755.11
335.92	1771.49
336.13	1861.60
336.34	1599.46
336.55	1644.52
336.76	1732.58
336.98	1576.94
337.19	1687.53
337.40	1802.21
337.61	1880.04
337.82	1736.68
338.04	1763.30
338.25	1648.61
338.46	1693.67
338.67	1685.48
338.88	1687.53
339.09	1607.66
339.31	1718.25
339.52	1650.66
339.73	1626.09
339.94	1718.25
340.15	1761.25
340.36	1619.94
340.58	1687.53
340.79	1660.90
341.00	1763.30
341.21	1701.86
341.42	1773.54
341.63	1619.94
341.85	1681.38
342.06	1687.53
342.27	1665.00
342.48	1744.87
342.69	1640.42
342.90	1675.24
343.12	1746.92
343.33	1742.82
343.54	1779.68
343.75	1767.40
343.96	1767.40
344.17	1615.85
344.38	1804.26
344.60	1636.33
344.81	1691.62
345.02	1718.25
345.23	1773.54
345.44	1802.21
345.65	1677.29
345.86	1665.00
346.07	1726.44
346.29	1720.29
346.50	1710.05
346.71	1732.58
346.92	1697.77
347.13	1769.44
347.34	1665.00
347.55	1708.01
347.76	1716.20
347.98	1611.75
348.19	1662.95
348.40	1804.26
348.61	1785.83
348.82	1751.01
349.03	1744.87
349.24	1593.32
349.45	1841.12
349.66	1619.94
349.88	1689.57
350.09	1710.05
350.30	1728.49
350.51	1787.88
350.72	1708.01
350.93	1703.91
351.14	1689.57
351.35	1777.64
351.56	1683.43
351.77	1746.92
351.99	1669.09
352.20	1746.92
352.41	1751.01
352.62	1546.22
352.83	1679.33
353.04	1740.77
353.25	1695.72
353.46	1708.01
353.67	1716.20
353.88	1583.08
354.09	1712.10
354.30	1697.77
354.52	1724.39
354.73	1746.92
354.94	1689.57
355.15	1685.48
355.36	1841.12
355.57	1599.46
355.78	1703.91
355.99	1718.25
356.20	1775.59
356.41	1755.11
356.62	1734.63
356.83	1716.20
357.04	1769.44
357.25	1591.27
357.46	1691.62
357.68	1597.42
357.89	1671.14
358.10	1607.66
358.31	1728.49
358.52	1683.43
358.73	1640.42
358.94	1605.61
359.15	1593.32
359.36	1699.81
359.57	1667.05
359.78	1710.05
359.99	1781.73
360.20	1611.75
360.41	1660.90
360.62	1771.49
360.83	1665.00
361.04	1660.90
361.25	1712.10
361.46	1839.08
361.67	1765.35
361.88	1691.62
362.09	1708.01
362.30	1640.42
362.51	1683.43
362.72	1783.78
362.93	1755.11
363.14	1685.48
363.35	1665.00
363.56	1617.90
363.78	1712.10
363.99	1789.92
364.20	1644.52
364.41	1695.72
364.62	1847.27
364.83	1662.95
365.04	1703.91
365.25	1656.81
365.46	1751.01
365.67	1689.57
365.88	1675.24
366.09	1624.04
366.30	1691.62
366.51	1701.86
366.72	1687.53
366.93	1726.44
367.14	1636.33
367.35	1712.10
367.56	1605.61
367.77	1800.16
367.98	1689.57
368.18	1740.77
368.39	1771.49
368.60	1593.32
368.81	1724.39
369.02	1748.97
369.23	1642.47
369.44	1581.03
369.65	1695.72
369.86	1632.23
370.07	1736.68
370.28	1599.46
370.49	1693.67
370.70	1798.12
370.91	1576.94
371.12	1665.00
371.33	1746.92
371.54	1652.71
371.75	1808.36
371.96	1589.22
372.17	1763.30
372.38	1632.23
372.59	1708.01
372.80	1738.73
373.01	1730.53
373.22	1734.63
373.43	1685.48
373.64	1583.08
373.85	1671.14
374.06	1773.54
374.26	1705.96
374.47	1638.38
374.68	1789.92
374.89	1716.20
375.10	1720.29
375.31	1751.01
375.52	1730.53
375.73	1705.96
375.94	1628.14
376.15	1761.25
376.36	1695.72
376.57	1710.05
376.78	1615.85
376.99	1742.82
377.20	1761.25
377.40	1605.61
377.61	1791.97
377.82	1599.46
378.03	1775.59
378.24	1746.92
378.45	1687.53
378.66	1691.62
378.87	1658.85
379.08	1581.03
379.29	1634.28
379.50	1767.40
379.71	1642.47
379.91	1697.77
380.12	1695.72
380.33	1714.15
380.54	1609.70
380.75	1669.09
380.96	1720.29
381.17	1710.05
381.38	1830.88
381.59	1722.34
381.80	1738.73
382.00	1802.21
382.21	1800.16
382.42	1789.92
382.63	1871.84
382.84	1804.26
383.05	1771.49
383.26	1769.44
383.47	1753.06
383.68	1705.96
383.88	1734.63
384.09	1730.53
384.30	1800.16
384.51	1779.68
384.72	1665.00
384.93	1675.24
385.14	1695.72
385.35	1761.25
385.55	1673.19
385.76	1810.40
385.97	1710.05
386.18	1591.27
386.39	1669.09
386.60	1722.34
386.81	1675.24
387.02	1628.14
387.22	1703.91
387.43	1794.02
387.64	1794.02
387.85	1867.75
388.06	2203.61
388.27	4227.01
388.48	6815.64
388.68	8253.31
388.89	9682.80
389.10	9883.50
389.31	8525.69
389.52	7534.48
389.73	6717.34
389.93	6227.87
390.14	5697.45
390.35	5273.52
390.56	4564.92
390.77	3712.97
390.98	2947.03
391.18	2465.75
391.39	2170.85
391.60	1853.41
391.81	1849.32
392.02	1675.24
392.23	1871.84
392.43	1724.39
392.64	1785.83
392.85	1705.96
393.06	1826.79
393.27	1722.34
393.47	1685.48
393.68	1705.96
393.89	1634.28
394.10	1837.03
394.31	1654.76
394.52	1701.86
394.72	1677.29
394.93	1832.93
395.14	1685.48
395.35	1726.44
395.56	1687.53
395.76	1738.73
395.97	1824.74
396.18	1777.64
396.39	1898.47
396.60	2039.78
396.80	1939.43
397.01	1877.99
397.22	1837.03
397.43	1798.12
397.64	1714.15
397.84	1781.73
398.05	1841.12
398.26	1755.11
398.47	1767.40
398.67	1708.01
398.88	1777.64
399.09	1697.77
399.30	1581.03
399.51	1757.16
399.71	1697.77
399.92	1679.33
400.13	1681.38
400.34	1630.18
400.54	1718.25
400.75	1783.78
400.96	1656.81
401.17	1826.79
401.37	1691.62
401.58	1755.11
401.79	1746.92
402.00	1888.23
402.21	1972.19
402.41	1966.05
402.62	1978.34
402.83	2027.49
403.04	2031.58
403.24	2037.73
403.45	1865.70
403.66	1861.60
403.87	1822.69
404.07	1877.99
404.28	1871.84
404.49	1875.94
404.70	1814.50
404.90	1755.11
405.11	1767.40
405.32	1708.01
405.52	1689.57
405.73	1681.38
405.94	1689.57
406.15	1689.57
406.35	1679.33
406.56	1699.81
406.77	1683.43
406.98	1738.73
407.18	1685.48
407.39	1728.49
407.60	1685.48
407.80	1615.85
408.01	1634.28
408.22	1761.25
408.43	1673.19
408.63	1714.15
408.84	1781.73
409.05	1738.73
409.25	1617.90
409.46	1693.67
409.67	1693.67
409.88	1705.96
410.08	1751.01
410.29	1617.90
410.50	1679.33
410.70	1697.77
410.91	1662.95
411.12	1710.05
411.32	1716.20
411.53	1644.52
411.74	1763.30
411.95	1779.68
412.15	1767.40
412.36	1759.21
412.57	1708.01
412.77	1800.16
412.98	1673.19
413.19	1656.81
413.39	1716.20
413.60	1746.92
413.81	1763.30
414.01	1728.49
414.22	1785.83
414.43	1744.87
414.63	1619.94
414.84	1787.88
415.05	1679.33
415.25	1660.90
415.46	1615.85
415.67	1677.29
415.87	1703.91
416.08	1648.61
416.29	1605.61
416.49	1671.14
416.70	1662.95
416.91	1599.46
417.11	1648.61
417.32	1783.78
417.53	1734.63
417.73	1710.05
417.94	1712.10
418.15	1718.25
418.35	1697.77
418.56	1736.68
418.77	1824.74
418.97	1640.42
419.18	1771.49
419.38	1583.08
419.59	1714.15
419.80	1781.73
420.00	1730.53
420.21	1724.39
420.42	1722.34
420.62	1746.92
420.83	1701.86
421.04	1691.62
421.24	1675.24
421.45	1753.06
421.65	1787.88
421.86	1724.39
422.07	1724.39
422.27	1718.25
422.48	1722.34
422.69	1630.18
422.89	1695.72
423.10	1740.77
423.30	1609.70
423.51	1722.34
423.72	1742.82
423.92	1746.92
424.13	1617.90
424.33	1773.54
424.54	1728.49
424.75	1691.62
424.95	1830.88
425.16	1673.19
425.36	1724.39
425.57	1691.62
425.78	1718.25
425.98	1798.12
426.19	1617.90
426.39	1691.62
426.60	1722.34
426.81	1808.36
427.01	1673.19
427.22	1761.25
427.42	1607.66
427.63	1626.09
427.83	1724.39
428.04	1853.41
428.25	1705.96
428.45	1841.12
428.66	1681.38
428.86	1708.01
429.07	1718.25
429.28	1683.43
429.48	1720.29
429.69	1609.70
429.89	1720.29
430.10	1609.70
430.30	1712.10
430.51	1748.97
430.71	1775.59
430.92	1697.77
431.13	1738.73
431.33	1759.21
431.54	1822.69
431.74	1746.92
431.95	1810.40
432.15	1716.20
432.36	1720.29
432.56	1712.10
432.77	1763.30
432.98	1781.73
433.18	1699.81
433.39	1726.44
433.59	1755.11
433.80	1804.26
434.00	1865.70
434.21	1611.75
434.41	1675.24
434.62	1861.60
434.82	1558.50
435.03	1665.00
435.23	1732.58
435.44	1574.89
435.64	1675.24
435.85	1708.01
436.06	1677.29
436.26	1697.77
436.47	1796.07
436.67	1619.94
436.88	1665.00
437.08	1783.78
437.29	1771.49
437.49	1738.73
437.70	1818.60
437.90	1740.77
438.11	1834.98
438.31	1794.02
438.52	1875.94
438.72	1865.70
438.93	1939.43
439.13	1738.73
439.34	1820.64
439.54	1834.98
439.75	1853.41
439.95	1769.44
440.16	1630.18
440.36	1783.78
440.57	1779.68
440.77	1761.25
440.98	1648.61
441.18	1732.58
441.39	1677.29
441.59	1642.47
441.80	1875.94
442.00	1718.25
442.21	1779.68
442.41	1681.38
442.62	1751.01
442.82	1679.33
443.02	1695.72
443.23	1775.59
443.43	1806.31
443.64	1841.12
443.84	1675.24
444.05	1800.16
444.25	1726.44
444.46	1673.19
444.66	1742.82
444.87	1824.74
445.07	1601.51
445.28	1638.38
445.48	1783.78
445.69	1738.73
445.89	1918.95
446.09	1773.54
446.30	1996.77
446.50	2676.70
446.71	3659.72
446.91	4298.69
447.12	4747.19
447.32	4810.68
447.53	4284.35
447.73	3823.56
447.93	3522.51
448.14	3258.32
448.34	3147.73
448.55	2947.03
448.75	2828.24
448.96	2678.74
449.16	2371.55
449.36	2256.86
449.57	2047.97
449.77	1955.81
449.98	1873.89
450.18	1796.07
450.39	1849.32
450.59	1800.16
450.79	1708.01
451.00	1730.53
451.20	1697.77
451.41	1708.01
451.61	1712.10
451.81	1753.06
452.02	1767.40
452.22	1734.63
452.43	1658.85
452.63	1654.76
452.84	1714.15
453.04	1724.39
453.24	1746.92
453.45	1646.57
453.65	1771.49
453.86	1763.30
454.06	1777.64
454.26	1775.59
454.47	1662.95
454.67	1755.11
454.87	1748.97
455.08	1779.68
455.28	1796.07
455.49	1738.73
455.69	1646.57
455.89	1869.80
456.10	1804.26
456.30	1730.53
456.51	1757.16
456.71	1783.78
456.91	1699.81
457.12	1710.05
457.32	1751.01
457.52	1619.94
457.73	1808.36
457.93	1818.60
458.14	1611.75
458.34	1574.89
458.54	1767.40
458.75	1775.59
458.95	1773.54
459.15	1779.68
459.36	1796.07
459.56	1783.78
459.76	1853.41
459.97	1716.20
460.17	1763.30
460.37	1779.68
460.58	1669.09
460.78	1722.34
460.99	1701.86
461.19	1783.78
461.39	1619.94
461.60	1656.81
461.80	1722.34
462.00	1632.23
462.21	1714.15
462.41	1658.85
462.61	1748.97
462.82	1671.14
463.02	1665.00
463.22	1718.25
463.43	1773.54
463.63	1779.68
463.83	1810.40
464.04	1744.87
464.24	1724.39
464.44	1662.95
464.64	1744.87
464.85	1705.96
465.05	1783.78
465.25	1755.11
465.46	1669.09
465.66	1763.30
465.86	1746.92
466.07	1701.86
466.27	1677.29
466.47	1642.47
466.68	1701.86
466.88	1824.74
467.08	1726.44
467.29	1771.49
467.49	1755.11
467.69	1703.91
467.89	1771.49
468.10	1755.11
468.30	1777.64
468.50	1839.08
468.71	1767.40
468.91	1634.28
469.11	1853.41
469.31	1738.73
469.52	1697.77
469.72	1746.92
469.92	1767.40
470.13	1671.14
470.33	1685.48
470.53	1806.31
470.73	2152.42
470.94	2281.44
471.14	2277.34
471.34	2549.72
471.54	2334.68
471.75	2248.67
471.95	2142.18
472.15	2097.12
472.36	2041.82
472.56	2041.82
472.76	2133.98
472.96	2052.06
473.17	1877.99
473.37	1964.00
473.57	1808.36
473.77	1796.07
473.98	1685.48
474.18	1705.96
474.38	1939.43
474.58	1730.53
474.79	1683.43
474.99	1773.54
475.19	1769.44
475.39	1595.37
475.60	1708.01
475.80	1714.15
476.00	1734.63
476.20	1732.58
476.41	1658.85
476.61	1816.55
476.81	1789.92
477.01	1660.90
477.21	1845.22
477.42	1816.55
477.62	1658.85
477.82	1740.77
478.02	1636.33
478.23	1783.78
478.43	1665.00
478.63	1658.85
478.83	1679.33
479.03	1685.48
479.24	1722.34
479.44	1908.71
479.64	1685.48
479.84	1650.66
480.04	1677.29
480.25	1738.73
480.45	1738.73
480.65	1669.09
480.85	1822.69
481.06	1673.19
481.26	1736.68
481.46	1738.73
481.66	1746.92
481.86	1683.43
482.06	1800.16
482.27	1689.57
482.47	1648.61
482.67	1705.96
482.87	1673.19
483.07	1773.54
483.28	1669.09
483.48	1687.53
483.68	1667.05
483.88	1634.28
484.08	1576.94
484.29	1626.09
484.49	1671.14
484.69	1722.34
484.89	1843.17
485.09	1781.73
485.29	1730.53
485.50	1724.39
485.70	1669.09
485.90	1732.58
486.10	1718.25
486.30	1714.15
486.50	1787.88
486.71	1759.21
486.91	1748.97
487.11	1837.03
487.31	1691.62
487.51	1775.59
487.71	1621.99
487.91	1685.48
488.12	1673.19
488.32	1671.14
488.52	1687.53
488.72	1605.61
488.92	1673.19
489.12	1753.06
489.32	1742.82
489.53	1734.63
489.73	1611.75
489.93	1798.12
490.13	1644.52
490.33	1640.42
490.53	1718.25
490.73	1779.68
490.94	1619.94
491.14	1771.49
491.34	1820.64
491.54	2148.32
491.74	2619.35
491.94	2854.87
492.14	3041.23
492.34	3012.56
492.54	2772.95
492.75	2408.41
492.95	2447.32
493.15	2363.36
493.35	2256.86
493.55	2172.89
493.75	2207.71
493.95	2115.55
494.15	2054.11
494.35	1896.42
494.56	1906.66
494.76	1755.11
494.96	1802.21
495.16	1783.78
495.36	1777.64
495.56	1656.81
495.76	1689.57
495.96	1634.28
496.16	1746.92
496.36	1834.98
496.56	1775.59
496.77	1787.88
496.97	1765.35
497.17	1771.49
497.37	1644.52
497.57	1789.92
497.77	1712.10
497.97	1701.86
498.17	1738.73
498.37	1615.85
498.57	1759.21
498.77	1708.01
498.97	1738.73
499.17	1877.99
499.38	1693.67
499.58	1877.99
499.78	1759.21
499.98	1787.88
500.18	1734.63
500.38	1742.82
500.58	1892.32
500.78	2484.19
500.98	4450.24
501.18	5826.47
501.38	6719.39
501.58	7073.68
501.78	6703.00
501.98	5560.24
502.18	4954.04
502.38	4278.21
502.58	4100.03
502.78	3788.74
502.98	3610.57
503.18	3450.83
503.38	3114.96
503.59	2936.79
503.79	2635.74
503.99	2523.10
504.19	2213.85
504.39	2230.24
504.59	2111.46
504.79	2146.27
504.99	2058.21
505.19	1882.08
505.39	1957.86
505.59	1947.62
505.79	1982.43
505.99	1867.75
506.19	1748.97
506.39	1849.32
506.59	1734.63
506.79	1724.39
506.99	1769.44
507.19	1718.25
507.39	1820.64
507.59	1773.54
507.79	1720.29
507.99	1648.61
508.19	1687.53
508.39	1693.67
508.59	1775.59
508.79	1820.64
508.99	1808.36
509.19	1679.33
509.39	1830.88
509.59	1687.53
509.79	1757.16
509.99	1656.81
510.19	1791.97
510.39	1771.49
510.59	1771.49
510.79	1742.82
510.99	1636.33
511.19	1714.15
511.39	1783.78
511.59	1765.35
511.79	1781.73
511.99	1679.33
512.19	1759.21
512.38	1712.10
512.58	1699.81
512.78	1730.53
512.98	1753.06
513.18	1800.16
513.38	1701.86
513.58	1775.59
513.78	1746.92
513.98	1791.97
514.18	1683.43
514.38	1638.38
514.58	1783.78
514.78	1675.24
514.98	1732.58
515.18	1687.53
515.38	1640.42
515.58	1775.59
515.78	1738.73
515.98	1744.87
516.18	1761.25
516.38	1763.30
516.57	1748.97
516.77	1783.78
516.97	1759.21
517.17	1699.81
517.37	1531.88
517.57	1787.88
517.77	1767.40
517.97	1755.11
518.17	1773.54
518.37	1624.04
518.57	1712.10
518.77	1726.44
518.97	1712.10
519.16	1662.95
519.36	1769.44
519.56	1748.97
519.76	1656.81
519.96	1773.54
520.16	1767.40
520.36	1742.82
520.56	1759.21
520.76	1697.77
520.96	1695.72
521.16	1677.29
521.35	1759.21
521.55	1769.44
521.75	1689.57
521.95	1677.29
522.15	1736.68
522.35	1685.48
522.55	1675.24
522.75	1718.25
522.95	1677.29
523.14	1673.19
523.34	1757.16
523.54	1732.58
523.74	1794.02
523.94	1736.68
524.14	1712.10
524.34	1695.72
524.54	1763.30
524.73	1718.25
524.93	1808.36
525.13	1767.40
525.33	1660.90
525.53	1861.60
525.73	1779.68
525.93	1732.58
526.13	1716.20
526.32	1785.83
526.52	1773.54
526.72	1726.44
526.92	1736.68
527.12	1667.05
527.32	1710.05
527.52	1767.40
527.71	1751.01
527.91	1746.92
528.11	1683.43
528.31	1722.34
528.51	1683.43
528.71	1775.59
528.90	1632.23
529.10	1738.73
529.30	1834.98
529.50	1658.85
529.70	1755.11
529.90	1640.42
530.09	1685.48
530.29	1677.29
530.49	1626.09
530.69	1888.23
530.89	1640.42
531.09	1703.91
531.28	1656.81
531.48	1789.92
531.68	1720.29
531.88	1757.16
532.08	1796.07
532.28	1669.09
532.47	1726.44
532.67	1748.97
532.87	1720.29
533.07	1697.77
533.27	1746.92
533.46	1755.11
533.66	1804.26
533.86	1701.86
534.06	1748.97
534.26	1769.44
534.45	1736.68
534.65	1779.68
534.85	1685.48
535.05	1646.57
535.25	1648.61
535.44	1673.19
535.64	1701.86
535.84	1779.68
536.04	1705.96
536.24	1796.07
536.43	1728.49
536.63	1646.57
536.83	1724.39
537.03	1748.97
537.22	1685.48
537.42	1660.90
537.62	1730.53
537.82	1738.73
538.02	1837.03
538.21	1865.70
538.41	1884.13
538.61	1794.02
538.81	1800.16
539.00	1765.35
539.20	1732.58
539.40	1714.15
539.60	1775.59
539.79	1755.11
539.99	1691.62
540.19	1679.33
540.39	1810.40
540.58	1755.11
540.78	1787.88
540.98	1812.45
541.18	1765.35
541.37	1787.88
541.57	1748.97
541.77	1744.87
541.97	1662.95
542.16	1667.05
542.36	1724.39
542.56	1732.58
542.76	1845.22
542.95	1791.97
543.15	1654.76
543.35	1808.36
543.54	1673.19
543.74	1650.66
543.94	1736.68
544.14	1691.62
544.33	1800.16
544.53	1736.68
544.73	1650.66
544.93	1736.68
545.12	1705.96
545.32	1767.40
545.52	1759.21
545.71	1652.71
545.91	1609.70
546.11	1755.11
546.30	1691.62
546.50	1691.62
546.70	1718.25
546.90	1730.53
547.09	1599.46
547.29	1703.91
547.49	1843.17
547.68	1783.78
547.88	1794.02
548.08	1853.41
548.27	2207.71
548.47	1673.19
548.67	1685.48
548.87	1705.96
549.06	1710.05
549.26	1767.40
549.46	1775.59
549.65	1714.15
549.85	1767.40
550.05	1773.54
550.24	1599.46
550.44	1648.61
550.64	1742.82
550.83	1722.34
551.03	1802.21
551.23	1796.07
551.42	1781.73
551.62	1734.63
551.82	1714.15
552.01	1753.06
552.21	1826.79
552.41	1773.54
552.60	1759.21
552.80	1751.01
553.00	1679.33
553.19	1789.92
553.39	1845.22
553.59	1605.61
553.78	1806.31
553.98	1705.96
554.17	1683.43
554.37	1669.09
554.57	1724.39
554.76	1619.94
554.96	1628.14
555.16	1732.58
555.35	1853.41
555.55	1763.30
555.75	1802.21
555.94	1759.21
556.14	1693.67
556.33	1798.12
556.53	1783.78
556.73	1779.68
556.92	1787.88
557.12	1865.70
557.32	1822.69
557.51	1857.51
557.71	1802.21
557.90	1818.60
558.10	1820.64
558.30	1675.24
558.49	1703.91
558.69	1730.53
558.88	1697.77
559.08	1738.73
559.28	1779.68
559.47	1734.63
559.67	1662.95
559.86	1828.84
560.06	1759.21
560.26	1773.54
560.45	1775.59
560.65	1781.73
560.84	1873.89
561.04	1648.61
561.24	1759.21
561.43	1607.66
561.63	1908.71
561.82	1759.21
562.02	1763.30
562.22	1691.62
562.41	1640.42
562.61	1744.87
562.80	1648.61
563.00	1859.56
563.19	1802.21
563.39	1687.53
563.59	1857.51
563.78	1712.10
563.98	1599.46
564.17	1710.05
564.37	1624.04
564.56	1720.29
564.76	1677.29
564.96	1847.27
565.15	1712.10
565.35	1877.99
565.54	1757.16
565.74	1783.78
565.93	1751.01
566.13	1738.73
566.32	1865.70
566.52	1781.73
566.71	1824.74
566.91	1822.69
567.11	1693.67
567.30	1634.28
567.50	1726.44
567.69	1751.01
567.89	1761.25
568.08	1677.29
568.28	1759.21
568.47	1656.81
568.67	1837.03
568.86	1671.14
569.06	1802.21
569.25	1679.33
569.45	1683.43
569.64	1761.25
569.84	1720.29
570.04	1675.24
570.23	1699.81
570.43	1767.40
570.62	1814.50
570.82	1798.12
571.01	1714.15
571.21	1658.85
571.40	1689.57
571.60	1812.45
571.79	1701.86
571.99	1708.01
572.18	1724.39
572.38	1755.11
572.57	1722.34
572.77	1800.16
572.96	1843.17
573.16	1738.73
573.35	1658.85
573.55	1763.30
573.74	1818.60
573.94	1755.11
574.13	1775.59
574.33	1791.97
574.52	1787.88
574.71	1763.30
574.91	1724.39
575.10	1730.53
575.30	1769.44
575.49	1773.54
575.69	1724.39
575.88	1714.15
576.08	1796.07
576.27	1828.84
576.47	1761.25
576.66	1771.49
576.86	1816.55
577.05	1716.20
577.25	1849.32
577.44	1751.01
577.64	1800.16
577.83	1871.84
578.02	1679.33
578.22	1843.17
578.41	1873.89
578.61	1714.15
578.80	1585.13
579.00	1767.40
579.19	1714.15
579.39	1761.25
579.58	1814.50
579.77	1732.58
579.97	1796.07
580.16	1791.97
580.36	1773.54
580.55	1830.88
580.75	1736.68
580.94	1783.78
581.13	1867.75
581.33	1814.50
581.52	1785.83
581.72	1820.64
581.91	1818.60
582.11	1748.97
582.30	1705.96
582.49	1783.78
582.69	1798.12
582.88	1751.01
583.08	1787.88
583.27	1802.21
583.47	1728.49
583.66	1693.67
583.85	1771.49
584.05	1718.25
584.24	1775.59
584.44	1769.44
584.63	1798.12
584.82	1882.08
585.02	1916.90
585.21	1857.51
585.41	1783.78
585.60	1861.60
585.79	1931.23
585.99	1939.43
586.18	1847.27
586.37	2172.89
586.57	3385.29
586.76	9781.10
586.96	24671.88
587.15	34618.86
587.34	40643.99
587.54	41973.12
587.73	36607.44
587.93	26314.35
588.12	21522.10
588.31	18179.82
588.51	16328.45
588.70	15193.88
588.89	13995.82
589.09	12521.28
589.28	11128.66
589.47	9375.60
589.67	7952.26
589.86	6438.81
590.06	5003.19
590.25	3864.52
590.44	3098.58
590.64	2570.20
590.83	2289.63
591.02	2045.92
591.22	2035.68
591.41	1873.89
591.60	1763.30
591.80	1822.69
591.99	1730.53
592.18	1738.73
592.38	1880.04
592.57	1734.63
592.76	1785.83
592.96	1798.12
593.15	1740.77
593.34	1767.40
593.54	1773.54
593.73	1730.53
593.92	1779.68
594.12	1718.25
594.31	1755.11
594.50	1794.02
594.70	1794.02
594.89	1925.09
595.08	1636.33
595.28	1806.31
595.47	1884.13
595.66	1746.92
595.86	1730.53
596.05	1777.64
596.24	1724.39
596.43	1812.45
596.63	1804.26
596.82	1759.21
597.01	1748.97
597.21	1839.08
597.40	1742.82
597.59	1771.49
597.79	1691.62
597.98	1705.96
598.17	1783.78
598.36	1697.77
598.56	1851.36
598.75	1720.29
598.94	1710.05
599.14	1826.79
599.33	1755.11
599.52	1683.43
599.71	1695.72
599.91	1814.50
600.10	1683.43
600.29	1781.73
600.48	1861.60
600.68	1746.92
600.87	1751.01
601.06	1693.67
601.26	1734.63
601.45	1757.16
601.64	1816.55
601.83	1863.65
602.03	1710.05
602.22	1667.05
602.41	1814.50
602.60	1822.69
602.80	1712.10
602.99	1746.92
603.18	1652.71
603.37	1816.55
603.57	1783.78
603.76	1787.88
603.95	1800.16
604.14	1722.34
604.34	1665.00
604.53	1755.11
604.72	1726.44
604.91	1753.06
605.10	1783.78
605.30	1671.14
605.49	1974.24
605.68	1730.53
605.87	1802.21
606.07	1693.67
606.26	1738.73
606.45	1789.92
606.64	1730.53
606.84	1714.15
607.03	1736.68
607.22	1648.61
607.41	1681.38
607.60	1726.44
607.80	1820.64
607.99	1728.49
608.18	1746.92
608.37	1771.49
608.56	1742.82
608.76	1843.17
608.95	1877.99
609.14	1732.58
609.33	1742.82
609.52	1845.22
609.72	1804.26
609.91	1785.83
610.10	1679.33
610.29	1734.63
610.48	1724.39
610.68	1755.11
610.87	1734.63
611.06	1771.49
611.25	1677.29
611.44	1783.78
611.63	1685.48
611.83	1820.64
612.02	1673.19
612.21	1816.55
612.40	1628.14
612.59	1697.77
612.79	1708.01
612.98	1755.11
613.17	1837.03
613.36	1771.49
613.55	1761.25
613.74	1699.81
613.93	1683.43
614.13	1773.54
614.32	1759.21
614.51	1705.96
614.70	1724.39
614.89	1660.90
615.08	1804.26
615.28	2062.30
615.47	1658.85
615.66	1798.12
615.85	1746.92
616.04	1763.30
616.23	1724.39
616.42	1753.06
616.62	1683.43
616.81	1748.97
617.00	1689.57
617.19	1697.77
617.38	1699.81
617.57	1789.92
617.76	1732.58
617.95	1755.11
618.15	1689.57
618.34	1824.74
618.53	1613.80
618.72	1755.11
618.91	1763.30
619.10	1869.80
619.29	1697.77
619.48	1671.14
619.68	1689.57
619.87	1667.05
620.06	1609.70
620.25	1761.25
620.44	1789.92
620.63	1779.68
620.82	1701.86
621.01	1689.57
621.20	1710.05
621.39	1753.06
621.59	1687.53
621.78	1720.29
621.97	1638.38
622.16	1763.30
622.35	1767.40
622.54	1779.68
622.73	1853.41
622.92	1636.33
623.11	1785.83
623.30	1693.67
623.49	1746.92
623.68	1705.96
623.88	1816.55
624.07	1693.67
624.26	1726.44
624.45	1746.92
624.64	1767.40
624.83	1714.15
625.02	1718.25
625.21	1728.49
625.40	1701.86
625.59	1769.44
625.78	1681.38
625.97	1734.63
626.16	1781.73
626.35	1755.11
626.54	1746.92
626.74	1771.49
626.93	1648.61
627.12	1748.97
627.31	1820.64
627.50	1736.68
627.69	1757.16
627.88	1726.44
628.07	1732.58
628.26	1642.47
628.45	1710.05
628.64	1665.00
628.83	1765.35
629.02	1636.33
629.21	1761.25
629.40	1691.62
629.59	1691.62
629.78	1718.25
629.97	1738.73
630.16	1695.72
630.35	1687.53
630.54	1705.96
630.73	1697.77
630.92	1740.77
631.11	1603.56
631.30	1691.62
631.49	1785.83
631.68	1718.25
631.87	1724.39
632.06	1705.96
632.25	1820.64
632.44	1736.68
632.63	1779.68
632.82	1677.29
633.01	1675.24
633.20	1710.05
633.39	1669.09
633.58	1636.33
633.77	1679.33
633.96	1736.68
634.15	1818.60
634.34	1759.21
634.53	1699.81
634.72	1705.96
634.91	1585.13
635.10	1716.20
635.29	1753.06
635.48	1636.33
635.67	1677.29
635.86	1675.24
636.05	1734.63
636.24	1673.19
636.43	1677.29
636.62	1726.44
636.81	1646.57
637.00	1701.86
637.19	1755.11
637.38	1673.19
637.57	1738.73
637.76	1724.39
637.95	1746.92
638.14	1732.58
638.33	1660.90
638.52	1736.68
638.71	1662.95
638.89	1638.38
639.08	1806.31
639.27	1691.62
639.46	1712.10
639.65	1787.88
639.84	1697.77
640.03	1773.54
640.22	1656.81
640.41	1755.11
640.60	1812.45
640.79	1734.63
640.98	1722.34
641.17	1785.83
641.36	1751.01
641.55	1685.48
641.74	1656.81
641.92	1632.23
642.11	1644.52
642.30	1689.57
642.49	1642.47
642.68	1695.72
642.87	1771.49
643.06	1736.68
643.25	1701.86
643.44	1769.44
643.63	1671.14
643.82	1697.77
644.00	1660.90
644.19	1665.00
644.38	1673.19
644.57	1744.87
644.76	1726.44
644.95	1675.24
645.14	1673.19
645.33	1701.86
645.52	1689.57
645.71	1718.25
645.89	1632.23
646.08	1705.96
646.27	1669.09
646.46	1839.08
646.65	1652.71
646.84	1685.48
647.03	1767.40
647.22	1734.63
647.40	1724.39
647.59	1675.24
647.78	1605.61
647.97	1689.57
648.16	1705.96
648.35	1777.64
648.54	1802.21
648.73	1662.95
648.91	1796.07
649.10	1751.01
649.29	1613.80
649.48	1763.30
649.67	1755.11
649.86	1740.77
650.05	1683.43
650.23	1755.11
650.42	1558.50
650.61	1765.35
650.80	1818.60
650.99	1855.46
651.18	1722.34
651.36	1791.97
651.55	1630.18
651.74	1791.97
651.93	1695.72
652.12	1640.42
652.31	1658.85
652.49	1716.20
652.68	1714.15
652.87	1816.55
653.06	1726.44
653.25	1785.83
653.44	1734.63
653.62	1798.12
653.81	1708.01
654.00	1730.53
654.19	1732.58
654.38	1857.51
654.56	1728.49
654.75	1660.90
654.94	1771.49
655.13	1742.82
655.32	1742.82
655.51	1753.06
655.69	1699.81
655.88	1826.79
656.07	1710.05
656.26	1837.03
656.45	1644.52
656.63	1685.48
656.82	1710.05
657.01	1820.64
657.20	1669.09
657.38	1841.12
657.57	1677.29
657.76	1656.81
657.95	1757.16
658.14	1667.05
658.32	1738.73
658.51	1671.14
658.70	1675.24
658.89	1673.19
659.08	1742.82
659.26	1798.12
659.45	1669.09
659.64	1691.62
659.83	1624.04
660.01	1918.95
660.20	1751.01
660.39	1880.04
660.58	1650.66
660.76	1736.68
660.95	1697.77
661.14	1714.15
661.33	1632.23
661.51	1703.91
661.70	1689.57
661.89	1751.01
662.08	1798.12
662.26	1652.71
662.45	1669.09
662.64	1810.40
662.83	1744.87
663.01	1654.76
663.20	1710.05
663.39	1800.16
663.58	1671.14
663.76	1644.52
663.95	1755.11
664.14	1650.66
664.32	1650.66
664.51	1665.00
664.70	1644.52
664.89	1771.49
665.07	1593.32
665.26	1751.01
665.45	1656.81
665.64	1740.77
665.82	1703.91
666.01	1775.59
666.20	1689.57
666.38	1802.21
666.57	1822.69
666.76	2205.66
666.95	4519.87
667.13	10463.07
667.32	15195.93
667.51	17764.08
667.69	19093.21
667.88	17426.17
668.07	11994.95
668.25	9459.57
668.44	8148.87
668.63	7317.39
668.81	6748.06
669.00	6207.39
669.19	5769.13
669.38	5081.01
669.56	4642.75
669.75	3948.48
669.94	3389.39
670.12	2922.45
670.31	2494.43
670.50	2369.50
670.68	2054.11
670.87	1927.14
671.06	1783.78
671.24	1845.22
671.43	1789.92
671.62	1798.12
671.80	1689.57
671.99	1718.25
672.18	1703.91
672.36	1757.16
672.55	1726.44
672.74	1710.05
672.92	1777.64
673.11	1697.77
673.29	1677.29
673.48	1746.92
673.67	1701.86
673.85	1728.49
674.04	1697.77
674.23	1724.39
674.41	1834.98
674.60	1685.48
674.79	1644.52
674.97	1724.39
675.16	1810.40
675.34	1779.68
675.53	1757.16
675.72	1744.87
675.90	1791.97
676.09	1656.81
676.28	1726.44
676.46	1636.33
676.65	1748.97
676.83	1730.53
677.02	1726.44
677.21	1791.97
677.39	1658.85
677.58	1699.81
677.77	1685.48
677.95	1660.90
678.14	1687.53
678.32	1703.91
678.51	1648.61
678.70	1783.78
678.88	1601.51
679.07	1689.57
679.25	1771.49
679.44	1665.00
679.63	1650.66
679.81	1710.05
680.00	1828.84
680.18	1726.44
680.37	1761.25
680.55	1759.21
680.74	1648.61
680.93	1699.81
681.11	1708.01
681.30	1742.82
681.48	1751.01
681.67	1621.99
681.85	1710.05
682.04	1693.67
682.23	1812.45
682.41	1687.53
682.60	1697.77
682.78	1681.38
682.97	1589.22
683.15	1714.15
683.34	1744.87
683.53	1775.59
683.71	1667.05
683.90	1867.75
684.08	1820.64
684.27	1642.47
684.45	1673.19
684.64	1642.47
684.82	1712.10
685.01	1736.68
685.19	1701.86
685.38	1812.45
685.57	1701.86
685.75	1687.53
685.94	1687.53
686.12	1689.57
686.31	1673.19
686.49	1812.45
686.68	1595.37
686.86	1771.49
687.05	1740.77
687.23	1773.54
687.42	1751.01
687.60	1697.77
687.79	1732.58
687.97	1798.12
688.16	1767.40
688.34	1746.92
688.53	1601.51
688.71	1738.73
688.90	1738.73
689.08	1703.91
689.27	1648.61
689.45	1734.63
689.64	1710.05
689.82	1697.77
690.01	1718.25
690.19	1716.20
690.38	1675.24
690.56	1738.73
690.75	1685.48
690.93	1652.71
691.12	1705.96
691.30	1689.57
691.49	1736.68
691.67	1757.16
691.86	1769.44
692.04	1660.90
692.23	1597.42
692.41	1642.47
692.60	1837.03
692.78	1714.15
692.97	1691.62
693.15	1699.81
693.34	1777.64
693.52	1673.19
693.71	1716.20
693.89	1689.57
694.08	1626.09
694.26	1783.78
694.44	1703.91
694.63	1748.97
694.81	1667.05
695.00	1665.00
695.18	1779.68
695.37	1820.64
695.55	1769.44
695.74	1687.53
695.92	1609.70
696.10	1767.40
696.29	1746.92
696.47	1658.85
696.66	1583.08
696.84	1673.19
697.03	1673.19
697.21	1912.80
697.40	2357.21
697.58	1834.98
697.76	1638.38
697.95	1746.92
698.13	1726.44
698.32	1667.05
698.50	1701.86
698.68	1767.40
698.87	1650.66
699.05	1791.97
699.24	1724.39
699.42	1708.01
699.61	1763.30
699.79	1757.16
699.97	1767.40
700.16	1619.94
700.34	1742.82
700.53	1658.85
700.71	1810.40
700.89	1787.88
701.08	1665.00
701.26	1759.21
701.45	2023.39
701.63	1681.38
701.81	1675.24
702.00	1683.43
702.18	1677.29
702.37	1669.09
702.55	1718.25
702.73	1726.44
702.92	1615.85
703.10	1798.12
703.28	1730.53
703.47	1669.09
703.65	1720.29
703.84	1738.73
704.02	1701.86
704.20	1730.53
704.39	1650.66
704.57	1734.63
704.75	1734.63
704.94	1751.01
705.12	1726.44
705.30	1812.45
705.49	2250.72
705.67	4341.69
705.86	9394.03
706.04	12601.15
706.22	14473.00
706.41	15470.36
706.59	13907.76
706.77	9660.27
706.96	7376.78
707.14	6582.17
707.32	5992.36
707.51	5500.84
707.69	4841.40
707.87	4206.53
708.06	3512.27
708.24	2910.16
708.42	2377.69
708.61	2228.19
708.79	1890.28
708.97	1843.17
709.16	1812.45
709.34	1724.39
709.52	1738.73
709.71	1783.78
709.89	1775.59
710.07	1611.75
710.26	1681.38
710.44	1740.77
710.62	1697.77
710.80	1638.38
710.99	1812.45
711.17	1796.07
711.35	1669.09
711.54	1730.53
711.72	1849.32
711.90	1701.86
712.09	1748.97
712.27	1665.00
712.45	1757.16
712.63	1722.34
712.82	1685.48
713.00	1722.34
713.18	1718.25
713.37	1759.21
713.55	1748.97
713.73	1744.87
713.91	1716.20
714.10	1708.01
714.28	1722.34
714.46	1701.86
714.65	1748.97
714.83	1705.96
715.01	1728.49
715.19	1726.44
715.38	1705.96
715.56	1691.62
715.74	1656.81
715.92	1712.10
716.11	1810.40
716.29	1587.18
716.47	1624.04
716.65	1751.01
716.84	1546.22
717.02	1779.68
717.20	1675.24
717.38	1669.09
717.57	1697.77
717.75	1714.15
717.93	1607.66
718.11	1675.24
718.30	1630.18
718.48	1695.72
718.66	1755.11
718.84	1804.26
719.03	1720.29
719.21	1632.23
719.39	1847.27
719.57	1755.11
719.75	1824.74
719.94	1677.29
720.12	1675.24
720.30	1783.78
720.48	1763.30
720.67	1658.85
720.85	1642.47
721.03	1636.33
721.21	1640.42
721.39	1830.88
721.58	1763.30
721.76	1699.81
721.94	1724.39
722.12	1689.57
722.30	1777.64
722.49	1703.91
722.67	1699.81
722.85	1681.38
723.03	1603.56
723.21	1626.09
723.40	1708.01
723.58	1794.02
723.76	1730.53
723.94	1806.31
724.12	1662.95
724.30	1804.26
724.49	1785.83
724.67	1621.99
724.85	1691.62
725.03	1613.80
725.21	1765.35
725.40	1773.54
725.58	1679.33
725.76	1726.44
725.94	1695.72
726.12	1638.38
726.30	1718.25
726.49	1689.57
726.67	1615.85
726.85	1718.25
727.03	1746.92
727.21	2125.79
727.39	2858.96
727.57	3639.24
727.76	4212.67
727.94	4470.72
728.12	4298.69
728.30	3715.02
728.48	2973.65
728.66	2697.17
728.84	2494.43
729.03	2263.01
729.21	2121.70
729.39	2011.11
729.57	1812.45
729.75	1814.50
729.93	1808.36
730.11	1699.81
730.30	1611.75
730.48	1660.90
730.66	1841.12
730.84	1728.49
731.02	1740.77
731.20	1660.90
731.38	1683.43
731.56	1677.29
731.74	1685.48
731.93	1777.64
732.11	1636.33
732.29	1691.62
732.47	1736.68
732.65	1740.77
732.83	1787.88
733.01	1785.83
733.19	1687.53
733.37	1763.30
733.56	1744.87
733.74	1671.14
733.92	1845.22
734.10	1648.61
734.28	1775.59
734.46	1638.38
734.64	1603.56
734.82	1654.76
735.00	1652.71
735.18	1644.52
735.36	1695.72
735.54	1720.29
735.73	1708.01
735.91	1611.75
736.09	1773.54
736.27	1751.01
736.45	1724.39
736.63	1613.80
736.81	1714.15
736.99	1656.81
737.17	1806.31
737.35	1640.42
737.53	1624.04
737.71	1697.77
737.89	1779.68
738.07	1689.57
738.25	1611.75
738.43	1624.04
738.61	1738.73
738.80	1636.33
738.98	1611.75
739.16	1681.38
739.34	1644.52
739.52	1761.25
739.70	1697.77
739.88	1644.52
740.06	1697.77
740.24	1624.04
740.42	1779.68
740.60	1626.09
740.78	1697.77
740.96	1591.27
741.14	1654.76
741.32	1740.77
741.50	1636.33
741.68	1851.36
741.86	1736.68
742.04	1599.46
742.22	1585.13
742.40	1685.48
742.58	1710.05
742.76	1603.56
742.94	1759.21
743.12	1636.33
743.30	1753.06
743.48	1673.19
743.66	1644.52
743.84	1767.40
744.02	1751.01
744.20	1650.66
744.38	1660.90
744.56	1648.61
744.74	1785.83
744.92	1728.49
745.10	1769.44
745.28	1787.88
745.46	1667.05
745.64	1681.38
745.82	1710.05
746.00	1730.53
746.18	1800.16
746.36	1662.95
746.54	1677.29
746.72	1712.10
746.90	1697.77
747.08	1714.15
747.26	1693.67
747.44	1822.69
747.62	1716.20
747.80	1701.86
747.98	1775.59
748.15	1665.00
748.33	1708.01
748.51	1642.47
748.69	1744.87
748.87	1699.81
749.05	1697.77
749.23	1683.43
749.41	1697.77
749.59	1673.19
749.77	1701.86
749.95	1648.61
750.13	1640.42
750.31	1785.83
750.49	1705.96
750.67	1759.21
750.85	1798.12
751.03	1681.38
751.20	1816.55
751.38	1689.57
751.56	1681.38
751.74	1779.68
751.92	1701.86
752.10	1677.29
752.28	1722.34
752.46	1648.61
752.64	1701.86
752.82	1665.00
753.00	1828.84
753.18	1673.19
753.35	1695.72
753.53	1642.47
753.71	1744.87
753.89	1755.11
754.07	1736.68
754.25	1720.29
754.43	1742.82
754.61	1691.62
754.79	1775.59
754.97	1689.57
755.14	1726.44
755.32	1630.18
755.50	1726.44
755.68	1697.77
755.86	1617.90
756.04	1624.04
756.22	1548.26
756.40	1714.15
756.57	1771.49
756.75	1675.24
756.93	1800.16
757.11	1800.16
757.29	1599.46
757.47	1728.49
757.65	1593.32
757.82	1624.04
758.00	1615.85
758.18	1652.71
758.36	1626.09
758.54	1841.12
758.72	1611.75
758.90	1742.82
759.07	1734.63
759.25	1656.81
759.43	1759.21
759.61	1632.23
759.79	2209.76
759.97	1726.44
760.15	1632.23
760.32	1734.63
760.50	1738.73
760.68	1775.59
760.86	1681.38
761.04	1718.25
761.22	1746.92
761.39	1751.01
761.57	1687.53
761.75	1648.61
761.93	1734.63
762.11	1679.33
762.28	1740.77
762.46	1589.22
762.64	1712.10
762.82	1636.33
763.00	1681.38
763.18	1812.45
763.35	1673.19
763.53	1796.07
763.71	1722.34
763.89	1746.92
764.07	1720.29
764.24	1755.11
764.42	1740.77
764.60	1656.81
764.78	1697.77
764.96	1738.73
765.13	1691.62
765.31	1726.44
765.49	1777.64
765.67	1560.55
765.84	1609.70
766.02	1673.19
766.20	1597.42
766.38	1720.29
766.56	1665.00
766.73	1787.88
766.91	1665.00
767.09	1728.49
767.27	1755.11
767.44	1691.62
767.62	1738.73
767.80	1699.81
767.98	1673.19
768.15	1640.42
768.33	1761.25
768.51	1699.81
768.69	1630.18
768.87	1714.15
769.04	1652.71
769.22	1818.60
769.40	1800.16
769.58	1865.70
769.75	1724.39
769.93	1724.39
770.11	1701.86
770.28	1673.19
770.46	1689.57
770.64	1718.25
770.82	1697.77
770.99	1714.15
771.17	1703.91
771.35	1724.39
771.53	1736.68
771.70	1742.82
771.88	1759.21
772.06	1681.38
772.23	1665.00
772.41	1652.71
772.59	1755.11
772.77	1675.24
772.94	1642.47
773.12	1742.82
773.30	1632.23
773.47	1722.34
773.65	1693.67
773.83	1812.45
774.01	1660.90
774.18	1615.85
774.36	1701.86
774.54	1720.29
774.71	1675.24
774.89	1638.38
775.07	1677.29
775.24	1710.05
775.42	1705.96
775.60	1759.21
775.78	1697.77
775.95	1703.91
776.13	1634.28
776.31	1560.55
776.48	1720.29
776.66	1763.30
776.84	1701.86
777.01	1658.85
777.19	1665.00
777.37	1695.72
777.54	1689.57
777.72	1751.01
777.90	1781.73
778.07	1630.18
778.25	1834.98
778.43	1763.30
778.60	1652.71
778.78	1802.21
778.96	1734.63
779.13	1591.27
779.31	1769.44
779.49	1808.36
779.66	1683.43
779.84	1656.81
780.01	1705.96
780.19	1689.57
780.37	1761.25
780.54	1656.81
780.72	1642.47
780.90	1710.05
781.07	1673.19
781.25	1765.35
781.43	1886.18
781.60	1669.09
781.78	1716.20
781.95	1640.42
782.13	1722.34
782.31	1753.06
782.48	1513.45
782.66	1691.62
782.83	1732.58
783.01	1703.91
783.19	1726.44
783.36	1796.07
783.54	1630.18
783.72	1669.09
783.89	1677.29
784.07	1656.81
784.24	1775.59
784.42	1783.78
784.60	1673.19
784.77	1732.58
784.95	1628.14
785.12	1665.00
785.30	1632.23
785.47	1714.15
785.65	1636.33
785.83	1654.76
786.00	1701.86
786.18	1665.00
786.35	1689.57
786.53	1689.57
786.71	1736.68
786.88	1703.91
787.06	1689.57
787.23	1689.57
787.41	1613.80
787.58	1767.40
787.76	1642.47
787.94	1677.29
788.11	1785.83
788.29	1699.81
788.46	1673.19
788.64	1671.14
788.81	1572.84
788.99	1681.38
789.16	1677.29
789.34	1716.20
789.52	1665.00
789.69	1648.61
789.87	1617.90
790.04	1730.53
790.22	1687.53
790.39	1767.40
790.57	1685.48
790.74	1646.57
790.92	1820.64
791.09	1652.71
791.27	1718.25
791.44	1767.40
791.62	1740.77
791.79	1703.91
791.97	1652.71
792.15	1900.52
792.32	1705.96
792.50	1781.73
792.67	1695.72
792.85	1740.77
793.02	1691.62
793.20	1714.15
793.37	1628.14
793.55	1665.00
793.72	1613.80
793.90	1652.71
794.07	1714.15
794.25	1710.05
794.42	1679.33
794.60	1593.32
794.77	1710.05
794.95	1746.92
795.12	1714.15
795.30	1783.78
795.47	1611.75
795.65	1861.60
795.82	1671.14
796.00	1638.38
796.17	1656.81
796.34	1732.58
796.52	1738.73
796.69	1716.20
796.87	1816.55
797.04	1738.73
797.22	1769.44
797.39	1667.05
797.57	1701.86
797.74	1699.81
797.92	1738.73
798.09	1669.09
798.27	1746.92
798.44	1755.11
798.62	1695.72
798.79	1689.57
798.96	1742.82
799.14	1738.73
799.31	1828.84
799.49	1646.57
799.66	1714.15
799.84	1806.31
800.01	1660.90
800.19	1695.72
800.36	1558.50
800.53	1777.64
800.71	1689.57
800.88	1804.26
801.06	1718.25
801.23	1673.19
801.41	1712.10
801.58	1710.05
801.75	1708.01
801.93	1712.10
802.10	1675.24
802.28	1755.11
802.45	1724.39
802.63	1642.47
802.80	1810.40
802.97	1759.21
803.15	1722.34
803.32	1652.71
803.50	1599.46
803.67	1734.63
803.84	1634.28
804.02	1695.72
804.19	1720.29
804.37	1603.56
804.54	1615.85
804.71	1642.47
804.89	1703.91
805.06	1578.98
805.24	1525.74
805.41	1660.90
805.58	1628.14
805.76	1898.47
805.93	1662.95
806.10	1744.87
806.28	1697.77
806.45	1705.96
806.63	1660.90
806.80	1730.53
806.97	1683.43
807.15	1738.73
807.32	1658.85
807.49	1665.00
807.67	1578.98
807.84	1650.66
808.01	1578.98
808.19	1837.03
808.36	1810.40
808.54	1669.09
808.71	1673.19
808.88	1689.57
809.06	1736.68
809.23	1853.41
809.40	1656.81
809.58	1808.36
809.75	1726.44
809.92	1607.66
810.10	1882.08
810.27	1726.44
810.44	1669.09
810.62	1730.53
810.79	1667.05
810.96	1595.37
811.14	1654.76
811.31	1736.68
811.48	1615.85
811.66	1693.67
811.83	1761.25
812.00	1697.77
812.18	1746.92
812.35	1806.31
812.52	1681.38
812.69	1703.91
812.87	1662.95
813.04	1652.71
813.21	1777.64
813.39	1609.70
813.56	1648.61
813.73	1804.26
813.91	1542.12
814.08	1705.96
814.25	1662.95
814.42	1603.56
814.60	1738.73
814.77	1691.62
814.94	1685.48
815.12	1683.43
815.29	1632.23
815.46	1640.42
815.63	1681.38
815.81	1808.36
815.98	1619.94
816.15	1677.29
816.33	1681.38
816.50	1722.34
816.67	1675.24
816.84	1669.09
817.02	1673.19
817.19	1701.86
817.36	1712.10
817.53	1718.25
817.71	1710.05
817.88	1765.35
818.05	1683.43
818.22	1679.33
818.40	1832.93
818.57	1656.81
818.74	1693.67
818.91	1705.96
819.09	1730.53
819.26	1761.25
819.43	1599.46
819.60	1593.32
819.78	1699.81
819.95	1843.17
820.12	1572.84
820.29	1728.49
820.47	1701.86
820.64	1607.66
820.81	1621.99
820.98	1613.80
821.15	1605.61
821.33	1771.49
821.50	1656.81
821.67	1697.77
821.84	1673.19
822.02	1693.67
822.19	1755.11
822.36	1626.09
822.53	1699.81
822.70	1583.08
822.88	1660.90
823.05	1718.25
823.22	1724.39
823.39	1724.39
823.56	1667.05
823.74	1779.68
823.91	1558.50
824.08	1628.14
824.25	1644.52
824.42	1748.97
824.60	1667.05
824.77	1703.91
824.94	1716.20
825.11	1773.54
825.28	1591.27
825.45	1697.77
825.63	1728.49
825.80	1699.81
825.97	1648.61
826.14	1617.90
826.31	1648.61
826.48	1734.63
826.66	1636.33
826.83	1634.28
827.00	1726.44
827.17	1591.27
827.34	1671.14
827.51	1669.09
827.69	1679.33
827.86	1626.09
828.03	1689.57
828.20	1738.73
828.37	1660.90
828.54	1742.82
828.71	1736.68
828.89	1816.55
829.06	1718.25
829.23	1796.07
829.40	1687.53
829.57	1689.57
829.74	1650.66
829.91	1589.22
830.09	1679.33
830.26	1658.85
830.43	1763.30
830.60	1710.05
830.77	1740.77
830.94	1779.68
831.11	1753.06
831.28	1685.48
831.46	1740.77
831.63	1646.57
831.80	1728.49
831.97	1705.96
832.14	1662.95
832.31	1720.29
832.48	1660.90
832.65	1726.44
832.82	1677.29
832.99	1691.62
833.17	1628.14
833.34	1832.93
833.51	1730.53
833.68	1550.31
833.85	1757.16
834.02	1648.61
834.19	1693.67
834.36	1621.99
834.53	1777.64
834.70	1773.54
834.87	1773.54
835.04	1640.42
835.22	1742.82
835.39	1611.75
835.56	1648.61
835.73	1632.23
835.90	1746.92
836.07	1648.61
836.24	1732.58
836.41	1630.18
836.58	1626.09
836.75	1759.21
836.92	1808.36
837.09	1660.90
837.26	1683.43
837.43	1738.73
837.60	1765.35
837.77	1685.48
837.94	1757.16
838.12	1689.57
838.29	1714.15
838.46	1667.05
838.63	1654.76
838.80	1759.21
838.97	1738.73
839.14	1726.44
839.31	1656.81
839.48	1722.34
839.65	1675.24
839.82	1671.14
839.99	1738.73
840.16	1667.05
840.33	1658.85
840.50	1685.48
840.67	1660.90
840.84	1615.85
841.01	1636.33
841.18	1636.33
841.35	1714.15
841.52	1779.68
841.69	1808.36
841.86	1628.14
842.03	1636.33
842.20	1812.45
842.37	1654.76
842.54	1658.85
842.71	1644.52
842.88	1617.90
843.05	1763.30
843.22	1665.00
843.39	1665.00
843.56	1648.61
843.73	1726.44
843.90	1761.25
844.07	1726.44
844.24	1738.73
844.41	1726.44
844.58	1669.09
844.75	1699.81
844.92	1746.92
845.09	1677.29
845.26	1634.28
845.43	1710.05
845.60	1714.15
845.77	1724.39
845.94	1689.57
846.10	1802.21
846.27	1591.27
846.44	1628.14
846.61	1708.01
846.78	1716.20
846.95	1724.39
847.12	1681.38
847.29	1712.10
847.46	1595.37
847.63	1775.59
847.80	1685.48
847.97	1710.05
848.14	1810.40
848.31	1595.37
848.48	1673.19
848.65	1722.34
848.82	1636.33
848.98	1824.74
849.15	1804.26
849.32	1777.64
849.49	1658.85
849.66	1726.44
849.83	1679.33
850.00	1708.01
850.17	1683.43
850.34	1697.77
850.51	1683.43
850.68	1644.52
850.85	1816.55
851.01	1730.53
851.18	1701.86
851.35	1603.56
851.52	1732.58
851.69	1810.40
851.86	1613.80
852.03	1677.29
852.20	1730.53
852.37	1716.20
852.53	1607.66
852.70	1619.94
852.87	1705.96
853.04	1734.63
853.21	1683.43
853.38	1761.25
853.55	1759.21
853.72	1734.63
853.89	1613.80
854.05	1669.09
854.22	1646.57
854.39	1654.76
854.56	1701.86
854.73	1837.03
854.90	1673.19
855.07	1744.87
855.23	1677.29
855.40	1683.43
855.57	1689.57
855.74	1570.79
855.91	1880.04
856.08	1658.85
856.25	1642.47
856.41	1679.33
856.58	1662.95
856.75	1679.33
856.92	1615.85
857.09	1697.77
857.26	1589.22
857.42	1681.38
857.59	1763.30
857.76	1679.33
857.93	1748.97
858.10	1726.44
858.27	1646.57
858.43	1679.33
858.60	1611.75
858.77	1640.42
858.94	1701.86
859.11	1681.38
859.27	1662.95
859.44	1746.92
859.61	1783.78
859.78	1736.68
859.95	1607.66
860.12	1658.85
860.28	1703.91
860.45	1779.68
860.62	1619.94
860.79	1683.43
860.95	1738.73
861.12	1691.62
861.29	1648.61
861.46	1646.57
861.63	1712.10
861.79	1628.14
861.96	1603.56
862.13	1689.57
862.30	1710.05
862.47	1640.42
862.63	1617.90
862.80	1732.58
862.97	1753.06
863.14	1683.43
863.30	1742.82
863.47	1656.81
863.64	1775.59
863.81	1669.09
863.97	1765.35
864.14	1708.01
864.31	1658.85
864.48	1757.16
864.65	1677.29
864.81	1779.68
864.98	1665.00
865.15	1763.30
865.32	1648.61
865.48	1677.29
865.65	1822.69
865.82	1591.27
865.98	1708.01
866.15	1742.82
866.32	1726.44
866.49	1718.25
866.65	1734.63
866.82	1636.33
866.99	1681.38
867.16	1621.99
867.32	1605.61
867.49	1667.05
867.66	1701.86
867.83	1609.70
867.99	1585.13
868.16	1658.85
868.33	1658.85
868.49	1708.01
868.66	1656.81
868.83	1796.07
868.99	1740.77
869.16	1624.04
869.33	1775.59
869.50	1695.72
869.66	1681.38
869.83	1712.10
870.00	1669.09
870.16	1724.39
870.33	1710.05
870.50	1818.60
870.66	1689.57
870.83	1810.40
871.00	1701.86
871.17	1755.11
871.33	1738.73
871.50	1621.99
871.67	1603.56
871.83	1624.04
872.00	1779.68
872.17	1695.72
872.33	1771.49
872.50	1755.11
872.67	1599.46
872.83	1658.85
873.00	1712.10
873.17	1654.76
873.33	1763.30
873.50	1746.92
873.67	1685.48
873.83	1621.99
874.00	1685.48
874.16	1722.34
874.33	1732.58
874.50	1642.47
874.66	1712.10
874.83	1726.44
875.00	1732.58
875.16	1798.12
875.33	1800.16
875.50	1626.09
875.66	1619.94
875.83	1730.53
875.99	1720.29
876.16	1730.53
876.33	1642.47
876.49	1785.83
876.66	1748.97
876.83	1691.62
876.99	1665.00
877.16	1693.67
877.32	1632.23
877.49	1658.85
877.66	1689.57
877.82	1800.16
877.99	1699.81
878.15	1751.01
878.32	1728.49
878.49	1722.34
878.65	1652.71
878.82	1814.50
878.98	1630.18
879.15	1757.16
879.32	1744.87
879.48	1732.58
879.65	1665.00
879.81	1665.00
879.98	1691.62
880.15	1691.62
880.31	1767.40
880.48	1667.05
880.64	1767.40
880.81	1742.82
880.97	1791.97
881.14	1775.59
881.31	1712.10
881.47	1853.41
881.64	1652.71
881.80	1570.79
881.97	1761.25
882.13	1832.93
882.30	1699.81
882.47	1646.57
882.63	1640.42
882.80	1710.05
882.96	1642.47
883.13	1818.60
883.29	1630.18
883.46	1716.20
883.62	1746.92
883.79	1730.53
883.95	1751.01
884.12	1609.70
884.29	1779.68
884.45	1730.53
884.62	1781.73
884.78	1652.71
884.95	1783.78
885.11	1724.39
885.28	1703.91
885.44	1673.19
885.61	1667.05
885.77	1746.92
885.94	1724.39
886.10	1736.68
886.27	1679.33
886.43	1822.69
886.60	1712.10
886.76	1662.95
886.93	1650.66
887.09	1714.15
887.26	1644.52
887.42	1669.09
887.59	1722.34
887.75	1806.31
887.92	1722.34
888.08	1703.91
888.25	1800.16
888.41	1710.05
888.58	1652.71
888.74	1677.29
888.91	1603.56
>>>>>End Processed Spectral Data<<<<<
