SpectraSuite Data File
++++++++++++++++++++++++++++++++++++
Date: Mon Jun 06 16:46:37 CEST 2016
User: root
Dark Spectrum Present: No
Reference Spectrum Present: No
Number of Sampled Component Spectra: 1
Spectrometers: USB4C02835
Integration Time (usec): 100000 (USB4C02835)
Spectra Averaged: 1 (USB4C02835)
Boxcar Smoothing: 0 (USB4C02835)
Correct for Electrical Dark: No (USB4C02835)
Strobe/Lamp Enabled: No (USB4C02835)
Correct for Detector Non-linearity: No (USB4C02835)
Correct for Stray Light: No (USB4C02835)
Number of Pixels in Processed Spectrum: 3648
>>>>>Begin Processed Spectral Data<<<<<
177.47	1490.92
177.69	1490.92
177.91	1490.92
178.13	1468.39
178.36	1476.59
178.58	1654.76
178.80	1755.11
179.02	1636.33
179.24	1669.09
179.46	1689.57
179.68	1755.11
179.90	1751.01
180.13	1685.48
180.35	1671.14
180.57	1669.09
180.79	1755.11
181.01	1736.68
181.23	1742.82
181.45	1757.16
181.67	1703.91
181.90	1734.63
182.12	1683.43
182.34	1566.70
182.56	1716.20
182.78	1765.35
183.00	1695.72
183.22	1722.34
183.44	1640.42
183.66	1890.28
183.89	1785.83
184.11	1759.21
184.33	1728.49
184.55	1753.06
184.77	1742.82
184.99	1675.24
185.21	1730.53
185.43	1834.98
185.65	1740.77
185.87	1722.34
186.10	1771.49
186.32	1804.26
186.54	1755.11
186.76	1740.77
186.98	1740.77
187.20	1730.53
187.42	1697.77
187.64	1708.01
187.86	1720.29
188.08	1648.61
188.30	1701.86
188.52	1685.48
188.75	1775.59
188.97	1798.12
189.19	1691.62
189.41	1757.16
189.63	1751.01
189.85	1722.34
190.07	1640.42
190.29	1683.43
190.51	1697.77
190.73	1630.18
190.95	1757.16
191.17	1665.00
191.39	1607.66
191.61	1683.43
191.84	1716.20
192.06	1689.57
192.28	1691.62
192.50	1886.18
192.72	1673.19
192.94	1755.11
193.16	1730.53
193.38	1779.68
193.60	1712.10
193.82	1652.71
194.04	1753.06
194.26	1753.06
194.48	1751.01
194.70	1699.81
194.92	1652.71
195.14	1777.64
195.36	1742.82
195.58	1658.85
195.80	1685.48
196.02	1681.38
196.24	1695.72
196.46	1773.54
196.69	1644.52
196.91	1855.46
197.13	1744.87
197.35	1677.29
197.57	1830.88
197.79	1710.05
198.01	1675.24
198.23	1800.16
198.45	1769.44
198.67	1671.14
198.89	1710.05
199.11	1716.20
199.33	1660.90
199.55	1572.84
199.77	1681.38
199.99	1746.92
200.21	1677.29
200.43	1718.25
200.65	1587.18
200.87	1552.36
201.09	1771.49
201.31	1705.96
201.53	1732.58
201.75	1689.57
201.97	1746.92
202.19	1691.62
202.41	1755.11
202.63	1859.56
202.85	1787.88
203.07	1722.34
203.29	1658.85
203.51	1585.13
203.73	1705.96
203.95	1859.56
204.17	1761.25
204.39	1769.44
204.61	1697.77
204.83	1691.62
205.05	1722.34
205.27	1781.73
205.49	1785.83
205.71	1644.52
205.93	1636.33
206.15	1681.38
206.37	1708.01
206.59	1742.82
206.81	1685.48
207.03	1689.57
207.25	1613.80
207.47	1787.88
207.69	1755.11
207.91	1763.30
208.13	1822.69
208.34	1638.38
208.56	1617.90
208.78	1738.73
209.00	1636.33
209.22	1681.38
209.44	1705.96
209.66	1791.97
209.88	1665.00
210.10	1619.94
210.32	1755.11
210.54	1714.15
210.76	1681.38
210.98	1812.45
211.20	1566.70
211.42	1742.82
211.64	1810.40
211.86	1724.39
212.08	1738.73
212.30	1746.92
212.52	1662.95
212.74	1769.44
212.96	1722.34
213.17	1759.21
213.39	1726.44
213.61	1798.12
213.83	1736.68
214.05	1597.42
214.27	1791.97
214.49	1624.04
214.71	1695.72
214.93	1820.64
215.15	1658.85
215.37	1812.45
215.59	1650.66
215.81	1650.66
216.03	1746.92
216.24	1652.71
216.46	1767.40
216.68	1726.44
216.90	1677.29
217.12	1843.17
217.34	1789.92
217.56	1816.55
217.78	1804.26
218.00	1699.81
218.22	1646.57
218.44	1791.97
218.66	1701.86
218.87	1791.97
219.09	1587.18
219.31	1755.11
219.53	1738.73
219.75	1671.14
219.97	1699.81
220.19	1705.96
220.41	1667.05
220.63	1812.45
220.85	1697.77
221.06	1681.38
221.28	1830.88
221.50	1703.91
221.72	1660.90
221.94	1765.35
222.16	1732.58
222.38	1714.15
222.60	1751.01
222.82	1705.96
223.03	1728.49
223.25	1632.23
223.47	1812.45
223.69	1808.36
223.91	1800.16
224.13	1714.15
224.35	1718.25
224.57	1800.16
224.78	1796.07
225.00	1662.95
225.22	1681.38
225.44	1683.43
225.66	1757.16
225.88	1697.77
226.10	1757.16
226.32	1710.05
226.53	1800.16
226.75	1697.77
226.97	1705.96
227.19	1785.83
227.41	1673.19
227.63	1693.67
227.85	1658.85
228.06	1624.04
228.28	1722.34
228.50	1712.10
228.72	1693.67
228.94	1763.30
229.16	1562.60
229.37	1619.94
229.59	1652.71
229.81	1808.36
230.03	1730.53
230.25	1701.86
230.47	1665.00
230.69	1554.41
230.90	1767.40
231.12	1732.58
231.34	1755.11
231.56	1753.06
231.78	1748.97
232.00	1658.85
232.21	1626.09
232.43	1718.25
232.65	1662.95
232.87	1746.92
233.09	1656.81
233.30	1665.00
233.52	1705.96
233.74	1748.97
233.96	1679.33
234.18	1779.68
234.40	1656.81
234.61	1853.41
234.83	1595.37
235.05	1615.85
235.27	1871.84
235.49	1789.92
235.70	1732.58
235.92	1796.07
236.14	1703.91
236.36	1849.32
236.58	1667.05
236.79	1765.35
237.01	1703.91
237.23	1718.25
237.45	1820.64
237.67	1652.71
237.88	1644.52
238.10	1755.11
238.32	1607.66
238.54	1746.92
238.76	1648.61
238.97	1669.09
239.19	1685.48
239.41	1734.63
239.63	1742.82
239.85	1712.10
240.06	1679.33
240.28	1730.53
240.50	1755.11
240.72	1824.74
240.93	1740.77
241.15	1781.73
241.37	1703.91
241.59	1834.98
241.81	1615.85
242.02	1687.53
242.24	1726.44
242.46	1781.73
242.68	1736.68
242.89	1730.53
243.11	1746.92
243.33	1626.09
243.55	1755.11
243.76	1765.35
243.98	1660.90
244.20	1693.67
244.42	1742.82
244.64	1683.43
244.85	1630.18
245.07	1626.09
245.29	1771.49
245.51	1763.30
245.72	1746.92
245.94	1796.07
246.16	1773.54
246.38	1730.53
246.59	1685.48
246.81	1642.47
247.03	1771.49
247.24	1529.83
247.46	1767.40
247.68	1718.25
247.90	1669.09
248.11	1658.85
248.33	1820.64
248.55	1695.72
248.77	1667.05
248.98	1779.68
249.20	1738.73
249.42	1675.24
249.64	1693.67
249.85	1732.58
250.07	1650.66
250.29	1710.05
250.50	1794.02
250.72	1624.04
250.94	1771.49
251.16	1818.60
251.37	1787.88
251.59	1646.57
251.81	1703.91
252.02	1800.16
252.24	1671.14
252.46	1841.12
252.68	1681.38
252.89	1658.85
253.11	1609.70
253.33	1781.73
253.54	1779.68
253.76	1619.94
253.98	1703.91
254.20	1714.15
254.41	1636.33
254.63	1687.53
254.85	1615.85
255.06	1742.82
255.28	1738.73
255.50	1705.96
255.71	1617.90
255.93	1675.24
256.15	1673.19
256.36	1701.86
256.58	1740.77
256.80	1673.19
257.02	1691.62
257.23	1656.81
257.45	1693.67
257.67	1794.02
257.88	1697.77
258.10	1781.73
258.32	1759.21
258.53	1708.01
258.75	1816.55
258.97	1732.58
259.18	1685.48
259.40	1773.54
259.62	1865.70
259.83	1818.60
260.05	1761.25
260.27	1992.67
260.48	1757.16
260.70	1576.94
260.92	1636.33
261.13	1746.92
261.35	1681.38
261.57	1775.59
261.78	1646.57
262.00	1677.29
262.22	1689.57
262.43	1671.14
262.65	1677.29
262.86	1701.86
263.08	1902.56
263.30	1718.25
263.51	1667.05
263.73	1683.43
263.95	1820.64
264.16	1671.14
264.38	1656.81
264.60	1740.77
264.81	1667.05
265.03	1716.20
265.25	1802.21
265.46	1716.20
265.68	1730.53
265.89	1691.62
266.11	1656.81
266.33	1802.21
266.54	1734.63
266.76	1695.72
266.98	1738.73
267.19	1798.12
267.41	1759.21
267.62	1724.39
267.84	1658.85
268.06	1734.63
268.27	1732.58
268.49	1822.69
268.70	1761.25
268.92	1738.73
269.14	1671.14
269.35	1718.25
269.57	1689.57
269.79	1732.58
270.00	1689.57
270.22	1712.10
270.43	1683.43
270.65	1624.04
270.87	1740.77
271.08	1751.01
271.30	1775.59
271.51	1724.39
271.73	1714.15
271.95	1828.84
272.16	1695.72
272.38	1787.88
272.59	1665.00
272.81	1757.16
273.02	1708.01
273.24	1687.53
273.46	1671.14
273.67	1675.24
273.89	1757.16
274.10	1693.67
274.32	1734.63
274.54	1640.42
274.75	1751.01
274.97	1675.24
275.18	1714.15
275.40	1755.11
275.61	1669.09
275.83	1671.14
276.05	1671.14
276.26	1656.81
276.48	1736.68
276.69	1669.09
276.91	1671.14
277.12	1785.83
277.34	1755.11
277.55	1763.30
277.77	1744.87
277.99	1681.38
278.20	1581.03
278.42	1630.18
278.63	1644.52
278.85	1652.71
279.06	1640.42
279.28	1753.06
279.49	1787.88
279.71	1787.88
279.93	1787.88
280.14	1746.92
280.36	1662.95
280.57	1783.78
280.79	1753.06
281.00	1630.18
281.22	1650.66
281.43	1789.92
281.65	1611.75
281.86	1587.18
282.08	1773.54
282.29	1851.36
282.51	1613.80
282.73	1628.14
282.94	1662.95
283.16	1757.16
283.37	1746.92
283.59	1646.57
283.80	1757.16
284.02	1755.11
284.23	1689.57
284.45	1638.38
284.66	1685.48
284.88	1687.53
285.09	1783.78
285.31	1779.68
285.52	1720.29
285.74	1640.42
285.95	1771.49
286.17	1716.20
286.38	1804.26
286.60	1665.00
286.81	1722.34
287.03	1722.34
287.24	1705.96
287.46	1730.53
287.67	1744.87
287.89	1857.51
288.10	1701.86
288.32	1708.01
288.53	1763.30
288.75	1802.21
288.96	1728.49
289.18	1671.14
289.39	1716.20
289.61	1781.73
289.82	1839.08
290.04	1834.98
290.25	1652.71
290.47	1667.05
290.68	1667.05
290.90	1796.07
291.11	1687.53
291.33	1789.92
291.54	1632.23
291.76	1740.77
291.97	1791.97
292.18	1724.39
292.40	1689.57
292.61	1705.96
292.83	1867.75
293.04	1738.73
293.26	1753.06
293.47	1740.77
293.69	1656.81
293.90	1677.29
294.12	1802.21
294.33	1683.43
294.55	1714.15
294.76	1814.50
294.97	1796.07
295.19	1824.74
295.40	1693.67
295.62	1708.01
295.83	1763.30
296.05	1712.10
296.26	1779.68
296.48	1669.09
296.69	1681.38
296.90	1740.77
297.12	1849.32
297.33	1765.35
297.55	1716.20
297.76	1738.73
297.98	1736.68
298.19	1644.52
298.41	1720.29
298.62	1667.05
298.83	1822.69
299.05	1773.54
299.26	1679.33
299.48	1693.67
299.69	1798.12
299.90	1708.01
300.12	1669.09
300.33	1781.73
300.55	1779.68
300.76	1695.72
300.98	1587.18
301.19	1722.34
301.40	1724.39
301.62	1732.58
301.83	1705.96
302.05	1769.44
302.26	1656.81
302.47	1695.72
302.69	1624.04
302.90	1726.44
303.12	1570.79
303.33	1751.01
303.54	1875.94
303.76	1621.99
303.97	1724.39
304.19	1812.45
304.40	1665.00
304.61	1763.30
304.83	1787.88
305.04	1720.29
305.26	1691.62
305.47	1691.62
305.68	1701.86
305.90	1648.61
306.11	1773.54
306.33	1726.44
306.54	1650.66
306.75	1701.86
306.97	1644.52
307.18	1630.18
307.39	1689.57
307.61	1798.12
307.82	1767.40
308.04	1724.39
308.25	1656.81
308.46	1701.86
308.68	1724.39
308.89	1705.96
309.10	1751.01
309.32	1689.57
309.53	1703.91
309.74	1703.91
309.96	1630.18
310.17	1789.92
310.39	1621.99
310.60	1712.10
310.81	1701.86
311.03	1652.71
311.24	1769.44
311.45	1724.39
311.67	1822.69
311.88	1742.82
312.09	1667.05
312.31	1665.00
312.52	1714.15
312.73	1687.53
312.95	1615.85
313.16	1650.66
313.37	1841.12
313.59	1697.77
313.80	1787.88
314.01	1841.12
314.23	1660.90
314.44	1675.24
314.65	1697.77
314.87	1681.38
315.08	1679.33
315.29	1740.77
315.51	1656.81
315.72	1677.29
315.93	1761.25
316.15	1755.11
316.36	1673.19
316.57	1697.77
316.79	1748.97
317.00	1742.82
317.21	1720.29
317.43	1617.90
317.64	1699.81
317.85	1693.67
318.07	1669.09
318.28	1732.58
318.49	1787.88
318.70	1888.23
318.92	1714.15
319.13	1853.41
319.34	1769.44
319.56	1867.75
319.77	1832.93
319.98	1812.45
320.20	1773.54
320.41	1781.73
320.62	1781.73
320.83	1578.98
321.05	1906.66
321.26	1714.15
321.47	1673.19
321.69	1746.92
321.90	1726.44
322.11	1669.09
322.32	1685.48
322.54	1779.68
322.75	1705.96
322.96	1822.69
323.18	1640.42
323.39	1550.31
323.60	1681.38
323.81	1787.88
324.03	1701.86
324.24	1742.82
324.45	1638.38
324.66	1714.15
324.88	1773.54
325.09	1787.88
325.30	1753.06
325.52	1724.39
325.73	1691.62
325.94	1628.14
326.15	1599.46
326.37	1681.38
326.58	1789.92
326.79	1845.22
327.00	1669.09
327.22	1769.44
327.43	1650.66
327.64	1662.95
327.85	1710.05
328.07	1787.88
328.28	1728.49
328.49	1742.82
328.70	1722.34
328.92	1640.42
329.13	1705.96
329.34	1730.53
329.55	1763.30
329.76	1771.49
329.98	1619.94
330.19	1726.44
330.40	1669.09
330.61	1751.01
330.83	1755.11
331.04	1617.90
331.25	1716.20
331.46	1726.44
331.68	1624.04
331.89	1818.60
332.10	1644.52
332.31	1636.33
332.52	1669.09
332.74	1794.02
332.95	1642.47
333.16	1675.24
333.37	1742.82
333.58	1712.10
333.80	1613.80
334.01	1632.23
334.22	1621.99
334.43	1667.05
334.64	1691.62
334.86	1630.18
335.07	1687.53
335.28	1796.07
335.49	1638.38
335.70	1736.68
335.92	1789.92
336.13	1839.08
336.34	1789.92
336.55	1685.48
336.76	1722.34
336.98	1576.94
337.19	1744.87
337.40	1814.50
337.61	1796.07
337.82	1732.58
338.04	1755.11
338.25	1632.23
338.46	1642.47
338.67	1757.16
338.88	1710.05
339.09	1626.09
339.31	1685.48
339.52	1605.61
339.73	1740.77
339.94	1744.87
340.15	1769.44
340.36	1742.82
340.58	1650.66
340.79	1648.61
341.00	1720.29
341.21	1718.25
341.42	1794.02
341.63	1722.34
341.85	1765.35
342.06	1759.21
342.27	1632.23
342.48	1759.21
342.69	1628.14
342.90	1748.97
343.12	1681.38
343.33	1730.53
343.54	1763.30
343.75	1810.40
343.96	1777.64
344.17	1642.47
344.38	1621.99
344.60	1619.94
344.81	1728.49
345.02	1744.87
345.23	1746.92
345.44	1798.12
345.65	1710.05
345.86	1693.67
346.07	1718.25
346.29	1662.95
346.50	1675.24
346.71	1697.77
346.92	1812.45
347.13	1871.84
347.34	1677.29
347.55	1687.53
347.76	1656.81
347.98	1732.58
348.19	1718.25
348.40	1828.84
348.61	1712.10
348.82	1781.73
349.03	1822.69
349.24	1632.23
349.45	1826.79
349.66	1681.38
349.88	1714.15
350.09	1656.81
350.30	1787.88
350.51	1763.30
350.72	1761.25
350.93	1759.21
351.14	1748.97
351.35	1794.02
351.56	1705.96
351.77	1656.81
351.99	1662.95
352.20	1812.45
352.41	1740.77
352.62	1609.70
352.83	1685.48
353.04	1703.91
353.25	1720.29
353.46	1689.57
353.67	1845.22
353.88	1601.51
354.09	1759.21
354.30	1689.57
354.52	1671.14
354.73	1718.25
354.94	1628.14
355.15	1705.96
355.36	1837.03
355.57	1724.39
355.78	1722.34
355.99	1705.96
356.20	1732.58
356.41	1800.16
356.62	1742.82
356.83	1669.09
357.04	1767.40
357.25	1660.90
357.46	1759.21
357.68	1685.48
357.89	1628.14
358.10	1630.18
358.31	1695.72
358.52	1691.62
358.73	1603.56
358.94	1679.33
359.15	1705.96
359.36	1640.42
359.57	1726.44
359.78	1669.09
359.99	1728.49
360.20	1683.43
360.41	1652.71
360.62	1753.06
360.83	1710.05
361.04	1804.26
361.25	1769.44
361.46	1742.82
361.67	1693.67
361.88	1693.67
362.09	1789.92
362.30	1724.39
362.51	1708.01
362.72	1701.86
362.93	1796.07
363.14	1708.01
363.35	1722.34
363.56	1640.42
363.78	1751.01
363.99	1779.68
364.20	1681.38
364.41	1687.53
364.62	1755.11
364.83	1867.75
365.04	1634.28
365.25	1691.62
365.46	1765.35
365.67	1673.19
365.88	1656.81
366.09	1748.97
366.30	1701.86
366.51	1763.30
366.72	1716.20
366.93	1714.15
367.14	1753.06
367.35	1718.25
367.56	1687.53
367.77	1863.65
367.98	1714.15
368.18	1755.11
368.39	1677.29
368.60	1691.62
368.81	1789.92
369.02	1757.16
369.23	1660.90
369.44	1634.28
369.65	1642.47
369.86	1644.52
370.07	1746.92
370.28	1564.65
370.49	1777.64
370.70	1771.49
370.91	1613.80
371.12	1613.80
371.33	1701.86
371.54	1701.86
371.75	1794.02
371.96	1708.01
372.17	1765.35
372.38	1763.30
372.59	1691.62
372.80	1710.05
373.01	1710.05
373.22	1761.25
373.43	1642.47
373.64	1587.18
373.85	1775.59
374.06	1832.93
374.26	1753.06
374.47	1832.93
374.68	1781.73
374.89	1730.53
375.10	1671.14
375.31	1777.64
375.52	1679.33
375.73	1730.53
375.94	1675.24
376.15	1830.88
376.36	1710.05
376.57	1624.04
376.78	1597.42
376.99	1773.54
377.20	1781.73
377.40	1740.77
377.61	1824.74
377.82	1599.46
378.03	1777.64
378.24	1732.58
378.45	1675.24
378.66	1789.92
378.87	1640.42
379.08	1710.05
379.29	1640.42
379.50	1791.97
379.71	1679.33
379.91	1763.30
380.12	1695.72
380.33	1718.25
380.54	1742.82
380.75	1677.29
380.96	1683.43
381.17	1742.82
381.38	1712.10
381.59	1728.49
381.80	1814.50
382.00	1775.59
382.21	1757.16
382.42	1761.25
382.63	1886.18
382.84	1781.73
383.05	1765.35
383.26	1873.89
383.47	1660.90
383.68	1671.14
383.88	1738.73
384.09	1767.40
384.30	1906.66
384.51	1693.67
384.72	1712.10
384.93	1697.77
385.14	1662.95
385.35	1726.44
385.55	1628.14
385.76	1718.25
385.97	1665.00
386.18	1650.66
386.39	1724.39
386.60	1722.34
386.81	1691.62
387.02	1701.86
387.22	1642.47
387.43	1775.59
387.64	1785.83
387.85	1828.84
388.06	2197.47
388.27	4327.36
388.48	6854.55
388.68	8214.40
388.89	9731.95
389.10	9824.11
389.31	8849.27
389.52	7542.67
389.73	6834.07
389.93	6123.43
390.14	5908.39
390.35	5201.84
390.56	4519.87
390.77	3827.65
390.98	3028.95
391.18	2607.06
391.39	2136.03
391.60	1847.27
391.81	1877.99
392.02	1701.86
392.23	1865.70
392.43	1746.92
392.64	1814.50
392.85	1675.24
393.06	1808.36
393.27	1705.96
393.47	1658.85
393.68	1789.92
393.89	1806.31
394.10	1822.69
394.31	1757.16
394.52	1671.14
394.72	1667.05
394.93	1769.44
395.14	1677.29
395.35	1800.16
395.56	1669.09
395.76	1765.35
395.97	1804.26
396.18	1781.73
396.39	1791.97
396.60	1998.82
396.80	1982.43
397.01	1886.18
397.22	1871.84
397.43	1826.79
397.64	1765.35
397.84	1859.56
398.05	1834.98
398.26	1748.97
398.47	1806.31
398.67	1863.65
398.88	1677.29
399.09	1755.11
399.30	1736.68
399.51	1726.44
399.71	1705.96
399.92	1744.87
400.13	1753.06
400.34	1626.09
400.54	1751.01
400.75	1818.60
400.96	1732.58
401.17	1855.46
401.37	1724.39
401.58	1710.05
401.79	1808.36
402.00	1791.97
402.21	2011.11
402.41	1976.29
402.62	1976.29
402.83	2062.30
403.04	2007.01
403.24	1996.77
403.45	1751.01
403.66	1916.90
403.87	1894.37
404.07	1947.62
404.28	1871.84
404.49	1910.75
404.70	1761.25
404.90	1718.25
405.11	1806.31
405.32	1771.49
405.52	1705.96
405.73	1667.05
405.94	1685.48
406.15	1658.85
406.35	1710.05
406.56	1746.92
406.77	1701.86
406.98	1779.68
407.18	1691.62
407.39	1804.26
407.60	1626.09
407.80	1785.83
408.01	1722.34
408.22	1757.16
408.43	1753.06
408.63	1677.29
408.84	1755.11
409.05	1658.85
409.25	1728.49
409.46	1683.43
409.67	1650.66
409.88	1673.19
410.08	1689.57
410.29	1714.15
410.50	1656.81
410.70	1716.20
410.91	1638.38
411.12	1718.25
411.32	1783.78
411.53	1660.90
411.74	1738.73
411.95	1761.25
412.15	1794.02
412.36	1818.60
412.57	1824.74
412.77	1777.64
412.98	1800.16
413.19	1687.53
413.39	1742.82
413.60	1771.49
413.81	1796.07
414.01	1716.20
414.22	1775.59
414.43	1728.49
414.63	1712.10
414.84	1822.69
415.05	1734.63
415.25	1621.99
415.46	1744.87
415.67	1736.68
415.87	1753.06
416.08	1759.21
416.29	1667.05
416.49	1746.92
416.70	1656.81
416.91	1652.71
417.11	1718.25
417.32	1779.68
417.53	1773.54
417.73	1673.19
417.94	1705.96
418.15	1716.20
418.35	1761.25
418.56	1738.73
418.77	1847.27
418.97	1810.40
419.18	1705.96
419.38	1615.85
419.59	1740.77
419.80	1826.79
420.00	1675.24
420.21	1714.15
420.42	1705.96
420.62	1806.31
420.83	1722.34
421.04	1769.44
421.24	1681.38
421.45	1703.91
421.65	1755.11
421.86	1679.33
422.07	1769.44
422.27	1755.11
422.48	1810.40
422.69	1699.81
422.89	1740.77
423.10	1652.71
423.30	1665.00
423.51	1718.25
423.72	1751.01
423.92	1730.53
424.13	1648.61
424.33	1730.53
424.54	1734.63
424.75	1710.05
424.95	1828.84
425.16	1783.78
425.36	1787.88
425.57	1695.72
425.78	1708.01
425.98	1773.54
426.19	1724.39
426.39	1613.80
426.60	1671.14
426.81	1804.26
427.01	1730.53
427.22	1673.19
427.42	1660.90
427.63	1630.18
427.83	1753.06
428.04	1791.97
428.25	1814.50
428.45	1796.07
428.66	1787.88
428.86	1669.09
429.07	1753.06
429.28	1734.63
429.48	1693.67
429.69	1703.91
429.89	1742.82
430.10	1667.05
430.30	1693.67
430.51	1787.88
430.71	1665.00
430.92	1732.58
431.13	1677.29
431.33	1744.87
431.54	1662.95
431.74	1744.87
431.95	1812.45
432.15	1601.51
432.36	1689.57
432.56	1703.91
432.77	1832.93
432.98	1814.50
433.18	1755.11
433.39	1681.38
433.59	1630.18
433.80	1810.40
434.00	1851.36
434.21	1609.70
434.41	1691.62
434.62	1894.37
434.82	1671.14
435.03	1718.25
435.23	1759.21
435.44	1591.27
435.64	1720.29
435.85	1705.96
436.06	1767.40
436.26	1818.60
436.47	1679.33
436.67	1671.14
436.88	1744.87
437.08	1863.65
437.29	1787.88
437.49	1789.92
437.70	1732.58
437.90	1732.58
438.11	1867.75
438.31	1861.60
438.52	1789.92
438.72	1873.89
438.93	1927.14
439.13	1798.12
439.34	1845.22
439.54	1738.73
439.75	1861.60
439.95	1767.40
440.16	1708.01
440.36	1783.78
440.57	1824.74
440.77	1738.73
440.98	1769.44
441.18	1720.29
441.39	1714.15
441.59	1708.01
441.80	1830.88
442.00	1732.58
442.21	1732.58
442.41	1640.42
442.62	1730.53
442.82	1732.58
443.02	1714.15
443.23	1808.36
443.43	1775.59
443.64	1773.54
443.84	1576.94
444.05	1814.50
444.25	1761.25
444.46	1708.01
444.66	1779.68
444.87	1738.73
445.07	1693.67
445.28	1710.05
445.48	1853.41
445.69	1804.26
445.89	1845.22
446.09	1744.87
446.30	2017.25
446.50	2666.46
446.71	3727.30
446.91	4300.73
447.12	4753.34
447.32	4892.60
447.53	4310.97
447.73	3913.67
447.93	3518.41
448.14	3280.85
448.34	3270.61
448.55	3008.47
448.75	2834.39
448.96	2713.56
449.16	2527.19
449.36	2353.12
449.57	2099.17
449.77	1939.43
449.98	1812.45
450.18	1822.69
450.39	1843.17
450.59	1818.60
450.79	1769.44
451.00	1705.96
451.20	1796.07
451.41	1736.68
451.61	1787.88
451.81	1687.53
452.02	1669.09
452.22	1697.77
452.43	1753.06
452.63	1722.34
452.84	1796.07
453.04	1679.33
453.24	1744.87
453.45	1673.19
453.65	1695.72
453.86	1787.88
454.06	1748.97
454.26	1738.73
454.47	1640.42
454.67	1824.74
454.87	1779.68
455.08	1718.25
455.28	1712.10
455.49	1796.07
455.69	1665.00
455.89	1816.55
456.10	1800.16
456.30	1763.30
456.51	1728.49
456.71	1732.58
456.91	1720.29
457.12	1798.12
457.32	1732.58
457.52	1687.53
457.73	1800.16
457.93	1828.84
458.14	1740.77
458.34	1654.76
458.54	1738.73
458.75	1693.67
458.95	1794.02
459.15	1759.21
459.36	1703.91
459.56	1849.32
459.76	1804.26
459.97	1779.68
460.17	1734.63
460.37	1726.44
460.58	1785.83
460.78	1787.88
460.99	1693.67
461.19	1669.09
461.39	1734.63
461.60	1687.53
461.80	1796.07
462.00	1726.44
462.21	1705.96
462.41	1746.92
462.61	1642.47
462.82	1675.24
463.02	1740.77
463.22	1798.12
463.43	1804.26
463.63	1699.81
463.83	1728.49
464.04	1738.73
464.24	1718.25
464.44	1716.20
464.64	1789.92
464.85	1773.54
465.05	1755.11
465.25	1779.68
465.46	1687.53
465.66	1789.92
465.86	1763.30
466.07	1728.49
466.27	1671.14
466.47	1658.85
466.68	1738.73
466.88	1832.93
467.08	1783.78
467.29	1751.01
467.49	1771.49
467.69	1714.15
467.89	1775.59
468.10	1751.01
468.30	1834.98
468.50	1888.23
468.71	1716.20
468.91	1681.38
469.11	1812.45
469.31	1710.05
469.52	1650.66
469.72	1855.46
469.92	1966.05
470.13	1732.58
470.33	1730.53
470.53	1888.23
470.73	2050.02
470.94	2381.79
471.14	2392.03
471.34	2545.63
471.54	2508.76
471.75	2242.53
471.95	2125.79
472.15	2043.87
472.36	2074.59
472.56	2074.59
472.76	2066.40
472.96	2033.63
473.17	2011.11
473.37	1951.71
473.57	1849.32
473.77	1755.11
473.98	1787.88
474.18	1642.47
474.38	1818.60
474.58	1665.00
474.79	1736.68
474.99	1779.68
475.19	1828.84
475.39	1658.85
475.60	1665.00
475.80	1681.38
476.00	1746.92
476.20	1689.57
476.41	1767.40
476.61	1837.03
476.81	1837.03
477.01	1724.39
477.21	1843.17
477.42	1822.69
477.62	1693.67
477.82	1812.45
478.02	1705.96
478.23	1705.96
478.43	1718.25
478.63	1712.10
478.83	1767.40
479.03	1654.76
479.24	1851.36
479.44	1767.40
479.64	1681.38
479.84	1566.70
480.04	1755.11
480.25	1746.92
480.45	1718.25
480.65	1673.19
480.85	1802.21
481.06	1687.53
481.26	1828.84
481.46	1748.97
481.66	1671.14
481.86	1699.81
482.06	1820.64
482.27	1755.11
482.47	1742.82
482.67	1695.72
482.87	1701.86
483.07	1808.36
483.28	1736.68
483.48	1718.25
483.68	1738.73
483.88	1660.90
484.08	1648.61
484.29	1708.01
484.49	1693.67
484.69	1781.73
484.89	1808.36
485.09	1777.64
485.29	1779.68
485.50	1748.97
485.70	1630.18
485.90	1800.16
486.10	1767.40
486.30	1779.68
486.50	1753.06
486.71	1767.40
486.91	1804.26
487.11	1810.40
487.31	1640.42
487.51	1730.53
487.71	1632.23
487.91	1685.48
488.12	1677.29
488.32	1591.27
488.52	1642.47
488.72	1693.67
488.92	1816.55
489.12	1828.84
489.32	1787.88
489.53	1800.16
489.73	1660.90
489.93	1896.42
490.13	1693.67
490.33	1611.75
490.53	1669.09
490.73	1875.94
490.94	1691.62
491.14	1814.50
491.34	1769.44
491.54	2183.13
491.74	2514.91
491.94	2930.64
492.14	3098.58
492.34	3080.14
492.54	2711.51
492.75	2504.67
492.95	2510.81
493.15	2359.26
493.35	2316.25
493.55	2164.70
493.75	2133.98
493.95	2142.18
494.15	1996.77
494.35	1939.43
494.56	1787.88
494.76	1771.49
494.96	1765.35
495.16	1773.54
495.36	1779.68
495.56	1767.40
495.76	1705.96
495.96	1744.87
496.16	1671.14
496.36	1832.93
496.56	1703.91
496.77	1746.92
496.97	1689.57
497.17	1869.80
497.37	1687.53
497.57	1802.21
497.77	1734.63
497.97	1765.35
498.17	1703.91
498.37	1701.86
498.57	1716.20
498.77	1703.91
498.97	1732.58
499.17	1875.94
499.38	1722.34
499.58	1785.83
499.78	1861.60
499.98	1851.36
500.18	1787.88
500.38	1771.49
500.58	1937.38
500.78	2648.02
500.98	4556.73
501.18	5851.05
501.38	6893.46
501.58	7161.75
501.78	6629.27
501.98	5369.77
502.18	5007.28
502.38	4511.68
502.58	4179.90
502.78	3864.52
502.98	3706.82
503.18	3553.23
503.38	3268.56
503.59	2918.36
503.79	2574.30
503.99	2484.19
504.19	2359.26
504.39	2213.85
504.59	2205.66
504.79	2158.56
504.99	2105.31
505.19	1978.34
505.39	1853.41
505.59	1920.99
505.79	1964.00
505.99	1853.41
506.19	1806.31
506.39	1888.23
506.59	1726.44
506.79	1759.21
506.99	1927.14
507.19	1798.12
507.39	1710.05
507.59	1679.33
507.79	1644.52
507.99	1679.33
508.19	1769.44
508.39	1705.96
508.59	1683.43
508.79	1791.97
508.99	1814.50
509.19	1689.57
509.39	1767.40
509.59	1705.96
509.79	1673.19
509.99	1857.51
510.19	1814.50
510.39	1810.40
510.59	1718.25
510.79	1613.80
510.99	1695.72
511.19	1761.25
511.39	1777.64
511.59	1714.15
511.79	1791.97
511.99	1761.25
512.19	1781.73
512.38	1712.10
512.58	1626.09
512.78	1806.31
512.98	1861.60
513.18	1796.07
513.38	1693.67
513.58	1824.74
513.78	1730.53
513.98	1693.67
514.18	1675.24
514.38	1726.44
514.58	1748.97
514.78	1779.68
514.98	1722.34
515.18	1804.26
515.38	1724.39
515.58	1875.94
515.78	1716.20
515.98	1712.10
516.18	1695.72
516.38	1646.57
516.57	1671.14
516.77	1814.50
516.97	1753.06
517.17	1726.44
517.37	1636.33
517.57	1800.16
517.77	1798.12
517.97	1765.35
518.17	1830.88
518.37	1800.16
518.57	1728.49
518.77	1763.30
518.97	1753.06
519.16	1800.16
519.36	1802.21
519.56	1748.97
519.76	1763.30
519.96	1812.45
520.16	1808.36
520.36	1720.29
520.56	1822.69
520.76	1601.51
520.96	1693.67
521.16	1783.78
521.35	1853.41
521.55	1736.68
521.75	1736.68
521.95	1751.01
522.15	1798.12
522.35	1677.29
522.55	1665.00
522.75	1742.82
522.95	1714.15
523.14	1728.49
523.34	1730.53
523.54	1646.57
523.74	1775.59
523.94	1757.16
524.14	1724.39
524.34	1828.84
524.54	1802.21
524.73	1789.92
524.93	1779.68
525.13	1742.82
525.33	1644.52
525.53	1902.56
525.73	1822.69
525.93	1726.44
526.13	1636.33
526.32	1693.67
526.52	1855.46
526.72	1773.54
526.92	1738.73
527.12	1783.78
527.32	1677.29
527.52	1791.97
527.71	1722.34
527.91	1712.10
528.11	1689.57
528.31	1789.92
528.51	1710.05
528.71	1740.77
528.90	1783.78
529.10	1751.01
529.30	1775.59
529.50	1648.61
529.70	1728.49
529.90	1765.35
530.09	1740.77
530.29	1634.28
530.49	1671.14
530.69	1906.66
530.89	1796.07
531.09	1845.22
531.28	1736.68
531.48	1691.62
531.68	1714.15
531.88	1796.07
532.08	1714.15
532.28	1701.86
532.47	1687.53
532.67	1787.88
532.87	1771.49
533.07	1712.10
533.27	1763.30
533.46	1843.17
533.66	1710.05
533.86	1654.76
534.06	1757.16
534.26	1746.92
534.45	1712.10
534.65	1906.66
534.85	1791.97
535.05	1671.14
535.25	1765.35
535.44	1667.05
535.64	1787.88
535.84	1773.54
536.04	1757.16
536.24	1660.90
536.43	1757.16
536.63	1761.25
536.83	1755.11
537.03	1714.15
537.22	1689.57
537.42	1705.96
537.62	1779.68
537.82	1695.72
538.02	1820.64
538.21	1800.16
538.41	1816.55
538.61	1789.92
538.81	1710.05
539.00	1785.83
539.20	1640.42
539.40	1765.35
539.60	1798.12
539.79	1732.58
539.99	1783.78
540.19	1728.49
540.39	1712.10
540.58	1740.77
540.78	1771.49
540.98	1753.06
541.18	1806.31
541.37	1806.31
541.57	1712.10
541.77	1804.26
541.97	1740.77
542.16	1607.66
542.36	1720.29
542.56	1728.49
542.76	1888.23
542.95	1753.06
543.15	1738.73
543.35	1755.11
543.54	1693.67
543.74	1669.09
543.94	1822.69
544.14	1744.87
544.33	1787.88
544.53	1781.73
544.73	1759.21
544.93	1751.01
545.12	1695.72
545.32	1693.67
545.52	1710.05
545.71	1648.61
545.91	1685.48
546.11	1703.91
546.30	1665.00
546.50	1693.67
546.70	1789.92
546.90	1732.58
547.09	1636.33
547.29	1738.73
547.49	1781.73
547.68	1726.44
547.88	1675.24
548.08	1871.84
548.27	2140.13
548.47	1787.88
548.67	1712.10
548.87	1798.12
549.06	1751.01
549.26	1740.77
549.46	1699.81
549.65	1785.83
549.85	1802.21
550.05	1839.08
550.24	1720.29
550.44	1751.01
550.64	1746.92
550.83	1771.49
551.03	1818.60
551.23	1781.73
551.42	1796.07
551.62	1798.12
551.82	1794.02
552.01	1730.53
552.21	1869.80
552.41	1771.49
552.60	1808.36
552.80	1794.02
553.00	1714.15
553.19	1669.09
553.39	1892.32
553.59	1703.91
553.78	1748.97
553.98	1787.88
554.17	1615.85
554.37	1724.39
554.57	1808.36
554.76	1646.57
554.96	1732.58
555.16	1787.88
555.35	1763.30
555.55	1705.96
555.75	1761.25
555.94	1816.55
556.14	1640.42
556.33	1820.64
556.53	1691.62
556.73	1732.58
556.92	1814.50
557.12	1740.77
557.32	1871.84
557.51	1843.17
557.71	1791.97
557.90	1826.79
558.10	1853.41
558.30	1738.73
558.49	1683.43
558.69	1718.25
558.88	1777.64
559.08	1744.87
559.28	1619.94
559.47	1736.68
559.67	1781.73
559.86	1898.47
560.06	1767.40
560.26	1726.44
560.45	1816.55
560.65	1765.35
560.84	1771.49
561.04	1773.54
561.24	1771.49
561.43	1748.97
561.63	1777.64
561.82	1701.86
562.02	1730.53
562.22	1708.01
562.41	1703.91
562.61	1759.21
562.80	1738.73
563.00	1904.61
563.19	1742.82
563.39	1779.68
563.59	1761.25
563.78	1683.43
563.98	1585.13
564.17	1712.10
564.37	1718.25
564.56	1699.81
564.76	1669.09
564.96	1789.92
565.15	1804.26
565.35	1824.74
565.54	1679.33
565.74	1820.64
565.93	1777.64
566.13	1751.01
566.32	1746.92
566.52	1771.49
566.71	1759.21
566.91	1771.49
567.11	1781.73
567.30	1708.01
567.50	1810.40
567.69	1779.68
567.89	1681.38
568.08	1796.07
568.28	1785.83
568.47	1724.39
568.67	1800.16
568.86	1718.25
569.06	1824.74
569.25	1748.97
569.45	1724.39
569.64	1705.96
569.84	1726.44
570.04	1740.77
570.23	1699.81
570.43	1656.81
570.62	1689.57
570.82	1859.56
571.01	1683.43
571.21	1757.16
571.40	1720.29
571.60	1888.23
571.79	1783.78
571.99	1761.25
572.18	1642.47
572.38	1662.95
572.57	1667.05
572.77	1796.07
572.96	1869.80
573.16	1806.31
573.35	1646.57
573.55	1863.65
573.74	1785.83
573.94	1787.88
574.13	1822.69
574.33	1863.65
574.52	1892.32
574.71	1816.55
574.91	1673.19
575.10	1689.57
575.30	1759.21
575.49	1769.44
575.69	1699.81
575.88	1701.86
576.08	1728.49
576.27	1886.18
576.47	1716.20
576.66	1859.56
576.86	1781.73
577.05	1755.11
577.25	1791.97
577.44	1796.07
577.64	1785.83
577.83	1691.62
578.02	1794.02
578.22	1894.37
578.41	1820.64
578.61	1763.30
578.80	1734.63
579.00	1755.11
579.19	1722.34
579.39	1816.55
579.58	1806.31
579.77	1746.92
579.97	1882.08
580.16	1789.92
580.36	1781.73
580.55	1785.83
580.75	1816.55
580.94	1710.05
581.13	1832.93
581.33	1961.95
581.52	1748.97
581.72	1894.37
581.91	1832.93
582.11	1740.77
582.30	1695.72
582.49	1705.96
582.69	1812.45
582.88	1796.07
583.08	1753.06
583.27	1859.56
583.47	1796.07
583.66	1738.73
583.85	1742.82
584.05	1740.77
584.24	1748.97
584.44	1814.50
584.63	1804.26
584.82	1873.89
585.02	1804.26
585.21	1769.44
585.41	1845.22
585.60	1841.12
585.79	1923.04
585.99	1869.80
586.18	1869.80
586.37	2236.38
586.57	3442.64
586.76	9897.83
586.96	24514.19
587.15	34508.27
587.34	41072.01
587.54	42231.16
587.73	36658.64
587.93	26642.03
588.12	21778.10
588.31	18276.07
588.51	16520.96
588.70	15271.70
588.89	14169.90
589.09	12607.30
589.28	11163.48
589.47	9484.14
589.67	8087.43
589.86	6590.36
590.06	5050.29
590.25	3960.77
590.44	3125.20
590.64	2598.87
590.83	2396.12
591.02	2103.26
591.22	1923.04
591.41	1898.47
591.60	1935.33
591.80	1992.67
591.99	1753.06
592.18	1802.21
592.38	1794.02
592.57	1828.84
592.76	1816.55
592.96	1812.45
593.15	1732.58
593.34	1822.69
593.54	1685.48
593.73	1810.40
593.92	1841.12
594.12	1816.55
594.31	1767.40
594.50	1837.03
594.70	1841.12
594.89	1871.84
595.08	1701.86
595.28	1787.88
595.47	1898.47
595.66	1839.08
595.86	1626.09
596.05	1718.25
596.24	1701.86
596.43	1861.60
596.63	1761.25
596.82	1767.40
597.01	1742.82
597.21	1849.32
597.40	1785.83
597.59	1705.96
597.79	1775.59
597.98	1681.38
598.17	1800.16
598.36	1830.88
598.56	1804.26
598.75	1660.90
598.94	1781.73
599.14	1689.57
599.33	1722.34
599.52	1765.35
599.71	1701.86
599.91	1767.40
600.10	1724.39
600.29	1775.59
600.48	1828.84
600.68	1779.68
600.87	1757.16
601.06	1710.05
601.26	1791.97
601.45	1777.64
601.64	1812.45
601.83	1742.82
602.03	1703.91
602.22	1751.01
602.41	1818.60
602.60	1880.04
602.80	1828.84
602.99	1712.10
603.18	1673.19
603.37	1767.40
603.57	1804.26
603.76	1763.30
603.95	1746.92
604.14	1744.87
604.34	1781.73
604.53	1669.09
604.72	1765.35
604.91	1791.97
605.10	1740.77
605.30	1665.00
605.49	1851.36
605.68	1773.54
605.87	1775.59
606.07	1703.91
606.26	1769.44
606.45	1808.36
606.64	1740.77
606.84	1742.82
607.03	1771.49
607.22	1804.26
607.41	1671.14
607.60	1751.01
607.80	1798.12
607.99	1699.81
608.18	1710.05
608.37	1787.88
608.56	1656.81
608.76	1798.12
608.95	1789.92
609.14	1685.48
609.33	1748.97
609.52	1781.73
609.72	1665.00
609.91	1796.07
610.10	1751.01
610.29	1771.49
610.48	1830.88
610.68	1726.44
610.87	1767.40
611.06	1724.39
611.25	1697.77
611.44	1798.12
611.63	1753.06
611.83	1849.32
612.02	1724.39
612.21	1853.41
612.40	1640.42
612.59	1642.47
612.79	1636.33
612.98	1761.25
613.17	1834.98
613.36	1765.35
613.55	1789.92
613.74	1720.29
613.93	1611.75
614.13	1724.39
614.32	1705.96
614.51	1775.59
614.70	1701.86
614.89	1724.39
615.08	1773.54
615.28	2009.06
615.47	1665.00
615.66	1699.81
615.85	1652.71
616.04	1798.12
616.23	1738.73
616.42	1683.43
616.62	1734.63
616.81	1736.68
617.00	1726.44
617.19	1837.03
617.38	1710.05
617.57	1763.30
617.76	1757.16
617.95	1767.40
618.15	1775.59
618.34	1783.78
618.53	1767.40
618.72	1773.54
618.91	1796.07
619.10	1834.98
619.29	1834.98
619.48	1710.05
619.68	1726.44
619.87	1751.01
620.06	1634.28
620.25	1730.53
620.44	1740.77
620.63	1687.53
620.82	1683.43
621.01	1687.53
621.20	1693.67
621.39	1714.15
621.59	1724.39
621.78	1699.81
621.97	1748.97
622.16	1757.16
622.35	1697.77
622.54	1818.60
622.73	1765.35
622.92	1701.86
623.11	1787.88
623.30	1701.86
623.49	1765.35
623.68	1693.67
623.88	1822.69
624.07	1769.44
624.26	1740.77
624.45	1730.53
624.64	1665.00
624.83	1714.15
625.02	1708.01
625.21	1705.96
625.40	1685.48
625.59	1800.16
625.78	1722.34
625.97	1779.68
626.16	1746.92
626.35	1722.34
626.54	1660.90
626.74	1718.25
626.93	1685.48
627.12	1728.49
627.31	1755.11
627.50	1781.73
627.69	1763.30
627.88	1757.16
628.07	1765.35
628.26	1710.05
628.45	1679.33
628.64	1654.76
628.83	1712.10
629.02	1679.33
629.21	1787.88
629.40	1779.68
629.59	1646.57
629.78	1646.57
629.97	1755.11
630.16	1656.81
630.35	1722.34
630.54	1701.86
630.73	1720.29
630.92	1705.96
631.11	1671.14
631.30	1712.10
631.49	1783.78
631.68	1609.70
631.87	1714.15
632.06	1640.42
632.25	1783.78
632.44	1712.10
632.63	1800.16
632.82	1716.20
633.01	1656.81
633.20	1744.87
633.39	1703.91
633.58	1638.38
633.77	1785.83
633.96	1730.53
634.15	1771.49
634.34	1802.21
634.53	1705.96
634.72	1615.85
634.91	1685.48
635.10	1755.11
635.29	1685.48
635.48	1705.96
635.67	1710.05
635.86	1648.61
636.05	1742.82
636.24	1699.81
636.43	1767.40
636.62	1765.35
636.81	1611.75
637.00	1730.53
637.19	1785.83
637.38	1681.38
637.57	1644.52
637.76	1673.19
637.95	1730.53
638.14	1697.77
638.33	1720.29
638.52	1710.05
638.71	1687.53
638.89	1660.90
639.08	1886.18
639.27	1710.05
639.46	1638.38
639.65	1843.17
639.84	1705.96
640.03	1810.40
640.22	1722.34
640.41	1859.56
640.60	1740.77
640.79	1787.88
640.98	1746.92
641.17	1808.36
641.36	1785.83
641.55	1699.81
641.74	1650.66
641.92	1738.73
642.11	1660.90
642.30	1693.67
642.49	1652.71
642.68	1722.34
642.87	1751.01
643.06	1701.86
643.25	1669.09
643.44	1632.23
643.63	1710.05
643.82	1734.63
644.00	1679.33
644.19	1742.82
644.38	1617.90
644.57	1714.15
644.76	1658.85
644.95	1699.81
645.14	1761.25
645.33	1728.49
645.52	1755.11
645.71	1720.29
645.89	1667.05
646.08	1857.51
646.27	1728.49
646.46	1869.80
646.65	1691.62
646.84	1705.96
647.03	1662.95
647.22	1820.64
647.40	1638.38
647.59	1726.44
647.78	1644.52
647.97	1708.01
648.16	1679.33
648.35	1761.25
648.54	1791.97
648.73	1734.63
648.91	1765.35
649.10	1744.87
649.29	1638.38
649.48	1730.53
649.67	1757.16
649.86	1669.09
650.05	1644.52
650.23	1812.45
650.42	1693.67
650.61	1751.01
650.80	1779.68
650.99	1849.32
651.18	1798.12
651.36	1789.92
651.55	1671.14
651.74	1796.07
651.93	1738.73
652.12	1665.00
652.31	1746.92
652.49	1748.97
652.68	1607.66
652.87	1771.49
653.06	1742.82
653.25	1822.69
653.44	1748.97
653.62	1806.31
653.81	1757.16
654.00	1740.77
654.19	1785.83
654.38	1857.51
654.56	1775.59
654.75	1654.76
654.94	1865.70
655.13	1734.63
655.32	1763.30
655.51	1853.41
655.69	1718.25
655.88	1857.51
656.07	1705.96
656.26	1820.64
656.45	1656.81
656.63	1742.82
656.82	1701.86
657.01	1800.16
657.20	1689.57
657.38	1820.64
657.57	1730.53
657.76	1705.96
657.95	1857.51
658.14	1689.57
658.32	1730.53
658.51	1648.61
658.70	1740.77
658.89	1679.33
659.08	1716.20
659.26	1863.65
659.45	1660.90
659.64	1742.82
659.83	1734.63
660.01	1935.33
660.20	1697.77
660.39	1824.74
660.58	1607.66
660.76	1642.47
660.95	1667.05
661.14	1796.07
661.33	1685.48
661.51	1712.10
661.70	1607.66
661.89	1703.91
662.08	1720.29
662.26	1673.19
662.45	1732.58
662.64	1777.64
662.83	1816.55
663.01	1660.90
663.20	1728.49
663.39	1822.69
663.58	1695.72
663.76	1685.48
663.95	1677.29
664.14	1693.67
664.32	1701.86
664.51	1703.91
664.70	1689.57
664.89	1730.53
665.07	1650.66
665.26	1783.78
665.45	1701.86
665.64	1771.49
665.82	1697.77
666.01	1824.74
666.20	1736.68
666.38	1714.15
666.57	1783.78
666.76	2209.76
666.95	4638.65
667.13	10489.70
667.32	15349.53
667.51	17915.63
667.69	19273.43
667.88	17862.38
668.07	12521.28
668.25	9807.72
668.44	8212.35
668.63	7389.07
668.81	6901.65
669.00	6326.18
669.19	5742.50
669.38	5107.63
669.56	4595.64
669.75	3950.53
669.94	3444.68
670.12	2987.99
670.31	2588.63
670.50	2295.77
670.68	2054.11
670.87	1914.85
671.06	1847.27
671.24	1777.64
671.43	1869.80
671.62	1763.30
671.80	1732.58
671.99	1763.30
672.18	1748.97
672.36	1726.44
672.55	1687.53
672.74	1691.62
672.92	1810.40
673.11	1722.34
673.29	1677.29
673.48	1769.44
673.67	1773.54
673.85	1804.26
674.04	1675.24
674.23	1781.73
674.41	1791.97
674.60	1681.38
674.79	1605.61
674.97	1685.48
675.16	1740.77
675.34	1740.77
675.53	1695.72
675.72	1757.16
675.90	1769.44
676.09	1699.81
676.28	1769.44
676.46	1626.09
676.65	1787.88
676.83	1718.25
677.02	1728.49
677.21	1683.43
677.39	1708.01
677.58	1638.38
677.77	1753.06
677.95	1689.57
678.14	1665.00
678.32	1683.43
678.51	1560.55
678.70	1769.44
678.88	1691.62
679.07	1714.15
679.25	1751.01
679.44	1746.92
679.63	1695.72
679.81	1738.73
680.00	1740.77
680.18	1748.97
680.37	1769.44
680.55	1724.39
680.74	1679.33
680.93	1568.74
681.11	1781.73
681.30	1746.92
681.48	1763.30
681.67	1677.29
681.85	1658.85
682.04	1662.95
682.23	1738.73
682.41	1710.05
682.60	1697.77
682.78	1738.73
682.97	1638.38
683.15	1724.39
683.34	1775.59
683.53	1822.69
683.71	1648.61
683.90	1806.31
684.08	1775.59
684.27	1574.89
684.45	1734.63
684.64	1753.06
684.82	1761.25
685.01	1744.87
685.19	1812.45
685.38	1804.26
685.57	1789.92
685.75	1699.81
685.94	1675.24
686.12	1683.43
686.31	1669.09
686.49	1748.97
686.68	1697.77
686.86	1771.49
687.05	1697.77
687.23	1779.68
687.42	1808.36
687.60	1601.51
687.79	1662.95
687.97	1783.78
688.16	1730.53
688.34	1800.16
688.53	1605.61
688.71	1728.49
688.90	1720.29
689.08	1677.29
689.27	1621.99
689.45	1734.63
689.64	1748.97
689.82	1650.66
690.01	1781.73
690.19	1708.01
690.38	1693.67
690.56	1716.20
690.75	1669.09
690.93	1564.65
691.12	1656.81
691.30	1732.58
691.49	1730.53
691.67	1732.58
691.86	1843.17
692.04	1734.63
692.23	1716.20
692.41	1771.49
692.60	1871.84
692.78	1740.77
692.97	1654.76
693.15	1722.34
693.34	1798.12
693.52	1806.31
693.71	1681.38
693.89	1673.19
694.08	1619.94
694.26	1767.40
694.44	1724.39
694.63	1771.49
694.81	1640.42
695.00	1679.33
695.18	1738.73
695.37	1820.64
695.55	1720.29
695.74	1695.72
695.92	1697.77
696.10	1755.11
696.29	1611.75
696.47	1691.62
696.66	1722.34
696.84	1646.57
697.03	1734.63
697.21	1787.88
697.40	2416.60
697.58	1818.60
697.76	1689.57
697.95	1628.14
698.13	1703.91
698.32	1652.71
698.50	1791.97
698.68	1775.59
698.87	1708.01
699.05	1845.22
699.24	1716.20
699.42	1705.96
699.61	1703.91
699.79	1783.78
699.97	1800.16
700.16	1656.81
700.34	1654.76
700.53	1679.33
700.71	1773.54
700.89	1710.05
701.08	1703.91
701.26	1718.25
701.45	2113.50
701.63	1568.74
701.81	1732.58
702.00	1718.25
702.18	1703.91
702.37	1636.33
702.55	1753.06
702.73	1753.06
702.92	1601.51
703.10	1789.92
703.28	1716.20
703.47	1636.33
703.65	1736.68
703.84	1705.96
704.02	1718.25
704.20	1744.87
704.39	1662.95
704.57	1716.20
704.75	1693.67
704.94	1832.93
705.12	1740.77
705.30	1806.31
705.49	2207.71
705.67	4409.28
705.86	9377.65
706.04	12584.77
706.22	14718.75
706.41	15634.19
706.59	13889.32
706.77	9893.74
706.96	7354.26
707.14	6563.74
707.32	5939.11
707.51	5601.19
707.69	4968.37
707.87	4224.96
708.06	3557.32
708.24	3000.27
708.42	2424.80
708.61	2277.34
708.79	1925.09
708.97	1939.43
709.16	1837.03
709.34	1748.97
709.52	1718.25
709.71	1748.97
709.89	1771.49
710.07	1691.62
710.26	1691.62
710.44	1769.44
710.62	1798.12
710.80	1652.71
710.99	1781.73
711.17	1763.30
711.35	1615.85
711.54	1728.49
711.72	1812.45
711.90	1720.29
712.09	1697.77
712.27	1716.20
712.45	1757.16
712.63	1701.86
712.82	1658.85
713.00	1722.34
713.18	1800.16
713.37	1742.82
713.55	1779.68
713.73	1765.35
713.91	1677.29
714.10	1689.57
714.28	1746.92
714.46	1775.59
714.65	1832.93
714.83	1681.38
715.01	1669.09
715.19	1757.16
715.38	1632.23
715.56	1751.01
715.74	1722.34
715.92	1644.52
716.11	1830.88
716.29	1605.61
716.47	1703.91
716.65	1742.82
716.84	1669.09
717.02	1689.57
717.20	1652.71
717.38	1617.90
717.57	1763.30
717.75	1591.27
717.93	1748.97
718.11	1712.10
718.30	1654.76
718.48	1689.57
718.66	1695.72
718.84	1759.21
719.03	1705.96
719.21	1677.29
719.39	1796.07
719.57	1724.39
719.75	1812.45
719.94	1619.94
720.12	1738.73
720.30	1710.05
720.48	1736.68
720.67	1640.42
720.85	1695.72
721.03	1755.11
721.21	1570.79
721.39	1765.35
721.58	1759.21
721.76	1689.57
721.94	1812.45
722.12	1720.29
722.30	1798.12
722.49	1632.23
722.67	1665.00
722.85	1679.33
723.03	1595.37
723.21	1695.72
723.40	1728.49
723.58	1804.26
723.76	1736.68
723.94	1810.40
724.12	1748.97
724.30	1742.82
724.49	1796.07
724.67	1679.33
724.85	1806.31
725.03	1617.90
725.21	1730.53
725.40	1787.88
725.58	1636.33
725.76	1767.40
725.94	1705.96
726.12	1673.19
726.30	1767.40
726.49	1671.14
726.67	1759.21
726.85	1626.09
727.03	1800.16
727.21	2045.92
727.39	2992.08
727.57	3839.94
727.76	4272.06
727.94	4560.83
728.12	4417.47
728.30	3704.78
728.48	2932.69
728.66	2762.71
728.84	2578.39
729.03	2349.02
729.21	2281.44
729.39	1937.38
729.57	1820.64
729.75	1834.98
729.93	1839.08
730.11	1755.11
730.30	1701.86
730.48	1728.49
730.66	1798.12
730.84	1820.64
731.02	1619.94
731.20	1716.20
731.38	1648.61
731.56	1605.61
731.74	1695.72
731.93	1738.73
732.11	1675.24
732.29	1730.53
732.47	1722.34
732.65	1783.78
732.83	1685.48
733.01	1746.92
733.19	1683.43
733.37	1834.98
733.56	1796.07
733.74	1710.05
733.92	1736.68
734.10	1759.21
734.28	1726.44
734.46	1703.91
734.64	1736.68
734.82	1765.35
735.00	1691.62
735.18	1626.09
735.36	1730.53
735.54	1695.72
735.73	1722.34
735.91	1789.92
736.09	1785.83
736.27	1628.14
736.45	1753.06
736.63	1636.33
736.81	1720.29
736.99	1783.78
737.17	1783.78
737.35	1648.61
737.53	1701.86
737.71	1728.49
737.89	1755.11
738.07	1732.58
738.25	1669.09
738.43	1583.08
738.61	1732.58
738.80	1681.38
738.98	1640.42
739.16	1722.34
739.34	1757.16
739.52	1787.88
739.70	1720.29
739.88	1781.73
740.06	1722.34
740.24	1634.28
740.42	1701.86
740.60	1656.81
740.78	1716.20
740.96	1648.61
741.14	1701.86
741.32	1701.86
741.50	1648.61
741.68	1865.70
741.86	1806.31
742.04	1626.09
742.22	1603.56
742.40	1679.33
742.58	1681.38
742.76	1667.05
742.94	1738.73
743.12	1638.38
743.30	1685.48
743.48	1757.16
743.66	1660.90
743.84	1779.68
744.02	1691.62
744.20	1730.53
744.38	1648.61
744.56	1705.96
744.74	1849.32
744.92	1783.78
745.10	1769.44
745.28	1824.74
745.46	1814.50
745.64	1708.01
745.82	1816.55
746.00	1738.73
746.18	1753.06
746.36	1634.28
746.54	1726.44
746.72	1738.73
746.90	1675.24
747.08	1828.84
747.26	1771.49
747.44	1759.21
747.62	1783.78
747.80	1736.68
747.98	1800.16
748.15	1669.09
748.33	1834.98
748.51	1650.66
748.69	1714.15
748.87	1667.05
749.05	1693.67
749.23	1689.57
749.41	1740.77
749.59	1695.72
749.77	1753.06
749.95	1718.25
750.13	1685.48
750.31	1738.73
750.49	1720.29
750.67	1824.74
750.85	1828.84
751.03	1736.68
751.20	1808.36
751.38	1703.91
751.56	1583.08
751.74	1781.73
751.92	1679.33
752.10	1669.09
752.28	1880.04
752.46	1679.33
752.64	1685.48
752.82	1689.57
753.00	1757.16
753.18	1681.38
753.35	1726.44
753.53	1681.38
753.71	1683.43
753.89	1857.51
754.07	1624.04
754.25	1751.01
754.43	1728.49
754.61	1621.99
754.79	1751.01
754.97	1652.71
755.14	1755.11
755.32	1689.57
755.50	1726.44
755.68	1656.81
755.86	1777.64
756.04	1632.23
756.22	1611.75
756.40	1789.92
756.57	1736.68
756.75	1736.68
756.93	1824.74
757.11	1718.25
757.29	1640.42
757.47	1654.76
757.65	1642.47
757.82	1609.70
758.00	1728.49
758.18	1673.19
758.36	1765.35
758.54	1785.83
758.72	1671.14
758.90	1814.50
759.07	1726.44
759.25	1613.80
759.43	1742.82
759.61	1677.29
759.79	2193.37
759.97	1822.69
760.15	1691.62
760.32	1628.14
760.50	1785.83
760.68	1787.88
760.86	1673.19
761.04	1708.01
761.22	1794.02
761.39	1740.77
761.57	1730.53
761.75	1695.72
761.93	1740.77
762.11	1689.57
762.28	1751.01
762.46	1730.53
762.64	1791.97
762.82	1570.79
763.00	1710.05
763.18	1820.64
763.35	1691.62
763.53	1757.16
763.71	1755.11
763.89	1753.06
764.07	1734.63
764.24	1716.20
764.42	1730.53
764.60	1730.53
764.78	1744.87
764.96	1665.00
765.13	1722.34
765.31	1810.40
765.49	1800.16
765.67	1695.72
765.84	1710.05
766.02	1638.38
766.20	1662.95
766.38	1751.01
766.56	1787.88
766.73	1728.49
766.91	1654.76
767.09	1654.76
767.27	1849.32
767.44	1681.38
767.62	1769.44
767.80	1724.39
767.98	1736.68
768.15	1712.10
768.33	1779.68
768.51	1771.49
768.69	1634.28
768.87	1732.58
769.04	1703.91
769.22	1863.65
769.40	1820.64
769.58	1826.79
769.75	1718.25
769.93	1828.84
770.11	1720.29
770.28	1609.70
770.46	1748.97
770.64	1746.92
770.82	1679.33
770.99	1697.77
771.17	1695.72
771.35	1658.85
771.53	1644.52
771.70	1619.94
771.88	1693.67
772.06	1705.96
772.23	1736.68
772.41	1705.96
772.59	1748.97
772.77	1677.29
772.94	1636.33
773.12	1767.40
773.30	1677.29
773.47	1738.73
773.65	1642.47
773.83	1767.40
774.01	1691.62
774.18	1626.09
774.36	1763.30
774.54	1587.18
774.71	1742.82
774.89	1648.61
775.07	1636.33
775.24	1753.06
775.42	1621.99
775.60	1773.54
775.78	1677.29
775.95	1693.67
776.13	1689.57
776.31	1480.68
776.48	1730.53
776.66	1773.54
776.84	1634.28
777.01	1677.29
777.19	1699.81
777.37	1685.48
777.54	1783.78
777.72	1830.88
777.90	1720.29
778.07	1730.53
778.25	1896.42
778.43	1773.54
778.60	1716.20
778.78	1787.88
778.96	1736.68
779.13	1642.47
779.31	1744.87
779.49	1740.77
779.66	1652.71
779.84	1665.00
780.01	1740.77
780.19	1662.95
780.37	1751.01
780.54	1761.25
780.72	1744.87
780.90	1699.81
781.07	1738.73
781.25	1665.00
781.43	1767.40
781.60	1640.42
781.78	1880.04
781.95	1751.01
782.13	1660.90
782.31	1732.58
782.48	1648.61
782.66	1730.53
782.83	1880.04
783.01	1708.01
783.19	1763.30
783.36	1757.16
783.54	1646.57
783.72	1826.79
783.89	1673.19
784.07	1746.92
784.24	1726.44
784.42	1775.59
784.60	1685.48
784.77	1728.49
784.95	1611.75
785.12	1626.09
785.30	1695.72
785.47	1679.33
785.65	1675.24
785.83	1742.82
786.00	1626.09
786.18	1779.68
786.35	1673.19
786.53	1718.25
786.71	1738.73
786.88	1775.59
787.06	1753.06
787.23	1644.52
787.41	1695.72
787.58	1722.34
787.76	1689.57
787.94	1779.68
788.11	1751.01
788.29	1619.94
788.46	1638.38
788.64	1632.23
788.81	1617.90
788.99	1648.61
789.16	1673.19
789.34	1693.67
789.52	1671.14
789.69	1681.38
789.87	1626.09
790.04	1699.81
790.22	1667.05
790.39	1820.64
790.57	1646.57
790.74	1746.92
790.92	1783.78
791.09	1642.47
791.27	1714.15
791.44	1812.45
791.62	1740.77
791.79	1787.88
791.97	1716.20
792.15	1834.98
792.32	1738.73
792.50	1683.43
792.67	1767.40
792.85	1773.54
793.02	1716.20
793.20	1693.67
793.37	1552.36
793.55	1669.09
793.72	1632.23
793.90	1755.11
794.07	1730.53
794.25	1724.39
794.42	1634.28
794.60	1714.15
794.77	1759.21
794.95	1675.24
795.12	1769.44
795.30	1697.77
795.47	1652.71
795.65	1927.14
795.82	1697.77
796.00	1632.23
796.17	1705.96
796.34	1621.99
796.52	1740.77
796.69	1757.16
796.87	1730.53
797.04	1755.11
797.22	1771.49
797.39	1781.73
797.57	1730.53
797.74	1767.40
797.92	1687.53
798.09	1626.09
798.27	1753.06
798.44	1775.59
798.62	1705.96
798.79	1738.73
798.96	1730.53
799.14	1677.29
799.31	1787.88
799.49	1708.01
799.66	1636.33
799.84	1732.58
800.01	1662.95
800.19	1726.44
800.36	1599.46
800.53	1728.49
800.71	1681.38
800.88	1724.39
801.06	1738.73
801.23	1724.39
801.41	1718.25
801.58	1644.52
801.75	1724.39
801.93	1806.31
802.10	1677.29
802.28	1681.38
802.45	1642.47
802.63	1773.54
802.80	1738.73
802.97	1646.57
803.15	1716.20
803.32	1660.90
803.50	1632.23
803.67	1652.71
803.84	1685.48
804.02	1746.92
804.19	1683.43
804.37	1624.04
804.54	1583.08
804.71	1710.05
804.89	1718.25
805.06	1621.99
805.24	1601.51
805.41	1726.44
805.58	1683.43
805.76	1783.78
805.93	1689.57
806.10	1751.01
806.28	1781.73
806.45	1712.10
806.63	1773.54
806.80	1714.15
806.97	1687.53
807.15	1667.05
807.32	1724.39
807.49	1667.05
807.67	1621.99
807.84	1759.21
808.01	1642.47
808.19	1828.84
808.36	1796.07
808.54	1583.08
808.71	1619.94
808.88	1783.78
809.06	1718.25
809.23	1783.78
809.40	1665.00
809.58	1800.16
809.75	1636.33
809.92	1677.29
810.10	1796.07
810.27	1679.33
810.44	1728.49
810.62	1699.81
810.79	1701.86
810.96	1732.58
811.14	1730.53
811.31	1671.14
811.48	1765.35
811.66	1734.63
811.83	1669.09
812.00	1746.92
812.18	1748.97
812.35	1853.41
812.52	1757.16
812.69	1751.01
812.87	1699.81
813.04	1708.01
813.21	1726.44
813.39	1671.14
813.56	1679.33
813.73	1804.26
813.91	1576.94
814.08	1662.95
814.25	1740.77
814.42	1591.27
814.60	1753.06
814.77	1740.77
814.94	1732.58
815.12	1742.82
815.29	1834.98
815.46	1689.57
815.63	1701.86
815.81	1679.33
815.98	1599.46
816.15	1669.09
816.33	1724.39
816.50	1705.96
816.67	1660.90
816.84	1644.52
817.02	1681.38
817.19	1693.67
817.36	1728.49
817.53	1738.73
817.71	1646.57
817.88	1771.49
818.05	1619.94
818.22	1671.14
818.40	1820.64
818.57	1716.20
818.74	1662.95
818.91	1677.29
819.09	1714.15
819.26	1738.73
819.43	1667.05
819.60	1675.24
819.78	1765.35
819.95	1744.87
820.12	1658.85
820.29	1841.12
820.47	1734.63
820.64	1662.95
820.81	1648.61
820.98	1630.18
821.15	1691.62
821.33	1794.02
821.50	1669.09
821.67	1738.73
821.84	1679.33
822.02	1765.35
822.19	1712.10
822.36	1701.86
822.53	1679.33
822.70	1738.73
822.88	1654.76
823.05	1796.07
823.22	1714.15
823.39	1779.68
823.56	1761.25
823.74	1841.12
823.91	1665.00
824.08	1628.14
824.25	1728.49
824.42	1789.92
824.60	1697.77
824.77	1687.53
824.94	1652.71
825.11	1740.77
825.28	1599.46
825.45	1773.54
825.63	1710.05
825.80	1689.57
825.97	1765.35
826.14	1718.25
826.31	1654.76
826.48	1765.35
826.66	1673.19
826.83	1687.53
827.00	1691.62
827.17	1675.24
827.34	1722.34
827.51	1695.72
827.69	1679.33
827.86	1626.09
828.03	1638.38
828.20	1720.29
828.37	1640.42
828.54	1728.49
828.71	1660.90
828.89	1728.49
829.06	1685.48
829.23	1828.84
829.40	1656.81
829.57	1687.53
829.74	1701.86
829.91	1685.48
830.09	1689.57
830.26	1718.25
830.43	1787.88
830.60	1716.20
830.77	1748.97
830.94	1703.91
831.11	1767.40
831.28	1724.39
831.46	1773.54
831.63	1738.73
831.80	1742.82
831.97	1718.25
832.14	1748.97
832.31	1724.39
832.48	1722.34
832.65	1708.01
832.82	1648.61
832.99	1683.43
833.17	1656.81
833.34	1734.63
833.51	1757.16
833.68	1615.85
833.85	1761.25
834.02	1605.61
834.19	1689.57
834.36	1714.15
834.53	1746.92
834.70	1765.35
834.87	1746.92
835.04	1601.51
835.22	1697.77
835.39	1697.77
835.56	1703.91
835.73	1712.10
835.90	1732.58
836.07	1701.86
836.24	1742.82
836.41	1685.48
836.58	1626.09
836.75	1769.44
836.92	1714.15
837.09	1624.04
837.26	1662.95
837.43	1716.20
837.60	1716.20
837.77	1685.48
837.94	1728.49
838.12	1812.45
838.29	1673.19
838.46	1599.46
838.63	1722.34
838.80	1851.36
838.97	1753.06
839.14	1730.53
839.31	1716.20
839.48	1701.86
839.65	1679.33
839.82	1765.35
839.99	1652.71
840.16	1763.30
840.33	1640.42
840.50	1648.61
840.67	1662.95
840.84	1665.00
841.01	1767.40
841.18	1714.15
841.35	1636.33
841.52	1783.78
841.69	1773.54
841.86	1759.21
842.03	1695.72
842.20	1775.59
842.37	1642.47
842.54	1671.14
842.71	1726.44
842.88	1658.85
843.05	1824.74
843.22	1681.38
843.39	1720.29
843.56	1722.34
843.73	1677.29
843.90	1716.20
844.07	1689.57
844.24	1765.35
844.41	1808.36
844.58	1738.73
844.75	1660.90
844.92	1740.77
845.09	1730.53
845.26	1613.80
845.43	1808.36
845.60	1755.11
845.77	1628.14
845.94	1689.57
846.10	1779.68
846.27	1648.61
846.44	1630.18
846.61	1624.04
846.78	1734.63
846.95	1791.97
847.12	1718.25
847.29	1621.99
847.46	1679.33
847.63	1763.30
847.80	1648.61
847.97	1677.29
848.14	1798.12
848.31	1667.05
848.48	1683.43
848.65	1677.29
848.82	1654.76
848.98	1701.86
849.15	1773.54
849.32	1673.19
849.49	1771.49
849.66	1687.53
849.83	1669.09
850.00	1636.33
850.17	1748.97
850.34	1642.47
850.51	1615.85
850.68	1734.63
850.85	1853.41
851.01	1644.52
851.18	1734.63
851.35	1695.72
851.52	1779.68
851.69	1763.30
851.86	1726.44
852.03	1626.09
852.20	1796.07
852.37	1724.39
852.53	1652.71
852.70	1693.67
852.87	1738.73
853.04	1773.54
853.21	1710.05
853.38	1816.55
853.55	1789.92
853.72	1830.88
853.89	1658.85
854.05	1665.00
854.22	1763.30
854.39	1705.96
854.56	1726.44
854.73	1748.97
854.90	1624.04
855.07	1667.05
855.23	1642.47
855.40	1642.47
855.57	1685.48
855.74	1578.98
855.91	1816.55
856.08	1683.43
856.25	1611.75
856.41	1619.94
856.58	1634.28
856.75	1705.96
856.92	1593.32
857.09	1767.40
857.26	1587.18
857.42	1724.39
857.59	1701.86
857.76	1662.95
857.93	1755.11
858.10	1724.39
858.27	1650.66
858.43	1683.43
858.60	1724.39
858.77	1615.85
858.94	1695.72
859.11	1775.59
859.27	1677.29
859.44	1669.09
859.61	1767.40
859.78	1798.12
859.95	1775.59
860.12	1683.43
860.28	1806.31
860.45	1869.80
860.62	1691.62
860.79	1667.05
860.95	1718.25
861.12	1652.71
861.29	1695.72
861.46	1650.66
861.63	1724.39
861.79	1687.53
861.96	1697.77
862.13	1628.14
862.30	1742.82
862.47	1650.66
862.63	1599.46
862.80	1751.01
862.97	1775.59
863.14	1677.29
863.30	1740.77
863.47	1675.24
863.64	1806.31
863.81	1802.21
863.97	1691.62
864.14	1755.11
864.31	1638.38
864.48	1818.60
864.65	1624.04
864.81	1722.34
864.98	1830.88
865.15	1685.48
865.32	1740.77
865.48	1738.73
865.65	1830.88
865.82	1689.57
865.98	1779.68
866.15	1800.16
866.32	1697.77
866.49	1650.66
866.65	1802.21
866.82	1595.37
866.99	1646.57
867.16	1720.29
867.32	1648.61
867.49	1609.70
867.66	1667.05
867.83	1626.09
867.99	1665.00
868.16	1724.39
868.33	1576.94
868.49	1751.01
868.66	1685.48
868.83	1748.97
868.99	1632.23
869.16	1808.36
869.33	1714.15
869.50	1746.92
869.66	1615.85
869.83	1613.80
870.00	1730.53
870.16	1763.30
870.33	1656.81
870.50	1736.68
870.66	1718.25
870.83	1806.31
871.00	1720.29
871.17	1681.38
871.33	1728.49
871.50	1697.77
871.67	1656.81
871.83	1673.19
872.00	1912.80
872.17	1720.29
872.33	1816.55
872.50	1798.12
872.67	1677.29
872.83	1665.00
873.00	1693.67
873.17	1728.49
873.33	1814.50
873.50	1783.78
873.67	1642.47
873.83	1652.71
874.00	1673.19
874.16	1728.49
874.33	1746.92
874.50	1615.85
874.66	1724.39
874.83	1689.57
875.00	1755.11
875.16	1767.40
875.33	1810.40
875.50	1607.66
875.66	1640.42
875.83	1619.94
875.99	1796.07
876.16	1644.52
876.33	1675.24
876.49	1716.20
876.66	1740.77
876.83	1732.58
876.99	1632.23
877.16	1671.14
877.32	1687.53
877.49	1683.43
877.66	1734.63
877.82	1755.11
877.99	1714.15
878.15	1667.05
878.32	1669.09
878.49	1705.96
878.65	1687.53
878.82	1787.88
878.98	1689.57
879.15	1742.82
879.32	1720.29
879.48	1669.09
879.65	1734.63
879.81	1714.15
879.98	1671.14
880.15	1687.53
880.31	1718.25
880.48	1564.65
880.64	1810.40
880.81	1773.54
880.97	1734.63
881.14	1755.11
881.31	1650.66
881.47	1890.28
881.64	1712.10
881.80	1595.37
881.97	1687.53
882.13	1822.69
882.30	1667.05
882.47	1701.86
882.63	1724.39
882.80	1691.62
882.96	1632.23
883.13	1781.73
883.29	1660.90
883.46	1718.25
883.62	1939.43
883.79	1693.67
883.95	1738.73
884.12	1667.05
884.29	1744.87
884.45	1621.99
884.62	1728.49
884.78	1607.66
884.95	1796.07
885.11	1722.34
885.28	1665.00
885.44	1734.63
885.61	1726.44
885.77	1779.68
885.94	1724.39
886.10	1677.29
886.27	1738.73
886.43	1808.36
886.60	1791.97
886.76	1708.01
886.93	1648.61
887.09	1763.30
887.26	1624.04
887.42	1728.49
887.59	1781.73
887.75	1804.26
887.92	1796.07
888.08	1773.54
888.25	1781.73
888.41	1746.92
888.58	1697.77
888.74	1675.24
888.91	1716.20
>>>>>End Processed Spectral Data<<<<<
