SpectraSuite Data File
++++++++++++++++++++++++++++++++++++
Date: Mon Jun 06 15:40:37 CEST 2016
User: root
Dark Spectrum Present: No
Reference Spectrum Present: No
Number of Sampled Component Spectra: 1
Spectrometers: USB4C02835
Integration Time (usec): 100000 (USB4C02835)
Spectra Averaged: 1 (USB4C02835)
Boxcar Smoothing: 0 (USB4C02835)
Correct for Electrical Dark: No (USB4C02835)
Strobe/Lamp Enabled: No (USB4C02835)
Correct for Detector Non-linearity: No (USB4C02835)
Correct for Stray Light: No (USB4C02835)
Number of Pixels in Processed Spectrum: 3648
>>>>>Begin Processed Spectral Data<<<<<
177.47	1435.63
177.69	1435.63
177.91	1435.63
178.13	1523.69
178.36	1462.25
178.58	1728.49
178.80	1748.97
179.02	1630.18
179.24	1693.67
179.46	1644.52
179.68	1730.53
179.90	1693.67
180.13	1710.05
180.35	1640.42
180.57	1708.01
180.79	1798.12
181.01	1689.57
181.23	1742.82
181.45	1771.49
181.67	1708.01
181.90	1728.49
182.12	1636.33
182.34	1656.81
182.56	1777.64
182.78	1662.95
183.00	1689.57
183.22	1687.53
183.44	1599.46
183.66	1845.22
183.89	1755.11
184.11	1665.00
184.33	1761.25
184.55	1806.31
184.77	1722.34
184.99	1761.25
185.21	1646.57
185.43	1781.73
185.65	1697.77
185.87	1667.05
186.10	1810.40
186.32	1875.94
186.54	1714.15
186.76	1777.64
186.98	1837.03
187.20	1757.16
187.42	1656.81
187.64	1724.39
187.86	1755.11
188.08	1755.11
188.30	1642.47
188.52	1781.73
188.75	1738.73
188.97	1753.06
189.19	1724.39
189.41	1662.95
189.63	1736.68
189.85	1660.90
190.07	1611.75
190.29	1581.03
190.51	1722.34
190.73	1656.81
190.95	1796.07
191.17	1662.95
191.39	1675.24
191.61	1667.05
191.84	1695.72
192.06	1734.63
192.28	1667.05
192.50	1884.13
192.72	1722.34
192.94	1742.82
193.16	1830.88
193.38	1775.59
193.60	1652.71
193.82	1693.67
194.04	1796.07
194.26	1783.78
194.48	1654.76
194.70	1687.53
194.92	1753.06
195.14	1693.67
195.36	1722.34
195.58	1705.96
195.80	1728.49
196.02	1636.33
196.24	1677.29
196.46	1693.67
196.69	1687.53
196.91	1812.45
197.13	1632.23
197.35	1699.81
197.57	1798.12
197.79	1777.64
198.01	1757.16
198.23	1724.39
198.45	1730.53
198.67	1654.76
198.89	1638.38
199.11	1734.63
199.33	1732.58
199.55	1574.89
199.77	1744.87
199.99	1699.81
200.21	1679.33
200.43	1751.01
200.65	1648.61
200.87	1667.05
201.09	1714.15
201.31	1701.86
201.53	1720.29
201.75	1830.88
201.97	1691.62
202.19	1699.81
202.41	1779.68
202.63	1910.75
202.85	1742.82
203.07	1730.53
203.29	1769.44
203.51	1675.24
203.73	1642.47
203.95	1820.64
204.17	1800.16
204.39	1675.24
204.61	1728.49
204.83	1740.77
205.05	1675.24
205.27	1751.01
205.49	1871.84
205.71	1652.71
205.93	1640.42
206.15	1710.05
206.37	1736.68
206.59	1701.86
206.81	1714.15
207.03	1646.57
207.25	1667.05
207.47	1812.45
207.69	1675.24
207.91	1791.97
208.13	1794.02
208.34	1671.14
208.56	1642.47
208.78	1744.87
209.00	1769.44
209.22	1759.21
209.44	1720.29
209.66	1652.71
209.88	1730.53
210.10	1769.44
210.32	1691.62
210.54	1798.12
210.76	1599.46
210.98	1748.97
211.20	1603.56
211.42	1691.62
211.64	1748.97
211.86	1724.39
212.08	1728.49
212.30	1779.68
212.52	1742.82
212.74	1763.30
212.96	1691.62
213.17	1722.34
213.39	1742.82
213.61	1800.16
213.83	1730.53
214.05	1654.76
214.27	1740.77
214.49	1648.61
214.71	1656.81
214.93	1785.83
215.15	1621.99
215.37	1740.77
215.59	1562.60
215.81	1697.77
216.03	1828.84
216.24	1781.73
216.46	1667.05
216.68	1767.40
216.90	1804.26
217.12	1751.01
217.34	1726.44
217.56	1716.20
217.78	1755.11
218.00	1734.63
218.22	1730.53
218.44	1677.29
218.66	1755.11
218.87	1828.84
219.09	1753.06
219.31	1722.34
219.53	1773.54
219.75	1699.81
219.97	1644.52
220.19	1708.01
220.41	1759.21
220.63	1771.49
220.85	1712.10
221.06	1697.77
221.28	1806.31
221.50	1798.12
221.72	1683.43
221.94	1640.42
222.16	1650.66
222.38	1794.02
222.60	1824.74
222.82	1730.53
223.03	1748.97
223.25	1642.47
223.47	1826.79
223.69	1818.60
223.91	1824.74
224.13	1665.00
224.35	1667.05
224.57	1742.82
224.78	1710.05
225.00	1781.73
225.22	1705.96
225.44	1685.48
225.66	1757.16
225.88	1634.28
226.10	1716.20
226.32	1693.67
226.53	1777.64
226.75	1802.21
226.97	1669.09
227.19	1767.40
227.41	1669.09
227.63	1689.57
227.85	1603.56
228.06	1691.62
228.28	1822.69
228.50	1736.68
228.72	1599.46
228.94	1619.94
229.16	1656.81
229.37	1644.52
229.59	1617.90
229.81	1773.54
230.03	1703.91
230.25	1691.62
230.47	1658.85
230.69	1667.05
230.90	1710.05
231.12	1673.19
231.34	1699.81
231.56	1787.88
231.78	1599.46
232.00	1806.31
232.21	1742.82
232.43	1695.72
232.65	1609.70
232.87	1742.82
233.09	1685.48
233.30	1691.62
233.52	1781.73
233.74	1726.44
233.96	1748.97
234.18	1689.57
234.40	1718.25
234.61	1830.88
234.83	1517.54
235.05	1587.18
235.27	1877.99
235.49	1716.20
235.70	1726.44
235.92	1791.97
236.14	1701.86
236.36	1851.36
236.58	1640.42
236.79	1671.14
237.01	1701.86
237.23	1669.09
237.45	1828.84
237.67	1669.09
237.88	1746.92
238.10	1777.64
238.32	1705.96
238.54	1714.15
238.76	1726.44
238.97	1642.47
239.19	1642.47
239.41	1812.45
239.63	1742.82
239.85	1742.82
240.06	1656.81
240.28	1634.28
240.50	1777.64
240.72	1732.58
240.93	1638.38
241.15	1705.96
241.37	1748.97
241.59	1785.83
241.81	1718.25
242.02	1712.10
242.24	1761.25
242.46	1718.25
242.68	1671.14
242.89	1734.63
243.11	1787.88
243.33	1794.02
243.55	1730.53
243.76	1683.43
243.98	1660.90
244.20	1699.81
244.42	1648.61
244.64	1658.85
244.85	1669.09
245.07	1652.71
245.29	1744.87
245.51	1695.72
245.72	1716.20
245.94	1783.78
246.16	1751.01
246.38	1736.68
246.59	1646.57
246.81	1687.53
247.03	1716.20
247.24	1626.09
247.46	1681.38
247.68	1683.43
247.90	1683.43
248.11	1675.24
248.33	1763.30
248.55	1626.09
248.77	1714.15
248.98	1748.97
249.20	1875.94
249.42	1767.40
249.64	1761.25
249.85	1662.95
250.07	1701.86
250.29	1734.63
250.50	1853.41
250.72	1644.52
250.94	1710.05
251.16	1812.45
251.37	1789.92
251.59	1742.82
251.81	1794.02
252.02	1759.21
252.24	1695.72
252.46	1734.63
252.68	1660.90
252.89	1619.94
253.11	1574.89
253.33	1804.26
253.54	1783.78
253.76	1642.47
253.98	1705.96
254.20	1691.62
254.41	1640.42
254.63	1679.33
254.85	1595.37
255.06	1765.35
255.28	1673.19
255.50	1648.61
255.71	1679.33
255.93	1619.94
256.15	1714.15
256.36	1701.86
256.58	1624.04
256.80	1699.81
257.02	1734.63
257.23	1703.91
257.45	1634.28
257.67	1777.64
257.88	1693.67
258.10	1701.86
258.32	1742.82
258.53	1630.18
258.75	1902.56
258.97	1730.53
259.18	1722.34
259.40	1681.38
259.62	1845.22
259.83	1794.02
260.05	1761.25
260.27	1957.86
260.48	1734.63
260.70	1683.43
260.92	1728.49
261.13	1724.39
261.35	1783.78
261.57	1701.86
261.78	1650.66
262.00	1685.48
262.22	1775.59
262.43	1693.67
262.65	1667.05
262.86	1751.01
263.08	1894.37
263.30	1800.16
263.51	1630.18
263.73	1677.29
263.95	1775.59
264.16	1675.24
264.38	1636.33
264.60	1748.97
264.81	1744.87
265.03	1755.11
265.25	1839.08
265.46	1724.39
265.68	1779.68
265.89	1736.68
266.11	1656.81
266.33	1740.77
266.54	1748.97
266.76	1755.11
266.98	1724.39
267.19	1890.28
267.41	1814.50
267.62	1708.01
267.84	1714.15
268.06	1783.78
268.27	1726.44
268.49	1751.01
268.70	1859.56
268.92	1660.90
269.14	1656.81
269.35	1675.24
269.57	1734.63
269.79	1744.87
270.00	1697.77
270.22	1796.07
270.43	1685.48
270.65	1673.19
270.87	1712.10
271.08	1804.26
271.30	1757.16
271.51	1679.33
271.73	1800.16
271.95	1775.59
272.16	1650.66
272.38	1777.64
272.59	1691.62
272.81	1689.57
273.02	1722.34
273.24	1675.24
273.46	1779.68
273.67	1609.70
273.89	1662.95
274.10	1712.10
274.32	1718.25
274.54	1708.01
274.75	1730.53
274.97	1746.92
275.18	1726.44
275.40	1820.64
275.61	1714.15
275.83	1675.24
276.05	1656.81
276.26	1658.85
276.48	1738.73
276.69	1683.43
276.91	1671.14
277.12	1781.73
277.34	1767.40
277.55	1798.12
277.77	1718.25
277.99	1714.15
278.20	1691.62
278.42	1687.53
278.63	1734.63
278.85	1691.62
279.06	1710.05
279.28	1701.86
279.49	1708.01
279.71	1777.64
279.93	1779.68
280.14	1751.01
280.36	1744.87
280.57	1726.44
280.79	1822.69
281.00	1746.92
281.22	1656.81
281.43	1759.21
281.65	1634.28
281.86	1667.05
282.08	1781.73
282.29	1777.64
282.51	1574.89
282.73	1685.48
282.94	1611.75
283.16	1773.54
283.37	1787.88
283.59	1712.10
283.80	1732.58
284.02	1724.39
284.23	1705.96
284.45	1679.33
284.66	1665.00
284.88	1734.63
285.09	1771.49
285.31	1779.68
285.52	1720.29
285.74	1574.89
285.95	1796.07
286.17	1718.25
286.38	1773.54
286.60	1662.95
286.81	1665.00
287.03	1695.72
287.24	1665.00
287.46	1740.77
287.67	1669.09
287.89	1804.26
288.10	1748.97
288.32	1714.15
288.53	1818.60
288.75	1746.92
288.96	1746.92
289.18	1769.44
289.39	1763.30
289.61	1755.11
289.82	1765.35
290.04	1853.41
290.25	1632.23
290.47	1675.24
290.68	1660.90
290.90	1802.21
291.11	1554.41
291.33	1837.03
291.54	1578.98
291.76	1722.34
291.97	1751.01
292.18	1777.64
292.40	1648.61
292.61	1624.04
292.83	1855.46
293.04	1740.77
293.26	1746.92
293.47	1689.57
293.69	1705.96
293.90	1769.44
294.12	1808.36
294.33	1705.96
294.55	1734.63
294.76	1824.74
294.97	1808.36
295.19	1832.93
295.40	1619.94
295.62	1726.44
295.83	1761.25
296.05	1607.66
296.26	1742.82
296.48	1714.15
296.69	1658.85
296.90	1746.92
297.12	1718.25
297.33	1791.97
297.55	1714.15
297.76	1755.11
297.98	1859.56
298.19	1800.16
298.41	1693.67
298.62	1619.94
298.83	1826.79
299.05	1791.97
299.26	1687.53
299.48	1697.77
299.69	1681.38
299.90	1673.19
300.12	1673.19
300.33	1781.73
300.55	1697.77
300.76	1740.77
300.98	1712.10
301.19	1734.63
301.40	1656.81
301.62	1751.01
301.83	1808.36
302.05	1705.96
302.26	1740.77
302.47	1716.20
302.69	1550.31
302.90	1714.15
303.12	1638.38
303.33	1734.63
303.54	1763.30
303.76	1640.42
303.97	1730.53
304.19	1783.78
304.40	1617.90
304.61	1722.34
304.83	1865.70
305.04	1679.33
305.26	1748.97
305.47	1624.04
305.68	1789.92
305.90	1703.91
306.11	1689.57
306.33	1748.97
306.54	1683.43
306.75	1714.15
306.97	1660.90
307.18	1677.29
307.39	1630.18
307.61	1712.10
307.82	1714.15
308.04	1800.16
308.25	1656.81
308.46	1734.63
308.68	1650.66
308.89	1718.25
309.10	1763.30
309.32	1767.40
309.53	1730.53
309.74	1759.21
309.96	1650.66
310.17	1755.11
310.39	1693.67
310.60	1771.49
310.81	1736.68
311.03	1607.66
311.24	1757.16
311.45	1712.10
311.67	1814.50
311.88	1728.49
312.09	1662.95
312.31	1714.15
312.52	1656.81
312.73	1708.01
312.95	1587.18
313.16	1632.23
313.37	1693.67
313.59	1718.25
313.80	1820.64
314.01	1806.31
314.23	1683.43
314.44	1669.09
314.65	1665.00
314.87	1648.61
315.08	1777.64
315.29	1673.19
315.51	1656.81
315.72	1607.66
315.93	1714.15
316.15	1832.93
316.36	1699.81
316.57	1771.49
316.79	1693.67
317.00	1667.05
317.21	1746.92
317.43	1710.05
317.64	1740.77
317.85	1695.72
318.07	1673.19
318.28	1775.59
318.49	1783.78
318.70	1935.33
318.92	1796.07
319.13	1918.95
319.34	1855.46
319.56	1800.16
319.77	1796.07
319.98	1796.07
320.20	1802.21
320.41	1673.19
320.62	1767.40
320.83	1644.52
321.05	1859.56
321.26	1738.73
321.47	1800.16
321.69	1787.88
321.90	1669.09
322.11	1681.38
322.32	1814.50
322.54	1841.12
322.75	1583.08
322.96	1794.02
323.18	1658.85
323.39	1681.38
323.60	1638.38
323.81	1671.14
324.03	1644.52
324.24	1720.29
324.45	1718.25
324.66	1681.38
324.88	1787.88
325.09	1779.68
325.30	1695.72
325.52	1755.11
325.73	1693.67
325.94	1636.33
326.15	1587.18
326.37	1591.27
326.58	1742.82
326.79	1796.07
327.00	1658.85
327.22	1734.63
327.43	1658.85
327.64	1654.76
327.85	1759.21
328.07	1775.59
328.28	1794.02
328.49	1624.04
328.70	1693.67
328.92	1693.67
329.13	1765.35
329.34	1740.77
329.55	1871.84
329.76	1804.26
329.98	1656.81
330.19	1769.44
330.40	1796.07
330.61	1740.77
330.83	1759.21
331.04	1662.95
331.25	1689.57
331.46	1687.53
331.68	1656.81
331.89	1740.77
332.10	1712.10
332.31	1568.74
332.52	1693.67
332.74	1755.11
332.95	1738.73
333.16	1730.53
333.37	1728.49
333.58	1734.63
333.80	1699.81
334.01	1652.71
334.22	1656.81
334.43	1667.05
334.64	1662.95
334.86	1677.29
335.07	1720.29
335.28	1804.26
335.49	1626.09
335.70	1712.10
335.92	1769.44
336.13	1798.12
336.34	1802.21
336.55	1781.73
336.76	1697.77
336.98	1650.66
337.19	1736.68
337.40	1847.27
337.61	1834.98
337.82	1650.66
338.04	1759.21
338.25	1632.23
338.46	1726.44
338.67	1724.39
338.88	1673.19
339.09	1679.33
339.31	1648.61
339.52	1671.14
339.73	1597.42
339.94	1673.19
340.15	1771.49
340.36	1693.67
340.58	1658.85
340.79	1648.61
341.00	1767.40
341.21	1630.18
341.42	1767.40
341.63	1699.81
341.85	1820.64
342.06	1830.88
342.27	1626.09
342.48	1800.16
342.69	1585.13
342.90	1728.49
343.12	1726.44
343.33	1624.04
343.54	1753.06
343.75	1773.54
343.96	1701.86
344.17	1656.81
344.38	1767.40
344.60	1716.20
344.81	1710.05
345.02	1751.01
345.23	1806.31
345.44	1763.30
345.65	1765.35
345.86	1773.54
346.07	1748.97
346.29	1685.48
346.50	1716.20
346.71	1746.92
346.92	1771.49
347.13	1826.79
347.34	1710.05
347.55	1693.67
347.76	1755.11
347.98	1652.71
348.19	1740.77
348.40	1789.92
348.61	1722.34
348.82	1763.30
349.03	1740.77
349.24	1687.53
349.45	1773.54
349.66	1615.85
349.88	1683.43
350.09	1724.39
350.30	1757.16
350.51	1738.73
350.72	1759.21
350.93	1710.05
351.14	1632.23
351.35	1720.29
351.56	1701.86
351.77	1697.77
351.99	1837.03
352.20	1787.88
352.41	1802.21
352.62	1669.09
352.83	1681.38
353.04	1730.53
353.25	1652.71
353.46	1722.34
353.67	1769.44
353.88	1591.27
354.09	1699.81
354.30	1697.77
354.52	1785.83
354.73	1724.39
354.94	1728.49
355.15	1734.63
355.36	1859.56
355.57	1646.57
355.78	1683.43
355.99	1626.09
356.20	1726.44
356.41	1738.73
356.62	1775.59
356.83	1712.10
357.04	1814.50
357.25	1632.23
357.46	1722.34
357.68	1667.05
357.89	1669.09
358.10	1697.77
358.31	1736.68
358.52	1763.30
358.73	1695.72
358.94	1632.23
359.15	1585.13
359.36	1656.81
359.57	1673.19
359.78	1734.63
359.99	1757.16
360.20	1667.05
360.41	1714.15
360.62	1742.82
360.83	1722.34
361.04	1804.26
361.25	1679.33
361.46	1742.82
361.67	1816.55
361.88	1730.53
362.09	1810.40
362.30	1736.68
362.51	1708.01
362.72	1748.97
362.93	1785.83
363.14	1708.01
363.35	1753.06
363.56	1705.96
363.78	1812.45
363.99	1703.91
364.20	1753.06
364.41	1595.37
364.62	1832.93
364.83	1720.29
365.04	1667.05
365.25	1652.71
365.46	1845.22
365.67	1720.29
365.88	1585.13
366.09	1648.61
366.30	1671.14
366.51	1712.10
366.72	1619.94
366.93	1746.92
367.14	1718.25
367.35	1830.88
367.56	1732.58
367.77	1828.84
367.98	1675.24
368.18	1783.78
368.39	1732.58
368.60	1570.79
368.81	1746.92
369.02	1683.43
369.23	1607.66
369.44	1673.19
369.65	1730.53
369.86	1681.38
370.07	1740.77
370.28	1695.72
370.49	1710.05
370.70	1789.92
370.91	1630.18
371.12	1648.61
371.33	1804.26
371.54	1665.00
371.75	1730.53
371.96	1701.86
372.17	1712.10
372.38	1683.43
372.59	1705.96
372.80	1658.85
373.01	1699.81
373.22	1763.30
373.43	1722.34
373.64	1644.52
373.85	1818.60
374.06	1841.12
374.26	1748.97
374.47	1753.06
374.68	1769.44
374.89	1734.63
375.10	1691.62
375.31	1779.68
375.52	1693.67
375.73	1687.53
375.94	1730.53
376.15	1791.97
376.36	1669.09
376.57	1710.05
376.78	1675.24
376.99	1689.57
377.20	1753.06
377.40	1679.33
377.61	1798.12
377.82	1732.58
378.03	1751.01
378.24	1705.96
378.45	1781.73
378.66	1767.40
378.87	1599.46
379.08	1607.66
379.29	1705.96
379.50	1740.77
379.71	1646.57
379.91	1736.68
380.12	1693.67
380.33	1695.72
380.54	1689.57
380.75	1742.82
380.96	1640.42
381.17	1781.73
381.38	1695.72
381.59	1781.73
381.80	1779.68
382.00	1839.08
382.21	1740.77
382.42	1912.80
382.63	1861.60
382.84	1728.49
383.05	1736.68
383.26	1822.69
383.47	1771.49
383.68	1830.88
383.88	1763.30
384.09	1773.54
384.30	1781.73
384.51	1787.88
384.72	1667.05
384.93	1718.25
385.14	1736.68
385.35	1730.53
385.55	1734.63
385.76	1775.59
385.97	1697.77
386.18	1669.09
386.39	1687.53
386.60	1746.92
386.81	1673.19
387.02	1683.43
387.22	1660.90
387.43	1710.05
387.64	1845.22
387.85	1863.65
388.06	2156.51
388.27	4220.86
388.48	6608.80
388.68	8105.86
388.89	9412.46
389.10	9645.93
389.31	8437.63
389.52	7407.50
389.73	6573.98
389.93	6027.17
390.14	5756.84
390.35	5187.50
390.56	4540.35
390.77	3737.54
390.98	2996.18
391.18	2592.73
391.39	2099.17
391.60	1863.65
391.81	1841.12
392.02	1730.53
392.23	1880.04
392.43	1787.88
392.64	1843.17
392.85	1734.63
393.06	1738.73
393.27	1742.82
393.47	1767.40
393.68	1808.36
393.89	1703.91
394.10	1779.68
394.31	1701.86
394.52	1603.56
394.72	1654.76
394.93	1757.16
395.14	1636.33
395.35	1732.58
395.56	1746.92
395.76	1710.05
395.97	1783.78
396.18	1865.70
396.39	1828.84
396.60	2054.11
396.80	1892.32
397.01	1789.92
397.22	1869.80
397.43	1951.71
397.64	1810.40
397.84	1828.84
398.05	1925.09
398.26	1748.97
398.47	1796.07
398.67	1773.54
398.88	1746.92
399.09	1767.40
399.30	1681.38
399.51	1763.30
399.71	1662.95
399.92	1665.00
400.13	1771.49
400.34	1769.44
400.54	1730.53
400.75	1765.35
400.96	1730.53
401.17	1787.88
401.37	1683.43
401.58	1736.68
401.79	1677.29
402.00	1791.97
402.21	2047.97
402.41	1920.99
402.62	2021.35
402.83	1996.77
403.04	1953.76
403.24	2058.21
403.45	1814.50
403.66	1894.37
403.87	1882.08
404.07	1947.62
404.28	1920.99
404.49	1912.80
404.70	1787.88
404.90	1822.69
405.11	1726.44
405.32	1765.35
405.52	1726.44
405.73	1648.61
405.94	1607.66
406.15	1728.49
406.35	1693.67
406.56	1765.35
406.77	1705.96
406.98	1728.49
407.18	1683.43
407.39	1742.82
407.60	1724.39
407.80	1769.44
408.01	1697.77
408.22	1755.11
408.43	1697.77
408.63	1695.72
408.84	1724.39
409.05	1757.16
409.25	1685.48
409.46	1732.58
409.67	1648.61
409.88	1703.91
410.08	1769.44
410.29	1724.39
410.50	1714.15
410.70	1763.30
410.91	1683.43
411.12	1740.77
411.32	1708.01
411.53	1658.85
411.74	1796.07
411.95	1765.35
412.15	1703.91
412.36	1845.22
412.57	1732.58
412.77	1771.49
412.98	1740.77
413.19	1738.73
413.39	1724.39
413.60	1791.97
413.81	1808.36
414.01	1673.19
414.22	1708.01
414.43	1697.77
414.63	1701.86
414.84	1783.78
415.05	1773.54
415.25	1738.73
415.46	1751.01
415.67	1667.05
415.87	1763.30
416.08	1744.87
416.29	1740.77
416.49	1724.39
416.70	1734.63
416.91	1658.85
417.11	1751.01
417.32	1808.36
417.53	1683.43
417.73	1714.15
417.94	1804.26
418.15	1732.58
418.35	1822.69
418.56	1722.34
418.77	1941.47
418.97	1673.19
419.18	1710.05
419.38	1638.38
419.59	1689.57
419.80	1808.36
420.00	1697.77
420.21	1730.53
420.42	1759.21
420.62	1775.59
420.83	1658.85
421.04	1642.47
421.24	1683.43
421.45	1818.60
421.65	1779.68
421.86	1677.29
422.07	1767.40
422.27	1738.73
422.48	1763.30
422.69	1632.23
422.89	1669.09
423.10	1734.63
423.30	1703.91
423.51	1687.53
423.72	1703.91
423.92	1802.21
424.13	1605.61
424.33	1683.43
424.54	1763.30
424.75	1701.86
424.95	1834.98
425.16	1820.64
425.36	1697.77
425.57	1818.60
425.78	1716.20
425.98	1751.01
426.19	1710.05
426.39	1648.61
426.60	1728.49
426.81	1798.12
427.01	1710.05
427.22	1681.38
427.42	1562.60
427.63	1732.58
427.83	1767.40
428.04	1832.93
428.25	1849.32
428.45	1791.97
428.66	1697.77
428.86	1746.92
429.07	1693.67
429.28	1720.29
429.48	1679.33
429.69	1708.01
429.89	1730.53
430.10	1740.77
430.30	1703.91
430.51	1767.40
430.71	1673.19
430.92	1777.64
431.13	1683.43
431.33	1757.16
431.54	1724.39
431.74	1824.74
431.95	1843.17
432.15	1642.47
432.36	1806.31
432.56	1738.73
432.77	1798.12
432.98	1816.55
433.18	1730.53
433.39	1744.87
433.59	1677.29
433.80	1865.70
434.00	1808.36
434.21	1787.88
434.41	1712.10
434.62	1806.31
434.82	1701.86
435.03	1648.61
435.23	1718.25
435.44	1624.04
435.64	1816.55
435.85	1789.92
436.06	1789.92
436.26	1798.12
436.47	1691.62
436.67	1658.85
436.88	1665.00
437.08	1800.16
437.29	1869.80
437.49	1726.44
437.70	1830.88
437.90	1712.10
438.11	1798.12
438.31	1806.31
438.52	1826.79
438.72	1884.13
438.93	1894.37
439.13	1841.12
439.34	1877.99
439.54	1691.62
439.75	1779.68
439.95	1855.46
440.16	1693.67
440.36	1773.54
440.57	1726.44
440.77	1828.84
440.98	1687.53
441.18	1744.87
441.39	1736.68
441.59	1718.25
441.80	1845.22
442.00	1736.68
442.21	1777.64
442.41	1697.77
442.62	1808.36
442.82	1740.77
443.02	1708.01
443.23	1759.21
443.43	1767.40
443.64	1806.31
443.84	1710.05
444.05	1820.64
444.25	1812.45
444.46	1724.39
444.66	1740.77
444.87	1859.56
445.07	1587.18
445.28	1683.43
445.48	1822.69
445.69	1722.34
445.89	1853.41
446.09	1691.62
446.30	2035.68
446.50	2637.78
446.71	3692.49
446.91	4224.96
447.12	4634.55
447.32	4759.48
447.53	4270.01
447.73	3704.78
447.93	3477.45
448.14	3325.90
448.34	3213.26
448.55	2861.01
448.75	2899.92
448.96	2727.89
449.16	2420.70
449.36	2248.67
449.57	2125.79
449.77	1916.90
449.98	1789.92
450.18	1746.92
450.39	1830.88
450.59	1796.07
450.79	1716.20
451.00	1691.62
451.20	1767.40
451.41	1734.63
451.61	1839.08
451.81	1740.77
452.02	1716.20
452.22	1779.68
452.43	1722.34
452.63	1767.40
452.84	1736.68
453.04	1697.77
453.24	1773.54
453.45	1675.24
453.65	1744.87
453.86	1757.16
454.06	1800.16
454.26	1716.20
454.47	1683.43
454.67	1841.12
454.87	1783.78
455.08	1796.07
455.28	1767.40
455.49	1796.07
455.69	1658.85
455.89	1869.80
456.10	1779.68
456.30	1724.39
456.51	1806.31
456.71	1767.40
456.91	1808.36
457.12	1781.73
457.32	1791.97
457.52	1736.68
457.73	1781.73
457.93	1738.73
458.14	1746.92
458.34	1568.74
458.54	1679.33
458.75	1695.72
458.95	1867.75
459.15	1781.73
459.36	1724.39
459.56	1802.21
459.76	1863.65
459.97	1746.92
460.17	1742.82
460.37	1755.11
460.58	1638.38
460.78	1779.68
460.99	1671.14
461.19	1798.12
461.39	1656.81
461.60	1728.49
461.80	1748.97
462.00	1689.57
462.21	1697.77
462.41	1697.77
462.61	1710.05
462.82	1607.66
463.02	1751.01
463.22	1689.57
463.43	1834.98
463.63	1773.54
463.83	1767.40
464.04	1781.73
464.24	1689.57
464.44	1650.66
464.64	1806.31
464.85	1843.17
465.05	1781.73
465.25	1759.21
465.46	1718.25
465.66	1705.96
465.86	1746.92
466.07	1771.49
466.27	1693.67
466.47	1609.70
466.68	1685.48
466.88	1853.41
467.08	1787.88
467.29	1759.21
467.49	1828.84
467.69	1718.25
467.89	1757.16
468.10	1718.25
468.30	1808.36
468.50	1810.40
468.71	1755.11
468.91	1691.62
469.11	1845.22
469.31	1728.49
469.52	1736.68
469.72	1802.21
469.92	1916.90
470.13	1693.67
470.33	1763.30
470.53	1828.84
470.73	2113.50
470.94	2263.01
471.14	2402.27
471.34	2502.62
471.54	2351.07
471.75	2201.57
471.95	2289.63
472.15	2099.17
472.36	2080.74
472.56	2109.41
472.76	2021.35
472.96	2080.74
473.17	1980.39
473.37	1996.77
473.57	1789.92
473.77	1910.75
473.98	1705.96
474.18	1626.09
474.38	1796.07
474.58	1675.24
474.79	1689.57
474.99	1798.12
475.19	1691.62
475.39	1634.28
475.60	1804.26
475.80	1734.63
476.00	1679.33
476.20	1667.05
476.41	1755.11
476.61	1738.73
476.81	1798.12
477.01	1660.90
477.21	1798.12
477.42	1820.64
477.62	1685.48
477.82	1767.40
478.02	1601.51
478.23	1746.92
478.43	1634.28
478.63	1798.12
478.83	1732.58
479.03	1730.53
479.24	1804.26
479.44	1820.64
479.64	1689.57
479.84	1628.14
480.04	1753.06
480.25	1738.73
480.45	1701.86
480.65	1667.05
480.85	1742.82
481.06	1648.61
481.26	1753.06
481.46	1814.50
481.66	1722.34
481.86	1665.00
482.06	1822.69
482.27	1722.34
482.47	1748.97
482.67	1705.96
482.87	1794.02
483.07	1765.35
483.28	1662.95
483.48	1716.20
483.68	1744.87
483.88	1654.76
484.08	1626.09
484.29	1636.33
484.49	1779.68
484.69	1624.04
484.89	1796.07
485.09	1740.77
485.29	1759.21
485.50	1755.11
485.70	1732.58
485.90	1810.40
486.10	1742.82
486.30	1765.35
486.50	1787.88
486.71	1751.01
486.91	1775.59
487.11	1775.59
487.31	1675.24
487.51	1798.12
487.71	1701.86
487.91	1628.14
488.12	1681.38
488.32	1560.55
488.52	1669.09
488.72	1658.85
488.92	1716.20
489.12	1779.68
489.32	1796.07
489.53	1820.64
489.73	1615.85
489.93	1753.06
490.13	1767.40
490.33	1652.71
490.53	1722.34
490.73	1871.84
490.94	1710.05
491.14	1736.68
491.34	1820.64
491.54	2101.22
491.74	2512.86
491.94	2942.93
492.14	3131.34
492.34	2830.29
492.54	2731.99
492.75	2533.34
492.95	2443.23
493.15	2310.11
493.35	2258.91
493.55	2197.47
493.75	2158.56
493.95	2176.99
494.15	1972.19
494.35	1873.89
494.56	1859.56
494.76	1810.40
494.96	1771.49
495.16	1806.31
495.36	1746.92
495.56	1787.88
495.76	1755.11
495.96	1798.12
496.16	1703.91
496.36	1806.31
496.56	1705.96
496.77	1837.03
496.97	1802.21
497.17	1794.02
497.37	1662.95
497.57	1820.64
497.77	1753.06
497.97	1681.38
498.17	1757.16
498.37	1611.75
498.57	1785.83
498.77	1699.81
498.97	1812.45
499.17	1812.45
499.38	1724.39
499.58	1796.07
499.78	1808.36
499.98	1773.54
500.18	1755.11
500.38	1744.87
500.58	1875.94
500.78	2457.56
500.98	4474.81
501.18	5652.39
501.38	6614.94
501.58	7079.83
501.78	6500.25
501.98	5515.18
502.18	4845.49
502.38	4333.50
502.58	4136.90
502.78	3796.93
502.98	3557.32
503.18	3452.88
503.38	3108.82
503.59	2818.00
503.79	2645.98
503.99	2566.10
504.19	2287.58
504.39	2217.95
504.59	2252.77
504.79	2054.11
504.99	2119.65
505.19	1978.34
505.39	1898.47
505.59	1968.10
505.79	1849.32
505.99	1767.40
506.19	1798.12
506.39	1906.66
506.59	1771.49
506.79	1728.49
506.99	1783.78
507.19	1777.64
507.39	1753.06
507.59	1699.81
507.79	1681.38
507.99	1665.00
508.19	1787.88
508.39	1722.34
508.59	1771.49
508.79	1779.68
508.99	1900.52
509.19	1734.63
509.39	1777.64
509.59	1736.68
509.79	1665.00
509.99	1779.68
510.19	1775.59
510.39	1783.78
510.59	1775.59
510.79	1621.99
510.99	1687.53
511.19	1767.40
511.39	1841.12
511.59	1740.77
511.79	1800.16
511.99	1712.10
512.19	1839.08
512.38	1599.46
512.58	1699.81
512.78	1685.48
512.98	1802.21
513.18	1890.28
513.38	1746.92
513.58	1740.77
513.78	1738.73
513.98	1765.35
514.18	1722.34
514.38	1705.96
514.58	1808.36
514.78	1714.15
514.98	1714.15
515.18	1691.62
515.38	1701.86
515.58	1839.08
515.78	1710.05
515.98	1722.34
516.18	1748.97
516.38	1712.10
516.57	1783.78
516.77	1718.25
516.97	1816.55
517.17	1753.06
517.37	1624.04
517.57	1859.56
517.77	1812.45
517.97	1757.16
518.17	1779.68
518.37	1705.96
518.57	1759.21
518.77	1744.87
518.97	1644.52
519.16	1834.98
519.36	1759.21
519.56	1722.34
519.76	1720.29
519.96	1748.97
520.16	1830.88
520.36	1771.49
520.56	1824.74
520.76	1671.14
520.96	1734.63
521.16	1812.45
521.35	1798.12
521.55	1916.90
521.75	1785.83
521.95	1708.01
522.15	1744.87
522.35	1656.81
522.55	1781.73
522.75	1789.92
522.95	1705.96
523.14	1695.72
523.34	1804.26
523.54	1669.09
523.74	1781.73
523.94	1773.54
524.14	1677.29
524.34	1716.20
524.54	1822.69
524.73	1730.53
524.93	1742.82
525.13	1699.81
525.33	1689.57
525.53	1892.32
525.73	1845.22
525.93	1710.05
526.13	1708.01
526.32	1718.25
526.52	1787.88
526.72	1814.50
526.92	1732.58
527.12	1617.90
527.32	1628.14
527.52	1708.01
527.71	1761.25
527.91	1718.25
528.11	1705.96
528.31	1732.58
528.51	1712.10
528.71	1771.49
528.90	1771.49
529.10	1828.84
529.30	1839.08
529.50	1517.54
529.70	1777.64
529.90	1794.02
530.09	1761.25
530.29	1714.15
530.49	1648.61
530.69	1863.65
530.89	1730.53
531.09	1849.32
531.28	1734.63
531.48	1855.46
531.68	1726.44
531.88	1830.88
532.08	1802.21
532.28	1632.23
532.47	1849.32
532.67	1814.50
532.87	1742.82
533.07	1650.66
533.27	1779.68
533.46	1761.25
533.66	1773.54
533.86	1630.18
534.06	1640.42
534.26	1697.77
534.45	1710.05
534.65	1806.31
534.85	1738.73
535.05	1697.77
535.25	1777.64
535.44	1583.08
535.64	1826.79
535.84	1773.54
536.04	1785.83
536.24	1644.52
536.43	1765.35
536.63	1808.36
536.83	1773.54
537.03	1736.68
537.22	1648.61
537.42	1621.99
537.62	1687.53
537.82	1671.14
538.02	1816.55
538.21	1853.41
538.41	1923.04
538.61	1746.92
538.81	1742.82
539.00	1853.41
539.20	1689.57
539.40	1716.20
539.60	1759.21
539.79	1787.88
539.99	1632.23
540.19	1683.43
540.39	1736.68
540.58	1796.07
540.78	1798.12
540.98	1808.36
541.18	1742.82
541.37	1804.26
541.57	1726.44
541.77	1744.87
541.97	1759.21
542.16	1734.63
542.36	1724.39
542.56	1755.11
542.76	1892.32
542.95	1789.92
543.15	1808.36
543.35	1728.49
543.54	1708.01
543.74	1710.05
543.94	1837.03
544.14	1718.25
544.33	1791.97
544.53	1693.67
544.73	1677.29
544.93	1753.06
545.12	1712.10
545.32	1710.05
545.52	1794.02
545.71	1679.33
545.91	1624.04
546.11	1779.68
546.30	1703.91
546.50	1806.31
546.70	1783.78
546.90	1708.01
547.09	1742.82
547.29	1685.48
547.49	1740.77
547.68	1736.68
547.88	1705.96
548.08	1718.25
548.27	2187.23
548.47	1685.48
548.67	1730.53
548.87	1814.50
549.06	1720.29
549.26	1800.16
549.46	1738.73
549.65	1814.50
549.85	1789.92
550.05	1714.15
550.24	1679.33
550.44	1734.63
550.64	1716.20
550.83	1691.62
551.03	1832.93
551.23	1773.54
551.42	1796.07
551.62	1746.92
551.82	1673.19
552.01	1775.59
552.21	1800.16
552.41	1787.88
552.60	1800.16
552.80	1751.01
553.00	1710.05
553.19	1746.92
553.39	1787.88
553.59	1648.61
553.78	1708.01
553.98	1773.54
554.17	1751.01
554.37	1765.35
554.57	1800.16
554.76	1654.76
554.96	1703.91
555.16	1732.58
555.35	1773.54
555.55	1777.64
555.75	1849.32
555.94	1777.64
556.14	1687.53
556.33	1730.53
556.53	1761.25
556.73	1800.16
556.92	1724.39
557.12	1808.36
557.32	1804.26
557.51	1798.12
557.71	1691.62
557.90	1767.40
558.10	1775.59
558.30	1765.35
558.49	1740.77
558.69	1818.60
558.88	1724.39
559.08	1744.87
559.28	1734.63
559.47	1785.83
559.67	1789.92
559.86	1816.55
560.06	1677.29
560.26	1822.69
560.45	1830.88
560.65	1812.45
560.84	1734.63
561.04	1718.25
561.24	1798.12
561.43	1662.95
561.63	1861.60
561.82	1705.96
562.02	1769.44
562.22	1755.11
562.41	1726.44
562.61	1726.44
562.80	1759.21
563.00	1861.60
563.19	1742.82
563.39	1771.49
563.59	1771.49
563.78	1673.19
563.98	1613.80
564.17	1699.81
564.37	1699.81
564.56	1730.53
564.76	1714.15
564.96	1806.31
565.15	1783.78
565.35	1943.52
565.54	1714.15
565.74	1832.93
565.93	1771.49
566.13	1781.73
566.32	1787.88
566.52	1789.92
566.71	1757.16
566.91	1755.11
567.11	1748.97
567.30	1671.14
567.50	1751.01
567.69	1771.49
567.89	1675.24
568.08	1624.04
568.28	1742.82
568.47	1699.81
568.67	1742.82
568.86	1689.57
569.06	1796.07
569.25	1683.43
569.45	1695.72
569.64	1822.69
569.84	1683.43
570.04	1808.36
570.23	1695.72
570.43	1824.74
570.62	1736.68
570.82	1902.56
571.01	1636.33
571.21	1671.14
571.40	1691.62
571.60	1810.40
571.79	1826.79
571.99	1755.11
572.18	1714.15
572.38	1753.06
572.57	1753.06
572.77	1843.17
572.96	1875.94
573.16	1769.44
573.35	1646.57
573.55	1886.18
573.74	1779.68
573.94	1736.68
574.13	1744.87
574.33	1812.45
574.52	1816.55
574.71	1810.40
574.91	1781.73
575.10	1693.67
575.30	1681.38
575.49	1693.67
575.69	1736.68
575.88	1787.88
576.08	1806.31
576.27	1853.41
576.47	1753.06
576.66	1861.60
576.86	1798.12
577.05	1791.97
577.25	1814.50
577.44	1892.32
577.64	1718.25
577.83	1791.97
578.02	1781.73
578.22	1837.03
578.41	1849.32
578.61	1679.33
578.80	1710.05
579.00	1751.01
579.19	1802.21
579.39	1740.77
579.58	1806.31
579.77	1734.63
579.97	1822.69
580.16	1810.40
580.36	1837.03
580.55	1769.44
580.75	1853.41
580.94	1740.77
581.13	1820.64
581.33	1789.92
581.52	1765.35
581.72	1863.65
581.91	1824.74
582.11	1808.36
582.30	1775.59
582.49	1763.30
582.69	1826.79
582.88	1765.35
583.08	1787.88
583.27	1900.52
583.47	1767.40
583.66	1755.11
583.85	1718.25
584.05	1755.11
584.24	1843.17
584.44	1714.15
584.63	1865.70
584.82	1783.78
585.02	1849.32
585.21	1839.08
585.41	1787.88
585.60	1882.08
585.79	2009.06
585.99	1902.56
586.18	1871.84
586.37	2144.22
586.57	3409.87
586.76	9799.53
586.96	24376.97
587.15	33652.22
587.34	39574.95
587.54	41024.91
587.73	35577.31
587.93	25706.10
588.12	20897.47
588.31	18073.32
588.51	15968.01
588.70	14853.92
588.89	13764.40
589.09	12222.28
589.28	10741.60
589.47	9217.91
589.67	7845.77
589.86	6268.83
590.06	4730.81
590.25	3850.18
590.44	3074.00
590.64	2510.81
590.83	2273.25
591.02	2076.64
591.22	2097.12
591.41	1939.43
591.60	1875.94
591.80	2019.30
591.99	1826.79
592.18	1658.85
592.38	1732.58
592.57	1701.86
592.76	1748.97
592.96	1771.49
593.15	1798.12
593.34	1826.79
593.54	1810.40
593.73	1785.83
593.92	1740.77
594.12	1748.97
594.31	1789.92
594.50	1824.74
594.70	1773.54
594.89	1847.27
595.08	1642.47
595.28	1818.60
595.47	1980.39
595.66	1847.27
595.86	1658.85
596.05	1738.73
596.24	1703.91
596.43	1820.64
596.63	1787.88
596.82	1789.92
597.01	1751.01
597.21	1869.80
597.40	1779.68
597.59	1763.30
597.79	1773.54
597.98	1724.39
598.17	1800.16
598.36	1773.54
598.56	1748.97
598.75	1708.01
598.94	1720.29
599.14	1787.88
599.33	1677.29
599.52	1812.45
599.71	1718.25
599.91	1783.78
600.10	1742.82
600.29	1757.16
600.48	1763.30
600.68	1718.25
600.87	1798.12
601.06	1742.82
601.26	1796.07
601.45	1800.16
601.64	1734.63
601.83	1787.88
602.03	1691.62
602.22	1669.09
602.41	1853.41
602.60	1855.46
602.80	1767.40
602.99	1718.25
603.18	1746.92
603.37	1744.87
603.57	1814.50
603.76	1777.64
603.95	1808.36
604.14	1673.19
604.34	1744.87
604.53	1716.20
604.72	1761.25
604.91	1781.73
605.10	1777.64
605.30	1718.25
605.49	1884.13
605.68	1798.12
605.87	1720.29
606.07	1662.95
606.26	1703.91
606.45	1796.07
606.64	1697.77
606.84	1767.40
607.03	1736.68
607.22	1724.39
607.41	1705.96
607.60	1681.38
607.80	1841.12
607.99	1798.12
608.18	1697.77
608.37	1730.53
608.56	1734.63
608.76	1830.88
608.95	1869.80
609.14	1822.69
609.33	1755.11
609.52	1796.07
609.72	1775.59
609.91	1783.78
610.10	1701.86
610.29	1865.70
610.48	1730.53
610.68	1818.60
610.87	1679.33
611.06	1796.07
611.25	1769.44
611.44	1818.60
611.63	1699.81
611.83	1834.98
612.02	1742.82
612.21	1779.68
612.40	1673.19
612.59	1658.85
612.79	1710.05
612.98	1808.36
613.17	1812.45
613.36	1683.43
613.55	1845.22
613.74	1783.78
613.93	1701.86
614.13	1763.30
614.32	1753.06
614.51	1802.21
614.70	1736.68
614.89	1740.77
615.08	1718.25
615.28	2035.68
615.47	1712.10
615.66	1738.73
615.85	1736.68
616.04	1814.50
616.23	1697.77
616.42	1685.48
616.62	1796.07
616.81	1738.73
617.00	1730.53
617.19	1763.30
617.38	1730.53
617.57	1718.25
617.76	1791.97
617.95	1834.98
618.15	1775.59
618.34	1816.55
618.53	1650.66
618.72	1787.88
618.91	1849.32
619.10	1855.46
619.29	1734.63
619.48	1789.92
619.68	1703.91
619.87	1753.06
620.06	1714.15
620.25	1769.44
620.44	1669.09
620.63	1730.53
620.82	1822.69
621.01	1669.09
621.20	1679.33
621.39	1691.62
621.59	1763.30
621.78	1656.81
621.97	1656.81
622.16	1728.49
622.35	1734.63
622.54	1757.16
622.73	1775.59
622.92	1613.80
623.11	1736.68
623.30	1681.38
623.49	1787.88
623.68	1656.81
623.88	1875.94
624.07	1775.59
624.26	1726.44
624.45	1781.73
624.64	1617.90
624.83	1789.92
625.02	1759.21
625.21	1714.15
625.40	1751.01
625.59	1880.04
625.78	1812.45
625.97	1740.77
626.16	1853.41
626.35	1746.92
626.54	1773.54
626.74	1806.31
626.93	1669.09
627.12	1656.81
627.31	1746.92
627.50	1783.78
627.69	1853.41
627.88	1791.97
628.07	1744.87
628.26	1693.67
628.45	1699.81
628.64	1701.86
628.83	1738.73
629.02	1705.96
629.21	1761.25
629.40	1753.06
629.59	1740.77
629.78	1759.21
629.97	1718.25
630.16	1675.24
630.35	1736.68
630.54	1712.10
630.73	1681.38
630.92	1683.43
631.11	1742.82
631.30	1775.59
631.49	1753.06
631.68	1705.96
631.87	1726.44
632.06	1689.57
632.25	1847.27
632.44	1753.06
632.63	1691.62
632.82	1714.15
633.01	1691.62
633.20	1673.19
633.39	1701.86
633.58	1615.85
633.77	1621.99
633.96	1800.16
634.15	1705.96
634.34	1771.49
634.53	1703.91
634.72	1716.20
634.91	1667.05
635.10	1728.49
635.29	1783.78
635.48	1712.10
635.67	1662.95
635.86	1771.49
636.05	1775.59
636.24	1730.53
636.43	1701.86
636.62	1751.01
636.81	1576.94
637.00	1791.97
637.19	1806.31
637.38	1746.92
637.57	1771.49
637.76	1701.86
637.95	1703.91
638.14	1699.81
638.33	1626.09
638.52	1708.01
638.71	1705.96
638.89	1726.44
639.08	1877.99
639.27	1841.12
639.46	1730.53
639.65	1806.31
639.84	1814.50
640.03	1816.55
640.22	1763.30
640.41	1746.92
640.60	1681.38
640.79	1849.32
640.98	1699.81
641.17	1789.92
641.36	1716.20
641.55	1763.30
641.74	1718.25
641.92	1740.77
642.11	1730.53
642.30	1726.44
642.49	1724.39
642.68	1742.82
642.87	1855.46
643.06	1732.58
643.25	1701.86
643.44	1718.25
643.63	1693.67
643.82	1851.36
644.00	1710.05
644.19	1679.33
644.38	1642.47
644.57	1800.16
644.76	1710.05
644.95	1673.19
645.14	1685.48
645.33	1720.29
645.52	1738.73
645.71	1619.94
645.89	1724.39
646.08	1681.38
646.27	1757.16
646.46	1824.74
646.65	1640.42
646.84	1658.85
647.03	1648.61
647.22	1779.68
647.40	1751.01
647.59	1660.90
647.78	1562.60
647.97	1640.42
648.16	1605.61
648.35	1785.83
648.54	1738.73
648.73	1728.49
648.91	1712.10
649.10	1779.68
649.29	1646.57
649.48	1673.19
649.67	1755.11
649.86	1695.72
650.05	1683.43
650.23	1787.88
650.42	1751.01
650.61	1804.26
650.80	1716.20
650.99	1853.41
651.18	1757.16
651.36	1771.49
651.55	1746.92
651.74	1769.44
651.93	1708.01
652.12	1738.73
652.31	1693.67
652.49	1730.53
652.68	1736.68
652.87	1730.53
653.06	1781.73
653.25	1773.54
653.44	1730.53
653.62	1798.12
653.81	1732.58
654.00	1705.96
654.19	1767.40
654.38	1898.47
654.56	1720.29
654.75	1742.82
654.94	1730.53
655.13	1794.02
655.32	1714.15
655.51	1791.97
655.69	1699.81
655.88	1744.87
656.07	1763.30
656.26	1720.29
656.45	1691.62
656.63	1746.92
656.82	1736.68
657.01	1730.53
657.20	1740.77
657.38	1816.55
657.57	1798.12
657.76	1728.49
657.95	1787.88
658.14	1667.05
658.32	1767.40
658.51	1671.14
658.70	1689.57
658.89	1765.35
659.08	1693.67
659.26	1796.07
659.45	1634.28
659.64	1787.88
659.83	1720.29
660.01	1925.09
660.20	1789.92
660.39	1810.40
660.58	1634.28
660.76	1708.01
660.95	1652.71
661.14	1771.49
661.33	1679.33
661.51	1656.81
661.70	1689.57
661.89	1746.92
662.08	1757.16
662.26	1646.57
662.45	1654.76
662.64	1777.64
662.83	1787.88
663.01	1665.00
663.20	1671.14
663.39	1869.80
663.58	1681.38
663.76	1718.25
663.95	1757.16
664.14	1734.63
664.32	1624.04
664.51	1718.25
664.70	1656.81
664.89	1753.06
665.07	1654.76
665.26	1791.97
665.45	1683.43
665.64	1765.35
665.82	1759.21
666.01	1734.63
666.20	1652.71
666.38	1798.12
666.57	1761.25
666.76	2215.90
666.95	4437.95
667.13	10389.35
667.32	14606.11
667.51	17716.98
667.69	18654.95
667.88	17168.12
668.07	12173.13
668.25	9365.36
668.44	7921.54
668.63	7040.92
668.81	6637.47
669.00	6059.94
669.19	5523.37
669.38	5001.14
669.56	4587.45
669.75	3948.48
669.94	3358.67
670.12	2918.36
670.31	2498.52
670.50	2248.67
670.68	2072.54
670.87	2002.91
671.06	1814.50
671.24	1751.01
671.43	1877.99
671.62	1748.97
671.80	1769.44
671.99	1791.97
672.18	1705.96
672.36	1710.05
672.55	1781.73
672.74	1744.87
672.92	1681.38
673.11	1736.68
673.29	1687.53
673.48	1789.92
673.67	1773.54
673.85	1773.54
674.04	1658.85
674.23	1638.38
674.41	1841.12
674.60	1667.05
674.79	1642.47
674.97	1705.96
675.16	1753.06
675.34	1763.30
675.53	1667.05
675.72	1818.60
675.90	1744.87
676.09	1742.82
676.28	1714.15
676.46	1716.20
676.65	1742.82
676.83	1744.87
677.02	1650.66
677.21	1726.44
677.39	1738.73
677.58	1708.01
677.77	1708.01
677.95	1726.44
678.14	1716.20
678.32	1683.43
678.51	1689.57
678.70	1882.08
678.88	1630.18
679.07	1763.30
679.25	1650.66
679.44	1748.97
679.63	1601.51
679.81	1708.01
680.00	1771.49
680.18	1701.86
680.37	1804.26
680.55	1748.97
680.74	1671.14
680.93	1683.43
681.11	1746.92
681.30	1763.30
681.48	1681.38
681.67	1710.05
681.85	1785.83
682.04	1708.01
682.23	1812.45
682.41	1734.63
682.60	1695.72
682.78	1738.73
682.97	1681.38
683.15	1626.09
683.34	1718.25
683.53	1767.40
683.71	1621.99
683.90	1880.04
684.08	1767.40
684.27	1710.05
684.45	1742.82
684.64	1728.49
684.82	1755.11
685.01	1779.68
685.19	1740.77
685.38	1820.64
685.57	1689.57
685.75	1667.05
685.94	1691.62
686.12	1714.15
686.31	1701.86
686.49	1794.02
686.68	1595.37
686.86	1710.05
687.05	1708.01
687.23	1810.40
687.42	1714.15
687.60	1644.52
687.79	1753.06
687.97	1894.37
688.16	1761.25
688.34	1667.05
688.53	1677.29
688.71	1726.44
688.90	1832.93
689.08	1800.16
689.27	1652.71
689.45	1767.40
689.64	1738.73
689.82	1839.08
690.01	1765.35
690.19	1746.92
690.38	1724.39
690.56	1769.44
690.75	1673.19
690.93	1763.30
691.12	1665.00
691.30	1728.49
691.49	1675.24
691.67	1665.00
691.86	1818.60
692.04	1626.09
692.23	1591.27
692.41	1679.33
692.60	1789.92
692.78	1783.78
692.97	1681.38
693.15	1783.78
693.34	1832.93
693.52	1771.49
693.71	1683.43
693.89	1705.96
694.08	1578.98
694.26	1789.92
694.44	1775.59
694.63	1769.44
694.81	1722.34
695.00	1669.09
695.18	1802.21
695.37	1929.19
695.55	1744.87
695.74	1667.05
695.92	1712.10
696.10	1800.16
696.29	1722.34
696.47	1730.53
696.66	1624.04
696.84	1585.13
697.03	1775.59
697.21	1826.79
697.40	2355.16
697.58	1787.88
697.76	1685.48
697.95	1689.57
698.13	1669.09
698.32	1687.53
698.50	1787.88
698.68	1744.87
698.87	1712.10
699.05	1845.22
699.24	1773.54
699.42	1681.38
699.61	1742.82
699.79	1677.29
699.97	1628.14
700.16	1642.47
700.34	1615.85
700.53	1705.96
700.71	1775.59
700.89	1732.58
701.08	1744.87
701.26	1746.92
701.45	2062.30
701.63	1701.86
701.81	1769.44
702.00	1644.52
702.18	1722.34
702.37	1665.00
702.55	1730.53
702.73	1755.11
702.92	1619.94
703.10	1675.24
703.28	1796.07
703.47	1687.53
703.65	1818.60
703.84	1763.30
704.02	1714.15
704.20	1832.93
704.39	1712.10
704.57	1685.48
704.75	1816.55
704.94	1757.16
705.12	1722.34
705.30	1816.55
705.49	2277.34
705.67	4374.46
705.86	9385.84
706.04	12318.53
706.22	14225.19
706.41	15003.42
706.59	13352.76
706.77	9402.22
706.96	7073.68
707.14	6500.25
707.32	5875.62
707.51	5439.40
707.69	4845.49
707.87	4097.99
708.06	3454.92
708.24	2953.17
708.42	2484.19
708.61	2164.70
708.79	1984.48
708.97	1804.26
709.16	1896.42
709.34	1744.87
709.52	1726.44
709.71	1736.68
709.89	1796.07
710.07	1695.72
710.26	1654.76
710.44	1730.53
710.62	1830.88
710.80	1679.33
710.99	1816.55
711.17	1841.12
711.35	1632.23
711.54	1703.91
711.72	1751.01
711.90	1718.25
712.09	1697.77
712.27	1714.15
712.45	1763.30
712.63	1619.94
712.82	1849.32
713.00	1742.82
713.18	1738.73
713.37	1746.92
713.55	1738.73
713.73	1789.92
713.91	1767.40
714.10	1695.72
714.28	1722.34
714.46	1751.01
714.65	1742.82
714.83	1724.39
715.01	1732.58
715.19	1677.29
715.38	1634.28
715.56	1761.25
715.74	1687.53
715.92	1665.00
716.11	1884.13
716.29	1683.43
716.47	1763.30
716.65	1712.10
716.84	1615.85
717.02	1824.74
717.20	1554.41
717.38	1665.00
717.57	1794.02
717.75	1660.90
717.93	1677.29
718.11	1708.01
718.30	1708.01
718.48	1806.31
718.66	1785.83
718.84	1787.88
719.03	1705.96
719.21	1708.01
719.39	1787.88
719.57	1826.79
719.75	1744.87
719.94	1646.57
720.12	1691.62
720.30	1730.53
720.48	1705.96
720.67	1652.71
720.85	1675.24
721.03	1632.23
721.21	1603.56
721.39	1828.84
721.58	1720.29
721.76	1775.59
721.94	1818.60
722.12	1708.01
722.30	1828.84
722.49	1708.01
722.67	1810.40
722.85	1728.49
723.03	1607.66
723.21	1726.44
723.40	1693.67
723.58	1759.21
723.76	1740.77
723.94	1726.44
724.12	1708.01
724.30	1789.92
724.49	1824.74
724.67	1646.57
724.85	1802.21
725.03	1679.33
725.21	1730.53
725.40	1755.11
725.58	1736.68
725.76	1744.87
725.94	1679.33
726.12	1669.09
726.30	1738.73
726.49	1759.21
726.67	1703.91
726.85	1773.54
727.03	1800.16
727.21	2185.18
727.39	2906.07
727.57	3696.58
727.76	4069.31
727.94	4368.32
728.12	4339.65
728.30	3704.78
728.48	2938.84
728.66	2740.18
728.84	2598.87
729.03	2275.29
729.21	2189.28
729.39	1933.28
729.57	1865.70
729.75	1812.45
729.93	1867.75
730.11	1738.73
730.30	1681.38
730.48	1708.01
730.66	1791.97
730.84	1771.49
731.02	1662.95
731.20	1714.15
731.38	1722.34
731.56	1665.00
731.74	1646.57
731.93	1724.39
732.11	1695.72
732.29	1656.81
732.47	1718.25
732.65	1683.43
732.83	1855.46
733.01	1763.30
733.19	1615.85
733.37	1697.77
733.56	1648.61
733.74	1681.38
733.92	1761.25
734.10	1701.86
734.28	1826.79
734.46	1634.28
734.64	1703.91
734.82	1730.53
735.00	1607.66
735.18	1693.67
735.36	1677.29
735.54	1728.49
735.73	1730.53
735.91	1763.30
736.09	1728.49
736.27	1720.29
736.45	1804.26
736.63	1624.04
736.81	1701.86
736.99	1796.07
737.17	1759.21
737.35	1718.25
737.53	1667.05
737.71	1718.25
737.89	1767.40
738.07	1771.49
738.25	1648.61
738.43	1689.57
738.61	1667.05
738.80	1662.95
738.98	1568.74
739.16	1722.34
739.34	1697.77
739.52	1718.25
739.70	1759.21
739.88	1691.62
740.06	1755.11
740.24	1552.36
740.42	1812.45
740.60	1615.85
740.78	1648.61
740.96	1689.57
741.14	1683.43
741.32	1665.00
741.50	1638.38
741.68	1877.99
741.86	1779.68
742.04	1689.57
742.22	1646.57
742.40	1679.33
742.58	1751.01
742.76	1601.51
742.94	1718.25
743.12	1703.91
743.30	1671.14
743.48	1730.53
743.66	1673.19
743.84	1656.81
744.02	1650.66
744.20	1798.12
744.38	1638.38
744.56	1683.43
744.74	1783.78
744.92	1796.07
745.10	1798.12
745.28	1767.40
745.46	1814.50
745.64	1626.09
745.82	1673.19
746.00	1683.43
746.18	1665.00
746.36	1589.22
746.54	1699.81
746.72	1691.62
746.90	1669.09
747.08	1767.40
747.26	1712.10
747.44	1785.83
747.62	1775.59
747.80	1810.40
747.98	1812.45
748.15	1767.40
748.33	1849.32
748.51	1712.10
748.69	1771.49
748.87	1599.46
749.05	1701.86
749.23	1714.15
749.41	1716.20
749.59	1681.38
749.77	1755.11
749.95	1677.29
750.13	1714.15
750.31	1773.54
750.49	1714.15
750.67	1787.88
750.85	1791.97
751.03	1730.53
751.20	1800.16
751.38	1665.00
751.56	1746.92
751.74	1753.06
751.92	1667.05
752.10	1728.49
752.28	1755.11
752.46	1646.57
752.64	1673.19
752.82	1789.92
753.00	1806.31
753.18	1751.01
753.35	1736.68
753.53	1755.11
753.71	1660.90
753.89	1730.53
754.07	1763.30
754.25	1779.68
754.43	1667.05
754.61	1656.81
754.79	1695.72
754.97	1619.94
755.14	1757.16
755.32	1703.91
755.50	1716.20
755.68	1718.25
755.86	1701.86
756.04	1671.14
756.22	1644.52
756.40	1787.88
756.57	1787.88
756.75	1681.38
756.93	1796.07
757.11	1708.01
757.29	1669.09
757.47	1634.28
757.65	1685.48
757.82	1638.38
758.00	1636.33
758.18	1572.84
758.36	1755.11
758.54	1789.92
758.72	1658.85
758.90	1736.68
759.07	1681.38
759.25	1607.66
759.43	1730.53
759.61	1681.38
759.79	2172.89
759.97	1748.97
760.15	1757.16
760.32	1697.77
760.50	1775.59
760.68	1837.03
760.86	1619.94
761.04	1769.44
761.22	1720.29
761.39	1785.83
761.57	1693.67
761.75	1658.85
761.93	1740.77
762.11	1718.25
762.28	1748.97
762.46	1732.58
762.64	1748.97
762.82	1701.86
763.00	1683.43
763.18	1794.02
763.35	1710.05
763.53	1789.92
763.71	1730.53
763.89	1710.05
764.07	1671.14
764.24	1677.29
764.42	1761.25
764.60	1746.92
764.78	1656.81
764.96	1736.68
765.13	1832.93
765.31	1656.81
765.49	1773.54
765.67	1640.42
765.84	1736.68
766.02	1685.48
766.20	1613.80
766.38	1697.77
766.56	1681.38
766.73	1779.68
766.91	1708.01
767.09	1681.38
767.27	1785.83
767.44	1689.57
767.62	1714.15
767.80	1761.25
767.98	1669.09
768.15	1730.53
768.33	1818.60
768.51	1740.77
768.69	1767.40
768.87	1726.44
769.04	1691.62
769.22	1808.36
769.40	1771.49
769.58	1855.46
769.75	1701.86
769.93	1761.25
770.11	1744.87
770.28	1626.09
770.46	1726.44
770.64	1789.92
770.82	1656.81
770.99	1695.72
771.17	1740.77
771.35	1722.34
771.53	1730.53
771.70	1632.23
771.88	1705.96
772.06	1679.33
772.23	1705.96
772.41	1748.97
772.59	1759.21
772.77	1708.01
772.94	1712.10
773.12	1759.21
773.30	1753.06
773.47	1740.77
773.65	1656.81
773.83	1816.55
774.01	1634.28
774.18	1642.47
774.36	1681.38
774.54	1617.90
774.71	1701.86
774.89	1583.08
775.07	1576.94
775.24	1646.57
775.42	1675.24
775.60	1810.40
775.78	1732.58
775.95	1679.33
776.13	1599.46
776.31	1574.89
776.48	1695.72
776.66	1755.11
776.84	1699.81
777.01	1673.19
777.19	1652.71
777.37	1658.85
777.54	1730.53
777.72	1837.03
777.90	1703.91
778.07	1652.71
778.25	1855.46
778.43	1816.55
778.60	1683.43
778.78	1714.15
778.96	1730.53
779.13	1679.33
779.31	1746.92
779.49	1746.92
779.66	1703.91
779.84	1701.86
780.01	1665.00
780.19	1716.20
780.37	1767.40
780.54	1722.34
780.72	1683.43
780.90	1722.34
781.07	1634.28
781.25	1718.25
781.43	1759.21
781.60	1761.25
781.78	1806.31
781.95	1675.24
782.13	1710.05
782.31	1708.01
782.48	1613.80
782.66	1720.29
782.83	1755.11
783.01	1759.21
783.19	1746.92
783.36	1652.71
783.54	1636.33
783.72	1720.29
783.89	1705.96
784.07	1648.61
784.24	1728.49
784.42	1755.11
784.60	1830.88
784.77	1796.07
784.95	1554.41
785.12	1712.10
785.30	1650.66
785.47	1642.47
785.65	1654.76
785.83	1689.57
786.00	1705.96
786.18	1730.53
786.35	1634.28
786.53	1628.14
786.71	1740.77
786.88	1705.96
787.06	1718.25
787.23	1705.96
787.41	1697.77
787.58	1759.21
787.76	1578.98
787.94	1681.38
788.11	1722.34
788.29	1636.33
788.46	1732.58
788.64	1617.90
788.81	1687.53
788.99	1699.81
789.16	1675.24
789.34	1722.34
789.52	1648.61
789.69	1654.76
789.87	1619.94
790.04	1642.47
790.22	1755.11
790.39	1759.21
790.57	1665.00
790.74	1693.67
790.92	1759.21
791.09	1615.85
791.27	1763.30
791.44	1802.21
791.62	1699.81
791.79	1714.15
791.97	1695.72
792.15	1935.33
792.32	1744.87
792.50	1716.20
792.67	1818.60
792.85	1763.30
793.02	1732.58
793.20	1695.72
793.37	1656.81
793.55	1757.16
793.72	1658.85
793.90	1757.16
794.07	1710.05
794.25	1800.16
794.42	1714.15
794.60	1687.53
794.77	1695.72
794.95	1724.39
795.12	1781.73
795.30	1628.14
795.47	1593.32
795.65	1916.90
795.82	1785.83
796.00	1624.04
796.17	1677.29
796.34	1740.77
796.52	1669.09
796.69	1791.97
796.87	1769.44
797.04	1728.49
797.22	1781.73
797.39	1767.40
797.57	1765.35
797.74	1687.53
797.92	1730.53
798.09	1660.90
798.27	1716.20
798.44	1720.29
798.62	1685.48
798.79	1665.00
798.96	1763.30
799.14	1765.35
799.31	1931.23
799.49	1771.49
799.66	1675.24
799.84	1724.39
800.01	1701.86
800.19	1691.62
800.36	1640.42
800.53	1648.61
800.71	1718.25
800.88	1763.30
801.06	1673.19
801.23	1634.28
801.41	1697.77
801.58	1728.49
801.75	1683.43
801.93	1726.44
802.10	1716.20
802.28	1673.19
802.45	1644.52
802.63	1751.01
802.80	1812.45
802.97	1673.19
803.15	1683.43
803.32	1675.24
803.50	1665.00
803.67	1681.38
803.84	1640.42
804.02	1748.97
804.19	1593.32
804.37	1566.70
804.54	1673.19
804.71	1685.48
804.89	1681.38
805.06	1665.00
805.24	1640.42
805.41	1636.33
805.58	1595.37
805.76	1828.84
805.93	1736.68
806.10	1794.02
806.28	1718.25
806.45	1722.34
806.63	1755.11
806.80	1816.55
806.97	1656.81
807.15	1722.34
807.32	1798.12
807.49	1712.10
807.67	1656.81
807.84	1597.42
808.01	1640.42
808.19	1865.70
808.36	1820.64
808.54	1697.77
808.71	1585.13
808.88	1804.26
809.06	1732.58
809.23	1763.30
809.40	1712.10
809.58	1775.59
809.75	1769.44
809.92	1615.85
810.10	1802.21
810.27	1648.61
810.44	1712.10
810.62	1697.77
810.79	1736.68
810.96	1640.42
811.14	1593.32
811.31	1710.05
811.48	1804.26
811.66	1714.15
811.83	1791.97
812.00	1769.44
812.18	1730.53
812.35	1818.60
812.52	1648.61
812.69	1662.95
812.87	1703.91
813.04	1644.52
813.21	1738.73
813.39	1716.20
813.56	1742.82
813.73	1875.94
813.91	1638.38
814.08	1775.59
814.25	1697.77
814.42	1630.18
814.60	1744.87
814.77	1732.58
814.94	1720.29
815.12	1814.50
815.29	1785.83
815.46	1650.66
815.63	1677.29
815.81	1634.28
815.98	1724.39
816.15	1724.39
816.33	1726.44
816.50	1705.96
816.67	1681.38
816.84	1665.00
817.02	1611.75
817.19	1712.10
817.36	1716.20
817.53	1746.92
817.71	1648.61
817.88	1646.57
818.05	1693.67
818.22	1746.92
818.40	1884.13
818.57	1697.77
818.74	1669.09
818.91	1671.14
819.09	1761.25
819.26	1732.58
819.43	1669.09
819.60	1673.19
819.78	1740.77
819.95	1798.12
820.12	1646.57
820.29	1757.16
820.47	1834.98
820.64	1624.04
820.81	1587.18
820.98	1662.95
821.15	1755.11
821.33	1769.44
821.50	1591.27
821.67	1675.24
821.84	1685.48
822.02	1816.55
822.19	1724.39
822.36	1607.66
822.53	1675.24
822.70	1656.81
822.88	1681.38
823.05	1781.73
823.22	1703.91
823.39	1800.16
823.56	1646.57
823.74	1746.92
823.91	1632.23
824.08	1628.14
824.25	1665.00
824.42	1787.88
824.60	1656.81
824.77	1765.35
824.94	1734.63
825.11	1720.29
825.28	1658.85
825.45	1669.09
825.63	1740.77
825.80	1632.23
825.97	1705.96
826.14	1712.10
826.31	1634.28
826.48	1787.88
826.66	1687.53
826.83	1652.71
827.00	1724.39
827.17	1757.16
827.34	1755.11
827.51	1742.82
827.69	1742.82
827.86	1699.81
828.03	1640.42
828.20	1722.34
828.37	1679.33
828.54	1726.44
828.71	1714.15
828.89	1826.79
829.06	1767.40
829.23	1744.87
829.40	1677.29
829.57	1728.49
829.74	1720.29
829.91	1697.77
830.09	1703.91
830.26	1724.39
830.43	1785.83
830.60	1703.91
830.77	1767.40
830.94	1798.12
831.11	1720.29
831.28	1691.62
831.46	1728.49
831.63	1667.05
831.80	1785.83
831.97	1658.85
832.14	1650.66
832.31	1705.96
832.48	1746.92
832.65	1804.26
832.82	1724.39
832.99	1722.34
833.17	1671.14
833.34	1841.12
833.51	1722.34
833.68	1665.00
833.85	1734.63
834.02	1689.57
834.19	1691.62
834.36	1640.42
834.53	1687.53
834.70	1732.58
834.87	1755.11
835.04	1751.01
835.22	1710.05
835.39	1689.57
835.56	1644.52
835.73	1636.33
835.90	1687.53
836.07	1673.19
836.24	1761.25
836.41	1542.12
836.58	1665.00
836.75	1673.19
836.92	1724.39
837.09	1673.19
837.26	1693.67
837.43	1742.82
837.60	1656.81
837.77	1667.05
837.94	1767.40
838.12	1894.37
838.29	1785.83
838.46	1595.37
838.63	1583.08
838.80	1804.26
838.97	1769.44
839.14	1744.87
839.31	1781.73
839.48	1798.12
839.65	1681.38
839.82	1765.35
839.99	1710.05
840.16	1744.87
840.33	1703.91
840.50	1705.96
840.67	1624.04
840.84	1609.70
841.01	1701.86
841.18	1683.43
841.35	1718.25
841.52	1730.53
841.69	1767.40
841.86	1712.10
842.03	1689.57
842.20	1761.25
842.37	1685.48
842.54	1662.95
842.71	1734.63
842.88	1662.95
843.05	1796.07
843.22	1728.49
843.39	1791.97
843.56	1656.81
843.73	1705.96
843.90	1732.58
844.07	1751.01
844.24	1732.58
844.41	1710.05
844.58	1718.25
844.75	1730.53
844.92	1712.10
845.09	1683.43
845.26	1624.04
845.43	1753.06
845.60	1728.49
845.77	1763.30
845.94	1732.58
846.10	1751.01
846.27	1757.16
846.44	1605.61
846.61	1714.15
846.78	1724.39
846.95	1775.59
847.12	1783.78
847.29	1714.15
847.46	1683.43
847.63	1820.64
847.80	1726.44
847.97	1685.48
848.14	1882.08
848.31	1744.87
848.48	1662.95
848.65	1769.44
848.82	1656.81
848.98	1869.80
849.15	1744.87
849.32	1761.25
849.49	1718.25
849.66	1697.77
849.83	1726.44
850.00	1746.92
850.17	1705.96
850.34	1695.72
850.51	1677.29
850.68	1691.62
850.85	1861.60
851.01	1746.92
851.18	1789.92
851.35	1687.53
851.52	1759.21
851.69	1820.64
851.86	1619.94
852.03	1722.34
852.20	1740.77
852.37	1697.77
852.53	1550.31
852.70	1665.00
852.87	1759.21
853.04	1814.50
853.21	1732.58
853.38	1712.10
853.55	1873.89
853.72	1734.63
853.89	1650.66
854.05	1646.57
854.22	1675.24
854.39	1642.47
854.56	1761.25
854.73	1736.68
854.90	1595.37
855.07	1701.86
855.23	1619.94
855.40	1673.19
855.57	1705.96
855.74	1527.78
855.91	1873.89
856.08	1742.82
856.25	1589.22
856.41	1742.82
856.58	1699.81
856.75	1708.01
856.92	1671.14
857.09	1816.55
857.26	1667.05
857.42	1665.00
857.59	1748.97
857.76	1658.85
857.93	1705.96
858.10	1654.76
858.27	1660.90
858.43	1660.90
858.60	1599.46
858.77	1605.61
858.94	1720.29
859.11	1751.01
859.27	1626.09
859.44	1722.34
859.61	1826.79
859.78	1851.36
859.95	1673.19
860.12	1642.47
860.28	1849.32
860.45	1837.03
860.62	1660.90
860.79	1726.44
860.95	1716.20
861.12	1609.70
861.29	1677.29
861.46	1712.10
861.63	1708.01
861.79	1751.01
861.96	1718.25
862.13	1626.09
862.30	1779.68
862.47	1689.57
862.63	1689.57
862.80	1822.69
862.97	1798.12
863.14	1859.56
863.30	1708.01
863.47	1644.52
863.64	1753.06
863.81	1665.00
863.97	1722.34
864.14	1708.01
864.31	1746.92
864.48	1755.11
864.65	1730.53
864.81	1777.64
864.98	1812.45
865.15	1708.01
865.32	1751.01
865.48	1875.94
865.65	1816.55
865.82	1632.23
865.98	1732.58
866.15	1798.12
866.32	1712.10
866.49	1665.00
866.65	1787.88
866.82	1669.09
866.99	1738.73
867.16	1705.96
867.32	1683.43
867.49	1716.20
867.66	1691.62
867.83	1697.77
867.99	1691.62
868.16	1732.58
868.33	1636.33
868.49	1746.92
868.66	1744.87
868.83	1718.25
868.99	1693.67
869.16	1738.73
869.33	1705.96
869.50	1791.97
869.66	1599.46
869.83	1812.45
870.00	1621.99
870.16	1769.44
870.33	1767.40
870.50	1751.01
870.66	1705.96
870.83	1839.08
871.00	1773.54
871.17	1673.19
871.33	1820.64
871.50	1626.09
871.67	1738.73
871.83	1689.57
872.00	1789.92
872.17	1699.81
872.33	1769.44
872.50	1810.40
872.67	1660.90
872.83	1576.94
873.00	1652.71
873.17	1705.96
873.33	1765.35
873.50	1669.09
873.67	1617.90
873.83	1777.64
874.00	1753.06
874.16	1732.58
874.33	1718.25
874.50	1650.66
874.66	1695.72
874.83	1714.15
875.00	1765.35
875.16	1728.49
875.33	1746.92
875.50	1615.85
875.66	1636.33
875.83	1660.90
875.99	1785.83
876.16	1710.05
876.33	1607.66
876.49	1646.57
876.66	1740.77
876.83	1746.92
876.99	1646.57
877.16	1732.58
877.32	1660.90
877.49	1673.19
877.66	1738.73
877.82	1777.64
877.99	1736.68
878.15	1849.32
878.32	1742.82
878.49	1693.67
878.65	1673.19
878.82	1796.07
878.98	1699.81
879.15	1736.68
879.32	1714.15
879.48	1798.12
879.65	1714.15
879.81	1669.09
879.98	1708.01
880.15	1732.58
880.31	1708.01
880.48	1603.56
880.64	1763.30
880.81	1732.58
880.97	1857.51
881.14	1734.63
881.31	1730.53
881.47	1861.60
881.64	1695.72
881.80	1630.18
881.97	1779.68
882.13	1755.11
882.30	1697.77
882.47	1648.61
882.63	1648.61
882.80	1638.38
882.96	1734.63
883.13	1753.06
883.29	1753.06
883.46	1705.96
883.62	1767.40
883.79	1658.85
883.95	1796.07
884.12	1703.91
884.29	1734.63
884.45	1656.81
884.62	1728.49
884.78	1761.25
884.95	1806.31
885.11	1695.72
885.28	1740.77
885.44	1730.53
885.61	1669.09
885.77	1802.21
885.94	1720.29
886.10	1759.21
886.27	1693.67
886.43	1771.49
886.60	1820.64
886.76	1640.42
886.93	1660.90
887.09	1699.81
887.26	1624.04
887.42	1689.57
887.59	1755.11
887.75	1902.56
887.92	1791.97
888.08	1697.77
888.25	1787.88
888.41	1796.07
888.58	1714.15
888.74	1681.38
888.91	1632.23
>>>>>End Processed Spectral Data<<<<<
