SpectraSuite Data File
++++++++++++++++++++++++++++++++++++
Date: Mon Jun 06 14:00:57 CEST 2016
User: root
Dark Spectrum Present: No
Reference Spectrum Present: No
Number of Sampled Component Spectra: 1
Spectrometers: USB4C02835
Integration Time (usec): 100000 (USB4C02835)
Spectra Averaged: 1 (USB4C02835)
Boxcar Smoothing: 0 (USB4C02835)
Correct for Electrical Dark: No (USB4C02835)
Strobe/Lamp Enabled: No (USB4C02835)
Correct for Detector Non-linearity: No (USB4C02835)
Correct for Stray Light: No (USB4C02835)
Number of Pixels in Processed Spectrum: 3648
>>>>>Begin Processed Spectral Data<<<<<
177.47	1474.54
177.69	1474.54
177.91	1474.54
178.13	1472.49
178.36	1441.77
178.58	1695.72
178.80	1740.77
179.02	1574.89
179.24	1642.47
179.46	1638.38
179.68	1783.78
179.90	1683.43
180.13	1660.90
180.35	1624.04
180.57	1753.06
180.79	1665.00
181.01	1695.72
181.23	1802.21
181.45	1701.86
181.67	1742.82
181.90	1751.01
182.12	1613.80
182.34	1615.85
182.56	1740.77
182.78	1753.06
183.00	1681.38
183.22	1701.86
183.44	1576.94
183.66	1832.93
183.89	1837.03
184.11	1722.34
184.33	1742.82
184.55	1746.92
184.77	1703.91
184.99	1722.34
185.21	1679.33
185.43	1791.97
185.65	1669.09
185.87	1720.29
186.10	1818.60
186.32	1873.89
186.54	1724.39
186.76	1736.68
186.98	1757.16
187.20	1640.42
187.42	1746.92
187.64	1660.90
187.86	1615.85
188.08	1744.87
188.30	1636.33
188.52	1662.95
188.75	1808.36
188.97	1753.06
189.19	1675.24
189.41	1687.53
189.63	1724.39
189.85	1681.38
190.07	1683.43
190.29	1677.29
190.51	1753.06
190.73	1640.42
190.95	1753.06
191.17	1728.49
191.39	1605.61
191.61	1701.86
191.84	1652.71
192.06	1691.62
192.28	1636.33
192.50	1841.12
192.72	1718.25
192.94	1703.91
193.16	1740.77
193.38	1624.04
193.60	1656.81
193.82	1665.00
194.04	1812.45
194.26	1662.95
194.48	1761.25
194.70	1701.86
194.92	1665.00
195.14	1744.87
195.36	1646.57
195.58	1708.01
195.80	1681.38
196.02	1624.04
196.24	1730.53
196.46	1708.01
196.69	1662.95
196.91	1822.69
197.13	1675.24
197.35	1685.48
197.57	1796.07
197.79	1748.97
198.01	1675.24
198.23	1814.50
198.45	1734.63
198.67	1703.91
198.89	1673.19
199.11	1734.63
199.33	1617.90
199.55	1546.22
199.77	1705.96
199.99	1806.31
200.21	1632.23
200.43	1773.54
200.65	1624.04
200.87	1593.32
201.09	1669.09
201.31	1693.67
201.53	1779.68
201.75	1701.86
201.97	1665.00
202.19	1708.01
202.41	1691.62
202.63	1753.06
202.85	1767.40
203.07	1775.59
203.29	1615.85
203.51	1652.71
203.73	1720.29
203.95	1847.27
204.17	1716.20
204.39	1738.73
204.61	1603.56
204.83	1701.86
205.05	1779.68
205.27	1800.16
205.49	1781.73
205.71	1638.38
205.93	1730.53
206.15	1712.10
206.37	1679.33
206.59	1697.77
206.81	1697.77
207.03	1677.29
207.25	1652.71
207.47	1697.77
207.69	1675.24
207.91	1710.05
208.13	1783.78
208.34	1599.46
208.56	1675.24
208.78	1716.20
209.00	1703.91
209.22	1658.85
209.44	1681.38
209.66	1636.33
209.88	1716.20
210.10	1640.42
210.32	1675.24
210.54	1791.97
210.76	1720.29
210.98	1777.64
211.20	1613.80
211.42	1730.53
211.64	1761.25
211.86	1619.94
212.08	1810.40
212.30	1710.05
212.52	1691.62
212.74	1755.11
212.96	1693.67
213.17	1779.68
213.39	1857.51
213.61	1796.07
213.83	1740.77
214.05	1578.98
214.27	1738.73
214.49	1609.70
214.71	1677.29
214.93	1791.97
215.15	1572.84
215.37	1710.05
215.59	1611.75
215.81	1738.73
216.03	1734.63
216.24	1705.96
216.46	1769.44
216.68	1656.81
216.90	1710.05
217.12	1738.73
217.34	1683.43
217.56	1691.62
217.78	1769.44
218.00	1740.77
218.22	1732.58
218.44	1767.40
218.66	1763.30
218.87	1898.47
219.09	1630.18
219.31	1742.82
219.53	1744.87
219.75	1734.63
219.97	1751.01
220.19	1689.57
220.41	1683.43
220.63	1818.60
220.85	1742.82
221.06	1660.90
221.28	1728.49
221.50	1712.10
221.72	1687.53
221.94	1632.23
222.16	1777.64
222.38	1720.29
222.60	1669.09
222.82	1650.66
223.03	1791.97
223.25	1640.42
223.47	1763.30
223.69	1834.98
223.91	1669.09
224.13	1738.73
224.35	1726.44
224.57	1802.21
224.78	1677.29
225.00	1628.14
225.22	1718.25
225.44	1642.47
225.66	1751.01
225.88	1652.71
226.10	1714.15
226.32	1738.73
226.53	1736.68
226.75	1726.44
226.97	1669.09
227.19	1720.29
227.41	1669.09
227.63	1624.04
227.85	1691.62
228.06	1669.09
228.28	1714.15
228.50	1765.35
228.72	1644.52
228.94	1691.62
229.16	1699.81
229.37	1689.57
229.59	1703.91
229.81	1789.92
230.03	1705.96
230.25	1636.33
230.47	1658.85
230.69	1632.23
230.90	1695.72
231.12	1646.57
231.34	1734.63
231.56	1808.36
231.78	1621.99
232.00	1695.72
232.21	1650.66
232.43	1658.85
232.65	1538.02
232.87	1689.57
233.09	1607.66
233.30	1619.94
233.52	1794.02
233.74	1716.20
233.96	1691.62
234.18	1716.20
234.40	1662.95
234.61	1767.40
234.83	1570.79
235.05	1642.47
235.27	1779.68
235.49	1726.44
235.70	1722.34
235.92	1746.92
236.14	1662.95
236.36	1839.08
236.58	1599.46
236.79	1865.70
237.01	1695.72
237.23	1681.38
237.45	1800.16
237.67	1632.23
237.88	1683.43
238.10	1841.12
238.32	1656.81
238.54	1705.96
238.76	1669.09
238.97	1609.70
239.19	1630.18
239.41	1718.25
239.63	1693.67
239.85	1636.33
240.06	1650.66
240.28	1673.19
240.50	1665.00
240.72	1669.09
240.93	1624.04
241.15	1767.40
241.37	1665.00
241.59	1740.77
241.81	1679.33
242.02	1757.16
242.24	1740.77
242.46	1681.38
242.68	1646.57
242.89	1677.29
243.11	1712.10
243.33	1740.77
243.55	1720.29
243.76	1746.92
243.98	1589.22
244.20	1619.94
244.42	1648.61
244.64	1650.66
244.85	1710.05
245.07	1593.32
245.29	1751.01
245.51	1722.34
245.72	1648.61
245.94	1726.44
246.16	1732.58
246.38	1755.11
246.59	1705.96
246.81	1667.05
247.03	1654.76
247.24	1585.13
247.46	1587.18
247.68	1681.38
247.90	1619.94
248.11	1677.29
248.33	1777.64
248.55	1601.51
248.77	1615.85
248.98	1761.25
249.20	1804.26
249.42	1714.15
249.64	1755.11
249.85	1632.23
250.07	1587.18
250.29	1765.35
250.50	1789.92
250.72	1599.46
250.94	1689.57
251.16	1796.07
251.37	1738.73
251.59	1722.34
251.81	1726.44
252.02	1734.63
252.24	1697.77
252.46	1771.49
252.68	1642.47
252.89	1665.00
253.11	1613.80
253.33	1828.84
253.54	1837.03
253.76	1562.60
253.98	1734.63
254.20	1728.49
254.41	1646.57
254.63	1722.34
254.85	1648.61
255.06	1669.09
255.28	1701.86
255.50	1705.96
255.71	1671.14
255.93	1619.94
256.15	1708.01
256.36	1703.91
256.58	1650.66
256.80	1710.05
257.02	1650.66
257.23	1716.20
257.45	1687.53
257.67	1697.77
257.88	1634.28
258.10	1728.49
258.32	1681.38
258.53	1687.53
258.75	1759.21
258.97	1673.19
259.18	1771.49
259.40	1656.81
259.62	1843.17
259.83	1742.82
260.05	1720.29
260.27	2035.68
260.48	1802.21
260.70	1638.38
260.92	1773.54
261.13	1724.39
261.35	1730.53
261.57	1740.77
261.78	1675.24
262.00	1699.81
262.22	1689.57
262.43	1652.71
262.65	1589.22
262.86	1738.73
263.08	1873.89
263.30	1736.68
263.51	1587.18
263.73	1730.53
263.95	1718.25
264.16	1665.00
264.38	1644.52
264.60	1660.90
264.81	1720.29
265.03	1642.47
265.25	1779.68
265.46	1722.34
265.68	1834.98
265.89	1785.83
266.11	1642.47
266.33	1777.64
266.54	1818.60
266.76	1730.53
266.98	1748.97
267.19	1791.97
267.41	1755.11
267.62	1708.01
267.84	1656.81
268.06	1705.96
268.27	1677.29
268.49	1826.79
268.70	1699.81
268.92	1718.25
269.14	1677.29
269.35	1632.23
269.57	1679.33
269.79	1699.81
270.00	1628.14
270.22	1705.96
270.43	1617.90
270.65	1624.04
270.87	1785.83
271.08	1845.22
271.30	1755.11
271.51	1646.57
271.73	1802.21
271.95	1839.08
272.16	1730.53
272.38	1808.36
272.59	1671.14
272.81	1720.29
273.02	1662.95
273.24	1779.68
273.46	1671.14
273.67	1662.95
273.89	1685.48
274.10	1634.28
274.32	1810.40
274.54	1662.95
274.75	1656.81
274.97	1636.33
275.18	1769.44
275.40	1757.16
275.61	1652.71
275.83	1712.10
276.05	1595.37
276.26	1693.67
276.48	1767.40
276.69	1640.42
276.91	1644.52
277.12	1703.91
277.34	1769.44
277.55	1763.30
277.77	1751.01
277.99	1697.77
278.20	1673.19
278.42	1630.18
278.63	1638.38
278.85	1710.05
279.06	1607.66
279.28	1691.62
279.49	1751.01
279.71	1742.82
279.93	1665.00
280.14	1667.05
280.36	1648.61
280.57	1677.29
280.79	1771.49
281.00	1710.05
281.22	1687.53
281.43	1687.53
281.65	1650.66
281.86	1626.09
282.08	1767.40
282.29	1886.18
282.51	1644.52
282.73	1656.81
282.94	1611.75
283.16	1689.57
283.37	1851.36
283.59	1665.00
283.80	1665.00
284.02	1673.19
284.23	1724.39
284.45	1638.38
284.66	1714.15
284.88	1671.14
285.09	1689.57
285.31	1685.48
285.52	1673.19
285.74	1624.04
285.95	1755.11
286.17	1703.91
286.38	1748.97
286.60	1724.39
286.81	1701.86
287.03	1734.63
287.24	1675.24
287.46	1767.40
287.67	1701.86
287.89	1808.36
288.10	1755.11
288.32	1701.86
288.53	1777.64
288.75	1640.42
288.96	1773.54
289.18	1695.72
289.39	1679.33
289.61	1701.86
289.82	1845.22
290.04	1818.60
290.25	1597.42
290.47	1712.10
290.68	1665.00
290.90	1693.67
291.11	1681.38
291.33	1767.40
291.54	1558.50
291.76	1636.33
291.97	1701.86
292.18	1718.25
292.40	1587.18
292.61	1638.38
292.83	1796.07
293.04	1699.81
293.26	1697.77
293.47	1675.24
293.69	1632.23
293.90	1708.01
294.12	1841.12
294.33	1722.34
294.55	1650.66
294.76	1726.44
294.97	1837.03
295.19	1839.08
295.40	1673.19
295.62	1730.53
295.83	1722.34
296.05	1705.96
296.26	1685.48
296.48	1701.86
296.69	1642.47
296.90	1734.63
297.12	1830.88
297.33	1818.60
297.55	1761.25
297.76	1746.92
297.98	1787.88
298.19	1677.29
298.41	1665.00
298.62	1650.66
298.83	1800.16
299.05	1722.34
299.26	1742.82
299.48	1714.15
299.69	1716.20
299.90	1681.38
300.12	1636.33
300.33	1708.01
300.55	1660.90
300.76	1701.86
300.98	1644.52
301.19	1705.96
301.40	1687.53
301.62	1624.04
301.83	1718.25
302.05	1722.34
302.26	1683.43
302.47	1671.14
302.69	1673.19
302.90	1648.61
303.12	1574.89
303.33	1716.20
303.54	1824.74
303.76	1572.84
303.97	1742.82
304.19	1755.11
304.40	1650.66
304.61	1697.77
304.83	1791.97
305.04	1734.63
305.26	1699.81
305.47	1685.48
305.68	1691.62
305.90	1634.28
306.11	1714.15
306.33	1689.57
306.54	1665.00
306.75	1669.09
306.97	1597.42
307.18	1640.42
307.39	1652.71
307.61	1751.01
307.82	1619.94
308.04	1689.57
308.25	1722.34
308.46	1730.53
308.68	1746.92
308.89	1669.09
309.10	1742.82
309.32	1753.06
309.53	1705.96
309.74	1810.40
309.96	1681.38
310.17	1765.35
310.39	1646.57
310.60	1665.00
310.81	1691.62
311.03	1630.18
311.24	1734.63
311.45	1685.48
311.67	1820.64
311.88	1673.19
312.09	1669.09
312.31	1662.95
312.52	1665.00
312.73	1679.33
312.95	1566.70
313.16	1673.19
313.37	1785.83
313.59	1714.15
313.80	1687.53
314.01	1796.07
314.23	1677.29
314.44	1699.81
314.65	1675.24
314.87	1615.85
315.08	1632.23
315.29	1701.86
315.51	1656.81
315.72	1632.23
315.93	1720.29
316.15	1714.15
316.36	1593.32
316.57	1667.05
316.79	1755.11
317.00	1570.79
317.21	1689.57
317.43	1665.00
317.64	1755.11
317.85	1697.77
318.07	1671.14
318.28	1751.01
318.49	1740.77
318.70	1951.71
318.92	1818.60
319.13	1855.46
319.34	1769.44
319.56	1779.68
319.77	1812.45
319.98	1804.26
320.20	1791.97
320.41	1753.06
320.62	1779.68
320.83	1689.57
321.05	1826.79
321.26	1751.01
321.47	1705.96
321.69	1701.86
321.90	1691.62
322.11	1634.28
322.32	1722.34
322.54	1751.01
322.75	1650.66
322.96	1834.98
323.18	1593.32
323.39	1597.42
323.60	1644.52
323.81	1746.92
324.03	1605.61
324.24	1677.29
324.45	1665.00
324.66	1705.96
324.88	1794.02
325.09	1845.22
325.30	1689.57
325.52	1757.16
325.73	1710.05
325.94	1652.71
326.15	1621.99
326.37	1714.15
326.58	1738.73
326.79	1834.98
327.00	1576.94
327.22	1738.73
327.43	1695.72
327.64	1621.99
327.85	1800.16
328.07	1714.15
328.28	1718.25
328.49	1648.61
328.70	1617.90
328.92	1742.82
329.13	1671.14
329.34	1693.67
329.55	1857.51
329.76	1734.63
329.98	1755.11
330.19	1746.92
330.40	1701.86
330.61	1669.09
330.83	1744.87
331.04	1656.81
331.25	1791.97
331.46	1689.57
331.68	1673.19
331.89	1730.53
332.10	1640.42
332.31	1591.27
332.52	1712.10
332.74	1810.40
332.95	1560.55
333.16	1718.25
333.37	1814.50
333.58	1736.68
333.80	1738.73
334.01	1562.60
334.22	1650.66
334.43	1630.18
334.64	1638.38
334.86	1634.28
335.07	1624.04
335.28	1761.25
335.49	1601.51
335.70	1738.73
335.92	1765.35
336.13	1839.08
336.34	1734.63
336.55	1689.57
336.76	1705.96
336.98	1597.42
337.19	1693.67
337.40	1751.01
337.61	1812.45
337.82	1769.44
338.04	1794.02
338.25	1691.62
338.46	1705.96
338.67	1685.48
338.88	1769.44
339.09	1601.51
339.31	1757.16
339.52	1685.48
339.73	1587.18
339.94	1724.39
340.15	1732.58
340.36	1667.05
340.58	1667.05
340.79	1685.48
341.00	1685.48
341.21	1568.74
341.42	1783.78
341.63	1689.57
341.85	1748.97
342.06	1755.11
342.27	1621.99
342.48	1695.72
342.69	1587.18
342.90	1673.19
343.12	1798.12
343.33	1677.29
343.54	1740.77
343.75	1746.92
343.96	1726.44
344.17	1576.94
344.38	1671.14
344.60	1632.23
344.81	1640.42
345.02	1640.42
345.23	1834.98
345.44	1789.92
345.65	1769.44
345.86	1681.38
346.07	1730.53
346.29	1685.48
346.50	1658.85
346.71	1695.72
346.92	1751.01
347.13	1828.84
347.34	1632.23
347.55	1591.27
347.76	1730.53
347.98	1621.99
348.19	1701.86
348.40	1771.49
348.61	1716.20
348.82	1742.82
349.03	1753.06
349.24	1595.37
349.45	1863.65
349.66	1591.27
349.88	1671.14
350.09	1642.47
350.30	1781.73
350.51	1794.02
350.72	1759.21
350.93	1638.38
351.14	1669.09
351.35	1683.43
351.56	1683.43
351.77	1697.77
351.99	1716.20
352.20	1794.02
352.41	1771.49
352.62	1550.31
352.83	1734.63
353.04	1710.05
353.25	1710.05
353.46	1757.16
353.67	1738.73
353.88	1679.33
354.09	1744.87
354.30	1665.00
354.52	1701.86
354.73	1599.46
354.94	1667.05
355.15	1677.29
355.36	1816.55
355.57	1660.90
355.78	1710.05
355.99	1652.71
356.20	1611.75
356.41	1738.73
356.62	1738.73
356.83	1767.40
357.04	1759.21
357.25	1648.61
357.46	1621.99
357.68	1615.85
357.89	1730.53
358.10	1689.57
358.31	1638.38
358.52	1712.10
358.73	1685.48
358.94	1738.73
359.15	1660.90
359.36	1699.81
359.57	1683.43
359.78	1718.25
359.99	1744.87
360.20	1644.52
360.41	1640.42
360.62	1738.73
360.83	1681.38
361.04	1753.06
361.25	1679.33
361.46	1738.73
361.67	1687.53
361.88	1791.97
362.09	1759.21
362.30	1738.73
362.51	1722.34
362.72	1746.92
362.93	1734.63
363.14	1658.85
363.35	1722.34
363.56	1619.94
363.78	1808.36
363.99	1685.48
364.20	1544.17
364.41	1730.53
364.62	1828.84
364.83	1697.77
365.04	1650.66
365.25	1681.38
365.46	1925.09
365.67	1671.14
365.88	1587.18
366.09	1705.96
366.30	1654.76
366.51	1630.18
366.72	1658.85
366.93	1738.73
367.14	1761.25
367.35	1820.64
367.56	1734.63
367.77	1759.21
367.98	1662.95
368.18	1710.05
368.39	1777.64
368.60	1609.70
368.81	1751.01
369.02	1730.53
369.23	1781.73
369.44	1535.98
369.65	1662.95
369.86	1687.53
370.07	1751.01
370.28	1697.77
370.49	1730.53
370.70	1660.90
370.91	1638.38
371.12	1599.46
371.33	1669.09
371.54	1656.81
371.75	1832.93
371.96	1570.79
372.17	1703.91
372.38	1693.67
372.59	1695.72
372.80	1669.09
373.01	1722.34
373.22	1718.25
373.43	1712.10
373.64	1589.22
373.85	1785.83
374.06	1906.66
374.26	1658.85
374.47	1675.24
374.68	1779.68
374.89	1662.95
375.10	1722.34
375.31	1724.39
375.52	1771.49
375.73	1697.77
375.94	1720.29
376.15	1751.01
376.36	1638.38
376.57	1630.18
376.78	1669.09
376.99	1648.61
377.20	1742.82
377.40	1611.75
377.61	1791.97
377.82	1755.11
378.03	1742.82
378.24	1759.21
378.45	1646.57
378.66	1699.81
378.87	1646.57
379.08	1611.75
379.29	1691.62
379.50	1804.26
379.71	1705.96
379.91	1703.91
380.12	1763.30
380.33	1705.96
380.54	1675.24
380.75	1595.37
380.96	1687.53
381.17	1824.74
381.38	1757.16
381.59	1648.61
381.80	1722.34
382.00	1816.55
382.21	1748.97
382.42	1783.78
382.63	1837.03
382.84	1777.64
383.05	1769.44
383.26	1759.21
383.47	1779.68
383.68	1746.92
383.88	1714.15
384.09	1779.68
384.30	1765.35
384.51	1742.82
384.72	1574.89
384.93	1644.52
385.14	1791.97
385.35	1753.06
385.55	1658.85
385.76	1787.88
385.97	1701.86
386.18	1665.00
386.39	1720.29
386.60	1710.05
386.81	1669.09
387.02	1675.24
387.22	1673.19
387.43	1820.64
387.64	1791.97
387.85	1841.12
388.06	2211.81
388.27	4265.92
388.48	6920.09
388.68	8306.56
388.89	9858.92
389.10	9922.41
389.31	8726.39
389.52	7692.17
389.73	6819.74
389.93	6373.28
390.14	6014.88
390.35	5324.72
390.56	4704.18
390.77	3737.54
390.98	3067.86
391.18	2473.95
391.39	2138.08
391.60	1884.13
391.81	1849.32
392.02	1685.48
392.23	1832.93
392.43	1718.25
392.64	1744.87
392.85	1728.49
393.06	1755.11
393.27	1673.19
393.47	1708.01
393.68	1744.87
393.89	1679.33
394.10	1732.58
394.31	1669.09
394.52	1660.90
394.72	1658.85
394.93	1789.92
395.14	1662.95
395.35	1673.19
395.56	1740.77
395.76	1703.91
395.97	1843.17
396.18	1761.25
396.39	1849.32
396.60	1953.76
396.80	1826.79
397.01	1810.40
397.22	1794.02
397.43	1828.84
397.64	1757.16
397.84	1796.07
398.05	1863.65
398.26	1746.92
398.47	1724.39
398.67	1800.16
398.88	1705.96
399.09	1703.91
399.30	1722.34
399.51	1791.97
399.71	1669.09
399.92	1697.77
400.13	1753.06
400.34	1695.72
400.54	1656.81
400.75	1740.77
400.96	1710.05
401.17	1783.78
401.37	1695.72
401.58	1636.33
401.79	1726.44
402.00	1822.69
402.21	1994.72
402.41	2009.06
402.62	1968.10
402.83	2033.63
403.04	2054.11
403.24	2082.78
403.45	1761.25
403.66	1927.14
403.87	1935.33
404.07	1877.99
404.28	1898.47
404.49	1869.80
404.70	1787.88
404.90	1722.34
405.11	1808.36
405.32	1714.15
405.52	1689.57
405.73	1716.20
405.94	1748.97
406.15	1648.61
406.35	1730.53
406.56	1701.86
406.77	1677.29
406.98	1681.38
407.18	1652.71
407.39	1787.88
407.60	1644.52
407.80	1722.34
408.01	1695.72
408.22	1740.77
408.43	1708.01
408.63	1765.35
408.84	1769.44
409.05	1718.25
409.25	1626.09
409.46	1722.34
409.67	1662.95
409.88	1720.29
410.08	1738.73
410.29	1675.24
410.50	1673.19
410.70	1701.86
410.91	1626.09
411.12	1724.39
411.32	1679.33
411.53	1683.43
411.74	1746.92
411.95	1802.21
412.15	1726.44
412.36	1732.58
412.57	1755.11
412.77	1751.01
412.98	1736.68
413.19	1701.86
413.39	1710.05
413.60	1742.82
413.81	1771.49
414.01	1673.19
414.22	1751.01
414.43	1804.26
414.63	1693.67
414.84	1740.77
415.05	1722.34
415.25	1689.57
415.46	1755.11
415.67	1722.34
415.87	1804.26
416.08	1701.86
416.29	1624.04
416.49	1722.34
416.70	1677.29
416.91	1697.77
417.11	1689.57
417.32	1804.26
417.53	1705.96
417.73	1767.40
417.94	1619.94
418.15	1693.67
418.35	1744.87
418.56	1738.73
418.77	1884.13
418.97	1718.25
419.18	1708.01
419.38	1615.85
419.59	1722.34
419.80	1794.02
420.00	1636.33
420.21	1755.11
420.42	1757.16
420.62	1699.81
420.83	1673.19
421.04	1621.99
421.24	1646.57
421.45	1816.55
421.65	1689.57
421.86	1638.38
422.07	1691.62
422.27	1722.34
422.48	1783.78
422.69	1568.74
422.89	1662.95
423.10	1701.86
423.30	1626.09
423.51	1759.21
423.72	1724.39
423.92	1812.45
424.13	1656.81
424.33	1771.49
424.54	1730.53
424.75	1708.01
424.95	1853.41
425.16	1761.25
425.36	1708.01
425.57	1751.01
425.78	1679.33
425.98	1732.58
426.19	1669.09
426.39	1648.61
426.60	1710.05
426.81	1869.80
427.01	1701.86
427.22	1619.94
427.42	1605.61
427.63	1667.05
427.83	1757.16
428.04	1802.21
428.25	1791.97
428.45	1767.40
428.66	1701.86
428.86	1716.20
429.07	1699.81
429.28	1710.05
429.48	1703.91
429.69	1708.01
429.89	1658.85
430.10	1675.24
430.30	1767.40
430.51	1822.69
430.71	1724.39
430.92	1628.14
431.13	1712.10
431.33	1708.01
431.54	1734.63
431.74	1814.50
431.95	1839.08
432.15	1710.05
432.36	1765.35
432.56	1802.21
432.77	1804.26
432.98	1828.84
433.18	1712.10
433.39	1699.81
433.59	1751.01
433.80	1738.73
434.00	1880.04
434.21	1667.05
434.41	1687.53
434.62	1759.21
434.82	1624.04
435.03	1652.71
435.23	1789.92
435.44	1597.42
435.64	1753.06
435.85	1742.82
436.06	1781.73
436.26	1748.97
436.47	1740.77
436.67	1722.34
436.88	1681.38
437.08	1830.88
437.29	1722.34
437.49	1626.09
437.70	1832.93
437.90	1673.19
438.11	1914.85
438.31	1781.73
438.52	1871.84
438.72	1834.98
438.93	1976.29
439.13	1798.12
439.34	1816.55
439.54	1736.68
439.75	1820.64
439.95	1830.88
440.16	1658.85
440.36	1734.63
440.57	1771.49
440.77	1740.77
440.98	1718.25
441.18	1718.25
441.39	1808.36
441.59	1679.33
441.80	1822.69
442.00	1695.72
442.21	1798.12
442.41	1671.14
442.62	1769.44
442.82	1693.67
443.02	1820.64
443.23	1732.58
443.43	1689.57
443.64	1794.02
443.84	1691.62
444.05	1759.21
444.25	1744.87
444.46	1699.81
444.66	1720.29
444.87	1812.45
445.07	1691.62
445.28	1714.15
445.48	1761.25
445.69	1771.49
445.89	1910.75
446.09	1667.05
446.30	1998.82
446.50	2688.98
446.71	3803.08
446.91	4331.45
447.12	4919.22
447.32	4951.99
447.53	4423.61
447.73	3936.20
447.93	3504.07
448.14	3364.81
448.34	3225.55
448.55	2846.68
448.75	2793.43
448.96	2721.75
449.16	2424.80
449.36	2263.01
449.57	2064.35
449.77	1845.22
449.98	1796.07
450.18	1804.26
450.39	1851.36
450.59	1697.77
450.79	1718.25
451.00	1675.24
451.20	1796.07
451.41	1685.48
451.61	1771.49
451.81	1765.35
452.02	1724.39
452.22	1730.53
452.43	1652.71
452.63	1691.62
452.84	1683.43
453.04	1759.21
453.24	1761.25
453.45	1683.43
453.65	1759.21
453.86	1785.83
454.06	1720.29
454.26	1779.68
454.47	1699.81
454.67	1894.37
454.87	1789.92
455.08	1703.91
455.28	1851.36
455.49	1720.29
455.69	1648.61
455.89	1861.60
456.10	1824.74
456.30	1777.64
456.51	1677.29
456.71	1775.59
456.91	1769.44
457.12	1656.81
457.32	1755.11
457.52	1650.66
457.73	1804.26
457.93	1744.87
458.14	1716.20
458.34	1714.15
458.54	1744.87
458.75	1675.24
458.95	1771.49
459.15	1773.54
459.36	1755.11
459.56	1800.16
459.76	1753.06
459.97	1722.34
460.17	1789.92
460.37	1761.25
460.58	1730.53
460.78	1804.26
460.99	1658.85
461.19	1785.83
461.39	1728.49
461.60	1718.25
461.80	1753.06
462.00	1732.58
462.21	1726.44
462.41	1662.95
462.61	1630.18
462.82	1673.19
463.02	1730.53
463.22	1675.24
463.43	1812.45
463.63	1701.86
463.83	1796.07
464.04	1814.50
464.24	1660.90
464.44	1710.05
464.64	1665.00
464.85	1685.48
465.05	1796.07
465.25	1714.15
465.46	1716.20
465.66	1798.12
465.86	1771.49
466.07	1712.10
466.27	1759.21
466.47	1689.57
466.68	1648.61
466.88	1851.36
467.08	1748.97
467.29	1710.05
467.49	1705.96
467.69	1738.73
467.89	1705.96
468.10	1722.34
468.30	1705.96
468.50	1798.12
468.71	1714.15
468.91	1665.00
469.11	1877.99
469.31	1701.86
469.52	1724.39
469.72	1847.27
469.92	1826.79
470.13	1730.53
470.33	1708.01
470.53	1824.74
470.73	2129.89
470.94	2242.53
471.14	2389.98
471.34	2494.43
471.54	2361.31
471.75	2183.13
471.95	2176.99
472.15	2172.89
472.36	2125.79
472.56	2107.36
472.76	2099.17
472.96	1972.19
473.17	2023.39
473.37	1890.28
473.57	1738.73
473.77	1865.70
473.98	1751.01
474.18	1728.49
474.38	1892.32
474.58	1728.49
474.79	1636.33
474.99	1736.68
475.19	1783.78
475.39	1624.04
475.60	1724.39
475.80	1740.77
476.00	1687.53
476.20	1738.73
476.41	1753.06
476.61	1802.21
476.81	1857.51
477.01	1675.24
477.21	1837.03
477.42	1779.68
477.62	1611.75
477.82	1722.34
478.02	1748.97
478.23	1834.98
478.43	1765.35
478.63	1671.14
478.83	1710.05
479.03	1656.81
479.24	1736.68
479.44	1787.88
479.64	1673.19
479.84	1636.33
480.04	1720.29
480.25	1726.44
480.45	1730.53
480.65	1728.49
480.85	1755.11
481.06	1726.44
481.26	1775.59
481.46	1726.44
481.66	1740.77
481.86	1658.85
482.06	1851.36
482.27	1746.92
482.47	1660.90
482.67	1767.40
482.87	1665.00
483.07	1746.92
483.28	1708.01
483.48	1648.61
483.68	1675.24
483.88	1665.00
484.08	1628.14
484.29	1624.04
484.49	1746.92
484.69	1714.15
484.89	1767.40
485.09	1748.97
485.29	1865.70
485.50	1714.15
485.70	1656.81
485.90	1808.36
486.10	1773.54
486.30	1759.21
486.50	1767.40
486.71	1746.92
486.91	1753.06
487.11	1783.78
487.31	1665.00
487.51	1738.73
487.71	1644.52
487.91	1679.33
488.12	1705.96
488.32	1624.04
488.52	1603.56
488.72	1710.05
488.92	1755.11
489.12	1751.01
489.32	1746.92
489.53	1761.25
489.73	1685.48
489.93	1806.31
490.13	1687.53
490.33	1648.61
490.53	1738.73
490.73	1712.10
490.94	1615.85
491.14	1861.60
491.34	1808.36
491.54	2043.87
491.74	2537.43
491.94	2947.03
492.14	3018.71
492.34	2992.08
492.54	2707.41
492.75	2467.80
492.95	2383.84
493.15	2367.45
493.35	2271.20
493.55	2230.24
493.75	2209.76
493.95	2156.51
494.15	2076.64
494.35	1933.28
494.56	1865.70
494.76	1705.96
494.96	1785.83
495.16	1763.30
495.36	1779.68
495.56	1751.01
495.76	1755.11
495.96	1751.01
496.16	1673.19
496.36	1822.69
496.56	1703.91
496.77	1751.01
496.97	1693.67
497.17	1791.97
497.37	1691.62
497.57	1757.16
497.77	1726.44
497.97	1601.51
498.17	1720.29
498.37	1644.52
498.57	1730.53
498.77	1738.73
498.97	1691.62
499.17	1839.08
499.38	1755.11
499.58	1765.35
499.78	1783.78
499.98	1783.78
500.18	1751.01
500.38	1722.34
500.58	1974.24
500.78	2545.63
500.98	4530.11
501.18	5877.67
501.38	6909.85
501.58	7139.22
501.78	6717.34
501.98	5631.91
502.18	5048.24
502.38	4446.14
502.58	4081.60
502.78	3817.41
502.98	3659.72
503.18	3436.49
503.38	3241.93
503.59	2875.35
503.79	2637.78
503.99	2502.62
504.19	2408.41
504.39	2197.47
504.59	2097.12
504.79	2117.60
504.99	2019.30
505.19	1910.75
505.39	1896.42
505.59	1976.29
505.79	1916.90
505.99	1861.60
506.19	1841.12
506.39	1861.60
506.59	1628.14
506.79	1800.16
506.99	1773.54
507.19	1789.92
507.39	1787.88
507.59	1714.15
507.79	1626.09
507.99	1742.82
508.19	1732.58
508.39	1773.54
508.59	1728.49
508.79	1779.68
508.99	1812.45
509.19	1689.57
509.39	1775.59
509.59	1763.30
509.79	1650.66
509.99	1705.96
510.19	1742.82
510.39	1781.73
510.59	1736.68
510.79	1695.72
510.99	1683.43
511.19	1755.11
511.39	1824.74
511.59	1710.05
511.79	1794.02
511.99	1701.86
512.19	1800.16
512.38	1718.25
512.58	1609.70
512.78	1730.53
512.98	1824.74
513.18	1843.17
513.38	1695.72
513.58	1718.25
513.78	1783.78
513.98	1736.68
514.18	1789.92
514.38	1705.96
514.58	1798.12
514.78	1746.92
514.98	1654.76
515.18	1701.86
515.38	1687.53
515.58	1847.27
515.78	1699.81
515.98	1708.01
516.18	1777.64
516.38	1689.57
516.57	1734.63
516.77	1705.96
516.97	1783.78
517.17	1656.81
517.37	1677.29
517.57	1804.26
517.77	1746.92
517.97	1669.09
518.17	1808.36
518.37	1669.09
518.57	1708.01
518.77	1765.35
518.97	1685.48
519.16	1755.11
519.36	1796.07
519.56	1697.77
519.76	1730.53
519.96	1656.81
520.16	1826.79
520.36	1642.47
520.56	1794.02
520.76	1701.86
520.96	1654.76
521.16	1744.87
521.35	1802.21
521.55	1779.68
521.75	1740.77
521.95	1765.35
522.15	1738.73
522.35	1601.51
522.55	1665.00
522.75	1755.11
522.95	1742.82
523.14	1648.61
523.34	1845.22
523.54	1691.62
523.74	1777.64
523.94	1740.77
524.14	1642.47
524.34	1708.01
524.54	1814.50
524.73	1765.35
524.93	1722.34
525.13	1732.58
525.33	1636.33
525.53	1853.41
525.73	1755.11
525.93	1675.24
526.13	1697.77
526.32	1710.05
526.52	1804.26
526.72	1742.82
526.92	1732.58
527.12	1761.25
527.32	1746.92
527.52	1679.33
527.71	1744.87
527.91	1787.88
528.11	1687.53
528.31	1697.77
528.51	1687.53
528.71	1791.97
528.90	1742.82
529.10	1722.34
529.30	1738.73
529.50	1570.79
529.70	1677.29
529.90	1677.29
530.09	1722.34
530.29	1656.81
530.49	1683.43
530.69	1830.88
530.89	1894.37
531.09	1761.25
531.28	1695.72
531.48	1755.11
531.68	1730.53
531.88	1748.97
532.08	1785.83
532.28	1681.38
532.47	1757.16
532.67	1765.35
532.87	1703.91
533.07	1687.53
533.27	1677.29
533.46	1841.12
533.66	1691.62
533.86	1785.83
534.06	1722.34
534.26	1734.63
534.45	1734.63
534.65	1804.26
534.85	1732.58
535.05	1697.77
535.25	1746.92
535.44	1724.39
535.64	1828.84
535.84	1671.14
536.04	1703.91
536.24	1683.43
536.43	1626.09
536.63	1746.92
536.83	1789.92
537.03	1771.49
537.22	1701.86
537.42	1650.66
537.62	1755.11
537.82	1677.29
538.02	1828.84
538.21	1783.78
538.41	1861.60
538.61	1765.35
538.81	1748.97
539.00	1818.60
539.20	1669.09
539.40	1660.90
539.60	1798.12
539.79	1769.44
539.99	1732.58
540.19	1689.57
540.39	1703.91
540.58	1783.78
540.78	1847.27
540.98	1683.43
541.18	1771.49
541.37	1781.73
541.57	1695.72
541.77	1699.81
541.97	1654.76
542.16	1691.62
542.36	1691.62
542.56	1671.14
542.76	1896.42
542.95	1783.78
543.15	1755.11
543.35	1755.11
543.54	1755.11
543.74	1726.44
543.94	1759.21
544.14	1685.48
544.33	1769.44
544.53	1642.47
544.73	1726.44
544.93	1734.63
545.12	1681.38
545.32	1714.15
545.52	1730.53
545.71	1718.25
545.91	1636.33
546.11	1730.53
546.30	1755.11
546.50	1615.85
546.70	1734.63
546.90	1808.36
547.09	1611.75
547.29	1773.54
547.49	1765.35
547.68	1804.26
547.88	1710.05
548.08	1771.49
548.27	2125.79
548.47	1681.38
548.67	1701.86
548.87	1757.16
549.06	1701.86
549.26	1804.26
549.46	1763.30
549.65	1728.49
549.85	1810.40
550.05	1812.45
550.24	1656.81
550.44	1771.49
550.64	1751.01
550.83	1611.75
551.03	1800.16
551.23	1755.11
551.42	1783.78
551.62	1662.95
551.82	1728.49
552.01	1740.77
552.21	1794.02
552.41	1701.86
552.60	1830.88
552.80	1665.00
553.00	1701.86
553.19	1769.44
553.39	1789.92
553.59	1607.66
553.78	1763.30
553.98	1753.06
554.17	1665.00
554.37	1738.73
554.57	1732.58
554.76	1677.29
554.96	1705.96
555.16	1705.96
555.35	1662.95
555.55	1830.88
555.75	1736.68
555.94	1822.69
556.14	1656.81
556.33	1710.05
556.53	1759.21
556.73	1708.01
556.92	1832.93
557.12	1826.79
557.32	1857.51
557.51	1880.04
557.71	1746.92
557.90	1800.16
558.10	1933.28
558.30	1738.73
558.49	1755.11
558.69	1720.29
558.88	1746.92
559.08	1691.62
559.28	1757.16
559.47	1718.25
559.67	1732.58
559.86	1796.07
560.06	1791.97
560.26	1738.73
560.45	1814.50
560.65	1683.43
560.84	1740.77
561.04	1748.97
561.24	1738.73
561.43	1751.01
561.63	1869.80
561.82	1832.93
562.02	1857.51
562.22	1705.96
562.41	1667.05
562.61	1714.15
562.80	1675.24
563.00	1804.26
563.19	1787.88
563.39	1748.97
563.59	1714.15
563.78	1710.05
563.98	1675.24
564.17	1730.53
564.37	1669.09
564.56	1691.62
564.76	1687.53
564.96	1796.07
565.15	1675.24
565.35	1849.32
565.54	1775.59
565.74	1724.39
565.93	1777.64
566.13	1769.44
566.32	1775.59
566.52	1746.92
566.71	1734.63
566.91	1800.16
567.11	1714.15
567.30	1685.48
567.50	1810.40
567.69	1767.40
567.89	1734.63
568.08	1720.29
568.28	1775.59
568.47	1640.42
568.67	1746.92
568.86	1751.01
569.06	1773.54
569.25	1740.77
569.45	1642.47
569.64	1730.53
569.84	1683.43
570.04	1775.59
570.23	1708.01
570.43	1693.67
570.62	1660.90
570.82	1818.60
571.01	1683.43
571.21	1705.96
571.40	1634.28
571.60	1820.64
571.79	1773.54
571.99	1802.21
572.18	1705.96
572.38	1816.55
572.57	1746.92
572.77	1789.92
572.96	1886.18
573.16	1722.34
573.35	1673.19
573.55	1779.68
573.74	1802.21
573.94	1714.15
574.13	1699.81
574.33	1806.31
574.52	1787.88
574.71	1646.57
574.91	1820.64
575.10	1599.46
575.30	1648.61
575.49	1695.72
575.69	1621.99
575.88	1689.57
576.08	1720.29
576.27	1816.55
576.47	1740.77
576.66	1753.06
576.86	1785.83
577.05	1720.29
577.25	1775.59
577.44	1894.37
577.64	1677.29
577.83	1791.97
578.02	1771.49
578.22	1783.78
578.41	1894.37
578.61	1701.86
578.80	1685.48
579.00	1720.29
579.19	1718.25
579.39	1783.78
579.58	1861.60
579.77	1771.49
579.97	1837.03
580.16	1789.92
580.36	1806.31
580.55	1882.08
580.75	1769.44
580.94	1744.87
581.13	1855.46
581.33	1834.98
581.52	1789.92
581.72	1877.99
581.91	1855.46
582.11	1701.86
582.30	1771.49
582.49	1769.44
582.69	1800.16
582.88	1791.97
583.08	1751.01
583.27	1800.16
583.47	1728.49
583.66	1746.92
583.85	1771.49
584.05	1740.77
584.24	1740.77
584.44	1779.68
584.63	1800.16
584.82	1830.88
585.02	1798.12
585.21	1837.03
585.41	1873.89
585.60	1845.22
585.79	1898.47
585.99	1949.67
586.18	1902.56
586.37	2082.78
586.57	3444.68
586.76	9967.46
586.96	25036.42
587.15	34958.83
587.34	41262.47
587.54	42886.51
587.73	37156.30
587.93	26680.94
588.12	21790.39
588.31	18697.95
588.51	16670.47
588.70	15447.83
588.89	14090.02
589.09	13066.04
589.28	11347.79
589.47	9740.14
589.67	8095.62
589.86	6567.84
590.06	5007.28
590.25	3813.32
590.44	3241.93
590.64	2678.74
590.83	2279.39
591.02	2109.41
591.22	2009.06
591.41	1845.22
591.60	1746.92
591.80	1935.33
591.99	1726.44
592.18	1755.11
592.38	1882.08
592.57	1773.54
592.76	1703.91
592.96	1781.73
593.15	1804.26
593.34	1753.06
593.54	1738.73
593.73	1787.88
593.92	1703.91
594.12	1705.96
594.31	1724.39
594.50	1896.42
594.70	1773.54
594.89	1822.69
595.08	1638.38
595.28	1841.12
595.47	1912.80
595.66	1771.49
595.86	1730.53
596.05	1683.43
596.24	1705.96
596.43	1740.77
596.63	1730.53
596.82	1798.12
597.01	1748.97
597.21	1904.61
597.40	1759.21
597.59	1697.77
597.79	1710.05
597.98	1783.78
598.17	1789.92
598.36	1759.21
598.56	1804.26
598.75	1691.62
598.94	1697.77
599.14	1808.36
599.33	1718.25
599.52	1740.77
599.71	1677.29
599.91	1812.45
600.10	1808.36
600.29	1697.77
600.48	1773.54
600.68	1777.64
600.87	1742.82
601.06	1753.06
601.26	1779.68
601.45	1736.68
601.64	1708.01
601.83	1755.11
602.03	1738.73
602.22	1667.05
602.41	1757.16
602.60	1877.99
602.80	1834.98
602.99	1775.59
603.18	1693.67
603.37	1699.81
603.57	1746.92
603.76	1742.82
603.95	1724.39
604.14	1787.88
604.34	1734.63
604.53	1759.21
604.72	1710.05
604.91	1679.33
605.10	1787.88
605.30	1617.90
605.49	1867.75
605.68	1675.24
605.87	1804.26
606.07	1730.53
606.26	1718.25
606.45	1796.07
606.64	1703.91
606.84	1763.30
607.03	1708.01
607.22	1675.24
607.41	1701.86
607.60	1701.86
607.80	1810.40
607.99	1773.54
608.18	1722.34
608.37	1808.36
608.56	1673.19
608.76	1728.49
608.95	1841.12
609.14	1712.10
609.33	1732.58
609.52	1746.92
609.72	1665.00
609.91	1818.60
610.10	1697.77
610.29	1904.61
610.48	1755.11
610.68	1730.53
610.87	1669.09
611.06	1757.16
611.25	1722.34
611.44	1767.40
611.63	1697.77
611.83	1783.78
612.02	1656.81
612.21	1765.35
612.40	1581.03
612.59	1722.34
612.79	1669.09
612.98	1679.33
613.17	1744.87
613.36	1763.30
613.55	1865.70
613.74	1656.81
613.93	1724.39
614.13	1689.57
614.32	1689.57
614.51	1724.39
614.70	1734.63
614.89	1628.14
615.08	1667.05
615.28	1984.48
615.47	1665.00
615.66	1714.15
615.85	1662.95
616.04	1806.31
616.23	1740.77
616.42	1722.34
616.62	1720.29
616.81	1769.44
617.00	1751.01
617.19	1708.01
617.38	1669.09
617.57	1673.19
617.76	1791.97
617.95	1771.49
618.15	1783.78
618.34	1839.08
618.53	1726.44
618.72	1851.36
618.91	1816.55
619.10	1849.32
619.29	1630.18
619.48	1761.25
619.68	1632.23
619.87	1753.06
620.06	1644.52
620.25	1781.73
620.44	1748.97
620.63	1681.38
620.82	1669.09
621.01	1826.79
621.20	1806.31
621.39	1746.92
621.59	1781.73
621.78	1751.01
621.97	1722.34
622.16	1714.15
622.35	1738.73
622.54	1732.58
622.73	1839.08
622.92	1576.94
623.11	1679.33
623.30	1701.86
623.49	1787.88
623.68	1714.15
623.88	1826.79
624.07	1724.39
624.26	1681.38
624.45	1685.48
624.64	1699.81
624.83	1816.55
625.02	1722.34
625.21	1714.15
625.40	1779.68
625.59	1724.39
625.78	1765.35
625.97	1789.92
626.16	1751.01
626.35	1771.49
626.54	1726.44
626.74	1738.73
626.93	1662.95
627.12	1730.53
627.31	1845.22
627.50	1771.49
627.69	1755.11
627.88	1660.90
628.07	1765.35
628.26	1556.46
628.45	1730.53
628.64	1650.66
628.83	1734.63
629.02	1689.57
629.21	1808.36
629.40	1748.97
629.59	1693.67
629.78	1665.00
629.97	1718.25
630.16	1730.53
630.35	1650.66
630.54	1720.29
630.73	1673.19
630.92	1689.57
631.11	1648.61
631.30	1710.05
631.49	1712.10
631.68	1681.38
631.87	1775.59
632.06	1589.22
632.25	1832.93
632.44	1718.25
632.63	1742.82
632.82	1724.39
633.01	1615.85
633.20	1722.34
633.39	1621.99
633.58	1564.65
633.77	1734.63
633.96	1734.63
634.15	1800.16
634.34	1695.72
634.53	1671.14
634.72	1726.44
634.91	1658.85
635.10	1769.44
635.29	1769.44
635.48	1767.40
635.67	1662.95
635.86	1599.46
636.05	1738.73
636.24	1744.87
636.43	1839.08
636.62	1697.77
636.81	1603.56
637.00	1785.83
637.19	1724.39
637.38	1777.64
637.57	1697.77
637.76	1740.77
637.95	1716.20
638.14	1712.10
638.33	1673.19
638.52	1724.39
638.71	1710.05
638.89	1609.70
639.08	1877.99
639.27	1708.01
639.46	1689.57
639.65	1742.82
639.84	1714.15
640.03	1689.57
640.22	1742.82
640.41	1863.65
640.60	1720.29
640.79	1701.86
640.98	1660.90
641.17	1800.16
641.36	1710.05
641.55	1716.20
641.74	1660.90
641.92	1644.52
642.11	1712.10
642.30	1667.05
642.49	1656.81
642.68	1658.85
642.87	1638.38
643.06	1769.44
643.25	1675.24
643.44	1673.19
643.63	1732.58
643.82	1703.91
644.00	1710.05
644.19	1740.77
644.38	1703.91
644.57	1732.58
644.76	1710.05
644.95	1693.67
645.14	1716.20
645.33	1732.58
645.52	1738.73
645.71	1644.52
645.89	1683.43
646.08	1658.85
646.27	1775.59
646.46	1796.07
646.65	1646.57
646.84	1759.21
647.03	1701.86
647.22	1818.60
647.40	1740.77
647.59	1742.82
647.78	1660.90
647.97	1689.57
648.16	1611.75
648.35	1796.07
648.54	1716.20
648.73	1677.29
648.91	1802.21
649.10	1679.33
649.29	1609.70
649.48	1753.06
649.67	1740.77
649.86	1671.14
650.05	1660.90
650.23	1718.25
650.42	1615.85
650.61	1734.63
650.80	1744.87
650.99	1816.55
651.18	1791.97
651.36	1701.86
651.55	1624.04
651.74	1689.57
651.93	1708.01
652.12	1685.48
652.31	1804.26
652.49	1763.30
652.68	1685.48
652.87	1763.30
653.06	1624.04
653.25	1771.49
653.44	1681.38
653.62	1816.55
653.81	1601.51
654.00	1722.34
654.19	1804.26
654.38	1843.17
654.56	1683.43
654.75	1656.81
654.94	1765.35
655.13	1818.60
655.32	1665.00
655.51	1837.03
655.69	1714.15
655.88	1777.64
656.07	1642.47
656.26	1753.06
656.45	1652.71
656.63	1689.57
656.82	1736.68
657.01	1744.87
657.20	1636.33
657.38	1757.16
657.57	1714.15
657.76	1652.71
657.95	1777.64
658.14	1624.04
658.32	1695.72
658.51	1628.14
658.70	1718.25
658.89	1732.58
659.08	1759.21
659.26	1812.45
659.45	1652.71
659.64	1759.21
659.83	1681.38
660.01	1888.23
660.20	1748.97
660.39	1802.21
660.58	1628.14
660.76	1789.92
660.95	1642.47
661.14	1794.02
661.33	1675.24
661.51	1648.61
661.70	1669.09
661.89	1720.29
662.08	1785.83
662.26	1681.38
662.45	1691.62
662.64	1763.30
662.83	1761.25
663.01	1628.14
663.20	1693.67
663.39	1822.69
663.58	1695.72
663.76	1632.23
663.95	1771.49
664.14	1628.14
664.32	1667.05
664.51	1673.19
664.70	1624.04
664.89	1730.53
665.07	1630.18
665.26	1763.30
665.45	1611.75
665.64	1701.86
665.82	1710.05
666.01	1751.01
666.20	1634.28
666.38	1873.89
666.57	1867.75
666.76	2174.94
666.95	4491.20
667.13	10471.26
667.32	15343.38
667.51	17884.91
667.69	19265.24
667.88	17725.17
668.07	12738.37
668.25	9609.07
668.44	8085.38
668.63	7393.17
668.81	6797.21
669.00	6344.61
669.19	5832.62
669.38	5083.06
669.56	4460.48
669.75	4057.03
669.94	3416.01
670.12	2873.30
670.31	2594.78
670.50	2252.77
670.68	2095.07
670.87	1900.52
671.06	1828.84
671.24	1839.08
671.43	1804.26
671.62	1742.82
671.80	1781.73
671.99	1689.57
672.18	1716.20
672.36	1738.73
672.55	1763.30
672.74	1777.64
672.92	1757.16
673.11	1746.92
673.29	1708.01
673.48	1683.43
673.67	1671.14
673.85	1746.92
674.04	1642.47
674.23	1673.19
674.41	1839.08
674.60	1677.29
674.79	1736.68
674.97	1710.05
675.16	1681.38
675.34	1777.64
675.53	1728.49
675.72	1777.64
675.90	1847.27
676.09	1732.58
676.28	1755.11
676.46	1591.27
676.65	1763.30
676.83	1652.71
677.02	1669.09
677.21	1755.11
677.39	1800.16
677.58	1525.74
677.77	1621.99
677.95	1650.66
678.14	1730.53
678.32	1687.53
678.51	1730.53
678.70	1812.45
678.88	1654.76
679.07	1755.11
679.25	1673.19
679.44	1724.39
679.63	1679.33
679.81	1691.62
680.00	1785.83
680.18	1695.72
680.37	1853.41
680.55	1705.96
680.74	1642.47
680.93	1640.42
681.11	1755.11
681.30	1718.25
681.48	1681.38
681.67	1771.49
681.85	1701.86
682.04	1681.38
682.23	1789.92
682.41	1671.14
682.60	1703.91
682.78	1783.78
682.97	1691.62
683.15	1787.88
683.34	1771.49
683.53	1806.31
683.71	1648.61
683.90	1755.11
684.08	1843.17
684.27	1697.77
684.45	1681.38
684.64	1748.97
684.82	1726.44
685.01	1714.15
685.19	1718.25
685.38	1832.93
685.57	1685.48
685.75	1742.82
685.94	1650.66
686.12	1632.23
686.31	1695.72
686.49	1853.41
686.68	1587.18
686.86	1755.11
687.05	1705.96
687.23	1796.07
687.42	1621.99
687.60	1568.74
687.79	1845.22
687.97	1816.55
688.16	1728.49
688.34	1755.11
688.53	1611.75
688.71	1763.30
688.90	1687.53
689.08	1703.91
689.27	1615.85
689.45	1779.68
689.64	1732.58
689.82	1718.25
690.01	1722.34
690.19	1755.11
690.38	1775.59
690.56	1781.73
690.75	1724.39
690.93	1726.44
691.12	1712.10
691.30	1712.10
691.49	1632.23
691.67	1705.96
691.86	1798.12
692.04	1705.96
692.23	1624.04
692.41	1624.04
692.60	1880.04
692.78	1773.54
692.97	1681.38
693.15	1787.88
693.34	1779.68
693.52	1775.59
693.71	1673.19
693.89	1642.47
694.08	1722.34
694.26	1744.87
694.44	1755.11
694.63	1730.53
694.81	1619.94
695.00	1662.95
695.18	1699.81
695.37	1812.45
695.55	1800.16
695.74	1718.25
695.92	1728.49
696.10	1697.77
696.29	1591.27
696.47	1695.72
696.66	1646.57
696.84	1646.57
697.03	1705.96
697.21	1808.36
697.40	2246.62
697.58	1712.10
697.76	1648.61
697.95	1681.38
698.13	1607.66
698.32	1667.05
698.50	1671.14
698.68	1726.44
698.87	1693.67
699.05	1845.22
699.24	1746.92
699.42	1742.82
699.61	1671.14
699.79	1665.00
699.97	1732.58
700.16	1656.81
700.34	1681.38
700.53	1726.44
700.71	1810.40
700.89	1832.93
701.08	1660.90
701.26	1751.01
701.45	2125.79
701.63	1615.85
701.81	1705.96
702.00	1703.91
702.18	1705.96
702.37	1640.42
702.55	1841.12
702.73	1675.24
702.92	1665.00
703.10	1763.30
703.28	1683.43
703.47	1660.90
703.65	1771.49
703.84	1691.62
704.02	1669.09
704.20	1769.44
704.39	1634.28
704.57	1728.49
704.75	1767.40
704.94	1759.21
705.12	1673.19
705.30	1771.49
705.49	2181.09
705.67	4323.26
705.86	9701.23
706.04	12902.20
706.22	14806.81
706.41	15910.67
706.59	14225.19
706.77	9783.15
706.96	7456.65
707.14	6692.76
707.32	6164.39
707.51	5496.75
707.69	4978.61
707.87	4341.69
708.06	3626.95
708.24	2981.84
708.42	2453.47
708.61	2217.95
708.79	1931.23
708.97	1837.03
709.16	1822.69
709.34	1814.50
709.52	1695.72
709.71	1683.43
709.89	1689.57
710.07	1712.10
710.26	1695.72
710.44	1763.30
710.62	1761.25
710.80	1746.92
710.99	1755.11
711.17	1791.97
711.35	1646.57
711.54	1691.62
711.72	1796.07
711.90	1701.86
712.09	1740.77
712.27	1677.29
712.45	1740.77
712.63	1714.15
712.82	1648.61
713.00	1656.81
713.18	1710.05
713.37	1775.59
713.55	1742.82
713.73	1705.96
713.91	1796.07
714.10	1693.67
714.28	1742.82
714.46	1746.92
714.65	1675.24
714.83	1691.62
715.01	1738.73
715.19	1724.39
715.38	1703.91
715.56	1722.34
715.74	1681.38
715.92	1660.90
716.11	1728.49
716.29	1574.89
716.47	1626.09
716.65	1685.48
716.84	1597.42
717.02	1724.39
717.20	1648.61
717.38	1648.61
717.57	1746.92
717.75	1677.29
717.93	1697.77
718.11	1691.62
718.30	1615.85
718.48	1662.95
718.66	1724.39
718.84	1783.78
719.03	1683.43
719.21	1615.85
719.39	1800.16
719.57	1701.86
719.75	1808.36
719.94	1728.49
720.12	1675.24
720.30	1691.62
720.48	1763.30
720.67	1683.43
720.85	1675.24
721.03	1710.05
721.21	1658.85
721.39	1689.57
721.58	1740.77
721.76	1714.15
721.94	1753.06
722.12	1746.92
722.30	1812.45
722.49	1714.15
722.67	1716.20
722.85	1767.40
723.03	1581.03
723.21	1675.24
723.40	1720.29
723.58	1748.97
723.76	1708.01
723.94	1742.82
724.12	1693.67
724.30	1781.73
724.49	1734.63
724.67	1652.71
724.85	1824.74
725.03	1665.00
725.21	1701.86
725.40	1802.21
725.58	1634.28
725.76	1757.16
725.94	1685.48
726.12	1599.46
726.30	1751.01
726.49	1701.86
726.67	1742.82
726.85	1687.53
727.03	1728.49
727.21	2183.13
727.39	2918.36
727.57	3858.37
727.76	4261.82
727.94	4454.33
728.12	4495.29
728.30	3821.51
728.48	3006.42
728.66	2793.43
728.84	2623.45
729.03	2369.50
729.21	2133.98
729.39	2056.16
729.57	1826.79
729.75	1851.36
729.93	1894.37
730.11	1775.59
730.30	1716.20
730.48	1757.16
730.66	1775.59
730.84	1742.82
731.02	1705.96
731.20	1710.05
731.38	1712.10
731.56	1587.18
731.74	1626.09
731.93	1710.05
732.11	1732.58
732.29	1636.33
732.47	1695.72
732.65	1703.91
732.83	1740.77
733.01	1705.96
733.19	1683.43
733.37	1710.05
733.56	1732.58
733.74	1681.38
733.92	1783.78
734.10	1679.33
734.28	1802.21
734.46	1599.46
734.64	1714.15
734.82	1632.23
735.00	1699.81
735.18	1695.72
735.36	1751.01
735.54	1705.96
735.73	1791.97
735.91	1746.92
736.09	1742.82
736.27	1699.81
736.45	1716.20
736.63	1621.99
736.81	1695.72
736.99	1771.49
737.17	1742.82
737.35	1689.57
737.53	1681.38
737.71	1718.25
737.89	1781.73
738.07	1632.23
738.25	1589.22
738.43	1615.85
738.61	1681.38
738.80	1742.82
738.98	1648.61
739.16	1732.58
739.34	1740.77
739.52	1818.60
739.70	1624.04
739.88	1755.11
740.06	1804.26
740.24	1607.66
740.42	1824.74
740.60	1595.37
740.78	1708.01
740.96	1597.42
741.14	1722.34
741.32	1763.30
741.50	1609.70
741.68	1791.97
741.86	1808.36
742.04	1617.90
742.22	1730.53
742.40	1693.67
742.58	1753.06
742.76	1660.90
742.94	1740.77
743.12	1701.86
743.30	1765.35
743.48	1673.19
743.66	1642.47
743.84	1753.06
744.02	1646.57
744.20	1621.99
744.38	1652.71
744.56	1621.99
744.74	1806.31
744.92	1699.81
745.10	1781.73
745.28	1839.08
745.46	1728.49
745.64	1669.09
745.82	1763.30
746.00	1724.39
746.18	1710.05
746.36	1703.91
746.54	1814.50
746.72	1710.05
746.90	1648.61
747.08	1748.97
747.26	1667.05
747.44	1619.94
747.62	1748.97
747.80	1681.38
747.98	1738.73
748.15	1751.01
748.33	1705.96
748.51	1734.63
748.69	1763.30
748.87	1716.20
749.05	1634.28
749.23	1656.81
749.41	1624.04
749.59	1683.43
749.77	1781.73
749.95	1671.14
750.13	1621.99
750.31	1736.68
750.49	1687.53
750.67	1765.35
750.85	1720.29
751.03	1724.39
751.20	1912.80
751.38	1626.09
751.56	1687.53
751.74	1761.25
751.92	1689.57
752.10	1689.57
752.28	1701.86
752.46	1654.76
752.64	1654.76
752.82	1705.96
753.00	1701.86
753.18	1695.72
753.35	1697.77
753.53	1656.81
753.71	1712.10
753.89	1751.01
754.07	1693.67
754.25	1841.12
754.43	1726.44
754.61	1585.13
754.79	1767.40
754.97	1748.97
755.14	1716.20
755.32	1677.29
755.50	1765.35
755.68	1714.15
755.86	1697.77
756.04	1685.48
756.22	1646.57
756.40	1740.77
756.57	1832.93
756.75	1691.62
756.93	1767.40
757.11	1685.48
757.29	1685.48
757.47	1691.62
757.65	1617.90
757.82	1658.85
758.00	1599.46
758.18	1748.97
758.36	1609.70
758.54	1746.92
758.72	1658.85
758.90	1705.96
759.07	1632.23
759.25	1630.18
759.43	1738.73
759.61	1609.70
759.79	2174.94
759.97	1734.63
760.15	1660.90
760.32	1705.96
760.50	1753.06
760.68	1789.92
760.86	1660.90
761.04	1714.15
761.22	1632.23
761.39	1689.57
761.57	1753.06
761.75	1751.01
761.93	1767.40
762.11	1693.67
762.28	1722.34
762.46	1591.27
762.64	1806.31
762.82	1636.33
763.00	1722.34
763.18	1751.01
763.35	1595.37
763.53	1751.01
763.71	1660.90
763.89	1699.81
764.07	1695.72
764.24	1650.66
764.42	1718.25
764.60	1699.81
764.78	1718.25
764.96	1796.07
765.13	1839.08
765.31	1652.71
765.49	1689.57
765.67	1662.95
765.84	1689.57
766.02	1621.99
766.20	1603.56
766.38	1724.39
766.56	1763.30
766.73	1720.29
766.91	1675.24
767.09	1759.21
767.27	1654.76
767.44	1660.90
767.62	1779.68
767.80	1619.94
767.98	1671.14
768.15	1683.43
768.33	1791.97
768.51	1722.34
768.69	1808.36
768.87	1757.16
769.04	1691.62
769.22	1849.32
769.40	1771.49
769.58	1812.45
769.75	1669.09
769.93	1726.44
770.11	1646.57
770.28	1609.70
770.46	1697.77
770.64	1669.09
770.82	1718.25
770.99	1648.61
771.17	1687.53
771.35	1689.57
771.53	1591.27
771.70	1773.54
771.88	1789.92
772.06	1718.25
772.23	1746.92
772.41	1757.16
772.59	1648.61
772.77	1585.13
772.94	1671.14
773.12	1679.33
773.30	1677.29
773.47	1687.53
773.65	1699.81
773.83	1837.03
774.01	1658.85
774.18	1593.32
774.36	1773.54
774.54	1699.81
774.71	1697.77
774.89	1617.90
775.07	1667.05
775.24	1705.96
775.42	1665.00
775.60	1787.88
775.78	1742.82
775.95	1687.53
776.13	1662.95
776.31	1570.79
776.48	1763.30
776.66	1796.07
776.84	1677.29
777.01	1597.42
777.19	1656.81
777.37	1683.43
777.54	1710.05
777.72	1816.55
777.90	1693.67
778.07	1650.66
778.25	1869.80
778.43	1787.88
778.60	1662.95
778.78	1679.33
778.96	1740.77
779.13	1634.28
779.31	1693.67
779.49	1691.62
779.66	1771.49
779.84	1732.58
780.01	1646.57
780.19	1658.85
780.37	1746.92
780.54	1708.01
780.72	1689.57
780.90	1701.86
781.07	1646.57
781.25	1755.11
781.43	1728.49
781.60	1679.33
781.78	1759.21
781.95	1757.16
782.13	1695.72
782.31	1642.47
782.48	1576.94
782.66	1763.30
782.83	1804.26
783.01	1771.49
783.19	1806.31
783.36	1710.05
783.54	1642.47
783.72	1789.92
783.89	1710.05
784.07	1705.96
784.24	1773.54
784.42	1810.40
784.60	1693.67
784.77	1679.33
784.95	1646.57
785.12	1740.77
785.30	1691.62
785.47	1648.61
785.65	1656.81
785.83	1607.66
786.00	1746.92
786.18	1669.09
786.35	1667.05
786.53	1607.66
786.71	1765.35
786.88	1755.11
787.06	1800.16
787.23	1708.01
787.41	1669.09
787.58	1665.00
787.76	1677.29
787.94	1744.87
788.11	1693.67
788.29	1644.52
788.46	1689.57
788.64	1640.42
788.81	1665.00
788.99	1652.71
789.16	1681.38
789.34	1683.43
789.52	1671.14
789.69	1583.08
789.87	1683.43
790.04	1652.71
790.22	1644.52
790.39	1796.07
790.57	1597.42
790.74	1650.66
790.92	1595.37
791.09	1640.42
791.27	1712.10
791.44	1781.73
791.62	1732.58
791.79	1787.88
791.97	1708.01
792.15	1755.11
792.32	1687.53
792.50	1779.68
792.67	1712.10
792.85	1800.16
793.02	1669.09
793.20	1693.67
793.37	1576.94
793.55	1650.66
793.72	1585.13
793.90	1683.43
794.07	1611.75
794.25	1640.42
794.42	1708.01
794.60	1714.15
794.77	1724.39
794.95	1669.09
795.12	1742.82
795.30	1644.52
795.47	1574.89
795.65	1867.75
795.82	1730.53
796.00	1693.67
796.17	1689.57
796.34	1652.71
796.52	1789.92
796.69	1740.77
796.87	1744.87
797.04	1757.16
797.22	1730.53
797.39	1730.53
797.57	1712.10
797.74	1708.01
797.92	1683.43
798.09	1667.05
798.27	1724.39
798.44	1724.39
798.62	1689.57
798.79	1724.39
798.96	1683.43
799.14	1771.49
799.31	1832.93
799.49	1669.09
799.66	1642.47
799.84	1691.62
800.01	1624.04
800.19	1718.25
800.36	1617.90
800.53	1660.90
800.71	1726.44
800.88	1751.01
801.06	1681.38
801.23	1636.33
801.41	1775.59
801.58	1626.09
801.75	1640.42
801.93	1763.30
802.10	1687.53
802.28	1728.49
802.45	1628.14
802.63	1716.20
802.80	1755.11
802.97	1656.81
803.15	1748.97
803.32	1662.95
803.50	1673.19
803.67	1636.33
803.84	1683.43
804.02	1726.44
804.19	1701.86
804.37	1540.07
804.54	1611.75
804.71	1675.24
804.89	1654.76
805.06	1591.27
805.24	1691.62
805.41	1673.19
805.58	1626.09
805.76	1865.70
805.93	1722.34
806.10	1712.10
806.28	1748.97
806.45	1755.11
806.63	1716.20
806.80	1665.00
806.97	1673.19
807.15	1646.57
807.32	1644.52
807.49	1714.15
807.67	1603.56
807.84	1779.68
808.01	1626.09
808.19	1880.04
808.36	1865.70
808.54	1734.63
808.71	1667.05
808.88	1677.29
809.06	1753.06
809.23	1734.63
809.40	1683.43
809.58	1718.25
809.75	1613.80
809.92	1693.67
810.10	1802.21
810.27	1642.47
810.44	1732.58
810.62	1759.21
810.79	1771.49
810.96	1652.71
811.14	1638.38
811.31	1650.66
811.48	1746.92
811.66	1665.00
811.83	1736.68
812.00	1767.40
812.18	1728.49
812.35	1830.88
812.52	1667.05
812.69	1660.90
812.87	1621.99
813.04	1689.57
813.21	1638.38
813.39	1683.43
813.56	1601.51
813.73	1767.40
813.91	1611.75
814.08	1728.49
814.25	1718.25
814.42	1636.33
814.60	1689.57
814.77	1687.53
814.94	1746.92
815.12	1726.44
815.29	1812.45
815.46	1615.85
815.63	1687.53
815.81	1718.25
815.98	1742.82
816.15	1761.25
816.33	1681.38
816.50	1701.86
816.67	1626.09
816.84	1660.90
817.02	1591.27
817.19	1619.94
817.36	1665.00
817.53	1722.34
817.71	1617.90
817.88	1746.92
818.05	1669.09
818.22	1757.16
818.40	1777.64
818.57	1683.43
818.74	1693.67
818.91	1710.05
819.09	1681.38
819.26	1732.58
819.43	1621.99
819.60	1734.63
819.78	1644.52
819.95	1761.25
820.12	1607.66
820.29	1816.55
820.47	1773.54
820.64	1701.86
820.81	1634.28
820.98	1691.62
821.15	1718.25
821.33	1738.73
821.50	1662.95
821.67	1722.34
821.84	1642.47
822.02	1742.82
822.19	1722.34
822.36	1697.77
822.53	1736.68
822.70	1607.66
822.88	1669.09
823.05	1765.35
823.22	1595.37
823.39	1679.33
823.56	1630.18
823.74	1789.92
823.91	1605.61
824.08	1603.56
824.25	1658.85
824.42	1824.74
824.60	1714.15
824.77	1773.54
824.94	1724.39
825.11	1697.77
825.28	1597.42
825.45	1789.92
825.63	1748.97
825.80	1718.25
825.97	1705.96
826.14	1734.63
826.31	1562.60
826.48	1714.15
826.66	1656.81
826.83	1669.09
827.00	1689.57
827.17	1679.33
827.34	1705.96
827.51	1673.19
827.69	1642.47
827.86	1654.76
828.03	1673.19
828.20	1656.81
828.37	1624.04
828.54	1716.20
828.71	1662.95
828.89	1789.92
829.06	1732.58
829.23	1705.96
829.40	1642.47
829.57	1667.05
829.74	1753.06
829.91	1720.29
830.09	1613.80
830.26	1761.25
830.43	1853.41
830.60	1683.43
830.77	1753.06
830.94	1779.68
831.11	1665.00
831.28	1669.09
831.46	1779.68
831.63	1687.53
831.80	1761.25
831.97	1630.18
832.14	1732.58
832.31	1710.05
832.48	1714.15
832.65	1708.01
832.82	1642.47
832.99	1697.77
833.17	1720.29
833.34	1816.55
833.51	1656.81
833.68	1542.12
833.85	1742.82
834.02	1654.76
834.19	1609.70
834.36	1734.63
834.53	1705.96
834.70	1683.43
834.87	1746.92
835.04	1671.14
835.22	1656.81
835.39	1667.05
835.56	1652.71
835.73	1742.82
835.90	1675.24
836.07	1619.94
836.24	1779.68
836.41	1640.42
836.58	1589.22
836.75	1660.90
836.92	1624.04
837.09	1693.67
837.26	1714.15
837.43	1673.19
837.60	1724.39
837.77	1646.57
837.94	1728.49
838.12	1755.11
838.29	1765.35
838.46	1572.84
838.63	1638.38
838.80	1751.01
838.97	1763.30
839.14	1703.91
839.31	1697.77
839.48	1644.52
839.65	1644.52
839.82	1789.92
839.99	1742.82
840.16	1693.67
840.33	1642.47
840.50	1687.53
840.67	1675.24
840.84	1607.66
841.01	1714.15
841.18	1675.24
841.35	1603.56
841.52	1808.36
841.69	1843.17
841.86	1665.00
842.03	1683.43
842.20	1701.86
842.37	1691.62
842.54	1671.14
842.71	1652.71
842.88	1652.71
843.05	1724.39
843.22	1716.20
843.39	1714.15
843.56	1662.95
843.73	1728.49
843.90	1687.53
844.07	1675.24
844.24	1742.82
844.41	1755.11
844.58	1693.67
844.75	1710.05
844.92	1771.49
845.09	1685.48
845.26	1681.38
845.43	1718.25
845.60	1642.47
845.77	1722.34
845.94	1720.29
846.10	1734.63
846.27	1693.67
846.44	1585.13
846.61	1636.33
846.78	1712.10
846.95	1767.40
847.12	1675.24
847.29	1665.00
847.46	1662.95
847.63	1740.77
847.80	1673.19
847.97	1607.66
848.14	1708.01
848.31	1687.53
848.48	1687.53
848.65	1718.25
848.82	1632.23
848.98	1742.82
849.15	1685.48
849.32	1699.81
849.49	1763.30
849.66	1658.85
849.83	1724.39
850.00	1605.61
850.17	1710.05
850.34	1599.46
850.51	1632.23
850.68	1683.43
850.85	1830.88
851.01	1624.04
851.18	1662.95
851.35	1761.25
851.52	1712.10
851.69	1751.01
851.86	1681.38
852.03	1652.71
852.20	1705.96
852.37	1677.29
852.53	1630.18
852.70	1689.57
852.87	1738.73
853.04	1701.86
853.21	1677.29
853.38	1722.34
853.55	1736.68
853.72	1765.35
853.89	1656.81
854.05	1611.75
854.22	1691.62
854.39	1689.57
854.56	1732.58
854.73	1740.77
854.90	1656.81
855.07	1697.77
855.23	1656.81
855.40	1650.66
855.57	1658.85
855.74	1677.29
855.91	1888.23
856.08	1728.49
856.25	1675.24
856.41	1685.48
856.58	1675.24
856.75	1665.00
856.92	1626.09
857.09	1742.82
857.26	1628.14
857.42	1710.05
857.59	1730.53
857.76	1656.81
857.93	1667.05
858.10	1722.34
858.27	1624.04
858.43	1740.77
858.60	1753.06
858.77	1615.85
858.94	1642.47
859.11	1738.73
859.27	1685.48
859.44	1712.10
859.61	1777.64
859.78	1701.86
859.95	1660.90
860.12	1675.24
860.28	1798.12
860.45	1855.46
860.62	1648.61
860.79	1748.97
860.95	1671.14
861.12	1636.33
861.29	1675.24
861.46	1652.71
861.63	1632.23
861.79	1683.43
861.96	1648.61
862.13	1636.33
862.30	1734.63
862.47	1671.14
862.63	1656.81
862.80	1708.01
862.97	1730.53
863.14	1718.25
863.30	1744.87
863.47	1650.66
863.64	1761.25
863.81	1705.96
863.97	1728.49
864.14	1710.05
864.31	1744.87
864.48	1732.58
864.65	1726.44
864.81	1712.10
864.98	1662.95
865.15	1730.53
865.32	1746.92
865.48	1771.49
865.65	1810.40
865.82	1712.10
865.98	1738.73
866.15	1804.26
866.32	1654.76
866.49	1642.47
866.65	1796.07
866.82	1660.90
866.99	1656.81
867.16	1654.76
867.32	1705.96
867.49	1632.23
867.66	1628.14
867.83	1624.04
867.99	1687.53
868.16	1714.15
868.33	1671.14
868.49	1691.62
868.66	1697.77
868.83	1658.85
868.99	1722.34
869.16	1642.47
869.33	1779.68
869.50	1751.01
869.66	1691.62
869.83	1601.51
870.00	1705.96
870.16	1751.01
870.33	1701.86
870.50	1763.30
870.66	1615.85
870.83	1779.68
871.00	1699.81
871.17	1691.62
871.33	1789.92
871.50	1753.06
871.67	1619.94
871.83	1619.94
872.00	1751.01
872.17	1712.10
872.33	1720.29
872.50	1718.25
872.67	1613.80
872.83	1730.53
873.00	1712.10
873.17	1648.61
873.33	1744.87
873.50	1742.82
873.67	1632.23
873.83	1673.19
874.00	1650.66
874.16	1775.59
874.33	1701.86
874.50	1621.99
874.66	1693.67
874.83	1685.48
875.00	1812.45
875.16	1740.77
875.33	1775.59
875.50	1621.99
875.66	1718.25
875.83	1701.86
875.99	1648.61
876.16	1748.97
876.33	1662.95
876.49	1708.01
876.66	1722.34
876.83	1697.77
876.99	1605.61
877.16	1722.34
877.32	1660.90
877.49	1724.39
877.66	1744.87
877.82	1767.40
877.99	1660.90
878.15	1726.44
878.32	1761.25
878.49	1640.42
878.65	1699.81
878.82	1751.01
878.98	1720.29
879.15	1720.29
879.32	1753.06
879.48	1615.85
879.65	1677.29
879.81	1632.23
879.98	1652.71
880.15	1632.23
880.31	1763.30
880.48	1648.61
880.64	1742.82
880.81	1689.57
880.97	1783.78
881.14	1820.64
881.31	1681.38
881.47	1796.07
881.64	1660.90
881.80	1525.74
881.97	1761.25
882.13	1773.54
882.30	1587.18
882.47	1640.42
882.63	1626.09
882.80	1599.46
882.96	1665.00
883.13	1781.73
883.29	1654.76
883.46	1775.59
883.62	1769.44
883.79	1679.33
883.95	1746.92
884.12	1716.20
884.29	1708.01
884.45	1632.23
884.62	1734.63
884.78	1714.15
884.95	1808.36
885.11	1628.14
885.28	1658.85
885.44	1718.25
885.61	1710.05
885.77	1724.39
885.94	1769.44
886.10	1660.90
886.27	1699.81
886.43	1853.41
886.60	1730.53
886.76	1703.91
886.93	1636.33
887.09	1724.39
887.26	1675.24
887.42	1738.73
887.59	1710.05
887.75	1789.92
887.92	1771.49
888.08	1753.06
888.25	1814.50
888.41	1738.73
888.58	1705.96
888.74	1687.53
888.91	1574.89
>>>>>End Processed Spectral Data<<<<<
