SpectraSuite Data File
++++++++++++++++++++++++++++++++++++
Date: Mon Jun 06 16:42:17 CEST 2016
User: root
Dark Spectrum Present: No
Reference Spectrum Present: No
Number of Sampled Component Spectra: 1
Spectrometers: USB4C02835
Integration Time (usec): 100000 (USB4C02835)
Spectra Averaged: 1 (USB4C02835)
Boxcar Smoothing: 0 (USB4C02835)
Correct for Electrical Dark: No (USB4C02835)
Strobe/Lamp Enabled: No (USB4C02835)
Correct for Detector Non-linearity: No (USB4C02835)
Correct for Stray Light: No (USB4C02835)
Number of Pixels in Processed Spectrum: 3648
>>>>>Begin Processed Spectral Data<<<<<
177.47	1470.44
177.69	1470.44
177.91	1470.44
178.13	1486.83
178.36	1462.25
178.58	1689.57
178.80	1708.01
179.02	1619.94
179.24	1634.28
179.46	1683.43
179.68	1734.63
179.90	1718.25
180.13	1697.77
180.35	1593.32
180.57	1785.83
180.79	1726.44
181.01	1710.05
181.23	1732.58
181.45	1685.48
181.67	1738.73
181.90	1714.15
182.12	1660.90
182.34	1722.34
182.56	1683.43
182.78	1736.68
183.00	1714.15
183.22	1714.15
183.44	1673.19
183.66	1886.18
183.89	1822.69
184.11	1726.44
184.33	1712.10
184.55	1742.82
184.77	1757.16
184.99	1744.87
185.21	1652.71
185.43	1789.92
185.65	1710.05
185.87	1757.16
186.10	1877.99
186.32	1806.31
186.54	1744.87
186.76	1771.49
186.98	1816.55
187.20	1701.86
187.42	1667.05
187.64	1703.91
187.86	1722.34
188.08	1755.11
188.30	1667.05
188.52	1615.85
188.75	1779.68
188.97	1748.97
189.19	1671.14
189.41	1669.09
189.63	1716.20
189.85	1699.81
190.07	1644.52
190.29	1687.53
190.51	1732.58
190.73	1650.66
190.95	1738.73
191.17	1726.44
191.39	1705.96
191.61	1779.68
191.84	1683.43
192.06	1771.49
192.28	1632.23
192.50	1865.70
192.72	1724.39
192.94	1679.33
193.16	1769.44
193.38	1669.09
193.60	1581.03
193.82	1736.68
194.04	1708.01
194.26	1742.82
194.48	1665.00
194.70	1677.29
194.92	1626.09
195.14	1736.68
195.36	1648.61
195.58	1728.49
195.80	1703.91
196.02	1605.61
196.24	1724.39
196.46	1736.68
196.69	1638.38
196.91	1802.21
197.13	1675.24
197.35	1701.86
197.57	1810.40
197.79	1726.44
198.01	1738.73
198.23	1806.31
198.45	1701.86
198.67	1697.77
198.89	1748.97
199.11	1767.40
199.33	1650.66
199.55	1624.04
199.77	1679.33
199.99	1824.74
200.21	1701.86
200.43	1697.77
200.65	1630.18
200.87	1535.98
201.09	1679.33
201.31	1699.81
201.53	1826.79
201.75	1714.15
201.97	1699.81
202.19	1665.00
202.41	1705.96
202.63	1830.88
202.85	1691.62
203.07	1763.30
203.29	1732.58
203.51	1660.90
203.73	1673.19
203.95	1914.85
204.17	1675.24
204.39	1755.11
204.61	1636.33
204.83	1683.43
205.05	1818.60
205.27	1714.15
205.49	1730.53
205.71	1738.73
205.93	1587.18
206.15	1648.61
206.37	1665.00
206.59	1665.00
206.81	1636.33
207.03	1665.00
207.25	1759.21
207.47	1748.97
207.69	1695.72
207.91	1818.60
208.13	1800.16
208.34	1605.61
208.56	1669.09
208.78	1732.58
209.00	1746.92
209.22	1669.09
209.44	1714.15
209.66	1652.71
209.88	1742.82
210.10	1681.38
210.32	1781.73
210.54	1791.97
210.76	1669.09
210.98	1732.58
211.20	1624.04
211.42	1714.15
211.64	1830.88
211.86	1791.97
212.08	1785.83
212.30	1716.20
212.52	1652.71
212.74	1714.15
212.96	1697.77
213.17	1804.26
213.39	1722.34
213.61	1757.16
213.83	1708.01
214.05	1714.15
214.27	1718.25
214.49	1695.72
214.71	1624.04
214.93	1783.78
215.15	1730.53
215.37	1699.81
215.59	1613.80
215.81	1605.61
216.03	1781.73
216.24	1751.01
216.46	1742.82
216.68	1724.39
216.90	1734.63
217.12	1757.16
217.34	1660.90
217.56	1724.39
217.78	1814.50
218.00	1796.07
218.22	1781.73
218.44	1722.34
218.66	1710.05
218.87	1791.97
219.09	1722.34
219.31	1732.58
219.53	1779.68
219.75	1650.66
219.97	1646.57
220.19	1730.53
220.41	1751.01
220.63	1796.07
220.85	1748.97
221.06	1695.72
221.28	1806.31
221.50	1746.92
221.72	1722.34
221.94	1675.24
222.16	1742.82
222.38	1660.90
222.60	1820.64
222.82	1683.43
223.03	1775.59
223.25	1607.66
223.47	1701.86
223.69	1857.51
223.91	1751.01
224.13	1609.70
224.35	1695.72
224.57	1783.78
224.78	1820.64
225.00	1669.09
225.22	1775.59
225.44	1697.77
225.66	1697.77
225.88	1665.00
226.10	1773.54
226.32	1763.30
226.53	1753.06
226.75	1710.05
226.97	1705.96
227.19	1681.38
227.41	1673.19
227.63	1722.34
227.85	1638.38
228.06	1736.68
228.28	1755.11
228.50	1751.01
228.72	1685.48
228.94	1658.85
229.16	1595.37
229.37	1658.85
229.59	1728.49
229.81	1755.11
230.03	1687.53
230.25	1601.51
230.47	1611.75
230.69	1652.71
230.90	1777.64
231.12	1644.52
231.34	1681.38
231.56	1755.11
231.78	1742.82
232.00	1656.81
232.21	1681.38
232.43	1710.05
232.65	1599.46
232.87	1714.15
233.09	1687.53
233.30	1796.07
233.52	1783.78
233.74	1669.09
233.96	1740.77
234.18	1726.44
234.40	1662.95
234.61	1832.93
234.83	1624.04
235.05	1742.82
235.27	1767.40
235.49	1800.16
235.70	1720.29
235.92	1757.16
236.14	1722.34
236.36	1859.56
236.58	1685.48
236.79	1775.59
237.01	1703.91
237.23	1716.20
237.45	1759.21
237.67	1695.72
237.88	1730.53
238.10	1775.59
238.32	1693.67
238.54	1628.14
238.76	1716.20
238.97	1624.04
239.19	1671.14
239.41	1742.82
239.63	1769.44
239.85	1679.33
240.06	1720.29
240.28	1685.48
240.50	1767.40
240.72	1693.67
240.93	1681.38
241.15	1802.21
241.37	1730.53
241.59	1730.53
241.81	1687.53
242.02	1771.49
242.24	1724.39
242.46	1757.16
242.68	1628.14
242.89	1783.78
243.11	1773.54
243.33	1746.92
243.55	1783.78
243.76	1783.78
243.98	1630.18
244.20	1724.39
244.42	1746.92
244.64	1683.43
244.85	1642.47
245.07	1705.96
245.29	1769.44
245.51	1753.06
245.72	1726.44
245.94	1783.78
246.16	1763.30
246.38	1791.97
246.59	1640.42
246.81	1609.70
247.03	1617.90
247.24	1660.90
247.46	1691.62
247.68	1742.82
247.90	1687.53
248.11	1705.96
248.33	1722.34
248.55	1681.38
248.77	1800.16
248.98	1777.64
249.20	1851.36
249.42	1650.66
249.64	1701.86
249.85	1722.34
250.07	1701.86
250.29	1740.77
250.50	1759.21
250.72	1669.09
250.94	1798.12
251.16	1877.99
251.37	1796.07
251.59	1716.20
251.81	1791.97
252.02	1798.12
252.24	1691.62
252.46	1771.49
252.68	1671.14
252.89	1626.09
253.11	1562.60
253.33	1816.55
253.54	1820.64
253.76	1665.00
253.98	1732.58
254.20	1642.47
254.41	1693.67
254.63	1683.43
254.85	1624.04
255.06	1708.01
255.28	1681.38
255.50	1714.15
255.71	1687.53
255.93	1601.51
256.15	1722.34
256.36	1794.02
256.58	1665.00
256.80	1726.44
257.02	1699.81
257.23	1693.67
257.45	1714.15
257.67	1685.48
257.88	1705.96
258.10	1775.59
258.32	1660.90
258.53	1716.20
258.75	1710.05
258.97	1724.39
259.18	1789.92
259.40	1654.76
259.62	1763.30
259.83	1734.63
260.05	1730.53
260.27	1964.00
260.48	1751.01
260.70	1660.90
260.92	1775.59
261.13	1779.68
261.35	1720.29
261.57	1763.30
261.78	1636.33
262.00	1611.75
262.22	1769.44
262.43	1677.29
262.65	1652.71
262.86	1648.61
263.08	1877.99
263.30	1665.00
263.51	1679.33
263.73	1665.00
263.95	1763.30
264.16	1642.47
264.38	1656.81
264.60	1771.49
264.81	1642.47
265.03	1734.63
265.25	1757.16
265.46	1748.97
265.68	1761.25
265.89	1773.54
266.11	1638.38
266.33	1693.67
266.54	1673.19
266.76	1779.68
266.98	1712.10
267.19	1773.54
267.41	1783.78
267.62	1724.39
267.84	1636.33
268.06	1675.24
268.27	1673.19
268.49	1796.07
268.70	1820.64
268.92	1734.63
269.14	1624.04
269.35	1654.76
269.57	1734.63
269.79	1802.21
270.00	1691.62
270.22	1820.64
270.43	1581.03
270.65	1644.52
270.87	1789.92
271.08	1714.15
271.30	1744.87
271.51	1695.72
271.73	1802.21
271.95	1789.92
272.16	1732.58
272.38	1685.48
272.59	1708.01
272.81	1820.64
273.02	1697.77
273.24	1714.15
273.46	1710.05
273.67	1566.70
273.89	1746.92
274.10	1624.04
274.32	1765.35
274.54	1662.95
274.75	1744.87
274.97	1738.73
275.18	1738.73
275.40	1783.78
275.61	1671.14
275.83	1718.25
276.05	1652.71
276.26	1699.81
276.48	1732.58
276.69	1660.90
276.91	1652.71
277.12	1767.40
277.34	1722.34
277.55	1751.01
277.77	1658.85
277.99	1638.38
278.20	1636.33
278.42	1738.73
278.63	1783.78
278.85	1654.76
279.06	1669.09
279.28	1712.10
279.49	1773.54
279.71	1802.21
279.93	1718.25
280.14	1650.66
280.36	1683.43
280.57	1791.97
280.79	1769.44
281.00	1619.94
281.22	1685.48
281.43	1751.01
281.65	1632.23
281.86	1718.25
282.08	1689.57
282.29	1814.50
282.51	1587.18
282.73	1751.01
282.94	1638.38
283.16	1744.87
283.37	1796.07
283.59	1730.53
283.80	1638.38
284.02	1736.68
284.23	1683.43
284.45	1710.05
284.66	1636.33
284.88	1669.09
285.09	1703.91
285.31	1714.15
285.52	1712.10
285.74	1550.31
285.95	1726.44
286.17	1765.35
286.38	1748.97
286.60	1665.00
286.81	1644.52
287.03	1705.96
287.24	1669.09
287.46	1769.44
287.67	1724.39
287.89	1810.40
288.10	1714.15
288.32	1759.21
288.53	1814.50
288.75	1718.25
288.96	1757.16
289.18	1636.33
289.39	1763.30
289.61	1796.07
289.82	1873.89
290.04	1849.32
290.25	1708.01
290.47	1755.11
290.68	1718.25
290.90	1820.64
291.11	1646.57
291.33	1787.88
291.54	1685.48
291.76	1701.86
291.97	1761.25
292.18	1726.44
292.40	1703.91
292.61	1646.57
292.83	1900.52
293.04	1785.83
293.26	1765.35
293.47	1722.34
293.69	1626.09
293.90	1789.92
294.12	1843.17
294.33	1732.58
294.55	1771.49
294.76	1720.29
294.97	1716.20
295.19	1847.27
295.40	1699.81
295.62	1832.93
295.83	1804.26
296.05	1699.81
296.26	1777.64
296.48	1624.04
296.69	1703.91
296.90	1761.25
297.12	1746.92
297.33	1755.11
297.55	1712.10
297.76	1736.68
297.98	1822.69
298.19	1662.95
298.41	1681.38
298.62	1644.52
298.83	1798.12
299.05	1755.11
299.26	1640.42
299.48	1660.90
299.69	1652.71
299.90	1720.29
300.12	1673.19
300.33	1777.64
300.55	1705.96
300.76	1787.88
300.98	1722.34
301.19	1732.58
301.40	1658.85
301.62	1691.62
301.83	1730.53
302.05	1701.86
302.26	1701.86
302.47	1740.77
302.69	1564.65
302.90	1734.63
303.12	1630.18
303.33	1703.91
303.54	1830.88
303.76	1675.24
303.97	1794.02
304.19	1767.40
304.40	1677.29
304.61	1697.77
304.83	1812.45
305.04	1845.22
305.26	1785.83
305.47	1656.81
305.68	1732.58
305.90	1685.48
306.11	1734.63
306.33	1669.09
306.54	1638.38
306.75	1722.34
306.97	1656.81
307.18	1654.76
307.39	1693.67
307.61	1765.35
307.82	1679.33
308.04	1728.49
308.25	1650.66
308.46	1710.05
308.68	1697.77
308.89	1693.67
309.10	1699.81
309.32	1839.08
309.53	1722.34
309.74	1673.19
309.96	1714.15
310.17	1746.92
310.39	1693.67
310.60	1705.96
310.81	1693.67
311.03	1634.28
311.24	1755.11
311.45	1734.63
311.67	1794.02
311.88	1644.52
312.09	1607.66
312.31	1699.81
312.52	1757.16
312.73	1669.09
312.95	1609.70
313.16	1648.61
313.37	1845.22
313.59	1693.67
313.80	1746.92
314.01	1771.49
314.23	1681.38
314.44	1673.19
314.65	1628.14
314.87	1624.04
315.08	1689.57
315.29	1691.62
315.51	1615.85
315.72	1628.14
315.93	1755.11
316.15	1775.59
316.36	1708.01
316.57	1642.47
316.79	1697.77
317.00	1714.15
317.21	1673.19
317.43	1642.47
317.64	1718.25
317.85	1648.61
318.07	1636.33
318.28	1687.53
318.49	1820.64
318.70	1920.99
318.92	1812.45
319.13	1812.45
319.34	1834.98
319.56	1765.35
319.77	1724.39
319.98	1789.92
320.20	1763.30
320.41	1689.57
320.62	1742.82
320.83	1695.72
321.05	1839.08
321.26	1724.39
321.47	1693.67
321.69	1783.78
321.90	1632.23
322.11	1697.77
322.32	1763.30
322.54	1746.92
322.75	1730.53
322.96	1839.08
323.18	1613.80
323.39	1656.81
323.60	1722.34
323.81	1734.63
324.03	1691.62
324.24	1693.67
324.45	1726.44
324.66	1673.19
324.88	1767.40
325.09	1806.31
325.30	1720.29
325.52	1730.53
325.73	1697.77
325.94	1656.81
326.15	1665.00
326.37	1701.86
326.58	1738.73
326.79	1740.77
327.00	1667.05
327.22	1738.73
327.43	1687.53
327.64	1701.86
327.85	1650.66
328.07	1740.77
328.28	1863.65
328.49	1628.14
328.70	1734.63
328.92	1691.62
329.13	1671.14
329.34	1722.34
329.55	1849.32
329.76	1765.35
329.98	1763.30
330.19	1775.59
330.40	1724.39
330.61	1730.53
330.83	1767.40
331.04	1656.81
331.25	1767.40
331.46	1691.62
331.68	1673.19
331.89	1748.97
332.10	1685.48
332.31	1673.19
332.52	1681.38
332.74	1783.78
332.95	1654.76
333.16	1679.33
333.37	1767.40
333.58	1751.01
333.80	1724.39
334.01	1632.23
334.22	1714.15
334.43	1632.23
334.64	1677.29
334.86	1648.61
335.07	1669.09
335.28	1779.68
335.49	1640.42
335.70	1845.22
335.92	1687.53
336.13	1828.84
336.34	1742.82
336.55	1800.16
336.76	1669.09
336.98	1642.47
337.19	1636.33
337.40	1871.84
337.61	1871.84
337.82	1695.72
338.04	1759.21
338.25	1652.71
338.46	1583.08
338.67	1624.04
338.88	1636.33
339.09	1673.19
339.31	1703.91
339.52	1689.57
339.73	1669.09
339.94	1759.21
340.15	1820.64
340.36	1667.05
340.58	1683.43
340.79	1691.62
341.00	1685.48
341.21	1665.00
341.42	1794.02
341.63	1699.81
341.85	1763.30
342.06	1728.49
342.27	1677.29
342.48	1779.68
342.69	1650.66
342.90	1730.53
343.12	1820.64
343.33	1730.53
343.54	1773.54
343.75	1785.83
343.96	1683.43
344.17	1665.00
344.38	1734.63
344.60	1691.62
344.81	1642.47
345.02	1689.57
345.23	1738.73
345.44	1804.26
345.65	1724.39
345.86	1679.33
346.07	1791.97
346.29	1611.75
346.50	1738.73
346.71	1693.67
346.92	1812.45
347.13	1759.21
347.34	1673.19
347.55	1656.81
347.76	1718.25
347.98	1718.25
348.19	1705.96
348.40	1796.07
348.61	1667.05
348.82	1894.37
349.03	1839.08
349.24	1665.00
349.45	1814.50
349.66	1626.09
349.88	1734.63
350.09	1718.25
350.30	1777.64
350.51	1855.46
350.72	1765.35
350.93	1658.85
351.14	1640.42
351.35	1736.68
351.56	1722.34
351.77	1712.10
351.99	1744.87
352.20	1800.16
352.41	1736.68
352.62	1615.85
352.83	1710.05
353.04	1685.48
353.25	1757.16
353.46	1746.92
353.67	1742.82
353.88	1656.81
354.09	1716.20
354.30	1714.15
354.52	1740.77
354.73	1673.19
354.94	1695.72
355.15	1685.48
355.36	1816.55
355.57	1619.94
355.78	1736.68
355.99	1714.15
356.20	1640.42
356.41	1773.54
356.62	1648.61
356.83	1673.19
357.04	1845.22
357.25	1628.14
357.46	1691.62
357.68	1578.98
357.89	1712.10
358.10	1755.11
358.31	1738.73
358.52	1656.81
358.73	1673.19
358.94	1673.19
359.15	1621.99
359.36	1648.61
359.57	1677.29
359.78	1671.14
359.99	1787.88
360.20	1742.82
360.41	1699.81
360.62	1763.30
360.83	1705.96
361.04	1779.68
361.25	1787.88
361.46	1845.22
361.67	1662.95
361.88	1677.29
362.09	1816.55
362.30	1718.25
362.51	1677.29
362.72	1673.19
362.93	1771.49
363.14	1789.92
363.35	1665.00
363.56	1650.66
363.78	1767.40
363.99	1810.40
364.20	1603.56
364.41	1722.34
364.62	1804.26
364.83	1681.38
365.04	1710.05
365.25	1714.15
365.46	1855.46
365.67	1679.33
365.88	1624.04
366.09	1697.77
366.30	1767.40
366.51	1679.33
366.72	1640.42
366.93	1587.18
367.14	1726.44
367.35	1763.30
367.56	1726.44
367.77	1828.84
367.98	1679.33
368.18	1773.54
368.39	1718.25
368.60	1677.29
368.81	1722.34
369.02	1732.58
369.23	1736.68
369.44	1599.46
369.65	1681.38
369.86	1740.77
370.07	1736.68
370.28	1603.56
370.49	1746.92
370.70	1597.42
370.91	1734.63
371.12	1669.09
371.33	1726.44
371.54	1695.72
371.75	1804.26
371.96	1583.08
372.17	1681.38
372.38	1656.81
372.59	1777.64
372.80	1732.58
373.01	1699.81
373.22	1722.34
373.43	1759.21
373.64	1675.24
373.85	1834.98
374.06	1820.64
374.26	1796.07
374.47	1708.01
374.68	1777.64
374.89	1738.73
375.10	1728.49
375.31	1710.05
375.52	1689.57
375.73	1689.57
375.94	1763.30
376.15	1796.07
376.36	1605.61
376.57	1673.19
376.78	1671.14
376.99	1730.53
377.20	1798.12
377.40	1722.34
377.61	1808.36
377.82	1632.23
378.03	1746.92
378.24	1785.83
378.45	1712.10
378.66	1771.49
378.87	1646.57
379.08	1585.13
379.29	1679.33
379.50	1742.82
379.71	1697.77
379.91	1720.29
380.12	1697.77
380.33	1679.33
380.54	1775.59
380.75	1736.68
380.96	1693.67
381.17	1705.96
381.38	1689.57
381.59	1720.29
381.80	1753.06
382.00	1865.70
382.21	1734.63
382.42	1857.51
382.63	1918.95
382.84	1789.92
383.05	1769.44
383.26	1816.55
383.47	1738.73
383.68	1740.77
383.88	1705.96
384.09	1732.58
384.30	1806.31
384.51	1722.34
384.72	1691.62
384.93	1652.71
385.14	1636.33
385.35	1746.92
385.55	1656.81
385.76	1718.25
385.97	1765.35
386.18	1597.42
386.39	1734.63
386.60	1718.25
386.81	1673.19
387.02	1660.90
387.22	1691.62
387.43	1789.92
387.64	1804.26
387.85	1886.18
388.06	2179.04
388.27	4313.02
388.48	6703.00
388.68	8226.69
388.89	9408.37
389.10	9678.70
389.31	8566.65
389.52	7499.66
389.73	6576.03
389.93	6334.37
390.14	5844.90
390.35	5171.12
390.56	4413.37
390.77	3772.36
390.98	3074.00
391.18	2469.85
391.39	2117.60
391.60	1812.45
391.81	1884.13
392.02	1728.49
392.23	1839.08
392.43	1796.07
392.64	1800.16
392.85	1636.33
393.06	1767.40
393.27	1738.73
393.47	1609.70
393.68	1732.58
393.89	1679.33
394.10	1791.97
394.31	1650.66
394.52	1646.57
394.72	1683.43
394.93	1767.40
395.14	1615.85
395.35	1791.97
395.56	1689.57
395.76	1753.06
395.97	1794.02
396.18	1841.12
396.39	1794.02
396.60	1898.47
396.80	1869.80
397.01	1951.71
397.22	1804.26
397.43	1814.50
397.64	1736.68
397.84	1861.60
398.05	1861.60
398.26	1665.00
398.47	1695.72
398.67	1779.68
398.88	1728.49
399.09	1773.54
399.30	1662.95
399.51	1685.48
399.71	1654.76
399.92	1679.33
400.13	1742.82
400.34	1705.96
400.54	1695.72
400.75	1820.64
400.96	1771.49
401.17	1798.12
401.37	1759.21
401.58	1699.81
401.79	1779.68
402.00	1896.42
402.21	2004.96
402.41	1980.39
402.62	1994.72
402.83	2101.22
403.04	2019.30
403.24	2021.35
403.45	1875.94
403.66	1953.76
403.87	1824.74
404.07	1789.92
404.28	2019.30
404.49	1855.46
404.70	1755.11
404.90	1748.97
405.11	1798.12
405.32	1705.96
405.52	1728.49
405.73	1732.58
405.94	1697.77
406.15	1716.20
406.35	1744.87
406.56	1718.25
406.77	1734.63
406.98	1714.15
407.18	1697.77
407.39	1728.49
407.60	1730.53
407.80	1683.43
408.01	1689.57
408.22	1703.91
408.43	1589.22
408.63	1755.11
408.84	1796.07
409.05	1748.97
409.25	1656.81
409.46	1644.52
409.67	1683.43
409.88	1642.47
410.08	1779.68
410.29	1685.48
410.50	1699.81
410.70	1759.21
410.91	1677.29
411.12	1777.64
411.32	1673.19
411.53	1689.57
411.74	1757.16
411.95	1814.50
412.15	1779.68
412.36	1736.68
412.57	1824.74
412.77	1771.49
412.98	1787.88
413.19	1742.82
413.39	1759.21
413.60	1683.43
413.81	1787.88
414.01	1648.61
414.22	1740.77
414.43	1767.40
414.63	1673.19
414.84	1765.35
415.05	1746.92
415.25	1609.70
415.46	1802.21
415.67	1697.77
415.87	1751.01
416.08	1687.53
416.29	1665.00
416.49	1796.07
416.70	1677.29
416.91	1710.05
417.11	1650.66
417.32	1708.01
417.53	1755.11
417.73	1763.30
417.94	1681.38
418.15	1824.74
418.35	1671.14
418.56	1740.77
418.77	1851.36
418.97	1726.44
419.18	1748.97
419.38	1599.46
419.59	1714.15
419.80	1853.41
420.00	1581.03
420.21	1779.68
420.42	1781.73
420.62	1796.07
420.83	1681.38
421.04	1708.01
421.24	1638.38
421.45	1708.01
421.65	1744.87
421.86	1667.05
422.07	1632.23
422.27	1769.44
422.48	1751.01
422.69	1693.67
422.89	1738.73
423.10	1681.38
423.30	1646.57
423.51	1714.15
423.72	1683.43
423.92	1753.06
424.13	1705.96
424.33	1751.01
424.54	1683.43
424.75	1734.63
424.95	1882.08
425.16	1748.97
425.36	1773.54
425.57	1738.73
425.78	1751.01
425.98	1763.30
426.19	1697.77
426.39	1722.34
426.60	1683.43
426.81	1726.44
427.01	1746.92
427.22	1662.95
427.42	1570.79
427.63	1646.57
427.83	1740.77
428.04	1796.07
428.25	1753.06
428.45	1798.12
428.66	1761.25
428.86	1746.92
429.07	1695.72
429.28	1669.09
429.48	1660.90
429.69	1718.25
429.89	1722.34
430.10	1621.99
430.30	1789.92
430.51	1763.30
430.71	1658.85
430.92	1738.73
431.13	1699.81
431.33	1773.54
431.54	1708.01
431.74	1785.83
431.95	1791.97
432.15	1658.85
432.36	1638.38
432.56	1898.47
432.77	1800.16
432.98	1837.03
433.18	1738.73
433.39	1699.81
433.59	1710.05
433.80	1826.79
434.00	1945.57
434.21	1753.06
434.41	1648.61
434.62	1865.70
434.82	1730.53
435.03	1726.44
435.23	1775.59
435.44	1681.38
435.64	1748.97
435.85	1685.48
436.06	1726.44
436.26	1763.30
436.47	1724.39
436.67	1705.96
436.88	1789.92
437.08	1697.77
437.29	1773.54
437.49	1695.72
437.70	1789.92
437.90	1671.14
438.11	1857.51
438.31	1834.98
438.52	1804.26
438.72	1759.21
438.93	1961.95
439.13	1794.02
439.34	1847.27
439.54	1742.82
439.75	1837.03
439.95	1843.17
440.16	1734.63
440.36	1759.21
440.57	1771.49
440.77	1734.63
440.98	1726.44
441.18	1785.83
441.39	1677.29
441.59	1632.23
441.80	1877.99
442.00	1734.63
442.21	1806.31
442.41	1718.25
442.62	1763.30
442.82	1675.24
443.02	1660.90
443.23	1691.62
443.43	1712.10
443.64	1796.07
443.84	1671.14
444.05	1759.21
444.25	1775.59
444.46	1679.33
444.66	1710.05
444.87	1804.26
445.07	1665.00
445.28	1759.21
445.48	1783.78
445.69	1814.50
445.89	1855.46
446.09	1732.58
446.30	2060.26
446.50	2611.16
446.71	3721.16
446.91	4288.45
447.12	4769.72
447.32	4892.60
447.53	4364.22
447.73	3889.09
447.93	3581.90
448.14	3274.70
448.34	3246.03
448.55	2891.73
448.75	2809.81
448.96	2688.98
449.16	2494.43
449.36	2349.02
449.57	2017.25
449.77	1929.19
449.98	1753.06
450.18	1761.25
450.39	1920.99
450.59	1746.92
450.79	1705.96
451.00	1683.43
451.20	1779.68
451.41	1699.81
451.61	1746.92
451.81	1742.82
452.02	1708.01
452.22	1757.16
452.43	1689.57
452.63	1710.05
452.84	1785.83
453.04	1726.44
453.24	1736.68
453.45	1732.58
453.65	1763.30
453.86	1771.49
454.06	1742.82
454.26	1779.68
454.47	1734.63
454.67	1757.16
454.87	1794.02
455.08	1726.44
455.28	1843.17
455.49	1796.07
455.69	1654.76
455.89	1841.12
456.10	1853.41
456.30	1724.39
456.51	1728.49
456.71	1802.21
456.91	1693.67
457.12	1826.79
457.32	1587.18
457.52	1718.25
457.73	1759.21
457.93	1828.84
458.14	1740.77
458.34	1722.34
458.54	1708.01
458.75	1703.91
458.95	1837.03
459.15	1755.11
459.36	1734.63
459.56	1701.86
459.76	1841.12
459.97	1722.34
460.17	1714.15
460.37	1820.64
460.58	1716.20
460.78	1796.07
460.99	1763.30
461.19	1730.53
461.39	1734.63
461.60	1804.26
461.80	1720.29
462.00	1746.92
462.21	1714.15
462.41	1734.63
462.61	1728.49
462.82	1552.36
463.02	1693.67
463.22	1675.24
463.43	1818.60
463.63	1732.58
463.83	1837.03
464.04	1755.11
464.24	1648.61
464.44	1718.25
464.64	1708.01
464.85	1804.26
465.05	1839.08
465.25	1773.54
465.46	1736.68
465.66	1705.96
465.86	1824.74
466.07	1724.39
466.27	1619.94
466.47	1732.58
466.68	1710.05
466.88	1796.07
467.08	1701.86
467.29	1773.54
467.49	1767.40
467.69	1673.19
467.89	1748.97
468.10	1714.15
468.30	1759.21
468.50	1789.92
468.71	1812.45
468.91	1703.91
469.11	1763.30
469.31	1748.97
469.52	1691.62
469.72	1757.16
469.92	1785.83
470.13	1708.01
470.33	1826.79
470.53	1857.51
470.73	2168.80
470.94	2289.63
471.14	2394.08
471.34	2553.82
471.54	2402.27
471.75	2254.81
471.95	2103.26
472.15	2099.17
472.36	2095.07
472.56	2090.98
472.76	2064.35
472.96	1959.91
473.17	1982.43
473.37	1920.99
473.57	1808.36
473.77	1746.92
473.98	1767.40
474.18	1710.05
474.38	1863.65
474.58	1736.68
474.79	1720.29
474.99	1775.59
475.19	1826.79
475.39	1665.00
475.60	1738.73
475.80	1724.39
476.00	1744.87
476.20	1757.16
476.41	1769.44
476.61	1843.17
476.81	1785.83
477.01	1652.71
477.21	1808.36
477.42	1806.31
477.62	1687.53
477.82	1824.74
478.02	1648.61
478.23	1701.86
478.43	1708.01
478.63	1658.85
478.83	1779.68
479.03	1619.94
479.24	1918.95
479.44	1751.01
479.64	1693.67
479.84	1595.37
480.04	1722.34
480.25	1779.68
480.45	1689.57
480.65	1673.19
480.85	1837.03
481.06	1728.49
481.26	1703.91
481.46	1746.92
481.66	1718.25
481.86	1701.86
482.06	1806.31
482.27	1697.77
482.47	1734.63
482.67	1703.91
482.87	1665.00
483.07	1826.79
483.28	1689.57
483.48	1574.89
483.68	1726.44
483.88	1726.44
484.08	1632.23
484.29	1636.33
484.49	1802.21
484.69	1603.56
484.89	1847.27
485.09	1820.64
485.29	1705.96
485.50	1722.34
485.70	1708.01
485.90	1769.44
486.10	1773.54
486.30	1751.01
486.50	1783.78
486.71	1787.88
486.91	1781.73
487.11	1794.02
487.31	1669.09
487.51	1767.40
487.71	1771.49
487.91	1718.25
488.12	1701.86
488.32	1656.81
488.52	1632.23
488.72	1658.85
488.92	1710.05
489.12	1810.40
489.32	1740.77
489.53	1769.44
489.73	1705.96
489.93	1820.64
490.13	1654.76
490.33	1583.08
490.53	1701.86
490.73	1822.69
490.94	1656.81
491.14	1800.16
491.34	1789.92
491.54	2103.26
491.74	2519.00
491.94	2869.20
492.14	2963.41
492.34	2959.31
492.54	2805.72
492.75	2566.10
492.95	2394.08
493.15	2338.78
493.35	2269.15
493.55	2150.37
493.75	2101.22
493.95	2146.27
494.15	2045.92
494.35	1890.28
494.56	1900.52
494.76	1820.64
494.96	1837.03
495.16	1730.53
495.36	1779.68
495.56	1759.21
495.76	1763.30
495.96	1691.62
496.16	1630.18
496.36	1888.23
496.56	1703.91
496.77	1779.68
496.97	1755.11
497.17	1798.12
497.37	1695.72
497.57	1818.60
497.77	1683.43
497.97	1646.57
498.17	1738.73
498.37	1669.09
498.57	1769.44
498.77	1748.97
498.97	1712.10
499.17	1804.26
499.38	1689.57
499.58	1783.78
499.78	1826.79
499.98	1847.27
500.18	1740.77
500.38	1665.00
500.58	1877.99
500.78	2502.62
500.98	4407.23
501.18	5826.47
501.38	6778.78
501.58	7114.64
501.78	6653.85
501.98	5535.66
502.18	4972.47
502.38	4319.17
502.58	4216.77
502.78	3702.73
502.98	3592.14
503.18	3461.07
503.38	3098.58
503.59	2799.57
503.79	2697.17
503.99	2494.43
504.19	2320.35
504.39	2209.76
504.59	2189.28
504.79	2199.52
504.99	2086.88
505.19	1851.36
505.39	1906.66
505.59	1994.72
505.79	1927.14
505.99	1845.22
506.19	1865.70
506.39	1869.80
506.59	1755.11
506.79	1824.74
506.99	1912.80
507.19	1763.30
507.39	1769.44
507.59	1656.81
507.79	1642.47
507.99	1730.53
508.19	1763.30
508.39	1697.77
508.59	1712.10
508.79	1812.45
508.99	1751.01
509.19	1755.11
509.39	1755.11
509.59	1658.85
509.79	1783.78
509.99	1726.44
510.19	1746.92
510.39	1732.58
510.59	1751.01
510.79	1691.62
510.99	1730.53
511.19	1771.49
511.39	1816.55
511.59	1705.96
511.79	1744.87
511.99	1669.09
512.19	1845.22
512.38	1705.96
512.58	1732.58
512.78	1740.77
512.98	1806.31
513.18	1832.93
513.38	1634.28
513.58	1832.93
513.78	1736.68
513.98	1763.30
514.18	1712.10
514.38	1730.53
514.58	1781.73
514.78	1591.27
514.98	1669.09
515.18	1744.87
515.38	1669.09
515.58	1877.99
515.78	1728.49
515.98	1728.49
516.18	1769.44
516.38	1730.53
516.57	1718.25
516.77	1742.82
516.97	1824.74
517.17	1732.58
517.37	1730.53
517.57	1769.44
517.77	1753.06
517.97	1789.92
518.17	1705.96
518.37	1652.71
518.57	1699.81
518.77	1759.21
518.97	1681.38
519.16	1769.44
519.36	1777.64
519.56	1712.10
519.76	1781.73
519.96	1738.73
520.16	1771.49
520.36	1673.19
520.56	1871.84
520.76	1726.44
520.96	1722.34
521.16	1794.02
521.35	1742.82
521.55	1787.88
521.75	1740.77
521.95	1685.48
522.15	1683.43
522.35	1632.23
522.55	1656.81
522.75	1710.05
522.95	1751.01
523.14	1714.15
523.34	1757.16
523.54	1652.71
523.74	1800.16
523.94	1845.22
524.14	1595.37
524.34	1796.07
524.54	1818.60
524.73	1740.77
524.93	1796.07
525.13	1759.21
525.33	1699.81
525.53	1904.61
525.73	1716.20
525.93	1730.53
526.13	1714.15
526.32	1742.82
526.52	1722.34
526.72	1705.96
526.92	1687.53
527.12	1681.38
527.32	1669.09
527.52	1761.25
527.71	1773.54
527.91	1740.77
528.11	1755.11
528.31	1746.92
528.51	1746.92
528.71	1732.58
528.90	1757.16
529.10	1767.40
529.30	1806.31
529.50	1611.75
529.70	1718.25
529.90	1771.49
530.09	1687.53
530.29	1763.30
530.49	1683.43
530.69	1886.18
530.89	1632.23
531.09	1841.12
531.28	1806.31
531.48	1820.64
531.68	1742.82
531.88	1746.92
532.08	1744.87
532.28	1722.34
532.47	1732.58
532.67	1753.06
532.87	1828.84
533.07	1703.91
533.27	1730.53
533.46	1740.77
533.66	1718.25
533.86	1708.01
534.06	1740.77
534.26	1787.88
534.45	1759.21
534.65	1816.55
534.85	1775.59
535.05	1613.80
535.25	1783.78
535.44	1603.56
535.64	1791.97
535.84	1740.77
536.04	1767.40
536.24	1695.72
536.43	1714.15
536.63	1732.58
536.83	1708.01
537.03	1728.49
537.22	1654.76
537.42	1583.08
537.62	1724.39
537.82	1662.95
538.02	1822.69
538.21	1837.03
538.41	1894.37
538.61	1787.88
538.81	1730.53
539.00	1787.88
539.20	1677.29
539.40	1730.53
539.60	1765.35
539.79	1759.21
539.99	1710.05
540.19	1689.57
540.39	1714.15
540.58	1808.36
540.78	1767.40
540.98	1748.97
541.18	1857.51
541.37	1861.60
541.57	1757.16
541.77	1759.21
541.97	1652.71
542.16	1718.25
542.36	1714.15
542.56	1863.65
542.76	1826.79
542.95	1773.54
543.15	1736.68
543.35	1738.73
543.54	1810.40
543.74	1658.85
543.94	1810.40
544.14	1759.21
544.33	1826.79
544.53	1732.58
544.73	1689.57
544.93	1767.40
545.12	1613.80
545.32	1753.06
545.52	1671.14
545.71	1708.01
545.91	1720.29
546.11	1691.62
546.30	1742.82
546.50	1794.02
546.70	1755.11
546.90	1806.31
547.09	1667.05
547.29	1783.78
547.49	1777.64
547.68	1755.11
547.88	1718.25
548.08	1765.35
548.27	2154.46
548.47	1736.68
548.67	1720.29
548.87	1703.91
549.06	1759.21
549.26	1785.83
549.46	1751.01
549.65	1746.92
549.85	1775.59
550.05	1783.78
550.24	1722.34
550.44	1757.16
550.64	1775.59
550.83	1755.11
551.03	1902.56
551.23	1761.25
551.42	1730.53
551.62	1746.92
551.82	1765.35
552.01	1773.54
552.21	1816.55
552.41	1767.40
552.60	1849.32
552.80	1722.34
553.00	1683.43
553.19	1695.72
553.39	1875.94
553.59	1724.39
553.78	1761.25
553.98	1763.30
554.17	1710.05
554.37	1783.78
554.57	1785.83
554.76	1675.24
554.96	1691.62
555.16	1771.49
555.35	1789.92
555.55	1757.16
555.75	1785.83
555.94	1877.99
556.14	1628.14
556.33	1812.45
556.53	1693.67
556.73	1705.96
556.92	1810.40
557.12	1837.03
557.32	1859.56
557.51	1814.50
557.71	1742.82
557.90	1804.26
558.10	1871.84
558.30	1738.73
558.49	1722.34
558.69	1722.34
558.88	1804.26
559.08	1771.49
559.28	1699.81
559.47	1787.88
559.67	1736.68
559.86	1777.64
560.06	1738.73
560.26	1701.86
560.45	1798.12
560.65	1685.48
560.84	1859.56
561.04	1724.39
561.24	1816.55
561.43	1695.72
561.63	1826.79
561.82	1759.21
562.02	1832.93
562.22	1722.34
562.41	1738.73
562.61	1748.97
562.80	1665.00
563.00	1828.84
563.19	1775.59
563.39	1769.44
563.59	1759.21
563.78	1636.33
563.98	1681.38
564.17	1732.58
564.37	1687.53
564.56	1697.77
564.76	1695.72
564.96	1775.59
565.15	1783.78
565.35	1859.56
565.54	1740.77
565.74	1888.23
565.93	1787.88
566.13	1724.39
566.32	1791.97
566.52	1828.84
566.71	1779.68
566.91	1779.68
567.11	1785.83
567.30	1806.31
567.50	1822.69
567.69	1724.39
567.89	1656.81
568.08	1710.05
568.28	1738.73
568.47	1683.43
568.67	1794.02
568.86	1728.49
569.06	1843.17
569.25	1773.54
569.45	1722.34
569.64	1722.34
569.84	1785.83
570.04	1761.25
570.23	1681.38
570.43	1759.21
570.62	1744.87
570.82	1855.46
571.01	1671.14
571.21	1667.05
571.40	1646.57
571.60	1841.12
571.79	1814.50
571.99	1789.92
572.18	1669.09
572.38	1796.07
572.57	1773.54
572.77	1734.63
572.96	1877.99
573.16	1705.96
573.35	1681.38
573.55	1785.83
573.74	1824.74
573.94	1636.33
574.13	1773.54
574.33	1796.07
574.52	1755.11
574.71	1794.02
574.91	1699.81
575.10	1746.92
575.30	1779.68
575.49	1710.05
575.69	1751.01
575.88	1746.92
576.08	1632.23
576.27	1753.06
576.47	1748.97
576.66	1902.56
576.86	1843.17
577.05	1787.88
577.25	1734.63
577.44	1839.08
577.64	1673.19
577.83	1783.78
578.02	1718.25
578.22	1839.08
578.41	1832.93
578.61	1732.58
578.80	1791.97
579.00	1781.73
579.19	1722.34
579.39	1791.97
579.58	1771.49
579.77	1662.95
579.97	1810.40
580.16	1826.79
580.36	1834.98
580.55	1816.55
580.75	1822.69
580.94	1771.49
581.13	1839.08
581.33	1871.84
581.52	1761.25
581.72	1910.75
581.91	1847.27
582.11	1746.92
582.30	1837.03
582.49	1697.77
582.69	1855.46
582.88	1767.40
583.08	1714.15
583.27	1755.11
583.47	1755.11
583.66	1753.06
583.85	1708.01
584.05	1697.77
584.24	1761.25
584.44	1808.36
584.63	1798.12
584.82	1816.55
585.02	1888.23
585.21	1933.28
585.41	1882.08
585.60	1812.45
585.79	1869.80
585.99	1904.61
586.18	1855.46
586.37	2195.42
586.57	3424.20
586.76	9734.00
586.96	24104.59
587.15	33877.50
587.34	40050.08
587.54	41887.10
587.73	36527.57
587.93	26242.67
588.12	21190.33
588.31	18114.28
588.51	16381.70
588.70	15030.04
588.89	14030.63
589.09	12617.54
589.28	10858.33
589.47	9490.29
589.67	8001.41
589.86	6508.44
590.06	4988.85
590.25	3809.22
590.44	3028.95
590.64	2547.67
590.83	2328.54
591.02	2050.02
591.22	1984.48
591.41	1931.23
591.60	1841.12
591.80	1974.24
591.99	1761.25
592.18	1771.49
592.38	1890.28
592.57	1734.63
592.76	1701.86
592.96	1871.84
593.15	1695.72
593.34	1857.51
593.54	1753.06
593.73	1746.92
593.92	1779.68
594.12	1740.77
594.31	1804.26
594.50	1773.54
594.70	1736.68
594.89	2021.35
595.08	1665.00
595.28	1779.68
595.47	1920.99
595.66	1814.50
595.86	1658.85
596.05	1761.25
596.24	1699.81
596.43	1796.07
596.63	1800.16
596.82	1773.54
597.01	1755.11
597.21	1861.60
597.40	1802.21
597.59	1695.72
597.79	1753.06
597.98	1845.22
598.17	1746.92
598.36	1708.01
598.56	1763.30
598.75	1726.44
598.94	1767.40
599.14	1744.87
599.33	1730.53
599.52	1826.79
599.71	1697.77
599.91	1689.57
600.10	1791.97
600.29	1720.29
600.48	1843.17
600.68	1769.44
600.87	1767.40
601.06	1806.31
601.26	1695.72
601.45	1710.05
601.64	1787.88
601.83	1791.97
602.03	1699.81
602.22	1689.57
602.41	1798.12
602.60	1857.51
602.80	1783.78
602.99	1732.58
603.18	1730.53
603.37	1761.25
603.57	1804.26
603.76	1746.92
603.95	1791.97
604.14	1689.57
604.34	1681.38
604.53	1736.68
604.72	1761.25
604.91	1783.78
605.10	1730.53
605.30	1730.53
605.49	1822.69
605.68	1791.97
605.87	1783.78
606.07	1703.91
606.26	1695.72
606.45	1812.45
606.64	1695.72
606.84	1732.58
607.03	1703.91
607.22	1681.38
607.41	1728.49
607.60	1810.40
607.80	1791.97
607.99	1718.25
608.18	1718.25
608.37	1753.06
608.56	1708.01
608.76	1777.64
608.95	1859.56
609.14	1798.12
609.33	1726.44
609.52	1746.92
609.72	1708.01
609.91	1822.69
610.10	1716.20
610.29	1861.60
610.48	1771.49
610.68	1759.21
610.87	1755.11
611.06	1779.68
611.25	1683.43
611.44	1779.68
611.63	1638.38
611.83	1834.98
612.02	1626.09
612.21	1802.21
612.40	1591.27
612.59	1732.58
612.79	1691.62
612.98	1662.95
613.17	1804.26
613.36	1757.16
613.55	1898.47
613.74	1708.01
613.93	1665.00
614.13	1787.88
614.32	1732.58
614.51	1779.68
614.70	1693.67
614.89	1669.09
615.08	1832.93
615.28	2117.60
615.47	1644.52
615.66	1710.05
615.85	1732.58
616.04	1830.88
616.23	1724.39
616.42	1722.34
616.62	1671.14
616.81	1730.53
617.00	1662.95
617.19	1824.74
617.38	1671.14
617.57	1753.06
617.76	1744.87
617.95	1748.97
618.15	1748.97
618.34	1744.87
618.53	1693.67
618.72	1820.64
618.91	1830.88
619.10	1847.27
619.29	1744.87
619.48	1630.18
619.68	1619.94
619.87	1734.63
620.06	1607.66
620.25	1751.01
620.44	1771.49
620.63	1705.96
620.82	1658.85
621.01	1791.97
621.20	1716.20
621.39	1734.63
621.59	1759.21
621.78	1777.64
621.97	1751.01
622.16	1779.68
622.35	1697.77
622.54	1746.92
622.73	1785.83
622.92	1630.18
623.11	1759.21
623.30	1671.14
623.49	1685.48
623.68	1617.90
623.88	1812.45
624.07	1673.19
624.26	1726.44
624.45	1798.12
624.64	1640.42
624.83	1787.88
625.02	1806.31
625.21	1728.49
625.40	1703.91
625.59	1841.12
625.78	1802.21
625.97	1767.40
626.16	1677.29
626.35	1746.92
626.54	1587.18
626.74	1771.49
626.93	1773.54
627.12	1736.68
627.31	1834.98
627.50	1685.48
627.69	1763.30
627.88	1626.09
628.07	1742.82
628.26	1671.14
628.45	1667.05
628.64	1650.66
628.83	1665.00
629.02	1652.71
629.21	1783.78
629.40	1751.01
629.59	1712.10
629.78	1665.00
629.97	1755.11
630.16	1734.63
630.35	1685.48
630.54	1740.77
630.73	1697.77
630.92	1740.77
631.11	1687.53
631.30	1679.33
631.49	1814.50
631.68	1679.33
631.87	1791.97
632.06	1630.18
632.25	1892.32
632.44	1765.35
632.63	1738.73
632.82	1710.05
633.01	1730.53
633.20	1705.96
633.39	1630.18
633.58	1615.85
633.77	1742.82
633.96	1763.30
634.15	1751.01
634.34	1806.31
634.53	1724.39
634.72	1710.05
634.91	1660.90
635.10	1769.44
635.29	1796.07
635.48	1724.39
635.67	1654.76
635.86	1724.39
636.05	1789.92
636.24	1769.44
636.43	1720.29
636.62	1744.87
636.81	1611.75
637.00	1699.81
637.19	1740.77
637.38	1681.38
637.57	1675.24
637.76	1732.58
637.95	1763.30
638.14	1689.57
638.33	1632.23
638.52	1755.11
638.71	1681.38
638.89	1697.77
639.08	1824.74
639.27	1740.77
639.46	1732.58
639.65	1779.68
639.84	1804.26
640.03	1755.11
640.22	1701.86
640.41	1847.27
640.60	1716.20
640.79	1734.63
640.98	1634.28
641.17	1781.73
641.36	1742.82
641.55	1773.54
641.74	1640.42
641.92	1646.57
642.11	1689.57
642.30	1716.20
642.49	1728.49
642.68	1624.04
642.87	1685.48
643.06	1738.73
643.25	1710.05
643.44	1771.49
643.63	1714.15
643.82	1759.21
644.00	1728.49
644.19	1751.01
644.38	1662.95
644.57	1761.25
644.76	1679.33
644.95	1757.16
645.14	1761.25
645.33	1738.73
645.52	1648.61
645.71	1732.58
645.89	1742.82
646.08	1697.77
646.27	1703.91
646.46	1839.08
646.65	1656.81
646.84	1714.15
647.03	1687.53
647.22	1771.49
647.40	1763.30
647.59	1677.29
647.78	1599.46
647.97	1701.86
648.16	1648.61
648.35	1818.60
648.54	1791.97
648.73	1662.95
648.91	1738.73
649.10	1714.15
649.29	1693.67
649.48	1820.64
649.67	1724.39
649.86	1785.83
650.05	1669.09
650.23	1812.45
650.42	1658.85
650.61	1695.72
650.80	1738.73
650.99	1796.07
651.18	1781.73
651.36	1734.63
651.55	1673.19
651.74	1759.21
651.93	1658.85
652.12	1730.53
652.31	1757.16
652.49	1675.24
652.68	1734.63
652.87	1855.46
653.06	1751.01
653.25	1822.69
653.44	1679.33
653.62	1824.74
653.81	1671.14
654.00	1759.21
654.19	1767.40
654.38	1925.09
654.56	1720.29
654.75	1691.62
654.94	1720.29
655.13	1716.20
655.32	1757.16
655.51	1808.36
655.69	1714.15
655.88	1755.11
656.07	1671.14
656.26	1736.68
656.45	1679.33
656.63	1730.53
656.82	1785.83
657.01	1753.06
657.20	1726.44
657.38	1843.17
657.57	1691.62
657.76	1613.80
657.95	1759.21
658.14	1603.56
658.32	1724.39
658.51	1667.05
658.70	1732.58
658.89	1794.02
659.08	1726.44
659.26	1763.30
659.45	1656.81
659.64	1701.86
659.83	1728.49
660.01	1955.81
660.20	1720.29
660.39	1877.99
660.58	1595.37
660.76	1710.05
660.95	1611.75
661.14	1783.78
661.33	1652.71
661.51	1679.33
661.70	1673.19
661.89	1732.58
662.08	1798.12
662.26	1665.00
662.45	1611.75
662.64	1884.13
662.83	1720.29
663.01	1601.51
663.20	1716.20
663.39	1767.40
663.58	1699.81
663.76	1673.19
663.95	1777.64
664.14	1644.52
664.32	1787.88
664.51	1634.28
664.70	1660.90
664.89	1761.25
665.07	1703.91
665.26	1712.10
665.45	1683.43
665.64	1791.97
665.82	1638.38
666.01	1800.16
666.20	1640.42
666.38	1779.68
666.57	1773.54
666.76	2209.76
666.95	4493.24
667.13	10348.39
667.32	15267.61
667.51	17833.71
667.69	19142.36
667.88	17647.35
668.07	12525.38
668.25	9457.52
668.44	8005.51
668.63	7448.46
668.81	6756.25
669.00	6320.03
669.19	5736.36
669.38	5148.59
669.56	4601.79
669.75	3973.06
669.94	3446.73
670.12	2924.50
670.31	2619.35
670.50	2285.53
670.68	2123.74
670.87	2054.11
671.06	1820.64
671.24	1740.77
671.43	1863.65
671.62	1722.34
671.80	1732.58
671.99	1789.92
672.18	1722.34
672.36	1783.78
672.55	1783.78
672.74	1697.77
672.92	1685.48
673.11	1769.44
673.29	1693.67
673.48	1751.01
673.67	1728.49
673.85	1804.26
674.04	1716.20
674.23	1660.90
674.41	1812.45
674.60	1691.62
674.79	1648.61
674.97	1708.01
675.16	1826.79
675.34	1765.35
675.53	1669.09
675.72	1738.73
675.90	1851.36
676.09	1611.75
676.28	1734.63
676.46	1710.05
676.65	1773.54
676.83	1650.66
677.02	1675.24
677.21	1701.86
677.39	1740.77
677.58	1681.38
677.77	1753.06
677.95	1695.72
678.14	1697.77
678.32	1681.38
678.51	1724.39
678.70	1736.68
678.88	1716.20
679.07	1771.49
679.25	1804.26
679.44	1746.92
679.63	1642.47
679.81	1726.44
680.00	1740.77
680.18	1685.48
680.37	1751.01
680.55	1736.68
680.74	1626.09
680.93	1681.38
681.11	1648.61
681.30	1775.59
681.48	1806.31
681.67	1693.67
681.85	1736.68
682.04	1624.04
682.23	1798.12
682.41	1705.96
682.60	1695.72
682.78	1734.63
682.97	1564.65
683.15	1748.97
683.34	1726.44
683.53	1775.59
683.71	1710.05
683.90	1808.36
684.08	1779.68
684.27	1652.71
684.45	1769.44
684.64	1775.59
684.82	1759.21
685.01	1738.73
685.19	1732.58
685.38	1763.30
685.57	1724.39
685.75	1665.00
685.94	1599.46
686.12	1560.55
686.31	1683.43
686.49	1886.18
686.68	1574.89
686.86	1779.68
687.05	1656.81
687.23	1798.12
687.42	1710.05
687.60	1679.33
687.79	1640.42
687.97	1845.22
688.16	1759.21
688.34	1804.26
688.53	1724.39
688.71	1695.72
688.90	1800.16
689.08	1669.09
689.27	1638.38
689.45	1675.24
689.64	1763.30
689.82	1796.07
690.01	1746.92
690.19	1755.11
690.38	1751.01
690.56	1757.16
690.75	1646.57
690.93	1697.77
691.12	1693.67
691.30	1759.21
691.49	1640.42
691.67	1728.49
691.86	1886.18
692.04	1667.05
692.23	1761.25
692.41	1759.21
692.60	1916.90
692.78	1740.77
692.97	1697.77
693.15	1746.92
693.34	1810.40
693.52	1798.12
693.71	1595.37
693.89	1634.28
694.08	1624.04
694.26	1769.44
694.44	1689.57
694.63	1822.69
694.81	1632.23
695.00	1652.71
695.18	1755.11
695.37	1785.83
695.55	1777.64
695.74	1699.81
695.92	1730.53
696.10	1773.54
696.29	1665.00
696.47	1730.53
696.66	1587.18
696.84	1673.19
697.03	1740.77
697.21	1873.89
697.40	2312.16
697.58	1738.73
697.76	1720.29
697.95	1667.05
698.13	1675.24
698.32	1697.77
698.50	1738.73
698.68	1722.34
698.87	1732.58
699.05	1839.08
699.24	1720.29
699.42	1673.19
699.61	1728.49
699.79	1730.53
699.97	1689.57
700.16	1685.48
700.34	1644.52
700.53	1642.47
700.71	1849.32
700.89	1794.02
701.08	1738.73
701.26	1705.96
701.45	2068.45
701.63	1712.10
701.81	1755.11
702.00	1699.81
702.18	1644.52
702.37	1599.46
702.55	1746.92
702.73	1699.81
702.92	1689.57
703.10	1773.54
703.28	1730.53
703.47	1648.61
703.65	1724.39
703.84	1767.40
704.02	1681.38
704.20	1761.25
704.39	1699.81
704.57	1644.52
704.75	1771.49
704.94	1800.16
705.12	1755.11
705.30	1759.21
705.49	2234.33
705.67	4343.74
705.86	9133.94
706.04	12785.47
706.22	14534.43
706.41	15154.97
706.59	13567.79
706.77	9609.07
706.96	7432.08
707.14	6647.71
707.32	6045.60
707.51	5470.12
707.69	4825.01
707.87	4237.25
708.06	3456.97
708.24	3014.61
708.42	2484.19
708.61	2191.33
708.79	1923.04
708.97	1871.84
709.16	1839.08
709.34	1787.88
709.52	1626.09
709.71	1644.52
709.89	1757.16
710.07	1646.57
710.26	1671.14
710.44	1701.86
710.62	1755.11
710.80	1708.01
710.99	1724.39
711.17	1802.21
711.35	1718.25
711.54	1701.86
711.72	1839.08
711.90	1773.54
712.09	1697.77
712.27	1607.66
712.45	1681.38
712.63	1662.95
712.82	1656.81
713.00	1757.16
713.18	1767.40
713.37	1708.01
713.55	1767.40
713.73	1699.81
713.91	1769.44
714.10	1671.14
714.28	1710.05
714.46	1794.02
714.65	1685.48
714.83	1724.39
715.01	1697.77
715.19	1685.48
715.38	1646.57
715.56	1722.34
715.74	1701.86
715.92	1648.61
716.11	1767.40
716.29	1593.32
716.47	1726.44
716.65	1677.29
716.84	1583.08
717.02	1781.73
717.20	1583.08
717.38	1712.10
717.57	1757.16
717.75	1724.39
717.93	1710.05
718.11	1759.21
718.30	1665.00
718.48	1744.87
718.66	1703.91
718.84	1714.15
719.03	1669.09
719.21	1691.62
719.39	1697.77
719.57	1720.29
719.75	1810.40
719.94	1710.05
720.12	1656.81
720.30	1759.21
720.48	1806.31
720.67	1662.95
720.85	1681.38
721.03	1705.96
721.21	1710.05
721.39	1843.17
721.58	1759.21
721.76	1675.24
721.94	1730.53
722.12	1751.01
722.30	1818.60
722.49	1730.53
722.67	1748.97
722.85	1783.78
723.03	1673.19
723.21	1712.10
723.40	1720.29
723.58	1791.97
723.76	1691.62
723.94	1787.88
724.12	1619.94
724.30	1759.21
724.49	1708.01
724.67	1675.24
724.85	1744.87
725.03	1626.09
725.21	1771.49
725.40	1826.79
725.58	1673.19
725.76	1681.38
725.94	1714.15
726.12	1617.90
726.30	1748.97
726.49	1763.30
726.67	1724.39
726.85	1744.87
727.03	1787.88
727.21	2189.28
727.39	2813.91
727.57	3774.41
727.76	4169.66
727.94	4474.81
728.12	4493.24
728.30	3712.97
728.48	2979.79
728.66	2783.19
728.84	2596.82
729.03	2299.87
729.21	2154.46
729.39	2015.20
729.57	1845.22
729.75	1810.40
729.93	1884.13
730.11	1751.01
730.30	1705.96
730.48	1660.90
730.66	1802.21
730.84	1789.92
731.02	1726.44
731.20	1697.77
731.38	1658.85
731.56	1691.62
731.74	1640.42
731.93	1718.25
732.11	1748.97
732.29	1656.81
732.47	1744.87
732.65	1751.01
732.83	1740.77
733.01	1679.33
733.19	1681.38
733.37	1785.83
733.56	1730.53
733.74	1722.34
733.92	1759.21
734.10	1646.57
734.28	1779.68
734.46	1576.94
734.64	1650.66
734.82	1732.58
735.00	1624.04
735.18	1703.91
735.36	1634.28
735.54	1708.01
735.73	1734.63
735.91	1669.09
736.09	1748.97
736.27	1695.72
736.45	1740.77
736.63	1662.95
736.81	1665.00
736.99	1753.06
737.17	1775.59
737.35	1572.84
737.53	1703.91
737.71	1759.21
737.89	1794.02
738.07	1662.95
738.25	1722.34
738.43	1640.42
738.61	1710.05
738.80	1646.57
738.98	1722.34
739.16	1714.15
739.34	1740.77
739.52	1742.82
739.70	1769.44
739.88	1681.38
740.06	1781.73
740.24	1535.98
740.42	1794.02
740.60	1648.61
740.78	1662.95
740.96	1648.61
741.14	1648.61
741.32	1660.90
741.50	1673.19
741.68	1773.54
741.86	1787.88
742.04	1667.05
742.22	1566.70
742.40	1697.77
742.58	1734.63
742.76	1665.00
742.94	1763.30
743.12	1648.61
743.30	1691.62
743.48	1763.30
743.66	1693.67
743.84	1681.38
744.02	1826.79
744.20	1681.38
744.38	1667.05
744.56	1712.10
744.74	1841.12
744.92	1718.25
745.10	1767.40
745.28	1769.44
745.46	1783.78
745.64	1759.21
745.82	1732.58
746.00	1681.38
746.18	1753.06
746.36	1626.09
746.54	1755.11
746.72	1691.62
746.90	1650.66
747.08	1791.97
747.26	1699.81
747.44	1740.77
747.62	1740.77
747.80	1746.92
747.98	1755.11
748.15	1685.48
748.33	1798.12
748.51	1722.34
748.69	1783.78
748.87	1601.51
749.05	1740.77
749.23	1685.48
749.41	1695.72
749.59	1667.05
749.77	1781.73
749.95	1708.01
750.13	1683.43
750.31	1810.40
750.49	1697.77
750.67	1769.44
750.85	1736.68
751.03	1748.97
751.20	1824.74
751.38	1673.19
751.56	1662.95
751.74	1757.16
751.92	1683.43
752.10	1642.47
752.28	1660.90
752.46	1697.77
752.64	1638.38
752.82	1710.05
753.00	1785.83
753.18	1665.00
753.35	1736.68
753.53	1740.77
753.71	1671.14
753.89	1771.49
754.07	1734.63
754.25	1802.21
754.43	1736.68
754.61	1607.66
754.79	1781.73
754.97	1710.05
755.14	1738.73
755.32	1628.14
755.50	1714.15
755.68	1691.62
755.86	1685.48
756.04	1773.54
756.22	1572.84
756.40	1617.90
756.57	1849.32
756.75	1687.53
756.93	1728.49
757.11	1734.63
757.29	1597.42
757.47	1685.48
757.65	1603.56
757.82	1566.70
758.00	1675.24
758.18	1738.73
758.36	1650.66
758.54	1777.64
758.72	1591.27
758.90	1785.83
759.07	1746.92
759.25	1710.05
759.43	1681.38
759.61	1642.47
759.79	2144.22
759.97	1804.26
760.15	1718.25
760.32	1677.29
760.50	1775.59
760.68	1794.02
760.86	1570.79
761.04	1732.58
761.22	1693.67
761.39	1710.05
761.57	1699.81
761.75	1736.68
761.93	1652.71
762.11	1638.38
762.28	1716.20
762.46	1599.46
762.64	1787.88
762.82	1718.25
763.00	1652.71
763.18	1763.30
763.35	1615.85
763.53	1685.48
763.71	1701.86
763.89	1769.44
764.07	1716.20
764.24	1755.11
764.42	1816.55
764.60	1599.46
764.78	1673.19
764.96	1812.45
765.13	1771.49
765.31	1697.77
765.49	1740.77
765.67	1609.70
765.84	1552.36
766.02	1615.85
766.20	1617.90
766.38	1779.68
766.56	1746.92
766.73	1740.77
766.91	1673.19
767.09	1675.24
767.27	1755.11
767.44	1765.35
767.62	1644.52
767.80	1767.40
767.98	1757.16
768.15	1720.29
768.33	1771.49
768.51	1755.11
768.69	1724.39
768.87	1744.87
769.04	1718.25
769.22	1816.55
769.40	1746.92
769.58	1822.69
769.75	1677.29
769.93	1744.87
770.11	1734.63
770.28	1712.10
770.46	1703.91
770.64	1789.92
770.82	1693.67
770.99	1665.00
771.17	1679.33
771.35	1740.77
771.53	1632.23
771.70	1685.48
771.88	1744.87
772.06	1685.48
772.23	1650.66
772.41	1710.05
772.59	1638.38
772.77	1693.67
772.94	1732.58
773.12	1804.26
773.30	1689.57
773.47	1783.78
773.65	1640.42
773.83	1791.97
774.01	1759.21
774.18	1703.91
774.36	1679.33
774.54	1658.85
774.71	1800.16
774.89	1699.81
775.07	1712.10
775.24	1675.24
775.42	1679.33
775.60	1794.02
775.78	1638.38
775.95	1624.04
776.13	1609.70
776.31	1599.46
776.48	1669.09
776.66	1781.73
776.84	1681.38
777.01	1638.38
777.19	1669.09
777.37	1609.70
777.54	1800.16
777.72	1857.51
777.90	1775.59
778.07	1685.48
778.25	1845.22
778.43	1822.69
778.60	1751.01
778.78	1845.22
778.96	1794.02
779.13	1697.77
779.31	1751.01
779.49	1650.66
779.66	1714.15
779.84	1769.44
780.01	1699.81
780.19	1632.23
780.37	1740.77
780.54	1800.16
780.72	1654.76
780.90	1746.92
781.07	1667.05
781.25	1669.09
781.43	1687.53
781.60	1667.05
781.78	1751.01
781.95	1714.15
782.13	1597.42
782.31	1748.97
782.48	1626.09
782.66	1755.11
782.83	1822.69
783.01	1714.15
783.19	1761.25
783.36	1726.44
783.54	1574.89
783.72	1740.77
783.89	1720.29
784.07	1714.15
784.24	1751.01
784.42	1724.39
784.60	1767.40
784.77	1712.10
784.95	1626.09
785.12	1615.85
785.30	1708.01
785.47	1767.40
785.65	1710.05
785.83	1728.49
786.00	1673.19
786.18	1734.63
786.35	1546.22
786.53	1589.22
786.71	1710.05
786.88	1744.87
787.06	1740.77
787.23	1660.90
787.41	1599.46
787.58	1738.73
787.76	1726.44
787.94	1685.48
788.11	1695.72
788.29	1626.09
788.46	1701.86
788.64	1626.09
788.81	1671.14
788.99	1669.09
789.16	1654.76
789.34	1695.72
789.52	1757.16
789.69	1671.14
789.87	1646.57
790.04	1720.29
790.22	1712.10
790.39	1828.84
790.57	1689.57
790.74	1669.09
790.92	1748.97
791.09	1656.81
791.27	1685.48
791.44	1755.11
791.62	1679.33
791.79	1718.25
791.97	1718.25
792.15	1894.37
792.32	1763.30
792.50	1736.68
792.67	1794.02
792.85	1771.49
793.02	1806.31
793.20	1665.00
793.37	1591.27
793.55	1665.00
793.72	1636.33
793.90	1771.49
794.07	1681.38
794.25	1695.72
794.42	1630.18
794.60	1710.05
794.77	1771.49
794.95	1771.49
795.12	1855.46
795.30	1685.48
795.47	1585.13
795.65	1839.08
795.82	1693.67
796.00	1683.43
796.17	1677.29
796.34	1714.15
796.52	1703.91
796.69	1677.29
796.87	1746.92
797.04	1796.07
797.22	1777.64
797.39	1734.63
797.57	1775.59
797.74	1789.92
797.92	1751.01
798.09	1640.42
798.27	1710.05
798.44	1679.33
798.62	1617.90
798.79	1701.86
798.96	1791.97
799.14	1697.77
799.31	1828.84
799.49	1714.15
799.66	1687.53
799.84	1685.48
800.01	1687.53
800.19	1755.11
800.36	1595.37
800.53	1701.86
800.71	1716.20
800.88	1791.97
801.06	1722.34
801.23	1693.67
801.41	1665.00
801.58	1632.23
801.75	1669.09
801.93	1775.59
802.10	1710.05
802.28	1746.92
802.45	1771.49
802.63	1757.16
802.80	1855.46
802.97	1718.25
803.15	1740.77
803.32	1720.29
803.50	1619.94
803.67	1665.00
803.84	1662.95
804.02	1699.81
804.19	1671.14
804.37	1652.71
804.54	1720.29
804.71	1822.69
804.89	1693.67
805.06	1611.75
805.24	1693.67
805.41	1646.57
805.58	1632.23
805.76	1812.45
805.93	1744.87
806.10	1757.16
806.28	1767.40
806.45	1658.85
806.63	1693.67
806.80	1728.49
806.97	1775.59
807.15	1675.24
807.32	1685.48
807.49	1708.01
807.67	1634.28
807.84	1771.49
808.01	1648.61
808.19	1873.89
808.36	1767.40
808.54	1693.67
808.71	1662.95
808.88	1740.77
809.06	1710.05
809.23	1742.82
809.40	1736.68
809.58	1744.87
809.75	1753.06
809.92	1578.98
810.10	1834.98
810.27	1710.05
810.44	1787.88
810.62	1683.43
810.79	1701.86
810.96	1603.56
811.14	1673.19
811.31	1755.11
811.48	1800.16
811.66	1734.63
811.83	1808.36
812.00	1791.97
812.18	1742.82
812.35	1894.37
812.52	1779.68
812.69	1665.00
812.87	1712.10
813.04	1716.20
813.21	1724.39
813.39	1738.73
813.56	1732.58
813.73	1794.02
813.91	1671.14
814.08	1712.10
814.25	1716.20
814.42	1642.47
814.60	1722.34
814.77	1718.25
814.94	1652.71
815.12	1697.77
815.29	1783.78
815.46	1638.38
815.63	1679.33
815.81	1617.90
815.98	1755.11
816.15	1767.40
816.33	1724.39
816.50	1632.23
816.67	1779.68
816.84	1640.42
817.02	1669.09
817.19	1701.86
817.36	1667.05
817.53	1751.01
817.71	1724.39
817.88	1785.83
818.05	1734.63
818.22	1669.09
818.40	1839.08
818.57	1589.22
818.74	1699.81
818.91	1744.87
819.09	1736.68
819.26	1769.44
819.43	1724.39
819.60	1691.62
819.78	1728.49
819.95	1724.39
820.12	1603.56
820.29	1783.78
820.47	1773.54
820.64	1662.95
820.81	1693.67
820.98	1638.38
821.15	1671.14
821.33	1849.32
821.50	1658.85
821.67	1796.07
821.84	1693.67
822.02	1746.92
822.19	1769.44
822.36	1632.23
822.53	1740.77
822.70	1640.42
822.88	1703.91
823.05	1781.73
823.22	1673.19
823.39	1695.72
823.56	1728.49
823.74	1839.08
823.91	1669.09
824.08	1652.71
824.25	1673.19
824.42	1820.64
824.60	1607.66
824.77	1679.33
824.94	1730.53
825.11	1724.39
825.28	1556.46
825.45	1710.05
825.63	1736.68
825.80	1628.14
825.97	1748.97
826.14	1767.40
826.31	1630.18
826.48	1683.43
826.66	1603.56
826.83	1658.85
827.00	1791.97
827.17	1638.38
827.34	1728.49
827.51	1691.62
827.69	1697.77
827.86	1636.33
828.03	1761.25
828.20	1714.15
828.37	1693.67
828.54	1697.77
828.71	1720.29
828.89	1757.16
829.06	1751.01
829.23	1845.22
829.40	1648.61
829.57	1697.77
829.74	1753.06
829.91	1673.19
830.09	1681.38
830.26	1763.30
830.43	1781.73
830.60	1630.18
830.77	1751.01
830.94	1695.72
831.11	1718.25
831.28	1677.29
831.46	1789.92
831.63	1675.24
831.80	1822.69
831.97	1671.14
832.14	1710.05
832.31	1751.01
832.48	1691.62
832.65	1722.34
832.82	1751.01
832.99	1751.01
833.17	1652.71
833.34	1814.50
833.51	1628.14
833.68	1568.74
833.85	1732.58
834.02	1708.01
834.19	1648.61
834.36	1738.73
834.53	1757.16
834.70	1736.68
834.87	1753.06
835.04	1708.01
835.22	1675.24
835.39	1695.72
835.56	1578.98
835.73	1640.42
835.90	1771.49
836.07	1601.51
836.24	1746.92
836.41	1708.01
836.58	1679.33
836.75	1796.07
836.92	1789.92
837.09	1642.47
837.26	1789.92
837.43	1722.34
837.60	1767.40
837.77	1720.29
837.94	1732.58
838.12	1734.63
838.29	1714.15
838.46	1589.22
838.63	1619.94
838.80	1751.01
838.97	1746.92
839.14	1773.54
839.31	1746.92
839.48	1679.33
839.65	1656.81
839.82	1722.34
839.99	1644.52
840.16	1705.96
840.33	1693.67
840.50	1744.87
840.67	1710.05
840.84	1648.61
841.01	1691.62
841.18	1710.05
841.35	1699.81
841.52	1824.74
841.69	1781.73
841.86	1695.72
842.03	1806.31
842.20	1783.78
842.37	1742.82
842.54	1736.68
842.71	1736.68
842.88	1683.43
843.05	1822.69
843.22	1572.84
843.39	1683.43
843.56	1658.85
843.73	1683.43
843.90	1714.15
844.07	1705.96
844.24	1787.88
844.41	1791.97
844.58	1726.44
844.75	1718.25
844.92	1767.40
845.09	1679.33
845.26	1714.15
845.43	1703.91
845.60	1644.52
845.77	1800.16
845.94	1705.96
846.10	1767.40
846.27	1560.55
846.44	1652.71
846.61	1652.71
846.78	1705.96
846.95	1767.40
847.12	1744.87
847.29	1712.10
847.46	1638.38
847.63	1769.44
847.80	1669.09
847.97	1650.66
848.14	1820.64
848.31	1646.57
848.48	1615.85
848.65	1697.77
848.82	1660.90
848.98	1841.12
849.15	1652.71
849.32	1765.35
849.49	1798.12
849.66	1656.81
849.83	1679.33
850.00	1652.71
850.17	1648.61
850.34	1665.00
850.51	1656.81
850.68	1656.81
850.85	1794.02
851.01	1718.25
851.18	1720.29
851.35	1699.81
851.52	1779.68
851.69	1769.44
851.86	1613.80
852.03	1730.53
852.20	1779.68
852.37	1669.09
852.53	1646.57
852.70	1761.25
852.87	1730.53
853.04	1796.07
853.21	1683.43
853.38	1730.53
853.55	1783.78
853.72	1806.31
853.89	1603.56
854.05	1736.68
854.22	1763.30
854.39	1673.19
854.56	1779.68
854.73	1777.64
854.90	1720.29
855.07	1693.67
855.23	1671.14
855.40	1689.57
855.57	1714.15
855.74	1624.04
855.91	1914.85
856.08	1562.60
856.25	1576.94
856.41	1705.96
856.58	1689.57
856.75	1705.96
856.92	1621.99
857.09	1761.25
857.26	1662.95
857.42	1767.40
857.59	1710.05
857.76	1599.46
857.93	1718.25
858.10	1693.67
858.27	1644.52
858.43	1689.57
858.60	1644.52
858.77	1587.18
858.94	1683.43
859.11	1722.34
859.27	1638.38
859.44	1722.34
859.61	1769.44
859.78	1720.29
859.95	1740.77
860.12	1656.81
860.28	1781.73
860.45	1791.97
860.62	1738.73
860.79	1726.44
860.95	1708.01
861.12	1611.75
861.29	1630.18
861.46	1656.81
861.63	1644.52
861.79	1759.21
861.96	1669.09
862.13	1720.29
862.30	1791.97
862.47	1650.66
862.63	1732.58
862.80	1791.97
862.97	1738.73
863.14	1726.44
863.30	1673.19
863.47	1710.05
863.64	1730.53
863.81	1730.53
863.97	1791.97
864.14	1656.81
864.31	1681.38
864.48	1732.58
864.65	1652.71
864.81	1703.91
864.98	1685.48
865.15	1775.59
865.32	1714.15
865.48	1791.97
865.65	1822.69
865.82	1777.64
865.98	1685.48
866.15	1847.27
866.32	1746.92
866.49	1728.49
866.65	1783.78
866.82	1681.38
866.99	1677.29
867.16	1693.67
867.32	1656.81
867.49	1681.38
867.66	1705.96
867.83	1679.33
867.99	1531.88
868.16	1621.99
868.33	1669.09
868.49	1738.73
868.66	1669.09
868.83	1787.88
868.99	1787.88
869.16	1675.24
869.33	1742.82
869.50	1775.59
869.66	1697.77
869.83	1765.35
870.00	1679.33
870.16	1841.12
870.33	1591.27
870.50	1746.92
870.66	1724.39
870.83	1791.97
871.00	1648.61
871.17	1705.96
871.33	1791.97
871.50	1673.19
871.67	1685.48
871.83	1644.52
872.00	1775.59
872.17	1644.52
872.33	1832.93
872.50	1734.63
872.67	1708.01
872.83	1783.78
873.00	1646.57
873.17	1718.25
873.33	1759.21
873.50	1716.20
873.67	1701.86
873.83	1685.48
874.00	1701.86
874.16	1789.92
874.33	1685.48
874.50	1685.48
874.66	1736.68
874.83	1699.81
875.00	1773.54
875.16	1763.30
875.33	1765.35
875.50	1644.52
875.66	1578.98
875.83	1705.96
875.99	1730.53
876.16	1681.38
876.33	1595.37
876.49	1630.18
876.66	1693.67
876.83	1724.39
876.99	1646.57
877.16	1703.91
877.32	1720.29
877.49	1751.01
877.66	1705.96
877.82	1775.59
877.99	1773.54
878.15	1798.12
878.32	1714.15
878.49	1748.97
878.65	1738.73
878.82	1765.35
878.98	1697.77
879.15	1779.68
879.32	1722.34
879.48	1691.62
879.65	1695.72
879.81	1705.96
879.98	1646.57
880.15	1671.14
880.31	1744.87
880.48	1650.66
880.64	1849.32
880.81	1732.58
880.97	1830.88
881.14	1779.68
881.31	1722.34
881.47	1847.27
881.64	1611.75
881.80	1683.43
881.97	1695.72
882.13	1755.11
882.30	1718.25
882.47	1681.38
882.63	1687.53
882.80	1568.74
882.96	1669.09
883.13	1695.72
883.29	1660.90
883.46	1730.53
883.62	1796.07
883.79	1671.14
883.95	1800.16
884.12	1783.78
884.29	1783.78
884.45	1724.39
884.62	1712.10
884.78	1615.85
884.95	1777.64
885.11	1724.39
885.28	1716.20
885.44	1658.85
885.61	1728.49
885.77	1798.12
885.94	1802.21
886.10	1701.86
886.27	1681.38
886.43	1802.21
886.60	1724.39
886.76	1652.71
886.93	1644.52
887.09	1681.38
887.26	1669.09
887.42	1736.68
887.59	1736.68
887.75	1773.54
887.92	1892.32
888.08	1802.21
888.25	1781.73
888.41	1748.97
888.58	1705.96
888.74	1603.56
888.91	1589.22
>>>>>End Processed Spectral Data<<<<<
