SpectraSuite Data File
++++++++++++++++++++++++++++++++++++
Date: Mon Jun 06 15:03:37 CEST 2016
User: root
Dark Spectrum Present: No
Reference Spectrum Present: No
Number of Sampled Component Spectra: 1
Spectrometers: USB4C02835
Integration Time (usec): 100000 (USB4C02835)
Spectra Averaged: 1 (USB4C02835)
Boxcar Smoothing: 0 (USB4C02835)
Correct for Electrical Dark: No (USB4C02835)
Strobe/Lamp Enabled: No (USB4C02835)
Correct for Detector Non-linearity: No (USB4C02835)
Correct for Stray Light: No (USB4C02835)
Number of Pixels in Processed Spectrum: 3648
>>>>>Begin Processed Spectral Data<<<<<
177.47	1476.59
177.69	1476.59
177.91	1476.59
178.13	1431.53
178.36	1517.54
178.58	1695.72
178.80	1716.20
179.02	1619.94
179.24	1638.38
179.46	1660.90
179.68	1740.77
179.90	1701.86
180.13	1665.00
180.35	1636.33
180.57	1716.20
180.79	1693.67
181.01	1636.33
181.23	1783.78
181.45	1671.14
181.67	1687.53
181.90	1740.77
182.12	1632.23
182.34	1630.18
182.56	1789.92
182.78	1738.73
183.00	1689.57
183.22	1734.63
183.44	1589.22
183.66	1865.70
183.89	1779.68
184.11	1681.38
184.33	1728.49
184.55	1796.07
184.77	1794.02
184.99	1697.77
185.21	1705.96
185.43	1861.60
185.65	1632.23
185.87	1716.20
186.10	1785.83
186.32	1796.07
186.54	1687.53
186.76	1765.35
186.98	1769.44
187.20	1677.29
187.42	1646.57
187.64	1691.62
187.86	1701.86
188.08	1697.77
188.30	1650.66
188.52	1689.57
188.75	1818.60
188.97	1746.92
189.19	1652.71
189.41	1626.09
189.63	1736.68
189.85	1626.09
190.07	1673.19
190.29	1708.01
190.51	1759.21
190.73	1617.90
190.95	1669.09
191.17	1738.73
191.39	1638.38
191.61	1695.72
191.84	1673.19
192.06	1771.49
192.28	1599.46
192.50	1841.12
192.72	1677.29
192.94	1695.72
193.16	1746.92
193.38	1718.25
193.60	1656.81
193.82	1734.63
194.04	1789.92
194.26	1685.48
194.48	1726.44
194.70	1705.96
194.92	1705.96
195.14	1722.34
195.36	1699.81
195.58	1728.49
195.80	1710.05
196.02	1689.57
196.24	1693.67
196.46	1816.55
196.69	1652.71
196.91	1869.80
197.13	1644.52
197.35	1619.94
197.57	1761.25
197.79	1794.02
198.01	1728.49
198.23	1806.31
198.45	1636.33
198.67	1624.04
198.89	1767.40
199.11	1705.96
199.33	1611.75
199.55	1527.78
199.77	1701.86
199.99	1759.21
200.21	1703.91
200.43	1765.35
200.65	1613.80
200.87	1621.99
201.09	1652.71
201.31	1761.25
201.53	1697.77
201.75	1755.11
201.97	1705.96
202.19	1746.92
202.41	1781.73
202.63	1849.32
202.85	1656.81
203.07	1693.67
203.29	1591.27
203.51	1667.05
203.73	1609.70
203.95	1824.74
204.17	1703.91
204.39	1708.01
204.61	1703.91
204.83	1656.81
205.05	1746.92
205.27	1746.92
205.49	1734.63
205.71	1720.29
205.93	1626.09
206.15	1701.86
206.37	1687.53
206.59	1695.72
206.81	1677.29
207.03	1642.47
207.25	1675.24
207.47	1736.68
207.69	1732.58
207.91	1783.78
208.13	1693.67
208.34	1658.85
208.56	1736.68
208.78	1710.05
209.00	1691.62
209.22	1687.53
209.44	1724.39
209.66	1654.76
209.88	1800.16
210.10	1679.33
210.32	1679.33
210.54	1724.39
210.76	1705.96
210.98	1763.30
211.20	1605.61
211.42	1732.58
211.64	1890.28
211.86	1724.39
212.08	1701.86
212.30	1667.05
212.52	1669.09
212.74	1718.25
212.96	1771.49
213.17	1767.40
213.39	1773.54
213.61	1730.53
213.83	1660.90
214.05	1734.63
214.27	1822.69
214.49	1591.27
214.71	1628.14
214.93	1773.54
215.15	1697.77
215.37	1730.53
215.59	1669.09
215.81	1701.86
216.03	1890.28
216.24	1699.81
216.46	1656.81
216.68	1712.10
216.90	1646.57
217.12	1755.11
217.34	1673.19
217.56	1742.82
217.78	1687.53
218.00	1644.52
218.22	1703.91
218.44	1722.34
218.66	1734.63
218.87	1769.44
219.09	1677.29
219.31	1724.39
219.53	1783.78
219.75	1652.71
219.97	1648.61
220.19	1755.11
220.41	1683.43
220.63	1728.49
220.85	1687.53
221.06	1687.53
221.28	1808.36
221.50	1732.58
221.72	1751.01
221.94	1652.71
222.16	1632.23
222.38	1732.58
222.60	1705.96
222.82	1712.10
223.03	1689.57
223.25	1617.90
223.47	1660.90
223.69	1812.45
223.91	1783.78
224.13	1652.71
224.35	1648.61
224.57	1736.68
224.78	1714.15
225.00	1755.11
225.22	1642.47
225.44	1669.09
225.66	1697.77
225.88	1699.81
226.10	1724.39
226.32	1714.15
226.53	1791.97
226.75	1738.73
226.97	1689.57
227.19	1724.39
227.41	1595.37
227.63	1650.66
227.85	1658.85
228.06	1759.21
228.28	1763.30
228.50	1718.25
228.72	1665.00
228.94	1693.67
229.16	1644.52
229.37	1570.79
229.59	1642.47
229.81	1818.60
230.03	1683.43
230.25	1626.09
230.47	1646.57
230.69	1589.22
230.90	1699.81
231.12	1665.00
231.34	1677.29
231.56	1806.31
231.78	1669.09
232.00	1671.14
232.21	1617.90
232.43	1665.00
232.65	1638.38
232.87	1730.53
233.09	1632.23
233.30	1722.34
233.52	1734.63
233.74	1738.73
233.96	1691.62
234.18	1761.25
234.40	1613.80
234.61	1771.49
234.83	1638.38
235.05	1566.70
235.27	1869.80
235.49	1781.73
235.70	1738.73
235.92	1802.21
236.14	1744.87
236.36	1888.23
236.58	1570.79
236.79	1765.35
237.01	1650.66
237.23	1695.72
237.45	1824.74
237.67	1673.19
237.88	1683.43
238.10	1812.45
238.32	1660.90
238.54	1738.73
238.76	1742.82
238.97	1632.23
239.19	1671.14
239.41	1740.77
239.63	1771.49
239.85	1669.09
240.06	1669.09
240.28	1699.81
240.50	1763.30
240.72	1726.44
240.93	1671.14
241.15	1765.35
241.37	1650.66
241.59	1757.16
241.81	1640.42
242.02	1662.95
242.24	1632.23
242.46	1691.62
242.68	1665.00
242.89	1789.92
243.11	1794.02
243.33	1705.96
243.55	1724.39
243.76	1738.73
243.98	1716.20
244.20	1656.81
244.42	1808.36
244.64	1679.33
244.85	1667.05
245.07	1675.24
245.29	1818.60
245.51	1726.44
245.72	1701.86
245.94	1822.69
246.16	1759.21
246.38	1667.05
246.59	1613.80
246.81	1640.42
247.03	1644.52
247.24	1587.18
247.46	1665.00
247.68	1673.19
247.90	1695.72
248.11	1646.57
248.33	1781.73
248.55	1740.77
248.77	1677.29
248.98	1763.30
249.20	1820.64
249.42	1675.24
249.64	1681.38
249.85	1714.15
250.07	1718.25
250.29	1722.34
250.50	1767.40
250.72	1585.13
250.94	1769.44
251.16	1869.80
251.37	1765.35
251.59	1724.39
251.81	1705.96
252.02	1755.11
252.24	1550.31
252.46	1794.02
252.68	1673.19
252.89	1681.38
253.11	1658.85
253.33	1787.88
253.54	1736.68
253.76	1632.23
253.98	1679.33
254.20	1689.57
254.41	1669.09
254.63	1701.86
254.85	1656.81
255.06	1658.85
255.28	1773.54
255.50	1681.38
255.71	1681.38
255.93	1658.85
256.15	1654.76
256.36	1669.09
256.58	1685.48
256.80	1714.15
257.02	1705.96
257.23	1681.38
257.45	1734.63
257.67	1757.16
257.88	1626.09
258.10	1751.01
258.32	1751.01
258.53	1765.35
258.75	1841.12
258.97	1605.61
259.18	1689.57
259.40	1695.72
259.62	1746.92
259.83	1740.77
260.05	1740.77
260.27	1955.81
260.48	1763.30
260.70	1695.72
260.92	1656.81
261.13	1753.06
261.35	1748.97
261.57	1841.12
261.78	1632.23
262.00	1619.94
262.22	1716.20
262.43	1742.82
262.65	1783.78
262.86	1689.57
263.08	1814.50
263.30	1755.11
263.51	1581.03
263.73	1701.86
263.95	1728.49
264.16	1697.77
264.38	1677.29
264.60	1740.77
264.81	1708.01
265.03	1744.87
265.25	1783.78
265.46	1679.33
265.68	1779.68
265.89	1626.09
266.11	1599.46
266.33	1763.30
266.54	1814.50
266.76	1701.86
266.98	1714.15
267.19	1779.68
267.41	1798.12
267.62	1636.33
267.84	1619.94
268.06	1771.49
268.27	1730.53
268.49	1826.79
268.70	1777.64
268.92	1642.47
269.14	1634.28
269.35	1626.09
269.57	1748.97
269.79	1714.15
270.00	1587.18
270.22	1808.36
270.43	1677.29
270.65	1605.61
270.87	1728.49
271.08	1724.39
271.30	1687.53
271.51	1722.34
271.73	1730.53
271.95	1863.65
272.16	1642.47
272.38	1669.09
272.59	1699.81
272.81	1714.15
273.02	1720.29
273.24	1712.10
273.46	1769.44
273.67	1718.25
273.89	1724.39
274.10	1640.42
274.32	1722.34
274.54	1667.05
274.75	1662.95
274.97	1685.48
275.18	1779.68
275.40	1783.78
275.61	1708.01
275.83	1775.59
276.05	1701.86
276.26	1630.18
276.48	1679.33
276.69	1673.19
276.91	1593.32
277.12	1742.82
277.34	1699.81
277.55	1736.68
277.77	1675.24
277.99	1687.53
278.20	1667.05
278.42	1626.09
278.63	1662.95
278.85	1673.19
279.06	1621.99
279.28	1738.73
279.49	1875.94
279.71	1802.21
279.93	1710.05
280.14	1640.42
280.36	1689.57
280.57	1796.07
280.79	1740.77
281.00	1705.96
281.22	1650.66
281.43	1773.54
281.65	1619.94
281.86	1656.81
282.08	1716.20
282.29	1808.36
282.51	1535.98
282.73	1634.28
282.94	1609.70
283.16	1810.40
283.37	1857.51
283.59	1632.23
283.80	1705.96
284.02	1667.05
284.23	1732.58
284.45	1677.29
284.66	1679.33
284.88	1669.09
285.09	1689.57
285.31	1751.01
285.52	1697.77
285.74	1570.79
285.95	1755.11
286.17	1710.05
286.38	1757.16
286.60	1585.13
286.81	1740.77
287.03	1703.91
287.24	1718.25
287.46	1697.77
287.67	1714.15
287.89	1863.65
288.10	1673.19
288.32	1769.44
288.53	1738.73
288.75	1681.38
288.96	1693.67
289.18	1652.71
289.39	1685.48
289.61	1728.49
289.82	1796.07
290.04	1787.88
290.25	1609.70
290.47	1679.33
290.68	1683.43
290.90	1789.92
291.11	1613.80
291.33	1728.49
291.54	1648.61
291.76	1738.73
291.97	1714.15
292.18	1738.73
292.40	1650.66
292.61	1708.01
292.83	1841.12
293.04	1800.16
293.26	1697.77
293.47	1687.53
293.69	1665.00
293.90	1695.72
294.12	1773.54
294.33	1714.15
294.55	1667.05
294.76	1755.11
294.97	1767.40
295.19	1839.08
295.40	1697.77
295.62	1751.01
295.83	1755.11
296.05	1681.38
296.26	1683.43
296.48	1695.72
296.69	1689.57
296.90	1697.77
297.12	1710.05
297.33	1748.97
297.55	1773.54
297.76	1691.62
297.98	1785.83
298.19	1769.44
298.41	1689.57
298.62	1669.09
298.83	1789.92
299.05	1665.00
299.26	1601.51
299.48	1679.33
299.69	1697.77
299.90	1736.68
300.12	1595.37
300.33	1748.97
300.55	1683.43
300.76	1845.22
300.98	1615.85
301.19	1789.92
301.40	1660.90
301.62	1636.33
301.83	1689.57
302.05	1718.25
302.26	1775.59
302.47	1712.10
302.69	1656.81
302.90	1730.53
303.12	1548.26
303.33	1746.92
303.54	1816.55
303.76	1638.38
303.97	1781.73
304.19	1751.01
304.40	1673.19
304.61	1769.44
304.83	1785.83
305.04	1662.95
305.26	1759.21
305.47	1689.57
305.68	1724.39
305.90	1642.47
306.11	1718.25
306.33	1712.10
306.54	1632.23
306.75	1669.09
306.97	1591.27
307.18	1632.23
307.39	1724.39
307.61	1785.83
307.82	1613.80
308.04	1783.78
308.25	1726.44
308.46	1714.15
308.68	1728.49
308.89	1724.39
309.10	1757.16
309.32	1728.49
309.53	1691.62
309.74	1703.91
309.96	1726.44
310.17	1800.16
310.39	1652.71
310.60	1701.86
310.81	1712.10
311.03	1609.70
311.24	1763.30
311.45	1648.61
311.67	1791.97
311.88	1734.63
312.09	1595.37
312.31	1673.19
312.52	1624.04
312.73	1701.86
312.95	1630.18
313.16	1648.61
313.37	1783.78
313.59	1773.54
313.80	1738.73
314.01	1751.01
314.23	1714.15
314.44	1626.09
314.65	1619.94
314.87	1665.00
315.08	1722.34
315.29	1624.04
315.51	1646.57
315.72	1632.23
315.93	1775.59
316.15	1800.16
316.36	1691.62
316.57	1628.14
316.79	1693.67
317.00	1710.05
317.21	1667.05
317.43	1705.96
317.64	1755.11
317.85	1554.41
318.07	1683.43
318.28	1785.83
318.49	1814.50
318.70	1798.12
318.92	1886.18
319.13	1853.41
319.34	1828.84
319.56	1726.44
319.77	1826.79
319.98	1769.44
320.20	1740.77
320.41	1748.97
320.62	1812.45
320.83	1619.94
321.05	1806.31
321.26	1689.57
321.47	1759.21
321.69	1703.91
321.90	1607.66
322.11	1640.42
322.32	1722.34
322.54	1765.35
322.75	1693.67
322.96	1888.23
323.18	1658.85
323.39	1601.51
323.60	1683.43
323.81	1728.49
324.03	1667.05
324.24	1710.05
324.45	1677.29
324.66	1746.92
324.88	1753.06
325.09	1751.01
325.30	1703.91
325.52	1705.96
325.73	1714.15
325.94	1595.37
326.15	1531.88
326.37	1650.66
326.58	1708.01
326.79	1791.97
327.00	1722.34
327.22	1658.85
327.43	1697.77
327.64	1662.95
327.85	1757.16
328.07	1695.72
328.28	1730.53
328.49	1689.57
328.70	1626.09
328.92	1689.57
329.13	1699.81
329.34	1699.81
329.55	1734.63
329.76	1755.11
329.98	1662.95
330.19	1738.73
330.40	1714.15
330.61	1714.15
330.83	1722.34
331.04	1712.10
331.25	1718.25
331.46	1648.61
331.68	1675.24
331.89	1785.83
332.10	1712.10
332.31	1667.05
332.52	1697.77
332.74	1771.49
332.95	1640.42
333.16	1699.81
333.37	1779.68
333.58	1656.81
333.80	1765.35
334.01	1632.23
334.22	1683.43
334.43	1677.29
334.64	1742.82
334.86	1601.51
335.07	1613.80
335.28	1785.83
335.49	1583.08
335.70	1722.34
335.92	1763.30
336.13	1806.31
336.34	1689.57
336.55	1744.87
336.76	1683.43
336.98	1656.81
337.19	1703.91
337.40	1843.17
337.61	1847.27
337.82	1716.20
338.04	1685.48
338.25	1652.71
338.46	1685.48
338.67	1642.47
338.88	1699.81
339.09	1689.57
339.31	1658.85
339.52	1652.71
339.73	1605.61
339.94	1681.38
340.15	1808.36
340.36	1679.33
340.58	1761.25
340.79	1619.94
341.00	1724.39
341.21	1585.13
341.42	1769.44
341.63	1732.58
341.85	1769.44
342.06	1763.30
342.27	1630.18
342.48	1773.54
342.69	1658.85
342.90	1699.81
343.12	1730.53
343.33	1644.52
343.54	1781.73
343.75	1751.01
343.96	1730.53
344.17	1646.57
344.38	1646.57
344.60	1648.61
344.81	1611.75
345.02	1730.53
345.23	1687.53
345.44	1798.12
345.65	1755.11
345.86	1783.78
346.07	1687.53
346.29	1660.90
346.50	1761.25
346.71	1722.34
346.92	1712.10
347.13	1847.27
347.34	1736.68
347.55	1695.72
347.76	1722.34
347.98	1716.20
348.19	1771.49
348.40	1685.48
348.61	1603.56
348.82	1705.96
349.03	1753.06
349.24	1722.34
349.45	1834.98
349.66	1656.81
349.88	1734.63
350.09	1701.86
350.30	1755.11
350.51	1705.96
350.72	1681.38
350.93	1773.54
351.14	1609.70
351.35	1742.82
351.56	1697.77
351.77	1722.34
351.99	1734.63
352.20	1730.53
352.41	1775.59
352.62	1662.95
352.83	1689.57
353.04	1746.92
353.25	1683.43
353.46	1732.58
353.67	1689.57
353.88	1615.85
354.09	1718.25
354.30	1705.96
354.52	1726.44
354.73	1728.49
354.94	1683.43
355.15	1667.05
355.36	1873.89
355.57	1660.90
355.78	1708.01
355.99	1736.68
356.20	1662.95
356.41	1736.68
356.62	1660.90
356.83	1675.24
357.04	1794.02
357.25	1599.46
357.46	1615.85
357.68	1615.85
357.89	1599.46
358.10	1703.91
358.31	1703.91
358.52	1628.14
358.73	1607.66
358.94	1675.24
359.15	1660.90
359.36	1708.01
359.57	1714.15
359.78	1691.62
359.99	1753.06
360.20	1603.56
360.41	1603.56
360.62	1714.15
360.83	1771.49
361.04	1699.81
361.25	1712.10
361.46	1824.74
361.67	1800.16
361.88	1744.87
362.09	1808.36
362.30	1658.85
362.51	1630.18
362.72	1677.29
362.93	1763.30
363.14	1746.92
363.35	1783.78
363.56	1716.20
363.78	1738.73
363.99	1761.25
364.20	1734.63
364.41	1763.30
364.62	1810.40
364.83	1742.82
365.04	1650.66
365.25	1744.87
365.46	1806.31
365.67	1632.23
365.88	1652.71
366.09	1650.66
366.30	1673.19
366.51	1703.91
366.72	1560.55
366.93	1728.49
367.14	1714.15
367.35	1789.92
367.56	1665.00
367.77	1820.64
367.98	1730.53
368.18	1675.24
368.39	1751.01
368.60	1599.46
368.81	1765.35
369.02	1675.24
369.23	1683.43
369.44	1673.19
369.65	1607.66
369.86	1798.12
370.07	1779.68
370.28	1697.77
370.49	1761.25
370.70	1738.73
370.91	1654.76
371.12	1587.18
371.33	1724.39
371.54	1673.19
371.75	1787.88
371.96	1656.81
372.17	1763.30
372.38	1628.14
372.59	1742.82
372.80	1675.24
373.01	1695.72
373.22	1757.16
373.43	1757.16
373.64	1642.47
373.85	1742.82
374.06	1810.40
374.26	1746.92
374.47	1763.30
374.68	1746.92
374.89	1763.30
375.10	1726.44
375.31	1746.92
375.52	1783.78
375.73	1669.09
375.94	1603.56
376.15	1753.06
376.36	1636.33
376.57	1722.34
376.78	1636.33
376.99	1783.78
377.20	1714.15
377.40	1621.99
377.61	1789.92
377.82	1656.81
378.03	1798.12
378.24	1755.11
378.45	1791.97
378.66	1683.43
378.87	1630.18
379.08	1628.14
379.29	1665.00
379.50	1812.45
379.71	1730.53
379.91	1742.82
380.12	1732.58
380.33	1683.43
380.54	1710.05
380.75	1679.33
380.96	1662.95
381.17	1665.00
381.38	1751.01
381.59	1751.01
381.80	1716.20
382.00	1783.78
382.21	1757.16
382.42	1779.68
382.63	1888.23
382.84	1781.73
383.05	1796.07
383.26	1757.16
383.47	1763.30
383.68	1751.01
383.88	1738.73
384.09	1775.59
384.30	1851.36
384.51	1769.44
384.72	1705.96
384.93	1636.33
385.14	1771.49
385.35	1769.44
385.55	1673.19
385.76	1746.92
385.97	1714.15
386.18	1624.04
386.39	1650.66
386.60	1697.77
386.81	1632.23
387.02	1605.61
387.22	1632.23
387.43	1785.83
387.64	1824.74
387.85	1828.84
388.06	2197.47
388.27	4251.58
388.48	6563.74
388.68	7980.93
388.89	9295.73
389.10	9521.01
389.31	8423.30
389.52	7219.09
389.73	6559.64
389.93	6043.56
390.14	5730.22
390.35	5089.20
390.56	4417.47
390.77	3811.27
390.98	2987.99
391.18	2545.63
391.39	2041.82
391.60	1820.64
391.81	1781.73
392.02	1695.72
392.23	1837.03
392.43	1718.25
392.64	1763.30
392.85	1759.21
393.06	1773.54
393.27	1722.34
393.47	1677.29
393.68	1794.02
393.89	1646.57
394.10	1779.68
394.31	1656.81
394.52	1587.18
394.72	1599.46
394.93	1806.31
395.14	1705.96
395.35	1708.01
395.56	1697.77
395.76	1675.24
395.97	1781.73
396.18	1773.54
396.39	1853.41
396.60	2007.01
396.80	1877.99
397.01	1796.07
397.22	1857.51
397.43	1863.65
397.64	1720.29
397.84	1796.07
398.05	1841.12
398.26	1785.83
398.47	1804.26
398.67	1708.01
398.88	1728.49
399.09	1738.73
399.30	1636.33
399.51	1714.15
399.71	1636.33
399.92	1699.81
400.13	1746.92
400.34	1730.53
400.54	1669.09
400.75	1789.92
400.96	1720.29
401.17	1804.26
401.37	1730.53
401.58	1736.68
401.79	1697.77
402.00	1837.03
402.21	1996.77
402.41	1957.86
402.62	1945.57
402.83	2088.93
403.04	1976.29
403.24	2035.68
403.45	1933.28
403.66	1943.52
403.87	1929.19
404.07	1886.18
404.28	1863.65
404.49	1861.60
404.70	1748.97
404.90	1804.26
405.11	1701.86
405.32	1771.49
405.52	1662.95
405.73	1675.24
405.94	1708.01
406.15	1738.73
406.35	1767.40
406.56	1714.15
406.77	1820.64
406.98	1714.15
407.18	1652.71
407.39	1767.40
407.60	1748.97
407.80	1751.01
408.01	1701.86
408.22	1718.25
408.43	1708.01
408.63	1675.24
408.84	1781.73
409.05	1748.97
409.25	1669.09
409.46	1691.62
409.67	1677.29
409.88	1650.66
410.08	1679.33
410.29	1714.15
410.50	1687.53
410.70	1783.78
410.91	1646.57
411.12	1796.07
411.32	1705.96
411.53	1665.00
411.74	1712.10
411.95	1755.11
412.15	1746.92
412.36	1722.34
412.57	1748.97
412.77	1787.88
412.98	1681.38
413.19	1626.09
413.39	1794.02
413.60	1763.30
413.81	1791.97
414.01	1687.53
414.22	1816.55
414.43	1751.01
414.63	1734.63
414.84	1775.59
415.05	1695.72
415.25	1644.52
415.46	1763.30
415.67	1689.57
415.87	1742.82
416.08	1665.00
416.29	1765.35
416.49	1736.68
416.70	1703.91
416.91	1660.90
417.11	1667.05
417.32	1787.88
417.53	1791.97
417.73	1732.58
417.94	1603.56
418.15	1734.63
418.35	1724.39
418.56	1648.61
418.77	1814.50
418.97	1755.11
419.18	1703.91
419.38	1583.08
419.59	1720.29
419.80	1804.26
420.00	1689.57
420.21	1738.73
420.42	1818.60
420.62	1724.39
420.83	1703.91
421.04	1699.81
421.24	1732.58
421.45	1787.88
421.65	1748.97
421.86	1697.77
422.07	1777.64
422.27	1708.01
422.48	1679.33
422.69	1628.14
422.89	1703.91
423.10	1746.92
423.30	1687.53
423.51	1716.20
423.72	1767.40
423.92	1687.53
424.13	1652.71
424.33	1640.42
424.54	1804.26
424.75	1740.77
424.95	1818.60
425.16	1714.15
425.36	1744.87
425.57	1832.93
425.78	1820.64
425.98	1812.45
426.19	1673.19
426.39	1685.48
426.60	1734.63
426.81	1845.22
427.01	1679.33
427.22	1652.71
427.42	1564.65
427.63	1677.29
427.83	1830.88
428.04	1812.45
428.25	1742.82
428.45	1804.26
428.66	1726.44
428.86	1646.57
429.07	1660.90
429.28	1759.21
429.48	1613.80
429.69	1603.56
429.89	1675.24
430.10	1597.42
430.30	1751.01
430.51	1769.44
430.71	1675.24
430.92	1665.00
431.13	1599.46
431.33	1699.81
431.54	1830.88
431.74	1804.26
431.95	1806.31
432.15	1611.75
432.36	1740.77
432.56	1738.73
432.77	1812.45
432.98	1791.97
433.18	1759.21
433.39	1658.85
433.59	1732.58
433.80	1808.36
434.00	1785.83
434.21	1673.19
434.41	1632.23
434.62	1914.85
434.82	1665.00
435.03	1675.24
435.23	1777.64
435.44	1630.18
435.64	1693.67
435.85	1765.35
436.06	1755.11
436.26	1687.53
436.47	1644.52
436.67	1669.09
436.88	1736.68
437.08	1734.63
437.29	1742.82
437.49	1773.54
437.70	1742.82
437.90	1726.44
438.11	1857.51
438.31	1802.21
438.52	1849.32
438.72	1890.28
438.93	1869.80
439.13	1791.97
439.34	1843.17
439.54	1665.00
439.75	1767.40
439.95	1765.35
440.16	1705.96
440.36	1763.30
440.57	1755.11
440.77	1765.35
440.98	1708.01
441.18	1703.91
441.39	1665.00
441.59	1593.32
441.80	1804.26
442.00	1705.96
442.21	1814.50
442.41	1693.67
442.62	1777.64
442.82	1644.52
443.02	1738.73
443.23	1769.44
443.43	1697.77
443.64	1746.92
443.84	1703.91
444.05	1738.73
444.25	1695.72
444.46	1765.35
444.66	1699.81
444.87	1849.32
445.07	1636.33
445.28	1787.88
445.48	1689.57
445.69	1701.86
445.89	1880.04
446.09	1751.01
446.30	2050.02
446.50	2715.61
446.71	3647.43
446.91	4220.86
447.12	4607.93
447.32	4720.57
447.53	4204.48
447.73	3805.13
447.93	3479.50
448.14	3231.69
448.34	3188.69
448.55	2809.81
448.75	2818.00
448.96	2664.41
449.16	2398.17
449.36	2310.11
449.57	2084.83
449.77	1961.95
449.98	1763.30
450.18	1814.50
450.39	1767.40
450.59	1726.44
450.79	1765.35
451.00	1683.43
451.20	1742.82
451.41	1720.29
451.61	1718.25
451.81	1798.12
452.02	1671.14
452.22	1724.39
452.43	1796.07
452.63	1726.44
452.84	1712.10
453.04	1771.49
453.24	1820.64
453.45	1738.73
453.65	1669.09
453.86	1787.88
454.06	1683.43
454.26	1691.62
454.47	1669.09
454.67	1802.21
454.87	1738.73
455.08	1783.78
455.28	1830.88
455.49	1771.49
455.69	1701.86
455.89	1867.75
456.10	1769.44
456.30	1710.05
456.51	1736.68
456.71	1779.68
456.91	1726.44
457.12	1736.68
457.32	1808.36
457.52	1687.53
457.73	1773.54
457.93	1824.74
458.14	1718.25
458.34	1699.81
458.54	1740.77
458.75	1744.87
458.95	1740.77
459.15	1767.40
459.36	1744.87
459.56	1902.56
459.76	1820.64
459.97	1779.68
460.17	1665.00
460.37	1859.56
460.58	1722.34
460.78	1693.67
460.99	1718.25
461.19	1783.78
461.39	1736.68
461.60	1771.49
461.80	1757.16
462.00	1675.24
462.21	1871.84
462.41	1658.85
462.61	1652.71
462.82	1683.43
463.02	1820.64
463.22	1755.11
463.43	1769.44
463.63	1744.87
463.83	1771.49
464.04	1689.57
464.24	1773.54
464.44	1724.39
464.64	1802.21
464.85	1734.63
465.05	1742.82
465.25	1730.53
465.46	1736.68
465.66	1759.21
465.86	1796.07
466.07	1761.25
466.27	1689.57
466.47	1695.72
466.68	1652.71
466.88	1771.49
467.08	1787.88
467.29	1740.77
467.49	1808.36
467.69	1769.44
467.89	1787.88
468.10	1718.25
468.30	1753.06
468.50	1755.11
468.71	1726.44
468.91	1724.39
469.11	1843.17
469.31	1697.77
469.52	1683.43
469.72	1880.04
469.92	1814.50
470.13	1685.48
470.33	1728.49
470.53	1834.98
470.73	2041.82
470.94	2230.24
471.14	2336.73
471.34	2557.91
471.54	2367.45
471.75	2166.75
471.95	2140.13
472.15	2066.40
472.36	2099.17
472.56	2090.98
472.76	2070.50
472.96	1984.48
473.17	1988.58
473.37	1964.00
473.57	1742.82
473.77	1798.12
473.98	1746.92
474.18	1722.34
474.38	1894.37
474.58	1699.81
474.79	1691.62
474.99	1832.93
475.19	1841.12
475.39	1722.34
475.60	1648.61
475.80	1779.68
476.00	1722.34
476.20	1658.85
476.41	1744.87
476.61	1746.92
476.81	1800.16
477.01	1665.00
477.21	1812.45
477.42	1779.68
477.62	1621.99
477.82	1808.36
478.02	1730.53
478.23	1732.58
478.43	1615.85
478.63	1738.73
478.83	1716.20
479.03	1671.14
479.24	1857.51
479.44	1779.68
479.64	1619.94
479.84	1660.90
480.04	1716.20
480.25	1865.70
480.45	1689.57
480.65	1720.29
480.85	1783.78
481.06	1767.40
481.26	1708.01
481.46	1751.01
481.66	1771.49
481.86	1642.47
482.06	1736.68
482.27	1701.86
482.47	1708.01
482.67	1667.05
482.87	1640.42
483.07	1765.35
483.28	1658.85
483.48	1679.33
483.68	1771.49
483.88	1642.47
484.08	1560.55
484.29	1632.23
484.49	1763.30
484.69	1665.00
484.89	1814.50
485.09	1787.88
485.29	1769.44
485.50	1820.64
485.70	1714.15
485.90	1890.28
486.10	1665.00
486.30	1796.07
486.50	1697.77
486.71	1740.77
486.91	1751.01
487.11	1806.31
487.31	1628.14
487.51	1781.73
487.71	1687.53
487.91	1687.53
488.12	1656.81
488.32	1621.99
488.52	1716.20
488.72	1611.75
488.92	1710.05
489.12	1736.68
489.32	1812.45
489.53	1757.16
489.73	1603.56
489.93	1824.74
490.13	1718.25
490.33	1558.50
490.53	1726.44
490.73	1847.27
490.94	1742.82
491.14	1755.11
491.34	1875.94
491.54	2119.65
491.74	2523.10
491.94	2891.73
492.14	3030.99
492.34	3041.23
492.54	2736.09
492.75	2508.76
492.95	2410.46
493.15	2258.91
493.35	2205.66
493.55	2152.42
493.75	2156.51
493.95	2152.42
494.15	1970.15
494.35	1906.66
494.56	1900.52
494.76	1744.87
494.96	1794.02
495.16	1753.06
495.36	1624.04
495.56	1755.11
495.76	1724.39
495.96	1697.77
496.16	1660.90
496.36	1794.02
496.56	1777.64
496.77	1726.44
496.97	1677.29
497.17	1808.36
497.37	1726.44
497.57	1806.31
497.77	1796.07
497.97	1681.38
498.17	1671.14
498.37	1677.29
498.57	1777.64
498.77	1726.44
498.97	1773.54
499.17	1873.89
499.38	1808.36
499.58	1734.63
499.78	1839.08
499.98	1843.17
500.18	1726.44
500.38	1662.95
500.58	1976.29
500.78	2492.38
500.98	4362.17
501.18	5580.71
501.38	6676.38
501.58	6791.06
501.78	6514.59
501.98	5320.62
502.18	4755.38
502.38	4167.62
502.58	4122.56
502.78	3803.08
502.98	3575.75
503.18	3428.30
503.38	3215.31
503.59	2877.40
503.79	2551.77
503.99	2492.38
504.19	2238.43
504.39	2129.89
504.59	2164.70
504.79	2156.51
504.99	2082.78
505.19	1863.65
505.39	1886.18
505.59	1945.57
505.79	1931.23
505.99	1800.16
506.19	1785.83
506.39	1902.56
506.59	1734.63
506.79	1843.17
506.99	1845.22
507.19	1777.64
507.39	1748.97
507.59	1640.42
507.79	1728.49
507.99	1689.57
508.19	1769.44
508.39	1687.53
508.59	1720.29
508.79	1830.88
508.99	1763.30
509.19	1703.91
509.39	1730.53
509.59	1701.86
509.79	1701.86
509.99	1757.16
510.19	1710.05
510.39	1763.30
510.59	1748.97
510.79	1665.00
510.99	1691.62
511.19	1761.25
511.39	1818.60
511.59	1742.82
511.79	1767.40
511.99	1779.68
512.19	1798.12
512.38	1779.68
512.58	1691.62
512.78	1734.63
512.98	1734.63
513.18	1892.32
513.38	1687.53
513.58	1765.35
513.78	1734.63
513.98	1742.82
514.18	1736.68
514.38	1701.86
514.58	1751.01
514.78	1718.25
514.98	1779.68
515.18	1794.02
515.38	1675.24
515.58	1808.36
515.78	1736.68
515.98	1769.44
516.18	1755.11
516.38	1738.73
516.57	1687.53
516.77	1640.42
516.97	1763.30
517.17	1751.01
517.37	1599.46
517.57	1787.88
517.77	1787.88
517.97	1798.12
518.17	1732.58
518.37	1626.09
518.57	1658.85
518.77	1658.85
518.97	1697.77
519.16	1806.31
519.36	1701.86
519.56	1722.34
519.76	1753.06
519.96	1693.67
520.16	1794.02
520.36	1665.00
520.56	1763.30
520.76	1621.99
520.96	1726.44
521.16	1775.59
521.35	1787.88
521.55	1853.41
521.75	1724.39
521.95	1726.44
522.15	1712.10
522.35	1689.57
522.55	1624.04
522.75	1806.31
522.95	1783.78
523.14	1708.01
523.34	1798.12
523.54	1617.90
523.74	1800.16
523.94	1650.66
524.14	1640.42
524.34	1722.34
524.54	1873.89
524.73	1710.05
524.93	1820.64
525.13	1722.34
525.33	1601.51
525.53	1896.42
525.73	1724.39
525.93	1775.59
526.13	1697.77
526.32	1683.43
526.52	1771.49
526.72	1693.67
526.92	1751.01
527.12	1693.67
527.32	1574.89
527.52	1728.49
527.71	1767.40
527.91	1708.01
528.11	1679.33
528.31	1683.43
528.51	1642.47
528.71	1886.18
528.90	1753.06
529.10	1800.16
529.30	1732.58
529.50	1603.56
529.70	1728.49
529.90	1716.20
530.09	1785.83
530.29	1757.16
530.49	1669.09
530.69	1869.80
530.89	1787.88
531.09	1759.21
531.28	1753.06
531.48	1718.25
531.68	1734.63
531.88	1773.54
532.08	1757.16
532.28	1742.82
532.47	1732.58
532.67	1757.16
532.87	1820.64
533.07	1685.48
533.27	1759.21
533.46	1773.54
533.66	1785.83
533.86	1796.07
534.06	1695.72
534.26	1677.29
534.45	1751.01
534.65	1816.55
534.85	1732.58
535.05	1601.51
535.25	1861.60
535.44	1636.33
535.64	1730.53
535.84	1753.06
536.04	1734.63
536.24	1712.10
536.43	1683.43
536.63	1744.87
536.83	1777.64
537.03	1773.54
537.22	1652.71
537.42	1607.66
537.62	1796.07
537.82	1667.05
538.02	1810.40
538.21	1822.69
538.41	1818.60
538.61	1830.88
538.81	1714.15
539.00	1783.78
539.20	1609.70
539.40	1755.11
539.60	1863.65
539.79	1722.34
539.99	1761.25
540.19	1640.42
540.39	1744.87
540.58	1740.77
540.78	1734.63
540.98	1708.01
541.18	1855.46
541.37	1724.39
541.57	1755.11
541.77	1767.40
541.97	1665.00
542.16	1669.09
542.36	1783.78
542.56	1640.42
542.76	1863.65
542.95	1753.06
543.15	1718.25
543.35	1855.46
543.54	1689.57
543.74	1763.30
543.94	1824.74
544.14	1673.19
544.33	1753.06
544.53	1708.01
544.73	1759.21
544.93	1744.87
545.12	1632.23
545.32	1779.68
545.52	1669.09
545.71	1656.81
545.91	1691.62
546.11	1730.53
546.30	1744.87
546.50	1660.90
546.70	1669.09
546.90	1722.34
547.09	1667.05
547.29	1734.63
547.49	1765.35
547.68	1722.34
547.88	1703.91
548.08	1779.68
548.27	2230.24
548.47	1738.73
548.67	1673.19
548.87	1763.30
549.06	1665.00
549.26	1736.68
549.46	1701.86
549.65	1675.24
549.85	1744.87
550.05	1808.36
550.24	1662.95
550.44	1703.91
550.64	1771.49
550.83	1722.34
551.03	1816.55
551.23	1769.44
551.42	1740.77
551.62	1705.96
551.82	1740.77
552.01	1714.15
552.21	1730.53
552.41	1708.01
552.60	1728.49
552.80	1748.97
553.00	1628.14
553.19	1771.49
553.39	1900.52
553.59	1654.76
553.78	1765.35
553.98	1730.53
554.17	1685.48
554.37	1775.59
554.57	1726.44
554.76	1714.15
554.96	1736.68
555.16	1798.12
555.35	1699.81
555.55	1755.11
555.75	1785.83
555.94	1871.84
556.14	1675.24
556.33	1769.44
556.53	1728.49
556.73	1773.54
556.92	1705.96
557.12	1814.50
557.32	1791.97
557.51	1904.61
557.71	1777.64
557.90	1828.84
558.10	1843.17
558.30	1615.85
558.49	1794.02
558.69	1722.34
558.88	1675.24
559.08	1740.77
559.28	1742.82
559.47	1662.95
559.67	1796.07
559.86	1806.31
560.06	1718.25
560.26	1710.05
560.45	1734.63
560.65	1658.85
560.84	1851.36
561.04	1662.95
561.24	1767.40
561.43	1755.11
561.63	1806.31
561.82	1800.16
562.02	1687.53
562.22	1675.24
562.41	1685.48
562.61	1685.48
562.80	1730.53
563.00	1869.80
563.19	1798.12
563.39	1712.10
563.59	1785.83
563.78	1667.05
563.98	1654.76
564.17	1742.82
564.37	1705.96
564.56	1751.01
564.76	1564.65
564.96	1865.70
565.15	1755.11
565.35	1789.92
565.54	1712.10
565.74	1808.36
565.93	1744.87
566.13	1732.58
566.32	1695.72
566.52	1814.50
566.71	1675.24
566.91	1796.07
567.11	1697.77
567.30	1683.43
567.50	1796.07
567.69	1796.07
567.89	1652.71
568.08	1681.38
568.28	1726.44
568.47	1689.57
568.67	1742.82
568.86	1720.29
569.06	1849.32
569.25	1746.92
569.45	1755.11
569.64	1681.38
569.84	1753.06
570.04	1769.44
570.23	1671.14
570.43	1730.53
570.62	1755.11
570.82	1853.41
571.01	1611.75
571.21	1667.05
571.40	1703.91
571.60	1826.79
571.79	1777.64
571.99	1697.77
572.18	1730.53
572.38	1771.49
572.57	1695.72
572.77	1800.16
572.96	1853.41
573.16	1708.01
573.35	1726.44
573.55	1820.64
573.74	1757.16
573.94	1779.68
574.13	1761.25
574.33	1804.26
574.52	1771.49
574.71	1636.33
574.91	1775.59
575.10	1671.14
575.30	1705.96
575.49	1693.67
575.69	1615.85
575.88	1769.44
576.08	1671.14
576.27	1744.87
576.47	1830.88
576.66	1798.12
576.86	1802.21
577.05	1726.44
577.25	1736.68
577.44	1873.89
577.64	1740.77
577.83	1787.88
578.02	1771.49
578.22	1806.31
578.41	1873.89
578.61	1685.48
578.80	1613.80
579.00	1794.02
579.19	1779.68
579.39	1796.07
579.58	1748.97
579.77	1691.62
579.97	1828.84
580.16	1828.84
580.36	1769.44
580.55	1820.64
580.75	1804.26
580.94	1785.83
581.13	1867.75
581.33	1808.36
581.52	1683.43
581.72	1929.19
581.91	1898.47
582.11	1701.86
582.30	1812.45
582.49	1748.97
582.69	1880.04
582.88	1777.64
583.08	1808.36
583.27	1787.88
583.47	1789.92
583.66	1837.03
583.85	1683.43
584.05	1751.01
584.24	1779.68
584.44	1681.38
584.63	1746.92
584.82	1806.31
585.02	1877.99
585.21	1853.41
585.41	1804.26
585.60	1802.21
585.79	1974.24
585.99	1834.98
586.18	1914.85
586.37	2125.79
586.57	3213.26
586.76	9836.39
586.96	23645.85
587.15	33119.75
587.34	38864.30
587.54	40572.31
587.73	34967.02
587.93	25183.87
588.12	20889.28
588.31	17594.10
588.51	15910.67
588.70	14464.80
588.89	13563.70
589.09	12197.70
589.28	10751.84
589.47	9138.04
589.67	7862.15
589.86	6311.84
590.06	4845.49
590.25	3819.46
590.44	3112.91
590.64	2570.20
590.83	2195.42
591.02	2088.93
591.22	1961.95
591.41	1914.85
591.60	1759.21
591.80	1990.63
591.99	1769.44
592.18	1748.97
592.38	1755.11
592.57	1740.77
592.76	1839.08
592.96	1798.12
593.15	1785.83
593.34	1875.94
593.54	1738.73
593.73	1767.40
593.92	1740.77
594.12	1820.64
594.31	1781.73
594.50	1820.64
594.70	1861.60
594.89	1892.32
595.08	1736.68
595.28	1746.92
595.47	1900.52
595.66	1767.40
595.86	1681.38
596.05	1742.82
596.24	1726.44
596.43	1789.92
596.63	1857.51
596.82	1730.53
597.01	1759.21
597.21	1830.88
597.40	1748.97
597.59	1791.97
597.79	1748.97
597.98	1787.88
598.17	1808.36
598.36	1697.77
598.56	1757.16
598.75	1669.09
598.94	1699.81
599.14	1753.06
599.33	1691.62
599.52	1763.30
599.71	1785.83
599.91	1781.73
600.10	1718.25
600.29	1751.01
600.48	1736.68
600.68	1728.49
600.87	1746.92
601.06	1791.97
601.26	1724.39
601.45	1753.06
601.64	1757.16
601.83	1896.42
602.03	1685.48
602.22	1599.46
602.41	1781.73
602.60	1898.47
602.80	1818.60
602.99	1777.64
603.18	1685.48
603.37	1708.01
603.57	1705.96
603.76	1810.40
603.95	1781.73
604.14	1783.78
604.34	1644.52
604.53	1716.20
604.72	1765.35
604.91	1789.92
605.10	1751.01
605.30	1673.19
605.49	1931.23
605.68	1732.58
605.87	1742.82
606.07	1611.75
606.26	1722.34
606.45	1779.68
606.64	1726.44
606.84	1687.53
607.03	1720.29
607.22	1779.68
607.41	1689.57
607.60	1695.72
607.80	1816.55
607.99	1771.49
608.18	1740.77
608.37	1808.36
608.56	1634.28
608.76	1783.78
608.95	1787.88
609.14	1824.74
609.33	1775.59
609.52	1802.21
609.72	1859.56
609.91	1765.35
610.10	1679.33
610.29	1855.46
610.48	1734.63
610.68	1773.54
610.87	1759.21
611.06	1781.73
611.25	1755.11
611.44	1837.03
611.63	1771.49
611.83	1841.12
612.02	1589.22
612.21	1789.92
612.40	1644.52
612.59	1712.10
612.79	1695.72
612.98	1642.47
613.17	1767.40
613.36	1718.25
613.55	1847.27
613.74	1701.86
613.93	1716.20
614.13	1730.53
614.32	1736.68
614.51	1744.87
614.70	1728.49
614.89	1652.71
615.08	1751.01
615.28	1992.67
615.47	1703.91
615.66	1693.67
615.85	1748.97
616.04	1771.49
616.23	1695.72
616.42	1828.84
616.62	1732.58
616.81	1744.87
617.00	1720.29
617.19	1732.58
617.38	1708.01
617.57	1771.49
617.76	1701.86
617.95	1695.72
618.15	1765.35
618.34	1822.69
618.53	1667.05
618.72	1716.20
618.91	1832.93
619.10	1837.03
619.29	1773.54
619.48	1636.33
619.68	1646.57
619.87	1748.97
620.06	1693.67
620.25	1755.11
620.44	1662.95
620.63	1718.25
620.82	1714.15
621.01	1720.29
621.20	1710.05
621.39	1697.77
621.59	1714.15
621.78	1673.19
621.97	1742.82
622.16	1740.77
622.35	1751.01
622.54	1783.78
622.73	1767.40
622.92	1689.57
623.11	1753.06
623.30	1781.73
623.49	1789.92
623.68	1798.12
623.88	1781.73
624.07	1740.77
624.26	1722.34
624.45	1722.34
624.64	1720.29
624.83	1763.30
625.02	1718.25
625.21	1812.45
625.40	1687.53
625.59	1863.65
625.78	1695.72
625.97	1724.39
626.16	1746.92
626.35	1820.64
626.54	1720.29
626.74	1861.60
626.93	1697.77
627.12	1808.36
627.31	1742.82
627.50	1712.10
627.69	1738.73
627.88	1714.15
628.07	1753.06
628.26	1697.77
628.45	1683.43
628.64	1722.34
628.83	1738.73
629.02	1685.48
629.21	1779.68
629.40	1681.38
629.59	1667.05
629.78	1693.67
629.97	1726.44
630.16	1689.57
630.35	1681.38
630.54	1679.33
630.73	1636.33
630.92	1775.59
631.11	1763.30
631.30	1720.29
631.49	1703.91
631.68	1677.29
631.87	1755.11
632.06	1634.28
632.25	1830.88
632.44	1619.94
632.63	1755.11
632.82	1708.01
633.01	1648.61
633.20	1767.40
633.39	1744.87
633.58	1617.90
633.77	1724.39
633.96	1753.06
634.15	1742.82
634.34	1818.60
634.53	1771.49
634.72	1685.48
634.91	1624.04
635.10	1789.92
635.29	1804.26
635.48	1708.01
635.67	1681.38
635.86	1630.18
636.05	1845.22
636.24	1644.52
636.43	1742.82
636.62	1779.68
636.81	1558.50
637.00	1720.29
637.19	1740.77
637.38	1642.47
637.57	1679.33
637.76	1710.05
637.95	1748.97
638.14	1701.86
638.33	1728.49
638.52	1658.85
638.71	1757.16
638.89	1751.01
639.08	1865.70
639.27	1728.49
639.46	1624.04
639.65	1779.68
639.84	1714.15
640.03	1820.64
640.22	1691.62
640.41	1794.02
640.60	1693.67
640.79	1697.77
640.98	1703.91
641.17	1732.58
641.36	1736.68
641.55	1783.78
641.74	1710.05
641.92	1656.81
642.11	1648.61
642.30	1675.24
642.49	1642.47
642.68	1699.81
642.87	1689.57
643.06	1773.54
643.25	1714.15
643.44	1734.63
643.63	1791.97
643.82	1722.34
644.00	1701.86
644.19	1732.58
644.38	1644.52
644.57	1703.91
644.76	1712.10
644.95	1662.95
645.14	1763.30
645.33	1667.05
645.52	1689.57
645.71	1691.62
645.89	1689.57
646.08	1732.58
646.27	1701.86
646.46	1814.50
646.65	1660.90
646.84	1718.25
647.03	1599.46
647.22	1781.73
647.40	1726.44
647.59	1720.29
647.78	1648.61
647.97	1720.29
648.16	1701.86
648.35	1755.11
648.54	1742.82
648.73	1679.33
648.91	1757.16
649.10	1771.49
649.29	1650.66
649.48	1779.68
649.67	1710.05
649.86	1724.39
650.05	1630.18
650.23	1744.87
650.42	1681.38
650.61	1771.49
650.80	1722.34
650.99	1816.55
651.18	1755.11
651.36	1714.15
651.55	1728.49
651.74	1781.73
651.93	1720.29
652.12	1656.81
652.31	1683.43
652.49	1710.05
652.68	1714.15
652.87	1714.15
653.06	1748.97
653.25	1785.83
653.44	1748.97
653.62	1800.16
653.81	1683.43
654.00	1714.15
654.19	1734.63
654.38	1888.23
654.56	1693.67
654.75	1681.38
654.94	1746.92
655.13	1681.38
655.32	1769.44
655.51	1765.35
655.69	1710.05
655.88	1796.07
656.07	1599.46
656.26	1755.11
656.45	1630.18
656.63	1751.01
656.82	1769.44
657.01	1800.16
657.20	1675.24
657.38	1814.50
657.57	1681.38
657.76	1654.76
657.95	1781.73
658.14	1761.25
658.32	1755.11
658.51	1640.42
658.70	1662.95
658.89	1726.44
659.08	1742.82
659.26	1806.31
659.45	1640.42
659.64	1679.33
659.83	1732.58
660.01	1902.56
660.20	1785.83
660.39	1781.73
660.58	1591.27
660.76	1763.30
660.95	1617.90
661.14	1689.57
661.33	1642.47
661.51	1669.09
661.70	1662.95
661.89	1824.74
662.08	1718.25
662.26	1740.77
662.45	1677.29
662.64	1791.97
662.83	1681.38
663.01	1615.85
663.20	1691.62
663.39	1804.26
663.58	1697.77
663.76	1779.68
663.95	1728.49
664.14	1648.61
664.32	1656.81
664.51	1660.90
664.70	1673.19
664.89	1726.44
665.07	1687.53
665.26	1746.92
665.45	1669.09
665.64	1730.53
665.82	1761.25
666.01	1708.01
666.20	1734.63
666.38	1837.03
666.57	1787.88
666.76	2181.09
666.95	4433.85
667.13	10096.49
667.32	14798.62
667.51	16989.95
667.69	18448.10
667.88	17010.43
668.07	11999.05
668.25	9138.04
668.44	7874.44
668.63	6959.00
668.81	6825.88
669.00	6152.10
669.19	5609.39
669.38	5040.05
669.56	4478.91
669.75	3835.85
669.94	3276.75
670.12	2865.11
670.31	2488.28
670.50	2217.95
670.68	2031.58
670.87	1861.60
671.06	1814.50
671.24	1734.63
671.43	1814.50
671.62	1810.40
671.80	1693.67
671.99	1746.92
672.18	1744.87
672.36	1783.78
672.55	1730.53
672.74	1740.77
672.92	1662.95
673.11	1718.25
673.29	1669.09
673.48	1722.34
673.67	1652.71
673.85	1708.01
674.04	1679.33
674.23	1710.05
674.41	1783.78
674.60	1705.96
674.79	1671.14
674.97	1644.52
675.16	1685.48
675.34	1839.08
675.53	1728.49
675.72	1746.92
675.90	1812.45
676.09	1667.05
676.28	1734.63
676.46	1591.27
676.65	1726.44
676.83	1640.42
677.02	1648.61
677.21	1755.11
677.39	1755.11
677.58	1701.86
677.77	1687.53
677.95	1726.44
678.14	1716.20
678.32	1712.10
678.51	1650.66
678.70	1789.92
678.88	1703.91
679.07	1710.05
679.25	1667.05
679.44	1732.58
679.63	1605.61
679.81	1728.49
680.00	1806.31
680.18	1779.68
680.37	1785.83
680.55	1746.92
680.74	1636.33
680.93	1665.00
681.11	1652.71
681.30	1683.43
681.48	1767.40
681.67	1765.35
681.85	1746.92
682.04	1671.14
682.23	1744.87
682.41	1738.73
682.60	1730.53
682.78	1732.58
682.97	1642.47
683.15	1777.64
683.34	1695.72
683.53	1738.73
683.71	1683.43
683.90	1800.16
684.08	1787.88
684.27	1669.09
684.45	1761.25
684.64	1802.21
684.82	1748.97
685.01	1755.11
685.19	1705.96
685.38	1732.58
685.57	1652.71
685.75	1660.90
685.94	1656.81
686.12	1730.53
686.31	1714.15
686.49	1765.35
686.68	1624.04
686.86	1665.00
687.05	1714.15
687.23	1853.41
687.42	1636.33
687.60	1675.24
687.79	1763.30
687.97	1798.12
688.16	1802.21
688.34	1765.35
688.53	1683.43
688.71	1755.11
688.90	1708.01
689.08	1751.01
689.27	1581.03
689.45	1773.54
689.64	1816.55
689.82	1740.77
690.01	1734.63
690.19	1687.53
690.38	1673.19
690.56	1763.30
690.75	1630.18
690.93	1665.00
691.12	1671.14
691.30	1697.77
691.49	1654.76
691.67	1689.57
691.86	1785.83
692.04	1648.61
692.23	1683.43
692.41	1638.38
692.60	1765.35
692.78	1769.44
692.97	1695.72
693.15	1746.92
693.34	1804.26
693.52	1753.06
693.71	1685.48
693.89	1675.24
694.08	1652.71
694.26	1722.34
694.44	1699.81
694.63	1796.07
694.81	1687.53
695.00	1652.71
695.18	1740.77
695.37	1775.59
695.55	1759.21
695.74	1701.86
695.92	1630.18
696.10	1771.49
696.29	1638.38
696.47	1673.19
696.66	1714.15
696.84	1550.31
697.03	1718.25
697.21	1824.74
697.40	2236.38
697.58	1755.11
697.76	1712.10
697.95	1730.53
698.13	1630.18
698.32	1634.28
698.50	1695.72
698.68	1705.96
698.87	1794.02
699.05	1812.45
699.24	1779.68
699.42	1675.24
699.61	1685.48
699.79	1736.68
699.97	1726.44
700.16	1712.10
700.34	1660.90
700.53	1705.96
700.71	1839.08
700.89	1705.96
701.08	1724.39
701.26	1679.33
701.45	2105.31
701.63	1675.24
701.81	1681.38
702.00	1626.09
702.18	1628.14
702.37	1675.24
702.55	1730.53
702.73	1603.56
702.92	1636.33
703.10	1757.16
703.28	1640.42
703.47	1626.09
703.65	1722.34
703.84	1771.49
704.02	1644.52
704.20	1722.34
704.39	1695.72
704.57	1769.44
704.75	1800.16
704.94	1714.15
705.12	1773.54
705.30	1714.15
705.49	2330.59
705.67	4263.87
705.86	8947.58
706.04	12015.43
706.22	13965.10
706.41	14708.51
706.59	13178.68
706.77	9281.39
706.96	7227.28
707.14	6170.53
707.32	5756.84
707.51	5361.58
707.69	4689.85
707.87	4122.56
708.06	3401.68
708.24	2936.79
708.42	2351.07
708.61	2279.39
708.79	1853.41
708.97	1822.69
709.16	1828.84
709.34	1834.98
709.52	1689.57
709.71	1746.92
709.89	1705.96
710.07	1660.90
710.26	1660.90
710.44	1705.96
710.62	1771.49
710.80	1710.05
710.99	1757.16
711.17	1736.68
711.35	1660.90
711.54	1648.61
711.72	1894.37
711.90	1787.88
712.09	1703.91
712.27	1667.05
712.45	1730.53
712.63	1677.29
712.82	1759.21
713.00	1701.86
713.18	1744.87
713.37	1761.25
713.55	1742.82
713.73	1710.05
713.91	1746.92
714.10	1685.48
714.28	1636.33
714.46	1683.43
714.65	1761.25
714.83	1703.91
715.01	1769.44
715.19	1806.31
715.38	1708.01
715.56	1755.11
715.74	1630.18
715.92	1710.05
716.11	1830.88
716.29	1642.47
716.47	1681.38
716.65	1710.05
716.84	1679.33
717.02	1765.35
717.20	1650.66
717.38	1685.48
717.57	1751.01
717.75	1689.57
717.93	1599.46
718.11	1708.01
718.30	1699.81
718.48	1767.40
718.66	1822.69
718.84	1753.06
719.03	1673.19
719.21	1736.68
719.39	1738.73
719.57	1748.97
719.75	1683.43
719.94	1593.32
720.12	1660.90
720.30	1748.97
720.48	1636.33
720.67	1667.05
720.85	1658.85
721.03	1667.05
721.21	1703.91
721.39	1767.40
721.58	1685.48
721.76	1783.78
721.94	1826.79
722.12	1687.53
722.30	1769.44
722.49	1714.15
722.67	1746.92
722.85	1738.73
723.03	1650.66
723.21	1699.81
723.40	1730.53
723.58	1857.51
723.76	1794.02
723.94	1808.36
724.12	1701.86
724.30	1697.77
724.49	1767.40
724.67	1652.71
724.85	1775.59
725.03	1626.09
725.21	1712.10
725.40	1775.59
725.58	1687.53
725.76	1806.31
725.94	1714.15
726.12	1607.66
726.30	1742.82
726.49	1703.91
726.67	1681.38
726.85	1730.53
727.03	1837.03
727.21	2093.02
727.39	2811.86
727.57	3854.28
727.76	4052.93
727.94	4319.17
728.12	4231.10
728.30	3729.35
728.48	2893.78
728.66	2764.76
728.84	2539.48
729.03	2303.96
729.21	2060.26
729.39	1941.47
729.57	1763.30
729.75	1820.64
729.93	1824.74
730.11	1708.01
730.30	1701.86
730.48	1720.29
730.66	1779.68
730.84	1763.30
731.02	1742.82
731.20	1740.77
731.38	1662.95
731.56	1628.14
731.74	1660.90
731.93	1755.11
732.11	1714.15
732.29	1738.73
732.47	1683.43
732.65	1804.26
732.83	1806.31
733.01	1656.81
733.19	1691.62
733.37	1691.62
733.56	1767.40
733.74	1746.92
733.92	1781.73
734.10	1683.43
734.28	1703.91
734.46	1665.00
734.64	1626.09
734.82	1726.44
735.00	1687.53
735.18	1656.81
735.36	1681.38
735.54	1718.25
735.73	1701.86
735.91	1708.01
736.09	1751.01
736.27	1693.67
736.45	1763.30
736.63	1593.32
736.81	1687.53
736.99	1726.44
737.17	1771.49
737.35	1730.53
737.53	1683.43
737.71	1703.91
737.89	1732.58
738.07	1703.91
738.25	1605.61
738.43	1626.09
738.61	1755.11
738.80	1654.76
738.98	1583.08
739.16	1683.43
739.34	1640.42
739.52	1767.40
739.70	1708.01
739.88	1757.16
740.06	1746.92
740.24	1697.77
740.42	1779.68
740.60	1603.56
740.78	1710.05
740.96	1621.99
741.14	1683.43
741.32	1720.29
741.50	1683.43
741.68	1847.27
741.86	1785.83
742.04	1673.19
742.22	1685.48
742.40	1660.90
742.58	1744.87
742.76	1656.81
742.94	1767.40
743.12	1585.13
743.30	1632.23
743.48	1728.49
743.66	1626.09
743.84	1765.35
744.02	1638.38
744.20	1685.48
744.38	1695.72
744.56	1658.85
744.74	1783.78
744.92	1710.05
745.10	1830.88
745.28	1689.57
745.46	1837.03
745.64	1714.15
745.82	1726.44
746.00	1728.49
746.18	1640.42
746.36	1681.38
746.54	1703.91
746.72	1718.25
746.90	1665.00
747.08	1781.73
747.26	1683.43
747.44	1705.96
747.62	1769.44
747.80	1720.29
747.98	1869.80
748.15	1722.34
748.33	1796.07
748.51	1683.43
748.69	1697.77
748.87	1730.53
749.05	1710.05
749.23	1714.15
749.41	1708.01
749.59	1759.21
749.77	1748.97
749.95	1718.25
750.13	1720.29
750.31	1697.77
750.49	1642.47
750.67	1787.88
750.85	1824.74
751.03	1708.01
751.20	1740.77
751.38	1701.86
751.56	1701.86
751.74	1681.38
751.92	1732.58
752.10	1652.71
752.28	1812.45
752.46	1755.11
752.64	1712.10
752.82	1759.21
753.00	1712.10
753.18	1679.33
753.35	1738.73
753.53	1755.11
753.71	1703.91
753.89	1724.39
754.07	1714.15
754.25	1765.35
754.43	1718.25
754.61	1658.85
754.79	1753.06
754.97	1644.52
755.14	1773.54
755.32	1669.09
755.50	1654.76
755.68	1697.77
755.86	1710.05
756.04	1667.05
756.22	1599.46
756.40	1773.54
756.57	1800.16
756.75	1695.72
756.93	1734.63
757.11	1734.63
757.29	1697.77
757.47	1597.42
757.65	1624.04
757.82	1646.57
758.00	1660.90
758.18	1644.52
758.36	1691.62
758.54	1759.21
758.72	1605.61
758.90	1826.79
759.07	1746.92
759.25	1662.95
759.43	1773.54
759.61	1671.14
759.79	2254.81
759.97	1732.58
760.15	1748.97
760.32	1658.85
760.50	1726.44
760.68	1730.53
760.86	1636.33
761.04	1738.73
761.22	1744.87
761.39	1816.55
761.57	1738.73
761.75	1658.85
761.93	1677.29
762.11	1677.29
762.28	1708.01
762.46	1681.38
762.64	1730.53
762.82	1607.66
763.00	1679.33
763.18	1800.16
763.35	1685.48
763.53	1771.49
763.71	1693.67
763.89	1701.86
764.07	1710.05
764.24	1765.35
764.42	1714.15
764.60	1656.81
764.78	1714.15
764.96	1738.73
765.13	1689.57
765.31	1677.29
765.49	1687.53
765.67	1734.63
765.84	1609.70
766.02	1660.90
766.20	1578.98
766.38	1740.77
766.56	1728.49
766.73	1810.40
766.91	1728.49
767.09	1693.67
767.27	1798.12
767.44	1699.81
767.62	1716.20
767.80	1763.30
767.98	1695.72
768.15	1650.66
768.33	1726.44
768.51	1796.07
768.69	1746.92
768.87	1746.92
769.04	1708.01
769.22	1832.93
769.40	1746.92
769.58	1820.64
769.75	1771.49
769.93	1785.83
770.11	1650.66
770.28	1697.77
770.46	1738.73
770.64	1740.77
770.82	1624.04
770.99	1640.42
771.17	1691.62
771.35	1595.37
771.53	1705.96
771.70	1646.57
771.88	1665.00
772.06	1705.96
772.23	1615.85
772.41	1763.30
772.59	1683.43
772.77	1587.18
772.94	1701.86
773.12	1775.59
773.30	1652.71
773.47	1695.72
773.65	1640.42
773.83	1814.50
774.01	1724.39
774.18	1583.08
774.36	1658.85
774.54	1697.77
774.71	1660.90
774.89	1646.57
775.07	1679.33
775.24	1671.14
775.42	1658.85
775.60	1814.50
775.78	1640.42
775.95	1658.85
776.13	1691.62
776.31	1634.28
776.48	1724.39
776.66	1751.01
776.84	1679.33
777.01	1683.43
777.19	1730.53
777.37	1640.42
777.54	1624.04
777.72	1765.35
777.90	1714.15
778.07	1652.71
778.25	1841.12
778.43	1791.97
778.60	1677.29
778.78	1738.73
778.96	1748.97
779.13	1636.33
779.31	1728.49
779.49	1636.33
779.66	1726.44
779.84	1697.77
780.01	1714.15
780.19	1705.96
780.37	1757.16
780.54	1730.53
780.72	1642.47
780.90	1708.01
781.07	1683.43
781.25	1648.61
781.43	1685.48
781.60	1722.34
781.78	1726.44
781.95	1654.76
782.13	1730.53
782.31	1759.21
782.48	1587.18
782.66	1687.53
782.83	1820.64
783.01	1746.92
783.19	1685.48
783.36	1714.15
783.54	1630.18
783.72	1746.92
783.89	1748.97
784.07	1677.29
784.24	1685.48
784.42	1806.31
784.60	1699.81
784.77	1759.21
784.95	1615.85
785.12	1638.38
785.30	1710.05
785.47	1615.85
785.65	1675.24
785.83	1650.66
786.00	1677.29
786.18	1689.57
786.35	1648.61
786.53	1683.43
786.71	1705.96
786.88	1667.05
787.06	1708.01
787.23	1699.81
787.41	1613.80
787.58	1740.77
787.76	1617.90
787.94	1685.48
788.11	1708.01
788.29	1560.55
788.46	1671.14
788.64	1628.14
788.81	1742.82
788.99	1617.90
789.16	1732.58
789.34	1697.77
789.52	1642.47
789.69	1660.90
789.87	1581.03
790.04	1652.71
790.22	1710.05
790.39	1869.80
790.57	1630.18
790.74	1630.18
790.92	1705.96
791.09	1626.09
791.27	1769.44
791.44	1728.49
791.62	1658.85
791.79	1773.54
791.97	1669.09
792.15	1863.65
792.32	1693.67
792.50	1746.92
792.67	1781.73
792.85	1767.40
793.02	1703.91
793.20	1738.73
793.37	1683.43
793.55	1685.48
793.72	1648.61
793.90	1736.68
794.07	1667.05
794.25	1617.90
794.42	1701.86
794.60	1736.68
794.77	1763.30
794.95	1798.12
795.12	1724.39
795.30	1660.90
795.47	1587.18
795.65	1863.65
795.82	1718.25
796.00	1748.97
796.17	1687.53
796.34	1632.23
796.52	1708.01
796.69	1712.10
796.87	1734.63
797.04	1665.00
797.22	1820.64
797.39	1724.39
797.57	1816.55
797.74	1718.25
797.92	1804.26
798.09	1744.87
798.27	1763.30
798.44	1699.81
798.62	1748.97
798.79	1730.53
798.96	1716.20
799.14	1728.49
799.31	1845.22
799.49	1654.76
799.66	1648.61
799.84	1794.02
800.01	1619.94
800.19	1642.47
800.36	1646.57
800.53	1738.73
800.71	1667.05
800.88	1753.06
801.06	1761.25
801.23	1673.19
801.41	1669.09
801.58	1601.51
801.75	1619.94
801.93	1738.73
802.10	1773.54
802.28	1689.57
802.45	1669.09
802.63	1777.64
802.80	1773.54
802.97	1626.09
803.15	1705.96
803.32	1626.09
803.50	1662.95
803.67	1593.32
803.84	1705.96
804.02	1656.81
804.19	1675.24
804.37	1564.65
804.54	1603.56
804.71	1673.19
804.89	1648.61
805.06	1640.42
805.24	1654.76
805.41	1636.33
805.58	1730.53
805.76	1806.31
805.93	1677.29
806.10	1769.44
806.28	1710.05
806.45	1710.05
806.63	1710.05
806.80	1738.73
806.97	1667.05
807.15	1740.77
807.32	1701.86
807.49	1683.43
807.67	1644.52
807.84	1814.50
808.01	1632.23
808.19	1781.73
808.36	1896.42
808.54	1693.67
808.71	1634.28
808.88	1697.77
809.06	1720.29
809.23	1712.10
809.40	1644.52
809.58	1787.88
809.75	1724.39
809.92	1634.28
810.10	1918.95
810.27	1705.96
810.44	1703.91
810.62	1755.11
810.79	1736.68
810.96	1714.15
811.14	1693.67
811.31	1701.86
811.48	1720.29
811.66	1722.34
811.83	1728.49
812.00	1746.92
812.18	1691.62
812.35	1867.75
812.52	1716.20
812.69	1677.29
812.87	1689.57
813.04	1730.53
813.21	1624.04
813.39	1746.92
813.56	1628.14
813.73	1716.20
813.91	1644.52
814.08	1746.92
814.25	1679.33
814.42	1665.00
814.60	1665.00
814.77	1718.25
814.94	1624.04
815.12	1658.85
815.29	1781.73
815.46	1669.09
815.63	1679.33
815.81	1765.35
815.98	1667.05
816.15	1708.01
816.33	1667.05
816.50	1746.92
816.67	1669.09
816.84	1753.06
817.02	1611.75
817.19	1660.90
817.36	1654.76
817.53	1720.29
817.71	1632.23
817.88	1734.63
818.05	1673.19
818.22	1718.25
818.40	1759.21
818.57	1712.10
818.74	1759.21
818.91	1658.85
819.09	1734.63
819.26	1724.39
819.43	1619.94
819.60	1685.48
819.78	1734.63
819.95	1839.08
820.12	1693.67
820.29	1767.40
820.47	1736.68
820.64	1568.74
820.81	1599.46
820.98	1689.57
821.15	1689.57
821.33	1740.77
821.50	1576.94
821.67	1697.77
821.84	1710.05
822.02	1769.44
822.19	1718.25
822.36	1648.61
822.53	1685.48
822.70	1683.43
822.88	1665.00
823.05	1720.29
823.22	1677.29
823.39	1732.58
823.56	1693.67
823.74	1804.26
823.91	1640.42
824.08	1634.28
824.25	1613.80
824.42	1806.31
824.60	1591.27
824.77	1687.53
824.94	1685.48
825.11	1699.81
825.28	1605.61
825.45	1689.57
825.63	1724.39
825.80	1587.18
825.97	1718.25
826.14	1716.20
826.31	1599.46
826.48	1720.29
826.66	1628.14
826.83	1742.82
827.00	1740.77
827.17	1671.14
827.34	1703.91
827.51	1624.04
827.69	1773.54
827.86	1585.13
828.03	1687.53
828.20	1732.58
828.37	1632.23
828.54	1742.82
828.71	1665.00
828.89	1775.59
829.06	1720.29
829.23	1740.77
829.40	1581.03
829.57	1658.85
829.74	1705.96
829.91	1701.86
830.09	1656.81
830.26	1775.59
830.43	1796.07
830.60	1648.61
830.77	1708.01
830.94	1765.35
831.11	1722.34
831.28	1710.05
831.46	1826.79
831.63	1665.00
831.80	1767.40
831.97	1734.63
832.14	1705.96
832.31	1722.34
832.48	1683.43
832.65	1693.67
832.82	1667.05
832.99	1787.88
833.17	1652.71
833.34	1816.55
833.51	1783.78
833.68	1603.56
833.85	1814.50
834.02	1652.71
834.19	1667.05
834.36	1613.80
834.53	1656.81
834.70	1785.83
834.87	1726.44
835.04	1755.11
835.22	1595.37
835.39	1710.05
835.56	1591.27
835.73	1693.67
835.90	1693.67
836.07	1724.39
836.24	1656.81
836.41	1669.09
836.58	1675.24
836.75	1775.59
836.92	1734.63
837.09	1667.05
837.26	1742.82
837.43	1791.97
837.60	1753.06
837.77	1650.66
837.94	1775.59
838.12	1746.92
838.29	1677.29
838.46	1605.61
838.63	1634.28
838.80	1740.77
838.97	1675.24
839.14	1708.01
839.31	1654.76
839.48	1771.49
839.65	1677.29
839.82	1812.45
839.99	1710.05
840.16	1693.67
840.33	1730.53
840.50	1703.91
840.67	1662.95
840.84	1609.70
841.01	1685.48
841.18	1683.43
841.35	1658.85
841.52	1738.73
841.69	1865.70
841.86	1669.09
842.03	1619.94
842.20	1718.25
842.37	1671.14
842.54	1689.57
842.71	1716.20
842.88	1611.75
843.05	1718.25
843.22	1679.33
843.39	1708.01
843.56	1644.52
843.73	1806.31
843.90	1650.66
844.07	1708.01
844.24	1718.25
844.41	1722.34
844.58	1705.96
844.75	1626.09
844.92	1701.86
845.09	1687.53
845.26	1609.70
845.43	1662.95
845.60	1601.51
845.77	1695.72
845.94	1722.34
846.10	1761.25
846.27	1632.23
846.44	1636.33
846.61	1626.09
846.78	1779.68
846.95	1720.29
847.12	1710.05
847.29	1730.53
847.46	1699.81
847.63	1734.63
847.80	1671.14
847.97	1703.91
848.14	1824.74
848.31	1755.11
848.48	1611.75
848.65	1724.39
848.82	1640.42
848.98	1816.55
849.15	1785.83
849.32	1832.93
849.49	1816.55
849.66	1781.73
849.83	1783.78
850.00	1665.00
850.17	1777.64
850.34	1662.95
850.51	1773.54
850.68	1697.77
850.85	1787.88
851.01	1691.62
851.18	1667.05
851.35	1730.53
851.52	1728.49
851.69	1751.01
851.86	1605.61
852.03	1658.85
852.20	1804.26
852.37	1724.39
852.53	1626.09
852.70	1621.99
852.87	1753.06
853.04	1712.10
853.21	1703.91
853.38	1701.86
853.55	1746.92
853.72	1771.49
853.89	1703.91
854.05	1634.28
854.22	1679.33
854.39	1650.66
854.56	1740.77
854.73	1785.83
854.90	1636.33
855.07	1734.63
855.23	1697.77
855.40	1671.14
855.57	1708.01
855.74	1632.23
855.91	1910.75
856.08	1660.90
856.25	1732.58
856.41	1591.27
856.58	1687.53
856.75	1755.11
856.92	1646.57
857.09	1757.16
857.26	1626.09
857.42	1697.77
857.59	1669.09
857.76	1615.85
857.93	1693.67
858.10	1615.85
858.27	1644.52
858.43	1644.52
858.60	1578.98
858.77	1589.22
858.94	1683.43
859.11	1736.68
859.27	1630.18
859.44	1673.19
859.61	1812.45
859.78	1734.63
859.95	1710.05
860.12	1636.33
860.28	1787.88
860.45	1761.25
860.62	1728.49
860.79	1685.48
860.95	1744.87
861.12	1697.77
861.29	1656.81
861.46	1759.21
861.63	1634.28
861.79	1724.39
861.96	1669.09
862.13	1640.42
862.30	1705.96
862.47	1648.61
862.63	1650.66
862.80	1765.35
862.97	1667.05
863.14	1683.43
863.30	1703.91
863.47	1638.38
863.64	1708.01
863.81	1703.91
863.97	1607.66
864.14	1654.76
864.31	1710.05
864.48	1697.77
864.65	1665.00
864.81	1671.14
864.98	1781.73
865.15	1740.77
865.32	1804.26
865.48	1751.01
865.65	1683.43
865.82	1605.61
865.98	1755.11
866.15	1736.68
866.32	1669.09
866.49	1734.63
866.65	1722.34
866.82	1744.87
866.99	1644.52
867.16	1648.61
867.32	1726.44
867.49	1644.52
867.66	1761.25
867.83	1656.81
867.99	1619.94
868.16	1738.73
868.33	1587.18
868.49	1710.05
868.66	1687.53
868.83	1689.57
868.99	1677.29
869.16	1714.15
869.33	1695.72
869.50	1714.15
869.66	1656.81
869.83	1675.24
870.00	1611.75
870.16	1785.83
870.33	1677.29
870.50	1779.68
870.66	1726.44
870.83	1738.73
871.00	1697.77
871.17	1746.92
871.33	1718.25
871.50	1679.33
871.67	1720.29
871.83	1615.85
872.00	1800.16
872.17	1574.89
872.33	1753.06
872.50	1775.59
872.67	1718.25
872.83	1734.63
873.00	1775.59
873.17	1697.77
873.33	1703.91
873.50	1765.35
873.67	1677.29
873.83	1746.92
874.00	1669.09
874.16	1804.26
874.33	1703.91
874.50	1681.38
874.66	1765.35
874.83	1667.05
875.00	1759.21
875.16	1787.88
875.33	1769.44
875.50	1665.00
875.66	1718.25
875.83	1665.00
875.99	1736.68
876.16	1689.57
876.33	1642.47
876.49	1644.52
876.66	1697.77
876.83	1630.18
876.99	1658.85
877.16	1761.25
877.32	1695.72
877.49	1675.24
877.66	1769.44
877.82	1738.73
877.99	1791.97
878.15	1814.50
878.32	1705.96
878.49	1714.15
878.65	1644.52
878.82	1880.04
878.98	1642.47
879.15	1816.55
879.32	1779.68
879.48	1775.59
879.65	1673.19
879.81	1681.38
879.98	1652.71
880.15	1751.01
880.31	1705.96
880.48	1599.46
880.64	1695.72
880.81	1669.09
880.97	1775.59
881.14	1755.11
881.31	1669.09
881.47	1849.32
881.64	1701.86
881.80	1568.74
881.97	1736.68
882.13	1734.63
882.30	1595.37
882.47	1624.04
882.63	1728.49
882.80	1648.61
882.96	1712.10
883.13	1742.82
883.29	1712.10
883.46	1697.77
883.62	1767.40
883.79	1693.67
883.95	1818.60
884.12	1728.49
884.29	1703.91
884.45	1619.94
884.62	1722.34
884.78	1648.61
884.95	1814.50
885.11	1746.92
885.28	1783.78
885.44	1656.81
885.61	1693.67
885.77	1794.02
885.94	1726.44
886.10	1789.92
886.27	1660.90
886.43	1804.26
886.60	1722.34
886.76	1644.52
886.93	1638.38
887.09	1697.77
887.26	1595.37
887.42	1751.01
887.59	1775.59
887.75	1853.41
887.92	1828.84
888.08	1798.12
888.25	1822.69
888.41	1769.44
888.58	1699.81
888.74	1589.22
888.91	1679.33
>>>>>End Processed Spectral Data<<<<<
