SpectraSuite Data File
++++++++++++++++++++++++++++++++++++
Date: Mon Jun 06 13:56:57 CEST 2016
User: root
Dark Spectrum Present: No
Reference Spectrum Present: No
Number of Sampled Component Spectra: 1
Spectrometers: USB4C02835
Integration Time (usec): 100000 (USB4C02835)
Spectra Averaged: 1 (USB4C02835)
Boxcar Smoothing: 0 (USB4C02835)
Correct for Electrical Dark: No (USB4C02835)
Strobe/Lamp Enabled: No (USB4C02835)
Correct for Detector Non-linearity: No (USB4C02835)
Correct for Stray Light: No (USB4C02835)
Number of Pixels in Processed Spectrum: 3648
>>>>>Begin Processed Spectral Data<<<<<
177.47	1427.43
177.69	1427.43
177.91	1427.43
178.13	1492.97
178.36	1433.58
178.58	1646.57
178.80	1689.57
179.02	1570.79
179.24	1687.53
179.46	1720.29
179.68	1804.26
179.90	1744.87
180.13	1634.28
180.35	1634.28
180.57	1732.58
180.79	1734.63
181.01	1730.53
181.23	1716.20
181.45	1816.55
181.67	1705.96
181.90	1783.78
182.12	1693.67
182.34	1566.70
182.56	1740.77
182.78	1689.57
183.00	1759.21
183.22	1769.44
183.44	1583.08
183.66	1812.45
183.89	1796.07
184.11	1722.34
184.33	1718.25
184.55	1740.77
184.77	1660.90
184.99	1714.15
185.21	1769.44
185.43	1822.69
185.65	1607.66
185.87	1683.43
186.10	1818.60
186.32	1857.51
186.54	1699.81
186.76	1652.71
186.98	1775.59
187.20	1677.29
187.42	1681.38
187.64	1675.24
187.86	1736.68
188.08	1660.90
188.30	1730.53
188.52	1714.15
188.75	1800.16
188.97	1787.88
189.19	1652.71
189.41	1720.29
189.63	1669.09
189.85	1675.24
190.07	1708.01
190.29	1595.37
190.51	1740.77
190.73	1634.28
190.95	1812.45
191.17	1740.77
191.39	1667.05
191.61	1611.75
191.84	1650.66
192.06	1687.53
192.28	1654.76
192.50	1847.27
192.72	1714.15
192.94	1732.58
193.16	1755.11
193.38	1718.25
193.60	1628.14
193.82	1681.38
194.04	1761.25
194.26	1681.38
194.48	1718.25
194.70	1638.38
194.92	1660.90
195.14	1636.33
195.36	1615.85
195.58	1681.38
195.80	1648.61
196.02	1648.61
196.24	1730.53
196.46	1722.34
196.69	1701.86
196.91	1841.12
197.13	1632.23
197.35	1624.04
197.57	1755.11
197.79	1740.77
198.01	1683.43
198.23	1626.09
198.45	1718.25
198.67	1628.14
198.89	1660.90
199.11	1701.86
199.33	1660.90
199.55	1542.12
199.77	1712.10
199.99	1714.15
200.21	1728.49
200.43	1814.50
200.65	1587.18
200.87	1611.75
201.09	1730.53
201.31	1665.00
201.53	1742.82
201.75	1695.72
201.97	1755.11
202.19	1671.14
202.41	1746.92
202.63	1873.89
202.85	1667.05
203.07	1728.49
203.29	1667.05
203.51	1677.29
203.73	1744.87
203.95	1812.45
204.17	1652.71
204.39	1710.05
204.61	1710.05
204.83	1615.85
205.05	1765.35
205.27	1701.86
205.49	1820.64
205.71	1714.15
205.93	1669.09
206.15	1660.90
206.37	1787.88
206.59	1722.34
206.81	1587.18
207.03	1578.98
207.25	1650.66
207.47	1714.15
207.69	1720.29
207.91	1802.21
208.13	1832.93
208.34	1646.57
208.56	1687.53
208.78	1685.48
209.00	1660.90
209.22	1681.38
209.44	1757.16
209.66	1591.27
209.88	1681.38
210.10	1685.48
210.32	1634.28
210.54	1804.26
210.76	1708.01
210.98	1724.39
211.20	1554.41
211.42	1781.73
211.64	1732.58
211.86	1748.97
212.08	1761.25
212.30	1769.44
212.52	1638.38
212.74	1611.75
212.96	1677.29
213.17	1775.59
213.39	1724.39
213.61	1798.12
213.83	1716.20
214.05	1644.52
214.27	1755.11
214.49	1705.96
214.71	1644.52
214.93	1771.49
215.15	1644.52
215.37	1691.62
215.59	1574.89
215.81	1714.15
216.03	1775.59
216.24	1716.20
216.46	1652.71
216.68	1687.53
216.90	1763.30
217.12	1681.38
217.34	1683.43
217.56	1722.34
217.78	1724.39
218.00	1687.53
218.22	1783.78
218.44	1660.90
218.66	1677.29
218.87	1820.64
219.09	1751.01
219.31	1730.53
219.53	1693.67
219.75	1630.18
219.97	1685.48
220.19	1761.25
220.41	1648.61
220.63	1738.73
220.85	1761.25
221.06	1632.23
221.28	1744.87
221.50	1677.29
221.72	1746.92
221.94	1742.82
222.16	1667.05
222.38	1744.87
222.60	1777.64
222.82	1697.77
223.03	1705.96
223.25	1703.91
223.47	1734.63
223.69	1810.40
223.91	1726.44
224.13	1681.38
224.35	1708.01
224.57	1740.77
224.78	1746.92
225.00	1656.81
225.22	1765.35
225.44	1710.05
225.66	1714.15
225.88	1681.38
226.10	1757.16
226.32	1718.25
226.53	1869.80
226.75	1662.95
226.97	1624.04
227.19	1697.77
227.41	1660.90
227.63	1765.35
227.85	1589.22
228.06	1742.82
228.28	1660.90
228.50	1736.68
228.72	1624.04
228.94	1689.57
229.16	1626.09
229.37	1636.33
229.59	1605.61
229.81	1810.40
230.03	1681.38
230.25	1638.38
230.47	1615.85
230.69	1755.11
230.90	1746.92
231.12	1697.77
231.34	1710.05
231.56	1722.34
231.78	1617.90
232.00	1650.66
232.21	1652.71
232.43	1718.25
232.65	1626.09
232.87	1726.44
233.09	1708.01
233.30	1679.33
233.52	1744.87
233.74	1722.34
233.96	1728.49
234.18	1730.53
234.40	1716.20
234.61	1802.21
234.83	1656.81
235.05	1619.94
235.27	1800.16
235.49	1748.97
235.70	1675.24
235.92	1738.73
236.14	1714.15
236.36	1871.84
236.58	1656.81
236.79	1718.25
237.01	1718.25
237.23	1714.15
237.45	1822.69
237.67	1626.09
237.88	1730.53
238.10	1796.07
238.32	1662.95
238.54	1712.10
238.76	1697.77
238.97	1671.14
239.19	1648.61
239.41	1798.12
239.63	1746.92
239.85	1714.15
240.06	1689.57
240.28	1703.91
240.50	1767.40
240.72	1744.87
240.93	1734.63
241.15	1753.06
241.37	1671.14
241.59	1787.88
241.81	1712.10
242.02	1703.91
242.24	1730.53
242.46	1728.49
242.68	1703.91
242.89	1734.63
243.11	1746.92
243.33	1669.09
243.55	1677.29
243.76	1705.96
243.98	1581.03
244.20	1746.92
244.42	1648.61
244.64	1638.38
244.85	1542.12
245.07	1609.70
245.29	1732.58
245.51	1705.96
245.72	1800.16
245.94	1697.77
246.16	1726.44
246.38	1744.87
246.59	1626.09
246.81	1759.21
247.03	1642.47
247.24	1630.18
247.46	1626.09
247.68	1708.01
247.90	1650.66
248.11	1628.14
248.33	1789.92
248.55	1722.34
248.77	1757.16
248.98	1705.96
249.20	1787.88
249.42	1607.66
249.64	1687.53
249.85	1654.76
250.07	1703.91
250.29	1755.11
250.50	1789.92
250.72	1632.23
250.94	1726.44
251.16	1794.02
251.37	1726.44
251.59	1779.68
251.81	1740.77
252.02	1775.59
252.24	1730.53
252.46	1679.33
252.68	1722.34
252.89	1685.48
253.11	1634.28
253.33	1742.82
253.54	1710.05
253.76	1638.38
253.98	1607.66
254.20	1683.43
254.41	1654.76
254.63	1730.53
254.85	1691.62
255.06	1726.44
255.28	1779.68
255.50	1716.20
255.71	1646.57
255.93	1605.61
256.15	1658.85
256.36	1724.39
256.58	1648.61
256.80	1744.87
257.02	1691.62
257.23	1681.38
257.45	1728.49
257.67	1785.83
257.88	1695.72
258.10	1757.16
258.32	1665.00
258.53	1662.95
258.75	1765.35
258.97	1648.61
259.18	1720.29
259.40	1675.24
259.62	1783.78
259.83	1794.02
260.05	1720.29
260.27	1937.38
260.48	1716.20
260.70	1658.85
260.92	1689.57
261.13	1685.48
261.35	1730.53
261.57	1714.15
261.78	1581.03
262.00	1630.18
262.22	1738.73
262.43	1662.95
262.65	1603.56
262.86	1714.15
263.08	1843.17
263.30	1701.86
263.51	1703.91
263.73	1632.23
263.95	1699.81
264.16	1660.90
264.38	1710.05
264.60	1734.63
264.81	1636.33
265.03	1755.11
265.25	1761.25
265.46	1626.09
265.68	1820.64
265.89	1714.15
266.11	1554.41
266.33	1830.88
266.54	1804.26
266.76	1691.62
266.98	1673.19
267.19	1789.92
267.41	1695.72
267.62	1773.54
267.84	1638.38
268.06	1695.72
268.27	1703.91
268.49	1734.63
268.70	1759.21
268.92	1718.25
269.14	1640.42
269.35	1681.38
269.57	1710.05
269.79	1748.97
270.00	1611.75
270.22	1751.01
270.43	1662.95
270.65	1597.42
270.87	1634.28
271.08	1705.96
271.30	1765.35
271.51	1673.19
271.73	1802.21
271.95	1773.54
272.16	1734.63
272.38	1740.77
272.59	1701.86
272.81	1730.53
273.02	1734.63
273.24	1714.15
273.46	1740.77
273.67	1681.38
273.89	1628.14
274.10	1669.09
274.32	1757.16
274.54	1779.68
274.75	1646.57
274.97	1677.29
275.18	1751.01
275.40	1689.57
275.61	1728.49
275.83	1761.25
276.05	1720.29
276.26	1630.18
276.48	1814.50
276.69	1644.52
276.91	1628.14
277.12	1802.21
277.34	1753.06
277.55	1775.59
277.77	1714.15
277.99	1660.90
278.20	1673.19
278.42	1628.14
278.63	1640.42
278.85	1681.38
279.06	1615.85
279.28	1757.16
279.49	1740.77
279.71	1708.01
279.93	1738.73
280.14	1757.16
280.36	1695.72
280.57	1779.68
280.79	1705.96
281.00	1626.09
281.22	1617.90
281.43	1812.45
281.65	1595.37
281.86	1648.61
282.08	1734.63
282.29	1765.35
282.51	1656.81
282.73	1624.04
282.94	1587.18
283.16	1779.68
283.37	1808.36
283.59	1603.56
283.80	1746.92
284.02	1771.49
284.23	1798.12
284.45	1740.77
284.66	1562.60
284.88	1640.42
285.09	1646.57
285.31	1648.61
285.52	1697.77
285.74	1658.85
285.95	1822.69
286.17	1755.11
286.38	1771.49
286.60	1675.24
286.81	1595.37
287.03	1669.09
287.24	1742.82
287.46	1781.73
287.67	1695.72
287.89	1822.69
288.10	1615.85
288.32	1751.01
288.53	1828.84
288.75	1683.43
288.96	1705.96
289.18	1695.72
289.39	1689.57
289.61	1730.53
289.82	1779.68
290.04	1816.55
290.25	1525.74
290.47	1681.38
290.68	1732.58
290.90	1746.92
291.11	1607.66
291.33	1701.86
291.54	1583.08
291.76	1695.72
291.97	1634.28
292.18	1716.20
292.40	1730.53
292.61	1728.49
292.83	1849.32
293.04	1718.25
293.26	1665.00
293.47	1697.77
293.69	1613.80
293.90	1578.98
294.12	1730.53
294.33	1667.05
294.55	1691.62
294.76	1718.25
294.97	1718.25
295.19	1830.88
295.40	1630.18
295.62	1689.57
295.83	1724.39
296.05	1626.09
296.26	1712.10
296.48	1640.42
296.69	1691.62
296.90	1658.85
297.12	1757.16
297.33	1726.44
297.55	1662.95
297.76	1728.49
297.98	1771.49
298.19	1722.34
298.41	1646.57
298.62	1630.18
298.83	1808.36
299.05	1724.39
299.26	1638.38
299.48	1675.24
299.69	1816.55
299.90	1605.61
300.12	1656.81
300.33	1755.11
300.55	1708.01
300.76	1728.49
300.98	1646.57
301.19	1763.30
301.40	1681.38
301.62	1689.57
301.83	1773.54
302.05	1691.62
302.26	1681.38
302.47	1744.87
302.69	1611.75
302.90	1712.10
303.12	1562.60
303.33	1765.35
303.54	1800.16
303.76	1769.44
303.97	1671.14
304.19	1773.54
304.40	1746.92
304.61	1720.29
304.83	1726.44
305.04	1759.21
305.26	1748.97
305.47	1630.18
305.68	1705.96
305.90	1585.13
306.11	1755.11
306.33	1617.90
306.54	1673.19
306.75	1687.53
306.97	1656.81
307.18	1699.81
307.39	1712.10
307.61	1699.81
307.82	1673.19
308.04	1634.28
308.25	1638.38
308.46	1701.86
308.68	1679.33
308.89	1665.00
309.10	1767.40
309.32	1671.14
309.53	1710.05
309.74	1687.53
309.96	1701.86
310.17	1773.54
310.39	1693.67
310.60	1712.10
310.81	1734.63
311.03	1660.90
311.24	1757.16
311.45	1689.57
311.67	1753.06
311.88	1683.43
312.09	1724.39
312.31	1695.72
312.52	1632.23
312.73	1687.53
312.95	1615.85
313.16	1660.90
313.37	1744.87
313.59	1787.88
313.80	1742.82
314.01	1787.88
314.23	1720.29
314.44	1685.48
314.65	1648.61
314.87	1615.85
315.08	1673.19
315.29	1699.81
315.51	1648.61
315.72	1669.09
315.93	1841.12
316.15	1742.82
316.36	1695.72
316.57	1726.44
316.79	1687.53
317.00	1615.85
317.21	1714.15
317.43	1644.52
317.64	1687.53
317.85	1660.90
318.07	1646.57
318.28	1667.05
318.49	1826.79
318.70	1964.00
318.92	1841.12
319.13	1800.16
319.34	1791.97
319.56	1742.82
319.77	1810.40
319.98	1781.73
320.20	1744.87
320.41	1757.16
320.62	1763.30
320.83	1673.19
321.05	1865.70
321.26	1685.48
321.47	1708.01
321.69	1763.30
321.90	1712.10
322.11	1638.38
322.32	1703.91
322.54	1822.69
322.75	1648.61
322.96	1853.41
323.18	1576.94
323.39	1671.14
323.60	1652.71
323.81	1716.20
324.03	1630.18
324.24	1755.11
324.45	1705.96
324.66	1712.10
324.88	1685.48
325.09	1705.96
325.30	1697.77
325.52	1667.05
325.73	1681.38
325.94	1685.48
326.15	1613.80
326.37	1648.61
326.58	1685.48
326.79	1787.88
327.00	1605.61
327.22	1642.47
327.43	1611.75
327.64	1642.47
327.85	1748.97
328.07	1658.85
328.28	1820.64
328.49	1691.62
328.70	1677.29
328.92	1728.49
329.13	1732.58
329.34	1660.90
329.55	1890.28
329.76	1757.16
329.98	1685.48
330.19	1742.82
330.40	1783.78
330.61	1730.53
330.83	1757.16
331.04	1685.48
331.25	1728.49
331.46	1656.81
331.68	1650.66
331.89	1718.25
332.10	1665.00
332.31	1585.13
332.52	1703.91
332.74	1693.67
332.95	1642.47
333.16	1648.61
333.37	1697.77
333.58	1644.52
333.80	1703.91
334.01	1552.36
334.22	1675.24
334.43	1671.14
334.64	1716.20
334.86	1660.90
335.07	1665.00
335.28	1818.60
335.49	1624.04
335.70	1714.15
335.92	1757.16
336.13	1849.32
336.34	1771.49
336.55	1691.62
336.76	1705.96
336.98	1585.13
337.19	1730.53
337.40	1759.21
337.61	1834.98
337.82	1720.29
338.04	1732.58
338.25	1609.70
338.46	1652.71
338.67	1660.90
338.88	1599.46
339.09	1691.62
339.31	1648.61
339.52	1662.95
339.73	1660.90
339.94	1705.96
340.15	1742.82
340.36	1617.90
340.58	1683.43
340.79	1624.04
341.00	1779.68
341.21	1603.56
341.42	1869.80
341.63	1716.20
341.85	1773.54
342.06	1697.77
342.27	1644.52
342.48	1615.85
342.69	1646.57
342.90	1720.29
343.12	1673.19
343.33	1755.11
343.54	1814.50
343.75	1748.97
343.96	1644.52
344.17	1681.38
344.38	1705.96
344.60	1675.24
344.81	1673.19
345.02	1726.44
345.23	1677.29
345.44	1771.49
345.65	1716.20
345.86	1691.62
346.07	1703.91
346.29	1771.49
346.50	1744.87
346.71	1732.58
346.92	1724.39
347.13	1828.84
347.34	1738.73
347.55	1673.19
347.76	1751.01
347.98	1628.14
348.19	1722.34
348.40	1765.35
348.61	1656.81
348.82	1800.16
349.03	1673.19
349.24	1712.10
349.45	1783.78
349.66	1603.56
349.88	1740.77
350.09	1599.46
350.30	1730.53
350.51	1740.77
350.72	1724.39
350.93	1730.53
351.14	1599.46
351.35	1744.87
351.56	1755.11
351.77	1652.71
351.99	1783.78
352.20	1837.03
352.41	1763.30
352.62	1660.90
352.83	1671.14
353.04	1728.49
353.25	1714.15
353.46	1806.31
353.67	1687.53
353.88	1609.70
354.09	1767.40
354.30	1683.43
354.52	1720.29
354.73	1693.67
354.94	1648.61
355.15	1701.86
355.36	1873.89
355.57	1626.09
355.78	1699.81
355.99	1636.33
356.20	1665.00
356.41	1732.58
356.62	1759.21
356.83	1730.53
357.04	1732.58
357.25	1581.03
357.46	1775.59
357.68	1560.55
357.89	1744.87
358.10	1714.15
358.31	1667.05
358.52	1708.01
358.73	1603.56
358.94	1685.48
359.15	1617.90
359.36	1751.01
359.57	1695.72
359.78	1712.10
359.99	1753.06
360.20	1599.46
360.41	1699.81
360.62	1732.58
360.83	1652.71
361.04	1669.09
361.25	1636.33
361.46	1791.97
361.67	1771.49
361.88	1728.49
362.09	1804.26
362.30	1722.34
362.51	1632.23
362.72	1720.29
362.93	1718.25
363.14	1730.53
363.35	1740.77
363.56	1636.33
363.78	1757.16
363.99	1759.21
364.20	1650.66
364.41	1712.10
364.62	1826.79
364.83	1695.72
365.04	1714.15
365.25	1757.16
365.46	1783.78
365.67	1708.01
365.88	1652.71
366.09	1656.81
366.30	1689.57
366.51	1638.38
366.72	1726.44
366.93	1699.81
367.14	1712.10
367.35	1740.77
367.56	1691.62
367.77	1718.25
367.98	1681.38
368.18	1703.91
368.39	1697.77
368.60	1677.29
368.81	1701.86
369.02	1673.19
369.23	1669.09
369.44	1683.43
369.65	1646.57
369.86	1705.96
370.07	1660.90
370.28	1689.57
370.49	1693.67
370.70	1740.77
370.91	1630.18
371.12	1613.80
371.33	1740.77
371.54	1689.57
371.75	1851.36
371.96	1593.32
372.17	1685.48
372.38	1701.86
372.59	1843.17
372.80	1652.71
373.01	1683.43
373.22	1685.48
373.43	1685.48
373.64	1613.80
373.85	1773.54
374.06	1855.46
374.26	1755.11
374.47	1779.68
374.68	1759.21
374.89	1738.73
375.10	1695.72
375.31	1798.12
375.52	1718.25
375.73	1656.81
375.94	1660.90
376.15	1789.92
376.36	1665.00
376.57	1572.84
376.78	1669.09
376.99	1650.66
377.20	1759.21
377.40	1693.67
377.61	1769.44
377.82	1642.47
378.03	1775.59
378.24	1748.97
378.45	1726.44
378.66	1740.77
378.87	1542.12
379.08	1591.27
379.29	1634.28
379.50	1800.16
379.71	1675.24
379.91	1730.53
380.12	1671.14
380.33	1730.53
380.54	1538.02
380.75	1654.76
380.96	1685.48
381.17	1798.12
381.38	1632.23
381.59	1716.20
381.80	1804.26
382.00	1847.27
382.21	1732.58
382.42	1867.75
382.63	1834.98
382.84	1710.05
383.05	1751.01
383.26	1789.92
383.47	1681.38
383.68	1744.87
383.88	1802.21
384.09	1671.14
384.30	1818.60
384.51	1689.57
384.72	1658.85
384.93	1601.51
385.14	1607.66
385.35	1724.39
385.55	1630.18
385.76	1693.67
385.97	1654.76
386.18	1648.61
386.39	1691.62
386.60	1681.38
386.81	1691.62
387.02	1619.94
387.22	1619.94
387.43	1710.05
387.64	1841.12
387.85	1873.89
388.06	2193.37
388.27	4345.79
388.48	6768.54
388.68	8142.72
388.89	9838.44
389.10	9916.26
389.31	8669.05
389.52	7706.51
389.73	6643.61
389.93	6252.45
390.14	5826.47
390.35	5179.31
390.56	4626.36
390.77	3663.82
390.98	3008.47
391.18	2459.61
391.39	2107.36
391.60	1816.55
391.81	1796.07
392.02	1746.92
392.23	1845.22
392.43	1695.72
392.64	1755.11
392.85	1812.45
393.06	1804.26
393.27	1660.90
393.47	1705.96
393.68	1718.25
393.89	1693.67
394.10	1757.16
394.31	1728.49
394.52	1617.90
394.72	1687.53
394.93	1753.06
395.14	1611.75
395.35	1810.40
395.56	1656.81
395.76	1746.92
395.97	1789.92
396.18	1808.36
396.39	1849.32
396.60	2007.01
396.80	1894.37
397.01	1886.18
397.22	1740.77
397.43	1826.79
397.64	1744.87
397.84	1775.59
398.05	1882.08
398.26	1673.19
398.47	1804.26
398.67	1789.92
398.88	1757.16
399.09	1779.68
399.30	1683.43
399.51	1740.77
399.71	1603.56
399.92	1650.66
400.13	1742.82
400.34	1705.96
400.54	1728.49
400.75	1740.77
400.96	1775.59
401.17	1822.69
401.37	1771.49
401.58	1712.10
401.79	1746.92
402.00	1918.95
402.21	2045.92
402.41	1953.76
402.62	1998.82
402.83	2017.25
403.04	2035.68
403.24	2037.73
403.45	1773.54
403.66	1914.85
403.87	1843.17
404.07	1910.75
404.28	1896.42
404.49	1845.22
404.70	1796.07
404.90	1804.26
405.11	1716.20
405.32	1691.62
405.52	1730.53
405.73	1652.71
405.94	1650.66
406.15	1681.38
406.35	1785.83
406.56	1828.84
406.77	1714.15
406.98	1724.39
407.18	1734.63
407.39	1769.44
407.60	1665.00
407.80	1748.97
408.01	1703.91
408.22	1779.68
408.43	1708.01
408.63	1769.44
408.84	1759.21
409.05	1812.45
409.25	1689.57
409.46	1630.18
409.67	1644.52
409.88	1632.23
410.08	1673.19
410.29	1728.49
410.50	1773.54
410.70	1751.01
410.91	1615.85
411.12	1714.15
411.32	1714.15
411.53	1685.48
411.74	1828.84
411.95	1734.63
412.15	1732.58
412.36	1681.38
412.57	1685.48
412.77	1800.16
412.98	1658.85
413.19	1710.05
413.39	1679.33
413.60	1773.54
413.81	1820.64
414.01	1603.56
414.22	1710.05
414.43	1722.34
414.63	1675.24
414.84	1753.06
415.05	1677.29
415.25	1652.71
415.46	1714.15
415.67	1683.43
415.87	1714.15
416.08	1769.44
416.29	1660.90
416.49	1744.87
416.70	1669.09
416.91	1613.80
417.11	1673.19
417.32	1828.84
417.53	1730.53
417.73	1691.62
417.94	1673.19
418.15	1658.85
418.35	1699.81
418.56	1695.72
418.77	1759.21
418.97	1673.19
419.18	1699.81
419.38	1595.37
419.59	1660.90
419.80	1759.21
420.00	1650.66
420.21	1726.44
420.42	1791.97
420.62	1771.49
420.83	1628.14
421.04	1665.00
421.24	1638.38
421.45	1740.77
421.65	1677.29
421.86	1701.86
422.07	1757.16
422.27	1751.01
422.48	1781.73
422.69	1662.95
422.89	1697.77
423.10	1689.57
423.30	1656.81
423.51	1662.95
423.72	1744.87
423.92	1796.07
424.13	1628.14
424.33	1736.68
424.54	1730.53
424.75	1722.34
424.95	1882.08
425.16	1720.29
425.36	1656.81
425.57	1746.92
425.78	1726.44
425.98	1777.64
426.19	1669.09
426.39	1642.47
426.60	1763.30
426.81	1812.45
427.01	1718.25
427.22	1697.77
427.42	1574.89
427.63	1628.14
427.83	1703.91
428.04	1804.26
428.25	1798.12
428.45	1832.93
428.66	1822.69
428.86	1691.62
429.07	1673.19
429.28	1675.24
429.48	1644.52
429.69	1640.42
429.89	1689.57
430.10	1636.33
430.30	1720.29
430.51	1849.32
430.71	1712.10
430.92	1716.20
431.13	1693.67
431.33	1746.92
431.54	1693.67
431.74	1761.25
431.95	1804.26
432.15	1677.29
432.36	1714.15
432.56	1734.63
432.77	1779.68
432.98	1843.17
433.18	1740.77
433.39	1765.35
433.59	1667.05
433.80	1773.54
434.00	1839.08
434.21	1722.34
434.41	1730.53
434.62	1794.02
434.82	1673.19
435.03	1679.33
435.23	1777.64
435.44	1615.85
435.64	1738.73
435.85	1656.81
436.06	1726.44
436.26	1728.49
436.47	1740.77
436.67	1648.61
436.88	1677.29
437.08	1712.10
437.29	1779.68
437.49	1722.34
437.70	1794.02
437.90	1742.82
438.11	1849.32
438.31	1867.75
438.52	1847.27
438.72	1826.79
438.93	1834.98
439.13	1798.12
439.34	1794.02
439.54	1767.40
439.75	1755.11
439.95	1816.55
440.16	1767.40
440.36	1679.33
440.57	1810.40
440.77	1744.87
440.98	1691.62
441.18	1816.55
441.39	1751.01
441.59	1595.37
441.80	1791.97
442.00	1765.35
442.21	1814.50
442.41	1693.67
442.62	1826.79
442.82	1705.96
443.02	1742.82
443.23	1765.35
443.43	1650.66
443.64	1841.12
443.84	1607.66
444.05	1804.26
444.25	1791.97
444.46	1697.77
444.66	1714.15
444.87	1798.12
445.07	1656.81
445.28	1660.90
445.48	1822.69
445.69	1798.12
445.89	1787.88
446.09	1722.34
446.30	2058.21
446.50	2750.42
446.71	3618.76
446.91	4235.20
447.12	4702.14
447.32	4728.76
447.53	4323.26
447.73	3876.80
447.93	3510.22
448.14	3280.85
448.34	3151.82
448.55	2824.15
448.75	2867.16
448.96	2709.46
449.16	2449.37
449.36	2291.68
449.57	2072.54
449.77	1933.28
449.98	1775.59
450.18	1832.93
450.39	1861.60
450.59	1765.35
450.79	1777.64
451.00	1658.85
451.20	1830.88
451.41	1656.81
451.61	1746.92
451.81	1755.11
452.02	1675.24
452.22	1732.58
452.43	1746.92
452.63	1699.81
452.84	1755.11
453.04	1710.05
453.24	1710.05
453.45	1722.34
453.65	1710.05
453.86	1757.16
454.06	1888.23
454.26	1742.82
454.47	1695.72
454.67	1865.70
454.87	1751.01
455.08	1722.34
455.28	1910.75
455.49	1699.81
455.69	1710.05
455.89	1857.51
456.10	1796.07
456.30	1789.92
456.51	1781.73
456.71	1765.35
456.91	1751.01
457.12	1699.81
457.32	1726.44
457.52	1624.04
457.73	1703.91
457.93	1763.30
458.14	1662.95
458.34	1593.32
458.54	1716.20
458.75	1681.38
458.95	1804.26
459.15	1714.15
459.36	1777.64
459.56	1804.26
459.76	1841.12
459.97	1685.48
460.17	1787.88
460.37	1798.12
460.58	1689.57
460.78	1759.21
460.99	1712.10
461.19	1693.67
461.39	1677.29
461.60	1718.25
461.80	1722.34
462.00	1746.92
462.21	1722.34
462.41	1650.66
462.61	1724.39
462.82	1708.01
463.02	1757.16
463.22	1701.86
463.43	1789.92
463.63	1691.62
463.83	1771.49
464.04	1736.68
464.24	1783.78
464.44	1673.19
464.64	1732.58
464.85	1746.92
465.05	1798.12
465.25	1685.48
465.46	1683.43
465.66	1710.05
465.86	1726.44
466.07	1742.82
466.27	1734.63
466.47	1621.99
466.68	1660.90
466.88	1779.68
467.08	1759.21
467.29	1757.16
467.49	1708.01
467.69	1695.72
467.89	1718.25
468.10	1740.77
468.30	1736.68
468.50	1769.44
468.71	1728.49
468.91	1712.10
469.11	1802.21
469.31	1755.11
469.52	1685.48
469.72	1744.87
469.92	1867.75
470.13	1773.54
470.33	1691.62
470.53	1798.12
470.73	2140.13
470.94	2242.53
471.14	2330.59
471.34	2459.61
471.54	2400.22
471.75	2279.39
471.95	2162.66
472.15	1976.29
472.36	2113.50
472.56	2082.78
472.76	2054.11
472.96	1910.75
473.17	1841.12
473.37	1894.37
473.57	1822.69
473.77	1857.51
473.98	1783.78
474.18	1683.43
474.38	1902.56
474.58	1742.82
474.79	1734.63
474.99	1783.78
475.19	1804.26
475.39	1695.72
475.60	1773.54
475.80	1783.78
476.00	1728.49
476.20	1837.03
476.41	1722.34
476.61	1779.68
476.81	1787.88
477.01	1615.85
477.21	1871.84
477.42	1812.45
477.62	1695.72
477.82	1718.25
478.02	1753.06
478.23	1693.67
478.43	1615.85
478.63	1681.38
478.83	1742.82
479.03	1767.40
479.24	1685.48
479.44	1804.26
479.64	1714.15
479.84	1650.66
480.04	1638.38
480.25	1701.86
480.45	1714.15
480.65	1734.63
480.85	1832.93
481.06	1722.34
481.26	1665.00
481.46	1738.73
481.66	1779.68
481.86	1636.33
482.06	1722.34
482.27	1667.05
482.47	1708.01
482.67	1699.81
482.87	1734.63
483.07	1810.40
483.28	1662.95
483.48	1689.57
483.68	1691.62
483.88	1644.52
484.08	1634.28
484.29	1615.85
484.49	1734.63
484.69	1716.20
484.89	1771.49
485.09	1689.57
485.29	1691.62
485.50	1818.60
485.70	1714.15
485.90	1744.87
486.10	1757.16
486.30	1708.01
486.50	1785.83
486.71	1691.62
486.91	1794.02
487.11	1714.15
487.31	1654.76
487.51	1687.53
487.71	1652.71
487.91	1593.32
488.12	1632.23
488.32	1662.95
488.52	1669.09
488.72	1560.55
488.92	1597.42
489.12	1759.21
489.32	1783.78
489.53	1701.86
489.73	1611.75
489.93	1814.50
490.13	1718.25
490.33	1630.18
490.53	1718.25
490.73	1738.73
490.94	1585.13
491.14	1779.68
491.34	1812.45
491.54	2111.46
491.74	2617.30
491.94	2912.21
492.14	3045.33
492.34	3043.28
492.54	2746.33
492.75	2500.57
492.95	2484.19
493.15	2275.29
493.35	2207.71
493.55	2271.20
493.75	2160.61
493.95	2217.95
494.15	2017.25
494.35	1873.89
494.56	1880.04
494.76	1763.30
494.96	1753.06
495.16	1779.68
495.36	1748.97
495.56	1673.19
495.76	1773.54
495.96	1742.82
496.16	1679.33
496.36	1755.11
496.56	1732.58
496.77	1779.68
496.97	1671.14
497.17	1755.11
497.37	1679.33
497.57	1703.91
497.77	1730.53
497.97	1742.82
498.17	1710.05
498.37	1759.21
498.57	1771.49
498.77	1632.23
498.97	1748.97
499.17	1808.36
499.38	1726.44
499.58	1748.97
499.78	1712.10
499.98	1765.35
500.18	1699.81
500.38	1644.52
500.58	1892.32
500.78	2590.68
500.98	4483.00
501.18	5762.98
501.38	6821.78
501.58	6920.09
501.78	6524.83
501.98	5459.88
502.18	5013.43
502.38	4284.35
502.58	4181.95
502.78	3755.97
502.98	3655.62
503.18	3434.44
503.38	3108.82
503.59	2795.48
503.79	2662.36
503.99	2490.33
504.19	2209.76
504.39	2154.46
504.59	2142.18
504.79	2140.13
504.99	2041.82
505.19	1978.34
505.39	1882.08
505.59	2025.44
505.79	1906.66
505.99	1933.28
506.19	1794.02
506.39	1896.42
506.59	1732.58
506.79	1740.77
506.99	1697.77
507.19	1800.16
507.39	1730.53
507.59	1685.48
507.79	1650.66
507.99	1671.14
508.19	1667.05
508.39	1681.38
508.59	1732.58
508.79	1798.12
508.99	1886.18
509.19	1718.25
509.39	1759.21
509.59	1677.29
509.79	1724.39
509.99	1669.09
510.19	1751.01
510.39	1763.30
510.59	1773.54
510.79	1724.39
510.99	1669.09
511.19	1757.16
511.39	1800.16
511.59	1777.64
511.79	1781.73
511.99	1771.49
512.19	1802.21
512.38	1697.77
512.58	1699.81
512.78	1753.06
512.98	1751.01
513.18	1843.17
513.38	1609.70
513.58	1773.54
513.78	1779.68
513.98	1748.97
514.18	1742.82
514.38	1728.49
514.58	1693.67
514.78	1757.16
514.98	1636.33
515.18	1769.44
515.38	1648.61
515.58	1824.74
515.78	1697.77
515.98	1712.10
516.18	1716.20
516.38	1718.25
516.57	1722.34
516.77	1673.19
516.97	1757.16
517.17	1767.40
517.37	1603.56
517.57	1818.60
517.77	1740.77
517.97	1769.44
518.17	1773.54
518.37	1607.66
518.57	1638.38
518.77	1751.01
518.97	1826.79
519.16	1726.44
519.36	1736.68
519.56	1724.39
519.76	1638.38
519.96	1769.44
520.16	1794.02
520.36	1746.92
520.56	1701.86
520.76	1652.71
520.96	1726.44
521.16	1783.78
521.35	1656.81
521.55	1849.32
521.75	1759.21
521.95	1748.97
522.15	1722.34
522.35	1679.33
522.55	1728.49
522.75	1787.88
522.95	1667.05
523.14	1667.05
523.34	1757.16
523.54	1712.10
523.74	1779.68
523.94	1789.92
524.14	1632.23
524.34	1777.64
524.54	1845.22
524.73	1699.81
524.93	1791.97
525.13	1734.63
525.33	1705.96
525.53	1796.07
525.73	1847.27
525.93	1738.73
526.13	1695.72
526.32	1753.06
526.52	1775.59
526.72	1775.59
526.92	1722.34
527.12	1675.24
527.32	1687.53
527.52	1759.21
527.71	1744.87
527.91	1716.20
528.11	1681.38
528.31	1769.44
528.51	1710.05
528.71	1830.88
528.90	1765.35
529.10	1859.56
529.30	1865.70
529.50	1574.89
529.70	1656.81
529.90	1703.91
530.09	1734.63
530.29	1644.52
530.49	1734.63
530.69	1832.93
530.89	1757.16
531.09	1796.07
531.28	1744.87
531.48	1738.73
531.68	1759.21
531.88	1806.31
532.08	1806.31
532.28	1765.35
532.47	1742.82
532.67	1791.97
532.87	1728.49
533.07	1720.29
533.27	1720.29
533.46	1783.78
533.66	1742.82
533.86	1722.34
534.06	1730.53
534.26	1697.77
534.45	1722.34
534.65	1810.40
534.85	1710.05
535.05	1669.09
535.25	1742.82
535.44	1638.38
535.64	1841.12
535.84	1701.86
536.04	1691.62
536.24	1712.10
536.43	1728.49
536.63	1746.92
536.83	1665.00
537.03	1662.95
537.22	1691.62
537.42	1734.63
537.62	1667.05
537.82	1675.24
538.02	1814.50
538.21	1802.21
538.41	1812.45
538.61	1697.77
538.81	1615.85
539.00	1824.74
539.20	1687.53
539.40	1722.34
539.60	1775.59
539.79	1779.68
539.99	1673.19
540.19	1708.01
540.39	1757.16
540.58	1755.11
540.78	1808.36
540.98	1652.71
541.18	1808.36
541.37	1748.97
541.57	1722.34
541.77	1771.49
541.97	1630.18
542.16	1689.57
542.36	1736.68
542.56	1718.25
542.76	1783.78
542.95	1753.06
543.15	1742.82
543.35	1736.68
543.54	1714.15
543.74	1740.77
543.94	1738.73
544.14	1734.63
544.33	1781.73
544.53	1718.25
544.73	1722.34
544.93	1734.63
545.12	1710.05
545.32	1726.44
545.52	1773.54
545.71	1695.72
545.91	1714.15
546.11	1669.09
546.30	1646.57
546.50	1724.39
546.70	1677.29
546.90	1736.68
547.09	1542.12
547.29	1779.68
547.49	1705.96
547.68	1689.57
547.88	1710.05
548.08	1767.40
548.27	2232.29
548.47	1771.49
548.67	1734.63
548.87	1755.11
549.06	1701.86
549.26	1777.64
549.46	1804.26
549.65	1710.05
549.85	1742.82
550.05	1691.62
550.24	1576.94
550.44	1640.42
550.64	1722.34
550.83	1681.38
551.03	1812.45
551.23	1751.01
551.42	1740.77
551.62	1722.34
551.82	1703.91
552.01	1736.68
552.21	1791.97
552.41	1757.16
552.60	1839.08
552.80	1806.31
553.00	1779.68
553.19	1732.58
553.39	1834.98
553.59	1685.48
553.78	1765.35
553.98	1728.49
554.17	1687.53
554.37	1775.59
554.57	1810.40
554.76	1675.24
554.96	1734.63
555.16	1775.59
555.35	1724.39
555.55	1738.73
555.75	1748.97
555.94	1841.12
556.14	1646.57
556.33	1769.44
556.53	1744.87
556.73	1722.34
556.92	1757.16
557.12	1873.89
557.32	1867.75
557.51	1828.84
557.71	1810.40
557.90	1847.27
558.10	1779.68
558.30	1687.53
558.49	1759.21
558.69	1789.92
558.88	1673.19
559.08	1748.97
559.28	1712.10
559.47	1765.35
559.67	1734.63
559.86	1851.36
560.06	1738.73
560.26	1740.77
560.45	1732.58
560.65	1667.05
560.84	1775.59
561.04	1763.30
561.24	1748.97
561.43	1763.30
561.63	1861.60
561.82	1810.40
562.02	1748.97
562.22	1642.47
562.41	1640.42
562.61	1740.77
562.80	1615.85
563.00	1820.64
563.19	1834.98
563.39	1763.30
563.59	1753.06
563.78	1699.81
563.98	1656.81
564.17	1667.05
564.37	1665.00
564.56	1767.40
564.76	1669.09
564.96	1820.64
565.15	1730.53
565.35	1830.88
565.54	1660.90
565.74	1740.77
565.93	1783.78
566.13	1765.35
566.32	1834.98
566.52	1812.45
566.71	1705.96
566.91	1755.11
567.11	1726.44
567.30	1712.10
567.50	1738.73
567.69	1746.92
567.89	1714.15
568.08	1699.81
568.28	1783.78
568.47	1652.71
568.67	1767.40
568.86	1705.96
569.06	1798.12
569.25	1742.82
569.45	1685.48
569.64	1742.82
569.84	1703.91
570.04	1736.68
570.23	1679.33
570.43	1685.48
570.62	1781.73
570.82	1767.40
571.01	1658.85
571.21	1642.47
571.40	1724.39
571.60	1769.44
571.79	1734.63
571.99	1765.35
572.18	1636.33
572.38	1787.88
572.57	1695.72
572.77	1789.92
572.96	1814.50
573.16	1808.36
573.35	1705.96
573.55	1841.12
573.74	1718.25
573.94	1742.82
574.13	1716.20
574.33	1845.22
574.52	1800.16
574.71	1789.92
574.91	1744.87
575.10	1679.33
575.30	1646.57
575.49	1724.39
575.69	1660.90
575.88	1757.16
576.08	1767.40
576.27	1767.40
576.47	1728.49
576.66	1855.46
576.86	1791.97
577.05	1722.34
577.25	1751.01
577.44	1865.70
577.64	1710.05
577.83	1824.74
578.02	1742.82
578.22	1855.46
578.41	1798.12
578.61	1726.44
578.80	1718.25
579.00	1834.98
579.19	1771.49
579.39	1763.30
579.58	1820.64
579.77	1771.49
579.97	1769.44
580.16	1783.78
580.36	1791.97
580.55	1771.49
580.75	1818.60
580.94	1757.16
581.13	1875.94
581.33	1802.21
581.52	1753.06
581.72	1837.03
581.91	1802.21
582.11	1783.78
582.30	1761.25
582.49	1812.45
582.69	1808.36
582.88	1779.68
583.08	1796.07
583.27	1673.19
583.47	1740.77
583.66	1716.20
583.85	1701.86
584.05	1699.81
584.24	1779.68
584.44	1728.49
584.63	1841.12
584.82	1853.41
585.02	1837.03
585.21	1867.75
585.41	1849.32
585.60	1855.46
585.79	1882.08
585.99	1953.76
586.18	1877.99
586.37	2152.42
586.57	3401.68
586.76	9768.81
586.96	24604.30
587.15	34772.46
587.34	40883.60
587.54	42442.10
587.73	36763.09
587.93	26773.10
588.12	21337.79
588.31	18730.72
588.51	16322.31
588.70	15261.46
588.89	14008.11
589.09	12805.95
589.28	11063.13
589.47	9686.89
589.67	8036.23
589.86	6506.40
590.06	4966.32
590.25	3938.24
590.44	3219.41
590.64	2508.76
590.83	2265.05
591.02	2158.56
591.22	1982.43
591.41	1951.71
591.60	1736.68
591.80	1992.67
591.99	1701.86
592.18	1767.40
592.38	1810.40
592.57	1748.97
592.76	1769.44
592.96	1853.41
593.15	1769.44
593.34	1763.30
593.54	1779.68
593.73	1791.97
593.92	1800.16
594.12	1791.97
594.31	1738.73
594.50	1808.36
594.70	1775.59
594.89	1886.18
595.08	1687.53
595.28	1818.60
595.47	1951.71
595.66	1845.22
595.86	1693.67
596.05	1734.63
596.24	1609.70
596.43	1787.88
596.63	1777.64
596.82	1771.49
597.01	1765.35
597.21	1908.71
597.40	1765.35
597.59	1691.62
597.79	1775.59
597.98	1779.68
598.17	1759.21
598.36	1730.53
598.56	1765.35
598.75	1714.15
598.94	1804.26
599.14	1746.92
599.33	1705.96
599.52	1847.27
599.71	1718.25
599.91	1730.53
600.10	1759.21
600.29	1742.82
600.48	1789.92
600.68	1812.45
600.87	1734.63
601.06	1683.43
601.26	1675.24
601.45	1812.45
601.64	1734.63
601.83	1896.42
602.03	1665.00
602.22	1675.24
602.41	1740.77
602.60	1880.04
602.80	1837.03
602.99	1724.39
603.18	1701.86
603.37	1689.57
603.57	1742.82
603.76	1832.93
603.95	1785.83
604.14	1755.11
604.34	1656.81
604.53	1732.58
604.72	1757.16
604.91	1783.78
605.10	1755.11
605.30	1652.71
605.49	1869.80
605.68	1755.11
605.87	1771.49
606.07	1761.25
606.26	1767.40
606.45	1783.78
606.64	1841.12
606.84	1679.33
607.03	1746.92
607.22	1648.61
607.41	1654.76
607.60	1705.96
607.80	1748.97
607.99	1781.73
608.18	1712.10
608.37	1703.91
608.56	1722.34
608.76	1761.25
608.95	1855.46
609.14	1693.67
609.33	1742.82
609.52	1804.26
609.72	1769.44
609.91	1824.74
610.10	1697.77
610.29	1841.12
610.48	1789.92
610.68	1736.68
610.87	1675.24
611.06	1771.49
611.25	1724.39
611.44	1841.12
611.63	1701.86
611.83	1812.45
612.02	1685.48
612.21	1748.97
612.40	1560.55
612.59	1703.91
612.79	1695.72
612.98	1724.39
613.17	1841.12
613.36	1708.01
613.55	1800.16
613.74	1687.53
613.93	1691.62
614.13	1722.34
614.32	1742.82
614.51	1789.92
614.70	1746.92
614.89	1675.24
615.08	1738.73
615.28	2113.50
615.47	1591.27
615.66	1746.92
615.85	1699.81
616.04	1775.59
616.23	1769.44
616.42	1724.39
616.62	1777.64
616.81	1738.73
617.00	1685.48
617.19	1708.01
617.38	1654.76
617.57	1765.35
617.76	1722.34
617.95	1689.57
618.15	1767.40
618.34	1812.45
618.53	1642.47
618.72	1814.50
618.91	1818.60
619.10	1791.97
619.29	1677.29
619.48	1685.48
619.68	1693.67
619.87	1673.19
620.06	1689.57
620.25	1777.64
620.44	1728.49
620.63	1685.48
620.82	1699.81
621.01	1720.29
621.20	1751.01
621.39	1742.82
621.59	1728.49
621.78	1738.73
621.97	1708.01
622.16	1736.68
622.35	1769.44
622.54	1759.21
622.73	1847.27
622.92	1665.00
623.11	1767.40
623.30	1753.06
623.49	1746.92
623.68	1681.38
623.88	1871.84
624.07	1728.49
624.26	1738.73
624.45	1730.53
624.64	1734.63
624.83	1701.86
625.02	1742.82
625.21	1675.24
625.40	1736.68
625.59	1785.83
625.78	1662.95
625.97	1816.55
626.16	1726.44
626.35	1775.59
626.54	1677.29
626.74	1787.88
626.93	1656.81
627.12	1710.05
627.31	1783.78
627.50	1740.77
627.69	1761.25
627.88	1691.62
628.07	1710.05
628.26	1648.61
628.45	1644.52
628.64	1677.29
628.83	1751.01
629.02	1701.86
629.21	1726.44
629.40	1712.10
629.59	1652.71
629.78	1677.29
629.97	1765.35
630.16	1746.92
630.35	1701.86
630.54	1705.96
630.73	1687.53
630.92	1699.81
631.11	1644.52
631.30	1648.61
631.49	1746.92
631.68	1699.81
631.87	1746.92
632.06	1626.09
632.25	1843.17
632.44	1685.48
632.63	1714.15
632.82	1710.05
633.01	1714.15
633.20	1683.43
633.39	1681.38
633.58	1607.66
633.77	1744.87
633.96	1742.82
634.15	1701.86
634.34	1755.11
634.53	1722.34
634.72	1687.53
634.91	1679.33
635.10	1671.14
635.29	1740.77
635.48	1722.34
635.67	1673.19
635.86	1593.32
636.05	1796.07
636.24	1720.29
636.43	1773.54
636.62	1738.73
636.81	1613.80
637.00	1748.97
637.19	1734.63
637.38	1740.77
637.57	1624.04
637.76	1755.11
637.95	1818.60
638.14	1697.77
638.33	1726.44
638.52	1665.00
638.71	1642.47
638.89	1632.23
639.08	1882.08
639.27	1720.29
639.46	1650.66
639.65	1777.64
639.84	1705.96
640.03	1767.40
640.22	1779.68
640.41	1765.35
640.60	1720.29
640.79	1730.53
640.98	1767.40
641.17	1675.24
641.36	1742.82
641.55	1710.05
641.74	1652.71
641.92	1710.05
642.11	1583.08
642.30	1656.81
642.49	1658.85
642.68	1691.62
642.87	1728.49
643.06	1730.53
643.25	1751.01
643.44	1724.39
643.63	1751.01
643.82	1753.06
644.00	1607.66
644.19	1708.01
644.38	1748.97
644.57	1722.34
644.76	1726.44
644.95	1714.15
645.14	1730.53
645.33	1687.53
645.52	1732.58
645.71	1665.00
645.89	1574.89
646.08	1796.07
646.27	1689.57
646.46	1771.49
646.65	1658.85
646.84	1736.68
647.03	1630.18
647.22	1734.63
647.40	1701.86
647.59	1697.77
647.78	1628.14
647.97	1697.77
648.16	1728.49
648.35	1812.45
648.54	1740.77
648.73	1710.05
648.91	1789.92
649.10	1669.09
649.29	1701.86
649.48	1658.85
649.67	1767.40
649.86	1626.09
650.05	1587.18
650.23	1742.82
650.42	1576.94
650.61	1746.92
650.80	1757.16
650.99	1824.74
651.18	1705.96
651.36	1841.12
651.55	1726.44
651.74	1810.40
651.93	1701.86
652.12	1665.00
652.31	1724.39
652.49	1759.21
652.68	1677.29
652.87	1738.73
653.06	1740.77
653.25	1751.01
653.44	1763.30
653.62	1804.26
653.81	1744.87
654.00	1705.96
654.19	1759.21
654.38	1847.27
654.56	1742.82
654.75	1699.81
654.94	1753.06
655.13	1693.67
655.32	1687.53
655.51	1761.25
655.69	1708.01
655.88	1837.03
656.07	1642.47
656.26	1781.73
656.45	1771.49
656.63	1714.15
656.82	1837.03
657.01	1794.02
657.20	1681.38
657.38	1818.60
657.57	1673.19
657.76	1607.66
657.95	1759.21
658.14	1671.14
658.32	1804.26
658.51	1665.00
658.70	1654.76
658.89	1748.97
659.08	1705.96
659.26	1834.98
659.45	1662.95
659.64	1701.86
659.83	1740.77
660.01	1912.80
660.20	1654.76
660.39	1837.03
660.58	1603.56
660.76	1765.35
660.95	1636.33
661.14	1699.81
661.33	1626.09
661.51	1681.38
661.70	1703.91
661.89	1796.07
662.08	1722.34
662.26	1697.77
662.45	1654.76
662.64	1763.30
662.83	1644.52
663.01	1669.09
663.20	1789.92
663.39	1769.44
663.58	1718.25
663.76	1699.81
663.95	1746.92
664.14	1660.90
664.32	1650.66
664.51	1665.00
664.70	1601.51
664.89	1755.11
665.07	1613.80
665.26	1755.11
665.45	1654.76
665.64	1740.77
665.82	1724.39
666.01	1781.73
666.20	1648.61
666.38	1789.92
666.57	1787.88
666.76	2150.37
666.95	4399.04
667.13	10385.25
667.32	15292.18
667.51	17960.69
667.69	19009.25
667.88	17633.01
668.07	12187.46
668.25	9594.73
668.44	8093.57
668.63	7321.49
668.81	6981.53
669.00	6301.60
669.19	5666.73
669.38	5064.63
669.56	4634.55
669.75	4061.12
669.94	3434.44
670.12	2918.36
670.31	2562.01
670.50	2297.82
670.68	2033.63
670.87	1912.80
671.06	1869.80
671.24	1751.01
671.43	1753.06
671.62	1771.49
671.80	1734.63
671.99	1765.35
672.18	1718.25
672.36	1755.11
672.55	1730.53
672.74	1732.58
672.92	1671.14
673.11	1744.87
673.29	1665.00
673.48	1751.01
673.67	1636.33
673.85	1771.49
674.04	1710.05
674.23	1667.05
674.41	1765.35
674.60	1658.85
674.79	1556.46
674.97	1705.96
675.16	1787.88
675.34	1814.50
675.53	1632.23
675.72	1730.53
675.90	1769.44
676.09	1656.81
676.28	1732.58
676.46	1665.00
676.65	1773.54
676.83	1607.66
677.02	1683.43
677.21	1796.07
677.39	1738.73
677.58	1638.38
677.77	1705.96
677.95	1615.85
678.14	1665.00
678.32	1656.81
678.51	1691.62
678.70	1806.31
678.88	1681.38
679.07	1716.20
679.25	1611.75
679.44	1630.18
679.63	1613.80
679.81	1748.97
680.00	1746.92
680.18	1761.25
680.37	1763.30
680.55	1693.67
680.74	1593.32
680.93	1578.98
681.11	1757.16
681.30	1693.67
681.48	1656.81
681.67	1738.73
681.85	1765.35
682.04	1662.95
682.23	1808.36
682.41	1675.24
682.60	1656.81
682.78	1689.57
682.97	1607.66
683.15	1691.62
683.34	1732.58
683.53	1751.01
683.71	1630.18
683.90	1804.26
684.08	1832.93
684.27	1691.62
684.45	1726.44
684.64	1753.06
684.82	1753.06
685.01	1753.06
685.19	1699.81
685.38	1730.53
685.57	1701.86
685.75	1650.66
685.94	1757.16
686.12	1673.19
686.31	1714.15
686.49	1845.22
686.68	1626.09
686.86	1681.38
687.05	1636.33
687.23	1834.98
687.42	1646.57
687.60	1624.04
687.79	1781.73
687.97	1716.20
688.16	1728.49
688.34	1736.68
688.53	1587.18
688.71	1810.40
688.90	1714.15
689.08	1710.05
689.27	1640.42
689.45	1738.73
689.64	1761.25
689.82	1699.81
690.01	1734.63
690.19	1705.96
690.38	1697.77
690.56	1705.96
690.75	1648.61
690.93	1695.72
691.12	1587.18
691.30	1703.91
691.49	1742.82
691.67	1718.25
691.86	1796.07
692.04	1619.94
692.23	1740.77
692.41	1652.71
692.60	1837.03
692.78	1830.88
692.97	1671.14
693.15	1769.44
693.34	1834.98
693.52	1812.45
693.71	1656.81
693.89	1632.23
694.08	1648.61
694.26	1673.19
694.44	1748.97
694.63	1787.88
694.81	1716.20
695.00	1646.57
695.18	1732.58
695.37	1806.31
695.55	1648.61
695.74	1767.40
695.92	1683.43
696.10	1751.01
696.29	1652.71
696.47	1644.52
696.66	1656.81
696.84	1652.71
697.03	1662.95
697.21	1832.93
697.40	2256.86
697.58	1763.30
697.76	1652.71
697.95	1689.57
698.13	1671.14
698.32	1677.29
698.50	1748.97
698.68	1685.48
698.87	1785.83
699.05	1783.78
699.24	1632.23
699.42	1697.77
699.61	1742.82
699.79	1716.20
699.97	1736.68
700.16	1656.81
700.34	1628.14
700.53	1765.35
700.71	1740.77
700.89	1753.06
701.08	1677.29
701.26	1703.91
701.45	2090.98
701.63	1636.33
701.81	1742.82
702.00	1648.61
702.18	1757.16
702.37	1628.14
702.55	1740.77
702.73	1658.85
702.92	1689.57
703.10	1814.50
703.28	1644.52
703.47	1658.85
703.65	1693.67
703.84	1724.39
704.02	1667.05
704.20	1751.01
704.39	1697.77
704.57	1652.71
704.75	1812.45
704.94	1783.78
705.12	1683.43
705.30	1742.82
705.49	2215.90
705.67	4356.03
705.86	9195.38
706.04	12369.73
706.22	14753.57
706.41	15351.57
706.59	13760.30
706.77	9578.35
706.96	7440.27
707.14	6641.56
707.32	5943.21
707.51	5562.28
707.69	4966.32
707.87	4159.42
708.06	3528.65
708.24	2895.83
708.42	2416.60
708.61	2150.37
708.79	1910.75
708.97	1861.60
709.16	1843.17
709.34	1734.63
709.52	1759.21
709.71	1714.15
709.89	1736.68
710.07	1685.48
710.26	1662.95
710.44	1730.53
710.62	1865.70
710.80	1701.86
710.99	1718.25
711.17	1761.25
711.35	1683.43
711.54	1716.20
711.72	1755.11
711.90	1779.68
712.09	1669.09
712.27	1730.53
712.45	1636.33
712.63	1683.43
712.82	1650.66
713.00	1669.09
713.18	1691.62
713.37	1814.50
713.55	1800.16
713.73	1781.73
713.91	1699.81
714.10	1662.95
714.28	1687.53
714.46	1777.64
714.65	1646.57
714.83	1787.88
715.01	1767.40
715.19	1718.25
715.38	1716.20
715.56	1687.53
715.74	1550.31
715.92	1656.81
716.11	1865.70
716.29	1611.75
716.47	1675.24
716.65	1609.70
716.84	1597.42
717.02	1775.59
717.20	1636.33
717.38	1708.01
717.57	1699.81
717.75	1705.96
717.93	1681.38
718.11	1740.77
718.30	1742.82
718.48	1736.68
718.66	1734.63
718.84	1800.16
719.03	1701.86
719.21	1673.19
719.39	1716.20
719.57	1718.25
719.75	1703.91
719.94	1630.18
720.12	1601.51
720.30	1732.58
720.48	1665.00
720.67	1746.92
720.85	1646.57
721.03	1693.67
721.21	1671.14
721.39	1755.11
721.58	1703.91
721.76	1755.11
721.94	1734.63
722.12	1751.01
722.30	1714.15
722.49	1656.81
722.67	1685.48
722.85	1748.97
723.03	1562.60
723.21	1648.61
723.40	1669.09
723.58	1804.26
723.76	1755.11
723.94	1705.96
724.12	1724.39
724.30	1699.81
724.49	1781.73
724.67	1656.81
724.85	1720.29
725.03	1669.09
725.21	1714.15
725.40	1744.87
725.58	1656.81
725.76	1710.05
725.94	1724.39
726.12	1648.61
726.30	1734.63
726.49	1695.72
726.67	1652.71
726.85	1703.91
727.03	1748.97
727.21	2148.32
727.39	2875.35
727.57	3850.18
727.76	4186.05
727.94	4511.68
728.12	4401.08
728.30	3745.73
728.48	3022.80
728.66	2811.86
728.84	2549.72
729.03	2303.96
729.21	2205.66
729.39	1978.34
729.57	1757.16
729.75	1796.07
729.93	1800.16
730.11	1751.01
730.30	1728.49
730.48	1736.68
730.66	1818.60
730.84	1802.21
731.02	1650.66
731.20	1722.34
731.38	1708.01
731.56	1753.06
731.74	1669.09
731.93	1705.96
732.11	1703.91
732.29	1654.76
732.47	1761.25
732.65	1691.62
732.83	1771.49
733.01	1638.38
733.19	1636.33
733.37	1662.95
733.56	1695.72
733.74	1726.44
733.92	1761.25
734.10	1652.71
734.28	1820.64
734.46	1626.09
734.64	1679.33
734.82	1671.14
735.00	1689.57
735.18	1658.85
735.36	1650.66
735.54	1656.81
735.73	1648.61
735.91	1708.01
736.09	1734.63
736.27	1634.28
736.45	1771.49
736.63	1609.70
736.81	1611.75
736.99	1759.21
737.17	1794.02
737.35	1626.09
737.53	1722.34
737.71	1646.57
737.89	1734.63
738.07	1730.53
738.25	1599.46
738.43	1652.71
738.61	1656.81
738.80	1607.66
738.98	1675.24
739.16	1665.00
739.34	1662.95
739.52	1806.31
739.70	1667.05
739.88	1722.34
740.06	1847.27
740.24	1624.04
740.42	1812.45
740.60	1581.03
740.78	1718.25
740.96	1642.47
741.14	1611.75
741.32	1697.77
741.50	1671.14
741.68	1843.17
741.86	1732.58
742.04	1675.24
742.22	1701.86
742.40	1683.43
742.58	1775.59
742.76	1714.15
742.94	1716.20
743.12	1626.09
743.30	1697.77
743.48	1724.39
743.66	1611.75
743.84	1708.01
744.02	1679.33
744.20	1720.29
744.38	1615.85
744.56	1662.95
744.74	1808.36
744.92	1697.77
745.10	1800.16
745.28	1718.25
745.46	1767.40
745.64	1624.04
745.82	1763.30
746.00	1761.25
746.18	1675.24
746.36	1609.70
746.54	1716.20
746.72	1701.86
746.90	1701.86
747.08	1787.88
747.26	1689.57
747.44	1708.01
747.62	1681.38
747.80	1716.20
747.98	1701.86
748.15	1677.29
748.33	1785.83
748.51	1775.59
748.69	1722.34
748.87	1677.29
749.05	1607.66
749.23	1679.33
749.41	1724.39
749.59	1802.21
749.77	1597.42
749.95	1714.15
750.13	1714.15
750.31	1685.48
750.49	1687.53
750.67	1783.78
750.85	1798.12
751.03	1697.77
751.20	1777.64
751.38	1746.92
751.56	1728.49
751.74	1705.96
751.92	1650.66
752.10	1621.99
752.28	1724.39
752.46	1597.42
752.64	1642.47
752.82	1757.16
753.00	1720.29
753.18	1632.23
753.35	1599.46
753.53	1718.25
753.71	1628.14
753.89	1718.25
754.07	1712.10
754.25	1755.11
754.43	1644.52
754.61	1644.52
754.79	1757.16
754.97	1771.49
755.14	1806.31
755.32	1699.81
755.50	1652.71
755.68	1644.52
755.86	1669.09
756.04	1630.18
756.22	1646.57
756.40	1746.92
756.57	1841.12
756.75	1662.95
756.93	1701.86
757.11	1705.96
757.29	1632.23
757.47	1734.63
757.65	1552.36
757.82	1568.74
758.00	1687.53
758.18	1693.67
758.36	1634.28
758.54	1763.30
758.72	1656.81
758.90	1738.73
759.07	1734.63
759.25	1652.71
759.43	1777.64
759.61	1656.81
759.79	2156.51
759.97	1738.73
760.15	1654.76
760.32	1738.73
760.50	1646.57
760.68	1871.84
760.86	1638.38
761.04	1730.53
761.22	1671.14
761.39	1689.57
761.57	1720.29
761.75	1779.68
761.93	1759.21
762.11	1658.85
762.28	1693.67
762.46	1587.18
762.64	1775.59
762.82	1576.94
763.00	1705.96
763.18	1802.21
763.35	1591.27
763.53	1693.67
763.71	1712.10
763.89	1697.77
764.07	1689.57
764.24	1685.48
764.42	1703.91
764.60	1693.67
764.78	1742.82
764.96	1841.12
765.13	1646.57
765.31	1746.92
765.49	1763.30
765.67	1636.33
765.84	1632.23
766.02	1683.43
766.20	1593.32
766.38	1691.62
766.56	1695.72
766.73	1699.81
766.91	1716.20
767.09	1648.61
767.27	1728.49
767.44	1671.14
767.62	1757.16
767.80	1763.30
767.98	1591.27
768.15	1685.48
768.33	1695.72
768.51	1714.15
768.69	1716.20
768.87	1722.34
769.04	1691.62
769.22	1814.50
769.40	1755.11
769.58	1865.70
769.75	1667.05
769.93	1816.55
770.11	1652.71
770.28	1656.81
770.46	1765.35
770.64	1699.81
770.82	1628.14
770.99	1710.05
771.17	1683.43
771.35	1673.19
771.53	1673.19
771.70	1697.77
771.88	1732.58
772.06	1658.85
772.23	1677.29
772.41	1712.10
772.59	1660.90
772.77	1621.99
772.94	1748.97
773.12	1697.77
773.30	1685.48
773.47	1687.53
773.65	1599.46
773.83	1789.92
774.01	1738.73
774.18	1601.51
774.36	1673.19
774.54	1642.47
774.71	1652.71
774.89	1609.70
775.07	1671.14
775.24	1689.57
775.42	1697.77
775.60	1798.12
775.78	1667.05
775.95	1619.94
776.13	1546.22
776.31	1597.42
776.48	1650.66
776.66	1755.11
776.84	1671.14
777.01	1660.90
777.19	1648.61
777.37	1652.71
777.54	1779.68
777.72	1796.07
777.90	1746.92
778.07	1644.52
778.25	1929.19
778.43	1765.35
778.60	1720.29
778.78	1785.83
778.96	1691.62
779.13	1609.70
779.31	1828.84
779.49	1753.06
779.66	1738.73
779.84	1662.95
780.01	1689.57
780.19	1628.14
780.37	1791.97
780.54	1740.77
780.72	1714.15
780.90	1755.11
781.07	1681.38
781.25	1626.09
781.43	1767.40
781.60	1730.53
781.78	1705.96
781.95	1699.81
782.13	1681.38
782.31	1708.01
782.48	1644.52
782.66	1681.38
782.83	1740.77
783.01	1683.43
783.19	1804.26
783.36	1644.52
783.54	1650.66
783.72	1763.30
783.89	1583.08
784.07	1714.15
784.24	1734.63
784.42	1705.96
784.60	1708.01
784.77	1677.29
784.95	1607.66
785.12	1667.05
785.30	1673.19
785.47	1677.29
785.65	1572.84
785.83	1624.04
786.00	1710.05
786.18	1640.42
786.35	1599.46
786.53	1615.85
786.71	1728.49
786.88	1685.48
787.06	1695.72
787.23	1708.01
787.41	1642.47
787.58	1736.68
787.76	1660.90
787.94	1767.40
788.11	1699.81
788.29	1660.90
788.46	1734.63
788.64	1615.85
788.81	1667.05
788.99	1646.57
789.16	1652.71
789.34	1695.72
789.52	1603.56
789.69	1716.20
789.87	1603.56
790.04	1708.01
790.22	1644.52
790.39	1824.74
790.57	1591.27
790.74	1648.61
790.92	1757.16
791.09	1640.42
791.27	1708.01
791.44	1787.88
791.62	1726.44
791.79	1755.11
791.97	1705.96
792.15	1841.12
792.32	1679.33
792.50	1740.77
792.67	1777.64
792.85	1822.69
793.02	1726.44
793.20	1708.01
793.37	1642.47
793.55	1679.33
793.72	1648.61
793.90	1787.88
794.07	1660.90
794.25	1626.09
794.42	1759.21
794.60	1648.61
794.77	1769.44
794.95	1753.06
795.12	1757.16
795.30	1697.77
795.47	1605.61
795.65	1904.61
795.82	1650.66
796.00	1722.34
796.17	1705.96
796.34	1652.71
796.52	1779.68
796.69	1767.40
796.87	1695.72
797.04	1722.34
797.22	1714.15
797.39	1708.01
797.57	1751.01
797.74	1644.52
797.92	1718.25
798.09	1630.18
798.27	1722.34
798.44	1755.11
798.62	1681.38
798.79	1773.54
798.96	1794.02
799.14	1673.19
799.31	1841.12
799.49	1726.44
799.66	1589.22
799.84	1695.72
800.01	1656.81
800.19	1740.77
800.36	1597.42
800.53	1732.58
800.71	1738.73
800.88	1718.25
801.06	1677.29
801.23	1619.94
801.41	1714.15
801.58	1683.43
801.75	1626.09
801.93	1679.33
802.10	1630.18
802.28	1640.42
802.45	1642.47
802.63	1718.25
802.80	1757.16
802.97	1712.10
803.15	1662.95
803.32	1726.44
803.50	1679.33
803.67	1613.80
803.84	1716.20
804.02	1724.39
804.19	1734.63
804.37	1642.47
804.54	1617.90
804.71	1697.77
804.89	1667.05
805.06	1603.56
805.24	1640.42
805.41	1617.90
805.58	1615.85
805.76	1830.88
805.93	1728.49
806.10	1714.15
806.28	1769.44
806.45	1712.10
806.63	1722.34
806.80	1755.11
806.97	1652.71
807.15	1720.29
807.32	1669.09
807.49	1689.57
807.67	1607.66
807.84	1683.43
808.01	1636.33
808.19	1810.40
808.36	1873.89
808.54	1740.77
808.71	1607.66
808.88	1669.09
809.06	1728.49
809.23	1841.12
809.40	1699.81
809.58	1736.68
809.75	1744.87
809.92	1626.09
810.10	1794.02
810.27	1802.21
810.44	1695.72
810.62	1775.59
810.79	1753.06
810.96	1677.29
811.14	1595.37
811.31	1820.64
811.48	1763.30
811.66	1656.81
811.83	1710.05
812.00	1648.61
812.18	1732.58
812.35	1763.30
812.52	1636.33
812.69	1632.23
812.87	1697.77
813.04	1712.10
813.21	1675.24
813.39	1677.29
813.56	1660.90
813.73	1748.97
813.91	1570.79
814.08	1734.63
814.25	1665.00
814.42	1634.28
814.60	1697.77
814.77	1656.81
814.94	1705.96
815.12	1753.06
815.29	1808.36
815.46	1662.95
815.63	1683.43
815.81	1679.33
815.98	1630.18
816.15	1755.11
816.33	1734.63
816.50	1677.29
816.67	1673.19
816.84	1656.81
817.02	1621.99
817.19	1685.48
817.36	1755.11
817.53	1753.06
817.71	1621.99
817.88	1710.05
818.05	1740.77
818.22	1669.09
818.40	1738.73
818.57	1677.29
818.74	1820.64
818.91	1644.52
819.09	1757.16
819.26	1693.67
819.43	1677.29
819.60	1576.94
819.78	1681.38
819.95	1732.58
820.12	1763.30
820.29	1744.87
820.47	1767.40
820.64	1691.62
820.81	1691.62
820.98	1611.75
821.15	1671.14
821.33	1714.15
821.50	1652.71
821.67	1744.87
821.84	1646.57
822.02	1724.39
822.19	1693.67
822.36	1626.09
822.53	1667.05
822.70	1593.32
822.88	1683.43
823.05	1759.21
823.22	1652.71
823.39	1726.44
823.56	1701.86
823.74	1822.69
823.91	1640.42
824.08	1646.57
824.25	1546.22
824.42	1763.30
824.60	1652.71
824.77	1816.55
824.94	1665.00
825.11	1685.48
825.28	1626.09
825.45	1615.85
825.63	1681.38
825.80	1617.90
825.97	1697.77
826.14	1603.56
826.31	1546.22
826.48	1767.40
826.66	1626.09
826.83	1658.85
827.00	1716.20
827.17	1673.19
827.34	1708.01
827.51	1601.51
827.69	1667.05
827.86	1687.53
828.03	1658.85
828.20	1771.49
828.37	1673.19
828.54	1753.06
828.71	1679.33
828.89	1804.26
829.06	1736.68
829.23	1699.81
829.40	1667.05
829.57	1650.66
829.74	1691.62
829.91	1640.42
830.09	1601.51
830.26	1654.76
830.43	1783.78
830.60	1755.11
830.77	1730.53
830.94	1710.05
831.11	1730.53
831.28	1699.81
831.46	1834.98
831.63	1638.38
831.80	1804.26
831.97	1683.43
832.14	1712.10
832.31	1710.05
832.48	1787.88
832.65	1769.44
832.82	1703.91
832.99	1665.00
833.17	1699.81
833.34	1730.53
833.51	1628.14
833.68	1658.85
833.85	1748.97
834.02	1644.52
834.19	1615.85
834.36	1566.70
834.53	1683.43
834.70	1828.84
834.87	1765.35
835.04	1757.16
835.22	1646.57
835.39	1615.85
835.56	1640.42
835.73	1648.61
835.90	1740.77
836.07	1638.38
836.24	1691.62
836.41	1628.14
836.58	1650.66
836.75	1794.02
836.92	1697.77
837.09	1638.38
837.26	1705.96
837.43	1791.97
837.60	1701.86
837.77	1632.23
837.94	1669.09
838.12	1734.63
838.29	1624.04
838.46	1660.90
838.63	1587.18
838.80	1746.92
838.97	1648.61
839.14	1648.61
839.31	1689.57
839.48	1695.72
839.65	1669.09
839.82	1718.25
839.99	1705.96
840.16	1658.85
840.33	1683.43
840.50	1751.01
840.67	1617.90
840.84	1632.23
841.01	1665.00
841.18	1646.57
841.35	1613.80
841.52	1751.01
841.69	1736.68
841.86	1744.87
842.03	1691.62
842.20	1748.97
842.37	1681.38
842.54	1650.66
842.71	1675.24
842.88	1632.23
843.05	1759.21
843.22	1650.66
843.39	1685.48
843.56	1751.01
843.73	1656.81
843.90	1716.20
844.07	1703.91
844.24	1724.39
844.41	1777.64
844.58	1683.43
844.75	1724.39
844.92	1697.77
845.09	1710.05
845.26	1724.39
845.43	1679.33
845.60	1619.94
845.77	1759.21
845.94	1687.53
846.10	1773.54
846.27	1558.50
846.44	1615.85
846.61	1628.14
846.78	1609.70
846.95	1732.58
847.12	1763.30
847.29	1697.77
847.46	1640.42
847.63	1773.54
847.80	1593.32
847.97	1660.90
848.14	1755.11
848.31	1751.01
848.48	1609.70
848.65	1697.77
848.82	1648.61
848.98	1877.99
849.15	1718.25
849.32	1748.97
849.49	1730.53
849.66	1716.20
849.83	1679.33
850.00	1630.18
850.17	1798.12
850.34	1722.34
850.51	1640.42
850.68	1697.77
850.85	1873.89
851.01	1695.72
851.18	1689.57
851.35	1638.38
851.52	1791.97
851.69	1751.01
851.86	1667.05
852.03	1646.57
852.20	1773.54
852.37	1681.38
852.53	1640.42
852.70	1650.66
852.87	1734.63
853.04	1718.25
853.21	1748.97
853.38	1777.64
853.55	1755.11
853.72	1791.97
853.89	1728.49
854.05	1673.19
854.22	1624.04
854.39	1705.96
854.56	1691.62
854.73	1767.40
854.90	1662.95
855.07	1650.66
855.23	1734.63
855.40	1681.38
855.57	1685.48
855.74	1630.18
855.91	1873.89
856.08	1566.70
856.25	1662.95
856.41	1689.57
856.58	1673.19
856.75	1839.08
856.92	1574.89
857.09	1796.07
857.26	1671.14
857.42	1646.57
857.59	1785.83
857.76	1652.71
857.93	1712.10
858.10	1691.62
858.27	1615.85
858.43	1798.12
858.60	1611.75
858.77	1605.61
858.94	1689.57
859.11	1730.53
859.27	1728.49
859.44	1671.14
859.61	1806.31
859.78	1718.25
859.95	1720.29
860.12	1677.29
860.28	1783.78
860.45	1837.03
860.62	1722.34
860.79	1677.29
860.95	1761.25
861.12	1671.14
861.29	1589.22
861.46	1746.92
861.63	1673.19
861.79	1669.09
861.96	1685.48
862.13	1683.43
862.30	1703.91
862.47	1652.71
862.63	1640.42
862.80	1826.79
862.97	1718.25
863.14	1669.09
863.30	1665.00
863.47	1675.24
863.64	1742.82
863.81	1697.77
863.97	1705.96
864.14	1742.82
864.31	1691.62
864.48	1740.77
864.65	1748.97
864.81	1734.63
864.98	1679.33
865.15	1779.68
865.32	1771.49
865.48	1724.39
865.65	1791.97
865.82	1699.81
865.98	1650.66
866.15	1742.82
866.32	1761.25
866.49	1665.00
866.65	1693.67
866.82	1636.33
866.99	1642.47
867.16	1632.23
867.32	1701.86
867.49	1662.95
867.66	1691.62
867.83	1714.15
867.99	1621.99
868.16	1695.72
868.33	1642.47
868.49	1714.15
868.66	1658.85
868.83	1714.15
868.99	1646.57
869.16	1738.73
869.33	1683.43
869.50	1705.96
869.66	1734.63
869.83	1683.43
870.00	1595.37
870.16	1802.21
870.33	1654.76
870.50	1724.39
870.66	1748.97
870.83	1771.49
871.00	1716.20
871.17	1742.82
871.33	1722.34
871.50	1708.01
871.67	1722.34
871.83	1738.73
872.00	1789.92
872.17	1748.97
872.33	1789.92
872.50	1853.41
872.67	1734.63
872.83	1677.29
873.00	1798.12
873.17	1732.58
873.33	1798.12
873.50	1800.16
873.67	1583.08
873.83	1644.52
874.00	1681.38
874.16	1619.94
874.33	1703.91
874.50	1675.24
874.66	1789.92
874.83	1685.48
875.00	1740.77
875.16	1708.01
875.33	1802.21
875.50	1560.55
875.66	1648.61
875.83	1642.47
875.99	1767.40
876.16	1642.47
876.33	1652.71
876.49	1701.86
876.66	1667.05
876.83	1630.18
876.99	1624.04
877.16	1652.71
877.32	1697.77
877.49	1679.33
877.66	1650.66
877.82	1753.06
877.99	1763.30
878.15	1744.87
878.32	1708.01
878.49	1705.96
878.65	1593.32
878.82	1714.15
878.98	1652.71
879.15	1857.51
879.32	1734.63
879.48	1660.90
879.65	1716.20
879.81	1726.44
879.98	1658.85
880.15	1662.95
880.31	1732.58
880.48	1644.52
880.64	1773.54
880.81	1695.72
880.97	1785.83
881.14	1841.12
881.31	1648.61
881.47	1832.93
881.64	1697.77
881.80	1589.22
881.97	1611.75
882.13	1720.29
882.30	1613.80
882.47	1736.68
882.63	1669.09
882.80	1660.90
882.96	1660.90
883.13	1691.62
883.29	1710.05
883.46	1673.19
883.62	1751.01
883.79	1681.38
883.95	1781.73
884.12	1691.62
884.29	1767.40
884.45	1720.29
884.62	1730.53
884.78	1650.66
884.95	1771.49
885.11	1603.56
885.28	1753.06
885.44	1726.44
885.61	1679.33
885.77	1789.92
885.94	1699.81
886.10	1621.99
886.27	1724.39
886.43	1740.77
886.60	1720.29
886.76	1607.66
886.93	1671.14
887.09	1701.86
887.26	1669.09
887.42	1687.53
887.59	1794.02
887.75	1818.60
887.92	1742.82
888.08	1716.20
888.25	1748.97
888.41	1796.07
888.58	1648.61
888.74	1589.22
888.91	1720.29
>>>>>End Processed Spectral Data<<<<<
