SpectraSuite Data File
++++++++++++++++++++++++++++++++++++
Date: Mon Jun 06 16:10:37 CEST 2016
User: root
Dark Spectrum Present: No
Reference Spectrum Present: No
Number of Sampled Component Spectra: 1
Spectrometers: USB4C02835
Integration Time (usec): 100000 (USB4C02835)
Spectra Averaged: 1 (USB4C02835)
Boxcar Smoothing: 0 (USB4C02835)
Correct for Electrical Dark: No (USB4C02835)
Strobe/Lamp Enabled: No (USB4C02835)
Correct for Detector Non-linearity: No (USB4C02835)
Correct for Stray Light: No (USB4C02835)
Number of Pixels in Processed Spectrum: 3648
>>>>>Begin Processed Spectral Data<<<<<
177.47	1452.01
177.69	1452.01
177.91	1452.01
178.13	1456.11
178.36	1478.63
178.58	1730.53
178.80	1683.43
179.02	1601.51
179.24	1638.38
179.46	1644.52
179.68	1767.40
179.90	1665.00
180.13	1740.77
180.35	1697.77
180.57	1681.38
180.79	1740.77
181.01	1689.57
181.23	1804.26
181.45	1791.97
181.67	1808.36
181.90	1794.02
182.12	1726.44
182.34	1652.71
182.56	1763.30
182.78	1689.57
183.00	1632.23
183.22	1751.01
183.44	1605.61
183.66	1929.19
183.89	1787.88
184.11	1732.58
184.33	1757.16
184.55	1726.44
184.77	1744.87
184.99	1679.33
185.21	1755.11
185.43	1900.52
185.65	1728.49
185.87	1748.97
186.10	1869.80
186.32	1837.03
186.54	1718.25
186.76	1759.21
186.98	1689.57
187.20	1656.81
187.42	1701.86
187.64	1712.10
187.86	1677.29
188.08	1751.01
188.30	1640.42
188.52	1665.00
188.75	1675.24
188.97	1761.25
189.19	1722.34
189.41	1628.14
189.63	1763.30
189.85	1646.57
190.07	1697.77
190.29	1583.08
190.51	1744.87
190.73	1628.14
190.95	1804.26
191.17	1667.05
191.39	1597.42
191.61	1724.39
191.84	1779.68
192.06	1718.25
192.28	1619.94
192.50	1912.80
192.72	1751.01
192.94	1669.09
193.16	1779.68
193.38	1634.28
193.60	1660.90
193.82	1730.53
194.04	1826.79
194.26	1765.35
194.48	1730.53
194.70	1665.00
194.92	1681.38
195.14	1779.68
195.36	1687.53
195.58	1695.72
195.80	1660.90
196.02	1619.94
196.24	1714.15
196.46	1777.64
196.69	1638.38
196.91	1832.93
197.13	1744.87
197.35	1621.99
197.57	1789.92
197.79	1763.30
198.01	1796.07
198.23	1734.63
198.45	1685.48
198.67	1675.24
198.89	1724.39
199.11	1722.34
199.33	1677.29
199.55	1609.70
199.77	1636.33
199.99	1837.03
200.21	1742.82
200.43	1779.68
200.65	1662.95
200.87	1626.09
201.09	1667.05
201.31	1695.72
201.53	1652.71
201.75	1773.54
201.97	1703.91
202.19	1744.87
202.41	1810.40
202.63	1804.26
202.85	1751.01
203.07	1681.38
203.29	1738.73
203.51	1679.33
203.73	1658.85
203.95	1837.03
204.17	1724.39
204.39	1746.92
204.61	1742.82
204.83	1736.68
205.05	1816.55
205.27	1796.07
205.49	1841.12
205.71	1757.16
205.93	1654.76
206.15	1724.39
206.37	1746.92
206.59	1654.76
206.81	1652.71
207.03	1634.28
207.25	1693.67
207.47	1734.63
207.69	1667.05
207.91	1757.16
208.13	1722.34
208.34	1669.09
208.56	1681.38
208.78	1710.05
209.00	1673.19
209.22	1640.42
209.44	1779.68
209.66	1689.57
209.88	1728.49
210.10	1681.38
210.32	1671.14
210.54	1783.78
210.76	1662.95
210.98	1781.73
211.20	1607.66
211.42	1732.58
211.64	1740.77
211.86	1771.49
212.08	1783.78
212.30	1742.82
212.52	1605.61
212.74	1708.01
212.96	1775.59
213.17	1798.12
213.39	1765.35
213.61	1779.68
213.83	1816.55
214.05	1650.66
214.27	1779.68
214.49	1716.20
214.71	1687.53
214.93	1714.15
215.15	1677.29
215.37	1703.91
215.59	1630.18
215.81	1742.82
216.03	1763.30
216.24	1677.29
216.46	1753.06
216.68	1730.53
216.90	1769.44
217.12	1722.34
217.34	1726.44
217.56	1732.58
217.78	1804.26
218.00	1718.25
218.22	1740.77
218.44	1699.81
218.66	1755.11
218.87	1804.26
219.09	1685.48
219.31	1759.21
219.53	1736.68
219.75	1652.71
219.97	1681.38
220.19	1773.54
220.41	1746.92
220.63	1796.07
220.85	1728.49
221.06	1665.00
221.28	1798.12
221.50	1712.10
221.72	1714.15
221.94	1740.77
222.16	1730.53
222.38	1757.16
222.60	1744.87
222.82	1626.09
223.03	1677.29
223.25	1730.53
223.47	1703.91
223.69	1808.36
223.91	1742.82
224.13	1705.96
224.35	1697.77
224.57	1781.73
224.78	1656.81
225.00	1634.28
225.22	1738.73
225.44	1763.30
225.66	1802.21
225.88	1646.57
226.10	1767.40
226.32	1755.11
226.53	1714.15
226.75	1705.96
226.97	1730.53
227.19	1710.05
227.41	1613.80
227.63	1660.90
227.85	1650.66
228.06	1710.05
228.28	1687.53
228.50	1791.97
228.72	1681.38
228.94	1685.48
229.16	1644.52
229.37	1695.72
229.59	1687.53
229.81	1734.63
230.03	1679.33
230.25	1656.81
230.47	1630.18
230.69	1613.80
230.90	1716.20
231.12	1652.71
231.34	1759.21
231.56	1728.49
231.78	1593.32
232.00	1724.39
232.21	1701.86
232.43	1576.94
232.65	1556.46
232.87	1718.25
233.09	1640.42
233.30	1611.75
233.52	1757.16
233.74	1701.86
233.96	1744.87
234.18	1746.92
234.40	1757.16
234.61	1822.69
234.83	1634.28
235.05	1683.43
235.27	1861.60
235.49	1837.03
235.70	1673.19
235.92	1830.88
236.14	1789.92
236.36	1832.93
236.58	1681.38
236.79	1794.02
237.01	1701.86
237.23	1695.72
237.45	1853.41
237.67	1621.99
237.88	1691.62
238.10	1816.55
238.32	1658.85
238.54	1720.29
238.76	1767.40
238.97	1626.09
239.19	1667.05
239.41	1746.92
239.63	1730.53
239.85	1662.95
240.06	1705.96
240.28	1673.19
240.50	1779.68
240.72	1701.86
240.93	1671.14
241.15	1830.88
241.37	1742.82
241.59	1771.49
241.81	1677.29
242.02	1626.09
242.24	1751.01
242.46	1662.95
242.68	1716.20
242.89	1765.35
243.11	1771.49
243.33	1746.92
243.55	1732.58
243.76	1697.77
243.98	1712.10
244.20	1673.19
244.42	1716.20
244.64	1718.25
244.85	1646.57
245.07	1656.81
245.29	1724.39
245.51	1736.68
245.72	1677.29
245.94	1765.35
246.16	1773.54
246.38	1656.81
246.59	1642.47
246.81	1804.26
247.03	1689.57
247.24	1693.67
247.46	1675.24
247.68	1746.92
247.90	1693.67
248.11	1693.67
248.33	1759.21
248.55	1718.25
248.77	1777.64
248.98	1781.73
249.20	1785.83
249.42	1681.38
249.64	1699.81
249.85	1812.45
250.07	1724.39
250.29	1765.35
250.50	1742.82
250.72	1599.46
250.94	1769.44
251.16	1845.22
251.37	1789.92
251.59	1791.97
251.81	1748.97
252.02	1701.86
252.24	1669.09
252.46	1763.30
252.68	1667.05
252.89	1671.14
253.11	1624.04
253.33	1857.51
253.54	1771.49
253.76	1628.14
253.98	1691.62
254.20	1681.38
254.41	1685.48
254.63	1755.11
254.85	1685.48
255.06	1675.24
255.28	1773.54
255.50	1732.58
255.71	1642.47
255.93	1615.85
256.15	1681.38
256.36	1714.15
256.58	1677.29
256.80	1738.73
257.02	1708.01
257.23	1665.00
257.45	1736.68
257.67	1859.56
257.88	1689.57
258.10	1728.49
258.32	1777.64
258.53	1724.39
258.75	1855.46
258.97	1624.04
259.18	1703.91
259.40	1794.02
259.62	1785.83
259.83	1828.84
260.05	1738.73
260.27	1974.24
260.48	1810.40
260.70	1675.24
260.92	1667.05
261.13	1703.91
261.35	1742.82
261.57	1814.50
261.78	1626.09
262.00	1665.00
262.22	1771.49
262.43	1675.24
262.65	1736.68
262.86	1748.97
263.08	1828.84
263.30	1722.34
263.51	1638.38
263.73	1708.01
263.95	1826.79
264.16	1644.52
264.38	1746.92
264.60	1695.72
264.81	1753.06
265.03	1814.50
265.25	1798.12
265.46	1701.86
265.68	1769.44
265.89	1755.11
266.11	1671.14
266.33	1773.54
266.54	1746.92
266.76	1796.07
266.98	1746.92
267.19	1761.25
267.41	1652.71
267.62	1732.58
267.84	1626.09
268.06	1730.53
268.27	1708.01
268.49	1761.25
268.70	1830.88
268.92	1755.11
269.14	1677.29
269.35	1642.47
269.57	1730.53
269.79	1820.64
270.00	1701.86
270.22	1822.69
270.43	1681.38
270.65	1662.95
270.87	1791.97
271.08	1740.77
271.30	1763.30
271.51	1781.73
271.73	1753.06
271.95	1837.03
272.16	1697.77
272.38	1748.97
272.59	1673.19
272.81	1822.69
273.02	1718.25
273.24	1740.77
273.46	1779.68
273.67	1619.94
273.89	1626.09
274.10	1675.24
274.32	1808.36
274.54	1742.82
274.75	1734.63
274.97	1683.43
275.18	1744.87
275.40	1708.01
275.61	1710.05
275.83	1673.19
276.05	1730.53
276.26	1640.42
276.48	1732.58
276.69	1718.25
276.91	1708.01
277.12	1761.25
277.34	1767.40
277.55	1722.34
277.77	1705.96
277.99	1716.20
278.20	1607.66
278.42	1695.72
278.63	1632.23
278.85	1673.19
279.06	1660.90
279.28	1757.16
279.49	1806.31
279.71	1742.82
279.93	1736.68
280.14	1691.62
280.36	1615.85
280.57	1697.77
280.79	1757.16
281.00	1730.53
281.22	1736.68
281.43	1853.41
281.65	1566.70
281.86	1619.94
282.08	1742.82
282.29	1798.12
282.51	1640.42
282.73	1638.38
282.94	1654.76
283.16	1771.49
283.37	1798.12
283.59	1775.59
283.80	1720.29
284.02	1730.53
284.23	1787.88
284.45	1701.86
284.66	1710.05
284.88	1626.09
285.09	1757.16
285.31	1757.16
285.52	1695.72
285.74	1650.66
285.95	1732.58
286.17	1755.11
286.38	1859.56
286.60	1628.14
286.81	1693.67
287.03	1748.97
287.24	1626.09
287.46	1738.73
287.67	1783.78
287.89	1775.59
288.10	1746.92
288.32	1691.62
288.53	1705.96
288.75	1771.49
288.96	1796.07
289.18	1712.10
289.39	1671.14
289.61	1794.02
289.82	1804.26
290.04	1777.64
290.25	1624.04
290.47	1781.73
290.68	1773.54
290.90	1834.98
291.11	1673.19
291.33	1806.31
291.54	1624.04
291.76	1695.72
291.97	1665.00
292.18	1738.73
292.40	1642.47
292.61	1767.40
292.83	1783.78
293.04	1777.64
293.26	1808.36
293.47	1699.81
293.69	1669.09
293.90	1718.25
294.12	1738.73
294.33	1773.54
294.55	1615.85
294.76	1804.26
294.97	1771.49
295.19	1843.17
295.40	1685.48
295.62	1728.49
295.83	1759.21
296.05	1605.61
296.26	1789.92
296.48	1619.94
296.69	1665.00
296.90	1736.68
297.12	1806.31
297.33	1738.73
297.55	1746.92
297.76	1714.15
297.98	1736.68
298.19	1726.44
298.41	1753.06
298.62	1615.85
298.83	1751.01
299.05	1697.77
299.26	1683.43
299.48	1681.38
299.69	1773.54
299.90	1726.44
300.12	1634.28
300.33	1738.73
300.55	1691.62
300.76	1726.44
300.98	1642.47
301.19	1798.12
301.40	1708.01
301.62	1720.29
301.83	1703.91
302.05	1751.01
302.26	1701.86
302.47	1751.01
302.69	1695.72
302.90	1644.52
303.12	1589.22
303.33	1689.57
303.54	1884.13
303.76	1679.33
303.97	1732.58
304.19	1746.92
304.40	1648.61
304.61	1742.82
304.83	1865.70
305.04	1720.29
305.26	1675.24
305.47	1576.94
305.68	1773.54
305.90	1605.61
306.11	1820.64
306.33	1648.61
306.54	1734.63
306.75	1662.95
306.97	1603.56
307.18	1667.05
307.39	1675.24
307.61	1787.88
307.82	1644.52
308.04	1738.73
308.25	1665.00
308.46	1701.86
308.68	1730.53
308.89	1710.05
309.10	1779.68
309.32	1714.15
309.53	1734.63
309.74	1699.81
309.96	1695.72
310.17	1775.59
310.39	1689.57
310.60	1718.25
310.81	1771.49
311.03	1640.42
311.24	1769.44
311.45	1714.15
311.67	1824.74
311.88	1724.39
312.09	1683.43
312.31	1611.75
312.52	1785.83
312.73	1693.67
312.95	1642.47
313.16	1665.00
313.37	1783.78
313.59	1732.58
313.80	1763.30
314.01	1810.40
314.23	1726.44
314.44	1691.62
314.65	1644.52
314.87	1759.21
315.08	1644.52
315.29	1732.58
315.51	1669.09
315.72	1665.00
315.93	1839.08
316.15	1789.92
316.36	1578.98
316.57	1736.68
316.79	1742.82
317.00	1777.64
317.21	1757.16
317.43	1687.53
317.64	1650.66
317.85	1718.25
318.07	1699.81
318.28	1714.15
318.49	1888.23
318.70	1918.95
318.92	1810.40
319.13	1794.02
319.34	1920.99
319.56	1785.83
319.77	1767.40
319.98	1806.31
320.20	1810.40
320.41	1785.83
320.62	1746.92
320.83	1746.92
321.05	1746.92
321.26	1740.77
321.47	1753.06
321.69	1812.45
321.90	1660.90
322.11	1621.99
322.32	1656.81
322.54	1863.65
322.75	1742.82
322.96	1806.31
323.18	1652.71
323.39	1607.66
323.60	1595.37
323.81	1822.69
324.03	1691.62
324.24	1695.72
324.45	1746.92
324.66	1671.14
324.88	1814.50
325.09	1855.46
325.30	1753.06
325.52	1718.25
325.73	1751.01
325.94	1675.24
326.15	1628.14
326.37	1685.48
326.58	1695.72
326.79	1818.60
327.00	1665.00
327.22	1708.01
327.43	1667.05
327.64	1634.28
327.85	1716.20
328.07	1738.73
328.28	1781.73
328.49	1708.01
328.70	1714.15
328.92	1769.44
329.13	1703.91
329.34	1708.01
329.55	1841.12
329.76	1771.49
329.98	1746.92
330.19	1789.92
330.40	1683.43
330.61	1730.53
330.83	1732.58
331.04	1755.11
331.25	1718.25
331.46	1740.77
331.68	1560.55
331.89	1791.97
332.10	1763.30
332.31	1665.00
332.52	1636.33
332.74	1814.50
332.95	1724.39
333.16	1724.39
333.37	1757.16
333.58	1681.38
333.80	1763.30
334.01	1667.05
334.22	1714.15
334.43	1640.42
334.64	1660.90
334.86	1611.75
335.07	1681.38
335.28	1877.99
335.49	1609.70
335.70	1681.38
335.92	1771.49
336.13	1791.97
336.34	1775.59
336.55	1746.92
336.76	1701.86
336.98	1597.42
337.19	1703.91
337.40	1802.21
337.61	1867.75
337.82	1685.48
338.04	1757.16
338.25	1667.05
338.46	1755.11
338.67	1738.73
338.88	1660.90
339.09	1677.29
339.31	1714.15
339.52	1662.95
339.73	1603.56
339.94	1740.77
340.15	1689.57
340.36	1667.05
340.58	1724.39
340.79	1642.47
341.00	1726.44
341.21	1695.72
341.42	1890.28
341.63	1724.39
341.85	1775.59
342.06	1732.58
342.27	1650.66
342.48	1716.20
342.69	1673.19
342.90	1716.20
343.12	1742.82
343.33	1628.14
343.54	1742.82
343.75	1781.73
343.96	1755.11
344.17	1626.09
344.38	1738.73
344.60	1640.42
344.81	1603.56
345.02	1648.61
345.23	1820.64
345.44	1773.54
345.65	1726.44
345.86	1728.49
346.07	1660.90
346.29	1665.00
346.50	1722.34
346.71	1699.81
346.92	1812.45
347.13	1884.13
347.34	1714.15
347.55	1695.72
347.76	1759.21
347.98	1667.05
348.19	1705.96
348.40	1773.54
348.61	1732.58
348.82	1697.77
349.03	1740.77
349.24	1720.29
349.45	1746.92
349.66	1624.04
349.88	1740.77
350.09	1671.14
350.30	1693.67
350.51	1853.41
350.72	1767.40
350.93	1732.58
351.14	1677.29
351.35	1724.39
351.56	1654.76
351.77	1613.80
351.99	1714.15
352.20	1832.93
352.41	1800.16
352.62	1587.18
352.83	1687.53
353.04	1724.39
353.25	1665.00
353.46	1726.44
353.67	1765.35
353.88	1652.71
354.09	1656.81
354.30	1765.35
354.52	1802.21
354.73	1687.53
354.94	1660.90
355.15	1714.15
355.36	1703.91
355.57	1656.81
355.78	1701.86
355.99	1759.21
356.20	1675.24
356.41	1726.44
356.62	1777.64
356.83	1722.34
357.04	1849.32
357.25	1605.61
357.46	1669.09
357.68	1583.08
357.89	1683.43
358.10	1742.82
358.31	1708.01
358.52	1730.53
358.73	1667.05
358.94	1615.85
359.15	1660.90
359.36	1785.83
359.57	1718.25
359.78	1755.11
359.99	1687.53
360.20	1669.09
360.41	1710.05
360.62	1818.60
360.83	1708.01
361.04	1724.39
361.25	1746.92
361.46	1724.39
361.67	1789.92
361.88	1769.44
362.09	1812.45
362.30	1828.84
362.51	1642.47
362.72	1710.05
362.93	1712.10
363.14	1773.54
363.35	1761.25
363.56	1644.52
363.78	1787.88
363.99	1742.82
364.20	1587.18
364.41	1736.68
364.62	1839.08
364.83	1759.21
365.04	1740.77
365.25	1726.44
365.46	1785.83
365.67	1701.86
365.88	1636.33
366.09	1753.06
366.30	1722.34
366.51	1681.38
366.72	1691.62
366.93	1660.90
367.14	1691.62
367.35	1816.55
367.56	1705.96
367.77	1794.02
367.98	1710.05
368.18	1757.16
368.39	1697.77
368.60	1624.04
368.81	1726.44
369.02	1763.30
369.23	1677.29
369.44	1570.79
369.65	1693.67
369.86	1687.53
370.07	1767.40
370.28	1662.95
370.49	1703.91
370.70	1738.73
370.91	1748.97
371.12	1689.57
371.33	1740.77
371.54	1691.62
371.75	1777.64
371.96	1587.18
372.17	1650.66
372.38	1662.95
372.59	1751.01
372.80	1722.34
373.01	1689.57
373.22	1732.58
373.43	1710.05
373.64	1572.84
373.85	1777.64
374.06	1834.98
374.26	1781.73
374.47	1683.43
374.68	1822.69
374.89	1769.44
375.10	1613.80
375.31	1777.64
375.52	1738.73
375.73	1689.57
375.94	1685.48
376.15	1740.77
376.36	1724.39
376.57	1681.38
376.78	1767.40
376.99	1746.92
377.20	1740.77
377.40	1753.06
377.61	1861.60
377.82	1644.52
378.03	1757.16
378.24	1693.67
378.45	1718.25
378.66	1691.62
378.87	1619.94
379.08	1654.76
379.29	1791.97
379.50	1769.44
379.71	1683.43
379.91	1765.35
380.12	1687.53
380.33	1601.51
380.54	1777.64
380.75	1697.77
380.96	1646.57
381.17	1789.92
381.38	1742.82
381.59	1816.55
381.80	1779.68
382.00	1882.08
382.21	1738.73
382.42	1871.84
382.63	1871.84
382.84	1765.35
383.05	1789.92
383.26	1861.60
383.47	1613.80
383.68	1710.05
383.88	1738.73
384.09	1769.44
384.30	1820.64
384.51	1800.16
384.72	1718.25
384.93	1607.66
385.14	1677.29
385.35	1714.15
385.55	1603.56
385.76	1759.21
385.97	1693.67
386.18	1585.13
386.39	1671.14
386.60	1757.16
386.81	1689.57
387.02	1691.62
387.22	1724.39
387.43	1695.72
387.64	1796.07
387.85	1904.61
388.06	2127.84
388.27	4097.99
388.48	6840.22
388.68	8032.13
388.89	9508.72
389.10	9742.19
389.31	8630.14
389.52	7542.67
389.73	6713.24
389.93	6219.68
390.14	5826.47
390.35	5281.71
390.56	4495.29
390.77	3803.08
390.98	3088.34
391.18	2523.10
391.39	2123.74
391.60	1869.80
391.81	1894.37
392.02	1804.26
392.23	1808.36
392.43	1714.15
392.64	1867.75
392.85	1794.02
393.06	1847.27
393.27	1710.05
393.47	1705.96
393.68	1730.53
393.89	1662.95
394.10	1783.78
394.31	1681.38
394.52	1593.32
394.72	1652.71
394.93	1851.36
395.14	1722.34
395.35	1738.73
395.56	1689.57
395.76	1718.25
395.97	1837.03
396.18	1767.40
396.39	1794.02
396.60	2080.74
396.80	1923.04
397.01	1855.46
397.22	1761.25
397.43	1849.32
397.64	1724.39
397.84	1843.17
398.05	1867.75
398.26	1802.21
398.47	1791.97
398.67	1779.68
398.88	1716.20
399.09	1781.73
399.30	1693.67
399.51	1734.63
399.71	1642.47
399.92	1732.58
400.13	1705.96
400.34	1677.29
400.54	1734.63
400.75	1826.79
400.96	1693.67
401.17	1890.28
401.37	1769.44
401.58	1716.20
401.79	1783.78
402.00	1857.51
402.21	1945.57
402.41	2009.06
402.62	2007.01
402.83	2056.16
403.04	1966.05
403.24	2029.54
403.45	1826.79
403.66	1943.52
403.87	1841.12
404.07	1892.32
404.28	1826.79
404.49	1826.79
404.70	1751.01
404.90	1759.21
405.11	1767.40
405.32	1783.78
405.52	1691.62
405.73	1652.71
405.94	1726.44
406.15	1751.01
406.35	1726.44
406.56	1753.06
406.77	1759.21
406.98	1742.82
407.18	1640.42
407.39	1861.60
407.60	1726.44
407.80	1755.11
408.01	1730.53
408.22	1744.87
408.43	1705.96
408.63	1687.53
408.84	1751.01
409.05	1660.90
409.25	1695.72
409.46	1679.33
409.67	1630.18
409.88	1673.19
410.08	1753.06
410.29	1763.30
410.50	1777.64
410.70	1728.49
410.91	1640.42
411.12	1714.15
411.32	1650.66
411.53	1732.58
411.74	1789.92
411.95	1742.82
412.15	1849.32
412.36	1841.12
412.57	1796.07
412.77	1834.98
412.98	1730.53
413.19	1746.92
413.39	1714.15
413.60	1800.16
413.81	1798.12
414.01	1699.81
414.22	1755.11
414.43	1789.92
414.63	1732.58
414.84	1789.92
415.05	1767.40
415.25	1667.05
415.46	1828.84
415.67	1662.95
415.87	1816.55
416.08	1765.35
416.29	1681.38
416.49	1726.44
416.70	1710.05
416.91	1640.42
417.11	1736.68
417.32	1783.78
417.53	1755.11
417.73	1718.25
417.94	1730.53
418.15	1763.30
418.35	1804.26
418.56	1626.09
418.77	1802.21
418.97	1693.67
419.18	1681.38
419.38	1562.60
419.59	1656.81
419.80	1791.97
420.00	1742.82
420.21	1726.44
420.42	1761.25
420.62	1732.58
420.83	1689.57
421.04	1673.19
421.24	1695.72
421.45	1730.53
421.65	1773.54
421.86	1675.24
422.07	1761.25
422.27	1689.57
422.48	1736.68
422.69	1669.09
422.89	1632.23
423.10	1714.15
423.30	1667.05
423.51	1777.64
423.72	1716.20
423.92	1716.20
424.13	1554.41
424.33	1665.00
424.54	1681.38
424.75	1728.49
424.95	1812.45
425.16	1761.25
425.36	1746.92
425.57	1744.87
425.78	1748.97
425.98	1722.34
426.19	1662.95
426.39	1712.10
426.60	1699.81
426.81	1769.44
427.01	1714.15
427.22	1697.77
427.42	1609.70
427.63	1691.62
427.83	1716.20
428.04	1832.93
428.25	1746.92
428.45	1800.16
428.66	1761.25
428.86	1714.15
429.07	1734.63
429.28	1767.40
429.48	1726.44
429.69	1675.24
429.89	1658.85
430.10	1628.14
430.30	1742.82
430.51	1751.01
430.71	1695.72
430.92	1679.33
431.13	1687.53
431.33	1812.45
431.54	1728.49
431.74	1888.23
431.95	1882.08
432.15	1646.57
432.36	1751.01
432.56	1830.88
432.77	1834.98
432.98	1859.56
433.18	1748.97
433.39	1658.85
433.59	1730.53
433.80	1761.25
434.00	1859.56
434.21	1699.81
434.41	1765.35
434.62	1886.18
434.82	1695.72
435.03	1675.24
435.23	1736.68
435.44	1630.18
435.64	1695.72
435.85	1734.63
436.06	1712.10
436.26	1732.58
436.47	1697.77
436.67	1687.53
436.88	1724.39
437.08	1775.59
437.29	1765.35
437.49	1708.01
437.70	1789.92
437.90	1699.81
438.11	1791.97
438.31	1837.03
438.52	1898.47
438.72	1867.75
438.93	1861.60
439.13	1810.40
439.34	1806.31
439.54	1781.73
439.75	1841.12
439.95	1839.08
440.16	1779.68
440.36	1710.05
440.57	1757.16
440.77	1783.78
440.98	1822.69
441.18	1765.35
441.39	1703.91
441.59	1591.27
441.80	1875.94
442.00	1693.67
442.21	1869.80
442.41	1589.22
442.62	1740.77
442.82	1693.67
443.02	1714.15
443.23	1742.82
443.43	1662.95
443.64	1763.30
443.84	1640.42
444.05	1900.52
444.25	1742.82
444.46	1724.39
444.66	1681.38
444.87	1755.11
445.07	1642.47
445.28	1777.64
445.48	1804.26
445.69	1802.21
445.89	1914.85
446.09	1755.11
446.30	2025.44
446.50	2648.02
446.71	3659.72
446.91	4278.21
447.12	4853.69
447.32	4710.33
447.53	4276.16
447.73	3885.00
447.93	3495.88
448.14	3385.29
448.34	3254.22
448.55	2848.72
448.75	2775.00
448.96	2688.98
449.16	2422.75
449.36	2252.77
449.57	1927.14
449.77	1920.99
449.98	1818.60
450.18	1861.60
450.39	1755.11
450.59	1812.45
450.79	1748.97
451.00	1769.44
451.20	1789.92
451.41	1738.73
451.61	1671.14
451.81	1753.06
452.02	1658.85
452.22	1810.40
452.43	1722.34
452.63	1732.58
452.84	1765.35
453.04	1703.91
453.24	1761.25
453.45	1638.38
453.65	1736.68
453.86	1771.49
454.06	1742.82
454.26	1783.78
454.47	1738.73
454.67	1855.46
454.87	1705.96
455.08	1658.85
455.28	1785.83
455.49	1816.55
455.69	1746.92
455.89	1888.23
456.10	1800.16
456.30	1794.02
456.51	1837.03
456.71	1791.97
456.91	1808.36
457.12	1708.01
457.32	1746.92
457.52	1740.77
457.73	1734.63
457.93	1818.60
458.14	1757.16
458.34	1689.57
458.54	1708.01
458.75	1689.57
458.95	1787.88
459.15	1720.29
459.36	1767.40
459.56	1742.82
459.76	1865.70
459.97	1777.64
460.17	1748.97
460.37	1759.21
460.58	1722.34
460.78	1708.01
460.99	1775.59
461.19	1712.10
461.39	1722.34
461.60	1742.82
461.80	1808.36
462.00	1734.63
462.21	1718.25
462.41	1691.62
462.61	1701.86
462.82	1685.48
463.02	1751.01
463.22	1742.82
463.43	1863.65
463.63	1695.72
463.83	1849.32
464.04	1714.15
464.24	1738.73
464.44	1626.09
464.64	1855.46
464.85	1746.92
465.05	1789.92
465.25	1689.57
465.46	1734.63
465.66	1765.35
465.86	1708.01
466.07	1787.88
466.27	1724.39
466.47	1658.85
466.68	1751.01
466.88	1832.93
467.08	1765.35
467.29	1718.25
467.49	1722.34
467.69	1675.24
467.89	1746.92
468.10	1685.48
468.30	1830.88
468.50	1810.40
468.71	1802.21
468.91	1658.85
469.11	1841.12
469.31	1718.25
469.52	1638.38
469.72	1812.45
469.92	1853.41
470.13	1765.35
470.33	1761.25
470.53	1851.36
470.73	2068.45
470.94	2246.62
471.14	2383.84
471.34	2445.27
471.54	2344.92
471.75	2232.29
471.95	2232.29
472.15	2121.70
472.36	2117.60
472.56	2078.69
472.76	2099.17
472.96	2029.54
473.17	1980.39
473.37	1888.23
473.57	1839.08
473.77	1884.13
473.98	1763.30
474.18	1705.96
474.38	1890.28
474.58	1722.34
474.79	1615.85
474.99	1789.92
475.19	1783.78
475.39	1615.85
475.60	1769.44
475.80	1728.49
476.00	1798.12
476.20	1767.40
476.41	1779.68
476.61	1755.11
476.81	1751.01
477.01	1699.81
477.21	1863.65
477.42	1722.34
477.62	1728.49
477.82	1738.73
478.02	1718.25
478.23	1765.35
478.43	1665.00
478.63	1683.43
478.83	1748.97
479.03	1810.40
479.24	1818.60
479.44	1906.66
479.64	1724.39
479.84	1642.47
480.04	1654.76
480.25	1796.07
480.45	1691.62
480.65	1662.95
480.85	1908.71
481.06	1734.63
481.26	1703.91
481.46	1824.74
481.66	1759.21
481.86	1722.34
482.06	1771.49
482.27	1669.09
482.47	1687.53
482.67	1802.21
482.87	1724.39
483.07	1783.78
483.28	1662.95
483.48	1695.72
483.68	1738.73
483.88	1765.35
484.08	1665.00
484.29	1710.05
484.49	1626.09
484.69	1677.29
484.89	1783.78
485.09	1755.11
485.29	1820.64
485.50	1753.06
485.70	1712.10
485.90	1804.26
486.10	1746.92
486.30	1861.60
486.50	1822.69
486.71	1785.83
486.91	1748.97
487.11	1832.93
487.31	1660.90
487.51	1736.68
487.71	1714.15
487.91	1679.33
488.12	1679.33
488.32	1652.71
488.52	1714.15
488.72	1593.32
488.92	1798.12
489.12	1802.21
489.32	1773.54
489.53	1820.64
489.73	1576.94
489.93	1755.11
490.13	1705.96
490.33	1673.19
490.53	1751.01
490.73	1701.86
490.94	1671.14
491.14	1828.84
491.34	1847.27
491.54	2074.59
491.74	2519.00
491.94	2971.60
492.14	2930.64
492.34	3002.32
492.54	2727.89
492.75	2459.61
492.95	2435.03
493.15	2355.16
493.35	2250.72
493.55	2242.53
493.75	2195.42
493.95	2183.13
494.15	2078.69
494.35	1988.58
494.56	1822.69
494.76	1744.87
494.96	1834.98
495.16	1751.01
495.36	1734.63
495.56	1748.97
495.76	1751.01
495.96	1738.73
496.16	1636.33
496.36	1865.70
496.56	1730.53
496.77	1857.51
496.97	1720.29
497.17	1796.07
497.37	1681.38
497.57	1720.29
497.77	1730.53
497.97	1685.48
498.17	1763.30
498.37	1667.05
498.57	1767.40
498.77	1738.73
498.97	1771.49
499.17	1806.31
499.38	1738.73
499.58	1779.68
499.78	1685.48
499.98	1837.03
500.18	1783.78
500.38	1767.40
500.58	1992.67
500.78	2582.49
500.98	4556.73
501.18	5853.09
501.38	6758.30
501.58	7145.36
501.78	6707.10
501.98	5539.76
502.18	4896.69
502.38	4425.66
502.58	4132.80
502.78	3788.74
502.98	3583.95
503.18	3499.98
503.38	3119.06
503.59	2803.67
503.79	2717.65
503.99	2533.34
504.19	2326.49
504.39	2211.81
504.59	2164.70
504.79	2164.70
504.99	2029.54
505.19	1972.19
505.39	1902.56
505.59	1949.67
505.79	1966.05
505.99	1902.56
506.19	1820.64
506.39	1927.14
506.59	1746.92
506.79	1775.59
506.99	1886.18
507.19	1824.74
507.39	1755.11
507.59	1632.23
507.79	1703.91
507.99	1673.19
508.19	1738.73
508.39	1652.71
508.59	1822.69
508.79	1830.88
508.99	1910.75
509.19	1669.09
509.39	1730.53
509.59	1720.29
509.79	1665.00
509.99	1755.11
510.19	1814.50
510.39	1839.08
510.59	1734.63
510.79	1753.06
510.99	1634.28
511.19	1863.65
511.39	1849.32
511.59	1808.36
511.79	1828.84
511.99	1767.40
512.19	1787.88
512.38	1744.87
512.58	1714.15
512.78	1738.73
512.98	1798.12
513.18	1804.26
513.38	1628.14
513.58	1779.68
513.78	1734.63
513.98	1714.15
514.18	1718.25
514.38	1769.44
514.58	1728.49
514.78	1658.85
514.98	1740.77
515.18	1763.30
515.38	1650.66
515.58	1816.55
515.78	1710.05
515.98	1775.59
516.18	1800.16
516.38	1771.49
516.57	1710.05
516.77	1716.20
516.97	1800.16
517.17	1718.25
517.37	1624.04
517.57	1777.64
517.77	1724.39
517.97	1720.29
518.17	1791.97
518.37	1671.14
518.57	1732.58
518.77	1730.53
518.97	1693.67
519.16	1757.16
519.36	1769.44
519.56	1685.48
519.76	1804.26
519.96	1748.97
520.16	1837.03
520.36	1642.47
520.56	1855.46
520.76	1730.53
520.96	1755.11
521.16	1791.97
521.35	1781.73
521.55	1853.41
521.75	1773.54
521.95	1755.11
522.15	1740.77
522.35	1558.50
522.55	1701.86
522.75	1789.92
522.95	1685.48
523.14	1716.20
523.34	1781.73
523.54	1775.59
523.74	1800.16
523.94	1800.16
524.14	1658.85
524.34	1787.88
524.54	1822.69
524.73	1710.05
524.93	1771.49
525.13	1740.77
525.33	1718.25
525.53	1845.22
525.73	1806.31
525.93	1712.10
526.13	1746.92
526.32	1789.92
526.52	1748.97
526.72	1855.46
526.92	1701.86
527.12	1714.15
527.32	1699.81
527.52	1748.97
527.71	1853.41
527.91	1775.59
528.11	1693.67
528.31	1789.92
528.51	1746.92
528.71	1765.35
528.90	1796.07
529.10	1759.21
529.30	1923.04
529.50	1642.47
529.70	1736.68
529.90	1771.49
530.09	1736.68
530.29	1683.43
530.49	1691.62
530.69	1927.14
530.89	1767.40
531.09	1791.97
531.28	1642.47
531.48	1812.45
531.68	1761.25
531.88	1779.68
532.08	1853.41
532.28	1748.97
532.47	1855.46
532.67	1857.51
532.87	1708.01
533.07	1677.29
533.27	1746.92
533.46	1726.44
533.66	1722.34
533.86	1787.88
534.06	1648.61
534.26	1822.69
534.45	1669.09
534.65	1751.01
534.85	1720.29
535.05	1734.63
535.25	1882.08
535.44	1669.09
535.64	1777.64
535.84	1822.69
536.04	1736.68
536.24	1691.62
536.43	1708.01
536.63	1738.73
536.83	1746.92
537.03	1757.16
537.22	1669.09
537.42	1679.33
537.62	1740.77
537.82	1632.23
538.02	1849.32
538.21	1789.92
538.41	1949.67
538.61	1771.49
538.81	1771.49
539.00	1763.30
539.20	1677.29
539.40	1730.53
539.60	1646.57
539.79	1744.87
539.99	1734.63
540.19	1726.44
540.39	1755.11
540.58	1783.78
540.78	1826.79
540.98	1742.82
541.18	1738.73
541.37	1851.36
541.57	1691.62
541.77	1781.73
541.97	1638.38
542.16	1728.49
542.36	1775.59
542.56	1701.86
542.76	1849.32
542.95	1771.49
543.15	1771.49
543.35	1677.29
543.54	1775.59
543.74	1724.39
543.94	1828.84
544.14	1755.11
544.33	1845.22
544.53	1701.86
544.73	1753.06
544.93	1654.76
545.12	1720.29
545.32	1800.16
545.52	1691.62
545.71	1542.12
545.91	1761.25
546.11	1787.88
546.30	1689.57
546.50	1769.44
546.70	1814.50
546.90	1787.88
547.09	1648.61
547.29	1787.88
547.49	1705.96
547.68	1738.73
547.88	1714.15
548.08	1718.25
548.27	2160.61
548.47	1718.25
548.67	1822.69
548.87	1736.68
549.06	1746.92
549.26	1832.93
549.46	1718.25
549.65	1763.30
549.85	1724.39
550.05	1789.92
550.24	1650.66
550.44	1777.64
550.64	1712.10
550.83	1806.31
551.03	1843.17
551.23	1804.26
551.42	1818.60
551.62	1767.40
551.82	1783.78
552.01	1757.16
552.21	1773.54
552.41	1814.50
552.60	1867.75
552.80	1724.39
553.00	1669.09
553.19	1718.25
553.39	1787.88
553.59	1740.77
553.78	1722.34
553.98	1783.78
554.17	1671.14
554.37	1783.78
554.57	1773.54
554.76	1685.48
554.96	1679.33
555.16	1806.31
555.35	1679.33
555.55	1834.98
555.75	1804.26
555.94	1847.27
556.14	1671.14
556.33	1798.12
556.53	1824.74
556.73	1773.54
556.92	1830.88
557.12	1806.31
557.32	1890.28
557.51	1832.93
557.71	1765.35
557.90	1869.80
558.10	1832.93
558.30	1742.82
558.49	1730.53
558.69	1705.96
558.88	1820.64
559.08	1806.31
559.28	1738.73
559.47	1746.92
559.67	1791.97
559.86	1923.04
560.06	1716.20
560.26	1638.38
560.45	1738.73
560.65	1730.53
560.84	1820.64
561.04	1746.92
561.24	1748.97
561.43	1689.57
561.63	1847.27
561.82	1732.58
562.02	1777.64
562.22	1705.96
562.41	1734.63
562.61	1773.54
562.80	1693.67
563.00	1869.80
563.19	1734.63
563.39	1828.84
563.59	1802.21
563.78	1738.73
563.98	1677.29
564.17	1683.43
564.37	1728.49
564.56	1783.78
564.76	1671.14
564.96	1882.08
565.15	1767.40
565.35	1890.28
565.54	1740.77
565.74	1767.40
565.93	1767.40
566.13	1787.88
566.32	1730.53
566.52	1877.99
566.71	1779.68
566.91	1828.84
567.11	1757.16
567.30	1695.72
567.50	1849.32
567.69	1757.16
567.89	1705.96
568.08	1656.81
568.28	1748.97
568.47	1644.52
568.67	1822.69
568.86	1724.39
569.06	1812.45
569.25	1740.77
569.45	1695.72
569.64	1767.40
569.84	1689.57
570.04	1800.16
570.23	1769.44
570.43	1759.21
570.62	1730.53
570.82	1812.45
571.01	1619.94
571.21	1757.16
571.40	1691.62
571.60	1781.73
571.79	1759.21
571.99	1742.82
572.18	1726.44
572.38	1783.78
572.57	1748.97
572.77	1804.26
572.96	1900.52
573.16	1744.87
573.35	1740.77
573.55	1822.69
573.74	1818.60
573.94	1697.77
574.13	1720.29
574.33	1812.45
574.52	1822.69
574.71	1746.92
574.91	1771.49
575.10	1693.67
575.30	1789.92
575.49	1761.25
575.69	1755.11
575.88	1759.21
576.08	1705.96
576.27	1806.31
576.47	1800.16
576.66	1859.56
576.86	1783.78
577.05	1726.44
577.25	1857.51
577.44	1929.19
577.64	1736.68
577.83	1828.84
578.02	1746.92
578.22	1865.70
578.41	1804.26
578.61	1716.20
578.80	1671.14
579.00	1804.26
579.19	1773.54
579.39	1794.02
579.58	1845.22
579.77	1777.64
579.97	1806.31
580.16	1771.49
580.36	1832.93
580.55	1873.89
580.75	1824.74
580.94	1734.63
581.13	1904.61
581.33	1873.89
581.52	1728.49
581.72	1880.04
581.91	1802.21
582.11	1781.73
582.30	1765.35
582.49	1781.73
582.69	1787.88
582.88	1869.80
583.08	1759.21
583.27	1765.35
583.47	1787.88
583.66	1656.81
583.85	1693.67
584.05	1771.49
584.24	1820.64
584.44	1806.31
584.63	1728.49
584.82	1896.42
585.02	1851.36
585.21	1894.37
585.41	1853.41
585.60	1798.12
585.79	1912.80
585.99	2019.30
586.18	1947.62
586.37	2252.77
586.57	3452.88
586.76	9961.32
586.96	24477.32
587.15	34377.20
587.34	40474.01
587.54	41946.50
587.73	36500.95
587.93	26066.55
588.12	21597.88
588.31	18061.04
588.51	16348.93
588.70	15210.26
588.89	14186.28
589.09	12457.79
589.28	10921.82
589.47	9195.38
589.67	7788.43
589.86	6447.01
590.06	4908.98
590.25	3938.24
590.44	3098.58
590.64	2527.19
590.83	2283.49
591.02	2099.17
591.22	1923.04
591.41	1890.28
591.60	1820.64
591.80	1918.95
591.99	1726.44
592.18	1722.34
592.38	1851.36
592.57	1736.68
592.76	1748.97
592.96	1783.78
593.15	1802.21
593.34	1910.75
593.54	1828.84
593.73	1738.73
593.92	1763.30
594.12	1783.78
594.31	1841.12
594.50	1822.69
594.70	1779.68
594.89	1912.80
595.08	1718.25
595.28	1857.51
595.47	1904.61
595.66	1800.16
595.86	1742.82
596.05	1783.78
596.24	1773.54
596.43	1898.47
596.63	1808.36
596.82	1845.22
597.01	1773.54
597.21	1880.04
597.40	1744.87
597.59	1767.40
597.79	1724.39
597.98	1798.12
598.17	1789.92
598.36	1832.93
598.56	1837.03
598.75	1730.53
598.94	1742.82
599.14	1714.15
599.33	1691.62
599.52	1789.92
599.71	1689.57
599.91	1822.69
600.10	1773.54
600.29	1814.50
600.48	1873.89
600.68	1796.07
600.87	1710.05
601.06	1722.34
601.26	1689.57
601.45	1787.88
601.64	1808.36
601.83	1839.08
602.03	1783.78
602.22	1689.57
602.41	1726.44
602.60	1888.23
602.80	1834.98
602.99	1687.53
603.18	1660.90
603.37	1685.48
603.57	1812.45
603.76	1839.08
603.95	1824.74
604.14	1746.92
604.34	1687.53
604.53	1751.01
604.72	1812.45
604.91	1828.84
605.10	1853.41
605.30	1724.39
605.49	1869.80
605.68	1796.07
605.87	1802.21
606.07	1753.06
606.26	1791.97
606.45	1765.35
606.64	1791.97
606.84	1687.53
607.03	1746.92
607.22	1777.64
607.41	1671.14
607.60	1708.01
607.80	1812.45
607.99	1724.39
608.18	1769.44
608.37	1755.11
608.56	1726.44
608.76	1759.21
608.95	1882.08
609.14	1748.97
609.33	1806.31
609.52	1806.31
609.72	1732.58
609.91	1757.16
610.10	1761.25
610.29	1877.99
610.48	1791.97
610.68	1751.01
610.87	1650.66
611.06	1787.88
611.25	1744.87
611.44	1824.74
611.63	1691.62
611.83	1865.70
612.02	1648.61
612.21	1794.02
612.40	1624.04
612.59	1591.27
612.79	1710.05
612.98	1730.53
613.17	1867.75
613.36	1732.58
613.55	1888.23
613.74	1697.77
613.93	1718.25
614.13	1777.64
614.32	1777.64
614.51	1800.16
614.70	1697.77
614.89	1683.43
615.08	1796.07
615.28	2107.36
615.47	1718.25
615.66	1765.35
615.85	1775.59
616.04	1775.59
616.23	1710.05
616.42	1767.40
616.62	1800.16
616.81	1775.59
617.00	1693.67
617.19	1783.78
617.38	1738.73
617.57	1693.67
617.76	1816.55
617.95	1767.40
618.15	1806.31
618.34	1791.97
618.53	1689.57
618.72	1845.22
618.91	1808.36
619.10	1839.08
619.29	1728.49
619.48	1779.68
619.68	1669.09
619.87	1820.64
620.06	1685.48
620.25	1751.01
620.44	1685.48
620.63	1675.24
620.82	1718.25
621.01	1714.15
621.20	1730.53
621.39	1761.25
621.59	1808.36
621.78	1785.83
621.97	1714.15
622.16	1693.67
622.35	1742.82
622.54	1718.25
622.73	1867.75
622.92	1652.71
623.11	1832.93
623.30	1736.68
623.49	1742.82
623.68	1730.53
623.88	1771.49
624.07	1742.82
624.26	1824.74
624.45	1728.49
624.64	1748.97
624.83	1755.11
625.02	1755.11
625.21	1736.68
625.40	1718.25
625.59	1677.29
625.78	1785.83
625.97	1837.03
626.16	1843.17
626.35	1748.97
626.54	1759.21
626.74	1802.21
626.93	1685.48
627.12	1732.58
627.31	1796.07
627.50	1736.68
627.69	1779.68
627.88	1742.82
628.07	1722.34
628.26	1671.14
628.45	1662.95
628.64	1611.75
628.83	1708.01
629.02	1765.35
629.21	1671.14
629.40	1730.53
629.59	1652.71
629.78	1718.25
629.97	1789.92
630.16	1765.35
630.35	1732.58
630.54	1744.87
630.73	1662.95
630.92	1683.43
631.11	1677.29
631.30	1724.39
631.49	1820.64
631.68	1675.24
631.87	1779.68
632.06	1660.90
632.25	1888.23
632.44	1751.01
632.63	1746.92
632.82	1763.30
633.01	1671.14
633.20	1771.49
633.39	1722.34
633.58	1642.47
633.77	1665.00
633.96	1689.57
634.15	1808.36
634.34	1808.36
634.53	1691.62
634.72	1669.09
634.91	1609.70
635.10	1718.25
635.29	1787.88
635.48	1748.97
635.67	1675.24
635.86	1636.33
636.05	1818.60
636.24	1822.69
636.43	1722.34
636.62	1763.30
636.81	1585.13
637.00	1783.78
637.19	1757.16
637.38	1728.49
637.57	1734.63
637.76	1757.16
637.95	1710.05
638.14	1689.57
638.33	1728.49
638.52	1732.58
638.71	1673.19
638.89	1732.58
639.08	1794.02
639.27	1740.77
639.46	1710.05
639.65	1800.16
639.84	1665.00
640.03	1722.34
640.22	1689.57
640.41	1832.93
640.60	1767.40
640.79	1787.88
640.98	1669.09
641.17	1767.40
641.36	1730.53
641.55	1765.35
641.74	1642.47
641.92	1736.68
642.11	1742.82
642.30	1736.68
642.49	1652.71
642.68	1802.21
642.87	1746.92
643.06	1783.78
643.25	1716.20
643.44	1652.71
643.63	1742.82
643.82	1810.40
644.00	1593.32
644.19	1759.21
644.38	1677.29
644.57	1759.21
644.76	1783.78
644.95	1740.77
645.14	1703.91
645.33	1640.42
645.52	1748.97
645.71	1638.38
645.89	1703.91
646.08	1781.73
646.27	1705.96
646.46	1841.12
646.65	1654.76
646.84	1699.81
647.03	1701.86
647.22	1814.50
647.40	1775.59
647.59	1675.24
647.78	1720.29
647.97	1587.18
648.16	1689.57
648.35	1834.98
648.54	1777.64
648.73	1677.29
648.91	1726.44
649.10	1755.11
649.29	1738.73
649.48	1769.44
649.67	1683.43
649.86	1748.97
650.05	1609.70
650.23	1800.16
650.42	1648.61
650.61	1816.55
650.80	1789.92
650.99	1814.50
651.18	1779.68
651.36	1802.21
651.55	1683.43
651.74	1742.82
651.93	1632.23
652.12	1699.81
652.31	1726.44
652.49	1714.15
652.68	1730.53
652.87	1765.35
653.06	1726.44
653.25	1820.64
653.44	1732.58
653.62	1755.11
653.81	1699.81
654.00	1806.31
654.19	1834.98
654.38	1818.60
654.56	1791.97
654.75	1765.35
654.94	1781.73
655.13	1730.53
655.32	1705.96
655.51	1738.73
655.69	1746.92
655.88	1726.44
656.07	1693.67
656.26	1804.26
656.45	1689.57
656.63	1691.62
656.82	1720.29
657.01	1779.68
657.20	1650.66
657.38	1884.13
657.57	1720.29
657.76	1640.42
657.95	1759.21
658.14	1730.53
658.32	1748.97
658.51	1667.05
658.70	1738.73
658.89	1728.49
659.08	1753.06
659.26	1802.21
659.45	1662.95
659.64	1748.97
659.83	1673.19
660.01	1927.14
660.20	1724.39
660.39	1794.02
660.58	1542.12
660.76	1761.25
660.95	1705.96
661.14	1769.44
661.33	1714.15
661.51	1703.91
661.70	1718.25
661.89	1759.21
662.08	1650.66
662.26	1656.81
662.45	1708.01
662.64	1898.47
662.83	1832.93
663.01	1636.33
663.20	1685.48
663.39	1810.40
663.58	1705.96
663.76	1695.72
663.95	1771.49
664.14	1738.73
664.32	1685.48
664.51	1710.05
664.70	1671.14
664.89	1775.59
665.07	1693.67
665.26	1839.08
665.45	1675.24
665.64	1789.92
665.82	1781.73
666.01	1834.98
666.20	1732.58
666.38	1877.99
666.57	1843.17
666.76	2310.11
666.95	4429.76
667.13	10534.75
667.32	15427.35
667.51	17938.16
667.69	19095.26
667.88	17547.00
668.07	12160.84
668.25	9707.37
668.44	8054.66
668.63	7243.67
668.81	6657.95
669.00	6348.70
669.19	5652.39
669.38	5177.26
669.56	4630.46
669.75	3915.72
669.94	3467.21
670.12	2844.63
670.31	2541.53
670.50	2263.01
670.68	2080.74
670.87	1908.71
671.06	1816.55
671.24	1802.21
671.43	1787.88
671.62	1781.73
671.80	1656.81
671.99	1808.36
672.18	1714.15
672.36	1779.68
672.55	1775.59
672.74	1787.88
672.92	1738.73
673.11	1828.84
673.29	1660.90
673.48	1779.68
673.67	1757.16
673.85	1730.53
674.04	1691.62
674.23	1751.01
674.41	1810.40
674.60	1681.38
674.79	1607.66
674.97	1675.24
675.16	1775.59
675.34	1812.45
675.53	1724.39
675.72	1746.92
675.90	1816.55
676.09	1748.97
676.28	1679.33
676.46	1636.33
676.65	1736.68
676.83	1730.53
677.02	1683.43
677.21	1724.39
677.39	1775.59
677.58	1609.70
677.77	1712.10
677.95	1699.81
678.14	1714.15
678.32	1714.15
678.51	1624.04
678.70	1847.27
678.88	1775.59
679.07	1779.68
679.25	1693.67
679.44	1748.97
679.63	1650.66
679.81	1732.58
680.00	1812.45
680.18	1699.81
680.37	1734.63
680.55	1800.16
680.74	1609.70
680.93	1671.14
681.11	1742.82
681.30	1748.97
681.48	1769.44
681.67	1720.29
681.85	1746.92
682.04	1630.18
682.23	1808.36
682.41	1720.29
682.60	1693.67
682.78	1775.59
682.97	1675.24
683.15	1818.60
683.34	1701.86
683.53	1822.69
683.71	1689.57
683.90	1824.74
684.08	1867.75
684.27	1683.43
684.45	1789.92
684.64	1771.49
684.82	1587.18
685.01	1695.72
685.19	1667.05
685.38	1871.84
685.57	1732.58
685.75	1634.28
685.94	1642.47
686.12	1595.37
686.31	1718.25
686.49	1853.41
686.68	1626.09
686.86	1726.44
687.05	1705.96
687.23	1783.78
687.42	1619.94
687.60	1642.47
687.79	1765.35
687.97	1849.32
688.16	1806.31
688.34	1740.77
688.53	1578.98
688.71	1671.14
688.90	1798.12
689.08	1681.38
689.27	1689.57
689.45	1738.73
689.64	1769.44
689.82	1736.68
690.01	1710.05
690.19	1740.77
690.38	1669.09
690.56	1822.69
690.75	1730.53
690.93	1697.77
691.12	1673.19
691.30	1763.30
691.49	1708.01
691.67	1798.12
691.86	1808.36
692.04	1740.77
692.23	1601.51
692.41	1642.47
692.60	1861.60
692.78	1763.30
692.97	1675.24
693.15	1730.53
693.34	1855.46
693.52	1785.83
693.71	1624.04
693.89	1714.15
694.08	1644.52
694.26	1763.30
694.44	1732.58
694.63	1748.97
694.81	1671.14
695.00	1683.43
695.18	1777.64
695.37	1912.80
695.55	1730.53
695.74	1705.96
695.92	1736.68
696.10	1800.16
696.29	1673.19
696.47	1697.77
696.66	1712.10
696.84	1628.14
697.03	1705.96
697.21	1873.89
697.40	2275.29
697.58	1814.50
697.76	1728.49
697.95	1673.19
698.13	1578.98
698.32	1732.58
698.50	1759.21
698.68	1785.83
698.87	1724.39
699.05	1865.70
699.24	1773.54
699.42	1730.53
699.61	1761.25
699.79	1681.38
699.97	1714.15
700.16	1628.14
700.34	1660.90
700.53	1740.77
700.71	1791.97
700.89	1798.12
701.08	1751.01
701.26	1638.38
701.45	2099.17
701.63	1681.38
701.81	1767.40
702.00	1703.91
702.18	1716.20
702.37	1687.53
702.55	1697.77
702.73	1681.38
702.92	1619.94
703.10	1781.73
703.28	1630.18
703.47	1699.81
703.65	1746.92
703.84	1716.20
704.02	1730.53
704.20	1775.59
704.39	1667.05
704.57	1677.29
704.75	1722.34
704.94	1812.45
705.12	1755.11
705.30	1781.73
705.49	2248.67
705.67	4513.72
705.86	9504.62
706.04	12760.89
706.22	14475.04
706.41	15464.21
706.59	13831.98
706.77	9527.15
706.96	7360.40
707.14	6662.04
707.32	5947.30
707.51	5566.38
707.69	4964.28
707.87	4077.51
708.06	3454.92
708.24	2926.55
708.42	2394.08
708.61	2238.43
708.79	1900.52
708.97	1861.60
709.16	1865.70
709.34	1769.44
709.52	1716.20
709.71	1761.25
709.89	1851.36
710.07	1796.07
710.26	1710.05
710.44	1763.30
710.62	1677.29
710.80	1771.49
710.99	1759.21
711.17	1755.11
711.35	1681.38
711.54	1714.15
711.72	1775.59
711.90	1783.78
712.09	1701.86
712.27	1673.19
712.45	1771.49
712.63	1673.19
712.82	1757.16
713.00	1699.81
713.18	1816.55
713.37	1771.49
713.55	1769.44
713.73	1767.40
713.91	1748.97
714.10	1650.66
714.28	1677.29
714.46	1783.78
714.65	1804.26
714.83	1804.26
715.01	1738.73
715.19	1724.39
715.38	1677.29
715.56	1730.53
715.74	1640.42
715.92	1738.73
716.11	1789.92
716.29	1667.05
716.47	1634.28
716.65	1636.33
716.84	1648.61
717.02	1785.83
717.20	1630.18
717.38	1640.42
717.57	1720.29
717.75	1710.05
717.93	1705.96
718.11	1712.10
718.30	1599.46
718.48	1775.59
718.66	1742.82
718.84	1708.01
719.03	1691.62
719.21	1636.33
719.39	1822.69
719.57	1734.63
719.75	1884.13
719.94	1667.05
720.12	1753.06
720.30	1697.77
720.48	1791.97
720.67	1652.71
720.85	1689.57
721.03	1730.53
721.21	1644.52
721.39	1746.92
721.58	1615.85
721.76	1785.83
721.94	1785.83
722.12	1761.25
722.30	1830.88
722.49	1656.81
722.67	1720.29
722.85	1693.67
723.03	1677.29
723.21	1636.33
723.40	1830.88
723.58	1736.68
723.76	1740.77
723.94	1812.45
724.12	1757.16
724.30	1824.74
724.49	1730.53
724.67	1671.14
724.85	1785.83
725.03	1583.08
725.21	1734.63
725.40	1773.54
725.58	1730.53
725.76	1703.91
725.94	1761.25
726.12	1724.39
726.30	1650.66
726.49	1665.00
726.67	1681.38
726.85	1755.11
727.03	1796.07
727.21	2199.52
727.39	2908.12
727.57	3839.94
727.76	4292.54
727.94	4394.94
728.12	4405.18
728.30	3739.59
728.48	2969.55
728.66	2803.67
728.84	2586.58
729.03	2310.11
729.21	2263.01
729.39	2004.96
729.57	1834.98
729.75	1890.28
729.93	1755.11
730.11	1771.49
730.30	1765.35
730.48	1681.38
730.66	1748.97
730.84	1787.88
731.02	1798.12
731.20	1736.68
731.38	1716.20
731.56	1609.70
731.74	1689.57
731.93	1722.34
732.11	1705.96
732.29	1619.94
732.47	1714.15
732.65	1732.58
732.83	1751.01
733.01	1740.77
733.19	1605.61
733.37	1789.92
733.56	1697.77
733.74	1705.96
733.92	1818.60
734.10	1742.82
734.28	1777.64
734.46	1619.94
734.64	1667.05
734.82	1738.73
735.00	1646.57
735.18	1712.10
735.36	1730.53
735.54	1675.24
735.73	1761.25
735.91	1724.39
736.09	1738.73
736.27	1712.10
736.45	1814.50
736.63	1603.56
736.81	1669.09
736.99	1714.15
737.17	1802.21
737.35	1660.90
737.53	1728.49
737.71	1667.05
737.89	1783.78
738.07	1681.38
738.25	1640.42
738.43	1632.23
738.61	1767.40
738.80	1648.61
738.98	1669.09
739.16	1656.81
739.34	1640.42
739.52	1857.51
739.70	1742.82
739.88	1722.34
740.06	1732.58
740.24	1593.32
740.42	1718.25
740.60	1738.73
740.78	1714.15
740.96	1603.56
741.14	1669.09
741.32	1697.77
741.50	1605.61
741.68	1830.88
741.86	1767.40
742.04	1705.96
742.22	1730.53
742.40	1708.01
742.58	1773.54
742.76	1748.97
742.94	1863.65
743.12	1640.42
743.30	1773.54
743.48	1765.35
743.66	1677.29
743.84	1726.44
744.02	1716.20
744.20	1765.35
744.38	1677.29
744.56	1660.90
744.74	1769.44
744.92	1695.72
745.10	1802.21
745.28	1703.91
745.46	1806.31
745.64	1650.66
745.82	1751.01
746.00	1742.82
746.18	1779.68
746.36	1730.53
746.54	1773.54
746.72	1714.15
746.90	1665.00
747.08	1802.21
747.26	1701.86
747.44	1828.84
747.62	1726.44
747.80	1712.10
747.98	1802.21
748.15	1705.96
748.33	1837.03
748.51	1642.47
748.69	1789.92
748.87	1718.25
749.05	1740.77
749.23	1720.29
749.41	1773.54
749.59	1679.33
749.77	1740.77
749.95	1697.77
750.13	1673.19
750.31	1695.72
750.49	1718.25
750.67	1744.87
750.85	1820.64
751.03	1800.16
751.20	1847.27
751.38	1714.15
751.56	1656.81
751.74	1746.92
751.92	1699.81
752.10	1685.48
752.28	1736.68
752.46	1667.05
752.64	1669.09
752.82	1650.66
753.00	1796.07
753.18	1648.61
753.35	1726.44
753.53	1681.38
753.71	1730.53
753.89	1691.62
754.07	1650.66
754.25	1748.97
754.43	1753.06
754.61	1636.33
754.79	1816.55
754.97	1722.34
755.14	1763.30
755.32	1708.01
755.50	1716.20
755.68	1689.57
755.86	1687.53
756.04	1753.06
756.22	1646.57
756.40	1697.77
756.57	1828.84
756.75	1699.81
756.93	1742.82
757.11	1720.29
757.29	1683.43
757.47	1654.76
757.65	1599.46
757.82	1542.12
758.00	1693.67
758.18	1589.22
758.36	1724.39
758.54	1714.15
758.72	1574.89
758.90	1708.01
759.07	1675.24
759.25	1730.53
759.43	1708.01
759.61	1662.95
759.79	2269.15
759.97	1761.25
760.15	1636.33
760.32	1740.77
760.50	1644.52
760.68	1787.88
760.86	1673.19
761.04	1800.16
761.22	1808.36
761.39	1751.01
761.57	1671.14
761.75	1755.11
761.93	1789.92
762.11	1658.85
762.28	1638.38
762.46	1660.90
762.64	1849.32
762.82	1626.09
763.00	1740.77
763.18	1804.26
763.35	1697.77
763.53	1773.54
763.71	1730.53
763.89	1697.77
764.07	1781.73
764.24	1726.44
764.42	1802.21
764.60	1703.91
764.78	1734.63
764.96	1761.25
765.13	1791.97
765.31	1718.25
765.49	1726.44
765.67	1685.48
765.84	1710.05
766.02	1667.05
766.20	1658.85
766.38	1814.50
766.56	1777.64
766.73	1800.16
766.91	1726.44
767.09	1736.68
767.27	1767.40
767.44	1658.85
767.62	1708.01
767.80	1759.21
767.98	1699.81
768.15	1681.38
768.33	1724.39
768.51	1773.54
768.69	1767.40
768.87	1771.49
769.04	1791.97
769.22	1804.26
769.40	1832.93
769.58	1847.27
769.75	1740.77
769.93	1798.12
770.11	1640.42
770.28	1705.96
770.46	1730.53
770.64	1724.39
770.82	1705.96
770.99	1718.25
771.17	1800.16
771.35	1669.09
771.53	1624.04
771.70	1720.29
771.88	1677.29
772.06	1710.05
772.23	1652.71
772.41	1730.53
772.59	1773.54
772.77	1701.86
772.94	1693.67
773.12	1720.29
773.30	1714.15
773.47	1720.29
773.65	1710.05
773.83	1789.92
774.01	1718.25
774.18	1656.81
774.36	1677.29
774.54	1656.81
774.71	1679.33
774.89	1576.94
775.07	1667.05
775.24	1677.29
775.42	1685.48
775.60	1849.32
775.78	1714.15
775.95	1583.08
776.13	1581.03
776.31	1632.23
776.48	1701.86
776.66	1859.56
776.84	1701.86
777.01	1710.05
777.19	1728.49
777.37	1712.10
777.54	1689.57
777.72	1847.27
777.90	1802.21
778.07	1634.28
778.25	1804.26
778.43	1773.54
778.60	1636.33
778.78	1794.02
778.96	1761.25
779.13	1658.85
779.31	1746.92
779.49	1710.05
779.66	1730.53
779.84	1697.77
780.01	1761.25
780.19	1689.57
780.37	1718.25
780.54	1720.29
780.72	1611.75
780.90	1740.77
781.07	1648.61
781.25	1656.81
781.43	1722.34
781.60	1683.43
781.78	1701.86
781.95	1712.10
782.13	1687.53
782.31	1732.58
782.48	1605.61
782.66	1761.25
782.83	1818.60
783.01	1785.83
783.19	1748.97
783.36	1673.19
783.54	1665.00
783.72	1755.11
783.89	1740.77
784.07	1738.73
784.24	1724.39
784.42	1914.85
784.60	1667.05
784.77	1783.78
784.95	1671.14
785.12	1581.03
785.30	1656.81
785.47	1667.05
785.65	1705.96
785.83	1753.06
786.00	1646.57
786.18	1710.05
786.35	1740.77
786.53	1660.90
786.71	1771.49
786.88	1755.11
787.06	1751.01
787.23	1697.77
787.41	1656.81
787.58	1769.44
787.76	1628.14
787.94	1691.62
788.11	1746.92
788.29	1689.57
788.46	1724.39
788.64	1681.38
788.81	1720.29
788.99	1679.33
789.16	1646.57
789.34	1710.05
789.52	1656.81
789.69	1667.05
789.87	1574.89
790.04	1638.38
790.22	1712.10
790.39	1845.22
790.57	1685.48
790.74	1634.28
790.92	1718.25
791.09	1611.75
791.27	1730.53
791.44	1753.06
791.62	1708.01
791.79	1751.01
791.97	1705.96
792.15	1853.41
792.32	1722.34
792.50	1730.53
792.67	1769.44
792.85	1769.44
793.02	1718.25
793.20	1746.92
793.37	1630.18
793.55	1683.43
793.72	1583.08
793.90	1740.77
794.07	1710.05
794.25	1730.53
794.42	1730.53
794.60	1771.49
794.77	1699.81
794.95	1730.53
795.12	1847.27
795.30	1720.29
795.47	1642.47
795.65	1847.27
795.82	1705.96
796.00	1656.81
796.17	1669.09
796.34	1671.14
796.52	1705.96
796.69	1771.49
796.87	1763.30
797.04	1703.91
797.22	1783.78
797.39	1767.40
797.57	1830.88
797.74	1720.29
797.92	1802.21
798.09	1730.53
798.27	1791.97
798.44	1728.49
798.62	1621.99
798.79	1802.21
798.96	1726.44
799.14	1744.87
799.31	1875.94
799.49	1710.05
799.66	1679.33
799.84	1656.81
800.01	1554.41
800.19	1730.53
800.36	1665.00
800.53	1771.49
800.71	1687.53
800.88	1800.16
801.06	1703.91
801.23	1660.90
801.41	1730.53
801.58	1665.00
801.75	1646.57
801.93	1759.21
802.10	1734.63
802.28	1757.16
802.45	1667.05
802.63	1685.48
802.80	1744.87
802.97	1705.96
803.15	1716.20
803.32	1767.40
803.50	1656.81
803.67	1685.48
803.84	1619.94
804.02	1787.88
804.19	1607.66
804.37	1597.42
804.54	1624.04
804.71	1667.05
804.89	1787.88
805.06	1732.58
805.24	1697.77
805.41	1675.24
805.58	1658.85
805.76	1902.56
805.93	1703.91
806.10	1855.46
806.28	1693.67
806.45	1673.19
806.63	1720.29
806.80	1748.97
806.97	1732.58
807.15	1689.57
807.32	1697.77
807.49	1673.19
807.67	1683.43
807.84	1759.21
808.01	1652.71
808.19	1886.18
808.36	1837.03
808.54	1705.96
808.71	1630.18
808.88	1705.96
809.06	1685.48
809.23	1796.07
809.40	1671.14
809.58	1673.19
809.75	1685.48
809.92	1681.38
810.10	1826.79
810.27	1679.33
810.44	1783.78
810.62	1714.15
810.79	1738.73
810.96	1722.34
811.14	1691.62
811.31	1730.53
811.48	1722.34
811.66	1716.20
811.83	1734.63
812.00	1787.88
812.18	1753.06
812.35	1820.64
812.52	1669.09
812.69	1736.68
812.87	1693.67
813.04	1609.70
813.21	1695.72
813.39	1652.71
813.56	1648.61
813.73	1726.44
813.91	1581.03
814.08	1689.57
814.25	1701.86
814.42	1722.34
814.60	1742.82
814.77	1662.95
814.94	1818.60
815.12	1728.49
815.29	1736.68
815.46	1681.38
815.63	1742.82
815.81	1728.49
815.98	1673.19
816.15	1718.25
816.33	1648.61
816.50	1708.01
816.67	1714.15
816.84	1685.48
817.02	1718.25
817.19	1634.28
817.36	1777.64
817.53	1777.64
817.71	1667.05
817.88	1669.09
818.05	1759.21
818.22	1652.71
818.40	1765.35
818.57	1714.15
818.74	1769.44
818.91	1703.91
819.09	1744.87
819.26	1722.34
819.43	1578.98
819.60	1658.85
819.78	1746.92
819.95	1816.55
820.12	1644.52
820.29	1816.55
820.47	1705.96
820.64	1628.14
820.81	1576.94
820.98	1708.01
821.15	1683.43
821.33	1779.68
821.50	1648.61
821.67	1779.68
821.84	1699.81
822.02	1771.49
822.19	1751.01
822.36	1712.10
822.53	1695.72
822.70	1591.27
822.88	1644.52
823.05	1832.93
823.22	1769.44
823.39	1660.90
823.56	1701.86
823.74	1808.36
823.91	1712.10
824.08	1677.29
824.25	1669.09
824.42	1859.56
824.60	1621.99
824.77	1787.88
824.94	1714.15
825.11	1724.39
825.28	1681.38
825.45	1699.81
825.63	1755.11
825.80	1699.81
825.97	1748.97
826.14	1722.34
826.31	1662.95
826.48	1697.77
826.66	1687.53
826.83	1636.33
827.00	1683.43
827.17	1648.61
827.34	1677.29
827.51	1685.48
827.69	1755.11
827.86	1562.60
828.03	1683.43
828.20	1710.05
828.37	1726.44
828.54	1720.29
828.71	1693.67
828.89	1699.81
829.06	1755.11
829.23	1804.26
829.40	1607.66
829.57	1673.19
829.74	1730.53
829.91	1675.24
830.09	1722.34
830.26	1722.34
830.43	1775.59
830.60	1677.29
830.77	1822.69
830.94	1746.92
831.11	1777.64
831.28	1736.68
831.46	1773.54
831.63	1730.53
831.80	1785.83
831.97	1675.24
832.14	1634.28
832.31	1677.29
832.48	1695.72
832.65	1759.21
832.82	1708.01
832.99	1808.36
833.17	1628.14
833.34	1824.74
833.51	1761.25
833.68	1705.96
833.85	1765.35
834.02	1640.42
834.19	1660.90
834.36	1642.47
834.53	1681.38
834.70	1812.45
834.87	1761.25
835.04	1769.44
835.22	1751.01
835.39	1695.72
835.56	1650.66
835.73	1742.82
835.90	1705.96
836.07	1669.09
836.24	1675.24
836.41	1748.97
836.58	1656.81
836.75	1785.83
836.92	1746.92
837.09	1609.70
837.26	1767.40
837.43	1675.24
837.60	1767.40
837.77	1708.01
837.94	1775.59
838.12	1806.31
838.29	1681.38
838.46	1656.81
838.63	1677.29
838.80	1781.73
838.97	1726.44
839.14	1722.34
839.31	1716.20
839.48	1701.86
839.65	1634.28
839.82	1771.49
839.99	1736.68
840.16	1726.44
840.33	1640.42
840.50	1722.34
840.67	1632.23
840.84	1568.74
841.01	1724.39
841.18	1691.62
841.35	1693.67
841.52	1783.78
841.69	1781.73
841.86	1710.05
842.03	1701.86
842.20	1832.93
842.37	1740.77
842.54	1642.47
842.71	1705.96
842.88	1673.19
843.05	1787.88
843.22	1632.23
843.39	1763.30
843.56	1771.49
843.73	1748.97
843.90	1746.92
844.07	1699.81
844.24	1708.01
844.41	1769.44
844.58	1744.87
844.75	1665.00
844.92	1714.15
845.09	1703.91
845.26	1597.42
845.43	1773.54
845.60	1773.54
845.77	1650.66
845.94	1730.53
846.10	1738.73
846.27	1589.22
846.44	1638.38
846.61	1691.62
846.78	1714.15
846.95	1789.92
847.12	1736.68
847.29	1693.67
847.46	1669.09
847.63	1771.49
847.80	1652.71
847.97	1736.68
848.14	1775.59
848.31	1697.77
848.48	1613.80
848.65	1771.49
848.82	1568.74
848.98	1849.32
849.15	1699.81
849.32	1824.74
849.49	1806.31
849.66	1757.16
849.83	1708.01
850.00	1652.71
850.17	1697.77
850.34	1734.63
850.51	1703.91
850.68	1667.05
850.85	1804.26
851.01	1744.87
851.18	1697.77
851.35	1744.87
851.52	1734.63
851.69	1746.92
851.86	1695.72
852.03	1753.06
852.20	1746.92
852.37	1650.66
852.53	1650.66
852.70	1669.09
852.87	1765.35
853.04	1802.21
853.21	1734.63
853.38	1742.82
853.55	1714.15
853.72	1783.78
853.89	1705.96
854.05	1681.38
854.22	1757.16
854.39	1665.00
854.56	1777.64
854.73	1726.44
854.90	1798.12
855.07	1714.15
855.23	1658.85
855.40	1748.97
855.57	1726.44
855.74	1583.08
855.91	1849.32
856.08	1638.38
856.25	1611.75
856.41	1656.81
856.58	1703.91
856.75	1673.19
856.92	1669.09
857.09	1734.63
857.26	1613.80
857.42	1734.63
857.59	1730.53
857.76	1710.05
857.93	1652.71
858.10	1710.05
858.27	1603.56
858.43	1746.92
858.60	1669.09
858.77	1613.80
858.94	1662.95
859.11	1742.82
859.27	1728.49
859.44	1675.24
859.61	1849.32
859.78	1722.34
859.95	1738.73
860.12	1693.67
860.28	1882.08
860.45	1822.69
860.62	1763.30
860.79	1794.02
860.95	1834.98
861.12	1636.33
861.29	1691.62
861.46	1660.90
861.63	1687.53
861.79	1673.19
861.96	1685.48
862.13	1648.61
862.30	1732.58
862.47	1685.48
862.63	1673.19
862.80	1824.74
862.97	1744.87
863.14	1744.87
863.30	1804.26
863.47	1689.57
863.64	1808.36
863.81	1722.34
863.97	1667.05
864.14	1773.54
864.31	1728.49
864.48	1714.15
864.65	1650.66
864.81	1771.49
864.98	1720.29
865.15	1755.11
865.32	1791.97
865.48	1794.02
865.65	1826.79
865.82	1669.09
865.98	1738.73
866.15	1730.53
866.32	1669.09
866.49	1708.01
866.65	1785.83
866.82	1628.14
866.99	1665.00
867.16	1665.00
867.32	1689.57
867.49	1710.05
867.66	1753.06
867.83	1673.19
867.99	1654.76
868.16	1730.53
868.33	1656.81
868.49	1701.86
868.66	1712.10
868.83	1763.30
868.99	1730.53
869.16	1679.33
869.33	1722.34
869.50	1812.45
869.66	1730.53
869.83	1691.62
870.00	1662.95
870.16	1703.91
870.33	1652.71
870.50	1767.40
870.66	1742.82
870.83	1785.83
871.00	1732.58
871.17	1654.76
871.33	1701.86
871.50	1673.19
871.67	1677.29
871.83	1634.28
872.00	1830.88
872.17	1701.86
872.33	1796.07
872.50	1804.26
872.67	1705.96
872.83	1697.77
873.00	1691.62
873.17	1671.14
873.33	1757.16
873.50	1730.53
873.67	1697.77
873.83	1673.19
874.00	1714.15
874.16	1822.69
874.33	1771.49
874.50	1605.61
874.66	1818.60
874.83	1779.68
875.00	1701.86
875.16	1761.25
875.33	1791.97
875.50	1632.23
875.66	1689.57
875.83	1695.72
875.99	1798.12
876.16	1685.48
876.33	1640.42
876.49	1705.96
876.66	1640.42
876.83	1730.53
876.99	1630.18
877.16	1722.34
877.32	1769.44
877.49	1714.15
877.66	1705.96
877.82	1734.63
877.99	1673.19
878.15	1837.03
878.32	1677.29
878.49	1685.48
878.65	1753.06
878.82	1804.26
878.98	1722.34
879.15	1718.25
879.32	1787.88
879.48	1769.44
879.65	1767.40
879.81	1656.81
879.98	1662.95
880.15	1675.24
880.31	1759.21
880.48	1691.62
880.64	1800.16
880.81	1724.39
880.97	1771.49
881.14	1740.77
881.31	1693.67
881.47	1851.36
881.64	1722.34
881.80	1667.05
881.97	1683.43
882.13	1779.68
882.30	1677.29
882.47	1681.38
882.63	1689.57
882.80	1669.09
882.96	1742.82
883.13	1742.82
883.29	1697.77
883.46	1638.38
883.62	1992.67
883.79	1710.05
883.95	1703.91
884.12	1755.11
884.29	1710.05
884.45	1751.01
884.62	1800.16
884.78	1681.38
884.95	1798.12
885.11	1724.39
885.28	1740.77
885.44	1746.92
885.61	1740.77
885.77	1791.97
885.94	1806.31
886.10	1710.05
886.27	1687.53
886.43	1822.69
886.60	1773.54
886.76	1722.34
886.93	1646.57
887.09	1824.74
887.26	1693.67
887.42	1724.39
887.59	1789.92
887.75	1796.07
887.92	1755.11
888.08	1755.11
888.25	1806.31
888.41	1691.62
888.58	1751.01
888.74	1665.00
888.91	1599.46
>>>>>End Processed Spectral Data<<<<<
