SpectraSuite Data File
++++++++++++++++++++++++++++++++++++
Date: Mon Jun 06 12:15:17 CEST 2016
User: root
Dark Spectrum Present: No
Reference Spectrum Present: No
Number of Sampled Component Spectra: 1
Spectrometers: USB4C02835
Integration Time (usec): 100000 (USB4C02835)
Spectra Averaged: 1 (USB4C02835)
Boxcar Smoothing: 0 (USB4C02835)
Correct for Electrical Dark: No (USB4C02835)
Strobe/Lamp Enabled: No (USB4C02835)
Correct for Detector Non-linearity: No (USB4C02835)
Correct for Stray Light: No (USB4C02835)
Number of Pixels in Processed Spectrum: 3648
>>>>>Begin Processed Spectral Data<<<<<
177.47	1462.25
177.69	1462.25
177.91	1462.25
178.13	1476.59
178.36	1435.63
178.58	1570.79
178.80	1724.39
179.02	1597.42
179.24	1677.29
179.46	1644.52
179.68	1693.67
179.90	1691.62
180.13	1691.62
180.35	1603.56
180.57	1656.81
180.79	1767.40
181.01	1679.33
181.23	1695.72
181.45	1785.83
181.67	1714.15
181.90	1761.25
182.12	1640.42
182.34	1564.65
182.56	1699.81
182.78	1669.09
183.00	1658.85
183.22	1689.57
183.44	1669.09
183.66	1798.12
183.89	1759.21
184.11	1693.67
184.33	1759.21
184.55	1734.63
184.77	1689.57
184.99	1767.40
185.21	1703.91
185.43	1890.28
185.65	1730.53
185.87	1669.09
186.10	1806.31
186.32	1853.41
186.54	1683.43
186.76	1734.63
186.98	1736.68
187.20	1757.16
187.42	1695.72
187.64	1703.91
187.86	1757.16
188.08	1732.58
188.30	1607.66
188.52	1683.43
188.75	1687.53
188.97	1705.96
189.19	1619.94
189.41	1705.96
189.63	1671.14
189.85	1679.33
190.07	1640.42
190.29	1648.61
190.51	1712.10
190.73	1617.90
190.95	1771.49
191.17	1708.01
191.39	1607.66
191.61	1652.71
191.84	1619.94
192.06	1728.49
192.28	1648.61
192.50	1849.32
192.72	1759.21
192.94	1691.62
193.16	1769.44
193.38	1734.63
193.60	1687.53
193.82	1697.77
194.04	1746.92
194.26	1681.38
194.48	1712.10
194.70	1607.66
194.92	1628.14
195.14	1722.34
195.36	1679.33
195.58	1697.77
195.80	1632.23
196.02	1693.67
196.24	1652.71
196.46	1681.38
196.69	1656.81
196.91	1834.98
197.13	1648.61
197.35	1734.63
197.57	1724.39
197.79	1652.71
198.01	1673.19
198.23	1605.61
198.45	1740.77
198.67	1636.33
198.89	1779.68
199.11	1685.48
199.33	1648.61
199.55	1570.79
199.77	1730.53
199.99	1740.77
200.21	1673.19
200.43	1658.85
200.65	1617.90
200.87	1601.51
201.09	1671.14
201.31	1642.47
201.53	1724.39
201.75	1701.86
201.97	1724.39
202.19	1648.61
202.41	1753.06
202.63	1789.92
202.85	1712.10
203.07	1710.05
203.29	1726.44
203.51	1695.72
203.73	1683.43
203.95	1871.84
204.17	1742.82
204.39	1751.01
204.61	1660.90
204.83	1738.73
205.05	1675.24
205.27	1865.70
205.49	1787.88
205.71	1708.01
205.93	1562.60
206.15	1699.81
206.37	1658.85
206.59	1656.81
206.81	1574.89
207.03	1578.98
207.25	1650.66
207.47	1804.26
207.69	1724.39
207.91	1693.67
208.13	1822.69
208.34	1669.09
208.56	1654.76
208.78	1732.58
209.00	1660.90
209.22	1640.42
209.44	1708.01
209.66	1599.46
209.88	1644.52
210.10	1624.04
210.32	1636.33
210.54	1740.77
210.76	1607.66
210.98	1671.14
211.20	1542.12
211.42	1730.53
211.64	1708.01
211.86	1691.62
212.08	1777.64
212.30	1660.90
212.52	1667.05
212.74	1673.19
212.96	1804.26
213.17	1730.53
213.39	1804.26
213.61	1767.40
213.83	1701.86
214.05	1617.90
214.27	1771.49
214.49	1628.14
214.71	1589.22
214.93	1773.54
215.15	1660.90
215.37	1783.78
215.59	1607.66
215.81	1722.34
216.03	1748.97
216.24	1667.05
216.46	1703.91
216.68	1742.82
216.90	1775.59
217.12	1699.81
217.34	1675.24
217.56	1742.82
217.78	1818.60
218.00	1689.57
218.22	1724.39
218.44	1724.39
218.66	1705.96
218.87	1820.64
219.09	1667.05
219.31	1734.63
219.53	1726.44
219.75	1599.46
219.97	1656.81
220.19	1652.71
220.41	1656.81
220.63	1759.21
220.85	1773.54
221.06	1662.95
221.28	1736.68
221.50	1695.72
221.72	1669.09
221.94	1787.88
222.16	1681.38
222.38	1708.01
222.60	1701.86
222.82	1665.00
223.03	1734.63
223.25	1638.38
223.47	1783.78
223.69	1820.64
223.91	1714.15
224.13	1722.34
224.35	1615.85
224.57	1726.44
224.78	1722.34
225.00	1615.85
225.22	1712.10
225.44	1742.82
225.66	1665.00
225.88	1656.81
226.10	1810.40
226.32	1699.81
226.53	1791.97
226.75	1685.48
226.97	1665.00
227.19	1687.53
227.41	1599.46
227.63	1603.56
227.85	1581.03
228.06	1730.53
228.28	1726.44
228.50	1730.53
228.72	1736.68
228.94	1630.18
229.16	1558.50
229.37	1617.90
229.59	1609.70
229.81	1771.49
230.03	1689.57
230.25	1574.89
230.47	1585.13
230.69	1656.81
230.90	1769.44
231.12	1648.61
231.34	1712.10
231.56	1726.44
231.78	1615.85
232.00	1763.30
232.21	1685.48
232.43	1701.86
232.65	1495.02
232.87	1720.29
233.09	1689.57
233.30	1634.28
233.52	1757.16
233.74	1681.38
233.96	1626.09
234.18	1705.96
234.40	1693.67
234.61	1884.13
234.83	1601.51
235.05	1646.57
235.27	1841.12
235.49	1861.60
235.70	1636.33
235.92	1730.53
236.14	1718.25
236.36	1855.46
236.58	1619.94
236.79	1703.91
237.01	1751.01
237.23	1765.35
237.45	1859.56
237.67	1589.22
237.88	1644.52
238.10	1890.28
238.32	1652.71
238.54	1636.33
238.76	1628.14
238.97	1650.66
239.19	1714.15
239.41	1681.38
239.63	1669.09
239.85	1648.61
240.06	1578.98
240.28	1648.61
240.50	1708.01
240.72	1644.52
240.93	1691.62
241.15	1785.83
241.37	1701.86
241.59	1751.01
241.81	1658.85
242.02	1650.66
242.24	1769.44
242.46	1691.62
242.68	1619.94
242.89	1656.81
243.11	1722.34
243.33	1767.40
243.55	1763.30
243.76	1695.72
243.98	1710.05
244.20	1671.14
244.42	1728.49
244.64	1632.23
244.85	1724.39
245.07	1722.34
245.29	1675.24
245.51	1800.16
245.72	1705.96
245.94	1781.73
246.16	1626.09
246.38	1660.90
246.59	1673.19
246.81	1685.48
247.03	1691.62
247.24	1605.61
247.46	1681.38
247.68	1685.48
247.90	1695.72
248.11	1687.53
248.33	1740.77
248.55	1728.49
248.77	1681.38
248.98	1726.44
249.20	1779.68
249.42	1669.09
249.64	1689.57
249.85	1730.53
250.07	1693.67
250.29	1673.19
250.50	1730.53
250.72	1638.38
250.94	1767.40
251.16	1763.30
251.37	1771.49
251.59	1738.73
251.81	1703.91
252.02	1841.12
252.24	1681.38
252.46	1732.58
252.68	1675.24
252.89	1656.81
253.11	1607.66
253.33	1808.36
253.54	1753.06
253.76	1570.79
253.98	1691.62
254.20	1648.61
254.41	1613.80
254.63	1673.19
254.85	1591.27
255.06	1638.38
255.28	1763.30
255.50	1667.05
255.71	1675.24
255.93	1611.75
256.15	1667.05
256.36	1648.61
256.58	1613.80
256.80	1695.72
257.02	1681.38
257.23	1644.52
257.45	1714.15
257.67	1796.07
257.88	1734.63
258.10	1722.34
258.32	1632.23
258.53	1705.96
258.75	1808.36
258.97	1703.91
259.18	1685.48
259.40	1681.38
259.62	1730.53
259.83	1742.82
260.05	1738.73
260.27	1918.95
260.48	1714.15
260.70	1581.03
260.92	1679.33
261.13	1722.34
261.35	1673.19
261.57	1732.58
261.78	1621.99
262.00	1697.77
262.22	1640.42
262.43	1636.33
262.65	1628.14
262.86	1609.70
263.08	1791.97
263.30	1675.24
263.51	1677.29
263.73	1615.85
263.95	1837.03
264.16	1703.91
264.38	1646.57
264.60	1730.53
264.81	1681.38
265.03	1716.20
265.25	1738.73
265.46	1681.38
265.68	1818.60
265.89	1724.39
266.11	1595.37
266.33	1769.44
266.54	1708.01
266.76	1724.39
266.98	1683.43
267.19	1806.31
267.41	1683.43
267.62	1703.91
267.84	1605.61
268.06	1781.73
268.27	1689.57
268.49	1701.86
268.70	1705.96
268.92	1716.20
269.14	1624.04
269.35	1609.70
269.57	1683.43
269.79	1789.92
270.00	1632.23
270.22	1695.72
270.43	1683.43
270.65	1611.75
270.87	1679.33
271.08	1710.05
271.30	1757.16
271.51	1673.19
271.73	1708.01
271.95	1800.16
272.16	1708.01
272.38	1761.25
272.59	1714.15
272.81	1685.48
273.02	1732.58
273.24	1771.49
273.46	1722.34
273.67	1642.47
273.89	1738.73
274.10	1660.90
274.32	1785.83
274.54	1736.68
274.75	1726.44
274.97	1667.05
275.18	1800.16
275.40	1732.58
275.61	1685.48
275.83	1662.95
276.05	1630.18
276.26	1667.05
276.48	1781.73
276.69	1703.91
276.91	1673.19
277.12	1779.68
277.34	1791.97
277.55	1718.25
277.77	1675.24
277.99	1621.99
278.20	1677.29
278.42	1736.68
278.63	1619.94
278.85	1660.90
279.06	1535.98
279.28	1689.57
279.49	1732.58
279.71	1734.63
279.93	1673.19
280.14	1703.91
280.36	1597.42
280.57	1718.25
280.79	1705.96
281.00	1685.48
281.22	1710.05
281.43	1789.92
281.65	1558.50
281.86	1593.32
282.08	1687.53
282.29	1904.61
282.51	1583.08
282.73	1611.75
282.94	1538.02
283.16	1732.58
283.37	1886.18
283.59	1708.01
283.80	1753.06
284.02	1757.16
284.23	1703.91
284.45	1636.33
284.66	1652.71
284.88	1591.27
285.09	1763.30
285.31	1759.21
285.52	1728.49
285.74	1624.04
285.95	1701.86
286.17	1662.95
286.38	1771.49
286.60	1683.43
286.81	1716.20
287.03	1724.39
287.24	1675.24
287.46	1712.10
287.67	1591.27
287.89	1820.64
288.10	1654.76
288.32	1738.73
288.53	1748.97
288.75	1681.38
288.96	1681.38
289.18	1673.19
289.39	1701.86
289.61	1669.09
289.82	1812.45
290.04	1730.53
290.25	1650.66
290.47	1691.62
290.68	1703.91
290.90	1708.01
291.11	1628.14
291.33	1730.53
291.54	1708.01
291.76	1640.42
291.97	1759.21
292.18	1761.25
292.40	1658.85
292.61	1613.80
292.83	1781.73
293.04	1636.33
293.26	1705.96
293.47	1716.20
293.69	1621.99
293.90	1675.24
294.12	1777.64
294.33	1681.38
294.55	1636.33
294.76	1732.58
294.97	1814.50
295.19	1816.55
295.40	1712.10
295.62	1712.10
295.83	1705.96
296.05	1626.09
296.26	1724.39
296.48	1605.61
296.69	1691.62
296.90	1628.14
297.12	1791.97
297.33	1740.77
297.55	1703.91
297.76	1675.24
297.98	1738.73
298.19	1683.43
298.41	1679.33
298.62	1619.94
298.83	1718.25
299.05	1658.85
299.26	1722.34
299.48	1632.23
299.69	1648.61
299.90	1757.16
300.12	1726.44
300.33	1693.67
300.55	1701.86
300.76	1787.88
300.98	1644.52
301.19	1755.11
301.40	1642.47
301.62	1628.14
301.83	1701.86
302.05	1626.09
302.26	1746.92
302.47	1769.44
302.69	1552.36
302.90	1683.43
303.12	1583.08
303.33	1677.29
303.54	1775.59
303.76	1636.33
303.97	1718.25
304.19	1796.07
304.40	1638.38
304.61	1697.77
304.83	1712.10
305.04	1718.25
305.26	1716.20
305.47	1587.18
305.68	1642.47
305.90	1681.38
306.11	1718.25
306.33	1624.04
306.54	1665.00
306.75	1630.18
306.97	1560.55
307.18	1669.09
307.39	1710.05
307.61	1677.29
307.82	1628.14
308.04	1812.45
308.25	1699.81
308.46	1665.00
308.68	1621.99
308.89	1681.38
309.10	1746.92
309.32	1632.23
309.53	1697.77
309.74	1730.53
309.96	1605.61
310.17	1767.40
310.39	1628.14
310.60	1691.62
310.81	1632.23
311.03	1648.61
311.24	1755.11
311.45	1689.57
311.67	1800.16
311.88	1724.39
312.09	1626.09
312.31	1619.94
312.52	1619.94
312.73	1658.85
312.95	1671.14
313.16	1628.14
313.37	1724.39
313.59	1787.88
313.80	1759.21
314.01	1779.68
314.23	1726.44
314.44	1619.94
314.65	1611.75
314.87	1671.14
315.08	1691.62
315.29	1722.34
315.51	1617.90
315.72	1646.57
315.93	1791.97
316.15	1726.44
316.36	1587.18
316.57	1730.53
316.79	1769.44
317.00	1714.15
317.21	1701.86
317.43	1705.96
317.64	1689.57
317.85	1671.14
318.07	1615.85
318.28	1705.96
318.49	1806.31
318.70	1849.32
318.92	1716.20
319.13	1880.04
319.34	1773.54
319.56	1826.79
319.77	1755.11
319.98	1812.45
320.20	1802.21
320.41	1734.63
320.62	1734.63
320.83	1628.14
321.05	1781.73
321.26	1708.01
321.47	1665.00
321.69	1748.97
321.90	1640.42
322.11	1685.48
322.32	1703.91
322.54	1744.87
322.75	1597.42
322.96	1927.14
323.18	1630.18
323.39	1578.98
323.60	1615.85
323.81	1718.25
324.03	1624.04
324.24	1687.53
324.45	1681.38
324.66	1640.42
324.88	1787.88
325.09	1769.44
325.30	1757.16
325.52	1732.58
325.73	1701.86
325.94	1619.94
326.15	1656.81
326.37	1689.57
326.58	1650.66
326.79	1755.11
327.00	1687.53
327.22	1722.34
327.43	1615.85
327.64	1613.80
327.85	1705.96
328.07	1730.53
328.28	1839.08
328.49	1685.48
328.70	1685.48
328.92	1669.09
329.13	1691.62
329.34	1763.30
329.55	1771.49
329.76	1724.39
329.98	1669.09
330.19	1759.21
330.40	1738.73
330.61	1675.24
330.83	1697.77
331.04	1697.77
331.25	1720.29
331.46	1695.72
331.68	1624.04
331.89	1755.11
332.10	1683.43
332.31	1615.85
332.52	1712.10
332.74	1777.64
332.95	1628.14
333.16	1636.33
333.37	1716.20
333.58	1685.48
333.80	1751.01
334.01	1648.61
334.22	1720.29
334.43	1654.76
334.64	1665.00
334.86	1665.00
335.07	1701.86
335.28	1789.92
335.49	1648.61
335.70	1691.62
335.92	1701.86
336.13	1781.73
336.34	1656.81
336.55	1654.76
336.76	1763.30
336.98	1591.27
337.19	1644.52
337.40	1826.79
337.61	1761.25
337.82	1681.38
338.04	1812.45
338.25	1595.37
338.46	1740.77
338.67	1656.81
338.88	1677.29
339.09	1617.90
339.31	1689.57
339.52	1619.94
339.73	1701.86
339.94	1660.90
340.15	1736.68
340.36	1650.66
340.58	1685.48
340.79	1626.09
341.00	1736.68
341.21	1624.04
341.42	1800.16
341.63	1638.38
341.85	1783.78
342.06	1687.53
342.27	1619.94
342.48	1726.44
342.69	1615.85
342.90	1720.29
343.12	1722.34
343.33	1712.10
343.54	1693.67
343.75	1828.84
343.96	1691.62
344.17	1634.28
344.38	1726.44
344.60	1665.00
344.81	1658.85
345.02	1714.15
345.23	1724.39
345.44	1826.79
345.65	1703.91
345.86	1708.01
346.07	1654.76
346.29	1607.66
346.50	1810.40
346.71	1742.82
346.92	1712.10
347.13	1785.83
347.34	1744.87
347.55	1634.28
347.76	1740.77
347.98	1615.85
348.19	1636.33
348.40	1720.29
348.61	1761.25
348.82	1765.35
349.03	1738.73
349.24	1665.00
349.45	1775.59
349.66	1591.27
349.88	1697.77
350.09	1658.85
350.30	1748.97
350.51	1710.05
350.72	1773.54
350.93	1759.21
351.14	1714.15
351.35	1681.38
351.56	1685.48
351.77	1662.95
351.99	1638.38
352.20	1800.16
352.41	1667.05
352.62	1624.04
352.83	1716.20
353.04	1669.09
353.25	1667.05
353.46	1753.06
353.67	1777.64
353.88	1574.89
354.09	1683.43
354.30	1669.09
354.52	1757.16
354.73	1689.57
354.94	1603.56
355.15	1728.49
355.36	1808.36
355.57	1658.85
355.78	1804.26
355.99	1677.29
356.20	1705.96
356.41	1691.62
356.62	1644.52
356.83	1687.53
357.04	1726.44
357.25	1568.74
357.46	1665.00
357.68	1587.18
357.89	1710.05
358.10	1732.58
358.31	1734.63
358.52	1720.29
358.73	1593.32
358.94	1662.95
359.15	1669.09
359.36	1687.53
359.57	1736.68
359.78	1591.27
359.99	1683.43
360.20	1640.42
360.41	1675.24
360.62	1654.76
360.83	1660.90
361.04	1658.85
361.25	1695.72
361.46	1716.20
361.67	1656.81
361.88	1679.33
362.09	1648.61
362.30	1675.24
362.51	1607.66
362.72	1697.77
362.93	1781.73
363.14	1662.95
363.35	1775.59
363.56	1640.42
363.78	1734.63
363.99	1708.01
364.20	1665.00
364.41	1691.62
364.62	1783.78
364.83	1724.39
365.04	1675.24
365.25	1646.57
365.46	1765.35
365.67	1630.18
365.88	1611.75
366.09	1648.61
366.30	1669.09
366.51	1679.33
366.72	1611.75
366.93	1644.52
367.14	1683.43
367.35	1701.86
367.56	1691.62
367.77	1765.35
367.98	1671.14
368.18	1755.11
368.39	1691.62
368.60	1654.76
368.81	1748.97
369.02	1748.97
369.23	1640.42
369.44	1628.14
369.65	1712.10
369.86	1683.43
370.07	1740.77
370.28	1632.23
370.49	1724.39
370.70	1691.62
370.91	1642.47
371.12	1634.28
371.33	1751.01
371.54	1724.39
371.75	1834.98
371.96	1595.37
372.17	1730.53
372.38	1693.67
372.59	1755.11
372.80	1665.00
373.01	1728.49
373.22	1675.24
373.43	1720.29
373.64	1605.61
373.85	1767.40
374.06	1771.49
374.26	1714.15
374.47	1724.39
374.68	1796.07
374.89	1656.81
375.10	1767.40
375.31	1732.58
375.52	1718.25
375.73	1740.77
375.94	1535.98
376.15	1779.68
376.36	1603.56
376.57	1693.67
376.78	1665.00
376.99	1640.42
377.20	1732.58
377.40	1703.91
377.61	1748.97
377.82	1621.99
378.03	1763.30
378.24	1708.01
378.45	1642.47
378.66	1689.57
378.87	1560.55
379.08	1658.85
379.29	1638.38
379.50	1705.96
379.71	1675.24
379.91	1740.77
380.12	1636.33
380.33	1701.86
380.54	1705.96
380.75	1648.61
380.96	1644.52
381.17	1748.97
381.38	1720.29
381.59	1681.38
381.80	1710.05
382.00	1730.53
382.21	1703.91
382.42	1837.03
382.63	1832.93
382.84	1718.25
383.05	1787.88
383.26	1771.49
383.47	1714.15
383.68	1699.81
383.88	1699.81
384.09	1716.20
384.30	1785.83
384.51	1705.96
384.72	1730.53
384.93	1683.43
385.14	1755.11
385.35	1785.83
385.55	1552.36
385.76	1820.64
385.97	1728.49
386.18	1621.99
386.39	1718.25
386.60	1658.85
386.81	1665.00
387.02	1667.05
387.22	1683.43
387.43	1761.25
387.64	1863.65
387.85	1857.51
388.06	2234.33
388.27	4208.58
388.48	6899.61
388.68	8341.38
388.89	9908.07
389.10	10024.81
389.31	8828.79
389.52	7722.89
389.73	6733.72
389.93	6377.37
390.14	6000.55
390.35	5226.42
390.56	4599.74
390.77	3788.74
390.98	3098.58
391.18	2490.33
391.39	2189.28
391.60	1853.41
391.81	1832.93
392.02	1722.34
392.23	1804.26
392.43	1603.56
392.64	1779.68
392.85	1730.53
393.06	1796.07
393.27	1701.86
393.47	1603.56
393.68	1757.16
393.89	1636.33
394.10	1773.54
394.31	1703.91
394.52	1624.04
394.72	1710.05
394.93	1804.26
395.14	1656.81
395.35	1742.82
395.56	1685.48
395.76	1822.69
395.97	1828.84
396.18	1877.99
396.39	1830.88
396.60	2013.15
396.80	1853.41
397.01	1781.73
397.22	1837.03
397.43	1843.17
397.64	1746.92
397.84	1791.97
398.05	1857.51
398.26	1779.68
398.47	1724.39
398.67	1775.59
398.88	1726.44
399.09	1718.25
399.30	1667.05
399.51	1740.77
399.71	1640.42
399.92	1685.48
400.13	1710.05
400.34	1718.25
400.54	1669.09
400.75	1796.07
400.96	1746.92
401.17	1771.49
401.37	1693.67
401.58	1679.33
401.79	1744.87
402.00	1808.36
402.21	2021.35
402.41	2002.91
402.62	1943.52
402.83	2033.63
403.04	2017.25
403.24	2076.64
403.45	1880.04
403.66	1908.71
403.87	1869.80
404.07	1906.66
404.28	1865.70
404.49	1820.64
404.70	1812.45
404.90	1740.77
405.11	1716.20
405.32	1675.24
405.52	1710.05
405.73	1644.52
405.94	1636.33
406.15	1652.71
406.35	1701.86
406.56	1742.82
406.77	1761.25
406.98	1689.57
407.18	1665.00
407.39	1808.36
407.60	1646.57
407.80	1699.81
408.01	1642.47
408.22	1822.69
408.43	1771.49
408.63	1683.43
408.84	1738.73
409.05	1839.08
409.25	1611.75
409.46	1648.61
409.67	1693.67
409.88	1650.66
410.08	1718.25
410.29	1638.38
410.50	1675.24
410.70	1632.23
410.91	1662.95
411.12	1734.63
411.32	1665.00
411.53	1626.09
411.74	1779.68
411.95	1814.50
412.15	1763.30
412.36	1736.68
412.57	1734.63
412.77	1882.08
412.98	1665.00
413.19	1650.66
413.39	1710.05
413.60	1685.48
413.81	1751.01
414.01	1658.85
414.22	1755.11
414.43	1734.63
414.63	1708.01
414.84	1843.17
415.05	1734.63
415.25	1607.66
415.46	1724.39
415.67	1658.85
415.87	1665.00
416.08	1669.09
416.29	1595.37
416.49	1722.34
416.70	1626.09
416.91	1685.48
417.11	1718.25
417.32	1701.86
417.53	1757.16
417.73	1628.14
417.94	1734.63
418.15	1683.43
418.35	1693.67
418.56	1738.73
418.77	1841.12
418.97	1689.57
419.18	1677.29
419.38	1677.29
419.59	1710.05
419.80	1753.06
420.00	1667.05
420.21	1636.33
420.42	1765.35
420.62	1714.15
420.83	1640.42
421.04	1722.34
421.24	1665.00
421.45	1718.25
421.65	1712.10
421.86	1652.71
422.07	1736.68
422.27	1648.61
422.48	1712.10
422.69	1574.89
422.89	1673.19
423.10	1765.35
423.30	1628.14
423.51	1642.47
423.72	1783.78
423.92	1699.81
424.13	1632.23
424.33	1708.01
424.54	1705.96
424.75	1619.94
424.95	1789.92
425.16	1730.53
425.36	1617.90
425.57	1693.67
425.78	1728.49
425.98	1683.43
426.19	1646.57
426.39	1673.19
426.60	1769.44
426.81	1791.97
427.01	1714.15
427.22	1689.57
427.42	1640.42
427.63	1607.66
427.83	1703.91
428.04	1775.59
428.25	1828.84
428.45	1755.11
428.66	1714.15
428.86	1693.67
429.07	1656.81
429.28	1642.47
429.48	1632.23
429.69	1642.47
429.89	1689.57
430.10	1644.52
430.30	1785.83
430.51	1818.60
430.71	1675.24
430.92	1628.14
431.13	1628.14
431.33	1697.77
431.54	1767.40
431.74	1834.98
431.95	1802.21
432.15	1591.27
432.36	1673.19
432.56	1710.05
432.77	1736.68
432.98	1816.55
433.18	1660.90
433.39	1720.29
433.59	1761.25
433.80	1900.52
434.00	1849.32
434.21	1693.67
434.41	1628.14
434.62	1814.50
434.82	1671.14
435.03	1632.23
435.23	1767.40
435.44	1587.18
435.64	1726.44
435.85	1796.07
436.06	1705.96
436.26	1775.59
436.47	1656.81
436.67	1654.76
436.88	1703.91
437.08	1699.81
437.29	1857.51
437.49	1740.77
437.70	1796.07
437.90	1677.29
438.11	1804.26
438.31	1783.78
438.52	1961.95
438.72	1851.36
438.93	1890.28
439.13	1785.83
439.34	1841.12
439.54	1734.63
439.75	1787.88
439.95	1779.68
440.16	1681.38
440.36	1767.40
440.57	1742.82
440.77	1732.58
440.98	1726.44
441.18	1757.16
441.39	1710.05
441.59	1724.39
441.80	1771.49
442.00	1732.58
442.21	1748.97
442.41	1574.89
442.62	1781.73
442.82	1646.57
443.02	1787.88
443.23	1746.92
443.43	1626.09
443.64	1769.44
443.84	1714.15
444.05	1767.40
444.25	1609.70
444.46	1650.66
444.66	1701.86
444.87	1791.97
445.07	1628.14
445.28	1695.72
445.48	1755.11
445.69	1734.63
445.89	1845.22
446.09	1783.78
446.30	2025.44
446.50	2703.32
446.71	3758.02
446.91	4276.16
447.12	4843.45
447.32	4796.34
447.53	4337.60
447.73	3940.29
447.93	3577.80
448.14	3413.96
448.34	3266.51
448.55	2899.92
448.75	2815.96
448.96	2713.56
449.16	2412.51
449.36	2250.72
449.57	2082.78
449.77	1970.15
449.98	1832.93
450.18	1810.40
450.39	1888.23
450.59	1742.82
450.79	1755.11
451.00	1705.96
451.20	1753.06
451.41	1748.97
451.61	1687.53
451.81	1710.05
452.02	1781.73
452.22	1710.05
452.43	1714.15
452.63	1681.38
452.84	1683.43
453.04	1634.28
453.24	1791.97
453.45	1720.29
453.65	1720.29
453.86	1734.63
454.06	1767.40
454.26	1740.77
454.47	1650.66
454.67	1796.07
454.87	1708.01
455.08	1720.29
455.28	1777.64
455.49	1775.59
455.69	1689.57
455.89	1816.55
456.10	1771.49
456.30	1683.43
456.51	1722.34
456.71	1728.49
456.91	1767.40
457.12	1773.54
457.32	1710.05
457.52	1624.04
457.73	1767.40
457.93	1781.73
458.14	1658.85
458.34	1640.42
458.54	1701.86
458.75	1757.16
458.95	1675.24
459.15	1697.77
459.36	1751.01
459.56	1765.35
459.76	1816.55
459.97	1757.16
460.17	1679.33
460.37	1759.21
460.58	1708.01
460.78	1742.82
460.99	1720.29
461.19	1779.68
461.39	1718.25
461.60	1712.10
461.80	1744.87
462.00	1656.81
462.21	1660.90
462.41	1646.57
462.61	1587.18
462.82	1640.42
463.02	1761.25
463.22	1746.92
463.43	1775.59
463.63	1697.77
463.83	1705.96
464.04	1724.39
464.24	1691.62
464.44	1722.34
464.64	1724.39
464.85	1755.11
465.05	1748.97
465.25	1578.98
465.46	1767.40
465.66	1667.05
465.86	1705.96
466.07	1710.05
466.27	1673.19
466.47	1658.85
466.68	1603.56
466.88	1851.36
467.08	1708.01
467.29	1806.31
467.49	1714.15
467.69	1769.44
467.89	1791.97
468.10	1701.86
468.30	1685.48
468.50	1777.64
468.71	1806.31
468.91	1638.38
469.11	1900.52
469.31	1722.34
469.52	1646.57
469.72	1798.12
469.92	1824.74
470.13	1648.61
470.33	1662.95
470.53	1853.41
470.73	2121.70
470.94	2301.92
471.14	2385.88
471.34	2541.53
471.54	2461.66
471.75	2220.00
471.95	2148.32
472.15	2133.98
472.36	2148.32
472.56	2060.26
472.76	2029.54
472.96	2035.68
473.17	1873.89
473.37	1880.04
473.57	1849.32
473.77	1798.12
473.98	1683.43
474.18	1652.71
474.38	1947.62
474.58	1718.25
474.79	1658.85
474.99	1705.96
475.19	1771.49
475.39	1697.77
475.60	1710.05
475.80	1708.01
476.00	1685.48
476.20	1703.91
476.41	1701.86
476.61	1826.79
476.81	1794.02
477.01	1673.19
477.21	1787.88
477.42	1802.21
477.62	1683.43
477.82	1806.31
478.02	1683.43
478.23	1744.87
478.43	1665.00
478.63	1667.05
478.83	1669.09
479.03	1658.85
479.24	1810.40
479.44	1863.65
479.64	1636.33
479.84	1585.13
480.04	1615.85
480.25	1779.68
480.45	1619.94
480.65	1722.34
480.85	1789.92
481.06	1708.01
481.26	1783.78
481.46	1744.87
481.66	1697.77
481.86	1683.43
482.06	1863.65
482.27	1789.92
482.47	1730.53
482.67	1798.12
482.87	1794.02
483.07	1853.41
483.28	1673.19
483.48	1576.94
483.68	1638.38
483.88	1656.81
484.08	1556.46
484.29	1632.23
484.49	1671.14
484.69	1626.09
484.89	1728.49
485.09	1775.59
485.29	1738.73
485.50	1691.62
485.70	1654.76
485.90	1802.21
486.10	1687.53
486.30	1689.57
486.50	1726.44
486.71	1732.58
486.91	1732.58
487.11	1851.36
487.31	1564.65
487.51	1726.44
487.71	1636.33
487.91	1578.98
488.12	1646.57
488.32	1619.94
488.52	1665.00
488.72	1576.94
488.92	1771.49
489.12	1808.36
489.32	1837.03
489.53	1763.30
489.73	1597.42
489.93	1761.25
490.13	1728.49
490.33	1572.84
490.53	1687.53
490.73	1728.49
490.94	1673.19
491.14	1728.49
491.34	1818.60
491.54	2117.60
491.74	2600.92
491.94	2875.35
492.14	3080.14
492.34	2987.99
492.54	2772.95
492.75	2494.43
492.95	2432.99
493.15	2287.58
493.35	2351.07
493.55	2193.37
493.75	2142.18
493.95	2070.50
494.15	2041.82
494.35	1912.80
494.56	1806.31
494.76	1794.02
494.96	1765.35
495.16	1773.54
495.36	1796.07
495.56	1716.20
495.76	1687.53
495.96	1683.43
496.16	1656.81
496.36	1808.36
496.56	1710.05
496.77	1759.21
496.97	1710.05
497.17	1796.07
497.37	1581.03
497.57	1736.68
497.77	1771.49
497.97	1605.61
498.17	1697.77
498.37	1701.86
498.57	1687.53
498.77	1736.68
498.97	1769.44
499.17	1845.22
499.38	1665.00
499.58	1757.16
499.78	1779.68
499.98	1816.55
500.18	1724.39
500.38	1734.63
500.58	1908.71
500.78	2588.63
500.98	4671.42
501.18	5918.63
501.38	6942.61
501.58	7319.44
501.78	6842.26
501.98	5597.10
502.18	5031.86
502.38	4407.23
502.58	4169.66
502.78	3817.41
502.98	3639.24
503.18	3405.77
503.38	3246.03
503.59	2828.24
503.79	2748.37
503.99	2428.89
504.19	2320.35
504.39	2203.61
504.59	2150.37
504.79	2117.60
504.99	2011.11
505.19	1888.23
505.39	1904.61
505.59	2054.11
505.79	1951.71
505.99	1908.71
506.19	1763.30
506.39	1925.09
506.59	1695.72
506.79	1796.07
506.99	1791.97
507.19	1712.10
507.39	1794.02
507.59	1654.76
507.79	1658.85
507.99	1685.48
508.19	1734.63
508.39	1800.16
508.59	1763.30
508.79	1820.64
508.99	1880.04
509.19	1753.06
509.39	1798.12
509.59	1681.38
509.79	1626.09
509.99	1673.19
510.19	1779.68
510.39	1824.74
510.59	1722.34
510.79	1677.29
510.99	1705.96
511.19	1755.11
511.39	1857.51
511.59	1689.57
511.79	1744.87
511.99	1720.29
512.19	1816.55
512.38	1718.25
512.58	1716.20
512.78	1716.20
512.98	1834.98
513.18	1802.21
513.38	1667.05
513.58	1757.16
513.78	1681.38
513.98	1667.05
514.18	1630.18
514.38	1724.39
514.58	1761.25
514.78	1665.00
514.98	1705.96
515.18	1624.04
515.38	1628.14
515.58	1839.08
515.78	1712.10
515.98	1714.15
516.18	1701.86
516.38	1708.01
516.57	1669.09
516.77	1685.48
516.97	1765.35
517.17	1685.48
517.37	1630.18
517.57	1746.92
517.77	1744.87
517.97	1658.85
518.17	1746.92
518.37	1734.63
518.57	1687.53
518.77	1636.33
518.97	1701.86
519.16	1751.01
519.36	1775.59
519.56	1718.25
519.76	1703.91
519.96	1701.86
520.16	1824.74
520.36	1665.00
520.56	1740.77
520.76	1677.29
520.96	1705.96
521.16	1665.00
521.35	1779.68
521.55	1816.55
521.75	1763.30
521.95	1671.14
522.15	1699.81
522.35	1697.77
522.55	1626.09
522.75	1724.39
522.95	1650.66
523.14	1652.71
523.34	1662.95
523.54	1697.77
523.74	1761.25
523.94	1753.06
524.14	1644.52
524.34	1839.08
524.54	1787.88
524.73	1746.92
524.93	1765.35
525.13	1781.73
525.33	1669.09
525.53	1961.95
525.73	1806.31
525.93	1710.05
526.13	1712.10
526.32	1656.81
526.52	1759.21
526.72	1810.40
526.92	1744.87
527.12	1687.53
527.32	1554.41
527.52	1757.16
527.71	1804.26
527.91	1716.20
528.11	1695.72
528.31	1746.92
528.51	1736.68
528.71	1722.34
528.90	1736.68
529.10	1849.32
529.30	1761.25
529.50	1601.51
529.70	1775.59
529.90	1693.67
530.09	1834.98
530.29	1660.90
530.49	1689.57
530.69	1849.32
530.89	1714.15
531.09	1802.21
531.28	1712.10
531.48	1783.78
531.68	1728.49
531.88	1806.31
532.08	1767.40
532.28	1667.05
532.47	1738.73
532.67	1820.64
532.87	1779.68
533.07	1677.29
533.27	1773.54
533.46	1755.11
533.66	1763.30
533.86	1712.10
534.06	1705.96
534.26	1734.63
534.45	1671.14
534.65	1812.45
534.85	1761.25
535.05	1763.30
535.25	1724.39
535.44	1609.70
535.64	1732.58
535.84	1748.97
536.04	1748.97
536.24	1781.73
536.43	1716.20
536.63	1693.67
536.83	1726.44
537.03	1697.77
537.22	1658.85
537.42	1617.90
537.62	1814.50
537.82	1642.47
538.02	1816.55
538.21	1767.40
538.41	1908.71
538.61	1753.06
538.81	1710.05
539.00	1796.07
539.20	1662.95
539.40	1662.95
539.60	1740.77
539.79	1769.44
539.99	1669.09
540.19	1626.09
540.39	1705.96
540.58	1716.20
540.78	1726.44
540.98	1685.48
541.18	1746.92
541.37	1777.64
541.57	1701.86
541.77	1765.35
541.97	1685.48
542.16	1699.81
542.36	1708.01
542.56	1830.88
542.76	1769.44
542.95	1777.64
543.15	1806.31
543.35	1732.58
543.54	1681.38
543.74	1722.34
543.94	1804.26
544.14	1660.90
544.33	1757.16
544.53	1734.63
544.73	1720.29
544.93	1708.01
545.12	1734.63
545.32	1714.15
545.52	1697.77
545.71	1634.28
545.91	1730.53
546.11	1695.72
546.30	1734.63
546.50	1740.77
546.70	1724.39
546.90	1757.16
547.09	1660.90
547.29	1746.92
547.49	1662.95
547.68	1724.39
547.88	1656.81
548.08	1744.87
548.27	2144.22
548.47	1626.09
548.67	1712.10
548.87	1708.01
549.06	1783.78
549.26	1794.02
549.46	1753.06
549.65	1722.34
549.85	1794.02
550.05	1765.35
550.24	1640.42
550.44	1685.48
550.64	1773.54
550.83	1628.14
551.03	1701.86
551.23	1810.40
551.42	1757.16
551.62	1753.06
551.82	1736.68
552.01	1796.07
552.21	1832.93
552.41	1708.01
552.60	1742.82
552.80	1683.43
553.00	1695.72
553.19	1656.81
553.39	1800.16
553.59	1689.57
553.78	1710.05
553.98	1734.63
554.17	1671.14
554.37	1806.31
554.57	1832.93
554.76	1705.96
554.96	1724.39
555.16	1695.72
555.35	1724.39
555.55	1736.68
555.75	1746.92
555.94	1738.73
556.14	1607.66
556.33	1761.25
556.53	1605.61
556.73	1734.63
556.92	1847.27
557.12	1812.45
557.32	1843.17
557.51	1865.70
557.71	1791.97
557.90	1814.50
558.10	1820.64
558.30	1578.98
558.49	1800.16
558.69	1703.91
558.88	1796.07
559.08	1755.11
559.28	1718.25
559.47	1755.11
559.67	1767.40
559.86	1841.12
560.06	1757.16
560.26	1755.11
560.45	1755.11
560.65	1687.53
560.84	1800.16
561.04	1669.09
561.24	1708.01
561.43	1640.42
561.63	1781.73
561.82	1763.30
562.02	1742.82
562.22	1665.00
562.41	1675.24
562.61	1718.25
562.80	1632.23
563.00	1857.51
563.19	1757.16
563.39	1800.16
563.59	1705.96
563.78	1662.95
563.98	1632.23
564.17	1681.38
564.37	1587.18
564.56	1748.97
564.76	1656.81
564.96	1789.92
565.15	1740.77
565.35	1882.08
565.54	1705.96
565.74	1689.57
565.93	1738.73
566.13	1648.61
566.32	1806.31
566.52	1763.30
566.71	1683.43
566.91	1806.31
567.11	1736.68
567.30	1714.15
567.50	1804.26
567.69	1802.21
567.89	1716.20
568.08	1648.61
568.28	1740.77
568.47	1636.33
568.67	1677.29
568.86	1671.14
569.06	1789.92
569.25	1722.34
569.45	1687.53
569.64	1787.88
569.84	1742.82
570.04	1755.11
570.23	1712.10
570.43	1724.39
570.62	1679.33
570.82	1757.16
571.01	1654.76
571.21	1665.00
571.40	1738.73
571.60	1734.63
571.79	1714.15
571.99	1818.60
572.18	1710.05
572.38	1757.16
572.57	1714.15
572.77	1769.44
572.96	1853.41
573.16	1763.30
573.35	1726.44
573.55	1746.92
573.74	1759.21
573.94	1728.49
574.13	1753.06
574.33	1798.12
574.52	1779.68
574.71	1708.01
574.91	1808.36
575.10	1609.70
575.30	1665.00
575.49	1775.59
575.69	1705.96
575.88	1708.01
576.08	1732.58
576.27	1779.68
576.47	1744.87
576.66	1785.83
576.86	1726.44
577.05	1720.29
577.25	1763.30
577.44	1890.28
577.64	1685.48
577.83	1796.07
578.02	1740.77
578.22	1814.50
578.41	1841.12
578.61	1685.48
578.80	1716.20
579.00	1755.11
579.19	1775.59
579.39	1771.49
579.58	1839.08
579.77	1726.44
579.97	1781.73
580.16	1796.07
580.36	1728.49
580.55	1755.11
580.75	1789.92
580.94	1769.44
581.13	1767.40
581.33	1828.84
581.52	1689.57
581.72	1865.70
581.91	1843.17
582.11	1742.82
582.30	1726.44
582.49	1765.35
582.69	1875.94
582.88	1726.44
583.08	1753.06
583.27	1753.06
583.47	1728.49
583.66	1716.20
583.85	1642.47
584.05	1740.77
584.24	1773.54
584.44	1812.45
584.63	1812.45
584.82	1773.54
585.02	1791.97
585.21	1820.64
585.41	1806.31
585.60	1916.90
585.79	1867.75
585.99	1925.09
586.18	1914.85
586.37	2215.90
586.57	3452.88
586.76	9979.75
586.96	25228.93
587.15	35286.50
587.34	41815.43
587.54	43373.93
587.73	37543.36
587.93	26965.60
588.12	22316.72
588.31	18771.68
588.51	16846.59
588.70	15720.21
588.89	14399.27
589.09	13096.76
589.28	11317.08
589.47	9652.08
589.67	8157.06
589.86	6629.27
590.06	5052.34
590.25	4024.26
590.44	3151.82
590.64	2637.78
590.83	2207.71
591.02	2131.94
591.22	2009.06
591.41	1871.84
591.60	1832.93
591.80	1910.75
591.99	1699.81
592.18	1830.88
592.38	1800.16
592.57	1820.64
592.76	1730.53
592.96	1771.49
593.15	1757.16
593.34	1802.21
593.54	1708.01
593.73	1710.05
593.92	1755.11
594.12	1746.92
594.31	1726.44
594.50	1863.65
594.70	1699.81
594.89	1935.33
595.08	1662.95
595.28	1771.49
595.47	1968.10
595.66	1787.88
595.86	1603.56
596.05	1748.97
596.24	1658.85
596.43	1804.26
596.63	1857.51
596.82	1714.15
597.01	1705.96
597.21	1779.68
597.40	1794.02
597.59	1691.62
597.79	1732.58
597.98	1779.68
598.17	1736.68
598.36	1722.34
598.56	1818.60
598.75	1753.06
598.94	1701.86
599.14	1718.25
599.33	1697.77
599.52	1763.30
599.71	1791.97
599.91	1787.88
600.10	1800.16
600.29	1781.73
600.48	1787.88
600.68	1816.55
600.87	1771.49
601.06	1714.15
601.26	1816.55
601.45	1728.49
601.64	1724.39
601.83	1746.92
602.03	1669.09
602.22	1642.47
602.41	1759.21
602.60	1853.41
602.80	1820.64
602.99	1613.80
603.18	1724.39
603.37	1771.49
603.57	1705.96
603.76	1781.73
603.95	1744.87
604.14	1742.82
604.34	1718.25
604.53	1755.11
604.72	1718.25
604.91	1701.86
605.10	1701.86
605.30	1642.47
605.49	1832.93
605.68	1714.15
605.87	1755.11
606.07	1763.30
606.26	1656.81
606.45	1728.49
606.64	1744.87
606.84	1771.49
607.03	1710.05
607.22	1820.64
607.41	1679.33
607.60	1675.24
607.80	1728.49
607.99	1705.96
608.18	1671.14
608.37	1701.86
608.56	1654.76
608.76	1783.78
608.95	1810.40
609.14	1697.77
609.33	1714.15
609.52	1730.53
609.72	1753.06
609.91	1796.07
610.10	1740.77
610.29	1820.64
610.48	1791.97
610.68	1767.40
610.87	1746.92
611.06	1730.53
611.25	1730.53
611.44	1832.93
611.63	1685.48
611.83	1796.07
612.02	1681.38
612.21	1773.54
612.40	1585.13
612.59	1609.70
612.79	1673.19
612.98	1685.48
613.17	1763.30
613.36	1736.68
613.55	1810.40
613.74	1611.75
613.93	1683.43
614.13	1708.01
614.32	1712.10
614.51	1736.68
614.70	1720.29
614.89	1675.24
615.08	1783.78
615.28	2070.50
615.47	1697.77
615.66	1681.38
615.85	1712.10
616.04	1828.84
616.23	1806.31
616.42	1703.91
616.62	1675.24
616.81	1849.32
617.00	1695.72
617.19	1732.58
617.38	1689.57
617.57	1673.19
617.76	1759.21
617.95	1724.39
618.15	1779.68
618.34	1814.50
618.53	1718.25
618.72	1753.06
618.91	1794.02
619.10	1759.21
619.29	1746.92
619.48	1681.38
619.68	1636.33
619.87	1714.15
620.06	1628.14
620.25	1814.50
620.44	1644.52
620.63	1697.77
620.82	1744.87
621.01	1669.09
621.20	1785.83
621.39	1718.25
621.59	1791.97
621.78	1669.09
621.97	1708.01
622.16	1816.55
622.35	1767.40
622.54	1724.39
622.73	1740.77
622.92	1601.51
623.11	1722.34
623.30	1767.40
623.49	1728.49
623.68	1681.38
623.88	1732.58
624.07	1703.91
624.26	1660.90
624.45	1765.35
624.64	1683.43
624.83	1728.49
625.02	1718.25
625.21	1675.24
625.40	1718.25
625.59	1791.97
625.78	1755.11
625.97	1746.92
626.16	1746.92
626.35	1783.78
626.54	1636.33
626.74	1740.77
626.93	1683.43
627.12	1677.29
627.31	1728.49
627.50	1703.91
627.69	1746.92
627.88	1615.85
628.07	1710.05
628.26	1601.51
628.45	1615.85
628.64	1658.85
628.83	1642.47
629.02	1607.66
629.21	1738.73
629.40	1705.96
629.59	1701.86
629.78	1748.97
629.97	1701.86
630.16	1714.15
630.35	1703.91
630.54	1665.00
630.73	1681.38
630.92	1718.25
631.11	1611.75
631.30	1687.53
631.49	1787.88
631.68	1691.62
631.87	1718.25
632.06	1708.01
632.25	1834.98
632.44	1665.00
632.63	1783.78
632.82	1650.66
633.01	1646.57
633.20	1742.82
633.39	1658.85
633.58	1652.71
633.77	1783.78
633.96	1660.90
634.15	1755.11
634.34	1742.82
634.53	1724.39
634.72	1650.66
634.91	1611.75
635.10	1636.33
635.29	1783.78
635.48	1763.30
635.67	1710.05
635.86	1710.05
636.05	1837.03
636.24	1728.49
636.43	1665.00
636.62	1765.35
636.81	1544.17
637.00	1667.05
637.19	1740.77
637.38	1738.73
637.57	1599.46
637.76	1714.15
637.95	1777.64
638.14	1712.10
638.33	1724.39
638.52	1757.16
638.71	1615.85
638.89	1601.51
639.08	1814.50
639.27	1771.49
639.46	1648.61
639.65	1824.74
639.84	1710.05
640.03	1742.82
640.22	1683.43
640.41	1783.78
640.60	1683.43
640.79	1667.05
640.98	1654.76
641.17	1710.05
641.36	1744.87
641.55	1687.53
641.74	1660.90
641.92	1624.04
642.11	1697.77
642.30	1568.74
642.49	1644.52
642.68	1748.97
642.87	1710.05
643.06	1746.92
643.25	1740.77
643.44	1730.53
643.63	1712.10
643.82	1755.11
644.00	1601.51
644.19	1708.01
644.38	1607.66
644.57	1705.96
644.76	1757.16
644.95	1681.38
645.14	1779.68
645.33	1658.85
645.52	1650.66
645.71	1619.94
645.89	1693.67
646.08	1667.05
646.27	1691.62
646.46	1851.36
646.65	1646.57
646.84	1748.97
647.03	1685.48
647.22	1751.01
647.40	1740.77
647.59	1746.92
647.78	1693.67
647.97	1740.77
648.16	1626.09
648.35	1806.31
648.54	1753.06
648.73	1724.39
648.91	1714.15
649.10	1656.81
649.29	1740.77
649.48	1783.78
649.67	1689.57
649.86	1710.05
650.05	1621.99
650.23	1767.40
650.42	1701.86
650.61	1740.77
650.80	1710.05
650.99	1847.27
651.18	1779.68
651.36	1742.82
651.55	1695.72
651.74	1781.73
651.93	1644.52
652.12	1699.81
652.31	1644.52
652.49	1714.15
652.68	1671.14
652.87	1816.55
653.06	1722.34
653.25	1837.03
653.44	1669.09
653.62	1861.60
653.81	1703.91
654.00	1703.91
654.19	1728.49
654.38	1816.55
654.56	1718.25
654.75	1691.62
654.94	1734.63
655.13	1695.72
655.32	1693.67
655.51	1751.01
655.69	1681.38
655.88	1767.40
656.07	1681.38
656.26	1736.68
656.45	1658.85
656.63	1730.53
656.82	1730.53
657.01	1810.40
657.20	1671.14
657.38	1728.49
657.57	1703.91
657.76	1630.18
657.95	1767.40
658.14	1613.80
658.32	1738.73
658.51	1679.33
658.70	1634.28
658.89	1654.76
659.08	1734.63
659.26	1787.88
659.45	1687.53
659.64	1681.38
659.83	1665.00
660.01	1906.66
660.20	1701.86
660.39	1765.35
660.58	1615.85
660.76	1777.64
660.95	1564.65
661.14	1697.77
661.33	1640.42
661.51	1732.58
661.70	1695.72
661.89	1740.77
662.08	1751.01
662.26	1564.65
662.45	1736.68
662.64	1789.92
662.83	1679.33
663.01	1587.18
663.20	1734.63
663.39	1796.07
663.58	1720.29
663.76	1701.86
663.95	1726.44
664.14	1699.81
664.32	1732.58
664.51	1685.48
664.70	1665.00
664.89	1734.63
665.07	1609.70
665.26	1789.92
665.45	1544.17
665.64	1710.05
665.82	1712.10
666.01	1779.68
666.20	1710.05
666.38	1787.88
666.57	1781.73
666.76	2185.18
666.95	4546.49
667.13	10551.14
667.32	15611.67
667.51	18220.78
667.69	19472.09
667.88	18130.67
668.07	12859.20
668.25	9811.82
668.44	8339.33
668.63	7475.09
668.81	7006.10
669.00	6322.08
669.19	5924.77
669.38	5150.64
669.56	4667.32
669.75	3987.40
669.94	3411.92
670.12	2942.93
670.31	2533.34
670.50	2256.86
670.68	2004.96
670.87	1873.89
671.06	1810.40
671.24	1789.92
671.43	1755.11
671.62	1732.58
671.80	1767.40
671.99	1679.33
672.18	1665.00
672.36	1734.63
672.55	1775.59
672.74	1722.34
672.92	1675.24
673.11	1748.97
673.29	1662.95
673.48	1736.68
673.67	1755.11
673.85	1753.06
674.04	1650.66
674.23	1689.57
674.41	1765.35
674.60	1638.38
674.79	1601.51
674.97	1650.66
675.16	1730.53
675.34	1828.84
675.53	1710.05
675.72	1708.01
675.90	1828.84
676.09	1708.01
676.28	1714.15
676.46	1718.25
676.65	1785.83
676.83	1689.57
677.02	1691.62
677.21	1703.91
677.39	1746.92
677.58	1705.96
677.77	1697.77
677.95	1634.28
678.14	1630.18
678.32	1636.33
678.51	1578.98
678.70	1810.40
678.88	1697.77
679.07	1675.24
679.25	1757.16
679.44	1736.68
679.63	1632.23
679.81	1665.00
680.00	1824.74
680.18	1669.09
680.37	1712.10
680.55	1757.16
680.74	1652.71
680.93	1638.38
681.11	1669.09
681.30	1773.54
681.48	1660.90
681.67	1693.67
681.85	1736.68
682.04	1638.38
682.23	1773.54
682.41	1763.30
682.60	1669.09
682.78	1734.63
682.97	1683.43
683.15	1701.86
683.34	1746.92
683.53	1748.97
683.71	1640.42
683.90	1787.88
684.08	1757.16
684.27	1763.30
684.45	1697.77
684.64	1802.21
684.82	1740.77
685.01	1667.05
685.19	1685.48
685.38	1738.73
685.57	1628.14
685.75	1689.57
685.94	1718.25
686.12	1648.61
686.31	1689.57
686.49	1804.26
686.68	1658.85
686.86	1775.59
687.05	1621.99
687.23	1732.58
687.42	1662.95
687.60	1675.24
687.79	1716.20
687.97	1755.11
688.16	1671.14
688.34	1802.21
688.53	1621.99
688.71	1742.82
688.90	1769.44
689.08	1648.61
689.27	1640.42
689.45	1730.53
689.64	1683.43
689.82	1697.77
690.01	1669.09
690.19	1703.91
690.38	1720.29
690.56	1841.12
690.75	1581.03
690.93	1619.94
691.12	1634.28
691.30	1703.91
691.49	1693.67
691.67	1671.14
691.86	1763.30
692.04	1695.72
692.23	1687.53
692.41	1609.70
692.60	1841.12
692.78	1783.78
692.97	1693.67
693.15	1769.44
693.34	1791.97
693.52	1746.92
693.71	1695.72
693.89	1619.94
694.08	1646.57
694.26	1783.78
694.44	1761.25
694.63	1732.58
694.81	1617.90
695.00	1703.91
695.18	1728.49
695.37	1841.12
695.55	1603.56
695.74	1615.85
695.92	1646.57
696.10	1748.97
696.29	1646.57
696.47	1621.99
696.66	1615.85
696.84	1640.42
697.03	1716.20
697.21	1808.36
697.40	2275.29
697.58	1738.73
697.76	1658.85
697.95	1642.47
698.13	1683.43
698.32	1621.99
698.50	1699.81
698.68	1675.24
698.87	1720.29
699.05	1818.60
699.24	1685.48
699.42	1681.38
699.61	1693.67
699.79	1712.10
699.97	1650.66
700.16	1648.61
700.34	1718.25
700.53	1681.38
700.71	1769.44
700.89	1796.07
701.08	1681.38
701.26	1740.77
701.45	2082.78
701.63	1634.28
701.81	1703.91
702.00	1648.61
702.18	1691.62
702.37	1671.14
702.55	1751.01
702.73	1640.42
702.92	1572.84
703.10	1648.61
703.28	1658.85
703.47	1710.05
703.65	1765.35
703.84	1738.73
704.02	1679.33
704.20	1787.88
704.39	1712.10
704.57	1624.04
704.75	1697.77
704.94	1681.38
705.12	1712.10
705.30	1789.92
705.49	2211.81
705.67	4513.72
705.86	9588.59
706.04	12908.35
706.22	14960.41
706.41	16039.69
706.59	14217.00
706.77	10002.28
706.96	7638.92
707.14	6805.40
707.32	6068.13
707.51	5719.98
707.69	4933.56
707.87	4372.41
708.06	3577.80
708.24	3018.71
708.42	2496.47
708.61	2271.20
708.79	1886.18
708.97	1923.04
709.16	1865.70
709.34	1738.73
709.52	1742.82
709.71	1718.25
709.89	1865.70
710.07	1648.61
710.26	1652.71
710.44	1693.67
710.62	1705.96
710.80	1734.63
710.99	1775.59
711.17	1769.44
711.35	1648.61
711.54	1685.48
711.72	1796.07
711.90	1705.96
712.09	1746.92
712.27	1705.96
712.45	1755.11
712.63	1703.91
712.82	1742.82
713.00	1646.57
713.18	1763.30
713.37	1722.34
713.55	1712.10
713.73	1777.64
713.91	1789.92
714.10	1656.81
714.28	1687.53
714.46	1757.16
714.65	1714.15
714.83	1730.53
715.01	1736.68
715.19	1712.10
715.38	1609.70
715.56	1755.11
715.74	1624.04
715.92	1615.85
716.11	1759.21
716.29	1566.70
716.47	1675.24
716.65	1691.62
716.84	1632.23
717.02	1746.92
717.20	1566.70
717.38	1626.09
717.57	1607.66
717.75	1669.09
717.93	1617.90
718.11	1652.71
718.30	1673.19
718.48	1722.34
718.66	1734.63
718.84	1767.40
719.03	1769.44
719.21	1570.79
719.39	1822.69
719.57	1701.86
719.75	1736.68
719.94	1654.76
720.12	1679.33
720.30	1718.25
720.48	1746.92
720.67	1646.57
720.85	1578.98
721.03	1638.38
721.21	1679.33
721.39	1669.09
721.58	1734.63
721.76	1671.14
721.94	1630.18
722.12	1751.01
722.30	1718.25
722.49	1699.81
722.67	1685.48
722.85	1714.15
723.03	1628.14
723.21	1699.81
723.40	1642.47
723.58	1691.62
723.76	1722.34
723.94	1804.26
724.12	1689.57
724.30	1705.96
724.49	1740.77
724.67	1634.28
724.85	1742.82
725.03	1654.76
725.21	1791.97
725.40	1726.44
725.58	1636.33
725.76	1785.83
725.94	1691.62
726.12	1638.38
726.30	1705.96
726.49	1742.82
726.67	1581.03
726.85	1710.05
727.03	1738.73
727.21	2125.79
727.39	2965.46
727.57	3979.20
727.76	4216.77
727.94	4538.30
728.12	4478.91
728.30	3692.49
728.48	2938.84
728.66	2809.81
728.84	2578.39
729.03	2355.16
729.21	2166.75
729.39	1947.62
729.57	1841.12
729.75	1742.82
729.93	1828.84
730.11	1697.77
730.30	1734.63
730.48	1673.19
730.66	1783.78
730.84	1693.67
731.02	1775.59
731.20	1648.61
731.38	1708.01
731.56	1648.61
731.74	1564.65
731.93	1681.38
732.11	1763.30
732.29	1718.25
732.47	1701.86
732.65	1718.25
732.83	1738.73
733.01	1759.21
733.19	1585.13
733.37	1703.91
733.56	1751.01
733.74	1632.23
733.92	1751.01
734.10	1681.38
734.28	1761.25
734.46	1658.85
734.64	1671.14
734.82	1638.38
735.00	1634.28
735.18	1673.19
735.36	1681.38
735.54	1726.44
735.73	1708.01
735.91	1714.15
736.09	1697.77
736.27	1701.86
736.45	1701.86
736.63	1578.98
736.81	1685.48
736.99	1695.72
737.17	1705.96
737.35	1703.91
737.53	1693.67
737.71	1615.85
737.89	1705.96
738.07	1671.14
738.25	1634.28
738.43	1640.42
738.61	1556.46
738.80	1669.09
738.98	1652.71
739.16	1617.90
739.34	1675.24
739.52	1742.82
739.70	1720.29
739.88	1775.59
740.06	1779.68
740.24	1576.94
740.42	1740.77
740.60	1558.50
740.78	1652.71
740.96	1572.84
741.14	1675.24
741.32	1656.81
741.50	1615.85
741.68	1775.59
741.86	1710.05
742.04	1615.85
742.22	1636.33
742.40	1681.38
742.58	1732.58
742.76	1697.77
742.94	1759.21
743.12	1570.79
743.30	1720.29
743.48	1699.81
743.66	1669.09
743.84	1773.54
744.02	1648.61
744.20	1583.08
744.38	1611.75
744.56	1658.85
744.74	1755.11
744.92	1691.62
745.10	1802.21
745.28	1796.07
745.46	1763.30
745.64	1705.96
745.82	1734.63
746.00	1718.25
746.18	1703.91
746.36	1609.70
746.54	1703.91
746.72	1607.66
746.90	1632.23
747.08	1785.83
747.26	1697.77
747.44	1734.63
747.62	1769.44
747.80	1691.62
747.98	1759.21
748.15	1662.95
748.33	1740.77
748.51	1667.05
748.69	1763.30
748.87	1642.47
749.05	1656.81
749.23	1728.49
749.41	1708.01
749.59	1656.81
749.77	1775.59
749.95	1650.66
750.13	1621.99
750.31	1722.34
750.49	1697.77
750.67	1675.24
750.85	1787.88
751.03	1763.30
751.20	1839.08
751.38	1724.39
751.56	1652.71
751.74	1703.91
751.92	1716.20
752.10	1583.08
752.28	1767.40
752.46	1591.27
752.64	1665.00
752.82	1648.61
753.00	1757.16
753.18	1630.18
753.35	1689.57
753.53	1773.54
753.71	1656.81
753.89	1712.10
754.07	1673.19
754.25	1744.87
754.43	1808.36
754.61	1671.14
754.79	1701.86
754.97	1660.90
755.14	1675.24
755.32	1615.85
755.50	1679.33
755.68	1759.21
755.86	1638.38
756.04	1693.67
756.22	1566.70
756.40	1771.49
756.57	1710.05
756.75	1679.33
756.93	1755.11
757.11	1730.53
757.29	1695.72
757.47	1656.81
757.65	1597.42
757.82	1615.85
758.00	1681.38
758.18	1642.47
758.36	1673.19
758.54	1789.92
758.72	1632.23
758.90	1748.97
759.07	1693.67
759.25	1658.85
759.43	1791.97
759.61	1681.38
759.79	2144.22
759.97	1703.91
760.15	1656.81
760.32	1621.99
760.50	1746.92
760.68	1789.92
760.86	1626.09
761.04	1720.29
761.22	1757.16
761.39	1730.53
761.57	1701.86
761.75	1677.29
761.93	1714.15
762.11	1701.86
762.28	1636.33
762.46	1607.66
762.64	1685.48
762.82	1583.08
763.00	1695.72
763.18	1730.53
763.35	1642.47
763.53	1771.49
763.71	1722.34
763.89	1656.81
764.07	1740.77
764.24	1685.48
764.42	1695.72
764.60	1648.61
764.78	1724.39
764.96	1669.09
765.13	1789.92
765.31	1648.61
765.49	1714.15
765.67	1568.74
765.84	1665.00
766.02	1660.90
766.20	1603.56
766.38	1720.29
766.56	1697.77
766.73	1714.15
766.91	1720.29
767.09	1705.96
767.27	1703.91
767.44	1652.71
767.62	1640.42
767.80	1679.33
767.98	1697.77
768.15	1683.43
768.33	1767.40
768.51	1763.30
768.69	1730.53
768.87	1665.00
769.04	1619.94
769.22	1900.52
769.40	1767.40
769.58	1882.08
769.75	1650.66
769.93	1789.92
770.11	1665.00
770.28	1683.43
770.46	1761.25
770.64	1755.11
770.82	1677.29
770.99	1695.72
771.17	1669.09
771.35	1693.67
771.53	1669.09
771.70	1634.28
771.88	1746.92
772.06	1683.43
772.23	1646.57
772.41	1671.14
772.59	1722.34
772.77	1652.71
772.94	1677.29
773.12	1656.81
773.30	1593.32
773.47	1734.63
773.65	1654.76
773.83	1748.97
774.01	1724.39
774.18	1650.66
774.36	1681.38
774.54	1662.95
774.71	1701.86
774.89	1611.75
775.07	1583.08
775.24	1673.19
775.42	1693.67
775.60	1751.01
775.78	1642.47
775.95	1603.56
776.13	1609.70
776.31	1581.03
776.48	1734.63
776.66	1763.30
776.84	1695.72
777.01	1638.38
777.19	1689.57
777.37	1642.47
777.54	1695.72
777.72	1748.97
777.90	1726.44
778.07	1619.94
778.25	1904.61
778.43	1759.21
778.60	1695.72
778.78	1687.53
778.96	1810.40
779.13	1665.00
779.31	1724.39
779.49	1691.62
779.66	1712.10
779.84	1665.00
780.01	1669.09
780.19	1632.23
780.37	1646.57
780.54	1685.48
780.72	1656.81
780.90	1593.32
781.07	1650.66
781.25	1636.33
781.43	1775.59
781.60	1693.67
781.78	1744.87
781.95	1648.61
782.13	1681.38
782.31	1658.85
782.48	1634.28
782.66	1689.57
782.83	1789.92
783.01	1691.62
783.19	1748.97
783.36	1632.23
783.54	1683.43
783.72	1724.39
783.89	1677.29
784.07	1697.77
784.24	1734.63
784.42	1826.79
784.60	1705.96
784.77	1716.20
784.95	1626.09
785.12	1638.38
785.30	1769.44
785.47	1675.24
785.65	1611.75
785.83	1665.00
786.00	1665.00
786.18	1759.21
786.35	1615.85
786.53	1689.57
786.71	1769.44
786.88	1724.39
787.06	1746.92
787.23	1710.05
787.41	1558.50
787.58	1691.62
787.76	1665.00
787.94	1763.30
788.11	1665.00
788.29	1603.56
788.46	1626.09
788.64	1628.14
788.81	1695.72
788.99	1705.96
789.16	1648.61
789.34	1679.33
789.52	1728.49
789.69	1595.37
789.87	1595.37
790.04	1748.97
790.22	1665.00
790.39	1779.68
790.57	1640.42
790.74	1656.81
790.92	1734.63
791.09	1533.93
791.27	1646.57
791.44	1710.05
791.62	1644.52
791.79	1740.77
791.97	1753.06
792.15	1898.47
792.32	1759.21
792.50	1710.05
792.67	1820.64
792.85	1777.64
793.02	1726.44
793.20	1685.48
793.37	1630.18
793.55	1667.05
793.72	1640.42
793.90	1699.81
794.07	1695.72
794.25	1560.55
794.42	1675.24
794.60	1624.04
794.77	1765.35
794.95	1759.21
795.12	1705.96
795.30	1708.01
795.47	1640.42
795.65	1853.41
795.82	1791.97
796.00	1560.55
796.17	1662.95
796.34	1718.25
796.52	1730.53
796.69	1759.21
796.87	1691.62
797.04	1757.16
797.22	1742.82
797.39	1648.61
797.57	1748.97
797.74	1671.14
797.92	1744.87
798.09	1744.87
798.27	1783.78
798.44	1679.33
798.62	1683.43
798.79	1701.86
798.96	1679.33
799.14	1646.57
799.31	1769.44
799.49	1736.68
799.66	1718.25
799.84	1640.42
800.01	1648.61
800.19	1695.72
800.36	1531.88
800.53	1781.73
800.71	1652.71
800.88	1783.78
801.06	1621.99
801.23	1697.77
801.41	1660.90
801.58	1624.04
801.75	1607.66
801.93	1626.09
802.10	1767.40
802.28	1742.82
802.45	1712.10
802.63	1683.43
802.80	1746.92
802.97	1613.80
803.15	1724.39
803.32	1636.33
803.50	1671.14
803.67	1710.05
803.84	1691.62
804.02	1742.82
804.19	1617.90
804.37	1644.52
804.54	1591.27
804.71	1621.99
804.89	1652.71
805.06	1628.14
805.24	1621.99
805.41	1722.34
805.58	1583.08
805.76	1900.52
805.93	1724.39
806.10	1746.92
806.28	1748.97
806.45	1607.66
806.63	1660.90
806.80	1574.89
806.97	1708.01
807.15	1681.38
807.32	1640.42
807.49	1607.66
807.67	1642.47
807.84	1751.01
808.01	1611.75
808.19	1755.11
808.36	1785.83
808.54	1699.81
808.71	1726.44
808.88	1691.62
809.06	1638.38
809.23	1757.16
809.40	1648.61
809.58	1730.53
809.75	1685.48
809.92	1628.14
810.10	1765.35
810.27	1718.25
810.44	1718.25
810.62	1798.12
810.79	1736.68
810.96	1628.14
811.14	1646.57
811.31	1677.29
811.48	1726.44
811.66	1712.10
811.83	1787.88
812.00	1679.33
812.18	1757.16
812.35	1843.17
812.52	1675.24
812.69	1640.42
812.87	1685.48
813.04	1665.00
813.21	1646.57
813.39	1650.66
813.56	1648.61
813.73	1732.58
813.91	1617.90
814.08	1716.20
814.25	1681.38
814.42	1638.38
814.60	1638.38
814.77	1677.29
814.94	1662.95
815.12	1699.81
815.29	1671.14
815.46	1660.90
815.63	1718.25
815.81	1667.05
815.98	1671.14
816.15	1708.01
816.33	1705.96
816.50	1652.71
816.67	1673.19
816.84	1757.16
817.02	1572.84
817.19	1609.70
817.36	1634.28
817.53	1775.59
817.71	1619.94
817.88	1767.40
818.05	1673.19
818.22	1669.09
818.40	1796.07
818.57	1708.01
818.74	1658.85
818.91	1671.14
819.09	1757.16
819.26	1779.68
819.43	1619.94
819.60	1595.37
819.78	1630.18
819.95	1734.63
820.12	1708.01
820.29	1740.77
820.47	1736.68
820.64	1636.33
820.81	1648.61
820.98	1619.94
821.15	1691.62
821.33	1830.88
821.50	1611.75
821.67	1671.14
821.84	1673.19
822.02	1714.15
822.19	1738.73
822.36	1646.57
822.53	1652.71
822.70	1644.52
822.88	1695.72
823.05	1748.97
823.22	1615.85
823.39	1683.43
823.56	1769.44
823.74	1845.22
823.91	1656.81
824.08	1605.61
824.25	1624.04
824.42	1738.73
824.60	1603.56
824.77	1753.06
824.94	1695.72
825.11	1736.68
825.28	1621.99
825.45	1683.43
825.63	1701.86
825.80	1632.23
825.97	1720.29
826.14	1681.38
826.31	1603.56
826.48	1742.82
826.66	1634.28
826.83	1656.81
827.00	1687.53
827.17	1636.33
827.34	1654.76
827.51	1632.23
827.69	1669.09
827.86	1640.42
828.03	1615.85
828.20	1724.39
828.37	1585.13
828.54	1693.67
828.71	1581.03
828.89	1746.92
829.06	1701.86
829.23	1732.58
829.40	1632.23
829.57	1683.43
829.74	1695.72
829.91	1652.71
830.09	1644.52
830.26	1796.07
830.43	1624.04
830.60	1710.05
830.77	1732.58
830.94	1779.68
831.11	1742.82
831.28	1638.38
831.46	1642.47
831.63	1632.23
831.80	1708.01
831.97	1570.79
832.14	1644.52
832.31	1736.68
832.48	1687.53
832.65	1783.78
832.82	1712.10
832.99	1667.05
833.17	1646.57
833.34	1679.33
833.51	1710.05
833.68	1560.55
833.85	1685.48
834.02	1746.92
834.19	1665.00
834.36	1619.94
834.53	1654.76
834.70	1722.34
834.87	1697.77
835.04	1724.39
835.22	1638.38
835.39	1644.52
835.56	1601.51
835.73	1667.05
835.90	1654.76
836.07	1648.61
836.24	1820.64
836.41	1658.85
836.58	1677.29
836.75	1679.33
836.92	1701.86
837.09	1581.03
837.26	1744.87
837.43	1738.73
837.60	1751.01
837.77	1640.42
837.94	1679.33
838.12	1710.05
838.29	1693.67
838.46	1601.51
838.63	1517.54
838.80	1798.12
838.97	1728.49
839.14	1656.81
839.31	1683.43
839.48	1769.44
839.65	1665.00
839.82	1722.34
839.99	1683.43
840.16	1755.11
840.33	1689.57
840.50	1634.28
840.67	1628.14
840.84	1568.74
841.01	1781.73
841.18	1656.81
841.35	1705.96
841.52	1705.96
841.69	1724.39
841.86	1746.92
842.03	1644.52
842.20	1744.87
842.37	1687.53
842.54	1638.38
842.71	1693.67
842.88	1619.94
843.05	1716.20
843.22	1681.38
843.39	1691.62
843.56	1738.73
843.73	1624.04
843.90	1675.24
844.07	1720.29
844.24	1726.44
844.41	1703.91
844.58	1669.09
844.75	1748.97
844.92	1665.00
845.09	1673.19
845.26	1634.28
845.43	1697.77
845.60	1675.24
845.77	1718.25
845.94	1683.43
846.10	1712.10
846.27	1552.36
846.44	1646.57
846.61	1677.29
846.78	1716.20
846.95	1736.68
847.12	1669.09
847.29	1615.85
847.46	1566.70
847.63	1689.57
847.80	1708.01
847.97	1652.71
848.14	1746.92
848.31	1630.18
848.48	1589.22
848.65	1699.81
848.82	1665.00
848.98	1890.28
849.15	1716.20
849.32	1720.29
849.49	1710.05
849.66	1660.90
849.83	1728.49
850.00	1619.94
850.17	1730.53
850.34	1658.85
850.51	1624.04
850.68	1642.47
850.85	1751.01
851.01	1687.53
851.18	1726.44
851.35	1691.62
851.52	1722.34
851.69	1816.55
851.86	1632.23
852.03	1671.14
852.20	1726.44
852.37	1652.71
852.53	1605.61
852.70	1615.85
852.87	1714.15
853.04	1732.58
853.21	1716.20
853.38	1796.07
853.55	1837.03
853.72	1699.81
853.89	1669.09
854.05	1570.79
854.22	1701.86
854.39	1675.24
854.56	1705.96
854.73	1726.44
854.90	1648.61
855.07	1753.06
855.23	1642.47
855.40	1662.95
855.57	1652.71
855.74	1595.37
855.91	1816.55
856.08	1632.23
856.25	1619.94
856.41	1701.86
856.58	1607.66
856.75	1652.71
856.92	1667.05
857.09	1683.43
857.26	1595.37
857.42	1673.19
857.59	1710.05
857.76	1685.48
857.93	1681.38
858.10	1718.25
858.27	1685.48
858.43	1722.34
858.60	1611.75
858.77	1638.38
858.94	1658.85
859.11	1705.96
859.27	1654.76
859.44	1660.90
859.61	1822.69
859.78	1683.43
859.95	1710.05
860.12	1689.57
860.28	1832.93
860.45	1761.25
860.62	1673.19
860.79	1679.33
860.95	1701.86
861.12	1599.46
861.29	1617.90
861.46	1597.42
861.63	1587.18
861.79	1697.77
861.96	1636.33
862.13	1630.18
862.30	1744.87
862.47	1662.95
862.63	1621.99
862.80	1714.15
862.97	1736.68
863.14	1763.30
863.30	1658.85
863.47	1595.37
863.64	1636.33
863.81	1726.44
863.97	1697.77
864.14	1710.05
864.31	1650.66
864.48	1787.88
864.65	1677.29
864.81	1665.00
864.98	1695.72
865.15	1679.33
865.32	1593.32
865.48	1759.21
865.65	1728.49
865.82	1613.80
865.98	1730.53
866.15	1789.92
866.32	1681.38
866.49	1683.43
866.65	1753.06
866.82	1640.42
866.99	1632.23
867.16	1691.62
867.32	1675.24
867.49	1665.00
867.66	1626.09
867.83	1775.59
867.99	1578.98
868.16	1679.33
868.33	1673.19
868.49	1695.72
868.66	1673.19
868.83	1673.19
868.99	1673.19
869.16	1646.57
869.33	1789.92
869.50	1714.15
869.66	1681.38
869.83	1603.56
870.00	1701.86
870.16	1669.09
870.33	1648.61
870.50	1773.54
870.66	1705.96
870.83	1757.16
871.00	1710.05
871.17	1693.67
871.33	1724.39
871.50	1679.33
871.67	1634.28
871.83	1665.00
872.00	1746.92
872.17	1667.05
872.33	1794.02
872.50	1699.81
872.67	1665.00
872.83	1628.14
873.00	1718.25
873.17	1697.77
873.33	1691.62
873.50	1691.62
873.67	1673.19
873.83	1675.24
874.00	1746.92
874.16	1718.25
874.33	1658.85
874.50	1691.62
874.66	1755.11
874.83	1675.24
875.00	1822.69
875.16	1701.86
875.33	1746.92
875.50	1644.52
875.66	1669.09
875.83	1691.62
875.99	1658.85
876.16	1648.61
876.33	1603.56
876.49	1652.71
876.66	1701.86
876.83	1718.25
876.99	1699.81
877.16	1576.94
877.32	1744.87
877.49	1671.14
877.66	1634.28
877.82	1789.92
877.99	1728.49
878.15	1771.49
878.32	1753.06
878.49	1697.77
878.65	1624.04
878.82	1781.73
878.98	1650.66
879.15	1781.73
879.32	1691.62
879.48	1701.86
879.65	1613.80
879.81	1599.46
879.98	1712.10
880.15	1701.86
880.31	1679.33
880.48	1615.85
880.64	1755.11
880.81	1742.82
880.97	1736.68
881.14	1781.73
881.31	1677.29
881.47	1775.59
881.64	1683.43
881.80	1603.56
881.97	1753.06
882.13	1794.02
882.30	1648.61
882.47	1683.43
882.63	1615.85
882.80	1613.80
882.96	1648.61
883.13	1701.86
883.29	1656.81
883.46	1619.94
883.62	1781.73
883.79	1722.34
883.95	1769.44
884.12	1677.29
884.29	1724.39
884.45	1697.77
884.62	1697.77
884.78	1652.71
884.95	1673.19
885.11	1699.81
885.28	1665.00
885.44	1617.90
885.61	1691.62
885.77	1753.06
885.94	1691.62
886.10	1689.57
886.27	1763.30
886.43	1820.64
886.60	1736.68
886.76	1673.19
886.93	1669.09
887.09	1636.33
887.26	1562.60
887.42	1740.77
887.59	1748.97
887.75	1810.40
887.92	1822.69
888.08	1753.06
888.25	1757.16
888.41	1691.62
888.58	1630.18
888.74	1634.28
888.91	1607.66
>>>>>End Processed Spectral Data<<<<<
