SpectraSuite Data File
++++++++++++++++++++++++++++++++++++
Date: Mon Jun 06 12:40:37 CEST 2016
User: root
Dark Spectrum Present: No
Reference Spectrum Present: No
Number of Sampled Component Spectra: 1
Spectrometers: USB4C02835
Integration Time (usec): 100000 (USB4C02835)
Spectra Averaged: 1 (USB4C02835)
Boxcar Smoothing: 0 (USB4C02835)
Correct for Electrical Dark: No (USB4C02835)
Strobe/Lamp Enabled: No (USB4C02835)
Correct for Detector Non-linearity: No (USB4C02835)
Correct for Stray Light: No (USB4C02835)
Number of Pixels in Processed Spectrum: 3648
>>>>>Begin Processed Spectral Data<<<<<
177.47	1492.97
177.69	1492.97
177.91	1492.97
178.13	1478.63
178.36	1464.30
178.58	1576.94
178.80	1660.90
179.02	1615.85
179.24	1624.04
179.46	1660.90
179.68	1748.97
179.90	1628.14
180.13	1769.44
180.35	1632.23
180.57	1662.95
180.79	1710.05
181.01	1699.81
181.23	1845.22
181.45	1777.64
181.67	1712.10
181.90	1779.68
182.12	1638.38
182.34	1636.33
182.56	1708.01
182.78	1722.34
183.00	1716.20
183.22	1683.43
183.44	1583.08
183.66	1820.64
183.89	1791.97
184.11	1693.67
184.33	1630.18
184.55	1730.53
184.77	1716.20
184.99	1746.92
185.21	1746.92
185.43	1798.12
185.65	1658.85
185.87	1740.77
186.10	1814.50
186.32	1882.08
186.54	1791.97
186.76	1701.86
186.98	1732.58
187.20	1701.86
187.42	1652.71
187.64	1697.77
187.86	1751.01
188.08	1718.25
188.30	1677.29
188.52	1693.67
188.75	1798.12
188.97	1789.92
189.19	1644.52
189.41	1701.86
189.63	1718.25
189.85	1693.67
190.07	1609.70
190.29	1652.71
190.51	1714.15
190.73	1632.23
190.95	1759.21
191.17	1669.09
191.39	1667.05
191.61	1685.48
191.84	1638.38
192.06	1693.67
192.28	1585.13
192.50	1820.64
192.72	1773.54
192.94	1736.68
193.16	1810.40
193.38	1675.24
193.60	1689.57
193.82	1646.57
194.04	1763.30
194.26	1675.24
194.48	1683.43
194.70	1779.68
194.92	1683.43
195.14	1705.96
195.36	1665.00
195.58	1740.77
195.80	1691.62
196.02	1679.33
196.24	1615.85
196.46	1665.00
196.69	1665.00
196.91	1818.60
197.13	1675.24
197.35	1648.61
197.57	1808.36
197.79	1687.53
198.01	1681.38
198.23	1742.82
198.45	1648.61
198.67	1701.86
198.89	1687.53
199.11	1773.54
199.33	1658.85
199.55	1644.52
199.77	1662.95
199.99	1701.86
200.21	1769.44
200.43	1757.16
200.65	1613.80
200.87	1613.80
201.09	1673.19
201.31	1697.77
201.53	1748.97
201.75	1800.16
201.97	1759.21
202.19	1718.25
202.41	1728.49
202.63	1873.89
202.85	1701.86
203.07	1646.57
203.29	1708.01
203.51	1621.99
203.73	1621.99
203.95	1828.84
204.17	1669.09
204.39	1720.29
204.61	1722.34
204.83	1611.75
205.05	1699.81
205.27	1742.82
205.49	1791.97
205.71	1744.87
205.93	1656.81
206.15	1658.85
206.37	1710.05
206.59	1681.38
206.81	1660.90
207.03	1638.38
207.25	1667.05
207.47	1767.40
207.69	1744.87
207.91	1775.59
208.13	1832.93
208.34	1740.77
208.56	1619.94
208.78	1644.52
209.00	1644.52
209.22	1708.01
209.44	1736.68
209.66	1652.71
209.88	1644.52
210.10	1669.09
210.32	1703.91
210.54	1783.78
210.76	1689.57
210.98	1736.68
211.20	1597.42
211.42	1667.05
211.64	1773.54
211.86	1738.73
212.08	1726.44
212.30	1693.67
212.52	1681.38
212.74	1718.25
212.96	1699.81
213.17	1701.86
213.39	1722.34
213.61	1769.44
213.83	1732.58
214.05	1658.85
214.27	1746.92
214.49	1634.28
214.71	1650.66
214.93	1804.26
215.15	1687.53
215.37	1751.01
215.59	1621.99
215.81	1767.40
216.03	1781.73
216.24	1736.68
216.46	1689.57
216.68	1677.29
216.90	1763.30
217.12	1728.49
217.34	1665.00
217.56	1699.81
217.78	1708.01
218.00	1701.86
218.22	1730.53
218.44	1673.19
218.66	1646.57
218.87	1845.22
219.09	1697.77
219.31	1662.95
219.53	1662.95
219.75	1656.81
219.97	1681.38
220.19	1697.77
220.41	1695.72
220.63	1832.93
220.85	1718.25
221.06	1632.23
221.28	1763.30
221.50	1748.97
221.72	1724.39
221.94	1699.81
222.16	1673.19
222.38	1703.91
222.60	1677.29
222.82	1671.14
223.03	1744.87
223.25	1630.18
223.47	1753.06
223.69	1767.40
223.91	1677.29
224.13	1675.24
224.35	1646.57
224.57	1732.58
224.78	1636.33
225.00	1656.81
225.22	1730.53
225.44	1642.47
225.66	1726.44
225.88	1673.19
226.10	1794.02
226.32	1681.38
226.53	1748.97
226.75	1624.04
226.97	1658.85
227.19	1714.15
227.41	1681.38
227.63	1667.05
227.85	1566.70
228.06	1771.49
228.28	1734.63
228.50	1724.39
228.72	1640.42
228.94	1687.53
229.16	1609.70
229.37	1708.01
229.59	1724.39
229.81	1798.12
230.03	1685.48
230.25	1601.51
230.47	1576.94
230.69	1640.42
230.90	1691.62
231.12	1751.01
231.34	1703.91
231.56	1796.07
231.78	1705.96
232.00	1710.05
232.21	1728.49
232.43	1658.85
232.65	1605.61
232.87	1738.73
233.09	1642.47
233.30	1593.32
233.52	1781.73
233.74	1677.29
233.96	1634.28
234.18	1689.57
234.40	1748.97
234.61	1738.73
234.83	1621.99
235.05	1626.09
235.27	1875.94
235.49	1693.67
235.70	1636.33
235.92	1753.06
236.14	1740.77
236.36	1830.88
236.58	1656.81
236.79	1757.16
237.01	1701.86
237.23	1773.54
237.45	1779.68
237.67	1665.00
237.88	1720.29
238.10	1787.88
238.32	1669.09
238.54	1716.20
238.76	1677.29
238.97	1558.50
239.19	1650.66
239.41	1787.88
239.63	1783.78
239.85	1732.58
240.06	1708.01
240.28	1724.39
240.50	1787.88
240.72	1691.62
240.93	1753.06
241.15	1714.15
241.37	1648.61
241.59	1701.86
241.81	1734.63
242.02	1732.58
242.24	1738.73
242.46	1804.26
242.68	1626.09
242.89	1669.09
243.11	1746.92
243.33	1718.25
243.55	1736.68
243.76	1722.34
243.98	1640.42
244.20	1710.05
244.42	1718.25
244.64	1703.91
244.85	1640.42
245.07	1665.00
245.29	1724.39
245.51	1626.09
245.72	1705.96
245.94	1775.59
246.16	1685.48
246.38	1767.40
246.59	1599.46
246.81	1632.23
247.03	1722.34
247.24	1613.80
247.46	1718.25
247.68	1732.58
247.90	1728.49
248.11	1658.85
248.33	1710.05
248.55	1724.39
248.77	1689.57
248.98	1712.10
249.20	1722.34
249.42	1708.01
249.64	1740.77
249.85	1677.29
250.07	1609.70
250.29	1689.57
250.50	1763.30
250.72	1656.81
250.94	1742.82
251.16	1863.65
251.37	1769.44
251.59	1755.11
251.81	1712.10
252.02	1716.20
252.24	1644.52
252.46	1812.45
252.68	1701.86
252.89	1677.29
253.11	1605.61
253.33	1834.98
253.54	1783.78
253.76	1599.46
253.98	1658.85
254.20	1763.30
254.41	1691.62
254.63	1603.56
254.85	1595.37
255.06	1646.57
255.28	1689.57
255.50	1699.81
255.71	1671.14
255.93	1646.57
256.15	1689.57
256.36	1705.96
256.58	1697.77
256.80	1724.39
257.02	1710.05
257.23	1677.29
257.45	1697.77
257.67	1710.05
257.88	1624.04
258.10	1732.58
258.32	1613.80
258.53	1617.90
258.75	1806.31
258.97	1671.14
259.18	1736.68
259.40	1738.73
259.62	1822.69
259.83	1652.71
260.05	1683.43
260.27	1923.04
260.48	1751.01
260.70	1642.47
260.92	1628.14
261.13	1671.14
261.35	1740.77
261.57	1832.93
261.78	1656.81
262.00	1693.67
262.22	1781.73
262.43	1642.47
262.65	1660.90
262.86	1679.33
263.08	1701.86
263.30	1691.62
263.51	1581.03
263.73	1632.23
263.95	1773.54
264.16	1593.32
264.38	1601.51
264.60	1728.49
264.81	1722.34
265.03	1730.53
265.25	1812.45
265.46	1624.04
265.68	1740.77
265.89	1734.63
266.11	1599.46
266.33	1763.30
266.54	1755.11
266.76	1699.81
266.98	1701.86
267.19	1834.98
267.41	1687.53
267.62	1732.58
267.84	1738.73
268.06	1673.19
268.27	1679.33
268.49	1716.20
268.70	1714.15
268.92	1691.62
269.14	1640.42
269.35	1689.57
269.57	1665.00
269.79	1796.07
270.00	1607.66
270.22	1841.12
270.43	1681.38
270.65	1597.42
270.87	1708.01
271.08	1701.86
271.30	1693.67
271.51	1734.63
271.73	1695.72
271.95	1757.16
272.16	1714.15
272.38	1746.92
272.59	1671.14
272.81	1712.10
273.02	1769.44
273.24	1771.49
273.46	1724.39
273.67	1642.47
273.89	1578.98
274.10	1613.80
274.32	1771.49
274.54	1693.67
274.75	1671.14
274.97	1632.23
275.18	1746.92
275.40	1773.54
275.61	1748.97
275.83	1695.72
276.05	1650.66
276.26	1720.29
276.48	1701.86
276.69	1701.86
276.91	1601.51
277.12	1820.64
277.34	1820.64
277.55	1787.88
277.77	1628.14
277.99	1726.44
278.20	1660.90
278.42	1656.81
278.63	1632.23
278.85	1716.20
279.06	1572.84
279.28	1720.29
279.49	1718.25
279.71	1685.48
279.93	1689.57
280.14	1634.28
280.36	1632.23
280.57	1777.64
280.79	1648.61
281.00	1726.44
281.22	1621.99
281.43	1820.64
281.65	1558.50
281.86	1656.81
282.08	1738.73
282.29	1818.60
282.51	1738.73
282.73	1646.57
282.94	1556.46
283.16	1699.81
283.37	1802.21
283.59	1748.97
283.80	1632.23
284.02	1697.77
284.23	1710.05
284.45	1714.15
284.66	1634.28
284.88	1574.89
285.09	1697.77
285.31	1742.82
285.52	1738.73
285.74	1669.09
285.95	1699.81
286.17	1613.80
286.38	1738.73
286.60	1695.72
286.81	1742.82
287.03	1710.05
287.24	1667.05
287.46	1736.68
287.67	1669.09
287.89	1910.75
288.10	1691.62
288.32	1632.23
288.53	1775.59
288.75	1718.25
288.96	1730.53
289.18	1755.11
289.39	1687.53
289.61	1767.40
289.82	1794.02
290.04	1748.97
290.25	1599.46
290.47	1722.34
290.68	1601.51
290.90	1755.11
291.11	1632.23
291.33	1820.64
291.54	1593.32
291.76	1613.80
291.97	1665.00
292.18	1796.07
292.40	1671.14
292.61	1626.09
292.83	1818.60
293.04	1773.54
293.26	1722.34
293.47	1665.00
293.69	1726.44
293.90	1656.81
294.12	1730.53
294.33	1708.01
294.55	1714.15
294.76	1728.49
294.97	1820.64
295.19	1810.40
295.40	1660.90
295.62	1724.39
295.83	1767.40
296.05	1599.46
296.26	1775.59
296.48	1679.33
296.69	1712.10
296.90	1740.77
297.12	1759.21
297.33	1779.68
297.55	1656.81
297.76	1757.16
297.98	1738.73
298.19	1708.01
298.41	1726.44
298.62	1656.81
298.83	1738.73
299.05	1624.04
299.26	1589.22
299.48	1630.18
299.69	1746.92
299.90	1689.57
300.12	1626.09
300.33	1841.12
300.55	1679.33
300.76	1853.41
300.98	1611.75
301.19	1787.88
301.40	1703.91
301.62	1658.85
301.83	1705.96
302.05	1703.91
302.26	1658.85
302.47	1701.86
302.69	1642.47
302.90	1720.29
303.12	1621.99
303.33	1791.97
303.54	1789.92
303.76	1705.96
303.97	1685.48
304.19	1798.12
304.40	1624.04
304.61	1732.58
304.83	1857.51
305.04	1671.14
305.26	1777.64
305.47	1660.90
305.68	1726.44
305.90	1585.13
306.11	1705.96
306.33	1689.57
306.54	1660.90
306.75	1677.29
306.97	1601.51
307.18	1671.14
307.39	1669.09
307.61	1781.73
307.82	1679.33
308.04	1701.86
308.25	1685.48
308.46	1796.07
308.68	1695.72
308.89	1691.62
309.10	1728.49
309.32	1701.86
309.53	1652.71
309.74	1759.21
309.96	1705.96
310.17	1710.05
310.39	1660.90
310.60	1705.96
310.81	1660.90
311.03	1693.67
311.24	1695.72
311.45	1656.81
311.67	1785.83
311.88	1703.91
312.09	1740.77
312.31	1675.24
312.52	1669.09
312.73	1687.53
312.95	1585.13
313.16	1617.90
313.37	1675.24
313.59	1726.44
313.80	1665.00
314.01	1853.41
314.23	1671.14
314.44	1685.48
314.65	1632.23
314.87	1679.33
315.08	1800.16
315.29	1640.42
315.51	1646.57
315.72	1665.00
315.93	1826.79
316.15	1806.31
316.36	1677.29
316.57	1669.09
316.79	1712.10
317.00	1652.71
317.21	1714.15
317.43	1734.63
317.64	1658.85
317.85	1724.39
318.07	1726.44
318.28	1726.44
318.49	1822.69
318.70	1943.52
318.92	1804.26
319.13	1742.82
319.34	1781.73
319.56	1861.60
319.77	1796.07
319.98	1781.73
320.20	1759.21
320.41	1732.58
320.62	1662.95
320.83	1705.96
321.05	1794.02
321.26	1785.83
321.47	1759.21
321.69	1781.73
321.90	1566.70
322.11	1673.19
322.32	1642.47
322.54	1826.79
322.75	1634.28
322.96	1759.21
323.18	1644.52
323.39	1634.28
323.60	1583.08
323.81	1806.31
324.03	1660.90
324.24	1765.35
324.45	1789.92
324.66	1697.77
324.88	1732.58
325.09	1759.21
325.30	1679.33
325.52	1697.77
325.73	1771.49
325.94	1583.08
326.15	1613.80
326.37	1708.01
326.58	1755.11
326.79	1771.49
327.00	1636.33
327.22	1685.48
327.43	1656.81
327.64	1652.71
327.85	1703.91
328.07	1728.49
328.28	1732.58
328.49	1771.49
328.70	1710.05
328.92	1705.96
329.13	1691.62
329.34	1714.15
329.55	1710.05
329.76	1738.73
329.98	1701.86
330.19	1779.68
330.40	1744.87
330.61	1703.91
330.83	1640.42
331.04	1665.00
331.25	1710.05
331.46	1652.71
331.68	1632.23
331.89	1685.48
332.10	1691.62
332.31	1685.48
332.52	1695.72
332.74	1730.53
332.95	1613.80
333.16	1699.81
333.37	1728.49
333.58	1626.09
333.80	1777.64
334.01	1595.37
334.22	1673.19
334.43	1697.77
334.64	1720.29
334.86	1695.72
335.07	1681.38
335.28	1771.49
335.49	1656.81
335.70	1777.64
335.92	1824.74
336.13	1920.99
336.34	1710.05
336.55	1769.44
336.76	1724.39
336.98	1607.66
337.19	1732.58
337.40	1791.97
337.61	1880.04
337.82	1679.33
338.04	1693.67
338.25	1621.99
338.46	1705.96
338.67	1597.42
338.88	1628.14
339.09	1648.61
339.31	1679.33
339.52	1689.57
339.73	1599.46
339.94	1695.72
340.15	1808.36
340.36	1669.09
340.58	1708.01
340.79	1615.85
341.00	1759.21
341.21	1591.27
341.42	1777.64
341.63	1673.19
341.85	1800.16
342.06	1679.33
342.27	1687.53
342.48	1732.58
342.69	1576.94
342.90	1744.87
343.12	1763.30
343.33	1701.86
343.54	1746.92
343.75	1714.15
343.96	1662.95
344.17	1675.24
344.38	1675.24
344.60	1712.10
344.81	1658.85
345.02	1662.95
345.23	1755.11
345.44	1822.69
345.65	1722.34
345.86	1693.67
346.07	1730.53
346.29	1628.14
346.50	1761.25
346.71	1689.57
346.92	1726.44
347.13	1763.30
347.34	1689.57
347.55	1771.49
347.76	1798.12
347.98	1603.56
348.19	1714.15
348.40	1781.73
348.61	1681.38
348.82	1757.16
349.03	1677.29
349.24	1611.75
349.45	1769.44
349.66	1630.18
349.88	1722.34
350.09	1634.28
350.30	1787.88
350.51	1708.01
350.72	1755.11
350.93	1705.96
351.14	1671.14
351.35	1667.05
351.56	1679.33
351.77	1683.43
351.99	1757.16
352.20	1726.44
352.41	1734.63
352.62	1591.27
352.83	1751.01
353.04	1685.48
353.25	1660.90
353.46	1832.93
353.67	1650.66
353.88	1626.09
354.09	1662.95
354.30	1681.38
354.52	1822.69
354.73	1671.14
354.94	1687.53
355.15	1662.95
355.36	1820.64
355.57	1601.51
355.78	1669.09
355.99	1654.76
356.20	1611.75
356.41	1802.21
356.62	1746.92
356.83	1695.72
357.04	1796.07
357.25	1613.80
357.46	1640.42
357.68	1636.33
357.89	1665.00
358.10	1722.34
358.31	1703.91
358.52	1708.01
358.73	1701.86
358.94	1710.05
359.15	1699.81
359.36	1722.34
359.57	1662.95
359.78	1693.67
359.99	1701.86
360.20	1621.99
360.41	1677.29
360.62	1744.87
360.83	1714.15
361.04	1789.92
361.25	1798.12
361.46	1798.12
361.67	1724.39
361.88	1763.30
362.09	1759.21
362.30	1669.09
362.51	1732.58
362.72	1794.02
362.93	1777.64
363.14	1757.16
363.35	1681.38
363.56	1638.38
363.78	1720.29
363.99	1771.49
364.20	1654.76
364.41	1730.53
364.62	1812.45
364.83	1673.19
365.04	1687.53
365.25	1699.81
365.46	1789.92
365.67	1607.66
365.88	1624.04
366.09	1665.00
366.30	1730.53
366.51	1748.97
366.72	1607.66
366.93	1687.53
367.14	1746.92
367.35	1845.22
367.56	1781.73
367.77	1755.11
367.98	1714.15
368.18	1648.61
368.39	1720.29
368.60	1685.48
368.81	1718.25
369.02	1665.00
369.23	1710.05
369.44	1634.28
369.65	1781.73
369.86	1683.43
370.07	1761.25
370.28	1689.57
370.49	1742.82
370.70	1720.29
370.91	1632.23
371.12	1572.84
371.33	1748.97
371.54	1640.42
371.75	1753.06
371.96	1566.70
372.17	1755.11
372.38	1669.09
372.59	1716.20
372.80	1644.52
373.01	1671.14
373.22	1648.61
373.43	1705.96
373.64	1640.42
373.85	1798.12
374.06	1787.88
374.26	1779.68
374.47	1695.72
374.68	1783.78
374.89	1708.01
375.10	1689.57
375.31	1806.31
375.52	1691.62
375.73	1697.77
375.94	1679.33
376.15	1742.82
376.36	1640.42
376.57	1650.66
376.78	1656.81
376.99	1777.64
377.20	1783.78
377.40	1656.81
377.61	1869.80
377.82	1677.29
378.03	1791.97
378.24	1726.44
378.45	1644.52
378.66	1679.33
378.87	1607.66
379.08	1605.61
379.29	1705.96
379.50	1783.78
379.71	1691.62
379.91	1755.11
380.12	1669.09
380.33	1703.91
380.54	1681.38
380.75	1673.19
380.96	1667.05
381.17	1740.77
381.38	1718.25
381.59	1746.92
381.80	1699.81
382.00	1837.03
382.21	1658.85
382.42	1800.16
382.63	1851.36
382.84	1789.92
383.05	1703.91
383.26	1787.88
383.47	1718.25
383.68	1755.11
383.88	1746.92
384.09	1740.77
384.30	1781.73
384.51	1732.58
384.72	1675.24
384.93	1546.22
385.14	1697.77
385.35	1824.74
385.55	1748.97
385.76	1781.73
385.97	1693.67
386.18	1636.33
386.39	1736.68
386.60	1726.44
386.81	1665.00
387.02	1677.29
387.22	1705.96
387.43	1718.25
387.64	1824.74
387.85	1869.80
388.06	2226.14
388.27	4321.21
388.48	6789.02
388.68	8511.36
388.89	9721.71
389.10	10018.66
389.31	8662.91
389.52	7636.88
389.73	6887.32
389.93	6127.52
390.14	5879.72
390.35	5164.98
390.56	4507.58
390.77	3780.55
390.98	3063.76
391.18	2541.53
391.39	2105.31
391.60	1834.98
391.81	1794.02
392.02	1632.23
392.23	1923.04
392.43	1726.44
392.64	1759.21
392.85	1710.05
393.06	1798.12
393.27	1724.39
393.47	1703.91
393.68	1685.48
393.89	1609.70
394.10	1746.92
394.31	1681.38
394.52	1650.66
394.72	1665.00
394.93	1746.92
395.14	1665.00
395.35	1742.82
395.56	1714.15
395.76	1712.10
395.97	1751.01
396.18	1767.40
396.39	1806.31
396.60	1959.91
396.80	1828.84
397.01	1822.69
397.22	1841.12
397.43	1759.21
397.64	1759.21
397.84	1787.88
398.05	1824.74
398.26	1662.95
398.47	1773.54
398.67	1738.73
398.88	1708.01
399.09	1785.83
399.30	1720.29
399.51	1675.24
399.71	1736.68
399.92	1722.34
400.13	1703.91
400.34	1671.14
400.54	1679.33
400.75	1818.60
400.96	1640.42
401.17	1873.89
401.37	1683.43
401.58	1683.43
401.79	1662.95
402.00	1796.07
402.21	1920.99
402.41	2045.92
402.62	1972.19
402.83	2066.40
403.04	1996.77
403.24	2050.02
403.45	1888.23
403.66	1851.36
403.87	1853.41
404.07	1871.84
404.28	1845.22
404.49	1820.64
404.70	1814.50
404.90	1779.68
405.11	1755.11
405.32	1742.82
405.52	1636.33
405.73	1656.81
405.94	1658.85
406.15	1691.62
406.35	1732.58
406.56	1689.57
406.77	1695.72
406.98	1708.01
407.18	1726.44
407.39	1761.25
407.60	1777.64
407.80	1759.21
408.01	1634.28
408.22	1769.44
408.43	1685.48
408.63	1689.57
408.84	1742.82
409.05	1705.96
409.25	1691.62
409.46	1705.96
409.67	1691.62
409.88	1636.33
410.08	1757.16
410.29	1667.05
410.50	1802.21
410.70	1738.73
410.91	1658.85
411.12	1718.25
411.32	1648.61
411.53	1712.10
411.74	1796.07
411.95	1736.68
412.15	1701.86
412.36	1779.68
412.57	1681.38
412.77	1775.59
412.98	1740.77
413.19	1697.77
413.39	1712.10
413.60	1800.16
413.81	1837.03
414.01	1658.85
414.22	1718.25
414.43	1716.20
414.63	1695.72
414.84	1722.34
415.05	1650.66
415.25	1632.23
415.46	1761.25
415.67	1669.09
415.87	1740.77
416.08	1667.05
416.29	1722.34
416.49	1697.77
416.70	1662.95
416.91	1732.58
417.11	1667.05
417.32	1732.58
417.53	1804.26
417.73	1798.12
417.94	1794.02
418.15	1716.20
418.35	1695.72
418.56	1624.04
418.77	1871.84
418.97	1640.42
419.18	1687.53
419.38	1632.23
419.59	1632.23
419.80	1796.07
420.00	1679.33
420.21	1791.97
420.42	1791.97
420.62	1710.05
420.83	1724.39
421.04	1697.77
421.24	1716.20
421.45	1847.27
421.65	1783.78
421.86	1650.66
422.07	1671.14
422.27	1714.15
422.48	1677.29
422.69	1665.00
422.89	1685.48
423.10	1710.05
423.30	1660.90
423.51	1724.39
423.72	1660.90
423.92	1742.82
424.13	1572.84
424.33	1703.91
424.54	1787.88
424.75	1705.96
424.95	1834.98
425.16	1753.06
425.36	1734.63
425.57	1757.16
425.78	1720.29
425.98	1798.12
426.19	1730.53
426.39	1775.59
426.60	1730.53
426.81	1771.49
427.01	1673.19
427.22	1642.47
427.42	1605.61
427.63	1589.22
427.83	1744.87
428.04	1873.89
428.25	1808.36
428.45	1746.92
428.66	1736.68
428.86	1677.29
429.07	1669.09
429.28	1681.38
429.48	1617.90
429.69	1673.19
429.89	1683.43
430.10	1650.66
430.30	1777.64
430.51	1687.53
430.71	1605.61
430.92	1726.44
431.13	1667.05
431.33	1771.49
431.54	1730.53
431.74	1796.07
431.95	1816.55
432.15	1662.95
432.36	1683.43
432.56	1724.39
432.77	1822.69
432.98	1843.17
433.18	1783.78
433.39	1708.01
433.59	1673.19
433.80	1826.79
434.00	1832.93
434.21	1701.86
434.41	1609.70
434.62	1845.22
434.82	1687.53
435.03	1662.95
435.23	1753.06
435.44	1550.31
435.64	1695.72
435.85	1730.53
436.06	1789.92
436.26	1773.54
436.47	1689.57
436.67	1701.86
436.88	1689.57
437.08	1724.39
437.29	1800.16
437.49	1791.97
437.70	1705.96
437.90	1685.48
438.11	1804.26
438.31	1744.87
438.52	1892.32
438.72	1863.65
438.93	1925.09
439.13	1779.68
439.34	1796.07
439.54	1712.10
439.75	1751.01
439.95	1787.88
440.16	1732.58
440.36	1767.40
440.57	1802.21
440.77	1726.44
440.98	1734.63
441.18	1734.63
441.39	1673.19
441.59	1603.56
441.80	1806.31
442.00	1681.38
442.21	1767.40
442.41	1740.77
442.62	1759.21
442.82	1613.80
443.02	1718.25
443.23	1738.73
443.43	1705.96
443.64	1849.32
443.84	1689.57
444.05	1791.97
444.25	1746.92
444.46	1724.39
444.66	1665.00
444.87	1822.69
445.07	1644.52
445.28	1753.06
445.48	1859.56
445.69	1726.44
445.89	1855.46
446.09	1791.97
446.30	2062.30
446.50	2748.37
446.71	3770.31
446.91	4278.21
447.12	4698.04
447.32	5011.38
447.53	4356.03
447.73	3870.66
447.93	3545.03
448.14	3377.10
448.34	3268.56
448.55	3004.37
448.75	2873.30
448.96	2643.93
449.16	2344.92
449.36	2273.25
449.57	2045.92
449.77	1826.79
449.98	1820.64
450.18	1783.78
450.39	1802.21
450.59	1759.21
450.79	1699.81
451.00	1701.86
451.20	1800.16
451.41	1667.05
451.61	1789.92
451.81	1718.25
452.02	1671.14
452.22	1665.00
452.43	1689.57
452.63	1701.86
452.84	1671.14
453.04	1783.78
453.24	1773.54
453.45	1681.38
453.65	1765.35
453.86	1656.81
454.06	1683.43
454.26	1714.15
454.47	1685.48
454.67	1714.15
454.87	1689.57
455.08	1710.05
455.28	1869.80
455.49	1685.48
455.69	1691.62
455.89	1875.94
456.10	1773.54
456.30	1738.73
456.51	1734.63
456.71	1796.07
456.91	1771.49
457.12	1675.24
457.32	1744.87
457.52	1656.81
457.73	1814.50
457.93	1761.25
458.14	1638.38
458.34	1632.23
458.54	1726.44
458.75	1689.57
458.95	1800.16
459.15	1771.49
459.36	1748.97
459.56	1767.40
459.76	1763.30
459.97	1755.11
460.17	1716.20
460.37	1798.12
460.58	1691.62
460.78	1763.30
460.99	1671.14
461.19	1771.49
461.39	1697.77
461.60	1787.88
461.80	1824.74
462.00	1734.63
462.21	1742.82
462.41	1658.85
462.61	1634.28
462.82	1621.99
463.02	1685.48
463.22	1705.96
463.43	1767.40
463.63	1677.29
463.83	1804.26
464.04	1794.02
464.24	1798.12
464.44	1671.14
464.64	1654.76
464.85	1771.49
465.05	1812.45
465.25	1710.05
465.46	1746.92
465.66	1757.16
465.86	1748.97
466.07	1746.92
466.27	1771.49
466.47	1753.06
466.68	1613.80
466.88	1769.44
467.08	1757.16
467.29	1679.33
467.49	1751.01
467.69	1705.96
467.89	1757.16
468.10	1669.09
468.30	1732.58
468.50	1837.03
468.71	1767.40
468.91	1648.61
469.11	1877.99
469.31	1728.49
469.52	1736.68
469.72	1849.32
469.92	1877.99
470.13	1697.77
470.33	1769.44
470.53	1816.55
470.73	2060.26
470.94	2314.20
471.14	2379.74
471.34	2539.48
471.54	2408.41
471.75	2174.94
471.95	2150.37
472.15	2136.03
472.36	2150.37
472.56	2054.11
472.76	2041.82
472.96	1976.29
473.17	1900.52
473.37	1914.85
473.57	1857.51
473.77	1773.54
473.98	1816.55
474.18	1683.43
474.38	1912.80
474.58	1648.61
474.79	1746.92
474.99	1820.64
475.19	1796.07
475.39	1632.23
475.60	1736.68
475.80	1746.92
476.00	1701.86
476.20	1705.96
476.41	1714.15
476.61	1763.30
476.81	1789.92
477.01	1658.85
477.21	1894.37
477.42	1820.64
477.62	1712.10
477.82	1763.30
478.02	1658.85
478.23	1765.35
478.43	1632.23
478.63	1642.47
478.83	1642.47
479.03	1705.96
479.24	1753.06
479.44	1814.50
479.64	1626.09
479.84	1595.37
480.04	1636.33
480.25	1720.29
480.45	1601.51
480.65	1722.34
480.85	1771.49
481.06	1757.16
481.26	1759.21
481.46	1742.82
481.66	1769.44
481.86	1640.42
482.06	1890.28
482.27	1546.22
482.47	1658.85
482.67	1693.67
482.87	1669.09
483.07	1824.74
483.28	1644.52
483.48	1683.43
483.68	1716.20
483.88	1632.23
484.08	1624.04
484.29	1609.70
484.49	1658.85
484.69	1650.66
484.89	1806.31
485.09	1798.12
485.29	1665.00
485.50	1765.35
485.70	1728.49
485.90	1738.73
486.10	1742.82
486.30	1755.11
486.50	1691.62
486.71	1701.86
486.91	1714.15
487.11	1732.58
487.31	1654.76
487.51	1656.81
487.71	1689.57
487.91	1648.61
488.12	1636.33
488.32	1527.78
488.52	1773.54
488.72	1591.27
488.92	1744.87
489.12	1808.36
489.32	1789.92
489.53	1765.35
489.73	1585.13
489.93	1777.64
490.13	1665.00
490.33	1593.32
490.53	1722.34
490.73	1736.68
490.94	1593.32
491.14	1728.49
491.34	1804.26
491.54	2176.99
491.74	2605.02
491.94	2947.03
492.14	2963.41
492.34	2992.08
492.54	2742.23
492.75	2432.99
492.95	2445.27
493.15	2324.44
493.35	2260.96
493.55	2230.24
493.75	2146.27
493.95	2107.36
494.15	1990.63
494.35	1869.80
494.56	1828.84
494.76	1777.64
494.96	1814.50
495.16	1804.26
495.36	1724.39
495.56	1681.38
495.76	1771.49
495.96	1683.43
496.16	1652.71
496.36	1882.08
496.56	1751.01
496.77	1736.68
496.97	1783.78
497.17	1742.82
497.37	1640.42
497.57	1773.54
497.77	1738.73
497.97	1615.85
498.17	1738.73
498.37	1617.90
498.57	1691.62
498.77	1708.01
498.97	1771.49
499.17	1832.93
499.38	1681.38
499.58	1740.77
499.78	1763.30
499.98	1816.55
500.18	1703.91
500.38	1660.90
500.58	1935.33
500.78	2508.76
500.98	4612.03
501.18	5760.94
501.38	6737.82
501.58	7131.03
501.78	6576.03
501.98	5521.32
502.18	4976.56
502.38	4290.49
502.58	4165.57
502.78	3770.31
502.98	3700.68
503.18	3469.26
503.38	3184.59
503.59	2723.80
503.79	2725.85
503.99	2519.00
504.19	2267.10
504.39	2189.28
504.59	2236.38
504.79	2109.41
504.99	2093.02
505.19	1886.18
505.39	1857.51
505.59	1931.23
505.79	1857.51
505.99	1853.41
506.19	1810.40
506.39	1867.75
506.59	1689.57
506.79	1712.10
506.99	1730.53
507.19	1828.84
507.39	1746.92
507.59	1640.42
507.79	1705.96
507.99	1726.44
508.19	1681.38
508.39	1660.90
508.59	1705.96
508.79	1820.64
508.99	1767.40
509.19	1718.25
509.39	1822.69
509.59	1675.24
509.79	1687.53
509.99	1685.48
510.19	1779.68
510.39	1796.07
510.59	1802.21
510.79	1681.38
510.99	1609.70
511.19	1734.63
511.39	1810.40
511.59	1796.07
511.79	1789.92
511.99	1724.39
512.19	1806.31
512.38	1712.10
512.58	1683.43
512.78	1681.38
512.98	1828.84
513.18	1896.42
513.38	1695.72
513.58	1740.77
513.78	1632.23
513.98	1787.88
514.18	1726.44
514.38	1730.53
514.58	1767.40
514.78	1589.22
514.98	1693.67
515.18	1718.25
515.38	1652.71
515.58	1830.88
515.78	1679.33
515.98	1802.21
516.18	1667.05
516.38	1710.05
516.57	1701.86
516.77	1738.73
516.97	1789.92
517.17	1732.58
517.37	1685.48
517.57	1732.58
517.77	1722.34
517.97	1785.83
518.17	1791.97
518.37	1724.39
518.57	1705.96
518.77	1699.81
518.97	1726.44
519.16	1669.09
519.36	1753.06
519.56	1771.49
519.76	1769.44
519.96	1787.88
520.16	1765.35
520.36	1656.81
520.56	1779.68
520.76	1677.29
520.96	1654.76
521.16	1718.25
521.35	1822.69
521.55	1802.21
521.75	1714.15
521.95	1798.12
522.15	1691.62
522.35	1644.52
522.55	1712.10
522.75	1695.72
522.95	1632.23
523.14	1685.48
523.34	1820.64
523.54	1689.57
523.74	1759.21
523.94	1734.63
524.14	1673.19
524.34	1718.25
524.54	1806.31
524.73	1679.33
524.93	1814.50
525.13	1771.49
525.33	1636.33
525.53	1912.80
525.73	1736.68
525.93	1787.88
526.13	1683.43
526.32	1751.01
526.52	1796.07
526.72	1726.44
526.92	1710.05
527.12	1673.19
527.32	1662.95
527.52	1781.73
527.71	1751.01
527.91	1701.86
528.11	1630.18
528.31	1660.90
528.51	1714.15
528.71	1732.58
528.90	1769.44
529.10	1839.08
529.30	1781.73
529.50	1636.33
529.70	1681.38
529.90	1791.97
530.09	1687.53
530.29	1734.63
530.49	1730.53
530.69	1808.36
530.89	1773.54
531.09	1740.77
531.28	1652.71
531.48	1861.60
531.68	1744.87
531.88	1689.57
532.08	1771.49
532.28	1687.53
532.47	1736.68
532.67	1853.41
532.87	1710.05
533.07	1630.18
533.27	1701.86
533.46	1708.01
533.66	1779.68
533.86	1726.44
534.06	1759.21
534.26	1730.53
534.45	1703.91
534.65	1755.11
534.85	1798.12
535.05	1689.57
535.25	1757.16
535.44	1716.20
535.64	1763.30
535.84	1685.48
536.04	1693.67
536.24	1746.92
536.43	1710.05
536.63	1771.49
536.83	1689.57
537.03	1583.08
537.22	1710.05
537.42	1640.42
537.62	1710.05
537.82	1716.20
538.02	1822.69
538.21	1798.12
538.41	1869.80
538.61	1718.25
538.81	1662.95
539.00	1746.92
539.20	1654.76
539.40	1710.05
539.60	1646.57
539.79	1746.92
539.99	1681.38
540.19	1714.15
540.39	1759.21
540.58	1763.30
540.78	1773.54
540.98	1839.08
541.18	1769.44
541.37	1783.78
541.57	1765.35
541.77	1681.38
541.97	1697.77
542.16	1640.42
542.36	1761.25
542.56	1714.15
542.76	1855.46
542.95	1730.53
543.15	1755.11
543.35	1734.63
543.54	1722.34
543.74	1742.82
543.94	1771.49
544.14	1675.24
544.33	1771.49
544.53	1728.49
544.73	1730.53
544.93	1667.05
545.12	1701.86
545.32	1744.87
545.52	1675.24
545.71	1695.72
545.91	1714.15
546.11	1673.19
546.30	1705.96
546.50	1755.11
546.70	1734.63
546.90	1767.40
547.09	1650.66
547.29	1714.15
547.49	1812.45
547.68	1734.63
547.88	1710.05
548.08	1710.05
548.27	2150.37
548.47	1722.34
548.67	1648.61
548.87	1740.77
549.06	1695.72
549.26	1773.54
549.46	1726.44
549.65	1687.53
549.85	1773.54
550.05	1777.64
550.24	1683.43
550.44	1718.25
550.64	1728.49
550.83	1681.38
551.03	1873.89
551.23	1822.69
551.42	1787.88
551.62	1671.14
551.82	1712.10
552.01	1783.78
552.21	1769.44
552.41	1712.10
552.60	1822.69
552.80	1742.82
553.00	1687.53
553.19	1779.68
553.39	1834.98
553.59	1658.85
553.78	1759.21
553.98	1761.25
554.17	1630.18
554.37	1722.34
554.57	1746.92
554.76	1785.83
554.96	1667.05
555.16	1783.78
555.35	1841.12
555.55	1775.59
555.75	1718.25
555.94	1804.26
556.14	1675.24
556.33	1771.49
556.53	1673.19
556.73	1689.57
556.92	1751.01
557.12	1783.78
557.32	1861.60
557.51	1761.25
557.71	1742.82
557.90	1824.74
558.10	1796.07
558.30	1720.29
558.49	1687.53
558.69	1742.82
558.88	1734.63
559.08	1787.88
559.28	1701.86
559.47	1841.12
559.67	1796.07
559.86	1861.60
560.06	1689.57
560.26	1767.40
560.45	1740.77
560.65	1701.86
560.84	1804.26
561.04	1708.01
561.24	1728.49
561.43	1648.61
561.63	1767.40
561.82	1757.16
562.02	1781.73
562.22	1667.05
562.41	1685.48
562.61	1650.66
562.80	1656.81
563.00	1841.12
563.19	1845.22
563.39	1796.07
563.59	1765.35
563.78	1710.05
563.98	1697.77
564.17	1665.00
564.37	1677.29
564.56	1765.35
564.76	1607.66
564.96	1759.21
565.15	1744.87
565.35	1849.32
565.54	1685.48
565.74	1740.77
565.93	1769.44
566.13	1798.12
566.32	1783.78
566.52	1785.83
566.71	1716.20
566.91	1818.60
567.11	1724.39
567.30	1685.48
567.50	1726.44
567.69	1804.26
567.89	1720.29
568.08	1685.48
568.28	1755.11
568.47	1673.19
568.67	1738.73
568.86	1718.25
569.06	1816.55
569.25	1722.34
569.45	1697.77
569.64	1710.05
569.84	1718.25
570.04	1724.39
570.23	1677.29
570.43	1691.62
570.62	1796.07
570.82	1837.03
571.01	1669.09
571.21	1703.91
571.40	1677.29
571.60	1789.92
571.79	1765.35
571.99	1820.64
572.18	1695.72
572.38	1718.25
572.57	1708.01
572.77	1789.92
572.96	1888.23
573.16	1701.86
573.35	1720.29
573.55	1832.93
573.74	1730.53
573.94	1714.15
574.13	1738.73
574.33	1834.98
574.52	1828.84
574.71	1845.22
574.91	1804.26
575.10	1681.38
575.30	1841.12
575.49	1697.77
575.69	1703.91
575.88	1779.68
576.08	1746.92
576.27	1742.82
576.47	1771.49
576.66	1849.32
576.86	1869.80
577.05	1701.86
577.25	1781.73
577.44	1798.12
577.64	1628.14
577.83	1777.64
578.02	1660.90
578.22	1818.60
578.41	1863.65
578.61	1712.10
578.80	1648.61
579.00	1673.19
579.19	1732.58
579.39	1771.49
579.58	1771.49
579.77	1708.01
579.97	1824.74
580.16	1798.12
580.36	1826.79
580.55	1837.03
580.75	1703.91
580.94	1796.07
581.13	1734.63
581.33	1904.61
581.52	1714.15
581.72	1877.99
581.91	1771.49
582.11	1742.82
582.30	1736.68
582.49	1834.98
582.69	1871.84
582.88	1732.58
583.08	1730.53
583.27	1789.92
583.47	1669.09
583.66	1740.77
583.85	1658.85
584.05	1683.43
584.24	1708.01
584.44	1855.46
584.63	1830.88
584.82	1806.31
585.02	1925.09
585.21	1779.68
585.41	1781.73
585.60	1718.25
585.79	1912.80
585.99	2015.20
586.18	1927.14
586.37	2232.29
586.57	3403.72
586.76	9959.27
586.96	24876.68
587.15	34719.21
587.34	41104.78
587.54	42982.77
587.73	37287.37
587.93	26562.15
588.12	21759.67
588.31	18296.55
588.51	16400.13
588.70	15415.06
588.89	14298.92
589.09	12750.65
589.28	10960.73
589.47	9643.88
589.67	8138.63
589.86	6543.26
590.06	5038.00
590.25	3919.81
590.44	3139.54
590.64	2668.50
590.83	2197.47
591.02	2125.79
591.22	1974.24
591.41	1904.61
591.60	1902.56
591.80	1996.77
591.99	1699.81
592.18	1861.60
592.38	1763.30
592.57	1736.68
592.76	1773.54
592.96	1777.64
593.15	1705.96
593.34	1822.69
593.54	1665.00
593.73	1789.92
593.92	1738.73
594.12	1781.73
594.31	1789.92
594.50	1837.03
594.70	1755.11
594.89	1894.37
595.08	1685.48
595.28	1755.11
595.47	1896.42
595.66	1787.88
595.86	1679.33
596.05	1783.78
596.24	1671.14
596.43	1824.74
596.63	1789.92
596.82	1748.97
597.01	1751.01
597.21	1818.60
597.40	1746.92
597.59	1771.49
597.79	1697.77
597.98	1789.92
598.17	1697.77
598.36	1748.97
598.56	1796.07
598.75	1746.92
598.94	1740.77
599.14	1728.49
599.33	1628.14
599.52	1796.07
599.71	1800.16
599.91	1761.25
600.10	1714.15
600.29	1843.17
600.48	1753.06
600.68	1722.34
600.87	1787.88
601.06	1697.77
601.26	1794.02
601.45	1742.82
601.64	1796.07
601.83	1822.69
602.03	1701.86
602.22	1648.61
602.41	1794.02
602.60	1869.80
602.80	1783.78
602.99	1732.58
603.18	1746.92
603.37	1800.16
603.57	1816.55
603.76	1818.60
603.95	1789.92
604.14	1714.15
604.34	1724.39
604.53	1740.77
604.72	1740.77
604.91	1681.38
605.10	1751.01
605.30	1665.00
605.49	1880.04
605.68	1669.09
605.87	1837.03
606.07	1699.81
606.26	1767.40
606.45	1783.78
606.64	1755.11
606.84	1697.77
607.03	1726.44
607.22	1761.25
607.41	1697.77
607.60	1773.54
607.80	1802.21
607.99	1675.24
608.18	1738.73
608.37	1656.81
608.56	1699.81
608.76	1746.92
608.95	1845.22
609.14	1753.06
609.33	1847.27
609.52	1757.16
609.72	1683.43
609.91	1810.40
610.10	1722.34
610.29	1781.73
610.48	1796.07
610.68	1800.16
610.87	1689.57
611.06	1765.35
611.25	1738.73
611.44	1718.25
611.63	1658.85
611.83	1890.28
612.02	1722.34
612.21	1791.97
612.40	1630.18
612.59	1689.57
612.79	1687.53
612.98	1755.11
613.17	1826.79
613.36	1726.44
613.55	1771.49
613.74	1701.86
613.93	1640.42
614.13	1722.34
614.32	1697.77
614.51	1755.11
614.70	1728.49
614.89	1685.48
615.08	1748.97
615.28	2072.54
615.47	1609.70
615.66	1687.53
615.85	1800.16
616.04	1808.36
616.23	1685.48
616.42	1755.11
616.62	1722.34
616.81	1830.88
617.00	1779.68
617.19	1712.10
617.38	1675.24
617.57	1718.25
617.76	1746.92
617.95	1789.92
618.15	1767.40
618.34	1865.70
618.53	1636.33
618.72	1867.75
618.91	1730.53
619.10	1726.44
619.29	1759.21
619.48	1781.73
619.68	1720.29
619.87	1740.77
620.06	1687.53
620.25	1716.20
620.44	1599.46
620.63	1699.81
620.82	1701.86
621.01	1740.77
621.20	1685.48
621.39	1740.77
621.59	1732.58
621.78	1746.92
621.97	1722.34
622.16	1728.49
622.35	1720.29
622.54	1791.97
622.73	1806.31
622.92	1628.14
623.11	1808.36
623.30	1693.67
623.49	1705.96
623.68	1685.48
623.88	1794.02
624.07	1736.68
624.26	1687.53
624.45	1681.38
624.64	1757.16
624.83	1650.66
625.02	1759.21
625.21	1693.67
625.40	1718.25
625.59	1791.97
625.78	1716.20
625.97	1773.54
626.16	1781.73
626.35	1783.78
626.54	1689.57
626.74	1837.03
626.93	1669.09
627.12	1718.25
627.31	1794.02
627.50	1689.57
627.69	1810.40
627.88	1656.81
628.07	1744.87
628.26	1642.47
628.45	1720.29
628.64	1640.42
628.83	1658.85
629.02	1740.77
629.21	1832.93
629.40	1654.76
629.59	1716.20
629.78	1697.77
629.97	1724.39
630.16	1722.34
630.35	1689.57
630.54	1595.37
630.73	1667.05
630.92	1646.57
631.11	1699.81
631.30	1767.40
631.49	1726.44
631.68	1798.12
631.87	1720.29
632.06	1679.33
632.25	1806.31
632.44	1683.43
632.63	1693.67
632.82	1667.05
633.01	1628.14
633.20	1681.38
633.39	1665.00
633.58	1558.50
633.77	1691.62
633.96	1806.31
634.15	1828.84
634.34	1773.54
634.53	1734.63
634.72	1630.18
634.91	1642.47
635.10	1669.09
635.29	1794.02
635.48	1724.39
635.67	1736.68
635.86	1675.24
636.05	1812.45
636.24	1810.40
636.43	1759.21
636.62	1777.64
636.81	1583.08
637.00	1722.34
637.19	1697.77
637.38	1740.77
637.57	1662.95
637.76	1714.15
637.95	1701.86
638.14	1568.74
638.33	1746.92
638.52	1701.86
638.71	1615.85
638.89	1628.14
639.08	1853.41
639.27	1763.30
639.46	1800.16
639.65	1765.35
639.84	1751.01
640.03	1695.72
640.22	1695.72
640.41	1765.35
640.60	1665.00
640.79	1748.97
640.98	1615.85
641.17	1804.26
641.36	1775.59
641.55	1804.26
641.74	1695.72
641.92	1626.09
642.11	1644.52
642.30	1751.01
642.49	1640.42
642.68	1689.57
642.87	1732.58
643.06	1773.54
643.25	1679.33
643.44	1714.15
643.63	1697.77
643.82	1701.86
644.00	1689.57
644.19	1777.64
644.38	1611.75
644.57	1765.35
644.76	1822.69
644.95	1648.61
645.14	1724.39
645.33	1705.96
645.52	1693.67
645.71	1595.37
645.89	1615.85
646.08	1654.76
646.27	1714.15
646.46	1873.89
646.65	1660.90
646.84	1675.24
647.03	1615.85
647.22	1691.62
647.40	1644.52
647.59	1619.94
647.78	1632.23
647.97	1693.67
648.16	1687.53
648.35	1777.64
648.54	1751.01
648.73	1748.97
648.91	1794.02
649.10	1740.77
649.29	1773.54
649.48	1710.05
649.67	1708.01
649.86	1654.76
650.05	1685.48
650.23	1814.50
650.42	1607.66
650.61	1708.01
650.80	1689.57
650.99	1742.82
651.18	1755.11
651.36	1767.40
651.55	1654.76
651.74	1718.25
651.93	1652.71
652.12	1718.25
652.31	1679.33
652.49	1697.77
652.68	1681.38
652.87	1738.73
653.06	1675.24
653.25	1767.40
653.44	1675.24
653.62	1785.83
653.81	1701.86
654.00	1730.53
654.19	1740.77
654.38	1787.88
654.56	1691.62
654.75	1658.85
654.94	1832.93
655.13	1722.34
655.32	1669.09
655.51	1734.63
655.69	1677.29
655.88	1804.26
656.07	1677.29
656.26	1685.48
656.45	1691.62
656.63	1765.35
656.82	1644.52
657.01	1687.53
657.20	1701.86
657.38	1746.92
657.57	1628.14
657.76	1662.95
657.95	1865.70
658.14	1714.15
658.32	1740.77
658.51	1683.43
658.70	1714.15
658.89	1722.34
659.08	1669.09
659.26	1781.73
659.45	1665.00
659.64	1759.21
659.83	1708.01
660.01	1951.71
660.20	1755.11
660.39	1775.59
660.58	1576.94
660.76	1716.20
660.95	1630.18
661.14	1732.58
661.33	1617.90
661.51	1634.28
661.70	1675.24
661.89	1714.15
662.08	1681.38
662.26	1691.62
662.45	1613.80
662.64	1796.07
662.83	1761.25
663.01	1695.72
663.20	1689.57
663.39	1804.26
663.58	1632.23
663.76	1724.39
663.95	1734.63
664.14	1636.33
664.32	1742.82
664.51	1636.33
664.70	1613.80
664.89	1748.97
665.07	1644.52
665.26	1818.60
665.45	1599.46
665.64	1798.12
665.82	1726.44
666.01	1783.78
666.20	1650.66
666.38	1814.50
666.57	1759.21
666.76	2183.13
666.95	4589.50
667.13	10340.19
667.32	15431.44
667.51	18052.84
667.69	19074.78
667.88	17929.97
668.07	12496.71
668.25	9619.31
668.44	8281.99
668.63	7245.71
668.81	6821.78
669.00	6358.94
669.19	5636.01
669.38	5060.53
669.56	4569.02
669.75	4081.60
669.94	3471.31
670.12	2830.29
670.31	2449.37
670.50	2224.09
670.68	1980.39
670.87	1888.23
671.06	1837.03
671.24	1746.92
671.43	1781.73
671.62	1701.86
671.80	1794.02
671.99	1751.01
672.18	1652.71
672.36	1744.87
672.55	1714.15
672.74	1740.77
672.92	1687.53
673.11	1796.07
673.29	1693.67
673.48	1798.12
673.67	1716.20
673.85	1789.92
674.04	1611.75
674.23	1802.21
674.41	1826.79
674.60	1699.81
674.79	1683.43
674.97	1691.62
675.16	1769.44
675.34	1787.88
675.53	1695.72
675.72	1746.92
675.90	1791.97
676.09	1642.47
676.28	1669.09
676.46	1621.99
676.65	1730.53
676.83	1660.90
677.02	1671.14
677.21	1697.77
677.39	1705.96
677.58	1673.19
677.77	1757.16
677.95	1640.42
678.14	1695.72
678.32	1689.57
678.51	1693.67
678.70	1796.07
678.88	1753.06
679.07	1685.48
679.25	1728.49
679.44	1691.62
679.63	1585.13
679.81	1693.67
680.00	1716.20
680.18	1714.15
680.37	1753.06
680.55	1687.53
680.74	1640.42
680.93	1624.04
681.11	1718.25
681.30	1683.43
681.48	1744.87
681.67	1689.57
681.85	1703.91
682.04	1705.96
682.23	1716.20
682.41	1619.94
682.60	1669.09
682.78	1712.10
682.97	1642.47
683.15	1685.48
683.34	1683.43
683.53	1822.69
683.71	1652.71
683.90	1832.93
684.08	1796.07
684.27	1601.51
684.45	1673.19
684.64	1701.86
684.82	1736.68
685.01	1714.15
685.19	1703.91
685.38	1761.25
685.57	1683.43
685.75	1687.53
685.94	1742.82
686.12	1617.90
686.31	1724.39
686.49	1771.49
686.68	1640.42
686.86	1689.57
687.05	1681.38
687.23	1824.74
687.42	1705.96
687.60	1689.57
687.79	1722.34
687.97	1742.82
688.16	1744.87
688.34	1822.69
688.53	1564.65
688.71	1724.39
688.90	1742.82
689.08	1755.11
689.27	1638.38
689.45	1757.16
689.64	1748.97
689.82	1720.29
690.01	1681.38
690.19	1722.34
690.38	1748.97
690.56	1791.97
690.75	1703.91
690.93	1746.92
691.12	1693.67
691.30	1806.31
691.49	1673.19
691.67	1751.01
691.86	1742.82
692.04	1681.38
692.23	1689.57
692.41	1691.62
692.60	1769.44
692.78	1753.06
692.97	1685.48
693.15	1736.68
693.34	1746.92
693.52	1773.54
693.71	1648.61
693.89	1685.48
694.08	1662.95
694.26	1767.40
694.44	1796.07
694.63	1705.96
694.81	1626.09
695.00	1689.57
695.18	1796.07
695.37	1820.64
695.55	1634.28
695.74	1742.82
695.92	1673.19
696.10	1830.88
696.29	1673.19
696.47	1720.29
696.66	1644.52
696.84	1693.67
697.03	1697.77
697.21	1808.36
697.40	2263.01
697.58	1804.26
697.76	1660.90
697.95	1697.77
698.13	1675.24
698.32	1624.04
698.50	1697.77
698.68	1763.30
698.87	1708.01
699.05	1781.73
699.24	1665.00
699.42	1628.14
699.61	1646.57
699.79	1683.43
699.97	1736.68
700.16	1685.48
700.34	1656.81
700.53	1681.38
700.71	1781.73
700.89	1730.53
701.08	1746.92
701.26	1724.39
701.45	2095.07
701.63	1628.14
701.81	1636.33
702.00	1718.25
702.18	1730.53
702.37	1687.53
702.55	1744.87
702.73	1658.85
702.92	1640.42
703.10	1757.16
703.28	1703.91
703.47	1667.05
703.65	1724.39
703.84	1779.68
704.02	1636.33
704.20	1751.01
704.39	1683.43
704.57	1681.38
704.75	1859.56
704.94	1783.78
705.12	1701.86
705.30	1804.26
705.49	2254.81
705.67	4503.48
705.86	9654.12
706.04	12644.16
706.22	14708.51
706.41	15750.93
706.59	13868.84
706.77	9650.03
706.96	7516.05
707.14	6526.88
707.32	5883.81
707.51	5605.29
707.69	4995.00
707.87	4188.10
708.06	3540.94
708.24	2971.60
708.42	2455.51
708.61	2273.25
708.79	1851.36
708.97	1818.60
709.16	1865.70
709.34	1759.21
709.52	1734.63
709.71	1675.24
709.89	1800.16
710.07	1685.48
710.26	1683.43
710.44	1669.09
710.62	1746.92
710.80	1779.68
710.99	1773.54
711.17	1808.36
711.35	1640.42
711.54	1675.24
711.72	1771.49
711.90	1699.81
712.09	1712.10
712.27	1687.53
712.45	1742.82
712.63	1605.61
712.82	1628.14
713.00	1640.42
713.18	1728.49
713.37	1742.82
713.55	1769.44
713.73	1726.44
713.91	1855.46
714.10	1675.24
714.28	1660.90
714.46	1720.29
714.65	1755.11
714.83	1669.09
715.01	1787.88
715.19	1724.39
715.38	1712.10
715.56	1746.92
715.74	1630.18
715.92	1708.01
716.11	1818.60
716.29	1550.31
716.47	1662.95
716.65	1679.33
716.84	1599.46
717.02	1759.21
717.20	1615.85
717.38	1642.47
717.57	1712.10
717.75	1716.20
717.93	1677.29
718.11	1773.54
718.30	1626.09
718.48	1757.16
718.66	1734.63
718.84	1722.34
719.03	1646.57
719.21	1621.99
719.39	1742.82
719.57	1718.25
719.75	1705.96
719.94	1646.57
720.12	1701.86
720.30	1710.05
720.48	1763.30
720.67	1716.20
720.85	1634.28
721.03	1728.49
721.21	1652.71
721.39	1802.21
721.58	1689.57
721.76	1685.48
721.94	1785.83
722.12	1689.57
722.30	1775.59
722.49	1714.15
722.67	1695.72
722.85	1781.73
723.03	1624.04
723.21	1576.94
723.40	1665.00
723.58	1689.57
723.76	1767.40
723.94	1763.30
724.12	1726.44
724.30	1777.64
724.49	1712.10
724.67	1710.05
724.85	1765.35
725.03	1646.57
725.21	1710.05
725.40	1781.73
725.58	1681.38
725.76	1787.88
725.94	1728.49
726.12	1722.34
726.30	1562.60
726.49	1695.72
726.67	1779.68
726.85	1712.10
727.03	1781.73
727.21	2207.71
727.39	2881.49
727.57	3837.89
727.76	4196.29
727.94	4546.49
728.12	4411.32
728.30	3665.86
728.48	2987.99
728.66	2766.81
728.84	2623.45
729.03	2328.54
729.21	2136.03
729.39	1982.43
729.57	1845.22
729.75	1873.89
729.93	1816.55
730.11	1755.11
730.30	1691.62
730.48	1669.09
730.66	1794.02
730.84	1830.88
731.02	1712.10
731.20	1734.63
731.38	1734.63
731.56	1681.38
731.74	1642.47
731.93	1667.05
732.11	1703.91
732.29	1712.10
732.47	1728.49
732.65	1701.86
732.83	1816.55
733.01	1716.20
733.19	1648.61
733.37	1791.97
733.56	1660.90
733.74	1652.71
733.92	1812.45
734.10	1624.04
734.28	1767.40
734.46	1578.98
734.64	1689.57
734.82	1697.77
735.00	1634.28
735.18	1654.76
735.36	1656.81
735.54	1675.24
735.73	1681.38
735.91	1759.21
736.09	1697.77
736.27	1695.72
736.45	1773.54
736.63	1636.33
736.81	1787.88
736.99	1699.81
737.17	1748.97
737.35	1632.23
737.53	1687.53
737.71	1634.28
737.89	1746.92
738.07	1640.42
738.25	1650.66
738.43	1660.90
738.61	1748.97
738.80	1609.70
738.98	1710.05
739.16	1681.38
739.34	1673.19
739.52	1710.05
739.70	1671.14
739.88	1736.68
740.06	1691.62
740.24	1593.32
740.42	1794.02
740.60	1632.23
740.78	1722.34
740.96	1560.55
741.14	1767.40
741.32	1714.15
741.50	1648.61
741.68	1789.92
741.86	1720.29
742.04	1699.81
742.22	1658.85
742.40	1734.63
742.58	1632.23
742.76	1656.81
742.94	1753.06
743.12	1599.46
743.30	1630.18
743.48	1693.67
743.66	1617.90
743.84	1800.16
744.02	1640.42
744.20	1665.00
744.38	1607.66
744.56	1689.57
744.74	1814.50
744.92	1689.57
745.10	1859.56
745.28	1771.49
745.46	1851.36
745.64	1705.96
745.82	1800.16
746.00	1722.34
746.18	1783.78
746.36	1691.62
746.54	1755.11
746.72	1646.57
746.90	1644.52
747.08	1746.92
747.26	1646.57
747.44	1716.20
747.62	1693.67
747.80	1708.01
747.98	1755.11
748.15	1681.38
748.33	1826.79
748.51	1687.53
748.69	1667.05
748.87	1660.90
749.05	1705.96
749.23	1693.67
749.41	1693.67
749.59	1691.62
749.77	1853.41
749.95	1640.42
750.13	1654.76
750.31	1791.97
750.49	1722.34
750.67	1708.01
750.85	1806.31
751.03	1787.88
751.20	1871.84
751.38	1710.05
751.56	1591.27
751.74	1726.44
751.92	1693.67
752.10	1681.38
752.28	1769.44
752.46	1667.05
752.64	1681.38
752.82	1689.57
753.00	1771.49
753.18	1681.38
753.35	1701.86
753.53	1689.57
753.71	1705.96
753.89	1746.92
754.07	1693.67
754.25	1789.92
754.43	1728.49
754.61	1587.18
754.79	1724.39
754.97	1634.28
755.14	1785.83
755.32	1609.70
755.50	1759.21
755.68	1728.49
755.86	1621.99
756.04	1724.39
756.22	1560.55
756.40	1654.76
756.57	1855.46
756.75	1677.29
756.93	1712.10
757.11	1722.34
757.29	1718.25
757.47	1763.30
757.65	1597.42
757.82	1542.12
758.00	1578.98
758.18	1632.23
758.36	1644.52
758.54	1732.58
758.72	1628.14
758.90	1730.53
759.07	1710.05
759.25	1650.66
759.43	1755.11
759.61	1568.74
759.79	2181.09
759.97	1652.71
760.15	1636.33
760.32	1662.95
760.50	1736.68
760.68	1894.37
760.86	1654.76
761.04	1763.30
761.22	1783.78
761.39	1734.63
761.57	1697.77
761.75	1646.57
761.93	1703.91
762.11	1697.77
762.28	1759.21
762.46	1669.09
762.64	1736.68
762.82	1640.42
763.00	1665.00
763.18	1742.82
763.35	1656.81
763.53	1755.11
763.71	1667.05
763.89	1714.15
764.07	1740.77
764.24	1693.67
764.42	1705.96
764.60	1691.62
764.78	1757.16
764.96	1751.01
765.13	1767.40
765.31	1691.62
765.49	1759.21
765.67	1658.85
765.84	1566.70
766.02	1673.19
766.20	1646.57
766.38	1789.92
766.56	1687.53
766.73	1771.49
766.91	1687.53
767.09	1652.71
767.27	1705.96
767.44	1679.33
767.62	1710.05
767.80	1675.24
767.98	1673.19
768.15	1687.53
768.33	1677.29
768.51	1681.38
768.69	1683.43
768.87	1769.44
769.04	1693.67
769.22	1828.84
769.40	1763.30
769.58	1859.56
769.75	1681.38
769.93	1787.88
770.11	1677.29
770.28	1632.23
770.46	1767.40
770.64	1794.02
770.82	1632.23
770.99	1599.46
771.17	1681.38
771.35	1730.53
771.53	1650.66
771.70	1712.10
771.88	1656.81
772.06	1777.64
772.23	1646.57
772.41	1718.25
772.59	1624.04
772.77	1726.44
772.94	1619.94
773.12	1730.53
773.30	1689.57
773.47	1697.77
773.65	1626.09
773.83	1753.06
774.01	1705.96
774.18	1591.27
774.36	1683.43
774.54	1658.85
774.71	1738.73
774.89	1535.98
775.07	1607.66
775.24	1566.70
775.42	1662.95
775.60	1857.51
775.78	1540.07
775.95	1648.61
776.13	1601.51
776.31	1533.93
776.48	1722.34
776.66	1740.77
776.84	1679.33
777.01	1650.66
777.19	1662.95
777.37	1656.81
777.54	1701.86
777.72	1806.31
777.90	1742.82
778.07	1638.38
778.25	1888.23
778.43	1703.91
778.60	1667.05
778.78	1683.43
778.96	1791.97
779.13	1673.19
779.31	1726.44
779.49	1656.81
779.66	1632.23
779.84	1714.15
780.01	1673.19
780.19	1626.09
780.37	1779.68
780.54	1740.77
780.72	1689.57
780.90	1691.62
781.07	1718.25
781.25	1660.90
781.43	1769.44
781.60	1669.09
781.78	1722.34
781.95	1675.24
782.13	1677.29
782.31	1667.05
782.48	1597.42
782.66	1738.73
782.83	1843.17
783.01	1716.20
783.19	1746.92
783.36	1677.29
783.54	1712.10
783.72	1779.68
783.89	1683.43
784.07	1781.73
784.24	1728.49
784.42	1708.01
784.60	1685.48
784.77	1732.58
784.95	1675.24
785.12	1673.19
785.30	1716.20
785.47	1626.09
785.65	1617.90
785.83	1755.11
786.00	1677.29
786.18	1677.29
786.35	1628.14
786.53	1626.09
786.71	1755.11
786.88	1753.06
787.06	1656.81
787.23	1710.05
787.41	1681.38
787.58	1695.72
787.76	1626.09
787.94	1695.72
788.11	1720.29
788.29	1638.38
788.46	1679.33
788.64	1675.24
788.81	1695.72
788.99	1720.29
789.16	1646.57
789.34	1718.25
789.52	1617.90
789.69	1632.23
789.87	1578.98
790.04	1646.57
790.22	1644.52
790.39	1728.49
790.57	1632.23
790.74	1648.61
790.92	1740.77
791.09	1619.94
791.27	1683.43
791.44	1785.83
791.62	1726.44
791.79	1728.49
791.97	1701.86
792.15	1849.32
792.32	1724.39
792.50	1722.34
792.67	1791.97
792.85	1765.35
793.02	1693.67
793.20	1697.77
793.37	1583.08
793.55	1683.43
793.72	1576.94
793.90	1695.72
794.07	1644.52
794.25	1665.00
794.42	1722.34
794.60	1693.67
794.77	1632.23
794.95	1708.01
795.12	1712.10
795.30	1617.90
795.47	1564.65
795.65	1837.03
795.82	1812.45
796.00	1621.99
796.17	1703.91
796.34	1712.10
796.52	1665.00
796.69	1716.20
796.87	1744.87
797.04	1761.25
797.22	1699.81
797.39	1662.95
797.57	1771.49
797.74	1693.67
797.92	1697.77
798.09	1665.00
798.27	1822.69
798.44	1724.39
798.62	1744.87
798.79	1785.83
798.96	1683.43
799.14	1691.62
799.31	1824.74
799.49	1699.81
799.66	1722.34
799.84	1736.68
800.01	1624.04
800.19	1697.77
800.36	1630.18
800.53	1714.15
800.71	1791.97
800.88	1779.68
801.06	1660.90
801.23	1667.05
801.41	1677.29
801.58	1714.15
801.75	1691.62
801.93	1759.21
802.10	1730.53
802.28	1730.53
802.45	1689.57
802.63	1685.48
802.80	1783.78
802.97	1724.39
803.15	1656.81
803.32	1671.14
803.50	1603.56
803.67	1660.90
803.84	1689.57
804.02	1724.39
804.19	1652.71
804.37	1611.75
804.54	1581.03
804.71	1671.14
804.89	1724.39
805.06	1677.29
805.24	1644.52
805.41	1648.61
805.58	1687.53
805.76	1789.92
805.93	1658.85
806.10	1724.39
806.28	1703.91
806.45	1665.00
806.63	1695.72
806.80	1759.21
806.97	1710.05
807.15	1683.43
807.32	1744.87
807.49	1695.72
807.67	1611.75
807.84	1748.97
808.01	1613.80
808.19	1845.22
808.36	1804.26
808.54	1673.19
808.71	1607.66
808.88	1742.82
809.06	1728.49
809.23	1828.84
809.40	1677.29
809.58	1757.16
809.75	1673.19
809.92	1691.62
810.10	1847.27
810.27	1748.97
810.44	1730.53
810.62	1804.26
810.79	1703.91
810.96	1671.14
811.14	1658.85
811.31	1738.73
811.48	1744.87
811.66	1765.35
811.83	1820.64
812.00	1779.68
812.18	1671.14
812.35	1796.07
812.52	1662.95
812.69	1693.67
812.87	1667.05
813.04	1644.52
813.21	1636.33
813.39	1665.00
813.56	1648.61
813.73	1787.88
813.91	1660.90
814.08	1656.81
814.25	1693.67
814.42	1587.18
814.60	1632.23
814.77	1691.62
814.94	1642.47
815.12	1667.05
815.29	1714.15
815.46	1677.29
815.63	1765.35
815.81	1697.77
815.98	1621.99
816.15	1691.62
816.33	1701.86
816.50	1642.47
816.67	1701.86
816.84	1673.19
817.02	1597.42
817.19	1636.33
817.36	1677.29
817.53	1726.44
817.71	1658.85
817.88	1732.58
818.05	1683.43
818.22	1732.58
818.40	1814.50
818.57	1712.10
818.74	1746.92
818.91	1791.97
819.09	1791.97
819.26	1742.82
819.43	1613.80
819.60	1662.95
819.78	1722.34
819.95	1726.44
820.12	1701.86
820.29	1726.44
820.47	1779.68
820.64	1665.00
820.81	1615.85
820.98	1665.00
821.15	1708.01
821.33	1699.81
821.50	1638.38
821.67	1730.53
821.84	1609.70
822.02	1689.57
822.19	1669.09
822.36	1669.09
822.53	1701.86
822.70	1701.86
822.88	1638.38
823.05	1771.49
823.22	1667.05
823.39	1757.16
823.56	1697.77
823.74	1837.03
823.91	1615.85
824.08	1624.04
824.25	1724.39
824.42	1791.97
824.60	1634.28
824.77	1722.34
824.94	1660.90
825.11	1757.16
825.28	1574.89
825.45	1751.01
825.63	1683.43
825.80	1669.09
825.97	1734.63
826.14	1728.49
826.31	1660.90
826.48	1673.19
826.66	1671.14
826.83	1630.18
827.00	1695.72
827.17	1732.58
827.34	1693.67
827.51	1656.81
827.69	1742.82
827.86	1568.74
828.03	1742.82
828.20	1665.00
828.37	1665.00
828.54	1728.49
828.71	1679.33
828.89	1734.63
829.06	1722.34
829.23	1751.01
829.40	1611.75
829.57	1591.27
829.74	1685.48
829.91	1695.72
830.09	1630.18
830.26	1701.86
830.43	1798.12
830.60	1660.90
830.77	1753.06
830.94	1726.44
831.11	1648.61
831.28	1665.00
831.46	1726.44
831.63	1669.09
831.80	1695.72
831.97	1667.05
832.14	1644.52
832.31	1699.81
832.48	1691.62
832.65	1767.40
832.82	1736.68
832.99	1755.11
833.17	1679.33
833.34	1763.30
833.51	1718.25
833.68	1603.56
833.85	1742.82
834.02	1665.00
834.19	1615.85
834.36	1660.90
834.53	1744.87
834.70	1734.63
834.87	1769.44
835.04	1681.38
835.22	1642.47
835.39	1652.71
835.56	1646.57
835.73	1648.61
835.90	1687.53
836.07	1601.51
836.24	1787.88
836.41	1619.94
836.58	1630.18
836.75	1687.53
836.92	1712.10
837.09	1681.38
837.26	1822.69
837.43	1673.19
837.60	1701.86
837.77	1660.90
837.94	1703.91
838.12	1710.05
838.29	1738.73
838.46	1683.43
838.63	1658.85
838.80	1726.44
838.97	1748.97
839.14	1689.57
839.31	1691.62
839.48	1767.40
839.65	1630.18
839.82	1732.58
839.99	1677.29
840.16	1691.62
840.33	1703.91
840.50	1677.29
840.67	1724.39
840.84	1562.60
841.01	1695.72
841.18	1662.95
841.35	1583.08
841.52	1708.01
841.69	1800.16
841.86	1687.53
842.03	1665.00
842.20	1755.11
842.37	1681.38
842.54	1714.15
842.71	1617.90
842.88	1640.42
843.05	1761.25
843.22	1705.96
843.39	1763.30
843.56	1652.71
843.73	1732.58
843.90	1695.72
844.07	1724.39
844.24	1736.68
844.41	1677.29
844.58	1656.81
844.75	1734.63
844.92	1767.40
845.09	1695.72
845.26	1675.24
845.43	1726.44
845.60	1669.09
845.77	1757.16
845.94	1665.00
846.10	1720.29
846.27	1638.38
846.44	1662.95
846.61	1634.28
846.78	1660.90
846.95	1687.53
847.12	1656.81
847.29	1669.09
847.46	1642.47
847.63	1710.05
847.80	1703.91
847.97	1669.09
848.14	1742.82
848.31	1691.62
848.48	1599.46
848.65	1746.92
848.82	1681.38
848.98	1734.63
849.15	1787.88
849.32	1773.54
849.49	1656.81
849.66	1554.41
849.83	1662.95
850.00	1624.04
850.17	1755.11
850.34	1710.05
850.51	1662.95
850.68	1705.96
850.85	1767.40
851.01	1656.81
851.18	1798.12
851.35	1652.71
851.52	1681.38
851.69	1744.87
851.86	1650.66
852.03	1644.52
852.20	1720.29
852.37	1632.23
852.53	1662.95
852.70	1581.03
852.87	1685.48
853.04	1714.15
853.21	1695.72
853.38	1779.68
853.55	1814.50
853.72	1773.54
853.89	1691.62
854.05	1617.90
854.22	1621.99
854.39	1718.25
854.56	1734.63
854.73	1712.10
854.90	1650.66
855.07	1695.72
855.23	1658.85
855.40	1619.94
855.57	1710.05
855.74	1607.66
855.91	1832.93
856.08	1576.94
856.25	1691.62
856.41	1710.05
856.58	1665.00
856.75	1695.72
856.92	1595.37
857.09	1748.97
857.26	1656.81
857.42	1699.81
857.59	1654.76
857.76	1677.29
857.93	1697.77
858.10	1673.19
858.27	1576.94
858.43	1736.68
858.60	1615.85
858.77	1611.75
858.94	1595.37
859.11	1708.01
859.27	1693.67
859.44	1714.15
859.61	1804.26
859.78	1791.97
859.95	1732.58
860.12	1683.43
860.28	1726.44
860.45	1767.40
860.62	1644.52
860.79	1673.19
860.95	1667.05
861.12	1636.33
861.29	1669.09
861.46	1660.90
861.63	1642.47
861.79	1652.71
861.96	1699.81
862.13	1648.61
862.30	1810.40
862.47	1630.18
862.63	1656.81
862.80	1712.10
862.97	1695.72
863.14	1746.92
863.30	1720.29
863.47	1804.26
863.64	1845.22
863.81	1601.51
863.97	1675.24
864.14	1738.73
864.31	1679.33
864.48	1722.34
864.65	1689.57
864.81	1718.25
864.98	1685.48
865.15	1777.64
865.32	1736.68
865.48	1738.73
865.65	1751.01
865.82	1640.42
865.98	1732.58
866.15	1734.63
866.32	1607.66
866.49	1703.91
866.65	1779.68
866.82	1671.14
866.99	1746.92
867.16	1665.00
867.32	1708.01
867.49	1699.81
867.66	1685.48
867.83	1595.37
867.99	1609.70
868.16	1708.01
868.33	1726.44
868.49	1714.15
868.66	1673.19
868.83	1658.85
868.99	1667.05
869.16	1724.39
869.33	1839.08
869.50	1718.25
869.66	1638.38
869.83	1646.57
870.00	1652.71
870.16	1779.68
870.33	1708.01
870.50	1781.73
870.66	1638.38
870.83	1816.55
871.00	1656.81
871.17	1615.85
871.33	1740.77
871.50	1615.85
871.67	1662.95
871.83	1589.22
872.00	1775.59
872.17	1642.47
872.33	1771.49
872.50	1705.96
872.67	1665.00
872.83	1705.96
873.00	1796.07
873.17	1736.68
873.33	1730.53
873.50	1710.05
873.67	1607.66
873.83	1665.00
874.00	1583.08
874.16	1740.77
874.33	1662.95
874.50	1613.80
874.66	1779.68
874.83	1687.53
875.00	1779.68
875.16	1777.64
875.33	1746.92
875.50	1650.66
875.66	1671.14
875.83	1697.77
875.99	1669.09
876.16	1632.23
876.33	1642.47
876.49	1681.38
876.66	1710.05
876.83	1730.53
876.99	1632.23
877.16	1714.15
877.32	1681.38
877.49	1621.99
877.66	1740.77
877.82	1732.58
877.99	1693.67
878.15	1701.86
878.32	1714.15
878.49	1685.48
878.65	1648.61
878.82	1736.68
878.98	1654.76
879.15	1677.29
879.32	1767.40
879.48	1771.49
879.65	1566.70
879.81	1689.57
879.98	1716.20
880.15	1665.00
880.31	1714.15
880.48	1603.56
880.64	1751.01
880.81	1687.53
880.97	1890.28
881.14	1712.10
881.31	1642.47
881.47	1767.40
881.64	1679.33
881.80	1570.79
881.97	1697.77
882.13	1738.73
882.30	1617.90
882.47	1646.57
882.63	1677.29
882.80	1675.24
882.96	1656.81
883.13	1740.77
883.29	1648.61
883.46	1703.91
883.62	1820.64
883.79	1681.38
883.95	1669.09
884.12	1716.20
884.29	1734.63
884.45	1726.44
884.62	1753.06
884.78	1728.49
884.95	1720.29
885.11	1632.23
885.28	1724.39
885.44	1714.15
885.61	1740.77
885.77	1773.54
885.94	1767.40
886.10	1705.96
886.27	1662.95
886.43	1796.07
886.60	1714.15
886.76	1720.29
886.93	1660.90
887.09	1691.62
887.26	1654.76
887.42	1662.95
887.59	1763.30
887.75	1673.19
887.92	1685.48
888.08	1753.06
888.25	1816.55
888.41	1746.92
888.58	1671.14
888.74	1665.00
888.91	1628.14
>>>>>End Processed Spectral Data<<<<<
