SpectraSuite Data File
++++++++++++++++++++++++++++++++++++
Date: Mon Jun 06 13:27:57 CEST 2016
User: root
Dark Spectrum Present: No
Reference Spectrum Present: No
Number of Sampled Component Spectra: 1
Spectrometers: USB4C02835
Integration Time (usec): 100000 (USB4C02835)
Spectra Averaged: 1 (USB4C02835)
Boxcar Smoothing: 0 (USB4C02835)
Correct for Electrical Dark: No (USB4C02835)
Strobe/Lamp Enabled: No (USB4C02835)
Correct for Detector Non-linearity: No (USB4C02835)
Correct for Stray Light: No (USB4C02835)
Number of Pixels in Processed Spectrum: 3648
>>>>>Begin Processed Spectral Data<<<<<
177.47	1413.10
177.69	1413.10
177.91	1413.10
178.13	1495.02
178.36	1435.63
178.58	1638.38
178.80	1689.57
179.02	1667.05
179.24	1630.18
179.46	1716.20
179.68	1771.49
179.90	1658.85
180.13	1673.19
180.35	1603.56
180.57	1673.19
180.79	1767.40
181.01	1705.96
181.23	1705.96
181.45	1736.68
181.67	1705.96
181.90	1744.87
182.12	1671.14
182.34	1693.67
182.56	1775.59
182.78	1726.44
183.00	1757.16
183.22	1710.05
183.44	1576.94
183.66	1740.77
183.89	1822.69
184.11	1695.72
184.33	1705.96
184.55	1779.68
184.77	1748.97
184.99	1759.21
185.21	1634.28
185.43	1804.26
185.65	1675.24
185.87	1763.30
186.10	1804.26
186.32	1837.03
186.54	1716.20
186.76	1730.53
186.98	1734.63
187.20	1658.85
187.42	1773.54
187.64	1718.25
187.86	1757.16
188.08	1730.53
188.30	1667.05
188.52	1742.82
188.75	1785.83
188.97	1775.59
189.19	1636.33
189.41	1654.76
189.63	1718.25
189.85	1667.05
190.07	1609.70
190.29	1710.05
190.51	1703.91
190.73	1679.33
190.95	1820.64
191.17	1740.77
191.39	1617.90
191.61	1634.28
191.84	1675.24
192.06	1732.58
192.28	1607.66
192.50	1871.84
192.72	1724.39
192.94	1736.68
193.16	1761.25
193.38	1732.58
193.60	1650.66
193.82	1705.96
194.04	1779.68
194.26	1691.62
194.48	1705.96
194.70	1650.66
194.92	1679.33
195.14	1755.11
195.36	1617.90
195.58	1667.05
195.80	1759.21
196.02	1656.81
196.24	1665.00
196.46	1742.82
196.69	1730.53
196.91	1775.59
197.13	1667.05
197.35	1554.41
197.57	1742.82
197.79	1751.01
198.01	1669.09
198.23	1720.29
198.45	1695.72
198.67	1607.66
198.89	1689.57
199.11	1726.44
199.33	1648.61
199.55	1669.09
199.77	1767.40
199.99	1724.39
200.21	1671.14
200.43	1759.21
200.65	1603.56
200.87	1574.89
201.09	1787.88
201.31	1691.62
201.53	1794.02
201.75	1662.95
201.97	1681.38
202.19	1644.52
202.41	1662.95
202.63	1820.64
202.85	1677.29
203.07	1624.04
203.29	1716.20
203.51	1665.00
203.73	1640.42
203.95	1814.50
204.17	1781.73
204.39	1746.92
204.61	1728.49
204.83	1683.43
205.05	1734.63
205.27	1765.35
205.49	1779.68
205.71	1632.23
205.93	1634.28
206.15	1658.85
206.37	1699.81
206.59	1662.95
206.81	1564.65
207.03	1640.42
207.25	1714.15
207.47	1705.96
207.69	1685.48
207.91	1755.11
208.13	1779.68
208.34	1738.73
208.56	1681.38
208.78	1673.19
209.00	1703.91
209.22	1710.05
209.44	1701.86
209.66	1660.90
209.88	1683.43
210.10	1689.57
210.32	1712.10
210.54	1818.60
210.76	1660.90
210.98	1691.62
211.20	1621.99
211.42	1675.24
211.64	1732.58
211.86	1697.77
212.08	1699.81
212.30	1701.86
212.52	1681.38
212.74	1751.01
212.96	1791.97
213.17	1755.11
213.39	1746.92
213.61	1722.34
213.83	1771.49
214.05	1619.94
214.27	1796.07
214.49	1595.37
214.71	1748.97
214.93	1798.12
215.15	1634.28
215.37	1824.74
215.59	1691.62
215.81	1693.67
216.03	1796.07
216.24	1742.82
216.46	1699.81
216.68	1767.40
216.90	1687.53
217.12	1769.44
217.34	1669.09
217.56	1767.40
217.78	1796.07
218.00	1699.81
218.22	1714.15
218.44	1687.53
218.66	1732.58
218.87	1761.25
219.09	1689.57
219.31	1746.92
219.53	1732.58
219.75	1703.91
219.97	1677.29
220.19	1798.12
220.41	1695.72
220.63	1789.92
220.85	1705.96
221.06	1662.95
221.28	1769.44
221.50	1726.44
221.72	1753.06
221.94	1669.09
222.16	1714.15
222.38	1757.16
222.60	1742.82
222.82	1611.75
223.03	1687.53
223.25	1652.71
223.47	1771.49
223.69	1802.21
223.91	1669.09
224.13	1673.19
224.35	1683.43
224.57	1798.12
224.78	1757.16
225.00	1646.57
225.22	1601.51
225.44	1718.25
225.66	1757.16
225.88	1671.14
226.10	1755.11
226.32	1677.29
226.53	1787.88
226.75	1708.01
226.97	1619.94
227.19	1656.81
227.41	1599.46
227.63	1675.24
227.85	1619.94
228.06	1675.24
228.28	1665.00
228.50	1648.61
228.72	1603.56
228.94	1710.05
229.16	1556.46
229.37	1701.86
229.59	1681.38
229.81	1814.50
230.03	1703.91
230.25	1673.19
230.47	1673.19
230.69	1705.96
230.90	1779.68
231.12	1662.95
231.34	1736.68
231.56	1794.02
231.78	1667.05
232.00	1718.25
232.21	1730.53
232.43	1599.46
232.65	1544.17
232.87	1724.39
233.09	1656.81
233.30	1609.70
233.52	1708.01
233.74	1656.81
233.96	1628.14
234.18	1708.01
234.40	1701.86
234.61	1845.22
234.83	1636.33
235.05	1591.27
235.27	1845.22
235.49	1822.69
235.70	1755.11
235.92	1701.86
236.14	1759.21
236.36	1822.69
236.58	1642.47
236.79	1714.15
237.01	1697.77
237.23	1632.23
237.45	1781.73
237.67	1708.01
237.88	1736.68
238.10	1804.26
238.32	1638.38
238.54	1671.14
238.76	1718.25
238.97	1650.66
239.19	1728.49
239.41	1724.39
239.63	1738.73
239.85	1636.33
240.06	1744.87
240.28	1703.91
240.50	1730.53
240.72	1742.82
240.93	1685.48
241.15	1767.40
241.37	1755.11
241.59	1791.97
241.81	1779.68
242.02	1708.01
242.24	1722.34
242.46	1658.85
242.68	1646.57
242.89	1746.92
243.11	1763.30
243.33	1683.43
243.55	1734.63
243.76	1789.92
243.98	1699.81
244.20	1685.48
244.42	1718.25
244.64	1693.67
244.85	1628.14
245.07	1593.32
245.29	1720.29
245.51	1677.29
245.72	1724.39
245.94	1751.01
246.16	1679.33
246.38	1767.40
246.59	1626.09
246.81	1609.70
247.03	1730.53
247.24	1562.60
247.46	1667.05
247.68	1781.73
247.90	1677.29
248.11	1652.71
248.33	1734.63
248.55	1714.15
248.77	1720.29
248.98	1779.68
249.20	1828.84
249.42	1695.72
249.64	1697.77
249.85	1693.67
250.07	1712.10
250.29	1675.24
250.50	1822.69
250.72	1605.61
250.94	1683.43
251.16	1886.18
251.37	1771.49
251.59	1730.53
251.81	1693.67
252.02	1771.49
252.24	1679.33
252.46	1800.16
252.68	1681.38
252.89	1652.71
253.11	1591.27
253.33	1730.53
253.54	1738.73
253.76	1675.24
253.98	1712.10
254.20	1650.66
254.41	1621.99
254.63	1705.96
254.85	1642.47
255.06	1697.77
255.28	1718.25
255.50	1615.85
255.71	1665.00
255.93	1554.41
256.15	1681.38
256.36	1665.00
256.58	1699.81
256.80	1763.30
257.02	1679.33
257.23	1748.97
257.45	1675.24
257.67	1740.77
257.88	1695.72
258.10	1689.57
258.32	1636.33
258.53	1748.97
258.75	1755.11
258.97	1599.46
259.18	1710.05
259.40	1708.01
259.62	1751.01
259.83	1808.36
260.05	1789.92
260.27	1996.77
260.48	1769.44
260.70	1591.27
260.92	1693.67
261.13	1689.57
261.35	1718.25
261.57	1744.87
261.78	1540.07
262.00	1677.29
262.22	1734.63
262.43	1658.85
262.65	1681.38
262.86	1716.20
263.08	1894.37
263.30	1701.86
263.51	1677.29
263.73	1675.24
263.95	1748.97
264.16	1667.05
264.38	1619.94
264.60	1665.00
264.81	1724.39
265.03	1701.86
265.25	1812.45
265.46	1628.14
265.68	1763.30
265.89	1724.39
266.11	1726.44
266.33	1757.16
266.54	1748.97
266.76	1710.05
266.98	1671.14
267.19	1779.68
267.41	1720.29
267.62	1591.27
267.84	1644.52
268.06	1746.92
268.27	1687.53
268.49	1732.58
268.70	1736.68
268.92	1794.02
269.14	1665.00
269.35	1613.80
269.57	1728.49
269.79	1724.39
270.00	1710.05
270.22	1816.55
270.43	1624.04
270.65	1443.82
270.87	1708.01
271.08	1718.25
271.30	1765.35
271.51	1744.87
271.73	1689.57
271.95	1785.83
272.16	1695.72
272.38	1724.39
272.59	1751.01
272.81	1775.59
273.02	1726.44
273.24	1757.16
273.46	1783.78
273.67	1617.90
273.89	1656.81
274.10	1613.80
274.32	1746.92
274.54	1667.05
274.75	1705.96
274.97	1603.56
275.18	1810.40
275.40	1697.77
275.61	1697.77
275.83	1740.77
276.05	1646.57
276.26	1646.57
276.48	1658.85
276.69	1636.33
276.91	1621.99
277.12	1765.35
277.34	1675.24
277.55	1767.40
277.77	1773.54
277.99	1634.28
278.20	1726.44
278.42	1660.90
278.63	1619.94
278.85	1644.52
279.06	1597.42
279.28	1691.62
279.49	1638.38
279.71	1671.14
279.93	1738.73
280.14	1714.15
280.36	1681.38
280.57	1804.26
280.79	1796.07
281.00	1660.90
281.22	1640.42
281.43	1787.88
281.65	1564.65
281.86	1652.71
282.08	1714.15
282.29	1755.11
282.51	1624.04
282.73	1634.28
282.94	1624.04
283.16	1693.67
283.37	1806.31
283.59	1665.00
283.80	1630.18
284.02	1726.44
284.23	1677.29
284.45	1652.71
284.66	1669.09
284.88	1667.05
285.09	1726.44
285.31	1736.68
285.52	1769.44
285.74	1605.61
285.95	1748.97
286.17	1673.19
286.38	1730.53
286.60	1675.24
286.81	1648.61
287.03	1650.66
287.24	1689.57
287.46	1724.39
287.67	1734.63
287.89	1779.68
288.10	1742.82
288.32	1681.38
288.53	1705.96
288.75	1724.39
288.96	1728.49
289.18	1726.44
289.39	1728.49
289.61	1705.96
289.82	1773.54
290.04	1726.44
290.25	1624.04
290.47	1724.39
290.68	1775.59
290.90	1753.06
291.11	1681.38
291.33	1769.44
291.54	1650.66
291.76	1675.24
291.97	1665.00
292.18	1708.01
292.40	1765.35
292.61	1619.94
292.83	1800.16
293.04	1708.01
293.26	1605.61
293.47	1695.72
293.69	1662.95
293.90	1705.96
294.12	1769.44
294.33	1699.81
294.55	1697.77
294.76	1763.30
294.97	1744.87
295.19	1767.40
295.40	1665.00
295.62	1611.75
295.83	1738.73
296.05	1691.62
296.26	1748.97
296.48	1603.56
296.69	1646.57
296.90	1673.19
297.12	1701.86
297.33	1728.49
297.55	1669.09
297.76	1699.81
297.98	1812.45
298.19	1726.44
298.41	1716.20
298.62	1630.18
298.83	1757.16
299.05	1693.67
299.26	1701.86
299.48	1665.00
299.69	1775.59
299.90	1656.81
300.12	1671.14
300.33	1757.16
300.55	1695.72
300.76	1701.86
300.98	1603.56
301.19	1746.92
301.40	1677.29
301.62	1718.25
301.83	1716.20
302.05	1697.77
302.26	1757.16
302.47	1693.67
302.69	1652.71
302.90	1699.81
303.12	1599.46
303.33	1699.81
303.54	1763.30
303.76	1587.18
303.97	1722.34
304.19	1751.01
304.40	1597.42
304.61	1628.14
304.83	1816.55
305.04	1751.01
305.26	1851.36
305.47	1648.61
305.68	1675.24
305.90	1685.48
306.11	1814.50
306.33	1697.77
306.54	1654.76
306.75	1630.18
306.97	1640.42
307.18	1619.94
307.39	1703.91
307.61	1724.39
307.82	1683.43
308.04	1730.53
308.25	1591.27
308.46	1685.48
308.68	1718.25
308.89	1716.20
309.10	1730.53
309.32	1738.73
309.53	1742.82
309.74	1681.38
309.96	1632.23
310.17	1779.68
310.39	1669.09
310.60	1685.48
310.81	1701.86
311.03	1685.48
311.24	1751.01
311.45	1736.68
311.67	1802.21
311.88	1736.68
312.09	1726.44
312.31	1652.71
312.52	1679.33
312.73	1710.05
312.95	1660.90
313.16	1679.33
313.37	1755.11
313.59	1697.77
313.80	1746.92
314.01	1726.44
314.23	1667.05
314.44	1716.20
314.65	1595.37
314.87	1648.61
315.08	1642.47
315.29	1640.42
315.51	1560.55
315.72	1630.18
315.93	1767.40
316.15	1773.54
316.36	1640.42
316.57	1597.42
316.79	1751.01
317.00	1644.52
317.21	1693.67
317.43	1652.71
317.64	1718.25
317.85	1691.62
318.07	1669.09
318.28	1783.78
318.49	1783.78
318.70	1953.76
318.92	1791.97
319.13	1714.15
319.34	1914.85
319.56	1779.68
319.77	1769.44
319.98	1812.45
320.20	1730.53
320.41	1746.92
320.62	1724.39
320.83	1593.32
321.05	1847.27
321.26	1714.15
321.47	1726.44
321.69	1718.25
321.90	1609.70
322.11	1621.99
322.32	1650.66
322.54	1789.92
322.75	1687.53
322.96	1886.18
323.18	1607.66
323.39	1601.51
323.60	1597.42
323.81	1712.10
324.03	1619.94
324.24	1738.73
324.45	1734.63
324.66	1675.24
324.88	1677.29
325.09	1765.35
325.30	1650.66
325.52	1744.87
325.73	1765.35
325.94	1689.57
326.15	1716.20
326.37	1601.51
326.58	1759.21
326.79	1722.34
327.00	1656.81
327.22	1665.00
327.43	1681.38
327.64	1632.23
327.85	1775.59
328.07	1611.75
328.28	1822.69
328.49	1685.48
328.70	1669.09
328.92	1730.53
329.13	1765.35
329.34	1773.54
329.55	1822.69
329.76	1701.86
329.98	1728.49
330.19	1806.31
330.40	1646.57
330.61	1724.39
330.83	1681.38
331.04	1677.29
331.25	1726.44
331.46	1703.91
331.68	1617.90
331.89	1769.44
332.10	1658.85
332.31	1714.15
332.52	1675.24
332.74	1724.39
332.95	1624.04
333.16	1759.21
333.37	1779.68
333.58	1644.52
333.80	1746.92
334.01	1648.61
334.22	1658.85
334.43	1650.66
334.64	1601.51
334.86	1619.94
335.07	1691.62
335.28	1763.30
335.49	1628.14
335.70	1728.49
335.92	1742.82
336.13	1834.98
336.34	1740.77
336.55	1755.11
336.76	1669.09
336.98	1671.14
337.19	1697.77
337.40	1810.40
337.61	1777.64
337.82	1683.43
338.04	1806.31
338.25	1615.85
338.46	1681.38
338.67	1628.14
338.88	1632.23
339.09	1712.10
339.31	1619.94
339.52	1626.09
339.73	1708.01
339.94	1681.38
340.15	1775.59
340.36	1665.00
340.58	1742.82
340.79	1656.81
341.00	1693.67
341.21	1705.96
341.42	1810.40
341.63	1712.10
341.85	1800.16
342.06	1732.58
342.27	1746.92
342.48	1751.01
342.69	1646.57
342.90	1816.55
343.12	1730.53
343.33	1685.48
343.54	1728.49
343.75	1765.35
343.96	1634.28
344.17	1683.43
344.38	1716.20
344.60	1675.24
344.81	1640.42
345.02	1624.04
345.23	1671.14
345.44	1779.68
345.65	1757.16
345.86	1642.47
346.07	1644.52
346.29	1712.10
346.50	1691.62
346.71	1759.21
346.92	1796.07
347.13	1804.26
347.34	1699.81
347.55	1662.95
347.76	1695.72
347.98	1615.85
348.19	1691.62
348.40	1802.21
348.61	1646.57
348.82	1755.11
349.03	1785.83
349.24	1650.66
349.45	1730.53
349.66	1617.90
349.88	1662.95
350.09	1665.00
350.30	1824.74
350.51	1877.99
350.72	1773.54
350.93	1701.86
351.14	1726.44
351.35	1746.92
351.56	1718.25
351.77	1667.05
351.99	1722.34
352.20	1863.65
352.41	1705.96
352.62	1611.75
352.83	1699.81
353.04	1681.38
353.25	1601.51
353.46	1753.06
353.67	1812.45
353.88	1609.70
354.09	1738.73
354.30	1685.48
354.52	1710.05
354.73	1640.42
354.94	1595.37
355.15	1722.34
355.36	1863.65
355.57	1746.92
355.78	1767.40
355.99	1601.51
356.20	1787.88
356.41	1806.31
356.62	1705.96
356.83	1775.59
357.04	1769.44
357.25	1619.94
357.46	1699.81
357.68	1613.80
357.89	1671.14
358.10	1771.49
358.31	1691.62
358.52	1648.61
358.73	1685.48
358.94	1609.70
359.15	1689.57
359.36	1701.86
359.57	1675.24
359.78	1701.86
359.99	1744.87
360.20	1691.62
360.41	1693.67
360.62	1650.66
360.83	1658.85
361.04	1636.33
361.25	1687.53
361.46	1769.44
361.67	1734.63
361.88	1714.15
362.09	1726.44
362.30	1720.29
362.51	1656.81
362.72	1732.58
362.93	1775.59
363.14	1742.82
363.35	1679.33
363.56	1693.67
363.78	1714.15
363.99	1724.39
364.20	1693.67
364.41	1691.62
364.62	1798.12
364.83	1716.20
365.04	1585.13
365.25	1697.77
365.46	1796.07
365.67	1665.00
365.88	1652.71
366.09	1701.86
366.30	1734.63
366.51	1671.14
366.72	1644.52
366.93	1642.47
367.14	1722.34
367.35	1826.79
367.56	1732.58
367.77	1785.83
367.98	1730.53
368.18	1654.76
368.39	1699.81
368.60	1589.22
368.81	1773.54
369.02	1722.34
369.23	1681.38
369.44	1675.24
369.65	1697.77
369.86	1710.05
370.07	1789.92
370.28	1646.57
370.49	1755.11
370.70	1699.81
370.91	1591.27
371.12	1619.94
371.33	1796.07
371.54	1705.96
371.75	1791.97
371.96	1619.94
372.17	1630.18
372.38	1697.77
372.59	1757.16
372.80	1607.66
373.01	1708.01
373.22	1718.25
373.43	1644.52
373.64	1693.67
373.85	1689.57
374.06	1767.40
374.26	1771.49
374.47	1732.58
374.68	1787.88
374.89	1765.35
375.10	1691.62
375.31	1738.73
375.52	1753.06
375.73	1785.83
375.94	1662.95
376.15	1810.40
376.36	1646.57
376.57	1730.53
376.78	1667.05
376.99	1794.02
377.20	1769.44
377.40	1730.53
377.61	1824.74
377.82	1665.00
378.03	1773.54
378.24	1730.53
378.45	1714.15
378.66	1738.73
378.87	1636.33
379.08	1662.95
379.29	1689.57
379.50	1736.68
379.71	1697.77
379.91	1726.44
380.12	1619.94
380.33	1714.15
380.54	1744.87
380.75	1687.53
380.96	1673.19
381.17	1765.35
381.38	1669.09
381.59	1675.24
381.80	1660.90
382.00	1853.41
382.21	1777.64
382.42	1800.16
382.63	1863.65
382.84	1845.22
383.05	1812.45
383.26	1662.95
383.47	1748.97
383.68	1785.83
383.88	1658.85
384.09	1669.09
384.30	1855.46
384.51	1718.25
384.72	1714.15
384.93	1693.67
385.14	1689.57
385.35	1726.44
385.55	1677.29
385.76	1685.48
385.97	1722.34
386.18	1626.09
386.39	1677.29
386.60	1667.05
386.81	1705.96
387.02	1681.38
387.22	1689.57
387.43	1849.32
387.64	1769.44
387.85	1923.04
388.06	2252.77
388.27	4310.97
388.48	6786.97
388.68	8169.35
388.89	9453.42
389.10	9768.81
389.31	8519.55
389.52	7579.53
389.73	6555.55
389.93	6178.72
390.14	5832.62
390.35	5164.98
390.56	4587.45
390.77	3737.54
390.98	2955.22
391.18	2572.25
391.39	2113.50
391.60	1929.19
391.81	1853.41
392.02	1679.33
392.23	1894.37
392.43	1710.05
392.64	1837.03
392.85	1738.73
393.06	1767.40
393.27	1779.68
393.47	1685.48
393.68	1718.25
393.89	1677.29
394.10	1718.25
394.31	1638.38
394.52	1634.28
394.72	1697.77
394.93	1783.78
395.14	1640.42
395.35	1740.77
395.56	1669.09
395.76	1730.53
395.97	1763.30
396.18	1724.39
396.39	1834.98
396.60	2027.49
396.80	1943.52
397.01	1744.87
397.22	1896.42
397.43	1785.83
397.64	1705.96
397.84	1826.79
398.05	1796.07
398.26	1673.19
398.47	1695.72
398.67	1746.92
398.88	1683.43
399.09	1691.62
399.30	1650.66
399.51	1796.07
399.71	1673.19
399.92	1722.34
400.13	1755.11
400.34	1742.82
400.54	1658.85
400.75	1841.12
400.96	1751.01
401.17	1806.31
401.37	1734.63
401.58	1646.57
401.79	1691.62
402.00	1851.36
402.21	2041.82
402.41	1943.52
402.62	2058.21
402.83	2027.49
403.04	1988.58
403.24	2115.55
403.45	1918.95
403.66	1947.62
403.87	1773.54
404.07	1929.19
404.28	1898.47
404.49	1773.54
404.70	1710.05
404.90	1740.77
405.11	1798.12
405.32	1630.18
405.52	1587.18
405.73	1669.09
405.94	1722.34
406.15	1728.49
406.35	1755.11
406.56	1765.35
406.77	1710.05
406.98	1699.81
407.18	1632.23
407.39	1748.97
407.60	1621.99
407.80	1804.26
408.01	1697.77
408.22	1697.77
408.43	1677.29
408.63	1765.35
408.84	1812.45
409.05	1689.57
409.25	1603.56
409.46	1687.53
409.67	1587.18
409.88	1687.53
410.08	1779.68
410.29	1710.05
410.50	1746.92
410.70	1742.82
410.91	1665.00
411.12	1732.58
411.32	1736.68
411.53	1644.52
411.74	1800.16
411.95	1751.01
412.15	1693.67
412.36	1732.58
412.57	1806.31
412.77	1789.92
412.98	1710.05
413.19	1683.43
413.39	1740.77
413.60	1751.01
413.81	1738.73
414.01	1607.66
414.22	1726.44
414.43	1685.48
414.63	1652.71
414.84	1753.06
415.05	1730.53
415.25	1587.18
415.46	1767.40
415.67	1544.17
415.87	1734.63
416.08	1730.53
416.29	1675.24
416.49	1738.73
416.70	1685.48
416.91	1730.53
417.11	1679.33
417.32	1837.03
417.53	1765.35
417.73	1720.29
417.94	1708.01
418.15	1710.05
418.35	1693.67
418.56	1730.53
418.77	1943.52
418.97	1769.44
419.18	1730.53
419.38	1654.76
419.59	1669.09
419.80	1783.78
420.00	1617.90
420.21	1687.53
420.42	1804.26
420.62	1683.43
420.83	1730.53
421.04	1740.77
421.24	1701.86
421.45	1738.73
421.65	1759.21
421.86	1677.29
422.07	1763.30
422.27	1738.73
422.48	1728.49
422.69	1669.09
422.89	1605.61
423.10	1621.99
423.30	1591.27
423.51	1646.57
423.72	1697.77
423.92	1755.11
424.13	1662.95
424.33	1736.68
424.54	1730.53
424.75	1712.10
424.95	1705.96
425.16	1759.21
425.36	1703.91
425.57	1748.97
425.78	1742.82
425.98	1800.16
426.19	1728.49
426.39	1681.38
426.60	1650.66
426.81	1787.88
427.01	1689.57
427.22	1630.18
427.42	1544.17
427.63	1574.89
427.83	1710.05
428.04	1849.32
428.25	1665.00
428.45	1818.60
428.66	1763.30
428.86	1738.73
429.07	1738.73
429.28	1695.72
429.48	1595.37
429.69	1669.09
429.89	1703.91
430.10	1669.09
430.30	1626.09
430.51	1730.53
430.71	1607.66
430.92	1673.19
431.13	1669.09
431.33	1796.07
431.54	1726.44
431.74	1804.26
431.95	1869.80
432.15	1626.09
432.36	1736.68
432.56	1757.16
432.77	1755.11
432.98	1812.45
433.18	1722.34
433.39	1667.05
433.59	1673.19
433.80	1740.77
434.00	1810.40
434.21	1630.18
434.41	1722.34
434.62	1884.13
434.82	1677.29
435.03	1703.91
435.23	1726.44
435.44	1628.14
435.64	1605.61
435.85	1703.91
436.06	1830.88
436.26	1775.59
436.47	1734.63
436.67	1705.96
436.88	1671.14
437.08	1701.86
437.29	1783.78
437.49	1802.21
437.70	1798.12
437.90	1738.73
438.11	1777.64
438.31	1728.49
438.52	1871.84
438.72	1925.09
438.93	1927.14
439.13	1751.01
439.34	1812.45
439.54	1808.36
439.75	1755.11
439.95	1787.88
440.16	1654.76
440.36	1826.79
440.57	1769.44
440.77	1683.43
440.98	1822.69
441.18	1789.92
441.39	1632.23
441.59	1738.73
441.80	1910.75
442.00	1744.87
442.21	1824.74
442.41	1626.09
442.62	1761.25
442.82	1603.56
443.02	1757.16
443.23	1738.73
443.43	1710.05
443.64	1773.54
443.84	1683.43
444.05	1816.55
444.25	1714.15
444.46	1753.06
444.66	1691.62
444.87	1779.68
445.07	1568.74
445.28	1718.25
445.48	1800.16
445.69	1761.25
445.89	1877.99
446.09	1736.68
446.30	2021.35
446.50	2631.64
446.71	3667.91
446.91	4372.41
447.12	4749.24
447.32	4825.01
447.53	4276.16
447.73	3903.43
447.93	3438.54
448.14	3246.03
448.34	3170.26
448.55	2930.64
448.75	2766.81
448.96	2623.45
449.16	2281.44
449.36	2258.91
449.57	2045.92
449.77	1822.69
449.98	1781.73
450.18	1775.59
450.39	1796.07
450.59	1757.16
450.79	1734.63
451.00	1644.52
451.20	1841.12
451.41	1708.01
451.61	1771.49
451.81	1705.96
452.02	1697.77
452.22	1652.71
452.43	1681.38
452.63	1665.00
452.84	1703.91
453.04	1736.68
453.24	1777.64
453.45	1673.19
453.65	1753.06
453.86	1777.64
454.06	1757.16
454.26	1732.58
454.47	1669.09
454.67	1816.55
454.87	1716.20
455.08	1753.06
455.28	1873.89
455.49	1708.01
455.69	1695.72
455.89	1859.56
456.10	1810.40
456.30	1693.67
456.51	1798.12
456.71	1685.48
456.91	1740.77
457.12	1744.87
457.32	1726.44
457.52	1626.09
457.73	1781.73
457.93	1798.12
458.14	1634.28
458.34	1632.23
458.54	1720.29
458.75	1744.87
458.95	1824.74
459.15	1718.25
459.36	1730.53
459.56	1789.92
459.76	1783.78
459.97	1763.30
460.17	1697.77
460.37	1834.98
460.58	1701.86
460.78	1705.96
460.99	1669.09
461.19	1718.25
461.39	1738.73
461.60	1673.19
461.80	1757.16
462.00	1671.14
462.21	1724.39
462.41	1613.80
462.61	1675.24
462.82	1621.99
463.02	1761.25
463.22	1673.19
463.43	1802.21
463.63	1705.96
463.83	1796.07
464.04	1730.53
464.24	1708.01
464.44	1593.32
464.64	1703.91
464.85	1734.63
465.05	1828.84
465.25	1789.92
465.46	1759.21
465.66	1736.68
465.86	1730.53
466.07	1703.91
466.27	1753.06
466.47	1632.23
466.68	1710.05
466.88	1791.97
467.08	1748.97
467.29	1861.60
467.49	1828.84
467.69	1757.16
467.89	1724.39
468.10	1689.57
468.30	1720.29
468.50	1808.36
468.71	1738.73
468.91	1617.90
469.11	1814.50
469.31	1722.34
469.52	1744.87
469.72	1824.74
469.92	1767.40
470.13	1742.82
470.33	1675.24
470.53	1812.45
470.73	2109.41
470.94	2349.02
471.14	2324.44
471.34	2428.89
471.54	2367.45
471.75	2174.94
471.95	2041.82
472.15	2088.93
472.36	2031.58
472.56	2080.74
472.76	2060.26
472.96	1945.57
473.17	1941.47
473.37	1959.91
473.57	1837.03
473.77	1804.26
473.98	1722.34
474.18	1685.48
474.38	1867.75
474.58	1648.61
474.79	1662.95
474.99	1761.25
475.19	1775.59
475.39	1687.53
475.60	1751.01
475.80	1775.59
476.00	1755.11
476.20	1726.44
476.41	1826.79
476.61	1826.79
476.81	1853.41
477.01	1701.86
477.21	1777.64
477.42	1802.21
477.62	1687.53
477.82	1796.07
478.02	1675.24
478.23	1753.06
478.43	1740.77
478.63	1746.92
478.83	1796.07
479.03	1712.10
479.24	1808.36
479.44	1869.80
479.64	1701.86
479.84	1578.98
480.04	1695.72
480.25	1753.06
480.45	1667.05
480.65	1718.25
480.85	1748.97
481.06	1665.00
481.26	1712.10
481.46	1783.78
481.66	1742.82
481.86	1722.34
482.06	1787.88
482.27	1691.62
482.47	1734.63
482.67	1748.97
482.87	1683.43
483.07	1732.58
483.28	1751.01
483.48	1624.04
483.68	1681.38
483.88	1679.33
484.08	1593.32
484.29	1650.66
484.49	1753.06
484.69	1617.90
484.89	1834.98
485.09	1773.54
485.29	1730.53
485.50	1705.96
485.70	1689.57
485.90	1857.51
486.10	1675.24
486.30	1730.53
486.50	1777.64
486.71	1730.53
486.91	1669.09
487.11	1843.17
487.31	1718.25
487.51	1701.86
487.71	1617.90
487.91	1638.38
488.12	1683.43
488.32	1601.51
488.52	1736.68
488.72	1636.33
488.92	1748.97
489.12	1751.01
489.32	1802.21
489.53	1746.92
489.73	1679.33
489.93	1798.12
490.13	1695.72
490.33	1677.29
490.53	1701.86
490.73	1759.21
490.94	1578.98
491.14	1814.50
491.34	1828.84
491.54	2144.22
491.74	2574.30
491.94	2912.21
492.14	2944.98
492.34	2975.70
492.54	2811.86
492.75	2408.41
492.95	2439.13
493.15	2320.35
493.35	2283.49
493.55	2203.61
493.75	2152.42
493.95	2201.57
494.15	2029.54
494.35	1839.08
494.56	1853.41
494.76	1757.16
494.96	1820.64
495.16	1796.07
495.36	1751.01
495.56	1789.92
495.76	1642.47
495.96	1669.09
496.16	1595.37
496.36	1830.88
496.56	1755.11
496.77	1708.01
496.97	1728.49
497.17	1837.03
497.37	1656.81
497.57	1814.50
497.77	1685.48
497.97	1695.72
498.17	1734.63
498.37	1611.75
498.57	1742.82
498.77	1779.68
498.97	1783.78
499.17	1808.36
499.38	1685.48
499.58	1740.77
499.78	1712.10
499.98	1798.12
500.18	1718.25
500.38	1714.15
500.58	1953.76
500.78	2592.73
500.98	4562.87
501.18	5605.29
501.38	6698.91
501.58	7022.48
501.78	6418.33
501.98	5492.65
502.18	4870.07
502.38	4374.46
502.58	4153.28
502.78	3823.56
502.98	3540.94
503.18	3426.25
503.38	3129.30
503.59	2768.85
503.79	2602.97
503.99	2457.56
504.19	2295.77
504.39	2181.09
504.59	2199.52
504.79	2099.17
504.99	2097.12
505.19	1937.38
505.39	1877.99
505.59	1951.71
505.79	1912.80
505.99	1873.89
506.19	1853.41
506.39	1869.80
506.59	1693.67
506.79	1789.92
506.99	1751.01
507.19	1779.68
507.39	1720.29
507.59	1742.82
507.79	1697.77
507.99	1697.77
508.19	1615.85
508.39	1667.05
508.59	1697.77
508.79	1791.97
508.99	1810.40
509.19	1712.10
509.39	1818.60
509.59	1701.86
509.79	1736.68
509.99	1705.96
510.19	1736.68
510.39	1710.05
510.59	1677.29
510.79	1640.42
510.99	1576.94
511.19	1714.15
511.39	1820.64
511.59	1728.49
511.79	1800.16
511.99	1732.58
512.19	1824.74
512.38	1673.19
512.58	1681.38
512.78	1779.68
512.98	1738.73
513.18	1851.36
513.38	1568.74
513.58	1722.34
513.78	1775.59
513.98	1646.57
514.18	1779.68
514.38	1708.01
514.58	1763.30
514.78	1630.18
514.98	1730.53
515.18	1714.15
515.38	1691.62
515.58	1877.99
515.78	1714.15
515.98	1722.34
516.18	1730.53
516.38	1751.01
516.57	1697.77
516.77	1652.71
516.97	1691.62
517.17	1683.43
517.37	1662.95
517.57	1783.78
517.77	1654.76
517.97	1718.25
518.17	1787.88
518.37	1632.23
518.57	1677.29
518.77	1587.18
518.97	1738.73
519.16	1787.88
519.36	1824.74
519.56	1773.54
519.76	1665.00
519.96	1728.49
520.16	1847.27
520.36	1632.23
520.56	1769.44
520.76	1705.96
520.96	1710.05
521.16	1796.07
521.35	1812.45
521.55	1763.30
521.75	1734.63
521.95	1687.53
522.15	1757.16
522.35	1671.14
522.55	1701.86
522.75	1753.06
522.95	1738.73
523.14	1683.43
523.34	1775.59
523.54	1671.14
523.74	1777.64
523.94	1714.15
524.14	1658.85
524.34	1748.97
524.54	1832.93
524.73	1757.16
524.93	1710.05
525.13	1693.67
525.33	1648.61
525.53	1871.84
525.73	1806.31
525.93	1667.05
526.13	1746.92
526.32	1732.58
526.52	1763.30
526.72	1820.64
526.92	1705.96
527.12	1634.28
527.32	1628.14
527.52	1773.54
527.71	1775.59
527.91	1773.54
528.11	1716.20
528.31	1685.48
528.51	1624.04
528.71	1710.05
528.90	1755.11
529.10	1777.64
529.30	1822.69
529.50	1632.23
529.70	1665.00
529.90	1720.29
530.09	1708.01
530.29	1685.48
530.49	1628.14
530.69	1853.41
530.89	1724.39
531.09	1738.73
531.28	1677.29
531.48	1861.60
531.68	1699.81
531.88	1730.53
532.08	1767.40
532.28	1695.72
532.47	1746.92
532.67	1691.62
532.87	1763.30
533.07	1642.47
533.27	1751.01
533.46	1771.49
533.66	1689.57
533.86	1773.54
534.06	1726.44
534.26	1708.01
534.45	1621.99
534.65	1744.87
534.85	1748.97
535.05	1740.77
535.25	1718.25
535.44	1701.86
535.64	1761.25
535.84	1671.14
536.04	1716.20
536.24	1746.92
536.43	1687.53
536.63	1800.16
536.83	1708.01
537.03	1681.38
537.22	1656.81
537.42	1630.18
537.62	1656.81
537.82	1621.99
538.02	1767.40
538.21	1828.84
538.41	1845.22
538.61	1746.92
538.81	1761.25
539.00	1841.12
539.20	1683.43
539.40	1753.06
539.60	1742.82
539.79	1822.69
539.99	1681.38
540.19	1722.34
540.39	1677.29
540.58	1787.88
540.78	1789.92
540.98	1796.07
541.18	1759.21
541.37	1703.91
541.57	1716.20
541.77	1701.86
541.97	1751.01
542.16	1662.95
542.36	1757.16
542.56	1691.62
542.76	1894.37
542.95	1732.58
543.15	1814.50
543.35	1785.83
543.54	1642.47
543.74	1665.00
543.94	1791.97
544.14	1693.67
544.33	1753.06
544.53	1714.15
544.73	1734.63
544.93	1746.92
545.12	1675.24
545.32	1703.91
545.52	1757.16
545.71	1683.43
545.91	1742.82
546.11	1675.24
546.30	1699.81
546.50	1728.49
546.70	1796.07
546.90	1736.68
547.09	1648.61
547.29	1738.73
547.49	1771.49
547.68	1779.68
547.88	1722.34
548.08	1689.57
548.27	2088.93
548.47	1691.62
548.67	1712.10
548.87	1736.68
549.06	1791.97
549.26	1671.14
549.46	1763.30
549.65	1697.77
549.85	1765.35
550.05	1857.51
550.24	1710.05
550.44	1787.88
550.64	1740.77
550.83	1808.36
551.03	1822.69
551.23	1892.32
551.42	1703.91
551.62	1718.25
551.82	1730.53
552.01	1650.66
552.21	1812.45
552.41	1710.05
552.60	1808.36
552.80	1730.53
553.00	1673.19
553.19	1667.05
553.39	1849.32
553.59	1669.09
553.78	1722.34
553.98	1767.40
554.17	1675.24
554.37	1781.73
554.57	1683.43
554.76	1685.48
554.96	1689.57
555.16	1744.87
555.35	1812.45
555.55	1763.30
555.75	1716.20
555.94	1800.16
556.14	1658.85
556.33	1761.25
556.53	1701.86
556.73	1712.10
556.92	1812.45
557.12	1800.16
557.32	1837.03
557.51	1775.59
557.71	1773.54
557.90	1767.40
558.10	1845.22
558.30	1689.57
558.49	1669.09
558.69	1738.73
558.88	1734.63
559.08	1742.82
559.28	1718.25
559.47	1787.88
559.67	1755.11
559.86	1812.45
560.06	1775.59
560.26	1732.58
560.45	1794.02
560.65	1673.19
560.84	1804.26
561.04	1726.44
561.24	1728.49
561.43	1746.92
561.63	1773.54
561.82	1669.09
562.02	1734.63
562.22	1730.53
562.41	1648.61
562.61	1675.24
562.80	1720.29
563.00	1863.65
563.19	1722.34
563.39	1824.74
563.59	1746.92
563.78	1667.05
563.98	1552.36
564.17	1697.77
564.37	1630.18
564.56	1744.87
564.76	1689.57
564.96	1777.64
565.15	1769.44
565.35	1923.04
565.54	1718.25
565.74	1814.50
565.93	1716.20
566.13	1685.48
566.32	1837.03
566.52	1779.68
566.71	1636.33
566.91	1798.12
567.11	1695.72
567.30	1759.21
567.50	1777.64
567.69	1789.92
567.89	1687.53
568.08	1728.49
568.28	1699.81
568.47	1665.00
568.67	1708.01
568.86	1710.05
569.06	1761.25
569.25	1691.62
569.45	1656.81
569.64	1763.30
569.84	1753.06
570.04	1748.97
570.23	1644.52
570.43	1699.81
570.62	1738.73
570.82	1798.12
571.01	1767.40
571.21	1724.39
571.40	1691.62
571.60	1814.50
571.79	1695.72
571.99	1767.40
572.18	1681.38
572.38	1714.15
572.57	1632.23
572.77	1738.73
572.96	1859.56
573.16	1730.53
573.35	1738.73
573.55	1789.92
573.74	1810.40
573.94	1740.77
574.13	1765.35
574.33	1804.26
574.52	1755.11
574.71	1785.83
574.91	1771.49
575.10	1703.91
575.30	1714.15
575.49	1673.19
575.69	1681.38
575.88	1759.21
576.08	1669.09
576.27	1775.59
576.47	1732.58
576.66	1884.13
576.86	1843.17
577.05	1783.78
577.25	1759.21
577.44	1914.85
577.64	1658.85
577.83	1794.02
578.02	1794.02
578.22	1896.42
578.41	1849.32
578.61	1724.39
578.80	1681.38
579.00	1751.01
579.19	1732.58
579.39	1841.12
579.58	1877.99
579.77	1763.30
579.97	1867.75
580.16	1826.79
580.36	1787.88
580.55	1849.32
580.75	1757.16
580.94	1695.72
581.13	1769.44
581.33	1918.95
581.52	1740.77
581.72	1853.41
581.91	1800.16
582.11	1734.63
582.30	1794.02
582.49	1759.21
582.69	1800.16
582.88	1787.88
583.08	1777.64
583.27	1845.22
583.47	1787.88
583.66	1681.38
583.85	1607.66
584.05	1746.92
584.24	1736.68
584.44	1775.59
584.63	1837.03
584.82	1800.16
585.02	1806.31
585.21	1779.68
585.41	1826.79
585.60	1861.60
585.79	1880.04
585.99	1904.61
586.18	1781.73
586.37	2226.14
586.57	3282.89
586.76	9660.27
586.96	24163.98
587.15	34125.30
587.34	40365.46
587.54	41833.86
587.73	36197.85
587.93	26074.74
588.12	21495.48
588.31	18429.67
588.51	16336.65
588.70	15095.58
588.89	13872.94
589.09	12670.78
589.28	11030.36
589.47	9439.09
589.67	7927.69
589.86	6502.30
590.06	4986.80
590.25	3952.58
590.44	3028.95
590.64	2525.15
590.83	2263.01
591.02	2082.78
591.22	1920.99
591.41	1916.90
591.60	1851.36
591.80	1923.04
591.99	1746.92
592.18	1828.84
592.38	1843.17
592.57	1693.67
592.76	1710.05
592.96	1796.07
593.15	1781.73
593.34	1816.55
593.54	1746.92
593.73	1791.97
593.92	1681.38
594.12	1798.12
594.31	1751.01
594.50	1806.31
594.70	1724.39
594.89	1841.12
595.08	1775.59
595.28	1767.40
595.47	1951.71
595.66	1757.16
595.86	1714.15
596.05	1755.11
596.24	1748.97
596.43	1828.84
596.63	1847.27
596.82	1751.01
597.01	1691.62
597.21	1808.36
597.40	1816.55
597.59	1722.34
597.79	1734.63
597.98	1775.59
598.17	1722.34
598.36	1730.53
598.56	1708.01
598.75	1667.05
598.94	1751.01
599.14	1720.29
599.33	1689.57
599.52	1789.92
599.71	1806.31
599.91	1742.82
600.10	1798.12
600.29	1751.01
600.48	1705.96
600.68	1787.88
600.87	1716.20
601.06	1742.82
601.26	1632.23
601.45	1781.73
601.64	1693.67
601.83	1798.12
602.03	1687.53
602.22	1718.25
602.41	1820.64
602.60	1855.46
602.80	1789.92
602.99	1810.40
603.18	1675.24
603.37	1708.01
603.57	1777.64
603.76	1781.73
603.95	1812.45
604.14	1720.29
604.34	1697.77
604.53	1708.01
604.72	1777.64
604.91	1728.49
605.10	1740.77
605.30	1648.61
605.49	1843.17
605.68	1800.16
605.87	1787.88
606.07	1650.66
606.26	1748.97
606.45	1708.01
606.64	1757.16
606.84	1705.96
607.03	1757.16
607.22	1740.77
607.41	1677.29
607.60	1769.44
607.80	1767.40
607.99	1771.49
608.18	1755.11
608.37	1679.33
608.56	1650.66
608.76	1789.92
608.95	1832.93
609.14	1708.01
609.33	1771.49
609.52	1800.16
609.72	1751.01
609.91	1787.88
610.10	1724.39
610.29	1869.80
610.48	1757.16
610.68	1742.82
610.87	1601.51
611.06	1718.25
611.25	1714.15
611.44	1789.92
611.63	1751.01
611.83	1779.68
612.02	1669.09
612.21	1814.50
612.40	1689.57
612.59	1701.86
612.79	1658.85
612.98	1705.96
613.17	1865.70
613.36	1669.09
613.55	1808.36
613.74	1708.01
613.93	1697.77
614.13	1667.05
614.32	1796.07
614.51	1757.16
614.70	1720.29
614.89	1656.81
615.08	1769.44
615.28	2041.82
615.47	1695.72
615.66	1712.10
615.85	1767.40
616.04	1806.31
616.23	1765.35
616.42	1712.10
616.62	1730.53
616.81	1759.21
617.00	1718.25
617.19	1716.20
617.38	1673.19
617.57	1699.81
617.76	1771.49
617.95	1791.97
618.15	1738.73
618.34	1830.88
618.53	1658.85
618.72	1712.10
618.91	1765.35
619.10	1773.54
619.29	1710.05
619.48	1740.77
619.68	1673.19
619.87	1767.40
620.06	1605.61
620.25	1701.86
620.44	1791.97
620.63	1724.39
620.82	1767.40
621.01	1769.44
621.20	1654.76
621.39	1714.15
621.59	1626.09
621.78	1763.30
621.97	1697.77
622.16	1718.25
622.35	1730.53
622.54	1791.97
622.73	1757.16
622.92	1681.38
623.11	1732.58
623.30	1742.82
623.49	1761.25
623.68	1724.39
623.88	1748.97
624.07	1658.85
624.26	1679.33
624.45	1740.77
624.64	1710.05
624.83	1742.82
625.02	1722.34
625.21	1789.92
625.40	1726.44
625.59	1804.26
625.78	1751.01
625.97	1781.73
626.16	1867.75
626.35	1779.68
626.54	1738.73
626.74	1769.44
626.93	1714.15
627.12	1681.38
627.31	1767.40
627.50	1685.48
627.69	1722.34
627.88	1783.78
628.07	1746.92
628.26	1705.96
628.45	1718.25
628.64	1701.86
628.83	1755.11
629.02	1728.49
629.21	1757.16
629.40	1675.24
629.59	1646.57
629.78	1693.67
629.97	1718.25
630.16	1667.05
630.35	1755.11
630.54	1703.91
630.73	1689.57
630.92	1800.16
631.11	1626.09
631.30	1765.35
631.49	1718.25
631.68	1734.63
631.87	1732.58
632.06	1611.75
632.25	1808.36
632.44	1755.11
632.63	1804.26
632.82	1705.96
633.01	1658.85
633.20	1771.49
633.39	1656.81
633.58	1619.94
633.77	1755.11
633.96	1714.15
634.15	1705.96
634.34	1724.39
634.53	1771.49
634.72	1757.16
634.91	1710.05
635.10	1722.34
635.29	1695.72
635.48	1699.81
635.67	1689.57
635.86	1636.33
636.05	1816.55
636.24	1703.91
636.43	1732.58
636.62	1757.16
636.81	1615.85
637.00	1722.34
637.19	1683.43
637.38	1771.49
637.57	1716.20
637.76	1652.71
637.95	1708.01
638.14	1660.90
638.33	1656.81
638.52	1732.58
638.71	1646.57
638.89	1699.81
639.08	1816.55
639.27	1806.31
639.46	1746.92
639.65	1755.11
639.84	1732.58
640.03	1796.07
640.22	1724.39
640.41	1834.98
640.60	1712.10
640.79	1738.73
640.98	1665.00
641.17	1691.62
641.36	1697.77
641.55	1705.96
641.74	1624.04
641.92	1658.85
642.11	1632.23
642.30	1726.44
642.49	1634.28
642.68	1705.96
642.87	1748.97
643.06	1673.19
643.25	1689.57
643.44	1660.90
643.63	1681.38
643.82	1771.49
644.00	1673.19
644.19	1675.24
644.38	1628.14
644.57	1730.53
644.76	1755.11
644.95	1689.57
645.14	1751.01
645.33	1675.24
645.52	1781.73
645.71	1677.29
645.89	1630.18
646.08	1742.82
646.27	1693.67
646.46	1861.60
646.65	1660.90
646.84	1783.78
647.03	1667.05
647.22	1757.16
647.40	1730.53
647.59	1689.57
647.78	1603.56
647.97	1628.14
648.16	1765.35
648.35	1804.26
648.54	1794.02
648.73	1626.09
648.91	1732.58
649.10	1765.35
649.29	1667.05
649.48	1685.48
649.67	1777.64
649.86	1701.86
650.05	1665.00
650.23	1765.35
650.42	1662.95
650.61	1697.77
650.80	1714.15
650.99	1894.37
651.18	1710.05
651.36	1753.06
651.55	1691.62
651.74	1771.49
651.93	1695.72
652.12	1757.16
652.31	1730.53
652.49	1751.01
652.68	1685.48
652.87	1681.38
653.06	1710.05
653.25	1806.31
653.44	1673.19
653.62	1755.11
653.81	1710.05
654.00	1722.34
654.19	1669.09
654.38	1812.45
654.56	1800.16
654.75	1722.34
654.94	1726.44
655.13	1744.87
655.32	1730.53
655.51	1691.62
655.69	1554.41
655.88	1808.36
656.07	1656.81
656.26	1755.11
656.45	1654.76
656.63	1695.72
656.82	1759.21
657.01	1814.50
657.20	1703.91
657.38	1806.31
657.57	1656.81
657.76	1628.14
657.95	1732.58
658.14	1687.53
658.32	1746.92
658.51	1701.86
658.70	1751.01
658.89	1697.77
659.08	1685.48
659.26	1859.56
659.45	1712.10
659.64	1759.21
659.83	1730.53
660.01	1898.47
660.20	1757.16
660.39	1777.64
660.58	1591.27
660.76	1761.25
660.95	1634.28
661.14	1716.20
661.33	1609.70
661.51	1712.10
661.70	1640.42
661.89	1732.58
662.08	1691.62
662.26	1669.09
662.45	1691.62
662.64	1794.02
662.83	1716.20
663.01	1691.62
663.20	1669.09
663.39	1753.06
663.58	1679.33
663.76	1751.01
663.95	1665.00
664.14	1705.96
664.32	1681.38
664.51	1722.34
664.70	1691.62
664.89	1740.77
665.07	1677.29
665.26	1746.92
665.45	1654.76
665.64	1742.82
665.82	1695.72
666.01	1730.53
666.20	1722.34
666.38	1771.49
666.57	1781.73
666.76	2162.66
666.95	4399.04
667.13	10147.69
667.32	15124.25
667.51	17293.05
667.69	19021.53
667.88	17352.44
668.07	12146.50
668.25	9512.81
668.44	8081.28
668.63	7198.61
668.81	6789.02
669.00	6182.82
669.19	5734.31
669.38	5048.24
669.56	4605.88
669.75	4036.55
669.94	3366.86
670.12	2826.20
670.31	2516.95
670.50	2211.81
670.68	2033.63
670.87	1945.57
671.06	1779.68
671.24	1748.97
671.43	1875.94
671.62	1751.01
671.80	1693.67
671.99	1736.68
672.18	1740.77
672.36	1724.39
672.55	1712.10
672.74	1687.53
672.92	1630.18
673.11	1820.64
673.29	1675.24
673.48	1726.44
673.67	1708.01
673.85	1777.64
674.04	1689.57
674.23	1701.86
674.41	1820.64
674.60	1689.57
674.79	1556.46
674.97	1667.05
675.16	1847.27
675.34	1753.06
675.53	1687.53
675.72	1671.14
675.90	1841.12
676.09	1628.14
676.28	1722.34
676.46	1607.66
676.65	1660.90
676.83	1669.09
677.02	1646.57
677.21	1730.53
677.39	1638.38
677.58	1685.48
677.77	1665.00
677.95	1693.67
678.14	1708.01
678.32	1705.96
678.51	1689.57
678.70	1847.27
678.88	1683.43
679.07	1755.11
679.25	1667.05
679.44	1734.63
679.63	1673.19
679.81	1708.01
680.00	1703.91
680.18	1734.63
680.37	1810.40
680.55	1746.92
680.74	1677.29
680.93	1550.31
681.11	1677.29
681.30	1742.82
681.48	1687.53
681.67	1689.57
681.85	1695.72
682.04	1724.39
682.23	1732.58
682.41	1716.20
682.60	1632.23
682.78	1681.38
682.97	1726.44
683.15	1755.11
683.34	1773.54
683.53	1814.50
683.71	1638.38
683.90	1773.54
684.08	1808.36
684.27	1734.63
684.45	1712.10
684.64	1800.16
684.82	1765.35
685.01	1693.67
685.19	1748.97
685.38	1695.72
685.57	1701.86
685.75	1662.95
685.94	1734.63
686.12	1675.24
686.31	1744.87
686.49	1732.58
686.68	1613.80
686.86	1662.95
687.05	1714.15
687.23	1757.16
687.42	1630.18
687.60	1603.56
687.79	1763.30
687.97	1775.59
688.16	1779.68
688.34	1722.34
688.53	1638.38
688.71	1736.68
688.90	1757.16
689.08	1691.62
689.27	1628.14
689.45	1765.35
689.64	1740.77
689.82	1732.58
690.01	1761.25
690.19	1683.43
690.38	1726.44
690.56	1824.74
690.75	1621.99
690.93	1648.61
691.12	1691.62
691.30	1654.76
691.49	1642.47
691.67	1757.16
691.86	1771.49
692.04	1628.14
692.23	1677.29
692.41	1722.34
692.60	1742.82
692.78	1662.95
692.97	1675.24
693.15	1730.53
693.34	1845.22
693.52	1679.33
693.71	1697.77
693.89	1689.57
694.08	1591.27
694.26	1695.72
694.44	1785.83
694.63	1738.73
694.81	1693.67
695.00	1656.81
695.18	1800.16
695.37	1855.46
695.55	1658.85
695.74	1630.18
695.92	1675.24
696.10	1798.12
696.29	1658.85
696.47	1677.29
696.66	1685.48
696.84	1658.85
697.03	1779.68
697.21	1849.32
697.40	2256.86
697.58	1796.07
697.76	1691.62
697.95	1685.48
698.13	1685.48
698.32	1642.47
698.50	1646.57
698.68	1728.49
698.87	1673.19
699.05	1806.31
699.24	1746.92
699.42	1624.04
699.61	1683.43
699.79	1718.25
699.97	1722.34
700.16	1640.42
700.34	1617.90
700.53	1712.10
700.71	1785.83
700.89	1720.29
701.08	1695.72
701.26	1644.52
701.45	2103.26
701.63	1650.66
701.81	1746.92
702.00	1683.43
702.18	1769.44
702.37	1644.52
702.55	1796.07
702.73	1771.49
702.92	1699.81
703.10	1746.92
703.28	1728.49
703.47	1595.37
703.65	1748.97
703.84	1726.44
704.02	1638.38
704.20	1773.54
704.39	1677.29
704.57	1708.01
704.75	1740.77
704.94	1671.14
705.12	1746.92
705.30	1816.55
705.49	2295.77
705.67	4321.21
705.86	9219.96
706.04	12595.01
706.22	14698.27
706.41	15210.26
706.59	13545.27
706.77	9592.69
706.96	7382.93
707.14	6594.46
707.32	5930.92
707.51	5572.52
707.69	4935.60
707.87	4200.38
708.06	3551.18
708.24	2965.46
708.42	2402.27
708.61	2312.16
708.79	1855.46
708.97	1806.31
709.16	1800.16
709.34	1820.64
709.52	1695.72
709.71	1722.34
709.89	1687.53
710.07	1701.86
710.26	1714.15
710.44	1710.05
710.62	1732.58
710.80	1699.81
710.99	1755.11
711.17	1738.73
711.35	1712.10
711.54	1679.33
711.72	1736.68
711.90	1718.25
712.09	1705.96
712.27	1703.91
712.45	1757.16
712.63	1722.34
712.82	1685.48
713.00	1581.03
713.18	1810.40
713.37	1710.05
713.55	1722.34
713.73	1714.15
713.91	1687.53
714.10	1636.33
714.28	1755.11
714.46	1695.72
714.65	1701.86
714.83	1714.15
715.01	1730.53
715.19	1718.25
715.38	1689.57
715.56	1697.77
715.74	1609.70
715.92	1646.57
716.11	1767.40
716.29	1589.22
716.47	1705.96
716.65	1644.52
716.84	1636.33
717.02	1689.57
717.20	1613.80
717.38	1634.28
717.57	1617.90
717.75	1710.05
717.93	1638.38
718.11	1734.63
718.30	1630.18
718.48	1753.06
718.66	1820.64
718.84	1757.16
719.03	1730.53
719.21	1642.47
719.39	1886.18
719.57	1791.97
719.75	1697.77
719.94	1728.49
720.12	1716.20
720.30	1691.62
720.48	1761.25
720.67	1656.81
720.85	1669.09
721.03	1748.97
721.21	1648.61
721.39	1708.01
721.58	1724.39
721.76	1714.15
721.94	1751.01
722.12	1724.39
722.30	1802.21
722.49	1654.76
722.67	1710.05
722.85	1730.53
723.03	1597.42
723.21	1636.33
723.40	1722.34
723.58	1761.25
723.76	1728.49
723.94	1755.11
724.12	1710.05
724.30	1753.06
724.49	1691.62
724.67	1675.24
724.85	1718.25
725.03	1685.48
725.21	1755.11
725.40	1751.01
725.58	1644.52
725.76	1800.16
725.94	1679.33
726.12	1658.85
726.30	1652.71
726.49	1638.38
726.67	1705.96
726.85	1689.57
727.03	1767.40
727.21	2140.13
727.39	2877.40
727.57	3715.02
727.76	4136.90
727.94	4286.40
728.12	4290.49
728.30	3598.28
728.48	3018.71
728.66	2750.42
728.84	2547.67
729.03	2344.92
729.21	2222.05
729.39	2050.02
729.57	1783.78
729.75	1841.12
729.93	1730.53
730.11	1738.73
730.30	1724.39
730.48	1660.90
730.66	1828.84
730.84	1761.25
731.02	1759.21
731.20	1683.43
731.38	1681.38
731.56	1669.09
731.74	1671.14
731.93	1714.15
732.11	1703.91
732.29	1736.68
732.47	1771.49
732.65	1683.43
732.83	1773.54
733.01	1736.68
733.19	1628.14
733.37	1697.77
733.56	1677.29
733.74	1683.43
733.92	1834.98
734.10	1681.38
734.28	1816.55
734.46	1613.80
734.64	1683.43
734.82	1708.01
735.00	1621.99
735.18	1662.95
735.36	1767.40
735.54	1699.81
735.73	1722.34
735.91	1708.01
736.09	1699.81
736.27	1716.20
736.45	1734.63
736.63	1644.52
736.81	1652.71
736.99	1748.97
737.17	1794.02
737.35	1574.89
737.53	1755.11
737.71	1677.29
737.89	1705.96
738.07	1662.95
738.25	1644.52
738.43	1644.52
738.61	1648.61
738.80	1591.27
738.98	1621.99
739.16	1689.57
739.34	1722.34
739.52	1728.49
739.70	1759.21
739.88	1710.05
740.06	1693.67
740.24	1583.08
740.42	1767.40
740.60	1660.90
740.78	1697.77
740.96	1636.33
741.14	1660.90
741.32	1751.01
741.50	1640.42
741.68	1814.50
741.86	1765.35
742.04	1609.70
742.22	1656.81
742.40	1652.71
742.58	1753.06
742.76	1673.19
742.94	1775.59
743.12	1673.19
743.30	1734.63
743.48	1621.99
743.66	1607.66
743.84	1730.53
744.02	1701.86
744.20	1722.34
744.38	1615.85
744.56	1693.67
744.74	1744.87
744.92	1771.49
745.10	1734.63
745.28	1677.29
745.46	1742.82
745.64	1673.19
745.82	1722.34
746.00	1744.87
746.18	1640.42
746.36	1677.29
746.54	1736.68
746.72	1714.15
746.90	1683.43
747.08	1839.08
747.26	1712.10
747.44	1769.44
747.62	1791.97
747.80	1648.61
747.98	1708.01
748.15	1685.48
748.33	1816.55
748.51	1640.42
748.69	1712.10
748.87	1669.09
749.05	1687.53
749.23	1701.86
749.41	1746.92
749.59	1665.00
749.77	1697.77
749.95	1634.28
750.13	1693.67
750.31	1748.97
750.49	1695.72
750.67	1810.40
750.85	1759.21
751.03	1703.91
751.20	1759.21
751.38	1755.11
751.56	1648.61
751.74	1689.57
751.92	1695.72
752.10	1699.81
752.28	1787.88
752.46	1613.80
752.64	1724.39
752.82	1703.91
753.00	1693.67
753.18	1701.86
753.35	1654.76
753.53	1671.14
753.71	1697.77
753.89	1677.29
754.07	1730.53
754.25	1759.21
754.43	1624.04
754.61	1660.90
754.79	1730.53
754.97	1685.48
755.14	1808.36
755.32	1560.55
755.50	1646.57
755.68	1730.53
755.86	1603.56
756.04	1679.33
756.22	1615.85
756.40	1746.92
756.57	1798.12
756.75	1619.94
756.93	1732.58
757.11	1753.06
757.29	1576.94
757.47	1716.20
757.65	1632.23
757.82	1652.71
758.00	1640.42
758.18	1695.72
758.36	1648.61
758.54	1816.55
758.72	1669.09
758.90	1783.78
759.07	1697.77
759.25	1595.37
759.43	1734.63
759.61	1652.71
759.79	2273.25
759.97	1671.14
760.15	1636.33
760.32	1630.18
760.50	1755.11
760.68	1806.31
760.86	1669.09
761.04	1796.07
761.22	1767.40
761.39	1650.66
761.57	1726.44
761.75	1677.29
761.93	1712.10
762.11	1708.01
762.28	1726.44
762.46	1648.61
762.64	1703.91
762.82	1634.28
763.00	1740.77
763.18	1732.58
763.35	1603.56
763.53	1687.53
763.71	1705.96
763.89	1734.63
764.07	1681.38
764.24	1665.00
764.42	1757.16
764.60	1658.85
764.78	1718.25
764.96	1751.01
765.13	1738.73
765.31	1677.29
765.49	1791.97
765.67	1667.05
765.84	1667.05
766.02	1652.71
766.20	1591.27
766.38	1712.10
766.56	1683.43
766.73	1783.78
766.91	1648.61
767.09	1654.76
767.27	1810.40
767.44	1636.33
767.62	1761.25
767.80	1699.81
767.98	1679.33
768.15	1669.09
768.33	1716.20
768.51	1742.82
768.69	1681.38
768.87	1675.24
769.04	1701.86
769.22	1781.73
769.40	1810.40
769.58	1877.99
769.75	1736.68
769.93	1701.86
770.11	1644.52
770.28	1662.95
770.46	1736.68
770.64	1689.57
770.82	1650.66
770.99	1656.81
771.17	1724.39
771.35	1691.62
771.53	1646.57
771.70	1656.81
771.88	1767.40
772.06	1738.73
772.23	1638.38
772.41	1712.10
772.59	1710.05
772.77	1644.52
772.94	1722.34
773.12	1691.62
773.30	1591.27
773.47	1675.24
773.65	1554.41
773.83	1785.83
774.01	1691.62
774.18	1572.84
774.36	1751.01
774.54	1650.66
774.71	1746.92
774.89	1595.37
775.07	1615.85
775.24	1693.67
775.42	1642.47
775.60	1851.36
775.78	1677.29
775.95	1583.08
776.13	1611.75
776.31	1642.47
776.48	1765.35
776.66	1755.11
776.84	1724.39
777.01	1640.42
777.19	1648.61
777.37	1724.39
777.54	1693.67
777.72	1863.65
777.90	1738.73
778.07	1665.00
778.25	1839.08
778.43	1732.58
778.60	1693.67
778.78	1763.30
778.96	1759.21
779.13	1632.23
779.31	1837.03
779.49	1728.49
779.66	1783.78
779.84	1710.05
780.01	1689.57
780.19	1628.14
780.37	1722.34
780.54	1787.88
780.72	1699.81
780.90	1685.48
781.07	1681.38
781.25	1658.85
781.43	1751.01
781.60	1658.85
781.78	1742.82
781.95	1685.48
782.13	1652.71
782.31	1701.86
782.48	1613.80
782.66	1658.85
782.83	1839.08
783.01	1679.33
783.19	1712.10
783.36	1738.73
783.54	1599.46
783.72	1755.11
783.89	1599.46
784.07	1755.11
784.24	1779.68
784.42	1740.77
784.60	1744.87
784.77	1718.25
784.95	1593.32
785.12	1634.28
785.30	1736.68
785.47	1644.52
785.65	1640.42
785.83	1718.25
786.00	1665.00
786.18	1736.68
786.35	1648.61
786.53	1720.29
786.71	1781.73
786.88	1765.35
787.06	1710.05
787.23	1695.72
787.41	1619.94
787.58	1703.91
787.76	1691.62
787.94	1708.01
788.11	1591.27
788.29	1656.81
788.46	1644.52
788.64	1624.04
788.81	1675.24
788.99	1714.15
789.16	1699.81
789.34	1708.01
789.52	1630.18
789.69	1626.09
789.87	1615.85
790.04	1628.14
790.22	1669.09
790.39	1736.68
790.57	1621.99
790.74	1642.47
790.92	1705.96
791.09	1611.75
791.27	1658.85
791.44	1718.25
791.62	1703.91
791.79	1681.38
791.97	1636.33
792.15	1875.94
792.32	1697.77
792.50	1767.40
792.67	1796.07
792.85	1820.64
793.02	1744.87
793.20	1746.92
793.37	1632.23
793.55	1685.48
793.72	1609.70
793.90	1695.72
794.07	1650.66
794.25	1628.14
794.42	1755.11
794.60	1710.05
794.77	1802.21
794.95	1724.39
795.12	1818.60
795.30	1740.77
795.47	1605.61
795.65	1837.03
795.82	1687.53
796.00	1560.55
796.17	1669.09
796.34	1724.39
796.52	1677.29
796.69	1697.77
796.87	1691.62
797.04	1732.58
797.22	1675.24
797.39	1699.81
797.57	1726.44
797.74	1697.77
797.92	1710.05
798.09	1662.95
798.27	1820.64
798.44	1726.44
798.62	1640.42
798.79	1773.54
798.96	1624.04
799.14	1687.53
799.31	1839.08
799.49	1634.28
799.66	1687.53
799.84	1673.19
800.01	1632.23
800.19	1730.53
800.36	1607.66
800.53	1662.95
800.71	1660.90
800.88	1783.78
801.06	1624.04
801.23	1662.95
801.41	1628.14
801.58	1662.95
801.75	1687.53
801.93	1710.05
802.10	1738.73
802.28	1665.00
802.45	1636.33
802.63	1787.88
802.80	1748.97
802.97	1640.42
803.15	1718.25
803.32	1599.46
803.50	1654.76
803.67	1689.57
803.84	1634.28
804.02	1687.53
804.19	1753.06
804.37	1542.12
804.54	1585.13
804.71	1681.38
804.89	1646.57
805.06	1617.90
805.24	1650.66
805.41	1607.66
805.58	1589.22
805.76	1820.64
805.93	1753.06
806.10	1759.21
806.28	1699.81
806.45	1714.15
806.63	1722.34
806.80	1742.82
806.97	1681.38
807.15	1658.85
807.32	1712.10
807.49	1753.06
807.67	1587.18
807.84	1732.58
808.01	1642.47
808.19	1755.11
808.36	1769.44
808.54	1656.81
808.71	1699.81
808.88	1675.24
809.06	1724.39
809.23	1722.34
809.40	1667.05
809.58	1699.81
809.75	1679.33
809.92	1763.30
810.10	1814.50
810.27	1593.32
810.44	1683.43
810.62	1753.06
810.79	1685.48
810.96	1658.85
811.14	1624.04
811.31	1757.16
811.48	1673.19
811.66	1624.04
811.83	1769.44
812.00	1744.87
812.18	1675.24
812.35	1812.45
812.52	1679.33
812.69	1703.91
812.87	1734.63
813.04	1650.66
813.21	1710.05
813.39	1605.61
813.56	1662.95
813.73	1732.58
813.91	1658.85
814.08	1732.58
814.25	1728.49
814.42	1611.75
814.60	1597.42
814.77	1716.20
814.94	1738.73
815.12	1705.96
815.29	1798.12
815.46	1712.10
815.63	1763.30
815.81	1667.05
815.98	1689.57
816.15	1701.86
816.33	1685.48
816.50	1644.52
816.67	1642.47
816.84	1748.97
817.02	1654.76
817.19	1628.14
817.36	1677.29
817.53	1748.97
817.71	1701.86
817.88	1751.01
818.05	1691.62
818.22	1716.20
818.40	1708.01
818.57	1642.47
818.74	1798.12
818.91	1695.72
819.09	1767.40
819.26	1816.55
819.43	1650.66
819.60	1642.47
819.78	1755.11
819.95	1791.97
820.12	1640.42
820.29	1755.11
820.47	1759.21
820.64	1740.77
820.81	1685.48
820.98	1681.38
821.15	1603.56
821.33	1738.73
821.50	1677.29
821.67	1640.42
821.84	1681.38
822.02	1710.05
822.19	1767.40
822.36	1572.84
822.53	1658.85
822.70	1599.46
822.88	1730.53
823.05	1722.34
823.22	1652.71
823.39	1744.87
823.56	1726.44
823.74	1753.06
823.91	1624.04
824.08	1648.61
824.25	1685.48
824.42	1740.77
824.60	1585.13
824.77	1771.49
824.94	1619.94
825.11	1642.47
825.28	1581.03
825.45	1789.92
825.63	1738.73
825.80	1642.47
825.97	1720.29
826.14	1642.47
826.31	1648.61
826.48	1679.33
826.66	1720.29
826.83	1726.44
827.00	1699.81
827.17	1673.19
827.34	1685.48
827.51	1665.00
827.69	1630.18
827.86	1613.80
828.03	1638.38
828.20	1718.25
828.37	1644.52
828.54	1730.53
828.71	1716.20
828.89	1849.32
829.06	1658.85
829.23	1787.88
829.40	1679.33
829.57	1624.04
829.74	1695.72
829.91	1697.77
830.09	1699.81
830.26	1765.35
830.43	1740.77
830.60	1675.24
830.77	1746.92
830.94	1769.44
831.11	1810.40
831.28	1679.33
831.46	1738.73
831.63	1613.80
831.80	1769.44
831.97	1652.71
832.14	1675.24
832.31	1740.77
832.48	1646.57
832.65	1742.82
832.82	1714.15
832.99	1730.53
833.17	1644.52
833.34	1785.83
833.51	1742.82
833.68	1603.56
833.85	1718.25
834.02	1638.38
834.19	1599.46
834.36	1681.38
834.53	1581.03
834.70	1779.68
834.87	1742.82
835.04	1804.26
835.22	1615.85
835.39	1714.15
835.56	1642.47
835.73	1654.76
835.90	1732.58
836.07	1626.09
836.24	1738.73
836.41	1662.95
836.58	1650.66
836.75	1769.44
836.92	1730.53
837.09	1679.33
837.26	1648.61
837.43	1738.73
837.60	1689.57
837.77	1689.57
837.94	1705.96
838.12	1777.64
838.29	1656.81
838.46	1601.51
838.63	1603.56
838.80	1794.02
838.97	1734.63
839.14	1658.85
839.31	1724.39
839.48	1714.15
839.65	1615.85
839.82	1755.11
839.99	1681.38
840.16	1753.06
840.33	1693.67
840.50	1695.72
840.67	1646.57
840.84	1624.04
841.01	1705.96
841.18	1697.77
841.35	1650.66
841.52	1771.49
841.69	1830.88
841.86	1677.29
842.03	1699.81
842.20	1759.21
842.37	1660.90
842.54	1697.77
842.71	1730.53
842.88	1544.17
843.05	1679.33
843.22	1619.94
843.39	1716.20
843.56	1621.99
843.73	1658.85
843.90	1615.85
844.07	1650.66
844.24	1642.47
844.41	1726.44
844.58	1695.72
844.75	1632.23
844.92	1755.11
845.09	1673.19
845.26	1675.24
845.43	1718.25
845.60	1726.44
845.77	1791.97
845.94	1716.20
846.10	1679.33
846.27	1619.94
846.44	1599.46
846.61	1626.09
846.78	1673.19
846.95	1777.64
847.12	1714.15
847.29	1658.85
847.46	1652.71
847.63	1697.77
847.80	1679.33
847.97	1679.33
848.14	1791.97
848.31	1665.00
848.48	1607.66
848.65	1665.00
848.82	1697.77
848.98	1855.46
849.15	1738.73
849.32	1677.29
849.49	1658.85
849.66	1724.39
849.83	1679.33
850.00	1574.89
850.17	1712.10
850.34	1697.77
850.51	1652.71
850.68	1636.33
850.85	1757.16
851.01	1693.67
851.18	1714.15
851.35	1669.09
851.52	1705.96
851.69	1802.21
851.86	1583.08
852.03	1665.00
852.20	1736.68
852.37	1681.38
852.53	1652.71
852.70	1691.62
852.87	1626.09
853.04	1746.92
853.21	1630.18
853.38	1769.44
853.55	1748.97
853.72	1761.25
853.89	1673.19
854.05	1726.44
854.22	1701.86
854.39	1658.85
854.56	1738.73
854.73	1753.06
854.90	1626.09
855.07	1705.96
855.23	1615.85
855.40	1681.38
855.57	1757.16
855.74	1535.98
855.91	1886.18
856.08	1644.52
856.25	1617.90
856.41	1660.90
856.58	1687.53
856.75	1599.46
856.92	1699.81
857.09	1742.82
857.26	1603.56
857.42	1648.61
857.59	1734.63
857.76	1597.42
857.93	1716.20
858.10	1708.01
858.27	1630.18
858.43	1673.19
858.60	1656.81
858.77	1583.08
858.94	1701.86
859.11	1798.12
859.27	1695.72
859.44	1722.34
859.61	1779.68
859.78	1697.77
859.95	1636.33
860.12	1634.28
860.28	1802.21
860.45	1800.16
860.62	1687.53
860.79	1683.43
860.95	1757.16
861.12	1708.01
861.29	1607.66
861.46	1632.23
861.63	1691.62
861.79	1665.00
861.96	1687.53
862.13	1642.47
862.30	1736.68
862.47	1648.61
862.63	1638.38
862.80	1787.88
862.97	1716.20
863.14	1705.96
863.30	1660.90
863.47	1648.61
863.64	1787.88
863.81	1767.40
863.97	1673.19
864.14	1771.49
864.31	1736.68
864.48	1732.58
864.65	1669.09
864.81	1748.97
864.98	1728.49
865.15	1755.11
865.32	1710.05
865.48	1701.86
865.65	1759.21
865.82	1550.31
865.98	1800.16
866.15	1738.73
866.32	1767.40
866.49	1619.94
866.65	1728.49
866.82	1619.94
866.99	1669.09
867.16	1675.24
867.32	1599.46
867.49	1648.61
867.66	1712.10
867.83	1681.38
867.99	1642.47
868.16	1693.67
868.33	1646.57
868.49	1685.48
868.66	1687.53
868.83	1734.63
868.99	1671.14
869.16	1679.33
869.33	1734.63
869.50	1789.92
869.66	1628.14
869.83	1689.57
870.00	1583.08
870.16	1708.01
870.33	1691.62
870.50	1769.44
870.66	1714.15
870.83	1736.68
871.00	1705.96
871.17	1763.30
871.33	1716.20
871.50	1665.00
871.67	1574.89
871.83	1718.25
872.00	1818.60
872.17	1687.53
872.33	1742.82
872.50	1755.11
872.67	1660.90
872.83	1654.76
873.00	1662.95
873.17	1730.53
873.33	1726.44
873.50	1699.81
873.67	1617.90
873.83	1656.81
874.00	1728.49
874.16	1779.68
874.33	1638.38
874.50	1712.10
874.66	1691.62
874.83	1677.29
875.00	1763.30
875.16	1732.58
875.33	1728.49
875.50	1591.27
875.66	1689.57
875.83	1773.54
875.99	1732.58
876.16	1656.81
876.33	1679.33
876.49	1675.24
876.66	1726.44
876.83	1628.14
876.99	1669.09
877.16	1687.53
877.32	1683.43
877.49	1642.47
877.66	1705.96
877.82	1787.88
877.99	1757.16
878.15	1722.34
878.32	1703.91
878.49	1695.72
878.65	1718.25
878.82	1808.36
878.98	1644.52
879.15	1736.68
879.32	1789.92
879.48	1615.85
879.65	1703.91
879.81	1621.99
879.98	1703.91
880.15	1669.09
880.31	1705.96
880.48	1632.23
880.64	1779.68
880.81	1669.09
880.97	1697.77
881.14	1783.78
881.31	1634.28
881.47	1785.83
881.64	1630.18
881.80	1632.23
881.97	1710.05
882.13	1728.49
882.30	1603.56
882.47	1667.05
882.63	1644.52
882.80	1650.66
882.96	1677.29
883.13	1783.78
883.29	1699.81
883.46	1683.43
883.62	1816.55
883.79	1660.90
883.95	1767.40
884.12	1734.63
884.29	1695.72
884.45	1847.27
884.62	1652.71
884.78	1656.81
884.95	1773.54
885.11	1687.53
885.28	1742.82
885.44	1648.61
885.61	1685.48
885.77	1732.58
885.94	1724.39
886.10	1712.10
886.27	1740.77
886.43	1832.93
886.60	1679.33
886.76	1671.14
886.93	1613.80
887.09	1773.54
887.26	1615.85
887.42	1691.62
887.59	1724.39
887.75	1820.64
887.92	1791.97
888.08	1742.82
888.25	1767.40
888.41	1806.31
888.58	1685.48
888.74	1550.31
888.91	1550.31
>>>>>End Processed Spectral Data<<<<<
