SpectraSuite Data File
++++++++++++++++++++++++++++++++++++
Date: Mon Jun 06 15:32:57 CEST 2016
User: root
Dark Spectrum Present: No
Reference Spectrum Present: No
Number of Sampled Component Spectra: 1
Spectrometers: USB4C02835
Integration Time (usec): 100000 (USB4C02835)
Spectra Averaged: 1 (USB4C02835)
Boxcar Smoothing: 0 (USB4C02835)
Correct for Electrical Dark: No (USB4C02835)
Strobe/Lamp Enabled: No (USB4C02835)
Correct for Detector Non-linearity: No (USB4C02835)
Correct for Stray Light: No (USB4C02835)
Number of Pixels in Processed Spectrum: 3648
>>>>>Begin Processed Spectral Data<<<<<
177.47	1505.26
177.69	1505.26
177.91	1505.26
178.13	1464.30
178.36	1445.87
178.58	1691.62
178.80	1794.02
179.02	1665.00
179.24	1632.23
179.46	1681.38
179.68	1691.62
179.90	1712.10
180.13	1677.29
180.35	1687.53
180.57	1687.53
180.79	1779.68
181.01	1705.96
181.23	1761.25
181.45	1787.88
181.67	1693.67
181.90	1791.97
182.12	1660.90
182.34	1638.38
182.56	1734.63
182.78	1746.92
183.00	1746.92
183.22	1775.59
183.44	1615.85
183.66	1863.65
183.89	1812.45
184.11	1740.77
184.33	1724.39
184.55	1808.36
184.77	1757.16
184.99	1691.62
185.21	1705.96
185.43	1861.60
185.65	1689.57
185.87	1689.57
186.10	1837.03
186.32	1898.47
186.54	1673.19
186.76	1699.81
186.98	1757.16
187.20	1710.05
187.42	1736.68
187.64	1714.15
187.86	1681.38
188.08	1841.12
188.30	1671.14
188.52	1722.34
188.75	1748.97
188.97	1812.45
189.19	1648.61
189.41	1640.42
189.63	1732.58
189.85	1730.53
190.07	1613.80
190.29	1630.18
190.51	1662.95
190.73	1658.85
190.95	1742.82
191.17	1730.53
191.39	1705.96
191.61	1619.94
191.84	1660.90
192.06	1734.63
192.28	1615.85
192.50	1914.85
192.72	1687.53
192.94	1718.25
193.16	1734.63
193.38	1783.78
193.60	1693.67
193.82	1740.77
194.04	1804.26
194.26	1703.91
194.48	1665.00
194.70	1673.19
194.92	1683.43
195.14	1724.39
195.36	1726.44
195.58	1718.25
195.80	1681.38
196.02	1683.43
196.24	1665.00
196.46	1724.39
196.69	1695.72
196.91	1853.41
197.13	1699.81
197.35	1712.10
197.57	1902.56
197.79	1798.12
198.01	1789.92
198.23	1783.78
198.45	1783.78
198.67	1673.19
198.89	1718.25
199.11	1781.73
199.33	1720.29
199.55	1605.61
199.77	1687.53
199.99	1781.73
200.21	1609.70
200.43	1669.09
200.65	1652.71
200.87	1609.70
201.09	1744.87
201.31	1734.63
201.53	1759.21
201.75	1757.16
201.97	1755.11
202.19	1722.34
202.41	1748.97
202.63	1822.69
202.85	1773.54
203.07	1730.53
203.29	1677.29
203.51	1714.15
203.73	1689.57
203.95	1968.10
204.17	1673.19
204.39	1800.16
204.61	1667.05
204.83	1691.62
205.05	1775.59
205.27	1767.40
205.49	1861.60
205.71	1714.15
205.93	1675.24
206.15	1665.00
206.37	1677.29
206.59	1675.24
206.81	1642.47
207.03	1662.95
207.25	1640.42
207.47	1810.40
207.69	1687.53
207.91	1804.26
208.13	1767.40
208.34	1763.30
208.56	1744.87
208.78	1675.24
209.00	1648.61
209.22	1718.25
209.44	1716.20
209.66	1673.19
209.88	1689.57
210.10	1724.39
210.32	1687.53
210.54	1753.06
210.76	1683.43
210.98	1759.21
211.20	1638.38
211.42	1628.14
211.64	1751.01
211.86	1691.62
212.08	1677.29
212.30	1738.73
212.52	1699.81
212.74	1652.71
212.96	1693.67
213.17	1755.11
213.39	1708.01
213.61	1818.60
213.83	1791.97
214.05	1671.14
214.27	1769.44
214.49	1671.14
214.71	1720.29
214.93	1720.29
215.15	1718.25
215.37	1812.45
215.59	1634.28
215.81	1726.44
216.03	1845.22
216.24	1765.35
216.46	1621.99
216.68	1697.77
216.90	1861.60
217.12	1773.54
217.34	1787.88
217.56	1732.58
217.78	1726.44
218.00	1820.64
218.22	1705.96
218.44	1755.11
218.66	1677.29
218.87	1777.64
219.09	1720.29
219.31	1751.01
219.53	1748.97
219.75	1699.81
219.97	1628.14
220.19	1785.83
220.41	1701.86
220.63	1820.64
220.85	1761.25
221.06	1699.81
221.28	1867.75
221.50	1732.58
221.72	1751.01
221.94	1697.77
222.16	1767.40
222.38	1763.30
222.60	1687.53
222.82	1693.67
223.03	1789.92
223.25	1722.34
223.47	1667.05
223.69	1853.41
223.91	1761.25
224.13	1648.61
224.35	1722.34
224.57	1779.68
224.78	1773.54
225.00	1654.76
225.22	1656.81
225.44	1611.75
225.66	1726.44
225.88	1628.14
226.10	1748.97
226.32	1714.15
226.53	1724.39
226.75	1677.29
226.97	1740.77
227.19	1722.34
227.41	1685.48
227.63	1724.39
227.85	1634.28
228.06	1789.92
228.28	1648.61
228.50	1779.68
228.72	1589.22
228.94	1667.05
229.16	1634.28
229.37	1597.42
229.59	1687.53
229.81	1855.46
230.03	1726.44
230.25	1656.81
230.47	1703.91
230.69	1572.84
230.90	1796.07
231.12	1667.05
231.34	1751.01
231.56	1763.30
231.78	1675.24
232.00	1685.48
232.21	1724.39
232.43	1662.95
232.65	1703.91
232.87	1748.97
233.09	1636.33
233.30	1693.67
233.52	1767.40
233.74	1724.39
233.96	1669.09
234.18	1732.58
234.40	1636.33
234.61	1873.89
234.83	1650.66
235.05	1660.90
235.27	1853.41
235.49	1757.16
235.70	1677.29
235.92	1763.30
236.14	1800.16
236.36	1849.32
236.58	1650.66
236.79	1746.92
237.01	1724.39
237.23	1667.05
237.45	1794.02
237.67	1628.14
237.88	1763.30
238.10	1826.79
238.32	1742.82
238.54	1710.05
238.76	1718.25
238.97	1673.19
239.19	1644.52
239.41	1763.30
239.63	1798.12
239.85	1687.53
240.06	1730.53
240.28	1691.62
240.50	1740.77
240.72	1732.58
240.93	1716.20
241.15	1742.82
241.37	1759.21
241.59	1802.21
241.81	1677.29
242.02	1689.57
242.24	1742.82
242.46	1710.05
242.68	1669.09
242.89	1740.77
243.11	1697.77
243.33	1701.86
243.55	1763.30
243.76	1773.54
243.98	1697.77
244.20	1781.73
244.42	1716.20
244.64	1697.77
244.85	1693.67
245.07	1636.33
245.29	1718.25
245.51	1730.53
245.72	1728.49
245.94	1697.77
246.16	1705.96
246.38	1771.49
246.59	1640.42
246.81	1626.09
247.03	1730.53
247.24	1619.94
247.46	1714.15
247.68	1718.25
247.90	1728.49
248.11	1648.61
248.33	1730.53
248.55	1767.40
248.77	1738.73
248.98	1769.44
249.20	1808.36
249.42	1705.96
249.64	1738.73
249.85	1689.57
250.07	1675.24
250.29	1763.30
250.50	1705.96
250.72	1585.13
250.94	1718.25
251.16	1824.74
251.37	1759.21
251.59	1759.21
251.81	1751.01
252.02	1773.54
252.24	1646.57
252.46	1769.44
252.68	1716.20
252.89	1705.96
253.11	1681.38
253.33	1828.84
253.54	1759.21
253.76	1624.04
253.98	1624.04
254.20	1691.62
254.41	1619.94
254.63	1644.52
254.85	1607.66
255.06	1732.58
255.28	1746.92
255.50	1665.00
255.71	1656.81
255.93	1578.98
256.15	1699.81
256.36	1765.35
256.58	1708.01
256.80	1781.73
257.02	1753.06
257.23	1751.01
257.45	1728.49
257.67	1732.58
257.88	1769.44
258.10	1712.10
258.32	1708.01
258.53	1812.45
258.75	1773.54
258.97	1738.73
259.18	1779.68
259.40	1738.73
259.62	1837.03
259.83	1814.50
260.05	1765.35
260.27	2029.54
260.48	1710.05
260.70	1650.66
260.92	1662.95
261.13	1681.38
261.35	1687.53
261.57	1656.81
261.78	1632.23
262.00	1640.42
262.22	1751.01
262.43	1667.05
262.65	1730.53
262.86	1679.33
263.08	1851.36
263.30	1648.61
263.51	1644.52
263.73	1669.09
263.95	1748.97
264.16	1705.96
264.38	1708.01
264.60	1740.77
264.81	1603.56
265.03	1804.26
265.25	1816.55
265.46	1779.68
265.68	1716.20
265.89	1753.06
266.11	1656.81
266.33	1787.88
266.54	1834.98
266.76	1744.87
266.98	1742.82
267.19	1886.18
267.41	1693.67
267.62	1701.86
267.84	1617.90
268.06	1710.05
268.27	1665.00
268.49	1763.30
268.70	1726.44
268.92	1689.57
269.14	1708.01
269.35	1609.70
269.57	1773.54
269.79	1775.59
270.00	1689.57
270.22	1765.35
270.43	1671.14
270.65	1525.74
270.87	1775.59
271.08	1771.49
271.30	1804.26
271.51	1763.30
271.73	1736.68
271.95	1804.26
272.16	1759.21
272.38	1804.26
272.59	1687.53
272.81	1728.49
273.02	1775.59
273.24	1740.77
273.46	1771.49
273.67	1669.09
273.89	1624.04
274.10	1712.10
274.32	1773.54
274.54	1705.96
274.75	1730.53
274.97	1705.96
275.18	1744.87
275.40	1652.71
275.61	1716.20
275.83	1722.34
276.05	1644.52
276.26	1718.25
276.48	1777.64
276.69	1619.94
276.91	1714.15
277.12	1775.59
277.34	1738.73
277.55	1779.68
277.77	1732.58
277.99	1712.10
278.20	1619.94
278.42	1730.53
278.63	1652.71
278.85	1632.23
279.06	1665.00
279.28	1720.29
279.49	1708.01
279.71	1712.10
279.93	1693.67
280.14	1712.10
280.36	1607.66
280.57	1789.92
280.79	1861.60
281.00	1658.85
281.22	1611.75
281.43	1816.55
281.65	1624.04
281.86	1683.43
282.08	1701.86
282.29	1783.78
282.51	1662.95
282.73	1683.43
282.94	1617.90
283.16	1761.25
283.37	1791.97
283.59	1732.58
283.80	1728.49
284.02	1695.72
284.23	1722.34
284.45	1726.44
284.66	1734.63
284.88	1695.72
285.09	1714.15
285.31	1742.82
285.52	1730.53
285.74	1619.94
285.95	1714.15
286.17	1632.23
286.38	1722.34
286.60	1681.38
286.81	1634.28
287.03	1783.78
287.24	1665.00
287.46	1718.25
287.67	1796.07
287.89	1832.93
288.10	1755.11
288.32	1771.49
288.53	1824.74
288.75	1667.05
288.96	1796.07
289.18	1724.39
289.39	1677.29
289.61	1796.07
289.82	1812.45
290.04	1845.22
290.25	1617.90
290.47	1748.97
290.68	1728.49
290.90	1687.53
291.11	1679.33
291.33	1732.58
291.54	1720.29
291.76	1662.95
291.97	1718.25
292.18	1751.01
292.40	1621.99
292.61	1689.57
292.83	1855.46
293.04	1681.38
293.26	1734.63
293.47	1714.15
293.69	1636.33
293.90	1701.86
294.12	1677.29
294.33	1720.29
294.55	1742.82
294.76	1775.59
294.97	1802.21
295.19	1834.98
295.40	1703.91
295.62	1724.39
295.83	1781.73
296.05	1703.91
296.26	1718.25
296.48	1783.78
296.69	1748.97
296.90	1703.91
297.12	1738.73
297.33	1734.63
297.55	1798.12
297.76	1753.06
297.98	1712.10
298.19	1755.11
298.41	1650.66
298.62	1759.21
298.83	1802.21
299.05	1718.25
299.26	1708.01
299.48	1732.58
299.69	1800.16
299.90	1722.34
300.12	1748.97
300.33	1822.69
300.55	1734.63
300.76	1769.44
300.98	1685.48
301.19	1769.44
301.40	1685.48
301.62	1685.48
301.83	1658.85
302.05	1726.44
302.26	1695.72
302.47	1712.10
302.69	1703.91
302.90	1738.73
303.12	1634.28
303.33	1761.25
303.54	1785.83
303.76	1722.34
303.97	1718.25
304.19	1740.77
304.40	1730.53
304.61	1740.77
304.83	1880.04
305.04	1804.26
305.26	1697.77
305.47	1648.61
305.68	1712.10
305.90	1671.14
306.11	1759.21
306.33	1734.63
306.54	1744.87
306.75	1673.19
306.97	1611.75
307.18	1671.14
307.39	1736.68
307.61	1734.63
307.82	1601.51
308.04	1802.21
308.25	1697.77
308.46	1705.96
308.68	1630.18
308.89	1787.88
309.10	1755.11
309.32	1710.05
309.53	1724.39
309.74	1701.86
309.96	1703.91
310.17	1791.97
310.39	1576.94
310.60	1755.11
310.81	1716.20
311.03	1697.77
311.24	1748.97
311.45	1736.68
311.67	1855.46
311.88	1718.25
312.09	1656.81
312.31	1732.58
312.52	1669.09
312.73	1703.91
312.95	1632.23
313.16	1640.42
313.37	1763.30
313.59	1785.83
313.80	1726.44
314.01	1847.27
314.23	1703.91
314.44	1732.58
314.65	1642.47
314.87	1708.01
315.08	1738.73
315.29	1718.25
315.51	1662.95
315.72	1710.05
315.93	1806.31
316.15	1816.55
316.36	1697.77
316.57	1646.57
316.79	1708.01
317.00	1763.30
317.21	1671.14
317.43	1685.48
317.64	1738.73
317.85	1701.86
318.07	1650.66
318.28	1787.88
318.49	1841.12
318.70	1943.52
318.92	1816.55
319.13	1802.21
319.34	1841.12
319.56	1796.07
319.77	1822.69
319.98	1814.50
320.20	1746.92
320.41	1699.81
320.62	1789.92
320.83	1718.25
321.05	1857.51
321.26	1794.02
321.47	1753.06
321.69	1828.84
321.90	1665.00
322.11	1746.92
322.32	1712.10
322.54	1796.07
322.75	1648.61
322.96	1812.45
323.18	1644.52
323.39	1632.23
323.60	1642.47
323.81	1695.72
324.03	1689.57
324.24	1714.15
324.45	1738.73
324.66	1701.86
324.88	1808.36
325.09	1806.31
325.30	1679.33
325.52	1730.53
325.73	1703.91
325.94	1724.39
326.15	1640.42
326.37	1665.00
326.58	1748.97
326.79	1804.26
327.00	1652.71
327.22	1746.92
327.43	1693.67
327.64	1650.66
327.85	1738.73
328.07	1734.63
328.28	1808.36
328.49	1667.05
328.70	1675.24
328.92	1681.38
329.13	1675.24
329.34	1789.92
329.55	1710.05
329.76	1748.97
329.98	1683.43
330.19	1841.12
330.40	1705.96
330.61	1820.64
330.83	1828.84
331.04	1681.38
331.25	1716.20
331.46	1675.24
331.68	1691.62
331.89	1771.49
332.10	1767.40
332.31	1660.90
332.52	1710.05
332.74	1830.88
332.95	1619.94
333.16	1724.39
333.37	1724.39
333.58	1693.67
333.80	1726.44
334.01	1560.55
334.22	1660.90
334.43	1695.72
334.64	1699.81
334.86	1685.48
335.07	1669.09
335.28	1839.08
335.49	1658.85
335.70	1730.53
335.92	1730.53
336.13	1865.70
336.34	1742.82
336.55	1685.48
336.76	1753.06
336.98	1644.52
337.19	1726.44
337.40	1816.55
337.61	1900.52
337.82	1693.67
338.04	1746.92
338.25	1595.37
338.46	1718.25
338.67	1732.58
338.88	1699.81
339.09	1642.47
339.31	1685.48
339.52	1679.33
339.73	1656.81
339.94	1763.30
340.15	1642.47
340.36	1652.71
340.58	1703.91
340.79	1695.72
341.00	1806.31
341.21	1681.38
341.42	1871.84
341.63	1703.91
341.85	1773.54
342.06	1671.14
342.27	1703.91
342.48	1783.78
342.69	1675.24
342.90	1681.38
343.12	1769.44
343.33	1681.38
343.54	1732.58
343.75	1808.36
343.96	1662.95
344.17	1656.81
344.38	1705.96
344.60	1624.04
344.81	1691.62
345.02	1724.39
345.23	1769.44
345.44	1824.74
345.65	1759.21
345.86	1673.19
346.07	1738.73
346.29	1648.61
346.50	1701.86
346.71	1740.77
346.92	1777.64
347.13	1871.84
347.34	1710.05
347.55	1814.50
347.76	1722.34
347.98	1701.86
348.19	1710.05
348.40	1785.83
348.61	1728.49
348.82	1787.88
349.03	1794.02
349.24	1652.71
349.45	1777.64
349.66	1540.07
349.88	1738.73
350.09	1687.53
350.30	1757.16
350.51	1816.55
350.72	1652.71
350.93	1744.87
351.14	1730.53
351.35	1744.87
351.56	1685.48
351.77	1644.52
351.99	1742.82
352.20	1841.12
352.41	1757.16
352.62	1533.93
352.83	1710.05
353.04	1669.09
353.25	1734.63
353.46	1755.11
353.67	1742.82
353.88	1613.80
354.09	1740.77
354.30	1742.82
354.52	1777.64
354.73	1679.33
354.94	1650.66
355.15	1787.88
355.36	1826.79
355.57	1660.90
355.78	1673.19
355.99	1736.68
356.20	1615.85
356.41	1851.36
356.62	1751.01
356.83	1726.44
357.04	1822.69
357.25	1636.33
357.46	1753.06
357.68	1589.22
357.89	1621.99
358.10	1687.53
358.31	1720.29
358.52	1769.44
358.73	1654.76
358.94	1722.34
359.15	1613.80
359.36	1726.44
359.57	1640.42
359.78	1642.47
359.99	1681.38
360.20	1724.39
360.41	1746.92
360.62	1830.88
360.83	1681.38
361.04	1724.39
361.25	1728.49
361.46	1789.92
361.67	1753.06
361.88	1708.01
362.09	1779.68
362.30	1697.77
362.51	1693.67
362.72	1767.40
362.93	1781.73
363.14	1785.83
363.35	1640.42
363.56	1675.24
363.78	1722.34
363.99	1740.77
364.20	1755.11
364.41	1773.54
364.62	1783.78
364.83	1757.16
365.04	1677.29
365.25	1728.49
365.46	1781.73
365.67	1662.95
365.88	1658.85
366.09	1673.19
366.30	1574.89
366.51	1681.38
366.72	1650.66
366.93	1738.73
367.14	1755.11
367.35	1787.88
367.56	1722.34
367.77	1869.80
367.98	1724.39
368.18	1716.20
368.39	1615.85
368.60	1689.57
368.81	1744.87
369.02	1804.26
369.23	1746.92
369.44	1642.47
369.65	1710.05
369.86	1738.73
370.07	1785.83
370.28	1671.14
370.49	1742.82
370.70	1746.92
370.91	1677.29
371.12	1660.90
371.33	1712.10
371.54	1728.49
371.75	1794.02
371.96	1593.32
372.17	1648.61
372.38	1738.73
372.59	1720.29
372.80	1761.25
373.01	1744.87
373.22	1722.34
373.43	1777.64
373.64	1683.43
373.85	1753.06
374.06	1808.36
374.26	1708.01
374.47	1775.59
374.68	1767.40
374.89	1724.39
375.10	1669.09
375.31	1802.21
375.52	1632.23
375.73	1640.42
375.94	1738.73
376.15	1812.45
376.36	1712.10
376.57	1648.61
376.78	1724.39
376.99	1718.25
377.20	1738.73
377.40	1701.86
377.61	1830.88
377.82	1738.73
378.03	1779.68
378.24	1779.68
378.45	1710.05
378.66	1679.33
378.87	1572.84
379.08	1626.09
379.29	1734.63
379.50	1757.16
379.71	1660.90
379.91	1769.44
380.12	1763.30
380.33	1748.97
380.54	1779.68
380.75	1671.14
380.96	1691.62
381.17	1761.25
381.38	1746.92
381.59	1757.16
381.80	1761.25
382.00	1904.61
382.21	1675.24
382.42	1941.47
382.63	1900.52
382.84	1656.81
383.05	1812.45
383.26	1806.31
383.47	1746.92
383.68	1789.92
383.88	1755.11
384.09	1796.07
384.30	1708.01
384.51	1730.53
384.72	1718.25
384.93	1667.05
385.14	1679.33
385.35	1796.07
385.55	1726.44
385.76	1771.49
385.97	1656.81
386.18	1708.01
386.39	1714.15
386.60	1644.52
386.81	1705.96
387.02	1687.53
387.22	1630.18
387.43	1843.17
387.64	1810.40
387.85	1851.36
388.06	2273.25
388.27	4263.87
388.48	6723.48
388.68	8200.07
388.89	9824.11
389.10	9801.58
389.31	8648.57
389.52	7612.30
389.73	6655.90
389.93	6406.05
390.14	5838.76
390.35	5210.03
390.56	4603.83
390.77	3657.67
390.98	2969.55
391.18	2549.72
391.39	2097.12
391.60	1828.84
391.81	1847.27
392.02	1712.10
392.23	1849.32
392.43	1703.91
392.64	1808.36
392.85	1794.02
393.06	1873.89
393.27	1710.05
393.47	1675.24
393.68	1691.62
393.89	1667.05
394.10	1789.92
394.31	1656.81
394.52	1660.90
394.72	1703.91
394.93	1714.15
395.14	1693.67
395.35	1701.86
395.56	1689.57
395.76	1748.97
395.97	1806.31
396.18	1865.70
396.39	1826.79
396.60	2023.39
396.80	1925.09
397.01	1892.32
397.22	1841.12
397.43	1841.12
397.64	1744.87
397.84	1867.75
398.05	1804.26
398.26	1744.87
398.47	1880.04
398.67	1859.56
398.88	1763.30
399.09	1791.97
399.30	1669.09
399.51	1767.40
399.71	1656.81
399.92	1765.35
400.13	1705.96
400.34	1703.91
400.54	1720.29
400.75	1798.12
400.96	1798.12
401.17	1888.23
401.37	1769.44
401.58	1753.06
401.79	1746.92
402.00	1826.79
402.21	1978.34
402.41	1998.82
402.62	1978.34
402.83	2019.30
403.04	1964.00
403.24	2117.60
403.45	1886.18
403.66	1933.28
403.87	1920.99
404.07	1953.76
404.28	1927.14
404.49	1980.39
404.70	1777.64
404.90	1757.16
405.11	1775.59
405.32	1761.25
405.52	1724.39
405.73	1646.57
405.94	1673.19
406.15	1738.73
406.35	1705.96
406.56	1869.80
406.77	1732.58
406.98	1667.05
407.18	1677.29
407.39	1708.01
407.60	1765.35
407.80	1667.05
408.01	1656.81
408.22	1669.09
408.43	1640.42
408.63	1746.92
408.84	1740.77
409.05	1806.31
409.25	1652.71
409.46	1724.39
409.67	1703.91
409.88	1650.66
410.08	1734.63
410.29	1775.59
410.50	1720.29
410.70	1701.86
410.91	1599.46
411.12	1718.25
411.32	1742.82
411.53	1626.09
411.74	1839.08
411.95	1757.16
412.15	1744.87
412.36	1798.12
412.57	1787.88
412.77	1826.79
412.98	1734.63
413.19	1726.44
413.39	1816.55
413.60	1757.16
413.81	1808.36
414.01	1626.09
414.22	1761.25
414.43	1791.97
414.63	1773.54
414.84	1767.40
415.05	1730.53
415.25	1648.61
415.46	1767.40
415.67	1767.40
415.87	1800.16
416.08	1726.44
416.29	1748.97
416.49	1767.40
416.70	1716.20
416.91	1689.57
417.11	1695.72
417.32	1775.59
417.53	1812.45
417.73	1794.02
417.94	1732.58
418.15	1787.88
418.35	1710.05
418.56	1697.77
418.77	1818.60
418.97	1677.29
419.18	1691.62
419.38	1624.04
419.59	1703.91
419.80	1820.64
420.00	1720.29
420.21	1751.01
420.42	1845.22
420.62	1722.34
420.83	1734.63
421.04	1742.82
421.24	1699.81
421.45	1755.11
421.65	1703.91
421.86	1697.77
422.07	1759.21
422.27	1660.90
422.48	1763.30
422.69	1687.53
422.89	1736.68
423.10	1697.77
423.30	1654.76
423.51	1759.21
423.72	1677.29
423.92	1785.83
424.13	1658.85
424.33	1779.68
424.54	1757.16
424.75	1746.92
424.95	1816.55
425.16	1765.35
425.36	1665.00
425.57	1718.25
425.78	1746.92
425.98	1812.45
426.19	1667.05
426.39	1689.57
426.60	1808.36
426.81	1861.60
427.01	1728.49
427.22	1689.57
427.42	1624.04
427.63	1628.14
427.83	1751.01
428.04	1828.84
428.25	1849.32
428.45	1810.40
428.66	1800.16
428.86	1712.10
429.07	1695.72
429.28	1751.01
429.48	1710.05
429.69	1689.57
429.89	1830.88
430.10	1712.10
430.30	1730.53
430.51	1802.21
430.71	1652.71
430.92	1681.38
431.13	1646.57
431.33	1746.92
431.54	1699.81
431.74	1804.26
431.95	1894.37
432.15	1701.86
432.36	1708.01
432.56	1763.30
432.77	1759.21
432.98	1882.08
433.18	1791.97
433.39	1726.44
433.59	1640.42
433.80	1806.31
434.00	1828.84
434.21	1689.57
434.41	1681.38
434.62	1812.45
434.82	1646.57
435.03	1673.19
435.23	1781.73
435.44	1597.42
435.64	1691.62
435.85	1671.14
436.06	1761.25
436.26	1849.32
436.47	1726.44
436.67	1671.14
436.88	1753.06
437.08	1789.92
437.29	1763.30
437.49	1734.63
437.70	1812.45
437.90	1732.58
438.11	1892.32
438.31	1771.49
438.52	1847.27
438.72	1853.41
438.93	1906.66
439.13	1808.36
439.34	1802.21
439.54	1787.88
439.75	1763.30
439.95	1822.69
440.16	1722.34
440.36	1730.53
440.57	1785.83
440.77	1746.92
440.98	1742.82
441.18	1755.11
441.39	1677.29
441.59	1677.29
441.80	1775.59
442.00	1724.39
442.21	1767.40
442.41	1654.76
442.62	1791.97
442.82	1673.19
443.02	1789.92
443.23	1736.68
443.43	1822.69
443.64	1751.01
443.84	1685.48
444.05	1812.45
444.25	1791.97
444.46	1755.11
444.66	1767.40
444.87	1800.16
445.07	1597.42
445.28	1730.53
445.48	1800.16
445.69	1820.64
445.89	1839.08
446.09	1724.39
446.30	2009.06
446.50	2670.55
446.71	3610.57
446.91	4265.92
447.12	4775.86
447.32	4863.93
447.53	4210.62
447.73	3823.56
447.93	3553.23
448.14	3286.99
448.34	3385.29
448.55	2932.69
448.75	2877.40
448.96	2680.79
449.16	2455.51
449.36	2267.10
449.57	1988.58
449.77	1912.80
449.98	1742.82
450.18	1732.58
450.39	1845.22
450.59	1828.84
450.79	1826.79
451.00	1751.01
451.20	1820.64
451.41	1710.05
451.61	1802.21
451.81	1759.21
452.02	1730.53
452.22	1742.82
452.43	1812.45
452.63	1726.44
452.84	1783.78
453.04	1734.63
453.24	1710.05
453.45	1763.30
453.65	1718.25
453.86	1763.30
454.06	1746.92
454.26	1726.44
454.47	1761.25
454.67	1861.60
454.87	1783.78
455.08	1689.57
455.28	1808.36
455.49	1763.30
455.69	1681.38
455.89	1804.26
456.10	1796.07
456.30	1726.44
456.51	1849.32
456.71	1689.57
456.91	1787.88
457.12	1730.53
457.32	1734.63
457.52	1693.67
457.73	1789.92
457.93	1765.35
458.14	1728.49
458.34	1652.71
458.54	1671.14
458.75	1742.82
458.95	1785.83
459.15	1771.49
459.36	1771.49
459.56	1791.97
459.76	1845.22
459.97	1738.73
460.17	1755.11
460.37	1822.69
460.58	1730.53
460.78	1722.34
460.99	1712.10
461.19	1796.07
461.39	1710.05
461.60	1787.88
461.80	1812.45
462.00	1648.61
462.21	1728.49
462.41	1759.21
462.61	1693.67
462.82	1597.42
463.02	1765.35
463.22	1708.01
463.43	1779.68
463.63	1722.34
463.83	1777.64
464.04	1755.11
464.24	1765.35
464.44	1695.72
464.64	1695.72
464.85	1771.49
465.05	1832.93
465.25	1814.50
465.46	1708.01
465.66	1736.68
465.86	1791.97
466.07	1724.39
466.27	1712.10
466.47	1626.09
466.68	1701.86
466.88	1843.17
467.08	1730.53
467.29	1789.92
467.49	1779.68
467.69	1791.97
467.89	1783.78
468.10	1710.05
468.30	1822.69
468.50	1791.97
468.71	1732.58
468.91	1687.53
469.11	1826.79
469.31	1724.39
469.52	1744.87
469.72	1880.04
469.92	1904.61
470.13	1705.96
470.33	1761.25
470.53	1851.36
470.73	2078.69
470.94	2334.68
471.14	2279.39
471.34	2613.21
471.54	2357.21
471.75	2203.61
471.95	2162.66
472.15	2086.88
472.36	2185.18
472.56	2144.22
472.76	2076.64
472.96	2017.25
473.17	1988.58
473.37	1964.00
473.57	1761.25
473.77	1751.01
473.98	1775.59
474.18	1744.87
474.38	1826.79
474.58	1685.48
474.79	1779.68
474.99	1697.77
475.19	1832.93
475.39	1699.81
475.60	1751.01
475.80	1822.69
476.00	1728.49
476.20	1748.97
476.41	1722.34
476.61	1896.42
476.81	1877.99
477.01	1671.14
477.21	1908.71
477.42	1826.79
477.62	1654.76
477.82	1775.59
478.02	1738.73
478.23	1742.82
478.43	1687.53
478.63	1681.38
478.83	1718.25
479.03	1767.40
479.24	1812.45
479.44	1828.84
479.64	1687.53
479.84	1640.42
480.04	1632.23
480.25	1777.64
480.45	1720.29
480.65	1738.73
480.85	1828.84
481.06	1681.38
481.26	1781.73
481.46	1753.06
481.66	1761.25
481.86	1740.77
482.06	1783.78
482.27	1660.90
482.47	1763.30
482.67	1726.44
482.87	1718.25
483.07	1808.36
483.28	1673.19
483.48	1722.34
483.68	1748.97
483.88	1619.94
484.08	1519.59
484.29	1689.57
484.49	1701.86
484.69	1767.40
484.89	1847.27
485.09	1808.36
485.29	1779.68
485.50	1771.49
485.70	1689.57
485.90	1802.21
486.10	1728.49
486.30	1755.11
486.50	1796.07
486.71	1773.54
486.91	1783.78
487.11	1800.16
487.31	1611.75
487.51	1765.35
487.71	1662.95
487.91	1689.57
488.12	1689.57
488.32	1626.09
488.52	1730.53
488.72	1646.57
488.92	1689.57
489.12	1832.93
489.32	1767.40
489.53	1759.21
489.73	1658.85
489.93	1841.12
490.13	1705.96
490.33	1699.81
490.53	1722.34
490.73	1814.50
490.94	1671.14
491.14	1771.49
491.34	1845.22
491.54	2113.50
491.74	2564.06
491.94	3024.85
492.14	3016.66
492.34	2975.70
492.54	2738.13
492.75	2459.61
492.95	2404.32
493.15	2295.77
493.35	2232.29
493.55	2275.29
493.75	2146.27
493.95	2119.65
494.15	2002.91
494.35	1972.19
494.56	1910.75
494.76	1820.64
494.96	1785.83
495.16	1796.07
495.36	1765.35
495.56	1683.43
495.76	1710.05
495.96	1779.68
496.16	1689.57
496.36	1812.45
496.56	1837.03
496.77	1800.16
496.97	1746.92
497.17	1873.89
497.37	1671.14
497.57	1746.92
497.77	1736.68
497.97	1685.48
498.17	1748.97
498.37	1669.09
498.57	1724.39
498.77	1734.63
498.97	1820.64
499.17	1816.55
499.38	1679.33
499.58	1697.77
499.78	1822.69
499.98	1771.49
500.18	1757.16
500.38	1720.29
500.58	1918.95
500.78	2553.82
500.98	4394.94
501.18	5793.70
501.38	6825.88
501.58	7163.79
501.78	6522.78
501.98	5590.95
502.18	5046.20
502.38	4419.52
502.58	4165.57
502.78	3747.78
502.98	3692.49
503.18	3391.44
503.38	3176.40
503.59	2836.44
503.79	2772.95
503.99	2463.71
504.19	2338.78
504.39	2222.05
504.59	2154.46
504.79	2213.85
504.99	2072.54
505.19	1845.22
505.39	1982.43
505.59	1964.00
505.79	1947.62
505.99	1802.21
506.19	1857.51
506.39	1898.47
506.59	1738.73
506.79	1753.06
506.99	1814.50
507.19	1820.64
507.39	1798.12
507.59	1665.00
507.79	1730.53
507.99	1669.09
508.19	1738.73
508.39	1689.57
508.59	1728.49
508.79	1843.17
508.99	1791.97
509.19	1689.57
509.39	1884.13
509.59	1634.28
509.79	1726.44
509.99	1771.49
510.19	1777.64
510.39	1800.16
510.59	1746.92
510.79	1751.01
510.99	1644.52
511.19	1785.83
511.39	1794.02
511.59	1822.69
511.79	1820.64
511.99	1759.21
512.19	1779.68
512.38	1771.49
512.58	1689.57
512.78	1800.16
512.98	1804.26
513.18	1877.99
513.38	1601.51
513.58	1785.83
513.78	1710.05
513.98	1740.77
514.18	1748.97
514.38	1714.15
514.58	1851.36
514.78	1705.96
514.98	1730.53
515.18	1710.05
515.38	1695.72
515.58	1877.99
515.78	1697.77
515.98	1755.11
516.18	1798.12
516.38	1736.68
516.57	1777.64
516.77	1726.44
516.97	1705.96
517.17	1751.01
517.37	1681.38
517.57	1869.80
517.77	1779.68
517.97	1703.91
518.17	1845.22
518.37	1722.34
518.57	1738.73
518.77	1699.81
518.97	1755.11
519.16	1779.68
519.36	1773.54
519.56	1744.87
519.76	1728.49
519.96	1791.97
520.16	1824.74
520.36	1738.73
520.56	1888.23
520.76	1648.61
520.96	1761.25
521.16	1738.73
521.35	1742.82
521.55	1859.56
521.75	1824.74
521.95	1714.15
522.15	1796.07
522.35	1632.23
522.55	1703.91
522.75	1837.03
522.95	1757.16
523.14	1685.48
523.34	1806.31
523.54	1740.77
523.74	1898.47
523.94	1769.44
524.14	1677.29
524.34	1822.69
524.54	1804.26
524.73	1712.10
524.93	1851.36
525.13	1742.82
525.33	1648.61
525.53	1873.89
525.73	1767.40
525.93	1765.35
526.13	1771.49
526.32	1744.87
526.52	1824.74
526.72	1859.56
526.92	1710.05
527.12	1697.77
527.32	1675.24
527.52	1789.92
527.71	1757.16
527.91	1742.82
528.11	1761.25
528.31	1775.59
528.51	1683.43
528.71	1789.92
528.90	1728.49
529.10	1794.02
529.30	1794.02
529.50	1650.66
529.70	1771.49
529.90	1724.39
530.09	1691.62
530.29	1691.62
530.49	1736.68
530.69	1845.22
530.89	1755.11
531.09	1738.73
531.28	1681.38
531.48	1822.69
531.68	1755.11
531.88	1722.34
532.08	1738.73
532.28	1748.97
532.47	1822.69
532.67	1708.01
532.87	1708.01
533.07	1697.77
533.27	1871.84
533.46	1800.16
533.66	1763.30
533.86	1730.53
534.06	1695.72
534.26	1771.49
534.45	1710.05
534.65	1789.92
534.85	1861.60
535.05	1675.24
535.25	1765.35
535.44	1730.53
535.64	1775.59
535.84	1775.59
536.04	1734.63
536.24	1710.05
536.43	1773.54
536.63	1789.92
536.83	1722.34
537.03	1746.92
537.22	1677.29
537.42	1652.71
537.62	1800.16
537.82	1714.15
538.02	1816.55
538.21	1771.49
538.41	1978.34
538.61	1771.49
538.81	1720.29
539.00	1794.02
539.20	1699.81
539.40	1740.77
539.60	1757.16
539.79	1761.25
539.99	1783.78
540.19	1718.25
540.39	1820.64
540.58	1763.30
540.78	1781.73
540.98	1763.30
541.18	1794.02
541.37	1808.36
541.57	1761.25
541.77	1751.01
541.97	1681.38
542.16	1671.14
542.36	1757.16
542.56	1611.75
542.76	1849.32
542.95	1685.48
543.15	1757.16
543.35	1779.68
543.54	1695.72
543.74	1826.79
543.94	1798.12
544.14	1767.40
544.33	1826.79
544.53	1667.05
544.73	1726.44
544.93	1794.02
545.12	1744.87
545.32	1763.30
545.52	1751.01
545.71	1656.81
545.91	1710.05
546.11	1763.30
546.30	1642.47
546.50	1687.53
546.70	1787.88
546.90	1847.27
547.09	1621.99
547.29	1685.48
547.49	1755.11
547.68	1736.68
547.88	1714.15
548.08	1697.77
548.27	2181.09
548.47	1667.05
548.67	1738.73
548.87	1761.25
549.06	1732.58
549.26	1738.73
549.46	1728.49
549.65	1714.15
549.85	1753.06
550.05	1859.56
550.24	1685.48
550.44	1730.53
550.64	1724.39
550.83	1748.97
551.03	1777.64
551.23	1845.22
551.42	1839.08
551.62	1705.96
551.82	1689.57
552.01	1777.64
552.21	1777.64
552.41	1757.16
552.60	1810.40
552.80	1730.53
553.00	1689.57
553.19	1783.78
553.39	1832.93
553.59	1699.81
553.78	1886.18
553.98	1732.58
554.17	1673.19
554.37	1740.77
554.57	1855.46
554.76	1708.01
554.96	1718.25
555.16	1726.44
555.35	1712.10
555.55	1785.83
555.75	1712.10
555.94	1738.73
556.14	1681.38
556.33	1789.92
556.53	1755.11
556.73	1767.40
556.92	1718.25
557.12	1796.07
557.32	1886.18
557.51	1828.84
557.71	1771.49
557.90	1828.84
558.10	1845.22
558.30	1748.97
558.49	1763.30
558.69	1740.77
558.88	1837.03
559.08	1800.16
559.28	1806.31
559.47	1691.62
559.67	1806.31
559.86	1918.95
560.06	1771.49
560.26	1746.92
560.45	1808.36
560.65	1783.78
560.84	1820.64
561.04	1722.34
561.24	1726.44
561.43	1718.25
561.63	1818.60
561.82	1744.87
562.02	1794.02
562.22	1636.33
562.41	1763.30
562.61	1779.68
562.80	1744.87
563.00	1826.79
563.19	1708.01
563.39	1751.01
563.59	1769.44
563.78	1779.68
563.98	1591.27
564.17	1740.77
564.37	1658.85
564.56	1730.53
564.76	1665.00
564.96	1759.21
565.15	1751.01
565.35	1918.95
565.54	1738.73
565.74	1798.12
565.93	1796.07
566.13	1808.36
566.32	1800.16
566.52	1841.12
566.71	1708.01
566.91	1771.49
567.11	1773.54
567.30	1740.77
567.50	1773.54
567.69	1726.44
567.89	1755.11
568.08	1658.85
568.28	1736.68
568.47	1726.44
568.67	1902.56
568.86	1708.01
569.06	1763.30
569.25	1753.06
569.45	1660.90
569.64	1683.43
569.84	1759.21
570.04	1769.44
570.23	1693.67
570.43	1699.81
570.62	1804.26
570.82	1722.34
571.01	1726.44
571.21	1742.82
571.40	1716.20
571.60	1796.07
571.79	1716.20
571.99	1767.40
572.18	1783.78
572.38	1845.22
572.57	1697.77
572.77	1812.45
572.96	1912.80
573.16	1789.92
573.35	1771.49
573.55	1849.32
573.74	1800.16
573.94	1703.91
574.13	1765.35
574.33	1826.79
574.52	1837.03
574.71	1714.15
574.91	1759.21
575.10	1691.62
575.30	1779.68
575.49	1677.29
575.69	1736.68
575.88	1804.26
576.08	1804.26
576.27	1785.83
576.47	1781.73
576.66	1828.84
576.86	1755.11
577.05	1857.51
577.25	1814.50
577.44	1871.84
577.64	1759.21
577.83	1765.35
578.02	1701.86
578.22	1912.80
578.41	1902.56
578.61	1675.24
578.80	1658.85
579.00	1777.64
579.19	1722.34
579.39	1732.58
579.58	1755.11
579.77	1796.07
579.97	1826.79
580.16	1839.08
580.36	1847.27
580.55	1859.56
580.75	1841.12
580.94	1781.73
581.13	1816.55
581.33	1808.36
581.52	1701.86
581.72	1830.88
581.91	1751.01
582.11	1689.57
582.30	1824.74
582.49	1816.55
582.69	1875.94
582.88	1855.46
583.08	1787.88
583.27	1841.12
583.47	1806.31
583.66	1658.85
583.85	1648.61
584.05	1730.53
584.24	1785.83
584.44	1744.87
584.63	1861.60
584.82	1773.54
585.02	1859.56
585.21	1910.75
585.41	1904.61
585.60	1869.80
585.79	1900.52
585.99	1896.42
586.18	1873.89
586.37	2230.24
586.57	3332.05
586.76	9932.65
586.96	24487.56
587.15	34465.27
587.34	40609.17
587.54	42044.80
587.73	36328.92
587.93	26158.70
588.12	21653.17
588.31	18450.15
588.51	16305.93
588.70	15142.68
588.89	14161.70
589.09	12721.98
589.28	10800.99
589.47	9432.94
589.67	8161.16
589.86	6467.49
590.06	4849.59
590.25	3809.22
590.44	3061.71
590.64	2557.91
590.83	2308.06
591.02	2064.35
591.22	1941.47
591.41	1877.99
591.60	1771.49
591.80	1947.62
591.99	1748.97
592.18	1802.21
592.38	1845.22
592.57	1804.26
592.76	1816.55
592.96	1800.16
593.15	1773.54
593.34	1818.60
593.54	1736.68
593.73	1812.45
593.92	1753.06
594.12	1730.53
594.31	1662.95
594.50	1857.51
594.70	1726.44
594.89	1877.99
595.08	1710.05
595.28	1804.26
595.47	1888.23
595.66	1834.98
595.86	1728.49
596.05	1734.63
596.24	1755.11
596.43	1871.84
596.63	1826.79
596.82	1755.11
597.01	1746.92
597.21	1855.46
597.40	1755.11
597.59	1697.77
597.79	1710.05
597.98	1781.73
598.17	1748.97
598.36	1771.49
598.56	1748.97
598.75	1742.82
598.94	1736.68
599.14	1800.16
599.33	1738.73
599.52	1787.88
599.71	1718.25
599.91	1787.88
600.10	1826.79
600.29	1677.29
600.48	1791.97
600.68	1822.69
600.87	1714.15
601.06	1671.14
601.26	1753.06
601.45	1849.32
601.64	1718.25
601.83	1861.60
602.03	1742.82
602.22	1730.53
602.41	1794.02
602.60	1867.75
602.80	1796.07
602.99	1781.73
603.18	1681.38
603.37	1769.44
603.57	1742.82
603.76	1804.26
603.95	1832.93
604.14	1767.40
604.34	1650.66
604.53	1701.86
604.72	1701.86
604.91	1814.50
605.10	1789.92
605.30	1640.42
605.49	1933.28
605.68	1822.69
605.87	1822.69
606.07	1775.59
606.26	1787.88
606.45	1830.88
606.64	1728.49
606.84	1740.77
607.03	1757.16
607.22	1777.64
607.41	1648.61
607.60	1779.68
607.80	1757.16
607.99	1740.77
608.18	1773.54
608.37	1796.07
608.56	1708.01
608.76	1783.78
608.95	1822.69
609.14	1724.39
609.33	1744.87
609.52	1759.21
609.72	1765.35
609.91	1746.92
610.10	1716.20
610.29	1832.93
610.48	1796.07
610.68	1787.88
610.87	1755.11
611.06	1712.10
611.25	1728.49
611.44	1810.40
611.63	1740.77
611.83	1783.78
612.02	1712.10
612.21	1777.64
612.40	1656.81
612.59	1699.81
612.79	1763.30
612.98	1695.72
613.17	1865.70
613.36	1769.44
613.55	1843.17
613.74	1722.34
613.93	1738.73
614.13	1652.71
614.32	1759.21
614.51	1806.31
614.70	1767.40
614.89	1728.49
615.08	1763.30
615.28	2121.70
615.47	1708.01
615.66	1732.58
615.85	1675.24
616.04	1824.74
616.23	1705.96
616.42	1732.58
616.62	1697.77
616.81	1746.92
617.00	1710.05
617.19	1771.49
617.38	1687.53
617.57	1736.68
617.76	1816.55
617.95	1736.68
618.15	1740.77
618.34	1824.74
618.53	1624.04
618.72	1781.73
618.91	1828.84
619.10	1826.79
619.29	1728.49
619.48	1751.01
619.68	1695.72
619.87	1726.44
620.06	1697.77
620.25	1830.88
620.44	1691.62
620.63	1755.11
620.82	1718.25
621.01	1701.86
621.20	1777.64
621.39	1773.54
621.59	1734.63
621.78	1734.63
621.97	1781.73
622.16	1834.98
622.35	1755.11
622.54	1693.67
622.73	1814.50
622.92	1675.24
623.11	1757.16
623.30	1701.86
623.49	1759.21
623.68	1650.66
623.88	1751.01
624.07	1802.21
624.26	1693.67
624.45	1785.83
624.64	1716.20
624.83	1748.97
625.02	1781.73
625.21	1822.69
625.40	1689.57
625.59	1847.27
625.78	1775.59
625.97	1787.88
626.16	1710.05
626.35	1783.78
626.54	1742.82
626.74	1865.70
626.93	1673.19
627.12	1730.53
627.31	1748.97
627.50	1787.88
627.69	1804.26
627.88	1751.01
628.07	1660.90
628.26	1710.05
628.45	1708.01
628.64	1718.25
628.83	1728.49
629.02	1656.81
629.21	1734.63
629.40	1718.25
629.59	1607.66
629.78	1703.91
629.97	1740.77
630.16	1781.73
630.35	1665.00
630.54	1753.06
630.73	1722.34
630.92	1742.82
631.11	1732.58
631.30	1769.44
631.49	1802.21
631.68	1779.68
631.87	1787.88
632.06	1665.00
632.25	1865.70
632.44	1796.07
632.63	1710.05
632.82	1691.62
633.01	1683.43
633.20	1757.16
633.39	1662.95
633.58	1634.28
633.77	1726.44
633.96	1773.54
634.15	1886.18
634.34	1734.63
634.53	1716.20
634.72	1705.96
634.91	1710.05
635.10	1675.24
635.29	1834.98
635.48	1767.40
635.67	1728.49
635.86	1642.47
636.05	1834.98
636.24	1708.01
636.43	1771.49
636.62	1761.25
636.81	1638.38
637.00	1755.11
637.19	1697.77
637.38	1712.10
637.57	1675.24
637.76	1705.96
637.95	1685.48
638.14	1755.11
638.33	1734.63
638.52	1708.01
638.71	1679.33
638.89	1652.71
639.08	1910.75
639.27	1755.11
639.46	1691.62
639.65	1820.64
639.84	1816.55
640.03	1765.35
640.22	1771.49
640.41	1888.23
640.60	1726.44
640.79	1791.97
640.98	1742.82
641.17	1802.21
641.36	1685.48
641.55	1712.10
641.74	1693.67
641.92	1673.19
642.11	1671.14
642.30	1746.92
642.49	1718.25
642.68	1605.61
642.87	1718.25
643.06	1820.64
643.25	1703.91
643.44	1697.77
643.63	1673.19
643.82	1722.34
644.00	1658.85
644.19	1765.35
644.38	1734.63
644.57	1697.77
644.76	1775.59
644.95	1763.30
645.14	1716.20
645.33	1740.77
645.52	1714.15
645.71	1624.04
645.89	1705.96
646.08	1765.35
646.27	1630.18
646.46	1869.80
646.65	1574.89
646.84	1705.96
647.03	1640.42
647.22	1783.78
647.40	1779.68
647.59	1722.34
647.78	1714.15
647.97	1705.96
648.16	1712.10
648.35	1796.07
648.54	1791.97
648.73	1781.73
648.91	1775.59
649.10	1826.79
649.29	1681.38
649.48	1796.07
649.67	1812.45
649.86	1644.52
650.05	1681.38
650.23	1751.01
650.42	1693.67
650.61	1755.11
650.80	1701.86
650.99	1769.44
651.18	1818.60
651.36	1781.73
651.55	1767.40
651.74	1765.35
651.93	1724.39
652.12	1746.92
652.31	1708.01
652.49	1728.49
652.68	1722.34
652.87	1830.88
653.06	1703.91
653.25	1820.64
653.44	1728.49
653.62	1814.50
653.81	1691.62
654.00	1675.24
654.19	1810.40
654.38	1828.84
654.56	1742.82
654.75	1714.15
654.94	1720.29
655.13	1699.81
655.32	1746.92
655.51	1800.16
655.69	1699.81
655.88	1755.11
656.07	1738.73
656.26	1724.39
656.45	1650.66
656.63	1800.16
656.82	1769.44
657.01	1728.49
657.20	1718.25
657.38	1744.87
657.57	1746.92
657.76	1693.67
657.95	1759.21
658.14	1660.90
658.32	1718.25
658.51	1665.00
658.70	1738.73
658.89	1716.20
659.08	1736.68
659.26	1828.84
659.45	1695.72
659.64	1712.10
659.83	1652.71
660.01	1912.80
660.20	1701.86
660.39	1779.68
660.58	1607.66
660.76	1798.12
660.95	1716.20
661.14	1730.53
661.33	1654.76
661.51	1726.44
661.70	1767.40
661.89	1777.64
662.08	1685.48
662.26	1699.81
662.45	1746.92
662.64	1812.45
662.83	1726.44
663.01	1619.94
663.20	1689.57
663.39	1794.02
663.58	1787.88
663.76	1740.77
663.95	1761.25
664.14	1644.52
664.32	1769.44
664.51	1652.71
664.70	1658.85
664.89	1941.47
665.07	1662.95
665.26	1710.05
665.45	1658.85
665.64	1730.53
665.82	1740.77
666.01	1812.45
666.20	1679.33
666.38	1910.75
666.57	1804.26
666.76	2306.01
666.95	4444.09
667.13	10422.11
667.32	15525.65
667.51	18050.80
667.69	18829.02
667.88	17671.92
668.07	12035.91
668.25	9500.53
668.44	8140.68
668.63	7380.88
668.81	6862.74
669.00	6301.60
669.19	5832.62
669.38	5144.50
669.56	4528.06
669.75	3946.44
669.94	3401.68
670.12	2848.72
670.31	2533.34
670.50	2336.73
670.68	2111.46
670.87	1978.34
671.06	1849.32
671.24	1800.16
671.43	1841.12
671.62	1794.02
671.80	1697.77
671.99	1730.53
672.18	1656.81
672.36	1757.16
672.55	1771.49
672.74	1708.01
672.92	1738.73
673.11	1740.77
673.29	1685.48
673.48	1669.09
673.67	1710.05
673.85	1769.44
674.04	1675.24
674.23	1748.97
674.41	1808.36
674.60	1746.92
674.79	1673.19
674.97	1748.97
675.16	1798.12
675.34	1755.11
675.53	1730.53
675.72	1751.01
675.90	1789.92
676.09	1828.84
676.28	1744.87
676.46	1607.66
676.65	1710.05
676.83	1574.89
677.02	1718.25
677.21	1708.01
677.39	1845.22
677.58	1648.61
677.77	1685.48
677.95	1689.57
678.14	1705.96
678.32	1796.07
678.51	1677.29
678.70	1859.56
678.88	1751.01
679.07	1714.15
679.25	1716.20
679.44	1699.81
679.63	1738.73
679.81	1787.88
680.00	1765.35
680.18	1746.92
680.37	1796.07
680.55	1695.72
680.74	1660.90
680.93	1656.81
681.11	1722.34
681.30	1685.48
681.48	1810.40
681.67	1732.58
681.85	1755.11
682.04	1685.48
682.23	1734.63
682.41	1787.88
682.60	1675.24
682.78	1746.92
682.97	1714.15
683.15	1789.92
683.34	1708.01
683.53	1761.25
683.71	1701.86
683.90	1800.16
684.08	1796.07
684.27	1718.25
684.45	1781.73
684.64	1744.87
684.82	1681.38
685.01	1753.06
685.19	1728.49
685.38	1804.26
685.57	1730.53
685.75	1761.25
685.94	1683.43
686.12	1675.24
686.31	1628.14
686.49	1834.98
686.68	1658.85
686.86	1736.68
687.05	1718.25
687.23	1826.79
687.42	1714.15
687.60	1626.09
687.79	1748.97
687.97	1839.08
688.16	1822.69
688.34	1712.10
688.53	1626.09
688.71	1779.68
688.90	1810.40
689.08	1781.73
689.27	1587.18
689.45	1714.15
689.64	1775.59
689.82	1726.44
690.01	1761.25
690.19	1763.30
690.38	1787.88
690.56	1789.92
690.75	1673.19
690.93	1718.25
691.12	1716.20
691.30	1656.81
691.49	1628.14
691.67	1685.48
691.86	1804.26
692.04	1673.19
692.23	1746.92
692.41	1755.11
692.60	1880.04
692.78	1765.35
692.97	1689.57
693.15	1763.30
693.34	1820.64
693.52	1837.03
693.71	1781.73
693.89	1677.29
694.08	1724.39
694.26	1853.41
694.44	1767.40
694.63	1712.10
694.81	1781.73
695.00	1722.34
695.18	1755.11
695.37	1882.08
695.55	1730.53
695.74	1714.15
695.92	1671.14
696.10	1837.03
696.29	1667.05
696.47	1779.68
696.66	1599.46
696.84	1681.38
697.03	1697.77
697.21	1837.03
697.40	2310.11
697.58	1765.35
697.76	1734.63
697.95	1716.20
698.13	1691.62
698.32	1716.20
698.50	1710.05
698.68	1814.50
698.87	1753.06
699.05	1804.26
699.24	1771.49
699.42	1662.95
699.61	1787.88
699.79	1697.77
699.97	1775.59
700.16	1624.04
700.34	1636.33
700.53	1726.44
700.71	1837.03
700.89	1730.53
701.08	1753.06
701.26	1701.86
701.45	2176.99
701.63	1796.07
701.81	1708.01
702.00	1744.87
702.18	1748.97
702.37	1681.38
702.55	1718.25
702.73	1687.53
702.92	1654.76
703.10	1716.20
703.28	1771.49
703.47	1675.24
703.65	1865.70
703.84	1777.64
704.02	1695.72
704.20	1820.64
704.39	1624.04
704.57	1675.24
704.75	1781.73
704.94	1783.78
705.12	1771.49
705.30	1748.97
705.49	2324.44
705.67	4675.51
705.86	9496.43
706.04	12617.54
706.22	14581.54
706.41	15402.77
706.59	13793.07
706.77	9635.69
706.96	7403.41
707.14	6586.27
707.32	6021.03
707.51	5513.13
707.69	4902.84
707.87	4126.66
708.06	3594.19
708.24	2854.87
708.42	2492.38
708.61	2217.95
708.79	1910.75
708.97	1904.61
709.16	1839.08
709.34	1775.59
709.52	1751.01
709.71	1740.77
709.89	1765.35
710.07	1742.82
710.26	1636.33
710.44	1712.10
710.62	1843.17
710.80	1691.62
710.99	1791.97
711.17	1720.29
711.35	1730.53
711.54	1712.10
711.72	1849.32
711.90	1789.92
712.09	1712.10
712.27	1689.57
712.45	1685.48
712.63	1695.72
712.82	1736.68
713.00	1757.16
713.18	1757.16
713.37	1757.16
713.55	1746.92
713.73	1771.49
713.91	1773.54
714.10	1744.87
714.28	1671.14
714.46	1718.25
714.65	1777.64
714.83	1775.59
715.01	1740.77
715.19	1730.53
715.38	1673.19
715.56	1755.11
715.74	1658.85
715.92	1695.72
716.11	1808.36
716.29	1624.04
716.47	1728.49
716.65	1705.96
716.84	1642.47
717.02	1720.29
717.20	1583.08
717.38	1617.90
717.57	1671.14
717.75	1744.87
717.93	1693.67
718.11	1703.91
718.30	1640.42
718.48	1712.10
718.66	1779.68
718.84	1769.44
719.03	1712.10
719.21	1648.61
719.39	1800.16
719.57	1775.59
719.75	1732.58
719.94	1660.90
720.12	1701.86
720.30	1738.73
720.48	1757.16
720.67	1689.57
720.85	1656.81
721.03	1677.29
721.21	1603.56
721.39	1775.59
721.58	1769.44
721.76	1738.73
721.94	1718.25
722.12	1777.64
722.30	1824.74
722.49	1714.15
722.67	1634.28
722.85	1722.34
723.03	1638.38
723.21	1732.58
723.40	1720.29
723.58	1781.73
723.76	1695.72
723.94	1794.02
724.12	1761.25
724.30	1826.79
724.49	1794.02
724.67	1662.95
724.85	1832.93
725.03	1617.90
725.21	1675.24
725.40	1791.97
725.58	1576.94
725.76	1806.31
725.94	1738.73
726.12	1642.47
726.30	1669.09
726.49	1673.19
726.67	1687.53
726.85	1724.39
727.03	1818.60
727.21	2281.44
727.39	3016.66
727.57	3835.85
727.76	4165.57
727.94	4476.86
728.12	4470.72
728.30	3741.64
728.48	2990.03
728.66	2766.81
728.84	2478.04
729.03	2240.48
729.21	2224.09
729.39	1955.81
729.57	1839.08
729.75	1806.31
729.93	1740.77
730.11	1677.29
730.30	1701.86
730.48	1763.30
730.66	1865.70
730.84	1779.68
731.02	1695.72
731.20	1701.86
731.38	1701.86
731.56	1685.48
731.74	1675.24
731.93	1697.77
732.11	1644.52
732.29	1714.15
732.47	1742.82
732.65	1730.53
732.83	1748.97
733.01	1777.64
733.19	1671.14
733.37	1716.20
733.56	1697.77
733.74	1689.57
733.92	1775.59
734.10	1699.81
734.28	1748.97
734.46	1626.09
734.64	1769.44
734.82	1740.77
735.00	1673.19
735.18	1693.67
735.36	1769.44
735.54	1732.58
735.73	1744.87
735.91	1755.11
736.09	1783.78
736.27	1634.28
736.45	1724.39
736.63	1658.85
736.81	1703.91
736.99	1779.68
737.17	1771.49
737.35	1689.57
737.53	1763.30
737.71	1673.19
737.89	1814.50
738.07	1703.91
738.25	1697.77
738.43	1718.25
738.61	1712.10
738.80	1701.86
738.98	1638.38
739.16	1632.23
739.34	1605.61
739.52	1785.83
739.70	1808.36
739.88	1777.64
740.06	1742.82
740.24	1574.89
740.42	1738.73
740.60	1638.38
740.78	1699.81
740.96	1611.75
741.14	1736.68
741.32	1738.73
741.50	1638.38
741.68	1808.36
741.86	1789.92
742.04	1640.42
742.22	1673.19
742.40	1669.09
742.58	1771.49
742.76	1626.09
742.94	1810.40
743.12	1703.91
743.30	1730.53
743.48	1791.97
743.66	1611.75
743.84	1751.01
744.02	1775.59
744.20	1658.85
744.38	1708.01
744.56	1703.91
744.74	1798.12
744.92	1755.11
745.10	1806.31
745.28	1746.92
745.46	1802.21
745.64	1730.53
745.82	1710.05
746.00	1710.05
746.18	1753.06
746.36	1738.73
746.54	1724.39
746.72	1740.77
746.90	1697.77
747.08	1742.82
747.26	1677.29
747.44	1783.78
747.62	1767.40
747.80	1779.68
747.98	1757.16
748.15	1697.77
748.33	1820.64
748.51	1730.53
748.69	1759.21
748.87	1712.10
749.05	1689.57
749.23	1640.42
749.41	1757.16
749.59	1658.85
749.77	1794.02
749.95	1767.40
750.13	1714.15
750.31	1734.63
750.49	1751.01
750.67	1826.79
750.85	1783.78
751.03	1712.10
751.20	1839.08
751.38	1667.05
751.56	1714.15
751.74	1691.62
751.92	1685.48
752.10	1632.23
752.28	1804.26
752.46	1724.39
752.64	1679.33
752.82	1759.21
753.00	1763.30
753.18	1640.42
753.35	1726.44
753.53	1624.04
753.71	1673.19
753.89	1787.88
754.07	1718.25
754.25	1765.35
754.43	1736.68
754.61	1681.38
754.79	1791.97
754.97	1732.58
755.14	1789.92
755.32	1708.01
755.50	1759.21
755.68	1675.24
755.86	1679.33
756.04	1669.09
756.22	1677.29
756.40	1730.53
756.57	1800.16
756.75	1765.35
756.93	1755.11
757.11	1781.73
757.29	1599.46
757.47	1665.00
757.65	1652.71
757.82	1615.85
758.00	1656.81
758.18	1742.82
758.36	1693.67
758.54	1789.92
758.72	1669.09
758.90	1710.05
759.07	1748.97
759.25	1660.90
759.43	1722.34
759.61	1712.10
759.79	2258.91
759.97	1763.30
760.15	1673.19
760.32	1665.00
760.50	1701.86
760.68	1849.32
760.86	1675.24
761.04	1693.67
761.22	1710.05
761.39	1714.15
761.57	1732.58
761.75	1662.95
761.93	1798.12
762.11	1804.26
762.28	1730.53
762.46	1601.51
762.64	1808.36
762.82	1697.77
763.00	1679.33
763.18	1763.30
763.35	1595.37
763.53	1779.68
763.71	1703.91
763.89	1732.58
764.07	1720.29
764.24	1699.81
764.42	1746.92
764.60	1705.96
764.78	1654.76
764.96	1746.92
765.13	1740.77
765.31	1681.38
765.49	1710.05
765.67	1611.75
765.84	1673.19
766.02	1626.09
766.20	1576.94
766.38	1621.99
766.56	1820.64
766.73	1771.49
766.91	1662.95
767.09	1687.53
767.27	1685.48
767.44	1648.61
767.62	1687.53
767.80	1685.48
767.98	1720.29
768.15	1703.91
768.33	1744.87
768.51	1775.59
768.69	1763.30
768.87	1662.95
769.04	1673.19
769.22	1791.97
769.40	1806.31
769.58	1890.28
769.75	1718.25
769.93	1675.24
770.11	1728.49
770.28	1675.24
770.46	1824.74
770.64	1679.33
770.82	1716.20
770.99	1716.20
771.17	1738.73
771.35	1726.44
771.53	1712.10
771.70	1691.62
771.88	1742.82
772.06	1710.05
772.23	1701.86
772.41	1759.21
772.59	1667.05
772.77	1632.23
772.94	1734.63
773.12	1742.82
773.30	1724.39
773.47	1691.62
773.65	1683.43
773.83	1851.36
774.01	1734.63
774.18	1667.05
774.36	1771.49
774.54	1662.95
774.71	1722.34
774.89	1728.49
775.07	1675.24
775.24	1718.25
775.42	1697.77
775.60	1783.78
775.78	1642.47
775.95	1656.81
776.13	1613.80
776.31	1583.08
776.48	1777.64
776.66	1771.49
776.84	1679.33
777.01	1693.67
777.19	1683.43
777.37	1656.81
777.54	1765.35
777.72	1794.02
777.90	1697.77
778.07	1656.81
778.25	1877.99
778.43	1796.07
778.60	1728.49
778.78	1820.64
778.96	1832.93
779.13	1744.87
779.31	1804.26
779.49	1675.24
779.66	1751.01
779.84	1673.19
780.01	1720.29
780.19	1662.95
780.37	1798.12
780.54	1748.97
780.72	1691.62
780.90	1671.14
781.07	1658.85
781.25	1714.15
781.43	1748.97
781.60	1665.00
781.78	1779.68
781.95	1720.29
782.13	1683.43
782.31	1693.67
782.48	1665.00
782.66	1730.53
782.83	1773.54
783.01	1748.97
783.19	1742.82
783.36	1697.77
783.54	1562.60
783.72	1677.29
783.89	1800.16
784.07	1685.48
784.24	1673.19
784.42	1931.23
784.60	1730.53
784.77	1701.86
784.95	1681.38
785.12	1667.05
785.30	1689.57
785.47	1615.85
785.65	1687.53
785.83	1685.48
786.00	1568.74
786.18	1662.95
786.35	1636.33
786.53	1656.81
786.71	1716.20
786.88	1718.25
787.06	1742.82
787.23	1699.81
787.41	1720.29
787.58	1685.48
787.76	1742.82
787.94	1816.55
788.11	1771.49
788.29	1652.71
788.46	1726.44
788.64	1638.38
788.81	1738.73
788.99	1656.81
789.16	1720.29
789.34	1740.77
789.52	1738.73
789.69	1708.01
789.87	1628.14
790.04	1681.38
790.22	1703.91
790.39	1822.69
790.57	1644.52
790.74	1703.91
790.92	1787.88
791.09	1667.05
791.27	1646.57
791.44	1859.56
791.62	1619.94
791.79	1742.82
791.97	1736.68
792.15	1896.42
792.32	1791.97
792.50	1757.16
792.67	1794.02
792.85	1753.06
793.02	1730.53
793.20	1697.77
793.37	1697.77
793.55	1718.25
793.72	1665.00
793.90	1738.73
794.07	1683.43
794.25	1753.06
794.42	1761.25
794.60	1701.86
794.77	1732.58
794.95	1783.78
795.12	1824.74
795.30	1636.33
795.47	1646.57
795.65	1867.75
795.82	1662.95
796.00	1656.81
796.17	1722.34
796.34	1665.00
796.52	1722.34
796.69	1781.73
796.87	1751.01
797.04	1720.29
797.22	1796.07
797.39	1701.86
797.57	1728.49
797.74	1710.05
797.92	1736.68
798.09	1710.05
798.27	1832.93
798.44	1773.54
798.62	1738.73
798.79	1755.11
798.96	1710.05
799.14	1751.01
799.31	1884.13
799.49	1683.43
799.66	1665.00
799.84	1701.86
800.01	1679.33
800.19	1712.10
800.36	1652.71
800.53	1734.63
800.71	1718.25
800.88	1789.92
801.06	1650.66
801.23	1632.23
801.41	1703.91
801.58	1712.10
801.75	1689.57
801.93	1621.99
802.10	1728.49
802.28	1671.14
802.45	1662.95
802.63	1818.60
802.80	1824.74
802.97	1757.16
803.15	1763.30
803.32	1662.95
803.50	1642.47
803.67	1683.43
803.84	1669.09
804.02	1746.92
804.19	1728.49
804.37	1595.37
804.54	1646.57
804.71	1722.34
804.89	1710.05
805.06	1677.29
805.24	1681.38
805.41	1691.62
805.58	1685.48
805.76	1849.32
805.93	1755.11
806.10	1783.78
806.28	1718.25
806.45	1730.53
806.63	1783.78
806.80	1669.09
806.97	1771.49
807.15	1775.59
807.32	1767.40
807.49	1773.54
807.67	1675.24
807.84	1714.15
808.01	1640.42
808.19	1843.17
808.36	1751.01
808.54	1675.24
808.71	1677.29
808.88	1714.15
809.06	1826.79
809.23	1779.68
809.40	1658.85
809.58	1767.40
809.75	1640.42
809.92	1603.56
810.10	1906.66
810.27	1695.72
810.44	1665.00
810.62	1712.10
810.79	1677.29
810.96	1665.00
811.14	1724.39
811.31	1697.77
811.48	1808.36
811.66	1753.06
811.83	1810.40
812.00	1746.92
812.18	1746.92
812.35	1824.74
812.52	1603.56
812.69	1656.81
812.87	1726.44
813.04	1675.24
813.21	1617.90
813.39	1675.24
813.56	1701.86
813.73	1767.40
813.91	1570.79
814.08	1662.95
814.25	1708.01
814.42	1595.37
814.60	1677.29
814.77	1675.24
814.94	1783.78
815.12	1785.83
815.29	1839.08
815.46	1660.90
815.63	1724.39
815.81	1701.86
815.98	1656.81
816.15	1718.25
816.33	1730.53
816.50	1669.09
816.67	1689.57
816.84	1656.81
817.02	1656.81
817.19	1652.71
817.36	1714.15
817.53	1740.77
817.71	1677.29
817.88	1814.50
818.05	1683.43
818.22	1669.09
818.40	1849.32
818.57	1638.38
818.74	1636.33
818.91	1665.00
819.09	1789.92
819.26	1787.88
819.43	1687.53
819.60	1658.85
819.78	1755.11
819.95	1814.50
820.12	1642.47
820.29	1802.21
820.47	1714.15
820.64	1652.71
820.81	1679.33
820.98	1648.61
821.15	1718.25
821.33	1753.06
821.50	1660.90
821.67	1701.86
821.84	1705.96
822.02	1710.05
822.19	1814.50
822.36	1617.90
822.53	1652.71
822.70	1667.05
822.88	1701.86
823.05	1724.39
823.22	1701.86
823.39	1802.21
823.56	1675.24
823.74	1849.32
823.91	1689.57
824.08	1746.92
824.25	1710.05
824.42	1738.73
824.60	1667.05
824.77	1771.49
824.94	1718.25
825.11	1779.68
825.28	1656.81
825.45	1703.91
825.63	1720.29
825.80	1708.01
825.97	1665.00
826.14	1693.67
826.31	1632.23
826.48	1771.49
826.66	1632.23
826.83	1681.38
827.00	1718.25
827.17	1660.90
827.34	1585.13
827.51	1636.33
827.69	1689.57
827.86	1601.51
828.03	1652.71
828.20	1740.77
828.37	1662.95
828.54	1748.97
828.71	1656.81
828.89	1814.50
829.06	1691.62
829.23	1789.92
829.40	1665.00
829.57	1730.53
829.74	1681.38
829.91	1599.46
830.09	1650.66
830.26	1777.64
830.43	1818.60
830.60	1714.15
830.77	1771.49
830.94	1753.06
831.11	1716.20
831.28	1771.49
831.46	1710.05
831.63	1691.62
831.80	1787.88
831.97	1689.57
832.14	1753.06
832.31	1726.44
832.48	1728.49
832.65	1681.38
832.82	1720.29
832.99	1730.53
833.17	1697.77
833.34	1767.40
833.51	1751.01
833.68	1527.78
833.85	1716.20
834.02	1652.71
834.19	1654.76
834.36	1671.14
834.53	1757.16
834.70	1755.11
834.87	1744.87
835.04	1701.86
835.22	1656.81
835.39	1621.99
835.56	1646.57
835.73	1687.53
835.90	1773.54
836.07	1714.15
836.24	1740.77
836.41	1685.48
836.58	1712.10
836.75	1787.88
836.92	1689.57
837.09	1595.37
837.26	1734.63
837.43	1673.19
837.60	1714.15
837.77	1681.38
837.94	1724.39
838.12	1732.58
838.29	1660.90
838.46	1654.76
838.63	1650.66
838.80	1787.88
838.97	1740.77
839.14	1765.35
839.31	1681.38
839.48	1736.68
839.65	1683.43
839.82	1710.05
839.99	1808.36
840.16	1703.91
840.33	1599.46
840.50	1712.10
840.67	1701.86
840.84	1546.22
841.01	1736.68
841.18	1699.81
841.35	1667.05
841.52	1714.15
841.69	1892.32
841.86	1685.48
842.03	1701.86
842.20	1732.58
842.37	1621.99
842.54	1679.33
842.71	1734.63
842.88	1621.99
843.05	1748.97
843.22	1708.01
843.39	1744.87
843.56	1648.61
843.73	1695.72
843.90	1724.39
844.07	1671.14
844.24	1767.40
844.41	1822.69
844.58	1738.73
844.75	1720.29
844.92	1753.06
845.09	1683.43
845.26	1667.05
845.43	1849.32
845.60	1685.48
845.77	1796.07
845.94	1685.48
846.10	1701.86
846.27	1636.33
846.44	1632.23
846.61	1652.71
846.78	1777.64
846.95	1748.97
847.12	1685.48
847.29	1658.85
847.46	1609.70
847.63	1826.79
847.80	1669.09
847.97	1630.18
848.14	1822.69
848.31	1681.38
848.48	1667.05
848.65	1740.77
848.82	1673.19
848.98	1873.89
849.15	1802.21
849.32	1753.06
849.49	1720.29
849.66	1689.57
849.83	1759.21
850.00	1679.33
850.17	1761.25
850.34	1710.05
850.51	1701.86
850.68	1665.00
850.85	1853.41
851.01	1738.73
851.18	1804.26
851.35	1691.62
851.52	1773.54
851.69	1798.12
851.86	1660.90
852.03	1751.01
852.20	1724.39
852.37	1695.72
852.53	1679.33
852.70	1755.11
852.87	1726.44
853.04	1789.92
853.21	1730.53
853.38	1738.73
853.55	1746.92
853.72	1734.63
853.89	1695.72
854.05	1701.86
854.22	1681.38
854.39	1658.85
854.56	1757.16
854.73	1781.73
854.90	1634.28
855.07	1822.69
855.23	1634.28
855.40	1642.47
855.57	1689.57
855.74	1632.23
855.91	1964.00
856.08	1687.53
856.25	1581.03
856.41	1740.77
856.58	1697.77
856.75	1736.68
856.92	1636.33
857.09	1720.29
857.26	1589.22
857.42	1736.68
857.59	1802.21
857.76	1734.63
857.93	1742.82
858.10	1671.14
858.27	1619.94
858.43	1699.81
858.60	1654.76
858.77	1638.38
858.94	1693.67
859.11	1755.11
859.27	1636.33
859.44	1710.05
859.61	1863.65
859.78	1695.72
859.95	1730.53
860.12	1689.57
860.28	1798.12
860.45	1794.02
860.62	1701.86
860.79	1767.40
860.95	1667.05
861.12	1705.96
861.29	1642.47
861.46	1738.73
861.63	1712.10
861.79	1763.30
861.96	1697.77
862.13	1673.19
862.30	1759.21
862.47	1675.24
862.63	1642.47
862.80	1742.82
862.97	1734.63
863.14	1726.44
863.30	1763.30
863.47	1763.30
863.64	1820.64
863.81	1695.72
863.97	1728.49
864.14	1779.68
864.31	1683.43
864.48	1710.05
864.65	1673.19
864.81	1794.02
864.98	1730.53
865.15	1767.40
865.32	1734.63
865.48	1738.73
865.65	1806.31
865.82	1693.67
865.98	1785.83
866.15	1783.78
866.32	1660.90
866.49	1650.66
866.65	1796.07
866.82	1699.81
866.99	1828.84
867.16	1714.15
867.32	1716.20
867.49	1667.05
867.66	1730.53
867.83	1722.34
867.99	1574.89
868.16	1689.57
868.33	1667.05
868.49	1753.06
868.66	1638.38
868.83	1691.62
868.99	1736.68
869.16	1708.01
869.33	1779.68
869.50	1806.31
869.66	1658.85
869.83	1724.39
870.00	1699.81
870.16	1724.39
870.33	1714.15
870.50	1841.12
870.66	1699.81
870.83	1791.97
871.00	1679.33
871.17	1708.01
871.33	1757.16
871.50	1685.48
871.67	1687.53
871.83	1736.68
872.00	1814.50
872.17	1624.04
872.33	1830.88
872.50	1746.92
872.67	1667.05
872.83	1689.57
873.00	1730.53
873.17	1759.21
873.33	1681.38
873.50	1755.11
873.67	1746.92
873.83	1695.72
874.00	1693.67
874.16	1751.01
874.33	1699.81
874.50	1667.05
874.66	1697.77
874.83	1751.01
875.00	1812.45
875.16	1769.44
875.33	1736.68
875.50	1628.14
875.66	1705.96
875.83	1722.34
875.99	1738.73
876.16	1685.48
876.33	1652.71
876.49	1720.29
876.66	1748.97
876.83	1691.62
876.99	1599.46
877.16	1708.01
877.32	1738.73
877.49	1667.05
877.66	1740.77
877.82	1714.15
877.99	1677.29
878.15	1718.25
878.32	1695.72
878.49	1693.67
878.65	1714.15
878.82	1826.79
878.98	1740.77
879.15	1708.01
879.32	1718.25
879.48	1691.62
879.65	1689.57
879.81	1665.00
879.98	1673.19
880.15	1648.61
880.31	1775.59
880.48	1683.43
880.64	1865.70
880.81	1691.62
880.97	1785.83
881.14	1751.01
881.31	1656.81
881.47	1798.12
881.64	1812.45
881.80	1658.85
881.97	1675.24
882.13	1738.73
882.30	1632.23
882.47	1716.20
882.63	1656.81
882.80	1687.53
882.96	1718.25
883.13	1705.96
883.29	1787.88
883.46	1757.16
883.62	1814.50
883.79	1781.73
883.95	1746.92
884.12	1693.67
884.29	1689.57
884.45	1755.11
884.62	1675.24
884.78	1710.05
884.95	1847.27
885.11	1685.48
885.28	1679.33
885.44	1703.91
885.61	1810.40
885.77	1814.50
885.94	1722.34
886.10	1730.53
886.27	1722.34
886.43	1806.31
886.60	1828.84
886.76	1675.24
886.93	1654.76
887.09	1789.92
887.26	1718.25
887.42	1648.61
887.59	1632.23
887.75	1820.64
887.92	1736.68
888.08	1748.97
888.25	1802.21
888.41	1748.97
888.58	1783.78
888.74	1650.66
888.91	1660.90
>>>>>End Processed Spectral Data<<<<<
