SpectraSuite Data File
++++++++++++++++++++++++++++++++++++
Date: Mon Jun 06 14:40:57 CEST 2016
User: root
Dark Spectrum Present: No
Reference Spectrum Present: No
Number of Sampled Component Spectra: 1
Spectrometers: USB4C02835
Integration Time (usec): 100000 (USB4C02835)
Spectra Averaged: 1 (USB4C02835)
Boxcar Smoothing: 0 (USB4C02835)
Correct for Electrical Dark: No (USB4C02835)
Strobe/Lamp Enabled: No (USB4C02835)
Correct for Detector Non-linearity: No (USB4C02835)
Correct for Stray Light: No (USB4C02835)
Number of Pixels in Processed Spectrum: 3648
>>>>>Begin Processed Spectral Data<<<<<
177.47	1400.81
177.69	1400.81
177.91	1400.81
178.13	1458.15
178.36	1495.02
178.58	1593.32
178.80	1798.12
179.02	1585.13
179.24	1671.14
179.46	1679.33
179.68	1730.53
179.90	1695.72
180.13	1607.66
180.35	1597.42
180.57	1689.57
180.79	1771.49
181.01	1718.25
181.23	1769.44
181.45	1789.92
181.67	1734.63
181.90	1705.96
182.12	1675.24
182.34	1673.19
182.56	1787.88
182.78	1751.01
183.00	1755.11
183.22	1730.53
183.44	1599.46
183.66	1783.78
183.89	1705.96
184.11	1732.58
184.33	1728.49
184.55	1779.68
184.77	1646.57
184.99	1763.30
185.21	1699.81
185.43	1880.04
185.65	1710.05
185.87	1712.10
186.10	1906.66
186.32	1929.19
186.54	1748.97
186.76	1771.49
186.98	1712.10
187.20	1687.53
187.42	1689.57
187.64	1726.44
187.86	1662.95
188.08	1714.15
188.30	1671.14
188.52	1656.81
188.75	1695.72
188.97	1804.26
189.19	1685.48
189.41	1687.53
189.63	1789.92
189.85	1697.77
190.07	1562.60
190.29	1693.67
190.51	1677.29
190.73	1697.77
190.95	1718.25
191.17	1675.24
191.39	1624.04
191.61	1705.96
191.84	1732.58
192.06	1667.05
192.28	1675.24
192.50	1855.46
192.72	1748.97
192.94	1718.25
193.16	1771.49
193.38	1691.62
193.60	1626.09
193.82	1726.44
194.04	1828.84
194.26	1650.66
194.48	1695.72
194.70	1636.33
194.92	1665.00
195.14	1755.11
195.36	1671.14
195.58	1710.05
195.80	1761.25
196.02	1624.04
196.24	1613.80
196.46	1751.01
196.69	1746.92
196.91	1855.46
197.13	1705.96
197.35	1652.71
197.57	1769.44
197.79	1773.54
198.01	1705.96
198.23	1787.88
198.45	1714.15
198.67	1607.66
198.89	1794.02
199.11	1753.06
199.33	1640.42
199.55	1634.28
199.77	1621.99
199.99	1748.97
200.21	1763.30
200.43	1705.96
200.65	1626.09
200.87	1654.76
201.09	1701.86
201.31	1646.57
201.53	1736.68
201.75	1638.38
201.97	1738.73
202.19	1689.57
202.41	1691.62
202.63	1796.07
202.85	1722.34
203.07	1660.90
203.29	1669.09
203.51	1736.68
203.73	1597.42
203.95	1918.95
204.17	1736.68
204.39	1642.47
204.61	1587.18
204.83	1699.81
205.05	1738.73
205.27	1736.68
205.49	1828.84
205.71	1628.14
205.93	1636.33
206.15	1669.09
206.37	1646.57
206.59	1679.33
206.81	1638.38
207.03	1660.90
207.25	1601.51
207.47	1742.82
207.69	1689.57
207.91	1773.54
208.13	1779.68
208.34	1712.10
208.56	1673.19
208.78	1761.25
209.00	1628.14
209.22	1683.43
209.44	1718.25
209.66	1710.05
209.88	1667.05
210.10	1691.62
210.32	1673.19
210.54	1816.55
210.76	1732.58
210.98	1712.10
211.20	1638.38
211.42	1673.19
211.64	1824.74
211.86	1753.06
212.08	1714.15
212.30	1652.71
212.52	1679.33
212.74	1751.01
212.96	1718.25
213.17	1691.62
213.39	1726.44
213.61	1832.93
213.83	1695.72
214.05	1671.14
214.27	1755.11
214.49	1685.48
214.71	1589.22
214.93	1697.77
215.15	1695.72
215.37	1730.53
215.59	1605.61
215.81	1689.57
216.03	1787.88
216.24	1689.57
216.46	1695.72
216.68	1660.90
216.90	1718.25
217.12	1761.25
217.34	1714.15
217.56	1734.63
217.78	1832.93
218.00	1734.63
218.22	1636.33
218.44	1665.00
218.66	1703.91
218.87	1820.64
219.09	1703.91
219.31	1781.73
219.53	1728.49
219.75	1656.81
219.97	1746.92
220.19	1669.09
220.41	1714.15
220.63	1748.97
220.85	1697.77
221.06	1658.85
221.28	1748.97
221.50	1783.78
221.72	1667.05
221.94	1714.15
222.16	1662.95
222.38	1791.97
222.60	1736.68
222.82	1656.81
223.03	1765.35
223.25	1607.66
223.47	1742.82
223.69	1765.35
223.91	1714.15
224.13	1681.38
224.35	1665.00
224.57	1839.08
224.78	1789.92
225.00	1619.94
225.22	1671.14
225.44	1732.58
225.66	1814.50
225.88	1665.00
226.10	1730.53
226.32	1722.34
226.53	1791.97
226.75	1697.77
226.97	1660.90
227.19	1660.90
227.41	1722.34
227.63	1662.95
227.85	1564.65
228.06	1693.67
228.28	1646.57
228.50	1744.87
228.72	1634.28
228.94	1746.92
229.16	1613.80
229.37	1689.57
229.59	1644.52
229.81	1726.44
230.03	1740.77
230.25	1609.70
230.47	1636.33
230.69	1619.94
230.90	1767.40
231.12	1665.00
231.34	1687.53
231.56	1746.92
231.78	1679.33
232.00	1736.68
232.21	1693.67
232.43	1630.18
232.65	1595.37
232.87	1703.91
233.09	1687.53
233.30	1607.66
233.52	1732.58
233.74	1705.96
233.96	1691.62
234.18	1681.38
234.40	1681.38
234.61	1787.88
234.83	1665.00
235.05	1699.81
235.27	1849.32
235.49	1746.92
235.70	1753.06
235.92	1757.16
236.14	1654.76
236.36	1871.84
236.58	1615.85
236.79	1728.49
237.01	1652.71
237.23	1785.83
237.45	1771.49
237.67	1761.25
237.88	1691.62
238.10	1822.69
238.32	1685.48
238.54	1701.86
238.76	1703.91
238.97	1740.77
239.19	1761.25
239.41	1771.49
239.63	1791.97
239.85	1697.77
240.06	1652.71
240.28	1617.90
240.50	1695.72
240.72	1697.77
240.93	1669.09
241.15	1802.21
241.37	1673.19
241.59	1714.15
241.81	1638.38
242.02	1736.68
242.24	1671.14
242.46	1710.05
242.68	1720.29
242.89	1814.50
243.11	1759.21
243.33	1701.86
243.55	1638.38
243.76	1714.15
243.98	1632.23
244.20	1697.77
244.42	1738.73
244.64	1734.63
244.85	1660.90
245.07	1611.75
245.29	1728.49
245.51	1691.62
245.72	1753.06
245.94	1759.21
246.16	1730.53
246.38	1761.25
246.59	1763.30
246.81	1583.08
247.03	1665.00
247.24	1607.66
247.46	1613.80
247.68	1652.71
247.90	1648.61
248.11	1677.29
248.33	1730.53
248.55	1677.29
248.77	1665.00
248.98	1779.68
249.20	1779.68
249.42	1654.76
249.64	1662.95
249.85	1753.06
250.07	1654.76
250.29	1771.49
250.50	1800.16
250.72	1585.13
250.94	1716.20
251.16	1884.13
251.37	1712.10
251.59	1660.90
251.81	1687.53
252.02	1740.77
252.24	1671.14
252.46	1722.34
252.68	1683.43
252.89	1685.48
253.11	1562.60
253.33	1773.54
253.54	1812.45
253.76	1679.33
253.98	1710.05
254.20	1705.96
254.41	1669.09
254.63	1669.09
254.85	1656.81
255.06	1744.87
255.28	1734.63
255.50	1714.15
255.71	1640.42
255.93	1632.23
256.15	1673.19
256.36	1751.01
256.58	1634.28
256.80	1808.36
257.02	1732.58
257.23	1738.73
257.45	1697.77
257.67	1744.87
257.88	1665.00
258.10	1689.57
258.32	1787.88
258.53	1699.81
258.75	1761.25
258.97	1724.39
259.18	1697.77
259.40	1675.24
259.62	1738.73
259.83	1814.50
260.05	1796.07
260.27	1945.57
260.48	1753.06
260.70	1619.94
260.92	1722.34
261.13	1640.42
261.35	1673.19
261.57	1802.21
261.78	1542.12
262.00	1609.70
262.22	1746.92
262.43	1662.95
262.65	1566.70
262.86	1632.23
263.08	1843.17
263.30	1685.48
263.51	1628.14
263.73	1636.33
263.95	1773.54
264.16	1667.05
264.38	1669.09
264.60	1751.01
264.81	1724.39
265.03	1683.43
265.25	1746.92
265.46	1712.10
265.68	1808.36
265.89	1718.25
266.11	1626.09
266.33	1734.63
266.54	1716.20
266.76	1701.86
266.98	1662.95
267.19	1798.12
267.41	1748.97
267.62	1779.68
267.84	1562.60
268.06	1730.53
268.27	1691.62
268.49	1812.45
268.70	1710.05
268.92	1708.01
269.14	1638.38
269.35	1671.14
269.57	1642.47
269.79	1675.24
270.00	1652.71
270.22	1777.64
270.43	1705.96
270.65	1615.85
270.87	1710.05
271.08	1789.92
271.30	1732.58
271.51	1667.05
271.73	1691.62
271.95	1822.69
272.16	1689.57
272.38	1714.15
272.59	1746.92
272.81	1720.29
273.02	1699.81
273.24	1683.43
273.46	1769.44
273.67	1644.52
273.89	1662.95
274.10	1679.33
274.32	1855.46
274.54	1720.29
274.75	1753.06
274.97	1677.29
275.18	1691.62
275.40	1710.05
275.61	1699.81
275.83	1675.24
276.05	1658.85
276.26	1732.58
276.48	1734.63
276.69	1724.39
276.91	1660.90
277.12	1669.09
277.34	1720.29
277.55	1726.44
277.77	1703.91
277.99	1675.24
278.20	1644.52
278.42	1671.14
278.63	1632.23
278.85	1691.62
279.06	1542.12
279.28	1779.68
279.49	1699.81
279.71	1693.67
279.93	1652.71
280.14	1644.52
280.36	1693.67
280.57	1738.73
280.79	1751.01
281.00	1648.61
281.22	1576.94
281.43	1798.12
281.65	1611.75
281.86	1701.86
282.08	1718.25
282.29	1802.21
282.51	1669.09
282.73	1658.85
282.94	1673.19
283.16	1753.06
283.37	1755.11
283.59	1695.72
283.80	1716.20
284.02	1640.42
284.23	1738.73
284.45	1748.97
284.66	1677.29
284.88	1593.32
285.09	1640.42
285.31	1701.86
285.52	1759.21
285.74	1574.89
285.95	1775.59
286.17	1689.57
286.38	1781.73
286.60	1642.47
286.81	1658.85
287.03	1820.64
287.24	1714.15
287.46	1728.49
287.67	1671.14
287.89	1806.31
288.10	1673.19
288.32	1730.53
288.53	1798.12
288.75	1738.73
288.96	1755.11
289.18	1705.96
289.39	1705.96
289.61	1800.16
289.82	1841.12
290.04	1738.73
290.25	1572.84
290.47	1716.20
290.68	1738.73
290.90	1687.53
291.11	1648.61
291.33	1771.49
291.54	1656.81
291.76	1621.99
291.97	1718.25
292.18	1662.95
292.40	1673.19
292.61	1675.24
292.83	1873.89
293.04	1724.39
293.26	1718.25
293.47	1724.39
293.69	1638.38
293.90	1748.97
294.12	1804.26
294.33	1691.62
294.55	1701.86
294.76	1769.44
294.97	1757.16
295.19	1855.46
295.40	1630.18
295.62	1697.77
295.83	1773.54
296.05	1603.56
296.26	1757.16
296.48	1644.52
296.69	1650.66
296.90	1648.61
297.12	1763.30
297.33	1753.06
297.55	1648.61
297.76	1732.58
297.98	1751.01
298.19	1628.14
298.41	1689.57
298.62	1648.61
298.83	1738.73
299.05	1710.05
299.26	1660.90
299.48	1669.09
299.69	1730.53
299.90	1675.24
300.12	1665.00
300.33	1759.21
300.55	1734.63
300.76	1759.21
300.98	1677.29
301.19	1748.97
301.40	1769.44
301.62	1605.61
301.83	1742.82
302.05	1626.09
302.26	1736.68
302.47	1771.49
302.69	1660.90
302.90	1687.53
303.12	1634.28
303.33	1740.77
303.54	1822.69
303.76	1644.52
303.97	1728.49
304.19	1775.59
304.40	1632.23
304.61	1820.64
304.83	1837.03
305.04	1738.73
305.26	1673.19
305.47	1691.62
305.68	1718.25
305.90	1609.70
306.11	1722.34
306.33	1701.86
306.54	1740.77
306.75	1658.85
306.97	1609.70
307.18	1574.89
307.39	1634.28
307.61	1689.57
307.82	1722.34
308.04	1632.23
308.25	1585.13
308.46	1740.77
308.68	1642.47
308.89	1773.54
309.10	1746.92
309.32	1708.01
309.53	1726.44
309.74	1691.62
309.96	1662.95
310.17	1732.58
310.39	1685.48
310.60	1744.87
310.81	1679.33
311.03	1695.72
311.24	1767.40
311.45	1732.58
311.67	1861.60
311.88	1757.16
312.09	1712.10
312.31	1689.57
312.52	1732.58
312.73	1679.33
312.95	1617.90
313.16	1652.71
313.37	1820.64
313.59	1746.92
313.80	1740.77
314.01	1804.26
314.23	1677.29
314.44	1677.29
314.65	1574.89
314.87	1558.50
315.08	1656.81
315.29	1699.81
315.51	1626.09
315.72	1617.90
315.93	1834.98
316.15	1753.06
316.36	1744.87
316.57	1632.23
316.79	1746.92
317.00	1703.91
317.21	1769.44
317.43	1624.04
317.64	1771.49
317.85	1628.14
318.07	1630.18
318.28	1763.30
318.49	1748.97
318.70	1877.99
318.92	1740.77
319.13	1834.98
319.34	1820.64
319.56	1753.06
319.77	1759.21
319.98	1779.68
320.20	1740.77
320.41	1710.05
320.62	1689.57
320.83	1636.33
321.05	1775.59
321.26	1738.73
321.47	1656.81
321.69	1748.97
321.90	1538.02
322.11	1681.38
322.32	1710.05
322.54	1789.92
322.75	1638.38
322.96	1861.60
323.18	1673.19
323.39	1630.18
323.60	1636.33
323.81	1722.34
324.03	1710.05
324.24	1718.25
324.45	1626.09
324.66	1681.38
324.88	1708.01
325.09	1740.77
325.30	1748.97
325.52	1689.57
325.73	1708.01
325.94	1589.22
326.15	1611.75
326.37	1691.62
326.58	1767.40
326.79	1849.32
327.00	1673.19
327.22	1710.05
327.43	1705.96
327.64	1665.00
327.85	1730.53
328.07	1738.73
328.28	1855.46
328.49	1648.61
328.70	1650.66
328.92	1669.09
329.13	1744.87
329.34	1714.15
329.55	1773.54
329.76	1789.92
329.98	1654.76
330.19	1697.77
330.40	1740.77
330.61	1681.38
330.83	1730.53
331.04	1697.77
331.25	1705.96
331.46	1687.53
331.68	1687.53
331.89	1748.97
332.10	1652.71
332.31	1712.10
332.52	1734.63
332.74	1722.34
332.95	1636.33
333.16	1697.77
333.37	1703.91
333.58	1667.05
333.80	1767.40
334.01	1675.24
334.22	1742.82
334.43	1691.62
334.64	1654.76
334.86	1546.22
335.07	1656.81
335.28	1808.36
335.49	1611.75
335.70	1683.43
335.92	1705.96
336.13	1845.22
336.34	1730.53
336.55	1705.96
336.76	1722.34
336.98	1556.46
337.19	1808.36
337.40	1773.54
337.61	1832.93
337.82	1683.43
338.04	1748.97
338.25	1581.03
338.46	1716.20
338.67	1732.58
338.88	1662.95
339.09	1646.57
339.31	1675.24
339.52	1722.34
339.73	1669.09
339.94	1640.42
340.15	1646.57
340.36	1693.67
340.58	1736.68
340.79	1683.43
341.00	1718.25
341.21	1574.89
341.42	1845.22
341.63	1716.20
341.85	1787.88
342.06	1748.97
342.27	1652.71
342.48	1673.19
342.69	1587.18
342.90	1722.34
343.12	1714.15
343.33	1597.42
343.54	1677.29
343.75	1830.88
343.96	1671.14
344.17	1646.57
344.38	1703.91
344.60	1679.33
344.81	1640.42
345.02	1718.25
345.23	1748.97
345.44	1736.68
345.65	1812.45
345.86	1673.19
346.07	1791.97
346.29	1669.09
346.50	1744.87
346.71	1656.81
346.92	1789.92
347.13	1728.49
347.34	1644.52
347.55	1689.57
347.76	1759.21
347.98	1605.61
348.19	1697.77
348.40	1794.02
348.61	1701.86
348.82	1767.40
349.03	1796.07
349.24	1626.09
349.45	1783.78
349.66	1566.70
349.88	1705.96
350.09	1673.19
350.30	1808.36
350.51	1751.01
350.72	1705.96
350.93	1720.29
351.14	1650.66
351.35	1746.92
351.56	1693.67
351.77	1777.64
351.99	1726.44
352.20	1744.87
352.41	1777.64
352.62	1695.72
352.83	1718.25
353.04	1681.38
353.25	1705.96
353.46	1748.97
353.67	1697.77
353.88	1611.75
354.09	1726.44
354.30	1697.77
354.52	1675.24
354.73	1675.24
354.94	1720.29
355.15	1632.23
355.36	1748.97
355.57	1683.43
355.78	1705.96
355.99	1632.23
356.20	1675.24
356.41	1755.11
356.62	1708.01
356.83	1710.05
357.04	1779.68
357.25	1665.00
357.46	1685.48
357.68	1597.42
357.89	1638.38
358.10	1679.33
358.31	1683.43
358.52	1734.63
358.73	1658.85
358.94	1658.85
359.15	1712.10
359.36	1765.35
359.57	1722.34
359.78	1671.14
359.99	1728.49
360.20	1603.56
360.41	1644.52
360.62	1769.44
360.83	1701.86
361.04	1693.67
361.25	1738.73
361.46	1802.21
361.67	1744.87
361.88	1726.44
362.09	1712.10
362.30	1697.77
362.51	1710.05
362.72	1722.34
362.93	1720.29
363.14	1775.59
363.35	1740.77
363.56	1687.53
363.78	1746.92
363.99	1722.34
364.20	1708.01
364.41	1693.67
364.62	1806.31
364.83	1648.61
365.04	1632.23
365.25	1757.16
365.46	1771.49
365.67	1621.99
365.88	1703.91
366.09	1740.77
366.30	1644.52
366.51	1693.67
366.72	1605.61
366.93	1687.53
367.14	1681.38
367.35	1755.11
367.56	1673.19
367.77	1732.58
367.98	1771.49
368.18	1693.67
368.39	1693.67
368.60	1564.65
368.81	1726.44
369.02	1730.53
369.23	1658.85
369.44	1640.42
369.65	1650.66
369.86	1802.21
370.07	1701.86
370.28	1640.42
370.49	1714.15
370.70	1746.92
370.91	1648.61
371.12	1693.67
371.33	1779.68
371.54	1626.09
371.75	1800.16
371.96	1578.98
372.17	1703.91
372.38	1613.80
372.59	1742.82
372.80	1658.85
373.01	1689.57
373.22	1734.63
373.43	1701.86
373.64	1595.37
373.85	1755.11
374.06	1699.81
374.26	1804.26
374.47	1669.09
374.68	1779.68
374.89	1705.96
375.10	1730.53
375.31	1697.77
375.52	1681.38
375.73	1673.19
375.94	1533.93
376.15	1783.78
376.36	1656.81
376.57	1658.85
376.78	1724.39
376.99	1648.61
377.20	1740.77
377.40	1689.57
377.61	1816.55
377.82	1628.14
378.03	1812.45
378.24	1757.16
378.45	1781.73
378.66	1662.95
378.87	1621.99
379.08	1634.28
379.29	1658.85
379.50	1755.11
379.71	1748.97
379.91	1718.25
380.12	1716.20
380.33	1755.11
380.54	1714.15
380.75	1652.71
380.96	1642.47
381.17	1673.19
381.38	1734.63
381.59	1714.15
381.80	1726.44
382.00	1820.64
382.21	1781.73
382.42	1849.32
382.63	1908.71
382.84	1796.07
383.05	1751.01
383.26	1773.54
383.47	1718.25
383.68	1771.49
383.88	1697.77
384.09	1720.29
384.30	1755.11
384.51	1820.64
384.72	1697.77
384.93	1656.81
385.14	1658.85
385.35	1753.06
385.55	1611.75
385.76	1794.02
385.97	1697.77
386.18	1626.09
386.39	1658.85
386.60	1695.72
386.81	1742.82
387.02	1673.19
387.22	1671.14
387.43	1783.78
387.64	1767.40
387.85	1886.18
388.06	2250.72
388.27	4321.21
388.48	6690.71
388.68	8048.52
388.89	9344.88
389.10	9693.04
389.31	8437.63
389.52	7620.49
389.73	6676.38
389.93	6172.58
390.14	5849.00
390.35	5179.31
390.56	4470.72
390.77	3925.96
390.98	3045.33
391.18	2516.95
391.39	2099.17
391.60	1796.07
391.81	1794.02
392.02	1767.40
392.23	1863.65
392.43	1699.81
392.64	1734.63
392.85	1656.81
393.06	1837.03
393.27	1759.21
393.47	1656.81
393.68	1734.63
393.89	1714.15
394.10	1763.30
394.31	1636.33
394.52	1646.57
394.72	1597.42
394.93	1724.39
395.14	1628.14
395.35	1794.02
395.56	1628.14
395.76	1726.44
395.97	1753.06
396.18	1902.56
396.39	1744.87
396.60	2029.54
396.80	1865.70
397.01	1822.69
397.22	1828.84
397.43	1822.69
397.64	1771.49
397.84	1800.16
398.05	1892.32
398.26	1726.44
398.47	1722.34
398.67	1787.88
398.88	1738.73
399.09	1769.44
399.30	1705.96
399.51	1730.53
399.71	1665.00
399.92	1673.19
400.13	1783.78
400.34	1714.15
400.54	1677.29
400.75	1783.78
400.96	1812.45
401.17	1871.84
401.37	1687.53
401.58	1681.38
401.79	1697.77
402.00	1875.94
402.21	2017.25
402.41	1931.23
402.62	1953.76
402.83	1970.15
403.04	1988.58
403.24	2160.61
403.45	1851.36
403.66	1861.60
403.87	1910.75
404.07	1935.33
404.28	1824.74
404.49	1869.80
404.70	1761.25
404.90	1738.73
405.11	1796.07
405.32	1777.64
405.52	1712.10
405.73	1656.81
405.94	1644.52
406.15	1710.05
406.35	1787.88
406.56	1726.44
406.77	1671.14
406.98	1662.95
407.18	1673.19
407.39	1779.68
407.60	1689.57
407.80	1738.73
408.01	1667.05
408.22	1726.44
408.43	1630.18
408.63	1658.85
408.84	1708.01
409.05	1730.53
409.25	1615.85
409.46	1671.14
409.67	1630.18
409.88	1601.51
410.08	1740.77
410.29	1685.48
410.50	1728.49
410.70	1746.92
410.91	1669.09
411.12	1748.97
411.32	1671.14
411.53	1619.94
411.74	1730.53
411.95	1746.92
412.15	1681.38
412.36	1708.01
412.57	1791.97
412.77	1787.88
412.98	1742.82
413.19	1613.80
413.39	1783.78
413.60	1800.16
413.81	1849.32
414.01	1626.09
414.22	1748.97
414.43	1796.07
414.63	1691.62
414.84	1746.92
415.05	1730.53
415.25	1699.81
415.46	1755.11
415.67	1689.57
415.87	1740.77
416.08	1787.88
416.29	1658.85
416.49	1714.15
416.70	1687.53
416.91	1742.82
417.11	1671.14
417.32	1753.06
417.53	1748.97
417.73	1718.25
417.94	1667.05
418.15	1728.49
418.35	1716.20
418.56	1730.53
418.77	1843.17
418.97	1677.29
419.18	1628.14
419.38	1529.83
419.59	1669.09
419.80	1789.92
420.00	1753.06
420.21	1673.19
420.42	1777.64
420.62	1712.10
420.83	1665.00
421.04	1642.47
421.24	1669.09
421.45	1757.16
421.65	1716.20
421.86	1712.10
422.07	1755.11
422.27	1701.86
422.48	1751.01
422.69	1691.62
422.89	1665.00
423.10	1671.14
423.30	1652.71
423.51	1640.42
423.72	1669.09
423.92	1759.21
424.13	1650.66
424.33	1650.66
424.54	1712.10
424.75	1699.81
424.95	1837.03
425.16	1773.54
425.36	1687.53
425.57	1728.49
425.78	1744.87
425.98	1806.31
426.19	1705.96
426.39	1613.80
426.60	1673.19
426.81	1771.49
427.01	1701.86
427.22	1660.90
427.42	1636.33
427.63	1628.14
427.83	1755.11
428.04	1810.40
428.25	1748.97
428.45	1730.53
428.66	1812.45
428.86	1601.51
429.07	1681.38
429.28	1710.05
429.48	1701.86
429.69	1691.62
429.89	1687.53
430.10	1634.28
430.30	1671.14
430.51	1710.05
430.71	1650.66
430.92	1757.16
431.13	1648.61
431.33	1732.58
431.54	1705.96
431.74	1781.73
431.95	1826.79
432.15	1705.96
432.36	1708.01
432.56	1755.11
432.77	1841.12
432.98	1781.73
433.18	1710.05
433.39	1753.06
433.59	1669.09
433.80	1785.83
434.00	1830.88
434.21	1660.90
434.41	1677.29
434.62	1906.66
434.82	1642.47
435.03	1697.77
435.23	1796.07
435.44	1646.57
435.64	1705.96
435.85	1773.54
436.06	1699.81
436.26	1796.07
436.47	1656.81
436.67	1644.52
436.88	1681.38
437.08	1755.11
437.29	1779.68
437.49	1693.67
437.70	1730.53
437.90	1763.30
438.11	1822.69
438.31	1839.08
438.52	1847.27
438.72	1742.82
438.93	1884.13
439.13	1914.85
439.34	1773.54
439.54	1748.97
439.75	1806.31
439.95	1802.21
440.16	1712.10
440.36	1798.12
440.57	1757.16
440.77	1726.44
440.98	1744.87
441.18	1816.55
441.39	1636.33
441.59	1634.28
441.80	1755.11
442.00	1714.15
442.21	1798.12
442.41	1603.56
442.62	1742.82
442.82	1679.33
443.02	1787.88
443.23	1703.91
443.43	1703.91
443.64	1802.21
443.84	1738.73
444.05	1796.07
444.25	1734.63
444.46	1714.15
444.66	1742.82
444.87	1806.31
445.07	1642.47
445.28	1722.34
445.48	1822.69
445.69	1722.34
445.89	1845.22
446.09	1675.24
446.30	2004.96
446.50	2691.03
446.71	3622.86
446.91	4302.78
447.12	4751.29
447.32	4820.92
447.53	4313.02
447.73	3919.81
447.93	3577.80
448.14	3366.86
448.34	3182.54
448.55	2930.64
448.75	2858.96
448.96	2746.33
449.16	2314.20
449.36	2355.16
449.57	2011.11
449.77	1964.00
449.98	1796.07
450.18	1834.98
450.39	1916.90
450.59	1781.73
450.79	1767.40
451.00	1689.57
451.20	1777.64
451.41	1648.61
451.61	1789.92
451.81	1736.68
452.02	1763.30
452.22	1742.82
452.43	1794.02
452.63	1652.71
452.84	1771.49
453.04	1738.73
453.24	1748.97
453.45	1714.15
453.65	1673.19
453.86	1732.58
454.06	1728.49
454.26	1714.15
454.47	1648.61
454.67	1781.73
454.87	1773.54
455.08	1767.40
455.28	1777.64
455.49	1791.97
455.69	1626.09
455.89	1855.46
456.10	1789.92
456.30	1705.96
456.51	1791.97
456.71	1791.97
456.91	1763.30
457.12	1789.92
457.32	1736.68
457.52	1705.96
457.73	1789.92
457.93	1710.05
458.14	1746.92
458.34	1648.61
458.54	1738.73
458.75	1703.91
458.95	1826.79
459.15	1798.12
459.36	1763.30
459.56	1800.16
459.76	1875.94
459.97	1767.40
460.17	1787.88
460.37	1779.68
460.58	1755.11
460.78	1738.73
460.99	1738.73
461.19	1673.19
461.39	1708.01
461.60	1648.61
461.80	1738.73
462.00	1705.96
462.21	1691.62
462.41	1701.86
462.61	1640.42
462.82	1650.66
463.02	1773.54
463.22	1796.07
463.43	1765.35
463.63	1775.59
463.83	1796.07
464.04	1712.10
464.24	1697.77
464.44	1665.00
464.64	1763.30
464.85	1802.21
465.05	1814.50
465.25	1773.54
465.46	1748.97
465.66	1705.96
465.86	1832.93
466.07	1759.21
466.27	1705.96
466.47	1652.71
466.68	1662.95
466.88	1771.49
467.08	1773.54
467.29	1726.44
467.49	1759.21
467.69	1714.15
467.89	1779.68
468.10	1642.47
468.30	1722.34
468.50	1767.40
468.71	1710.05
468.91	1648.61
469.11	1812.45
469.31	1773.54
469.52	1613.80
469.72	1753.06
469.92	1898.47
470.13	1693.67
470.33	1681.38
470.53	1843.17
470.73	2082.78
470.94	2340.83
471.14	2322.40
471.34	2586.58
471.54	2416.60
471.75	2176.99
471.95	2127.84
472.15	2093.02
472.36	1996.77
472.56	2043.87
472.76	2066.40
472.96	2039.78
473.17	1941.47
473.37	1886.18
473.57	1796.07
473.77	1826.79
473.98	1720.29
474.18	1679.33
474.38	1871.84
474.58	1662.95
474.79	1640.42
474.99	1736.68
475.19	1832.93
475.39	1701.86
475.60	1757.16
475.80	1689.57
476.00	1681.38
476.20	1662.95
476.41	1730.53
476.61	1861.60
476.81	1759.21
477.01	1568.74
477.21	1855.46
477.42	1843.17
477.62	1687.53
477.82	1800.16
478.02	1724.39
478.23	1705.96
478.43	1626.09
478.63	1708.01
478.83	1708.01
479.03	1671.14
479.24	1771.49
479.44	1845.22
479.64	1677.29
479.84	1632.23
480.04	1697.77
480.25	1845.22
480.45	1761.25
480.65	1716.20
480.85	1763.30
481.06	1667.05
481.26	1789.92
481.46	1767.40
481.66	1800.16
481.86	1615.85
482.06	1785.83
482.27	1748.97
482.47	1757.16
482.67	1732.58
482.87	1720.29
483.07	1734.63
483.28	1736.68
483.48	1617.90
483.68	1751.01
483.88	1609.70
484.08	1673.19
484.29	1632.23
484.49	1708.01
484.69	1720.29
484.89	1787.88
485.09	1722.34
485.29	1722.34
485.50	1722.34
485.70	1669.09
485.90	1738.73
486.10	1691.62
486.30	1757.16
486.50	1791.97
486.71	1718.25
486.91	1785.83
487.11	1798.12
487.31	1628.14
487.51	1730.53
487.71	1683.43
487.91	1656.81
488.12	1669.09
488.32	1546.22
488.52	1769.44
488.72	1667.05
488.92	1720.29
489.12	1677.29
489.32	1818.60
489.53	1785.83
489.73	1581.03
489.93	1773.54
490.13	1705.96
490.33	1632.23
490.53	1798.12
490.73	1832.93
490.94	1617.90
491.14	1851.36
491.34	1873.89
491.54	2193.37
491.74	2590.68
491.94	2850.77
492.14	2990.03
492.34	2969.55
492.54	2736.09
492.75	2445.27
492.95	2430.94
493.15	2338.78
493.35	2246.62
493.55	2189.28
493.75	2119.65
493.95	2041.82
494.15	1988.58
494.35	1910.75
494.56	1771.49
494.76	1796.07
494.96	1822.69
495.16	1763.30
495.36	1710.05
495.56	1748.97
495.76	1669.09
495.96	1755.11
496.16	1710.05
496.36	1769.44
496.56	1759.21
496.77	1705.96
496.97	1765.35
497.17	1812.45
497.37	1587.18
497.57	1773.54
497.77	1724.39
497.97	1671.14
498.17	1810.40
498.37	1669.09
498.57	1808.36
498.77	1689.57
498.97	1728.49
499.17	1853.41
499.38	1777.64
499.58	1806.31
499.78	1683.43
499.98	1755.11
500.18	1699.81
500.38	1669.09
500.58	1900.52
500.78	2510.81
500.98	4577.21
501.18	5840.81
501.38	6764.44
501.58	6967.19
501.78	6631.32
501.98	5554.09
502.18	4960.18
502.38	4368.32
502.58	4118.47
502.78	3864.52
502.98	3667.91
503.18	3422.16
503.38	3211.22
503.59	2813.91
503.79	2619.35
503.99	2482.14
504.19	2324.44
504.39	2220.00
504.59	2234.33
504.79	2138.08
504.99	2068.45
505.19	1906.66
505.39	1845.22
505.59	1996.77
505.79	1914.85
505.99	1789.92
506.19	1900.52
506.39	1923.04
506.59	1765.35
506.79	1748.97
506.99	1828.84
507.19	1859.56
507.39	1818.60
507.59	1679.33
507.79	1708.01
507.99	1697.77
508.19	1697.77
508.39	1681.38
508.59	1800.16
508.79	1740.77
508.99	1759.21
509.19	1734.63
509.39	1837.03
509.59	1697.77
509.79	1656.81
509.99	1822.69
510.19	1761.25
510.39	1759.21
510.59	1767.40
510.79	1697.77
510.99	1691.62
511.19	1761.25
511.39	1794.02
511.59	1716.20
511.79	1796.07
511.99	1828.84
512.19	1812.45
512.38	1722.34
512.58	1695.72
512.78	1695.72
512.98	1755.11
513.18	1744.87
513.38	1576.94
513.58	1757.16
513.78	1710.05
513.98	1726.44
514.18	1699.81
514.38	1699.81
514.58	1728.49
514.78	1734.63
514.98	1726.44
515.18	1718.25
515.38	1703.91
515.58	1843.17
515.78	1736.68
515.98	1757.16
516.18	1763.30
516.38	1697.77
516.57	1701.86
516.77	1675.24
516.97	1742.82
517.17	1742.82
517.37	1662.95
517.57	1708.01
517.77	1705.96
517.97	1689.57
518.17	1789.92
518.37	1708.01
518.57	1712.10
518.77	1808.36
518.97	1748.97
519.16	1845.22
519.36	1841.12
519.56	1765.35
519.76	1665.00
519.96	1748.97
520.16	1779.68
520.36	1667.05
520.56	1779.68
520.76	1689.57
520.96	1753.06
521.16	1849.32
521.35	1802.21
521.55	1839.08
521.75	1685.48
521.95	1673.19
522.15	1720.29
522.35	1689.57
522.55	1679.33
522.75	1810.40
522.95	1726.44
523.14	1691.62
523.34	1767.40
523.54	1734.63
523.74	1808.36
523.94	1734.63
524.14	1617.90
524.34	1777.64
524.54	1757.16
524.73	1652.71
524.93	1710.05
525.13	1755.11
525.33	1599.46
525.53	1892.32
525.73	1771.49
525.93	1794.02
526.13	1742.82
526.32	1671.14
526.52	1746.92
526.72	1759.21
526.92	1703.91
527.12	1683.43
527.32	1644.52
527.52	1769.44
527.71	1728.49
527.91	1738.73
528.11	1701.86
528.31	1662.95
528.51	1615.85
528.71	1697.77
528.90	1667.05
529.10	1816.55
529.30	1783.78
529.50	1628.14
529.70	1759.21
529.90	1751.01
530.09	1800.16
530.29	1742.82
530.49	1740.77
530.69	1871.84
530.89	1732.58
531.09	1757.16
531.28	1714.15
531.48	1742.82
531.68	1726.44
531.88	1708.01
532.08	1720.29
532.28	1703.91
532.47	1808.36
532.67	1794.02
532.87	1767.40
533.07	1691.62
533.27	1769.44
533.46	1714.15
533.66	1722.34
533.86	1791.97
534.06	1746.92
534.26	1687.53
534.45	1730.53
534.65	1796.07
534.85	1708.01
535.05	1667.05
535.25	1781.73
535.44	1566.70
535.64	1783.78
535.84	1728.49
536.04	1640.42
536.24	1679.33
536.43	1697.77
536.63	1738.73
536.83	1800.16
537.03	1705.96
537.22	1665.00
537.42	1697.77
537.62	1669.09
537.82	1712.10
538.02	1804.26
538.21	1830.88
538.41	1865.70
538.61	1775.59
538.81	1720.29
539.00	1884.13
539.20	1648.61
539.40	1691.62
539.60	1744.87
539.79	1755.11
539.99	1650.66
540.19	1636.33
540.39	1710.05
540.58	1755.11
540.78	1759.21
540.98	1763.30
541.18	1748.97
541.37	1777.64
541.57	1730.53
541.77	1753.06
541.97	1705.96
542.16	1679.33
542.36	1595.37
542.56	1779.68
542.76	1916.90
542.95	1822.69
543.15	1810.40
543.35	1828.84
543.54	1693.67
543.74	1705.96
543.94	1757.16
544.14	1660.90
544.33	1859.56
544.53	1695.72
544.73	1777.64
544.93	1712.10
545.12	1716.20
545.32	1730.53
545.52	1748.97
545.71	1687.53
545.91	1708.01
546.11	1675.24
546.30	1693.67
546.50	1710.05
546.70	1769.44
546.90	1746.92
547.09	1617.90
547.29	1714.15
547.49	1738.73
547.68	1705.96
547.88	1662.95
548.08	1693.67
548.27	2093.02
548.47	1726.44
548.67	1751.01
548.87	1759.21
549.06	1708.01
549.26	1769.44
549.46	1777.64
549.65	1720.29
549.85	1714.15
550.05	1798.12
550.24	1642.47
550.44	1722.34
550.64	1720.29
550.83	1658.85
551.03	1871.84
551.23	1800.16
551.42	1791.97
551.62	1667.05
551.82	1771.49
552.01	1689.57
552.21	1808.36
552.41	1787.88
552.60	1818.60
552.80	1789.92
553.00	1716.20
553.19	1746.92
553.39	1828.84
553.59	1615.85
553.78	1689.57
553.98	1798.12
554.17	1669.09
554.37	1701.86
554.57	1787.88
554.76	1605.61
554.96	1689.57
555.16	1785.83
555.35	1732.58
555.55	1720.29
555.75	1748.97
555.94	1773.54
556.14	1638.38
556.33	1882.08
556.53	1804.26
556.73	1703.91
556.92	1767.40
557.12	1820.64
557.32	1859.56
557.51	1785.83
557.71	1767.40
557.90	1863.65
558.10	1789.92
558.30	1806.31
558.49	1732.58
558.69	1683.43
558.88	1796.07
559.08	1675.24
559.28	1773.54
559.47	1726.44
559.67	1771.49
559.86	1818.60
560.06	1791.97
560.26	1687.53
560.45	1755.11
560.65	1755.11
560.84	1855.46
561.04	1693.67
561.24	1708.01
561.43	1705.96
561.63	1816.55
561.82	1837.03
562.02	1783.78
562.22	1705.96
562.41	1681.38
562.61	1728.49
562.80	1634.28
563.00	1959.91
563.19	1769.44
563.39	1779.68
563.59	1759.21
563.78	1640.42
563.98	1730.53
564.17	1683.43
564.37	1597.42
564.56	1757.16
564.76	1791.97
564.96	1867.75
565.15	1708.01
565.35	1834.98
565.54	1759.21
565.74	1812.45
565.93	1726.44
566.13	1714.15
566.32	1708.01
566.52	1849.32
566.71	1724.39
566.91	1757.16
567.11	1734.63
567.30	1710.05
567.50	1781.73
567.69	1732.58
567.89	1693.67
568.08	1628.14
568.28	1791.97
568.47	1693.67
568.67	1753.06
568.86	1632.23
569.06	1738.73
569.25	1660.90
569.45	1650.66
569.64	1650.66
569.84	1732.58
570.04	1718.25
570.23	1673.19
570.43	1716.20
570.62	1810.40
570.82	1800.16
571.01	1615.85
571.21	1673.19
571.40	1740.77
571.60	1828.84
571.79	1779.68
571.99	1720.29
572.18	1667.05
572.38	1791.97
572.57	1679.33
572.77	1738.73
572.96	1904.61
573.16	1751.01
573.35	1742.82
573.55	1734.63
573.74	1763.30
573.94	1714.15
574.13	1759.21
574.33	1773.54
574.52	1853.41
574.71	1781.73
574.91	1773.54
575.10	1669.09
575.30	1681.38
575.49	1716.20
575.69	1701.86
575.88	1765.35
576.08	1714.15
576.27	1837.03
576.47	1818.60
576.66	1783.78
576.86	1812.45
577.05	1722.34
577.25	1822.69
577.44	1861.60
577.64	1710.05
577.83	1841.12
578.02	1693.67
578.22	1837.03
578.41	1886.18
578.61	1712.10
578.80	1632.23
579.00	1744.87
579.19	1722.34
579.39	1763.30
579.58	1804.26
579.77	1718.25
579.97	1853.41
580.16	1804.26
580.36	1761.25
580.55	1837.03
580.75	1759.21
580.94	1791.97
581.13	1851.36
581.33	1796.07
581.52	1699.81
581.72	1867.75
581.91	1845.22
582.11	1757.16
582.30	1839.08
582.49	1603.56
582.69	1859.56
582.88	1800.16
583.08	1845.22
583.27	1843.17
583.47	1722.34
583.66	1802.21
583.85	1673.19
584.05	1781.73
584.24	1796.07
584.44	1787.88
584.63	1832.93
584.82	1806.31
585.02	1804.26
585.21	1763.30
585.41	1865.70
585.60	1742.82
585.79	1976.29
585.99	1867.75
586.18	1777.64
586.37	2119.65
586.57	3377.10
586.76	9734.00
586.96	24131.22
587.15	34469.36
587.34	39970.21
587.54	41969.02
587.73	36636.11
587.93	26062.45
588.12	21518.01
588.31	18351.85
588.51	16250.63
588.70	15294.23
588.89	13989.67
589.09	12427.07
589.28	10966.87
589.47	9475.95
589.67	8030.09
589.86	6315.94
590.06	4921.27
590.25	3913.67
590.44	3135.44
590.64	2611.16
590.83	2201.57
591.02	2140.13
591.22	1920.99
591.41	1853.41
591.60	1816.55
591.80	1900.52
591.99	1779.68
592.18	1734.63
592.38	1871.84
592.57	1724.39
592.76	1755.11
592.96	1839.08
593.15	1701.86
593.34	1824.74
593.54	1738.73
593.73	1806.31
593.92	1794.02
594.12	1697.77
594.31	1806.31
594.50	1849.32
594.70	1722.34
594.89	1849.32
595.08	1712.10
595.28	1816.55
595.47	1888.23
595.66	1855.46
595.86	1732.58
596.05	1714.15
596.24	1757.16
596.43	1812.45
596.63	1832.93
596.82	1808.36
597.01	1781.73
597.21	1724.39
597.40	1757.16
597.59	1685.48
597.79	1726.44
597.98	1767.40
598.17	1794.02
598.36	1724.39
598.56	1718.25
598.75	1689.57
598.94	1798.12
599.14	1720.29
599.33	1630.18
599.52	1810.40
599.71	1804.26
599.91	1757.16
600.10	1732.58
600.29	1742.82
600.48	1787.88
600.68	1789.92
600.87	1771.49
601.06	1730.53
601.26	1628.14
601.45	1740.77
601.64	1814.50
601.83	1773.54
602.03	1712.10
602.22	1691.62
602.41	1796.07
602.60	1851.36
602.80	1855.46
602.99	1789.92
603.18	1699.81
603.37	1693.67
603.57	1740.77
603.76	1787.88
603.95	1785.83
604.14	1742.82
604.34	1705.96
604.53	1804.26
604.72	1734.63
604.91	1812.45
605.10	1662.95
605.30	1689.57
605.49	1906.66
605.68	1730.53
605.87	1779.68
606.07	1722.34
606.26	1771.49
606.45	1839.08
606.64	1798.12
606.84	1695.72
607.03	1677.29
607.22	1718.25
607.41	1710.05
607.60	1718.25
607.80	1834.98
607.99	1744.87
608.18	1683.43
608.37	1738.73
608.56	1681.38
608.76	1746.92
608.95	1830.88
609.14	1783.78
609.33	1775.59
609.52	1765.35
609.72	1697.77
609.91	1726.44
610.10	1714.15
610.29	1834.98
610.48	1685.48
610.68	1759.21
610.87	1800.16
611.06	1820.64
611.25	1761.25
611.44	1751.01
611.63	1753.06
611.83	1732.58
612.02	1611.75
612.21	1806.31
612.40	1669.09
612.59	1677.29
612.79	1626.09
612.98	1783.78
613.17	1783.78
613.36	1777.64
613.55	1804.26
613.74	1697.77
613.93	1685.48
614.13	1785.83
614.32	1775.59
614.51	1705.96
614.70	1714.15
614.89	1722.34
615.08	1761.25
615.28	2027.49
615.47	1736.68
615.66	1763.30
615.85	1746.92
616.04	1818.60
616.23	1669.09
616.42	1722.34
616.62	1638.38
616.81	1669.09
617.00	1642.47
617.19	1699.81
617.38	1638.38
617.57	1677.29
617.76	1724.39
617.95	1794.02
618.15	1783.78
618.34	1843.17
618.53	1685.48
618.72	1812.45
618.91	1804.26
619.10	1826.79
619.29	1726.44
619.48	1751.01
619.68	1708.01
619.87	1722.34
620.06	1611.75
620.25	1769.44
620.44	1689.57
620.63	1714.15
620.82	1716.20
621.01	1718.25
621.20	1763.30
621.39	1701.86
621.59	1718.25
621.78	1757.16
621.97	1744.87
622.16	1755.11
622.35	1720.29
622.54	1791.97
622.73	1794.02
622.92	1675.24
623.11	1791.97
623.30	1705.96
623.49	1710.05
623.68	1744.87
623.88	1781.73
624.07	1724.39
624.26	1751.01
624.45	1734.63
624.64	1716.20
624.83	1718.25
625.02	1779.68
625.21	1777.64
625.40	1683.43
625.59	1814.50
625.78	1699.81
625.97	1724.39
626.16	1763.30
626.35	1746.92
626.54	1738.73
626.74	1720.29
626.93	1753.06
627.12	1744.87
627.31	1841.12
627.50	1744.87
627.69	1732.58
627.88	1673.19
628.07	1628.14
628.26	1640.42
628.45	1644.52
628.64	1648.61
628.83	1730.53
629.02	1677.29
629.21	1740.77
629.40	1718.25
629.59	1699.81
629.78	1708.01
629.97	1724.39
630.16	1781.73
630.35	1742.82
630.54	1691.62
630.73	1665.00
630.92	1703.91
631.11	1714.15
631.30	1744.87
631.49	1751.01
631.68	1710.05
631.87	1769.44
632.06	1722.34
632.25	1800.16
632.44	1746.92
632.63	1724.39
632.82	1714.15
633.01	1630.18
633.20	1722.34
633.39	1687.53
633.58	1632.23
633.77	1736.68
633.96	1808.36
634.15	1808.36
634.34	1740.77
634.53	1757.16
634.72	1724.39
634.91	1619.94
635.10	1761.25
635.29	1726.44
635.48	1765.35
635.67	1685.48
635.86	1714.15
636.05	1736.68
636.24	1730.53
636.43	1820.64
636.62	1724.39
636.81	1570.79
637.00	1720.29
637.19	1671.14
637.38	1726.44
637.57	1636.33
637.76	1671.14
637.95	1734.63
638.14	1650.66
638.33	1740.77
638.52	1742.82
638.71	1708.01
638.89	1671.14
639.08	1787.88
639.27	1806.31
639.46	1748.97
639.65	1834.98
639.84	1744.87
640.03	1779.68
640.22	1660.90
640.41	1867.75
640.60	1613.80
640.79	1746.92
640.98	1665.00
641.17	1693.67
641.36	1705.96
641.55	1740.77
641.74	1675.24
641.92	1718.25
642.11	1648.61
642.30	1665.00
642.49	1671.14
642.68	1656.81
642.87	1765.35
643.06	1740.77
643.25	1683.43
643.44	1714.15
643.63	1726.44
643.82	1730.53
644.00	1683.43
644.19	1646.57
644.38	1673.19
644.57	1802.21
644.76	1714.15
644.95	1697.77
645.14	1697.77
645.33	1687.53
645.52	1705.96
645.71	1669.09
645.89	1689.57
646.08	1671.14
646.27	1628.14
646.46	1781.73
646.65	1638.38
646.84	1708.01
647.03	1679.33
647.22	1796.07
647.40	1755.11
647.59	1679.33
647.78	1587.18
647.97	1718.25
648.16	1632.23
648.35	1730.53
648.54	1763.30
648.73	1701.86
648.91	1798.12
649.10	1740.77
649.29	1708.01
649.48	1681.38
649.67	1705.96
649.86	1675.24
650.05	1611.75
650.23	1779.68
650.42	1644.52
650.61	1751.01
650.80	1804.26
650.99	1820.64
651.18	1785.83
651.36	1777.64
651.55	1703.91
651.74	1816.55
651.93	1658.85
652.12	1699.81
652.31	1691.62
652.49	1685.48
652.68	1691.62
652.87	1755.11
653.06	1775.59
653.25	1779.68
653.44	1697.77
653.62	1746.92
653.81	1748.97
654.00	1679.33
654.19	1839.08
654.38	1910.75
654.56	1685.48
654.75	1738.73
654.94	1779.68
655.13	1736.68
655.32	1746.92
655.51	1757.16
655.69	1677.29
655.88	1699.81
656.07	1701.86
656.26	1771.49
656.45	1644.52
656.63	1738.73
656.82	1746.92
657.01	1757.16
657.20	1689.57
657.38	1812.45
657.57	1726.44
657.76	1654.76
657.95	1732.58
658.14	1675.24
658.32	1699.81
658.51	1619.94
658.70	1685.48
658.89	1675.24
659.08	1720.29
659.26	1779.68
659.45	1617.90
659.64	1751.01
659.83	1646.57
660.01	1826.79
660.20	1693.67
660.39	1783.78
660.58	1562.60
660.76	1695.72
660.95	1685.48
661.14	1714.15
661.33	1656.81
661.51	1742.82
661.70	1662.95
661.89	1689.57
662.08	1744.87
662.26	1658.85
662.45	1667.05
662.64	1804.26
662.83	1708.01
663.01	1626.09
663.20	1738.73
663.39	1877.99
663.58	1726.44
663.76	1693.67
663.95	1701.86
664.14	1636.33
664.32	1658.85
664.51	1677.29
664.70	1619.94
664.89	1767.40
665.07	1722.34
665.26	1837.03
665.45	1687.53
665.64	1744.87
665.82	1720.29
666.01	1816.55
666.20	1628.14
666.38	1853.41
666.57	1853.41
666.76	2144.22
666.95	4478.91
667.13	10162.02
667.32	15034.14
667.51	17647.35
667.69	18796.26
667.88	17471.22
668.07	12316.48
668.25	9564.01
668.44	7901.06
668.63	7186.32
668.81	6666.14
669.00	6180.77
669.19	5619.63
669.38	5027.76
669.56	4509.63
669.75	4009.92
669.94	3440.59
670.12	2832.34
670.31	2629.59
670.50	2121.70
670.68	2133.98
670.87	1939.43
671.06	1771.49
671.24	1798.12
671.43	1808.36
671.62	1708.01
671.80	1781.73
671.99	1736.68
672.18	1695.72
672.36	1708.01
672.55	1681.38
672.74	1718.25
672.92	1691.62
673.11	1773.54
673.29	1601.51
673.48	1748.97
673.67	1755.11
673.85	1826.79
674.04	1619.94
674.23	1806.31
674.41	1804.26
674.60	1681.38
674.79	1689.57
674.97	1660.90
675.16	1771.49
675.34	1787.88
675.53	1742.82
675.72	1685.48
675.90	1814.50
676.09	1681.38
676.28	1769.44
676.46	1640.42
676.65	1769.44
676.83	1648.61
677.02	1669.09
677.21	1648.61
677.39	1705.96
677.58	1705.96
677.77	1679.33
677.95	1687.53
678.14	1642.47
678.32	1691.62
678.51	1642.47
678.70	1794.02
678.88	1693.67
679.07	1669.09
679.25	1742.82
679.44	1687.53
679.63	1736.68
679.81	1710.05
680.00	1822.69
680.18	1757.16
680.37	1824.74
680.55	1701.86
680.74	1660.90
680.93	1621.99
681.11	1687.53
681.30	1730.53
681.48	1763.30
681.67	1665.00
681.85	1701.86
682.04	1695.72
682.23	1673.19
682.41	1738.73
682.60	1693.67
682.78	1705.96
682.97	1677.29
683.15	1728.49
683.34	1744.87
683.53	1681.38
683.71	1634.28
683.90	1839.08
684.08	1742.82
684.27	1771.49
684.45	1716.20
684.64	1779.68
684.82	1654.76
685.01	1701.86
685.19	1644.52
685.38	1787.88
685.57	1658.85
685.75	1671.14
685.94	1697.77
686.12	1683.43
686.31	1708.01
686.49	1824.74
686.68	1587.18
686.86	1658.85
687.05	1746.92
687.23	1751.01
687.42	1693.67
687.60	1591.27
687.79	1744.87
687.97	1718.25
688.16	1832.93
688.34	1775.59
688.53	1642.47
688.71	1665.00
688.90	1816.55
689.08	1695.72
689.27	1624.04
689.45	1685.48
689.64	1740.77
689.82	1718.25
690.01	1763.30
690.19	1691.62
690.38	1742.82
690.56	1818.60
690.75	1658.85
690.93	1679.33
691.12	1726.44
691.30	1669.09
691.49	1683.43
691.67	1722.34
691.86	1843.17
692.04	1767.40
692.23	1681.38
692.41	1644.52
692.60	1798.12
692.78	1693.67
692.97	1710.05
693.15	1736.68
693.34	1865.70
693.52	1783.78
693.71	1710.05
693.89	1650.66
694.08	1675.24
694.26	1746.92
694.44	1810.40
694.63	1763.30
694.81	1646.57
695.00	1677.29
695.18	1697.77
695.37	1820.64
695.55	1742.82
695.74	1697.77
695.92	1601.51
696.10	1748.97
696.29	1568.74
696.47	1710.05
696.66	1533.93
696.84	1787.88
697.03	1751.01
697.21	1849.32
697.40	2410.46
697.58	1779.68
697.76	1724.39
697.95	1685.48
698.13	1650.66
698.32	1673.19
698.50	1757.16
698.68	1779.68
698.87	1689.57
699.05	1738.73
699.24	1650.66
699.42	1673.19
699.61	1621.99
699.79	1765.35
699.97	1599.46
700.16	1662.95
700.34	1681.38
700.53	1705.96
700.71	1808.36
700.89	1708.01
701.08	1673.19
701.26	1742.82
701.45	2140.13
701.63	1734.63
701.81	1693.67
702.00	1681.38
702.18	1662.95
702.37	1634.28
702.55	1783.78
702.73	1703.91
702.92	1640.42
703.10	1771.49
703.28	1736.68
703.47	1693.67
703.65	1779.68
703.84	1708.01
704.02	1701.86
704.20	1732.58
704.39	1619.94
704.57	1685.48
704.75	1689.57
704.94	1718.25
705.12	1695.72
705.30	1800.16
705.49	2263.01
705.67	4399.04
705.86	9168.76
706.04	12480.32
706.22	14384.93
706.41	15322.90
706.59	13571.89
706.77	9465.71
706.96	7231.38
707.14	6559.64
707.32	5969.83
707.51	5509.04
707.69	4712.38
707.87	4177.86
708.06	3585.99
708.24	2963.41
708.42	2400.22
708.61	2191.33
708.79	1820.64
708.97	1851.36
709.16	1828.84
709.34	1763.30
709.52	1728.49
709.71	1671.14
709.89	1697.77
710.07	1630.18
710.26	1640.42
710.44	1767.40
710.62	1738.73
710.80	1746.92
710.99	1796.07
711.17	1705.96
711.35	1679.33
711.54	1640.42
711.72	1789.92
711.90	1697.77
712.09	1691.62
712.27	1642.47
712.45	1787.88
712.63	1673.19
712.82	1708.01
713.00	1753.06
713.18	1804.26
713.37	1769.44
713.55	1746.92
713.73	1773.54
713.91	1732.58
714.10	1689.57
714.28	1773.54
714.46	1751.01
714.65	1742.82
714.83	1763.30
715.01	1662.95
715.19	1656.81
715.38	1683.43
715.56	1773.54
715.74	1638.38
715.92	1724.39
716.11	1689.57
716.29	1566.70
716.47	1667.05
716.65	1728.49
716.84	1648.61
717.02	1738.73
717.20	1632.23
717.38	1681.38
717.57	1714.15
717.75	1699.81
717.93	1689.57
718.11	1697.77
718.30	1650.66
718.48	1751.01
718.66	1712.10
718.84	1734.63
719.03	1681.38
719.21	1642.47
719.39	1877.99
719.57	1800.16
719.75	1832.93
719.94	1665.00
720.12	1697.77
720.30	1714.15
720.48	1763.30
720.67	1673.19
720.85	1734.63
721.03	1677.29
721.21	1652.71
721.39	1810.40
721.58	1712.10
721.76	1740.77
721.94	1699.81
722.12	1712.10
722.30	1820.64
722.49	1685.48
722.67	1720.29
722.85	1683.43
723.03	1611.75
723.21	1689.57
723.40	1708.01
723.58	1710.05
723.76	1787.88
723.94	1855.46
724.12	1710.05
724.30	1728.49
724.49	1746.92
724.67	1601.51
724.85	1824.74
725.03	1566.70
725.21	1789.92
725.40	1757.16
725.58	1710.05
725.76	1748.97
725.94	1753.06
726.12	1677.29
726.30	1660.90
726.49	1724.39
726.67	1710.05
726.85	1679.33
727.03	1761.25
727.21	2105.31
727.39	2936.79
727.57	3825.61
727.76	4204.48
727.94	4349.89
728.12	4323.26
728.30	3702.73
728.48	3076.05
728.66	2715.61
728.84	2498.52
729.03	2291.68
729.21	2185.18
729.39	2017.25
729.57	1767.40
729.75	1755.11
729.93	1832.93
730.11	1734.63
730.30	1720.29
730.48	1705.96
730.66	1828.84
730.84	1748.97
731.02	1693.67
731.20	1675.24
731.38	1665.00
731.56	1679.33
731.74	1740.77
731.93	1703.91
732.11	1714.15
732.29	1738.73
732.47	1810.40
732.65	1724.39
732.83	1781.73
733.01	1720.29
733.19	1677.29
733.37	1742.82
733.56	1701.86
733.74	1726.44
733.92	1718.25
734.10	1724.39
734.28	1720.29
734.46	1665.00
734.64	1685.48
734.82	1630.18
735.00	1687.53
735.18	1634.28
735.36	1720.29
735.54	1736.68
735.73	1644.52
735.91	1738.73
736.09	1755.11
736.27	1732.58
736.45	1759.21
736.63	1681.38
736.81	1693.67
736.99	1763.30
737.17	1773.54
737.35	1603.56
737.53	1673.19
737.71	1673.19
737.89	1853.41
738.07	1748.97
738.25	1667.05
738.43	1591.27
738.61	1695.72
738.80	1720.29
738.98	1660.90
739.16	1705.96
739.34	1705.96
739.52	1746.92
739.70	1615.85
739.88	1787.88
740.06	1822.69
740.24	1574.89
740.42	1736.68
740.60	1632.23
740.78	1626.09
740.96	1587.18
741.14	1642.47
741.32	1699.81
741.50	1665.00
741.68	1804.26
741.86	1757.16
742.04	1669.09
742.22	1648.61
742.40	1691.62
742.58	1697.77
742.76	1695.72
742.94	1736.68
743.12	1660.90
743.30	1730.53
743.48	1757.16
743.66	1640.42
743.84	1691.62
744.02	1738.73
744.20	1669.09
744.38	1687.53
744.56	1665.00
744.74	1765.35
744.92	1746.92
745.10	1773.54
745.28	1683.43
745.46	1789.92
745.64	1714.15
745.82	1757.16
746.00	1677.29
746.18	1714.15
746.36	1689.57
746.54	1705.96
746.72	1648.61
746.90	1607.66
747.08	1742.82
747.26	1742.82
747.44	1712.10
747.62	1742.82
747.80	1687.53
747.98	1785.83
748.15	1673.19
748.33	1789.92
748.51	1763.30
748.69	1779.68
748.87	1638.38
749.05	1599.46
749.23	1621.99
749.41	1736.68
749.59	1636.33
749.77	1673.19
749.95	1689.57
750.13	1648.61
750.31	1621.99
750.49	1730.53
750.67	1765.35
750.85	1755.11
751.03	1693.67
751.20	1824.74
751.38	1724.39
751.56	1693.67
751.74	1708.01
751.92	1705.96
752.10	1638.38
752.28	1761.25
752.46	1695.72
752.64	1644.52
752.82	1681.38
753.00	1789.92
753.18	1660.90
753.35	1701.86
753.53	1730.53
753.71	1730.53
753.89	1699.81
754.07	1746.92
754.25	1712.10
754.43	1712.10
754.61	1615.85
754.79	1634.28
754.97	1714.15
755.14	1742.82
755.32	1673.19
755.50	1710.05
755.68	1748.97
755.86	1632.23
756.04	1619.94
756.22	1585.13
756.40	1724.39
756.57	1759.21
756.75	1648.61
756.93	1714.15
757.11	1755.11
757.29	1708.01
757.47	1591.27
757.65	1585.13
757.82	1550.31
758.00	1697.77
758.18	1671.14
758.36	1669.09
758.54	1789.92
758.72	1665.00
758.90	1728.49
759.07	1740.77
759.25	1646.57
759.43	1746.92
759.61	1562.60
759.79	2136.03
759.97	1656.81
760.15	1734.63
760.32	1699.81
760.50	1728.49
760.68	1779.68
760.86	1617.90
761.04	1748.97
761.22	1777.64
761.39	1699.81
761.57	1726.44
761.75	1671.14
761.93	1740.77
762.11	1687.53
762.28	1773.54
762.46	1644.52
762.64	1740.77
762.82	1626.09
763.00	1705.96
763.18	1742.82
763.35	1615.85
763.53	1783.78
763.71	1765.35
763.89	1728.49
764.07	1787.88
764.24	1742.82
764.42	1718.25
764.60	1708.01
764.78	1693.67
764.96	1751.01
765.13	1640.42
765.31	1673.19
765.49	1789.92
765.67	1683.43
765.84	1640.42
766.02	1691.62
766.20	1568.74
766.38	1763.30
766.56	1671.14
766.73	1730.53
766.91	1712.10
767.09	1732.58
767.27	1724.39
767.44	1685.48
767.62	1755.11
767.80	1757.16
767.98	1642.47
768.15	1644.52
768.33	1777.64
768.51	1701.86
768.69	1677.29
768.87	1753.06
769.04	1691.62
769.22	1841.12
769.40	1730.53
769.58	1820.64
769.75	1646.57
769.93	1808.36
770.11	1630.18
770.28	1732.58
770.46	1755.11
770.64	1730.53
770.82	1697.77
770.99	1644.52
771.17	1667.05
771.35	1652.71
771.53	1693.67
771.70	1656.81
771.88	1691.62
772.06	1628.14
772.23	1691.62
772.41	1753.06
772.59	1652.71
772.77	1621.99
772.94	1689.57
773.12	1755.11
773.30	1626.09
773.47	1660.90
773.65	1669.09
773.83	1861.60
774.01	1687.53
774.18	1621.99
774.36	1761.25
774.54	1613.80
774.71	1728.49
774.89	1609.70
775.07	1679.33
775.24	1609.70
775.42	1677.29
775.60	1740.77
775.78	1624.04
775.95	1632.23
776.13	1681.38
776.31	1576.94
776.48	1689.57
776.66	1746.92
776.84	1732.58
777.01	1681.38
777.19	1712.10
777.37	1601.51
777.54	1656.81
777.72	1867.75
777.90	1791.97
778.07	1638.38
778.25	1822.69
778.43	1775.59
778.60	1677.29
778.78	1767.40
778.96	1710.05
779.13	1669.09
779.31	1769.44
779.49	1718.25
779.66	1716.20
779.84	1771.49
780.01	1699.81
780.19	1716.20
780.37	1787.88
780.54	1753.06
780.72	1650.66
780.90	1708.01
781.07	1718.25
781.25	1699.81
781.43	1775.59
781.60	1705.96
781.78	1753.06
781.95	1669.09
782.13	1660.90
782.31	1677.29
782.48	1574.89
782.66	1675.24
782.83	1847.27
783.01	1718.25
783.19	1697.77
783.36	1667.05
783.54	1626.09
783.72	1755.11
783.89	1714.15
784.07	1722.34
784.24	1673.19
784.42	1724.39
784.60	1736.68
784.77	1699.81
784.95	1566.70
785.12	1697.77
785.30	1689.57
785.47	1648.61
785.65	1581.03
785.83	1652.71
786.00	1615.85
786.18	1693.67
786.35	1570.79
786.53	1634.28
786.71	1730.53
786.88	1710.05
787.06	1681.38
787.23	1654.76
787.41	1601.51
787.58	1773.54
787.76	1662.95
787.94	1757.16
788.11	1718.25
788.29	1699.81
788.46	1658.85
788.64	1642.47
788.81	1701.86
788.99	1648.61
789.16	1699.81
789.34	1761.25
789.52	1652.71
789.69	1673.19
789.87	1693.67
790.04	1693.67
790.22	1699.81
790.39	1816.55
790.57	1712.10
790.74	1687.53
790.92	1820.64
791.09	1564.65
791.27	1689.57
791.44	1779.68
791.62	1736.68
791.79	1718.25
791.97	1701.86
792.15	1822.69
792.32	1755.11
792.50	1613.80
792.67	1834.98
792.85	1773.54
793.02	1708.01
793.20	1703.91
793.37	1642.47
793.55	1658.85
793.72	1732.58
793.90	1701.86
794.07	1683.43
794.25	1650.66
794.42	1640.42
794.60	1693.67
794.77	1722.34
794.95	1771.49
795.12	1736.68
795.30	1667.05
795.47	1640.42
795.65	1880.04
795.82	1761.25
796.00	1640.42
796.17	1695.72
796.34	1716.20
796.52	1691.62
796.69	1755.11
796.87	1687.53
797.04	1687.53
797.22	1742.82
797.39	1763.30
797.57	1769.44
797.74	1703.91
797.92	1734.63
798.09	1714.15
798.27	1791.97
798.44	1724.39
798.62	1685.48
798.79	1656.81
798.96	1748.97
799.14	1609.70
799.31	1845.22
799.49	1710.05
799.66	1638.38
799.84	1662.95
800.01	1681.38
800.19	1654.76
800.36	1603.56
800.53	1683.43
800.71	1656.81
800.88	1781.73
801.06	1708.01
801.23	1640.42
801.41	1626.09
801.58	1630.18
801.75	1652.71
801.93	1730.53
802.10	1679.33
802.28	1677.29
802.45	1685.48
802.63	1751.01
802.80	1861.60
802.97	1636.33
803.15	1705.96
803.32	1691.62
803.50	1671.14
803.67	1685.48
803.84	1605.61
804.02	1742.82
804.19	1591.27
804.37	1624.04
804.54	1710.05
804.71	1714.15
804.89	1738.73
805.06	1691.62
805.24	1640.42
805.41	1660.90
805.58	1656.81
805.76	1837.03
805.93	1763.30
806.10	1789.92
806.28	1697.77
806.45	1662.95
806.63	1718.25
806.80	1738.73
806.97	1740.77
807.15	1779.68
807.32	1630.18
807.49	1691.62
807.67	1585.13
807.84	1691.62
808.01	1544.17
808.19	1806.31
808.36	1800.16
808.54	1742.82
808.71	1611.75
808.88	1679.33
809.06	1742.82
809.23	1761.25
809.40	1615.85
809.58	1755.11
809.75	1648.61
809.92	1640.42
810.10	1802.21
810.27	1705.96
810.44	1710.05
810.62	1673.19
810.79	1722.34
810.96	1599.46
811.14	1667.05
811.31	1656.81
811.48	1673.19
811.66	1691.62
811.83	1724.39
812.00	1697.77
812.18	1605.61
812.35	1818.60
812.52	1748.97
812.69	1671.14
812.87	1699.81
813.04	1726.44
813.21	1705.96
813.39	1613.80
813.56	1703.91
813.73	1814.50
813.91	1660.90
814.08	1697.77
814.25	1689.57
814.42	1615.85
814.60	1703.91
814.77	1751.01
814.94	1726.44
815.12	1710.05
815.29	1681.38
815.46	1640.42
815.63	1693.67
815.81	1722.34
815.98	1751.01
816.15	1671.14
816.33	1685.48
816.50	1744.87
816.67	1738.73
816.84	1699.81
817.02	1591.27
817.19	1742.82
817.36	1679.33
817.53	1691.62
817.71	1677.29
817.88	1722.34
818.05	1673.19
818.22	1699.81
818.40	1794.02
818.57	1652.71
818.74	1781.73
818.91	1695.72
819.09	1720.29
819.26	1730.53
819.43	1726.44
819.60	1685.48
819.78	1726.44
819.95	1810.40
820.12	1572.84
820.29	1775.59
820.47	1742.82
820.64	1675.24
820.81	1626.09
820.98	1667.05
821.15	1697.77
821.33	1734.63
821.50	1691.62
821.67	1710.05
821.84	1693.67
822.02	1724.39
822.19	1763.30
822.36	1720.29
822.53	1648.61
822.70	1589.22
822.88	1552.36
823.05	1748.97
823.22	1681.38
823.39	1759.21
823.56	1683.43
823.74	1732.58
823.91	1576.94
824.08	1538.02
824.25	1648.61
824.42	1761.25
824.60	1585.13
824.77	1771.49
824.94	1662.95
825.11	1691.62
825.28	1660.90
825.45	1738.73
825.63	1724.39
825.80	1681.38
825.97	1808.36
826.14	1724.39
826.31	1603.56
826.48	1769.44
826.66	1615.85
826.83	1660.90
827.00	1656.81
827.17	1611.75
827.34	1697.77
827.51	1691.62
827.69	1689.57
827.86	1638.38
828.03	1726.44
828.20	1746.92
828.37	1648.61
828.54	1695.72
828.71	1648.61
828.89	1855.46
829.06	1722.34
829.23	1777.64
829.40	1667.05
829.57	1765.35
829.74	1720.29
829.91	1652.71
830.09	1677.29
830.26	1800.16
830.43	1763.30
830.60	1687.53
830.77	1742.82
830.94	1824.74
831.11	1765.35
831.28	1662.95
831.46	1736.68
831.63	1628.14
831.80	1671.14
831.97	1662.95
832.14	1644.52
832.31	1726.44
832.48	1658.85
832.65	1769.44
832.82	1769.44
832.99	1751.01
833.17	1650.66
833.34	1718.25
833.51	1714.15
833.68	1568.74
833.85	1718.25
834.02	1673.19
834.19	1624.04
834.36	1654.76
834.53	1701.86
834.70	1787.88
834.87	1701.86
835.04	1718.25
835.22	1619.94
835.39	1626.09
835.56	1646.57
835.73	1701.86
835.90	1748.97
836.07	1617.90
836.24	1740.77
836.41	1665.00
836.58	1691.62
836.75	1789.92
836.92	1660.90
837.09	1679.33
837.26	1730.53
837.43	1681.38
837.60	1677.29
837.77	1632.23
837.94	1705.96
838.12	1736.68
838.29	1728.49
838.46	1554.41
838.63	1667.05
838.80	1730.53
838.97	1730.53
839.14	1656.81
839.31	1732.58
839.48	1806.31
839.65	1710.05
839.82	1724.39
839.99	1728.49
840.16	1583.08
840.33	1640.42
840.50	1730.53
840.67	1701.86
840.84	1546.22
841.01	1724.39
841.18	1665.00
841.35	1634.28
841.52	1736.68
841.69	1751.01
841.86	1638.38
842.03	1701.86
842.20	1755.11
842.37	1701.86
842.54	1675.24
842.71	1681.38
842.88	1634.28
843.05	1746.92
843.22	1699.81
843.39	1712.10
843.56	1734.63
843.73	1619.94
843.90	1646.57
844.07	1665.00
844.24	1771.49
844.41	1677.29
844.58	1742.82
844.75	1734.63
844.92	1701.86
845.09	1697.77
845.26	1669.09
845.43	1738.73
845.60	1652.71
845.77	1738.73
845.94	1705.96
846.10	1804.26
846.27	1630.18
846.44	1667.05
846.61	1619.94
846.78	1726.44
846.95	1806.31
847.12	1611.75
847.29	1716.20
847.46	1640.42
847.63	1777.64
847.80	1562.60
847.97	1679.33
848.14	1742.82
848.31	1732.58
848.48	1730.53
848.65	1783.78
848.82	1718.25
848.98	1877.99
849.15	1755.11
849.32	1796.07
849.49	1748.97
849.66	1660.90
849.83	1705.96
850.00	1658.85
850.17	1726.44
850.34	1673.19
850.51	1691.62
850.68	1671.14
850.85	1828.84
851.01	1697.77
851.18	1718.25
851.35	1705.96
851.52	1703.91
851.69	1755.11
851.86	1634.28
852.03	1648.61
852.20	1802.21
852.37	1738.73
852.53	1718.25
852.70	1652.71
852.87	1685.48
853.04	1751.01
853.21	1722.34
853.38	1775.59
853.55	1708.01
853.72	1730.53
853.89	1642.47
854.05	1652.71
854.22	1656.81
854.39	1685.48
854.56	1789.92
854.73	1730.53
854.90	1578.98
855.07	1722.34
855.23	1613.80
855.40	1714.15
855.57	1638.38
855.74	1640.42
855.91	1970.15
856.08	1611.75
856.25	1607.66
856.41	1705.96
856.58	1708.01
856.75	1724.39
856.92	1681.38
857.09	1726.44
857.26	1652.71
857.42	1671.14
857.59	1695.72
857.76	1748.97
857.93	1679.33
858.10	1720.29
858.27	1654.76
858.43	1714.15
858.60	1638.38
858.77	1642.47
858.94	1648.61
859.11	1763.30
859.27	1669.09
859.44	1771.49
859.61	1800.16
859.78	1689.57
859.95	1576.94
860.12	1708.01
860.28	1736.68
860.45	1867.75
860.62	1638.38
860.79	1683.43
860.95	1669.09
861.12	1671.14
861.29	1646.57
861.46	1665.00
861.63	1648.61
861.79	1757.16
861.96	1636.33
862.13	1689.57
862.30	1755.11
862.47	1650.66
862.63	1630.18
862.80	1787.88
862.97	1712.10
863.14	1732.58
863.30	1722.34
863.47	1646.57
863.64	1796.07
863.81	1677.29
863.97	1650.66
864.14	1720.29
864.31	1695.72
864.48	1654.76
864.65	1648.61
864.81	1679.33
864.98	1746.92
865.15	1779.68
865.32	1751.01
865.48	1777.64
865.65	1759.21
865.82	1695.72
865.98	1726.44
866.15	1673.19
866.32	1695.72
866.49	1632.23
866.65	1738.73
866.82	1660.90
866.99	1624.04
867.16	1624.04
867.32	1658.85
867.49	1638.38
867.66	1710.05
867.83	1685.48
867.99	1634.28
868.16	1722.34
868.33	1667.05
868.49	1673.19
868.66	1677.29
868.83	1710.05
868.99	1669.09
869.16	1697.77
869.33	1767.40
869.50	1773.54
869.66	1748.97
869.83	1699.81
870.00	1652.71
870.16	1802.21
870.33	1697.77
870.50	1822.69
870.66	1701.86
870.83	1763.30
871.00	1697.77
871.17	1746.92
871.33	1765.35
871.50	1673.19
871.67	1681.38
871.83	1685.48
872.00	1759.21
872.17	1609.70
872.33	1785.83
872.50	1740.77
872.67	1675.24
872.83	1675.24
873.00	1734.63
873.17	1734.63
873.33	1748.97
873.50	1796.07
873.67	1648.61
873.83	1591.27
874.00	1726.44
874.16	1800.16
874.33	1734.63
874.50	1611.75
874.66	1757.16
874.83	1697.77
875.00	1751.01
875.16	1765.35
875.33	1779.68
875.50	1599.46
875.66	1677.29
875.83	1740.77
875.99	1726.44
876.16	1738.73
876.33	1658.85
876.49	1705.96
876.66	1724.39
876.83	1658.85
876.99	1607.66
877.16	1624.04
877.32	1656.81
877.49	1613.80
877.66	1718.25
877.82	1779.68
877.99	1648.61
878.15	1701.86
878.32	1740.77
878.49	1685.48
878.65	1652.71
878.82	1755.11
878.98	1601.51
879.15	1755.11
879.32	1759.21
879.48	1693.67
879.65	1738.73
879.81	1652.71
879.98	1656.81
880.15	1720.29
880.31	1724.39
880.48	1648.61
880.64	1777.64
880.81	1771.49
880.97	1869.80
881.14	1779.68
881.31	1583.08
881.47	1828.84
881.64	1679.33
881.80	1574.89
881.97	1669.09
882.13	1832.93
882.30	1640.42
882.47	1732.58
882.63	1611.75
882.80	1617.90
882.96	1710.05
883.13	1730.53
883.29	1701.86
883.46	1746.92
883.62	1763.30
883.79	1671.14
883.95	1726.44
884.12	1703.91
884.29	1701.86
884.45	1673.19
884.62	1699.81
884.78	1615.85
884.95	1742.82
885.11	1640.42
885.28	1718.25
885.44	1665.00
885.61	1740.77
885.77	1632.23
885.94	1732.58
886.10	1718.25
886.27	1710.05
886.43	1669.09
886.60	1798.12
886.76	1613.80
886.93	1660.90
887.09	1697.77
887.26	1685.48
887.42	1703.91
887.59	1681.38
887.75	1830.88
887.92	1730.53
888.08	1800.16
888.25	1763.30
888.41	1736.68
888.58	1650.66
888.74	1644.52
888.91	1617.90
>>>>>End Processed Spectral Data<<<<<
