SpectraSuite Data File
++++++++++++++++++++++++++++++++++++
Date: Mon Jun 06 14:01:37 CEST 2016
User: root
Dark Spectrum Present: No
Reference Spectrum Present: No
Number of Sampled Component Spectra: 1
Spectrometers: USB4C02835
Integration Time (usec): 100000 (USB4C02835)
Spectra Averaged: 1 (USB4C02835)
Boxcar Smoothing: 0 (USB4C02835)
Correct for Electrical Dark: No (USB4C02835)
Strobe/Lamp Enabled: No (USB4C02835)
Correct for Detector Non-linearity: No (USB4C02835)
Correct for Stray Light: No (USB4C02835)
Number of Pixels in Processed Spectrum: 3648
>>>>>Begin Processed Spectral Data<<<<<
177.47	1492.97
177.69	1492.97
177.91	1492.97
178.13	1374.19
178.36	1478.63
178.58	1617.90
178.80	1734.63
179.02	1650.66
179.24	1644.52
179.46	1736.68
179.68	1732.58
179.90	1783.78
180.13	1693.67
180.35	1701.86
180.57	1724.39
180.79	1669.09
181.01	1640.42
181.23	1761.25
181.45	1724.39
181.67	1695.72
181.90	1800.16
182.12	1624.04
182.34	1740.77
182.56	1679.33
182.78	1748.97
183.00	1751.01
183.22	1755.11
183.44	1591.27
183.66	1826.79
183.89	1812.45
184.11	1738.73
184.33	1665.00
184.55	1763.30
184.77	1697.77
184.99	1708.01
185.21	1667.05
185.43	1820.64
185.65	1708.01
185.87	1718.25
186.10	1812.45
186.32	1771.49
186.54	1736.68
186.76	1658.85
186.98	1787.88
187.20	1609.70
187.42	1755.11
187.64	1697.77
187.86	1621.99
188.08	1726.44
188.30	1646.57
188.52	1693.67
188.75	1755.11
188.97	1800.16
189.19	1742.82
189.41	1724.39
189.63	1695.72
189.85	1746.92
190.07	1689.57
190.29	1621.99
190.51	1761.25
190.73	1564.65
190.95	1738.73
191.17	1699.81
191.39	1660.90
191.61	1656.81
191.84	1687.53
192.06	1710.05
192.28	1652.71
192.50	1785.83
192.72	1697.77
192.94	1691.62
193.16	1775.59
193.38	1714.15
193.60	1634.28
193.82	1705.96
194.04	1767.40
194.26	1691.62
194.48	1675.24
194.70	1662.95
194.92	1652.71
195.14	1736.68
195.36	1654.76
195.58	1742.82
195.80	1632.23
196.02	1642.47
196.24	1714.15
196.46	1658.85
196.69	1648.61
196.91	1824.74
197.13	1703.91
197.35	1681.38
197.57	1783.78
197.79	1681.38
198.01	1677.29
198.23	1781.73
198.45	1675.24
198.67	1654.76
198.89	1646.57
199.11	1724.39
199.33	1656.81
199.55	1585.13
199.77	1615.85
199.99	1718.25
200.21	1734.63
200.43	1636.33
200.65	1632.23
200.87	1566.70
201.09	1748.97
201.31	1681.38
201.53	1806.31
201.75	1820.64
201.97	1671.14
202.19	1720.29
202.41	1652.71
202.63	1808.36
202.85	1763.30
203.07	1746.92
203.29	1652.71
203.51	1648.61
203.73	1662.95
203.95	1877.99
204.17	1693.67
204.39	1748.97
204.61	1718.25
204.83	1609.70
205.05	1738.73
205.27	1787.88
205.49	1798.12
205.71	1636.33
205.93	1585.13
206.15	1613.80
206.37	1665.00
206.59	1660.90
206.81	1681.38
207.03	1607.66
207.25	1662.95
207.47	1716.20
207.69	1673.19
207.91	1828.84
208.13	1724.39
208.34	1708.01
208.56	1757.16
208.78	1740.77
209.00	1667.05
209.22	1728.49
209.44	1697.77
209.66	1697.77
209.88	1720.29
210.10	1595.37
210.32	1753.06
210.54	1751.01
210.76	1619.94
210.98	1775.59
211.20	1585.13
211.42	1732.58
211.64	1740.77
211.86	1783.78
212.08	1789.92
212.30	1705.96
212.52	1695.72
212.74	1667.05
212.96	1712.10
213.17	1755.11
213.39	1640.42
213.61	1779.68
213.83	1755.11
214.05	1611.75
214.27	1773.54
214.49	1552.36
214.71	1665.00
214.93	1759.21
215.15	1665.00
215.37	1738.73
215.59	1636.33
215.81	1742.82
216.03	1804.26
216.24	1738.73
216.46	1687.53
216.68	1714.15
216.90	1726.44
217.12	1636.33
217.34	1716.20
217.56	1748.97
217.78	1806.31
218.00	1783.78
218.22	1740.77
218.44	1722.34
218.66	1648.61
218.87	1728.49
219.09	1687.53
219.31	1738.73
219.53	1712.10
219.75	1587.18
219.97	1738.73
220.19	1734.63
220.41	1714.15
220.63	1691.62
220.85	1726.44
221.06	1689.57
221.28	1730.53
221.50	1724.39
221.72	1681.38
221.94	1705.96
222.16	1603.56
222.38	1757.16
222.60	1759.21
222.82	1638.38
223.03	1742.82
223.25	1640.42
223.47	1753.06
223.69	1877.99
223.91	1726.44
224.13	1742.82
224.35	1708.01
224.57	1705.96
224.78	1720.29
225.00	1691.62
225.22	1714.15
225.44	1574.89
225.66	1771.49
225.88	1703.91
226.10	1710.05
226.32	1714.15
226.53	1708.01
226.75	1687.53
226.97	1654.76
227.19	1714.15
227.41	1621.99
227.63	1697.77
227.85	1607.66
228.06	1703.91
228.28	1740.77
228.50	1675.24
228.72	1578.98
228.94	1722.34
229.16	1644.52
229.37	1556.46
229.59	1675.24
229.81	1755.11
230.03	1697.77
230.25	1624.04
230.47	1564.65
230.69	1695.72
230.90	1638.38
231.12	1685.48
231.34	1724.39
231.56	1800.16
231.78	1626.09
232.00	1710.05
232.21	1597.42
232.43	1640.42
232.65	1578.98
232.87	1742.82
233.09	1648.61
233.30	1662.95
233.52	1742.82
233.74	1716.20
233.96	1802.21
234.18	1691.62
234.40	1714.15
234.61	1853.41
234.83	1667.05
235.05	1693.67
235.27	1787.88
235.49	1843.17
235.70	1673.19
235.92	1740.77
236.14	1710.05
236.36	1847.27
236.58	1654.76
236.79	1714.15
237.01	1609.70
237.23	1626.09
237.45	1832.93
237.67	1720.29
237.88	1685.48
238.10	1783.78
238.32	1634.28
238.54	1677.29
238.76	1646.57
238.97	1675.24
239.19	1628.14
239.41	1798.12
239.63	1708.01
239.85	1697.77
240.06	1759.21
240.28	1699.81
240.50	1714.15
240.72	1650.66
240.93	1734.63
241.15	1785.83
241.37	1761.25
241.59	1812.45
241.81	1689.57
242.02	1660.90
242.24	1730.53
242.46	1736.68
242.68	1673.19
242.89	1742.82
243.11	1734.63
243.33	1738.73
243.55	1693.67
243.76	1726.44
243.98	1617.90
244.20	1632.23
244.42	1699.81
244.64	1769.44
244.85	1638.38
245.07	1712.10
245.29	1740.77
245.51	1710.05
245.72	1671.14
245.94	1755.11
246.16	1722.34
246.38	1773.54
246.59	1640.42
246.81	1683.43
247.03	1736.68
247.24	1603.56
247.46	1640.42
247.68	1708.01
247.90	1669.09
248.11	1619.94
248.33	1767.40
248.55	1658.85
248.77	1746.92
248.98	1765.35
249.20	1810.40
249.42	1712.10
249.64	1683.43
249.85	1726.44
250.07	1636.33
250.29	1689.57
250.50	1771.49
250.72	1591.27
250.94	1705.96
251.16	1769.44
251.37	1810.40
251.59	1634.28
251.81	1742.82
252.02	1734.63
252.24	1689.57
252.46	1779.68
252.68	1697.77
252.89	1626.09
253.11	1583.08
253.33	1812.45
253.54	1669.09
253.76	1656.81
253.98	1638.38
254.20	1656.81
254.41	1595.37
254.63	1646.57
254.85	1705.96
255.06	1720.29
255.28	1705.96
255.50	1685.48
255.71	1718.25
255.93	1636.33
256.15	1726.44
256.36	1800.16
256.58	1701.86
256.80	1839.08
257.02	1630.18
257.23	1736.68
257.45	1669.09
257.67	1703.91
257.88	1667.05
258.10	1636.33
258.32	1677.29
258.53	1759.21
258.75	1755.11
258.97	1644.52
259.18	1656.81
259.40	1685.48
259.62	1751.01
259.83	1787.88
260.05	1775.59
260.27	1949.67
260.48	1677.29
260.70	1656.81
260.92	1699.81
261.13	1685.48
261.35	1683.43
261.57	1755.11
261.78	1609.70
262.00	1626.09
262.22	1755.11
262.43	1607.66
262.65	1677.29
262.86	1677.29
263.08	1822.69
263.30	1677.29
263.51	1558.50
263.73	1656.81
263.95	1783.78
264.16	1685.48
264.38	1662.95
264.60	1693.67
264.81	1660.90
265.03	1804.26
265.25	1789.92
265.46	1675.24
265.68	1742.82
265.89	1751.01
266.11	1574.89
266.33	1679.33
266.54	1765.35
266.76	1716.20
266.98	1810.40
267.19	1781.73
267.41	1767.40
267.62	1642.47
267.84	1583.08
268.06	1662.95
268.27	1689.57
268.49	1742.82
268.70	1710.05
268.92	1693.67
269.14	1687.53
269.35	1638.38
269.57	1642.47
269.79	1818.60
270.00	1667.05
270.22	1785.83
270.43	1630.18
270.65	1615.85
270.87	1757.16
271.08	1720.29
271.30	1744.87
271.51	1722.34
271.73	1640.42
271.95	1779.68
272.16	1726.44
272.38	1705.96
272.59	1718.25
272.81	1705.96
273.02	1712.10
273.24	1660.90
273.46	1791.97
273.67	1619.94
273.89	1603.56
274.10	1640.42
274.32	1791.97
274.54	1712.10
274.75	1794.02
274.97	1693.67
275.18	1732.58
275.40	1728.49
275.61	1681.38
275.83	1681.38
276.05	1675.24
276.26	1673.19
276.48	1757.16
276.69	1660.90
276.91	1734.63
277.12	1800.16
277.34	1714.15
277.55	1738.73
277.77	1728.49
277.99	1675.24
278.20	1712.10
278.42	1681.38
278.63	1626.09
278.85	1634.28
279.06	1652.71
279.28	1687.53
279.49	1769.44
279.71	1730.53
279.93	1718.25
280.14	1798.12
280.36	1632.23
280.57	1734.63
280.79	1767.40
281.00	1636.33
281.22	1720.29
281.43	1753.06
281.65	1617.90
281.86	1642.47
282.08	1705.96
282.29	1771.49
282.51	1611.75
282.73	1632.23
282.94	1529.83
283.16	1689.57
283.37	1775.59
283.59	1742.82
283.80	1748.97
284.02	1753.06
284.23	1742.82
284.45	1644.52
284.66	1665.00
284.88	1681.38
285.09	1726.44
285.31	1730.53
285.52	1714.15
285.74	1562.60
285.95	1783.78
286.17	1673.19
286.38	1787.88
286.60	1701.86
286.81	1589.22
287.03	1638.38
287.24	1662.95
287.46	1716.20
287.67	1660.90
287.89	1804.26
288.10	1779.68
288.32	1679.33
288.53	1701.86
288.75	1781.73
288.96	1765.35
289.18	1669.09
289.39	1665.00
289.61	1738.73
289.82	1824.74
290.04	1765.35
290.25	1652.71
290.47	1728.49
290.68	1648.61
290.90	1738.73
291.11	1613.80
291.33	1759.21
291.54	1644.52
291.76	1595.37
291.97	1687.53
292.18	1744.87
292.40	1685.48
292.61	1644.52
292.83	1865.70
293.04	1763.30
293.26	1667.05
293.47	1730.53
293.69	1687.53
293.90	1660.90
294.12	1730.53
294.33	1679.33
294.55	1681.38
294.76	1785.83
294.97	1787.88
295.19	1779.68
295.40	1644.52
295.62	1705.96
295.83	1757.16
296.05	1638.38
296.26	1781.73
296.48	1624.04
296.69	1650.66
296.90	1675.24
297.12	1697.77
297.33	1785.83
297.55	1675.24
297.76	1755.11
297.98	1843.17
298.19	1755.11
298.41	1787.88
298.62	1671.14
298.83	1730.53
299.05	1722.34
299.26	1662.95
299.48	1658.85
299.69	1746.92
299.90	1732.58
300.12	1644.52
300.33	1699.81
300.55	1753.06
300.76	1708.01
300.98	1611.75
301.19	1693.67
301.40	1732.58
301.62	1701.86
301.83	1679.33
302.05	1656.81
302.26	1695.72
302.47	1640.42
302.69	1630.18
302.90	1685.48
303.12	1591.27
303.33	1824.74
303.54	1890.28
303.76	1699.81
303.97	1691.62
304.19	1816.55
304.40	1654.76
304.61	1732.58
304.83	1791.97
305.04	1830.88
305.26	1777.64
305.47	1593.32
305.68	1673.19
305.90	1595.37
306.11	1738.73
306.33	1730.53
306.54	1708.01
306.75	1689.57
306.97	1597.42
307.18	1609.70
307.39	1628.14
307.61	1736.68
307.82	1587.18
308.04	1755.11
308.25	1677.29
308.46	1685.48
308.68	1712.10
308.89	1683.43
309.10	1744.87
309.32	1697.77
309.53	1660.90
309.74	1751.01
309.96	1660.90
310.17	1773.54
310.39	1714.15
310.60	1714.15
310.81	1699.81
311.03	1644.52
311.24	1669.09
311.45	1781.73
311.67	1773.54
311.88	1662.95
312.09	1759.21
312.31	1705.96
312.52	1683.43
312.73	1679.33
312.95	1628.14
313.16	1660.90
313.37	1849.32
313.59	1716.20
313.80	1726.44
314.01	1796.07
314.23	1671.14
314.44	1671.14
314.65	1662.95
314.87	1701.86
315.08	1632.23
315.29	1640.42
315.51	1632.23
315.72	1599.46
315.93	1789.92
316.15	1763.30
316.36	1650.66
316.57	1689.57
316.79	1759.21
317.00	1708.01
317.21	1736.68
317.43	1613.80
317.64	1689.57
317.85	1603.56
318.07	1658.85
318.28	1673.19
318.49	1841.12
318.70	1857.51
318.92	1884.13
319.13	1800.16
319.34	1865.70
319.56	1775.59
319.77	1771.49
319.98	1748.97
320.20	1693.67
320.41	1738.73
320.62	1820.64
320.83	1665.00
321.05	1896.42
321.26	1777.64
321.47	1759.21
321.69	1732.58
321.90	1585.13
322.11	1599.46
322.32	1689.57
322.54	1804.26
322.75	1691.62
322.96	1822.69
323.18	1642.47
323.39	1583.08
323.60	1669.09
323.81	1802.21
324.03	1656.81
324.24	1656.81
324.45	1695.72
324.66	1720.29
324.88	1732.58
325.09	1751.01
325.30	1646.57
325.52	1773.54
325.73	1703.91
325.94	1726.44
326.15	1640.42
326.37	1652.71
326.58	1769.44
326.79	1705.96
327.00	1683.43
327.22	1773.54
327.43	1738.73
327.64	1628.14
327.85	1763.30
328.07	1767.40
328.28	1810.40
328.49	1693.67
328.70	1705.96
328.92	1697.77
329.13	1605.61
329.34	1748.97
329.55	1806.31
329.76	1734.63
329.98	1712.10
330.19	1773.54
330.40	1658.85
330.61	1730.53
330.83	1802.21
331.04	1662.95
331.25	1736.68
331.46	1650.66
331.68	1615.85
331.89	1781.73
332.10	1660.90
332.31	1724.39
332.52	1763.30
332.74	1806.31
332.95	1615.85
333.16	1632.23
333.37	1724.39
333.58	1652.71
333.80	1708.01
334.01	1624.04
334.22	1646.57
334.43	1640.42
334.64	1667.05
334.86	1687.53
335.07	1710.05
335.28	1730.53
335.49	1617.90
335.70	1683.43
335.92	1734.63
336.13	1822.69
336.34	1708.01
336.55	1732.58
336.76	1669.09
336.98	1591.27
337.19	1660.90
337.40	1761.25
337.61	1765.35
337.82	1720.29
338.04	1765.35
338.25	1611.75
338.46	1665.00
338.67	1691.62
338.88	1621.99
339.09	1722.34
339.31	1624.04
339.52	1679.33
339.73	1599.46
339.94	1726.44
340.15	1751.01
340.36	1705.96
340.58	1677.29
340.79	1675.24
341.00	1800.16
341.21	1671.14
341.42	1769.44
341.63	1669.09
341.85	1740.77
342.06	1656.81
342.27	1630.18
342.48	1738.73
342.69	1603.56
342.90	1673.19
343.12	1705.96
343.33	1656.81
343.54	1701.86
343.75	1785.83
343.96	1759.21
344.17	1677.29
344.38	1726.44
344.60	1650.66
344.81	1644.52
345.02	1699.81
345.23	1699.81
345.44	1757.16
345.65	1714.15
345.86	1757.16
346.07	1648.61
346.29	1699.81
346.50	1720.29
346.71	1728.49
346.92	1740.77
347.13	1789.92
347.34	1673.19
347.55	1763.30
347.76	1716.20
347.98	1650.66
348.19	1708.01
348.40	1738.73
348.61	1679.33
348.82	1755.11
349.03	1746.92
349.24	1597.42
349.45	1740.77
349.66	1677.29
349.88	1685.48
350.09	1724.39
350.30	1804.26
350.51	1785.83
350.72	1693.67
350.93	1710.05
351.14	1652.71
351.35	1710.05
351.56	1703.91
351.77	1761.25
351.99	1722.34
352.20	1757.16
352.41	1789.92
352.62	1648.61
352.83	1669.09
353.04	1769.44
353.25	1681.38
353.46	1748.97
353.67	1791.97
353.88	1576.94
354.09	1761.25
354.30	1714.15
354.52	1738.73
354.73	1679.33
354.94	1671.14
355.15	1724.39
355.36	1828.84
355.57	1779.68
355.78	1755.11
355.99	1660.90
356.20	1701.86
356.41	1820.64
356.62	1757.16
356.83	1681.38
357.04	1748.97
357.25	1626.09
357.46	1595.37
357.68	1599.46
357.89	1671.14
358.10	1759.21
358.31	1726.44
358.52	1673.19
358.73	1669.09
358.94	1632.23
359.15	1609.70
359.36	1689.57
359.57	1726.44
359.78	1681.38
359.99	1763.30
360.20	1673.19
360.41	1654.76
360.62	1755.11
360.83	1783.78
361.04	1701.86
361.25	1710.05
361.46	1771.49
361.67	1775.59
361.88	1693.67
362.09	1753.06
362.30	1718.25
362.51	1695.72
362.72	1691.62
362.93	1697.77
363.14	1748.97
363.35	1628.14
363.56	1658.85
363.78	1800.16
363.99	1806.31
364.20	1650.66
364.41	1683.43
364.62	1861.60
364.83	1755.11
365.04	1724.39
365.25	1744.87
365.46	1900.52
365.67	1648.61
365.88	1542.12
366.09	1748.97
366.30	1716.20
366.51	1685.48
366.72	1581.03
366.93	1665.00
367.14	1742.82
367.35	1845.22
367.56	1757.16
367.77	1779.68
367.98	1689.57
368.18	1757.16
368.39	1722.34
368.60	1597.42
368.81	1730.53
369.02	1775.59
369.23	1710.05
369.44	1626.09
369.65	1724.39
369.86	1738.73
370.07	1677.29
370.28	1689.57
370.49	1734.63
370.70	1775.59
370.91	1593.32
371.12	1632.23
371.33	1658.85
371.54	1665.00
371.75	1839.08
371.96	1574.89
372.17	1781.73
372.38	1689.57
372.59	1726.44
372.80	1687.53
373.01	1675.24
373.22	1701.86
373.43	1730.53
373.64	1691.62
373.85	1781.73
374.06	1861.60
374.26	1746.92
374.47	1804.26
374.68	1828.84
374.89	1757.16
375.10	1658.85
375.31	1777.64
375.52	1755.11
375.73	1769.44
375.94	1624.04
376.15	1746.92
376.36	1687.53
376.57	1716.20
376.78	1767.40
376.99	1714.15
377.20	1763.30
377.40	1718.25
377.61	1830.88
377.82	1695.72
378.03	1798.12
378.24	1736.68
378.45	1744.87
378.66	1783.78
378.87	1736.68
379.08	1615.85
379.29	1679.33
379.50	1738.73
379.71	1656.81
379.91	1730.53
380.12	1619.94
380.33	1824.74
380.54	1726.44
380.75	1724.39
380.96	1669.09
381.17	1755.11
381.38	1736.68
381.59	1730.53
381.80	1699.81
382.00	1918.95
382.21	1759.21
382.42	1853.41
382.63	1880.04
382.84	1705.96
383.05	1777.64
383.26	1755.11
383.47	1748.97
383.68	1730.53
383.88	1824.74
384.09	1677.29
384.30	1771.49
384.51	1673.19
384.72	1650.66
384.93	1554.41
385.14	1673.19
385.35	1705.96
385.55	1646.57
385.76	1800.16
385.97	1708.01
386.18	1656.81
386.39	1720.29
386.60	1701.86
386.81	1636.33
387.02	1681.38
387.22	1662.95
387.43	1765.35
387.64	1812.45
387.85	1914.85
388.06	2314.20
388.27	4347.84
388.48	6803.35
388.68	8202.11
388.89	9787.24
389.10	9883.50
389.31	8636.28
389.52	7710.60
389.73	6829.98
389.93	6272.93
390.14	5797.80
390.35	5246.90
390.56	4679.61
390.77	3860.42
390.98	3012.56
391.18	2572.25
391.39	2115.55
391.60	1812.45
391.81	1890.28
392.02	1724.39
392.23	1877.99
392.43	1652.71
392.64	1746.92
392.85	1681.38
393.06	1765.35
393.27	1730.53
393.47	1677.29
393.68	1761.25
393.89	1673.19
394.10	1800.16
394.31	1669.09
394.52	1665.00
394.72	1779.68
394.93	1806.31
395.14	1708.01
395.35	1812.45
395.56	1669.09
395.76	1705.96
395.97	1826.79
396.18	1791.97
396.39	1814.50
396.60	2082.78
396.80	1871.84
397.01	1789.92
397.22	1822.69
397.43	1822.69
397.64	1714.15
397.84	1806.31
398.05	1880.04
398.26	1763.30
398.47	1867.75
398.67	1783.78
398.88	1738.73
399.09	1722.34
399.30	1746.92
399.51	1650.66
399.71	1718.25
399.92	1761.25
400.13	1771.49
400.34	1724.39
400.54	1724.39
400.75	1806.31
400.96	1736.68
401.17	1787.88
401.37	1765.35
401.58	1712.10
401.79	1712.10
402.00	1800.16
402.21	1980.39
402.41	1980.39
402.62	1964.00
402.83	2013.15
403.04	1947.62
403.24	2031.58
403.45	1873.89
403.66	1894.37
403.87	1904.61
404.07	1908.71
404.28	1898.47
404.49	1900.52
404.70	1710.05
404.90	1722.34
405.11	1808.36
405.32	1689.57
405.52	1714.15
405.73	1691.62
405.94	1685.48
406.15	1738.73
406.35	1744.87
406.56	1736.68
406.77	1779.68
406.98	1748.97
407.18	1617.90
407.39	1789.92
407.60	1662.95
407.80	1683.43
408.01	1673.19
408.22	1675.24
408.43	1667.05
408.63	1742.82
408.84	1794.02
409.05	1765.35
409.25	1767.40
409.46	1585.13
409.67	1644.52
409.88	1681.38
410.08	1746.92
410.29	1675.24
410.50	1730.53
410.70	1832.93
410.91	1652.71
411.12	1800.16
411.32	1705.96
411.53	1648.61
411.74	1744.87
411.95	1765.35
412.15	1791.97
412.36	1742.82
412.57	1787.88
412.77	1853.41
412.98	1699.81
413.19	1763.30
413.39	1757.16
413.60	1804.26
413.81	1742.82
414.01	1648.61
414.22	1722.34
414.43	1730.53
414.63	1759.21
414.84	1767.40
415.05	1621.99
415.25	1642.47
415.46	1714.15
415.67	1626.09
415.87	1689.57
416.08	1632.23
416.29	1667.05
416.49	1701.86
416.70	1656.81
416.91	1734.63
417.11	1787.88
417.32	1642.47
417.53	1755.11
417.73	1705.96
417.94	1724.39
418.15	1730.53
418.35	1636.33
418.56	1705.96
418.77	1802.21
418.97	1673.19
419.18	1673.19
419.38	1636.33
419.59	1658.85
419.80	1832.93
420.00	1640.42
420.21	1763.30
420.42	1794.02
420.62	1736.68
420.83	1665.00
421.04	1671.14
421.24	1718.25
421.45	1767.40
421.65	1748.97
421.86	1740.77
422.07	1710.05
422.27	1787.88
422.48	1779.68
422.69	1669.09
422.89	1689.57
423.10	1701.86
423.30	1679.33
423.51	1705.96
423.72	1767.40
423.92	1669.09
424.13	1722.34
424.33	1658.85
424.54	1755.11
424.75	1677.29
424.95	1728.49
425.16	1787.88
425.36	1724.39
425.57	1724.39
425.78	1726.44
425.98	1830.88
426.19	1605.61
426.39	1644.52
426.60	1646.57
426.81	1732.58
427.01	1677.29
427.22	1695.72
427.42	1689.57
427.63	1695.72
427.83	1777.64
428.04	1855.46
428.25	1824.74
428.45	1779.68
428.66	1763.30
428.86	1722.34
429.07	1705.96
429.28	1708.01
429.48	1654.76
429.69	1644.52
429.89	1748.97
430.10	1593.32
430.30	1789.92
430.51	1734.63
430.71	1648.61
430.92	1767.40
431.13	1578.98
431.33	1802.21
431.54	1708.01
431.74	1832.93
431.95	1800.16
432.15	1753.06
432.36	1712.10
432.56	1742.82
432.77	1748.97
432.98	1818.60
433.18	1787.88
433.39	1767.40
433.59	1697.77
433.80	1796.07
434.00	1837.03
434.21	1675.24
434.41	1675.24
434.62	1894.37
434.82	1701.86
435.03	1675.24
435.23	1781.73
435.44	1607.66
435.64	1654.76
435.85	1701.86
436.06	1800.16
436.26	1814.50
436.47	1746.92
436.67	1671.14
436.88	1685.48
437.08	1708.01
437.29	1734.63
437.49	1738.73
437.70	1757.16
437.90	1757.16
438.11	1877.99
438.31	1781.73
438.52	1751.01
438.72	1859.56
438.93	1884.13
439.13	1765.35
439.34	1783.78
439.54	1724.39
439.75	1712.10
439.95	1800.16
440.16	1720.29
440.36	1742.82
440.57	1732.58
440.77	1814.50
440.98	1771.49
441.18	1753.06
441.39	1728.49
441.59	1646.57
441.80	1730.53
442.00	1742.82
442.21	1822.69
442.41	1671.14
442.62	1775.59
442.82	1699.81
443.02	1746.92
443.23	1732.58
443.43	1714.15
443.64	1757.16
443.84	1701.86
444.05	1738.73
444.25	1781.73
444.46	1689.57
444.66	1720.29
444.87	1710.05
445.07	1636.33
445.28	1771.49
445.48	1828.84
445.69	1787.88
445.89	1812.45
446.09	1718.25
446.30	1972.19
446.50	2717.65
446.71	3743.69
446.91	4394.94
447.12	4777.91
447.32	4964.28
447.53	4382.65
447.73	3841.99
447.93	3639.24
448.14	3258.32
448.34	3235.79
448.55	2992.08
448.75	2893.78
448.96	2688.98
449.16	2488.28
449.36	2193.37
449.57	2076.64
449.77	1906.66
449.98	1851.36
450.18	1773.54
450.39	1871.84
450.59	1767.40
450.79	1783.78
451.00	1656.81
451.20	1818.60
451.41	1660.90
451.61	1734.63
451.81	1708.01
452.02	1748.97
452.22	1740.77
452.43	1718.25
452.63	1693.67
452.84	1646.57
453.04	1683.43
453.24	1771.49
453.45	1687.53
453.65	1748.97
453.86	1826.79
454.06	1736.68
454.26	1730.53
454.47	1724.39
454.67	1888.23
454.87	1732.58
455.08	1687.53
455.28	1834.98
455.49	1789.92
455.69	1681.38
455.89	1867.75
456.10	1771.49
456.30	1736.68
456.51	1751.01
456.71	1708.01
456.91	1751.01
457.12	1769.44
457.32	1783.78
457.52	1681.38
457.73	1775.59
457.93	1824.74
458.14	1693.67
458.34	1656.81
458.54	1775.59
458.75	1699.81
458.95	1730.53
459.15	1738.73
459.36	1746.92
459.56	1873.89
459.76	1849.32
459.97	1738.73
460.17	1718.25
460.37	1687.53
460.58	1722.34
460.78	1748.97
460.99	1734.63
461.19	1728.49
461.39	1685.48
461.60	1691.62
461.80	1710.05
462.00	1640.42
462.21	1730.53
462.41	1650.66
462.61	1697.77
462.82	1699.81
463.02	1738.73
463.22	1652.71
463.43	1794.02
463.63	1789.92
463.83	1794.02
464.04	1787.88
464.24	1683.43
464.44	1658.85
464.64	1800.16
464.85	1746.92
465.05	1755.11
465.25	1771.49
465.46	1650.66
465.66	1763.30
465.86	1740.77
466.07	1755.11
466.27	1736.68
466.47	1687.53
466.68	1677.29
466.88	1802.21
467.08	1734.63
467.29	1796.07
467.49	1785.83
467.69	1730.53
467.89	1744.87
468.10	1685.48
468.30	1796.07
468.50	1710.05
468.71	1791.97
468.91	1644.52
469.11	1808.36
469.31	1771.49
469.52	1665.00
469.72	1812.45
469.92	1877.99
470.13	1748.97
470.33	1757.16
470.53	1855.46
470.73	2113.50
470.94	2260.96
471.14	2365.40
471.34	2580.44
471.54	2359.26
471.75	2226.14
471.95	2084.83
472.15	2045.92
472.36	1968.10
472.56	2074.59
472.76	2058.21
472.96	1998.82
473.17	1945.57
473.37	1931.23
473.57	1820.64
473.77	1826.79
473.98	1716.20
474.18	1722.34
474.38	1890.28
474.58	1632.23
474.79	1744.87
474.99	1746.92
475.19	1777.64
475.39	1730.53
475.60	1740.77
475.80	1716.20
476.00	1742.82
476.20	1753.06
476.41	1765.35
476.61	1796.07
476.81	1740.77
477.01	1718.25
477.21	1769.44
477.42	1904.61
477.62	1621.99
477.82	1701.86
478.02	1685.48
478.23	1757.16
478.43	1615.85
478.63	1695.72
478.83	1689.57
479.03	1671.14
479.24	1779.68
479.44	1800.16
479.64	1648.61
479.84	1603.56
480.04	1714.15
480.25	1785.83
480.45	1685.48
480.65	1708.01
480.85	1841.12
481.06	1738.73
481.26	1781.73
481.46	1699.81
481.66	1767.40
481.86	1728.49
482.06	1740.77
482.27	1708.01
482.47	1687.53
482.67	1671.14
482.87	1656.81
483.07	1748.97
483.28	1691.62
483.48	1699.81
483.68	1722.34
483.88	1648.61
484.08	1556.46
484.29	1705.96
484.49	1720.29
484.69	1708.01
484.89	1761.25
485.09	1685.48
485.29	1638.38
485.50	1777.64
485.70	1615.85
485.90	1789.92
486.10	1753.06
486.30	1822.69
486.50	1796.07
486.71	1826.79
486.91	1787.88
487.11	1820.64
487.31	1609.70
487.51	1716.20
487.71	1667.05
487.91	1667.05
488.12	1714.15
488.32	1638.38
488.52	1689.57
488.72	1652.71
488.92	1734.63
489.12	1816.55
489.32	1851.36
489.53	1769.44
489.73	1570.79
489.93	1771.49
490.13	1667.05
490.33	1665.00
490.53	1683.43
490.73	1804.26
490.94	1705.96
491.14	1775.59
491.34	1855.46
491.54	2125.79
491.74	2709.46
491.94	2906.07
492.14	3071.95
492.34	2987.99
492.54	2754.52
492.75	2445.27
492.95	2404.32
493.15	2320.35
493.35	2326.49
493.55	2271.20
493.75	2164.70
493.95	2115.55
494.15	2007.01
494.35	1986.53
494.56	1814.50
494.76	1812.45
494.96	1802.21
495.16	1751.01
495.36	1726.44
495.56	1734.63
495.76	1724.39
495.96	1621.99
496.16	1656.81
496.36	1853.41
496.56	1730.53
496.77	1761.25
496.97	1703.91
497.17	1824.74
497.37	1679.33
497.57	1755.11
497.77	1718.25
497.97	1642.47
498.17	1724.39
498.37	1734.63
498.57	1738.73
498.77	1742.82
498.97	1855.46
499.17	1845.22
499.38	1718.25
499.58	1783.78
499.78	1877.99
499.98	1722.34
500.18	1736.68
500.38	1699.81
500.58	1892.32
500.78	2461.66
500.98	4493.24
501.18	5957.54
501.38	6838.17
501.58	7239.57
501.78	6907.80
501.98	5644.20
502.18	4962.23
502.38	4433.85
502.58	4153.28
502.78	3841.99
502.98	3665.86
503.18	3594.19
503.38	3164.11
503.59	2822.10
503.79	2658.26
503.99	2473.95
504.19	2340.83
504.39	2222.05
504.59	2181.09
504.79	2119.65
504.99	2074.59
505.19	1857.51
505.39	1945.57
505.59	1966.05
505.79	1904.61
505.99	1867.75
506.19	1802.21
506.39	1800.16
506.59	1695.72
506.79	1748.97
506.99	1755.11
507.19	1753.06
507.39	1703.91
507.59	1718.25
507.79	1714.15
507.99	1697.77
508.19	1726.44
508.39	1695.72
508.59	1712.10
508.79	1867.75
508.99	1771.49
509.19	1667.05
509.39	1781.73
509.59	1681.38
509.79	1640.42
509.99	1705.96
510.19	1773.54
510.39	1746.92
510.59	1781.73
510.79	1740.77
510.99	1650.66
511.19	1798.12
511.39	1775.59
511.59	1796.07
511.79	1820.64
511.99	1736.68
512.19	1787.88
512.38	1761.25
512.58	1615.85
512.78	1763.30
512.98	1785.83
513.18	1798.12
513.38	1628.14
513.58	1763.30
513.78	1675.24
513.98	1673.19
514.18	1656.81
514.38	1681.38
514.58	1763.30
514.78	1621.99
514.98	1675.24
515.18	1738.73
515.38	1656.81
515.58	1800.16
515.78	1699.81
515.98	1705.96
516.18	1667.05
516.38	1730.53
516.57	1814.50
516.77	1791.97
516.97	1732.58
517.17	1716.20
517.37	1697.77
517.57	1785.83
517.77	1695.72
517.97	1683.43
518.17	1806.31
518.37	1685.48
518.57	1626.09
518.77	1638.38
518.97	1656.81
519.16	1767.40
519.36	1734.63
519.56	1714.15
519.76	1675.24
519.96	1675.24
520.16	1775.59
520.36	1658.85
520.56	1734.63
520.76	1759.21
520.96	1718.25
521.16	1781.73
521.35	1847.27
521.55	1843.17
521.75	1742.82
521.95	1701.86
522.15	1669.09
522.35	1632.23
522.55	1681.38
522.75	1789.92
522.95	1681.38
523.14	1703.91
523.34	1824.74
523.54	1624.04
523.74	1791.97
523.94	1697.77
524.14	1697.77
524.34	1720.29
524.54	1802.21
524.73	1693.67
524.93	1730.53
525.13	1802.21
525.33	1689.57
525.53	1875.94
525.73	1804.26
525.93	1779.68
526.13	1746.92
526.32	1724.39
526.52	1789.92
526.72	1777.64
526.92	1689.57
527.12	1697.77
527.32	1574.89
527.52	1791.97
527.71	1736.68
527.91	1675.24
528.11	1814.50
528.31	1679.33
528.51	1720.29
528.71	1720.29
528.90	1777.64
529.10	1759.21
529.30	1855.46
529.50	1587.18
529.70	1665.00
529.90	1738.73
530.09	1708.01
530.29	1738.73
530.49	1656.81
530.69	1867.75
530.89	1701.86
531.09	1746.92
531.28	1724.39
531.48	1771.49
531.68	1761.25
531.88	1734.63
532.08	1742.82
532.28	1718.25
532.47	1738.73
532.67	1718.25
532.87	1740.77
533.07	1646.57
533.27	1796.07
533.46	1818.60
533.66	1769.44
533.86	1738.73
534.06	1755.11
534.26	1691.62
534.45	1738.73
534.65	1767.40
534.85	1738.73
535.05	1646.57
535.25	1726.44
535.44	1632.23
535.64	1783.78
535.84	1771.49
536.04	1777.64
536.24	1650.66
536.43	1679.33
536.63	1771.49
536.83	1734.63
537.03	1681.38
537.22	1644.52
537.42	1564.65
537.62	1738.73
537.82	1685.48
538.02	1787.88
538.21	1765.35
538.41	1931.23
538.61	1714.15
538.81	1757.16
539.00	1812.45
539.20	1673.19
539.40	1718.25
539.60	1791.97
539.79	1742.82
539.99	1726.44
540.19	1644.52
540.39	1718.25
540.58	1820.64
540.78	1724.39
540.98	1695.72
541.18	1820.64
541.37	1804.26
541.57	1681.38
541.77	1763.30
541.97	1705.96
542.16	1687.53
542.36	1736.68
542.56	1738.73
542.76	1806.31
542.95	1839.08
543.15	1765.35
543.35	1783.78
543.54	1654.76
543.74	1779.68
543.94	1742.82
544.14	1677.29
544.33	1751.01
544.53	1699.81
544.73	1662.95
544.93	1724.39
545.12	1714.15
545.32	1720.29
545.52	1796.07
545.71	1648.61
545.91	1699.81
546.11	1757.16
546.30	1607.66
546.50	1798.12
546.70	1722.34
546.90	1748.97
547.09	1621.99
547.29	1728.49
547.49	1718.25
547.68	1726.44
547.88	1615.85
548.08	1808.36
548.27	2152.42
548.47	1675.24
548.67	1765.35
548.87	1722.34
549.06	1648.61
549.26	1765.35
549.46	1808.36
549.65	1695.72
549.85	1746.92
550.05	1804.26
550.24	1638.38
550.44	1726.44
550.64	1769.44
550.83	1757.16
551.03	1779.68
551.23	1761.25
551.42	1818.60
551.62	1773.54
551.82	1726.44
552.01	1677.29
552.21	1771.49
552.41	1699.81
552.60	1769.44
552.80	1712.10
553.00	1753.06
553.19	1759.21
553.39	1783.78
553.59	1662.95
553.78	1734.63
553.98	1746.92
554.17	1638.38
554.37	1738.73
554.57	1845.22
554.76	1654.76
554.96	1667.05
555.16	1677.29
555.35	1763.30
555.55	1802.21
555.75	1779.68
555.94	1837.03
556.14	1679.33
556.33	1785.83
556.53	1742.82
556.73	1755.11
556.92	1718.25
557.12	1810.40
557.32	1771.49
557.51	1763.30
557.71	1765.35
557.90	1886.18
558.10	1871.84
558.30	1697.77
558.49	1718.25
558.69	1712.10
558.88	1703.91
559.08	1783.78
559.28	1744.87
559.47	1699.81
559.67	1769.44
559.86	1841.12
560.06	1734.63
560.26	1755.11
560.45	1716.20
560.65	1767.40
560.84	1755.11
561.04	1607.66
561.24	1804.26
561.43	1714.15
561.63	1845.22
561.82	1773.54
562.02	1738.73
562.22	1708.01
562.41	1669.09
562.61	1728.49
562.80	1722.34
563.00	1859.56
563.19	1800.16
563.39	1810.40
563.59	1771.49
563.78	1628.14
563.98	1669.09
564.17	1695.72
564.37	1611.75
564.56	1789.92
564.76	1658.85
564.96	1814.50
565.15	1714.15
565.35	1929.19
565.54	1675.24
565.74	1822.69
565.93	1718.25
566.13	1689.57
566.32	1693.67
566.52	1701.86
566.71	1734.63
566.91	1814.50
567.11	1667.05
567.30	1693.67
567.50	1755.11
567.69	1769.44
567.89	1755.11
568.08	1660.90
568.28	1730.53
568.47	1683.43
568.67	1769.44
568.86	1687.53
569.06	1812.45
569.25	1705.96
569.45	1701.86
569.64	1681.38
569.84	1691.62
570.04	1804.26
570.23	1767.40
570.43	1771.49
570.62	1695.72
570.82	1765.35
571.01	1675.24
571.21	1710.05
571.40	1687.53
571.60	1781.73
571.79	1810.40
571.99	1798.12
572.18	1679.33
572.38	1726.44
572.57	1751.01
572.77	1718.25
572.96	1935.33
573.16	1783.78
573.35	1693.67
573.55	1794.02
573.74	1804.26
573.94	1718.25
574.13	1699.81
574.33	1828.84
574.52	1685.48
574.71	1695.72
574.91	1744.87
575.10	1656.81
575.30	1732.58
575.49	1728.49
575.69	1730.53
575.88	1738.73
576.08	1685.48
576.27	1818.60
576.47	1757.16
576.66	1853.41
576.86	1824.74
577.05	1800.16
577.25	1814.50
577.44	1841.12
577.64	1759.21
577.83	1775.59
578.02	1716.20
578.22	1820.64
578.41	1834.98
578.61	1710.05
578.80	1681.38
579.00	1826.79
579.19	1736.68
579.39	1787.88
579.58	1787.88
579.77	1783.78
579.97	1873.89
580.16	1812.45
580.36	1882.08
580.55	1828.84
580.75	1808.36
580.94	1783.78
581.13	1816.55
581.33	1871.84
581.52	1767.40
581.72	1830.88
581.91	1814.50
582.11	1718.25
582.30	1742.82
582.49	1785.83
582.69	1767.40
582.88	1746.92
583.08	1708.01
583.27	1847.27
583.47	1755.11
583.66	1751.01
583.85	1650.66
584.05	1705.96
584.24	1767.40
584.44	1714.15
584.63	1789.92
584.82	1839.08
585.02	1923.04
585.21	1882.08
585.41	1796.07
585.60	1777.64
585.79	1931.23
585.99	1886.18
586.18	1898.47
586.37	2123.74
586.57	3405.77
586.76	9930.60
586.96	25114.24
587.15	35257.83
587.34	41444.74
587.54	42898.80
587.73	37393.86
587.93	26861.16
588.12	22019.76
588.31	18816.74
588.51	16662.27
588.70	15626.00
588.89	14542.63
589.09	12873.53
589.28	11358.03
589.47	9529.20
589.67	8109.96
589.86	6616.99
590.06	5099.44
590.25	3973.06
590.44	3143.63
590.64	2545.63
590.83	2242.53
591.02	2113.50
591.22	1970.15
591.41	1894.37
591.60	1802.21
591.80	1953.76
591.99	1818.60
592.18	1779.68
592.38	1865.70
592.57	1816.55
592.76	1781.73
592.96	1804.26
593.15	1738.73
593.34	1812.45
593.54	1771.49
593.73	1800.16
593.92	1812.45
594.12	1830.88
594.31	1728.49
594.50	1757.16
594.70	1787.88
594.89	1869.80
595.08	1650.66
595.28	1808.36
595.47	1882.08
595.66	1761.25
595.86	1722.34
596.05	1789.92
596.24	1738.73
596.43	1869.80
596.63	1798.12
596.82	1742.82
597.01	1812.45
597.21	1767.40
597.40	1798.12
597.59	1732.58
597.79	1742.82
597.98	1796.07
598.17	1837.03
598.36	1771.49
598.56	1757.16
598.75	1654.76
598.94	1691.62
599.14	1779.68
599.33	1675.24
599.52	1767.40
599.71	1785.83
599.91	1830.88
600.10	1742.82
600.29	1691.62
600.48	1732.58
600.68	1812.45
600.87	1791.97
601.06	1783.78
601.26	1689.57
601.45	1724.39
601.64	1761.25
601.83	1771.49
602.03	1765.35
602.22	1644.52
602.41	1826.79
602.60	1865.70
602.80	1769.44
602.99	1703.91
603.18	1746.92
603.37	1720.29
603.57	1763.30
603.76	1783.78
603.95	1794.02
604.14	1789.92
604.34	1738.73
604.53	1751.01
604.72	1777.64
604.91	1804.26
605.10	1796.07
605.30	1642.47
605.49	1892.32
605.68	1687.53
605.87	1753.06
606.07	1689.57
606.26	1710.05
606.45	1691.62
606.64	1791.97
606.84	1699.81
607.03	1742.82
607.22	1779.68
607.41	1640.42
607.60	1656.81
607.80	1759.21
607.99	1675.24
608.18	1722.34
608.37	1753.06
608.56	1705.96
608.76	1738.73
608.95	1808.36
609.14	1744.87
609.33	1800.16
609.52	1783.78
609.72	1798.12
609.91	1742.82
610.10	1736.68
610.29	1828.84
610.48	1695.72
610.68	1853.41
610.87	1589.22
611.06	1826.79
611.25	1736.68
611.44	1722.34
611.63	1695.72
611.83	1787.88
612.02	1621.99
612.21	1841.12
612.40	1556.46
612.59	1652.71
612.79	1638.38
612.98	1712.10
613.17	1800.16
613.36	1736.68
613.55	1812.45
613.74	1656.81
613.93	1656.81
614.13	1646.57
614.32	1740.77
614.51	1665.00
614.70	1695.72
614.89	1646.57
615.08	1767.40
615.28	2045.92
615.47	1691.62
615.66	1765.35
615.85	1687.53
616.04	1787.88
616.23	1705.96
616.42	1689.57
616.62	1800.16
616.81	1720.29
617.00	1705.96
617.19	1732.58
617.38	1671.14
617.57	1722.34
617.76	1720.29
617.95	1726.44
618.15	1746.92
618.34	1877.99
618.53	1660.90
618.72	1718.25
618.91	1730.53
619.10	1861.60
619.29	1667.05
619.48	1644.52
619.68	1730.53
619.87	1695.72
620.06	1685.48
620.25	1705.96
620.44	1656.81
620.63	1755.11
620.82	1763.30
621.01	1824.74
621.20	1751.01
621.39	1804.26
621.59	1753.06
621.78	1679.33
621.97	1697.77
622.16	1771.49
622.35	1767.40
622.54	1728.49
622.73	1753.06
622.92	1611.75
623.11	1703.91
623.30	1648.61
623.49	1828.84
623.68	1724.39
623.88	1789.92
624.07	1673.19
624.26	1652.71
624.45	1693.67
624.64	1675.24
624.83	1748.97
625.02	1761.25
625.21	1718.25
625.40	1767.40
625.59	1828.84
625.78	1712.10
625.97	1716.20
626.16	1701.86
626.35	1734.63
626.54	1734.63
626.74	1767.40
626.93	1701.86
627.12	1681.38
627.31	1757.16
627.50	1773.54
627.69	1767.40
627.88	1710.05
628.07	1679.33
628.26	1589.22
628.45	1724.39
628.64	1697.77
628.83	1671.14
629.02	1687.53
629.21	1787.88
629.40	1730.53
629.59	1636.33
629.78	1656.81
629.97	1689.57
630.16	1730.53
630.35	1679.33
630.54	1763.30
630.73	1736.68
630.92	1708.01
631.11	1695.72
631.30	1722.34
631.49	1730.53
631.68	1701.86
631.87	1781.73
632.06	1681.38
632.25	1806.31
632.44	1794.02
632.63	1722.34
632.82	1667.05
633.01	1656.81
633.20	1701.86
633.39	1689.57
633.58	1669.09
633.77	1744.87
633.96	1814.50
634.15	1789.92
634.34	1699.81
634.53	1779.68
634.72	1671.14
634.91	1701.86
635.10	1771.49
635.29	1714.15
635.48	1732.58
635.67	1703.91
635.86	1722.34
636.05	1826.79
636.24	1755.11
636.43	1757.16
636.62	1742.82
636.81	1578.98
637.00	1689.57
637.19	1753.06
637.38	1738.73
637.57	1714.15
637.76	1673.19
637.95	1642.47
638.14	1679.33
638.33	1699.81
638.52	1728.49
638.71	1689.57
638.89	1734.63
639.08	1869.80
639.27	1785.83
639.46	1646.57
639.65	1777.64
639.84	1744.87
640.03	1695.72
640.22	1632.23
640.41	1830.88
640.60	1662.95
640.79	1716.20
640.98	1742.82
641.17	1800.16
641.36	1638.38
641.55	1669.09
641.74	1654.76
641.92	1648.61
642.11	1630.18
642.30	1763.30
642.49	1677.29
642.68	1691.62
642.87	1740.77
643.06	1791.97
643.25	1716.20
643.44	1703.91
643.63	1697.77
643.82	1701.86
644.00	1705.96
644.19	1724.39
644.38	1644.52
644.57	1794.02
644.76	1712.10
644.95	1761.25
645.14	1738.73
645.33	1736.68
645.52	1755.11
645.71	1640.42
645.89	1644.52
646.08	1689.57
646.27	1683.43
646.46	1830.88
646.65	1671.14
646.84	1730.53
647.03	1644.52
647.22	1791.97
647.40	1705.96
647.59	1744.87
647.78	1619.94
647.97	1603.56
648.16	1705.96
648.35	1812.45
648.54	1755.11
648.73	1734.63
648.91	1808.36
649.10	1665.00
649.29	1644.52
649.48	1665.00
649.67	1791.97
649.86	1671.14
650.05	1673.19
650.23	1740.77
650.42	1624.04
650.61	1822.69
650.80	1714.15
650.99	1800.16
651.18	1746.92
651.36	1791.97
651.55	1710.05
651.74	1820.64
651.93	1648.61
652.12	1652.71
652.31	1753.06
652.49	1759.21
652.68	1740.77
652.87	1777.64
653.06	1691.62
653.25	1839.08
653.44	1681.38
653.62	1771.49
653.81	1701.86
654.00	1742.82
654.19	1761.25
654.38	1806.31
654.56	1691.62
654.75	1734.63
654.94	1701.86
655.13	1697.77
655.32	1693.67
655.51	1816.55
655.69	1683.43
655.88	1736.68
656.07	1705.96
656.26	1751.01
656.45	1671.14
656.63	1708.01
656.82	1781.73
657.01	1746.92
657.20	1628.14
657.38	1841.12
657.57	1722.34
657.76	1617.90
657.95	1773.54
658.14	1740.77
658.32	1705.96
658.51	1609.70
658.70	1734.63
658.89	1699.81
659.08	1744.87
659.26	1771.49
659.45	1570.79
659.64	1716.20
659.83	1667.05
660.01	1927.14
660.20	1748.97
660.39	1861.60
660.58	1632.23
660.76	1763.30
660.95	1656.81
661.14	1697.77
661.33	1669.09
661.51	1677.29
661.70	1677.29
661.89	1701.86
662.08	1726.44
662.26	1630.18
662.45	1617.90
662.64	1841.12
662.83	1818.60
663.01	1683.43
663.20	1734.63
663.39	1902.56
663.58	1656.81
663.76	1710.05
663.95	1705.96
664.14	1642.47
664.32	1791.97
664.51	1671.14
664.70	1578.98
664.89	1722.34
665.07	1660.90
665.26	1740.77
665.45	1705.96
665.64	1783.78
665.82	1718.25
666.01	1783.78
666.20	1648.61
666.38	1796.07
666.57	1804.26
666.76	2117.60
666.95	4628.41
667.13	10434.40
667.32	15656.72
667.51	18196.20
667.69	19193.56
667.88	18044.65
668.07	12711.74
668.25	9865.07
668.44	8337.28
668.63	7405.46
668.81	7055.25
669.00	6410.14
669.19	5842.85
669.38	5162.93
669.56	4640.70
669.75	3975.11
669.94	3444.68
670.12	2922.45
670.31	2527.19
670.50	2279.39
670.68	1982.43
670.87	1972.19
671.06	1789.92
671.24	1755.11
671.43	1789.92
671.62	1675.24
671.80	1708.01
671.99	1667.05
672.18	1656.81
672.36	1734.63
672.55	1753.06
672.74	1744.87
672.92	1632.23
673.11	1781.73
673.29	1660.90
673.48	1804.26
673.67	1740.77
673.85	1785.83
674.04	1701.86
674.23	1665.00
674.41	1896.42
674.60	1603.56
674.79	1624.04
674.97	1691.62
675.16	1779.68
675.34	1746.92
675.53	1744.87
675.72	1777.64
675.90	1812.45
676.09	1708.01
676.28	1753.06
676.46	1591.27
676.65	1746.92
676.83	1673.19
677.02	1687.53
677.21	1722.34
677.39	1667.05
677.58	1656.81
677.77	1755.11
677.95	1613.80
678.14	1677.29
678.32	1728.49
678.51	1677.29
678.70	1849.32
678.88	1667.05
679.07	1724.39
679.25	1613.80
679.44	1736.68
679.63	1667.05
679.81	1779.68
680.00	1800.16
680.18	1787.88
680.37	1824.74
680.55	1701.86
680.74	1599.46
680.93	1591.27
681.11	1722.34
681.30	1703.91
681.48	1767.40
681.67	1632.23
681.85	1701.86
682.04	1685.48
682.23	1695.72
682.41	1714.15
682.60	1640.42
682.78	1628.14
682.97	1638.38
683.15	1632.23
683.34	1724.39
683.53	1767.40
683.71	1662.95
683.90	1771.49
684.08	1810.40
684.27	1646.57
684.45	1654.76
684.64	1785.83
684.82	1691.62
685.01	1736.68
685.19	1665.00
685.38	1816.55
685.57	1697.77
685.75	1658.85
685.94	1665.00
686.12	1667.05
686.31	1718.25
686.49	1804.26
686.68	1607.66
686.86	1757.16
687.05	1669.09
687.23	1843.17
687.42	1646.57
687.60	1701.86
687.79	1791.97
687.97	1789.92
688.16	1806.31
688.34	1742.82
688.53	1667.05
688.71	1703.91
688.90	1695.72
689.08	1701.86
689.27	1617.90
689.45	1736.68
689.64	1693.67
689.82	1765.35
690.01	1744.87
690.19	1791.97
690.38	1759.21
690.56	1759.21
690.75	1667.05
690.93	1683.43
691.12	1638.38
691.30	1724.39
691.49	1685.48
691.67	1722.34
691.86	1740.77
692.04	1724.39
692.23	1669.09
692.41	1681.38
692.60	1820.64
692.78	1712.10
692.97	1587.18
693.15	1748.97
693.34	1884.13
693.52	1748.97
693.71	1744.87
693.89	1601.51
694.08	1572.84
694.26	1818.60
694.44	1746.92
694.63	1724.39
694.81	1658.85
695.00	1679.33
695.18	1755.11
695.37	1802.21
695.55	1742.82
695.74	1734.63
695.92	1695.72
696.10	1785.83
696.29	1662.95
696.47	1781.73
696.66	1738.73
696.84	1697.77
697.03	1740.77
697.21	1832.93
697.40	2353.12
697.58	1730.53
697.76	1673.19
697.95	1648.61
698.13	1603.56
698.32	1669.09
698.50	1705.96
698.68	1742.82
698.87	1710.05
699.05	1742.82
699.24	1667.05
699.42	1705.96
699.61	1716.20
699.79	1609.70
699.97	1628.14
700.16	1671.14
700.34	1701.86
700.53	1687.53
700.71	1818.60
700.89	1767.40
701.08	1730.53
701.26	1697.77
701.45	2015.20
701.63	1669.09
701.81	1777.64
702.00	1656.81
702.18	1720.29
702.37	1673.19
702.55	1785.83
702.73	1705.96
702.92	1669.09
703.10	1708.01
703.28	1738.73
703.47	1673.19
703.65	1695.72
703.84	1755.11
704.02	1681.38
704.20	1847.27
704.39	1751.01
704.57	1605.61
704.75	1798.12
704.94	1720.29
705.12	1773.54
705.30	1804.26
705.49	2217.95
705.67	4544.44
705.86	9557.87
706.04	12918.59
706.22	14845.73
706.41	15740.69
706.59	14010.15
706.77	9836.39
706.96	7597.96
707.14	6694.81
707.32	6090.66
707.51	5672.87
707.69	4941.75
707.87	4255.68
708.06	3657.67
708.24	2953.17
708.42	2369.50
708.61	2211.81
708.79	1884.13
708.97	1886.18
709.16	1820.64
709.34	1816.55
709.52	1714.15
709.71	1691.62
709.89	1763.30
710.07	1771.49
710.26	1619.94
710.44	1714.15
710.62	1808.36
710.80	1587.18
710.99	1742.82
711.17	1722.34
711.35	1650.66
711.54	1621.99
711.72	1779.68
711.90	1759.21
712.09	1810.40
712.27	1662.95
712.45	1828.84
712.63	1697.77
712.82	1693.67
713.00	1681.38
713.18	1722.34
713.37	1720.29
713.55	1779.68
713.73	1654.76
713.91	1675.24
714.10	1681.38
714.28	1728.49
714.46	1736.68
714.65	1710.05
714.83	1701.86
715.01	1710.05
715.19	1701.86
715.38	1748.97
715.56	1775.59
715.74	1591.27
715.92	1656.81
716.11	1716.20
716.29	1642.47
716.47	1734.63
716.65	1744.87
716.84	1654.76
717.02	1746.92
717.20	1521.64
717.38	1636.33
717.57	1732.58
717.75	1710.05
717.93	1621.99
718.11	1757.16
718.30	1626.09
718.48	1757.16
718.66	1800.16
718.84	1685.48
719.03	1691.62
719.21	1679.33
719.39	1828.84
719.57	1763.30
719.75	1732.58
719.94	1689.57
720.12	1724.39
720.30	1740.77
720.48	1753.06
720.67	1683.43
720.85	1640.42
721.03	1708.01
721.21	1652.71
721.39	1800.16
721.58	1722.34
721.76	1693.67
721.94	1775.59
722.12	1705.96
722.30	1710.05
722.49	1757.16
722.67	1679.33
722.85	1720.29
723.03	1599.46
723.21	1685.48
723.40	1763.30
723.58	1736.68
723.76	1712.10
723.94	1777.64
724.12	1753.06
724.30	1802.21
724.49	1765.35
724.67	1634.28
724.85	1687.53
725.03	1621.99
725.21	1751.01
725.40	1857.51
725.58	1673.19
725.76	1812.45
725.94	1660.90
726.12	1638.38
726.30	1722.34
726.49	1726.44
726.67	1652.71
726.85	1712.10
727.03	1828.84
727.21	2174.94
727.39	2838.48
727.57	3956.68
727.76	4286.40
727.94	4440.00
728.12	4372.41
728.30	3772.36
728.48	3043.28
728.66	2688.98
728.84	2645.98
729.03	2316.25
729.21	2148.32
729.39	2076.64
729.57	1845.22
729.75	1875.94
729.93	1837.03
730.11	1652.71
730.30	1710.05
730.48	1695.72
730.66	1742.82
730.84	1734.63
731.02	1720.29
731.20	1677.29
731.38	1767.40
731.56	1624.04
731.74	1619.94
731.93	1691.62
732.11	1726.44
732.29	1714.15
732.47	1730.53
732.65	1753.06
732.83	1767.40
733.01	1705.96
733.19	1675.24
733.37	1695.72
733.56	1779.68
733.74	1701.86
733.92	1785.83
734.10	1689.57
734.28	1685.48
734.46	1621.99
734.64	1693.67
734.82	1605.61
735.00	1626.09
735.18	1638.38
735.36	1767.40
735.54	1734.63
735.73	1748.97
735.91	1648.61
736.09	1755.11
736.27	1699.81
736.45	1820.64
736.63	1615.85
736.81	1689.57
736.99	1796.07
737.17	1718.25
737.35	1617.90
737.53	1783.78
737.71	1685.48
737.89	1714.15
738.07	1671.14
738.25	1720.29
738.43	1673.19
738.61	1642.47
738.80	1605.61
738.98	1628.14
739.16	1722.34
739.34	1648.61
739.52	1716.20
739.70	1669.09
739.88	1804.26
740.06	1757.16
740.24	1535.98
740.42	1679.33
740.60	1630.18
740.78	1599.46
740.96	1619.94
741.14	1701.86
741.32	1753.06
741.50	1589.22
741.68	1785.83
741.86	1705.96
742.04	1648.61
742.22	1683.43
742.40	1697.77
742.58	1759.21
742.76	1689.57
742.94	1714.15
743.12	1642.47
743.30	1783.78
743.48	1691.62
743.66	1605.61
743.84	1785.83
744.02	1777.64
744.20	1665.00
744.38	1640.42
744.56	1689.57
744.74	1816.55
744.92	1697.77
745.10	1767.40
745.28	1691.62
745.46	1775.59
745.64	1734.63
745.82	1791.97
746.00	1722.34
746.18	1742.82
746.36	1685.48
746.54	1677.29
746.72	1658.85
746.90	1701.86
747.08	1767.40
747.26	1665.00
747.44	1689.57
747.62	1703.91
747.80	1626.09
747.98	1759.21
748.15	1716.20
748.33	1841.12
748.51	1646.57
748.69	1746.92
748.87	1683.43
749.05	1732.58
749.23	1724.39
749.41	1669.09
749.59	1638.38
749.77	1718.25
749.95	1695.72
750.13	1654.76
750.31	1724.39
750.49	1798.12
750.67	1767.40
750.85	1822.69
751.03	1736.68
751.20	1804.26
751.38	1677.29
751.56	1683.43
751.74	1685.48
751.92	1685.48
752.10	1632.23
752.28	1771.49
752.46	1730.53
752.64	1726.44
752.82	1708.01
753.00	1720.29
753.18	1638.38
753.35	1710.05
753.53	1660.90
753.71	1667.05
753.89	1734.63
754.07	1710.05
754.25	1791.97
754.43	1755.11
754.61	1695.72
754.79	1607.66
754.97	1695.72
755.14	1744.87
755.32	1695.72
755.50	1705.96
755.68	1673.19
755.86	1632.23
756.04	1658.85
756.22	1597.42
756.40	1697.77
756.57	1789.92
756.75	1675.24
756.93	1742.82
757.11	1728.49
757.29	1597.42
757.47	1642.47
757.65	1673.19
757.82	1581.03
758.00	1632.23
758.18	1687.53
758.36	1675.24
758.54	1710.05
758.72	1554.41
758.90	1802.21
759.07	1718.25
759.25	1574.89
759.43	1738.73
759.61	1566.70
759.79	2111.46
759.97	1791.97
760.15	1714.15
760.32	1699.81
760.50	1654.76
760.68	1798.12
760.86	1601.51
761.04	1751.01
761.22	1742.82
761.39	1722.34
761.57	1587.18
761.75	1665.00
761.93	1671.14
762.11	1722.34
762.28	1716.20
762.46	1679.33
762.64	1775.59
762.82	1568.74
763.00	1648.61
763.18	1724.39
763.35	1578.98
763.53	1751.01
763.71	1689.57
763.89	1687.53
764.07	1765.35
764.24	1665.00
764.42	1683.43
764.60	1722.34
764.78	1697.77
764.96	1712.10
765.13	1794.02
765.31	1693.67
765.49	1767.40
765.67	1638.38
765.84	1662.95
766.02	1710.05
766.20	1615.85
766.38	1693.67
766.56	1708.01
766.73	1724.39
766.91	1740.77
767.09	1619.94
767.27	1753.06
767.44	1669.09
767.62	1726.44
767.80	1724.39
767.98	1656.81
768.15	1683.43
768.33	1787.88
768.51	1738.73
768.69	1728.49
768.87	1720.29
769.04	1640.42
769.22	1800.16
769.40	1820.64
769.58	1810.40
769.75	1685.48
769.93	1791.97
770.11	1705.96
770.28	1736.68
770.46	1757.16
770.64	1705.96
770.82	1607.66
770.99	1685.48
771.17	1787.88
771.35	1681.38
771.53	1654.76
771.70	1660.90
771.88	1771.49
772.06	1669.09
772.23	1656.81
772.41	1718.25
772.59	1677.29
772.77	1697.77
772.94	1720.29
773.12	1738.73
773.30	1665.00
773.47	1708.01
773.65	1712.10
773.83	1789.92
774.01	1701.86
774.18	1572.84
774.36	1628.14
774.54	1595.37
774.71	1716.20
774.89	1640.42
775.07	1673.19
775.24	1714.15
775.42	1613.80
775.60	1796.07
775.78	1617.90
775.95	1581.03
776.13	1652.71
776.31	1546.22
776.48	1703.91
776.66	1728.49
776.84	1589.22
777.01	1667.05
777.19	1615.85
777.37	1699.81
777.54	1781.73
777.72	1779.68
777.90	1708.01
778.07	1646.57
778.25	1939.43
778.43	1689.57
778.60	1656.81
778.78	1755.11
778.96	1724.39
779.13	1562.60
779.31	1722.34
779.49	1640.42
779.66	1734.63
779.84	1712.10
780.01	1724.39
780.19	1638.38
780.37	1785.83
780.54	1736.68
780.72	1677.29
780.90	1656.81
781.07	1701.86
781.25	1679.33
781.43	1767.40
781.60	1615.85
781.78	1787.88
781.95	1742.82
782.13	1693.67
782.31	1701.86
782.48	1593.32
782.66	1730.53
782.83	1794.02
783.01	1677.29
783.19	1689.57
783.36	1701.86
783.54	1665.00
783.72	1730.53
783.89	1648.61
784.07	1744.87
784.24	1683.43
784.42	1812.45
784.60	1669.09
784.77	1714.15
784.95	1574.89
785.12	1658.85
785.30	1681.38
785.47	1650.66
785.65	1628.14
785.83	1695.72
786.00	1724.39
786.18	1693.67
786.35	1681.38
786.53	1691.62
786.71	1755.11
786.88	1742.82
787.06	1695.72
787.23	1630.18
787.41	1597.42
787.58	1603.56
787.76	1675.24
787.94	1771.49
788.11	1638.38
788.29	1660.90
788.46	1708.01
788.64	1624.04
788.81	1708.01
788.99	1652.71
789.16	1650.66
789.34	1753.06
789.52	1703.91
789.69	1636.33
789.87	1531.88
790.04	1615.85
790.22	1738.73
790.39	1800.16
790.57	1665.00
790.74	1619.94
790.92	1656.81
791.09	1601.51
791.27	1730.53
791.44	1716.20
791.62	1669.09
791.79	1802.21
791.97	1671.14
792.15	1820.64
792.32	1796.07
792.50	1783.78
792.67	1740.77
792.85	1796.07
793.02	1683.43
793.20	1640.42
793.37	1701.86
793.55	1718.25
793.72	1624.04
793.90	1759.21
794.07	1599.46
794.25	1603.56
794.42	1638.38
794.60	1673.19
794.77	1708.01
794.95	1683.43
795.12	1730.53
795.30	1693.67
795.47	1648.61
795.65	1783.78
795.82	1753.06
796.00	1630.18
796.17	1699.81
796.34	1646.57
796.52	1683.43
796.69	1759.21
796.87	1824.74
797.04	1714.15
797.22	1705.96
797.39	1726.44
797.57	1748.97
797.74	1785.83
797.92	1744.87
798.09	1652.71
798.27	1806.31
798.44	1734.63
798.62	1712.10
798.79	1632.23
798.96	1718.25
799.14	1701.86
799.31	1853.41
799.49	1675.24
799.66	1634.28
799.84	1691.62
800.01	1658.85
800.19	1667.05
800.36	1644.52
800.53	1714.15
800.71	1738.73
800.88	1783.78
801.06	1566.70
801.23	1583.08
801.41	1646.57
801.58	1609.70
801.75	1595.37
801.93	1757.16
802.10	1738.73
802.28	1681.38
802.45	1665.00
802.63	1685.48
802.80	1812.45
802.97	1710.05
803.15	1775.59
803.32	1648.61
803.50	1681.38
803.67	1611.75
803.84	1677.29
804.02	1699.81
804.19	1730.53
804.37	1642.47
804.54	1613.80
804.71	1732.58
804.89	1699.81
805.06	1683.43
805.24	1693.67
805.41	1687.53
805.58	1613.80
805.76	1789.92
805.93	1710.05
806.10	1763.30
806.28	1734.63
806.45	1765.35
806.63	1771.49
806.80	1794.02
806.97	1765.35
807.15	1718.25
807.32	1763.30
807.49	1675.24
807.67	1615.85
807.84	1746.92
808.01	1542.12
808.19	1798.12
808.36	1746.92
808.54	1718.25
808.71	1636.33
808.88	1730.53
809.06	1679.33
809.23	1789.92
809.40	1591.27
809.58	1753.06
809.75	1703.91
809.92	1689.57
810.10	1804.26
810.27	1609.70
810.44	1714.15
810.62	1695.72
810.79	1728.49
810.96	1611.75
811.14	1665.00
811.31	1699.81
811.48	1689.57
811.66	1738.73
811.83	1767.40
812.00	1705.96
812.18	1677.29
812.35	1820.64
812.52	1675.24
812.69	1730.53
812.87	1691.62
813.04	1634.28
813.21	1685.48
813.39	1652.71
813.56	1705.96
813.73	1742.82
813.91	1509.35
814.08	1751.01
814.25	1691.62
814.42	1642.47
814.60	1697.77
814.77	1634.28
814.94	1683.43
815.12	1746.92
815.29	1781.73
815.46	1658.85
815.63	1738.73
815.81	1601.51
815.98	1701.86
816.15	1685.48
816.33	1761.25
816.50	1691.62
816.67	1718.25
816.84	1699.81
817.02	1652.71
817.19	1708.01
817.36	1748.97
817.53	1804.26
817.71	1605.61
817.88	1769.44
818.05	1718.25
818.22	1716.20
818.40	1740.77
818.57	1658.85
818.74	1724.39
818.91	1624.04
819.09	1712.10
819.26	1722.34
819.43	1650.66
819.60	1673.19
819.78	1746.92
819.95	1722.34
820.12	1685.48
820.29	1769.44
820.47	1732.58
820.64	1665.00
820.81	1646.57
820.98	1669.09
821.15	1718.25
821.33	1746.92
821.50	1634.28
821.67	1689.57
821.84	1568.74
822.02	1742.82
822.19	1734.63
822.36	1609.70
822.53	1699.81
822.70	1646.57
822.88	1656.81
823.05	1810.40
823.22	1730.53
823.39	1734.63
823.56	1761.25
823.74	1824.74
823.91	1611.75
824.08	1648.61
824.25	1658.85
824.42	1771.49
824.60	1630.18
824.77	1634.28
824.94	1640.42
825.11	1804.26
825.28	1589.22
825.45	1697.77
825.63	1708.01
825.80	1642.47
825.97	1726.44
826.14	1691.62
826.31	1564.65
826.48	1730.53
826.66	1695.72
826.83	1665.00
827.00	1730.53
827.17	1710.05
827.34	1675.24
827.51	1638.38
827.69	1656.81
827.86	1650.66
828.03	1599.46
828.20	1650.66
828.37	1660.90
828.54	1714.15
828.71	1624.04
828.89	1814.50
829.06	1675.24
829.23	1759.21
829.40	1624.04
829.57	1710.05
829.74	1773.54
829.91	1628.14
830.09	1644.52
830.26	1736.68
830.43	1722.34
830.60	1656.81
830.77	1734.63
830.94	1775.59
831.11	1818.60
831.28	1689.57
831.46	1705.96
831.63	1638.38
831.80	1736.68
831.97	1716.20
832.14	1714.15
832.31	1716.20
832.48	1705.96
832.65	1751.01
832.82	1685.48
832.99	1665.00
833.17	1624.04
833.34	1705.96
833.51	1748.97
833.68	1583.08
833.85	1697.77
834.02	1654.76
834.19	1691.62
834.36	1656.81
834.53	1662.95
834.70	1765.35
834.87	1730.53
835.04	1779.68
835.22	1652.71
835.39	1732.58
835.56	1675.24
835.73	1703.91
835.90	1787.88
836.07	1681.38
836.24	1763.30
836.41	1669.09
836.58	1624.04
836.75	1744.87
836.92	1697.77
837.09	1621.99
837.26	1691.62
837.43	1730.53
837.60	1697.77
837.77	1677.29
837.94	1767.40
838.12	1816.55
838.29	1712.10
838.46	1615.85
838.63	1681.38
838.80	1730.53
838.97	1726.44
839.14	1777.64
839.31	1705.96
839.48	1621.99
839.65	1621.99
839.82	1794.02
839.99	1669.09
840.16	1693.67
840.33	1726.44
840.50	1671.14
840.67	1718.25
840.84	1513.45
841.01	1837.03
841.18	1626.09
841.35	1652.71
841.52	1763.30
841.69	1763.30
841.86	1691.62
842.03	1650.66
842.20	1683.43
842.37	1712.10
842.54	1705.96
842.71	1710.05
842.88	1634.28
843.05	1820.64
843.22	1644.52
843.39	1730.53
843.56	1667.05
843.73	1714.15
843.90	1671.14
844.07	1728.49
844.24	1763.30
844.41	1732.58
844.58	1765.35
844.75	1673.19
844.92	1658.85
845.09	1685.48
845.26	1695.72
845.43	1757.16
845.60	1658.85
845.77	1748.97
845.94	1724.39
846.10	1710.05
846.27	1621.99
846.44	1669.09
846.61	1660.90
846.78	1748.97
846.95	1722.34
847.12	1662.95
847.29	1693.67
847.46	1669.09
847.63	1746.92
847.80	1587.18
847.97	1695.72
848.14	1742.82
848.31	1748.97
848.48	1648.61
848.65	1679.33
848.82	1640.42
848.98	1763.30
849.15	1705.96
849.32	1816.55
849.49	1785.83
849.66	1746.92
849.83	1710.05
850.00	1611.75
850.17	1656.81
850.34	1624.04
850.51	1675.24
850.68	1652.71
850.85	1791.97
851.01	1699.81
851.18	1757.16
851.35	1675.24
851.52	1740.77
851.69	1763.30
851.86	1626.09
852.03	1669.09
852.20	1685.48
852.37	1712.10
852.53	1538.02
852.70	1638.38
852.87	1669.09
853.04	1716.20
853.21	1648.61
853.38	1769.44
853.55	1724.39
853.72	1808.36
853.89	1665.00
854.05	1632.23
854.22	1710.05
854.39	1642.47
854.56	1681.38
854.73	1755.11
854.90	1603.56
855.07	1738.73
855.23	1650.66
855.40	1671.14
855.57	1746.92
855.74	1621.99
855.91	1912.80
856.08	1617.90
856.25	1634.28
856.41	1710.05
856.58	1718.25
856.75	1783.78
856.92	1685.48
857.09	1681.38
857.26	1607.66
857.42	1605.61
857.59	1726.44
857.76	1656.81
857.93	1730.53
858.10	1697.77
858.27	1609.70
858.43	1681.38
858.60	1677.29
858.77	1681.38
858.94	1581.03
859.11	1769.44
859.27	1685.48
859.44	1689.57
859.61	1861.60
859.78	1779.68
859.95	1654.76
860.12	1642.47
860.28	1785.83
860.45	1871.84
860.62	1730.53
860.79	1636.33
860.95	1742.82
861.12	1685.48
861.29	1671.14
861.46	1636.33
861.63	1533.93
861.79	1708.01
861.96	1591.27
862.13	1691.62
862.30	1775.59
862.47	1626.09
862.63	1662.95
862.80	1744.87
862.97	1697.77
863.14	1736.68
863.30	1632.23
863.47	1751.01
863.64	1744.87
863.81	1742.82
863.97	1714.15
864.14	1683.43
864.31	1722.34
864.48	1683.43
864.65	1738.73
864.81	1689.57
864.98	1714.15
865.15	1685.48
865.32	1693.67
865.48	1730.53
865.65	1716.20
865.82	1636.33
865.98	1689.57
866.15	1675.24
866.32	1701.86
866.49	1654.76
866.65	1789.92
866.82	1583.08
866.99	1730.53
867.16	1642.47
867.32	1617.90
867.49	1685.48
867.66	1718.25
867.83	1662.95
867.99	1656.81
868.16	1736.68
868.33	1681.38
868.49	1677.29
868.66	1673.19
868.83	1722.34
868.99	1654.76
869.16	1732.58
869.33	1732.58
869.50	1732.58
869.66	1669.09
869.83	1685.48
870.00	1591.27
870.16	1671.14
870.33	1636.33
870.50	1730.53
870.66	1705.96
870.83	1837.03
871.00	1722.34
871.17	1681.38
871.33	1705.96
871.50	1738.73
871.67	1738.73
871.83	1611.75
872.00	1816.55
872.17	1615.85
872.33	1820.64
872.50	1732.58
872.67	1697.77
872.83	1656.81
873.00	1720.29
873.17	1742.82
873.33	1687.53
873.50	1697.77
873.67	1683.43
873.83	1734.63
874.00	1767.40
874.16	1753.06
874.33	1683.43
874.50	1712.10
874.66	1736.68
874.83	1648.61
875.00	1777.64
875.16	1695.72
875.33	1806.31
875.50	1634.28
875.66	1595.37
875.83	1757.16
875.99	1722.34
876.16	1734.63
876.33	1578.98
876.49	1710.05
876.66	1748.97
876.83	1660.90
876.99	1671.14
877.16	1695.72
877.32	1658.85
877.49	1769.44
877.66	1701.86
877.82	1740.77
877.99	1644.52
878.15	1759.21
878.32	1646.57
878.49	1734.63
878.65	1601.51
878.82	1849.32
878.98	1587.18
879.15	1716.20
879.32	1624.04
879.48	1671.14
879.65	1681.38
879.81	1599.46
879.98	1646.57
880.15	1628.14
880.31	1779.68
880.48	1617.90
880.64	1753.06
880.81	1744.87
880.97	1755.11
881.14	1730.53
881.31	1636.33
881.47	1746.92
881.64	1673.19
881.80	1634.28
881.97	1691.62
882.13	1738.73
882.30	1581.03
882.47	1699.81
882.63	1607.66
882.80	1658.85
882.96	1640.42
883.13	1761.25
883.29	1699.81
883.46	1691.62
883.62	1748.97
883.79	1724.39
883.95	1746.92
884.12	1675.24
884.29	1724.39
884.45	1691.62
884.62	1740.77
884.78	1665.00
884.95	1783.78
885.11	1699.81
885.28	1794.02
885.44	1679.33
885.61	1693.67
885.77	1720.29
885.94	1683.43
886.10	1691.62
886.27	1640.42
886.43	1853.41
886.60	1757.16
886.76	1640.42
886.93	1581.03
887.09	1720.29
887.26	1654.76
887.42	1677.29
887.59	1730.53
887.75	1834.98
887.92	1773.54
888.08	1763.30
888.25	1779.68
888.41	1720.29
888.58	1781.73
888.74	1630.18
888.91	1693.67
>>>>>End Processed Spectral Data<<<<<
