SpectraSuite Data File
++++++++++++++++++++++++++++++++++++
Date: Mon Jun 06 14:53:57 CEST 2016
User: root
Dark Spectrum Present: No
Reference Spectrum Present: No
Number of Sampled Component Spectra: 1
Spectrometers: USB4C02835
Integration Time (usec): 100000 (USB4C02835)
Spectra Averaged: 1 (USB4C02835)
Boxcar Smoothing: 0 (USB4C02835)
Correct for Electrical Dark: No (USB4C02835)
Strobe/Lamp Enabled: No (USB4C02835)
Correct for Detector Non-linearity: No (USB4C02835)
Correct for Stray Light: No (USB4C02835)
Number of Pixels in Processed Spectrum: 3648
>>>>>Begin Processed Spectral Data<<<<<
177.47	1507.30
177.69	1507.30
177.91	1507.30
178.13	1378.28
178.36	1456.11
178.58	1677.29
178.80	1726.44
179.02	1650.66
179.24	1634.28
179.46	1699.81
179.68	1789.92
179.90	1660.90
180.13	1746.92
180.35	1728.49
180.57	1673.19
180.79	1845.22
181.01	1697.77
181.23	1734.63
181.45	1720.29
181.67	1755.11
181.90	1730.53
182.12	1679.33
182.34	1632.23
182.56	1718.25
182.78	1742.82
183.00	1703.91
183.22	1689.57
183.44	1615.85
183.66	1822.69
183.89	1808.36
184.11	1748.97
184.33	1791.97
184.55	1742.82
184.77	1701.86
184.99	1734.63
185.21	1675.24
185.43	1832.93
185.65	1628.14
185.87	1626.09
186.10	1822.69
186.32	1837.03
186.54	1693.67
186.76	1695.72
186.98	1691.62
187.20	1675.24
187.42	1650.66
187.64	1658.85
187.86	1710.05
188.08	1724.39
188.30	1699.81
188.52	1699.81
188.75	1753.06
188.97	1826.79
189.19	1644.52
189.41	1654.76
189.63	1771.49
189.85	1701.86
190.07	1546.22
190.29	1703.91
190.51	1673.19
190.73	1533.93
190.95	1712.10
191.17	1732.58
191.39	1609.70
191.61	1687.53
191.84	1609.70
192.06	1652.71
192.28	1570.79
192.50	1900.52
192.72	1740.77
192.94	1751.01
193.16	1716.20
193.38	1697.77
193.60	1738.73
193.82	1609.70
194.04	1775.59
194.26	1681.38
194.48	1689.57
194.70	1652.71
194.92	1595.37
195.14	1771.49
195.36	1642.47
195.58	1738.73
195.80	1583.08
196.02	1701.86
196.24	1732.58
196.46	1718.25
196.69	1654.76
196.91	1826.79
197.13	1742.82
197.35	1691.62
197.57	1810.40
197.79	1697.77
198.01	1722.34
198.23	1763.30
198.45	1718.25
198.67	1626.09
198.89	1695.72
199.11	1667.05
199.33	1665.00
199.55	1509.35
199.77	1689.57
199.99	1765.35
200.21	1716.20
200.43	1748.97
200.65	1540.07
200.87	1589.22
201.09	1693.67
201.31	1675.24
201.53	1744.87
201.75	1677.29
201.97	1728.49
202.19	1683.43
202.41	1650.66
202.63	1800.16
202.85	1685.48
203.07	1751.01
203.29	1697.77
203.51	1685.48
203.73	1662.95
203.95	1830.88
204.17	1751.01
204.39	1671.14
204.61	1617.90
204.83	1638.38
205.05	1814.50
205.27	1748.97
205.49	1816.55
205.71	1712.10
205.93	1638.38
206.15	1652.71
206.37	1744.87
206.59	1708.01
206.81	1591.27
207.03	1720.29
207.25	1617.90
207.47	1734.63
207.69	1632.23
207.91	1755.11
208.13	1769.44
208.34	1638.38
208.56	1660.90
208.78	1712.10
209.00	1732.58
209.22	1689.57
209.44	1626.09
209.66	1611.75
209.88	1638.38
210.10	1695.72
210.32	1665.00
210.54	1730.53
210.76	1710.05
210.98	1740.77
211.20	1550.31
211.42	1736.68
211.64	1746.92
211.86	1662.95
212.08	1716.20
212.30	1730.53
212.52	1724.39
212.74	1714.15
212.96	1744.87
213.17	1734.63
213.39	1765.35
213.61	1847.27
213.83	1716.20
214.05	1626.09
214.27	1765.35
214.49	1597.42
214.71	1624.04
214.93	1822.69
215.15	1673.19
215.37	1740.77
215.59	1656.81
215.81	1718.25
216.03	1826.79
216.24	1691.62
216.46	1669.09
216.68	1660.90
216.90	1734.63
217.12	1759.21
217.34	1746.92
217.56	1716.20
217.78	1722.34
218.00	1779.68
218.22	1665.00
218.44	1712.10
218.66	1765.35
218.87	1802.21
219.09	1699.81
219.31	1640.42
219.53	1689.57
219.75	1638.38
219.97	1662.95
220.19	1714.15
220.41	1640.42
220.63	1851.36
220.85	1701.86
221.06	1650.66
221.28	1853.41
221.50	1800.16
221.72	1691.62
221.94	1712.10
222.16	1703.91
222.38	1771.49
222.60	1767.40
222.82	1746.92
223.03	1763.30
223.25	1646.57
223.47	1751.01
223.69	1796.07
223.91	1646.57
224.13	1746.92
224.35	1646.57
224.57	1781.73
224.78	1781.73
225.00	1615.85
225.22	1634.28
225.44	1718.25
225.66	1685.48
225.88	1669.09
226.10	1783.78
226.32	1746.92
226.53	1685.48
226.75	1665.00
226.97	1628.14
227.19	1679.33
227.41	1624.04
227.63	1701.86
227.85	1613.80
228.06	1705.96
228.28	1728.49
228.50	1777.64
228.72	1728.49
228.94	1718.25
229.16	1550.31
229.37	1562.60
229.59	1705.96
229.81	1746.92
230.03	1701.86
230.25	1605.61
230.47	1607.66
230.69	1611.75
230.90	1624.04
231.12	1636.33
231.34	1697.77
231.56	1791.97
231.78	1679.33
232.00	1730.53
232.21	1671.14
232.43	1624.04
232.65	1576.94
232.87	1740.77
233.09	1636.33
233.30	1697.77
233.52	1689.57
233.74	1654.76
233.96	1687.53
234.18	1652.71
234.40	1587.18
234.61	1824.74
234.83	1634.28
235.05	1646.57
235.27	1847.27
235.49	1789.92
235.70	1687.53
235.92	1746.92
236.14	1660.90
236.36	1894.37
236.58	1687.53
236.79	1738.73
237.01	1716.20
237.23	1652.71
237.45	1769.44
237.67	1570.79
237.88	1679.33
238.10	1791.97
238.32	1648.61
238.54	1740.77
238.76	1683.43
238.97	1705.96
239.19	1652.71
239.41	1757.16
239.63	1730.53
239.85	1621.99
240.06	1669.09
240.28	1628.14
240.50	1753.06
240.72	1621.99
240.93	1630.18
241.15	1748.97
241.37	1738.73
241.59	1714.15
241.81	1703.91
242.02	1667.05
242.24	1646.57
242.46	1671.14
242.68	1628.14
242.89	1681.38
243.11	1720.29
243.33	1656.81
243.55	1673.19
243.76	1724.39
243.98	1685.48
244.20	1660.90
244.42	1724.39
244.64	1685.48
244.85	1691.62
245.07	1628.14
245.29	1705.96
245.51	1722.34
245.72	1697.77
245.94	1708.01
246.16	1673.19
246.38	1730.53
246.59	1705.96
246.81	1693.67
247.03	1667.05
247.24	1607.66
247.46	1662.95
247.68	1658.85
247.90	1671.14
248.11	1648.61
248.33	1671.14
248.55	1742.82
248.77	1716.20
248.98	1773.54
249.20	1787.88
249.42	1718.25
249.64	1695.72
249.85	1687.53
250.07	1634.28
250.29	1669.09
250.50	1740.77
250.72	1535.98
250.94	1677.29
251.16	1816.55
251.37	1730.53
251.59	1730.53
251.81	1736.68
252.02	1738.73
252.24	1638.38
252.46	1818.60
252.68	1638.38
252.89	1757.16
253.11	1667.05
253.33	1824.74
253.54	1767.40
253.76	1619.94
253.98	1718.25
254.20	1628.14
254.41	1591.27
254.63	1660.90
254.85	1624.04
255.06	1714.15
255.28	1796.07
255.50	1691.62
255.71	1644.52
255.93	1652.71
256.15	1632.23
256.36	1746.92
256.58	1677.29
256.80	1753.06
257.02	1681.38
257.23	1642.47
257.45	1619.94
257.67	1697.77
257.88	1695.72
258.10	1697.77
258.32	1705.96
258.53	1658.85
258.75	1769.44
258.97	1757.16
259.18	1714.15
259.40	1675.24
259.62	1843.17
259.83	1773.54
260.05	1728.49
260.27	1953.76
260.48	1796.07
260.70	1708.01
260.92	1685.48
261.13	1632.23
261.35	1673.19
261.57	1712.10
261.78	1613.80
262.00	1656.81
262.22	1667.05
262.43	1701.86
262.65	1710.05
262.86	1738.73
263.08	1824.74
263.30	1677.29
263.51	1568.74
263.73	1722.34
263.95	1701.86
264.16	1619.94
264.38	1671.14
264.60	1789.92
264.81	1558.50
265.03	1761.25
265.25	1681.38
265.46	1724.39
265.68	1744.87
265.89	1697.77
266.11	1624.04
266.33	1732.58
266.54	1798.12
266.76	1695.72
266.98	1734.63
267.19	1785.83
267.41	1705.96
267.62	1693.67
267.84	1619.94
268.06	1695.72
268.27	1689.57
268.49	1773.54
268.70	1740.77
268.92	1691.62
269.14	1644.52
269.35	1650.66
269.57	1740.77
269.79	1726.44
270.00	1691.62
270.22	1820.64
270.43	1632.23
270.65	1490.92
270.87	1695.72
271.08	1716.20
271.30	1775.59
271.51	1740.77
271.73	1845.22
271.95	1732.58
272.16	1681.38
272.38	1683.43
272.59	1630.18
272.81	1699.81
273.02	1724.39
273.24	1742.82
273.46	1746.92
273.67	1564.65
273.89	1693.67
274.10	1662.95
274.32	1714.15
274.54	1644.52
274.75	1773.54
274.97	1685.48
275.18	1785.83
275.40	1691.62
275.61	1636.33
275.83	1730.53
276.05	1660.90
276.26	1705.96
276.48	1724.39
276.69	1675.24
276.91	1695.72
277.12	1765.35
277.34	1759.21
277.55	1820.64
277.77	1716.20
277.99	1763.30
278.20	1626.09
278.42	1673.19
278.63	1695.72
278.85	1665.00
279.06	1593.32
279.28	1708.01
279.49	1732.58
279.71	1783.78
279.93	1669.09
280.14	1742.82
280.36	1718.25
280.57	1765.35
280.79	1759.21
281.00	1701.86
281.22	1679.33
281.43	1863.65
281.65	1650.66
281.86	1615.85
282.08	1726.44
282.29	1839.08
282.51	1609.70
282.73	1628.14
282.94	1638.38
283.16	1748.97
283.37	1816.55
283.59	1705.96
283.80	1701.86
284.02	1673.19
284.23	1771.49
284.45	1632.23
284.66	1673.19
284.88	1693.67
285.09	1681.38
285.31	1718.25
285.52	1718.25
285.74	1681.38
285.95	1742.82
286.17	1775.59
286.38	1777.64
286.60	1648.61
286.81	1685.48
287.03	1644.52
287.24	1699.81
287.46	1705.96
287.67	1708.01
287.89	1800.16
288.10	1677.29
288.32	1697.77
288.53	1843.17
288.75	1730.53
288.96	1695.72
289.18	1642.47
289.39	1660.90
289.61	1837.03
289.82	1806.31
290.04	1816.55
290.25	1669.09
290.47	1669.09
290.68	1722.34
290.90	1726.44
291.11	1654.76
291.33	1767.40
291.54	1665.00
291.76	1656.81
291.97	1646.57
292.18	1763.30
292.40	1656.81
292.61	1640.42
292.83	1851.36
293.04	1722.34
293.26	1789.92
293.47	1724.39
293.69	1650.66
293.90	1665.00
294.12	1832.93
294.33	1775.59
294.55	1695.72
294.76	1759.21
294.97	1769.44
295.19	1832.93
295.40	1671.14
295.62	1683.43
295.83	1710.05
296.05	1581.03
296.26	1802.21
296.48	1691.62
296.69	1669.09
296.90	1652.71
297.12	1773.54
297.33	1746.92
297.55	1748.97
297.76	1769.44
297.98	1697.77
298.19	1699.81
298.41	1718.25
298.62	1656.81
298.83	1728.49
299.05	1642.47
299.26	1687.53
299.48	1624.04
299.69	1759.21
299.90	1693.67
300.12	1652.71
300.33	1714.15
300.55	1671.14
300.76	1683.43
300.98	1644.52
301.19	1814.50
301.40	1701.86
301.62	1693.67
301.83	1677.29
302.05	1730.53
302.26	1689.57
302.47	1673.19
302.69	1619.94
302.90	1695.72
303.12	1607.66
303.33	1673.19
303.54	1806.31
303.76	1644.52
303.97	1714.15
304.19	1742.82
304.40	1708.01
304.61	1660.90
304.83	1828.84
305.04	1740.77
305.26	1724.39
305.47	1710.05
305.68	1677.29
305.90	1570.79
306.11	1744.87
306.33	1650.66
306.54	1697.77
306.75	1581.03
306.97	1640.42
307.18	1640.42
307.39	1701.86
307.61	1767.40
307.82	1722.34
308.04	1701.86
308.25	1683.43
308.46	1705.96
308.68	1714.15
308.89	1738.73
309.10	1681.38
309.32	1767.40
309.53	1656.81
309.74	1796.07
309.96	1714.15
310.17	1765.35
310.39	1669.09
310.60	1783.78
310.81	1701.86
311.03	1665.00
311.24	1748.97
311.45	1652.71
311.67	1783.78
311.88	1705.96
312.09	1699.81
312.31	1738.73
312.52	1652.71
312.73	1648.61
312.95	1685.48
313.16	1652.71
313.37	1732.58
313.59	1710.05
313.80	1697.77
314.01	1755.11
314.23	1681.38
314.44	1671.14
314.65	1605.61
314.87	1662.95
315.08	1650.66
315.29	1640.42
315.51	1615.85
315.72	1644.52
315.93	1802.21
316.15	1841.12
316.36	1716.20
316.57	1660.90
316.79	1767.40
317.00	1671.14
317.21	1759.21
317.43	1665.00
317.64	1648.61
317.85	1679.33
318.07	1642.47
318.28	1742.82
318.49	1867.75
318.70	1929.19
318.92	1851.36
319.13	1738.73
319.34	1824.74
319.56	1830.88
319.77	1837.03
319.98	1820.64
320.20	1853.41
320.41	1767.40
320.62	1787.88
320.83	1691.62
321.05	1834.98
321.26	1734.63
321.47	1728.49
321.69	1675.24
321.90	1673.19
322.11	1673.19
322.32	1677.29
322.54	1771.49
322.75	1753.06
322.96	1867.75
323.18	1734.63
323.39	1632.23
323.60	1695.72
323.81	1814.50
324.03	1675.24
324.24	1708.01
324.45	1691.62
324.66	1671.14
324.88	1730.53
325.09	1802.21
325.30	1673.19
325.52	1714.15
325.73	1673.19
325.94	1650.66
326.15	1517.54
326.37	1656.81
326.58	1746.92
326.79	1771.49
327.00	1603.56
327.22	1685.48
327.43	1693.67
327.64	1648.61
327.85	1779.68
328.07	1681.38
328.28	1802.21
328.49	1644.52
328.70	1667.05
328.92	1683.43
329.13	1708.01
329.34	1753.06
329.55	1783.78
329.76	1824.74
329.98	1759.21
330.19	1726.44
330.40	1689.57
330.61	1656.81
330.83	1738.73
331.04	1665.00
331.25	1734.63
331.46	1667.05
331.68	1624.04
331.89	1732.58
332.10	1716.20
332.31	1656.81
332.52	1628.14
332.74	1800.16
332.95	1636.33
333.16	1718.25
333.37	1710.05
333.58	1669.09
333.80	1753.06
334.01	1613.80
334.22	1705.96
334.43	1652.71
334.64	1638.38
334.86	1632.23
335.07	1638.38
335.28	1757.16
335.49	1605.61
335.70	1699.81
335.92	1806.31
336.13	1826.79
336.34	1662.95
336.55	1673.19
336.76	1724.39
336.98	1646.57
337.19	1660.90
337.40	1787.88
337.61	1859.56
337.82	1740.77
338.04	1695.72
338.25	1574.89
338.46	1658.85
338.67	1718.25
338.88	1634.28
339.09	1669.09
339.31	1691.62
339.52	1593.32
339.73	1630.18
339.94	1699.81
340.15	1699.81
340.36	1642.47
340.58	1804.26
340.79	1658.85
341.00	1660.90
341.21	1568.74
341.42	1814.50
341.63	1691.62
341.85	1746.92
342.06	1775.59
342.27	1613.80
342.48	1705.96
342.69	1652.71
342.90	1757.16
343.12	1732.58
343.33	1699.81
343.54	1767.40
343.75	1728.49
343.96	1695.72
344.17	1611.75
344.38	1728.49
344.60	1646.57
344.81	1599.46
345.02	1742.82
345.23	1697.77
345.44	1710.05
345.65	1718.25
345.86	1769.44
346.07	1695.72
346.29	1728.49
346.50	1791.97
346.71	1767.40
346.92	1755.11
347.13	1748.97
347.34	1683.43
347.55	1693.67
347.76	1720.29
347.98	1558.50
348.19	1701.86
348.40	1802.21
348.61	1638.38
348.82	1877.99
349.03	1736.68
349.24	1726.44
349.45	1800.16
349.66	1630.18
349.88	1740.77
350.09	1693.67
350.30	1763.30
350.51	1728.49
350.72	1720.29
350.93	1601.51
351.14	1705.96
351.35	1722.34
351.56	1646.57
351.77	1718.25
351.99	1683.43
352.20	1832.93
352.41	1751.01
352.62	1595.37
352.83	1636.33
353.04	1673.19
353.25	1642.47
353.46	1732.58
353.67	1789.92
353.88	1603.56
354.09	1767.40
354.30	1738.73
354.52	1753.06
354.73	1652.71
354.94	1632.23
355.15	1736.68
355.36	1855.46
355.57	1673.19
355.78	1708.01
355.99	1744.87
356.20	1681.38
356.41	1783.78
356.62	1753.06
356.83	1757.16
357.04	1777.64
357.25	1538.02
357.46	1615.85
357.68	1685.48
357.89	1644.52
358.10	1609.70
358.31	1701.86
358.52	1683.43
358.73	1671.14
358.94	1652.71
359.15	1701.86
359.36	1718.25
359.57	1671.14
359.78	1689.57
359.99	1740.77
360.20	1642.47
360.41	1650.66
360.62	1710.05
360.83	1665.00
361.04	1691.62
361.25	1665.00
361.46	1808.36
361.67	1740.77
361.88	1601.51
362.09	1742.82
362.30	1669.09
362.51	1617.90
362.72	1712.10
362.93	1794.02
363.14	1705.96
363.35	1681.38
363.56	1695.72
363.78	1734.63
363.99	1697.77
364.20	1722.34
364.41	1693.67
364.62	1882.08
364.83	1665.00
365.04	1699.81
365.25	1667.05
365.46	1810.40
365.67	1642.47
365.88	1646.57
366.09	1673.19
366.30	1701.86
366.51	1650.66
366.72	1628.14
366.93	1714.15
367.14	1718.25
367.35	1765.35
367.56	1681.38
367.77	1748.97
367.98	1615.85
368.18	1767.40
368.39	1705.96
368.60	1685.48
368.81	1812.45
369.02	1720.29
369.23	1740.77
369.44	1650.66
369.65	1681.38
369.86	1652.71
370.07	1656.81
370.28	1632.23
370.49	1777.64
370.70	1734.63
370.91	1628.14
371.12	1562.60
371.33	1773.54
371.54	1689.57
371.75	1746.92
371.96	1511.40
372.17	1689.57
372.38	1677.29
372.59	1751.01
372.80	1634.28
373.01	1669.09
373.22	1703.91
373.43	1800.16
373.64	1642.47
373.85	1812.45
374.06	1794.02
374.26	1722.34
374.47	1755.11
374.68	1791.97
374.89	1720.29
375.10	1712.10
375.31	1710.05
375.52	1708.01
375.73	1701.86
375.94	1667.05
376.15	1724.39
376.36	1572.84
376.57	1568.74
376.78	1730.53
376.99	1722.34
377.20	1742.82
377.40	1626.09
377.61	1837.03
377.82	1679.33
378.03	1734.63
378.24	1753.06
378.45	1701.86
378.66	1763.30
378.87	1697.77
379.08	1599.46
379.29	1671.14
379.50	1693.67
379.71	1701.86
379.91	1693.67
380.12	1718.25
380.33	1691.62
380.54	1736.68
380.75	1722.34
380.96	1695.72
381.17	1718.25
381.38	1665.00
381.59	1816.55
381.80	1703.91
382.00	1861.60
382.21	1755.11
382.42	1785.83
382.63	1808.36
382.84	1763.30
383.05	1822.69
383.26	1826.79
383.47	1781.73
383.68	1757.16
383.88	1771.49
384.09	1632.23
384.30	1767.40
384.51	1755.11
384.72	1673.19
384.93	1636.33
385.14	1701.86
385.35	1740.77
385.55	1626.09
385.76	1695.72
385.97	1632.23
386.18	1687.53
386.39	1679.33
386.60	1638.38
386.81	1701.86
387.02	1628.14
387.22	1673.19
387.43	1808.36
387.64	1804.26
387.85	1841.12
388.06	2260.96
388.27	4030.40
388.48	6623.13
388.68	7974.79
388.89	9351.03
389.10	9422.70
389.31	8232.83
389.52	7372.69
389.73	6442.91
389.93	6195.11
390.14	5754.79
390.35	5038.00
390.56	4435.90
390.77	3766.21
390.98	3030.99
391.18	2570.20
391.39	2035.68
391.60	1853.41
391.81	1751.01
392.02	1701.86
392.23	1834.98
392.43	1722.34
392.64	1824.74
392.85	1632.23
393.06	1800.16
393.27	1683.43
393.47	1673.19
393.68	1740.77
393.89	1703.91
394.10	1712.10
394.31	1673.19
394.52	1638.38
394.72	1595.37
394.93	1779.68
395.14	1673.19
395.35	1712.10
395.56	1634.28
395.76	1728.49
395.97	1820.64
396.18	1839.08
396.39	1769.44
396.60	2017.25
396.80	1865.70
397.01	1816.55
397.22	1826.79
397.43	1925.09
397.64	1746.92
397.84	1787.88
398.05	1888.23
398.26	1779.68
398.47	1755.11
398.67	1787.88
398.88	1681.38
399.09	1765.35
399.30	1638.38
399.51	1658.85
399.71	1660.90
399.92	1658.85
400.13	1656.81
400.34	1718.25
400.54	1662.95
400.75	1826.79
400.96	1673.19
401.17	1849.32
401.37	1777.64
401.58	1658.85
401.79	1695.72
402.00	1900.52
402.21	2015.20
402.41	1923.04
402.62	1996.77
402.83	1927.14
403.04	1955.81
403.24	2047.97
403.45	1849.32
403.66	1945.57
403.87	1863.65
404.07	1871.84
404.28	1857.51
404.49	1906.66
404.70	1787.88
404.90	1796.07
405.11	1697.77
405.32	1746.92
405.52	1689.57
405.73	1675.24
405.94	1642.47
406.15	1722.34
406.35	1689.57
406.56	1726.44
406.77	1787.88
406.98	1701.86
407.18	1679.33
407.39	1726.44
407.60	1701.86
407.80	1701.86
408.01	1722.34
408.22	1691.62
408.43	1730.53
408.63	1769.44
408.84	1773.54
409.05	1701.86
409.25	1654.76
409.46	1607.66
409.67	1667.05
409.88	1712.10
410.08	1728.49
410.29	1687.53
410.50	1773.54
410.70	1632.23
410.91	1687.53
411.12	1703.91
411.32	1675.24
411.53	1689.57
411.74	1787.88
411.95	1751.01
412.15	1662.95
412.36	1763.30
412.57	1791.97
412.77	1804.26
412.98	1703.91
413.19	1765.35
413.39	1722.34
413.60	1753.06
413.81	1798.12
414.01	1710.05
414.22	1759.21
414.43	1759.21
414.63	1708.01
414.84	1703.91
415.05	1738.73
415.25	1599.46
415.46	1779.68
415.67	1687.53
415.87	1785.83
416.08	1691.62
416.29	1642.47
416.49	1810.40
416.70	1628.14
416.91	1650.66
417.11	1667.05
417.32	1708.01
417.53	1789.92
417.73	1691.62
417.94	1681.38
418.15	1791.97
418.35	1738.73
418.56	1732.58
418.77	1800.16
418.97	1730.53
419.18	1693.67
419.38	1533.93
419.59	1656.81
419.80	1818.60
420.00	1638.38
420.21	1724.39
420.42	1681.38
420.62	1667.05
420.83	1714.15
421.04	1648.61
421.24	1742.82
421.45	1753.06
421.65	1701.86
421.86	1667.05
422.07	1734.63
422.27	1767.40
422.48	1732.58
422.69	1669.09
422.89	1681.38
423.10	1685.48
423.30	1634.28
423.51	1720.29
423.72	1665.00
423.92	1710.05
424.13	1568.74
424.33	1691.62
424.54	1759.21
424.75	1708.01
424.95	1796.07
425.16	1732.58
425.36	1701.86
425.57	1787.88
425.78	1832.93
425.98	1804.26
426.19	1669.09
426.39	1630.18
426.60	1732.58
426.81	1722.34
427.01	1687.53
427.22	1615.85
427.42	1535.98
427.63	1648.61
427.83	1751.01
428.04	1746.92
428.25	1789.92
428.45	1755.11
428.66	1728.49
428.86	1667.05
429.07	1742.82
429.28	1697.77
429.48	1712.10
429.69	1615.85
429.89	1681.38
430.10	1576.94
430.30	1734.63
430.51	1757.16
430.71	1695.72
430.92	1669.09
431.13	1767.40
431.33	1771.49
431.54	1740.77
431.74	1779.68
431.95	1822.69
432.15	1638.38
432.36	1669.09
432.56	1730.53
432.77	1740.77
432.98	1818.60
433.18	1787.88
433.39	1724.39
433.59	1708.01
433.80	1847.27
434.00	1853.41
434.21	1701.86
434.41	1695.72
434.62	1818.60
434.82	1662.95
435.03	1640.42
435.23	1691.62
435.44	1632.23
435.64	1738.73
435.85	1732.58
436.06	1740.77
436.26	1755.11
436.47	1720.29
436.67	1593.32
436.88	1734.63
437.08	1744.87
437.29	1783.78
437.49	1769.44
437.70	1759.21
437.90	1677.29
438.11	1847.27
438.31	1763.30
438.52	1789.92
438.72	1896.42
438.93	1861.60
439.13	1751.01
439.34	1847.27
439.54	1710.05
439.75	1828.84
439.95	1765.35
440.16	1716.20
440.36	1744.87
440.57	1796.07
440.77	1791.97
440.98	1724.39
441.18	1748.97
441.39	1677.29
441.59	1701.86
441.80	1845.22
442.00	1695.72
442.21	1796.07
442.41	1605.61
442.62	1728.49
442.82	1681.38
443.02	1703.91
443.23	1746.92
443.43	1691.62
443.64	1810.40
443.84	1644.52
444.05	1814.50
444.25	1808.36
444.46	1705.96
444.66	1714.15
444.87	1785.83
445.07	1654.76
445.28	1683.43
445.48	1730.53
445.69	1855.46
445.89	1863.65
446.09	1689.57
446.30	2039.78
446.50	2631.64
446.71	3583.95
446.91	4220.86
447.12	4597.69
447.32	4663.22
447.53	4235.20
447.73	3792.84
447.93	3542.99
448.14	3307.47
448.34	3063.76
448.55	2838.48
448.75	2717.65
448.96	2705.37
449.16	2344.92
449.36	2271.20
449.57	2074.59
449.77	1939.43
449.98	1779.68
450.18	1808.36
450.39	1736.68
450.59	1730.53
450.79	1703.91
451.00	1669.09
451.20	1812.45
451.41	1720.29
451.61	1816.55
451.81	1740.77
452.02	1714.15
452.22	1751.01
452.43	1720.29
452.63	1691.62
452.84	1708.01
453.04	1665.00
453.24	1720.29
453.45	1648.61
453.65	1615.85
453.86	1757.16
454.06	1769.44
454.26	1730.53
454.47	1705.96
454.67	1845.22
454.87	1726.44
455.08	1712.10
455.28	1871.84
455.49	1751.01
455.69	1699.81
455.89	1781.73
456.10	1798.12
456.30	1748.97
456.51	1724.39
456.71	1798.12
456.91	1773.54
457.12	1724.39
457.32	1751.01
457.52	1646.57
457.73	1839.08
457.93	1763.30
458.14	1763.30
458.34	1685.48
458.54	1681.38
458.75	1720.29
458.95	1849.32
459.15	1748.97
459.36	1644.52
459.56	1775.59
459.76	1837.03
459.97	1710.05
460.17	1710.05
460.37	1759.21
460.58	1716.20
460.78	1726.44
460.99	1695.72
461.19	1669.09
461.39	1783.78
461.60	1759.21
461.80	1802.21
462.00	1732.58
462.21	1716.20
462.41	1716.20
462.61	1689.57
462.82	1689.57
463.02	1785.83
463.22	1708.01
463.43	1771.49
463.63	1722.34
463.83	1779.68
464.04	1736.68
464.24	1748.97
464.44	1718.25
464.64	1703.91
464.85	1734.63
465.05	1781.73
465.25	1732.58
465.46	1656.81
465.66	1804.26
465.86	1806.31
466.07	1710.05
466.27	1740.77
466.47	1628.14
466.68	1630.18
466.88	1822.69
467.08	1781.73
467.29	1681.38
467.49	1789.92
467.69	1705.96
467.89	1693.67
468.10	1628.14
468.30	1769.44
468.50	1777.64
468.71	1689.57
468.91	1697.77
469.11	1818.60
469.31	1701.86
469.52	1701.86
469.72	1759.21
469.92	1826.79
470.13	1708.01
470.33	1716.20
470.53	1859.56
470.73	2035.68
470.94	2242.53
471.14	2363.36
471.34	2422.75
471.54	2361.31
471.75	2230.24
471.95	2062.30
472.15	2013.15
472.36	2103.26
472.56	2129.89
472.76	2004.96
472.96	2027.49
473.17	1957.86
473.37	1880.04
473.57	1691.62
473.77	1775.59
473.98	1720.29
474.18	1705.96
474.38	1873.89
474.58	1699.81
474.79	1669.09
474.99	1722.34
475.19	1755.11
475.39	1722.34
475.60	1652.71
475.80	1746.92
476.00	1757.16
476.20	1675.24
476.41	1660.90
476.61	1861.60
476.81	1779.68
477.01	1634.28
477.21	1808.36
477.42	1863.65
477.62	1724.39
477.82	1779.68
478.02	1708.01
478.23	1671.14
478.43	1687.53
478.63	1652.71
478.83	1724.39
479.03	1656.81
479.24	1779.68
479.44	1808.36
479.64	1681.38
479.84	1648.61
480.04	1665.00
480.25	1818.60
480.45	1624.04
480.65	1619.94
480.85	1834.98
481.06	1705.96
481.26	1767.40
481.46	1789.92
481.66	1718.25
481.86	1665.00
482.06	1755.11
482.27	1693.67
482.47	1689.57
482.67	1775.59
482.87	1640.42
483.07	1789.92
483.28	1695.72
483.48	1646.57
483.68	1701.86
483.88	1642.47
484.08	1611.75
484.29	1624.04
484.49	1699.81
484.69	1710.05
484.89	1798.12
485.09	1783.78
485.29	1783.78
485.50	1755.11
485.70	1726.44
485.90	1777.64
486.10	1759.21
486.30	1699.81
486.50	1789.92
486.71	1746.92
486.91	1816.55
487.11	1759.21
487.31	1558.50
487.51	1742.82
487.71	1685.48
487.91	1736.68
488.12	1714.15
488.32	1583.08
488.52	1714.15
488.72	1552.36
488.92	1718.25
489.12	1802.21
489.32	1751.01
489.53	1748.97
489.73	1726.44
489.93	1820.64
490.13	1730.53
490.33	1626.09
490.53	1691.62
490.73	1789.92
490.94	1646.57
491.14	1787.88
491.34	1814.50
491.54	2066.40
491.74	2492.38
491.94	2830.29
492.14	3039.19
492.34	3012.56
492.54	2744.28
492.75	2375.64
492.95	2428.89
493.15	2312.16
493.35	2303.96
493.55	2222.05
493.75	2133.98
493.95	2103.26
494.15	2013.15
494.35	1941.47
494.56	1871.84
494.76	1722.34
494.96	1748.97
495.16	1818.60
495.36	1744.87
495.56	1650.66
495.76	1775.59
495.96	1744.87
496.16	1738.73
496.36	1867.75
496.56	1671.14
496.77	1730.53
496.97	1759.21
497.17	1757.16
497.37	1626.09
497.57	1708.01
497.77	1695.72
497.97	1689.57
498.17	1695.72
498.37	1751.01
498.57	1703.91
498.77	1689.57
498.97	1794.02
499.17	1908.71
499.38	1734.63
499.58	1751.01
499.78	1804.26
499.98	1783.78
500.18	1611.75
500.38	1748.97
500.58	1892.32
500.78	2521.05
500.98	4452.28
501.18	5728.17
501.38	6631.32
501.58	6778.78
501.78	6285.22
501.98	5412.78
502.18	4865.97
502.38	4409.28
502.58	3971.01
502.78	3626.95
502.98	3508.17
503.18	3502.03
503.38	3125.20
503.59	2791.38
503.79	2654.17
503.99	2465.75
504.19	2297.82
504.39	2174.94
504.59	2086.88
504.79	2113.50
504.99	2037.73
505.19	1910.75
505.39	1804.26
505.59	1920.99
505.79	1853.41
505.99	1902.56
506.19	1810.40
506.39	1804.26
506.59	1769.44
506.79	1720.29
506.99	1812.45
507.19	1724.39
507.39	1693.67
507.59	1777.64
507.79	1708.01
507.99	1689.57
508.19	1742.82
508.39	1675.24
508.59	1796.07
508.79	1808.36
508.99	1853.41
509.19	1751.01
509.39	1695.72
509.59	1691.62
509.79	1740.77
509.99	1738.73
510.19	1839.08
510.39	1775.59
510.59	1837.03
510.79	1779.68
510.99	1615.85
511.19	1773.54
511.39	1806.31
511.59	1791.97
511.79	1884.13
511.99	1705.96
512.19	1771.49
512.38	1705.96
512.58	1710.05
512.78	1796.07
512.98	1751.01
513.18	1773.54
513.38	1732.58
513.58	1771.49
513.78	1689.57
513.98	1769.44
514.18	1722.34
514.38	1746.92
514.58	1763.30
514.78	1726.44
514.98	1644.52
515.18	1724.39
515.38	1642.47
515.58	1802.21
515.78	1714.15
515.98	1673.19
516.18	1683.43
516.38	1730.53
516.57	1748.97
516.77	1628.14
516.97	1794.02
517.17	1703.91
517.37	1681.38
517.57	1845.22
517.77	1697.77
517.97	1753.06
518.17	1779.68
518.37	1679.33
518.57	1759.21
518.77	1681.38
518.97	1724.39
519.16	1691.62
519.36	1814.50
519.56	1697.77
519.76	1697.77
519.96	1695.72
520.16	1834.98
520.36	1689.57
520.56	1818.60
520.76	1687.53
520.96	1726.44
521.16	1742.82
521.35	1812.45
521.55	1791.97
521.75	1742.82
521.95	1777.64
522.15	1708.01
522.35	1677.29
522.55	1652.71
522.75	1812.45
522.95	1665.00
523.14	1662.95
523.34	1748.97
523.54	1705.96
523.74	1769.44
523.94	1726.44
524.14	1679.33
524.34	1751.01
524.54	1812.45
524.73	1730.53
524.93	1701.86
525.13	1781.73
525.33	1660.90
525.53	1828.84
525.73	1757.16
525.93	1681.38
526.13	1736.68
526.32	1728.49
526.52	1822.69
526.72	1777.64
526.92	1701.86
527.12	1714.15
527.32	1650.66
527.52	1722.34
527.71	1746.92
527.91	1701.86
528.11	1734.63
528.31	1624.04
528.51	1697.77
528.71	1763.30
528.90	1771.49
529.10	1771.49
529.30	1816.55
529.50	1593.32
529.70	1724.39
529.90	1732.58
530.09	1716.20
530.29	1634.28
530.49	1695.72
530.69	1875.94
530.89	1775.59
531.09	1724.39
531.28	1646.57
531.48	1789.92
531.68	1714.15
531.88	1716.20
532.08	1812.45
532.28	1701.86
532.47	1685.48
532.67	1765.35
532.87	1742.82
533.07	1716.20
533.27	1845.22
533.46	1802.21
533.66	1767.40
533.86	1687.53
534.06	1746.92
534.26	1679.33
534.45	1712.10
534.65	1826.79
534.85	1755.11
535.05	1699.81
535.25	1755.11
535.44	1642.47
535.64	1734.63
535.84	1708.01
536.04	1746.92
536.24	1730.53
536.43	1740.77
536.63	1716.20
536.83	1777.64
537.03	1808.36
537.22	1658.85
537.42	1628.14
537.62	1738.73
537.82	1712.10
538.02	1796.07
538.21	1796.07
538.41	1839.08
538.61	1716.20
538.81	1703.91
539.00	1791.97
539.20	1665.00
539.40	1667.05
539.60	1755.11
539.79	1734.63
539.99	1699.81
540.19	1691.62
540.39	1742.82
540.58	1701.86
540.78	1712.10
540.98	1740.77
541.18	1851.36
541.37	1824.74
541.57	1775.59
541.77	1775.59
541.97	1673.19
542.16	1691.62
542.36	1748.97
542.56	1785.83
542.76	1779.68
542.95	1724.39
543.15	1673.19
543.35	1716.20
543.54	1681.38
543.74	1767.40
543.94	1777.64
544.14	1689.57
544.33	1791.97
544.53	1699.81
544.73	1742.82
544.93	1689.57
545.12	1787.88
545.32	1716.20
545.52	1710.05
545.71	1673.19
545.91	1644.52
546.11	1681.38
546.30	1712.10
546.50	1720.29
546.70	1789.92
546.90	1705.96
547.09	1669.09
547.29	1720.29
547.49	1746.92
547.68	1681.38
547.88	1714.15
548.08	1736.68
548.27	2217.95
548.47	1710.05
548.67	1720.29
548.87	1824.74
549.06	1660.90
549.26	1724.39
549.46	1714.15
549.65	1630.18
549.85	1822.69
550.05	1746.92
550.24	1607.66
550.44	1695.72
550.64	1673.19
550.83	1769.44
551.03	1853.41
551.23	1712.10
551.42	1771.49
551.62	1771.49
551.82	1777.64
552.01	1705.96
552.21	1773.54
552.41	1765.35
552.60	1894.37
552.80	1820.64
553.00	1716.20
553.19	1777.64
553.39	1767.40
553.59	1732.58
553.78	1812.45
553.98	1669.09
554.17	1724.39
554.37	1703.91
554.57	1714.15
554.76	1685.48
554.96	1658.85
555.16	1765.35
555.35	1669.09
555.55	1763.30
555.75	1789.92
555.94	1787.88
556.14	1642.47
556.33	1816.55
556.53	1681.38
556.73	1689.57
556.92	1806.31
557.12	1800.16
557.32	1859.56
557.51	1826.79
557.71	1765.35
557.90	1787.88
558.10	1748.97
558.30	1800.16
558.49	1724.39
558.69	1703.91
558.88	1705.96
559.08	1726.44
559.28	1732.58
559.47	1744.87
559.67	1779.68
559.86	1863.65
560.06	1691.62
560.26	1789.92
560.45	1755.11
560.65	1708.01
560.84	1763.30
561.04	1656.81
561.24	1804.26
561.43	1695.72
561.63	1841.12
561.82	1716.20
562.02	1712.10
562.22	1634.28
562.41	1671.14
562.61	1787.88
562.80	1683.43
563.00	1869.80
563.19	1722.34
563.39	1767.40
563.59	1746.92
563.78	1656.81
563.98	1660.90
564.17	1687.53
564.37	1675.24
564.56	1654.76
564.76	1642.47
564.96	1834.98
565.15	1703.91
565.35	1830.88
565.54	1714.15
565.74	1746.92
565.93	1787.88
566.13	1705.96
566.32	1882.08
566.52	1783.78
566.71	1734.63
566.91	1771.49
567.11	1755.11
567.30	1761.25
567.50	1763.30
567.69	1802.21
567.89	1736.68
568.08	1665.00
568.28	1703.91
568.47	1609.70
568.67	1775.59
568.86	1736.68
569.06	1757.16
569.25	1763.30
569.45	1742.82
569.64	1697.77
569.84	1716.20
570.04	1773.54
570.23	1726.44
570.43	1728.49
570.62	1722.34
570.82	1791.97
571.01	1656.81
571.21	1701.86
571.40	1646.57
571.60	1748.97
571.79	1800.16
571.99	1740.77
572.18	1673.19
572.38	1796.07
572.57	1771.49
572.77	1738.73
572.96	1923.04
573.16	1759.21
573.35	1644.52
573.55	1820.64
573.74	1771.49
573.94	1660.90
574.13	1769.44
574.33	1812.45
574.52	1841.12
574.71	1718.25
574.91	1812.45
575.10	1765.35
575.30	1675.24
575.49	1685.48
575.69	1806.31
575.88	1724.39
576.08	1722.34
576.27	1806.31
576.47	1671.14
576.66	1888.23
576.86	1814.50
577.05	1755.11
577.25	1794.02
577.44	1951.71
577.64	1748.97
577.83	1822.69
578.02	1716.20
578.22	1740.77
578.41	1802.21
578.61	1775.59
578.80	1667.05
579.00	1710.05
579.19	1781.73
579.39	1869.80
579.58	1800.16
579.77	1841.12
579.97	1816.55
580.16	1859.56
580.36	1818.60
580.55	1837.03
580.75	1771.49
580.94	1708.01
581.13	1787.88
581.33	1789.92
581.52	1757.16
581.72	1918.95
581.91	1855.46
582.11	1738.73
582.30	1785.83
582.49	1843.17
582.69	1904.61
582.88	1800.16
583.08	1767.40
583.27	1812.45
583.47	1755.11
583.66	1716.20
583.85	1720.29
584.05	1736.68
584.24	1753.06
584.44	1677.29
584.63	1828.84
584.82	1841.12
585.02	1847.27
585.21	1757.16
585.41	1820.64
585.60	1789.92
585.79	1888.23
585.99	1992.67
586.18	1894.37
586.37	2181.09
586.57	3237.84
586.76	9504.62
586.96	23731.86
587.15	33175.05
587.34	39015.85
587.54	40742.29
587.73	35444.20
587.93	25702.01
588.12	20903.62
588.31	17751.79
588.51	15867.66
588.70	14774.05
588.89	13854.51
589.09	12312.39
589.28	10854.23
589.47	9068.41
589.67	7835.53
589.86	6344.61
590.06	4806.58
590.25	3848.13
590.44	3117.01
590.64	2617.30
590.83	2308.06
591.02	2099.17
591.22	1947.62
591.41	1892.32
591.60	1837.03
591.80	1937.38
591.99	1734.63
592.18	1738.73
592.38	1812.45
592.57	1660.90
592.76	1683.43
592.96	1736.68
593.15	1734.63
593.34	1742.82
593.54	1755.11
593.73	1855.46
593.92	1683.43
594.12	1777.64
594.31	1787.88
594.50	1820.64
594.70	1761.25
594.89	1916.90
595.08	1732.58
595.28	1744.87
595.47	1892.32
595.66	1759.21
595.86	1640.42
596.05	1710.05
596.24	1781.73
596.43	1912.80
596.63	1828.84
596.82	1783.78
597.01	1730.53
597.21	1832.93
597.40	1738.73
597.59	1763.30
597.79	1734.63
597.98	1759.21
598.17	1726.44
598.36	1728.49
598.56	1822.69
598.75	1769.44
598.94	1708.01
599.14	1775.59
599.33	1742.82
599.52	1755.11
599.71	1726.44
599.91	1830.88
600.10	1787.88
600.29	1673.19
600.48	1812.45
600.68	1775.59
600.87	1767.40
601.06	1665.00
601.26	1728.49
601.45	1837.03
601.64	1697.77
601.83	1822.69
602.03	1705.96
602.22	1685.48
602.41	1751.01
602.60	1798.12
602.80	1882.08
602.99	1761.25
603.18	1710.05
603.37	1757.16
603.57	1753.06
603.76	1794.02
603.95	1751.01
604.14	1697.77
604.34	1701.86
604.53	1787.88
604.72	1722.34
604.91	1734.63
605.10	1746.92
605.30	1638.38
605.49	1826.79
605.68	1710.05
605.87	1767.40
606.07	1712.10
606.26	1728.49
606.45	1796.07
606.64	1763.30
606.84	1763.30
607.03	1761.25
607.22	1748.97
607.41	1640.42
607.60	1662.95
607.80	1675.24
607.99	1648.61
608.18	1705.96
608.37	1693.67
608.56	1722.34
608.76	1755.11
608.95	1857.51
609.14	1718.25
609.33	1730.53
609.52	1751.01
609.72	1701.86
609.91	1804.26
610.10	1755.11
610.29	1849.32
610.48	1742.82
610.68	1761.25
610.87	1777.64
611.06	1738.73
611.25	1705.96
611.44	1804.26
611.63	1738.73
611.83	1761.25
612.02	1681.38
612.21	1777.64
612.40	1599.46
612.59	1687.53
612.79	1654.76
612.98	1728.49
613.17	1845.22
613.36	1667.05
613.55	1806.31
613.74	1652.71
613.93	1679.33
614.13	1642.47
614.32	1746.92
614.51	1804.26
614.70	1660.90
614.89	1636.33
615.08	1705.96
615.28	2119.65
615.47	1691.62
615.66	1703.91
615.85	1736.68
616.04	1722.34
616.23	1712.10
616.42	1724.39
616.62	1726.44
616.81	1787.88
617.00	1744.87
617.19	1771.49
617.38	1730.53
617.57	1753.06
617.76	1744.87
617.95	1679.33
618.15	1705.96
618.34	1814.50
618.53	1685.48
618.72	1785.83
618.91	1765.35
619.10	1837.03
619.29	1755.11
619.48	1699.81
619.68	1734.63
619.87	1701.86
620.06	1679.33
620.25	1738.73
620.44	1736.68
620.63	1726.44
620.82	1671.14
621.01	1779.68
621.20	1701.86
621.39	1705.96
621.59	1738.73
621.78	1697.77
621.97	1705.96
622.16	1738.73
622.35	1718.25
622.54	1730.53
622.73	1773.54
622.92	1601.51
623.11	1794.02
623.30	1765.35
623.49	1705.96
623.68	1689.57
623.88	1724.39
624.07	1685.48
624.26	1660.90
624.45	1652.71
624.64	1642.47
624.83	1748.97
625.02	1728.49
625.21	1779.68
625.40	1738.73
625.59	1869.80
625.78	1714.15
625.97	1734.63
626.16	1755.11
626.35	1773.54
626.54	1746.92
626.74	1787.88
626.93	1716.20
627.12	1718.25
627.31	1820.64
627.50	1687.53
627.69	1853.41
627.88	1673.19
628.07	1689.57
628.26	1636.33
628.45	1675.24
628.64	1650.66
628.83	1699.81
629.02	1675.24
629.21	1724.39
629.40	1759.21
629.59	1667.05
629.78	1613.80
629.97	1714.15
630.16	1769.44
630.35	1644.52
630.54	1697.77
630.73	1701.86
630.92	1703.91
631.11	1656.81
631.30	1685.48
631.49	1736.68
631.68	1724.39
631.87	1755.11
632.06	1662.95
632.25	1812.45
632.44	1708.01
632.63	1683.43
632.82	1710.05
633.01	1630.18
633.20	1746.92
633.39	1669.09
633.58	1658.85
633.77	1669.09
633.96	1798.12
634.15	1722.34
634.34	1695.72
634.53	1716.20
634.72	1697.77
634.91	1556.46
635.10	1740.77
635.29	1726.44
635.48	1783.78
635.67	1720.29
635.86	1644.52
636.05	1863.65
636.24	1794.02
636.43	1744.87
636.62	1742.82
636.81	1599.46
637.00	1683.43
637.19	1777.64
637.38	1751.01
637.57	1665.00
637.76	1662.95
637.95	1783.78
638.14	1640.42
638.33	1654.76
638.52	1705.96
638.71	1673.19
638.89	1665.00
639.08	1826.79
639.27	1726.44
639.46	1701.86
639.65	1730.53
639.84	1765.35
640.03	1746.92
640.22	1673.19
640.41	1877.99
640.60	1714.15
640.79	1681.38
640.98	1708.01
641.17	1763.30
641.36	1697.77
641.55	1804.26
641.74	1636.33
641.92	1669.09
642.11	1662.95
642.30	1714.15
642.49	1710.05
642.68	1632.23
642.87	1736.68
643.06	1771.49
643.25	1701.86
643.44	1597.42
643.63	1722.34
643.82	1781.73
644.00	1660.90
644.19	1724.39
644.38	1701.86
644.57	1740.77
644.76	1757.16
644.95	1675.24
645.14	1669.09
645.33	1738.73
645.52	1761.25
645.71	1626.09
645.89	1679.33
646.08	1658.85
646.27	1779.68
646.46	1759.21
646.65	1646.57
646.84	1767.40
647.03	1687.53
647.22	1744.87
647.40	1724.39
647.59	1767.40
647.78	1650.66
647.97	1673.19
648.16	1677.29
648.35	1789.92
648.54	1734.63
648.73	1691.62
648.91	1753.06
649.10	1767.40
649.29	1730.53
649.48	1699.81
649.67	1697.77
649.86	1748.97
650.05	1742.82
650.23	1748.97
650.42	1689.57
650.61	1736.68
650.80	1791.97
650.99	1837.03
651.18	1738.73
651.36	1773.54
651.55	1708.01
651.74	1777.64
651.93	1701.86
652.12	1714.15
652.31	1771.49
652.49	1697.77
652.68	1681.38
652.87	1830.88
653.06	1685.48
653.25	1814.50
653.44	1695.72
653.62	1720.29
653.81	1681.38
654.00	1732.58
654.19	1773.54
654.38	1816.55
654.56	1726.44
654.75	1732.58
654.94	1802.21
655.13	1720.29
655.32	1652.71
655.51	1697.77
655.69	1673.19
655.88	1763.30
656.07	1656.81
656.26	1722.34
656.45	1581.03
656.63	1644.52
656.82	1685.48
657.01	1773.54
657.20	1667.05
657.38	1845.22
657.57	1714.15
657.76	1693.67
657.95	1787.88
658.14	1708.01
658.32	1693.67
658.51	1640.42
658.70	1722.34
658.89	1710.05
659.08	1744.87
659.26	1714.15
659.45	1630.18
659.64	1744.87
659.83	1652.71
660.01	1980.39
660.20	1660.90
660.39	1804.26
660.58	1619.94
660.76	1769.44
660.95	1665.00
661.14	1767.40
661.33	1626.09
661.51	1740.77
661.70	1677.29
661.89	1759.21
662.08	1720.29
662.26	1634.28
662.45	1708.01
662.64	1810.40
662.83	1839.08
663.01	1650.66
663.20	1683.43
663.39	1775.59
663.58	1636.33
663.76	1718.25
663.95	1736.68
664.14	1705.96
664.32	1665.00
664.51	1650.66
664.70	1605.61
664.89	1746.92
665.07	1710.05
665.26	1861.60
665.45	1642.47
665.64	1728.49
665.82	1742.82
666.01	1753.06
666.20	1626.09
666.38	1820.64
666.57	1822.69
666.76	2172.89
666.95	4405.18
667.13	10033.00
667.32	14673.70
667.51	17207.03
667.69	18480.87
667.88	17020.67
668.07	11857.74
668.25	9394.03
668.44	7913.35
668.63	7085.97
668.81	6604.70
669.00	6037.41
669.19	5621.67
669.38	5081.01
669.56	4495.29
669.75	3846.09
669.94	3465.16
670.12	2881.49
670.31	2473.95
670.50	2238.43
670.68	2052.06
670.87	1925.09
671.06	1753.06
671.24	1740.77
671.43	1822.69
671.62	1787.88
671.80	1734.63
671.99	1681.38
672.18	1746.92
672.36	1748.97
672.55	1800.16
672.74	1712.10
672.92	1652.71
673.11	1712.10
673.29	1703.91
673.48	1757.16
673.67	1679.33
673.85	1740.77
674.04	1703.91
674.23	1724.39
674.41	1861.60
674.60	1665.00
674.79	1619.94
674.97	1697.77
675.16	1740.77
675.34	1757.16
675.53	1654.76
675.72	1746.92
675.90	1781.73
676.09	1665.00
676.28	1710.05
676.46	1673.19
676.65	1763.30
676.83	1681.38
677.02	1665.00
677.21	1708.01
677.39	1677.29
677.58	1716.20
677.77	1714.15
677.95	1652.71
678.14	1648.61
678.32	1691.62
678.51	1671.14
678.70	1843.17
678.88	1722.34
679.07	1771.49
679.25	1654.76
679.44	1689.57
679.63	1652.71
679.81	1734.63
680.00	1769.44
680.18	1755.11
680.37	1751.01
680.55	1742.82
680.74	1677.29
680.93	1619.94
681.11	1751.01
681.30	1798.12
681.48	1779.68
681.67	1681.38
681.85	1630.18
682.04	1720.29
682.23	1699.81
682.41	1736.68
682.60	1681.38
682.78	1714.15
682.97	1624.04
683.15	1746.92
683.34	1621.99
683.53	1853.41
683.71	1638.38
683.90	1814.50
684.08	1785.83
684.27	1673.19
684.45	1665.00
684.64	1773.54
684.82	1693.67
685.01	1761.25
685.19	1695.72
685.38	1796.07
685.57	1763.30
685.75	1642.47
685.94	1718.25
686.12	1673.19
686.31	1701.86
686.49	1759.21
686.68	1611.75
686.86	1763.30
687.05	1734.63
687.23	1796.07
687.42	1619.94
687.60	1669.09
687.79	1705.96
687.97	1781.73
688.16	1654.76
688.34	1714.15
688.53	1667.05
688.71	1732.58
688.90	1791.97
689.08	1742.82
689.27	1701.86
689.45	1710.05
689.64	1675.24
689.82	1708.01
690.01	1751.01
690.19	1718.25
690.38	1720.29
690.56	1732.58
690.75	1613.80
690.93	1693.67
691.12	1714.15
691.30	1714.15
691.49	1693.67
691.67	1699.81
691.86	1808.36
692.04	1601.51
692.23	1665.00
692.41	1736.68
692.60	1732.58
692.78	1759.21
692.97	1705.96
693.15	1654.76
693.34	1763.30
693.52	1779.68
693.71	1634.28
693.89	1703.91
694.08	1599.46
694.26	1783.78
694.44	1769.44
694.63	1724.39
694.81	1658.85
695.00	1613.80
695.18	1820.64
695.37	1865.70
695.55	1632.23
695.74	1656.81
695.92	1613.80
696.10	1759.21
696.29	1630.18
696.47	1705.96
696.66	1673.19
696.84	1673.19
697.03	1703.91
697.21	1845.22
697.40	2383.84
697.58	1775.59
697.76	1708.01
697.95	1636.33
698.13	1691.62
698.32	1681.38
698.50	1705.96
698.68	1726.44
698.87	1660.90
699.05	1736.68
699.24	1730.53
699.42	1638.38
699.61	1646.57
699.79	1732.58
699.97	1697.77
700.16	1697.77
700.34	1617.90
700.53	1722.34
700.71	1826.79
700.89	1781.73
701.08	1660.90
701.26	1710.05
701.45	2037.73
701.63	1667.05
701.81	1630.18
702.00	1755.11
702.18	1726.44
702.37	1656.81
702.55	1777.64
702.73	1613.80
702.92	1619.94
703.10	1751.01
703.28	1759.21
703.47	1607.66
703.65	1755.11
703.84	1699.81
704.02	1726.44
704.20	1748.97
704.39	1632.23
704.57	1697.77
704.75	1812.45
704.94	1789.92
705.12	1673.19
705.30	1724.39
705.49	2308.06
705.67	4190.14
705.86	9111.41
706.04	12169.03
706.22	14044.97
706.41	14765.85
706.59	13522.74
706.77	9482.10
706.96	7065.49
707.14	6408.09
707.32	5711.78
707.51	5502.89
707.69	4802.49
707.87	4138.94
708.06	3489.74
708.24	2914.26
708.42	2338.78
708.61	2203.61
708.79	1804.26
708.97	1861.60
709.16	1865.70
709.34	1791.97
709.52	1734.63
709.71	1746.92
709.89	1802.21
710.07	1697.77
710.26	1634.28
710.44	1722.34
710.62	1794.02
710.80	1724.39
710.99	1736.68
711.17	1783.78
711.35	1662.95
711.54	1724.39
711.72	1798.12
711.90	1724.39
712.09	1728.49
712.27	1701.86
712.45	1781.73
712.63	1701.86
712.82	1677.29
713.00	1705.96
713.18	1701.86
713.37	1753.06
713.55	1828.84
713.73	1710.05
713.91	1724.39
714.10	1724.39
714.28	1671.14
714.46	1724.39
714.65	1765.35
714.83	1697.77
715.01	1708.01
715.19	1716.20
715.38	1685.48
715.56	1720.29
715.74	1652.71
715.92	1570.79
716.11	1673.19
716.29	1683.43
716.47	1724.39
716.65	1738.73
716.84	1691.62
717.02	1703.91
717.20	1593.32
717.38	1683.43
717.57	1648.61
717.75	1607.66
717.93	1660.90
718.11	1757.16
718.30	1632.23
718.48	1708.01
718.66	1738.73
718.84	1740.77
719.03	1671.14
719.21	1677.29
719.39	1802.21
719.57	1718.25
719.75	1705.96
719.94	1638.38
720.12	1730.53
720.30	1699.81
720.48	1738.73
720.67	1728.49
720.85	1632.23
721.03	1697.77
721.21	1615.85
721.39	1724.39
721.58	1816.55
721.76	1683.43
721.94	1781.73
722.12	1712.10
722.30	1791.97
722.49	1652.71
722.67	1689.57
722.85	1720.29
723.03	1634.28
723.21	1646.57
723.40	1687.53
723.58	1730.53
723.76	1667.05
723.94	1738.73
724.12	1677.29
724.30	1796.07
724.49	1728.49
724.67	1660.90
724.85	1783.78
725.03	1660.90
725.21	1742.82
725.40	1732.58
725.58	1628.14
725.76	1785.83
725.94	1771.49
726.12	1683.43
726.30	1724.39
726.49	1699.81
726.67	1671.14
726.85	1753.06
727.03	1712.10
727.21	2099.17
727.39	2873.30
727.57	3770.31
727.76	4020.16
727.94	4188.10
728.12	4259.78
728.30	3682.25
728.48	2940.88
728.66	2695.13
728.84	2502.62
729.03	2238.43
729.21	2095.07
729.39	1970.15
729.57	1845.22
729.75	1804.26
729.93	1847.27
730.11	1740.77
730.30	1710.05
730.48	1726.44
730.66	1791.97
730.84	1841.12
731.02	1632.23
731.20	1636.33
731.38	1683.43
731.56	1611.75
731.74	1609.70
731.93	1708.01
732.11	1693.67
732.29	1695.72
732.47	1753.06
732.65	1728.49
732.83	1775.59
733.01	1791.97
733.19	1640.42
733.37	1691.62
733.56	1699.81
733.74	1650.66
733.92	1757.16
734.10	1687.53
734.28	1742.82
734.46	1621.99
734.64	1656.81
734.82	1648.61
735.00	1648.61
735.18	1654.76
735.36	1703.91
735.54	1755.11
735.73	1748.97
735.91	1685.48
736.09	1720.29
736.27	1685.48
736.45	1726.44
736.63	1611.75
736.81	1726.44
736.99	1695.72
737.17	1765.35
737.35	1685.48
737.53	1701.86
737.71	1603.56
737.89	1767.40
738.07	1665.00
738.25	1654.76
738.43	1638.38
738.61	1656.81
738.80	1546.22
738.98	1695.72
739.16	1652.71
739.34	1683.43
739.52	1779.68
739.70	1699.81
739.88	1681.38
740.06	1773.54
740.24	1636.33
740.42	1800.16
740.60	1638.38
740.78	1705.96
740.96	1585.13
741.14	1722.34
741.32	1755.11
741.50	1572.84
741.68	1822.69
741.86	1751.01
742.04	1658.85
742.22	1703.91
742.40	1697.77
742.58	1718.25
742.76	1667.05
742.94	1759.21
743.12	1599.46
743.30	1658.85
743.48	1681.38
743.66	1626.09
743.84	1722.34
744.02	1640.42
744.20	1695.72
744.38	1683.43
744.56	1701.86
744.74	1796.07
744.92	1687.53
745.10	1724.39
745.28	1685.48
745.46	1761.25
745.64	1742.82
745.82	1718.25
746.00	1685.48
746.18	1742.82
746.36	1714.15
746.54	1646.57
746.72	1691.62
746.90	1675.24
747.08	1763.30
747.26	1695.72
747.44	1742.82
747.62	1699.81
747.80	1681.38
747.98	1781.73
748.15	1673.19
748.33	1746.92
748.51	1681.38
748.69	1769.44
748.87	1699.81
749.05	1753.06
749.23	1726.44
749.41	1738.73
749.59	1689.57
749.77	1708.01
749.95	1673.19
750.13	1613.80
750.31	1681.38
750.49	1712.10
750.67	1794.02
750.85	1830.88
751.03	1701.86
751.20	1757.16
751.38	1691.62
751.56	1691.62
751.74	1572.84
751.92	1660.90
752.10	1689.57
752.28	1742.82
752.46	1609.70
752.64	1642.47
752.82	1632.23
753.00	1816.55
753.18	1675.24
753.35	1671.14
753.53	1576.94
753.71	1753.06
753.89	1705.96
754.07	1683.43
754.25	1695.72
754.43	1730.53
754.61	1572.84
754.79	1669.09
754.97	1689.57
755.14	1728.49
755.32	1652.71
755.50	1656.81
755.68	1748.97
755.86	1578.98
756.04	1675.24
756.22	1652.71
756.40	1763.30
756.57	1808.36
756.75	1679.33
756.93	1826.79
757.11	1787.88
757.29	1595.37
757.47	1658.85
757.65	1621.99
757.82	1572.84
758.00	1685.48
758.18	1677.29
758.36	1638.38
758.54	1757.16
758.72	1624.04
758.90	1748.97
759.07	1718.25
759.25	1669.09
759.43	1773.54
759.61	1701.86
759.79	2195.42
759.97	1708.01
760.15	1681.38
760.32	1665.00
760.50	1705.96
760.68	1783.78
760.86	1552.36
761.04	1724.39
761.22	1767.40
761.39	1691.62
761.57	1689.57
761.75	1683.43
761.93	1732.58
762.11	1658.85
762.28	1742.82
762.46	1714.15
762.64	1705.96
762.82	1685.48
763.00	1636.33
763.18	1740.77
763.35	1583.08
763.53	1648.61
763.71	1681.38
763.89	1738.73
764.07	1753.06
764.24	1689.57
764.42	1763.30
764.60	1689.57
764.78	1703.91
764.96	1794.02
765.13	1771.49
765.31	1583.08
765.49	1751.01
765.67	1667.05
765.84	1642.47
766.02	1677.29
766.20	1681.38
766.38	1734.63
766.56	1748.97
766.73	1742.82
766.91	1613.80
767.09	1708.01
767.27	1736.68
767.44	1640.42
767.62	1712.10
767.80	1716.20
767.98	1726.44
768.15	1644.52
768.33	1722.34
768.51	1755.11
768.69	1724.39
768.87	1726.44
769.04	1593.32
769.22	1806.31
769.40	1720.29
769.58	1886.18
769.75	1767.40
769.93	1742.82
770.11	1734.63
770.28	1656.81
770.46	1646.57
770.64	1705.96
770.82	1658.85
770.99	1675.24
771.17	1656.81
771.35	1689.57
771.53	1720.29
771.70	1744.87
771.88	1689.57
772.06	1724.39
772.23	1656.81
772.41	1738.73
772.59	1650.66
772.77	1740.77
772.94	1636.33
773.12	1679.33
773.30	1693.67
773.47	1720.29
773.65	1656.81
773.83	1771.49
774.01	1683.43
774.18	1550.31
774.36	1675.24
774.54	1632.23
774.71	1683.43
774.89	1648.61
775.07	1581.03
775.24	1640.42
775.42	1656.81
775.60	1744.87
775.78	1699.81
775.95	1675.24
776.13	1667.05
776.31	1560.55
776.48	1648.61
776.66	1714.15
776.84	1701.86
777.01	1671.14
777.19	1628.14
777.37	1648.61
777.54	1734.63
777.72	1794.02
777.90	1708.01
778.07	1744.87
778.25	1902.56
778.43	1771.49
778.60	1734.63
778.78	1744.87
778.96	1816.55
779.13	1615.85
779.31	1804.26
779.49	1691.62
779.66	1744.87
779.84	1716.20
780.01	1632.23
780.19	1714.15
780.37	1777.64
780.54	1746.92
780.72	1679.33
780.90	1742.82
781.07	1681.38
781.25	1669.09
781.43	1824.74
781.60	1665.00
781.78	1763.30
781.95	1753.06
782.13	1617.90
782.31	1763.30
782.48	1607.66
782.66	1599.46
782.83	1753.06
783.01	1716.20
783.19	1703.91
783.36	1611.75
783.54	1728.49
783.72	1767.40
783.89	1675.24
784.07	1705.96
784.24	1757.16
784.42	1804.26
784.60	1730.53
784.77	1740.77
784.95	1542.12
785.12	1652.71
785.30	1712.10
785.47	1613.80
785.65	1669.09
785.83	1736.68
786.00	1654.76
786.18	1708.01
786.35	1656.81
786.53	1654.76
786.71	1734.63
786.88	1740.77
787.06	1695.72
787.23	1593.32
787.41	1656.81
787.58	1656.81
787.76	1607.66
787.94	1677.29
788.11	1759.21
788.29	1656.81
788.46	1632.23
788.64	1640.42
788.81	1710.05
788.99	1667.05
789.16	1615.85
789.34	1726.44
789.52	1615.85
789.69	1628.14
789.87	1642.47
790.04	1624.04
790.22	1671.14
790.39	1789.92
790.57	1636.33
790.74	1701.86
790.92	1767.40
791.09	1607.66
791.27	1712.10
791.44	1791.97
791.62	1628.14
791.79	1785.83
791.97	1755.11
792.15	1933.28
792.32	1742.82
792.50	1765.35
792.67	1773.54
792.85	1804.26
793.02	1720.29
793.20	1691.62
793.37	1597.42
793.55	1757.16
793.72	1568.74
793.90	1779.68
794.07	1656.81
794.25	1714.15
794.42	1767.40
794.60	1708.01
794.77	1685.48
794.95	1718.25
795.12	1691.62
795.30	1701.86
795.47	1615.85
795.65	1912.80
795.82	1722.34
796.00	1710.05
796.17	1689.57
796.34	1726.44
796.52	1685.48
796.69	1818.60
796.87	1667.05
797.04	1787.88
797.22	1746.92
797.39	1665.00
797.57	1673.19
797.74	1722.34
797.92	1701.86
798.09	1753.06
798.27	1757.16
798.44	1697.77
798.62	1638.38
798.79	1779.68
798.96	1748.97
799.14	1619.94
799.31	1822.69
799.49	1699.81
799.66	1662.95
799.84	1656.81
800.01	1531.88
800.19	1720.29
800.36	1535.98
800.53	1705.96
800.71	1683.43
800.88	1759.21
801.06	1742.82
801.23	1632.23
801.41	1667.05
801.58	1687.53
801.75	1648.61
801.93	1822.69
802.10	1763.30
802.28	1740.77
802.45	1621.99
802.63	1738.73
802.80	1765.35
802.97	1693.67
803.15	1669.09
803.32	1652.71
803.50	1640.42
803.67	1648.61
803.84	1662.95
804.02	1693.67
804.19	1568.74
804.37	1529.83
804.54	1626.09
804.71	1726.44
804.89	1718.25
805.06	1687.53
805.24	1630.18
805.41	1658.85
805.58	1669.09
805.76	1771.49
805.93	1679.33
806.10	1681.38
806.28	1773.54
806.45	1699.81
806.63	1748.97
806.80	1714.15
806.97	1638.38
807.15	1705.96
807.32	1710.05
807.49	1701.86
807.67	1601.51
807.84	1746.92
808.01	1644.52
808.19	1863.65
808.36	1791.97
808.54	1662.95
808.71	1619.94
808.88	1736.68
809.06	1734.63
809.23	1791.97
809.40	1648.61
809.58	1800.16
809.75	1699.81
809.92	1593.32
810.10	1779.68
810.27	1644.52
810.44	1740.77
810.62	1765.35
810.79	1767.40
810.96	1662.95
811.14	1691.62
811.31	1675.24
811.48	1701.86
811.66	1736.68
811.83	1738.73
812.00	1757.16
812.18	1669.09
812.35	1816.55
812.52	1697.77
812.69	1656.81
812.87	1636.33
813.04	1691.62
813.21	1679.33
813.39	1617.90
813.56	1546.22
813.73	1744.87
813.91	1611.75
814.08	1691.62
814.25	1734.63
814.42	1656.81
814.60	1675.24
814.77	1744.87
814.94	1681.38
815.12	1753.06
815.29	1763.30
815.46	1693.67
815.63	1773.54
815.81	1624.04
815.98	1624.04
816.15	1601.51
816.33	1714.15
816.50	1675.24
816.67	1716.20
816.84	1658.85
817.02	1589.22
817.19	1687.53
817.36	1667.05
817.53	1769.44
817.71	1630.18
817.88	1781.73
818.05	1681.38
818.22	1714.15
818.40	1796.07
818.57	1656.81
818.74	1765.35
818.91	1701.86
819.09	1642.47
819.26	1746.92
819.43	1619.94
819.60	1617.90
819.78	1681.38
819.95	1765.35
820.12	1673.19
820.29	1751.01
820.47	1748.97
820.64	1714.15
820.81	1695.72
820.98	1640.42
821.15	1693.67
821.33	1783.78
821.50	1619.94
821.67	1746.92
821.84	1630.18
822.02	1755.11
822.19	1681.38
822.36	1673.19
822.53	1701.86
822.70	1705.96
822.88	1701.86
823.05	1759.21
823.22	1693.67
823.39	1744.87
823.56	1703.91
823.74	1783.78
823.91	1634.28
824.08	1662.95
824.25	1560.55
824.42	1794.02
824.60	1595.37
824.77	1738.73
824.94	1665.00
825.11	1736.68
825.28	1619.94
825.45	1667.05
825.63	1722.34
825.80	1757.16
825.97	1697.77
826.14	1677.29
826.31	1593.32
826.48	1705.96
826.66	1619.94
826.83	1697.77
827.00	1767.40
827.17	1656.81
827.34	1718.25
827.51	1679.33
827.69	1673.19
827.86	1603.56
828.03	1720.29
828.20	1761.25
828.37	1693.67
828.54	1665.00
828.71	1626.09
828.89	1800.16
829.06	1771.49
829.23	1730.53
829.40	1630.18
829.57	1738.73
829.74	1718.25
829.91	1677.29
830.09	1648.61
830.26	1697.77
830.43	1730.53
830.60	1699.81
830.77	1662.95
830.94	1890.28
831.11	1753.06
831.28	1705.96
831.46	1759.21
831.63	1689.57
831.80	1646.57
831.97	1687.53
832.14	1679.33
832.31	1716.20
832.48	1802.21
832.65	1757.16
832.82	1630.18
832.99	1648.61
833.17	1644.52
833.34	1832.93
833.51	1796.07
833.68	1665.00
833.85	1701.86
834.02	1632.23
834.19	1697.77
834.36	1667.05
834.53	1687.53
834.70	1787.88
834.87	1738.73
835.04	1665.00
835.22	1667.05
835.39	1740.77
835.56	1605.61
835.73	1740.77
835.90	1683.43
836.07	1613.80
836.24	1736.68
836.41	1675.24
836.58	1671.14
836.75	1783.78
836.92	1689.57
837.09	1632.23
837.26	1648.61
837.43	1761.25
837.60	1724.39
837.77	1640.42
837.94	1722.34
838.12	1691.62
838.29	1699.81
838.46	1617.90
838.63	1658.85
838.80	1787.88
838.97	1767.40
839.14	1679.33
839.31	1689.57
839.48	1748.97
839.65	1650.66
839.82	1736.68
839.99	1658.85
840.16	1650.66
840.33	1650.66
840.50	1699.81
840.67	1665.00
840.84	1611.75
841.01	1738.73
841.18	1564.65
841.35	1656.81
841.52	1730.53
841.69	1759.21
841.86	1730.53
842.03	1738.73
842.20	1744.87
842.37	1708.01
842.54	1718.25
842.71	1722.34
842.88	1617.90
843.05	1730.53
843.22	1689.57
843.39	1755.11
843.56	1685.48
843.73	1689.57
843.90	1767.40
844.07	1691.62
844.24	1652.71
844.41	1767.40
844.58	1634.28
844.75	1757.16
844.92	1785.83
845.09	1673.19
845.26	1730.53
845.43	1681.38
845.60	1652.71
845.77	1773.54
845.94	1757.16
846.10	1701.86
846.27	1619.94
846.44	1640.42
846.61	1583.08
846.78	1728.49
846.95	1789.92
847.12	1691.62
847.29	1683.43
847.46	1660.90
847.63	1746.92
847.80	1652.71
847.97	1765.35
848.14	1761.25
848.31	1728.49
848.48	1753.06
848.65	1673.19
848.82	1619.94
848.98	1789.92
849.15	1730.53
849.32	1716.20
849.49	1777.64
849.66	1679.33
849.83	1724.39
850.00	1742.82
850.17	1710.05
850.34	1701.86
850.51	1683.43
850.68	1691.62
850.85	1912.80
851.01	1705.96
851.18	1687.53
851.35	1656.81
851.52	1712.10
851.69	1746.92
851.86	1624.04
852.03	1687.53
852.20	1732.58
852.37	1751.01
852.53	1617.90
852.70	1640.42
852.87	1740.77
853.04	1812.45
853.21	1771.49
853.38	1796.07
853.55	1755.11
853.72	1748.97
853.89	1574.89
854.05	1619.94
854.22	1683.43
854.39	1665.00
854.56	1630.18
854.73	1730.53
854.90	1611.75
855.07	1675.24
855.23	1650.66
855.40	1679.33
855.57	1673.19
855.74	1601.51
855.91	1804.26
856.08	1626.09
856.25	1626.09
856.41	1626.09
856.58	1624.04
856.75	1734.63
856.92	1624.04
857.09	1779.68
857.26	1636.33
857.42	1660.90
857.59	1763.30
857.76	1728.49
857.93	1810.40
858.10	1708.01
858.27	1720.29
858.43	1710.05
858.60	1669.09
858.77	1605.61
858.94	1699.81
859.11	1736.68
859.27	1736.68
859.44	1630.18
859.61	1753.06
859.78	1658.85
859.95	1724.39
860.12	1660.90
860.28	1828.84
860.45	1863.65
860.62	1712.10
860.79	1640.42
860.95	1660.90
861.12	1634.28
861.29	1576.94
861.46	1615.85
861.63	1687.53
861.79	1662.95
861.96	1638.38
862.13	1673.19
862.30	1730.53
862.47	1667.05
862.63	1638.38
862.80	1755.11
862.97	1728.49
863.14	1726.44
863.30	1722.34
863.47	1628.14
863.64	1755.11
863.81	1695.72
863.97	1718.25
864.14	1687.53
864.31	1621.99
864.48	1755.11
864.65	1728.49
864.81	1701.86
864.98	1746.92
865.15	1744.87
865.32	1726.44
865.48	1763.30
865.65	1726.44
865.82	1669.09
865.98	1810.40
866.15	1751.01
866.32	1716.20
866.49	1681.38
866.65	1746.92
866.82	1701.86
866.99	1710.05
867.16	1658.85
867.32	1705.96
867.49	1705.96
867.66	1667.05
867.83	1691.62
867.99	1617.90
868.16	1673.19
868.33	1656.81
868.49	1730.53
868.66	1685.48
868.83	1783.78
868.99	1632.23
869.16	1683.43
869.33	1703.91
869.50	1697.77
869.66	1699.81
869.83	1646.57
870.00	1650.66
870.16	1665.00
870.33	1683.43
870.50	1787.88
870.66	1646.57
870.83	1771.49
871.00	1679.33
871.17	1730.53
871.33	1757.16
871.50	1656.81
871.67	1660.90
871.83	1628.14
872.00	1783.78
872.17	1667.05
872.33	1810.40
872.50	1791.97
872.67	1642.47
872.83	1654.76
873.00	1769.44
873.17	1621.99
873.33	1828.84
873.50	1652.71
873.67	1669.09
873.83	1697.77
874.00	1720.29
874.16	1775.59
874.33	1730.53
874.50	1697.77
874.66	1703.91
874.83	1679.33
875.00	1806.31
875.16	1710.05
875.33	1748.97
875.50	1587.18
875.66	1701.86
875.83	1730.53
875.99	1740.77
876.16	1732.58
876.33	1636.33
876.49	1789.92
876.66	1740.77
876.83	1640.42
876.99	1640.42
877.16	1714.15
877.32	1714.15
877.49	1591.27
877.66	1646.57
877.82	1734.63
877.99	1748.97
878.15	1722.34
878.32	1683.43
878.49	1746.92
878.65	1691.62
878.82	1777.64
878.98	1683.43
879.15	1884.13
879.32	1658.85
879.48	1691.62
879.65	1716.20
879.81	1626.09
879.98	1720.29
880.15	1632.23
880.31	1671.14
880.48	1640.42
880.64	1785.83
880.81	1777.64
880.97	1775.59
881.14	1820.64
881.31	1609.70
881.47	1841.12
881.64	1662.95
881.80	1609.70
881.97	1775.59
882.13	1791.97
882.30	1685.48
882.47	1689.57
882.63	1689.57
882.80	1714.15
882.96	1714.15
883.13	1822.69
883.29	1669.09
883.46	1730.53
883.62	1810.40
883.79	1658.85
883.95	1681.38
884.12	1685.48
884.29	1789.92
884.45	1740.77
884.62	1712.10
884.78	1708.01
884.95	1794.02
885.11	1714.15
885.28	1703.91
885.44	1669.09
885.61	1691.62
885.77	1798.12
885.94	1746.92
886.10	1693.67
886.27	1697.77
886.43	1800.16
886.60	1755.11
886.76	1599.46
886.93	1652.71
887.09	1693.67
887.26	1609.70
887.42	1681.38
887.59	1794.02
887.75	1853.41
887.92	1691.62
888.08	1832.93
888.25	1800.16
888.41	1695.72
888.58	1701.86
888.74	1644.52
888.91	1667.05
>>>>>End Processed Spectral Data<<<<<
