SpectraSuite Data File
++++++++++++++++++++++++++++++++++++
Date: Mon Jun 06 16:22:37 CEST 2016
User: root
Dark Spectrum Present: No
Reference Spectrum Present: No
Number of Sampled Component Spectra: 1
Spectrometers: USB4C02835
Integration Time (usec): 100000 (USB4C02835)
Spectra Averaged: 1 (USB4C02835)
Boxcar Smoothing: 0 (USB4C02835)
Correct for Electrical Dark: No (USB4C02835)
Strobe/Lamp Enabled: No (USB4C02835)
Correct for Detector Non-linearity: No (USB4C02835)
Correct for Stray Light: No (USB4C02835)
Number of Pixels in Processed Spectrum: 3648
>>>>>Begin Processed Spectral Data<<<<<
177.47	1427.43
177.69	1427.43
177.91	1427.43
178.13	1509.35
178.36	1527.78
178.58	1677.29
178.80	1728.49
179.02	1714.15
179.24	1597.42
179.46	1703.91
179.68	1732.58
179.90	1781.73
180.13	1665.00
180.35	1658.85
180.57	1673.19
180.79	1767.40
181.01	1798.12
181.23	1800.16
181.45	1677.29
181.67	1769.44
181.90	1742.82
182.12	1636.33
182.34	1662.95
182.56	1753.06
182.78	1746.92
183.00	1689.57
183.22	1738.73
183.44	1654.76
183.66	1902.56
183.89	1742.82
184.11	1802.21
184.33	1673.19
184.55	1830.88
184.77	1669.09
184.99	1656.81
185.21	1693.67
185.43	1845.22
185.65	1751.01
185.87	1757.16
186.10	1806.31
186.32	1816.55
186.54	1755.11
186.76	1728.49
186.98	1753.06
187.20	1736.68
187.42	1697.77
187.64	1613.80
187.86	1708.01
188.08	1746.92
188.30	1720.29
188.52	1808.36
188.75	1685.48
188.97	1804.26
189.19	1746.92
189.41	1738.73
189.63	1763.30
189.85	1687.53
190.07	1656.81
190.29	1665.00
190.51	1767.40
190.73	1628.14
190.95	1701.86
191.17	1687.53
191.39	1689.57
191.61	1708.01
191.84	1728.49
192.06	1718.25
192.28	1624.04
192.50	1861.60
192.72	1728.49
192.94	1665.00
193.16	1773.54
193.38	1744.87
193.60	1675.24
193.82	1619.94
194.04	1722.34
194.26	1691.62
194.48	1796.07
194.70	1656.81
194.92	1621.99
195.14	1755.11
195.36	1714.15
195.58	1736.68
195.80	1691.62
196.02	1687.53
196.24	1724.39
196.46	1710.05
196.69	1665.00
196.91	1826.79
197.13	1673.19
197.35	1667.05
197.57	1773.54
197.79	1748.97
198.01	1722.34
198.23	1837.03
198.45	1761.25
198.67	1679.33
198.89	1722.34
199.11	1728.49
199.33	1681.38
199.55	1660.90
199.77	1695.72
199.99	1724.39
200.21	1652.71
200.43	1740.77
200.65	1656.81
200.87	1634.28
201.09	1660.90
201.31	1562.60
201.53	1673.19
201.75	1734.63
201.97	1699.81
202.19	1626.09
202.41	1771.49
202.63	1814.50
202.85	1691.62
203.07	1814.50
203.29	1730.53
203.51	1611.75
203.73	1669.09
203.95	1890.28
204.17	1791.97
204.39	1751.01
204.61	1679.33
204.83	1691.62
205.05	1759.21
205.27	1730.53
205.49	1824.74
205.71	1669.09
205.93	1605.61
206.15	1722.34
206.37	1681.38
206.59	1748.97
206.81	1644.52
207.03	1689.57
207.25	1611.75
207.47	1742.82
207.69	1681.38
207.91	1828.84
208.13	1761.25
208.34	1710.05
208.56	1697.77
208.78	1751.01
209.00	1705.96
209.22	1699.81
209.44	1755.11
209.66	1753.06
209.88	1724.39
210.10	1669.09
210.32	1712.10
210.54	1783.78
210.76	1685.48
210.98	1794.02
211.20	1589.22
211.42	1744.87
211.64	1769.44
211.86	1775.59
212.08	1763.30
212.30	1791.97
212.52	1673.19
212.74	1701.86
212.96	1736.68
213.17	1730.53
213.39	1779.68
213.61	1773.54
213.83	1734.63
214.05	1677.29
214.27	1736.68
214.49	1605.61
214.71	1593.32
214.93	1810.40
215.15	1695.72
215.37	1789.92
215.59	1652.71
215.81	1724.39
216.03	1746.92
216.24	1697.77
216.46	1658.85
216.68	1677.29
216.90	1791.97
217.12	1839.08
217.34	1730.53
217.56	1720.29
217.78	1822.69
218.00	1765.35
218.22	1740.77
218.44	1716.20
218.66	1732.58
218.87	1777.64
219.09	1675.24
219.31	1677.29
219.53	1742.82
219.75	1718.25
219.97	1722.34
220.19	1757.16
220.41	1714.15
220.63	1796.07
220.85	1728.49
221.06	1701.86
221.28	1781.73
221.50	1841.12
221.72	1728.49
221.94	1771.49
222.16	1736.68
222.38	1781.73
222.60	1734.63
222.82	1648.61
223.03	1738.73
223.25	1708.01
223.47	1859.56
223.69	1820.64
223.91	1767.40
224.13	1683.43
224.35	1636.33
224.57	1736.68
224.78	1796.07
225.00	1624.04
225.22	1644.52
225.44	1728.49
225.66	1818.60
225.88	1693.67
226.10	1779.68
226.32	1634.28
226.53	1748.97
226.75	1632.23
226.97	1695.72
227.19	1673.19
227.41	1718.25
227.63	1656.81
227.85	1607.66
228.06	1751.01
228.28	1683.43
228.50	1751.01
228.72	1650.66
228.94	1689.57
229.16	1595.37
229.37	1603.56
229.59	1650.66
229.81	1775.59
230.03	1730.53
230.25	1656.81
230.47	1685.48
230.69	1617.90
230.90	1804.26
231.12	1667.05
231.34	1785.83
231.56	1736.68
231.78	1632.23
232.00	1716.20
232.21	1730.53
232.43	1714.15
232.65	1599.46
232.87	1740.77
233.09	1685.48
233.30	1679.33
233.52	1773.54
233.74	1681.38
233.96	1822.69
234.18	1701.86
234.40	1767.40
234.61	1824.74
234.83	1689.57
235.05	1585.13
235.27	1886.18
235.49	1775.59
235.70	1675.24
235.92	1779.68
236.14	1755.11
236.36	1843.17
236.58	1705.96
236.79	1736.68
237.01	1660.90
237.23	1673.19
237.45	1867.75
237.67	1640.42
237.88	1716.20
238.10	1812.45
238.32	1638.38
238.54	1716.20
238.76	1656.81
238.97	1732.58
239.19	1671.14
239.41	1787.88
239.63	1757.16
239.85	1687.53
240.06	1695.72
240.28	1628.14
240.50	1734.63
240.72	1697.77
240.93	1681.38
241.15	1783.78
241.37	1708.01
241.59	1820.64
241.81	1693.67
242.02	1687.53
242.24	1761.25
242.46	1781.73
242.68	1595.37
242.89	1681.38
243.11	1755.11
243.33	1699.81
243.55	1693.67
243.76	1755.11
243.98	1675.24
244.20	1738.73
244.42	1740.77
244.64	1746.92
244.85	1730.53
245.07	1548.26
245.29	1716.20
245.51	1705.96
245.72	1726.44
245.94	1791.97
246.16	1689.57
246.38	1796.07
246.59	1689.57
246.81	1705.96
247.03	1695.72
247.24	1683.43
247.46	1677.29
247.68	1828.84
247.90	1697.77
248.11	1703.91
248.33	1734.63
248.55	1748.97
248.77	1755.11
248.98	1722.34
249.20	1789.92
249.42	1738.73
249.64	1783.78
249.85	1644.52
250.07	1687.53
250.29	1720.29
250.50	1742.82
250.72	1601.51
250.94	1722.34
251.16	1798.12
251.37	1746.92
251.59	1685.48
251.81	1765.35
252.02	1888.23
252.24	1615.85
252.46	1775.59
252.68	1632.23
252.89	1712.10
253.11	1607.66
253.33	1828.84
253.54	1712.10
253.76	1603.56
253.98	1751.01
254.20	1742.82
254.41	1669.09
254.63	1718.25
254.85	1681.38
255.06	1695.72
255.28	1755.11
255.50	1673.19
255.71	1642.47
255.93	1636.33
256.15	1703.91
256.36	1710.05
256.58	1605.61
256.80	1679.33
257.02	1710.05
257.23	1654.76
257.45	1642.47
257.67	1728.49
257.88	1652.71
258.10	1755.11
258.32	1734.63
258.53	1710.05
258.75	1816.55
258.97	1634.28
259.18	1751.01
259.40	1712.10
259.62	1839.08
259.83	1767.40
260.05	1753.06
260.27	1986.53
260.48	1718.25
260.70	1710.05
260.92	1640.42
261.13	1730.53
261.35	1726.44
261.57	1753.06
261.78	1568.74
262.00	1687.53
262.22	1712.10
262.43	1724.39
262.65	1675.24
262.86	1634.28
263.08	1861.60
263.30	1703.91
263.51	1560.55
263.73	1714.15
263.95	1736.68
264.16	1705.96
264.38	1720.29
264.60	1724.39
264.81	1712.10
265.03	1824.74
265.25	1755.11
265.46	1689.57
265.68	1757.16
265.89	1761.25
266.11	1722.34
266.33	1781.73
266.54	1796.07
266.76	1742.82
266.98	1755.11
267.19	1826.79
267.41	1826.79
267.62	1748.97
267.84	1640.42
268.06	1804.26
268.27	1726.44
268.49	1779.68
268.70	1736.68
268.92	1738.73
269.14	1687.53
269.35	1640.42
269.57	1724.39
269.79	1689.57
270.00	1630.18
270.22	1847.27
270.43	1687.53
270.65	1611.75
270.87	1742.82
271.08	1769.44
271.30	1773.54
271.51	1734.63
271.73	1789.92
271.95	1783.78
272.16	1619.94
272.38	1705.96
272.59	1730.53
272.81	1738.73
273.02	1751.01
273.24	1730.53
273.46	1751.01
273.67	1705.96
273.89	1624.04
274.10	1693.67
274.32	1744.87
274.54	1656.81
274.75	1648.61
274.97	1744.87
275.18	1830.88
275.40	1773.54
275.61	1804.26
275.83	1695.72
276.05	1691.62
276.26	1656.81
276.48	1662.95
276.69	1705.96
276.91	1669.09
277.12	1759.21
277.34	1828.84
277.55	1794.02
277.77	1738.73
277.99	1746.92
278.20	1656.81
278.42	1669.09
278.63	1640.42
278.85	1652.71
279.06	1624.04
279.28	1751.01
279.49	1789.92
279.71	1796.07
279.93	1681.38
280.14	1689.57
280.36	1697.77
280.57	1714.15
280.79	1796.07
281.00	1603.56
281.22	1617.90
281.43	1828.84
281.65	1529.83
281.86	1726.44
282.08	1783.78
282.29	1804.26
282.51	1650.66
282.73	1746.92
282.94	1669.09
283.16	1718.25
283.37	1816.55
283.59	1689.57
283.80	1787.88
284.02	1753.06
284.23	1789.92
284.45	1673.19
284.66	1691.62
284.88	1632.23
285.09	1789.92
285.31	1800.16
285.52	1710.05
285.74	1667.05
285.95	1730.53
286.17	1697.77
286.38	1783.78
286.60	1613.80
286.81	1744.87
287.03	1673.19
287.24	1730.53
287.46	1787.88
287.67	1693.67
287.89	1845.22
288.10	1705.96
288.32	1775.59
288.53	1740.77
288.75	1724.39
288.96	1703.91
289.18	1673.19
289.39	1671.14
289.61	1757.16
289.82	1798.12
290.04	1828.84
290.25	1730.53
290.47	1748.97
290.68	1681.38
290.90	1869.80
291.11	1679.33
291.33	1804.26
291.54	1677.29
291.76	1613.80
291.97	1712.10
292.18	1757.16
292.40	1697.77
292.61	1679.33
292.83	1796.07
293.04	1726.44
293.26	1720.29
293.47	1654.76
293.69	1742.82
293.90	1763.30
294.12	1703.91
294.33	1796.07
294.55	1744.87
294.76	1699.81
294.97	1746.92
295.19	1847.27
295.40	1757.16
295.62	1761.25
295.83	1724.39
296.05	1697.77
296.26	1773.54
296.48	1742.82
296.69	1730.53
296.90	1660.90
297.12	1740.77
297.33	1779.68
297.55	1728.49
297.76	1677.29
297.98	1726.44
298.19	1738.73
298.41	1634.28
298.62	1744.87
298.83	1779.68
299.05	1697.77
299.26	1621.99
299.48	1630.18
299.69	1751.01
299.90	1685.48
300.12	1681.38
300.33	1742.82
300.55	1701.86
300.76	1730.53
300.98	1681.38
301.19	1791.97
301.40	1652.71
301.62	1705.96
301.83	1671.14
302.05	1771.49
302.26	1765.35
302.47	1683.43
302.69	1648.61
302.90	1787.88
303.12	1697.77
303.33	1695.72
303.54	1755.11
303.76	1660.90
303.97	1742.82
304.19	1785.83
304.40	1613.80
304.61	1708.01
304.83	1804.26
305.04	1771.49
305.26	1746.92
305.47	1630.18
305.68	1755.11
305.90	1683.43
306.11	1712.10
306.33	1736.68
306.54	1763.30
306.75	1718.25
306.97	1638.38
307.18	1667.05
307.39	1638.38
307.61	1810.40
307.82	1710.05
308.04	1751.01
308.25	1640.42
308.46	1673.19
308.68	1718.25
308.89	1779.68
309.10	1720.29
309.32	1724.39
309.53	1734.63
309.74	1804.26
309.96	1712.10
310.17	1755.11
310.39	1744.87
310.60	1769.44
310.81	1763.30
311.03	1621.99
311.24	1794.02
311.45	1740.77
311.67	1824.74
311.88	1732.58
312.09	1728.49
312.31	1712.10
312.52	1705.96
312.73	1697.77
312.95	1673.19
313.16	1611.75
313.37	1787.88
313.59	1720.29
313.80	1710.05
314.01	1810.40
314.23	1669.09
314.44	1748.97
314.65	1599.46
314.87	1667.05
315.08	1726.44
315.29	1781.73
315.51	1759.21
315.72	1624.04
315.93	1773.54
316.15	1746.92
316.36	1685.48
316.57	1734.63
316.79	1683.43
317.00	1652.71
317.21	1806.31
317.43	1699.81
317.64	1720.29
317.85	1705.96
318.07	1652.71
318.28	1763.30
318.49	1847.27
318.70	1898.47
318.92	1914.85
319.13	1812.45
319.34	1834.98
319.56	1779.68
319.77	1800.16
319.98	1787.88
320.20	1763.30
320.41	1751.01
320.62	1712.10
320.83	1714.15
321.05	1863.65
321.26	1744.87
321.47	1654.76
321.69	1798.12
321.90	1617.90
322.11	1732.58
322.32	1724.39
322.54	1826.79
322.75	1697.77
322.96	1871.84
323.18	1667.05
323.39	1677.29
323.60	1730.53
323.81	1808.36
324.03	1632.23
324.24	1691.62
324.45	1687.53
324.66	1716.20
324.88	1769.44
325.09	1904.61
325.30	1732.58
325.52	1804.26
325.73	1765.35
325.94	1660.90
326.15	1578.98
326.37	1722.34
326.58	1802.21
326.79	1849.32
327.00	1716.20
327.22	1812.45
327.43	1708.01
327.64	1673.19
327.85	1712.10
328.07	1689.57
328.28	1861.60
328.49	1642.47
328.70	1658.85
328.92	1673.19
329.13	1738.73
329.34	1775.59
329.55	1880.04
329.76	1751.01
329.98	1728.49
330.19	1777.64
330.40	1742.82
330.61	1626.09
330.83	1767.40
331.04	1640.42
331.25	1736.68
331.46	1675.24
331.68	1660.90
331.89	1738.73
332.10	1626.09
332.31	1665.00
332.52	1722.34
332.74	1839.08
332.95	1656.81
333.16	1656.81
333.37	1724.39
333.58	1687.53
333.80	1632.23
334.01	1607.66
334.22	1734.63
334.43	1755.11
334.64	1685.48
334.86	1644.52
335.07	1701.86
335.28	1816.55
335.49	1722.34
335.70	1746.92
335.92	1726.44
336.13	1773.54
336.34	1748.97
336.55	1730.53
336.76	1683.43
336.98	1583.08
337.19	1734.63
337.40	1796.07
337.61	1781.73
337.82	1755.11
338.04	1798.12
338.25	1603.56
338.46	1775.59
338.67	1648.61
338.88	1691.62
339.09	1685.48
339.31	1675.24
339.52	1705.96
339.73	1609.70
339.94	1697.77
340.15	1730.53
340.36	1632.23
340.58	1705.96
340.79	1624.04
341.00	1804.26
341.21	1632.23
341.42	1808.36
341.63	1708.01
341.85	1714.15
342.06	1687.53
342.27	1667.05
342.48	1789.92
342.69	1693.67
342.90	1736.68
343.12	1798.12
343.33	1738.73
343.54	1738.73
343.75	1763.30
343.96	1761.25
344.17	1732.58
344.38	1687.53
344.60	1636.33
344.81	1607.66
345.02	1665.00
345.23	1734.63
345.44	1808.36
345.65	1757.16
345.86	1689.57
346.07	1726.44
346.29	1658.85
346.50	1816.55
346.71	1701.86
346.92	1761.25
347.13	1820.64
347.34	1677.29
347.55	1681.38
347.76	1753.06
347.98	1585.13
348.19	1642.47
348.40	1771.49
348.61	1716.20
348.82	1812.45
349.03	1773.54
349.24	1767.40
349.45	1714.15
349.66	1574.89
349.88	1751.01
350.09	1691.62
350.30	1748.97
350.51	1843.17
350.72	1701.86
350.93	1746.92
351.14	1738.73
351.35	1769.44
351.56	1669.09
351.77	1757.16
351.99	1701.86
352.20	1751.01
352.41	1802.21
352.62	1578.98
352.83	1654.76
353.04	1722.34
353.25	1767.40
353.46	1822.69
353.67	1783.78
353.88	1562.60
354.09	1675.24
354.30	1718.25
354.52	1699.81
354.73	1720.29
354.94	1738.73
355.15	1681.38
355.36	1804.26
355.57	1718.25
355.78	1748.97
355.99	1646.57
356.20	1673.19
356.41	1787.88
356.62	1716.20
356.83	1724.39
357.04	1806.31
357.25	1583.08
357.46	1705.96
357.68	1619.94
357.89	1718.25
358.10	1820.64
358.31	1759.21
358.52	1675.24
358.73	1673.19
358.94	1701.86
359.15	1675.24
359.36	1783.78
359.57	1662.95
359.78	1746.92
359.99	1738.73
360.20	1630.18
360.41	1638.38
360.62	1751.01
360.83	1691.62
361.04	1730.53
361.25	1775.59
361.46	1718.25
361.67	1714.15
361.88	1757.16
362.09	1705.96
362.30	1773.54
362.51	1718.25
362.72	1730.53
362.93	1722.34
363.14	1716.20
363.35	1703.91
363.56	1648.61
363.78	1740.77
363.99	1730.53
364.20	1728.49
364.41	1730.53
364.62	1820.64
364.83	1748.97
365.04	1730.53
365.25	1718.25
365.46	1685.48
365.67	1673.19
365.88	1691.62
366.09	1681.38
366.30	1705.96
366.51	1751.01
366.72	1611.75
366.93	1658.85
367.14	1679.33
367.35	1816.55
367.56	1662.95
367.77	1834.98
367.98	1693.67
368.18	1763.30
368.39	1763.30
368.60	1658.85
368.81	1744.87
369.02	1722.34
369.23	1728.49
369.44	1648.61
369.65	1685.48
369.86	1701.86
370.07	1759.21
370.28	1677.29
370.49	1722.34
370.70	1787.88
370.91	1617.90
371.12	1587.18
371.33	1787.88
371.54	1652.71
371.75	1824.74
371.96	1560.55
372.17	1716.20
372.38	1697.77
372.59	1830.88
372.80	1685.48
373.01	1718.25
373.22	1751.01
373.43	1761.25
373.64	1683.43
373.85	1816.55
374.06	1843.17
374.26	1751.01
374.47	1763.30
374.68	1800.16
374.89	1695.72
375.10	1806.31
375.31	1804.26
375.52	1640.42
375.73	1796.07
375.94	1611.75
376.15	1779.68
376.36	1673.19
376.57	1687.53
376.78	1689.57
376.99	1808.36
377.20	1755.11
377.40	1720.29
377.61	1894.37
377.82	1742.82
378.03	1728.49
378.24	1714.15
378.45	1687.53
378.66	1748.97
378.87	1611.75
379.08	1564.65
379.29	1701.86
379.50	1843.17
379.71	1667.05
379.91	1734.63
380.12	1695.72
380.33	1667.05
380.54	1798.12
380.75	1714.15
380.96	1779.68
381.17	1740.77
381.38	1742.82
381.59	1736.68
381.80	1834.98
382.00	1826.79
382.21	1761.25
382.42	1894.37
382.63	1875.94
382.84	1789.92
383.05	1773.54
383.26	1759.21
383.47	1716.20
383.68	1755.11
383.88	1767.40
384.09	1675.24
384.30	1863.65
384.51	1718.25
384.72	1636.33
384.93	1710.05
385.14	1751.01
385.35	1765.35
385.55	1648.61
385.76	1794.02
385.97	1687.53
386.18	1705.96
386.39	1665.00
386.60	1718.25
386.81	1630.18
387.02	1683.43
387.22	1697.77
387.43	1845.22
387.64	1791.97
387.85	1877.99
388.06	2189.28
388.27	4249.54
388.48	6647.71
388.68	8195.97
388.89	9492.34
389.10	9633.64
389.31	8482.69
389.52	7466.89
389.73	6649.75
389.93	6154.15
390.14	5930.92
390.35	5023.67
390.56	4509.63
390.77	3641.29
390.98	3008.47
391.18	2463.71
391.39	2140.13
391.60	1959.91
391.81	1837.03
392.02	1746.92
392.23	1908.71
392.43	1810.40
392.64	1851.36
392.85	1746.92
393.06	1787.88
393.27	1720.29
393.47	1726.44
393.68	1785.83
393.89	1726.44
394.10	1779.68
394.31	1636.33
394.52	1654.76
394.72	1710.05
394.93	1816.55
395.14	1726.44
395.35	1779.68
395.56	1683.43
395.76	1708.01
395.97	1783.78
396.18	1890.28
396.39	1900.52
396.60	1986.53
396.80	1880.04
397.01	1843.17
397.22	1877.99
397.43	1832.93
397.64	1779.68
397.84	1837.03
398.05	1953.76
398.26	1781.73
398.47	1759.21
398.67	1736.68
398.88	1753.06
399.09	1763.30
399.30	1714.15
399.51	1796.07
399.71	1699.81
399.92	1669.09
400.13	1718.25
400.34	1640.42
400.54	1701.86
400.75	1798.12
400.96	1699.81
401.17	1806.31
401.37	1740.77
401.58	1794.02
401.79	1726.44
402.00	1816.55
402.21	2125.79
402.41	1959.91
402.62	1988.58
402.83	2041.82
403.04	1908.71
403.24	2101.22
403.45	1939.43
403.66	1873.89
403.87	1929.19
404.07	1906.66
404.28	1855.46
404.49	1959.91
404.70	1849.32
404.90	1724.39
405.11	1796.07
405.32	1794.02
405.52	1656.81
405.73	1691.62
405.94	1665.00
406.15	1705.96
406.35	1728.49
406.56	1693.67
406.77	1712.10
406.98	1740.77
407.18	1685.48
407.39	1740.77
407.60	1697.77
407.80	1783.78
408.01	1628.14
408.22	1732.58
408.43	1734.63
408.63	1726.44
408.84	1693.67
409.05	1794.02
409.25	1574.89
409.46	1740.77
409.67	1734.63
409.88	1701.86
410.08	1724.39
410.29	1734.63
410.50	1710.05
410.70	1740.77
410.91	1646.57
411.12	1710.05
411.32	1710.05
411.53	1703.91
411.74	1763.30
411.95	1812.45
412.15	1822.69
412.36	1773.54
412.57	1751.01
412.77	1753.06
412.98	1742.82
413.19	1816.55
413.39	1761.25
413.60	1771.49
413.81	1726.44
414.01	1621.99
414.22	1765.35
414.43	1787.88
414.63	1699.81
414.84	1796.07
415.05	1789.92
415.25	1548.26
415.46	1748.97
415.67	1714.15
415.87	1771.49
416.08	1667.05
416.29	1695.72
416.49	1689.57
416.70	1687.53
416.91	1679.33
417.11	1773.54
417.32	1765.35
417.53	1771.49
417.73	1693.67
417.94	1751.01
418.15	1714.15
418.35	1667.05
418.56	1726.44
418.77	1861.60
418.97	1626.09
419.18	1619.94
419.38	1548.26
419.59	1691.62
419.80	1845.22
420.00	1675.24
420.21	1753.06
420.42	1746.92
420.62	1697.77
420.83	1687.53
421.04	1730.53
421.24	1685.48
421.45	1814.50
421.65	1732.58
421.86	1775.59
422.07	1726.44
422.27	1849.32
422.48	1767.40
422.69	1705.96
422.89	1720.29
423.10	1697.77
423.30	1611.75
423.51	1710.05
423.72	1712.10
423.92	1779.68
424.13	1646.57
424.33	1742.82
424.54	1798.12
424.75	1746.92
424.95	1751.01
425.16	1648.61
425.36	1742.82
425.57	1730.53
425.78	1828.84
425.98	1746.92
426.19	1648.61
426.39	1705.96
426.60	1736.68
426.81	1789.92
427.01	1705.96
427.22	1626.09
427.42	1607.66
427.63	1726.44
427.83	1724.39
428.04	1767.40
428.25	1695.72
428.45	1808.36
428.66	1845.22
428.86	1712.10
429.07	1687.53
429.28	1689.57
429.48	1732.58
429.69	1662.95
429.89	1800.16
430.10	1691.62
430.30	1810.40
430.51	1779.68
430.71	1708.01
430.92	1759.21
431.13	1710.05
431.33	1728.49
431.54	1667.05
431.74	1861.60
431.95	1853.41
432.15	1632.23
432.36	1785.83
432.56	1761.25
432.77	1882.08
432.98	1783.78
433.18	1816.55
433.39	1771.49
433.59	1677.29
433.80	1824.74
434.00	1847.27
434.21	1685.48
434.41	1654.76
434.62	1816.55
434.82	1626.09
435.03	1652.71
435.23	1781.73
435.44	1708.01
435.64	1677.29
435.85	1691.62
436.06	1791.97
436.26	1753.06
436.47	1736.68
436.67	1660.90
436.88	1777.64
437.08	1726.44
437.29	1863.65
437.49	1779.68
437.70	1767.40
437.90	1724.39
438.11	1873.89
438.31	1830.88
438.52	1923.04
438.72	1853.41
438.93	1841.12
439.13	1789.92
439.34	1808.36
439.54	1687.53
439.75	1779.68
439.95	1820.64
440.16	1767.40
440.36	1759.21
440.57	1757.16
440.77	1751.01
440.98	1677.29
441.18	1800.16
441.39	1689.57
441.59	1683.43
441.80	1861.60
442.00	1798.12
442.21	1767.40
442.41	1648.61
442.62	1695.72
442.82	1695.72
443.02	1685.48
443.23	1662.95
443.43	1689.57
443.64	1880.04
443.84	1714.15
444.05	1857.51
444.25	1744.87
444.46	1685.48
444.66	1726.44
444.87	1806.31
445.07	1642.47
445.28	1726.44
445.48	1839.08
445.69	1806.31
445.89	1837.03
446.09	1826.79
446.30	1961.95
446.50	2684.89
446.71	3733.45
446.91	4255.68
447.12	4818.87
447.32	4978.61
447.53	4282.30
447.73	3913.67
447.93	3485.64
448.14	3284.94
448.34	3125.20
448.55	2891.73
448.75	2811.86
448.96	2676.70
449.16	2482.14
449.36	2308.06
449.57	2009.06
449.77	1859.56
449.98	1847.27
450.18	1949.67
450.39	1865.70
450.59	1800.16
450.79	1736.68
451.00	1710.05
451.20	1837.03
451.41	1789.92
451.61	1783.78
451.81	1751.01
452.02	1693.67
452.22	1742.82
452.43	1722.34
452.63	1757.16
452.84	1755.11
453.04	1738.73
453.24	1720.29
453.45	1722.34
453.65	1751.01
453.86	1804.26
454.06	1824.74
454.26	1765.35
454.47	1693.67
454.67	1802.21
454.87	1791.97
455.08	1736.68
455.28	1865.70
455.49	1724.39
455.69	1687.53
455.89	1830.88
456.10	1802.21
456.30	1710.05
456.51	1708.01
456.71	1722.34
456.91	1744.87
457.12	1746.92
457.32	1773.54
457.52	1710.05
457.73	1789.92
457.93	1744.87
458.14	1812.45
458.34	1578.98
458.54	1712.10
458.75	1689.57
458.95	1816.55
459.15	1767.40
459.36	1798.12
459.56	1757.16
459.76	1841.12
459.97	1787.88
460.17	1783.78
460.37	1837.03
460.58	1675.24
460.78	1763.30
460.99	1644.52
461.19	1734.63
461.39	1748.97
461.60	1724.39
461.80	1693.67
462.00	1658.85
462.21	1673.19
462.41	1730.53
462.61	1652.71
462.82	1615.85
463.02	1800.16
463.22	1710.05
463.43	1806.31
463.63	1726.44
463.83	1730.53
464.04	1800.16
464.24	1728.49
464.44	1662.95
464.64	1775.59
464.85	1853.41
465.05	1806.31
465.25	1738.73
465.46	1693.67
465.66	1732.58
465.86	1705.96
466.07	1683.43
466.27	1720.29
466.47	1658.85
466.68	1691.62
466.88	1845.22
467.08	1718.25
467.29	1810.40
467.49	1763.30
467.69	1787.88
467.89	1748.97
468.10	1724.39
468.30	1720.29
468.50	1818.60
468.71	1746.92
468.91	1714.15
469.11	1886.18
469.31	1695.72
469.52	1716.20
469.72	1832.93
469.92	1832.93
470.13	1685.48
470.33	1703.91
470.53	1886.18
470.73	2002.91
470.94	2297.82
471.14	2402.27
471.34	2547.67
471.54	2400.22
471.75	2254.81
471.95	2207.71
472.15	2084.83
472.36	2129.89
472.56	2035.68
472.76	2058.21
472.96	2074.59
473.17	2002.91
473.37	1904.61
473.57	1851.36
473.77	1877.99
473.98	1781.73
474.18	1740.77
474.38	1857.51
474.58	1632.23
474.79	1695.72
474.99	1765.35
475.19	1804.26
475.39	1642.47
475.60	1705.96
475.80	1798.12
476.00	1744.87
476.20	1775.59
476.41	1671.14
476.61	1837.03
476.81	1812.45
477.01	1722.34
477.21	1855.46
477.42	1890.28
477.62	1660.90
477.82	1755.11
478.02	1703.91
478.23	1777.64
478.43	1738.73
478.63	1744.87
478.83	1722.34
479.03	1705.96
479.24	1824.74
479.44	1828.84
479.64	1685.48
479.84	1587.18
480.04	1732.58
480.25	1771.49
480.45	1617.90
480.65	1695.72
480.85	1816.55
481.06	1673.19
481.26	1728.49
481.46	1755.11
481.66	1669.09
481.86	1695.72
482.06	1818.60
482.27	1705.96
482.47	1681.38
482.67	1703.91
482.87	1701.86
483.07	1820.64
483.28	1665.00
483.48	1683.43
483.68	1671.14
483.88	1693.67
484.08	1632.23
484.29	1705.96
484.49	1703.91
484.69	1636.33
484.89	1849.32
485.09	1705.96
485.29	1740.77
485.50	1746.92
485.70	1597.42
485.90	1806.31
486.10	1834.98
486.30	1791.97
486.50	1800.16
486.71	1730.53
486.91	1771.49
487.11	1761.25
487.31	1603.56
487.51	1746.92
487.71	1681.38
487.91	1593.32
488.12	1669.09
488.32	1636.33
488.52	1689.57
488.72	1679.33
488.92	1693.67
489.12	1763.30
489.32	1746.92
489.53	1753.06
489.73	1595.37
489.93	1779.68
490.13	1730.53
490.33	1736.68
490.53	1716.20
490.73	1787.88
490.94	1679.33
491.14	1724.39
491.34	1820.64
491.54	2109.41
491.74	2631.64
491.94	2953.17
492.14	2975.70
492.34	3012.56
492.54	2639.83
492.75	2549.72
492.95	2392.03
493.15	2248.67
493.35	2295.77
493.55	2248.67
493.75	2107.36
493.95	2129.89
494.15	2099.17
494.35	1925.09
494.56	1882.08
494.76	1802.21
494.96	1806.31
495.16	1845.22
495.36	1777.64
495.56	1746.92
495.76	1703.91
495.96	1773.54
496.16	1736.68
496.36	1859.56
496.56	1789.92
496.77	1722.34
496.97	1697.77
497.17	1841.12
497.37	1636.33
497.57	1794.02
497.77	1724.39
497.97	1720.29
498.17	1748.97
498.37	1677.29
498.57	1746.92
498.77	1705.96
498.97	1763.30
499.17	1947.62
499.38	1742.82
499.58	1738.73
499.78	1787.88
499.98	1824.74
500.18	1673.19
500.38	1732.58
500.58	1951.71
500.78	2631.64
500.98	4605.88
501.18	5777.32
501.38	6823.83
501.58	7135.12
501.78	6512.54
501.98	5478.32
502.18	4978.61
502.38	4335.55
502.58	4108.23
502.78	3788.74
502.98	3663.82
503.18	3540.94
503.38	3141.58
503.59	2826.20
503.79	2588.63
503.99	2521.05
504.19	2275.29
504.39	2158.56
504.59	2168.80
504.79	2138.08
504.99	2127.84
505.19	1931.23
505.39	1834.98
505.59	1943.52
505.79	1871.84
505.99	1892.32
506.19	1798.12
506.39	1873.89
506.59	1693.67
506.79	1740.77
506.99	1845.22
507.19	1837.03
507.39	1798.12
507.59	1708.01
507.79	1683.43
507.99	1648.61
508.19	1691.62
508.39	1765.35
508.59	1822.69
508.79	1880.04
508.99	1859.56
509.19	1757.16
509.39	1763.30
509.59	1742.82
509.79	1755.11
509.99	1765.35
510.19	1826.79
510.39	1877.99
510.59	1738.73
510.79	1699.81
510.99	1716.20
511.19	1789.92
511.39	1818.60
511.59	1755.11
511.79	1824.74
511.99	1796.07
512.19	1814.50
512.38	1779.68
512.58	1708.01
512.78	1806.31
512.98	1775.59
513.18	1763.30
513.38	1667.05
513.58	1826.79
513.78	1730.53
513.98	1673.19
514.18	1769.44
514.38	1697.77
514.58	1767.40
514.78	1681.38
514.98	1701.86
515.18	1728.49
515.38	1708.01
515.58	1849.32
515.78	1771.49
515.98	1779.68
516.18	1791.97
516.38	1763.30
516.57	1777.64
516.77	1736.68
516.97	1724.39
517.17	1783.78
517.37	1660.90
517.57	1798.12
517.77	1775.59
517.97	1718.25
518.17	1845.22
518.37	1697.77
518.57	1726.44
518.77	1740.77
518.97	1720.29
519.16	1841.12
519.36	1775.59
519.56	1734.63
519.76	1742.82
519.96	1722.34
520.16	1871.84
520.36	1644.52
520.56	1853.41
520.76	1669.09
520.96	1738.73
521.16	1720.29
521.35	1847.27
521.55	1826.79
521.75	1779.68
521.95	1761.25
522.15	1744.87
522.35	1689.57
522.55	1679.33
522.75	1855.46
522.95	1755.11
523.14	1701.86
523.34	1744.87
523.54	1699.81
523.74	1796.07
523.94	1740.77
524.14	1712.10
524.34	1767.40
524.54	1804.26
524.73	1738.73
524.93	1697.77
525.13	1746.92
525.33	1746.92
525.53	1845.22
525.73	1794.02
525.93	1787.88
526.13	1718.25
526.32	1775.59
526.52	1712.10
526.72	1789.92
526.92	1667.05
527.12	1761.25
527.32	1665.00
527.52	1753.06
527.71	1804.26
527.91	1755.11
528.11	1697.77
528.31	1824.74
528.51	1595.37
528.71	1771.49
528.90	1781.73
529.10	1822.69
529.30	1814.50
529.50	1611.75
529.70	1697.77
529.90	1804.26
530.09	1738.73
530.29	1675.24
530.49	1671.14
530.69	1927.14
530.89	1722.34
531.09	1806.31
531.28	1761.25
531.48	1804.26
531.68	1724.39
531.88	1773.54
532.08	1773.54
532.28	1673.19
532.47	1839.08
532.67	1787.88
532.87	1806.31
533.07	1746.92
533.27	1757.16
533.46	1734.63
533.66	1738.73
533.86	1734.63
534.06	1677.29
534.26	1751.01
534.45	1798.12
534.65	1853.41
534.85	1722.34
535.05	1705.96
535.25	1716.20
535.44	1667.05
535.64	1816.55
535.84	1759.21
536.04	1759.21
536.24	1771.49
536.43	1738.73
536.63	1763.30
536.83	1730.53
537.03	1794.02
537.22	1708.01
537.42	1640.42
537.62	1783.78
537.82	1712.10
538.02	1802.21
538.21	1816.55
538.41	1873.89
538.61	1755.11
538.81	1746.92
539.00	1767.40
539.20	1683.43
539.40	1810.40
539.60	1734.63
539.79	1804.26
539.99	1753.06
540.19	1728.49
540.39	1726.44
540.58	1765.35
540.78	1767.40
540.98	1693.67
541.18	1841.12
541.37	1740.77
541.57	1718.25
541.77	1675.24
541.97	1716.20
542.16	1660.90
542.36	1701.86
542.56	1767.40
542.76	1841.12
542.95	1812.45
543.15	1806.31
543.35	1798.12
543.54	1642.47
543.74	1718.25
543.94	1812.45
544.14	1685.48
544.33	1738.73
544.53	1726.44
544.73	1775.59
544.93	1806.31
545.12	1714.15
545.32	1726.44
545.52	1767.40
545.71	1660.90
545.91	1781.73
546.11	1675.24
546.30	1675.24
546.50	1734.63
546.70	1757.16
546.90	1851.36
547.09	1652.71
547.29	1652.71
547.49	1789.92
547.68	1902.56
547.88	1701.86
548.08	1818.60
548.27	2185.18
548.47	1728.49
548.67	1744.87
548.87	1730.53
549.06	1724.39
549.26	1763.30
549.46	1767.40
549.65	1800.16
549.85	1777.64
550.05	1789.92
550.24	1656.81
550.44	1767.40
550.64	1830.88
550.83	1767.40
551.03	1808.36
551.23	1761.25
551.42	1708.01
551.62	1658.85
551.82	1660.90
552.01	1755.11
552.21	1800.16
552.41	1714.15
552.60	1771.49
552.80	1736.68
553.00	1722.34
553.19	1775.59
553.39	1820.64
553.59	1675.24
553.78	1775.59
553.98	1755.11
554.17	1724.39
554.37	1769.44
554.57	1732.58
554.76	1757.16
554.96	1669.09
555.16	1689.57
555.35	1804.26
555.55	1744.87
555.75	1798.12
555.94	1841.12
556.14	1689.57
556.33	1783.78
556.53	1841.12
556.73	1685.48
556.92	1834.98
557.12	1834.98
557.32	1849.32
557.51	1832.93
557.71	1759.21
557.90	1853.41
558.10	1867.75
558.30	1736.68
558.49	1687.53
558.69	1802.21
558.88	1738.73
559.08	1718.25
559.28	1744.87
559.47	1767.40
559.67	1708.01
559.86	1849.32
560.06	1716.20
560.26	1710.05
560.45	1783.78
560.65	1656.81
560.84	1834.98
561.04	1646.57
561.24	1775.59
561.43	1718.25
561.63	1804.26
561.82	1728.49
562.02	1746.92
562.22	1738.73
562.41	1703.91
562.61	1693.67
562.80	1675.24
563.00	1888.23
563.19	1787.88
563.39	1718.25
563.59	1851.36
563.78	1726.44
563.98	1568.74
564.17	1703.91
564.37	1665.00
564.56	1794.02
564.76	1701.86
564.96	1806.31
565.15	1771.49
565.35	1847.27
565.54	1730.53
565.74	1736.68
565.93	1712.10
566.13	1660.90
566.32	1773.54
566.52	1789.92
566.71	1746.92
566.91	1845.22
567.11	1779.68
567.30	1691.62
567.50	1832.93
567.69	1794.02
567.89	1767.40
568.08	1691.62
568.28	1769.44
568.47	1724.39
568.67	1763.30
568.86	1658.85
569.06	1789.92
569.25	1755.11
569.45	1654.76
569.64	1732.58
569.84	1720.29
570.04	1785.83
570.23	1738.73
570.43	1730.53
570.62	1800.16
570.82	1810.40
571.01	1716.20
571.21	1710.05
571.40	1728.49
571.60	1832.93
571.79	1787.88
571.99	1791.97
572.18	1705.96
572.38	1798.12
572.57	1740.77
572.77	1710.05
572.96	1857.51
573.16	1716.20
573.35	1746.92
573.55	1812.45
573.74	1806.31
573.94	1705.96
574.13	1718.25
574.33	1785.83
574.52	1828.84
574.71	1779.68
574.91	1755.11
575.10	1658.85
575.30	1779.68
575.49	1710.05
575.69	1767.40
575.88	1755.11
576.08	1697.77
576.27	1781.73
576.47	1791.97
576.66	1845.22
576.86	1818.60
577.05	1755.11
577.25	1796.07
577.44	1918.95
577.64	1658.85
577.83	1877.99
578.02	1755.11
578.22	1802.21
578.41	1771.49
578.61	1755.11
578.80	1714.15
579.00	1798.12
579.19	1812.45
579.39	1804.26
579.58	1871.84
579.77	1806.31
579.97	1832.93
580.16	1863.65
580.36	1767.40
580.55	1830.88
580.75	1822.69
580.94	1865.70
581.13	1902.56
581.33	1918.95
581.52	1757.16
581.72	1861.60
581.91	1855.46
582.11	1767.40
582.30	1773.54
582.49	1742.82
582.69	1882.08
582.88	1734.63
583.08	1755.11
583.27	1853.41
583.47	1814.50
583.66	1740.77
583.85	1679.33
584.05	1722.34
584.24	1769.44
584.44	1794.02
584.63	1910.75
584.82	1894.37
585.02	1773.54
585.21	1861.60
585.41	1845.22
585.60	1857.51
585.79	1972.19
585.99	1906.66
586.18	1853.41
586.37	2252.77
586.57	3446.73
586.76	9754.48
586.96	23750.29
587.15	33973.75
587.34	39740.83
587.54	41702.79
587.73	35970.52
587.93	25867.89
588.12	21411.51
588.31	18204.39
588.51	16033.55
588.70	14966.56
588.89	13836.08
589.09	12459.84
589.28	10825.56
589.47	9090.93
589.67	7997.32
589.86	6369.18
590.06	4988.85
590.25	3911.62
590.44	3135.44
590.64	2639.83
590.83	2240.48
591.02	2115.55
591.22	2025.44
591.41	1929.19
591.60	1863.65
591.80	1912.80
591.99	1714.15
592.18	1779.68
592.38	1882.08
592.57	1728.49
592.76	1771.49
592.96	1857.51
593.15	1771.49
593.34	1794.02
593.54	1738.73
593.73	1859.56
593.92	1748.97
594.12	1800.16
594.31	1834.98
594.50	1820.64
594.70	1851.36
594.89	1863.65
595.08	1732.58
595.28	1791.97
595.47	2031.58
595.66	1806.31
595.86	1669.09
596.05	1767.40
596.24	1650.66
596.43	1851.36
596.63	1761.25
596.82	1722.34
597.01	1753.06
597.21	1814.50
597.40	1767.40
597.59	1716.20
597.79	1755.11
597.98	1765.35
598.17	1695.72
598.36	1779.68
598.56	1724.39
598.75	1648.61
598.94	1730.53
599.14	1763.30
599.33	1650.66
599.52	1765.35
599.71	1771.49
599.91	1804.26
600.10	1724.39
600.29	1738.73
600.48	1746.92
600.68	1753.06
600.87	1783.78
601.06	1658.85
601.26	1718.25
601.45	1820.64
601.64	1671.14
601.83	1800.16
602.03	1710.05
602.22	1714.15
602.41	1828.84
602.60	1767.40
602.80	1748.97
602.99	1730.53
603.18	1654.76
603.37	1761.25
603.57	1744.87
603.76	1785.83
603.95	1726.44
604.14	1691.62
604.34	1667.05
604.53	1744.87
604.72	1755.11
604.91	1744.87
605.10	1767.40
605.30	1763.30
605.49	1839.08
605.68	1814.50
605.87	1734.63
606.07	1748.97
606.26	1746.92
606.45	1787.88
606.64	1755.11
606.84	1710.05
607.03	1714.15
607.22	1781.73
607.41	1734.63
607.60	1726.44
607.80	1751.01
607.99	1667.05
608.18	1708.01
608.37	1681.38
608.56	1783.78
608.76	1806.31
608.95	1841.12
609.14	1697.77
609.33	1908.71
609.52	1759.21
609.72	1732.58
609.91	1773.54
610.10	1718.25
610.29	1785.83
610.48	1761.25
610.68	1763.30
610.87	1742.82
611.06	1798.12
611.25	1726.44
611.44	1845.22
611.63	1751.01
611.83	1806.31
612.02	1697.77
612.21	1804.26
612.40	1607.66
612.59	1705.96
612.79	1705.96
612.98	1730.53
613.17	1724.39
613.36	1738.73
613.55	1779.68
613.74	1673.19
613.93	1693.67
614.13	1804.26
614.32	1757.16
614.51	1693.67
614.70	1736.68
614.89	1712.10
615.08	1765.35
615.28	2107.36
615.47	1718.25
615.66	1785.83
615.85	1738.73
616.04	1849.32
616.23	1755.11
616.42	1738.73
616.62	1794.02
616.81	1695.72
617.00	1763.30
617.19	1796.07
617.38	1767.40
617.57	1771.49
617.76	1746.92
617.95	1769.44
618.15	1724.39
618.34	1855.46
618.53	1624.04
618.72	1734.63
618.91	1841.12
619.10	1839.08
619.29	1763.30
619.48	1818.60
619.68	1679.33
619.87	1746.92
620.06	1658.85
620.25	1783.78
620.44	1736.68
620.63	1705.96
620.82	1708.01
621.01	1730.53
621.20	1728.49
621.39	1763.30
621.59	1814.50
621.78	1648.61
621.97	1677.29
622.16	1781.73
622.35	1746.92
622.54	1771.49
622.73	1898.47
622.92	1650.66
623.11	1851.36
623.30	1722.34
623.49	1837.03
623.68	1660.90
623.88	1845.22
624.07	1677.29
624.26	1728.49
624.45	1759.21
624.64	1695.72
624.83	1703.91
625.02	1718.25
625.21	1771.49
625.40	1746.92
625.59	1814.50
625.78	1746.92
625.97	1777.64
626.16	1857.51
626.35	1701.86
626.54	1626.09
626.74	1822.69
626.93	1697.77
627.12	1730.53
627.31	1783.78
627.50	1757.16
627.69	1830.88
627.88	1644.52
628.07	1683.43
628.26	1685.48
628.45	1738.73
628.64	1701.86
628.83	1779.68
629.02	1699.81
629.21	1804.26
629.40	1734.63
629.59	1640.42
629.78	1669.09
629.97	1667.05
630.16	1753.06
630.35	1687.53
630.54	1701.86
630.73	1679.33
630.92	1796.07
631.11	1697.77
631.30	1726.44
631.49	1763.30
631.68	1689.57
631.87	1740.77
632.06	1652.71
632.25	1847.27
632.44	1736.68
632.63	1730.53
632.82	1785.83
633.01	1724.39
633.20	1673.19
633.39	1699.81
633.58	1669.09
633.77	1734.63
633.96	1753.06
634.15	1814.50
634.34	1734.63
634.53	1755.11
634.72	1671.14
634.91	1710.05
635.10	1787.88
635.29	1759.21
635.48	1714.15
635.67	1714.15
635.86	1665.00
636.05	1779.68
636.24	1763.30
636.43	1734.63
636.62	1787.88
636.81	1646.57
637.00	1730.53
637.19	1800.16
637.38	1705.96
637.57	1665.00
637.76	1687.53
637.95	1738.73
638.14	1671.14
638.33	1681.38
638.52	1710.05
638.71	1665.00
638.89	1687.53
639.08	1834.98
639.27	1771.49
639.46	1697.77
639.65	1748.97
639.84	1693.67
640.03	1753.06
640.22	1787.88
640.41	1839.08
640.60	1683.43
640.79	1781.73
640.98	1712.10
641.17	1798.12
641.36	1687.53
641.55	1779.68
641.74	1695.72
641.92	1740.77
642.11	1656.81
642.30	1740.77
642.49	1728.49
642.68	1710.05
642.87	1769.44
643.06	1773.54
643.25	1671.14
643.44	1646.57
643.63	1728.49
643.82	1791.97
644.00	1662.95
644.19	1722.34
644.38	1660.90
644.57	1667.05
644.76	1779.68
644.95	1751.01
645.14	1705.96
645.33	1730.53
645.52	1662.95
645.71	1640.42
645.89	1662.95
646.08	1734.63
646.27	1671.14
646.46	1824.74
646.65	1677.29
646.84	1722.34
647.03	1669.09
647.22	1777.64
647.40	1697.77
647.59	1669.09
647.78	1626.09
647.97	1652.71
648.16	1665.00
648.35	1843.17
648.54	1740.77
648.73	1716.20
648.91	1775.59
649.10	1746.92
649.29	1642.47
649.48	1738.73
649.67	1755.11
649.86	1732.58
650.05	1716.20
650.23	1802.21
650.42	1683.43
650.61	1722.34
650.80	1708.01
650.99	1837.03
651.18	1783.78
651.36	1812.45
651.55	1759.21
651.74	1765.35
651.93	1677.29
652.12	1701.86
652.31	1716.20
652.49	1777.64
652.68	1701.86
652.87	1718.25
653.06	1736.68
653.25	1808.36
653.44	1755.11
653.62	1849.32
653.81	1710.05
654.00	1673.19
654.19	1847.27
654.38	1828.84
654.56	1740.77
654.75	1726.44
654.94	1810.40
655.13	1722.34
655.32	1769.44
655.51	1763.30
655.69	1726.44
655.88	1722.34
656.07	1722.34
656.26	1718.25
656.45	1681.38
656.63	1685.48
656.82	1699.81
657.01	1726.44
657.20	1718.25
657.38	1810.40
657.57	1656.81
657.76	1714.15
657.95	1828.84
658.14	1722.34
658.32	1732.58
658.51	1587.18
658.70	1748.97
658.89	1681.38
659.08	1816.55
659.26	1859.56
659.45	1636.33
659.64	1755.11
659.83	1730.53
660.01	1931.23
660.20	1701.86
660.39	1824.74
660.58	1587.18
660.76	1775.59
660.95	1650.66
661.14	1769.44
661.33	1648.61
661.51	1665.00
661.70	1693.67
661.89	1773.54
662.08	1699.81
662.26	1560.55
662.45	1703.91
662.64	1863.65
662.83	1845.22
663.01	1619.94
663.20	1656.81
663.39	1773.54
663.58	1720.29
663.76	1730.53
663.95	1716.20
664.14	1667.05
664.32	1732.58
664.51	1640.42
664.70	1568.74
664.89	1720.29
665.07	1671.14
665.26	1757.16
665.45	1722.34
665.64	1820.64
665.82	1687.53
666.01	1767.40
666.20	1722.34
666.38	1808.36
666.57	1814.50
666.76	2263.01
666.95	4560.83
667.13	10190.69
667.32	15136.54
667.51	17358.58
667.69	19019.49
667.88	17444.60
668.07	12232.52
668.25	9418.61
668.44	8046.47
668.63	7274.38
668.81	6819.74
669.00	6211.49
669.19	5654.44
669.38	5142.45
669.56	4632.51
669.75	4032.45
669.94	3356.62
670.12	2846.68
670.31	2428.89
670.50	2213.85
670.68	2025.44
670.87	1882.08
671.06	1810.40
671.24	1783.78
671.43	1812.45
671.62	1701.86
671.80	1665.00
671.99	1787.88
672.18	1683.43
672.36	1767.40
672.55	1771.49
672.74	1746.92
672.92	1751.01
673.11	1744.87
673.29	1626.09
673.48	1708.01
673.67	1705.96
673.85	1837.03
674.04	1654.76
674.23	1736.68
674.41	1826.79
674.60	1675.24
674.79	1693.67
674.97	1693.67
675.16	1734.63
675.34	1705.96
675.53	1667.05
675.72	1746.92
675.90	1742.82
676.09	1705.96
676.28	1744.87
676.46	1685.48
676.65	1705.96
676.83	1675.24
677.02	1744.87
677.21	1722.34
677.39	1730.53
677.58	1613.80
677.77	1669.09
677.95	1685.48
678.14	1724.39
678.32	1691.62
678.51	1738.73
678.70	1796.07
678.88	1716.20
679.07	1812.45
679.25	1669.09
679.44	1665.00
679.63	1671.14
679.81	1757.16
680.00	1679.33
680.18	1796.07
680.37	1763.30
680.55	1718.25
680.74	1619.94
680.93	1615.85
681.11	1699.81
681.30	1705.96
681.48	1748.97
681.67	1722.34
681.85	1767.40
682.04	1650.66
682.23	1718.25
682.41	1675.24
682.60	1718.25
682.78	1675.24
682.97	1656.81
683.15	1722.34
683.34	1757.16
683.53	1814.50
683.71	1665.00
683.90	1812.45
684.08	1812.45
684.27	1693.67
684.45	1730.53
684.64	1859.56
684.82	1746.92
685.01	1837.03
685.19	1687.53
685.38	1746.92
685.57	1765.35
685.75	1685.48
685.94	1753.06
686.12	1654.76
686.31	1640.42
686.49	1755.11
686.68	1611.75
686.86	1736.68
687.05	1716.20
687.23	1869.80
687.42	1693.67
687.60	1671.14
687.79	1765.35
687.97	1773.54
688.16	1710.05
688.34	1796.07
688.53	1615.85
688.71	1783.78
688.90	1734.63
689.08	1703.91
689.27	1640.42
689.45	1791.97
689.64	1796.07
689.82	1697.77
690.01	1843.17
690.19	1742.82
690.38	1753.06
690.56	1773.54
690.75	1724.39
690.93	1751.01
691.12	1681.38
691.30	1658.85
691.49	1699.81
691.67	1714.15
691.86	1830.88
692.04	1697.77
692.23	1654.76
692.41	1660.90
692.60	1849.32
692.78	1722.34
692.97	1722.34
693.15	1718.25
693.34	1828.84
693.52	1769.44
693.71	1722.34
693.89	1734.63
694.08	1693.67
694.26	1798.12
694.44	1763.30
694.63	1783.78
694.81	1691.62
695.00	1714.15
695.18	1757.16
695.37	1863.65
695.55	1736.68
695.74	1718.25
695.92	1701.86
696.10	1742.82
696.29	1609.70
696.47	1708.01
696.66	1638.38
696.84	1638.38
697.03	1828.84
697.21	1814.50
697.40	2336.73
697.58	1841.12
697.76	1660.90
697.95	1722.34
698.13	1648.61
698.32	1650.66
698.50	1744.87
698.68	1769.44
698.87	1632.23
699.05	1755.11
699.24	1734.63
699.42	1703.91
699.61	1740.77
699.79	1767.40
699.97	1708.01
700.16	1628.14
700.34	1703.91
700.53	1748.97
700.71	1796.07
700.89	1753.06
701.08	1697.77
701.26	1699.81
701.45	2111.46
701.63	1738.73
701.81	1738.73
702.00	1761.25
702.18	1736.68
702.37	1667.05
702.55	1802.21
702.73	1742.82
702.92	1701.86
703.10	1746.92
703.28	1789.92
703.47	1673.19
703.65	1755.11
703.84	1765.35
704.02	1679.33
704.20	1763.30
704.39	1699.81
704.57	1779.68
704.75	1691.62
704.94	1724.39
705.12	1753.06
705.30	1771.49
705.49	2281.44
705.67	4532.15
705.86	9219.96
706.04	12345.16
706.22	14221.10
706.41	15212.31
706.59	13670.19
706.77	9303.92
706.96	7313.30
707.14	6459.29
707.32	5881.77
707.51	5453.74
707.69	4941.75
707.87	4231.10
708.06	3555.27
708.24	2975.70
708.42	2357.21
708.61	2263.01
708.79	1918.95
708.97	1943.52
709.16	1791.97
709.34	1832.93
709.52	1701.86
709.71	1642.47
709.89	1802.21
710.07	1714.15
710.26	1716.20
710.44	1765.35
710.62	1744.87
710.80	1767.40
710.99	1757.16
711.17	1869.80
711.35	1656.81
711.54	1697.77
711.72	1710.05
711.90	1728.49
712.09	1714.15
712.27	1732.58
712.45	1742.82
712.63	1636.33
712.82	1765.35
713.00	1699.81
713.18	1787.88
713.37	1828.84
713.55	1703.91
713.73	1773.54
713.91	1753.06
714.10	1658.85
714.28	1718.25
714.46	1703.91
714.65	1705.96
714.83	1755.11
715.01	1714.15
715.19	1740.77
715.38	1718.25
715.56	1732.58
715.74	1685.48
715.92	1628.14
716.11	1824.74
716.29	1574.89
716.47	1671.14
716.65	1740.77
716.84	1640.42
717.02	1757.16
717.20	1675.24
717.38	1728.49
717.57	1710.05
717.75	1761.25
717.93	1718.25
718.11	1634.28
718.30	1626.09
718.48	1724.39
718.66	1736.68
718.84	1855.46
719.03	1652.71
719.21	1730.53
719.39	1785.83
719.57	1732.58
719.75	1808.36
719.94	1644.52
720.12	1695.72
720.30	1736.68
720.48	1822.69
720.67	1689.57
720.85	1701.86
721.03	1705.96
721.21	1650.66
721.39	1804.26
721.58	1746.92
721.76	1791.97
721.94	1736.68
722.12	1779.68
722.30	1763.30
722.49	1665.00
722.67	1746.92
722.85	1720.29
723.03	1671.14
723.21	1640.42
723.40	1740.77
723.58	1742.82
723.76	1755.11
723.94	1767.40
724.12	1681.38
724.30	1832.93
724.49	1800.16
724.67	1662.95
724.85	1877.99
725.03	1675.24
725.21	1763.30
725.40	1787.88
725.58	1746.92
725.76	1767.40
725.94	1763.30
726.12	1624.04
726.30	1716.20
726.49	1675.24
726.67	1683.43
726.85	1763.30
727.03	1843.17
727.21	2138.08
727.39	3012.56
727.57	3786.69
727.76	4263.87
727.94	4460.48
728.12	4265.92
728.30	3737.54
728.48	3018.71
728.66	2721.75
728.84	2611.16
729.03	2303.96
729.21	2154.46
729.39	1972.19
729.57	1810.40
729.75	1800.16
729.93	1867.75
730.11	1720.29
730.30	1753.06
730.48	1689.57
730.66	1802.21
730.84	1810.40
731.02	1738.73
731.20	1722.34
731.38	1681.38
731.56	1632.23
731.74	1578.98
731.93	1718.25
732.11	1736.68
732.29	1742.82
732.47	1763.30
732.65	1691.62
732.83	1861.60
733.01	1689.57
733.19	1605.61
733.37	1736.68
733.56	1656.81
733.74	1689.57
733.92	1816.55
734.10	1675.24
734.28	1722.34
734.46	1665.00
734.64	1607.66
734.82	1718.25
735.00	1673.19
735.18	1656.81
735.36	1710.05
735.54	1720.29
735.73	1773.54
735.91	1675.24
736.09	1773.54
736.27	1667.05
736.45	1769.44
736.63	1587.18
736.81	1796.07
736.99	1816.55
737.17	1900.52
737.35	1652.71
737.53	1787.88
737.71	1691.62
737.89	1658.85
738.07	1667.05
738.25	1708.01
738.43	1632.23
738.61	1761.25
738.80	1603.56
738.98	1681.38
739.16	1642.47
739.34	1710.05
739.52	1800.16
739.70	1626.09
739.88	1773.54
740.06	1703.91
740.24	1624.04
740.42	1746.92
740.60	1591.27
740.78	1701.86
740.96	1703.91
741.14	1734.63
741.32	1699.81
741.50	1619.94
741.68	1832.93
741.86	1761.25
742.04	1671.14
742.22	1650.66
742.40	1665.00
742.58	1712.10
742.76	1632.23
742.94	1757.16
743.12	1607.66
743.30	1720.29
743.48	1689.57
743.66	1624.04
743.84	1710.05
744.02	1724.39
744.20	1679.33
744.38	1667.05
744.56	1693.67
744.74	1794.02
744.92	1697.77
745.10	1734.63
745.28	1841.12
745.46	1757.16
745.64	1712.10
745.82	1765.35
746.00	1722.34
746.18	1773.54
746.36	1673.19
746.54	1769.44
746.72	1689.57
746.90	1693.67
747.08	1828.84
747.26	1759.21
747.44	1777.64
747.62	1751.01
747.80	1775.59
747.98	1812.45
748.15	1689.57
748.33	1791.97
748.51	1705.96
748.69	1720.29
748.87	1638.38
749.05	1665.00
749.23	1718.25
749.41	1738.73
749.59	1730.53
749.77	1802.21
749.95	1656.81
750.13	1714.15
750.31	1796.07
750.49	1699.81
750.67	1691.62
750.85	1759.21
751.03	1681.38
751.20	1814.50
751.38	1699.81
751.56	1656.81
751.74	1718.25
751.92	1642.47
752.10	1662.95
752.28	1714.15
752.46	1603.56
752.64	1691.62
752.82	1693.67
753.00	1771.49
753.18	1720.29
753.35	1695.72
753.53	1734.63
753.71	1675.24
753.89	1734.63
754.07	1699.81
754.25	1800.16
754.43	1697.77
754.61	1697.77
754.79	1726.44
754.97	1640.42
755.14	1824.74
755.32	1650.66
755.50	1681.38
755.68	1757.16
755.86	1640.42
756.04	1617.90
756.22	1665.00
756.40	1722.34
756.57	1861.60
756.75	1701.86
756.93	1789.92
757.11	1796.07
757.29	1693.67
757.47	1689.57
757.65	1611.75
757.82	1560.55
758.00	1640.42
758.18	1683.43
758.36	1642.47
758.54	1775.59
758.72	1619.94
758.90	1730.53
759.07	1765.35
759.25	1656.81
759.43	1710.05
759.61	1609.70
759.79	2242.53
759.97	1763.30
760.15	1734.63
760.32	1662.95
760.50	1656.81
760.68	1775.59
760.86	1615.85
761.04	1724.39
761.22	1722.34
761.39	1710.05
761.57	1726.44
761.75	1722.34
761.93	1722.34
762.11	1708.01
762.28	1710.05
762.46	1693.67
762.64	1798.12
762.82	1615.85
763.00	1683.43
763.18	1755.11
763.35	1671.14
763.53	1794.02
763.71	1665.00
763.89	1732.58
764.07	1708.01
764.24	1761.25
764.42	1757.16
764.60	1691.62
764.78	1703.91
764.96	1781.73
765.13	1771.49
765.31	1720.29
765.49	1665.00
765.67	1652.71
765.84	1601.51
766.02	1642.47
766.20	1656.81
766.38	1740.77
766.56	1730.53
766.73	1732.58
766.91	1638.38
767.09	1603.56
767.27	1767.40
767.44	1732.58
767.62	1775.59
767.80	1699.81
767.98	1689.57
768.15	1687.53
768.33	1740.77
768.51	1716.20
768.69	1693.67
768.87	1755.11
769.04	1763.30
769.22	1898.47
769.40	1812.45
769.58	1892.32
769.75	1716.20
769.93	1785.83
770.11	1650.66
770.28	1697.77
770.46	1802.21
770.64	1730.53
770.82	1726.44
770.99	1677.29
771.17	1742.82
771.35	1740.77
771.53	1671.14
771.70	1742.82
771.88	1701.86
772.06	1681.38
772.23	1748.97
772.41	1789.92
772.59	1728.49
772.77	1689.57
772.94	1701.86
773.12	1757.16
773.30	1644.52
773.47	1697.77
773.65	1613.80
773.83	1783.78
774.01	1736.68
774.18	1648.61
774.36	1722.34
774.54	1683.43
774.71	1783.78
774.89	1669.09
775.07	1595.37
775.24	1746.92
775.42	1685.48
775.60	1789.92
775.78	1654.76
775.95	1538.02
776.13	1673.19
776.31	1595.37
776.48	1779.68
776.66	1787.88
776.84	1679.33
777.01	1662.95
777.19	1695.72
777.37	1736.68
777.54	1759.21
777.72	1863.65
777.90	1660.90
778.07	1703.91
778.25	1814.50
778.43	1703.91
778.60	1648.61
778.78	1763.30
778.96	1798.12
779.13	1683.43
779.31	1783.78
779.49	1740.77
779.66	1716.20
779.84	1767.40
780.01	1681.38
780.19	1593.32
780.37	1791.97
780.54	1779.68
780.72	1689.57
780.90	1732.58
781.07	1660.90
781.25	1699.81
781.43	1740.77
781.60	1724.39
781.78	1679.33
781.95	1730.53
782.13	1624.04
782.31	1722.34
782.48	1599.46
782.66	1718.25
782.83	1853.41
783.01	1759.21
783.19	1751.01
783.36	1658.85
783.54	1607.66
783.72	1757.16
783.89	1730.53
784.07	1673.19
784.24	1744.87
784.42	1759.21
784.60	1740.77
784.77	1742.82
784.95	1599.46
785.12	1710.05
785.30	1640.42
785.47	1726.44
785.65	1603.56
785.83	1656.81
786.00	1638.38
786.18	1800.16
786.35	1626.09
786.53	1636.33
786.71	1742.82
786.88	1822.69
787.06	1681.38
787.23	1667.05
787.41	1650.66
787.58	1720.29
787.76	1658.85
787.94	1710.05
788.11	1785.83
788.29	1636.33
788.46	1695.72
788.64	1628.14
788.81	1701.86
788.99	1828.84
789.16	1669.09
789.34	1722.34
789.52	1695.72
789.69	1734.63
789.87	1603.56
790.04	1673.19
790.22	1656.81
790.39	1759.21
790.57	1681.38
790.74	1691.62
790.92	1806.31
791.09	1603.56
791.27	1738.73
791.44	1765.35
791.62	1617.90
791.79	1720.29
791.97	1710.05
792.15	1808.36
792.32	1771.49
792.50	1748.97
792.67	1882.08
792.85	1830.88
793.02	1753.06
793.20	1650.66
793.37	1691.62
793.55	1734.63
793.72	1699.81
793.90	1751.01
794.07	1660.90
794.25	1671.14
794.42	1677.29
794.60	1699.81
794.77	1791.97
794.95	1810.40
795.12	1851.36
795.30	1685.48
795.47	1589.22
795.65	1929.19
795.82	1691.62
796.00	1701.86
796.17	1679.33
796.34	1665.00
796.52	1699.81
796.69	1724.39
796.87	1832.93
797.04	1742.82
797.22	1751.01
797.39	1759.21
797.57	1681.38
797.74	1697.77
797.92	1718.25
798.09	1681.38
798.27	1740.77
798.44	1798.12
798.62	1613.80
798.79	1730.53
798.96	1732.58
799.14	1748.97
799.31	1880.04
799.49	1753.06
799.66	1658.85
799.84	1701.86
800.01	1552.36
800.19	1763.30
800.36	1634.28
800.53	1746.92
800.71	1716.20
800.88	1787.88
801.06	1677.29
801.23	1654.76
801.41	1697.77
801.58	1703.91
801.75	1689.57
801.93	1697.77
802.10	1773.54
802.28	1671.14
802.45	1673.19
802.63	1769.44
802.80	1757.16
802.97	1714.15
803.15	1705.96
803.32	1650.66
803.50	1687.53
803.67	1714.15
803.84	1679.33
804.02	1669.09
804.19	1699.81
804.37	1589.22
804.54	1656.81
804.71	1726.44
804.89	1734.63
805.06	1708.01
805.24	1683.43
805.41	1628.14
805.58	1665.00
805.76	1757.16
805.93	1722.34
806.10	1775.59
806.28	1748.97
806.45	1705.96
806.63	1816.55
806.80	1783.78
806.97	1722.34
807.15	1710.05
807.32	1783.78
807.49	1759.21
807.67	1652.71
807.84	1744.87
808.01	1665.00
808.19	1877.99
808.36	1871.84
808.54	1642.47
808.71	1691.62
808.88	1757.16
809.06	1724.39
809.23	1718.25
809.40	1755.11
809.58	1716.20
809.75	1769.44
809.92	1636.33
810.10	1859.56
810.27	1726.44
810.44	1705.96
810.62	1769.44
810.79	1765.35
810.96	1718.25
811.14	1671.14
811.31	1746.92
811.48	1794.02
811.66	1748.97
811.83	1755.11
812.00	1773.54
812.18	1669.09
812.35	1800.16
812.52	1730.53
812.69	1679.33
812.87	1665.00
813.04	1599.46
813.21	1703.91
813.39	1617.90
813.56	1665.00
813.73	1765.35
813.91	1658.85
814.08	1716.20
814.25	1644.52
814.42	1644.52
814.60	1705.96
814.77	1759.21
814.94	1689.57
815.12	1673.19
815.29	1832.93
815.46	1632.23
815.63	1722.34
815.81	1699.81
815.98	1705.96
816.15	1636.33
816.33	1714.15
816.50	1714.15
816.67	1796.07
816.84	1654.76
817.02	1615.85
817.19	1695.72
817.36	1654.76
817.53	1765.35
817.71	1619.94
817.88	1765.35
818.05	1695.72
818.22	1640.42
818.40	1861.60
818.57	1648.61
818.74	1693.67
818.91	1669.09
819.09	1714.15
819.26	1806.31
819.43	1626.09
819.60	1701.86
819.78	1689.57
819.95	1734.63
820.12	1656.81
820.29	1748.97
820.47	1726.44
820.64	1718.25
820.81	1605.61
820.98	1621.99
821.15	1712.10
821.33	1722.34
821.50	1642.47
821.67	1761.25
821.84	1669.09
822.02	1755.11
822.19	1738.73
822.36	1720.29
822.53	1669.09
822.70	1648.61
822.88	1683.43
823.05	1783.78
823.22	1640.42
823.39	1675.24
823.56	1703.91
823.74	1818.60
823.91	1605.61
824.08	1648.61
824.25	1626.09
824.42	1771.49
824.60	1636.33
824.77	1681.38
824.94	1736.68
825.11	1787.88
825.28	1665.00
825.45	1685.48
825.63	1710.05
825.80	1779.68
825.97	1732.58
826.14	1765.35
826.31	1628.14
826.48	1708.01
826.66	1656.81
826.83	1689.57
827.00	1761.25
827.17	1697.77
827.34	1753.06
827.51	1660.90
827.69	1683.43
827.86	1665.00
828.03	1753.06
828.20	1652.71
828.37	1759.21
828.54	1718.25
828.71	1617.90
828.89	1763.30
829.06	1658.85
829.23	1689.57
829.40	1640.42
829.57	1591.27
829.74	1714.15
829.91	1660.90
830.09	1665.00
830.26	1716.20
830.43	1767.40
830.60	1644.52
830.77	1841.12
830.94	1730.53
831.11	1703.91
831.28	1665.00
831.46	1759.21
831.63	1685.48
831.80	1757.16
831.97	1665.00
832.14	1718.25
832.31	1683.43
832.48	1701.86
832.65	1755.11
832.82	1656.81
832.99	1734.63
833.17	1638.38
833.34	1777.64
833.51	1736.68
833.68	1665.00
833.85	1748.97
834.02	1685.48
834.19	1648.61
834.36	1634.28
834.53	1734.63
834.70	1767.40
834.87	1705.96
835.04	1716.20
835.22	1650.66
835.39	1603.56
835.56	1728.49
835.73	1732.58
835.90	1787.88
836.07	1597.42
836.24	1765.35
836.41	1722.34
836.58	1642.47
836.75	1808.36
836.92	1775.59
837.09	1685.48
837.26	1759.21
837.43	1779.68
837.60	1765.35
837.77	1628.14
837.94	1738.73
838.12	1769.44
838.29	1740.77
838.46	1648.61
838.63	1644.52
838.80	1837.03
838.97	1767.40
839.14	1697.77
839.31	1591.27
839.48	1761.25
839.65	1714.15
839.82	1787.88
839.99	1736.68
840.16	1697.77
840.33	1669.09
840.50	1779.68
840.67	1644.52
840.84	1572.84
841.01	1652.71
841.18	1757.16
841.35	1660.90
841.52	1724.39
841.69	1873.89
841.86	1755.11
842.03	1683.43
842.20	1777.64
842.37	1728.49
842.54	1685.48
842.71	1701.86
842.88	1687.53
843.05	1757.16
843.22	1673.19
843.39	1726.44
843.56	1722.34
843.73	1732.58
843.90	1720.29
844.07	1728.49
844.24	1751.01
844.41	1781.73
844.58	1714.15
844.75	1687.53
844.92	1695.72
845.09	1699.81
845.26	1679.33
845.43	1767.40
845.60	1730.53
845.77	1757.16
845.94	1658.85
846.10	1832.93
846.27	1632.23
846.44	1585.13
846.61	1658.85
846.78	1804.26
846.95	1757.16
847.12	1796.07
847.29	1648.61
847.46	1710.05
847.63	1710.05
847.80	1597.42
847.97	1673.19
848.14	1779.68
848.31	1759.21
848.48	1669.09
848.65	1732.58
848.82	1677.29
848.98	1882.08
849.15	1736.68
849.32	1767.40
849.49	1775.59
849.66	1734.63
849.83	1802.21
850.00	1632.23
850.17	1669.09
850.34	1665.00
850.51	1634.28
850.68	1730.53
850.85	1839.08
851.01	1640.42
851.18	1703.91
851.35	1697.77
851.52	1751.01
851.69	1894.37
851.86	1576.94
852.03	1755.11
852.20	1685.48
852.37	1753.06
852.53	1679.33
852.70	1689.57
852.87	1767.40
853.04	1832.93
853.21	1689.57
853.38	1746.92
853.55	1796.07
853.72	1830.88
853.89	1712.10
854.05	1675.24
854.22	1628.14
854.39	1708.01
854.56	1761.25
854.73	1773.54
854.90	1683.43
855.07	1757.16
855.23	1738.73
855.40	1710.05
855.57	1609.70
855.74	1540.07
855.91	1849.32
856.08	1662.95
856.25	1642.47
856.41	1652.71
856.58	1669.09
856.75	1689.57
856.92	1701.86
857.09	1794.02
857.26	1609.70
857.42	1681.38
857.59	1796.07
857.76	1644.52
857.93	1697.77
858.10	1691.62
858.27	1636.33
858.43	1718.25
858.60	1693.67
858.77	1603.56
858.94	1753.06
859.11	1724.39
859.27	1697.77
859.44	1652.71
859.61	1822.69
859.78	1753.06
859.95	1671.14
860.12	1665.00
860.28	1802.21
860.45	1830.88
860.62	1701.86
860.79	1708.01
860.95	1714.15
861.12	1712.10
861.29	1714.15
861.46	1632.23
861.63	1683.43
861.79	1693.67
861.96	1759.21
862.13	1751.01
862.30	1724.39
862.47	1662.95
862.63	1669.09
862.80	1785.83
862.97	1734.63
863.14	1687.53
863.30	1687.53
863.47	1705.96
863.64	1757.16
863.81	1730.53
863.97	1615.85
864.14	1681.38
864.31	1724.39
864.48	1748.97
864.65	1775.59
864.81	1763.30
864.98	1744.87
865.15	1796.07
865.32	1744.87
865.48	1806.31
865.65	1767.40
865.82	1712.10
865.98	1755.11
866.15	1718.25
866.32	1671.14
866.49	1665.00
866.65	1722.34
866.82	1675.24
866.99	1669.09
867.16	1734.63
867.32	1681.38
867.49	1660.90
867.66	1718.25
867.83	1689.57
867.99	1642.47
868.16	1695.72
868.33	1599.46
868.49	1685.48
868.66	1712.10
868.83	1710.05
868.99	1759.21
869.16	1744.87
869.33	1763.30
869.50	1748.97
869.66	1681.38
869.83	1675.24
870.00	1691.62
870.16	1794.02
870.33	1658.85
870.50	1798.12
870.66	1703.91
870.83	1822.69
871.00	1746.92
871.17	1748.97
871.33	1685.48
871.50	1699.81
871.67	1685.48
871.83	1699.81
872.00	1769.44
872.17	1681.38
872.33	1800.16
872.50	1822.69
872.67	1728.49
872.83	1748.97
873.00	1714.15
873.17	1699.81
873.33	1734.63
873.50	1691.62
873.67	1683.43
873.83	1699.81
874.00	1761.25
874.16	1781.73
874.33	1714.15
874.50	1613.80
874.66	1705.96
874.83	1617.90
875.00	1812.45
875.16	1746.92
875.33	1773.54
875.50	1562.60
875.66	1728.49
875.83	1746.92
875.99	1775.59
876.16	1677.29
876.33	1638.38
876.49	1736.68
876.66	1701.86
876.83	1710.05
876.99	1660.90
877.16	1708.01
877.32	1665.00
877.49	1716.20
877.66	1667.05
877.82	1730.53
877.99	1660.90
878.15	1699.81
878.32	1761.25
878.49	1705.96
878.65	1681.38
878.82	1785.83
878.98	1703.91
879.15	1810.40
879.32	1755.11
879.48	1712.10
879.65	1716.20
879.81	1589.22
879.98	1630.18
880.15	1677.29
880.31	1722.34
880.48	1675.24
880.64	1742.82
880.81	1765.35
880.97	1798.12
881.14	1714.15
881.31	1660.90
881.47	1867.75
881.64	1693.67
881.80	1665.00
881.97	1726.44
882.13	1753.06
882.30	1683.43
882.47	1740.77
882.63	1757.16
882.80	1691.62
882.96	1667.05
883.13	1759.21
883.29	1763.30
883.46	1753.06
883.62	1808.36
883.79	1730.53
883.95	1794.02
884.12	1665.00
884.29	1763.30
884.45	1732.58
884.62	1806.31
884.78	1691.62
884.95	1804.26
885.11	1656.81
885.28	1712.10
885.44	1652.71
885.61	1726.44
885.77	1814.50
885.94	1697.77
886.10	1697.77
886.27	1708.01
886.43	1705.96
886.60	1710.05
886.76	1654.76
886.93	1679.33
887.09	1759.21
887.26	1607.66
887.42	1683.43
887.59	1734.63
887.75	1888.23
887.92	1802.21
888.08	1753.06
888.25	1839.08
888.41	1701.86
888.58	1660.90
888.74	1718.25
888.91	1648.61
>>>>>End Processed Spectral Data<<<<<
