SpectraSuite Data File
++++++++++++++++++++++++++++++++++++
Date: Mon Jun 06 16:49:37 CEST 2016
User: root
Dark Spectrum Present: No
Reference Spectrum Present: No
Number of Sampled Component Spectra: 1
Spectrometers: USB4C02835
Integration Time (usec): 100000 (USB4C02835)
Spectra Averaged: 1 (USB4C02835)
Boxcar Smoothing: 0 (USB4C02835)
Correct for Electrical Dark: No (USB4C02835)
Strobe/Lamp Enabled: No (USB4C02835)
Correct for Detector Non-linearity: No (USB4C02835)
Correct for Stray Light: No (USB4C02835)
Number of Pixels in Processed Spectrum: 3648
>>>>>Begin Processed Spectral Data<<<<<
177.47	1445.87
177.69	1445.87
177.91	1445.87
178.13	1497.07
178.36	1460.20
178.58	1587.18
178.80	1798.12
179.02	1646.57
179.24	1632.23
179.46	1662.95
179.68	1806.31
179.90	1730.53
180.13	1746.92
180.35	1634.28
180.57	1652.71
180.79	1736.68
181.01	1697.77
181.23	1832.93
181.45	1744.87
181.67	1812.45
181.90	1789.92
182.12	1679.33
182.34	1621.99
182.56	1705.96
182.78	1675.24
183.00	1630.18
183.22	1746.92
183.44	1658.85
183.66	1867.75
183.89	1802.21
184.11	1671.14
184.33	1681.38
184.55	1744.87
184.77	1755.11
184.99	1685.48
185.21	1720.29
185.43	1808.36
185.65	1667.05
185.87	1718.25
186.10	1755.11
186.32	1849.32
186.54	1777.64
186.76	1771.49
186.98	1771.49
187.20	1726.44
187.42	1662.95
187.64	1689.57
187.86	1753.06
188.08	1732.58
188.30	1693.67
188.52	1695.72
188.75	1785.83
188.97	1714.15
189.19	1626.09
189.41	1675.24
189.63	1718.25
189.85	1689.57
190.07	1634.28
190.29	1570.79
190.51	1656.81
190.73	1665.00
190.95	1775.59
191.17	1714.15
191.39	1650.66
191.61	1671.14
191.84	1681.38
192.06	1689.57
192.28	1648.61
192.50	1832.93
192.72	1753.06
192.94	1683.43
193.16	1681.38
193.38	1746.92
193.60	1665.00
193.82	1695.72
194.04	1779.68
194.26	1734.63
194.48	1736.68
194.70	1726.44
194.92	1714.15
195.14	1787.88
195.36	1695.72
195.58	1720.29
195.80	1654.76
196.02	1724.39
196.24	1654.76
196.46	1746.92
196.69	1714.15
196.91	1925.09
197.13	1628.14
197.35	1654.76
197.57	1802.21
197.79	1718.25
198.01	1705.96
198.23	1714.15
198.45	1785.83
198.67	1701.86
198.89	1652.71
199.11	1771.49
199.33	1658.85
199.55	1632.23
199.77	1701.86
199.99	1789.92
200.21	1669.09
200.43	1705.96
200.65	1669.09
200.87	1578.98
201.09	1701.86
201.31	1720.29
201.53	1736.68
201.75	1753.06
201.97	1685.48
202.19	1667.05
202.41	1728.49
202.63	1808.36
202.85	1695.72
203.07	1751.01
203.29	1734.63
203.51	1689.57
203.73	1693.67
203.95	1939.43
204.17	1708.01
204.39	1755.11
204.61	1710.05
204.83	1710.05
205.05	1728.49
205.27	1705.96
205.49	1826.79
205.71	1714.15
205.93	1587.18
206.15	1654.76
206.37	1724.39
206.59	1667.05
206.81	1720.29
207.03	1658.85
207.25	1644.52
207.47	1726.44
207.69	1689.57
207.91	1765.35
208.13	1783.78
208.34	1667.05
208.56	1746.92
208.78	1812.45
209.00	1677.29
209.22	1689.57
209.44	1687.53
209.66	1669.09
209.88	1730.53
210.10	1675.24
210.32	1708.01
210.54	1783.78
210.76	1724.39
210.98	1656.81
211.20	1673.19
211.42	1726.44
211.64	1804.26
211.86	1730.53
212.08	1714.15
212.30	1779.68
212.52	1675.24
212.74	1652.71
212.96	1736.68
213.17	1755.11
213.39	1763.30
213.61	1851.36
213.83	1691.62
214.05	1603.56
214.27	1800.16
214.49	1734.63
214.71	1601.51
214.93	1800.16
215.15	1691.62
215.37	1708.01
215.59	1628.14
215.81	1720.29
216.03	1730.53
216.24	1652.71
216.46	1701.86
216.68	1716.20
216.90	1763.30
217.12	1785.83
217.34	1716.20
217.56	1732.58
217.78	1804.26
218.00	1738.73
218.22	1773.54
218.44	1765.35
218.66	1744.87
218.87	1785.83
219.09	1667.05
219.31	1785.83
219.53	1677.29
219.75	1703.91
219.97	1808.36
220.19	1734.63
220.41	1652.71
220.63	1826.79
220.85	1667.05
221.06	1691.62
221.28	1722.34
221.50	1746.92
221.72	1716.20
221.94	1681.38
222.16	1689.57
222.38	1830.88
222.60	1755.11
222.82	1687.53
223.03	1710.05
223.25	1640.42
223.47	1794.02
223.69	1855.46
223.91	1765.35
224.13	1654.76
224.35	1705.96
224.57	1802.21
224.78	1718.25
225.00	1716.20
225.22	1724.39
225.44	1718.25
225.66	1710.05
225.88	1648.61
226.10	1767.40
226.32	1689.57
226.53	1816.55
226.75	1691.62
226.97	1755.11
227.19	1781.73
227.41	1656.81
227.63	1587.18
227.85	1562.60
228.06	1771.49
228.28	1726.44
228.50	1736.68
228.72	1636.33
228.94	1771.49
229.16	1589.22
229.37	1716.20
229.59	1673.19
229.81	1771.49
230.03	1681.38
230.25	1624.04
230.47	1636.33
230.69	1646.57
230.90	1789.92
231.12	1658.85
231.34	1714.15
231.56	1796.07
231.78	1718.25
232.00	1681.38
232.21	1767.40
232.43	1658.85
232.65	1601.51
232.87	1759.21
233.09	1646.57
233.30	1673.19
233.52	1832.93
233.74	1724.39
233.96	1667.05
234.18	1736.68
234.40	1679.33
234.61	1785.83
234.83	1632.23
235.05	1662.95
235.27	1759.21
235.49	1779.68
235.70	1714.15
235.92	1791.97
236.14	1728.49
236.36	1865.70
236.58	1701.86
236.79	1683.43
237.01	1685.48
237.23	1662.95
237.45	1724.39
237.67	1654.76
237.88	1687.53
238.10	1839.08
238.32	1701.86
238.54	1697.77
238.76	1716.20
238.97	1705.96
239.19	1646.57
239.41	1755.11
239.63	1716.20
239.85	1667.05
240.06	1665.00
240.28	1652.71
240.50	1761.25
240.72	1677.29
240.93	1691.62
241.15	1771.49
241.37	1740.77
241.59	1736.68
241.81	1701.86
242.02	1693.67
242.24	1730.53
242.46	1751.01
242.68	1636.33
242.89	1744.87
243.11	1730.53
243.33	1701.86
243.55	1757.16
243.76	1796.07
243.98	1652.71
244.20	1697.77
244.42	1744.87
244.64	1650.66
244.85	1667.05
245.07	1636.33
245.29	1728.49
245.51	1689.57
245.72	1761.25
245.94	1765.35
246.16	1755.11
246.38	1777.64
246.59	1673.19
246.81	1683.43
247.03	1724.39
247.24	1716.20
247.46	1669.09
247.68	1751.01
247.90	1710.05
248.11	1695.72
248.33	1787.88
248.55	1689.57
248.77	1726.44
248.98	1810.40
249.20	1728.49
249.42	1765.35
249.64	1796.07
249.85	1751.01
250.07	1673.19
250.29	1714.15
250.50	1714.15
250.72	1591.27
250.94	1746.92
251.16	1841.12
251.37	1755.11
251.59	1710.05
251.81	1757.16
252.02	1740.77
252.24	1683.43
252.46	1839.08
252.68	1697.77
252.89	1648.61
253.11	1619.94
253.33	1802.21
253.54	1757.16
253.76	1714.15
253.98	1728.49
254.20	1718.25
254.41	1558.50
254.63	1722.34
254.85	1710.05
255.06	1718.25
255.28	1681.38
255.50	1693.67
255.71	1679.33
255.93	1626.09
256.15	1728.49
256.36	1763.30
256.58	1708.01
256.80	1781.73
257.02	1695.72
257.23	1656.81
257.45	1699.81
257.67	1822.69
257.88	1683.43
258.10	1767.40
258.32	1755.11
258.53	1732.58
258.75	1716.20
258.97	1724.39
259.18	1728.49
259.40	1759.21
259.62	1839.08
259.83	1751.01
260.05	1759.21
260.27	1970.15
260.48	1771.49
260.70	1642.47
260.92	1638.38
261.13	1734.63
261.35	1650.66
261.57	1710.05
261.78	1613.80
262.00	1681.38
262.22	1800.16
262.43	1697.77
262.65	1693.67
262.86	1738.73
263.08	1824.74
263.30	1697.77
263.51	1712.10
263.73	1570.79
263.95	1794.02
264.16	1662.95
264.38	1718.25
264.60	1751.01
264.81	1681.38
265.03	1648.61
265.25	1783.78
265.46	1710.05
265.68	1755.11
265.89	1763.30
266.11	1660.90
266.33	1751.01
266.54	1783.78
266.76	1710.05
266.98	1708.01
267.19	1761.25
267.41	1742.82
267.62	1748.97
267.84	1613.80
268.06	1751.01
268.27	1710.05
268.49	1777.64
268.70	1746.92
268.92	1677.29
269.14	1687.53
269.35	1613.80
269.57	1701.86
269.79	1841.12
270.00	1619.94
270.22	1837.03
270.43	1681.38
270.65	1576.94
270.87	1720.29
271.08	1722.34
271.30	1699.81
271.51	1779.68
271.73	1708.01
271.95	1714.15
272.16	1683.43
272.38	1740.77
272.59	1701.86
272.81	1796.07
273.02	1685.48
273.24	1710.05
273.46	1683.43
273.67	1671.14
273.89	1638.38
274.10	1642.47
274.32	1802.21
274.54	1751.01
274.75	1757.16
274.97	1677.29
275.18	1771.49
275.40	1732.58
275.61	1810.40
275.83	1697.77
276.05	1679.33
276.26	1699.81
276.48	1791.97
276.69	1652.71
276.91	1732.58
277.12	1837.03
277.34	1734.63
277.55	1724.39
277.77	1658.85
277.99	1630.18
278.20	1572.84
278.42	1638.38
278.63	1714.15
278.85	1609.70
279.06	1609.70
279.28	1757.16
279.49	1800.16
279.71	1730.53
279.93	1703.91
280.14	1669.09
280.36	1681.38
280.57	1761.25
280.79	1820.64
281.00	1763.30
281.22	1730.53
281.43	1781.73
281.65	1624.04
281.86	1607.66
282.08	1689.57
282.29	1783.78
282.51	1650.66
282.73	1650.66
282.94	1699.81
283.16	1638.38
283.37	1798.12
283.59	1687.53
283.80	1730.53
284.02	1736.68
284.23	1714.15
284.45	1673.19
284.66	1632.23
284.88	1642.47
285.09	1671.14
285.31	1722.34
285.52	1714.15
285.74	1687.53
285.95	1728.49
286.17	1759.21
286.38	1734.63
286.60	1673.19
286.81	1685.48
287.03	1681.38
287.24	1718.25
287.46	1783.78
287.67	1804.26
287.89	1804.26
288.10	1665.00
288.32	1755.11
288.53	1806.31
288.75	1710.05
288.96	1701.86
289.18	1665.00
289.39	1658.85
289.61	1763.30
289.82	1781.73
290.04	1806.31
290.25	1673.19
290.47	1759.21
290.68	1669.09
290.90	1791.97
291.11	1658.85
291.33	1708.01
291.54	1626.09
291.76	1665.00
291.97	1652.71
292.18	1746.92
292.40	1640.42
292.61	1675.24
292.83	1853.41
293.04	1728.49
293.26	1669.09
293.47	1638.38
293.69	1660.90
293.90	1720.29
294.12	1722.34
294.33	1744.87
294.55	1683.43
294.76	1834.98
294.97	1861.60
295.19	1830.88
295.40	1681.38
295.62	1794.02
295.83	1728.49
296.05	1660.90
296.26	1673.19
296.48	1662.95
296.69	1736.68
296.90	1691.62
297.12	1785.83
297.33	1753.06
297.55	1734.63
297.76	1761.25
297.98	1765.35
298.19	1710.05
298.41	1685.48
298.62	1705.96
298.83	1771.49
299.05	1757.16
299.26	1658.85
299.48	1755.11
299.69	1720.29
299.90	1638.38
300.12	1665.00
300.33	1769.44
300.55	1771.49
300.76	1712.10
300.98	1650.66
301.19	1736.68
301.40	1757.16
301.62	1716.20
301.83	1724.39
302.05	1669.09
302.26	1722.34
302.47	1695.72
302.69	1646.57
302.90	1693.67
303.12	1583.08
303.33	1765.35
303.54	1771.49
303.76	1681.38
303.97	1738.73
304.19	1845.22
304.40	1644.52
304.61	1773.54
304.83	1761.25
305.04	1748.97
305.26	1787.88
305.47	1667.05
305.68	1658.85
305.90	1673.19
306.11	1765.35
306.33	1669.09
306.54	1621.99
306.75	1665.00
306.97	1595.37
307.18	1642.47
307.39	1644.52
307.61	1767.40
307.82	1697.77
308.04	1800.16
308.25	1685.48
308.46	1679.33
308.68	1761.25
308.89	1736.68
309.10	1777.64
309.32	1724.39
309.53	1722.34
309.74	1736.68
309.96	1665.00
310.17	1746.92
310.39	1726.44
310.60	1748.97
310.81	1667.05
311.03	1642.47
311.24	1746.92
311.45	1683.43
311.67	1869.80
311.88	1728.49
312.09	1689.57
312.31	1755.11
312.52	1708.01
312.73	1697.77
312.95	1654.76
313.16	1669.09
313.37	1714.15
313.59	1722.34
313.80	1730.53
314.01	1798.12
314.23	1689.57
314.44	1613.80
314.65	1638.38
314.87	1699.81
315.08	1656.81
315.29	1658.85
315.51	1648.61
315.72	1638.38
315.93	1787.88
316.15	1753.06
316.36	1695.72
316.57	1671.14
316.79	1779.68
317.00	1720.29
317.21	1728.49
317.43	1656.81
317.64	1746.92
317.85	1671.14
318.07	1621.99
318.28	1695.72
318.49	1759.21
318.70	1912.80
318.92	1787.88
319.13	1810.40
319.34	1888.23
319.56	1845.22
319.77	1828.84
319.98	1742.82
320.20	1785.83
320.41	1759.21
320.62	1773.54
320.83	1648.61
321.05	1863.65
321.26	1734.63
321.47	1742.82
321.69	1746.92
321.90	1607.66
322.11	1705.96
322.32	1716.20
322.54	1748.97
322.75	1738.73
322.96	1839.08
323.18	1630.18
323.39	1587.18
323.60	1705.96
323.81	1751.01
324.03	1701.86
324.24	1648.61
324.45	1806.31
324.66	1660.90
324.88	1771.49
325.09	1902.56
325.30	1738.73
325.52	1693.67
325.73	1714.15
325.94	1617.90
326.15	1574.89
326.37	1673.19
326.58	1800.16
326.79	1826.79
327.00	1675.24
327.22	1722.34
327.43	1730.53
327.64	1656.81
327.85	1708.01
328.07	1722.34
328.28	1718.25
328.49	1648.61
328.70	1626.09
328.92	1714.15
329.13	1718.25
329.34	1753.06
329.55	1773.54
329.76	1765.35
329.98	1726.44
330.19	1828.84
330.40	1802.21
330.61	1767.40
330.83	1740.77
331.04	1716.20
331.25	1722.34
331.46	1728.49
331.68	1695.72
331.89	1755.11
332.10	1728.49
332.31	1640.42
332.52	1728.49
332.74	1822.69
332.95	1607.66
333.16	1755.11
333.37	1736.68
333.58	1683.43
333.80	1736.68
334.01	1710.05
334.22	1685.48
334.43	1630.18
334.64	1775.59
334.86	1640.42
335.07	1660.90
335.28	1689.57
335.49	1628.14
335.70	1701.86
335.92	1769.44
336.13	1810.40
336.34	1718.25
336.55	1624.04
336.76	1726.44
336.98	1578.98
337.19	1687.53
337.40	1771.49
337.61	1796.07
337.82	1720.29
338.04	1730.53
338.25	1650.66
338.46	1732.58
338.67	1673.19
338.88	1648.61
339.09	1681.38
339.31	1703.91
339.52	1648.61
339.73	1615.85
339.94	1708.01
340.15	1742.82
340.36	1648.61
340.58	1730.53
340.79	1736.68
341.00	1787.88
341.21	1640.42
341.42	1808.36
341.63	1656.81
341.85	1697.77
342.06	1679.33
342.27	1673.19
342.48	1791.97
342.69	1638.38
342.90	1732.58
343.12	1767.40
343.33	1751.01
343.54	1759.21
343.75	1773.54
343.96	1669.09
344.17	1624.04
344.38	1695.72
344.60	1662.95
344.81	1675.24
345.02	1675.24
345.23	1791.97
345.44	1822.69
345.65	1740.77
345.86	1730.53
346.07	1671.14
346.29	1665.00
346.50	1761.25
346.71	1849.32
346.92	1755.11
347.13	1802.21
347.34	1677.29
347.55	1677.29
347.76	1652.71
347.98	1673.19
348.19	1640.42
348.40	1742.82
348.61	1681.38
348.82	1763.30
349.03	1773.54
349.24	1693.67
349.45	1779.68
349.66	1595.37
349.88	1748.97
350.09	1658.85
350.30	1769.44
350.51	1791.97
350.72	1712.10
350.93	1781.73
351.14	1671.14
351.35	1693.67
351.56	1708.01
351.77	1705.96
351.99	1703.91
352.20	1863.65
352.41	1703.91
352.62	1570.79
352.83	1765.35
353.04	1779.68
353.25	1660.90
353.46	1787.88
353.67	1714.15
353.88	1574.89
354.09	1798.12
354.30	1806.31
354.52	1724.39
354.73	1716.20
354.94	1720.29
355.15	1761.25
355.36	1841.12
355.57	1673.19
355.78	1783.78
355.99	1775.59
356.20	1775.59
356.41	1773.54
356.62	1763.30
356.83	1705.96
357.04	1789.92
357.25	1570.79
357.46	1611.75
357.68	1665.00
357.89	1689.57
358.10	1712.10
358.31	1677.29
358.52	1671.14
358.73	1681.38
358.94	1703.91
359.15	1578.98
359.36	1791.97
359.57	1646.57
359.78	1648.61
359.99	1738.73
360.20	1703.91
360.41	1601.51
360.62	1742.82
360.83	1714.15
361.04	1695.72
361.25	1779.68
361.46	1849.32
361.67	1783.78
361.88	1730.53
362.09	1802.21
362.30	1697.77
362.51	1671.14
362.72	1685.48
362.93	1810.40
363.14	1695.72
363.35	1654.76
363.56	1621.99
363.78	1781.73
363.99	1791.97
364.20	1705.96
364.41	1705.96
364.62	1802.21
364.83	1665.00
365.04	1654.76
365.25	1746.92
365.46	1789.92
365.67	1665.00
365.88	1656.81
366.09	1699.81
366.30	1718.25
366.51	1658.85
366.72	1609.70
366.93	1730.53
367.14	1753.06
367.35	1714.15
367.56	1714.15
367.77	1734.63
367.98	1665.00
368.18	1708.01
368.39	1718.25
368.60	1714.15
368.81	1681.38
369.02	1734.63
369.23	1681.38
369.44	1615.85
369.65	1685.48
369.86	1753.06
370.07	1773.54
370.28	1740.77
370.49	1765.35
370.70	1861.60
370.91	1603.56
371.12	1630.18
371.33	1800.16
371.54	1656.81
371.75	1820.64
371.96	1599.46
372.17	1753.06
372.38	1708.01
372.59	1683.43
372.80	1720.29
373.01	1724.39
373.22	1751.01
373.43	1738.73
373.64	1693.67
373.85	1789.92
374.06	1777.64
374.26	1679.33
374.47	1800.16
374.68	1763.30
374.89	1736.68
375.10	1701.86
375.31	1730.53
375.52	1699.81
375.73	1679.33
375.94	1685.48
376.15	1796.07
376.36	1708.01
376.57	1621.99
376.78	1708.01
376.99	1720.29
377.20	1734.63
377.40	1628.14
377.61	1857.51
377.82	1634.28
378.03	1798.12
378.24	1789.92
378.45	1699.81
378.66	1716.20
378.87	1595.37
379.08	1697.77
379.29	1691.62
379.50	1810.40
379.71	1744.87
379.91	1736.68
380.12	1775.59
380.33	1740.77
380.54	1671.14
380.75	1748.97
380.96	1732.58
381.17	1767.40
381.38	1736.68
381.59	1640.42
381.80	1710.05
382.00	1861.60
382.21	1765.35
382.42	1828.84
382.63	1888.23
382.84	1816.55
383.05	1697.77
383.26	1845.22
383.47	1746.92
383.68	1812.45
383.88	1814.50
384.09	1832.93
384.30	1826.79
384.51	1720.29
384.72	1757.16
384.93	1576.94
385.14	1689.57
385.35	1775.59
385.55	1609.70
385.76	1701.86
385.97	1732.58
386.18	1603.56
386.39	1708.01
386.60	1665.00
386.81	1757.16
387.02	1660.90
387.22	1705.96
387.43	1822.69
387.64	1703.91
387.85	1953.76
388.06	2228.19
388.27	4157.38
388.48	6645.66
388.68	8040.33
388.89	9404.27
389.10	9641.84
389.31	8501.12
389.52	7514.00
389.73	6692.76
389.93	6141.86
390.14	5803.94
390.35	5156.79
390.56	4419.52
390.77	3841.99
390.98	2961.36
391.18	2445.27
391.39	2060.26
391.60	1871.84
391.81	1880.04
392.02	1701.86
392.23	1814.50
392.43	1757.16
392.64	1787.88
392.85	1624.04
393.06	1740.77
393.27	1751.01
393.47	1681.38
393.68	1675.24
393.89	1689.57
394.10	1820.64
394.31	1712.10
394.52	1636.33
394.72	1738.73
394.93	1798.12
395.14	1636.33
395.35	1681.38
395.56	1697.77
395.76	1689.57
395.97	1767.40
396.18	1837.03
396.39	1875.94
396.60	2017.25
396.80	1873.89
397.01	1802.21
397.22	1845.22
397.43	1853.41
397.64	1718.25
397.84	1832.93
398.05	1857.51
398.26	1808.36
398.47	1800.16
398.67	1773.54
398.88	1773.54
399.09	1761.25
399.30	1652.71
399.51	1759.21
399.71	1619.94
399.92	1701.86
400.13	1701.86
400.34	1675.24
400.54	1660.90
400.75	1796.07
400.96	1779.68
401.17	1779.68
401.37	1755.11
401.58	1746.92
401.79	1691.62
402.00	1798.12
402.21	1982.43
402.41	1873.89
402.62	2019.30
402.83	2031.58
403.04	2025.44
403.24	2047.97
403.45	1880.04
403.66	1964.00
403.87	1867.75
404.07	1882.08
404.28	1914.85
404.49	1908.71
404.70	1759.21
404.90	1734.63
405.11	1746.92
405.32	1722.34
405.52	1679.33
405.73	1724.39
405.94	1740.77
406.15	1742.82
406.35	1695.72
406.56	1796.07
406.77	1785.83
406.98	1716.20
407.18	1767.40
407.39	1769.44
407.60	1705.96
407.80	1697.77
408.01	1640.42
408.22	1730.53
408.43	1685.48
408.63	1849.32
408.84	1755.11
409.05	1757.16
409.25	1695.72
409.46	1703.91
409.67	1669.09
409.88	1724.39
410.08	1755.11
410.29	1703.91
410.50	1779.68
410.70	1738.73
410.91	1679.33
411.12	1705.96
411.32	1650.66
411.53	1624.04
411.74	1714.15
411.95	1763.30
412.15	1787.88
412.36	1748.97
412.57	1818.60
412.77	1863.65
412.98	1705.96
413.19	1744.87
413.39	1804.26
413.60	1726.44
413.81	1810.40
414.01	1683.43
414.22	1695.72
414.43	1746.92
414.63	1720.29
414.84	1757.16
415.05	1730.53
415.25	1576.94
415.46	1802.21
415.67	1628.14
415.87	1742.82
416.08	1732.58
416.29	1660.90
416.49	1798.12
416.70	1640.42
416.91	1710.05
417.11	1763.30
417.32	1798.12
417.53	1787.88
417.73	1849.32
417.94	1667.05
418.15	1761.25
418.35	1746.92
418.56	1701.86
418.77	1851.36
418.97	1724.39
419.18	1691.62
419.38	1613.80
419.59	1630.18
419.80	1763.30
420.00	1730.53
420.21	1714.15
420.42	1832.93
420.62	1796.07
420.83	1634.28
421.04	1679.33
421.24	1689.57
421.45	1755.11
421.65	1789.92
421.86	1757.16
422.07	1785.83
422.27	1718.25
422.48	1712.10
422.69	1634.28
422.89	1710.05
423.10	1740.77
423.30	1677.29
423.51	1839.08
423.72	1644.52
423.92	1740.77
424.13	1662.95
424.33	1763.30
424.54	1763.30
424.75	1736.68
424.95	1867.75
425.16	1783.78
425.36	1753.06
425.57	1728.49
425.78	1787.88
425.98	1812.45
426.19	1675.24
426.39	1652.71
426.60	1740.77
426.81	1820.64
427.01	1755.11
427.22	1681.38
427.42	1648.61
427.63	1632.23
427.83	1734.63
428.04	1734.63
428.25	1761.25
428.45	1742.82
428.66	1742.82
428.86	1736.68
429.07	1798.12
429.28	1738.73
429.48	1712.10
429.69	1728.49
429.89	1708.01
430.10	1611.75
430.30	1761.25
430.51	1820.64
430.71	1624.04
430.92	1703.91
431.13	1644.52
431.33	1705.96
431.54	1767.40
431.74	1806.31
431.95	1763.30
432.15	1699.81
432.36	1767.40
432.56	1724.39
432.77	1804.26
432.98	1812.45
433.18	1732.58
433.39	1669.09
433.59	1771.49
433.80	1794.02
434.00	1812.45
434.21	1685.48
434.41	1636.33
434.62	1810.40
434.82	1650.66
435.03	1601.51
435.23	1722.34
435.44	1658.85
435.64	1759.21
435.85	1708.01
436.06	1748.97
436.26	1761.25
436.47	1751.01
436.67	1685.48
436.88	1685.48
437.08	1914.85
437.29	1777.64
437.49	1730.53
437.70	1796.07
437.90	1765.35
438.11	1810.40
438.31	1718.25
438.52	1886.18
438.72	1845.22
438.93	1873.89
439.13	1851.36
439.34	1841.12
439.54	1863.65
439.75	1857.51
439.95	1804.26
440.16	1691.62
440.36	1759.21
440.57	1748.97
440.77	1734.63
440.98	1718.25
441.18	1732.58
441.39	1677.29
441.59	1681.38
441.80	1751.01
442.00	1755.11
442.21	1869.80
442.41	1681.38
442.62	1808.36
442.82	1652.71
443.02	1705.96
443.23	1763.30
443.43	1718.25
443.64	1773.54
443.84	1720.29
444.05	1806.31
444.25	1798.12
444.46	1763.30
444.66	1730.53
444.87	1869.80
445.07	1640.42
445.28	1726.44
445.48	1820.64
445.69	1738.73
445.89	1843.17
446.09	1685.48
446.30	2074.59
446.50	2605.02
446.71	3739.59
446.91	4294.59
447.12	4749.24
447.32	4687.80
447.53	4313.02
447.73	3821.51
447.93	3540.94
448.14	3356.62
448.34	3209.17
448.55	2893.78
448.75	2783.19
448.96	2723.80
449.16	2461.66
449.36	2312.16
449.57	2101.22
449.77	1904.61
449.98	1791.97
450.18	1775.59
450.39	1877.99
450.59	1785.83
450.79	1845.22
451.00	1728.49
451.20	1787.88
451.41	1802.21
451.61	1787.88
451.81	1837.03
452.02	1763.30
452.22	1765.35
452.43	1640.42
452.63	1738.73
452.84	1771.49
453.04	1777.64
453.24	1736.68
453.45	1673.19
453.65	1722.34
453.86	1789.92
454.06	1769.44
454.26	1705.96
454.47	1611.75
454.67	1785.83
454.87	1716.20
455.08	1720.29
455.28	1861.60
455.49	1771.49
455.69	1732.58
455.89	1841.12
456.10	1839.08
456.30	1759.21
456.51	1705.96
456.71	1662.95
456.91	1783.78
457.12	1798.12
457.32	1763.30
457.52	1726.44
457.73	1791.97
457.93	1806.31
458.14	1742.82
458.34	1626.09
458.54	1701.86
458.75	1693.67
458.95	1771.49
459.15	1681.38
459.36	1765.35
459.56	1730.53
459.76	1800.16
459.97	1767.40
460.17	1757.16
460.37	1837.03
460.58	1736.68
460.78	1732.58
460.99	1701.86
461.19	1685.48
461.39	1718.25
461.60	1718.25
461.80	1755.11
462.00	1759.21
462.21	1761.25
462.41	1751.01
462.61	1681.38
462.82	1658.85
463.02	1716.20
463.22	1755.11
463.43	1837.03
463.63	1734.63
463.83	1791.97
464.04	1740.77
464.24	1722.34
464.44	1652.71
464.64	1730.53
464.85	1845.22
465.05	1785.83
465.25	1683.43
465.46	1697.77
465.66	1779.68
465.86	1761.25
466.07	1710.05
466.27	1726.44
466.47	1640.42
466.68	1634.28
466.88	1798.12
467.08	1724.39
467.29	1828.84
467.49	1724.39
467.69	1746.92
467.89	1794.02
468.10	1726.44
468.30	1681.38
468.50	1802.21
468.71	1724.39
468.91	1640.42
469.11	1834.98
469.31	1763.30
469.52	1744.87
469.72	1779.68
469.92	1824.74
470.13	1718.25
470.33	1763.30
470.53	1841.12
470.73	2103.26
470.94	2267.10
471.14	2322.40
471.34	2521.05
471.54	2340.83
471.75	2277.34
471.95	2191.33
472.15	2027.49
472.36	2050.02
472.56	2056.16
472.76	1992.67
472.96	2043.87
473.17	1964.00
473.37	1937.38
473.57	1814.50
473.77	1812.45
473.98	1765.35
474.18	1755.11
474.38	1992.67
474.58	1714.15
474.79	1738.73
474.99	1705.96
475.19	1794.02
475.39	1654.76
475.60	1722.34
475.80	1751.01
476.00	1781.73
476.20	1667.05
476.41	1744.87
476.61	1904.61
476.81	1660.90
477.01	1695.72
477.21	1869.80
477.42	1767.40
477.62	1642.47
477.82	1822.69
478.02	1687.53
478.23	1816.55
478.43	1675.24
478.63	1681.38
478.83	1734.63
479.03	1703.91
479.24	1804.26
479.44	1759.21
479.64	1673.19
479.84	1671.14
480.04	1677.29
480.25	1773.54
480.45	1607.66
480.65	1757.16
480.85	1837.03
481.06	1667.05
481.26	1730.53
481.46	1673.19
481.66	1791.97
481.86	1638.38
482.06	1755.11
482.27	1757.16
482.47	1718.25
482.67	1767.40
482.87	1656.81
483.07	1746.92
483.28	1714.15
483.48	1642.47
483.68	1720.29
483.88	1650.66
484.08	1603.56
484.29	1703.91
484.49	1742.82
484.69	1667.05
484.89	1728.49
485.09	1777.64
485.29	1681.38
485.50	1773.54
485.70	1658.85
485.90	1777.64
486.10	1820.64
486.30	1808.36
486.50	1779.68
486.71	1861.60
486.91	1771.49
487.11	1804.26
487.31	1658.85
487.51	1701.86
487.71	1636.33
487.91	1724.39
488.12	1689.57
488.32	1621.99
488.52	1710.05
488.72	1617.90
488.92	1710.05
489.12	1736.68
489.32	1837.03
489.53	1710.05
489.73	1642.47
489.93	1869.80
490.13	1708.01
490.33	1679.33
490.53	1765.35
490.73	1820.64
490.94	1708.01
491.14	1751.01
491.34	1832.93
491.54	2131.94
491.74	2572.25
491.94	2930.64
492.14	2953.17
492.34	3000.27
492.54	2713.56
492.75	2516.95
492.95	2453.47
493.15	2273.25
493.35	2277.34
493.55	2236.38
493.75	2185.18
493.95	2078.69
494.15	2054.11
494.35	1888.23
494.56	1834.98
494.76	1775.59
494.96	1714.15
495.16	1794.02
495.36	1755.11
495.56	1755.11
495.76	1722.34
495.96	1730.53
496.16	1755.11
496.36	1863.65
496.56	1767.40
496.77	1800.16
496.97	1738.73
497.17	1863.65
497.37	1693.67
497.57	1828.84
497.77	1798.12
497.97	1662.95
498.17	1697.77
498.37	1673.19
498.57	1746.92
498.77	1710.05
498.97	1832.93
499.17	1816.55
499.38	1716.20
499.58	1845.22
499.78	1660.90
499.98	1830.88
500.18	1716.20
500.38	1710.05
500.58	1914.85
500.78	2592.73
500.98	4476.86
501.18	5748.65
501.38	6795.16
501.58	7030.68
501.78	6688.67
501.98	5482.41
502.18	4927.41
502.38	4403.13
502.58	4149.18
502.78	3823.56
502.98	3665.86
503.18	3395.53
503.38	3108.82
503.59	2762.71
503.79	2602.97
503.99	2441.18
504.19	2301.92
504.39	2242.53
504.59	2193.37
504.79	2072.54
504.99	2090.98
505.19	1955.81
505.39	1855.46
505.59	1986.53
505.79	1953.76
505.99	1783.78
506.19	1812.45
506.39	1896.42
506.59	1763.30
506.79	1789.92
506.99	1832.93
507.19	1925.09
507.39	1742.82
507.59	1681.38
507.79	1748.97
507.99	1609.70
508.19	1761.25
508.39	1783.78
508.59	1757.16
508.79	1826.79
508.99	1861.60
509.19	1724.39
509.39	1794.02
509.59	1697.77
509.79	1646.57
509.99	1746.92
510.19	1728.49
510.39	1812.45
510.59	1812.45
510.79	1734.63
510.99	1669.09
511.19	1730.53
511.39	1824.74
511.59	1859.56
511.79	1755.11
511.99	1832.93
512.19	1804.26
512.38	1701.86
512.58	1683.43
512.78	1759.21
512.98	1728.49
513.18	1834.98
513.38	1669.09
513.58	1744.87
513.78	1712.10
513.98	1771.49
514.18	1753.06
514.38	1669.09
514.58	1787.88
514.78	1691.62
514.98	1708.01
515.18	1736.68
515.38	1679.33
515.58	1763.30
515.78	1775.59
515.98	1710.05
516.18	1777.64
516.38	1779.68
516.57	1736.68
516.77	1712.10
516.97	1728.49
517.17	1689.57
517.37	1599.46
517.57	1828.84
517.77	1722.34
517.97	1621.99
518.17	1748.97
518.37	1658.85
518.57	1753.06
518.77	1757.16
518.97	1773.54
519.16	1744.87
519.36	1761.25
519.56	1669.09
519.76	1763.30
519.96	1763.30
520.16	1806.31
520.36	1716.20
520.56	1871.84
520.76	1673.19
520.96	1779.68
521.16	1722.34
521.35	1812.45
521.55	1839.08
521.75	1722.34
521.95	1679.33
522.15	1718.25
522.35	1656.81
522.55	1687.53
522.75	1738.73
522.95	1738.73
523.14	1697.77
523.34	1726.44
523.54	1708.01
523.74	1849.32
523.94	1746.92
524.14	1689.57
524.34	1708.01
524.54	1908.71
524.73	1814.50
524.93	1785.83
525.13	1753.06
525.33	1712.10
525.53	1845.22
525.73	1824.74
525.93	1763.30
526.13	1652.71
526.32	1691.62
526.52	1736.68
526.72	1814.50
526.92	1685.48
527.12	1701.86
527.32	1677.29
527.52	1755.11
527.71	1779.68
527.91	1726.44
528.11	1675.24
528.31	1695.72
528.51	1705.96
528.71	1759.21
528.90	1738.73
529.10	1791.97
529.30	1757.16
529.50	1589.22
529.70	1687.53
529.90	1738.73
530.09	1748.97
530.29	1720.29
530.49	1726.44
530.69	1828.84
530.89	1697.77
531.09	1751.01
531.28	1695.72
531.48	1845.22
531.68	1748.97
531.88	1791.97
532.08	1816.55
532.28	1691.62
532.47	1808.36
532.67	1791.97
532.87	1771.49
533.07	1644.52
533.27	1789.92
533.46	1791.97
533.66	1771.49
533.86	1746.92
534.06	1744.87
534.26	1781.73
534.45	1701.86
534.65	1748.97
534.85	1671.14
535.05	1746.92
535.25	1789.92
535.44	1718.25
535.64	1740.77
535.84	1730.53
536.04	1728.49
536.24	1667.05
536.43	1615.85
536.63	1822.69
536.83	1726.44
537.03	1800.16
537.22	1638.38
537.42	1621.99
537.62	1783.78
537.82	1746.92
538.02	1814.50
538.21	1738.73
538.41	1834.98
538.61	1761.25
538.81	1730.53
539.00	1816.55
539.20	1675.24
539.40	1744.87
539.60	1761.25
539.79	1810.40
539.99	1806.31
540.19	1675.24
540.39	1722.34
540.58	1779.68
540.78	1810.40
540.98	1769.44
541.18	1798.12
541.37	1824.74
541.57	1787.88
541.77	1816.55
541.97	1724.39
542.16	1677.29
542.36	1695.72
542.56	1667.05
542.76	1820.64
542.95	1834.98
543.15	1808.36
543.35	1744.87
543.54	1697.77
543.74	1667.05
543.94	1708.01
544.14	1695.72
544.33	1724.39
544.53	1748.97
544.73	1755.11
544.93	1767.40
545.12	1769.44
545.32	1761.25
545.52	1685.48
545.71	1642.47
545.91	1679.33
546.11	1748.97
546.30	1759.21
546.50	1689.57
546.70	1808.36
546.90	1787.88
547.09	1646.57
547.29	1755.11
547.49	1761.25
547.68	1773.54
547.88	1726.44
548.08	1738.73
548.27	2242.53
548.47	1742.82
548.67	1695.72
548.87	1869.80
549.06	1779.68
549.26	1806.31
549.46	1697.77
549.65	1718.25
549.85	1804.26
550.05	1761.25
550.24	1605.61
550.44	1757.16
550.64	1724.39
550.83	1822.69
551.03	1812.45
551.23	1794.02
551.42	1775.59
551.62	1746.92
551.82	1843.17
552.01	1669.09
552.21	1783.78
552.41	1771.49
552.60	1853.41
552.80	1744.87
553.00	1710.05
553.19	1746.92
553.39	1892.32
553.59	1685.48
553.78	1732.58
553.98	1787.88
554.17	1742.82
554.37	1806.31
554.57	1816.55
554.76	1710.05
554.96	1652.71
555.16	1794.02
555.35	1804.26
555.55	1728.49
555.75	1751.01
555.94	1800.16
556.14	1695.72
556.33	1761.25
556.53	1781.73
556.73	1773.54
556.92	1779.68
557.12	1806.31
557.32	1855.46
557.51	1769.44
557.71	1810.40
557.90	1808.36
558.10	1773.54
558.30	1765.35
558.49	1767.40
558.69	1685.48
558.88	1720.29
559.08	1714.15
559.28	1732.58
559.47	1718.25
559.67	1789.92
559.86	1951.71
560.06	1761.25
560.26	1779.68
560.45	1796.07
560.65	1669.09
560.84	1806.31
561.04	1730.53
561.24	1771.49
561.43	1693.67
561.63	1806.31
561.82	1800.16
562.02	1769.44
562.22	1744.87
562.41	1710.05
562.61	1724.39
562.80	1722.34
563.00	1816.55
563.19	1736.68
563.39	1818.60
563.59	1751.01
563.78	1720.29
563.98	1722.34
564.17	1763.30
564.37	1621.99
564.56	1794.02
564.76	1644.52
564.96	1855.46
565.15	1755.11
565.35	1986.53
565.54	1755.11
565.74	1781.73
565.93	1746.92
566.13	1732.58
566.32	1761.25
566.52	1783.78
566.71	1724.39
566.91	1853.41
567.11	1712.10
567.30	1701.86
567.50	1761.25
567.69	1802.21
567.89	1708.01
568.08	1771.49
568.28	1683.43
568.47	1642.47
568.67	1748.97
568.86	1734.63
569.06	1851.36
569.25	1720.29
569.45	1734.63
569.64	1730.53
569.84	1697.77
570.04	1779.68
570.23	1617.90
570.43	1693.67
570.62	1834.98
570.82	1855.46
571.01	1718.25
571.21	1691.62
571.40	1730.53
571.60	1812.45
571.79	1734.63
571.99	1742.82
572.18	1691.62
572.38	1744.87
572.57	1642.47
572.77	1759.21
572.96	1918.95
573.16	1730.53
573.35	1728.49
573.55	1869.80
573.74	1767.40
573.94	1755.11
574.13	1742.82
574.33	1710.05
574.52	1853.41
574.71	1722.34
574.91	1773.54
575.10	1724.39
575.30	1724.39
575.49	1640.42
575.69	1726.44
575.88	1740.77
576.08	1734.63
576.27	1779.68
576.47	1693.67
576.66	1816.55
576.86	1796.07
577.05	1791.97
577.25	1789.92
577.44	1908.71
577.64	1697.77
577.83	1814.50
578.02	1775.59
578.22	1841.12
578.41	1886.18
578.61	1757.16
578.80	1677.29
579.00	1816.55
579.19	1773.54
579.39	1816.55
579.58	1810.40
579.77	1705.96
579.97	1806.31
580.16	1828.84
580.36	1796.07
580.55	1804.26
580.75	1791.97
580.94	1765.35
581.13	1847.27
581.33	1880.04
581.52	1847.27
581.72	1904.61
581.91	1857.51
582.11	1845.22
582.30	1726.44
582.49	1763.30
582.69	1845.22
582.88	1855.46
583.08	1714.15
583.27	1902.56
583.47	1785.83
583.66	1675.24
583.85	1689.57
584.05	1681.38
584.24	1726.44
584.44	1845.22
584.63	1822.69
584.82	1888.23
585.02	1800.16
585.21	1839.08
585.41	1898.47
585.60	1818.60
585.79	1964.00
585.99	1904.61
586.18	1910.75
586.37	2193.37
586.57	3313.61
586.76	9779.05
586.96	24221.33
587.15	33928.70
587.34	39812.51
587.54	41581.96
587.73	36023.77
587.93	26089.07
588.12	21235.39
588.31	18046.70
588.51	16101.13
588.70	14997.28
588.89	13897.52
589.09	12384.07
589.28	10782.56
589.47	9355.12
589.67	7872.39
589.86	6248.35
590.06	4921.27
590.25	3909.57
590.44	3039.19
590.64	2627.54
590.83	2240.48
591.02	2068.45
591.22	1894.37
591.41	1925.09
591.60	1869.80
591.80	1894.37
591.99	1781.73
592.18	1773.54
592.38	1832.93
592.57	1705.96
592.76	1785.83
592.96	1755.11
593.15	1751.01
593.34	1818.60
593.54	1685.48
593.73	1847.27
593.92	1710.05
594.12	1798.12
594.31	1787.88
594.50	1794.02
594.70	1845.22
594.89	1949.67
595.08	1681.38
595.28	1783.78
595.47	1945.57
595.66	1779.68
595.86	1738.73
596.05	1738.73
596.24	1771.49
596.43	1822.69
596.63	1773.54
596.82	1714.15
597.01	1763.30
597.21	1822.69
597.40	1781.73
597.59	1771.49
597.79	1771.49
597.98	1769.44
598.17	1617.90
598.36	1722.34
598.56	1773.54
598.75	1681.38
598.94	1675.24
599.14	1695.72
599.33	1734.63
599.52	1742.82
599.71	1738.73
599.91	1855.46
600.10	1767.40
600.29	1710.05
600.48	1720.29
600.68	1757.16
600.87	1712.10
601.06	1705.96
601.26	1849.32
601.45	1798.12
601.64	1691.62
601.83	1783.78
602.03	1675.24
602.22	1683.43
602.41	1837.03
602.60	1775.59
602.80	1740.77
602.99	1763.30
603.18	1701.86
603.37	1714.15
603.57	1716.20
603.76	1800.16
603.95	1736.68
604.14	1689.57
604.34	1728.49
604.53	1804.26
604.72	1677.29
604.91	1769.44
605.10	1826.79
605.30	1685.48
605.49	1798.12
605.68	1853.41
605.87	1820.64
606.07	1689.57
606.26	1791.97
606.45	1742.82
606.64	1769.44
606.84	1671.14
607.03	1771.49
607.22	1787.88
607.41	1632.23
607.60	1710.05
607.80	1818.60
607.99	1763.30
608.18	1699.81
608.37	1812.45
608.56	1667.05
608.76	1775.59
608.95	1916.90
609.14	1693.67
609.33	1726.44
609.52	1837.03
609.72	1679.33
609.91	1837.03
610.10	1773.54
610.29	1857.51
610.48	1755.11
610.68	1828.84
610.87	1855.46
611.06	1773.54
611.25	1751.01
611.44	1779.68
611.63	1685.48
611.83	1701.86
612.02	1699.81
612.21	1816.55
612.40	1619.94
612.59	1658.85
612.79	1660.90
612.98	1669.09
613.17	1890.28
613.36	1779.68
613.55	1888.23
613.74	1656.81
613.93	1697.77
614.13	1751.01
614.32	1765.35
614.51	1779.68
614.70	1761.25
614.89	1683.43
615.08	1726.44
615.28	1988.58
615.47	1624.04
615.66	1730.53
615.85	1718.25
616.04	1781.73
616.23	1660.90
616.42	1734.63
616.62	1759.21
616.81	1720.29
617.00	1834.98
617.19	1798.12
617.38	1722.34
617.57	1806.31
617.76	1759.21
617.95	1701.86
618.15	1812.45
618.34	1834.98
618.53	1640.42
618.72	1802.21
618.91	1810.40
619.10	1781.73
619.29	1755.11
619.48	1691.62
619.68	1681.38
619.87	1722.34
620.06	1689.57
620.25	1781.73
620.44	1771.49
620.63	1722.34
620.82	1771.49
621.01	1765.35
621.20	1787.88
621.39	1740.77
621.59	1806.31
621.78	1763.30
621.97	1724.39
622.16	1697.77
622.35	1751.01
622.54	1806.31
622.73	1820.64
622.92	1699.81
623.11	1800.16
623.30	1732.58
623.49	1787.88
623.68	1658.85
623.88	1771.49
624.07	1701.86
624.26	1773.54
624.45	1673.19
624.64	1683.43
624.83	1740.77
625.02	1712.10
625.21	1703.91
625.40	1736.68
625.59	1796.07
625.78	1761.25
625.97	1767.40
626.16	1804.26
626.35	1701.86
626.54	1691.62
626.74	1814.50
626.93	1746.92
627.12	1744.87
627.31	1808.36
627.50	1773.54
627.69	1828.84
627.88	1724.39
628.07	1787.88
628.26	1656.81
628.45	1701.86
628.64	1742.82
628.83	1658.85
629.02	1722.34
629.21	1773.54
629.40	1689.57
629.59	1621.99
629.78	1771.49
629.97	1714.15
630.16	1724.39
630.35	1734.63
630.54	1742.82
630.73	1685.48
630.92	1753.06
631.11	1789.92
631.30	1691.62
631.49	1810.40
631.68	1775.59
631.87	1781.73
632.06	1691.62
632.25	1908.71
632.44	1779.68
632.63	1740.77
632.82	1718.25
633.01	1714.15
633.20	1673.19
633.39	1665.00
633.58	1630.18
633.77	1751.01
633.96	1697.77
634.15	1791.97
634.34	1720.29
634.53	1710.05
634.72	1716.20
634.91	1556.46
635.10	1744.87
635.29	1796.07
635.48	1761.25
635.67	1691.62
635.86	1615.85
636.05	1779.68
636.24	1712.10
636.43	1734.63
636.62	1720.29
636.81	1556.46
637.00	1765.35
637.19	1734.63
637.38	1656.81
637.57	1738.73
637.76	1673.19
637.95	1724.39
638.14	1699.81
638.33	1662.95
638.52	1699.81
638.71	1675.24
638.89	1685.48
639.08	1837.03
639.27	1748.97
639.46	1697.77
639.65	1798.12
639.84	1787.88
640.03	1716.20
640.22	1695.72
640.41	1863.65
640.60	1746.92
640.79	1789.92
640.98	1683.43
641.17	1689.57
641.36	1755.11
641.55	1800.16
641.74	1675.24
641.92	1642.47
642.11	1732.58
642.30	1736.68
642.49	1615.85
642.68	1693.67
642.87	1761.25
643.06	1724.39
643.25	1777.64
643.44	1683.43
643.63	1701.86
643.82	1794.02
644.00	1701.86
644.19	1808.36
644.38	1685.48
644.57	1847.27
644.76	1675.24
644.95	1722.34
645.14	1691.62
645.33	1697.77
645.52	1681.38
645.71	1679.33
645.89	1685.48
646.08	1761.25
646.27	1738.73
646.46	1837.03
646.65	1665.00
646.84	1777.64
647.03	1566.70
647.22	1783.78
647.40	1675.24
647.59	1744.87
647.78	1603.56
647.97	1609.70
648.16	1640.42
648.35	1703.91
648.54	1841.12
648.73	1714.15
648.91	1761.25
649.10	1755.11
649.29	1656.81
649.48	1718.25
649.67	1775.59
649.86	1732.58
650.05	1673.19
650.23	1730.53
650.42	1701.86
650.61	1763.30
650.80	1734.63
650.99	1734.63
651.18	1757.16
651.36	1810.40
651.55	1683.43
651.74	1783.78
651.93	1652.71
652.12	1751.01
652.31	1722.34
652.49	1708.01
652.68	1695.72
652.87	1794.02
653.06	1779.68
653.25	1798.12
653.44	1734.63
653.62	1798.12
653.81	1726.44
654.00	1794.02
654.19	1767.40
654.38	1828.84
654.56	1701.86
654.75	1671.14
654.94	1757.16
655.13	1748.97
655.32	1671.14
655.51	1869.80
655.69	1701.86
655.88	1724.39
656.07	1634.28
656.26	1789.92
656.45	1662.95
656.63	1699.81
656.82	1791.97
657.01	1757.16
657.20	1699.81
657.38	1808.36
657.57	1683.43
657.76	1640.42
657.95	1824.74
658.14	1695.72
658.32	1662.95
658.51	1697.77
658.70	1742.82
658.89	1742.82
659.08	1685.48
659.26	1808.36
659.45	1685.48
659.64	1685.48
659.83	1724.39
660.01	1894.37
660.20	1691.62
660.39	1775.59
660.58	1630.18
660.76	1734.63
660.95	1619.94
661.14	1818.60
661.33	1576.94
661.51	1693.67
661.70	1679.33
661.89	1767.40
662.08	1730.53
662.26	1599.46
662.45	1683.43
662.64	1806.31
662.83	1791.97
663.01	1632.23
663.20	1669.09
663.39	1822.69
663.58	1738.73
663.76	1761.25
663.95	1699.81
664.14	1697.77
664.32	1722.34
664.51	1693.67
664.70	1662.95
664.89	1734.63
665.07	1693.67
665.26	1726.44
665.45	1683.43
665.64	1777.64
665.82	1679.33
666.01	1738.73
666.20	1660.90
666.38	1781.73
666.57	1779.68
666.76	2158.56
666.95	4577.21
667.13	10200.93
667.32	15085.34
667.51	17846.00
667.69	18849.50
667.88	17585.91
668.07	12365.64
668.25	9580.40
668.44	7966.60
668.63	7305.10
668.81	6776.73
669.00	6129.57
669.19	5752.74
669.38	4974.52
669.56	4640.70
669.75	3985.35
669.94	3325.90
670.12	2822.10
670.31	2623.45
670.50	2322.40
670.68	2103.26
670.87	1910.75
671.06	1810.40
671.24	1777.64
671.43	1841.12
671.62	1771.49
671.80	1779.68
671.99	1791.97
672.18	1708.01
672.36	1773.54
672.55	1808.36
672.74	1742.82
672.92	1689.57
673.11	1718.25
673.29	1615.85
673.48	1705.96
673.67	1740.77
673.85	1755.11
674.04	1658.85
674.23	1736.68
674.41	1855.46
674.60	1652.71
674.79	1689.57
674.97	1703.91
675.16	1812.45
675.34	1802.21
675.53	1669.09
675.72	1712.10
675.90	1830.88
676.09	1689.57
676.28	1759.21
676.46	1601.51
676.65	1783.78
676.83	1652.71
677.02	1724.39
677.21	1689.57
677.39	1730.53
677.58	1632.23
677.77	1673.19
677.95	1677.29
678.14	1695.72
678.32	1718.25
678.51	1687.53
678.70	1812.45
678.88	1740.77
679.07	1681.38
679.25	1753.06
679.44	1771.49
679.63	1728.49
679.81	1712.10
680.00	1812.45
680.18	1859.56
680.37	1757.16
680.55	1775.59
680.74	1710.05
680.93	1638.38
681.11	1656.81
681.30	1650.66
681.48	1716.20
681.67	1759.21
681.85	1759.21
682.04	1683.43
682.23	1796.07
682.41	1748.97
682.60	1767.40
682.78	1775.59
682.97	1658.85
683.15	1734.63
683.34	1740.77
683.53	1755.11
683.71	1601.51
683.90	1794.02
684.08	1765.35
684.27	1763.30
684.45	1691.62
684.64	1763.30
684.82	1738.73
685.01	1695.72
685.19	1767.40
685.38	1771.49
685.57	1705.96
685.75	1705.96
685.94	1673.19
686.12	1636.33
686.31	1689.57
686.49	1814.50
686.68	1636.33
686.86	1853.41
687.05	1693.67
687.23	1857.51
687.42	1626.09
687.60	1578.98
687.79	1722.34
687.97	1736.68
688.16	1785.83
688.34	1767.40
688.53	1574.89
688.71	1712.10
688.90	1818.60
689.08	1703.91
689.27	1581.03
689.45	1759.21
689.64	1791.97
689.82	1730.53
690.01	1804.26
690.19	1716.20
690.38	1746.92
690.56	1800.16
690.75	1646.57
690.93	1562.60
691.12	1636.33
691.30	1695.72
691.49	1660.90
691.67	1705.96
691.86	1734.63
692.04	1722.34
692.23	1710.05
692.41	1640.42
692.60	1820.64
692.78	1800.16
692.97	1742.82
693.15	1728.49
693.34	1859.56
693.52	1814.50
693.71	1630.18
693.89	1628.14
694.08	1654.76
694.26	1783.78
694.44	1818.60
694.63	1730.53
694.81	1611.75
695.00	1689.57
695.18	1779.68
695.37	1886.18
695.55	1791.97
695.74	1675.24
695.92	1671.14
696.10	1703.91
696.29	1624.04
696.47	1734.63
696.66	1634.28
696.84	1701.86
697.03	1669.09
697.21	1810.40
697.40	2330.59
697.58	1755.11
697.76	1753.06
697.95	1695.72
698.13	1632.23
698.32	1693.67
698.50	1683.43
698.68	1734.63
698.87	1728.49
699.05	1810.40
699.24	1732.58
699.42	1652.71
699.61	1689.57
699.79	1705.96
699.97	1683.43
700.16	1638.38
700.34	1665.00
700.53	1679.33
700.71	1816.55
700.89	1724.39
701.08	1708.01
701.26	1734.63
701.45	2080.74
701.63	1734.63
701.81	1722.34
702.00	1671.14
702.18	1642.47
702.37	1632.23
702.55	1791.97
702.73	1728.49
702.92	1679.33
703.10	1691.62
703.28	1740.77
703.47	1718.25
703.65	1773.54
703.84	1740.77
704.02	1648.61
704.20	1781.73
704.39	1714.15
704.57	1689.57
704.75	1767.40
704.94	1769.44
705.12	1830.88
705.30	1814.50
705.49	2203.61
705.67	4202.43
705.86	9265.01
706.04	12535.62
706.22	14362.40
706.41	15134.49
706.59	13440.82
706.77	9514.86
706.96	7227.28
707.14	6498.20
707.32	5863.33
707.51	5492.65
707.69	4777.91
707.87	4257.73
708.06	3528.65
708.24	2928.60
708.42	2441.18
708.61	2230.24
708.79	1845.22
708.97	1857.51
709.16	1875.94
709.34	1832.93
709.52	1771.49
709.71	1726.44
709.89	1847.27
710.07	1681.38
710.26	1660.90
710.44	1722.34
710.62	1826.79
710.80	1722.34
710.99	1755.11
711.17	1783.78
711.35	1669.09
711.54	1667.05
711.72	1718.25
711.90	1734.63
712.09	1722.34
712.27	1685.48
712.45	1767.40
712.63	1673.19
712.82	1703.91
713.00	1757.16
713.18	1726.44
713.37	1789.92
713.55	1779.68
713.73	1724.39
713.91	1720.29
714.10	1703.91
714.28	1624.04
714.46	1683.43
714.65	1847.27
714.83	1753.06
715.01	1718.25
715.19	1708.01
715.38	1677.29
715.56	1812.45
715.74	1699.81
715.92	1624.04
716.11	1763.30
716.29	1679.33
716.47	1689.57
716.65	1708.01
716.84	1621.99
717.02	1757.16
717.20	1634.28
717.38	1691.62
717.57	1667.05
717.75	1761.25
717.93	1738.73
718.11	1755.11
718.30	1669.09
718.48	1779.68
718.66	1804.26
718.84	1789.92
719.03	1705.96
719.21	1689.57
719.39	1818.60
719.57	1734.63
719.75	1710.05
719.94	1671.14
720.12	1712.10
720.30	1722.34
720.48	1785.83
720.67	1673.19
720.85	1667.05
721.03	1699.81
721.21	1746.92
721.39	1767.40
721.58	1775.59
721.76	1742.82
721.94	1781.73
722.12	1798.12
722.30	1853.41
722.49	1724.39
722.67	1714.15
722.85	1685.48
723.03	1613.80
723.21	1693.67
723.40	1726.44
723.58	1763.30
723.76	1712.10
723.94	1771.49
724.12	1697.77
724.30	1746.92
724.49	1771.49
724.67	1658.85
724.85	1814.50
725.03	1632.23
725.21	1855.46
725.40	1759.21
725.58	1740.77
725.76	1812.45
725.94	1720.29
726.12	1699.81
726.30	1669.09
726.49	1742.82
726.67	1759.21
726.85	1771.49
727.03	1789.92
727.21	2140.13
727.39	2934.74
727.57	3815.37
727.76	4214.72
727.94	4485.05
728.12	4409.28
728.30	3715.02
728.48	2967.51
728.66	2680.79
728.84	2529.24
729.03	2279.39
729.21	2127.84
729.39	2039.78
729.57	1910.75
729.75	1820.64
729.93	1855.46
730.11	1699.81
730.30	1699.81
730.48	1722.34
730.66	1748.97
730.84	1767.40
731.02	1714.15
731.20	1671.14
731.38	1738.73
731.56	1640.42
731.74	1701.86
731.93	1763.30
732.11	1738.73
732.29	1646.57
732.47	1779.68
732.65	1685.48
732.83	1703.91
733.01	1701.86
733.19	1728.49
733.37	1751.01
733.56	1710.05
733.74	1695.72
733.92	1814.50
734.10	1626.09
734.28	1720.29
734.46	1619.94
734.64	1710.05
734.82	1718.25
735.00	1683.43
735.18	1605.61
735.36	1757.16
735.54	1703.91
735.73	1660.90
735.91	1769.44
736.09	1771.49
736.27	1636.33
736.45	1748.97
736.63	1613.80
736.81	1675.24
736.99	1732.58
737.17	1830.88
737.35	1624.04
737.53	1767.40
737.71	1630.18
737.89	1789.92
738.07	1699.81
738.25	1667.05
738.43	1650.66
738.61	1691.62
738.80	1634.28
738.98	1701.86
739.16	1779.68
739.34	1642.47
739.52	1783.78
739.70	1705.96
739.88	1763.30
740.06	1683.43
740.24	1617.90
740.42	1699.81
740.60	1609.70
740.78	1755.11
740.96	1611.75
741.14	1671.14
741.32	1705.96
741.50	1648.61
741.68	1855.46
741.86	1781.73
742.04	1681.38
742.22	1611.75
742.40	1738.73
742.58	1726.44
742.76	1665.00
742.94	1777.64
743.12	1626.09
743.30	1683.43
743.48	1771.49
743.66	1619.94
743.84	1730.53
744.02	1779.68
744.20	1677.29
744.38	1665.00
744.56	1609.70
744.74	1742.82
744.92	1765.35
745.10	1732.58
745.28	1759.21
745.46	1834.98
745.64	1775.59
745.82	1808.36
746.00	1722.34
746.18	1677.29
746.36	1632.23
746.54	1804.26
746.72	1632.23
746.90	1660.90
747.08	1837.03
747.26	1671.14
747.44	1800.16
747.62	1763.30
747.80	1742.82
747.98	1718.25
748.15	1701.86
748.33	1759.21
748.51	1699.81
748.69	1757.16
748.87	1578.98
749.05	1783.78
749.23	1691.62
749.41	1767.40
749.59	1675.24
749.77	1724.39
749.95	1658.85
750.13	1726.44
750.31	1765.35
750.49	1730.53
750.67	1751.01
750.85	1837.03
751.03	1724.39
751.20	1824.74
751.38	1748.97
751.56	1613.80
751.74	1685.48
751.92	1718.25
752.10	1603.56
752.28	1724.39
752.46	1671.14
752.64	1738.73
752.82	1732.58
753.00	1761.25
753.18	1607.66
753.35	1722.34
753.53	1744.87
753.71	1730.53
753.89	1683.43
754.07	1701.86
754.25	1705.96
754.43	1775.59
754.61	1673.19
754.79	1738.73
754.97	1685.48
755.14	1812.45
755.32	1728.49
755.50	1775.59
755.68	1724.39
755.86	1656.81
756.04	1742.82
756.22	1648.61
756.40	1697.77
756.57	1943.52
756.75	1720.29
756.93	1791.97
757.11	1843.17
757.29	1621.99
757.47	1693.67
757.65	1630.18
757.82	1626.09
758.00	1638.38
758.18	1693.67
758.36	1697.77
758.54	1816.55
758.72	1587.18
758.90	1767.40
759.07	1732.58
759.25	1642.47
759.43	1759.21
759.61	1638.38
759.79	2295.77
759.97	1771.49
760.15	1703.91
760.32	1683.43
760.50	1732.58
760.68	1808.36
760.86	1626.09
761.04	1779.68
761.22	1773.54
761.39	1777.64
761.57	1783.78
761.75	1722.34
761.93	1697.77
762.11	1683.43
762.28	1722.34
762.46	1734.63
762.64	1755.11
762.82	1617.90
763.00	1665.00
763.18	1748.97
763.35	1650.66
763.53	1783.78
763.71	1759.21
763.89	1665.00
764.07	1763.30
764.24	1703.91
764.42	1693.67
764.60	1675.24
764.78	1701.86
764.96	1796.07
765.13	1755.11
765.31	1740.77
765.49	1804.26
765.67	1658.85
765.84	1662.95
766.02	1691.62
766.20	1593.32
766.38	1665.00
766.56	1740.77
766.73	1712.10
766.91	1673.19
767.09	1687.53
767.27	1722.34
767.44	1624.04
767.62	1712.10
767.80	1689.57
767.98	1701.86
768.15	1716.20
768.33	1730.53
768.51	1789.92
768.69	1787.88
768.87	1765.35
769.04	1693.67
769.22	1828.84
769.40	1779.68
769.58	1812.45
769.75	1732.58
769.93	1751.01
770.11	1646.57
770.28	1701.86
770.46	1847.27
770.64	1726.44
770.82	1697.77
770.99	1681.38
771.17	1705.96
771.35	1710.05
771.53	1759.21
771.70	1665.00
771.88	1701.86
772.06	1724.39
772.23	1744.87
772.41	1691.62
772.59	1697.77
772.77	1683.43
772.94	1685.48
773.12	1708.01
773.30	1646.57
773.47	1732.58
773.65	1648.61
773.83	1765.35
774.01	1716.20
774.18	1615.85
774.36	1724.39
774.54	1671.14
774.71	1757.16
774.89	1646.57
775.07	1572.84
775.24	1689.57
775.42	1673.19
775.60	1877.99
775.78	1673.19
775.95	1597.42
776.13	1540.07
776.31	1669.09
776.48	1730.53
776.66	1791.97
776.84	1611.75
777.01	1605.61
777.19	1615.85
777.37	1669.09
777.54	1738.73
777.72	1812.45
777.90	1689.57
778.07	1665.00
778.25	1871.84
778.43	1798.12
778.60	1734.63
778.78	1728.49
778.96	1837.03
779.13	1703.91
779.31	1744.87
779.49	1695.72
779.66	1742.82
779.84	1712.10
780.01	1708.01
780.19	1601.51
780.37	1814.50
780.54	1689.57
780.72	1687.53
780.90	1701.86
781.07	1726.44
781.25	1603.56
781.43	1755.11
781.60	1701.86
781.78	1861.60
781.95	1730.53
782.13	1744.87
782.31	1724.39
782.48	1660.90
782.66	1810.40
782.83	1826.79
783.01	1748.97
783.19	1763.30
783.36	1669.09
783.54	1693.67
783.72	1818.60
783.89	1697.77
784.07	1687.53
784.24	1691.62
784.42	1787.88
784.60	1734.63
784.77	1757.16
784.95	1611.75
785.12	1654.76
785.30	1710.05
785.47	1697.77
785.65	1728.49
785.83	1679.33
786.00	1669.09
786.18	1720.29
786.35	1658.85
786.53	1687.53
786.71	1726.44
786.88	1644.52
787.06	1742.82
787.23	1630.18
787.41	1660.90
787.58	1697.77
787.76	1652.71
787.94	1687.53
788.11	1703.91
788.29	1699.81
788.46	1615.85
788.64	1683.43
788.81	1699.81
788.99	1650.66
789.16	1599.46
789.34	1755.11
789.52	1613.80
789.69	1675.24
789.87	1621.99
790.04	1677.29
790.22	1718.25
790.39	1779.68
790.57	1662.95
790.74	1669.09
790.92	1765.35
791.09	1642.47
791.27	1708.01
791.44	1814.50
791.62	1605.61
791.79	1757.16
791.97	1626.09
792.15	1869.80
792.32	1730.53
792.50	1720.29
792.67	1767.40
792.85	1765.35
793.02	1724.39
793.20	1615.85
793.37	1628.14
793.55	1736.68
793.72	1607.66
793.90	1716.20
794.07	1673.19
794.25	1751.01
794.42	1628.14
794.60	1730.53
794.77	1720.29
794.95	1722.34
795.12	1724.39
795.30	1644.52
795.47	1566.70
795.65	1877.99
795.82	1718.25
796.00	1759.21
796.17	1632.23
796.34	1679.33
796.52	1710.05
796.69	1693.67
796.87	1783.78
797.04	1673.19
797.22	1777.64
797.39	1763.30
797.57	1720.29
797.74	1746.92
797.92	1695.72
798.09	1662.95
798.27	1753.06
798.44	1785.83
798.62	1658.85
798.79	1736.68
798.96	1705.96
799.14	1765.35
799.31	1861.60
799.49	1730.53
799.66	1628.14
799.84	1730.53
800.01	1669.09
800.19	1746.92
800.36	1562.60
800.53	1722.34
800.71	1677.29
800.88	1783.78
801.06	1646.57
801.23	1648.61
801.41	1683.43
801.58	1675.24
801.75	1705.96
801.93	1673.19
802.10	1675.24
802.28	1624.04
802.45	1628.14
802.63	1746.92
802.80	1783.78
802.97	1689.57
803.15	1789.92
803.32	1724.39
803.50	1685.48
803.67	1640.42
803.84	1648.61
804.02	1720.29
804.19	1675.24
804.37	1691.62
804.54	1685.48
804.71	1658.85
804.89	1767.40
805.06	1652.71
805.24	1656.81
805.41	1648.61
805.58	1599.46
805.76	1806.31
805.93	1716.20
806.10	1765.35
806.28	1683.43
806.45	1675.24
806.63	1701.86
806.80	1710.05
806.97	1730.53
807.15	1673.19
807.32	1708.01
807.49	1685.48
807.67	1570.79
807.84	1705.96
808.01	1658.85
808.19	1791.97
808.36	1931.23
808.54	1638.38
808.71	1689.57
808.88	1662.95
809.06	1738.73
809.23	1796.07
809.40	1714.15
809.58	1877.99
809.75	1703.91
809.92	1626.09
810.10	1789.92
810.27	1738.73
810.44	1746.92
810.62	1755.11
810.79	1724.39
810.96	1621.99
811.14	1615.85
811.31	1730.53
811.48	1796.07
811.66	1726.44
811.83	1728.49
812.00	1693.67
812.18	1734.63
812.35	1830.88
812.52	1671.14
812.69	1667.05
812.87	1646.57
813.04	1628.14
813.21	1748.97
813.39	1716.20
813.56	1578.98
813.73	1783.78
813.91	1562.60
814.08	1630.18
814.25	1740.77
814.42	1660.90
814.60	1665.00
814.77	1656.81
814.94	1675.24
815.12	1716.20
815.29	1783.78
815.46	1671.14
815.63	1765.35
815.81	1730.53
815.98	1689.57
816.15	1658.85
816.33	1738.73
816.50	1693.67
816.67	1658.85
816.84	1722.34
817.02	1587.18
817.19	1708.01
817.36	1755.11
817.53	1722.34
817.71	1681.38
817.88	1685.48
818.05	1699.81
818.22	1714.15
818.40	1918.95
818.57	1658.85
818.74	1773.54
818.91	1683.43
819.09	1820.64
819.26	1687.53
819.43	1658.85
819.60	1703.91
819.78	1734.63
819.95	1767.40
820.12	1699.81
820.29	1791.97
820.47	1781.73
820.64	1660.90
820.81	1759.21
820.98	1621.99
821.15	1697.77
821.33	1740.77
821.50	1673.19
821.67	1798.12
821.84	1646.57
822.02	1726.44
822.19	1718.25
822.36	1699.81
822.53	1779.68
822.70	1685.48
822.88	1738.73
823.05	1773.54
823.22	1656.81
823.39	1714.15
823.56	1726.44
823.74	1763.30
823.91	1691.62
824.08	1681.38
824.25	1576.94
824.42	1755.11
824.60	1679.33
824.77	1708.01
824.94	1675.24
825.11	1669.09
825.28	1628.14
825.45	1650.66
825.63	1796.07
825.80	1630.18
825.97	1693.67
826.14	1742.82
826.31	1648.61
826.48	1816.55
826.66	1654.76
826.83	1724.39
827.00	1701.86
827.17	1644.52
827.34	1730.53
827.51	1634.28
827.69	1708.01
827.86	1673.19
828.03	1701.86
828.20	1699.81
828.37	1697.77
828.54	1763.30
828.71	1662.95
828.89	1818.60
829.06	1748.97
829.23	1761.25
829.40	1615.85
829.57	1665.00
829.74	1710.05
829.91	1603.56
830.09	1654.76
830.26	1773.54
830.43	1726.44
830.60	1677.29
830.77	1687.53
830.94	1746.92
831.11	1779.68
831.28	1722.34
831.46	1789.92
831.63	1673.19
831.80	1632.23
831.97	1677.29
832.14	1701.86
832.31	1746.92
832.48	1662.95
832.65	1791.97
832.82	1652.71
832.99	1724.39
833.17	1697.77
833.34	1755.11
833.51	1728.49
833.68	1669.09
833.85	1853.41
834.02	1697.77
834.19	1681.38
834.36	1642.47
834.53	1703.91
834.70	1740.77
834.87	1710.05
835.04	1703.91
835.22	1636.33
835.39	1708.01
835.56	1654.76
835.73	1693.67
835.90	1722.34
836.07	1699.81
836.24	1708.01
836.41	1660.90
836.58	1644.52
836.75	1767.40
836.92	1738.73
837.09	1648.61
837.26	1769.44
837.43	1734.63
837.60	1718.25
837.77	1646.57
837.94	1708.01
838.12	1759.21
838.29	1759.21
838.46	1611.75
838.63	1572.84
838.80	1685.48
838.97	1753.06
839.14	1705.96
839.31	1683.43
839.48	1759.21
839.65	1748.97
839.82	1824.74
839.99	1738.73
840.16	1683.43
840.33	1708.01
840.50	1755.11
840.67	1642.47
840.84	1544.17
841.01	1654.76
841.18	1591.27
841.35	1695.72
841.52	1738.73
841.69	1857.51
841.86	1660.90
842.03	1714.15
842.20	1761.25
842.37	1681.38
842.54	1681.38
842.71	1763.30
842.88	1570.79
843.05	1693.67
843.22	1673.19
843.39	1802.21
843.56	1658.85
843.73	1716.20
843.90	1632.23
844.07	1691.62
844.24	1789.92
844.41	1714.15
844.58	1742.82
844.75	1724.39
844.92	1720.29
845.09	1630.18
845.26	1615.85
845.43	1769.44
845.60	1662.95
845.77	1800.16
845.94	1751.01
846.10	1753.06
846.27	1601.51
846.44	1636.33
846.61	1697.77
846.78	1740.77
846.95	1730.53
847.12	1699.81
847.29	1724.39
847.46	1669.09
847.63	1773.54
847.80	1695.72
847.97	1722.34
848.14	1798.12
848.31	1640.42
848.48	1697.77
848.65	1722.34
848.82	1712.10
848.98	1888.23
849.15	1789.92
849.32	1669.09
849.49	1810.40
849.66	1759.21
849.83	1746.92
850.00	1619.94
850.17	1716.20
850.34	1697.77
850.51	1681.38
850.68	1730.53
850.85	1818.60
851.01	1677.29
851.18	1740.77
851.35	1665.00
851.52	1697.77
851.69	1761.25
851.86	1540.07
852.03	1615.85
852.20	1732.58
852.37	1652.71
852.53	1665.00
852.70	1671.14
852.87	1736.68
853.04	1789.92
853.21	1689.57
853.38	1789.92
853.55	1755.11
853.72	1814.50
853.89	1679.33
854.05	1593.32
854.22	1665.00
854.39	1738.73
854.56	1810.40
854.73	1816.55
854.90	1671.14
855.07	1671.14
855.23	1656.81
855.40	1681.38
855.57	1722.34
855.74	1525.74
855.91	1877.99
856.08	1667.05
856.25	1683.43
856.41	1681.38
856.58	1665.00
856.75	1710.05
856.92	1611.75
857.09	1744.87
857.26	1628.14
857.42	1712.10
857.59	1753.06
857.76	1605.61
857.93	1636.33
858.10	1710.05
858.27	1667.05
858.43	1624.04
858.60	1708.01
858.77	1523.69
858.94	1673.19
859.11	1773.54
859.27	1712.10
859.44	1712.10
859.61	1830.88
859.78	1751.01
859.95	1757.16
860.12	1708.01
860.28	1751.01
860.45	1816.55
860.62	1599.46
860.79	1718.25
860.95	1669.09
861.12	1695.72
861.29	1695.72
861.46	1656.81
861.63	1671.14
861.79	1636.33
861.96	1757.16
862.13	1687.53
862.30	1787.88
862.47	1687.53
862.63	1642.47
862.80	1775.59
862.97	1742.82
863.14	1705.96
863.30	1787.88
863.47	1656.81
863.64	1710.05
863.81	1701.86
863.97	1730.53
864.14	1734.63
864.31	1691.62
864.48	1689.57
864.65	1708.01
864.81	1726.44
864.98	1763.30
865.15	1796.07
865.32	1730.53
865.48	1751.01
865.65	1808.36
865.82	1710.05
865.98	1765.35
866.15	1708.01
866.32	1765.35
866.49	1660.90
866.65	1796.07
866.82	1671.14
866.99	1744.87
867.16	1703.91
867.32	1673.19
867.49	1763.30
867.66	1730.53
867.83	1691.62
867.99	1656.81
868.16	1681.38
868.33	1671.14
868.49	1667.05
868.66	1701.86
868.83	1726.44
868.99	1714.15
869.16	1724.39
869.33	1767.40
869.50	1701.86
869.66	1712.10
869.83	1681.38
870.00	1638.38
870.16	1798.12
870.33	1701.86
870.50	1697.77
870.66	1716.20
870.83	1789.92
871.00	1691.62
871.17	1746.92
871.33	1722.34
871.50	1679.33
871.67	1697.77
871.83	1630.18
872.00	1777.64
872.17	1669.09
872.33	1759.21
872.50	1718.25
872.67	1746.92
872.83	1703.91
873.00	1705.96
873.17	1632.23
873.33	1804.26
873.50	1748.97
873.67	1679.33
873.83	1689.57
874.00	1689.57
874.16	1689.57
874.33	1757.16
874.50	1677.29
874.66	1775.59
874.83	1705.96
875.00	1738.73
875.16	1775.59
875.33	1775.59
875.50	1626.09
875.66	1667.05
875.83	1701.86
875.99	1669.09
876.16	1734.63
876.33	1701.86
876.49	1703.91
876.66	1767.40
876.83	1689.57
876.99	1681.38
877.16	1679.33
877.32	1644.52
877.49	1662.95
877.66	1712.10
877.82	1845.22
877.99	1697.77
878.15	1685.48
878.32	1634.28
878.49	1687.53
878.65	1697.77
878.82	1738.73
878.98	1716.20
879.15	1814.50
879.32	1769.44
879.48	1701.86
879.65	1724.39
879.81	1675.24
879.98	1615.85
880.15	1642.47
880.31	1763.30
880.48	1671.14
880.64	1710.05
880.81	1738.73
880.97	1808.36
881.14	1804.26
881.31	1665.00
881.47	1853.41
881.64	1646.57
881.80	1626.09
881.97	1730.53
882.13	1683.43
882.30	1595.37
882.47	1656.81
882.63	1687.53
882.80	1660.90
882.96	1638.38
883.13	1689.57
883.29	1800.16
883.46	1714.15
883.62	1769.44
883.79	1685.48
883.95	1738.73
884.12	1734.63
884.29	1857.51
884.45	1755.11
884.62	1804.26
884.78	1593.32
884.95	1908.71
885.11	1558.50
885.28	1656.81
885.44	1652.71
885.61	1751.01
885.77	1738.73
885.94	1767.40
886.10	1701.86
886.27	1619.94
886.43	1773.54
886.60	1757.16
886.76	1742.82
886.93	1669.09
887.09	1742.82
887.26	1658.85
887.42	1751.01
887.59	1744.87
887.75	1843.17
887.92	1802.21
888.08	1779.68
888.25	1798.12
888.41	1724.39
888.58	1673.19
888.74	1753.06
888.91	1665.00
>>>>>End Processed Spectral Data<<<<<
