SpectraSuite Data File
++++++++++++++++++++++++++++++++++++
Date: Mon Jun 06 13:19:37 CEST 2016
User: root
Dark Spectrum Present: No
Reference Spectrum Present: No
Number of Sampled Component Spectra: 1
Spectrometers: USB4C02835
Integration Time (usec): 100000 (USB4C02835)
Spectra Averaged: 1 (USB4C02835)
Boxcar Smoothing: 0 (USB4C02835)
Correct for Electrical Dark: No (USB4C02835)
Strobe/Lamp Enabled: No (USB4C02835)
Correct for Detector Non-linearity: No (USB4C02835)
Correct for Stray Light: No (USB4C02835)
Number of Pixels in Processed Spectrum: 3648
>>>>>Begin Processed Spectral Data<<<<<
177.47	1472.49
177.69	1472.49
177.91	1472.49
178.13	1587.18
178.36	1423.34
178.58	1648.61
178.80	1687.53
179.02	1636.33
179.24	1644.52
179.46	1611.75
179.68	1761.25
179.90	1701.86
180.13	1605.61
180.35	1675.24
180.57	1665.00
180.79	1761.25
181.01	1724.39
181.23	1746.92
181.45	1662.95
181.67	1673.19
181.90	1812.45
182.12	1701.86
182.34	1665.00
182.56	1642.47
182.78	1681.38
183.00	1710.05
183.22	1701.86
183.44	1609.70
183.66	1828.84
183.89	1808.36
184.11	1714.15
184.33	1697.77
184.55	1767.40
184.77	1689.57
184.99	1677.29
185.21	1703.91
185.43	1787.88
185.65	1656.81
185.87	1714.15
186.10	1920.99
186.32	1796.07
186.54	1724.39
186.76	1689.57
186.98	1679.33
187.20	1708.01
187.42	1679.33
187.64	1701.86
187.86	1718.25
188.08	1771.49
188.30	1675.24
188.52	1652.71
188.75	1800.16
188.97	1794.02
189.19	1689.57
189.41	1736.68
189.63	1751.01
189.85	1642.47
190.07	1607.66
190.29	1671.14
190.51	1748.97
190.73	1611.75
190.95	1773.54
191.17	1804.26
191.39	1644.52
191.61	1607.66
191.84	1685.48
192.06	1697.77
192.28	1572.84
192.50	1812.45
192.72	1759.21
192.94	1699.81
193.16	1746.92
193.38	1718.25
193.60	1607.66
193.82	1679.33
194.04	1773.54
194.26	1687.53
194.48	1714.15
194.70	1662.95
194.92	1687.53
195.14	1820.64
195.36	1626.09
195.58	1720.29
195.80	1689.57
196.02	1613.80
196.24	1679.33
196.46	1744.87
196.69	1671.14
196.91	1871.84
197.13	1724.39
197.35	1701.86
197.57	1800.16
197.79	1736.68
198.01	1710.05
198.23	1746.92
198.45	1722.34
198.67	1689.57
198.89	1699.81
199.11	1738.73
199.33	1681.38
199.55	1624.04
199.77	1767.40
199.99	1796.07
200.21	1724.39
200.43	1744.87
200.65	1609.70
200.87	1599.46
201.09	1699.81
201.31	1667.05
201.53	1787.88
201.75	1693.67
201.97	1646.57
202.19	1691.62
202.41	1722.34
202.63	1800.16
202.85	1665.00
203.07	1689.57
203.29	1751.01
203.51	1658.85
203.73	1630.18
203.95	1880.04
204.17	1646.57
204.39	1671.14
204.61	1642.47
204.83	1648.61
205.05	1710.05
205.27	1775.59
205.49	1787.88
205.71	1685.48
205.93	1681.38
206.15	1656.81
206.37	1724.39
206.59	1714.15
206.81	1656.81
207.03	1691.62
207.25	1689.57
207.47	1734.63
207.69	1740.77
207.91	1769.44
208.13	1740.77
208.34	1587.18
208.56	1646.57
208.78	1716.20
209.00	1728.49
209.22	1566.70
209.44	1660.90
209.66	1544.17
209.88	1632.23
210.10	1730.53
210.32	1632.23
210.54	1781.73
210.76	1619.94
210.98	1779.68
211.20	1652.71
211.42	1683.43
211.64	1736.68
211.86	1726.44
212.08	1771.49
212.30	1703.91
212.52	1710.05
212.74	1732.58
212.96	1677.29
213.17	1728.49
213.39	1728.49
213.61	1837.03
213.83	1744.87
214.05	1609.70
214.27	1742.82
214.49	1665.00
214.71	1667.05
214.93	1679.33
215.15	1726.44
215.37	1718.25
215.59	1652.71
215.81	1738.73
216.03	1796.07
216.24	1681.38
216.46	1712.10
216.68	1650.66
216.90	1742.82
217.12	1777.64
217.34	1667.05
217.56	1693.67
217.78	1748.97
218.00	1683.43
218.22	1703.91
218.44	1751.01
218.66	1746.92
218.87	1738.73
219.09	1673.19
219.31	1759.21
219.53	1718.25
219.75	1703.91
219.97	1714.15
220.19	1767.40
220.41	1708.01
220.63	1751.01
220.85	1675.24
221.06	1697.77
221.28	1742.82
221.50	1708.01
221.72	1728.49
221.94	1685.48
222.16	1699.81
222.38	1667.05
222.60	1746.92
222.82	1658.85
223.03	1746.92
223.25	1634.28
223.47	1705.96
223.69	1718.25
223.91	1730.53
224.13	1701.86
224.35	1621.99
224.57	1720.29
224.78	1703.91
225.00	1703.91
225.22	1755.11
225.44	1650.66
225.66	1767.40
225.88	1640.42
226.10	1804.26
226.32	1759.21
226.53	1773.54
226.75	1646.57
226.97	1763.30
227.19	1724.39
227.41	1660.90
227.63	1660.90
227.85	1544.17
228.06	1621.99
228.28	1656.81
228.50	1730.53
228.72	1617.90
228.94	1697.77
229.16	1611.75
229.37	1624.04
229.59	1671.14
229.81	1775.59
230.03	1607.66
230.25	1697.77
230.47	1665.00
230.69	1628.14
230.90	1675.24
231.12	1628.14
231.34	1658.85
231.56	1673.19
231.78	1705.96
232.00	1703.91
232.21	1697.77
232.43	1642.47
232.65	1621.99
232.87	1802.21
233.09	1656.81
233.30	1681.38
233.52	1761.25
233.74	1652.71
233.96	1708.01
234.18	1703.91
234.40	1624.04
234.61	1804.26
234.83	1607.66
235.05	1658.85
235.27	1802.21
235.49	1837.03
235.70	1671.14
235.92	1765.35
236.14	1769.44
236.36	1923.04
236.58	1755.11
236.79	1740.77
237.01	1667.05
237.23	1679.33
237.45	1769.44
237.67	1681.38
237.88	1738.73
238.10	1843.17
238.32	1591.27
238.54	1705.96
238.76	1687.53
238.97	1648.61
239.19	1685.48
239.41	1724.39
239.63	1665.00
239.85	1708.01
240.06	1685.48
240.28	1601.51
240.50	1746.92
240.72	1679.33
240.93	1701.86
241.15	1783.78
241.37	1601.51
241.59	1695.72
241.81	1742.82
242.02	1722.34
242.24	1759.21
242.46	1740.77
242.68	1685.48
242.89	1669.09
243.11	1695.72
243.33	1636.33
243.55	1806.31
243.76	1703.91
243.98	1677.29
244.20	1685.48
244.42	1765.35
244.64	1634.28
244.85	1578.98
245.07	1652.71
245.29	1699.81
245.51	1769.44
245.72	1728.49
245.94	1826.79
246.16	1697.77
246.38	1730.53
246.59	1667.05
246.81	1697.77
247.03	1650.66
247.24	1595.37
247.46	1701.86
247.68	1693.67
247.90	1634.28
248.11	1650.66
248.33	1796.07
248.55	1544.17
248.77	1705.96
248.98	1730.53
249.20	1759.21
249.42	1691.62
249.64	1751.01
249.85	1779.68
250.07	1630.18
250.29	1671.14
250.50	1738.73
250.72	1593.32
250.94	1693.67
251.16	1775.59
251.37	1740.77
251.59	1748.97
251.81	1779.68
252.02	1767.40
252.24	1695.72
252.46	1718.25
252.68	1753.06
252.89	1636.33
253.11	1665.00
253.33	1740.77
253.54	1742.82
253.76	1591.27
253.98	1726.44
254.20	1650.66
254.41	1652.71
254.63	1656.81
254.85	1632.23
255.06	1638.38
255.28	1755.11
255.50	1650.66
255.71	1597.42
255.93	1714.15
256.15	1724.39
256.36	1734.63
256.58	1730.53
256.80	1697.77
257.02	1705.96
257.23	1681.38
257.45	1748.97
257.67	1714.15
257.88	1708.01
258.10	1669.09
258.32	1662.95
258.53	1617.90
258.75	1783.78
258.97	1632.23
259.18	1720.29
259.40	1710.05
259.62	1822.69
259.83	1828.84
260.05	1767.40
260.27	1980.39
260.48	1708.01
260.70	1562.60
260.92	1701.86
261.13	1708.01
261.35	1695.72
261.57	1705.96
261.78	1617.90
262.00	1624.04
262.22	1677.29
262.43	1665.00
262.65	1642.47
262.86	1697.77
263.08	1740.77
263.30	1691.62
263.51	1605.61
263.73	1687.53
263.95	1861.60
264.16	1583.08
264.38	1656.81
264.60	1771.49
264.81	1687.53
265.03	1847.27
265.25	1783.78
265.46	1644.52
265.68	1712.10
265.89	1679.33
266.11	1611.75
266.33	1759.21
266.54	1724.39
266.76	1767.40
266.98	1714.15
267.19	1779.68
267.41	1804.26
267.62	1656.81
267.84	1615.85
268.06	1716.20
268.27	1740.77
268.49	1802.21
268.70	1832.93
268.92	1634.28
269.14	1581.03
269.35	1630.18
269.57	1679.33
269.79	1810.40
270.00	1642.47
270.22	1783.78
270.43	1624.04
270.65	1640.42
270.87	1660.90
271.08	1660.90
271.30	1755.11
271.51	1675.24
271.73	1732.58
271.95	1740.77
272.16	1679.33
272.38	1689.57
272.59	1677.29
272.81	1650.66
273.02	1759.21
273.24	1751.01
273.46	1710.05
273.67	1591.27
273.89	1640.42
274.10	1636.33
274.32	1724.39
274.54	1714.15
274.75	1714.15
274.97	1646.57
275.18	1794.02
275.40	1738.73
275.61	1710.05
275.83	1740.77
276.05	1558.50
276.26	1689.57
276.48	1742.82
276.69	1611.75
276.91	1570.79
277.12	1759.21
277.34	1710.05
277.55	1742.82
277.77	1619.94
277.99	1621.99
278.20	1650.66
278.42	1605.61
278.63	1671.14
278.85	1615.85
279.06	1593.32
279.28	1695.72
279.49	1761.25
279.71	1769.44
279.93	1591.27
280.14	1652.71
280.36	1644.52
280.57	1734.63
280.79	1740.77
281.00	1675.24
281.22	1681.38
281.43	1826.79
281.65	1603.56
281.86	1658.85
282.08	1757.16
282.29	1767.40
282.51	1574.89
282.73	1671.14
282.94	1581.03
283.16	1812.45
283.37	1806.31
283.59	1703.91
283.80	1691.62
284.02	1718.25
284.23	1665.00
284.45	1671.14
284.66	1634.28
284.88	1652.71
285.09	1785.83
285.31	1638.38
285.52	1691.62
285.74	1640.42
285.95	1701.86
286.17	1808.36
286.38	1755.11
286.60	1724.39
286.81	1650.66
287.03	1718.25
287.24	1665.00
287.46	1726.44
287.67	1736.68
287.89	1787.88
288.10	1716.20
288.32	1755.11
288.53	1759.21
288.75	1761.25
288.96	1746.92
289.18	1642.47
289.39	1677.29
289.61	1656.81
289.82	1722.34
290.04	1808.36
290.25	1669.09
290.47	1740.77
290.68	1708.01
290.90	1738.73
291.11	1658.85
291.33	1718.25
291.54	1644.52
291.76	1677.29
291.97	1708.01
292.18	1701.86
292.40	1669.09
292.61	1640.42
292.83	1796.07
293.04	1751.01
293.26	1761.25
293.47	1665.00
293.69	1673.19
293.90	1699.81
294.12	1828.84
294.33	1705.96
294.55	1705.96
294.76	1759.21
294.97	1714.15
295.19	1812.45
295.40	1662.95
295.62	1662.95
295.83	1767.40
296.05	1669.09
296.26	1748.97
296.48	1634.28
296.69	1732.58
296.90	1667.05
297.12	1742.82
297.33	1746.92
297.55	1675.24
297.76	1730.53
297.98	1738.73
298.19	1679.33
298.41	1720.29
298.62	1685.48
298.83	1761.25
299.05	1669.09
299.26	1648.61
299.48	1683.43
299.69	1742.82
299.90	1665.00
300.12	1660.90
300.33	1693.67
300.55	1712.10
300.76	1722.34
300.98	1599.46
301.19	1755.11
301.40	1683.43
301.62	1681.38
301.83	1703.91
302.05	1695.72
302.26	1705.96
302.47	1669.09
302.69	1628.14
302.90	1687.53
303.12	1607.66
303.33	1757.16
303.54	1816.55
303.76	1710.05
303.97	1763.30
304.19	1751.01
304.40	1722.34
304.61	1755.11
304.83	1812.45
305.04	1753.06
305.26	1742.82
305.47	1624.04
305.68	1730.53
305.90	1652.71
306.11	1769.44
306.33	1781.73
306.54	1607.66
306.75	1687.53
306.97	1572.84
307.18	1646.57
307.39	1683.43
307.61	1769.44
307.82	1761.25
308.04	1705.96
308.25	1667.05
308.46	1738.73
308.68	1642.47
308.89	1685.48
309.10	1718.25
309.32	1658.85
309.53	1775.59
309.74	1794.02
309.96	1640.42
310.17	1675.24
310.39	1669.09
310.60	1722.34
310.81	1675.24
311.03	1714.15
311.24	1697.77
311.45	1681.38
311.67	1828.84
311.88	1734.63
312.09	1712.10
312.31	1720.29
312.52	1564.65
312.73	1687.53
312.95	1605.61
313.16	1673.19
313.37	1736.68
313.59	1681.38
313.80	1740.77
314.01	1724.39
314.23	1712.10
314.44	1630.18
314.65	1650.66
314.87	1662.95
315.08	1693.67
315.29	1619.94
315.51	1638.38
315.72	1693.67
315.93	1863.65
316.15	1738.73
316.36	1693.67
316.57	1677.29
316.79	1748.97
317.00	1718.25
317.21	1753.06
317.43	1652.71
317.64	1724.39
317.85	1576.94
318.07	1671.14
318.28	1703.91
318.49	1851.36
318.70	1882.08
318.92	1812.45
319.13	1812.45
319.34	1820.64
319.56	1787.88
319.77	1787.88
319.98	1785.83
320.20	1806.31
320.41	1724.39
320.62	1722.34
320.83	1619.94
321.05	1880.04
321.26	1748.97
321.47	1638.38
321.69	1759.21
321.90	1656.81
322.11	1648.61
322.32	1697.77
322.54	1767.40
322.75	1722.34
322.96	1837.03
323.18	1597.42
323.39	1613.80
323.60	1658.85
323.81	1779.68
324.03	1689.57
324.24	1638.38
324.45	1683.43
324.66	1609.70
324.88	1812.45
325.09	1773.54
325.30	1656.81
325.52	1714.15
325.73	1669.09
325.94	1656.81
326.15	1708.01
326.37	1722.34
326.58	1763.30
326.79	1800.16
327.00	1669.09
327.22	1738.73
327.43	1683.43
327.64	1572.84
327.85	1681.38
328.07	1691.62
328.28	1789.92
328.49	1665.00
328.70	1761.25
328.92	1624.04
329.13	1748.97
329.34	1685.48
329.55	1828.84
329.76	1740.77
329.98	1701.86
330.19	1662.95
330.40	1681.38
330.61	1683.43
330.83	1748.97
331.04	1681.38
331.25	1714.15
331.46	1714.15
331.68	1708.01
331.89	1732.58
332.10	1746.92
332.31	1656.81
332.52	1650.66
332.74	1781.73
332.95	1599.46
333.16	1697.77
333.37	1775.59
333.58	1716.20
333.80	1677.29
334.01	1609.70
334.22	1673.19
334.43	1718.25
334.64	1689.57
334.86	1626.09
335.07	1603.56
335.28	1775.59
335.49	1703.91
335.70	1724.39
335.92	1794.02
336.13	1787.88
336.34	1724.39
336.55	1646.57
336.76	1669.09
336.98	1560.55
337.19	1689.57
337.40	1781.73
337.61	1882.08
337.82	1687.53
338.04	1802.21
338.25	1648.61
338.46	1718.25
338.67	1613.80
338.88	1646.57
339.09	1624.04
339.31	1685.48
339.52	1587.18
339.73	1578.98
339.94	1699.81
340.15	1724.39
340.36	1740.77
340.58	1675.24
340.79	1626.09
341.00	1771.49
341.21	1599.46
341.42	1773.54
341.63	1708.01
341.85	1808.36
342.06	1705.96
342.27	1607.66
342.48	1744.87
342.69	1593.32
342.90	1730.53
343.12	1675.24
343.33	1679.33
343.54	1724.39
343.75	1779.68
343.96	1687.53
344.17	1691.62
344.38	1722.34
344.60	1634.28
344.81	1589.22
345.02	1646.57
345.23	1779.68
345.44	1724.39
345.65	1667.05
345.86	1703.91
346.07	1650.66
346.29	1644.52
346.50	1656.81
346.71	1845.22
346.92	1705.96
347.13	1820.64
347.34	1683.43
347.55	1687.53
347.76	1738.73
347.98	1626.09
348.19	1773.54
348.40	1753.06
348.61	1669.09
348.82	1796.07
349.03	1726.44
349.24	1654.76
349.45	1804.26
349.66	1591.27
349.88	1642.47
350.09	1599.46
350.30	1751.01
350.51	1787.88
350.72	1685.48
350.93	1763.30
351.14	1658.85
351.35	1710.05
351.56	1726.44
351.77	1677.29
351.99	1759.21
352.20	1730.53
352.41	1755.11
352.62	1535.98
352.83	1718.25
353.04	1746.92
353.25	1603.56
353.46	1773.54
353.67	1785.83
353.88	1607.66
354.09	1738.73
354.30	1736.68
354.52	1701.86
354.73	1755.11
354.94	1648.61
355.15	1751.01
355.36	1808.36
355.57	1636.33
355.78	1695.72
355.99	1634.28
356.20	1656.81
356.41	1789.92
356.62	1730.53
356.83	1679.33
357.04	1738.73
357.25	1626.09
357.46	1662.95
357.68	1613.80
357.89	1658.85
358.10	1697.77
358.31	1738.73
358.52	1683.43
358.73	1673.19
358.94	1574.89
359.15	1576.94
359.36	1742.82
359.57	1732.58
359.78	1687.53
359.99	1753.06
360.20	1695.72
360.41	1662.95
360.62	1740.77
360.83	1787.88
361.04	1656.81
361.25	1757.16
361.46	1740.77
361.67	1716.20
361.88	1808.36
362.09	1794.02
362.30	1734.63
362.51	1665.00
362.72	1710.05
362.93	1781.73
363.14	1777.64
363.35	1714.15
363.56	1624.04
363.78	1746.92
363.99	1789.92
364.20	1660.90
364.41	1757.16
364.62	1787.88
364.83	1656.81
365.04	1718.25
365.25	1675.24
365.46	1890.28
365.67	1685.48
365.88	1685.48
366.09	1742.82
366.30	1775.59
366.51	1738.73
366.72	1699.81
366.93	1648.61
367.14	1701.86
367.35	1837.03
367.56	1716.20
367.77	1720.29
367.98	1665.00
368.18	1650.66
368.39	1806.31
368.60	1667.05
368.81	1738.73
369.02	1673.19
369.23	1662.95
369.44	1636.33
369.65	1677.29
369.86	1789.92
370.07	1775.59
370.28	1636.33
370.49	1673.19
370.70	1640.42
370.91	1660.90
371.12	1685.48
371.33	1748.97
371.54	1712.10
371.75	1755.11
371.96	1624.04
372.17	1654.76
372.38	1691.62
372.59	1685.48
372.80	1677.29
373.01	1660.90
373.22	1650.66
373.43	1716.20
373.64	1732.58
373.85	1847.27
374.06	1826.79
374.26	1703.91
374.47	1734.63
374.68	1763.30
374.89	1716.20
375.10	1634.28
375.31	1773.54
375.52	1691.62
375.73	1683.43
375.94	1667.05
376.15	1802.21
376.36	1677.29
376.57	1708.01
376.78	1677.29
376.99	1699.81
377.20	1767.40
377.40	1769.44
377.61	1828.84
377.82	1607.66
378.03	1701.86
378.24	1705.96
378.45	1753.06
378.66	1617.90
378.87	1554.41
379.08	1601.51
379.29	1726.44
379.50	1753.06
379.71	1734.63
379.91	1746.92
380.12	1720.29
380.33	1738.73
380.54	1728.49
380.75	1667.05
380.96	1697.77
381.17	1820.64
381.38	1718.25
381.59	1757.16
381.80	1742.82
382.00	1787.88
382.21	1730.53
382.42	1890.28
382.63	1900.52
382.84	1687.53
383.05	1767.40
383.26	1783.78
383.47	1808.36
383.68	1785.83
383.88	1742.82
384.09	1753.06
384.30	1808.36
384.51	1636.33
384.72	1613.80
384.93	1693.67
385.14	1695.72
385.35	1755.11
385.55	1675.24
385.76	1744.87
385.97	1785.83
386.18	1650.66
386.39	1652.71
386.60	1730.53
386.81	1685.48
387.02	1695.72
387.22	1681.38
387.43	1742.82
387.64	1738.73
387.85	1822.69
388.06	2260.96
388.27	4288.45
388.48	6631.32
388.68	8171.40
388.89	9490.29
389.10	9766.76
389.31	8566.65
389.52	7749.51
389.73	6625.18
389.93	6260.64
390.14	5918.63
390.35	5111.73
390.56	4421.56
390.77	3719.11
390.98	3088.34
391.18	2453.47
391.39	2160.61
391.60	1828.84
391.81	1839.08
392.02	1724.39
392.23	1820.64
392.43	1687.53
392.64	1744.87
392.85	1693.67
393.06	1767.40
393.27	1759.21
393.47	1683.43
393.68	1689.57
393.89	1615.85
394.10	1726.44
394.31	1667.05
394.52	1665.00
394.72	1656.81
394.93	1781.73
395.14	1638.38
395.35	1734.63
395.56	1679.33
395.76	1703.91
395.97	1730.53
396.18	1789.92
396.39	1806.31
396.60	2011.11
396.80	1931.23
397.01	1834.98
397.22	1814.50
397.43	1861.60
397.64	1701.86
397.84	1771.49
398.05	1943.52
398.26	1791.97
398.47	1755.11
398.67	1804.26
398.88	1796.07
399.09	1738.73
399.30	1748.97
399.51	1734.63
399.71	1646.57
399.92	1722.34
400.13	1773.54
400.34	1681.38
400.54	1662.95
400.75	1820.64
400.96	1671.14
401.17	1830.88
401.37	1703.91
401.58	1726.44
401.79	1703.91
402.00	1820.64
402.21	1984.48
402.41	1929.19
402.62	1927.14
402.83	1945.57
403.04	1949.67
403.24	2009.06
403.45	1800.16
403.66	1847.27
403.87	1820.64
404.07	1820.64
404.28	1964.00
404.49	1888.23
404.70	1773.54
404.90	1847.27
405.11	1763.30
405.32	1761.25
405.52	1742.82
405.73	1574.89
405.94	1636.33
406.15	1734.63
406.35	1732.58
406.56	1720.29
406.77	1701.86
406.98	1771.49
407.18	1695.72
407.39	1839.08
407.60	1730.53
407.80	1761.25
408.01	1728.49
408.22	1693.67
408.43	1683.43
408.63	1722.34
408.84	1712.10
409.05	1751.01
409.25	1624.04
409.46	1634.28
409.67	1685.48
409.88	1652.71
410.08	1701.86
410.29	1640.42
410.50	1804.26
410.70	1736.68
410.91	1585.13
411.12	1697.77
411.32	1691.62
411.53	1677.29
411.74	1759.21
411.95	1732.58
412.15	1677.29
412.36	1806.31
412.57	1755.11
412.77	1796.07
412.98	1720.29
413.19	1683.43
413.39	1642.47
413.60	1716.20
413.81	1806.31
414.01	1626.09
414.22	1681.38
414.43	1773.54
414.63	1669.09
414.84	1697.77
415.05	1693.67
415.25	1636.33
415.46	1753.06
415.67	1742.82
415.87	1748.97
416.08	1691.62
416.29	1681.38
416.49	1785.83
416.70	1681.38
416.91	1714.15
417.11	1609.70
417.32	1722.34
417.53	1763.30
417.73	1677.29
417.94	1638.38
418.15	1701.86
418.35	1734.63
418.56	1656.81
418.77	1816.55
418.97	1746.92
419.18	1640.42
419.38	1583.08
419.59	1675.24
419.80	1746.92
420.00	1605.61
420.21	1769.44
420.42	1673.19
420.62	1703.91
420.83	1624.04
421.04	1679.33
421.24	1673.19
421.45	1728.49
421.65	1730.53
421.86	1724.39
422.07	1703.91
422.27	1757.16
422.48	1703.91
422.69	1699.81
422.89	1605.61
423.10	1650.66
423.30	1626.09
423.51	1658.85
423.72	1683.43
423.92	1755.11
424.13	1683.43
424.33	1660.90
424.54	1744.87
424.75	1714.15
424.95	1800.16
425.16	1757.16
425.36	1755.11
425.57	1722.34
425.78	1722.34
425.98	1761.25
426.19	1665.00
426.39	1722.34
426.60	1714.15
426.81	1736.68
427.01	1677.29
427.22	1624.04
427.42	1558.50
427.63	1718.25
427.83	1775.59
428.04	1787.88
428.25	1753.06
428.45	1767.40
428.66	1849.32
428.86	1755.11
429.07	1691.62
429.28	1689.57
429.48	1654.76
429.69	1650.66
429.89	1705.96
430.10	1687.53
430.30	1755.11
430.51	1804.26
430.71	1640.42
430.92	1681.38
431.13	1640.42
431.33	1714.15
431.54	1767.40
431.74	1775.59
431.95	1818.60
432.15	1634.28
432.36	1716.20
432.56	1689.57
432.77	1894.37
432.98	1830.88
433.18	1746.92
433.39	1714.15
433.59	1736.68
433.80	1853.41
434.00	1800.16
434.21	1701.86
434.41	1630.18
434.62	1863.65
434.82	1638.38
435.03	1646.57
435.23	1753.06
435.44	1599.46
435.64	1687.53
435.85	1697.77
436.06	1703.91
436.26	1724.39
436.47	1636.33
436.67	1695.72
436.88	1671.14
437.08	1734.63
437.29	1832.93
437.49	1654.76
437.70	1652.71
437.90	1708.01
438.11	1812.45
438.31	1769.44
438.52	1861.60
438.72	1820.64
438.93	1906.66
439.13	1812.45
439.34	1904.61
439.54	1740.77
439.75	1775.59
439.95	1796.07
440.16	1667.05
440.36	1771.49
440.57	1738.73
440.77	1798.12
440.98	1771.49
441.18	1800.16
441.39	1693.67
441.59	1648.61
441.80	1773.54
442.00	1728.49
442.21	1751.01
442.41	1595.37
442.62	1816.55
442.82	1693.67
443.02	1744.87
443.23	1832.93
443.43	1720.29
443.64	1802.21
443.84	1697.77
444.05	1753.06
444.25	1796.07
444.46	1746.92
444.66	1800.16
444.87	1804.26
445.07	1701.86
445.28	1703.91
445.48	1828.84
445.69	1853.41
445.89	1867.75
446.09	1771.49
446.30	1945.57
446.50	2643.93
446.71	3803.08
446.91	4335.55
447.12	4814.77
447.32	4712.38
447.53	4308.93
447.73	3798.98
447.93	3493.83
448.14	3356.62
448.34	3194.83
448.55	2838.48
448.75	2828.24
448.96	2670.55
449.16	2398.17
449.36	2375.64
449.57	2142.18
449.77	1910.75
449.98	1798.12
450.18	1863.65
450.39	1843.17
450.59	1783.78
450.79	1775.59
451.00	1640.42
451.20	1777.64
451.41	1712.10
451.61	1798.12
451.81	1742.82
452.02	1689.57
452.22	1656.81
452.43	1732.58
452.63	1753.06
452.84	1718.25
453.04	1781.73
453.24	1701.86
453.45	1705.96
453.65	1679.33
453.86	1804.26
454.06	1812.45
454.26	1736.68
454.47	1693.67
454.67	1785.83
454.87	1765.35
455.08	1705.96
455.28	1804.26
455.49	1822.69
455.69	1746.92
455.89	1828.84
456.10	1798.12
456.30	1677.29
456.51	1701.86
456.71	1779.68
456.91	1787.88
457.12	1726.44
457.32	1718.25
457.52	1689.57
457.73	1730.53
457.93	1816.55
458.14	1648.61
458.34	1617.90
458.54	1742.82
458.75	1656.81
458.95	1751.01
459.15	1753.06
459.36	1740.77
459.56	1775.59
459.76	1877.99
459.97	1714.15
460.17	1724.39
460.37	1767.40
460.58	1675.24
460.78	1830.88
460.99	1665.00
461.19	1687.53
461.39	1771.49
461.60	1720.29
461.80	1783.78
462.00	1705.96
462.21	1726.44
462.41	1759.21
462.61	1660.90
462.82	1697.77
463.02	1763.30
463.22	1738.73
463.43	1771.49
463.63	1722.34
463.83	1814.50
464.04	1662.95
464.24	1656.81
464.44	1648.61
464.64	1714.15
464.85	1720.29
465.05	1796.07
465.25	1779.68
465.46	1769.44
465.66	1726.44
465.86	1753.06
466.07	1773.54
466.27	1726.44
466.47	1593.32
466.68	1640.42
466.88	1820.64
467.08	1705.96
467.29	1765.35
467.49	1779.68
467.69	1763.30
467.89	1767.40
468.10	1658.85
468.30	1724.39
468.50	1808.36
468.71	1855.46
468.91	1615.85
469.11	1787.88
469.31	1824.74
469.52	1640.42
469.72	1834.98
469.92	1888.23
470.13	1710.05
470.33	1675.24
470.53	1730.53
470.73	2086.88
470.94	2316.25
471.14	2299.87
471.34	2510.81
471.54	2344.92
471.75	2086.88
471.95	2125.79
472.15	2086.88
472.36	2152.42
472.56	2119.65
472.76	1992.67
472.96	1900.52
473.17	1880.04
473.37	1923.04
473.57	1724.39
473.77	1814.50
473.98	1712.10
474.18	1742.82
474.38	1841.12
474.58	1708.01
474.79	1673.19
474.99	1769.44
475.19	1794.02
475.39	1669.09
475.60	1685.48
475.80	1734.63
476.00	1710.05
476.20	1736.68
476.41	1732.58
476.61	1767.40
476.81	1753.06
477.01	1708.01
477.21	1849.32
477.42	1826.79
477.62	1738.73
477.82	1771.49
478.02	1734.63
478.23	1681.38
478.43	1609.70
478.63	1699.81
478.83	1660.90
479.03	1654.76
479.24	1746.92
479.44	1861.60
479.64	1652.71
479.84	1603.56
480.04	1722.34
480.25	1652.71
480.45	1658.85
480.65	1660.90
480.85	1787.88
481.06	1722.34
481.26	1763.30
481.46	1773.54
481.66	1787.88
481.86	1724.39
482.06	1785.83
482.27	1648.61
482.47	1638.38
482.67	1759.21
482.87	1710.05
483.07	1853.41
483.28	1636.33
483.48	1677.29
483.68	1669.09
483.88	1765.35
484.08	1685.48
484.29	1693.67
484.49	1673.19
484.69	1701.86
484.89	1742.82
485.09	1781.73
485.29	1812.45
485.50	1685.48
485.70	1705.96
485.90	1761.25
486.10	1673.19
486.30	1787.88
486.50	1746.92
486.71	1742.82
486.91	1765.35
487.11	1843.17
487.31	1636.33
487.51	1703.91
487.71	1720.29
487.91	1640.42
488.12	1648.61
488.32	1556.46
488.52	1712.10
488.72	1550.31
488.92	1744.87
489.12	1867.75
489.32	1722.34
489.53	1773.54
489.73	1626.09
489.93	1828.84
490.13	1726.44
490.33	1617.90
490.53	1726.44
490.73	1867.75
490.94	1726.44
491.14	1783.78
491.34	1859.56
491.54	2133.98
491.74	2508.76
491.94	2963.41
492.14	2971.60
492.34	2979.79
492.54	2666.46
492.75	2480.09
492.95	2402.27
493.15	2242.53
493.35	2320.35
493.55	2279.39
493.75	2111.46
493.95	2013.15
494.15	1972.19
494.35	1933.28
494.56	1853.41
494.76	1769.44
494.96	1802.21
495.16	1787.88
495.36	1669.09
495.56	1796.07
495.76	1755.11
495.96	1722.34
496.16	1726.44
496.36	1843.17
496.56	1691.62
496.77	1763.30
496.97	1687.53
497.17	1757.16
497.37	1691.62
497.57	1732.58
497.77	1710.05
497.97	1681.38
498.17	1677.29
498.37	1656.81
498.57	1755.11
498.77	1648.61
498.97	1791.97
499.17	1886.18
499.38	1687.53
499.58	1808.36
499.78	1763.30
499.98	1818.60
500.18	1794.02
500.38	1701.86
500.58	1845.22
500.78	2555.86
500.98	4593.59
501.18	5814.18
501.38	6746.01
501.58	7180.18
501.78	6772.63
501.98	5629.87
502.18	4843.45
502.38	4327.36
502.58	3975.11
502.78	3624.90
502.98	3614.66
503.18	3420.11
503.38	3182.54
503.59	2740.18
503.79	2656.22
503.99	2539.48
504.19	2303.96
504.39	2260.96
504.59	2176.99
504.79	2191.33
504.99	2054.11
505.19	1841.12
505.39	1902.56
505.59	1902.56
505.79	1947.62
505.99	1748.97
506.19	1816.55
506.39	1933.28
506.59	1785.83
506.79	1705.96
506.99	1701.86
507.19	1710.05
507.39	1665.00
507.59	1685.48
507.79	1685.48
507.99	1685.48
508.19	1726.44
508.39	1648.61
508.59	1763.30
508.79	1820.64
508.99	1796.07
509.19	1681.38
509.39	1847.27
509.59	1665.00
509.79	1703.91
509.99	1753.06
510.19	1804.26
510.39	1816.55
510.59	1708.01
510.79	1722.34
510.99	1673.19
511.19	1716.20
511.39	1873.89
511.59	1748.97
511.79	1826.79
511.99	1689.57
512.19	1826.79
512.38	1714.15
512.58	1652.71
512.78	1691.62
512.98	1746.92
513.18	1816.55
513.38	1669.09
513.58	1708.01
513.78	1742.82
513.98	1685.48
514.18	1705.96
514.38	1689.57
514.58	1718.25
514.78	1730.53
514.98	1628.14
515.18	1751.01
515.38	1660.90
515.58	1863.65
515.78	1716.20
515.98	1628.14
516.18	1767.40
516.38	1658.85
516.57	1771.49
516.77	1681.38
516.97	1722.34
517.17	1626.09
517.37	1595.37
517.57	1798.12
517.77	1705.96
517.97	1697.77
518.17	1806.31
518.37	1675.24
518.57	1734.63
518.77	1744.87
518.97	1675.24
519.16	1667.05
519.36	1828.84
519.56	1671.14
519.76	1732.58
519.96	1789.92
520.16	1767.40
520.36	1644.52
520.56	1714.15
520.76	1689.57
520.96	1650.66
521.16	1791.97
521.35	1728.49
521.55	1816.55
521.75	1718.25
521.95	1773.54
522.15	1720.29
522.35	1652.71
522.55	1677.29
522.75	1763.30
522.95	1732.58
523.14	1593.32
523.34	1761.25
523.54	1759.21
523.74	1783.78
523.94	1742.82
524.14	1656.81
524.34	1718.25
524.54	1802.21
524.73	1685.48
524.93	1763.30
525.13	1626.09
525.33	1652.71
525.53	1892.32
525.73	1746.92
525.93	1738.73
526.13	1701.86
526.32	1646.57
526.52	1779.68
526.72	1779.68
526.92	1742.82
527.12	1726.44
527.32	1675.24
527.52	1710.05
527.71	1814.50
527.91	1683.43
528.11	1662.95
528.31	1738.73
528.51	1605.61
528.71	1755.11
528.90	1789.92
529.10	1722.34
529.30	1802.21
529.50	1599.46
529.70	1748.97
529.90	1675.24
530.09	1742.82
530.29	1710.05
530.49	1732.58
530.69	1847.27
530.89	1730.53
531.09	1757.16
531.28	1724.39
531.48	1763.30
531.68	1796.07
531.88	1726.44
532.08	1810.40
532.28	1755.11
532.47	1740.77
532.67	1748.97
532.87	1763.30
533.07	1701.86
533.27	1767.40
533.46	1705.96
533.66	1775.59
533.86	1677.29
534.06	1716.20
534.26	1761.25
534.45	1642.47
534.65	1796.07
534.85	1802.21
535.05	1607.66
535.25	1748.97
535.44	1648.61
535.64	1900.52
535.84	1691.62
536.04	1683.43
536.24	1687.53
536.43	1716.20
536.63	1755.11
536.83	1740.77
537.03	1730.53
537.22	1654.76
537.42	1630.18
537.62	1732.58
537.82	1687.53
538.02	1751.01
538.21	1771.49
538.41	1882.08
538.61	1718.25
538.81	1703.91
539.00	1847.27
539.20	1718.25
539.40	1665.00
539.60	1759.21
539.79	1763.30
539.99	1697.77
540.19	1675.24
540.39	1662.95
540.58	1820.64
540.78	1755.11
540.98	1798.12
541.18	1867.75
541.37	1765.35
541.57	1701.86
541.77	1744.87
541.97	1632.23
542.16	1609.70
542.36	1640.42
542.56	1791.97
542.76	1804.26
542.95	1712.10
543.15	1787.88
543.35	1808.36
543.54	1679.33
543.74	1726.44
543.94	1843.17
544.14	1751.01
544.33	1773.54
544.53	1705.96
544.73	1722.34
544.93	1738.73
545.12	1660.90
545.32	1732.58
545.52	1693.67
545.71	1642.47
545.91	1677.29
546.11	1738.73
546.30	1662.95
546.50	1689.57
546.70	1679.33
546.90	1812.45
547.09	1617.90
547.29	1708.01
547.49	1708.01
547.68	1708.01
547.88	1685.48
548.08	1732.58
548.27	2181.09
548.47	1767.40
548.67	1716.20
548.87	1781.73
549.06	1703.91
549.26	1761.25
549.46	1753.06
549.65	1746.92
549.85	1630.18
550.05	1789.92
550.24	1703.91
550.44	1695.72
550.64	1759.21
550.83	1697.77
551.03	1798.12
551.23	1859.56
551.42	1748.97
551.62	1705.96
551.82	1677.29
552.01	1705.96
552.21	1777.64
552.41	1761.25
552.60	1761.25
552.80	1742.82
553.00	1728.49
553.19	1757.16
553.39	1818.60
553.59	1708.01
553.78	1757.16
553.98	1671.14
554.17	1601.51
554.37	1834.98
554.57	1755.11
554.76	1722.34
554.96	1751.01
555.16	1839.08
555.35	1728.49
555.55	1785.83
555.75	1691.62
555.94	1763.30
556.14	1660.90
556.33	1757.16
556.53	1787.88
556.73	1724.39
556.92	1751.01
557.12	1822.69
557.32	1820.64
557.51	1853.41
557.71	1714.15
557.90	1816.55
558.10	1783.78
558.30	1705.96
558.49	1669.09
558.69	1724.39
558.88	1697.77
559.08	1701.86
559.28	1746.92
559.47	1728.49
559.67	1759.21
559.86	1873.89
560.06	1724.39
560.26	1683.43
560.45	1796.07
560.65	1804.26
560.84	1837.03
561.04	1708.01
561.24	1779.68
561.43	1636.33
561.63	1824.74
561.82	1773.54
562.02	1834.98
562.22	1667.05
562.41	1648.61
562.61	1708.01
562.80	1710.05
563.00	1884.13
563.19	1763.30
563.39	1783.78
563.59	1841.12
563.78	1728.49
563.98	1572.84
564.17	1689.57
564.37	1613.80
564.56	1701.86
564.76	1658.85
564.96	1787.88
565.15	1734.63
565.35	1853.41
565.54	1619.94
565.74	1779.68
565.93	1734.63
566.13	1665.00
566.32	1732.58
566.52	1732.58
566.71	1718.25
566.91	1732.58
567.11	1789.92
567.30	1728.49
567.50	1736.68
567.69	1687.53
567.89	1734.63
568.08	1718.25
568.28	1734.63
568.47	1718.25
568.67	1708.01
568.86	1669.09
569.06	1837.03
569.25	1628.14
569.45	1640.42
569.64	1665.00
569.84	1751.01
570.04	1845.22
570.23	1751.01
570.43	1687.53
570.62	1738.73
570.82	1904.61
571.01	1636.33
571.21	1712.10
571.40	1667.05
571.60	1777.64
571.79	1832.93
571.99	1771.49
572.18	1669.09
572.38	1783.78
572.57	1685.48
572.77	1771.49
572.96	1789.92
573.16	1703.91
573.35	1724.39
573.55	1886.18
573.74	1734.63
573.94	1724.39
574.13	1751.01
574.33	1820.64
574.52	1779.68
574.71	1728.49
574.91	1683.43
575.10	1621.99
575.30	1746.92
575.49	1660.90
575.69	1767.40
575.88	1804.26
576.08	1697.77
576.27	1699.81
576.47	1705.96
576.66	1843.17
576.86	1740.77
577.05	1658.85
577.25	1816.55
577.44	1863.65
577.64	1785.83
577.83	1775.59
578.02	1769.44
578.22	1816.55
578.41	1851.36
578.61	1665.00
578.80	1724.39
579.00	1738.73
579.19	1746.92
579.39	1783.78
579.58	1806.31
579.77	1820.64
579.97	1841.12
580.16	1814.50
580.36	1826.79
580.55	1912.80
580.75	1716.20
580.94	1730.53
581.13	1787.88
581.33	1826.79
581.52	1781.73
581.72	1800.16
581.91	1904.61
582.11	1744.87
582.30	1738.73
582.49	1814.50
582.69	1763.30
582.88	1734.63
583.08	1705.96
583.27	1798.12
583.47	1781.73
583.66	1722.34
583.85	1751.01
584.05	1746.92
584.24	1748.97
584.44	1730.53
584.63	1826.79
584.82	1834.98
585.02	1865.70
585.21	1837.03
585.41	1767.40
585.60	1837.03
585.79	1894.37
585.99	1961.95
586.18	1867.75
586.37	2199.52
586.57	3352.52
586.76	9844.59
586.96	24342.16
587.15	34536.94
587.34	40246.68
587.54	42196.35
587.73	36703.70
587.93	26191.47
588.12	21429.94
588.31	18249.45
588.51	16441.09
588.70	15099.67
588.89	14241.57
589.09	12638.02
589.28	11114.33
589.47	9527.15
589.67	8023.94
589.86	6516.64
590.06	5033.91
590.25	3964.87
590.44	3112.91
590.64	2656.22
590.83	2295.77
591.02	2142.18
591.22	1951.71
591.41	1849.32
591.60	1781.73
591.80	1843.17
591.99	1734.63
592.18	1783.78
592.38	1845.22
592.57	1742.82
592.76	1841.12
592.96	1816.55
593.15	1796.07
593.34	1787.88
593.54	1742.82
593.73	1767.40
593.92	1775.59
594.12	1728.49
594.31	1710.05
594.50	1761.25
594.70	1804.26
594.89	1888.23
595.08	1677.29
595.28	1787.88
595.47	1931.23
595.66	1816.55
595.86	1714.15
596.05	1699.81
596.24	1677.29
596.43	1863.65
596.63	1837.03
596.82	1716.20
597.01	1826.79
597.21	1902.56
597.40	1800.16
597.59	1689.57
597.79	1691.62
597.98	1761.25
598.17	1812.45
598.36	1845.22
598.56	1763.30
598.75	1701.86
598.94	1730.53
599.14	1722.34
599.33	1703.91
599.52	1810.40
599.71	1753.06
599.91	1722.34
600.10	1748.97
600.29	1796.07
600.48	1869.80
600.68	1810.40
600.87	1720.29
601.06	1771.49
601.26	1763.30
601.45	1689.57
601.64	1763.30
601.83	1775.59
602.03	1609.70
602.22	1693.67
602.41	1802.21
602.60	1906.66
602.80	1781.73
602.99	1736.68
603.18	1732.58
603.37	1705.96
603.57	1789.92
603.76	1757.16
603.95	1820.64
604.14	1710.05
604.34	1648.61
604.53	1748.97
604.72	1746.92
604.91	1785.83
605.10	1730.53
605.30	1710.05
605.49	1837.03
605.68	1779.68
605.87	1804.26
606.07	1701.86
606.26	1763.30
606.45	1720.29
606.64	1691.62
606.84	1783.78
607.03	1697.77
607.22	1808.36
607.41	1611.75
607.60	1703.91
607.80	1751.01
607.99	1716.20
608.18	1744.87
608.37	1798.12
608.56	1691.62
608.76	1775.59
608.95	1847.27
609.14	1761.25
609.33	1753.06
609.52	1814.50
609.72	1667.05
609.91	1722.34
610.10	1732.58
610.29	1845.22
610.48	1824.74
610.68	1757.16
610.87	1714.15
611.06	1740.77
611.25	1701.86
611.44	1810.40
611.63	1718.25
611.83	1787.88
612.02	1673.19
612.21	1884.13
612.40	1677.29
612.59	1687.53
612.79	1675.24
612.98	1753.06
613.17	1812.45
613.36	1720.29
613.55	1828.84
613.74	1714.15
613.93	1609.70
614.13	1656.81
614.32	1695.72
614.51	1755.11
614.70	1718.25
614.89	1665.00
615.08	1703.91
615.28	2062.30
615.47	1654.76
615.66	1703.91
615.85	1665.00
616.04	1826.79
616.23	1769.44
616.42	1712.10
616.62	1708.01
616.81	1642.47
617.00	1689.57
617.19	1800.16
617.38	1626.09
617.57	1779.68
617.76	1742.82
617.95	1714.15
618.15	1785.83
618.34	1777.64
618.53	1652.71
618.72	1724.39
618.91	1853.41
619.10	1746.92
619.29	1775.59
619.48	1763.30
619.68	1728.49
619.87	1740.77
620.06	1638.38
620.25	1804.26
620.44	1667.05
620.63	1783.78
620.82	1802.21
621.01	1703.91
621.20	1796.07
621.39	1689.57
621.59	1767.40
621.78	1761.25
621.97	1759.21
622.16	1763.30
622.35	1744.87
622.54	1775.59
622.73	1785.83
622.92	1669.09
623.11	1802.21
623.30	1859.56
623.49	1855.46
623.68	1673.19
623.88	1849.32
624.07	1722.34
624.26	1751.01
624.45	1732.58
624.64	1701.86
624.83	1744.87
625.02	1699.81
625.21	1736.68
625.40	1789.92
625.59	1806.31
625.78	1630.18
625.97	1734.63
626.16	1742.82
626.35	1761.25
626.54	1699.81
626.74	1763.30
626.93	1794.02
627.12	1757.16
627.31	1693.67
627.50	1781.73
627.69	1785.83
627.88	1669.09
628.07	1720.29
628.26	1662.95
628.45	1753.06
628.64	1691.62
628.83	1761.25
629.02	1646.57
629.21	1734.63
629.40	1665.00
629.59	1572.84
629.78	1683.43
629.97	1693.67
630.16	1785.83
630.35	1638.38
630.54	1648.61
630.73	1691.62
630.92	1656.81
631.11	1656.81
631.30	1783.78
631.49	1763.30
631.68	1650.66
631.87	1648.61
632.06	1638.38
632.25	1818.60
632.44	1738.73
632.63	1761.25
632.82	1648.61
633.01	1611.75
633.20	1695.72
633.39	1603.56
633.58	1642.47
633.77	1667.05
633.96	1767.40
634.15	1708.01
634.34	1755.11
634.53	1734.63
634.72	1699.81
634.91	1662.95
635.10	1755.11
635.29	1701.86
635.48	1796.07
635.67	1636.33
635.86	1628.14
636.05	1742.82
636.24	1679.33
636.43	1718.25
636.62	1753.06
636.81	1652.71
637.00	1742.82
637.19	1763.30
637.38	1699.81
637.57	1656.81
637.76	1691.62
637.95	1718.25
638.14	1689.57
638.33	1751.01
638.52	1806.31
638.71	1689.57
638.89	1546.22
639.08	1861.60
639.27	1765.35
639.46	1687.53
639.65	1791.97
639.84	1710.05
640.03	1767.40
640.22	1673.19
640.41	1759.21
640.60	1679.33
640.79	1775.59
640.98	1738.73
641.17	1785.83
641.36	1787.88
641.55	1822.69
641.74	1667.05
641.92	1595.37
642.11	1660.90
642.30	1798.12
642.49	1703.91
642.68	1708.01
642.87	1691.62
643.06	1824.74
643.25	1650.66
643.44	1568.74
643.63	1693.67
643.82	1781.73
644.00	1669.09
644.19	1656.81
644.38	1699.81
644.57	1673.19
644.76	1714.15
644.95	1710.05
645.14	1806.31
645.33	1751.01
645.52	1724.39
645.71	1599.46
645.89	1654.76
646.08	1708.01
646.27	1734.63
646.46	1816.55
646.65	1644.52
646.84	1736.68
647.03	1662.95
647.22	1806.31
647.40	1636.33
647.59	1718.25
647.78	1679.33
647.97	1695.72
648.16	1732.58
648.35	1748.97
648.54	1740.77
648.73	1730.53
648.91	1777.64
649.10	1734.63
649.29	1681.38
649.48	1652.71
649.67	1767.40
649.86	1703.91
650.05	1615.85
650.23	1748.97
650.42	1613.80
650.61	1806.31
650.80	1724.39
650.99	1910.75
651.18	1757.16
651.36	1726.44
651.55	1644.52
651.74	1681.38
651.93	1671.14
652.12	1748.97
652.31	1714.15
652.49	1650.66
652.68	1695.72
652.87	1863.65
653.06	1687.53
653.25	1771.49
653.44	1628.14
653.62	1880.04
653.81	1689.57
654.00	1753.06
654.19	1757.16
654.38	1828.84
654.56	1724.39
654.75	1769.44
654.94	1705.96
655.13	1796.07
655.32	1675.24
655.51	1757.16
655.69	1693.67
655.88	1755.11
656.07	1617.90
656.26	1763.30
656.45	1673.19
656.63	1736.68
656.82	1734.63
657.01	1746.92
657.20	1689.57
657.38	1771.49
657.57	1652.71
657.76	1593.32
657.95	1763.30
658.14	1665.00
658.32	1669.09
658.51	1665.00
658.70	1640.42
658.89	1718.25
659.08	1656.81
659.26	1710.05
659.45	1644.52
659.64	1740.77
659.83	1632.23
660.01	1943.52
660.20	1781.73
660.39	1779.68
660.58	1617.90
660.76	1740.77
660.95	1609.70
661.14	1613.80
661.33	1660.90
661.51	1695.72
661.70	1677.29
661.89	1695.72
662.08	1710.05
662.26	1640.42
662.45	1693.67
662.64	1775.59
662.83	1796.07
663.01	1634.28
663.20	1769.44
663.39	1769.44
663.58	1787.88
663.76	1703.91
663.95	1802.21
664.14	1701.86
664.32	1691.62
664.51	1650.66
664.70	1656.81
664.89	1773.54
665.07	1679.33
665.26	1730.53
665.45	1697.77
665.64	1716.20
665.82	1746.92
666.01	1814.50
666.20	1724.39
666.38	1710.05
666.57	1738.73
666.76	2174.94
666.95	4425.66
667.13	10407.78
667.32	15083.29
667.51	17790.70
667.69	18874.08
667.88	17780.46
668.07	12308.29
668.25	9447.28
668.44	8173.44
668.63	7415.69
668.81	6692.76
669.00	6260.64
669.19	5623.72
669.38	5146.55
669.56	4538.30
669.75	4003.78
669.94	3395.53
670.12	2895.83
670.31	2500.57
670.50	2263.01
670.68	2090.98
670.87	1890.28
671.06	1767.40
671.24	1853.41
671.43	1839.08
671.62	1744.87
671.80	1654.76
671.99	1732.58
672.18	1675.24
672.36	1802.21
672.55	1728.49
672.74	1746.92
672.92	1693.67
673.11	1761.25
673.29	1677.29
673.48	1781.73
673.67	1628.14
673.85	1783.78
674.04	1738.73
674.23	1699.81
674.41	1867.75
674.60	1665.00
674.79	1609.70
674.97	1650.66
675.16	1804.26
675.34	1787.88
675.53	1687.53
675.72	1779.68
675.90	1767.40
676.09	1685.48
676.28	1687.53
676.46	1607.66
676.65	1724.39
676.83	1646.57
677.02	1724.39
677.21	1714.15
677.39	1748.97
677.58	1681.38
677.77	1710.05
677.95	1652.71
678.14	1656.81
678.32	1640.42
678.51	1660.90
678.70	1880.04
678.88	1644.52
679.07	1763.30
679.25	1665.00
679.44	1650.66
679.63	1691.62
679.81	1730.53
680.00	1748.97
680.18	1703.91
680.37	1824.74
680.55	1697.77
680.74	1728.49
680.93	1624.04
681.11	1732.58
681.30	1689.57
681.48	1677.29
681.67	1734.63
681.85	1701.86
682.04	1656.81
682.23	1708.01
682.41	1654.76
682.60	1697.77
682.78	1736.68
682.97	1634.28
683.15	1740.77
683.34	1714.15
683.53	1757.16
683.71	1560.55
683.90	1859.56
684.08	1763.30
684.27	1636.33
684.45	1740.77
684.64	1689.57
684.82	1693.67
685.01	1679.33
685.19	1703.91
685.38	1742.82
685.57	1740.77
685.75	1615.85
685.94	1695.72
686.12	1660.90
686.31	1714.15
686.49	1734.63
686.68	1601.51
686.86	1746.92
687.05	1763.30
687.23	1742.82
687.42	1697.77
687.60	1695.72
687.79	1787.88
687.97	1708.01
688.16	1820.64
688.34	1724.39
688.53	1589.22
688.71	1703.91
688.90	1783.78
689.08	1673.19
689.27	1667.05
689.45	1703.91
689.64	1759.21
689.82	1730.53
690.01	1714.15
690.19	1748.97
690.38	1671.14
690.56	1787.88
690.75	1687.53
690.93	1662.95
691.12	1646.57
691.30	1789.92
691.49	1632.23
691.67	1732.58
691.86	1724.39
692.04	1656.81
692.23	1648.61
692.41	1667.05
692.60	1818.60
692.78	1673.19
692.97	1705.96
693.15	1705.96
693.34	1771.49
693.52	1771.49
693.71	1632.23
693.89	1685.48
694.08	1587.18
694.26	1800.16
694.44	1791.97
694.63	1685.48
694.81	1656.81
695.00	1640.42
695.18	1777.64
695.37	1861.60
695.55	1783.78
695.74	1773.54
695.92	1757.16
696.10	1791.97
696.29	1607.66
696.47	1681.38
696.66	1724.39
696.84	1630.18
697.03	1677.29
697.21	1828.84
697.40	2281.44
697.58	1800.16
697.76	1662.95
697.95	1607.66
698.13	1697.77
698.32	1683.43
698.50	1640.42
698.68	1708.01
698.87	1691.62
699.05	1810.40
699.24	1695.72
699.42	1697.77
699.61	1708.01
699.79	1667.05
699.97	1714.15
700.16	1685.48
700.34	1591.27
700.53	1726.44
700.71	1757.16
700.89	1730.53
701.08	1734.63
701.26	1699.81
701.45	2086.88
701.63	1607.66
701.81	1714.15
702.00	1630.18
702.18	1699.81
702.37	1619.94
702.55	1726.44
702.73	1708.01
702.92	1648.61
703.10	1808.36
703.28	1705.96
703.47	1681.38
703.65	1763.30
703.84	1781.73
704.02	1677.29
704.20	1804.26
704.39	1644.52
704.57	1685.48
704.75	1705.96
704.94	1816.55
705.12	1771.49
705.30	1798.12
705.49	2242.53
705.67	4442.04
705.86	9463.66
706.04	12453.70
706.22	14710.56
706.41	15462.16
706.59	13905.71
706.77	9789.29
706.96	7323.54
707.14	6582.17
707.32	6045.60
707.51	5511.08
707.69	4927.41
707.87	4149.18
708.06	3672.01
708.24	2942.93
708.42	2361.31
708.61	2336.73
708.79	1933.28
708.97	1869.80
709.16	1810.40
709.34	1761.25
709.52	1708.01
709.71	1701.86
709.89	1830.88
710.07	1701.86
710.26	1630.18
710.44	1683.43
710.62	1781.73
710.80	1662.95
710.99	1779.68
711.17	1767.40
711.35	1689.57
711.54	1636.33
711.72	1820.64
711.90	1751.01
712.09	1769.44
712.27	1607.66
712.45	1730.53
712.63	1732.58
712.82	1773.54
713.00	1744.87
713.18	1736.68
713.37	1742.82
713.55	1738.73
713.73	1708.01
713.91	1716.20
714.10	1701.86
714.28	1656.81
714.46	1673.19
714.65	1781.73
714.83	1671.14
715.01	1679.33
715.19	1787.88
715.38	1693.67
715.56	1693.67
715.74	1734.63
715.92	1728.49
716.11	1691.62
716.29	1550.31
716.47	1648.61
716.65	1757.16
716.84	1638.38
717.02	1798.12
717.20	1497.07
717.38	1630.18
717.57	1757.16
717.75	1656.81
717.93	1695.72
718.11	1667.05
718.30	1667.05
718.48	1734.63
718.66	1816.55
718.84	1810.40
719.03	1740.77
719.21	1644.52
719.39	1744.87
719.57	1757.16
719.75	1820.64
719.94	1665.00
720.12	1699.81
720.30	1701.86
720.48	1726.44
720.67	1669.09
720.85	1640.42
721.03	1703.91
721.21	1662.95
721.39	1787.88
721.58	1716.20
721.76	1734.63
721.94	1724.39
722.12	1775.59
722.30	1781.73
722.49	1675.24
722.67	1687.53
722.85	1775.59
723.03	1658.85
723.21	1714.15
723.40	1771.49
723.58	1763.30
723.76	1693.67
723.94	1802.21
724.12	1714.15
724.30	1740.77
724.49	1728.49
724.67	1581.03
724.85	1701.86
725.03	1615.85
725.21	1689.57
725.40	1740.77
725.58	1683.43
725.76	1740.77
725.94	1652.71
726.12	1714.15
726.30	1667.05
726.49	1771.49
726.67	1656.81
726.85	1744.87
727.03	1716.20
727.21	2111.46
727.39	2912.21
727.57	3798.98
727.76	4218.82
727.94	4427.71
728.12	4423.61
728.30	3596.23
728.48	3014.61
728.66	2701.27
728.84	2539.48
729.03	2355.16
729.21	2260.96
729.39	1925.09
729.57	1902.56
729.75	1804.26
729.93	1912.80
730.11	1689.57
730.30	1705.96
730.48	1626.09
730.66	1822.69
730.84	1712.10
731.02	1689.57
731.20	1728.49
731.38	1759.21
731.56	1642.47
731.74	1621.99
731.93	1736.68
732.11	1687.53
732.29	1695.72
732.47	1660.90
732.65	1718.25
732.83	1785.83
733.01	1753.06
733.19	1685.48
733.37	1730.53
733.56	1759.21
733.74	1667.05
733.92	1843.17
734.10	1722.34
734.28	1699.81
734.46	1658.85
734.64	1628.14
734.82	1699.81
735.00	1730.53
735.18	1738.73
735.36	1710.05
735.54	1761.25
735.73	1632.23
735.91	1822.69
736.09	1636.33
736.27	1744.87
736.45	1689.57
736.63	1617.90
736.81	1761.25
736.99	1718.25
737.17	1785.83
737.35	1685.48
737.53	1695.72
737.71	1669.09
737.89	1843.17
738.07	1697.77
738.25	1673.19
738.43	1632.23
738.61	1650.66
738.80	1581.03
738.98	1683.43
739.16	1726.44
739.34	1644.52
739.52	1722.34
739.70	1681.38
739.88	1746.92
740.06	1753.06
740.24	1560.55
740.42	1787.88
740.60	1619.94
740.78	1720.29
740.96	1550.31
741.14	1669.09
741.32	1705.96
741.50	1656.81
741.68	1818.60
741.86	1765.35
742.04	1683.43
742.22	1587.18
742.40	1675.24
742.58	1646.57
742.76	1675.24
742.94	1775.59
743.12	1650.66
743.30	1660.90
743.48	1705.96
743.66	1693.67
743.84	1685.48
744.02	1658.85
744.20	1685.48
744.38	1587.18
744.56	1603.56
744.74	1732.58
744.92	1738.73
745.10	1740.77
745.28	1716.20
745.46	1740.77
745.64	1658.85
745.82	1810.40
746.00	1656.81
746.18	1734.63
746.36	1656.81
746.54	1779.68
746.72	1781.73
746.90	1593.32
747.08	1726.44
747.26	1685.48
747.44	1773.54
747.62	1640.42
747.80	1738.73
747.98	1744.87
748.15	1689.57
748.33	1841.12
748.51	1687.53
748.69	1794.02
748.87	1624.04
749.05	1632.23
749.23	1732.58
749.41	1705.96
749.59	1697.77
749.77	1767.40
749.95	1703.91
750.13	1701.86
750.31	1705.96
750.49	1669.09
750.67	1746.92
750.85	1755.11
751.03	1626.09
751.20	1834.98
751.38	1654.76
751.56	1730.53
751.74	1699.81
751.92	1671.14
752.10	1654.76
752.28	1755.11
752.46	1697.77
752.64	1701.86
752.82	1652.71
753.00	1710.05
753.18	1654.76
753.35	1662.95
753.53	1708.01
753.71	1656.81
753.89	1724.39
754.07	1685.48
754.25	1820.64
754.43	1689.57
754.61	1535.98
754.79	1748.97
754.97	1665.00
755.14	1787.88
755.32	1736.68
755.50	1656.81
755.68	1675.24
755.86	1658.85
756.04	1689.57
756.22	1599.46
756.40	1773.54
756.57	1802.21
756.75	1638.38
756.93	1708.01
757.11	1814.50
757.29	1642.47
757.47	1626.09
757.65	1611.75
757.82	1591.27
758.00	1697.77
758.18	1701.86
758.36	1652.71
758.54	1845.22
758.72	1656.81
758.90	1761.25
759.07	1708.01
759.25	1701.86
759.43	1722.34
759.61	1638.38
759.79	2195.42
759.97	1738.73
760.15	1677.29
760.32	1716.20
760.50	1761.25
760.68	1816.55
760.86	1677.29
761.04	1789.92
761.22	1738.73
761.39	1763.30
761.57	1734.63
761.75	1695.72
761.93	1724.39
762.11	1701.86
762.28	1669.09
762.46	1679.33
762.64	1757.16
762.82	1601.51
763.00	1613.80
763.18	1773.54
763.35	1587.18
763.53	1697.77
763.71	1669.09
763.89	1697.77
764.07	1685.48
764.24	1695.72
764.42	1753.06
764.60	1665.00
764.78	1730.53
764.96	1687.53
765.13	1714.15
765.31	1648.61
765.49	1771.49
765.67	1732.58
765.84	1665.00
766.02	1708.01
766.20	1599.46
766.38	1771.49
766.56	1757.16
766.73	1746.92
766.91	1724.39
767.09	1716.20
767.27	1703.91
767.44	1599.46
767.62	1722.34
767.80	1681.38
767.98	1677.29
768.15	1771.49
768.33	1765.35
768.51	1708.01
768.69	1796.07
768.87	1738.73
769.04	1722.34
769.22	1775.59
769.40	1761.25
769.58	1888.23
769.75	1753.06
769.93	1673.19
770.11	1718.25
770.28	1644.52
770.46	1767.40
770.64	1669.09
770.82	1652.71
770.99	1679.33
771.17	1720.29
771.35	1697.77
771.53	1628.14
771.70	1695.72
771.88	1714.15
772.06	1757.16
772.23	1648.61
772.41	1800.16
772.59	1736.68
772.77	1589.22
772.94	1763.30
773.12	1705.96
773.30	1738.73
773.47	1648.61
773.65	1636.33
773.83	1839.08
774.01	1753.06
774.18	1556.46
774.36	1560.55
774.54	1671.14
774.71	1609.70
774.89	1665.00
775.07	1699.81
775.24	1662.95
775.42	1654.76
775.60	1781.73
775.78	1642.47
775.95	1607.66
776.13	1607.66
776.31	1587.18
776.48	1730.53
776.66	1728.49
776.84	1640.42
777.01	1658.85
777.19	1736.68
777.37	1701.86
777.54	1708.01
777.72	1845.22
777.90	1697.77
778.07	1636.33
778.25	1941.47
778.43	1757.16
778.60	1699.81
778.78	1724.39
778.96	1763.30
779.13	1624.04
779.31	1751.01
779.49	1644.52
779.66	1802.21
779.84	1650.66
780.01	1714.15
780.19	1714.15
780.37	1712.10
780.54	1732.58
780.72	1705.96
780.90	1665.00
781.07	1708.01
781.25	1628.14
781.43	1693.67
781.60	1697.77
781.78	1703.91
781.95	1695.72
782.13	1722.34
782.31	1714.15
782.48	1597.42
782.66	1738.73
782.83	1802.21
783.01	1728.49
783.19	1671.14
783.36	1718.25
783.54	1554.41
783.72	1753.06
783.89	1765.35
784.07	1755.11
784.24	1761.25
784.42	1834.98
784.60	1742.82
784.77	1673.19
784.95	1595.37
785.12	1665.00
785.30	1673.19
785.47	1675.24
785.65	1617.90
785.83	1671.14
786.00	1755.11
786.18	1716.20
786.35	1636.33
786.53	1710.05
786.71	1781.73
786.88	1716.20
787.06	1724.39
787.23	1667.05
787.41	1689.57
787.58	1746.92
787.76	1671.14
787.94	1640.42
788.11	1703.91
788.29	1652.71
788.46	1632.23
788.64	1673.19
788.81	1716.20
788.99	1724.39
789.16	1609.70
789.34	1675.24
789.52	1675.24
789.69	1722.34
789.87	1697.77
790.04	1660.90
790.22	1718.25
790.39	1812.45
790.57	1705.96
790.74	1652.71
790.92	1685.48
791.09	1669.09
791.27	1679.33
791.44	1736.68
791.62	1703.91
791.79	1748.97
791.97	1751.01
792.15	1871.84
792.32	1638.38
792.50	1722.34
792.67	1742.82
792.85	1757.16
793.02	1673.19
793.20	1675.24
793.37	1658.85
793.55	1701.86
793.72	1626.09
793.90	1710.05
794.07	1613.80
794.25	1634.28
794.42	1693.67
794.60	1722.34
794.77	1689.57
794.95	1650.66
795.12	1771.49
795.30	1677.29
795.47	1589.22
795.65	1853.41
795.82	1714.15
796.00	1656.81
796.17	1652.71
796.34	1626.09
796.52	1734.63
796.69	1681.38
796.87	1830.88
797.04	1656.81
797.22	1775.59
797.39	1769.44
797.57	1732.58
797.74	1716.20
797.92	1697.77
798.09	1644.52
798.27	1710.05
798.44	1673.19
798.62	1669.09
798.79	1687.53
798.96	1720.29
799.14	1720.29
799.31	1857.51
799.49	1691.62
799.66	1636.33
799.84	1740.77
800.01	1685.48
800.19	1665.00
800.36	1587.18
800.53	1796.07
800.71	1703.91
800.88	1718.25
801.06	1669.09
801.23	1677.29
801.41	1705.96
801.58	1660.90
801.75	1615.85
801.93	1714.15
802.10	1808.36
802.28	1632.23
802.45	1722.34
802.63	1716.20
802.80	1785.83
802.97	1611.75
803.15	1669.09
803.32	1691.62
803.50	1683.43
803.67	1638.38
803.84	1671.14
804.02	1779.68
804.19	1628.14
804.37	1603.56
804.54	1677.29
804.71	1642.47
804.89	1718.25
805.06	1591.27
805.24	1640.42
805.41	1658.85
805.58	1644.52
805.76	1816.55
805.93	1769.44
806.10	1740.77
806.28	1701.86
806.45	1646.57
806.63	1759.21
806.80	1746.92
806.97	1697.77
807.15	1746.92
807.32	1681.38
807.49	1714.15
807.67	1519.59
807.84	1671.14
808.01	1691.62
808.19	1798.12
808.36	1748.97
808.54	1628.14
808.71	1624.04
808.88	1640.42
809.06	1716.20
809.23	1798.12
809.40	1681.38
809.58	1761.25
809.75	1732.58
809.92	1691.62
810.10	1830.88
810.27	1665.00
810.44	1746.92
810.62	1730.53
810.79	1689.57
810.96	1669.09
811.14	1755.11
811.31	1658.85
811.48	1734.63
811.66	1720.29
811.83	1673.19
812.00	1722.34
812.18	1656.81
812.35	1789.92
812.52	1742.82
812.69	1697.77
812.87	1705.96
813.04	1697.77
813.21	1646.57
813.39	1648.61
813.56	1628.14
813.73	1777.64
813.91	1644.52
814.08	1710.05
814.25	1646.57
814.42	1566.70
814.60	1693.67
814.77	1681.38
814.94	1718.25
815.12	1640.42
815.29	1718.25
815.46	1712.10
815.63	1781.73
815.81	1607.66
815.98	1677.29
816.15	1697.77
816.33	1693.67
816.50	1673.19
816.67	1697.77
816.84	1712.10
817.02	1650.66
817.19	1681.38
817.36	1679.33
817.53	1677.29
817.71	1572.84
817.88	1751.01
818.05	1718.25
818.22	1705.96
818.40	1806.31
818.57	1708.01
818.74	1708.01
818.91	1626.09
819.09	1775.59
819.26	1794.02
819.43	1589.22
819.60	1673.19
819.78	1740.77
819.95	1791.97
820.12	1656.81
820.29	1685.48
820.47	1804.26
820.64	1677.29
820.81	1570.79
820.98	1705.96
821.15	1759.21
821.33	1775.59
821.50	1654.76
821.67	1660.90
821.84	1648.61
822.02	1697.77
822.19	1724.39
822.36	1720.29
822.53	1652.71
822.70	1613.80
822.88	1648.61
823.05	1763.30
823.22	1736.68
823.39	1695.72
823.56	1679.33
823.74	1779.68
823.91	1673.19
824.08	1640.42
824.25	1626.09
824.42	1839.08
824.60	1628.14
824.77	1722.34
824.94	1613.80
825.11	1656.81
825.28	1607.66
825.45	1708.01
825.63	1634.28
825.80	1656.81
825.97	1648.61
826.14	1656.81
826.31	1634.28
826.48	1732.58
826.66	1599.46
826.83	1626.09
827.00	1685.48
827.17	1646.57
827.34	1619.94
827.51	1685.48
827.69	1675.24
827.86	1646.57
828.03	1660.90
828.20	1650.66
828.37	1669.09
828.54	1693.67
828.71	1753.06
828.89	1683.43
829.06	1732.58
829.23	1726.44
829.40	1611.75
829.57	1640.42
829.74	1746.92
829.91	1634.28
830.09	1617.90
830.26	1761.25
830.43	1751.01
830.60	1775.59
830.77	1755.11
830.94	1677.29
831.11	1693.67
831.28	1722.34
831.46	1716.20
831.63	1636.33
831.80	1746.92
831.97	1619.94
832.14	1759.21
832.31	1757.16
832.48	1617.90
832.65	1755.11
832.82	1693.67
832.99	1660.90
833.17	1607.66
833.34	1779.68
833.51	1710.05
833.68	1632.23
833.85	1783.78
834.02	1556.46
834.19	1632.23
834.36	1595.37
834.53	1677.29
834.70	1746.92
834.87	1701.86
835.04	1667.05
835.22	1718.25
835.39	1654.76
835.56	1691.62
835.73	1660.90
835.90	1787.88
836.07	1658.85
836.24	1794.02
836.41	1660.90
836.58	1599.46
836.75	1742.82
836.92	1656.81
837.09	1656.81
837.26	1718.25
837.43	1773.54
837.60	1742.82
837.77	1669.09
837.94	1796.07
838.12	1746.92
838.29	1726.44
838.46	1626.09
838.63	1558.50
838.80	1757.16
838.97	1771.49
839.14	1660.90
839.31	1703.91
839.48	1740.77
839.65	1642.47
839.82	1787.88
839.99	1744.87
840.16	1738.73
840.33	1722.34
840.50	1697.77
840.67	1597.42
840.84	1626.09
841.01	1703.91
841.18	1701.86
841.35	1673.19
841.52	1722.34
841.69	1818.60
841.86	1736.68
842.03	1683.43
842.20	1796.07
842.37	1710.05
842.54	1665.00
842.71	1746.92
842.88	1660.90
843.05	1705.96
843.22	1720.29
843.39	1695.72
843.56	1597.42
843.73	1763.30
843.90	1599.46
844.07	1597.42
844.24	1710.05
844.41	1683.43
844.58	1718.25
844.75	1681.38
844.92	1738.73
845.09	1708.01
845.26	1619.94
845.43	1667.05
845.60	1687.53
845.77	1775.59
845.94	1644.52
846.10	1806.31
846.27	1624.04
846.44	1632.23
846.61	1597.42
846.78	1816.55
846.95	1722.34
847.12	1748.97
847.29	1705.96
847.46	1660.90
847.63	1701.86
847.80	1675.24
847.97	1693.67
848.14	1779.68
848.31	1718.25
848.48	1667.05
848.65	1798.12
848.82	1619.94
848.98	1789.92
849.15	1734.63
849.32	1748.97
849.49	1671.14
849.66	1681.38
849.83	1658.85
850.00	1716.20
850.17	1689.57
850.34	1751.01
850.51	1701.86
850.68	1636.33
850.85	1845.22
851.01	1748.97
851.18	1777.64
851.35	1712.10
851.52	1718.25
851.69	1832.93
851.86	1605.61
852.03	1753.06
852.20	1761.25
852.37	1767.40
852.53	1656.81
852.70	1732.58
852.87	1753.06
853.04	1728.49
853.21	1671.14
853.38	1753.06
853.55	1708.01
853.72	1722.34
853.89	1673.19
854.05	1705.96
854.22	1611.75
854.39	1675.24
854.56	1753.06
854.73	1705.96
854.90	1671.14
855.07	1697.77
855.23	1669.09
855.40	1718.25
855.57	1710.05
855.74	1626.09
855.91	1894.37
856.08	1609.70
856.25	1642.47
856.41	1714.15
856.58	1679.33
856.75	1681.38
856.92	1656.81
857.09	1761.25
857.26	1617.90
857.42	1673.19
857.59	1705.96
857.76	1695.72
857.93	1703.91
858.10	1671.14
858.27	1617.90
858.43	1646.57
858.60	1650.66
858.77	1636.33
858.94	1683.43
859.11	1746.92
859.27	1673.19
859.44	1701.86
859.61	1759.21
859.78	1697.77
859.95	1703.91
860.12	1646.57
860.28	1787.88
860.45	1853.41
860.62	1673.19
860.79	1626.09
860.95	1693.67
861.12	1636.33
861.29	1626.09
861.46	1654.76
861.63	1611.75
861.79	1777.64
861.96	1658.85
862.13	1615.85
862.30	1777.64
862.47	1720.29
862.63	1650.66
862.80	1718.25
862.97	1736.68
863.14	1656.81
863.30	1720.29
863.47	1632.23
863.64	1683.43
863.81	1763.30
863.97	1667.05
864.14	1691.62
864.31	1712.10
864.48	1740.77
864.65	1636.33
864.81	1712.10
864.98	1767.40
865.15	1712.10
865.32	1656.81
865.48	1757.16
865.65	1791.97
865.82	1708.01
865.98	1675.24
866.15	1742.82
866.32	1728.49
866.49	1708.01
866.65	1763.30
866.82	1634.28
866.99	1654.76
867.16	1671.14
867.32	1699.81
867.49	1673.19
867.66	1705.96
867.83	1615.85
867.99	1718.25
868.16	1601.51
868.33	1648.61
868.49	1673.19
868.66	1646.57
868.83	1665.00
868.99	1677.29
869.16	1708.01
869.33	1763.30
869.50	1624.04
869.66	1642.47
869.83	1646.57
870.00	1681.38
870.16	1716.20
870.33	1697.77
870.50	1730.53
870.66	1703.91
870.83	1804.26
871.00	1679.33
871.17	1718.25
871.33	1779.68
871.50	1689.57
871.67	1751.01
871.83	1630.18
872.00	1773.54
872.17	1667.05
872.33	1820.64
872.50	1744.87
872.67	1669.09
872.83	1720.29
873.00	1693.67
873.17	1695.72
873.33	1675.24
873.50	1757.16
873.67	1712.10
873.83	1685.48
874.00	1628.14
874.16	1681.38
874.33	1679.33
874.50	1662.95
874.66	1708.01
874.83	1796.07
875.00	1814.50
875.16	1751.01
875.33	1744.87
875.50	1632.23
875.66	1697.77
875.83	1718.25
875.99	1726.44
876.16	1671.14
876.33	1667.05
876.49	1726.44
876.66	1691.62
876.83	1621.99
876.99	1593.32
877.16	1712.10
877.32	1767.40
877.49	1673.19
877.66	1757.16
877.82	1777.64
877.99	1722.34
878.15	1734.63
878.32	1658.85
878.49	1724.39
878.65	1607.66
878.82	1712.10
878.98	1771.49
879.15	1691.62
879.32	1775.59
879.48	1689.57
879.65	1695.72
879.81	1609.70
879.98	1624.04
880.15	1642.47
880.31	1724.39
880.48	1656.81
880.64	1738.73
880.81	1701.86
880.97	1853.41
881.14	1628.14
881.31	1708.01
881.47	1783.78
881.64	1609.70
881.80	1609.70
881.97	1689.57
882.13	1806.31
882.30	1621.99
882.47	1714.15
882.63	1587.18
882.80	1705.96
882.96	1736.68
883.13	1728.49
883.29	1708.01
883.46	1769.44
883.62	1789.92
883.79	1724.39
883.95	1755.11
884.12	1673.19
884.29	1759.21
884.45	1642.47
884.62	1779.68
884.78	1736.68
884.95	1783.78
885.11	1621.99
885.28	1728.49
885.44	1681.38
885.61	1742.82
885.77	1779.68
885.94	1669.09
886.10	1650.66
886.27	1720.29
886.43	1761.25
886.60	1742.82
886.76	1591.27
886.93	1658.85
887.09	1718.25
887.26	1566.70
887.42	1738.73
887.59	1789.92
887.75	1834.98
887.92	1818.60
888.08	1740.77
888.25	1794.02
888.41	1783.78
888.58	1722.34
888.74	1671.14
888.91	1658.85
>>>>>End Processed Spectral Data<<<<<
