SpectraSuite Data File
++++++++++++++++++++++++++++++++++++
Date: Mon Jun 06 15:42:37 CEST 2016
User: root
Dark Spectrum Present: No
Reference Spectrum Present: No
Number of Sampled Component Spectra: 1
Spectrometers: USB4C02835
Integration Time (usec): 100000 (USB4C02835)
Spectra Averaged: 1 (USB4C02835)
Boxcar Smoothing: 0 (USB4C02835)
Correct for Electrical Dark: No (USB4C02835)
Strobe/Lamp Enabled: No (USB4C02835)
Correct for Detector Non-linearity: No (USB4C02835)
Correct for Stray Light: No (USB4C02835)
Number of Pixels in Processed Spectrum: 3648
>>>>>Begin Processed Spectral Data<<<<<
177.47	1538.02
177.69	1538.02
177.91	1538.02
178.13	1495.02
178.36	1509.35
178.58	1607.66
178.80	1732.58
179.02	1624.04
179.24	1609.70
179.46	1683.43
179.68	1767.40
179.90	1710.05
180.13	1740.77
180.35	1683.43
180.57	1632.23
180.79	1679.33
181.01	1732.58
181.23	1812.45
181.45	1744.87
181.67	1753.06
181.90	1765.35
182.12	1646.57
182.34	1613.80
182.56	1761.25
182.78	1718.25
183.00	1638.38
183.22	1685.48
183.44	1617.90
183.66	1882.08
183.89	1812.45
184.11	1693.67
184.33	1818.60
184.55	1710.05
184.77	1757.16
184.99	1691.62
185.21	1681.38
185.43	1873.89
185.65	1624.04
185.87	1746.92
186.10	1763.30
186.32	1789.92
186.54	1777.64
186.76	1732.58
186.98	1669.09
187.20	1671.14
187.42	1665.00
187.64	1705.96
187.86	1726.44
188.08	1751.01
188.30	1738.73
188.52	1679.33
188.75	1773.54
188.97	1787.88
189.19	1744.87
189.41	1732.58
189.63	1673.19
189.85	1652.71
190.07	1705.96
190.29	1642.47
190.51	1759.21
190.73	1693.67
190.95	1800.16
191.17	1742.82
191.39	1687.53
191.61	1738.73
191.84	1599.46
192.06	1734.63
192.28	1650.66
192.50	1865.70
192.72	1724.39
192.94	1718.25
193.16	1787.88
193.38	1796.07
193.60	1673.19
193.82	1673.19
194.04	1726.44
194.26	1730.53
194.48	1697.77
194.70	1708.01
194.92	1642.47
195.14	1773.54
195.36	1748.97
195.58	1722.34
195.80	1714.15
196.02	1714.15
196.24	1761.25
196.46	1730.53
196.69	1718.25
196.91	1810.40
197.13	1705.96
197.35	1665.00
197.57	1763.30
197.79	1783.78
198.01	1789.92
198.23	1751.01
198.45	1751.01
198.67	1679.33
198.89	1656.81
199.11	1775.59
199.33	1708.01
199.55	1646.57
199.77	1742.82
199.99	1812.45
200.21	1662.95
200.43	1761.25
200.65	1677.29
200.87	1613.80
201.09	1675.24
201.31	1691.62
201.53	1779.68
201.75	1701.86
201.97	1740.77
202.19	1724.39
202.41	1800.16
202.63	1888.23
202.85	1724.39
203.07	1767.40
203.29	1685.48
203.51	1593.32
203.73	1675.24
203.95	1910.75
204.17	1773.54
204.39	1703.91
204.61	1660.90
204.83	1683.43
205.05	1767.40
205.27	1775.59
205.49	1796.07
205.71	1665.00
205.93	1640.42
206.15	1703.91
206.37	1687.53
206.59	1712.10
206.81	1630.18
207.03	1660.90
207.25	1681.38
207.47	1791.97
207.69	1744.87
207.91	1816.55
208.13	1767.40
208.34	1671.14
208.56	1662.95
208.78	1783.78
209.00	1652.71
209.22	1695.72
209.44	1705.96
209.66	1730.53
209.88	1755.11
210.10	1673.19
210.32	1673.19
210.54	1800.16
210.76	1673.19
210.98	1734.63
211.20	1646.57
211.42	1755.11
211.64	1771.49
211.86	1701.86
212.08	1761.25
212.30	1714.15
212.52	1722.34
212.74	1699.81
212.96	1685.48
213.17	1761.25
213.39	1697.77
213.61	1804.26
213.83	1640.42
214.05	1697.77
214.27	1738.73
214.49	1669.09
214.71	1689.57
214.93	1794.02
215.15	1732.58
215.37	1726.44
215.59	1640.42
215.81	1701.86
216.03	1710.05
216.24	1748.97
216.46	1708.01
216.68	1720.29
216.90	1826.79
217.12	1712.10
217.34	1779.68
217.56	1662.95
217.78	1822.69
218.00	1732.58
218.22	1736.68
218.44	1740.77
218.66	1701.86
218.87	1769.44
219.09	1734.63
219.31	1732.58
219.53	1751.01
219.75	1669.09
219.97	1759.21
220.19	1777.64
220.41	1757.16
220.63	1742.82
220.85	1755.11
221.06	1636.33
221.28	1775.59
221.50	1748.97
221.72	1640.42
221.94	1794.02
222.16	1736.68
222.38	1779.68
222.60	1734.63
222.82	1679.33
223.03	1728.49
223.25	1595.37
223.47	1804.26
223.69	1834.98
223.91	1736.68
224.13	1720.29
224.35	1652.71
224.57	1785.83
224.78	1773.54
225.00	1675.24
225.22	1665.00
225.44	1730.53
225.66	1667.05
225.88	1642.47
226.10	1843.17
226.32	1724.39
226.53	1720.29
226.75	1677.29
226.97	1638.38
227.19	1742.82
227.41	1718.25
227.63	1705.96
227.85	1644.52
228.06	1624.04
228.28	1785.83
228.50	1837.03
228.72	1646.57
228.94	1656.81
229.16	1638.38
229.37	1673.19
229.59	1718.25
229.81	1798.12
230.03	1677.29
230.25	1599.46
230.47	1564.65
230.69	1617.90
230.90	1800.16
231.12	1746.92
231.34	1701.86
231.56	1804.26
231.78	1726.44
232.00	1703.91
232.21	1665.00
232.43	1716.20
232.65	1681.38
232.87	1759.21
233.09	1632.23
233.30	1646.57
233.52	1714.15
233.74	1753.06
233.96	1667.05
234.18	1736.68
234.40	1789.92
234.61	1857.51
234.83	1574.89
235.05	1675.24
235.27	1884.13
235.49	1769.44
235.70	1751.01
235.92	1722.34
236.14	1726.44
236.36	1861.60
236.58	1646.57
236.79	1769.44
237.01	1722.34
237.23	1763.30
237.45	1800.16
237.67	1734.63
237.88	1783.78
238.10	1787.88
238.32	1667.05
238.54	1703.91
238.76	1665.00
238.97	1654.76
239.19	1677.29
239.41	1761.25
239.63	1718.25
239.85	1691.62
240.06	1683.43
240.28	1714.15
240.50	1777.64
240.72	1708.01
240.93	1695.72
241.15	1757.16
241.37	1712.10
241.59	1828.84
241.81	1693.67
242.02	1695.72
242.24	1785.83
242.46	1722.34
242.68	1640.42
242.89	1804.26
243.11	1724.39
243.33	1722.34
243.55	1697.77
243.76	1796.07
243.98	1714.15
244.20	1695.72
244.42	1726.44
244.64	1730.53
244.85	1624.04
245.07	1632.23
245.29	1744.87
245.51	1748.97
245.72	1646.57
245.94	1810.40
246.16	1777.64
246.38	1703.91
246.59	1636.33
246.81	1658.85
247.03	1705.96
247.24	1617.90
247.46	1693.67
247.68	1781.73
247.90	1701.86
248.11	1712.10
248.33	1734.63
248.55	1683.43
248.77	1691.62
248.98	1841.12
249.20	1845.22
249.42	1755.11
249.64	1744.87
249.85	1726.44
250.07	1656.81
250.29	1734.63
250.50	1734.63
250.72	1656.81
250.94	1761.25
251.16	1742.82
251.37	1789.92
251.59	1781.73
251.81	1697.77
252.02	1871.84
252.24	1648.61
252.46	1791.97
252.68	1685.48
252.89	1675.24
253.11	1607.66
253.33	1826.79
253.54	1771.49
253.76	1640.42
253.98	1714.15
254.20	1642.47
254.41	1636.33
254.63	1716.20
254.85	1650.66
255.06	1787.88
255.28	1730.53
255.50	1677.29
255.71	1701.86
255.93	1583.08
256.15	1689.57
256.36	1789.92
256.58	1730.53
256.80	1763.30
257.02	1738.73
257.23	1714.15
257.45	1748.97
257.67	1757.16
257.88	1667.05
258.10	1650.66
258.32	1728.49
258.53	1671.14
258.75	1816.55
258.97	1673.19
259.18	1744.87
259.40	1681.38
259.62	1767.40
259.83	1824.74
260.05	1705.96
260.27	1964.00
260.48	1746.92
260.70	1646.57
260.92	1757.16
261.13	1779.68
261.35	1673.19
261.57	1742.82
261.78	1689.57
262.00	1689.57
262.22	1791.97
262.43	1621.99
262.65	1587.18
262.86	1730.53
263.08	1837.03
263.30	1730.53
263.51	1689.57
263.73	1681.38
263.95	1820.64
264.16	1681.38
264.38	1716.20
264.60	1775.59
264.81	1720.29
265.03	1787.88
265.25	1724.39
265.46	1658.85
265.68	1800.16
265.89	1722.34
266.11	1570.79
266.33	1791.97
266.54	1769.44
266.76	1718.25
266.98	1728.49
267.19	1779.68
267.41	1851.36
267.62	1685.48
267.84	1742.82
268.06	1767.40
268.27	1746.92
268.49	1691.62
268.70	1832.93
268.92	1695.72
269.14	1714.15
269.35	1660.90
269.57	1742.82
269.79	1701.86
270.00	1708.01
270.22	1740.77
270.43	1667.05
270.65	1607.66
270.87	1765.35
271.08	1773.54
271.30	1775.59
271.51	1720.29
271.73	1761.25
271.95	1789.92
272.16	1755.11
272.38	1769.44
272.59	1708.01
272.81	1765.35
273.02	1773.54
273.24	1781.73
273.46	1728.49
273.67	1667.05
273.89	1724.39
274.10	1644.52
274.32	1673.19
274.54	1701.86
274.75	1759.21
274.97	1697.77
275.18	1791.97
275.40	1724.39
275.61	1748.97
275.83	1755.11
276.05	1646.57
276.26	1687.53
276.48	1800.16
276.69	1642.47
276.91	1720.29
277.12	1759.21
277.34	1718.25
277.55	1798.12
277.77	1679.33
277.99	1685.48
278.20	1791.97
278.42	1671.14
278.63	1595.37
278.85	1738.73
279.06	1667.05
279.28	1763.30
279.49	1755.11
279.71	1755.11
279.93	1708.01
280.14	1673.19
280.36	1656.81
280.57	1751.01
280.79	1796.07
281.00	1652.71
281.22	1646.57
281.43	1787.88
281.65	1626.09
281.86	1626.09
282.08	1753.06
282.29	1796.07
282.51	1685.48
282.73	1619.94
282.94	1599.46
283.16	1755.11
283.37	1916.90
283.59	1716.20
283.80	1757.16
284.02	1751.01
284.23	1710.05
284.45	1751.01
284.66	1589.22
284.88	1630.18
285.09	1777.64
285.31	1746.92
285.52	1708.01
285.74	1624.04
285.95	1822.69
286.17	1665.00
286.38	1718.25
286.60	1675.24
286.81	1691.62
287.03	1703.91
287.24	1742.82
287.46	1720.29
287.67	1660.90
287.89	1794.02
288.10	1703.91
288.32	1736.68
288.53	1789.92
288.75	1732.58
288.96	1845.22
289.18	1654.76
289.39	1716.20
289.61	1734.63
289.82	1880.04
290.04	1746.92
290.25	1679.33
290.47	1755.11
290.68	1626.09
290.90	1755.11
291.11	1722.34
291.33	1777.64
291.54	1658.85
291.76	1718.25
291.97	1716.20
292.18	1759.21
292.40	1638.38
292.61	1714.15
292.83	1818.60
293.04	1732.58
293.26	1720.29
293.47	1730.53
293.69	1681.38
293.90	1738.73
294.12	1818.60
294.33	1705.96
294.55	1738.73
294.76	1751.01
294.97	1751.01
295.19	1845.22
295.40	1660.90
295.62	1791.97
295.83	1822.69
296.05	1691.62
296.26	1779.68
296.48	1636.33
296.69	1667.05
296.90	1652.71
297.12	1798.12
297.33	1832.93
297.55	1693.67
297.76	1779.68
297.98	1814.50
298.19	1751.01
298.41	1638.38
298.62	1691.62
298.83	1787.88
299.05	1722.34
299.26	1720.29
299.48	1685.48
299.69	1705.96
299.90	1759.21
300.12	1710.05
300.33	1800.16
300.55	1667.05
300.76	1773.54
300.98	1681.38
301.19	1716.20
301.40	1775.59
301.62	1736.68
301.83	1710.05
302.05	1738.73
302.26	1722.34
302.47	1710.05
302.69	1738.73
302.90	1652.71
303.12	1578.98
303.33	1757.16
303.54	1908.71
303.76	1648.61
303.97	1720.29
304.19	1736.68
304.40	1658.85
304.61	1761.25
304.83	1787.88
305.04	1808.36
305.26	1689.57
305.47	1632.23
305.68	1726.44
305.90	1660.90
306.11	1804.26
306.33	1742.82
306.54	1701.86
306.75	1689.57
306.97	1699.81
307.18	1650.66
307.39	1597.42
307.61	1740.77
307.82	1673.19
308.04	1751.01
308.25	1734.63
308.46	1726.44
308.68	1710.05
308.89	1748.97
309.10	1791.97
309.32	1728.49
309.53	1712.10
309.74	1730.53
309.96	1753.06
310.17	1787.88
310.39	1599.46
310.60	1824.74
310.81	1701.86
311.03	1642.47
311.24	1763.30
311.45	1714.15
311.67	1757.16
311.88	1773.54
312.09	1699.81
312.31	1652.71
312.52	1695.72
312.73	1773.54
312.95	1636.33
313.16	1703.91
313.37	1720.29
313.59	1787.88
313.80	1724.39
314.01	1699.81
314.23	1701.86
314.44	1720.29
314.65	1665.00
314.87	1665.00
315.08	1671.14
315.29	1718.25
315.51	1626.09
315.72	1687.53
315.93	1802.21
316.15	1761.25
316.36	1781.73
316.57	1740.77
316.79	1751.01
317.00	1722.34
317.21	1697.77
317.43	1660.90
317.64	1703.91
317.85	1636.33
318.07	1646.57
318.28	1708.01
318.49	1834.98
318.70	1910.75
318.92	1820.64
319.13	1712.10
319.34	1957.86
319.56	1724.39
319.77	1785.83
319.98	1796.07
320.20	1710.05
320.41	1787.88
320.62	1722.34
320.83	1581.03
321.05	1808.36
321.26	1796.07
321.47	1742.82
321.69	1886.18
321.90	1732.58
322.11	1667.05
322.32	1748.97
322.54	1742.82
322.75	1716.20
322.96	1869.80
323.18	1650.66
323.39	1499.11
323.60	1687.53
323.81	1765.35
324.03	1705.96
324.24	1763.30
324.45	1705.96
324.66	1730.53
324.88	1832.93
325.09	1757.16
325.30	1658.85
325.52	1759.21
325.73	1791.97
325.94	1648.61
326.15	1626.09
326.37	1693.67
326.58	1726.44
326.79	1667.05
327.00	1609.70
327.22	1683.43
327.43	1593.32
327.64	1683.43
327.85	1722.34
328.07	1765.35
328.28	1787.88
328.49	1640.42
328.70	1685.48
328.92	1740.77
329.13	1685.48
329.34	1753.06
329.55	1834.98
329.76	1777.64
329.98	1646.57
330.19	1755.11
330.40	1730.53
330.61	1708.01
330.83	1777.64
331.04	1667.05
331.25	1714.15
331.46	1712.10
331.68	1642.47
331.89	1834.98
332.10	1705.96
332.31	1658.85
332.52	1738.73
332.74	1822.69
332.95	1597.42
333.16	1681.38
333.37	1789.92
333.58	1703.91
333.80	1673.19
334.01	1652.71
334.22	1689.57
334.43	1683.43
334.64	1669.09
334.86	1650.66
335.07	1671.14
335.28	1783.78
335.49	1660.90
335.70	1775.59
335.92	1755.11
336.13	1867.75
336.34	1755.11
336.55	1767.40
336.76	1720.29
336.98	1535.98
337.19	1681.38
337.40	1800.16
337.61	1832.93
337.82	1640.42
338.04	1763.30
338.25	1642.47
338.46	1738.73
338.67	1660.90
338.88	1722.34
339.09	1665.00
339.31	1689.57
339.52	1632.23
339.73	1621.99
339.94	1697.77
340.15	1775.59
340.36	1718.25
340.58	1699.81
340.79	1763.30
341.00	1757.16
341.21	1628.14
341.42	1767.40
341.63	1753.06
341.85	1740.77
342.06	1732.58
342.27	1693.67
342.48	1693.67
342.69	1638.38
342.90	1755.11
343.12	1755.11
343.33	1601.51
343.54	1800.16
343.75	1798.12
343.96	1757.16
344.17	1662.95
344.38	1697.77
344.60	1683.43
344.81	1662.95
345.02	1679.33
345.23	1781.73
345.44	1806.31
345.65	1779.68
345.86	1761.25
346.07	1730.53
346.29	1667.05
346.50	1755.11
346.71	1693.67
346.92	1738.73
347.13	1818.60
347.34	1669.09
347.55	1658.85
347.76	1689.57
347.98	1656.81
348.19	1654.76
348.40	1742.82
348.61	1681.38
348.82	1773.54
349.03	1746.92
349.24	1691.62
349.45	1822.69
349.66	1673.19
349.88	1775.59
350.09	1652.71
350.30	1787.88
350.51	1785.83
350.72	1796.07
350.93	1687.53
351.14	1658.85
351.35	1771.49
351.56	1730.53
351.77	1708.01
351.99	1714.15
352.20	1853.41
352.41	1773.54
352.62	1560.55
352.83	1722.34
353.04	1681.38
353.25	1677.29
353.46	1814.50
353.67	1832.93
353.88	1619.94
354.09	1730.53
354.30	1714.15
354.52	1761.25
354.73	1689.57
354.94	1648.61
355.15	1755.11
355.36	1804.26
355.57	1679.33
355.78	1791.97
355.99	1771.49
356.20	1675.24
356.41	1777.64
356.62	1775.59
356.83	1681.38
357.04	1865.70
357.25	1673.19
357.46	1638.38
357.68	1607.66
357.89	1656.81
358.10	1683.43
358.31	1701.86
358.52	1697.77
358.73	1617.90
358.94	1630.18
359.15	1730.53
359.36	1734.63
359.57	1736.68
359.78	1734.63
359.99	1720.29
360.20	1677.29
360.41	1779.68
360.62	1740.77
360.83	1609.70
361.04	1806.31
361.25	1716.20
361.46	1777.64
361.67	1705.96
361.88	1791.97
362.09	1712.10
362.30	1763.30
362.51	1634.28
362.72	1683.43
362.93	1744.87
363.14	1705.96
363.35	1705.96
363.56	1695.72
363.78	1787.88
363.99	1794.02
364.20	1689.57
364.41	1753.06
364.62	1851.36
364.83	1724.39
365.04	1712.10
365.25	1779.68
365.46	1896.42
365.67	1734.63
365.88	1644.52
366.09	1722.34
366.30	1712.10
366.51	1687.53
366.72	1656.81
366.93	1720.29
367.14	1669.09
367.35	1828.84
367.56	1648.61
367.77	1800.16
367.98	1734.63
368.18	1734.63
368.39	1787.88
368.60	1640.42
368.81	1748.97
369.02	1773.54
369.23	1609.70
369.44	1617.90
369.65	1611.75
369.86	1691.62
370.07	1703.91
370.28	1673.19
370.49	1748.97
370.70	1755.11
370.91	1665.00
371.12	1697.77
371.33	1816.55
371.54	1650.66
371.75	1849.32
371.96	1624.04
372.17	1812.45
372.38	1681.38
372.59	1759.21
372.80	1757.16
373.01	1701.86
373.22	1683.43
373.43	1708.01
373.64	1652.71
373.85	1722.34
374.06	1830.88
374.26	1785.83
374.47	1753.06
374.68	1761.25
374.89	1734.63
375.10	1701.86
375.31	1832.93
375.52	1761.25
375.73	1710.05
375.94	1675.24
376.15	1771.49
376.36	1740.77
376.57	1669.09
376.78	1703.91
376.99	1781.73
377.20	1738.73
377.40	1689.57
377.61	1884.13
377.82	1675.24
378.03	1769.44
378.24	1783.78
378.45	1779.68
378.66	1681.38
378.87	1601.51
379.08	1673.19
379.29	1734.63
379.50	1830.88
379.71	1683.43
379.91	1814.50
380.12	1669.09
380.33	1759.21
380.54	1691.62
380.75	1718.25
380.96	1646.57
381.17	1732.58
381.38	1800.16
381.59	1710.05
381.80	1695.72
382.00	1886.18
382.21	1734.63
382.42	1820.64
382.63	1906.66
382.84	1673.19
383.05	1746.92
383.26	1843.17
383.47	1687.53
383.68	1736.68
383.88	1787.88
384.09	1689.57
384.30	1763.30
384.51	1712.10
384.72	1689.57
384.93	1705.96
385.14	1738.73
385.35	1757.16
385.55	1683.43
385.76	1791.97
385.97	1751.01
386.18	1658.85
386.39	1695.72
386.60	1755.11
386.81	1751.01
387.02	1667.05
387.22	1652.71
387.43	1720.29
387.64	1849.32
387.85	1929.19
388.06	2191.33
388.27	4124.61
388.48	6643.61
388.68	8128.39
388.89	9445.23
389.10	9770.86
389.31	8599.42
389.52	7458.70
389.73	6662.04
389.93	5967.78
390.14	5818.28
390.35	5060.53
390.56	4483.00
390.77	3790.79
390.98	3014.61
391.18	2537.43
391.39	2144.22
391.60	1904.61
391.81	1918.95
392.02	1626.09
392.23	1861.60
392.43	1736.68
392.64	1834.98
392.85	1734.63
393.06	1845.22
393.27	1722.34
393.47	1669.09
393.68	1734.63
393.89	1769.44
394.10	1791.97
394.31	1665.00
394.52	1736.68
394.72	1767.40
394.93	1789.92
395.14	1689.57
395.35	1726.44
395.56	1646.57
395.76	1789.92
395.97	1744.87
396.18	1843.17
396.39	1828.84
396.60	2017.25
396.80	1894.37
397.01	1834.98
397.22	1865.70
397.43	1888.23
397.64	1769.44
397.84	1742.82
398.05	1865.70
398.26	1726.44
398.47	1775.59
398.67	1783.78
398.88	1736.68
399.09	1736.68
399.30	1714.15
399.51	1687.53
399.71	1656.81
399.92	1781.73
400.13	1675.24
400.34	1695.72
400.54	1677.29
400.75	1837.03
400.96	1724.39
401.17	1751.01
401.37	1728.49
401.58	1808.36
401.79	1744.87
402.00	1882.08
402.21	1990.63
402.41	1994.72
402.62	2062.30
402.83	2074.59
403.04	1964.00
403.24	2084.83
403.45	1875.94
403.66	1927.14
403.87	1918.95
404.07	1871.84
404.28	1839.08
404.49	1904.61
404.70	1783.78
404.90	1775.59
405.11	1695.72
405.32	1757.16
405.52	1624.04
405.73	1697.77
405.94	1644.52
406.15	1667.05
406.35	1800.16
406.56	1775.59
406.77	1837.03
406.98	1773.54
407.18	1746.92
407.39	1837.03
407.60	1759.21
407.80	1744.87
408.01	1705.96
408.22	1744.87
408.43	1718.25
408.63	1757.16
408.84	1742.82
409.05	1744.87
409.25	1609.70
409.46	1728.49
409.67	1761.25
409.88	1755.11
410.08	1779.68
410.29	1679.33
410.50	1697.77
410.70	1697.77
410.91	1755.11
411.12	1748.97
411.32	1828.84
411.53	1640.42
411.74	1822.69
411.95	1789.92
412.15	1820.64
412.36	1763.30
412.57	1734.63
412.77	1775.59
412.98	1755.11
413.19	1863.65
413.39	1714.15
413.60	1740.77
413.81	1818.60
414.01	1681.38
414.22	1818.60
414.43	1802.21
414.63	1677.29
414.84	1718.25
415.05	1734.63
415.25	1660.90
415.46	1855.46
415.67	1667.05
415.87	1734.63
416.08	1689.57
416.29	1656.81
416.49	1789.92
416.70	1638.38
416.91	1710.05
417.11	1724.39
417.32	1730.53
417.53	1697.77
417.73	1740.77
417.94	1665.00
418.15	1701.86
418.35	1722.34
418.56	1689.57
418.77	1863.65
418.97	1742.82
419.18	1691.62
419.38	1603.56
419.59	1726.44
419.80	1734.63
420.00	1759.21
420.21	1740.77
420.42	1738.73
420.62	1669.09
420.83	1671.14
421.04	1761.25
421.24	1777.64
421.45	1726.44
421.65	1767.40
421.86	1755.11
422.07	1730.53
422.27	1740.77
422.48	1759.21
422.69	1619.94
422.89	1685.48
423.10	1619.94
423.30	1671.14
423.51	1734.63
423.72	1691.62
423.92	1744.87
424.13	1642.47
424.33	1753.06
424.54	1773.54
424.75	1699.81
424.95	1847.27
425.16	1832.93
425.36	1644.52
425.57	1834.98
425.78	1828.84
425.98	1814.50
426.19	1683.43
426.39	1667.05
426.60	1701.86
426.81	1834.98
427.01	1722.34
427.22	1751.01
427.42	1619.94
427.63	1699.81
427.83	1726.44
428.04	1877.99
428.25	1800.16
428.45	1843.17
428.66	1759.21
428.86	1744.87
429.07	1763.30
429.28	1728.49
429.48	1699.81
429.69	1624.04
429.89	1681.38
430.10	1757.16
430.30	1732.58
430.51	1767.40
430.71	1660.90
430.92	1662.95
431.13	1703.91
431.33	1810.40
431.54	1748.97
431.74	1816.55
431.95	1744.87
432.15	1667.05
432.36	1665.00
432.56	1753.06
432.77	1861.60
432.98	1910.75
433.18	1853.41
433.39	1728.49
433.59	1652.71
433.80	1775.59
434.00	1824.74
434.21	1685.48
434.41	1640.42
434.62	1884.13
434.82	1656.81
435.03	1708.01
435.23	1722.34
435.44	1677.29
435.64	1712.10
435.85	1701.86
436.06	1830.88
436.26	1816.55
436.47	1648.61
436.67	1658.85
436.88	1802.21
437.08	1767.40
437.29	1808.36
437.49	1728.49
437.70	1742.82
437.90	1796.07
438.11	1828.84
438.31	1920.99
438.52	1880.04
438.72	1908.71
438.93	1822.69
439.13	1773.54
439.34	1834.98
439.54	1677.29
439.75	1812.45
439.95	1810.40
440.16	1767.40
440.36	1687.53
440.57	1820.64
440.77	1738.73
440.98	1730.53
441.18	1798.12
441.39	1716.20
441.59	1722.34
441.80	1818.60
442.00	1783.78
442.21	1810.40
442.41	1632.23
442.62	1841.12
442.82	1671.14
443.02	1699.81
443.23	1853.41
443.43	1658.85
443.64	1789.92
443.84	1726.44
444.05	1896.42
444.25	1773.54
444.46	1718.25
444.66	1697.77
444.87	1865.70
445.07	1712.10
445.28	1714.15
445.48	1767.40
445.69	1808.36
445.89	1900.52
446.09	1787.88
446.30	2004.96
446.50	2584.54
446.71	3729.35
446.91	4130.75
447.12	4691.90
447.32	4810.68
447.53	4429.76
447.73	3823.56
447.93	3534.79
448.14	3338.19
448.34	3307.47
448.55	2830.29
448.75	2756.57
448.96	2617.30
449.16	2351.07
449.36	2269.15
449.57	2019.30
449.77	1933.28
449.98	1794.02
450.18	1882.08
450.39	1814.50
450.59	1769.44
450.79	1761.25
451.00	1751.01
451.20	1822.69
451.41	1738.73
451.61	1697.77
451.81	1753.06
452.02	1716.20
452.22	1673.19
452.43	1712.10
452.63	1726.44
452.84	1771.49
453.04	1757.16
453.24	1667.05
453.45	1638.38
453.65	1753.06
453.86	1787.88
454.06	1689.57
454.26	1771.49
454.47	1656.81
454.67	1869.80
454.87	1693.67
455.08	1691.62
455.28	1834.98
455.49	1765.35
455.69	1656.81
455.89	1902.56
456.10	1808.36
456.30	1677.29
456.51	1734.63
456.71	1755.11
456.91	1853.41
457.12	1783.78
457.32	1738.73
457.52	1722.34
457.73	1818.60
457.93	1820.64
458.14	1669.09
458.34	1615.85
458.54	1658.85
458.75	1720.29
458.95	1798.12
459.15	1771.49
459.36	1755.11
459.56	1787.88
459.76	1945.57
459.97	1714.15
460.17	1812.45
460.37	1888.23
460.58	1748.97
460.78	1728.49
460.99	1779.68
461.19	1757.16
461.39	1751.01
461.60	1777.64
461.80	1834.98
462.00	1628.14
462.21	1716.20
462.41	1689.57
462.61	1720.29
462.82	1697.77
463.02	1703.91
463.22	1685.48
463.43	1701.86
463.63	1742.82
463.83	1771.49
464.04	1837.03
464.24	1759.21
464.44	1585.13
464.64	1693.67
464.85	1748.97
465.05	1724.39
465.25	1683.43
465.46	1734.63
465.66	1810.40
465.86	1769.44
466.07	1755.11
466.27	1679.33
466.47	1695.72
466.68	1615.85
466.88	1832.93
467.08	1828.84
467.29	1877.99
467.49	1781.73
467.69	1746.92
467.89	1734.63
468.10	1759.21
468.30	1757.16
468.50	1777.64
468.71	1742.82
468.91	1621.99
469.11	1812.45
469.31	1730.53
469.52	1697.77
469.72	1808.36
469.92	1857.51
470.13	1722.34
470.33	1775.59
470.53	1912.80
470.73	2074.59
470.94	2334.68
471.14	2361.31
471.34	2451.42
471.54	2430.94
471.75	2146.27
471.95	2045.92
472.15	2162.66
472.36	2185.18
472.56	2050.02
472.76	2093.02
472.96	2111.46
473.17	1920.99
473.37	1900.52
473.57	1753.06
473.77	1783.78
473.98	1812.45
474.18	1726.44
474.38	1857.51
474.58	1683.43
474.79	1705.96
474.99	1738.73
475.19	1806.31
475.39	1656.81
475.60	1791.97
475.80	1695.72
476.00	1802.21
476.20	1697.77
476.41	1701.86
476.61	1751.01
476.81	1746.92
477.01	1751.01
477.21	1857.51
477.42	1796.07
477.62	1693.67
477.82	1742.82
478.02	1660.90
478.23	1789.92
478.43	1734.63
478.63	1720.29
478.83	1714.15
479.03	1779.68
479.24	1826.79
479.44	1781.73
479.64	1632.23
479.84	1617.90
480.04	1689.57
480.25	1789.92
480.45	1708.01
480.65	1746.92
480.85	1726.44
481.06	1660.90
481.26	1699.81
481.46	1800.16
481.66	1726.44
481.86	1681.38
482.06	1716.20
482.27	1722.34
482.47	1765.35
482.67	1714.15
482.87	1703.91
483.07	1843.17
483.28	1718.25
483.48	1613.80
483.68	1726.44
483.88	1730.53
484.08	1683.43
484.29	1732.58
484.49	1732.58
484.69	1638.38
484.89	1816.55
485.09	1802.21
485.29	1751.01
485.50	1720.29
485.70	1699.81
485.90	1763.30
486.10	1728.49
486.30	1751.01
486.50	1734.63
486.71	1781.73
486.91	1820.64
487.11	1816.55
487.31	1632.23
487.51	1877.99
487.71	1667.05
487.91	1691.62
488.12	1644.52
488.32	1648.61
488.52	1681.38
488.72	1726.44
488.92	1794.02
489.12	1783.78
489.32	1744.87
489.53	1822.69
489.73	1667.05
489.93	1806.31
490.13	1681.38
490.33	1642.47
490.53	1732.58
490.73	1841.12
490.94	1636.33
491.14	1718.25
491.34	1832.93
491.54	2105.31
491.74	2469.85
491.94	2897.88
492.14	2949.08
492.34	2947.03
492.54	2815.96
492.75	2430.94
492.95	2404.32
493.15	2283.49
493.35	2293.72
493.55	2133.98
493.75	2156.51
493.95	2140.13
494.15	1966.05
494.35	1937.38
494.56	1773.54
494.76	1806.31
494.96	1830.88
495.16	1767.40
495.36	1738.73
495.56	1738.73
495.76	1714.15
495.96	1703.91
496.16	1718.25
496.36	1886.18
496.56	1697.77
496.77	1767.40
496.97	1748.97
497.17	1763.30
497.37	1710.05
497.57	1804.26
497.77	1794.02
497.97	1685.48
498.17	1759.21
498.37	1748.97
498.57	1751.01
498.77	1667.05
498.97	1775.59
499.17	1873.89
499.38	1695.72
499.58	1787.88
499.78	1734.63
499.98	1810.40
500.18	1691.62
500.38	1705.96
500.58	1900.52
500.78	2551.77
500.98	4368.32
501.18	5748.65
501.38	6582.17
501.58	6971.29
501.78	6598.56
501.98	5509.04
502.18	4949.94
502.38	4267.97
502.58	4069.31
502.78	3762.12
502.98	3629.00
503.18	3368.91
503.38	3098.58
503.59	2738.13
503.79	2686.94
503.99	2473.95
504.19	2273.25
504.39	2138.08
504.59	2156.51
504.79	2131.94
504.99	2043.87
505.19	1939.43
505.39	1845.22
505.59	1996.77
505.79	1953.76
505.99	1849.32
506.19	1802.21
506.39	1914.85
506.59	1796.07
506.79	1763.30
506.99	1779.68
507.19	1771.49
507.39	1693.67
507.59	1597.42
507.79	1718.25
507.99	1665.00
508.19	1787.88
508.39	1665.00
508.59	1753.06
508.79	1781.73
508.99	1853.41
509.19	1640.42
509.39	1802.21
509.59	1693.67
509.79	1660.90
509.99	1814.50
510.19	1804.26
510.39	1779.68
510.59	1746.92
510.79	1748.97
510.99	1734.63
511.19	1738.73
511.39	1777.64
511.59	1777.64
511.79	1781.73
511.99	1802.21
512.19	1816.55
512.38	1701.86
512.58	1703.91
512.78	1736.68
512.98	1755.11
513.18	1824.74
513.38	1695.72
513.58	1771.49
513.78	1744.87
513.98	1699.81
514.18	1708.01
514.38	1763.30
514.58	1791.97
514.78	1611.75
514.98	1720.29
515.18	1742.82
515.38	1667.05
515.58	1839.08
515.78	1781.73
515.98	1800.16
516.18	1771.49
516.38	1810.40
516.57	1695.72
516.77	1771.49
516.97	1787.88
517.17	1724.39
517.37	1630.18
517.57	1773.54
517.77	1708.01
517.97	1611.75
518.17	1783.78
518.37	1730.53
518.57	1630.18
518.77	1779.68
518.97	1814.50
519.16	1730.53
519.36	1712.10
519.56	1701.86
519.76	1710.05
519.96	1845.22
520.16	1849.32
520.36	1624.04
520.56	1751.01
520.76	1701.86
520.96	1730.53
521.16	1765.35
521.35	1847.27
521.55	1757.16
521.75	1800.16
521.95	1804.26
522.15	1738.73
522.35	1734.63
522.55	1689.57
522.75	1781.73
522.95	1699.81
523.14	1701.86
523.34	1759.21
523.54	1691.62
523.74	1730.53
523.94	1789.92
524.14	1683.43
524.34	1771.49
524.54	1787.88
524.73	1705.96
524.93	1845.22
525.13	1847.27
525.33	1697.77
525.53	1832.93
525.73	1841.12
525.93	1718.25
526.13	1791.97
526.32	1746.92
526.52	1845.22
526.72	1796.07
526.92	1718.25
527.12	1751.01
527.32	1603.56
527.52	1804.26
527.71	1724.39
527.91	1822.69
528.11	1732.58
528.31	1724.39
528.51	1765.35
528.71	1804.26
528.90	1771.49
529.10	1820.64
529.30	1744.87
529.50	1644.52
529.70	1751.01
529.90	1703.91
530.09	1773.54
530.29	1728.49
530.49	1763.30
530.69	1877.99
530.89	1814.50
531.09	1796.07
531.28	1677.29
531.48	1853.41
531.68	1777.64
531.88	1734.63
532.08	1742.82
532.28	1689.57
532.47	1841.12
532.67	1746.92
532.87	1777.64
533.07	1693.67
533.27	1736.68
533.46	1734.63
533.66	1755.11
533.86	1730.53
534.06	1761.25
534.26	1718.25
534.45	1759.21
534.65	1775.59
534.85	1722.34
535.05	1675.24
535.25	1783.78
535.44	1638.38
535.64	1808.36
535.84	1740.77
536.04	1687.53
536.24	1722.34
536.43	1724.39
536.63	1808.36
536.83	1759.21
537.03	1685.48
537.22	1591.27
537.42	1587.18
537.62	1687.53
537.82	1693.67
538.02	1818.60
538.21	1808.36
538.41	1935.33
538.61	1708.01
538.81	1826.79
539.00	1785.83
539.20	1648.61
539.40	1714.15
539.60	1753.06
539.79	1789.92
539.99	1777.64
540.19	1777.64
540.39	1744.87
540.58	1800.16
540.78	1716.20
540.98	1765.35
541.18	1806.31
541.37	1783.78
541.57	1722.34
541.77	1742.82
541.97	1681.38
542.16	1683.43
542.36	1775.59
542.56	1673.19
542.76	1841.12
542.95	1787.88
543.15	1808.36
543.35	1828.84
543.54	1765.35
543.74	1744.87
543.94	1810.40
544.14	1777.64
544.33	1791.97
544.53	1699.81
544.73	1691.62
544.93	1734.63
545.12	1716.20
545.32	1656.81
545.52	1714.15
545.71	1650.66
545.91	1701.86
546.11	1703.91
546.30	1642.47
546.50	1759.21
546.70	1816.55
546.90	1746.92
547.09	1710.05
547.29	1722.34
547.49	1728.49
547.68	1662.95
547.88	1654.76
548.08	1830.88
548.27	2197.47
548.47	1652.71
548.67	1691.62
548.87	1804.26
549.06	1738.73
549.26	1800.16
549.46	1789.92
549.65	1703.91
549.85	1716.20
550.05	1822.69
550.24	1693.67
550.44	1757.16
550.64	1742.82
550.83	1695.72
551.03	1822.69
551.23	1869.80
551.42	1814.50
551.62	1710.05
551.82	1789.92
552.01	1777.64
552.21	1849.32
552.41	1775.59
552.60	1796.07
552.80	1724.39
553.00	1705.96
553.19	1685.48
553.39	1900.52
553.59	1689.57
553.78	1816.55
553.98	1777.64
554.17	1708.01
554.37	1773.54
554.57	1724.39
554.76	1701.86
554.96	1701.86
555.16	1755.11
555.35	1765.35
555.55	1814.50
555.75	1773.54
555.94	1847.27
556.14	1628.14
556.33	1843.17
556.53	1746.92
556.73	1755.11
556.92	1834.98
557.12	1855.46
557.32	1886.18
557.51	1791.97
557.71	1810.40
557.90	1806.31
558.10	1787.88
558.30	1796.07
558.49	1744.87
558.69	1767.40
558.88	1812.45
559.08	1800.16
559.28	1703.91
559.47	1751.01
559.67	1816.55
559.86	1847.27
560.06	1810.40
560.26	1734.63
560.45	1822.69
560.65	1755.11
560.84	1849.32
561.04	1736.68
561.24	1777.64
561.43	1646.57
561.63	1822.69
561.82	1738.73
562.02	1724.39
562.22	1671.14
562.41	1689.57
562.61	1771.49
562.80	1697.77
563.00	1888.23
563.19	1742.82
563.39	1839.08
563.59	1746.92
563.78	1710.05
563.98	1683.43
564.17	1738.73
564.37	1691.62
564.56	1753.06
564.76	1652.71
564.96	1783.78
565.15	1742.82
565.35	1861.60
565.54	1712.10
565.74	1769.44
565.93	1830.88
566.13	1728.49
566.32	1810.40
566.52	1730.53
566.71	1783.78
566.91	1771.49
567.11	1740.77
567.30	1708.01
567.50	1775.59
567.69	1718.25
567.89	1812.45
568.08	1691.62
568.28	1814.50
568.47	1714.15
568.67	1761.25
568.86	1771.49
569.06	1746.92
569.25	1703.91
569.45	1656.81
569.64	1722.34
569.84	1732.58
570.04	1775.59
570.23	1703.91
570.43	1751.01
570.62	1787.88
570.82	1808.36
571.01	1779.68
571.21	1726.44
571.40	1796.07
571.60	1728.49
571.79	1789.92
571.99	1748.97
572.18	1812.45
572.38	1783.78
572.57	1722.34
572.77	1744.87
572.96	1884.13
573.16	1849.32
573.35	1748.97
573.55	1935.33
573.74	1656.81
573.94	1728.49
574.13	1681.38
574.33	1884.13
574.52	1826.79
574.71	1730.53
574.91	1810.40
575.10	1712.10
575.30	1701.86
575.49	1699.81
575.69	1648.61
575.88	1775.59
576.08	1738.73
576.27	1783.78
576.47	1740.77
576.66	1843.17
576.86	1859.56
577.05	1742.82
577.25	1785.83
577.44	1849.32
577.64	1710.05
577.83	1839.08
578.02	1730.53
578.22	1820.64
578.41	1918.95
578.61	1703.91
578.80	1611.75
579.00	1763.30
579.19	1765.35
579.39	1845.22
579.58	1857.51
579.77	1773.54
579.97	1871.84
580.16	1871.84
580.36	1804.26
580.55	1812.45
580.75	1734.63
580.94	1800.16
581.13	1843.17
581.33	1871.84
581.52	1755.11
581.72	1892.32
581.91	1884.13
582.11	1771.49
582.30	1841.12
582.49	1748.97
582.69	1865.70
582.88	1845.22
583.08	1769.44
583.27	1738.73
583.47	1808.36
583.66	1732.58
583.85	1695.72
584.05	1777.64
584.24	1798.12
584.44	1875.94
584.63	1746.92
584.82	1796.07
585.02	1814.50
585.21	1796.07
585.41	1888.23
585.60	1820.64
585.79	1908.71
585.99	1918.95
586.18	1918.95
586.37	2176.99
586.57	3346.38
586.76	9654.12
586.96	24053.39
587.15	33605.12
587.34	39486.89
587.54	41301.39
587.73	35816.93
587.93	25783.93
588.12	20932.29
588.31	17757.94
588.51	16086.79
588.70	15038.23
588.89	13772.59
589.09	12402.50
589.28	10909.53
589.47	9146.23
589.67	7763.85
589.86	6162.34
590.06	4820.92
590.25	3862.47
590.44	3078.10
590.64	2668.50
590.83	2252.77
591.02	2113.50
591.22	1945.57
591.41	1882.08
591.60	1849.32
591.80	1912.80
591.99	1777.64
592.18	1816.55
592.38	1781.73
592.57	1740.77
592.76	1787.88
592.96	1716.20
593.15	1689.57
593.34	1837.03
593.54	1767.40
593.73	1820.64
593.92	1775.59
594.12	1730.53
594.31	1769.44
594.50	1716.20
594.70	1810.40
594.89	1861.60
595.08	1681.38
595.28	1847.27
595.47	1959.91
595.66	1820.64
595.86	1736.68
596.05	1796.07
596.24	1726.44
596.43	1855.46
596.63	1890.28
596.82	1798.12
597.01	1744.87
597.21	1873.89
597.40	1820.64
597.59	1798.12
597.79	1746.92
597.98	1824.74
598.17	1726.44
598.36	1716.20
598.56	1771.49
598.75	1648.61
598.94	1730.53
599.14	1740.77
599.33	1675.24
599.52	1781.73
599.71	1748.97
599.91	1787.88
600.10	1798.12
600.29	1787.88
600.48	1738.73
600.68	1804.26
600.87	1742.82
601.06	1732.58
601.26	1744.87
601.45	1781.73
601.64	1728.49
601.83	1804.26
602.03	1697.77
602.22	1691.62
602.41	1800.16
602.60	1771.49
602.80	1765.35
602.99	1781.73
603.18	1677.29
603.37	1763.30
603.57	1734.63
603.76	1765.35
603.95	1851.36
604.14	1683.43
604.34	1681.38
604.53	1720.29
604.72	1751.01
604.91	1789.92
605.10	1771.49
605.30	1656.81
605.49	1859.56
605.68	1894.37
605.87	1738.73
606.07	1712.10
606.26	1751.01
606.45	1791.97
606.64	1714.15
606.84	1779.68
607.03	1738.73
607.22	1808.36
607.41	1734.63
607.60	1695.72
607.80	1800.16
607.99	1718.25
608.18	1771.49
608.37	1746.92
608.56	1685.48
608.76	1738.73
608.95	1880.04
609.14	1658.85
609.33	1804.26
609.52	1812.45
609.72	1720.29
609.91	1804.26
610.10	1708.01
610.29	1859.56
610.48	1771.49
610.68	1767.40
610.87	1742.82
611.06	1845.22
611.25	1730.53
611.44	1787.88
611.63	1705.96
611.83	1785.83
612.02	1779.68
612.21	1845.22
612.40	1677.29
612.59	1740.77
612.79	1681.38
612.98	1777.64
613.17	1849.32
613.36	1740.77
613.55	1730.53
613.74	1691.62
613.93	1708.01
614.13	1806.31
614.32	1759.21
614.51	1763.30
614.70	1728.49
614.89	1779.68
615.08	1755.11
615.28	2021.35
615.47	1591.27
615.66	1767.40
615.85	1779.68
616.04	1845.22
616.23	1693.67
616.42	1714.15
616.62	1681.38
616.81	1779.68
617.00	1736.68
617.19	1759.21
617.38	1595.37
617.57	1757.16
617.76	1697.77
617.95	1796.07
618.15	1728.49
618.34	1832.93
618.53	1761.25
618.72	1705.96
618.91	1791.97
619.10	1773.54
619.29	1722.34
619.48	1673.19
619.68	1718.25
619.87	1650.66
620.06	1708.01
620.25	1720.29
620.44	1744.87
620.63	1714.15
620.82	1685.48
621.01	1812.45
621.20	1708.01
621.39	1708.01
621.59	1734.63
621.78	1740.77
621.97	1703.91
622.16	1701.86
622.35	1806.31
622.54	1710.05
622.73	1814.50
622.92	1724.39
623.11	1730.53
623.30	1677.29
623.49	1822.69
623.68	1726.44
623.88	1734.63
624.07	1705.96
624.26	1771.49
624.45	1781.73
624.64	1746.92
624.83	1710.05
625.02	1662.95
625.21	1808.36
625.40	1748.97
625.59	1771.49
625.78	1791.97
625.97	1845.22
626.16	1841.12
626.35	1783.78
626.54	1783.78
626.74	1837.03
626.93	1755.11
627.12	1724.39
627.31	1834.98
627.50	1802.21
627.69	1867.75
627.88	1708.01
628.07	1693.67
628.26	1615.85
628.45	1632.23
628.64	1691.62
628.83	1705.96
629.02	1648.61
629.21	1736.68
629.40	1724.39
629.59	1757.16
629.78	1796.07
629.97	1736.68
630.16	1748.97
630.35	1718.25
630.54	1650.66
630.73	1658.85
630.92	1744.87
631.11	1697.77
631.30	1759.21
631.49	1789.92
631.68	1751.01
631.87	1806.31
632.06	1654.76
632.25	1820.64
632.44	1724.39
632.63	1705.96
632.82	1697.77
633.01	1652.71
633.20	1755.11
633.39	1763.30
633.58	1634.28
633.77	1714.15
633.96	1687.53
634.15	1751.01
634.34	1767.40
634.53	1718.25
634.72	1789.92
634.91	1658.85
635.10	1710.05
635.29	1828.84
635.48	1751.01
635.67	1732.58
635.86	1769.44
636.05	1828.84
636.24	1773.54
636.43	1720.29
636.62	1740.77
636.81	1644.52
637.00	1656.81
637.19	1685.48
637.38	1705.96
637.57	1640.42
637.76	1660.90
637.95	1794.02
638.14	1689.57
638.33	1765.35
638.52	1730.53
638.71	1662.95
638.89	1607.66
639.08	1839.08
639.27	1691.62
639.46	1630.18
639.65	1820.64
639.84	1800.16
640.03	1806.31
640.22	1753.06
640.41	1828.84
640.60	1691.62
640.79	1775.59
640.98	1646.57
641.17	1789.92
641.36	1714.15
641.55	1708.01
641.74	1658.85
641.92	1697.77
642.11	1640.42
642.30	1753.06
642.49	1660.90
642.68	1736.68
642.87	1773.54
643.06	1816.55
643.25	1734.63
643.44	1687.53
643.63	1751.01
643.82	1757.16
644.00	1689.57
644.19	1746.92
644.38	1722.34
644.57	1677.29
644.76	1683.43
644.95	1714.15
645.14	1730.53
645.33	1751.01
645.52	1726.44
645.71	1685.48
645.89	1718.25
646.08	1656.81
646.27	1693.67
646.46	1951.71
646.65	1681.38
646.84	1718.25
647.03	1689.57
647.22	1806.31
647.40	1691.62
647.59	1724.39
647.78	1599.46
647.97	1789.92
648.16	1708.01
648.35	1812.45
648.54	1761.25
648.73	1726.44
648.91	1789.92
649.10	1746.92
649.29	1714.15
649.48	1714.15
649.67	1736.68
649.86	1656.81
650.05	1691.62
650.23	1755.11
650.42	1665.00
650.61	1757.16
650.80	1732.58
650.99	1804.26
651.18	1720.29
651.36	1804.26
651.55	1683.43
651.74	1781.73
651.93	1665.00
652.12	1703.91
652.31	1773.54
652.49	1710.05
652.68	1679.33
652.87	1826.79
653.06	1777.64
653.25	1814.50
653.44	1787.88
653.62	1802.21
653.81	1665.00
654.00	1679.33
654.19	1701.86
654.38	1910.75
654.56	1677.29
654.75	1724.39
654.94	1744.87
655.13	1738.73
655.32	1740.77
655.51	1773.54
655.69	1697.77
655.88	1748.97
656.07	1710.05
656.26	1808.36
656.45	1693.67
656.63	1685.48
656.82	1798.12
657.01	1798.12
657.20	1714.15
657.38	1847.27
657.57	1744.87
657.76	1703.91
657.95	1789.92
658.14	1665.00
658.32	1742.82
658.51	1652.71
658.70	1779.68
658.89	1683.43
659.08	1773.54
659.26	1765.35
659.45	1691.62
659.64	1705.96
659.83	1632.23
660.01	1896.42
660.20	1777.64
660.39	1880.04
660.58	1656.81
660.76	1824.74
660.95	1626.09
661.14	1814.50
661.33	1583.08
661.51	1732.58
661.70	1710.05
661.89	1763.30
662.08	1726.44
662.26	1708.01
662.45	1687.53
662.64	1808.36
662.83	1751.01
663.01	1636.33
663.20	1730.53
663.39	1781.73
663.58	1665.00
663.76	1783.78
663.95	1816.55
664.14	1673.19
664.32	1740.77
664.51	1703.91
664.70	1595.37
664.89	1769.44
665.07	1687.53
665.26	1834.98
665.45	1667.05
665.64	1839.08
665.82	1665.00
666.01	1751.01
666.20	1695.72
666.38	1769.44
666.57	1802.21
666.76	2179.04
666.95	4417.47
667.13	10239.84
667.32	14950.17
667.51	17559.28
667.69	18599.65
667.88	17219.32
668.07	12126.02
668.25	9299.83
668.44	7964.55
668.63	7120.79
668.81	6664.09
669.00	6141.86
669.19	5580.71
669.38	5029.81
669.56	4437.95
669.75	3964.87
669.94	3330.00
670.12	2842.58
670.31	2500.57
670.50	2215.90
670.68	2103.26
670.87	1957.86
671.06	1787.88
671.24	1798.12
671.43	1841.12
671.62	1804.26
671.80	1679.33
671.99	1714.15
672.18	1701.86
672.36	1736.68
672.55	1681.38
672.74	1644.52
672.92	1763.30
673.11	1812.45
673.29	1697.77
673.48	1757.16
673.67	1732.58
673.85	1751.01
674.04	1671.14
674.23	1718.25
674.41	1787.88
674.60	1757.16
674.79	1658.85
674.97	1671.14
675.16	1824.74
675.34	1769.44
675.53	1669.09
675.72	1791.97
675.90	1765.35
676.09	1650.66
676.28	1724.39
676.46	1697.77
676.65	1794.02
676.83	1603.56
677.02	1734.63
677.21	1789.92
677.39	1769.44
677.58	1714.15
677.77	1742.82
677.95	1728.49
678.14	1710.05
678.32	1613.80
678.51	1677.29
678.70	1775.59
678.88	1722.34
679.07	1812.45
679.25	1681.38
679.44	1714.15
679.63	1603.56
679.81	1677.29
680.00	1771.49
680.18	1740.77
680.37	1810.40
680.55	1736.68
680.74	1712.10
680.93	1560.55
681.11	1751.01
681.30	1738.73
681.48	1796.07
681.67	1796.07
681.85	1759.21
682.04	1753.06
682.23	1812.45
682.41	1771.49
682.60	1728.49
682.78	1720.29
682.97	1611.75
683.15	1736.68
683.34	1644.52
683.53	1771.49
683.71	1597.42
683.90	1781.73
684.08	1845.22
684.27	1689.57
684.45	1736.68
684.64	1824.74
684.82	1673.19
685.01	1800.16
685.19	1689.57
685.38	1880.04
685.57	1701.86
685.75	1665.00
685.94	1734.63
686.12	1652.71
686.31	1738.73
686.49	1794.02
686.68	1669.09
686.86	1638.38
687.05	1648.61
687.23	1855.46
687.42	1708.01
687.60	1576.94
687.79	1761.25
687.97	1806.31
688.16	1726.44
688.34	1816.55
688.53	1636.33
688.71	1746.92
688.90	1828.84
689.08	1757.16
689.27	1617.90
689.45	1851.36
689.64	1656.81
689.82	1673.19
690.01	1738.73
690.19	1710.05
690.38	1693.67
690.56	1806.31
690.75	1755.11
690.93	1656.81
691.12	1738.73
691.30	1701.86
691.49	1701.86
691.67	1779.68
691.86	1855.46
692.04	1726.44
692.23	1726.44
692.41	1714.15
692.60	1857.51
692.78	1718.25
692.97	1691.62
693.15	1794.02
693.34	1769.44
693.52	1755.11
693.71	1665.00
693.89	1705.96
694.08	1658.85
694.26	1847.27
694.44	1777.64
694.63	1708.01
694.81	1632.23
695.00	1697.77
695.18	1830.88
695.37	1886.18
695.55	1755.11
695.74	1703.91
695.92	1732.58
696.10	1734.63
696.29	1591.27
696.47	1714.15
696.66	1628.14
696.84	1710.05
697.03	1718.25
697.21	1863.65
697.40	2318.30
697.58	1804.26
697.76	1687.53
697.95	1757.16
698.13	1673.19
698.32	1746.92
698.50	1699.81
698.68	1814.50
698.87	1744.87
699.05	1755.11
699.24	1732.58
699.42	1691.62
699.61	1656.81
699.79	1755.11
699.97	1701.86
700.16	1568.74
700.34	1710.05
700.53	1751.01
700.71	1839.08
700.89	1787.88
701.08	1638.38
701.26	1779.68
701.45	2103.26
701.63	1689.57
701.81	1734.63
702.00	1652.71
702.18	1785.83
702.37	1691.62
702.55	1654.76
702.73	1681.38
702.92	1669.09
703.10	1771.49
703.28	1763.30
703.47	1656.81
703.65	1832.93
703.84	1765.35
704.02	1705.96
704.20	1742.82
704.39	1669.09
704.57	1734.63
704.75	1814.50
704.94	1716.20
705.12	1742.82
705.30	1845.22
705.49	2299.87
705.67	4419.52
705.86	9330.55
706.04	12330.82
706.22	14309.16
706.41	15079.19
706.59	13434.68
706.77	9234.29
706.96	7251.86
707.14	6416.29
707.32	5791.66
707.51	5547.95
707.69	4796.34
707.87	4100.03
708.06	3463.12
708.24	2858.96
708.42	2406.36
708.61	2279.39
708.79	1902.56
708.97	1802.21
709.16	1798.12
709.34	1722.34
709.52	1681.38
709.71	1720.29
709.89	1732.58
710.07	1714.15
710.26	1748.97
710.44	1738.73
710.62	1738.73
710.80	1769.44
710.99	1802.21
711.17	1720.29
711.35	1710.05
711.54	1728.49
711.72	1802.21
711.90	1769.44
712.09	1728.49
712.27	1621.99
712.45	1755.11
712.63	1628.14
712.82	1751.01
713.00	1738.73
713.18	1800.16
713.37	1769.44
713.55	1757.16
713.73	1818.60
713.91	1757.16
714.10	1714.15
714.28	1685.48
714.46	1757.16
714.65	1708.01
714.83	1722.34
715.01	1791.97
715.19	1693.67
715.38	1730.53
715.56	1800.16
715.74	1714.15
715.92	1667.05
716.11	1861.60
716.29	1576.94
716.47	1728.49
716.65	1597.42
716.84	1677.29
717.02	1716.20
717.20	1638.38
717.38	1652.71
717.57	1710.05
717.75	1683.43
717.93	1701.86
718.11	1746.92
718.30	1634.28
718.48	1783.78
718.66	1751.01
718.84	1888.23
719.03	1771.49
719.21	1693.67
719.39	1816.55
719.57	1755.11
719.75	1730.53
719.94	1693.67
720.12	1730.53
720.30	1714.15
720.48	1826.79
720.67	1695.72
720.85	1617.90
721.03	1697.77
721.21	1703.91
721.39	1832.93
721.58	1771.49
721.76	1679.33
721.94	1703.91
722.12	1716.20
722.30	1785.83
722.49	1634.28
722.67	1751.01
722.85	1781.73
723.03	1681.38
723.21	1654.76
723.40	1746.92
723.58	1765.35
723.76	1761.25
723.94	1769.44
724.12	1736.68
724.30	1771.49
724.49	1791.97
724.67	1677.29
724.85	1849.32
725.03	1734.63
725.21	1748.97
725.40	1724.39
725.58	1763.30
725.76	1822.69
725.94	1710.05
726.12	1718.25
726.30	1773.54
726.49	1738.73
726.67	1742.82
726.85	1757.16
727.03	1736.68
727.21	2123.74
727.39	2904.02
727.57	3774.41
727.76	4231.10
727.94	4454.33
728.12	4333.50
728.30	3706.82
728.48	3030.99
728.66	2729.94
728.84	2592.73
729.03	2263.01
729.21	2183.13
729.39	1970.15
729.57	1904.61
729.75	1761.25
729.93	1910.75
730.11	1710.05
730.30	1681.38
730.48	1755.11
730.66	1812.45
730.84	1671.14
731.02	1744.87
731.20	1765.35
731.38	1742.82
731.56	1652.71
731.74	1724.39
731.93	1699.81
732.11	1783.78
732.29	1701.86
732.47	1763.30
732.65	1734.63
732.83	1761.25
733.01	1751.01
733.19	1693.67
733.37	1753.06
733.56	1757.16
733.74	1632.23
733.92	1767.40
734.10	1714.15
734.28	1697.77
734.46	1693.67
734.64	1767.40
734.82	1654.76
735.00	1626.09
735.18	1708.01
735.36	1712.10
735.54	1830.88
735.73	1746.92
735.91	1703.91
736.09	1757.16
736.27	1652.71
736.45	1824.74
736.63	1624.04
736.81	1697.77
736.99	1738.73
737.17	1791.97
737.35	1708.01
737.53	1767.40
737.71	1669.09
737.89	1773.54
738.07	1648.61
738.25	1699.81
738.43	1654.76
738.61	1628.14
738.80	1646.57
738.98	1714.15
739.16	1679.33
739.34	1683.43
739.52	1769.44
739.70	1703.91
739.88	1763.30
740.06	1744.87
740.24	1648.61
740.42	1738.73
740.60	1613.80
740.78	1701.86
740.96	1607.66
741.14	1736.68
741.32	1773.54
741.50	1685.48
741.68	1820.64
741.86	1695.72
742.04	1699.81
742.22	1636.33
742.40	1708.01
742.58	1800.16
742.76	1755.11
742.94	1779.68
743.12	1683.43
743.30	1687.53
743.48	1689.57
743.66	1656.81
743.84	1746.92
744.02	1779.68
744.20	1681.38
744.38	1673.19
744.56	1667.05
744.74	1802.21
744.92	1697.77
745.10	1804.26
745.28	1787.88
745.46	1742.82
745.64	1689.57
745.82	1755.11
746.00	1695.72
746.18	1687.53
746.36	1683.43
746.54	1787.88
746.72	1665.00
746.90	1660.90
747.08	1767.40
747.26	1677.29
747.44	1767.40
747.62	1722.34
747.80	1640.42
747.98	1767.40
748.15	1669.09
748.33	1865.70
748.51	1693.67
748.69	1769.44
748.87	1683.43
749.05	1710.05
749.23	1658.85
749.41	1798.12
749.59	1667.05
749.77	1714.15
749.95	1650.66
750.13	1744.87
750.31	1710.05
750.49	1748.97
750.67	1812.45
750.85	1771.49
751.03	1720.29
751.20	1785.83
751.38	1673.19
751.56	1746.92
751.74	1802.21
751.92	1712.10
752.10	1710.05
752.28	1781.73
752.46	1675.24
752.64	1654.76
752.82	1640.42
753.00	1763.30
753.18	1673.19
753.35	1681.38
753.53	1712.10
753.71	1716.20
753.89	1742.82
754.07	1712.10
754.25	1748.97
754.43	1808.36
754.61	1660.90
754.79	1703.91
754.97	1705.96
755.14	1818.60
755.32	1708.01
755.50	1703.91
755.68	1708.01
755.86	1681.38
756.04	1652.71
756.22	1621.99
756.40	1726.44
756.57	1894.37
756.75	1679.33
756.93	1771.49
757.11	1705.96
757.29	1701.86
757.47	1634.28
757.65	1617.90
757.82	1583.08
758.00	1669.09
758.18	1675.24
758.36	1746.92
758.54	1757.16
758.72	1648.61
758.90	1761.25
759.07	1751.01
759.25	1665.00
759.43	1853.41
759.61	1681.38
759.79	2136.03
759.97	1714.15
760.15	1603.56
760.32	1724.39
760.50	1705.96
760.68	1777.64
760.86	1665.00
761.04	1845.22
761.22	1763.30
761.39	1753.06
761.57	1783.78
761.75	1703.91
761.93	1761.25
762.11	1667.05
762.28	1660.90
762.46	1615.85
762.64	1769.44
762.82	1687.53
763.00	1705.96
763.18	1777.64
763.35	1671.14
763.53	1779.68
763.71	1636.33
763.89	1730.53
764.07	1726.44
764.24	1714.15
764.42	1746.92
764.60	1658.85
764.78	1746.92
764.96	1759.21
765.13	1742.82
765.31	1734.63
765.49	1763.30
765.67	1652.71
765.84	1691.62
766.02	1716.20
766.20	1617.90
766.38	1761.25
766.56	1785.83
766.73	1710.05
766.91	1667.05
767.09	1759.21
767.27	1769.44
767.44	1615.85
767.62	1759.21
767.80	1660.90
767.98	1695.72
768.15	1693.67
768.33	1742.82
768.51	1742.82
768.69	1771.49
768.87	1732.58
769.04	1777.64
769.22	1857.51
769.40	1800.16
769.58	1828.84
769.75	1753.06
769.93	1828.84
770.11	1722.34
770.28	1697.77
770.46	1775.59
770.64	1785.83
770.82	1662.95
770.99	1683.43
771.17	1773.54
771.35	1654.76
771.53	1751.01
771.70	1669.09
771.88	1730.53
772.06	1679.33
772.23	1732.58
772.41	1757.16
772.59	1654.76
772.77	1585.13
772.94	1656.81
773.12	1777.64
773.30	1593.32
773.47	1722.34
773.65	1703.91
773.83	1755.11
774.01	1673.19
774.18	1624.04
774.36	1718.25
774.54	1714.15
774.71	1714.15
774.89	1734.63
775.07	1726.44
775.24	1675.24
775.42	1679.33
775.60	1822.69
775.78	1730.53
775.95	1599.46
776.13	1677.29
776.31	1603.56
776.48	1689.57
776.66	1767.40
776.84	1650.66
777.01	1712.10
777.19	1767.40
777.37	1695.72
777.54	1796.07
777.72	1859.56
777.90	1736.68
778.07	1595.37
778.25	1816.55
778.43	1875.94
778.60	1697.77
778.78	1744.87
778.96	1849.32
779.13	1654.76
779.31	1712.10
779.49	1708.01
779.66	1726.44
779.84	1699.81
780.01	1673.19
780.19	1675.24
780.37	1761.25
780.54	1800.16
780.72	1689.57
780.90	1697.77
781.07	1683.43
781.25	1619.94
781.43	1794.02
781.60	1728.49
781.78	1798.12
781.95	1751.01
782.13	1710.05
782.31	1712.10
782.48	1624.04
782.66	1705.96
782.83	1787.88
783.01	1751.01
783.19	1736.68
783.36	1679.33
783.54	1689.57
783.72	1755.11
783.89	1705.96
784.07	1767.40
784.24	1667.05
784.42	1732.58
784.60	1705.96
784.77	1767.40
784.95	1566.70
785.12	1724.39
785.30	1744.87
785.47	1689.57
785.65	1638.38
785.83	1681.38
786.00	1652.71
786.18	1697.77
786.35	1673.19
786.53	1656.81
786.71	1761.25
786.88	1746.92
787.06	1722.34
787.23	1677.29
787.41	1611.75
787.58	1669.09
787.76	1648.61
787.94	1722.34
788.11	1658.85
788.29	1689.57
788.46	1665.00
788.64	1609.70
788.81	1714.15
788.99	1656.81
789.16	1681.38
789.34	1710.05
789.52	1630.18
789.69	1712.10
789.87	1683.43
790.04	1685.48
790.22	1644.52
790.39	1820.64
790.57	1619.94
790.74	1724.39
790.92	1824.74
791.09	1624.04
791.27	1751.01
791.44	1742.82
791.62	1691.62
791.79	1736.68
791.97	1693.67
792.15	1875.94
792.32	1753.06
792.50	1734.63
792.67	1828.84
792.85	1824.74
793.02	1730.53
793.20	1640.42
793.37	1630.18
793.55	1671.14
793.72	1734.63
793.90	1748.97
794.07	1685.48
794.25	1665.00
794.42	1683.43
794.60	1736.68
794.77	1611.75
794.95	1759.21
795.12	1789.92
795.30	1687.53
795.47	1644.52
795.65	1798.12
795.82	1796.07
796.00	1685.48
796.17	1591.27
796.34	1734.63
796.52	1748.97
796.69	1744.87
796.87	1730.53
797.04	1830.88
797.22	1759.21
797.39	1687.53
797.57	1818.60
797.74	1695.72
797.92	1712.10
798.09	1705.96
798.27	1796.07
798.44	1769.44
798.62	1640.42
798.79	1748.97
798.96	1791.97
799.14	1765.35
799.31	1806.31
799.49	1730.53
799.66	1671.14
799.84	1683.43
800.01	1546.22
800.19	1755.11
800.36	1640.42
800.53	1673.19
800.71	1671.14
800.88	1824.74
801.06	1574.89
801.23	1781.73
801.41	1648.61
801.58	1695.72
801.75	1665.00
801.93	1718.25
802.10	1718.25
802.28	1687.53
802.45	1734.63
802.63	1781.73
802.80	1804.26
802.97	1722.34
803.15	1732.58
803.32	1662.95
803.50	1640.42
803.67	1656.81
803.84	1675.24
804.02	1734.63
804.19	1654.76
804.37	1523.69
804.54	1632.23
804.71	1642.47
804.89	1652.71
805.06	1677.29
805.24	1689.57
805.41	1685.48
805.58	1667.05
805.76	1832.93
805.93	1724.39
806.10	1820.64
806.28	1767.40
806.45	1701.86
806.63	1751.01
806.80	1732.58
806.97	1748.97
807.15	1708.01
807.32	1732.58
807.49	1681.38
807.67	1708.01
807.84	1798.12
808.01	1615.85
808.19	1814.50
808.36	1912.80
808.54	1759.21
808.71	1642.47
808.88	1798.12
809.06	1804.26
809.23	1824.74
809.40	1669.09
809.58	1767.40
809.75	1710.05
809.92	1720.29
810.10	1820.64
810.27	1712.10
810.44	1789.92
810.62	1693.67
810.79	1740.77
810.96	1705.96
811.14	1701.86
811.31	1724.39
811.48	1814.50
811.66	1783.78
811.83	1777.64
812.00	1824.74
812.18	1695.72
812.35	1828.84
812.52	1656.81
812.69	1687.53
812.87	1628.14
813.04	1542.12
813.21	1599.46
813.39	1763.30
813.56	1619.94
813.73	1775.59
813.91	1660.90
814.08	1730.53
814.25	1742.82
814.42	1624.04
814.60	1730.53
814.77	1708.01
814.94	1773.54
815.12	1730.53
815.29	1734.63
815.46	1660.90
815.63	1771.49
815.81	1730.53
815.98	1642.47
816.15	1742.82
816.33	1771.49
816.50	1699.81
816.67	1771.49
816.84	1728.49
817.02	1632.23
817.19	1689.57
817.36	1716.20
817.53	1679.33
817.71	1705.96
817.88	1828.84
818.05	1669.09
818.22	1619.94
818.40	1849.32
818.57	1708.01
818.74	1751.01
818.91	1757.16
819.09	1718.25
819.26	1734.63
819.43	1736.68
819.60	1701.86
819.78	1834.98
819.95	1820.64
820.12	1658.85
820.29	1742.82
820.47	1767.40
820.64	1722.34
820.81	1656.81
820.98	1650.66
821.15	1720.29
821.33	1757.16
821.50	1662.95
821.67	1714.15
821.84	1771.49
822.02	1730.53
822.19	1718.25
822.36	1660.90
822.53	1673.19
822.70	1601.51
822.88	1693.67
823.05	1818.60
823.22	1755.11
823.39	1767.40
823.56	1699.81
823.74	1812.45
823.91	1546.22
824.08	1671.14
824.25	1652.71
824.42	1814.50
824.60	1671.14
824.77	1685.48
824.94	1738.73
825.11	1732.58
825.28	1669.09
825.45	1705.96
825.63	1818.60
825.80	1660.90
825.97	1746.92
826.14	1761.25
826.31	1654.76
826.48	1724.39
826.66	1742.82
826.83	1691.62
827.00	1759.21
827.17	1697.77
827.34	1746.92
827.51	1660.90
827.69	1697.77
827.86	1550.31
828.03	1751.01
828.20	1755.11
828.37	1689.57
828.54	1757.16
828.71	1589.22
828.89	1798.12
829.06	1699.81
829.23	1775.59
829.40	1677.29
829.57	1730.53
829.74	1689.57
829.91	1660.90
830.09	1650.66
830.26	1732.58
830.43	1837.03
830.60	1751.01
830.77	1812.45
830.94	1804.26
831.11	1689.57
831.28	1691.62
831.46	1779.68
831.63	1642.47
831.80	1800.16
831.97	1724.39
832.14	1675.24
832.31	1708.01
832.48	1777.64
832.65	1804.26
832.82	1679.33
832.99	1771.49
833.17	1685.48
833.34	1851.36
833.51	1734.63
833.68	1570.79
833.85	1759.21
834.02	1660.90
834.19	1685.48
834.36	1646.57
834.53	1769.44
834.70	1714.15
834.87	1720.29
835.04	1724.39
835.22	1628.14
835.39	1648.61
835.56	1572.84
835.73	1654.76
835.90	1701.86
836.07	1640.42
836.24	1705.96
836.41	1581.03
836.58	1681.38
836.75	1779.68
836.92	1636.33
837.09	1652.71
837.26	1720.29
837.43	1779.68
837.60	1722.34
837.77	1708.01
837.94	1751.01
838.12	1724.39
838.29	1710.05
838.46	1576.94
838.63	1636.33
838.80	1806.31
838.97	1734.63
839.14	1763.30
839.31	1726.44
839.48	1718.25
839.65	1673.19
839.82	1794.02
839.99	1691.62
840.16	1681.38
840.33	1681.38
840.50	1673.19
840.67	1638.38
840.84	1574.89
841.01	1626.09
841.18	1736.68
841.35	1613.80
841.52	1730.53
841.69	1845.22
841.86	1759.21
842.03	1701.86
842.20	1783.78
842.37	1798.12
842.54	1673.19
842.71	1644.52
842.88	1677.29
843.05	1718.25
843.22	1755.11
843.39	1726.44
843.56	1699.81
843.73	1689.57
843.90	1761.25
844.07	1701.86
844.24	1761.25
844.41	1767.40
844.58	1783.78
844.75	1751.01
844.92	1714.15
845.09	1640.42
845.26	1691.62
845.43	1665.00
845.60	1589.22
845.77	1798.12
845.94	1730.53
846.10	1724.39
846.27	1671.14
846.44	1591.27
846.61	1636.33
846.78	1787.88
846.95	1740.77
847.12	1710.05
847.29	1691.62
847.46	1638.38
847.63	1816.55
847.80	1615.85
847.97	1738.73
848.14	1900.52
848.31	1691.62
848.48	1671.14
848.65	1771.49
848.82	1753.06
848.98	1810.40
849.15	1800.16
849.32	1759.21
849.49	1753.06
849.66	1789.92
849.83	1759.21
850.00	1652.71
850.17	1716.20
850.34	1734.63
850.51	1691.62
850.68	1718.25
850.85	1834.98
851.01	1697.77
851.18	1738.73
851.35	1636.33
851.52	1710.05
851.69	1740.77
851.86	1607.66
852.03	1806.31
852.20	1767.40
852.37	1779.68
852.53	1621.99
852.70	1701.86
852.87	1800.16
853.04	1718.25
853.21	1718.25
853.38	1798.12
853.55	1804.26
853.72	1818.60
853.89	1662.95
854.05	1640.42
854.22	1718.25
854.39	1640.42
854.56	1751.01
854.73	1781.73
854.90	1697.77
855.07	1691.62
855.23	1699.81
855.40	1724.39
855.57	1691.62
855.74	1656.81
855.91	1871.84
856.08	1626.09
856.25	1648.61
856.41	1697.77
856.58	1763.30
856.75	1787.88
856.92	1679.33
857.09	1810.40
857.26	1626.09
857.42	1712.10
857.59	1783.78
857.76	1660.90
857.93	1699.81
858.10	1738.73
858.27	1624.04
858.43	1687.53
858.60	1708.01
858.77	1611.75
858.94	1771.49
859.11	1789.92
859.27	1712.10
859.44	1714.15
859.61	1767.40
859.78	1753.06
859.95	1621.99
860.12	1693.67
860.28	1839.08
860.45	1789.92
860.62	1587.18
860.79	1718.25
860.95	1701.86
861.12	1699.81
861.29	1675.24
861.46	1738.73
861.63	1638.38
861.79	1673.19
861.96	1710.05
862.13	1656.81
862.30	1748.97
862.47	1693.67
862.63	1644.52
862.80	1832.93
862.97	1777.64
863.14	1753.06
863.30	1726.44
863.47	1601.51
863.64	1880.04
863.81	1771.49
863.97	1607.66
864.14	1710.05
864.31	1687.53
864.48	1738.73
864.65	1681.38
864.81	1746.92
864.98	1740.77
865.15	1705.96
865.32	1765.35
865.48	1855.46
865.65	1751.01
865.82	1628.14
865.98	1710.05
866.15	1767.40
866.32	1742.82
866.49	1644.52
866.65	1740.77
866.82	1656.81
866.99	1650.66
867.16	1701.86
867.32	1746.92
867.49	1667.05
867.66	1701.86
867.83	1669.09
867.99	1611.75
868.16	1757.16
868.33	1677.29
868.49	1771.49
868.66	1744.87
868.83	1716.20
868.99	1798.12
869.16	1683.43
869.33	1746.92
869.50	1738.73
869.66	1652.71
869.83	1730.53
870.00	1681.38
870.16	1746.92
870.33	1736.68
870.50	1701.86
870.66	1695.72
870.83	1877.99
871.00	1642.47
871.17	1714.15
871.33	1806.31
871.50	1683.43
871.67	1742.82
871.83	1724.39
872.00	1812.45
872.17	1689.57
872.33	1767.40
872.50	1812.45
872.67	1708.01
872.83	1789.92
873.00	1718.25
873.17	1656.81
873.33	1781.73
873.50	1722.34
873.67	1564.65
873.83	1769.44
874.00	1738.73
874.16	1828.84
874.33	1726.44
874.50	1624.04
874.66	1800.16
874.83	1718.25
875.00	1757.16
875.16	1773.54
875.33	1796.07
875.50	1552.36
875.66	1701.86
875.83	1814.50
875.99	1714.15
876.16	1738.73
876.33	1601.51
876.49	1746.92
876.66	1740.77
876.83	1667.05
876.99	1642.47
877.16	1693.67
877.32	1679.33
877.49	1665.00
877.66	1656.81
877.82	1810.40
877.99	1769.44
878.15	1724.39
878.32	1728.49
878.49	1738.73
878.65	1791.97
878.82	1751.01
878.98	1658.85
879.15	1755.11
879.32	1789.92
879.48	1701.86
879.65	1746.92
879.81	1701.86
879.98	1644.52
880.15	1703.91
880.31	1777.64
880.48	1665.00
880.64	1699.81
880.81	1781.73
880.97	1730.53
881.14	1699.81
881.31	1687.53
881.47	1779.68
881.64	1605.61
881.80	1640.42
881.97	1691.62
882.13	1757.16
882.30	1667.05
882.47	1751.01
882.63	1611.75
882.80	1660.90
882.96	1697.77
883.13	1755.11
883.29	1636.33
883.46	1691.62
883.62	1834.98
883.79	1714.15
883.95	1765.35
884.12	1769.44
884.29	1789.92
884.45	1677.29
884.62	1765.35
884.78	1621.99
884.95	1775.59
885.11	1640.42
885.28	1757.16
885.44	1656.81
885.61	1738.73
885.77	1834.98
885.94	1734.63
886.10	1757.16
886.27	1734.63
886.43	1802.21
886.60	1779.68
886.76	1746.92
886.93	1656.81
887.09	1646.57
887.26	1648.61
887.42	1730.53
887.59	1740.77
887.75	1796.07
887.92	1757.16
888.08	1789.92
888.25	1849.32
888.41	1726.44
888.58	1736.68
888.74	1665.00
888.91	1718.25
>>>>>End Processed Spectral Data<<<<<
