SpectraSuite Data File
++++++++++++++++++++++++++++++++++++
Date: Mon Jun 06 16:40:57 CEST 2016
User: root
Dark Spectrum Present: No
Reference Spectrum Present: No
Number of Sampled Component Spectra: 1
Spectrometers: USB4C02835
Integration Time (usec): 100000 (USB4C02835)
Spectra Averaged: 1 (USB4C02835)
Boxcar Smoothing: 0 (USB4C02835)
Correct for Electrical Dark: No (USB4C02835)
Strobe/Lamp Enabled: No (USB4C02835)
Correct for Detector Non-linearity: No (USB4C02835)
Correct for Stray Light: No (USB4C02835)
Number of Pixels in Processed Spectrum: 3648
>>>>>Begin Processed Spectral Data<<<<<
177.47	1486.83
177.69	1486.83
177.91	1486.83
178.13	1501.16
178.36	1470.44
178.58	1621.99
178.80	1726.44
179.02	1669.09
179.24	1656.81
179.46	1644.52
179.68	1734.63
179.90	1710.05
180.13	1761.25
180.35	1697.77
180.57	1701.86
180.79	1755.11
181.01	1683.43
181.23	1789.92
181.45	1783.78
181.67	1722.34
181.90	1785.83
182.12	1771.49
182.34	1662.95
182.56	1724.39
182.78	1693.67
183.00	1712.10
183.22	1658.85
183.44	1613.80
183.66	1820.64
183.89	1798.12
184.11	1726.44
184.33	1722.34
184.55	1804.26
184.77	1746.92
184.99	1746.92
185.21	1791.97
185.43	1894.37
185.65	1669.09
185.87	1732.58
186.10	1802.21
186.32	1839.08
186.54	1685.48
186.76	1724.39
186.98	1742.82
187.20	1695.72
187.42	1730.53
187.64	1677.29
187.86	1695.72
188.08	1771.49
188.30	1710.05
188.52	1785.83
188.75	1716.20
188.97	1773.54
189.19	1697.77
189.41	1744.87
189.63	1785.83
189.85	1681.38
190.07	1632.23
190.29	1619.94
190.51	1726.44
190.73	1689.57
190.95	1812.45
191.17	1738.73
191.39	1611.75
191.61	1677.29
191.84	1656.81
192.06	1796.07
192.28	1617.90
192.50	1910.75
192.72	1626.09
192.94	1757.16
193.16	1726.44
193.38	1697.77
193.60	1656.81
193.82	1724.39
194.04	1777.64
194.26	1697.77
194.48	1679.33
194.70	1677.29
194.92	1581.03
195.14	1748.97
195.36	1646.57
195.58	1732.58
195.80	1681.38
196.02	1740.77
196.24	1671.14
196.46	1755.11
196.69	1738.73
196.91	1791.97
197.13	1665.00
197.35	1619.94
197.57	1742.82
197.79	1757.16
198.01	1775.59
198.23	1824.74
198.45	1714.15
198.67	1595.37
198.89	1716.20
199.11	1722.34
199.33	1656.81
199.55	1624.04
199.77	1751.01
199.99	1785.83
200.21	1638.38
200.43	1697.77
200.65	1712.10
200.87	1656.81
201.09	1712.10
201.31	1714.15
201.53	1773.54
201.75	1753.06
201.97	1785.83
202.19	1677.29
202.41	1824.74
202.63	1847.27
202.85	1744.87
203.07	1669.09
203.29	1665.00
203.51	1673.19
203.73	1734.63
203.95	1904.61
204.17	1751.01
204.39	1734.63
204.61	1736.68
204.83	1677.29
205.05	1718.25
205.27	1791.97
205.49	1857.51
205.71	1679.33
205.93	1665.00
206.15	1640.42
206.37	1734.63
206.59	1720.29
206.81	1710.05
207.03	1671.14
207.25	1644.52
207.47	1751.01
207.69	1697.77
207.91	1851.36
208.13	1810.40
208.34	1685.48
208.56	1683.43
208.78	1755.11
209.00	1654.76
209.22	1742.82
209.44	1751.01
209.66	1708.01
209.88	1636.33
210.10	1687.53
210.32	1677.29
210.54	1802.21
210.76	1669.09
210.98	1753.06
211.20	1626.09
211.42	1759.21
211.64	1705.96
211.86	1787.88
212.08	1775.59
212.30	1734.63
212.52	1812.45
212.74	1730.53
212.96	1681.38
213.17	1779.68
213.39	1691.62
213.61	1802.21
213.83	1742.82
214.05	1636.33
214.27	1820.64
214.49	1650.66
214.71	1648.61
214.93	1679.33
215.15	1654.76
215.37	1734.63
215.59	1710.05
215.81	1816.55
216.03	1808.36
216.24	1746.92
216.46	1751.01
216.68	1716.20
216.90	1761.25
217.12	1816.55
217.34	1718.25
217.56	1660.90
217.78	1845.22
218.00	1722.34
218.22	1728.49
218.44	1693.67
218.66	1667.05
218.87	1763.30
219.09	1624.04
219.31	1730.53
219.53	1796.07
219.75	1652.71
219.97	1685.48
220.19	1714.15
220.41	1677.29
220.63	1773.54
220.85	1714.15
221.06	1722.34
221.28	1800.16
221.50	1765.35
221.72	1701.86
221.94	1665.00
222.16	1673.19
222.38	1734.63
222.60	1734.63
222.82	1691.62
223.03	1722.34
223.25	1726.44
223.47	1767.40
223.69	1843.17
223.91	1732.58
224.13	1740.77
224.35	1681.38
224.57	1800.16
224.78	1753.06
225.00	1695.72
225.22	1613.80
225.44	1699.81
225.66	1720.29
225.88	1665.00
226.10	1794.02
226.32	1757.16
226.53	1814.50
226.75	1677.29
226.97	1718.25
227.19	1736.68
227.41	1665.00
227.63	1646.57
227.85	1677.29
228.06	1650.66
228.28	1742.82
228.50	1796.07
228.72	1613.80
228.94	1683.43
229.16	1621.99
229.37	1632.23
229.59	1662.95
229.81	1757.16
230.03	1667.05
230.25	1609.70
230.47	1630.18
230.69	1599.46
230.90	1816.55
231.12	1730.53
231.34	1679.33
231.56	1796.07
231.78	1644.52
232.00	1689.57
232.21	1730.53
232.43	1677.29
232.65	1611.75
232.87	1732.58
233.09	1705.96
233.30	1613.80
233.52	1802.21
233.74	1818.60
233.96	1695.72
234.18	1779.68
234.40	1710.05
234.61	1859.56
234.83	1650.66
235.05	1607.66
235.27	1785.83
235.49	1775.59
235.70	1722.34
235.92	1814.50
236.14	1689.57
236.36	1920.99
236.58	1640.42
236.79	1685.48
237.01	1652.71
237.23	1667.05
237.45	1802.21
237.67	1683.43
237.88	1720.29
238.10	1742.82
238.32	1650.66
238.54	1714.15
238.76	1738.73
238.97	1724.39
239.19	1720.29
239.41	1746.92
239.63	1738.73
239.85	1615.85
240.06	1736.68
240.28	1665.00
240.50	1777.64
240.72	1621.99
240.93	1611.75
241.15	1722.34
241.37	1763.30
241.59	1781.73
241.81	1738.73
242.02	1673.19
242.24	1689.57
242.46	1722.34
242.68	1677.29
242.89	1759.21
243.11	1734.63
243.33	1710.05
243.55	1773.54
243.76	1769.44
243.98	1687.53
244.20	1667.05
244.42	1726.44
244.64	1722.34
244.85	1665.00
245.07	1708.01
245.29	1767.40
245.51	1671.14
245.72	1708.01
245.94	1742.82
246.16	1708.01
246.38	1691.62
246.59	1740.77
246.81	1597.42
247.03	1736.68
247.24	1544.17
247.46	1650.66
247.68	1816.55
247.90	1619.94
248.11	1779.68
248.33	1732.58
248.55	1656.81
248.77	1710.05
248.98	1738.73
249.20	1744.87
249.42	1705.96
249.64	1734.63
249.85	1697.77
250.07	1656.81
250.29	1771.49
250.50	1740.77
250.72	1648.61
250.94	1712.10
251.16	1865.70
251.37	1804.26
251.59	1751.01
251.81	1757.16
252.02	1787.88
252.24	1636.33
252.46	1802.21
252.68	1699.81
252.89	1644.52
253.11	1558.50
253.33	1761.25
253.54	1814.50
253.76	1617.90
253.98	1742.82
254.20	1697.77
254.41	1597.42
254.63	1695.72
254.85	1640.42
255.06	1681.38
255.28	1744.87
255.50	1646.57
255.71	1687.53
255.93	1677.29
256.15	1703.91
256.36	1730.53
256.58	1685.48
256.80	1738.73
257.02	1710.05
257.23	1617.90
257.45	1697.77
257.67	1871.84
257.88	1621.99
258.10	1753.06
258.32	1665.00
258.53	1693.67
258.75	1857.51
258.97	1615.85
259.18	1726.44
259.40	1732.58
259.62	1834.98
259.83	1755.11
260.05	1722.34
260.27	1976.29
260.48	1689.57
260.70	1652.71
260.92	1697.77
261.13	1685.48
261.35	1740.77
261.57	1798.12
261.78	1535.98
262.00	1615.85
262.22	1714.15
262.43	1667.05
262.65	1728.49
262.86	1673.19
263.08	1828.84
263.30	1751.01
263.51	1599.46
263.73	1751.01
263.95	1787.88
264.16	1646.57
264.38	1720.29
264.60	1744.87
264.81	1673.19
265.03	1748.97
265.25	1767.40
265.46	1748.97
265.68	1853.41
265.89	1654.76
266.11	1714.15
266.33	1722.34
266.54	1753.06
266.76	1673.19
266.98	1742.82
267.19	1769.44
267.41	1777.64
267.62	1693.67
267.84	1546.22
268.06	1740.77
268.27	1730.53
268.49	1789.92
268.70	1816.55
268.92	1787.88
269.14	1605.61
269.35	1640.42
269.57	1652.71
269.79	1738.73
270.00	1669.09
270.22	1777.64
270.43	1605.61
270.65	1636.33
270.87	1736.68
271.08	1849.32
271.30	1779.68
271.51	1683.43
271.73	1710.05
271.95	1738.73
272.16	1710.05
272.38	1720.29
272.59	1634.28
272.81	1769.44
273.02	1765.35
273.24	1718.25
273.46	1763.30
273.67	1662.95
273.89	1710.05
274.10	1718.25
274.32	1716.20
274.54	1699.81
274.75	1730.53
274.97	1669.09
275.18	1732.58
275.40	1763.30
275.61	1701.86
275.83	1767.40
276.05	1654.76
276.26	1697.77
276.48	1769.44
276.69	1755.11
276.91	1662.95
277.12	1771.49
277.34	1701.86
277.55	1751.01
277.77	1771.49
277.99	1759.21
278.20	1755.11
278.42	1673.19
278.63	1624.04
278.85	1611.75
279.06	1603.56
279.28	1755.11
279.49	1781.73
279.71	1708.01
279.93	1718.25
280.14	1726.44
280.36	1708.01
280.57	1718.25
280.79	1712.10
281.00	1710.05
281.22	1748.97
281.43	1755.11
281.65	1656.81
281.86	1605.61
282.08	1720.29
282.29	1824.74
282.51	1617.90
282.73	1642.47
282.94	1583.08
283.16	1773.54
283.37	1775.59
283.59	1726.44
283.80	1724.39
284.02	1662.95
284.23	1744.87
284.45	1701.86
284.66	1699.81
284.88	1677.29
285.09	1732.58
285.31	1701.86
285.52	1759.21
285.74	1615.85
285.95	1742.82
286.17	1744.87
286.38	1765.35
286.60	1636.33
286.81	1677.29
287.03	1712.10
287.24	1679.33
287.46	1763.30
287.67	1693.67
287.89	1806.31
288.10	1671.14
288.32	1695.72
288.53	1814.50
288.75	1683.43
288.96	1748.97
289.18	1636.33
289.39	1775.59
289.61	1771.49
289.82	1822.69
290.04	1738.73
290.25	1595.37
290.47	1716.20
290.68	1675.24
290.90	1796.07
291.11	1607.66
291.33	1722.34
291.54	1632.23
291.76	1646.57
291.97	1757.16
292.18	1650.66
292.40	1730.53
292.61	1673.19
292.83	1757.16
293.04	1714.15
293.26	1730.53
293.47	1642.47
293.69	1677.29
293.90	1728.49
294.12	1828.84
294.33	1771.49
294.55	1777.64
294.76	1785.83
294.97	1755.11
295.19	1859.56
295.40	1736.68
295.62	1691.62
295.83	1791.97
296.05	1677.29
296.26	1763.30
296.48	1718.25
296.69	1695.72
296.90	1699.81
297.12	1746.92
297.33	1841.12
297.55	1648.61
297.76	1683.43
297.98	1765.35
298.19	1857.51
298.41	1693.67
298.62	1665.00
298.83	1802.21
299.05	1755.11
299.26	1697.77
299.48	1701.86
299.69	1691.62
299.90	1740.77
300.12	1677.29
300.33	1839.08
300.55	1771.49
300.76	1765.35
300.98	1712.10
301.19	1773.54
301.40	1751.01
301.62	1683.43
301.83	1669.09
302.05	1771.49
302.26	1720.29
302.47	1687.53
302.69	1621.99
302.90	1681.38
303.12	1619.94
303.33	1796.07
303.54	1785.83
303.76	1699.81
303.97	1714.15
304.19	1853.41
304.40	1640.42
304.61	1736.68
304.83	1769.44
305.04	1812.45
305.26	1712.10
305.47	1701.86
305.68	1658.85
305.90	1621.99
306.11	1708.01
306.33	1697.77
306.54	1726.44
306.75	1683.43
306.97	1638.38
307.18	1753.06
307.39	1648.61
307.61	1705.96
307.82	1699.81
308.04	1757.16
308.25	1640.42
308.46	1808.36
308.68	1744.87
308.89	1736.68
309.10	1781.73
309.32	1726.44
309.53	1748.97
309.74	1679.33
309.96	1757.16
310.17	1710.05
310.39	1638.38
310.60	1746.92
310.81	1716.20
311.03	1632.23
311.24	1740.77
311.45	1751.01
311.67	1806.31
311.88	1722.34
312.09	1658.85
312.31	1658.85
312.52	1710.05
312.73	1734.63
312.95	1667.05
313.16	1673.19
313.37	1769.44
313.59	1773.54
313.80	1732.58
314.01	1771.49
314.23	1687.53
314.44	1630.18
314.65	1587.18
314.87	1753.06
315.08	1662.95
315.29	1779.68
315.51	1660.90
315.72	1570.79
315.93	1904.61
316.15	1822.69
316.36	1636.33
316.57	1705.96
316.79	1802.21
317.00	1730.53
317.21	1738.73
317.43	1634.28
317.64	1732.58
317.85	1712.10
318.07	1644.52
318.28	1798.12
318.49	1849.32
318.70	1830.88
318.92	1771.49
319.13	1863.65
319.34	1894.37
319.56	1837.03
319.77	1816.55
319.98	1802.21
320.20	1837.03
320.41	1718.25
320.62	1738.73
320.83	1771.49
321.05	1828.84
321.26	1703.91
321.47	1757.16
321.69	1828.84
321.90	1634.28
322.11	1785.83
322.32	1681.38
322.54	1722.34
322.75	1669.09
322.96	1812.45
323.18	1585.13
323.39	1591.27
323.60	1742.82
323.81	1785.83
324.03	1732.58
324.24	1665.00
324.45	1744.87
324.66	1636.33
324.88	1771.49
325.09	1773.54
325.30	1689.57
325.52	1697.77
325.73	1716.20
325.94	1576.94
326.15	1665.00
326.37	1675.24
326.58	1740.77
326.79	1796.07
327.00	1642.47
327.22	1740.77
327.43	1671.14
327.64	1671.14
327.85	1822.69
328.07	1728.49
328.28	1794.02
328.49	1695.72
328.70	1701.86
328.92	1724.39
329.13	1710.05
329.34	1673.19
329.55	1824.74
329.76	1775.59
329.98	1648.61
330.19	1820.64
330.40	1753.06
330.61	1708.01
330.83	1716.20
331.04	1658.85
331.25	1734.63
331.46	1671.14
331.68	1626.09
331.89	1781.73
332.10	1724.39
332.31	1624.04
332.52	1658.85
332.74	1787.88
332.95	1638.38
333.16	1761.25
333.37	1773.54
333.58	1650.66
333.80	1687.53
334.01	1572.84
334.22	1636.33
334.43	1652.71
334.64	1626.09
334.86	1626.09
335.07	1632.23
335.28	1820.64
335.49	1640.42
335.70	1794.02
335.92	1785.83
336.13	1877.99
336.34	1738.73
336.55	1689.57
336.76	1691.62
336.98	1630.18
337.19	1697.77
337.40	1800.16
337.61	1853.41
337.82	1630.18
338.04	1826.79
338.25	1656.81
338.46	1687.53
338.67	1687.53
338.88	1669.09
339.09	1691.62
339.31	1665.00
339.52	1720.29
339.73	1636.33
339.94	1697.77
340.15	1738.73
340.36	1701.86
340.58	1742.82
340.79	1685.48
341.00	1794.02
341.21	1705.96
341.42	1818.60
341.63	1662.95
341.85	1781.73
342.06	1708.01
342.27	1595.37
342.48	1759.21
342.69	1585.13
342.90	1671.14
343.12	1730.53
343.33	1703.91
343.54	1775.59
343.75	1832.93
343.96	1703.91
344.17	1660.90
344.38	1660.90
344.60	1646.57
344.81	1710.05
345.02	1617.90
345.23	1796.07
345.44	1845.22
345.65	1724.39
345.86	1767.40
346.07	1718.25
346.29	1669.09
346.50	1738.73
346.71	1716.20
346.92	1773.54
347.13	1824.74
347.34	1726.44
347.55	1736.68
347.76	1820.64
347.98	1689.57
348.19	1705.96
348.40	1738.73
348.61	1675.24
348.82	1734.63
349.03	1748.97
349.24	1583.08
349.45	1773.54
349.66	1568.74
349.88	1759.21
350.09	1734.63
350.30	1791.97
350.51	1775.59
350.72	1730.53
350.93	1685.48
351.14	1669.09
351.35	1755.11
351.56	1621.99
351.77	1603.56
351.99	1710.05
352.20	1738.73
352.41	1771.49
352.62	1609.70
352.83	1705.96
353.04	1787.88
353.25	1697.77
353.46	1740.77
353.67	1789.92
353.88	1638.38
354.09	1716.20
354.30	1695.72
354.52	1757.16
354.73	1697.77
354.94	1681.38
355.15	1757.16
355.36	1871.84
355.57	1718.25
355.78	1701.86
355.99	1681.38
356.20	1701.86
356.41	1724.39
356.62	1738.73
356.83	1673.19
357.04	1769.44
357.25	1587.18
357.46	1632.23
357.68	1630.18
357.89	1685.48
358.10	1742.82
358.31	1710.05
358.52	1630.18
358.73	1669.09
358.94	1628.14
359.15	1771.49
359.36	1732.58
359.57	1656.81
359.78	1667.05
359.99	1722.34
360.20	1617.90
360.41	1656.81
360.62	1787.88
360.83	1689.57
361.04	1640.42
361.25	1783.78
361.46	1677.29
361.67	1837.03
361.88	1740.77
362.09	1744.87
362.30	1798.12
362.51	1685.48
362.72	1751.01
362.93	1812.45
363.14	1708.01
363.35	1726.44
363.56	1642.47
363.78	1767.40
363.99	1730.53
364.20	1679.33
364.41	1720.29
364.62	1824.74
364.83	1763.30
365.04	1662.95
365.25	1638.38
365.46	1859.56
365.67	1597.42
365.88	1599.46
366.09	1660.90
366.30	1634.28
366.51	1740.77
366.72	1724.39
366.93	1695.72
367.14	1744.87
367.35	1689.57
367.56	1701.86
367.77	1779.68
367.98	1691.62
368.18	1736.68
368.39	1718.25
368.60	1603.56
368.81	1794.02
369.02	1767.40
369.23	1732.58
369.44	1644.52
369.65	1630.18
369.86	1775.59
370.07	1751.01
370.28	1628.14
370.49	1740.77
370.70	1697.77
370.91	1605.61
371.12	1642.47
371.33	1796.07
371.54	1660.90
371.75	1826.79
371.96	1632.23
372.17	1669.09
372.38	1740.77
372.59	1710.05
372.80	1640.42
373.01	1726.44
373.22	1732.58
373.43	1695.72
373.64	1603.56
373.85	1759.21
374.06	1875.94
374.26	1816.55
374.47	1791.97
374.68	1814.50
374.89	1759.21
375.10	1636.33
375.31	1751.01
375.52	1673.19
375.73	1818.60
375.94	1648.61
376.15	1867.75
376.36	1679.33
376.57	1699.81
376.78	1718.25
376.99	1714.15
377.20	1748.97
377.40	1710.05
377.61	1773.54
377.82	1679.33
378.03	1837.03
378.24	1732.58
378.45	1697.77
378.66	1787.88
378.87	1634.28
379.08	1654.76
379.29	1736.68
379.50	1734.63
379.71	1697.77
379.91	1777.64
380.12	1716.20
380.33	1724.39
380.54	1789.92
380.75	1773.54
380.96	1738.73
381.17	1910.75
381.38	1796.07
381.59	1738.73
381.80	1783.78
382.00	1785.83
382.21	1812.45
382.42	1839.08
382.63	1910.75
382.84	1806.31
383.05	1798.12
383.26	1787.88
383.47	1681.38
383.68	1748.97
383.88	1783.78
384.09	1781.73
384.30	1824.74
384.51	1734.63
384.72	1693.67
384.93	1628.14
385.14	1794.02
385.35	1820.64
385.55	1601.51
385.76	1740.77
385.97	1746.92
386.18	1654.76
386.39	1697.77
386.60	1751.01
386.81	1781.73
387.02	1617.90
387.22	1671.14
387.43	1767.40
387.64	1751.01
387.85	1847.27
388.06	2297.82
388.27	4179.90
388.48	6723.48
388.68	7980.93
388.89	9717.61
389.10	9756.52
389.31	8636.28
389.52	7350.16
389.73	6721.43
389.93	6250.40
390.14	5701.54
390.35	5089.20
390.56	4542.39
390.77	3798.98
390.98	3110.86
391.18	2578.39
391.39	2144.22
391.60	1787.88
391.81	1865.70
392.02	1722.34
392.23	1855.46
392.43	1759.21
392.64	1730.53
392.85	1675.24
393.06	1826.79
393.27	1732.58
393.47	1669.09
393.68	1751.01
393.89	1671.14
394.10	1773.54
394.31	1652.71
394.52	1656.81
394.72	1755.11
394.93	1816.55
395.14	1646.57
395.35	1732.58
395.56	1656.81
395.76	1740.77
395.97	1771.49
396.18	1808.36
396.39	1906.66
396.60	2050.02
396.80	1927.14
397.01	1882.08
397.22	1882.08
397.43	1853.41
397.64	1787.88
397.84	1931.23
398.05	1916.90
398.26	1804.26
398.47	1804.26
398.67	1798.12
398.88	1675.24
399.09	1718.25
399.30	1748.97
399.51	1748.97
399.71	1687.53
399.92	1730.53
400.13	1746.92
400.34	1759.21
400.54	1703.91
400.75	1859.56
400.96	1679.33
401.17	1839.08
401.37	1718.25
401.58	1724.39
401.79	1730.53
402.00	1857.51
402.21	1982.43
402.41	1951.71
402.62	2002.91
402.83	2002.91
403.04	2039.78
403.24	2041.82
403.45	1910.75
403.66	1861.60
403.87	1814.50
404.07	1896.42
404.28	1871.84
404.49	1798.12
404.70	1761.25
404.90	1791.97
405.11	1773.54
405.32	1787.88
405.52	1669.09
405.73	1736.68
405.94	1679.33
406.15	1703.91
406.35	1771.49
406.56	1695.72
406.77	1800.16
406.98	1755.11
407.18	1642.47
407.39	1810.40
407.60	1734.63
407.80	1757.16
408.01	1652.71
408.22	1753.06
408.43	1652.71
408.63	1804.26
408.84	1773.54
409.05	1722.34
409.25	1679.33
409.46	1660.90
409.67	1630.18
409.88	1658.85
410.08	1705.96
410.29	1722.34
410.50	1724.39
410.70	1724.39
410.91	1718.25
411.12	1738.73
411.32	1736.68
411.53	1716.20
411.74	1742.82
411.95	1837.03
412.15	1703.91
412.36	1710.05
412.57	1796.07
412.77	1875.94
412.98	1662.95
413.19	1660.90
413.39	1753.06
413.60	1763.30
413.81	1839.08
414.01	1708.01
414.22	1748.97
414.43	1720.29
414.63	1705.96
414.84	1738.73
415.05	1685.48
415.25	1701.86
415.46	1753.06
415.67	1734.63
415.87	1777.64
416.08	1748.97
416.29	1681.38
416.49	1685.48
416.70	1705.96
416.91	1744.87
417.11	1695.72
417.32	1779.68
417.53	1730.53
417.73	1699.81
417.94	1695.72
418.15	1794.02
418.35	1730.53
418.56	1687.53
418.77	1910.75
418.97	1740.77
419.18	1734.63
419.38	1619.94
419.59	1763.30
419.80	1783.78
420.00	1777.64
420.21	1761.25
420.42	1744.87
420.62	1830.88
420.83	1701.86
421.04	1734.63
421.24	1634.28
421.45	1732.58
421.65	1716.20
421.86	1742.82
422.07	1753.06
422.27	1675.24
422.48	1732.58
422.69	1632.23
422.89	1744.87
423.10	1697.77
423.30	1673.19
423.51	1738.73
423.72	1667.05
423.92	1773.54
424.13	1656.81
424.33	1632.23
424.54	1769.44
424.75	1746.92
424.95	1789.92
425.16	1755.11
425.36	1763.30
425.57	1767.40
425.78	1679.33
425.98	1763.30
426.19	1759.21
426.39	1660.90
426.60	1753.06
426.81	1740.77
427.01	1697.77
427.22	1642.47
427.42	1546.22
427.63	1632.23
427.83	1820.64
428.04	1804.26
428.25	1828.84
428.45	1746.92
428.66	1748.97
428.86	1714.15
429.07	1689.57
429.28	1796.07
429.48	1640.42
429.69	1636.33
429.89	1718.25
430.10	1642.47
430.30	1798.12
430.51	1839.08
430.71	1615.85
430.92	1810.40
431.13	1634.28
431.33	1748.97
431.54	1767.40
431.74	1794.02
431.95	1787.88
432.15	1634.28
432.36	1699.81
432.56	1761.25
432.77	1779.68
432.98	1892.32
433.18	1695.72
433.39	1714.15
433.59	1751.01
433.80	1804.26
434.00	1847.27
434.21	1654.76
434.41	1669.09
434.62	1808.36
434.82	1701.86
435.03	1677.29
435.23	1673.19
435.44	1642.47
435.64	1746.92
435.85	1697.77
436.06	1714.15
436.26	1789.92
436.47	1779.68
436.67	1632.23
436.88	1669.09
437.08	1769.44
437.29	1779.68
437.49	1673.19
437.70	1830.88
437.90	1751.01
438.11	1822.69
438.31	1785.83
438.52	1822.69
438.72	1824.74
438.93	1871.84
439.13	1857.51
439.34	1804.26
439.54	1681.38
439.75	1843.17
439.95	1834.98
440.16	1710.05
440.36	1773.54
440.57	1712.10
440.77	1804.26
440.98	1759.21
441.18	1718.25
441.39	1701.86
441.59	1665.00
441.80	1834.98
442.00	1773.54
442.21	1779.68
442.41	1685.48
442.62	1814.50
442.82	1716.20
443.02	1777.64
443.23	1730.53
443.43	1748.97
443.64	1771.49
443.84	1689.57
444.05	1746.92
444.25	1785.83
444.46	1656.81
444.66	1730.53
444.87	1849.32
445.07	1712.10
445.28	1787.88
445.48	1794.02
445.69	1673.19
445.89	1908.71
446.09	1742.82
446.30	2123.74
446.50	2723.80
446.71	3702.73
446.91	4390.84
447.12	4745.14
447.32	4753.34
447.53	4294.59
447.73	3790.79
447.93	3489.74
448.14	3393.48
448.34	3246.03
448.55	2932.69
448.75	2971.60
448.96	2709.46
449.16	2451.42
449.36	2263.01
449.57	2113.50
449.77	1914.85
449.98	1728.49
450.18	1785.83
450.39	1828.84
450.59	1771.49
450.79	1755.11
451.00	1710.05
451.20	1771.49
451.41	1714.15
451.61	1773.54
451.81	1728.49
452.02	1701.86
452.22	1751.01
452.43	1763.30
452.63	1695.72
452.84	1748.97
453.04	1744.87
453.24	1802.21
453.45	1683.43
453.65	1755.11
453.86	1783.78
454.06	1714.15
454.26	1736.68
454.47	1683.43
454.67	1843.17
454.87	1740.77
455.08	1816.55
455.28	1841.12
455.49	1834.98
455.69	1724.39
455.89	1853.41
456.10	1863.65
456.30	1722.34
456.51	1828.84
456.71	1759.21
456.91	1732.58
457.12	1789.92
457.32	1751.01
457.52	1695.72
457.73	1802.21
457.93	1738.73
458.14	1687.53
458.34	1656.81
458.54	1734.63
458.75	1763.30
458.95	1781.73
459.15	1761.25
459.36	1791.97
459.56	1769.44
459.76	1839.08
459.97	1724.39
460.17	1730.53
460.37	1742.82
460.58	1755.11
460.78	1759.21
460.99	1685.48
461.19	1802.21
461.39	1677.29
461.60	1669.09
461.80	1748.97
462.00	1708.01
462.21	1677.29
462.41	1742.82
462.61	1687.53
462.82	1736.68
463.02	1826.79
463.22	1710.05
463.43	1818.60
463.63	1791.97
463.83	1810.40
464.04	1738.73
464.24	1748.97
464.44	1652.71
464.64	1714.15
464.85	1730.53
465.05	1748.97
465.25	1718.25
465.46	1693.67
465.66	1726.44
465.86	1773.54
466.07	1734.63
466.27	1712.10
466.47	1773.54
466.68	1607.66
466.88	1816.55
467.08	1808.36
467.29	1824.74
467.49	1783.78
467.69	1685.48
467.89	1732.58
468.10	1734.63
468.30	1757.16
468.50	1849.32
468.71	1789.92
468.91	1595.37
469.11	1837.03
469.31	1734.63
469.52	1501.16
469.72	1861.60
469.92	1875.94
470.13	1718.25
470.33	1738.73
470.53	1769.44
470.73	2136.03
470.94	2312.16
471.14	2303.96
471.34	2539.48
471.54	2375.64
471.75	2228.19
471.95	2045.92
472.15	2099.17
472.36	2072.54
472.56	2193.37
472.76	2090.98
472.96	1992.67
473.17	1931.23
473.37	1902.56
473.57	1843.17
473.77	1816.55
473.98	1898.47
474.18	1656.81
474.38	1937.38
474.58	1730.53
474.79	1689.57
474.99	1787.88
475.19	1818.60
475.39	1662.95
475.60	1712.10
475.80	1787.88
476.00	1744.87
476.20	1701.86
476.41	1755.11
476.61	1800.16
476.81	1830.88
477.01	1595.37
477.21	1826.79
477.42	1779.68
477.62	1677.29
477.82	1794.02
478.02	1738.73
478.23	1691.62
478.43	1722.34
478.63	1687.53
478.83	1681.38
479.03	1697.77
479.24	1822.69
479.44	1837.03
479.64	1687.53
479.84	1669.09
480.04	1724.39
480.25	1738.73
480.45	1697.77
480.65	1744.87
480.85	1824.74
481.06	1671.14
481.26	1755.11
481.46	1785.83
481.66	1730.53
481.86	1679.33
482.06	1714.15
482.27	1714.15
482.47	1634.28
482.67	1804.26
482.87	1724.39
483.07	1777.64
483.28	1669.09
483.48	1585.13
483.68	1755.11
483.88	1615.85
484.08	1638.38
484.29	1636.33
484.49	1703.91
484.69	1767.40
484.89	1830.88
485.09	1748.97
485.29	1796.07
485.50	1832.93
485.70	1671.14
485.90	1832.93
486.10	1732.58
486.30	1757.16
486.50	1791.97
486.71	1748.97
486.91	1775.59
487.11	1816.55
487.31	1685.48
487.51	1753.06
487.71	1650.66
487.91	1632.23
488.12	1712.10
488.32	1581.03
488.52	1648.61
488.72	1728.49
488.92	1759.21
489.12	1826.79
489.32	1794.02
489.53	1783.78
489.73	1644.52
489.93	1744.87
490.13	1687.53
490.33	1724.39
490.53	1822.69
490.73	1757.16
490.94	1640.42
491.14	1861.60
491.34	1853.41
491.54	2166.75
491.74	2510.81
491.94	2910.16
492.14	3039.19
492.34	3133.39
492.54	2752.47
492.75	2566.10
492.95	2449.37
493.15	2363.36
493.35	2291.68
493.55	2254.81
493.75	2133.98
493.95	2187.23
494.15	2019.30
494.35	1884.13
494.56	1882.08
494.76	1746.92
494.96	1763.30
495.16	1812.45
495.36	1738.73
495.56	1671.14
495.76	1710.05
495.96	1726.44
496.16	1642.47
496.36	1855.46
496.56	1701.86
496.77	1755.11
496.97	1669.09
497.17	1814.50
497.37	1648.61
497.57	1832.93
497.77	1775.59
497.97	1732.58
498.17	1726.44
498.37	1736.68
498.57	1787.88
498.77	1748.97
498.97	1742.82
499.17	1877.99
499.38	1765.35
499.58	1843.17
499.78	1849.32
499.98	1861.60
500.18	1755.11
500.38	1738.73
500.58	1875.94
500.78	2559.96
500.98	4573.11
501.18	5812.14
501.38	6836.12
501.58	7006.10
501.78	6590.36
501.98	5535.66
502.18	5019.57
502.38	4423.61
502.58	4165.57
502.78	3731.40
502.98	3653.58
503.18	3508.17
503.38	3078.10
503.59	2871.25
503.79	2678.74
503.99	2461.66
504.19	2351.07
504.39	2205.66
504.59	2201.57
504.79	2156.51
504.99	1978.34
505.19	1912.80
505.39	1931.23
505.59	1998.82
505.79	1900.52
505.99	1875.94
506.19	1808.36
506.39	1851.36
506.59	1759.21
506.79	1697.77
506.99	1812.45
507.19	1834.98
507.39	1802.21
507.59	1689.57
507.79	1730.53
507.99	1689.57
508.19	1771.49
508.39	1757.16
508.59	1804.26
508.79	1814.50
508.99	1826.79
509.19	1675.24
509.39	1746.92
509.59	1789.92
509.79	1665.00
509.99	1755.11
510.19	1773.54
510.39	1802.21
510.59	1691.62
510.79	1613.80
510.99	1683.43
511.19	1751.01
511.39	1849.32
511.59	1802.21
511.79	1800.16
511.99	1828.84
512.19	1822.69
512.38	1730.53
512.58	1755.11
512.78	1691.62
512.98	1796.07
513.18	1869.80
513.38	1665.00
513.58	1822.69
513.78	1689.57
513.98	1654.76
514.18	1705.96
514.38	1693.67
514.58	1810.40
514.78	1755.11
514.98	1640.42
515.18	1724.39
515.38	1665.00
515.58	1796.07
515.78	1734.63
515.98	1748.97
516.18	1796.07
516.38	1705.96
516.57	1687.53
516.77	1728.49
516.97	1777.64
517.17	1675.24
517.37	1652.71
517.57	1814.50
517.77	1705.96
517.97	1734.63
518.17	1759.21
518.37	1656.81
518.57	1722.34
518.77	1718.25
518.97	1773.54
519.16	1777.64
519.36	1826.79
519.56	1757.16
519.76	1681.38
519.96	1675.24
520.16	1839.08
520.36	1626.09
520.56	1894.37
520.76	1621.99
520.96	1759.21
521.16	1812.45
521.35	1769.44
521.55	1877.99
521.75	1771.49
521.95	1708.01
522.15	1730.53
522.35	1607.66
522.55	1730.53
522.75	1837.03
522.95	1744.87
523.14	1783.78
523.34	1669.09
523.54	1736.68
523.74	1751.01
523.94	1748.97
524.14	1675.24
524.34	1685.48
524.54	1794.02
524.73	1767.40
524.93	1816.55
525.13	1689.57
525.33	1671.14
525.53	1927.14
525.73	1712.10
525.93	1748.97
526.13	1646.57
526.32	1740.77
526.52	1761.25
526.72	1845.22
526.92	1738.73
527.12	1726.44
527.32	1619.94
527.52	1730.53
527.71	1796.07
527.91	1689.57
528.11	1687.53
528.31	1769.44
528.51	1763.30
528.71	1730.53
528.90	1779.68
529.10	1748.97
529.30	1791.97
529.50	1615.85
529.70	1736.68
529.90	1726.44
530.09	1789.92
530.29	1734.63
530.49	1716.20
530.69	1877.99
530.89	1742.82
531.09	1730.53
531.28	1654.76
531.48	1837.03
531.68	1763.30
531.88	1763.30
532.08	1757.16
532.28	1720.29
532.47	1789.92
532.67	1787.88
532.87	1742.82
533.07	1687.53
533.27	1828.84
533.46	1789.92
533.66	1722.34
533.86	1789.92
534.06	1699.81
534.26	1804.26
534.45	1777.64
534.65	1722.34
534.85	1710.05
535.05	1769.44
535.25	1886.18
535.44	1691.62
535.64	1824.74
535.84	1714.15
536.04	1640.42
536.24	1632.23
536.43	1728.49
536.63	1701.86
536.83	1697.77
537.03	1712.10
537.22	1683.43
537.42	1679.33
537.62	1716.20
537.82	1646.57
538.02	1798.12
538.21	1800.16
538.41	1873.89
538.61	1683.43
538.81	1751.01
539.00	1853.41
539.20	1693.67
539.40	1726.44
539.60	1822.69
539.79	1789.92
539.99	1677.29
540.19	1730.53
540.39	1701.86
540.58	1791.97
540.78	1824.74
540.98	1671.14
541.18	1804.26
541.37	1834.98
541.57	1669.09
541.77	1828.84
541.97	1638.38
542.16	1691.62
542.36	1677.29
542.56	1710.05
542.76	1875.94
542.95	1783.78
543.15	1804.26
543.35	1787.88
543.54	1744.87
543.74	1722.34
543.94	1818.60
544.14	1722.34
544.33	1765.35
544.53	1748.97
544.73	1685.48
544.93	1736.68
545.12	1755.11
545.32	1757.16
545.52	1734.63
545.71	1691.62
545.91	1753.06
546.11	1765.35
546.30	1697.77
546.50	1744.87
546.70	1738.73
546.90	1681.38
547.09	1671.14
547.29	1771.49
547.49	1785.83
547.68	1687.53
547.88	1710.05
548.08	1802.21
548.27	2189.28
548.47	1730.53
548.67	1734.63
548.87	1718.25
549.06	1787.88
549.26	1763.30
549.46	1755.11
549.65	1728.49
549.85	1722.34
550.05	1744.87
550.24	1632.23
550.44	1724.39
550.64	1779.68
550.83	1744.87
551.03	1812.45
551.23	1832.93
551.42	1798.12
551.62	1699.81
551.82	1763.30
552.01	1808.36
552.21	1796.07
552.41	1718.25
552.60	1796.07
552.80	1763.30
553.00	1714.15
553.19	1794.02
553.39	1751.01
553.59	1675.24
553.78	1787.88
553.98	1804.26
554.17	1703.91
554.37	1775.59
554.57	1728.49
554.76	1720.29
554.96	1783.78
555.16	1716.20
555.35	1742.82
555.55	1779.68
555.75	1763.30
555.94	1699.81
556.14	1628.14
556.33	1724.39
556.53	1781.73
556.73	1837.03
556.92	1740.77
557.12	1736.68
557.32	1896.42
557.51	1816.55
557.71	1865.70
557.90	1783.78
558.10	1851.36
558.30	1751.01
558.49	1748.97
558.69	1708.01
558.88	1716.20
559.08	1730.53
559.28	1644.52
559.47	1726.44
559.67	1796.07
559.86	1826.79
560.06	1712.10
560.26	1755.11
560.45	1824.74
560.65	1724.39
560.84	1929.19
561.04	1785.83
561.24	1744.87
561.43	1734.63
561.63	1783.78
561.82	1763.30
562.02	1693.67
562.22	1689.57
562.41	1679.33
562.61	1787.88
562.80	1712.10
563.00	1918.95
563.19	1761.25
563.39	1732.58
563.59	1767.40
563.78	1683.43
563.98	1652.71
564.17	1695.72
564.37	1607.66
564.56	1777.64
564.76	1697.77
564.96	1796.07
565.15	1779.68
565.35	1822.69
565.54	1755.11
565.74	1775.59
565.93	1783.78
566.13	1794.02
566.32	1839.08
566.52	1796.07
566.71	1736.68
566.91	1839.08
567.11	1822.69
567.30	1699.81
567.50	1767.40
567.69	1812.45
567.89	1746.92
568.08	1755.11
568.28	1738.73
568.47	1718.25
568.67	1755.11
568.86	1673.19
569.06	1785.83
569.25	1718.25
569.45	1617.90
569.64	1718.25
569.84	1748.97
570.04	1771.49
570.23	1693.67
570.43	1748.97
570.62	1697.77
570.82	1839.08
571.01	1689.57
571.21	1712.10
571.40	1644.52
571.60	1783.78
571.79	1789.92
571.99	1705.96
572.18	1708.01
572.38	1765.35
572.57	1628.14
572.77	1736.68
572.96	1822.69
573.16	1800.16
573.35	1724.39
573.55	1888.23
573.74	1769.44
573.94	1779.68
574.13	1777.64
574.33	1751.01
574.52	1767.40
574.71	1779.68
574.91	1765.35
575.10	1744.87
575.30	1769.44
575.49	1683.43
575.69	1736.68
575.88	1832.93
576.08	1742.82
576.27	1822.69
576.47	1722.34
576.66	1812.45
576.86	1830.88
577.05	1746.92
577.25	1804.26
577.44	1929.19
577.64	1710.05
577.83	1775.59
578.02	1677.29
578.22	1896.42
578.41	1830.88
578.61	1742.82
578.80	1720.29
579.00	1798.12
579.19	1697.77
579.39	1812.45
579.58	1882.08
579.77	1716.20
579.97	1873.89
580.16	1806.31
580.36	1812.45
580.55	1849.32
580.75	1769.44
580.94	1798.12
581.13	1920.99
581.33	1867.75
581.52	1771.49
581.72	1853.41
581.91	1849.32
582.11	1728.49
582.30	1783.78
582.49	1771.49
582.69	1822.69
582.88	1804.26
583.08	1738.73
583.27	1791.97
583.47	1787.88
583.66	1769.44
583.85	1732.58
584.05	1763.30
584.24	1738.73
584.44	1740.77
584.63	1828.84
584.82	1814.50
585.02	1849.32
585.21	1837.03
585.41	1796.07
585.60	1816.55
585.79	1902.56
585.99	1902.56
586.18	1890.28
586.37	2160.61
586.57	3330.00
586.76	9875.31
586.96	24110.74
587.15	34229.75
587.34	40435.10
587.54	41741.70
587.73	36961.74
587.93	26338.93
588.12	21747.38
588.31	18265.83
588.51	16201.48
588.70	15036.19
588.89	14145.32
589.09	12539.71
589.28	10952.54
589.47	9502.58
589.67	7886.73
589.86	6485.92
590.06	4917.17
590.25	3952.58
590.44	3039.19
590.64	2586.58
590.83	2250.72
591.02	2125.79
591.22	1998.82
591.41	1939.43
591.60	1818.60
591.80	1966.05
591.99	1800.16
592.18	1757.16
592.38	1906.66
592.57	1820.64
592.76	1718.25
592.96	1787.88
593.15	1705.96
593.34	1834.98
593.54	1761.25
593.73	1839.08
593.92	1859.56
594.12	1800.16
594.31	1738.73
594.50	1804.26
594.70	1816.55
594.89	1851.36
595.08	1755.11
595.28	1818.60
595.47	1886.18
595.66	1857.51
595.86	1679.33
596.05	1687.53
596.24	1669.09
596.43	1789.92
596.63	1740.77
596.82	1730.53
597.01	1777.64
597.21	1763.30
597.40	1773.54
597.59	1775.59
597.79	1714.15
597.98	1769.44
598.17	1777.64
598.36	1849.32
598.56	1832.93
598.75	1675.24
598.94	1734.63
599.14	1753.06
599.33	1701.86
599.52	1791.97
599.71	1791.97
599.91	1787.88
600.10	1667.05
600.29	1765.35
600.48	1798.12
600.68	1869.80
600.87	1779.68
601.06	1746.92
601.26	1802.21
601.45	1779.68
601.64	1742.82
601.83	1910.75
602.03	1742.82
602.22	1615.85
602.41	1855.46
602.60	1908.71
602.80	1859.56
602.99	1849.32
603.18	1695.72
603.37	1759.21
603.57	1740.77
603.76	1775.59
603.95	1765.35
604.14	1798.12
604.34	1685.48
604.53	1787.88
604.72	1746.92
604.91	1785.83
605.10	1748.97
605.30	1656.81
605.49	1810.40
605.68	1796.07
605.87	1826.79
606.07	1662.95
606.26	1767.40
606.45	1783.78
606.64	1761.25
606.84	1673.19
607.03	1687.53
607.22	1777.64
607.41	1683.43
607.60	1683.43
607.80	1759.21
607.99	1662.95
608.18	1814.50
608.37	1667.05
608.56	1689.57
608.76	1832.93
608.95	1796.07
609.14	1632.23
609.33	1810.40
609.52	1755.11
609.72	1757.16
609.91	1714.15
610.10	1804.26
610.29	1820.64
610.48	1847.27
610.68	1779.68
610.87	1728.49
611.06	1816.55
611.25	1693.67
611.44	1765.35
611.63	1734.63
611.83	1834.98
612.02	1628.14
612.21	1834.98
612.40	1705.96
612.59	1734.63
612.79	1662.95
612.98	1738.73
613.17	1843.17
613.36	1693.67
613.55	1759.21
613.74	1755.11
613.93	1705.96
614.13	1755.11
614.32	1740.77
614.51	1796.07
614.70	1689.57
614.89	1693.67
615.08	1773.54
615.28	2074.59
615.47	1669.09
615.66	1757.16
615.85	1734.63
616.04	1796.07
616.23	1701.86
616.42	1734.63
616.62	1769.44
616.81	1773.54
617.00	1683.43
617.19	1810.40
617.38	1720.29
617.57	1765.35
617.76	1814.50
617.95	1755.11
618.15	1751.01
618.34	1818.60
618.53	1660.90
618.72	1693.67
618.91	1830.88
619.10	1787.88
619.29	1722.34
619.48	1742.82
619.68	1673.19
619.87	1783.78
620.06	1699.81
620.25	1804.26
620.44	1726.44
620.63	1755.11
620.82	1734.63
621.01	1759.21
621.20	1751.01
621.39	1808.36
621.59	1765.35
621.78	1802.21
621.97	1728.49
622.16	1765.35
622.35	1726.44
622.54	1789.92
622.73	1789.92
622.92	1697.77
623.11	1779.68
623.30	1660.90
623.49	1714.15
623.68	1738.73
623.88	1861.60
624.07	1757.16
624.26	1646.57
624.45	1761.25
624.64	1726.44
624.83	1841.12
625.02	1746.92
625.21	1691.62
625.40	1738.73
625.59	1808.36
625.78	1697.77
625.97	1798.12
626.16	1728.49
626.35	1746.92
626.54	1689.57
626.74	1804.26
626.93	1656.81
627.12	1718.25
627.31	1888.23
627.50	1755.11
627.69	1732.58
627.88	1732.58
628.07	1681.38
628.26	1697.77
628.45	1685.48
628.64	1734.63
628.83	1724.39
629.02	1691.62
629.21	1794.02
629.40	1718.25
629.59	1615.85
629.78	1699.81
629.97	1677.29
630.16	1703.91
630.35	1634.28
630.54	1748.97
630.73	1693.67
630.92	1697.77
631.11	1689.57
631.30	1691.62
631.49	1832.93
631.68	1677.29
631.87	1771.49
632.06	1681.38
632.25	1841.12
632.44	1693.67
632.63	1710.05
632.82	1685.48
633.01	1662.95
633.20	1726.44
633.39	1730.53
633.58	1636.33
633.77	1654.76
633.96	1781.73
634.15	1683.43
634.34	1697.77
634.53	1708.01
634.72	1712.10
634.91	1628.14
635.10	1722.34
635.29	1697.77
635.48	1703.91
635.67	1677.29
635.86	1660.90
636.05	1822.69
636.24	1716.20
636.43	1710.05
636.62	1740.77
636.81	1660.90
637.00	1771.49
637.19	1783.78
637.38	1816.55
637.57	1683.43
637.76	1626.09
637.95	1699.81
638.14	1644.52
638.33	1665.00
638.52	1755.11
638.71	1716.20
638.89	1638.38
639.08	1798.12
639.27	1724.39
639.46	1677.29
639.65	1781.73
639.84	1738.73
640.03	1804.26
640.22	1714.15
640.41	1789.92
640.60	1705.96
640.79	1636.33
640.98	1697.77
641.17	1771.49
641.36	1716.20
641.55	1736.68
641.74	1617.90
641.92	1601.51
642.11	1646.57
642.30	1716.20
642.49	1628.14
642.68	1744.87
642.87	1775.59
643.06	1751.01
643.25	1765.35
643.44	1710.05
643.63	1693.67
643.82	1830.88
644.00	1687.53
644.19	1734.63
644.38	1658.85
644.57	1755.11
644.76	1773.54
644.95	1787.88
645.14	1710.05
645.33	1632.23
645.52	1677.29
645.71	1669.09
645.89	1683.43
646.08	1742.82
646.27	1746.92
646.46	1800.16
646.65	1658.85
646.84	1654.76
647.03	1652.71
647.22	1812.45
647.40	1734.63
647.59	1771.49
647.78	1619.94
647.97	1665.00
648.16	1638.38
648.35	1789.92
648.54	1753.06
648.73	1720.29
648.91	1763.30
649.10	1763.30
649.29	1632.23
649.48	1775.59
649.67	1751.01
649.86	1804.26
650.05	1646.57
650.23	1718.25
650.42	1667.05
650.61	1806.31
650.80	1781.73
650.99	1845.22
651.18	1791.97
651.36	1767.40
651.55	1701.86
651.74	1804.26
651.93	1769.44
652.12	1818.60
652.31	1667.05
652.49	1683.43
652.68	1656.81
652.87	1730.53
653.06	1705.96
653.25	1828.84
653.44	1665.00
653.62	1773.54
653.81	1695.72
654.00	1701.86
654.19	1767.40
654.38	1877.99
654.56	1714.15
654.75	1650.66
654.94	1679.33
655.13	1794.02
655.32	1708.01
655.51	1783.78
655.69	1730.53
655.88	1804.26
656.07	1660.90
656.26	1804.26
656.45	1699.81
656.63	1734.63
656.82	1708.01
657.01	1837.03
657.20	1751.01
657.38	1812.45
657.57	1662.95
657.76	1656.81
657.95	1826.79
658.14	1742.82
658.32	1667.05
658.51	1652.71
658.70	1710.05
658.89	1695.72
659.08	1699.81
659.26	1791.97
659.45	1619.94
659.64	1763.30
659.83	1740.77
660.01	1943.52
660.20	1665.00
660.39	1806.31
660.58	1658.85
660.76	1863.65
660.95	1583.08
661.14	1779.68
661.33	1697.77
661.51	1710.05
661.70	1685.48
661.89	1714.15
662.08	1791.97
662.26	1634.28
662.45	1632.23
662.64	1734.63
662.83	1787.88
663.01	1681.38
663.20	1740.77
663.39	1734.63
663.58	1761.25
663.76	1712.10
663.95	1783.78
664.14	1699.81
664.32	1621.99
664.51	1665.00
664.70	1681.38
664.89	1748.97
665.07	1695.72
665.26	1796.07
665.45	1693.67
665.64	1769.44
665.82	1691.62
666.01	1769.44
666.20	1621.99
666.38	1808.36
666.57	1744.87
666.76	2191.33
666.95	4444.09
667.13	10534.75
667.32	15339.29
667.51	17987.31
667.69	19271.39
667.88	17897.20
668.07	12496.71
668.25	9525.10
668.44	8091.52
668.63	7350.16
668.81	6881.18
669.00	6344.61
669.19	5638.06
669.38	5050.29
669.56	4571.07
669.75	3862.47
669.94	3397.58
670.12	2916.31
670.31	2541.53
670.50	2320.35
670.68	2078.69
670.87	1898.47
671.06	1867.75
671.24	1755.11
671.43	1888.23
671.62	1834.98
671.80	1673.19
671.99	1775.59
672.18	1742.82
672.36	1732.58
672.55	1755.11
672.74	1744.87
672.92	1685.48
673.11	1808.36
673.29	1716.20
673.48	1740.77
673.67	1685.48
673.85	1763.30
674.04	1693.67
674.23	1802.21
674.41	1814.50
674.60	1650.66
674.79	1679.33
674.97	1671.14
675.16	1763.30
675.34	1798.12
675.53	1658.85
675.72	1769.44
675.90	1837.03
676.09	1685.48
676.28	1740.77
676.46	1691.62
676.65	1757.16
676.83	1714.15
677.02	1730.53
677.21	1693.67
677.39	1781.73
677.58	1689.57
677.77	1609.70
677.95	1724.39
678.14	1734.63
678.32	1763.30
678.51	1734.63
678.70	1794.02
678.88	1685.48
679.07	1697.77
679.25	1761.25
679.44	1763.30
679.63	1708.01
679.81	1738.73
680.00	1841.12
680.18	1744.87
680.37	1728.49
680.55	1693.67
680.74	1636.33
680.93	1572.84
681.11	1648.61
681.30	1736.68
681.48	1732.58
681.67	1675.24
681.85	1736.68
682.04	1656.81
682.23	1820.64
682.41	1708.01
682.60	1675.24
682.78	1673.19
682.97	1646.57
683.15	1755.11
683.34	1728.49
683.53	1787.88
683.71	1683.43
683.90	1767.40
684.08	1873.89
684.27	1691.62
684.45	1728.49
684.64	1779.68
684.82	1695.72
685.01	1791.97
685.19	1701.86
685.38	1798.12
685.57	1724.39
685.75	1691.62
685.94	1683.43
686.12	1628.14
686.31	1701.86
686.49	1865.70
686.68	1636.33
686.86	1718.25
687.05	1708.01
687.23	1806.31
687.42	1650.66
687.60	1601.51
687.79	1738.73
687.97	1757.16
688.16	1722.34
688.34	1798.12
688.53	1552.36
688.71	1708.01
688.90	1763.30
689.08	1748.97
689.27	1667.05
689.45	1710.05
689.64	1724.39
689.82	1730.53
690.01	1710.05
690.19	1794.02
690.38	1730.53
690.56	1767.40
690.75	1728.49
690.93	1648.61
691.12	1779.68
691.30	1724.39
691.49	1691.62
691.67	1693.67
691.86	1822.69
692.04	1677.29
692.23	1619.94
692.41	1689.57
692.60	1814.50
692.78	1775.59
692.97	1671.14
693.15	1714.15
693.34	1853.41
693.52	1810.40
693.71	1736.68
693.89	1679.33
694.08	1742.82
694.26	1828.84
694.44	1757.16
694.63	1757.16
694.81	1603.56
695.00	1619.94
695.18	1691.62
695.37	1789.92
695.55	1734.63
695.74	1689.57
695.92	1681.38
696.10	1771.49
696.29	1640.42
696.47	1650.66
696.66	1669.09
696.84	1671.14
697.03	1689.57
697.21	1775.59
697.40	2238.43
697.58	1841.12
697.76	1732.58
697.95	1656.81
698.13	1716.20
698.32	1765.35
698.50	1789.92
698.68	1689.57
698.87	1773.54
699.05	1820.64
699.24	1748.97
699.42	1656.81
699.61	1806.31
699.79	1703.91
699.97	1826.79
700.16	1679.33
700.34	1658.85
700.53	1804.26
700.71	1724.39
700.89	1775.59
701.08	1712.10
701.26	1695.72
701.45	2115.55
701.63	1648.61
701.81	1681.38
702.00	1685.48
702.18	1775.59
702.37	1732.58
702.55	1816.55
702.73	1660.90
702.92	1685.48
703.10	1740.77
703.28	1734.63
703.47	1658.85
703.65	1759.21
703.84	1728.49
704.02	1681.38
704.20	1751.01
704.39	1710.05
704.57	1642.47
704.75	1746.92
704.94	1738.73
705.12	1775.59
705.30	1767.40
705.49	2166.75
705.67	4528.06
705.86	9279.35
706.04	12783.42
706.22	14384.93
706.41	15288.09
706.59	13879.08
706.77	9510.77
706.96	7360.40
707.14	6573.98
707.32	5986.21
707.51	5693.35
707.69	4837.30
707.87	4306.88
708.06	3459.02
708.24	3039.19
708.42	2486.23
708.61	2226.14
708.79	1871.84
708.97	1812.45
709.16	1863.65
709.34	1794.02
709.52	1656.81
709.71	1822.69
709.89	1773.54
710.07	1701.86
710.26	1675.24
710.44	1767.40
710.62	1816.55
710.80	1650.66
710.99	1767.40
711.17	1796.07
711.35	1697.77
711.54	1679.33
711.72	1722.34
711.90	1697.77
712.09	1732.58
712.27	1626.09
712.45	1689.57
712.63	1650.66
712.82	1703.91
713.00	1738.73
713.18	1708.01
713.37	1652.71
713.55	1734.63
713.73	1759.21
713.91	1759.21
714.10	1685.48
714.28	1603.56
714.46	1765.35
714.65	1751.01
714.83	1738.73
715.01	1689.57
715.19	1738.73
715.38	1603.56
715.56	1806.31
715.74	1648.61
715.92	1589.22
716.11	1832.93
716.29	1605.61
716.47	1734.63
716.65	1710.05
716.84	1667.05
717.02	1746.92
717.20	1671.14
717.38	1656.81
717.57	1771.49
717.75	1730.53
717.93	1642.47
718.11	1798.12
718.30	1693.67
718.48	1738.73
718.66	1822.69
718.84	1746.92
719.03	1771.49
719.21	1628.14
719.39	1871.84
719.57	1787.88
719.75	1738.73
719.94	1638.38
720.12	1767.40
720.30	1683.43
720.48	1800.16
720.67	1724.39
720.85	1642.47
721.03	1648.61
721.21	1681.38
721.39	1744.87
721.58	1796.07
721.76	1767.40
721.94	1716.20
722.12	1716.20
722.30	1794.02
722.49	1705.96
722.67	1738.73
722.85	1728.49
723.03	1619.94
723.21	1615.85
723.40	1769.44
723.58	1875.94
723.76	1755.11
723.94	1767.40
724.12	1730.53
724.30	1812.45
724.49	1841.12
724.67	1667.05
724.85	1791.97
725.03	1648.61
725.21	1681.38
725.40	1773.54
725.58	1681.38
725.76	1806.31
725.94	1656.81
726.12	1732.58
726.30	1724.39
726.49	1753.06
726.67	1738.73
726.85	1751.01
727.03	1796.07
727.21	2222.05
727.39	2865.11
727.57	3741.64
727.76	4292.54
727.94	4466.62
728.12	4552.63
728.30	3659.72
728.48	2959.31
728.66	2729.94
728.84	2600.92
729.03	2279.39
729.21	2140.13
729.39	1978.34
729.57	1941.47
729.75	1806.31
729.93	1808.36
730.11	1771.49
730.30	1724.39
730.48	1650.66
730.66	1865.70
730.84	1697.77
731.02	1736.68
731.20	1669.09
731.38	1720.29
731.56	1665.00
731.74	1587.18
731.93	1687.53
732.11	1630.18
732.29	1689.57
732.47	1738.73
732.65	1777.64
732.83	1705.96
733.01	1673.19
733.19	1675.24
733.37	1757.16
733.56	1757.16
733.74	1662.95
733.92	1718.25
734.10	1660.90
734.28	1767.40
734.46	1685.48
734.64	1755.11
734.82	1677.29
735.00	1708.01
735.18	1695.72
735.36	1732.58
735.54	1679.33
735.73	1697.77
735.91	1705.96
736.09	1748.97
736.27	1730.53
736.45	1820.64
736.63	1607.66
736.81	1685.48
736.99	1742.82
737.17	1755.11
737.35	1705.96
737.53	1734.63
737.71	1730.53
737.89	1710.05
738.07	1617.90
738.25	1669.09
738.43	1656.81
738.61	1720.29
738.80	1720.29
738.98	1619.94
739.16	1701.86
739.34	1726.44
739.52	1800.16
739.70	1677.29
739.88	1675.24
740.06	1767.40
740.24	1640.42
740.42	1802.21
740.60	1556.46
740.78	1656.81
740.96	1587.18
741.14	1656.81
741.32	1744.87
741.50	1671.14
741.68	1824.74
741.86	1787.88
742.04	1697.77
742.22	1708.01
742.40	1796.07
742.58	1769.44
742.76	1656.81
742.94	1744.87
743.12	1621.99
743.30	1605.61
743.48	1773.54
743.66	1705.96
743.84	1640.42
744.02	1689.57
744.20	1753.06
744.38	1701.86
744.56	1753.06
744.74	1798.12
744.92	1701.86
745.10	1826.79
745.28	1763.30
745.46	1785.83
745.64	1681.38
745.82	1777.64
746.00	1677.29
746.18	1832.93
746.36	1607.66
746.54	1697.77
746.72	1779.68
746.90	1710.05
747.08	1783.78
747.26	1703.91
747.44	1755.11
747.62	1759.21
747.80	1718.25
747.98	1736.68
748.15	1675.24
748.33	1791.97
748.51	1632.23
748.69	1794.02
748.87	1660.90
749.05	1656.81
749.23	1636.33
749.41	1734.63
749.59	1791.97
749.77	1736.68
749.95	1693.67
750.13	1619.94
750.31	1656.81
750.49	1640.42
750.67	1755.11
750.85	1830.88
751.03	1705.96
751.20	1812.45
751.38	1710.05
751.56	1624.04
751.74	1728.49
751.92	1562.60
752.10	1654.76
752.28	1751.01
752.46	1712.10
752.64	1681.38
752.82	1691.62
753.00	1703.91
753.18	1708.01
753.35	1650.66
753.53	1701.86
753.71	1685.48
753.89	1746.92
754.07	1724.39
754.25	1808.36
754.43	1714.15
754.61	1626.09
754.79	1757.16
754.97	1658.85
755.14	1730.53
755.32	1642.47
755.50	1669.09
755.68	1685.48
755.86	1673.19
756.04	1648.61
756.22	1638.38
756.40	1740.77
756.57	1755.11
756.75	1734.63
756.93	1705.96
757.11	1748.97
757.29	1601.51
757.47	1697.77
757.65	1572.84
757.82	1521.64
758.00	1689.57
758.18	1703.91
758.36	1624.04
758.54	1781.73
758.72	1695.72
758.90	1804.26
759.07	1697.77
759.25	1671.14
759.43	1687.53
759.61	1599.46
759.79	2131.94
759.97	1689.57
760.15	1763.30
760.32	1689.57
760.50	1703.91
760.68	1746.92
760.86	1667.05
761.04	1779.68
761.22	1699.81
761.39	1677.29
761.57	1804.26
761.75	1673.19
761.93	1755.11
762.11	1679.33
762.28	1681.38
762.46	1669.09
762.64	1769.44
762.82	1673.19
763.00	1744.87
763.18	1822.69
763.35	1632.23
763.53	1673.19
763.71	1732.58
763.89	1656.81
764.07	1716.20
764.24	1656.81
764.42	1757.16
764.60	1665.00
764.78	1646.57
764.96	1769.44
765.13	1783.78
765.31	1722.34
765.49	1808.36
765.67	1621.99
765.84	1695.72
766.02	1705.96
766.20	1574.89
766.38	1767.40
766.56	1726.44
766.73	1810.40
766.91	1753.06
767.09	1726.44
767.27	1708.01
767.44	1628.14
767.62	1685.48
767.80	1722.34
767.98	1630.18
768.15	1665.00
768.33	1753.06
768.51	1716.20
768.69	1716.20
768.87	1755.11
769.04	1773.54
769.22	1820.64
769.40	1771.49
769.58	1800.16
769.75	1720.29
769.93	1806.31
770.11	1662.95
770.28	1667.05
770.46	1781.73
770.64	1734.63
770.82	1685.48
770.99	1671.14
771.17	1720.29
771.35	1648.61
771.53	1697.77
771.70	1662.95
771.88	1761.25
772.06	1703.91
772.23	1652.71
772.41	1757.16
772.59	1683.43
772.77	1685.48
772.94	1691.62
773.12	1708.01
773.30	1634.28
773.47	1759.21
773.65	1689.57
773.83	1757.16
774.01	1724.39
774.18	1658.85
774.36	1701.86
774.54	1685.48
774.71	1742.82
774.89	1712.10
775.07	1667.05
775.24	1699.81
775.42	1689.57
775.60	1810.40
775.78	1646.57
775.95	1632.23
776.13	1591.27
776.31	1570.79
776.48	1693.67
776.66	1726.44
776.84	1642.47
777.01	1628.14
777.19	1656.81
777.37	1720.29
777.54	1794.02
777.72	1794.02
777.90	1796.07
778.07	1613.80
778.25	1880.04
778.43	1755.11
778.60	1634.28
778.78	1738.73
778.96	1771.49
779.13	1642.47
779.31	1771.49
779.49	1689.57
779.66	1701.86
779.84	1734.63
780.01	1671.14
780.19	1648.61
780.37	1802.21
780.54	1755.11
780.72	1677.29
780.90	1683.43
781.07	1689.57
781.25	1607.66
781.43	1765.35
781.60	1619.94
781.78	1787.88
781.95	1701.86
782.13	1665.00
782.31	1689.57
782.48	1658.85
782.66	1708.01
782.83	1865.70
783.01	1673.19
783.19	1748.97
783.36	1648.61
783.54	1646.57
783.72	1695.72
783.89	1693.67
784.07	1689.57
784.24	1769.44
784.42	1843.17
784.60	1703.91
784.77	1742.82
784.95	1624.04
785.12	1697.77
785.30	1832.93
785.47	1642.47
785.65	1652.71
785.83	1646.57
786.00	1705.96
786.18	1701.86
786.35	1734.63
786.53	1572.84
786.71	1832.93
786.88	1724.39
787.06	1771.49
787.23	1716.20
787.41	1667.05
787.58	1683.43
787.76	1677.29
787.94	1693.67
788.11	1746.92
788.29	1630.18
788.46	1630.18
788.64	1638.38
788.81	1665.00
788.99	1685.48
789.16	1550.31
789.34	1761.25
789.52	1673.19
789.69	1681.38
789.87	1619.94
790.04	1689.57
790.22	1679.33
790.39	1869.80
790.57	1591.27
790.74	1673.19
790.92	1767.40
791.09	1642.47
791.27	1759.21
791.44	1828.84
791.62	1714.15
791.79	1722.34
791.97	1632.23
792.15	1916.90
792.32	1734.63
792.50	1720.29
792.67	1828.84
792.85	1720.29
793.02	1757.16
793.20	1679.33
793.37	1595.37
793.55	1693.67
793.72	1648.61
793.90	1720.29
794.07	1679.33
794.25	1681.38
794.42	1710.05
794.60	1728.49
794.77	1738.73
794.95	1701.86
795.12	1736.68
795.30	1697.77
795.47	1570.79
795.65	1875.94
795.82	1695.72
796.00	1621.99
796.17	1693.67
796.34	1718.25
796.52	1726.44
796.69	1808.36
796.87	1787.88
797.04	1757.16
797.22	1820.64
797.39	1726.44
797.57	1656.81
797.74	1697.77
797.92	1812.45
798.09	1710.05
798.27	1757.16
798.44	1755.11
798.62	1615.85
798.79	1681.38
798.96	1730.53
799.14	1777.64
799.31	1859.56
799.49	1742.82
799.66	1726.44
799.84	1697.77
800.01	1673.19
800.19	1679.33
800.36	1677.29
800.53	1701.86
800.71	1677.29
800.88	1796.07
801.06	1662.95
801.23	1650.66
801.41	1724.39
801.58	1699.81
801.75	1636.33
801.93	1732.58
802.10	1716.20
802.28	1738.73
802.45	1669.09
802.63	1738.73
802.80	1744.87
802.97	1665.00
803.15	1708.01
803.32	1673.19
803.50	1734.63
803.67	1705.96
803.84	1673.19
804.02	1726.44
804.19	1667.05
804.37	1531.88
804.54	1607.66
804.71	1751.01
804.89	1748.97
805.06	1757.16
805.24	1626.09
805.41	1642.47
805.58	1701.86
805.76	1861.60
805.93	1662.95
806.10	1763.30
806.28	1755.11
806.45	1755.11
806.63	1671.14
806.80	1751.01
806.97	1708.01
807.15	1656.81
807.32	1703.91
807.49	1685.48
807.67	1591.27
807.84	1753.06
808.01	1634.28
808.19	1869.80
808.36	1877.99
808.54	1652.71
808.71	1658.85
808.88	1722.34
809.06	1703.91
809.23	1816.55
809.40	1718.25
809.58	1748.97
809.75	1732.58
809.92	1671.14
810.10	1886.18
810.27	1642.47
810.44	1732.58
810.62	1726.44
810.79	1714.15
810.96	1699.81
811.14	1685.48
811.31	1718.25
811.48	1732.58
811.66	1763.30
811.83	1720.29
812.00	1748.97
812.18	1628.14
812.35	1861.60
812.52	1691.62
812.69	1708.01
812.87	1640.42
813.04	1605.61
813.21	1673.19
813.39	1740.77
813.56	1599.46
813.73	1720.29
813.91	1677.29
814.08	1722.34
814.25	1652.71
814.42	1705.96
814.60	1689.57
814.77	1734.63
814.94	1662.95
815.12	1722.34
815.29	1787.88
815.46	1695.72
815.63	1740.77
815.81	1695.72
815.98	1656.81
816.15	1701.86
816.33	1773.54
816.50	1652.71
816.67	1714.15
816.84	1730.53
817.02	1693.67
817.19	1665.00
817.36	1722.34
817.53	1734.63
817.71	1675.24
817.88	1693.67
818.05	1685.48
818.22	1675.24
818.40	1849.32
818.57	1691.62
818.74	1669.09
818.91	1683.43
819.09	1701.86
819.26	1783.78
819.43	1699.81
819.60	1628.14
819.78	1779.68
819.95	1791.97
820.12	1644.52
820.29	1824.74
820.47	1828.84
820.64	1742.82
820.81	1626.09
820.98	1667.05
821.15	1701.86
821.33	1755.11
821.50	1607.66
821.67	1751.01
821.84	1738.73
822.02	1765.35
822.19	1710.05
822.36	1685.48
822.53	1718.25
822.70	1589.22
822.88	1697.77
823.05	1808.36
823.22	1703.91
823.39	1695.72
823.56	1740.77
823.74	1900.52
823.91	1685.48
824.08	1611.75
824.25	1593.32
824.42	1787.88
824.60	1564.65
824.77	1638.38
824.94	1716.20
825.11	1734.63
825.28	1619.94
825.45	1726.44
825.63	1697.77
825.80	1652.71
825.97	1734.63
826.14	1675.24
826.31	1660.90
826.48	1708.01
826.66	1701.86
826.83	1740.77
827.00	1640.42
827.17	1591.27
827.34	1689.57
827.51	1710.05
827.69	1705.96
827.86	1603.56
828.03	1652.71
828.20	1726.44
828.37	1679.33
828.54	1744.87
828.71	1624.04
828.89	1785.83
829.06	1665.00
829.23	1738.73
829.40	1644.52
829.57	1654.76
829.74	1812.45
829.91	1585.13
830.09	1714.15
830.26	1789.92
830.43	1802.21
830.60	1673.19
830.77	1777.64
830.94	1746.92
831.11	1767.40
831.28	1748.97
831.46	1652.71
831.63	1732.58
831.80	1642.47
831.97	1581.03
832.14	1705.96
832.31	1765.35
832.48	1710.05
832.65	1726.44
832.82	1771.49
832.99	1744.87
833.17	1669.09
833.34	1763.30
833.51	1732.58
833.68	1644.52
833.85	1695.72
834.02	1708.01
834.19	1675.24
834.36	1640.42
834.53	1705.96
834.70	1740.77
834.87	1742.82
835.04	1800.16
835.22	1644.52
835.39	1724.39
835.56	1673.19
835.73	1705.96
835.90	1726.44
836.07	1699.81
836.24	1773.54
836.41	1677.29
836.58	1681.38
836.75	1728.49
836.92	1728.49
837.09	1714.15
837.26	1765.35
837.43	1740.77
837.60	1718.25
837.77	1708.01
837.94	1736.68
838.12	1724.39
838.29	1710.05
838.46	1589.22
838.63	1648.61
838.80	1765.35
838.97	1726.44
839.14	1679.33
839.31	1681.38
839.48	1634.28
839.65	1720.29
839.82	1841.12
839.99	1769.44
840.16	1685.48
840.33	1642.47
840.50	1708.01
840.67	1697.77
840.84	1554.41
841.01	1656.81
841.18	1697.77
841.35	1638.38
841.52	1804.26
841.69	1830.88
841.86	1716.20
842.03	1685.48
842.20	1746.92
842.37	1712.10
842.54	1658.85
842.71	1722.34
842.88	1585.13
843.05	1779.68
843.22	1687.53
843.39	1796.07
843.56	1673.19
843.73	1779.68
843.90	1703.91
844.07	1710.05
844.24	1765.35
844.41	1705.96
844.58	1697.77
844.75	1648.61
844.92	1794.02
845.09	1681.38
845.26	1597.42
845.43	1701.86
845.60	1652.71
845.77	1724.39
845.94	1712.10
846.10	1705.96
846.27	1587.18
846.44	1624.04
846.61	1619.94
846.78	1746.92
846.95	1679.33
847.12	1732.58
847.29	1742.82
847.46	1609.70
847.63	1800.16
847.80	1697.77
847.97	1695.72
848.14	1841.12
848.31	1720.29
848.48	1646.57
848.65	1652.71
848.82	1624.04
848.98	1761.25
849.15	1712.10
849.32	1773.54
849.49	1785.83
849.66	1687.53
849.83	1683.43
850.00	1755.11
850.17	1716.20
850.34	1673.19
850.51	1644.52
850.68	1724.39
850.85	1871.84
851.01	1705.96
851.18	1699.81
851.35	1642.47
851.52	1787.88
851.69	1841.12
851.86	1640.42
852.03	1748.97
852.20	1701.86
852.37	1683.43
852.53	1619.94
852.70	1708.01
852.87	1751.01
853.04	1697.77
853.21	1683.43
853.38	1791.97
853.55	1753.06
853.72	1736.68
853.89	1671.14
854.05	1701.86
854.22	1718.25
854.39	1667.05
854.56	1662.95
854.73	1847.27
854.90	1628.14
855.07	1740.77
855.23	1683.43
855.40	1705.96
855.57	1634.28
855.74	1587.18
855.91	1927.14
856.08	1671.14
856.25	1658.85
856.41	1689.57
856.58	1636.33
856.75	1669.09
856.92	1609.70
857.09	1785.83
857.26	1626.09
857.42	1728.49
857.59	1753.06
857.76	1673.19
857.93	1714.15
858.10	1697.77
858.27	1658.85
858.43	1640.42
858.60	1603.56
858.77	1591.27
858.94	1701.86
859.11	1789.92
859.27	1701.86
859.44	1675.24
859.61	1837.03
859.78	1736.68
859.95	1693.67
860.12	1679.33
860.28	1781.73
860.45	1785.83
860.62	1748.97
860.79	1751.01
860.95	1667.05
861.12	1695.72
861.29	1654.76
861.46	1560.55
861.63	1730.53
861.79	1724.39
861.96	1652.71
862.13	1626.09
862.30	1796.07
862.47	1665.00
862.63	1701.86
862.80	1746.92
862.97	1761.25
863.14	1742.82
863.30	1777.64
863.47	1693.67
863.64	1765.35
863.81	1761.25
863.97	1677.29
864.14	1808.36
864.31	1728.49
864.48	1722.34
864.65	1640.42
864.81	1722.34
864.98	1718.25
865.15	1798.12
865.32	1728.49
865.48	1804.26
865.65	1779.68
865.82	1691.62
865.98	1779.68
866.15	1806.31
866.32	1687.53
866.49	1810.40
866.65	1738.73
866.82	1638.38
866.99	1767.40
867.16	1628.14
867.32	1701.86
867.49	1677.29
867.66	1693.67
867.83	1689.57
867.99	1624.04
868.16	1708.01
868.33	1652.71
868.49	1699.81
868.66	1675.24
868.83	1773.54
868.99	1648.61
869.16	1714.15
869.33	1677.29
869.50	1763.30
869.66	1693.67
869.83	1675.24
870.00	1597.42
870.16	1757.16
870.33	1734.63
870.50	1808.36
870.66	1679.33
870.83	1812.45
871.00	1699.81
871.17	1718.25
871.33	1783.78
871.50	1755.11
871.67	1718.25
871.83	1654.76
872.00	1767.40
872.17	1732.58
872.33	1779.68
872.50	1730.53
872.67	1681.38
872.83	1656.81
873.00	1742.82
873.17	1773.54
873.33	1701.86
873.50	1781.73
873.67	1646.57
873.83	1642.47
874.00	1628.14
874.16	1720.29
874.33	1646.57
874.50	1636.33
874.66	1755.11
874.83	1755.11
875.00	1714.15
875.16	1705.96
875.33	1763.30
875.50	1621.99
875.66	1656.81
875.83	1738.73
875.99	1769.44
876.16	1667.05
876.33	1683.43
876.49	1738.73
876.66	1818.60
876.83	1718.25
876.99	1607.66
877.16	1714.15
877.32	1662.95
877.49	1720.29
877.66	1712.10
877.82	1757.16
877.99	1751.01
878.15	1794.02
878.32	1708.01
878.49	1716.20
878.65	1660.90
878.82	1742.82
878.98	1669.09
879.15	1726.44
879.32	1736.68
879.48	1779.68
879.65	1671.14
879.81	1669.09
879.98	1589.22
880.15	1757.16
880.31	1787.88
880.48	1638.38
880.64	1748.97
880.81	1738.73
880.97	1785.83
881.14	1798.12
881.31	1595.37
881.47	1886.18
881.64	1609.70
881.80	1583.08
881.97	1677.29
882.13	1783.78
882.30	1646.57
882.47	1705.96
882.63	1613.80
882.80	1675.24
882.96	1640.42
883.13	1716.20
883.29	1683.43
883.46	1751.01
883.62	1791.97
883.79	1681.38
883.95	1761.25
884.12	1746.92
884.29	1744.87
884.45	1724.39
884.62	1791.97
884.78	1665.00
884.95	1779.68
885.11	1665.00
885.28	1730.53
885.44	1624.04
885.61	1683.43
885.77	1818.60
885.94	1714.15
886.10	1662.95
886.27	1695.72
886.43	1773.54
886.60	1718.25
886.76	1691.62
886.93	1716.20
887.09	1724.39
887.26	1603.56
887.42	1732.58
887.59	1843.17
887.75	1806.31
887.92	1769.44
888.08	1763.30
888.25	1814.50
888.41	1687.53
888.58	1714.15
888.74	1621.99
888.91	1669.09
>>>>>End Processed Spectral Data<<<<<
