SpectraSuite Data File
++++++++++++++++++++++++++++++++++++
Date: Mon Jun 06 12:43:17 CEST 2016
User: root
Dark Spectrum Present: No
Reference Spectrum Present: No
Number of Sampled Component Spectra: 1
Spectrometers: USB4C02835
Integration Time (usec): 100000 (USB4C02835)
Spectra Averaged: 1 (USB4C02835)
Boxcar Smoothing: 0 (USB4C02835)
Correct for Electrical Dark: No (USB4C02835)
Strobe/Lamp Enabled: No (USB4C02835)
Correct for Detector Non-linearity: No (USB4C02835)
Correct for Stray Light: No (USB4C02835)
Number of Pixels in Processed Spectrum: 3648
>>>>>Begin Processed Spectral Data<<<<<
177.47	1435.63
177.69	1435.63
177.91	1435.63
178.13	1513.45
178.36	1441.77
178.58	1617.90
178.80	1677.29
179.02	1621.99
179.24	1599.46
179.46	1683.43
179.68	1728.49
179.90	1640.42
180.13	1658.85
180.35	1677.29
180.57	1669.09
180.79	1767.40
181.01	1621.99
181.23	1785.83
181.45	1732.58
181.67	1806.31
181.90	1794.02
182.12	1699.81
182.34	1595.37
182.56	1734.63
182.78	1693.67
183.00	1646.57
183.22	1644.52
183.44	1589.22
183.66	1806.31
183.89	1785.83
184.11	1656.81
184.33	1632.23
184.55	1689.57
184.77	1746.92
184.99	1779.68
185.21	1685.48
185.43	1789.92
185.65	1681.38
185.87	1740.77
186.10	1859.56
186.32	1800.16
186.54	1673.19
186.76	1716.20
186.98	1759.21
187.20	1738.73
187.42	1632.23
187.64	1708.01
187.86	1705.96
188.08	1681.38
188.30	1718.25
188.52	1734.63
188.75	1832.93
188.97	1828.84
189.19	1710.05
189.41	1677.29
189.63	1689.57
189.85	1697.77
190.07	1652.71
190.29	1595.37
190.51	1761.25
190.73	1675.24
190.95	1722.34
191.17	1697.77
191.39	1630.18
191.61	1646.57
191.84	1669.09
192.06	1730.53
192.28	1644.52
192.50	1808.36
192.72	1746.92
192.94	1755.11
193.16	1757.16
193.38	1689.57
193.60	1687.53
193.82	1658.85
194.04	1751.01
194.26	1730.53
194.48	1656.81
194.70	1636.33
194.92	1665.00
195.14	1802.21
195.36	1669.09
195.58	1720.29
195.80	1701.86
196.02	1648.61
196.24	1605.61
196.46	1714.15
196.69	1630.18
196.91	1843.17
197.13	1705.96
197.35	1638.38
197.57	1779.68
197.79	1771.49
198.01	1652.71
198.23	1748.97
198.45	1755.11
198.67	1621.99
198.89	1703.91
199.11	1701.86
199.33	1701.86
199.55	1585.13
199.77	1677.29
199.99	1724.39
200.21	1710.05
200.43	1744.87
200.65	1621.99
200.87	1609.70
201.09	1675.24
201.31	1722.34
201.53	1738.73
201.75	1689.57
201.97	1628.14
202.19	1695.72
202.41	1767.40
202.63	1847.27
202.85	1796.07
203.07	1681.38
203.29	1679.33
203.51	1693.67
203.73	1675.24
203.95	1882.08
204.17	1648.61
204.39	1669.09
204.61	1757.16
204.83	1652.71
205.05	1769.44
205.27	1660.90
205.49	1853.41
205.71	1695.72
205.93	1640.42
206.15	1648.61
206.37	1785.83
206.59	1691.62
206.81	1671.14
207.03	1648.61
207.25	1634.28
207.47	1710.05
207.69	1687.53
207.91	1820.64
208.13	1757.16
208.34	1705.96
208.56	1591.27
208.78	1701.86
209.00	1665.00
209.22	1705.96
209.44	1710.05
209.66	1652.71
209.88	1697.77
210.10	1681.38
210.32	1712.10
210.54	1773.54
210.76	1730.53
210.98	1691.62
211.20	1603.56
211.42	1712.10
211.64	1837.03
211.86	1677.29
212.08	1628.14
212.30	1765.35
212.52	1693.67
212.74	1712.10
212.96	1658.85
213.17	1751.01
213.39	1701.86
213.61	1761.25
213.83	1734.63
214.05	1609.70
214.27	1800.16
214.49	1636.33
214.71	1714.15
214.93	1716.20
215.15	1691.62
215.37	1777.64
215.59	1656.81
215.81	1806.31
216.03	1748.97
216.24	1705.96
216.46	1701.86
216.68	1701.86
216.90	1751.01
217.12	1730.53
217.34	1640.42
217.56	1781.73
217.78	1828.84
218.00	1634.28
218.22	1738.73
218.44	1695.72
218.66	1673.19
218.87	1816.55
219.09	1683.43
219.31	1691.62
219.53	1701.86
219.75	1632.23
219.97	1679.33
220.19	1699.81
220.41	1699.81
220.63	1769.44
220.85	1730.53
221.06	1697.77
221.28	1789.92
221.50	1724.39
221.72	1705.96
221.94	1736.68
222.16	1650.66
222.38	1753.06
222.60	1773.54
222.82	1650.66
223.03	1787.88
223.25	1705.96
223.47	1771.49
223.69	1779.68
223.91	1753.06
224.13	1722.34
224.35	1740.77
224.57	1718.25
224.78	1767.40
225.00	1624.04
225.22	1658.85
225.44	1697.77
225.66	1738.73
225.88	1652.71
226.10	1738.73
226.32	1738.73
226.53	1845.22
226.75	1746.92
226.97	1691.62
227.19	1648.61
227.41	1691.62
227.63	1708.01
227.85	1609.70
228.06	1665.00
228.28	1734.63
228.50	1697.77
228.72	1638.38
228.94	1652.71
229.16	1677.29
229.37	1652.71
229.59	1695.72
229.81	1755.11
230.03	1699.81
230.25	1654.76
230.47	1665.00
230.69	1550.31
230.90	1708.01
231.12	1673.19
231.34	1665.00
231.56	1679.33
231.78	1665.00
232.00	1675.24
232.21	1683.43
232.43	1705.96
232.65	1630.18
232.87	1681.38
233.09	1687.53
233.30	1677.29
233.52	1708.01
233.74	1646.57
233.96	1710.05
234.18	1685.48
234.40	1593.32
234.61	1761.25
234.83	1679.33
235.05	1607.66
235.27	1890.28
235.49	1804.26
235.70	1677.29
235.92	1757.16
236.14	1779.68
236.36	1804.26
236.58	1687.53
236.79	1710.05
237.01	1638.38
237.23	1730.53
237.45	1783.78
237.67	1595.37
237.88	1703.91
238.10	1775.59
238.32	1718.25
238.54	1660.90
238.76	1656.81
238.97	1646.57
239.19	1671.14
239.41	1800.16
239.63	1773.54
239.85	1652.71
240.06	1683.43
240.28	1665.00
240.50	1785.83
240.72	1716.20
240.93	1679.33
241.15	1800.16
241.37	1679.33
241.59	1783.78
241.81	1703.91
242.02	1699.81
242.24	1687.53
242.46	1693.67
242.68	1673.19
242.89	1714.15
243.11	1732.58
243.33	1703.91
243.55	1748.97
243.76	1722.34
243.98	1636.33
244.20	1697.77
244.42	1658.85
244.64	1781.73
244.85	1669.09
245.07	1597.42
245.29	1785.83
245.51	1710.05
245.72	1820.64
245.94	1841.12
246.16	1732.58
246.38	1695.72
246.59	1673.19
246.81	1601.51
247.03	1650.66
247.24	1546.22
247.46	1681.38
247.68	1687.53
247.90	1763.30
248.11	1611.75
248.33	1753.06
248.55	1738.73
248.77	1763.30
248.98	1738.73
249.20	1777.64
249.42	1652.71
249.64	1734.63
249.85	1722.34
250.07	1654.76
250.29	1781.73
250.50	1751.01
250.72	1603.56
250.94	1726.44
251.16	1796.07
251.37	1796.07
251.59	1753.06
251.81	1816.55
252.02	1779.68
252.24	1654.76
252.46	1779.68
252.68	1650.66
252.89	1697.77
253.11	1619.94
253.33	1820.64
253.54	1697.77
253.76	1644.52
253.98	1701.86
254.20	1673.19
254.41	1603.56
254.63	1751.01
254.85	1642.47
255.06	1677.29
255.28	1660.90
255.50	1640.42
255.71	1701.86
255.93	1581.03
256.15	1675.24
256.36	1775.59
256.58	1697.77
256.80	1779.68
257.02	1722.34
257.23	1611.75
257.45	1757.16
257.67	1740.77
257.88	1681.38
258.10	1740.77
258.32	1681.38
258.53	1775.59
258.75	1828.84
258.97	1701.86
259.18	1699.81
259.40	1677.29
259.62	1806.31
259.83	1769.44
260.05	1734.63
260.27	1957.86
260.48	1650.66
260.70	1630.18
260.92	1671.14
261.13	1728.49
261.35	1677.29
261.57	1726.44
261.78	1646.57
262.00	1646.57
262.22	1656.81
262.43	1712.10
262.65	1722.34
262.86	1763.30
263.08	1763.30
263.30	1769.44
263.51	1599.46
263.73	1671.14
263.95	1777.64
264.16	1640.42
264.38	1665.00
264.60	1705.96
264.81	1658.85
265.03	1798.12
265.25	1714.15
265.46	1724.39
265.68	1740.77
265.89	1783.78
266.11	1593.32
266.33	1783.78
266.54	1714.15
266.76	1701.86
266.98	1675.24
267.19	1812.45
267.41	1832.93
267.62	1714.15
267.84	1644.52
268.06	1765.35
268.27	1646.57
268.49	1742.82
268.70	1705.96
268.92	1718.25
269.14	1673.19
269.35	1636.33
269.57	1755.11
269.79	1669.09
270.00	1718.25
270.22	1777.64
270.43	1630.18
270.65	1560.55
270.87	1683.43
271.08	1722.34
271.30	1785.83
271.51	1685.48
271.73	1732.58
271.95	1714.15
272.16	1644.52
272.38	1724.39
272.59	1634.28
272.81	1816.55
273.02	1683.43
273.24	1720.29
273.46	1748.97
273.67	1656.81
273.89	1712.10
274.10	1640.42
274.32	1753.06
274.54	1728.49
274.75	1687.53
274.97	1658.85
275.18	1761.25
275.40	1732.58
275.61	1705.96
275.83	1665.00
276.05	1587.18
276.26	1630.18
276.48	1667.05
276.69	1728.49
276.91	1644.52
277.12	1689.57
277.34	1738.73
277.55	1689.57
277.77	1726.44
277.99	1701.86
278.20	1656.81
278.42	1654.76
278.63	1632.23
278.85	1708.01
279.06	1660.90
279.28	1777.64
279.49	1753.06
279.71	1705.96
279.93	1687.53
280.14	1701.86
280.36	1615.85
280.57	1738.73
280.79	1742.82
281.00	1693.67
281.22	1624.04
281.43	1822.69
281.65	1574.89
281.86	1640.42
282.08	1789.92
282.29	1787.88
282.51	1648.61
282.73	1626.09
282.94	1609.70
283.16	1724.39
283.37	1775.59
283.59	1673.19
283.80	1746.92
284.02	1714.15
284.23	1683.43
284.45	1615.85
284.66	1662.95
284.88	1646.57
285.09	1705.96
285.31	1667.05
285.52	1763.30
285.74	1589.22
285.95	1798.12
286.17	1757.16
286.38	1761.25
286.60	1755.11
286.81	1630.18
287.03	1697.77
287.24	1703.91
287.46	1710.05
287.67	1728.49
287.89	1816.55
288.10	1742.82
288.32	1697.77
288.53	1867.75
288.75	1757.16
288.96	1746.92
289.18	1730.53
289.39	1648.61
289.61	1740.77
289.82	1804.26
290.04	1839.08
290.25	1621.99
290.47	1675.24
290.68	1728.49
290.90	1740.77
291.11	1662.95
291.33	1701.86
291.54	1615.85
291.76	1693.67
291.97	1628.14
292.18	1755.11
292.40	1716.20
292.61	1671.14
292.83	1890.28
293.04	1673.19
293.26	1728.49
293.47	1701.86
293.69	1601.51
293.90	1697.77
294.12	1767.40
294.33	1658.85
294.55	1675.24
294.76	1667.05
294.97	1753.06
295.19	1824.74
295.40	1708.01
295.62	1734.63
295.83	1722.34
296.05	1636.33
296.26	1748.97
296.48	1708.01
296.69	1685.48
296.90	1699.81
297.12	1773.54
297.33	1697.77
297.55	1654.76
297.76	1781.73
297.98	1730.53
298.19	1695.72
298.41	1652.71
298.62	1628.14
298.83	1796.07
299.05	1685.48
299.26	1708.01
299.48	1720.29
299.69	1712.10
299.90	1724.39
300.12	1595.37
300.33	1712.10
300.55	1691.62
300.76	1761.25
300.98	1617.90
301.19	1798.12
301.40	1730.53
301.62	1705.96
301.83	1613.80
302.05	1726.44
302.26	1714.15
302.47	1683.43
302.69	1578.98
302.90	1724.39
303.12	1572.84
303.33	1775.59
303.54	1761.25
303.76	1658.85
303.97	1701.86
304.19	1757.16
304.40	1652.71
304.61	1789.92
304.83	1761.25
305.04	1716.20
305.26	1640.42
305.47	1628.14
305.68	1714.15
305.90	1658.85
306.11	1683.43
306.33	1757.16
306.54	1669.09
306.75	1662.95
306.97	1624.04
307.18	1562.60
307.39	1669.09
307.61	1689.57
307.82	1665.00
308.04	1689.57
308.25	1705.96
308.46	1699.81
308.68	1740.77
308.89	1730.53
309.10	1816.55
309.32	1714.15
309.53	1683.43
309.74	1679.33
309.96	1654.76
310.17	1722.34
310.39	1681.38
310.60	1732.58
310.81	1714.15
311.03	1658.85
311.24	1779.68
311.45	1685.48
311.67	1861.60
311.88	1755.11
312.09	1710.05
312.31	1652.71
312.52	1712.10
312.73	1720.29
312.95	1701.86
313.16	1708.01
313.37	1759.21
313.59	1660.90
313.80	1679.33
314.01	1871.84
314.23	1675.24
314.44	1685.48
314.65	1671.14
314.87	1595.37
315.08	1746.92
315.29	1660.90
315.51	1714.15
315.72	1665.00
315.93	1798.12
316.15	1734.63
316.36	1744.87
316.57	1648.61
316.79	1765.35
317.00	1708.01
317.21	1656.81
317.43	1671.14
317.64	1658.85
317.85	1673.19
318.07	1640.42
318.28	1726.44
318.49	1685.48
318.70	1980.39
318.92	1796.07
319.13	1769.44
319.34	1845.22
319.56	1771.49
319.77	1765.35
319.98	1816.55
320.20	1753.06
320.41	1771.49
320.62	1806.31
320.83	1736.68
321.05	1863.65
321.26	1697.77
321.47	1658.85
321.69	1791.97
321.90	1671.14
322.11	1746.92
322.32	1724.39
322.54	1781.73
322.75	1697.77
322.96	1832.93
323.18	1628.14
323.39	1587.18
323.60	1656.81
323.81	1718.25
324.03	1675.24
324.24	1734.63
324.45	1665.00
324.66	1654.76
324.88	1728.49
325.09	1730.53
325.30	1681.38
325.52	1775.59
325.73	1677.29
325.94	1671.14
326.15	1652.71
326.37	1693.67
326.58	1771.49
326.79	1773.54
327.00	1697.77
327.22	1730.53
327.43	1738.73
327.64	1628.14
327.85	1748.97
328.07	1751.01
328.28	1781.73
328.49	1712.10
328.70	1638.38
328.92	1712.10
329.13	1650.66
329.34	1634.28
329.55	1744.87
329.76	1693.67
329.98	1710.05
330.19	1783.78
330.40	1736.68
330.61	1679.33
330.83	1753.06
331.04	1673.19
331.25	1611.75
331.46	1671.14
331.68	1621.99
331.89	1730.53
332.10	1712.10
332.31	1658.85
332.52	1730.53
332.74	1818.60
332.95	1626.09
333.16	1697.77
333.37	1718.25
333.58	1783.78
333.80	1794.02
334.01	1646.57
334.22	1681.38
334.43	1671.14
334.64	1667.05
334.86	1648.61
335.07	1681.38
335.28	1767.40
335.49	1601.51
335.70	1703.91
335.92	1783.78
336.13	1779.68
336.34	1730.53
336.55	1697.77
336.76	1679.33
336.98	1587.18
337.19	1660.90
337.40	1804.26
337.61	1845.22
337.82	1667.05
338.04	1759.21
338.25	1642.47
338.46	1683.43
338.67	1648.61
338.88	1621.99
339.09	1648.61
339.31	1695.72
339.52	1716.20
339.73	1730.53
339.94	1681.38
340.15	1703.91
340.36	1656.81
340.58	1677.29
340.79	1626.09
341.00	1716.20
341.21	1658.85
341.42	1759.21
341.63	1703.91
341.85	1734.63
342.06	1720.29
342.27	1685.48
342.48	1716.20
342.69	1599.46
342.90	1765.35
343.12	1695.72
343.33	1720.29
343.54	1728.49
343.75	1798.12
343.96	1734.63
344.17	1685.48
344.38	1726.44
344.60	1701.86
344.81	1656.81
345.02	1705.96
345.23	1718.25
345.44	1812.45
345.65	1732.58
345.86	1771.49
346.07	1642.47
346.29	1636.33
346.50	1724.39
346.71	1769.44
346.92	1753.06
347.13	1791.97
347.34	1728.49
347.55	1722.34
347.76	1800.16
347.98	1675.24
348.19	1738.73
348.40	1789.92
348.61	1703.91
348.82	1779.68
349.03	1755.11
349.24	1628.14
349.45	1861.60
349.66	1585.13
349.88	1642.47
350.09	1699.81
350.30	1853.41
350.51	1753.06
350.72	1671.14
350.93	1730.53
351.14	1708.01
351.35	1748.97
351.56	1652.71
351.77	1675.24
351.99	1705.96
352.20	1761.25
352.41	1736.68
352.62	1578.98
352.83	1716.20
353.04	1656.81
353.25	1673.19
353.46	1744.87
353.67	1810.40
353.88	1636.33
354.09	1755.11
354.30	1644.52
354.52	1736.68
354.73	1681.38
354.94	1689.57
355.15	1677.29
355.36	1798.12
355.57	1652.71
355.78	1714.15
355.99	1693.67
356.20	1673.19
356.41	1716.20
356.62	1728.49
356.83	1691.62
357.04	1845.22
357.25	1601.51
357.46	1626.09
357.68	1656.81
357.89	1744.87
358.10	1662.95
358.31	1685.48
358.52	1697.77
358.73	1673.19
358.94	1646.57
359.15	1599.46
359.36	1746.92
359.57	1716.20
359.78	1697.77
359.99	1732.58
360.20	1589.22
360.41	1693.67
360.62	1701.86
360.83	1771.49
361.04	1708.01
361.25	1705.96
361.46	1830.88
361.67	1671.14
361.88	1712.10
362.09	1708.01
362.30	1679.33
362.51	1542.12
362.72	1830.88
362.93	1730.53
363.14	1789.92
363.35	1730.53
363.56	1636.33
363.78	1755.11
363.99	1781.73
364.20	1683.43
364.41	1751.01
364.62	1865.70
364.83	1767.40
365.04	1722.34
365.25	1705.96
365.46	1761.25
365.67	1708.01
365.88	1644.52
366.09	1667.05
366.30	1703.91
366.51	1718.25
366.72	1730.53
366.93	1685.48
367.14	1724.39
367.35	1730.53
367.56	1644.52
367.77	1781.73
367.98	1744.87
368.18	1746.92
368.39	1697.77
368.60	1703.91
368.81	1611.75
369.02	1757.16
369.23	1677.29
369.44	1644.52
369.65	1671.14
369.86	1746.92
370.07	1775.59
370.28	1628.14
370.49	1746.92
370.70	1722.34
370.91	1701.86
371.12	1599.46
371.33	1679.33
371.54	1650.66
371.75	1785.83
371.96	1587.18
372.17	1667.05
372.38	1667.05
372.59	1751.01
372.80	1675.24
373.01	1634.28
373.22	1718.25
373.43	1798.12
373.64	1642.47
373.85	1812.45
374.06	1742.82
374.26	1722.34
374.47	1753.06
374.68	1726.44
374.89	1722.34
375.10	1712.10
375.31	1744.87
375.52	1665.00
375.73	1837.03
375.94	1673.19
376.15	1753.06
376.36	1685.48
376.57	1769.44
376.78	1568.74
376.99	1685.48
377.20	1800.16
377.40	1738.73
377.61	1757.16
377.82	1656.81
378.03	1685.48
378.24	1783.78
378.45	1697.77
378.66	1724.39
378.87	1613.80
379.08	1599.46
379.29	1718.25
379.50	1726.44
379.71	1693.67
379.91	1781.73
380.12	1703.91
380.33	1697.77
380.54	1718.25
380.75	1732.58
380.96	1654.76
381.17	1853.41
381.38	1728.49
381.59	1691.62
381.80	1615.85
382.00	1779.68
382.21	1732.58
382.42	1726.44
382.63	1884.13
382.84	1777.64
383.05	1730.53
383.26	1751.01
383.47	1728.49
383.68	1847.27
383.88	1681.38
384.09	1667.05
384.30	1824.74
384.51	1767.40
384.72	1734.63
384.93	1671.14
385.14	1728.49
385.35	1681.38
385.55	1656.81
385.76	1779.68
385.97	1724.39
386.18	1652.71
386.39	1695.72
386.60	1601.51
386.81	1642.47
387.02	1708.01
387.22	1667.05
387.43	1732.58
387.64	1779.68
387.85	1970.15
388.06	2168.80
388.27	4263.87
388.48	6766.49
388.68	8245.12
388.89	9725.80
389.10	10106.73
389.31	8769.40
389.52	7636.88
389.73	6772.63
389.93	6211.49
390.14	5912.49
390.35	5109.68
390.56	4597.69
390.77	3811.27
390.98	3030.99
391.18	2502.62
391.39	2068.45
391.60	1828.84
391.81	1888.23
392.02	1699.81
392.23	1753.06
392.43	1748.97
392.64	1808.36
392.85	1753.06
393.06	1763.30
393.27	1703.91
393.47	1626.09
393.68	1685.48
393.89	1677.29
394.10	1779.68
394.31	1671.14
394.52	1679.33
394.72	1605.61
394.93	1771.49
395.14	1685.48
395.35	1767.40
395.56	1681.38
395.76	1705.96
395.97	1763.30
396.18	1802.21
396.39	1769.44
396.60	2088.93
396.80	1933.28
397.01	1826.79
397.22	1796.07
397.43	1820.64
397.64	1738.73
397.84	1861.60
398.05	1892.32
398.26	1730.53
398.47	1783.78
398.67	1726.44
398.88	1685.48
399.09	1740.77
399.30	1632.23
399.51	1705.96
399.71	1660.90
399.92	1665.00
400.13	1814.50
400.34	1806.31
400.54	1669.09
400.75	1818.60
400.96	1742.82
401.17	1855.46
401.37	1765.35
401.58	1771.49
401.79	1728.49
402.00	1839.08
402.21	1957.86
402.41	1947.62
402.62	2017.25
402.83	1984.48
403.04	1943.52
403.24	2078.69
403.45	1853.41
403.66	1904.61
403.87	1918.95
404.07	1898.47
404.28	1927.14
404.49	1931.23
404.70	1806.31
404.90	1757.16
405.11	1781.73
405.32	1671.14
405.52	1730.53
405.73	1669.09
405.94	1660.90
406.15	1665.00
406.35	1732.58
406.56	1681.38
406.77	1703.91
406.98	1787.88
407.18	1718.25
407.39	1816.55
407.60	1724.39
407.80	1697.77
408.01	1689.57
408.22	1771.49
408.43	1644.52
408.63	1755.11
408.84	1748.97
409.05	1738.73
409.25	1726.44
409.46	1648.61
409.67	1773.54
409.88	1705.96
410.08	1685.48
410.29	1728.49
410.50	1765.35
410.70	1763.30
410.91	1665.00
411.12	1708.01
411.32	1716.20
411.53	1740.77
411.74	1796.07
411.95	1734.63
412.15	1755.11
412.36	1773.54
412.57	1744.87
412.77	1755.11
412.98	1802.21
413.19	1734.63
413.39	1746.92
413.60	1722.34
413.81	1779.68
414.01	1621.99
414.22	1691.62
414.43	1753.06
414.63	1697.77
414.84	1834.98
415.05	1701.86
415.25	1609.70
415.46	1660.90
415.67	1726.44
415.87	1746.92
416.08	1685.48
416.29	1738.73
416.49	1753.06
416.70	1693.67
416.91	1683.43
417.11	1675.24
417.32	1759.21
417.53	1726.44
417.73	1681.38
417.94	1773.54
418.15	1746.92
418.35	1757.16
418.56	1708.01
418.77	1794.02
418.97	1683.43
419.18	1699.81
419.38	1578.98
419.59	1734.63
419.80	1769.44
420.00	1642.47
420.21	1720.29
420.42	1812.45
420.62	1703.91
420.83	1742.82
421.04	1746.92
421.24	1708.01
421.45	1712.10
421.65	1742.82
421.86	1755.11
422.07	1736.68
422.27	1759.21
422.48	1708.01
422.69	1720.29
422.89	1755.11
423.10	1712.10
423.30	1669.09
423.51	1783.78
423.72	1695.72
423.92	1728.49
424.13	1642.47
424.33	1705.96
424.54	1753.06
424.75	1705.96
424.95	1863.65
425.16	1820.64
425.36	1630.18
425.57	1730.53
425.78	1755.11
425.98	1701.86
426.19	1650.66
426.39	1695.72
426.60	1746.92
426.81	1781.73
427.01	1730.53
427.22	1638.38
427.42	1593.32
427.63	1662.95
427.83	1705.96
428.04	1781.73
428.25	1775.59
428.45	1726.44
428.66	1738.73
428.86	1705.96
429.07	1736.68
429.28	1753.06
429.48	1662.95
429.69	1648.61
429.89	1693.67
430.10	1632.23
430.30	1775.59
430.51	1826.79
430.71	1591.27
430.92	1712.10
431.13	1660.90
431.33	1806.31
431.54	1718.25
431.74	1822.69
431.95	1841.12
432.15	1589.22
432.36	1761.25
432.56	1658.85
432.77	1853.41
432.98	1804.26
433.18	1763.30
433.39	1726.44
433.59	1691.62
433.80	1855.46
434.00	1855.46
434.21	1621.99
434.41	1644.52
434.62	1837.03
434.82	1677.29
435.03	1642.47
435.23	1738.73
435.44	1671.14
435.64	1714.15
435.85	1705.96
436.06	1740.77
436.26	1755.11
436.47	1673.19
436.67	1679.33
436.88	1675.24
437.08	1738.73
437.29	1794.02
437.49	1755.11
437.70	1734.63
437.90	1683.43
438.11	1875.94
438.31	1773.54
438.52	1898.47
438.72	1834.98
438.93	1828.84
439.13	1830.88
439.34	1787.88
439.54	1683.43
439.75	1761.25
439.95	1763.30
440.16	1689.57
440.36	1783.78
440.57	1646.57
440.77	1656.81
440.98	1728.49
441.18	1820.64
441.39	1710.05
441.59	1685.48
441.80	1779.68
442.00	1695.72
442.21	1771.49
442.41	1677.29
442.62	1769.44
442.82	1722.34
443.02	1667.05
443.23	1654.76
443.43	1748.97
443.64	1767.40
443.84	1652.71
444.05	1734.63
444.25	1804.26
444.46	1632.23
444.66	1759.21
444.87	1871.84
445.07	1662.95
445.28	1697.77
445.48	1804.26
445.69	1712.10
445.89	1867.75
446.09	1837.03
446.30	1955.81
446.50	2643.93
446.71	3680.20
446.91	4224.96
447.12	4720.57
447.32	4880.31
447.53	4259.78
447.73	3827.65
447.93	3547.08
448.14	3364.81
448.34	3194.83
448.55	2930.64
448.75	2891.73
448.96	2779.09
449.16	2377.69
449.36	2215.90
449.57	2043.87
449.77	1910.75
449.98	1832.93
450.18	1843.17
450.39	1818.60
450.59	1798.12
450.79	1742.82
451.00	1679.33
451.20	1777.64
451.41	1724.39
451.61	1716.20
451.81	1787.88
452.02	1671.14
452.22	1681.38
452.43	1728.49
452.63	1615.85
452.84	1714.15
453.04	1738.73
453.24	1781.73
453.45	1726.44
453.65	1738.73
453.86	1732.58
454.06	1751.01
454.26	1716.20
454.47	1638.38
454.67	1726.44
454.87	1681.38
455.08	1642.47
455.28	1824.74
455.49	1755.11
455.69	1744.87
455.89	1894.37
456.10	1716.20
456.30	1665.00
456.51	1753.06
456.71	1845.22
456.91	1732.58
457.12	1812.45
457.32	1734.63
457.52	1669.09
457.73	1798.12
457.93	1740.77
458.14	1683.43
458.34	1624.04
458.54	1726.44
458.75	1726.44
458.95	1800.16
459.15	1767.40
459.36	1693.67
459.56	1740.77
459.76	1843.17
459.97	1757.16
460.17	1710.05
460.37	1708.01
460.58	1728.49
460.78	1757.16
460.99	1699.81
461.19	1800.16
461.39	1693.67
461.60	1648.61
461.80	1742.82
462.00	1726.44
462.21	1685.48
462.41	1716.20
462.61	1685.48
462.82	1652.71
463.02	1679.33
463.22	1613.80
463.43	1837.03
463.63	1748.97
463.83	1748.97
464.04	1718.25
464.24	1734.63
464.44	1652.71
464.64	1732.58
464.85	1665.00
465.05	1767.40
465.25	1695.72
465.46	1804.26
465.66	1796.07
465.86	1720.29
466.07	1781.73
466.27	1687.53
466.47	1720.29
466.68	1695.72
466.88	1816.55
467.08	1662.95
467.29	1744.87
467.49	1775.59
467.69	1751.01
467.89	1720.29
468.10	1634.28
468.30	1660.90
468.50	1775.59
468.71	1763.30
468.91	1640.42
469.11	1849.32
469.31	1683.43
469.52	1621.99
469.72	1751.01
469.92	1884.13
470.13	1738.73
470.33	1667.05
470.53	1845.22
470.73	2136.03
470.94	2289.63
471.14	2342.88
471.34	2500.57
471.54	2416.60
471.75	2224.09
471.95	2107.36
472.15	2109.41
472.36	2070.50
472.56	2068.45
472.76	2050.02
472.96	1970.15
473.17	1914.85
473.37	1886.18
473.57	1775.59
473.77	1822.69
473.98	1771.49
474.18	1710.05
474.38	1890.28
474.58	1656.81
474.79	1734.63
474.99	1708.01
475.19	1767.40
475.39	1669.09
475.60	1781.73
475.80	1705.96
476.00	1677.29
476.20	1677.29
476.41	1744.87
476.61	1822.69
476.81	1746.92
477.01	1665.00
477.21	1886.18
477.42	1791.97
477.62	1632.23
477.82	1751.01
478.02	1648.61
478.23	1734.63
478.43	1591.27
478.63	1634.28
478.83	1722.34
479.03	1714.15
479.24	1865.70
479.44	1779.68
479.64	1617.90
479.84	1662.95
480.04	1673.19
480.25	1714.15
480.45	1605.61
480.65	1732.58
480.85	1841.12
481.06	1679.33
481.26	1710.05
481.46	1798.12
481.66	1800.16
481.86	1687.53
482.06	1822.69
482.27	1771.49
482.47	1720.29
482.67	1769.44
482.87	1689.57
483.07	1736.68
483.28	1720.29
483.48	1640.42
483.68	1683.43
483.88	1628.14
484.08	1578.98
484.29	1658.85
484.49	1683.43
484.69	1626.09
484.89	1775.59
485.09	1849.32
485.29	1734.63
485.50	1824.74
485.70	1734.63
485.90	1798.12
486.10	1730.53
486.30	1773.54
486.50	1720.29
486.71	1783.78
486.91	1822.69
487.11	1761.25
487.31	1667.05
487.51	1681.38
487.71	1683.43
487.91	1591.27
488.12	1601.51
488.32	1599.46
488.52	1632.23
488.72	1585.13
488.92	1742.82
489.12	1755.11
489.32	1886.18
489.53	1748.97
489.73	1642.47
489.93	1794.02
490.13	1669.09
490.33	1634.28
490.53	1740.77
490.73	1814.50
490.94	1685.48
491.14	1849.32
491.34	1812.45
491.54	2086.88
491.74	2674.65
491.94	2906.07
492.14	3035.09
492.34	3039.19
492.54	2766.81
492.75	2516.95
492.95	2482.14
493.15	2322.40
493.35	2271.20
493.55	2164.70
493.75	2166.75
493.95	2078.69
494.15	2076.64
494.35	1869.80
494.56	1873.89
494.76	1753.06
494.96	1808.36
495.16	1802.21
495.36	1636.33
495.56	1624.04
495.76	1775.59
495.96	1759.21
496.16	1681.38
496.36	1861.60
496.56	1834.98
496.77	1699.81
496.97	1673.19
497.17	1773.54
497.37	1589.22
497.57	1824.74
497.77	1681.38
497.97	1665.00
498.17	1726.44
498.37	1712.10
498.57	1787.88
498.77	1730.53
498.97	1789.92
499.17	1880.04
499.38	1734.63
499.58	1755.11
499.78	1812.45
499.98	1808.36
500.18	1677.29
500.38	1779.68
500.58	1884.13
500.78	2566.10
500.98	4542.39
501.18	5851.05
501.38	6746.01
501.58	7057.30
501.78	6748.06
501.98	5537.71
502.18	5025.72
502.38	4429.76
502.58	4145.09
502.78	3839.94
502.98	3719.11
503.18	3354.57
503.38	3129.30
503.59	2830.29
503.79	2701.27
503.99	2420.70
504.19	2318.30
504.39	2197.47
504.59	2111.46
504.79	1955.81
504.99	2017.25
505.19	2002.91
505.39	1906.66
505.59	1918.95
505.79	1861.60
505.99	1812.45
506.19	1703.91
506.39	1849.32
506.59	1714.15
506.79	1828.84
506.99	1851.36
507.19	1791.97
507.39	1722.34
507.59	1736.68
507.79	1726.44
507.99	1716.20
508.19	1716.20
508.39	1724.39
508.59	1728.49
508.79	1861.60
508.99	1820.64
509.19	1773.54
509.39	1769.44
509.59	1736.68
509.79	1677.29
509.99	1751.01
510.19	1810.40
510.39	1816.55
510.59	1740.77
510.79	1798.12
510.99	1673.19
511.19	1705.96
511.39	1716.20
511.59	1761.25
511.79	1751.01
511.99	1763.30
512.19	1791.97
512.38	1677.29
512.58	1667.05
512.78	1763.30
512.98	1736.68
513.18	1820.64
513.38	1611.75
513.58	1816.55
513.78	1744.87
513.98	1662.95
514.18	1722.34
514.38	1812.45
514.58	1767.40
514.78	1681.38
514.98	1669.09
515.18	1654.76
515.38	1636.33
515.58	1777.64
515.78	1691.62
515.98	1767.40
516.18	1697.77
516.38	1742.82
516.57	1685.48
516.77	1677.29
516.97	1724.39
517.17	1738.73
517.37	1621.99
517.57	1808.36
517.77	1742.82
517.97	1804.26
518.17	1751.01
518.37	1650.66
518.57	1669.09
518.77	1724.39
518.97	1726.44
519.16	1828.84
519.36	1826.79
519.56	1665.00
519.76	1683.43
519.96	1697.77
520.16	1748.97
520.36	1642.47
520.56	1804.26
520.76	1716.20
520.96	1800.16
521.16	1771.49
521.35	1773.54
521.55	1910.75
521.75	1658.85
521.95	1720.29
522.15	1705.96
522.35	1638.38
522.55	1648.61
522.75	1744.87
522.95	1726.44
523.14	1689.57
523.34	1826.79
523.54	1687.53
523.74	1791.97
523.94	1765.35
524.14	1685.48
524.34	1783.78
524.54	1800.16
524.73	1654.76
524.93	1757.16
525.13	1761.25
525.33	1603.56
525.53	1861.60
525.73	1734.63
525.93	1728.49
526.13	1736.68
526.32	1736.68
526.52	1755.11
526.72	1767.40
526.92	1714.15
527.12	1708.01
527.32	1748.97
527.52	1732.58
527.71	1755.11
527.91	1728.49
528.11	1683.43
528.31	1703.91
528.51	1730.53
528.71	1673.19
528.90	1789.92
529.10	1738.73
529.30	1816.55
529.50	1632.23
529.70	1677.29
529.90	1665.00
530.09	1714.15
530.29	1677.29
530.49	1714.15
530.69	1886.18
530.89	1783.78
531.09	1816.55
531.28	1693.67
531.48	1818.60
531.68	1744.87
531.88	1753.06
532.08	1794.02
532.28	1720.29
532.47	1796.07
532.67	1751.01
532.87	1841.12
533.07	1748.97
533.27	1691.62
533.46	1767.40
533.66	1730.53
533.86	1656.81
534.06	1740.77
534.26	1730.53
534.45	1693.67
534.65	1812.45
534.85	1740.77
535.05	1677.29
535.25	1775.59
535.44	1681.38
535.64	1763.30
535.84	1746.92
536.04	1736.68
536.24	1726.44
536.43	1699.81
536.63	1744.87
536.83	1767.40
537.03	1691.62
537.22	1585.13
537.42	1642.47
537.62	1746.92
537.82	1724.39
538.02	1837.03
538.21	1820.64
538.41	1914.85
538.61	1732.58
538.81	1812.45
539.00	1783.78
539.20	1695.72
539.40	1705.96
539.60	1742.82
539.79	1757.16
539.99	1748.97
540.19	1734.63
540.39	1665.00
540.58	1736.68
540.78	1705.96
540.98	1728.49
541.18	1705.96
541.37	1787.88
541.57	1769.44
541.77	1759.21
541.97	1665.00
542.16	1703.91
542.36	1710.05
542.56	1689.57
542.76	1877.99
542.95	1636.33
543.15	1734.63
543.35	1708.01
543.54	1644.52
543.74	1683.43
543.94	1824.74
544.14	1746.92
544.33	1787.88
544.53	1703.91
544.73	1763.30
544.93	1701.86
545.12	1736.68
545.32	1722.34
545.52	1638.38
545.71	1607.66
545.91	1826.79
546.11	1662.95
546.30	1665.00
546.50	1726.44
546.70	1781.73
546.90	1746.92
547.09	1652.71
547.29	1761.25
547.49	1816.55
547.68	1746.92
547.88	1681.38
548.08	1806.31
548.27	2125.79
548.47	1703.91
548.67	1656.81
548.87	1703.91
549.06	1740.77
549.26	1781.73
549.46	1726.44
549.65	1726.44
549.85	1767.40
550.05	1722.34
550.24	1669.09
550.44	1755.11
550.64	1753.06
550.83	1785.83
551.03	1771.49
551.23	1789.92
551.42	1714.15
551.62	1773.54
551.82	1712.10
552.01	1648.61
552.21	1757.16
552.41	1671.14
552.60	1865.70
552.80	1781.73
553.00	1775.59
553.19	1722.34
553.39	1800.16
553.59	1656.81
553.78	1755.11
553.98	1771.49
554.17	1681.38
554.37	1761.25
554.57	1734.63
554.76	1697.77
554.96	1714.15
555.16	1783.78
555.35	1771.49
555.55	1812.45
555.75	1775.59
555.94	1785.83
556.14	1613.80
556.33	1697.77
556.53	1716.20
556.73	1710.05
556.92	1781.73
557.12	1785.83
557.32	1871.84
557.51	1847.27
557.71	1857.51
557.90	1871.84
558.10	1806.31
558.30	1685.48
558.49	1640.42
558.69	1775.59
558.88	1769.44
559.08	1699.81
559.28	1724.39
559.47	1732.58
559.67	1777.64
559.86	1894.37
560.06	1736.68
560.26	1730.53
560.45	1716.20
560.65	1796.07
560.84	1843.17
561.04	1681.38
561.24	1736.68
561.43	1619.94
561.63	1953.76
561.82	1730.53
562.02	1789.92
562.22	1701.86
562.41	1761.25
562.61	1724.39
562.80	1669.09
563.00	1832.93
563.19	1765.35
563.39	1740.77
563.59	1738.73
563.78	1687.53
563.98	1693.67
564.17	1763.30
564.37	1599.46
564.56	1730.53
564.76	1679.33
564.96	1816.55
565.15	1773.54
565.35	1820.64
565.54	1775.59
565.74	1755.11
565.93	1773.54
566.13	1673.19
566.32	1714.15
566.52	1746.92
566.71	1751.01
566.91	1755.11
567.11	1765.35
567.30	1728.49
567.50	1787.88
567.69	1695.72
567.89	1732.58
568.08	1671.14
568.28	1822.69
568.47	1738.73
568.67	1744.87
568.86	1769.44
569.06	1751.01
569.25	1708.01
569.45	1660.90
569.64	1705.96
569.84	1736.68
570.04	1751.01
570.23	1738.73
570.43	1724.39
570.62	1671.14
570.82	1779.68
571.01	1662.95
571.21	1605.61
571.40	1617.90
571.60	1757.16
571.79	1755.11
571.99	1736.68
572.18	1646.57
572.38	1767.40
572.57	1634.28
572.77	1806.31
572.96	1886.18
573.16	1777.64
573.35	1718.25
573.55	1812.45
573.74	1701.86
573.94	1740.77
574.13	1763.30
574.33	1779.68
574.52	1761.25
574.71	1712.10
574.91	1730.53
575.10	1673.19
575.30	1701.86
575.49	1734.63
575.69	1681.38
575.88	1794.02
576.08	1724.39
576.27	1777.64
576.47	1691.62
576.66	1810.40
576.86	1787.88
577.05	1785.83
577.25	1748.97
577.44	1818.60
577.64	1708.01
577.83	1812.45
578.02	1796.07
578.22	1865.70
578.41	1859.56
578.61	1722.34
578.80	1591.27
579.00	1732.58
579.19	1671.14
579.39	1796.07
579.58	1861.60
579.77	1689.57
579.97	1875.94
580.16	1873.89
580.36	1857.51
580.55	1855.46
580.75	1759.21
580.94	1779.68
581.13	1832.93
581.33	1859.56
581.52	1800.16
581.72	1849.32
581.91	1877.99
582.11	1691.62
582.30	1775.59
582.49	1798.12
582.69	1771.49
582.88	1841.12
583.08	1714.15
583.27	1738.73
583.47	1765.35
583.66	1703.91
583.85	1679.33
584.05	1710.05
584.24	1771.49
584.44	1755.11
584.63	1734.63
584.82	1828.84
585.02	1742.82
585.21	1757.16
585.41	1834.98
585.60	1820.64
585.79	1923.04
585.99	1925.09
586.18	1890.28
586.37	2254.81
586.57	3395.53
586.76	10162.02
586.96	24927.88
587.15	34725.36
587.34	40568.21
587.54	42495.35
587.73	36935.12
587.93	26193.52
588.12	21644.98
588.31	18472.68
588.51	16756.48
588.70	15222.55
588.89	14212.90
589.09	12910.40
589.28	11188.05
589.47	9492.34
589.67	8038.28
589.86	6551.45
590.06	5003.19
590.25	3966.92
590.44	3043.28
590.64	2600.92
590.83	2199.52
591.02	2088.93
591.22	1906.66
591.41	1884.13
591.60	1814.50
591.80	1953.76
591.99	1822.69
592.18	1824.74
592.38	1804.26
592.57	1755.11
592.76	1773.54
592.96	1839.08
593.15	1730.53
593.34	1808.36
593.54	1730.53
593.73	1783.78
593.92	1742.82
594.12	1748.97
594.31	1798.12
594.50	1810.40
594.70	1781.73
594.89	1929.19
595.08	1740.77
595.28	1814.50
595.47	1855.46
595.66	1775.59
595.86	1720.29
596.05	1732.58
596.24	1736.68
596.43	1812.45
596.63	1796.07
596.82	1742.82
597.01	1787.88
597.21	1826.79
597.40	1777.64
597.59	1771.49
597.79	1728.49
597.98	1736.68
598.17	1753.06
598.36	1705.96
598.56	1751.01
598.75	1675.24
598.94	1728.49
599.14	1695.72
599.33	1673.19
599.52	1777.64
599.71	1769.44
599.91	1791.97
600.10	1804.26
600.29	1763.30
600.48	1736.68
600.68	1765.35
600.87	1751.01
601.06	1652.71
601.26	1753.06
601.45	1685.48
601.64	1730.53
601.83	1787.88
602.03	1683.43
602.22	1654.76
602.41	1697.77
602.60	1855.46
602.80	1781.73
602.99	1761.25
603.18	1728.49
603.37	1720.29
603.57	1720.29
603.76	1822.69
603.95	1873.89
604.14	1677.29
604.34	1693.67
604.53	1714.15
604.72	1769.44
604.91	1755.11
605.10	1728.49
605.30	1669.09
605.49	1839.08
605.68	1796.07
605.87	1857.51
606.07	1771.49
606.26	1695.72
606.45	1746.92
606.64	1716.20
606.84	1779.68
607.03	1714.15
607.22	1775.59
607.41	1742.82
607.60	1755.11
607.80	1753.06
607.99	1759.21
608.18	1734.63
608.37	1777.64
608.56	1724.39
608.76	1767.40
608.95	1812.45
609.14	1695.72
609.33	1738.73
609.52	1798.12
609.72	1736.68
609.91	1757.16
610.10	1722.34
610.29	1810.40
610.48	1763.30
610.68	1771.49
610.87	1712.10
611.06	1787.88
611.25	1744.87
611.44	1802.21
611.63	1716.20
611.83	1746.92
612.02	1636.33
612.21	1785.83
612.40	1636.33
612.59	1775.59
612.79	1679.33
612.98	1722.34
613.17	1812.45
613.36	1697.77
613.55	1791.97
613.74	1701.86
613.93	1648.61
614.13	1705.96
614.32	1781.73
614.51	1683.43
614.70	1712.10
614.89	1656.81
615.08	1720.29
615.28	2142.18
615.47	1636.33
615.66	1683.43
615.85	1677.29
616.04	1765.35
616.23	1710.05
616.42	1712.10
616.62	1658.85
616.81	1718.25
617.00	1703.91
617.19	1761.25
617.38	1673.19
617.57	1714.15
617.76	1685.48
617.95	1742.82
618.15	1718.25
618.34	1853.41
618.53	1681.38
618.72	1832.93
618.91	1794.02
619.10	1888.23
619.29	1701.86
619.48	1746.92
619.68	1675.24
619.87	1738.73
620.06	1589.22
620.25	1738.73
620.44	1722.34
620.63	1753.06
620.82	1732.58
621.01	1613.80
621.20	1693.67
621.39	1738.73
621.59	1714.15
621.78	1728.49
621.97	1722.34
622.16	1726.44
622.35	1669.09
622.54	1724.39
622.73	1796.07
622.92	1593.32
623.11	1720.29
623.30	1705.96
623.49	1744.87
623.68	1699.81
623.88	1753.06
624.07	1697.77
624.26	1763.30
624.45	1814.50
624.64	1677.29
624.83	1814.50
625.02	1699.81
625.21	1730.53
625.40	1851.36
625.59	1796.07
625.78	1734.63
625.97	1775.59
626.16	1773.54
626.35	1802.21
626.54	1697.77
626.74	1753.06
626.93	1771.49
627.12	1619.94
627.31	1816.55
627.50	1744.87
627.69	1753.06
627.88	1642.47
628.07	1665.00
628.26	1621.99
628.45	1673.19
628.64	1611.75
628.83	1658.85
629.02	1585.13
629.21	1775.59
629.40	1693.67
629.59	1619.94
629.78	1693.67
629.97	1683.43
630.16	1667.05
630.35	1691.62
630.54	1759.21
630.73	1675.24
630.92	1658.85
631.11	1726.44
631.30	1730.53
631.49	1806.31
631.68	1685.48
631.87	1726.44
632.06	1724.39
632.25	1804.26
632.44	1689.57
632.63	1697.77
632.82	1712.10
633.01	1716.20
633.20	1689.57
633.39	1718.25
633.58	1591.27
633.77	1693.67
633.96	1751.01
634.15	1708.01
634.34	1738.73
634.53	1779.68
634.72	1699.81
634.91	1695.72
635.10	1699.81
635.29	1775.59
635.48	1708.01
635.67	1673.19
635.86	1714.15
636.05	1769.44
636.24	1640.42
636.43	1728.49
636.62	1777.64
636.81	1558.50
637.00	1718.25
637.19	1767.40
637.38	1818.60
637.57	1644.52
637.76	1697.77
637.95	1632.23
638.14	1673.19
638.33	1736.68
638.52	1699.81
638.71	1683.43
638.89	1662.95
639.08	1837.03
639.27	1726.44
639.46	1730.53
639.65	1757.16
639.84	1720.29
640.03	1685.48
640.22	1656.81
640.41	1761.25
640.60	1748.97
640.79	1746.92
640.98	1701.86
641.17	1765.35
641.36	1683.43
641.55	1738.73
641.74	1628.14
641.92	1669.09
642.11	1648.61
642.30	1708.01
642.49	1714.15
642.68	1734.63
642.87	1757.16
643.06	1681.38
643.25	1710.05
643.44	1697.77
643.63	1677.29
643.82	1834.98
644.00	1689.57
644.19	1650.66
644.38	1628.14
644.57	1687.53
644.76	1738.73
644.95	1773.54
645.14	1761.25
645.33	1722.34
645.52	1722.34
645.71	1650.66
645.89	1724.39
646.08	1705.96
646.27	1710.05
646.46	1798.12
646.65	1646.57
646.84	1804.26
647.03	1710.05
647.22	1787.88
647.40	1710.05
647.59	1718.25
647.78	1644.52
647.97	1673.19
648.16	1718.25
648.35	1847.27
648.54	1755.11
648.73	1722.34
648.91	1718.25
649.10	1705.96
649.29	1687.53
649.48	1724.39
649.67	1732.58
649.86	1701.86
650.05	1683.43
650.23	1767.40
650.42	1658.85
650.61	1746.92
650.80	1728.49
650.99	1839.08
651.18	1755.11
651.36	1779.68
651.55	1689.57
651.74	1757.16
651.93	1654.76
652.12	1677.29
652.31	1742.82
652.49	1697.77
652.68	1660.90
652.87	1787.88
653.06	1773.54
653.25	1837.03
653.44	1701.86
653.62	1716.20
653.81	1679.33
654.00	1677.29
654.19	1757.16
654.38	1834.98
654.56	1775.59
654.75	1609.70
654.94	1697.77
655.13	1689.57
655.32	1609.70
655.51	1720.29
655.69	1660.90
655.88	1769.44
656.07	1689.57
656.26	1705.96
656.45	1656.81
656.63	1656.81
656.82	1716.20
657.01	1738.73
657.20	1714.15
657.38	1832.93
657.57	1669.09
657.76	1724.39
657.95	1730.53
658.14	1697.77
658.32	1669.09
658.51	1695.72
658.70	1669.09
658.89	1708.01
659.08	1658.85
659.26	1861.60
659.45	1669.09
659.64	1705.96
659.83	1691.62
660.01	1828.84
660.20	1746.92
660.39	1816.55
660.58	1595.37
660.76	1820.64
660.95	1695.72
661.14	1710.05
661.33	1632.23
661.51	1658.85
661.70	1665.00
661.89	1814.50
662.08	1699.81
662.26	1605.61
662.45	1685.48
662.64	1728.49
662.83	1763.30
663.01	1697.77
663.20	1656.81
663.39	1857.51
663.58	1697.77
663.76	1722.34
663.95	1742.82
664.14	1644.52
664.32	1687.53
664.51	1648.61
664.70	1626.09
664.89	1687.53
665.07	1716.20
665.26	1738.73
665.45	1679.33
665.64	1744.87
665.82	1714.15
666.01	1759.21
666.20	1669.09
666.38	1787.88
666.57	1791.97
666.76	2226.14
666.95	4542.39
667.13	10512.22
667.32	15517.46
667.51	18034.41
667.69	19404.50
667.88	17501.94
668.07	12422.98
668.25	9555.82
668.44	8060.80
668.63	7253.91
668.81	7006.10
669.00	6375.33
669.19	5703.59
669.38	5167.03
669.56	4638.65
669.75	3973.06
669.94	3514.31
670.12	2938.84
670.31	2484.19
670.50	2267.10
670.68	2025.44
670.87	1929.19
671.06	1775.59
671.24	1751.01
671.43	1837.03
671.62	1701.86
671.80	1685.48
671.99	1748.97
672.18	1742.82
672.36	1656.81
672.55	1710.05
672.74	1724.39
672.92	1796.07
673.11	1744.87
673.29	1669.09
673.48	1787.88
673.67	1765.35
673.85	1808.36
674.04	1738.73
674.23	1794.02
674.41	1816.55
674.60	1648.61
674.79	1658.85
674.97	1728.49
675.16	1718.25
675.34	1779.68
675.53	1738.73
675.72	1818.60
675.90	1773.54
676.09	1634.28
676.28	1691.62
676.46	1587.18
676.65	1644.52
676.83	1650.66
677.02	1656.81
677.21	1751.01
677.39	1687.53
677.58	1628.14
677.77	1724.39
677.95	1658.85
678.14	1675.24
678.32	1726.44
678.51	1708.01
678.70	1822.69
678.88	1736.68
679.07	1724.39
679.25	1808.36
679.44	1687.53
679.63	1710.05
679.81	1746.92
680.00	1755.11
680.18	1665.00
680.37	1826.79
680.55	1644.52
680.74	1669.09
680.93	1544.17
681.11	1677.29
681.30	1689.57
681.48	1687.53
681.67	1708.01
681.85	1742.82
682.04	1621.99
682.23	1751.01
682.41	1679.33
682.60	1689.57
682.78	1673.19
682.97	1712.10
683.15	1728.49
683.34	1763.30
683.53	1818.60
683.71	1607.66
683.90	1816.55
684.08	1730.53
684.27	1662.95
684.45	1732.58
684.64	1753.06
684.82	1761.25
685.01	1748.97
685.19	1730.53
685.38	1798.12
685.57	1675.24
685.75	1677.29
685.94	1771.49
686.12	1677.29
686.31	1683.43
686.49	1730.53
686.68	1714.15
686.86	1796.07
687.05	1712.10
687.23	1812.45
687.42	1738.73
687.60	1615.85
687.79	1806.31
687.97	1763.30
688.16	1832.93
688.34	1785.83
688.53	1636.33
688.71	1763.30
688.90	1787.88
689.08	1648.61
689.27	1654.76
689.45	1820.64
689.64	1751.01
689.82	1701.86
690.01	1673.19
690.19	1677.29
690.38	1679.33
690.56	1759.21
690.75	1624.04
690.93	1685.48
691.12	1689.57
691.30	1712.10
691.49	1703.91
691.67	1701.86
691.86	1824.74
692.04	1691.62
692.23	1662.95
692.41	1628.14
692.60	1791.97
692.78	1689.57
692.97	1712.10
693.15	1714.15
693.34	1804.26
693.52	1773.54
693.71	1730.53
693.89	1705.96
694.08	1587.18
694.26	1783.78
694.44	1712.10
694.63	1800.16
694.81	1677.29
695.00	1660.90
695.18	1812.45
695.37	1847.27
695.55	1740.77
695.74	1648.61
695.92	1708.01
696.10	1787.88
696.29	1636.33
696.47	1775.59
696.66	1613.80
696.84	1630.18
697.03	1667.05
697.21	1837.03
697.40	2263.01
697.58	1882.08
697.76	1677.29
697.95	1708.01
698.13	1660.90
698.32	1673.19
698.50	1736.68
698.68	1714.15
698.87	1689.57
699.05	1839.08
699.24	1689.57
699.42	1691.62
699.61	1734.63
699.79	1681.38
699.97	1744.87
700.16	1632.23
700.34	1665.00
700.53	1755.11
700.71	1714.15
700.89	1722.34
701.08	1636.33
701.26	1683.43
701.45	2105.31
701.63	1638.38
701.81	1677.29
702.00	1689.57
702.18	1701.86
702.37	1634.28
702.55	1726.44
702.73	1691.62
702.92	1703.91
703.10	1687.53
703.28	1714.15
703.47	1644.52
703.65	1736.68
703.84	1730.53
704.02	1697.77
704.20	1740.77
704.39	1632.23
704.57	1691.62
704.75	1800.16
704.94	1816.55
705.12	1773.54
705.30	1728.49
705.49	2297.82
705.67	4427.71
705.86	9607.02
706.04	12572.48
706.22	14860.06
706.41	15804.17
706.59	13983.53
706.77	9774.95
706.96	7485.33
707.14	6576.03
707.32	6027.17
707.51	5593.00
707.69	4880.31
707.87	4216.77
708.06	3520.46
708.24	2949.08
708.42	2383.84
708.61	2209.76
708.79	1892.32
708.97	1791.97
709.16	1787.88
709.34	1824.74
709.52	1724.39
709.71	1761.25
709.89	1736.68
710.07	1683.43
710.26	1695.72
710.44	1667.05
710.62	1808.36
710.80	1701.86
710.99	1734.63
711.17	1775.59
711.35	1673.19
711.54	1648.61
711.72	1703.91
711.90	1701.86
712.09	1753.06
712.27	1597.42
712.45	1710.05
712.63	1636.33
712.82	1716.20
713.00	1775.59
713.18	1695.72
713.37	1726.44
713.55	1697.77
713.73	1738.73
713.91	1665.00
714.10	1732.58
714.28	1726.44
714.46	1708.01
714.65	1777.64
714.83	1730.53
715.01	1677.29
715.19	1740.77
715.38	1705.96
715.56	1765.35
715.74	1679.33
715.92	1677.29
716.11	1812.45
716.29	1583.08
716.47	1679.33
716.65	1724.39
716.84	1615.85
717.02	1804.26
717.20	1675.24
717.38	1652.71
717.57	1732.58
717.75	1652.71
717.93	1720.29
718.11	1738.73
718.30	1677.29
718.48	1646.57
718.66	1744.87
718.84	1773.54
719.03	1693.67
719.21	1607.66
719.39	1779.68
719.57	1736.68
719.75	1769.44
719.94	1705.96
720.12	1753.06
720.30	1658.85
720.48	1763.30
720.67	1636.33
720.85	1630.18
721.03	1669.09
721.21	1593.32
721.39	1732.58
721.58	1789.92
721.76	1753.06
721.94	1718.25
722.12	1771.49
722.30	1722.34
722.49	1685.48
722.67	1757.16
722.85	1808.36
723.03	1634.28
723.21	1712.10
723.40	1718.25
723.58	1761.25
723.76	1736.68
723.94	1789.92
724.12	1742.82
724.30	1693.67
724.49	1683.43
724.67	1667.05
724.85	1746.92
725.03	1566.70
725.21	1730.53
725.40	1744.87
725.58	1634.28
725.76	1734.63
725.94	1687.53
726.12	1732.58
726.30	1673.19
726.49	1718.25
726.67	1626.09
726.85	1667.05
727.03	1763.30
727.21	2183.13
727.39	2865.11
727.57	3778.50
727.76	4159.42
727.94	4345.79
728.12	4310.97
728.30	3796.93
728.48	3053.52
728.66	2709.46
728.84	2486.23
729.03	2193.37
729.21	2050.02
729.39	1955.81
729.57	1880.04
729.75	1781.73
729.93	1791.97
730.11	1730.53
730.30	1693.67
730.48	1607.66
730.66	1761.25
730.84	1732.58
731.02	1718.25
731.20	1632.23
731.38	1730.53
731.56	1665.00
731.74	1673.19
731.93	1722.34
732.11	1771.49
732.29	1685.48
732.47	1703.91
732.65	1751.01
732.83	1779.68
733.01	1722.34
733.19	1626.09
733.37	1736.68
733.56	1693.67
733.74	1624.04
733.92	1748.97
734.10	1658.85
734.28	1736.68
734.46	1619.94
734.64	1837.03
734.82	1675.24
735.00	1761.25
735.18	1583.08
735.36	1701.86
735.54	1712.10
735.73	1722.34
735.91	1718.25
736.09	1722.34
736.27	1673.19
736.45	1746.92
736.63	1583.08
736.81	1665.00
736.99	1744.87
737.17	1732.58
737.35	1705.96
737.53	1619.94
737.71	1599.46
737.89	1755.11
738.07	1609.70
738.25	1665.00
738.43	1601.51
738.61	1716.20
738.80	1646.57
738.98	1650.66
739.16	1673.19
739.34	1681.38
739.52	1773.54
739.70	1673.19
739.88	1734.63
740.06	1746.92
740.24	1665.00
740.42	1771.49
740.60	1624.04
740.78	1677.29
740.96	1673.19
741.14	1669.09
741.32	1673.19
741.50	1540.07
741.68	1839.08
741.86	1775.59
742.04	1550.31
742.22	1689.57
742.40	1744.87
742.58	1791.97
742.76	1679.33
742.94	1660.90
743.12	1621.99
743.30	1687.53
743.48	1753.06
743.66	1685.48
743.84	1687.53
744.02	1765.35
744.20	1681.38
744.38	1607.66
744.56	1673.19
744.74	1894.37
744.92	1724.39
745.10	1779.68
745.28	1732.58
745.46	1789.92
745.64	1728.49
745.82	1673.19
746.00	1712.10
746.18	1742.82
746.36	1642.47
746.54	1624.04
746.72	1609.70
746.90	1681.38
747.08	1828.84
747.26	1648.61
747.44	1781.73
747.62	1687.53
747.80	1705.96
747.98	1820.64
748.15	1763.30
748.33	1716.20
748.51	1701.86
748.69	1675.24
748.87	1638.38
749.05	1724.39
749.23	1658.85
749.41	1736.68
749.59	1675.24
749.77	1820.64
749.95	1632.23
750.13	1654.76
750.31	1732.58
750.49	1679.33
750.67	1832.93
750.85	1822.69
751.03	1794.02
751.20	1800.16
751.38	1691.62
751.56	1642.47
751.74	1726.44
751.92	1714.15
752.10	1550.31
752.28	1695.72
752.46	1658.85
752.64	1626.09
752.82	1789.92
753.00	1767.40
753.18	1763.30
753.35	1705.96
753.53	1775.59
753.71	1767.40
753.89	1777.64
754.07	1681.38
754.25	1751.01
754.43	1732.58
754.61	1665.00
754.79	1734.63
754.97	1703.91
755.14	1802.21
755.32	1705.96
755.50	1701.86
755.68	1712.10
755.86	1669.09
756.04	1710.05
756.22	1603.56
756.40	1753.06
756.57	1794.02
756.75	1665.00
756.93	1742.82
757.11	1767.40
757.29	1679.33
757.47	1613.80
757.65	1558.50
757.82	1617.90
758.00	1660.90
758.18	1634.28
758.36	1660.90
758.54	1763.30
758.72	1634.28
758.90	1757.16
759.07	1771.49
759.25	1578.98
759.43	1697.77
759.61	1591.27
759.79	2131.94
759.97	1748.97
760.15	1689.57
760.32	1705.96
760.50	1728.49
760.68	1826.79
760.86	1636.33
761.04	1771.49
761.22	1783.78
761.39	1689.57
761.57	1691.62
761.75	1687.53
761.93	1714.15
762.11	1652.71
762.28	1685.48
762.46	1632.23
762.64	1738.73
762.82	1609.70
763.00	1650.66
763.18	1771.49
763.35	1628.14
763.53	1693.67
763.71	1714.15
763.89	1714.15
764.07	1697.77
764.24	1662.95
764.42	1712.10
764.60	1619.94
764.78	1705.96
764.96	1763.30
765.13	1722.34
765.31	1636.33
765.49	1736.68
765.67	1681.38
765.84	1662.95
766.02	1669.09
766.20	1593.32
766.38	1673.19
766.56	1822.69
766.73	1708.01
766.91	1730.53
767.09	1728.49
767.27	1693.67
767.44	1673.19
767.62	1658.85
767.80	1636.33
767.98	1710.05
768.15	1691.62
768.33	1724.39
768.51	1730.53
768.69	1722.34
768.87	1740.77
769.04	1683.43
769.22	1863.65
769.40	1814.50
769.58	1841.12
769.75	1689.57
769.93	1796.07
770.11	1683.43
770.28	1654.76
770.46	1718.25
770.64	1712.10
770.82	1679.33
770.99	1738.73
771.17	1705.96
771.35	1648.61
771.53	1695.72
771.70	1738.73
771.88	1724.39
772.06	1732.58
772.23	1613.80
772.41	1742.82
772.59	1703.91
772.77	1607.66
772.94	1742.82
773.12	1753.06
773.30	1703.91
773.47	1755.11
773.65	1648.61
773.83	1816.55
774.01	1701.86
774.18	1611.75
774.36	1646.57
774.54	1599.46
774.71	1665.00
774.89	1609.70
775.07	1617.90
775.24	1599.46
775.42	1642.47
775.60	1738.73
775.78	1679.33
775.95	1714.15
776.13	1535.98
776.31	1546.22
776.48	1701.86
776.66	1730.53
776.84	1683.43
777.01	1671.14
777.19	1658.85
777.37	1726.44
777.54	1701.86
777.72	1742.82
777.90	1724.39
778.07	1740.77
778.25	1779.68
778.43	1773.54
778.60	1667.05
778.78	1703.91
778.96	1775.59
779.13	1669.09
779.31	1722.34
779.49	1689.57
779.66	1705.96
779.84	1736.68
780.01	1675.24
780.19	1609.70
780.37	1697.77
780.54	1718.25
780.72	1591.27
780.90	1683.43
781.07	1673.19
781.25	1710.05
781.43	1759.21
781.60	1685.48
781.78	1757.16
781.95	1628.14
782.13	1748.97
782.31	1687.53
782.48	1601.51
782.66	1705.96
782.83	1859.56
783.01	1677.29
783.19	1751.01
783.36	1683.43
783.54	1552.36
783.72	1697.77
783.89	1675.24
784.07	1640.42
784.24	1697.77
784.42	1753.06
784.60	1665.00
784.77	1677.29
784.95	1642.47
785.12	1607.66
785.30	1724.39
785.47	1650.66
785.65	1662.95
785.83	1607.66
786.00	1619.94
786.18	1703.91
786.35	1640.42
786.53	1705.96
786.71	1748.97
786.88	1712.10
787.06	1730.53
787.23	1787.88
787.41	1660.90
787.58	1689.57
787.76	1677.29
787.94	1697.77
788.11	1703.91
788.29	1675.24
788.46	1611.75
788.64	1687.53
788.81	1677.29
788.99	1648.61
789.16	1605.61
789.34	1726.44
789.52	1638.38
789.69	1701.86
789.87	1572.84
790.04	1691.62
790.22	1650.66
790.39	1767.40
790.57	1697.77
790.74	1636.33
790.92	1728.49
791.09	1605.61
791.27	1771.49
791.44	1794.02
791.62	1697.77
791.79	1771.49
791.97	1640.42
792.15	1847.27
792.32	1816.55
792.50	1777.64
792.67	1824.74
792.85	1820.64
793.02	1724.39
793.20	1722.34
793.37	1626.09
793.55	1738.73
793.72	1662.95
793.90	1650.66
794.07	1615.85
794.25	1673.19
794.42	1681.38
794.60	1679.33
794.77	1740.77
794.95	1640.42
795.12	1708.01
795.30	1669.09
795.47	1511.40
795.65	1845.22
795.82	1714.15
796.00	1689.57
796.17	1726.44
796.34	1681.38
796.52	1722.34
796.69	1730.53
796.87	1675.24
797.04	1787.88
797.22	1777.64
797.39	1667.05
797.57	1724.39
797.74	1705.96
797.92	1744.87
798.09	1589.22
798.27	1734.63
798.44	1710.05
798.62	1701.86
798.79	1742.82
798.96	1730.53
799.14	1658.85
799.31	1892.32
799.49	1648.61
799.66	1683.43
799.84	1701.86
800.01	1624.04
800.19	1736.68
800.36	1605.61
800.53	1634.28
800.71	1771.49
800.88	1777.64
801.06	1648.61
801.23	1771.49
801.41	1667.05
801.58	1691.62
801.75	1656.81
801.93	1681.38
802.10	1841.12
802.28	1736.68
802.45	1710.05
802.63	1740.77
802.80	1746.92
802.97	1660.90
803.15	1685.48
803.32	1689.57
803.50	1644.52
803.67	1624.04
803.84	1652.71
804.02	1681.38
804.19	1679.33
804.37	1558.50
804.54	1585.13
804.71	1695.72
804.89	1632.23
805.06	1626.09
805.24	1646.57
805.41	1576.94
805.58	1667.05
805.76	1834.98
805.93	1697.77
806.10	1808.36
806.28	1683.43
806.45	1689.57
806.63	1755.11
806.80	1746.92
806.97	1665.00
807.15	1697.77
807.32	1742.82
807.49	1695.72
807.67	1630.18
807.84	1703.91
808.01	1585.13
808.19	1849.32
808.36	1804.26
808.54	1617.90
808.71	1591.27
808.88	1695.72
809.06	1652.71
809.23	1806.31
809.40	1619.94
809.58	1730.53
809.75	1777.64
809.92	1679.33
810.10	1834.98
810.27	1744.87
810.44	1679.33
810.62	1726.44
810.79	1693.67
810.96	1634.28
811.14	1701.86
811.31	1718.25
811.48	1759.21
811.66	1640.42
811.83	1808.36
812.00	1712.10
812.18	1693.67
812.35	1796.07
812.52	1665.00
812.69	1667.05
812.87	1683.43
813.04	1597.42
813.21	1697.77
813.39	1699.81
813.56	1609.70
813.73	1732.58
813.91	1593.32
814.08	1681.38
814.25	1644.52
814.42	1609.70
814.60	1734.63
814.77	1748.97
814.94	1720.29
815.12	1710.05
815.29	1744.87
815.46	1652.71
815.63	1736.68
815.81	1695.72
815.98	1679.33
816.15	1695.72
816.33	1767.40
816.50	1716.20
816.67	1685.48
816.84	1671.14
817.02	1646.57
817.19	1685.48
817.36	1714.15
817.53	1718.25
817.71	1576.94
817.88	1669.09
818.05	1738.73
818.22	1677.29
818.40	1822.69
818.57	1744.87
818.74	1705.96
818.91	1730.53
819.09	1716.20
819.26	1759.21
819.43	1597.42
819.60	1632.23
819.78	1685.48
819.95	1744.87
820.12	1558.50
820.29	1816.55
820.47	1757.16
820.64	1695.72
820.81	1615.85
820.98	1685.48
821.15	1658.85
821.33	1671.14
821.50	1615.85
821.67	1718.25
821.84	1652.71
822.02	1740.77
822.19	1830.88
822.36	1675.24
822.53	1603.56
822.70	1626.09
822.88	1640.42
823.05	1742.82
823.22	1730.53
823.39	1783.78
823.56	1730.53
823.74	1796.07
823.91	1669.09
824.08	1658.85
824.25	1703.91
824.42	1828.84
824.60	1615.85
824.77	1720.29
824.94	1648.61
825.11	1720.29
825.28	1611.75
825.45	1687.53
825.63	1720.29
825.80	1718.25
825.97	1738.73
826.14	1703.91
826.31	1591.27
826.48	1689.57
826.66	1607.66
826.83	1683.43
827.00	1794.02
827.17	1710.05
827.34	1693.67
827.51	1669.09
827.69	1652.71
827.86	1617.90
828.03	1656.81
828.20	1697.77
828.37	1652.71
828.54	1800.16
828.71	1638.38
828.89	1839.08
829.06	1667.05
829.23	1796.07
829.40	1630.18
829.57	1673.19
829.74	1667.05
829.91	1656.81
830.09	1710.05
830.26	1673.19
830.43	1755.11
830.60	1730.53
830.77	1705.96
830.94	1789.92
831.11	1748.97
831.28	1665.00
831.46	1736.68
831.63	1699.81
831.80	1751.01
831.97	1679.33
832.14	1640.42
832.31	1705.96
832.48	1689.57
832.65	1708.01
832.82	1746.92
832.99	1761.25
833.17	1656.81
833.34	1822.69
833.51	1796.07
833.68	1611.75
833.85	1716.20
834.02	1640.42
834.19	1636.33
834.36	1628.14
834.53	1740.77
834.70	1751.01
834.87	1712.10
835.04	1677.29
835.22	1650.66
835.39	1660.90
835.56	1648.61
835.73	1730.53
835.90	1726.44
836.07	1699.81
836.24	1705.96
836.41	1611.75
836.58	1654.76
836.75	1705.96
836.92	1730.53
837.09	1691.62
837.26	1724.39
837.43	1697.77
837.60	1794.02
837.77	1644.52
837.94	1728.49
838.12	1800.16
838.29	1751.01
838.46	1671.14
838.63	1595.37
838.80	1800.16
838.97	1751.01
839.14	1658.85
839.31	1708.01
839.48	1791.97
839.65	1703.91
839.82	1757.16
839.99	1646.57
840.16	1675.24
840.33	1667.05
840.50	1669.09
840.67	1624.04
840.84	1548.26
841.01	1728.49
841.18	1710.05
841.35	1705.96
841.52	1740.77
841.69	1787.88
841.86	1701.86
842.03	1658.85
842.20	1714.15
842.37	1716.20
842.54	1654.76
842.71	1619.94
842.88	1677.29
843.05	1785.83
843.22	1757.16
843.39	1765.35
843.56	1736.68
843.73	1722.34
843.90	1613.80
844.07	1746.92
844.24	1724.39
844.41	1714.15
844.58	1736.68
844.75	1701.86
844.92	1761.25
845.09	1775.59
845.26	1636.33
845.43	1687.53
845.60	1701.86
845.77	1794.02
845.94	1691.62
846.10	1759.21
846.27	1638.38
846.44	1603.56
846.61	1691.62
846.78	1738.73
846.95	1802.21
847.12	1642.47
847.29	1691.62
847.46	1697.77
847.63	1779.68
847.80	1675.24
847.97	1732.58
848.14	1787.88
848.31	1652.71
848.48	1632.23
848.65	1738.73
848.82	1693.67
848.98	1755.11
849.15	1660.90
849.32	1687.53
849.49	1654.76
849.66	1718.25
849.83	1654.76
850.00	1626.09
850.17	1705.96
850.34	1638.38
850.51	1611.75
850.68	1693.67
850.85	1867.75
851.01	1757.16
851.18	1697.77
851.35	1716.20
851.52	1665.00
851.69	1718.25
851.86	1624.04
852.03	1683.43
852.20	1720.29
852.37	1695.72
852.53	1636.33
852.70	1685.48
852.87	1695.72
853.04	1771.49
853.21	1685.48
853.38	1816.55
853.55	1783.78
853.72	1759.21
853.89	1681.38
854.05	1615.85
854.22	1656.81
854.39	1634.28
854.56	1726.44
854.73	1691.62
854.90	1611.75
855.07	1665.00
855.23	1617.90
855.40	1669.09
855.57	1621.99
855.74	1624.04
855.91	1841.12
856.08	1636.33
856.25	1566.70
856.41	1689.57
856.58	1705.96
856.75	1775.59
856.92	1673.19
857.09	1705.96
857.26	1652.71
857.42	1761.25
857.59	1742.82
857.76	1634.28
857.93	1716.20
858.10	1744.87
858.27	1621.99
858.43	1771.49
858.60	1701.86
858.77	1574.89
858.94	1689.57
859.11	1703.91
859.27	1681.38
859.44	1687.53
859.61	1800.16
859.78	1759.21
859.95	1634.28
860.12	1615.85
860.28	1773.54
860.45	1818.60
860.62	1685.48
860.79	1705.96
860.95	1638.38
861.12	1658.85
861.29	1716.20
861.46	1695.72
861.63	1669.09
861.79	1675.24
861.96	1638.38
862.13	1699.81
862.30	1701.86
862.47	1679.33
862.63	1642.47
862.80	1830.88
862.97	1837.03
863.14	1716.20
863.30	1687.53
863.47	1624.04
863.64	1779.68
863.81	1681.38
863.97	1771.49
864.14	1718.25
864.31	1685.48
864.48	1712.10
864.65	1681.38
864.81	1730.53
864.98	1738.73
865.15	1714.15
865.32	1691.62
865.48	1710.05
865.65	1812.45
865.82	1654.76
865.98	1677.29
866.15	1781.73
866.32	1669.09
866.49	1662.95
866.65	1814.50
866.82	1628.14
866.99	1665.00
867.16	1662.95
867.32	1591.27
867.49	1689.57
867.66	1605.61
867.83	1621.99
867.99	1601.51
868.16	1718.25
868.33	1640.42
868.49	1730.53
868.66	1689.57
868.83	1755.11
868.99	1742.82
869.16	1658.85
869.33	1689.57
869.50	1732.58
869.66	1722.34
869.83	1710.05
870.00	1669.09
870.16	1710.05
870.33	1685.48
870.50	1834.98
870.66	1660.90
870.83	1771.49
871.00	1685.48
871.17	1722.34
871.33	1767.40
871.50	1669.09
871.67	1716.20
871.83	1615.85
872.00	1824.74
872.17	1683.43
872.33	1736.68
872.50	1652.71
872.67	1626.09
872.83	1673.19
873.00	1667.05
873.17	1785.83
873.33	1755.11
873.50	1691.62
873.67	1705.96
873.83	1644.52
874.00	1689.57
874.16	1734.63
874.33	1681.38
874.50	1705.96
874.66	1693.67
874.83	1675.24
875.00	1847.27
875.16	1824.74
875.33	1787.88
875.50	1611.75
875.66	1599.46
875.83	1675.24
875.99	1695.72
876.16	1685.48
876.33	1689.57
876.49	1736.68
876.66	1789.92
876.83	1667.05
876.99	1595.37
877.16	1718.25
877.32	1667.05
877.49	1660.90
877.66	1648.61
877.82	1779.68
877.99	1675.24
878.15	1744.87
878.32	1722.34
878.49	1751.01
878.65	1683.43
878.82	1763.30
878.98	1753.06
879.15	1710.05
879.32	1722.34
879.48	1748.97
879.65	1677.29
879.81	1660.90
879.98	1699.81
880.15	1648.61
880.31	1798.12
880.48	1667.05
880.64	1710.05
880.81	1673.19
880.97	1779.68
881.14	1726.44
881.31	1603.56
881.47	1814.50
881.64	1640.42
881.80	1611.75
881.97	1685.48
882.13	1701.86
882.30	1665.00
882.47	1642.47
882.63	1638.38
882.80	1671.14
882.96	1734.63
883.13	1738.73
883.29	1658.85
883.46	1677.29
883.62	1828.84
883.79	1611.75
883.95	1683.43
884.12	1697.77
884.29	1730.53
884.45	1634.28
884.62	1767.40
884.78	1607.66
884.95	1814.50
885.11	1697.77
885.28	1685.48
885.44	1665.00
885.61	1783.78
885.77	1724.39
885.94	1683.43
886.10	1691.62
886.27	1648.61
886.43	1710.05
886.60	1808.36
886.76	1624.04
886.93	1632.23
887.09	1767.40
887.26	1554.41
887.42	1751.01
887.59	1710.05
887.75	1748.97
887.92	1728.49
888.08	1710.05
888.25	1843.17
888.41	1681.38
888.58	1761.25
888.74	1671.14
888.91	1681.38
>>>>>End Processed Spectral Data<<<<<
