SpectraSuite Data File
++++++++++++++++++++++++++++++++++++
Date: Mon Jun 06 13:51:37 CEST 2016
User: root
Dark Spectrum Present: No
Reference Spectrum Present: No
Number of Sampled Component Spectra: 1
Spectrometers: USB4C02835
Integration Time (usec): 100000 (USB4C02835)
Spectra Averaged: 1 (USB4C02835)
Boxcar Smoothing: 0 (USB4C02835)
Correct for Electrical Dark: No (USB4C02835)
Strobe/Lamp Enabled: No (USB4C02835)
Correct for Detector Non-linearity: No (USB4C02835)
Correct for Stray Light: No (USB4C02835)
Number of Pixels in Processed Spectrum: 3648
>>>>>Begin Processed Spectral Data<<<<<
177.47	1507.30
177.69	1507.30
177.91	1507.30
178.13	1398.76
178.36	1447.91
178.58	1667.05
178.80	1687.53
179.02	1656.81
179.24	1636.33
179.46	1677.29
179.68	1746.92
179.90	1697.77
180.13	1734.63
180.35	1632.23
180.57	1708.01
180.79	1822.69
181.01	1683.43
181.23	1800.16
181.45	1708.01
181.67	1681.38
181.90	1720.29
182.12	1603.56
182.34	1628.14
182.56	1810.40
182.78	1783.78
183.00	1673.19
183.22	1751.01
183.44	1720.29
183.66	1863.65
183.89	1800.16
184.11	1681.38
184.33	1787.88
184.55	1705.96
184.77	1816.55
184.99	1644.52
185.21	1693.67
185.43	1839.08
185.65	1662.95
185.87	1728.49
186.10	1783.78
186.32	1839.08
186.54	1736.68
186.76	1767.40
186.98	1699.81
187.20	1642.47
187.42	1687.53
187.64	1685.48
187.86	1693.67
188.08	1724.39
188.30	1779.68
188.52	1773.54
188.75	1753.06
188.97	1718.25
189.19	1691.62
189.41	1660.90
189.63	1726.44
189.85	1662.95
190.07	1619.94
190.29	1720.29
190.51	1720.29
190.73	1630.18
190.95	1740.77
191.17	1787.88
191.39	1595.37
191.61	1673.19
191.84	1724.39
192.06	1656.81
192.28	1578.98
192.50	1828.84
192.72	1703.91
192.94	1781.73
193.16	1677.29
193.38	1785.83
193.60	1613.80
193.82	1630.18
194.04	1787.88
194.26	1691.62
194.48	1697.77
194.70	1658.85
194.92	1673.19
195.14	1716.20
195.36	1607.66
195.58	1703.91
195.80	1689.57
196.02	1632.23
196.24	1660.90
196.46	1734.63
196.69	1712.10
196.91	1826.79
197.13	1644.52
197.35	1601.51
197.57	1875.94
197.79	1728.49
198.01	1746.92
198.23	1763.30
198.45	1755.11
198.67	1656.81
198.89	1665.00
199.11	1726.44
199.33	1615.85
199.55	1556.46
199.77	1714.15
199.99	1757.16
200.21	1665.00
200.43	1656.81
200.65	1648.61
200.87	1566.70
201.09	1681.38
201.31	1705.96
201.53	1724.39
201.75	1789.92
201.97	1687.53
202.19	1656.81
202.41	1695.72
202.63	1804.26
202.85	1740.77
203.07	1755.11
203.29	1660.90
203.51	1740.77
203.73	1599.46
203.95	1794.02
204.17	1757.16
204.39	1710.05
204.61	1695.72
204.83	1814.50
205.05	1720.29
205.27	1773.54
205.49	1777.64
205.71	1658.85
205.93	1572.84
206.15	1652.71
206.37	1697.77
206.59	1689.57
206.81	1654.76
207.03	1697.77
207.25	1638.38
207.47	1755.11
207.69	1607.66
207.91	1757.16
208.13	1734.63
208.34	1730.53
208.56	1689.57
208.78	1732.58
209.00	1615.85
209.22	1662.95
209.44	1726.44
209.66	1667.05
209.88	1669.09
210.10	1677.29
210.32	1736.68
210.54	1726.44
210.76	1687.53
210.98	1757.16
211.20	1550.31
211.42	1673.19
211.64	1738.73
211.86	1699.81
212.08	1714.15
212.30	1712.10
212.52	1656.81
212.74	1699.81
212.96	1687.53
213.17	1691.62
213.39	1771.49
213.61	1771.49
213.83	1755.11
214.05	1624.04
214.27	1806.31
214.49	1658.85
214.71	1665.00
214.93	1789.92
215.15	1660.90
215.37	1701.86
215.59	1621.99
215.81	1695.72
216.03	1763.30
216.24	1712.10
216.46	1613.80
216.68	1699.81
216.90	1777.64
217.12	1767.40
217.34	1669.09
217.56	1769.44
217.78	1740.77
218.00	1693.67
218.22	1648.61
218.44	1734.63
218.66	1693.67
218.87	1765.35
219.09	1636.33
219.31	1714.15
219.53	1626.09
219.75	1771.49
219.97	1665.00
220.19	1701.86
220.41	1714.15
220.63	1800.16
220.85	1759.21
221.06	1626.09
221.28	1832.93
221.50	1730.53
221.72	1693.67
221.94	1660.90
222.16	1691.62
222.38	1759.21
222.60	1693.67
222.82	1611.75
223.03	1765.35
223.25	1658.85
223.47	1804.26
223.69	1816.55
223.91	1718.25
224.13	1703.91
224.35	1759.21
224.57	1683.43
224.78	1744.87
225.00	1624.04
225.22	1632.23
225.44	1693.67
225.66	1742.82
225.88	1667.05
226.10	1765.35
226.32	1656.81
226.53	1755.11
226.75	1716.20
226.97	1628.14
227.19	1726.44
227.41	1685.48
227.63	1667.05
227.85	1626.09
228.06	1703.91
228.28	1720.29
228.50	1785.83
228.72	1583.08
228.94	1656.81
229.16	1636.33
229.37	1650.66
229.59	1603.56
229.81	1712.10
230.03	1624.04
230.25	1644.52
230.47	1613.80
230.69	1675.24
230.90	1755.11
231.12	1658.85
231.34	1693.67
231.56	1726.44
231.78	1675.24
232.00	1685.48
232.21	1720.29
232.43	1636.33
232.65	1669.09
232.87	1722.34
233.09	1652.71
233.30	1662.95
233.52	1720.29
233.74	1665.00
233.96	1742.82
234.18	1771.49
234.40	1699.81
234.61	1837.03
234.83	1597.42
235.05	1634.28
235.27	1804.26
235.49	1738.73
235.70	1691.62
235.92	1771.49
236.14	1718.25
236.36	1791.97
236.58	1640.42
236.79	1755.11
237.01	1654.76
237.23	1665.00
237.45	1816.55
237.67	1624.04
237.88	1705.96
238.10	1814.50
238.32	1716.20
238.54	1636.33
238.76	1753.06
238.97	1632.23
239.19	1701.86
239.41	1802.21
239.63	1708.01
239.85	1636.33
240.06	1712.10
240.28	1677.29
240.50	1734.63
240.72	1697.77
240.93	1667.05
241.15	1732.58
241.37	1630.18
241.59	1775.59
241.81	1671.14
242.02	1642.47
242.24	1673.19
242.46	1740.77
242.68	1697.77
242.89	1759.21
243.11	1742.82
243.33	1648.61
243.55	1734.63
243.76	1753.06
243.98	1685.48
244.20	1728.49
244.42	1708.01
244.64	1736.68
244.85	1654.76
245.07	1675.24
245.29	1726.44
245.51	1658.85
245.72	1683.43
245.94	1683.43
246.16	1662.95
246.38	1808.36
246.59	1722.34
246.81	1712.10
247.03	1636.33
247.24	1669.09
247.46	1652.71
247.68	1650.66
247.90	1691.62
248.11	1662.95
248.33	1742.82
248.55	1689.57
248.77	1708.01
248.98	1794.02
249.20	1818.60
249.42	1718.25
249.64	1742.82
249.85	1718.25
250.07	1615.85
250.29	1761.25
250.50	1693.67
250.72	1640.42
250.94	1730.53
251.16	1787.88
251.37	1665.00
251.59	1765.35
251.81	1646.57
252.02	1787.88
252.24	1656.81
252.46	1722.34
252.68	1634.28
252.89	1640.42
253.11	1632.23
253.33	1765.35
253.54	1716.20
253.76	1687.53
253.98	1720.29
254.20	1689.57
254.41	1624.04
254.63	1683.43
254.85	1636.33
255.06	1744.87
255.28	1679.33
255.50	1642.47
255.71	1660.90
255.93	1703.91
256.15	1693.67
256.36	1828.84
256.58	1681.38
256.80	1673.19
257.02	1734.63
257.23	1650.66
257.45	1730.53
257.67	1763.30
257.88	1732.58
258.10	1667.05
258.32	1730.53
258.53	1753.06
258.75	1742.82
258.97	1697.77
259.18	1740.77
259.40	1683.43
259.62	1865.70
259.83	1720.29
260.05	1794.02
260.27	1976.29
260.48	1789.92
260.70	1685.48
260.92	1689.57
261.13	1667.05
261.35	1705.96
261.57	1716.20
261.78	1626.09
262.00	1681.38
262.22	1710.05
262.43	1716.20
262.65	1718.25
262.86	1701.86
263.08	1927.14
263.30	1787.88
263.51	1593.32
263.73	1601.51
263.95	1775.59
264.16	1701.86
264.38	1656.81
264.60	1732.58
264.81	1642.47
265.03	1740.77
265.25	1720.29
265.46	1660.90
265.68	1755.11
265.89	1816.55
266.11	1644.52
266.33	1722.34
266.54	1748.97
266.76	1681.38
266.98	1705.96
267.19	1839.08
267.41	1685.48
267.62	1679.33
267.84	1644.52
268.06	1722.34
268.27	1724.39
268.49	1730.53
268.70	1738.73
268.92	1691.62
269.14	1671.14
269.35	1658.85
269.57	1646.57
269.79	1720.29
270.00	1669.09
270.22	1832.93
270.43	1687.53
270.65	1615.85
270.87	1738.73
271.08	1816.55
271.30	1757.16
271.51	1656.81
271.73	1755.11
271.95	1763.30
272.16	1660.90
272.38	1652.71
272.59	1675.24
272.81	1759.21
273.02	1636.33
273.24	1767.40
273.46	1746.92
273.67	1667.05
273.89	1689.57
274.10	1699.81
274.32	1697.77
274.54	1710.05
274.75	1673.19
274.97	1644.52
275.18	1695.72
275.40	1738.73
275.61	1697.77
275.83	1742.82
276.05	1699.81
276.26	1710.05
276.48	1740.77
276.69	1656.81
276.91	1671.14
277.12	1771.49
277.34	1746.92
277.55	1722.34
277.77	1677.29
277.99	1685.48
278.20	1669.09
278.42	1675.24
278.63	1656.81
278.85	1626.09
279.06	1583.08
279.28	1726.44
279.49	1716.20
279.71	1798.12
279.93	1726.44
280.14	1685.48
280.36	1648.61
280.57	1746.92
280.79	1695.72
281.00	1615.85
281.22	1642.47
281.43	1761.25
281.65	1658.85
281.86	1679.33
282.08	1726.44
282.29	1791.97
282.51	1693.67
282.73	1691.62
282.94	1517.54
283.16	1716.20
283.37	1767.40
283.59	1665.00
283.80	1742.82
284.02	1724.39
284.23	1718.25
284.45	1660.90
284.66	1607.66
284.88	1603.56
285.09	1667.05
285.31	1718.25
285.52	1642.47
285.74	1615.85
285.95	1722.34
286.17	1773.54
286.38	1783.78
286.60	1691.62
286.81	1691.62
287.03	1595.37
287.24	1638.38
287.46	1703.91
287.67	1667.05
287.89	1791.97
288.10	1628.14
288.32	1761.25
288.53	1767.40
288.75	1681.38
288.96	1734.63
289.18	1740.77
289.39	1775.59
289.61	1744.87
289.82	1767.40
290.04	1787.88
290.25	1669.09
290.47	1722.34
290.68	1648.61
290.90	1822.69
291.11	1648.61
291.33	1742.82
291.54	1634.28
291.76	1701.86
291.97	1769.44
292.18	1773.54
292.40	1646.57
292.61	1697.77
292.83	1783.78
293.04	1714.15
293.26	1734.63
293.47	1628.14
293.69	1658.85
293.90	1679.33
294.12	1753.06
294.33	1705.96
294.55	1681.38
294.76	1779.68
294.97	1753.06
295.19	1832.93
295.40	1626.09
295.62	1619.94
295.83	1791.97
296.05	1632.23
296.26	1753.06
296.48	1626.09
296.69	1650.66
296.90	1726.44
297.12	1632.23
297.33	1710.05
297.55	1703.91
297.76	1714.15
297.98	1734.63
298.19	1751.01
298.41	1738.73
298.62	1652.71
298.83	1888.23
299.05	1699.81
299.26	1630.18
299.48	1673.19
299.69	1708.01
299.90	1697.77
300.12	1601.51
300.33	1730.53
300.55	1656.81
300.76	1775.59
300.98	1619.94
301.19	1724.39
301.40	1669.09
301.62	1667.05
301.83	1765.35
302.05	1728.49
302.26	1669.09
302.47	1693.67
302.69	1669.09
302.90	1726.44
303.12	1605.61
303.33	1755.11
303.54	1810.40
303.76	1681.38
303.97	1726.44
304.19	1787.88
304.40	1603.56
304.61	1714.15
304.83	1822.69
305.04	1746.92
305.26	1720.29
305.47	1634.28
305.68	1734.63
305.90	1632.23
306.11	1738.73
306.33	1705.96
306.54	1662.95
306.75	1640.42
306.97	1621.99
307.18	1689.57
307.39	1675.24
307.61	1806.31
307.82	1669.09
308.04	1734.63
308.25	1654.76
308.46	1755.11
308.68	1652.71
308.89	1724.39
309.10	1740.77
309.32	1669.09
309.53	1693.67
309.74	1681.38
309.96	1624.04
310.17	1755.11
310.39	1648.61
310.60	1691.62
310.81	1718.25
311.03	1660.90
311.24	1665.00
311.45	1722.34
311.67	1787.88
311.88	1724.39
312.09	1687.53
312.31	1615.85
312.52	1677.29
312.73	1589.22
312.95	1679.33
313.16	1677.29
313.37	1757.16
313.59	1695.72
313.80	1669.09
314.01	1773.54
314.23	1599.46
314.44	1677.29
314.65	1660.90
314.87	1599.46
315.08	1640.42
315.29	1691.62
315.51	1665.00
315.72	1619.94
315.93	1755.11
316.15	1736.68
316.36	1677.29
316.57	1712.10
316.79	1746.92
317.00	1665.00
317.21	1683.43
317.43	1675.24
317.64	1753.06
317.85	1697.77
318.07	1638.38
318.28	1761.25
318.49	1824.74
318.70	1816.55
318.92	1785.83
319.13	1771.49
319.34	1855.46
319.56	1781.73
319.77	1812.45
319.98	1718.25
320.20	1779.68
320.41	1689.57
320.62	1734.63
320.83	1722.34
321.05	1875.94
321.26	1769.44
321.47	1710.05
321.69	1802.21
321.90	1679.33
322.11	1681.38
322.32	1662.95
322.54	1804.26
322.75	1679.33
322.96	1810.40
323.18	1699.81
323.39	1658.85
323.60	1656.81
323.81	1742.82
324.03	1726.44
324.24	1685.48
324.45	1648.61
324.66	1656.81
324.88	1630.18
325.09	1857.51
325.30	1687.53
325.52	1718.25
325.73	1751.01
325.94	1650.66
326.15	1626.09
326.37	1722.34
326.58	1789.92
326.79	1787.88
327.00	1611.75
327.22	1728.49
327.43	1708.01
327.64	1611.75
327.85	1644.52
328.07	1730.53
328.28	1777.64
328.49	1611.75
328.70	1695.72
328.92	1665.00
329.13	1730.53
329.34	1701.86
329.55	1816.55
329.76	1728.49
329.98	1624.04
330.19	1783.78
330.40	1810.40
330.61	1685.48
330.83	1705.96
331.04	1634.28
331.25	1718.25
331.46	1685.48
331.68	1646.57
331.89	1697.77
332.10	1683.43
332.31	1615.85
332.52	1669.09
332.74	1703.91
332.95	1607.66
333.16	1677.29
333.37	1705.96
333.58	1619.94
333.80	1673.19
334.01	1662.95
334.22	1693.67
334.43	1574.89
334.64	1646.57
334.86	1611.75
335.07	1718.25
335.28	1736.68
335.49	1621.99
335.70	1751.01
335.92	1738.73
336.13	1734.63
336.34	1753.06
336.55	1710.05
336.76	1628.14
336.98	1601.51
337.19	1720.29
337.40	1767.40
337.61	1787.88
337.82	1634.28
338.04	1708.01
338.25	1607.66
338.46	1703.91
338.67	1603.56
338.88	1738.73
339.09	1609.70
339.31	1685.48
339.52	1609.70
339.73	1640.42
339.94	1697.77
340.15	1751.01
340.36	1636.33
340.58	1718.25
340.79	1626.09
341.00	1730.53
341.21	1599.46
341.42	1851.36
341.63	1738.73
341.85	1791.97
342.06	1730.53
342.27	1660.90
342.48	1769.44
342.69	1632.23
342.90	1800.16
343.12	1728.49
343.33	1650.66
343.54	1755.11
343.75	1746.92
343.96	1740.77
344.17	1581.03
344.38	1695.72
344.60	1660.90
344.81	1679.33
345.02	1689.57
345.23	1785.83
345.44	1771.49
345.65	1761.25
345.86	1738.73
346.07	1720.29
346.29	1665.00
346.50	1730.53
346.71	1687.53
346.92	1755.11
347.13	1800.16
347.34	1636.33
347.55	1689.57
347.76	1660.90
347.98	1619.94
348.19	1685.48
348.40	1744.87
348.61	1581.03
348.82	1742.82
349.03	1755.11
349.24	1595.37
349.45	1832.93
349.66	1642.47
349.88	1624.04
350.09	1671.14
350.30	1816.55
350.51	1748.97
350.72	1693.67
350.93	1728.49
351.14	1748.97
351.35	1724.39
351.56	1695.72
351.77	1796.07
351.99	1744.87
352.20	1816.55
352.41	1789.92
352.62	1585.13
352.83	1703.91
353.04	1720.29
353.25	1714.15
353.46	1791.97
353.67	1722.34
353.88	1572.84
354.09	1722.34
354.30	1646.57
354.52	1730.53
354.73	1742.82
354.94	1734.63
355.15	1722.34
355.36	1781.73
355.57	1652.71
355.78	1724.39
355.99	1705.96
356.20	1701.86
356.41	1761.25
356.62	1771.49
356.83	1722.34
357.04	1746.92
357.25	1609.70
357.46	1703.91
357.68	1646.57
357.89	1691.62
358.10	1699.81
358.31	1751.01
358.52	1671.14
358.73	1673.19
358.94	1679.33
359.15	1654.76
359.36	1732.58
359.57	1714.15
359.78	1708.01
359.99	1699.81
360.20	1665.00
360.41	1718.25
360.62	1726.44
360.83	1705.96
361.04	1712.10
361.25	1646.57
361.46	1806.31
361.67	1677.29
361.88	1757.16
362.09	1808.36
362.30	1751.01
362.51	1705.96
362.72	1693.67
362.93	1818.60
363.14	1843.17
363.35	1742.82
363.56	1646.57
363.78	1794.02
363.99	1783.78
364.20	1658.85
364.41	1755.11
364.62	1824.74
364.83	1693.67
365.04	1724.39
365.25	1679.33
365.46	1865.70
365.67	1679.33
365.88	1644.52
366.09	1624.04
366.30	1720.29
366.51	1775.59
366.72	1675.24
366.93	1685.48
367.14	1705.96
367.35	1779.68
367.56	1746.92
367.77	1798.12
367.98	1681.38
368.18	1769.44
368.39	1724.39
368.60	1708.01
368.81	1716.20
369.02	1701.86
369.23	1740.77
369.44	1671.14
369.65	1685.48
369.86	1722.34
370.07	1714.15
370.28	1560.55
370.49	1744.87
370.70	1697.77
370.91	1675.24
371.12	1603.56
371.33	1714.15
371.54	1695.72
371.75	1820.64
371.96	1603.56
372.17	1716.20
372.38	1757.16
372.59	1705.96
372.80	1726.44
373.01	1740.77
373.22	1665.00
373.43	1714.15
373.64	1640.42
373.85	1802.21
374.06	1708.01
374.26	1785.83
374.47	1654.76
374.68	1730.53
374.89	1757.16
375.10	1708.01
375.31	1822.69
375.52	1701.86
375.73	1683.43
375.94	1658.85
376.15	1746.92
376.36	1644.52
376.57	1714.15
376.78	1765.35
376.99	1705.96
377.20	1751.01
377.40	1742.82
377.61	1814.50
377.82	1652.71
378.03	1812.45
378.24	1677.29
378.45	1671.14
378.66	1787.88
378.87	1550.31
379.08	1603.56
379.29	1712.10
379.50	1841.12
379.71	1708.01
379.91	1732.58
380.12	1648.61
380.33	1705.96
380.54	1705.96
380.75	1732.58
380.96	1626.09
381.17	1802.21
381.38	1742.82
381.59	1763.30
381.80	1740.77
382.00	1892.32
382.21	1734.63
382.42	1777.64
382.63	1861.60
382.84	1765.35
383.05	1859.56
383.26	1802.21
383.47	1669.09
383.68	1777.64
383.88	1699.81
384.09	1652.71
384.30	1816.55
384.51	1744.87
384.72	1638.38
384.93	1605.61
385.14	1658.85
385.35	1804.26
385.55	1667.05
385.76	1800.16
385.97	1771.49
386.18	1603.56
386.39	1695.72
386.60	1742.82
386.81	1689.57
387.02	1693.67
387.22	1621.99
387.43	1746.92
387.64	1773.54
387.85	1871.84
388.06	2242.53
388.27	4278.21
388.48	6784.92
388.68	8337.28
388.89	9564.01
389.10	9785.19
389.31	8525.69
389.52	7489.42
389.73	6584.22
389.93	6375.33
390.14	5896.10
390.35	5160.88
390.56	4548.54
390.77	3794.89
390.98	3043.28
391.18	2512.86
391.39	2158.56
391.60	1794.02
391.81	1841.12
392.02	1722.34
392.23	1873.89
392.43	1759.21
392.64	1734.63
392.85	1673.19
393.06	1826.79
393.27	1773.54
393.47	1714.15
393.68	1757.16
393.89	1660.90
394.10	1828.84
394.31	1755.11
394.52	1689.57
394.72	1720.29
394.93	1796.07
395.14	1712.10
395.35	1726.44
395.56	1603.56
395.76	1722.34
395.97	1759.21
396.18	1865.70
396.39	1865.70
396.60	2074.59
396.80	1849.32
397.01	1816.55
397.22	1820.64
397.43	1800.16
397.64	1732.58
397.84	1775.59
398.05	1902.56
398.26	1814.50
398.47	1779.68
398.67	1722.34
398.88	1701.86
399.09	1730.53
399.30	1755.11
399.51	1794.02
399.71	1652.71
399.92	1675.24
400.13	1718.25
400.34	1677.29
400.54	1712.10
400.75	1816.55
400.96	1714.15
401.17	1839.08
401.37	1722.34
401.58	1724.39
401.79	1710.05
402.00	1910.75
402.21	2035.68
402.41	1976.29
402.62	1982.43
402.83	2025.44
403.04	1910.75
403.24	2123.74
403.45	1886.18
403.66	1837.03
403.87	1857.51
404.07	1865.70
404.28	1957.86
404.49	1837.03
404.70	1761.25
404.90	1832.93
405.11	1701.86
405.32	1755.11
405.52	1638.38
405.73	1718.25
405.94	1619.94
406.15	1656.81
406.35	1734.63
406.56	1746.92
406.77	1724.39
406.98	1746.92
407.18	1662.95
407.39	1818.60
407.60	1681.38
407.80	1640.42
408.01	1656.81
408.22	1757.16
408.43	1609.70
408.63	1789.92
408.84	1753.06
409.05	1669.09
409.25	1650.66
409.46	1685.48
409.67	1583.08
409.88	1658.85
410.08	1689.57
410.29	1662.95
410.50	1716.20
410.70	1710.05
410.91	1609.70
411.12	1746.92
411.32	1675.24
411.53	1640.42
411.74	1781.73
411.95	1820.64
412.15	1740.77
412.36	1767.40
412.57	1763.30
412.77	1818.60
412.98	1820.64
413.19	1701.86
413.39	1724.39
413.60	1816.55
413.81	1804.26
414.01	1683.43
414.22	1757.16
414.43	1738.73
414.63	1658.85
414.84	1761.25
415.05	1730.53
415.25	1685.48
415.46	1783.78
415.67	1673.19
415.87	1703.91
416.08	1691.62
416.29	1656.81
416.49	1714.15
416.70	1722.34
416.91	1708.01
417.11	1693.67
417.32	1726.44
417.53	1748.97
417.73	1724.39
417.94	1689.57
418.15	1773.54
418.35	1669.09
418.56	1710.05
418.77	1802.21
418.97	1656.81
419.18	1656.81
419.38	1583.08
419.59	1755.11
419.80	1687.53
420.00	1615.85
420.21	1742.82
420.42	1767.40
420.62	1714.15
420.83	1683.43
421.04	1679.33
421.24	1685.48
421.45	1736.68
421.65	1755.11
421.86	1642.47
422.07	1839.08
422.27	1755.11
422.48	1689.57
422.69	1589.22
422.89	1738.73
423.10	1705.96
423.30	1558.50
423.51	1654.76
423.72	1708.01
423.92	1738.73
424.13	1624.04
424.33	1710.05
424.54	1689.57
424.75	1724.39
424.95	1808.36
425.16	1697.77
425.36	1710.05
425.57	1697.77
425.78	1724.39
425.98	1771.49
426.19	1679.33
426.39	1626.09
426.60	1628.14
426.81	1804.26
427.01	1683.43
427.22	1595.37
427.42	1603.56
427.63	1628.14
427.83	1787.88
428.04	1732.58
428.25	1800.16
428.45	1802.21
428.66	1804.26
428.86	1732.58
429.07	1697.77
429.28	1689.57
429.48	1669.09
429.69	1699.81
429.89	1699.81
430.10	1626.09
430.30	1697.77
430.51	1708.01
430.71	1662.95
430.92	1744.87
431.13	1732.58
431.33	1765.35
431.54	1710.05
431.74	1773.54
431.95	1785.83
432.15	1658.85
432.36	1740.77
432.56	1783.78
432.77	1892.32
432.98	1796.07
433.18	1708.01
433.39	1744.87
433.59	1638.38
433.80	1732.58
434.00	1830.88
434.21	1693.67
434.41	1671.14
434.62	1814.50
434.82	1673.19
435.03	1648.61
435.23	1761.25
435.44	1691.62
435.64	1722.34
435.85	1714.15
436.06	1818.60
436.26	1751.01
436.47	1677.29
436.67	1705.96
436.88	1689.57
437.08	1748.97
437.29	1816.55
437.49	1722.34
437.70	1705.96
437.90	1779.68
438.11	1808.36
438.31	1828.84
438.52	1847.27
438.72	1904.61
438.93	1826.79
439.13	1722.34
439.34	1738.73
439.54	1789.92
439.75	1814.50
439.95	1808.36
440.16	1654.76
440.36	1798.12
440.57	1734.63
440.77	1732.58
440.98	1712.10
441.18	1720.29
441.39	1671.14
441.59	1634.28
441.80	1865.70
442.00	1783.78
442.21	1798.12
442.41	1675.24
442.62	1732.58
442.82	1675.24
443.02	1796.07
443.23	1771.49
443.43	1613.80
443.64	1804.26
443.84	1708.01
444.05	1832.93
444.25	1714.15
444.46	1644.52
444.66	1773.54
444.87	1714.15
445.07	1705.96
445.28	1705.96
445.48	1804.26
445.69	1763.30
445.89	1898.47
446.09	1763.30
446.30	2004.96
446.50	2639.83
446.71	3733.45
446.91	4313.02
447.12	4855.73
447.32	4761.53
447.53	4296.64
447.73	3721.16
447.93	3485.64
448.14	3143.63
448.34	3164.11
448.55	2871.25
448.75	2967.51
448.96	2731.99
449.16	2482.14
449.36	2246.62
449.57	2103.26
449.77	1925.09
449.98	1800.16
450.18	1789.92
450.39	1869.80
450.59	1779.68
450.79	1761.25
451.00	1660.90
451.20	1814.50
451.41	1781.73
451.61	1730.53
451.81	1718.25
452.02	1712.10
452.22	1677.29
452.43	1744.87
452.63	1748.97
452.84	1728.49
453.04	1826.79
453.24	1742.82
453.45	1734.63
453.65	1693.67
453.86	1783.78
454.06	1728.49
454.26	1738.73
454.47	1705.96
454.67	1796.07
454.87	1691.62
455.08	1673.19
455.28	1738.73
455.49	1783.78
455.69	1695.72
455.89	1787.88
456.10	1773.54
456.30	1648.61
456.51	1802.21
456.71	1755.11
456.91	1736.68
457.12	1689.57
457.32	1816.55
457.52	1656.81
457.73	1851.36
457.93	1714.15
458.14	1677.29
458.34	1648.61
458.54	1812.45
458.75	1683.43
458.95	1763.30
459.15	1728.49
459.36	1714.15
459.56	1849.32
459.76	1871.84
459.97	1726.44
460.17	1701.86
460.37	1753.06
460.58	1683.43
460.78	1734.63
460.99	1687.53
461.19	1777.64
461.39	1646.57
461.60	1650.66
461.80	1714.15
462.00	1648.61
462.21	1740.77
462.41	1628.14
462.61	1632.23
462.82	1601.51
463.02	1841.12
463.22	1720.29
463.43	1837.03
463.63	1738.73
463.83	1796.07
464.04	1740.77
464.24	1714.15
464.44	1767.40
464.64	1724.39
464.85	1708.01
465.05	1677.29
465.25	1691.62
465.46	1757.16
465.66	1800.16
465.86	1791.97
466.07	1703.91
466.27	1705.96
466.47	1638.38
466.68	1689.57
466.88	1751.01
467.08	1761.25
467.29	1789.92
467.49	1736.68
467.69	1705.96
467.89	1734.63
468.10	1734.63
468.30	1742.82
468.50	1783.78
468.71	1689.57
468.91	1636.33
469.11	1812.45
469.31	1718.25
469.52	1693.67
469.72	1761.25
469.92	1886.18
470.13	1744.87
470.33	1751.01
470.53	1916.90
470.73	2113.50
470.94	2248.67
471.14	2406.36
471.34	2543.58
471.54	2365.40
471.75	2252.77
471.95	2109.41
472.15	2080.74
472.36	2076.64
472.56	2054.11
472.76	2029.54
472.96	1974.24
473.17	1966.05
473.37	1912.80
473.57	1773.54
473.77	1753.06
473.98	1716.20
474.18	1736.68
474.38	1949.67
474.58	1705.96
474.79	1654.76
474.99	1675.24
475.19	1742.82
475.39	1660.90
475.60	1726.44
475.80	1689.57
476.00	1746.92
476.20	1804.26
476.41	1722.34
476.61	1757.16
476.81	1779.68
477.01	1691.62
477.21	1808.36
477.42	1787.88
477.62	1652.71
477.82	1808.36
478.02	1689.57
478.23	1744.87
478.43	1646.57
478.63	1708.01
478.83	1695.72
479.03	1710.05
479.24	1853.41
479.44	1845.22
479.64	1714.15
479.84	1617.90
480.04	1656.81
480.25	1787.88
480.45	1738.73
480.65	1712.10
480.85	1828.84
481.06	1658.85
481.26	1761.25
481.46	1708.01
481.66	1726.44
481.86	1732.58
482.06	1734.63
482.27	1781.73
482.47	1705.96
482.67	1697.77
482.87	1662.95
483.07	1773.54
483.28	1646.57
483.48	1650.66
483.68	1724.39
483.88	1697.77
484.08	1621.99
484.29	1632.23
484.49	1734.63
484.69	1675.24
484.89	1761.25
485.09	1748.97
485.29	1769.44
485.50	1738.73
485.70	1675.24
485.90	1830.88
486.10	1787.88
486.30	1705.96
486.50	1791.97
486.71	1755.11
486.91	1771.49
487.11	1810.40
487.31	1597.42
487.51	1773.54
487.71	1667.05
487.91	1693.67
488.12	1626.09
488.32	1587.18
488.52	1656.81
488.72	1644.52
488.92	1746.92
489.12	1820.64
489.32	1724.39
489.53	1681.38
489.73	1679.33
489.93	1808.36
490.13	1705.96
490.33	1662.95
490.53	1740.77
490.73	1798.12
490.94	1685.48
491.14	1734.63
491.34	1877.99
491.54	2125.79
491.74	2578.39
491.94	2967.51
492.14	2990.03
492.34	2977.75
492.54	2801.62
492.75	2514.91
492.95	2338.78
493.15	2271.20
493.35	2271.20
493.55	2170.85
493.75	2084.83
493.95	2125.79
494.15	1968.10
494.35	1927.14
494.56	1822.69
494.76	1763.30
494.96	1722.34
495.16	1761.25
495.36	1761.25
495.56	1714.15
495.76	1802.21
495.96	1718.25
496.16	1730.53
496.36	1802.21
496.56	1781.73
496.77	1712.10
496.97	1796.07
497.17	1824.74
497.37	1681.38
497.57	1757.16
497.77	1712.10
497.97	1619.94
498.17	1712.10
498.37	1722.34
498.57	1675.24
498.77	1673.19
498.97	1794.02
499.17	1744.87
499.38	1665.00
499.58	1804.26
499.78	1755.11
499.98	1837.03
500.18	1800.16
500.38	1681.38
500.58	1892.32
500.78	2555.86
500.98	4595.64
501.18	5910.44
501.38	6649.75
501.58	7157.65
501.78	6631.32
501.98	5441.45
502.18	4880.31
502.38	4390.84
502.58	4065.22
502.78	3700.68
502.98	3616.71
503.18	3555.27
503.38	3215.31
503.59	2828.24
503.79	2738.13
503.99	2375.64
504.19	2312.16
504.39	2234.33
504.59	2170.85
504.79	2119.65
504.99	2058.21
505.19	2017.25
505.39	1884.13
505.59	1951.71
505.79	1951.71
505.99	1828.84
506.19	1744.87
506.39	1904.61
506.59	1703.91
506.79	1757.16
506.99	1820.64
507.19	1873.89
507.39	1806.31
507.59	1689.57
507.79	1665.00
507.99	1687.53
508.19	1693.67
508.39	1703.91
508.59	1732.58
508.79	1785.83
508.99	1748.97
509.19	1673.19
509.39	1679.33
509.59	1683.43
509.79	1650.66
509.99	1740.77
510.19	1800.16
510.39	1767.40
510.59	1757.16
510.79	1746.92
510.99	1638.38
511.19	1761.25
511.39	1832.93
511.59	1712.10
511.79	1865.70
511.99	1693.67
512.19	1714.15
512.38	1634.28
512.58	1669.09
512.78	1697.77
512.98	1701.86
513.18	1773.54
513.38	1628.14
513.58	1789.92
513.78	1722.34
513.98	1753.06
514.18	1710.05
514.38	1613.80
514.58	1710.05
514.78	1689.57
514.98	1710.05
515.18	1738.73
515.38	1746.92
515.58	1820.64
515.78	1773.54
515.98	1767.40
516.18	1714.15
516.38	1732.58
516.57	1665.00
516.77	1695.72
516.97	1738.73
517.17	1728.49
517.37	1609.70
517.57	1759.21
517.77	1761.25
517.97	1751.01
518.17	1798.12
518.37	1710.05
518.57	1679.33
518.77	1751.01
518.97	1703.91
519.16	1806.31
519.36	1802.21
519.56	1681.38
519.76	1685.48
519.96	1763.30
520.16	1738.73
520.36	1679.33
520.56	1773.54
520.76	1746.92
520.96	1613.80
521.16	1767.40
521.35	1726.44
521.55	1794.02
521.75	1783.78
521.95	1730.53
522.15	1705.96
522.35	1619.94
522.55	1650.66
522.75	1753.06
522.95	1753.06
523.14	1728.49
523.34	1644.52
523.54	1671.14
523.74	1781.73
523.94	1746.92
524.14	1691.62
524.34	1705.96
524.54	1824.74
524.73	1693.67
524.93	1804.26
525.13	1720.29
525.33	1669.09
525.53	1914.85
525.73	1820.64
525.93	1751.01
526.13	1583.08
526.32	1701.86
526.52	1765.35
526.72	1808.36
526.92	1691.62
527.12	1730.53
527.32	1738.73
527.52	1677.29
527.71	1751.01
527.91	1738.73
528.11	1693.67
528.31	1773.54
528.51	1640.42
528.71	1816.55
528.90	1839.08
529.10	1771.49
529.30	1779.68
529.50	1603.56
529.70	1730.53
529.90	1665.00
530.09	1722.34
530.29	1693.67
530.49	1687.53
530.69	1890.28
530.89	1679.33
531.09	1781.73
531.28	1755.11
531.48	1800.16
531.68	1777.64
531.88	1802.21
532.08	1751.01
532.28	1703.91
532.47	1748.97
532.67	1775.59
532.87	1812.45
533.07	1665.00
533.27	1816.55
533.46	1683.43
533.66	1769.44
533.86	1677.29
534.06	1720.29
534.26	1744.87
534.45	1753.06
534.65	1804.26
534.85	1726.44
535.05	1744.87
535.25	1834.98
535.44	1642.47
535.64	1751.01
535.84	1753.06
536.04	1638.38
536.24	1728.49
536.43	1691.62
536.63	1732.58
536.83	1675.24
537.03	1660.90
537.22	1705.96
537.42	1665.00
537.62	1738.73
537.82	1660.90
538.02	1751.01
538.21	1796.07
538.41	1964.00
538.61	1763.30
538.81	1724.39
539.00	1808.36
539.20	1681.38
539.40	1634.28
539.60	1705.96
539.79	1769.44
539.99	1759.21
540.19	1726.44
540.39	1794.02
540.58	1791.97
540.78	1794.02
540.98	1681.38
541.18	1847.27
541.37	1757.16
541.57	1722.34
541.77	1765.35
541.97	1660.90
542.16	1650.66
542.36	1724.39
542.56	1763.30
542.76	1841.12
542.95	1810.40
543.15	1773.54
543.35	1699.81
543.54	1679.33
543.74	1638.38
543.94	1734.63
544.14	1701.86
544.33	1771.49
544.53	1765.35
544.73	1708.01
544.93	1701.86
545.12	1695.72
545.32	1732.58
545.52	1685.48
545.71	1691.62
545.91	1699.81
546.11	1738.73
546.30	1656.81
546.50	1718.25
546.70	1734.63
546.90	1675.24
547.09	1671.14
547.29	1744.87
547.49	1777.64
547.68	1720.29
547.88	1716.20
548.08	1728.49
548.27	2217.95
548.47	1705.96
548.67	1759.21
548.87	1736.68
549.06	1736.68
549.26	1748.97
549.46	1746.92
549.65	1683.43
549.85	1716.20
550.05	1695.72
550.24	1705.96
550.44	1740.77
550.64	1755.11
550.83	1726.44
551.03	1781.73
551.23	1783.78
551.42	1710.05
551.62	1742.82
551.82	1730.53
552.01	1681.38
552.21	1851.36
552.41	1873.89
552.60	1734.63
552.80	1710.05
553.00	1669.09
553.19	1757.16
553.39	1783.78
553.59	1701.86
553.78	1693.67
553.98	1785.83
554.17	1681.38
554.37	1734.63
554.57	1828.84
554.76	1605.61
554.96	1691.62
555.16	1703.91
555.35	1734.63
555.55	1837.03
555.75	1687.53
555.94	1769.44
556.14	1624.04
556.33	1789.92
556.53	1791.97
556.73	1755.11
556.92	1738.73
557.12	1787.88
557.32	1834.98
557.51	1824.74
557.71	1781.73
557.90	1816.55
558.10	1808.36
558.30	1689.57
558.49	1718.25
558.69	1648.61
558.88	1763.30
559.08	1689.57
559.28	1667.05
559.47	1732.58
559.67	1744.87
559.86	1804.26
560.06	1736.68
560.26	1730.53
560.45	1753.06
560.65	1726.44
560.84	1775.59
561.04	1671.14
561.24	1830.88
561.43	1630.18
561.63	1816.55
561.82	1779.68
562.02	1777.64
562.22	1722.34
562.41	1691.62
562.61	1718.25
562.80	1636.33
563.00	1861.60
563.19	1677.29
563.39	1789.92
563.59	1728.49
563.78	1667.05
563.98	1695.72
564.17	1697.77
564.37	1650.66
564.56	1773.54
564.76	1648.61
564.96	1789.92
565.15	1755.11
565.35	1880.04
565.54	1722.34
565.74	1773.54
565.93	1753.06
566.13	1654.76
566.32	1773.54
566.52	1796.07
566.71	1714.15
566.91	1728.49
567.11	1769.44
567.30	1722.34
567.50	1763.30
567.69	1671.14
567.89	1775.59
568.08	1730.53
568.28	1730.53
568.47	1726.44
568.67	1728.49
568.86	1730.53
569.06	1761.25
569.25	1724.39
569.45	1654.76
569.64	1691.62
569.84	1753.06
570.04	1783.78
570.23	1667.05
570.43	1718.25
570.62	1744.87
570.82	1779.68
571.01	1673.19
571.21	1654.76
571.40	1689.57
571.60	1773.54
571.79	1720.29
571.99	1722.34
572.18	1652.71
572.38	1755.11
572.57	1660.90
572.77	1734.63
572.96	1906.66
573.16	1834.98
573.35	1673.19
573.55	1804.26
573.74	1837.03
573.94	1746.92
574.13	1800.16
574.33	1759.21
574.52	1794.02
574.71	1703.91
574.91	1824.74
575.10	1689.57
575.30	1777.64
575.49	1726.44
575.69	1617.90
575.88	1748.97
576.08	1710.05
576.27	1849.32
576.47	1646.57
576.66	1843.17
576.86	1812.45
577.05	1759.21
577.25	1816.55
577.44	1877.99
577.64	1724.39
577.83	1839.08
578.02	1710.05
578.22	1820.64
578.41	1826.79
578.61	1769.44
578.80	1695.72
579.00	1757.16
579.19	1722.34
579.39	1865.70
579.58	1837.03
579.77	1726.44
579.97	1837.03
580.16	1804.26
580.36	1710.05
580.55	1863.65
580.75	1802.21
580.94	1757.16
581.13	1808.36
581.33	1837.03
581.52	1716.20
581.72	1890.28
581.91	1814.50
582.11	1712.10
582.30	1898.47
582.49	1759.21
582.69	1882.08
582.88	1796.07
583.08	1734.63
583.27	1808.36
583.47	1720.29
583.66	1726.44
583.85	1673.19
584.05	1701.86
584.24	1779.68
584.44	1777.64
584.63	1779.68
584.82	1828.84
585.02	1900.52
585.21	1826.79
585.41	1906.66
585.60	1800.16
585.79	1992.67
585.99	1980.39
586.18	1912.80
586.37	2156.51
586.57	3313.61
586.76	9828.20
586.96	24544.91
587.15	34432.50
587.34	40625.56
587.54	42366.33
587.73	36658.64
587.93	26492.52
588.12	21733.04
588.31	18476.77
588.51	16271.11
588.70	15355.67
588.89	14278.44
589.09	12805.95
589.28	11095.89
589.47	9439.09
589.67	7870.34
589.86	6563.74
590.06	4960.18
590.25	3979.20
590.44	3139.54
590.64	2658.26
590.83	2199.52
591.02	2105.31
591.22	1927.14
591.41	1947.62
591.60	1767.40
591.80	1935.33
591.99	1771.49
592.18	1818.60
592.38	1849.32
592.57	1771.49
592.76	1759.21
592.96	1824.74
593.15	1685.48
593.34	1830.88
593.54	1769.44
593.73	1804.26
593.92	1775.59
594.12	1730.53
594.31	1761.25
594.50	1783.78
594.70	1705.96
594.89	1877.99
595.08	1753.06
595.28	1753.06
595.47	1867.75
595.66	1763.30
595.86	1708.01
596.05	1691.62
596.24	1751.01
596.43	1834.98
596.63	1826.79
596.82	1771.49
597.01	1718.25
597.21	1849.32
597.40	1759.21
597.59	1689.57
597.79	1695.72
597.98	1855.46
598.17	1777.64
598.36	1771.49
598.56	1759.21
598.75	1734.63
598.94	1791.97
599.14	1673.19
599.33	1687.53
599.52	1738.73
599.71	1728.49
599.91	1828.84
600.10	1738.73
600.29	1722.34
600.48	1802.21
600.68	1779.68
600.87	1660.90
601.06	1726.44
601.26	1718.25
601.45	1734.63
601.64	1722.34
601.83	1775.59
602.03	1650.66
602.22	1611.75
602.41	1761.25
602.60	1861.60
602.80	1730.53
602.99	1746.92
603.18	1765.35
603.37	1763.30
603.57	1765.35
603.76	1808.36
603.95	1808.36
604.14	1742.82
604.34	1685.48
604.53	1714.15
604.72	1730.53
604.91	1767.40
605.10	1783.78
605.30	1654.76
605.49	1855.46
605.68	1783.78
605.87	1814.50
606.07	1648.61
606.26	1726.44
606.45	1830.88
606.64	1753.06
606.84	1771.49
607.03	1681.38
607.22	1761.25
607.41	1714.15
607.60	1656.81
607.80	1705.96
607.99	1759.21
608.18	1724.39
608.37	1726.44
608.56	1740.77
608.76	1822.69
608.95	1847.27
609.14	1724.39
609.33	1744.87
609.52	1853.41
609.72	1738.73
609.91	1785.83
610.10	1751.01
610.29	1789.92
610.48	1705.96
610.68	1722.34
610.87	1685.48
611.06	1751.01
611.25	1675.24
611.44	1877.99
611.63	1689.57
611.83	1691.62
612.02	1576.94
612.21	1804.26
612.40	1640.42
612.59	1681.38
612.79	1667.05
612.98	1693.67
613.17	1910.75
613.36	1789.92
613.55	1914.85
613.74	1730.53
613.93	1740.77
614.13	1699.81
614.32	1734.63
614.51	1767.40
614.70	1699.81
614.89	1757.16
615.08	1732.58
615.28	2009.06
615.47	1658.85
615.66	1656.81
615.85	1667.05
616.04	1800.16
616.23	1722.34
616.42	1773.54
616.62	1734.63
616.81	1753.06
617.00	1791.97
617.19	1710.05
617.38	1718.25
617.57	1714.15
617.76	1822.69
617.95	1742.82
618.15	1839.08
618.34	1742.82
618.53	1677.29
618.72	1748.97
618.91	1791.97
619.10	1779.68
619.29	1767.40
619.48	1677.29
619.68	1671.14
619.87	1759.21
620.06	1595.37
620.25	1730.53
620.44	1669.09
620.63	1712.10
620.82	1769.44
621.01	1722.34
621.20	1787.88
621.39	1728.49
621.59	1755.11
621.78	1685.48
621.97	1777.64
622.16	1771.49
622.35	1703.91
622.54	1841.12
622.73	1834.98
622.92	1628.14
623.11	1853.41
623.30	1746.92
623.49	1773.54
623.68	1667.05
623.88	1759.21
624.07	1662.95
624.26	1642.47
624.45	1724.39
624.64	1675.24
624.83	1724.39
625.02	1718.25
625.21	1683.43
625.40	1722.34
625.59	1894.37
625.78	1654.76
625.97	1804.26
626.16	1748.97
626.35	1740.77
626.54	1716.20
626.74	1755.11
626.93	1765.35
627.12	1669.09
627.31	1787.88
627.50	1757.16
627.69	1748.97
627.88	1615.85
628.07	1665.00
628.26	1599.46
628.45	1693.67
628.64	1636.33
628.83	1658.85
629.02	1689.57
629.21	1671.14
629.40	1751.01
629.59	1695.72
629.78	1689.57
629.97	1755.11
630.16	1691.62
630.35	1753.06
630.54	1699.81
630.73	1708.01
630.92	1804.26
631.11	1607.66
631.30	1697.77
631.49	1732.58
631.68	1683.43
631.87	1783.78
632.06	1710.05
632.25	1871.84
632.44	1683.43
632.63	1669.09
632.82	1601.51
633.01	1611.75
633.20	1697.77
633.39	1689.57
633.58	1642.47
633.77	1773.54
633.96	1654.76
634.15	1699.81
634.34	1748.97
634.53	1697.77
634.72	1667.05
634.91	1587.18
635.10	1787.88
635.29	1824.74
635.48	1705.96
635.67	1695.72
635.86	1714.15
636.05	1832.93
636.24	1695.72
636.43	1736.68
636.62	1814.50
636.81	1570.79
637.00	1683.43
637.19	1773.54
637.38	1650.66
637.57	1689.57
637.76	1695.72
637.95	1730.53
638.14	1636.33
638.33	1658.85
638.52	1767.40
638.71	1652.71
638.89	1607.66
639.08	1839.08
639.27	1796.07
639.46	1660.90
639.65	1796.07
639.84	1697.77
640.03	1808.36
640.22	1716.20
640.41	1779.68
640.60	1675.24
640.79	1689.57
640.98	1642.47
641.17	1642.47
641.36	1755.11
641.55	1794.02
641.74	1693.67
641.92	1617.90
642.11	1681.38
642.30	1697.77
642.49	1628.14
642.68	1679.33
642.87	1677.29
643.06	1746.92
643.25	1636.33
643.44	1650.66
643.63	1732.58
643.82	1748.97
644.00	1689.57
644.19	1724.39
644.38	1615.85
644.57	1761.25
644.76	1748.97
644.95	1714.15
645.14	1712.10
645.33	1671.14
645.52	1734.63
645.71	1667.05
645.89	1634.28
646.08	1667.05
646.27	1691.62
646.46	1863.65
646.65	1615.85
646.84	1601.51
647.03	1720.29
647.22	1773.54
647.40	1685.48
647.59	1720.29
647.78	1605.61
647.97	1724.39
648.16	1634.28
648.35	1796.07
648.54	1845.22
648.73	1714.15
648.91	1716.20
649.10	1701.86
649.29	1652.71
649.48	1628.14
649.67	1746.92
649.86	1742.82
650.05	1613.80
650.23	1724.39
650.42	1671.14
650.61	1738.73
650.80	1751.01
650.99	1828.84
651.18	1777.64
651.36	1755.11
651.55	1642.47
651.74	1695.72
651.93	1785.83
652.12	1738.73
652.31	1701.86
652.49	1677.29
652.68	1603.56
652.87	1812.45
653.06	1742.82
653.25	1830.88
653.44	1824.74
653.62	1718.25
653.81	1724.39
654.00	1624.04
654.19	1757.16
654.38	1853.41
654.56	1712.10
654.75	1740.77
654.94	1789.92
655.13	1681.38
655.32	1810.40
655.51	1837.03
655.69	1609.70
655.88	1765.35
656.07	1677.29
656.26	1781.73
656.45	1665.00
656.63	1660.90
656.82	1785.83
657.01	1777.64
657.20	1740.77
657.38	1779.68
657.57	1654.76
657.76	1675.24
657.95	1746.92
658.14	1632.23
658.32	1695.72
658.51	1693.67
658.70	1730.53
658.89	1804.26
659.08	1687.53
659.26	1796.07
659.45	1703.91
659.64	1769.44
659.83	1646.57
660.01	1843.17
660.20	1660.90
660.39	1738.73
660.58	1570.79
660.76	1703.91
660.95	1652.71
661.14	1757.16
661.33	1626.09
661.51	1626.09
661.70	1722.34
661.89	1779.68
662.08	1785.83
662.26	1658.85
662.45	1722.34
662.64	1871.84
662.83	1783.78
663.01	1583.08
663.20	1648.61
663.39	1738.73
663.58	1697.77
663.76	1740.77
663.95	1763.30
664.14	1646.57
664.32	1701.86
664.51	1720.29
664.70	1646.57
664.89	1755.11
665.07	1689.57
665.26	1755.11
665.45	1650.66
665.64	1798.12
665.82	1783.78
666.01	1740.77
666.20	1665.00
666.38	1859.56
666.57	1824.74
666.76	2133.98
666.95	4454.33
667.13	10356.58
667.32	15423.25
667.51	17635.06
667.69	19144.41
667.88	17516.28
668.07	12478.27
668.25	9369.46
668.44	8099.72
668.63	7481.23
668.81	6766.49
669.00	6281.12
669.19	5736.36
669.38	5140.40
669.56	4577.21
669.75	3971.01
669.94	3397.58
670.12	2926.55
670.31	2564.06
670.50	2197.47
670.68	2152.42
670.87	1898.47
671.06	1791.97
671.24	1828.84
671.43	1826.79
671.62	1734.63
671.80	1705.96
671.99	1746.92
672.18	1703.91
672.36	1738.73
672.55	1765.35
672.74	1748.97
672.92	1683.43
673.11	1779.68
673.29	1697.77
673.48	1761.25
673.67	1718.25
673.85	1787.88
674.04	1677.29
674.23	1736.68
674.41	1826.79
674.60	1662.95
674.79	1652.71
674.97	1683.43
675.16	1673.19
675.34	1812.45
675.53	1665.00
675.72	1738.73
675.90	1828.84
676.09	1728.49
676.28	1714.15
676.46	1665.00
676.65	1808.36
676.83	1650.66
677.02	1613.80
677.21	1718.25
677.39	1796.07
677.58	1705.96
677.77	1669.09
677.95	1697.77
678.14	1708.01
678.32	1593.32
678.51	1755.11
678.70	1779.68
678.88	1693.67
679.07	1701.86
679.25	1726.44
679.44	1667.05
679.63	1626.09
679.81	1677.29
680.00	1796.07
680.18	1757.16
680.37	1847.27
680.55	1705.96
680.74	1642.47
680.93	1638.38
681.11	1796.07
681.30	1667.05
681.48	1724.39
681.67	1732.58
681.85	1775.59
682.04	1615.85
682.23	1689.57
682.41	1738.73
682.60	1656.81
682.78	1718.25
682.97	1693.67
683.15	1703.91
683.34	1705.96
683.53	1802.21
683.71	1722.34
683.90	1722.34
684.08	1734.63
684.27	1697.77
684.45	1724.39
684.64	1806.31
684.82	1650.66
685.01	1757.16
685.19	1730.53
685.38	1832.93
685.57	1689.57
685.75	1687.53
685.94	1675.24
686.12	1728.49
686.31	1748.97
686.49	1812.45
686.68	1566.70
686.86	1738.73
687.05	1656.81
687.23	1826.79
687.42	1671.14
687.60	1640.42
687.79	1736.68
687.97	1779.68
688.16	1783.78
688.34	1724.39
688.53	1648.61
688.71	1691.62
688.90	1699.81
689.08	1712.10
689.27	1574.89
689.45	1720.29
689.64	1710.05
689.82	1703.91
690.01	1712.10
690.19	1724.39
690.38	1685.48
690.56	1814.50
690.75	1687.53
690.93	1613.80
691.12	1755.11
691.30	1642.47
691.49	1652.71
691.67	1705.96
691.86	1685.48
692.04	1701.86
692.23	1691.62
692.41	1697.77
692.60	1824.74
692.78	1708.01
692.97	1689.57
693.15	1730.53
693.34	1789.92
693.52	1716.20
693.71	1744.87
693.89	1662.95
694.08	1562.60
694.26	1730.53
694.44	1734.63
694.63	1742.82
694.81	1646.57
695.00	1665.00
695.18	1753.06
695.37	1863.65
695.55	1755.11
695.74	1716.20
695.92	1638.38
696.10	1730.53
696.29	1634.28
696.47	1708.01
696.66	1660.90
696.84	1648.61
697.03	1679.33
697.21	1886.18
697.40	2283.49
697.58	1738.73
697.76	1607.66
697.95	1669.09
698.13	1677.29
698.32	1667.05
698.50	1658.85
698.68	1789.92
698.87	1695.72
699.05	1845.22
699.24	1583.08
699.42	1669.09
699.61	1712.10
699.79	1667.05
699.97	1660.90
700.16	1570.79
700.34	1679.33
700.53	1718.25
700.71	1779.68
700.89	1697.77
701.08	1701.86
701.26	1804.26
701.45	2193.37
701.63	1628.14
701.81	1767.40
702.00	1619.94
702.18	1787.88
702.37	1634.28
702.55	1771.49
702.73	1662.95
702.92	1697.77
703.10	1771.49
703.28	1673.19
703.47	1642.47
703.65	1757.16
703.84	1798.12
704.02	1671.14
704.20	1808.36
704.39	1642.47
704.57	1742.82
704.75	1738.73
704.94	1806.31
705.12	1675.24
705.30	1818.60
705.49	2220.00
705.67	4372.41
705.86	9424.75
706.04	12547.90
706.22	14642.98
706.41	15673.10
706.59	14104.36
706.77	9572.21
706.96	7241.62
707.14	6621.08
707.32	6162.34
707.51	5509.04
707.69	4949.94
707.87	4249.54
708.06	3555.27
708.24	3028.95
708.42	2502.62
708.61	2187.23
708.79	1849.32
708.97	1865.70
709.16	1849.32
709.34	1853.41
709.52	1769.44
709.71	1712.10
709.89	1849.32
710.07	1624.04
710.26	1701.86
710.44	1751.01
710.62	1849.32
710.80	1648.61
710.99	1720.29
711.17	1773.54
711.35	1646.57
711.54	1673.19
711.72	1816.55
711.90	1724.39
712.09	1662.95
712.27	1665.00
712.45	1734.63
712.63	1691.62
712.82	1656.81
713.00	1681.38
713.18	1685.48
713.37	1703.91
713.55	1687.53
713.73	1738.73
713.91	1746.92
714.10	1660.90
714.28	1718.25
714.46	1781.73
714.65	1791.97
714.83	1779.68
715.01	1691.62
715.19	1718.25
715.38	1568.74
715.56	1683.43
715.74	1636.33
715.92	1656.81
716.11	1740.77
716.29	1609.70
716.47	1734.63
716.65	1738.73
716.84	1695.72
717.02	1734.63
717.20	1656.81
717.38	1722.34
717.57	1748.97
717.75	1763.30
717.93	1712.10
718.11	1695.72
718.30	1626.09
718.48	1775.59
718.66	1783.78
718.84	1724.39
719.03	1632.23
719.21	1609.70
719.39	1757.16
719.57	1712.10
719.75	1808.36
719.94	1578.98
720.12	1730.53
720.30	1701.86
720.48	1781.73
720.67	1626.09
720.85	1675.24
721.03	1648.61
721.21	1595.37
721.39	1693.67
721.58	1761.25
721.76	1693.67
721.94	1669.09
722.12	1697.77
722.30	1806.31
722.49	1650.66
722.67	1763.30
722.85	1701.86
723.03	1562.60
723.21	1642.47
723.40	1722.34
723.58	1816.55
723.76	1697.77
723.94	1773.54
724.12	1812.45
724.30	1759.21
724.49	1740.77
724.67	1591.27
724.85	1740.77
725.03	1665.00
725.21	1757.16
725.40	1773.54
725.58	1677.29
725.76	1781.73
725.94	1705.96
726.12	1638.38
726.30	1650.66
726.49	1665.00
726.67	1667.05
726.85	1746.92
727.03	1746.92
727.21	2220.00
727.39	2861.01
727.57	3782.60
727.76	4188.10
727.94	4433.85
728.12	4300.73
728.30	3639.24
728.48	2973.65
728.66	2654.17
728.84	2645.98
729.03	2279.39
729.21	2074.59
729.39	1953.76
729.57	1802.21
729.75	1826.79
729.93	1818.60
730.11	1740.77
730.30	1636.33
730.48	1609.70
730.66	1761.25
730.84	1765.35
731.02	1712.10
731.20	1710.05
731.38	1789.92
731.56	1734.63
731.74	1640.42
731.93	1714.15
732.11	1765.35
732.29	1681.38
732.47	1744.87
732.65	1697.77
732.83	1773.54
733.01	1720.29
733.19	1730.53
733.37	1753.06
733.56	1679.33
733.74	1636.33
733.92	1728.49
734.10	1656.81
734.28	1710.05
734.46	1587.18
734.64	1673.19
734.82	1652.71
735.00	1628.14
735.18	1679.33
735.36	1693.67
735.54	1755.11
735.73	1818.60
735.91	1673.19
736.09	1777.64
736.27	1660.90
736.45	1740.77
736.63	1587.18
736.81	1687.53
736.99	1765.35
737.17	1751.01
737.35	1611.75
737.53	1628.14
737.71	1722.34
737.89	1812.45
738.07	1656.81
738.25	1665.00
738.43	1593.32
738.61	1642.47
738.80	1597.42
738.98	1724.39
739.16	1681.38
739.34	1697.77
739.52	1753.06
739.70	1740.77
739.88	1691.62
740.06	1761.25
740.24	1644.52
740.42	1748.97
740.60	1566.70
740.78	1679.33
740.96	1650.66
741.14	1689.57
741.32	1724.39
741.50	1632.23
741.68	1773.54
741.86	1753.06
742.04	1656.81
742.22	1638.38
742.40	1607.66
742.58	1722.34
742.76	1673.19
742.94	1746.92
743.12	1624.04
743.30	1685.48
743.48	1687.53
743.66	1716.20
743.84	1796.07
744.02	1677.29
744.20	1662.95
744.38	1673.19
744.56	1656.81
744.74	1779.68
744.92	1818.60
745.10	1773.54
745.28	1722.34
745.46	1708.01
745.64	1650.66
745.82	1716.20
746.00	1736.68
746.18	1796.07
746.36	1593.32
746.54	1714.15
746.72	1716.20
746.90	1593.32
747.08	1816.55
747.26	1673.19
747.44	1763.30
747.62	1714.15
747.80	1691.62
747.98	1804.26
748.15	1728.49
748.33	1814.50
748.51	1630.18
748.69	1732.58
748.87	1658.85
749.05	1669.09
749.23	1640.42
749.41	1685.48
749.59	1699.81
749.77	1841.12
749.95	1619.94
750.13	1652.71
750.31	1710.05
750.49	1705.96
750.67	1781.73
750.85	1767.40
751.03	1667.05
751.20	1832.93
751.38	1779.68
751.56	1675.24
751.74	1734.63
751.92	1701.86
752.10	1665.00
752.28	1781.73
752.46	1607.66
752.64	1636.33
752.82	1755.11
753.00	1730.53
753.18	1673.19
753.35	1720.29
753.53	1681.38
753.71	1658.85
753.89	1644.52
754.07	1757.16
754.25	1841.12
754.43	1710.05
754.61	1609.70
754.79	1644.52
754.97	1636.33
755.14	1761.25
755.32	1628.14
755.50	1681.38
755.68	1787.88
755.86	1609.70
756.04	1662.95
756.22	1619.94
756.40	1882.08
756.57	1867.75
756.75	1681.38
756.93	1746.92
757.11	1720.29
757.29	1691.62
757.47	1583.08
757.65	1693.67
757.82	1632.23
758.00	1644.52
758.18	1701.86
758.36	1703.91
758.54	1800.16
758.72	1667.05
758.90	1783.78
759.07	1703.91
759.25	1660.90
759.43	1769.44
759.61	1636.33
759.79	2238.43
759.97	1744.87
760.15	1642.47
760.32	1712.10
760.50	1710.05
760.68	1755.11
760.86	1671.14
761.04	1761.25
761.22	1742.82
761.39	1714.15
761.57	1789.92
761.75	1820.64
761.93	1722.34
762.11	1722.34
762.28	1699.81
762.46	1679.33
762.64	1771.49
762.82	1665.00
763.00	1652.71
763.18	1783.78
763.35	1640.42
763.53	1832.93
763.71	1714.15
763.89	1658.85
764.07	1724.39
764.24	1675.24
764.42	1705.96
764.60	1791.97
764.78	1718.25
764.96	1708.01
765.13	1722.34
765.31	1710.05
765.49	1746.92
765.67	1624.04
765.84	1642.47
766.02	1697.77
766.20	1648.61
766.38	1755.11
766.56	1726.44
766.73	1726.44
766.91	1675.24
767.09	1744.87
767.27	1730.53
767.44	1665.00
767.62	1726.44
767.80	1812.45
767.98	1742.82
768.15	1675.24
768.33	1703.91
768.51	1714.15
768.69	1679.33
768.87	1652.71
769.04	1609.70
769.22	1863.65
769.40	1710.05
769.58	1814.50
769.75	1769.44
769.93	1765.35
770.11	1708.01
770.28	1669.09
770.46	1742.82
770.64	1697.77
770.82	1687.53
770.99	1701.86
771.17	1705.96
771.35	1617.90
771.53	1742.82
771.70	1720.29
771.88	1726.44
772.06	1662.95
772.23	1642.47
772.41	1738.73
772.59	1738.73
772.77	1673.19
772.94	1771.49
773.12	1673.19
773.30	1607.66
773.47	1574.89
773.65	1624.04
773.83	1855.46
774.01	1667.05
774.18	1660.90
774.36	1701.86
774.54	1673.19
774.71	1701.86
774.89	1638.38
775.07	1697.77
775.24	1656.81
775.42	1703.91
775.60	1718.25
775.78	1648.61
775.95	1695.72
776.13	1615.85
776.31	1599.46
776.48	1734.63
776.66	1732.58
776.84	1691.62
777.01	1665.00
777.19	1583.08
777.37	1642.47
777.54	1779.68
777.72	1830.88
777.90	1693.67
778.07	1710.05
778.25	1894.37
778.43	1677.29
778.60	1693.67
778.78	1783.78
778.96	1748.97
779.13	1673.19
779.31	1671.14
779.49	1669.09
779.66	1701.86
779.84	1683.43
780.01	1656.81
780.19	1662.95
780.37	1738.73
780.54	1718.25
780.72	1646.57
780.90	1701.86
781.07	1724.39
781.25	1673.19
781.43	1755.11
781.60	1722.34
781.78	1832.93
781.95	1699.81
782.13	1685.48
782.31	1644.52
782.48	1650.66
782.66	1689.57
782.83	1800.16
783.01	1681.38
783.19	1705.96
783.36	1718.25
783.54	1652.71
783.72	1732.58
783.89	1632.23
784.07	1732.58
784.24	1689.57
784.42	1742.82
784.60	1781.73
784.77	1609.70
784.95	1679.33
785.12	1660.90
785.30	1744.87
785.47	1632.23
785.65	1757.16
785.83	1681.38
786.00	1683.43
786.18	1671.14
786.35	1603.56
786.53	1681.38
786.71	1714.15
786.88	1730.53
787.06	1771.49
787.23	1607.66
787.41	1619.94
787.58	1689.57
787.76	1669.09
787.94	1687.53
788.11	1728.49
788.29	1640.42
788.46	1605.61
788.64	1656.81
788.81	1705.96
788.99	1624.04
789.16	1683.43
789.34	1712.10
789.52	1734.63
789.69	1697.77
789.87	1552.36
790.04	1644.52
790.22	1794.02
790.39	1771.49
790.57	1687.53
790.74	1705.96
790.92	1871.84
791.09	1603.56
791.27	1646.57
791.44	1757.16
791.62	1683.43
791.79	1691.62
791.97	1691.62
792.15	1888.23
792.32	1769.44
792.50	1708.01
792.67	1810.40
792.85	1757.16
793.02	1701.86
793.20	1644.52
793.37	1599.46
793.55	1681.38
793.72	1593.32
793.90	1744.87
794.07	1667.05
794.25	1638.38
794.42	1699.81
794.60	1636.33
794.77	1759.21
794.95	1757.16
795.12	1738.73
795.30	1673.19
795.47	1554.41
795.65	1855.46
795.82	1783.78
796.00	1693.67
796.17	1669.09
796.34	1665.00
796.52	1705.96
796.69	1814.50
796.87	1753.06
797.04	1691.62
797.22	1757.16
797.39	1714.15
797.57	1720.29
797.74	1726.44
797.92	1701.86
798.09	1667.05
798.27	1695.72
798.44	1724.39
798.62	1644.52
798.79	1742.82
798.96	1724.39
799.14	1708.01
799.31	1849.32
799.49	1705.96
799.66	1673.19
799.84	1710.05
800.01	1570.79
800.19	1652.71
800.36	1615.85
800.53	1742.82
800.71	1652.71
800.88	1783.78
801.06	1673.19
801.23	1675.24
801.41	1642.47
801.58	1640.42
801.75	1652.71
801.93	1755.11
802.10	1671.14
802.28	1654.76
802.45	1691.62
802.63	1746.92
802.80	1839.08
802.97	1769.44
803.15	1718.25
803.32	1681.38
803.50	1701.86
803.67	1613.80
803.84	1591.27
804.02	1624.04
804.19	1691.62
804.37	1591.27
804.54	1675.24
804.71	1626.09
804.89	1591.27
805.06	1591.27
805.24	1650.66
805.41	1681.38
805.58	1609.70
805.76	1830.88
805.93	1726.44
806.10	1757.16
806.28	1781.73
806.45	1722.34
806.63	1716.20
806.80	1757.16
806.97	1720.29
807.15	1619.94
807.32	1734.63
807.49	1755.11
807.67	1615.85
807.84	1726.44
808.01	1603.56
808.19	1822.69
808.36	1822.69
808.54	1644.52
808.71	1574.89
808.88	1699.81
809.06	1662.95
809.23	1822.69
809.40	1656.81
809.58	1824.74
809.75	1640.42
809.92	1617.90
810.10	1787.88
810.27	1675.24
810.44	1732.58
810.62	1753.06
810.79	1804.26
810.96	1673.19
811.14	1658.85
811.31	1705.96
811.48	1798.12
811.66	1705.96
811.83	1724.39
812.00	1738.73
812.18	1736.68
812.35	1830.88
812.52	1607.66
812.69	1628.14
812.87	1642.47
813.04	1656.81
813.21	1738.73
813.39	1669.09
813.56	1624.04
813.73	1751.01
813.91	1570.79
814.08	1738.73
814.25	1759.21
814.42	1697.77
814.60	1734.63
814.77	1728.49
814.94	1740.77
815.12	1742.82
815.29	1798.12
815.46	1660.90
815.63	1716.20
815.81	1751.01
815.98	1609.70
816.15	1710.05
816.33	1751.01
816.50	1671.14
816.67	1714.15
816.84	1685.48
817.02	1683.43
817.19	1603.56
817.36	1656.81
817.53	1675.24
817.71	1636.33
817.88	1685.48
818.05	1708.01
818.22	1712.10
818.40	1728.49
818.57	1644.52
818.74	1699.81
818.91	1722.34
819.09	1714.15
819.26	1771.49
819.43	1658.85
819.60	1687.53
819.78	1681.38
819.95	1810.40
820.12	1624.04
820.29	1732.58
820.47	1734.63
820.64	1691.62
820.81	1562.60
820.98	1619.94
821.15	1671.14
821.33	1730.53
821.50	1621.99
821.67	1728.49
821.84	1693.67
822.02	1701.86
822.19	1787.88
822.36	1697.77
822.53	1673.19
822.70	1628.14
822.88	1665.00
823.05	1744.87
823.22	1738.73
823.39	1681.38
823.56	1720.29
823.74	1812.45
823.91	1591.27
824.08	1685.48
824.25	1615.85
824.42	1855.46
824.60	1675.24
824.77	1767.40
824.94	1681.38
825.11	1710.05
825.28	1650.66
825.45	1658.85
825.63	1710.05
825.80	1656.81
825.97	1683.43
826.14	1603.56
826.31	1517.54
826.48	1810.40
826.66	1611.75
826.83	1652.71
827.00	1716.20
827.17	1667.05
827.34	1691.62
827.51	1697.77
827.69	1730.53
827.86	1601.51
828.03	1632.23
828.20	1646.57
828.37	1667.05
828.54	1738.73
828.71	1677.29
828.89	1771.49
829.06	1738.73
829.23	1822.69
829.40	1648.61
829.57	1667.05
829.74	1648.61
829.91	1712.10
830.09	1626.09
830.26	1757.16
830.43	1734.63
830.60	1599.46
830.77	1730.53
830.94	1671.14
831.11	1789.92
831.28	1650.66
831.46	1730.53
831.63	1695.72
831.80	1767.40
831.97	1730.53
832.14	1693.67
832.31	1755.11
832.48	1734.63
832.65	1767.40
832.82	1679.33
832.99	1755.11
833.17	1648.61
833.34	1822.69
833.51	1701.86
833.68	1656.81
833.85	1732.58
834.02	1640.42
834.19	1699.81
834.36	1609.70
834.53	1714.15
834.70	1701.86
834.87	1746.92
835.04	1656.81
835.22	1630.18
835.39	1607.66
835.56	1708.01
835.73	1695.72
835.90	1759.21
836.07	1628.14
836.24	1726.44
836.41	1619.94
836.58	1560.55
836.75	1718.25
836.92	1726.44
837.09	1648.61
837.26	1724.39
837.43	1728.49
837.60	1689.57
837.77	1642.47
837.94	1736.68
838.12	1718.25
838.29	1738.73
838.46	1652.71
838.63	1624.04
838.80	1748.97
838.97	1710.05
839.14	1763.30
839.31	1679.33
839.48	1691.62
839.65	1648.61
839.82	1810.40
839.99	1757.16
840.16	1652.71
840.33	1652.71
840.50	1789.92
840.67	1642.47
840.84	1589.22
841.01	1703.91
841.18	1538.02
841.35	1642.47
841.52	1638.38
841.69	1779.68
841.86	1742.82
842.03	1699.81
842.20	1724.39
842.37	1662.95
842.54	1660.90
842.71	1697.77
842.88	1591.27
843.05	1822.69
843.22	1621.99
843.39	1714.15
843.56	1673.19
843.73	1724.39
843.90	1722.34
844.07	1701.86
844.24	1769.44
844.41	1761.25
844.58	1687.53
844.75	1744.87
844.92	1689.57
845.09	1732.58
845.26	1574.89
845.43	1755.11
845.60	1650.66
845.77	1714.15
845.94	1697.77
846.10	1673.19
846.27	1566.70
846.44	1658.85
846.61	1697.77
846.78	1726.44
846.95	1794.02
847.12	1638.38
847.29	1697.77
847.46	1628.14
847.63	1738.73
847.80	1609.70
847.97	1667.05
848.14	1765.35
848.31	1714.15
848.48	1656.81
848.65	1724.39
848.82	1644.52
848.98	1806.31
849.15	1697.77
849.32	1701.86
849.49	1767.40
849.66	1732.58
849.83	1667.05
850.00	1683.43
850.17	1675.24
850.34	1658.85
850.51	1689.57
850.68	1665.00
850.85	1773.54
851.01	1701.86
851.18	1685.48
851.35	1689.57
851.52	1695.72
851.69	1710.05
851.86	1644.52
852.03	1734.63
852.20	1789.92
852.37	1859.56
852.53	1548.26
852.70	1697.77
852.87	1710.05
853.04	1683.43
853.21	1722.34
853.38	1773.54
853.55	1802.21
853.72	1802.21
853.89	1568.74
854.05	1732.58
854.22	1714.15
854.39	1654.76
854.56	1658.85
854.73	1771.49
854.90	1628.14
855.07	1736.68
855.23	1675.24
855.40	1642.47
855.57	1621.99
855.74	1521.64
855.91	1794.02
856.08	1609.70
856.25	1609.70
856.41	1689.57
856.58	1656.81
856.75	1734.63
856.92	1626.09
857.09	1830.88
857.26	1654.76
857.42	1705.96
857.59	1667.05
857.76	1697.77
857.93	1701.86
858.10	1695.72
858.27	1632.23
858.43	1708.01
858.60	1632.23
858.77	1540.07
858.94	1669.09
859.11	1773.54
859.27	1675.24
859.44	1712.10
859.61	1857.51
859.78	1701.86
859.95	1615.85
860.12	1646.57
860.28	1746.92
860.45	1783.78
860.62	1685.48
860.79	1730.53
860.95	1634.28
861.12	1662.95
861.29	1624.04
861.46	1644.52
861.63	1648.61
861.79	1722.34
861.96	1621.99
862.13	1636.33
862.30	1785.83
862.47	1677.29
862.63	1638.38
862.80	1746.92
862.97	1732.58
863.14	1658.85
863.30	1744.87
863.47	1687.53
863.64	1789.92
863.81	1691.62
863.97	1689.57
864.14	1699.81
864.31	1626.09
864.48	1728.49
864.65	1581.03
864.81	1755.11
864.98	1726.44
865.15	1740.77
865.32	1728.49
865.48	1691.62
865.65	1757.16
865.82	1697.77
865.98	1650.66
866.15	1697.77
866.32	1742.82
866.49	1669.09
866.65	1712.10
866.82	1646.57
866.99	1630.18
867.16	1644.52
867.32	1644.52
867.49	1662.95
867.66	1638.38
867.83	1691.62
867.99	1576.94
868.16	1656.81
868.33	1550.31
868.49	1691.62
868.66	1708.01
868.83	1857.51
868.99	1839.08
869.16	1699.81
869.33	1751.01
869.50	1660.90
869.66	1726.44
869.83	1710.05
870.00	1640.42
870.16	1685.48
870.33	1617.90
870.50	1767.40
870.66	1728.49
870.83	1845.22
871.00	1683.43
871.17	1738.73
871.33	1783.78
871.50	1658.85
871.67	1763.30
871.83	1615.85
872.00	1773.54
872.17	1642.47
872.33	1783.78
872.50	1783.78
872.67	1640.42
872.83	1642.47
873.00	1755.11
873.17	1673.19
873.33	1691.62
873.50	1742.82
873.67	1714.15
873.83	1667.05
874.00	1689.57
874.16	1712.10
874.33	1689.57
874.50	1630.18
874.66	1708.01
874.83	1746.92
875.00	1839.08
875.16	1728.49
875.33	1748.97
875.50	1650.66
875.66	1665.00
875.83	1691.62
875.99	1734.63
876.16	1646.57
876.33	1636.33
876.49	1673.19
876.66	1736.68
876.83	1656.81
876.99	1558.50
877.16	1683.43
877.32	1734.63
877.49	1755.11
877.66	1705.96
877.82	1775.59
877.99	1636.33
878.15	1722.34
878.32	1751.01
878.49	1667.05
878.65	1683.43
878.82	1781.73
878.98	1599.46
879.15	1697.77
879.32	1820.64
879.48	1728.49
879.65	1683.43
879.81	1624.04
879.98	1558.50
880.15	1722.34
880.31	1697.77
880.48	1619.94
880.64	1718.25
880.81	1701.86
880.97	1773.54
881.14	1787.88
881.31	1570.79
881.47	1781.73
881.64	1652.71
881.80	1542.12
881.97	1685.48
882.13	1734.63
882.30	1654.76
882.47	1626.09
882.63	1660.90
882.80	1679.33
882.96	1636.33
883.13	1761.25
883.29	1724.39
883.46	1675.24
883.62	1783.78
883.79	1703.91
883.95	1703.91
884.12	1662.95
884.29	1777.64
884.45	1755.11
884.62	1753.06
884.78	1708.01
884.95	1775.59
885.11	1632.23
885.28	1761.25
885.44	1724.39
885.61	1695.72
885.77	1734.63
885.94	1658.85
886.10	1712.10
886.27	1677.29
886.43	1789.92
886.60	1748.97
886.76	1650.66
886.93	1665.00
887.09	1734.63
887.26	1552.36
887.42	1697.77
887.59	1753.06
887.75	1839.08
887.92	1736.68
888.08	1775.59
888.25	1667.05
888.41	1697.77
888.58	1671.14
888.74	1624.04
888.91	1710.05
>>>>>End Processed Spectral Data<<<<<
