SpectraSuite Data File
++++++++++++++++++++++++++++++++++++
Date: Mon Jun 06 15:06:17 CEST 2016
User: root
Dark Spectrum Present: No
Reference Spectrum Present: No
Number of Sampled Component Spectra: 1
Spectrometers: USB4C02835
Integration Time (usec): 100000 (USB4C02835)
Spectra Averaged: 1 (USB4C02835)
Boxcar Smoothing: 0 (USB4C02835)
Correct for Electrical Dark: No (USB4C02835)
Strobe/Lamp Enabled: No (USB4C02835)
Correct for Detector Non-linearity: No (USB4C02835)
Correct for Stray Light: No (USB4C02835)
Number of Pixels in Processed Spectrum: 3648
>>>>>Begin Processed Spectral Data<<<<<
177.47	1452.01
177.69	1452.01
177.91	1452.01
178.13	1435.63
178.36	1468.39
178.58	1607.66
178.80	1796.07
179.02	1687.53
179.24	1642.47
179.46	1687.53
179.68	1738.73
179.90	1703.91
180.13	1720.29
180.35	1673.19
180.57	1665.00
180.79	1738.73
181.01	1681.38
181.23	1767.40
181.45	1779.68
181.67	1677.29
181.90	1708.01
182.12	1675.24
182.34	1691.62
182.56	1665.00
182.78	1734.63
183.00	1759.21
183.22	1714.15
183.44	1597.42
183.66	1783.78
183.89	1791.97
184.11	1699.81
184.33	1718.25
184.55	1806.31
184.77	1701.86
184.99	1742.82
185.21	1644.52
185.43	1832.93
185.65	1740.77
185.87	1669.09
186.10	1857.51
186.32	1816.55
186.54	1716.20
186.76	1683.43
186.98	1708.01
187.20	1683.43
187.42	1660.90
187.64	1710.05
187.86	1726.44
188.08	1740.77
188.30	1654.76
188.52	1665.00
188.75	1877.99
188.97	1767.40
189.19	1640.42
189.41	1728.49
189.63	1673.19
189.85	1656.81
190.07	1677.29
190.29	1585.13
190.51	1718.25
190.73	1705.96
190.95	1722.34
191.17	1642.47
191.39	1603.56
191.61	1658.85
191.84	1662.95
192.06	1730.53
192.28	1636.33
192.50	1902.56
192.72	1669.09
192.94	1732.58
193.16	1832.93
193.38	1714.15
193.60	1626.09
193.82	1685.48
194.04	1765.35
194.26	1710.05
194.48	1710.05
194.70	1673.19
194.92	1767.40
195.14	1775.59
195.36	1667.05
195.58	1714.15
195.80	1697.77
196.02	1654.76
196.24	1677.29
196.46	1654.76
196.69	1642.47
196.91	1820.64
197.13	1728.49
197.35	1669.09
197.57	1802.21
197.79	1638.38
198.01	1714.15
198.23	1714.15
198.45	1748.97
198.67	1630.18
198.89	1703.91
199.11	1732.58
199.33	1665.00
199.55	1597.42
199.77	1679.33
199.99	1808.36
200.21	1665.00
200.43	1681.38
200.65	1669.09
200.87	1607.66
201.09	1763.30
201.31	1603.56
201.53	1808.36
201.75	1710.05
201.97	1738.73
202.19	1667.05
202.41	1765.35
202.63	1816.55
202.85	1751.01
203.07	1757.16
203.29	1685.48
203.51	1708.01
203.73	1675.24
203.95	1855.46
204.17	1738.73
204.39	1671.14
204.61	1679.33
204.83	1697.77
205.05	1699.81
205.27	1753.06
205.49	1859.56
205.71	1634.28
205.93	1656.81
206.15	1687.53
206.37	1669.09
206.59	1724.39
206.81	1679.33
207.03	1617.90
207.25	1619.94
207.47	1730.53
207.69	1658.85
207.91	1804.26
208.13	1753.06
208.34	1683.43
208.56	1613.80
208.78	1714.15
209.00	1603.56
209.22	1695.72
209.44	1652.71
209.66	1669.09
209.88	1675.24
210.10	1656.81
210.32	1755.11
210.54	1783.78
210.76	1746.92
210.98	1763.30
211.20	1605.61
211.42	1771.49
211.64	1798.12
211.86	1732.58
212.08	1804.26
212.30	1802.21
212.52	1693.67
212.74	1693.67
212.96	1679.33
213.17	1796.07
213.39	1785.83
213.61	1798.12
213.83	1607.66
214.05	1574.89
214.27	1728.49
214.49	1550.31
214.71	1603.56
214.93	1755.11
215.15	1632.23
215.37	1783.78
215.59	1703.91
215.81	1689.57
216.03	1757.16
216.24	1779.68
216.46	1755.11
216.68	1732.58
216.90	1808.36
217.12	1757.16
217.34	1644.52
217.56	1712.10
217.78	1703.91
218.00	1701.86
218.22	1714.15
218.44	1722.34
218.66	1703.91
218.87	1763.30
219.09	1632.23
219.31	1753.06
219.53	1732.58
219.75	1681.38
219.97	1671.14
220.19	1656.81
220.41	1701.86
220.63	1816.55
220.85	1644.52
221.06	1650.66
221.28	1740.77
221.50	1714.15
221.72	1730.53
221.94	1726.44
222.16	1593.32
222.38	1720.29
222.60	1781.73
222.82	1677.29
223.03	1742.82
223.25	1677.29
223.47	1796.07
223.69	1845.22
223.91	1708.01
224.13	1662.95
224.35	1638.38
224.57	1724.39
224.78	1773.54
225.00	1708.01
225.22	1677.29
225.44	1693.67
225.66	1769.44
225.88	1675.24
226.10	1806.31
226.32	1740.77
226.53	1779.68
226.75	1648.61
226.97	1716.20
227.19	1658.85
227.41	1607.66
227.63	1722.34
227.85	1644.52
228.06	1742.82
228.28	1701.86
228.50	1834.98
228.72	1632.23
228.94	1585.13
229.16	1617.90
229.37	1636.33
229.59	1658.85
229.81	1755.11
230.03	1767.40
230.25	1681.38
230.47	1613.80
230.69	1593.32
230.90	1724.39
231.12	1720.29
231.34	1679.33
231.56	1787.88
231.78	1687.53
232.00	1777.64
232.21	1703.91
232.43	1642.47
232.65	1562.60
232.87	1728.49
233.09	1632.23
233.30	1613.80
233.52	1748.97
233.74	1650.66
233.96	1665.00
234.18	1722.34
234.40	1734.63
234.61	1849.32
234.83	1601.51
235.05	1701.86
235.27	1837.03
235.49	1763.30
235.70	1689.57
235.92	1839.08
236.14	1693.67
236.36	1863.65
236.58	1710.05
236.79	1763.30
237.01	1669.09
237.23	1773.54
237.45	1855.46
237.67	1679.33
237.88	1701.86
238.10	1736.68
238.32	1671.14
238.54	1716.20
238.76	1675.24
238.97	1648.61
239.19	1675.24
239.41	1861.60
239.63	1673.19
239.85	1669.09
240.06	1626.09
240.28	1644.52
240.50	1724.39
240.72	1705.96
240.93	1658.85
241.15	1755.11
241.37	1654.76
241.59	1744.87
241.81	1617.90
242.02	1744.87
242.24	1712.10
242.46	1701.86
242.68	1744.87
242.89	1718.25
243.11	1724.39
243.33	1638.38
243.55	1783.78
243.76	1718.25
243.98	1667.05
244.20	1712.10
244.42	1689.57
244.64	1722.34
244.85	1644.52
245.07	1705.96
245.29	1681.38
245.51	1624.04
245.72	1714.15
245.94	1763.30
246.16	1675.24
246.38	1708.01
246.59	1665.00
246.81	1667.05
247.03	1652.71
247.24	1591.27
247.46	1650.66
247.68	1742.82
247.90	1722.34
248.11	1687.53
248.33	1785.83
248.55	1669.09
248.77	1724.39
248.98	1800.16
249.20	1787.88
249.42	1730.53
249.64	1656.81
249.85	1638.38
250.07	1564.65
250.29	1732.58
250.50	1734.63
250.72	1609.70
250.94	1746.92
251.16	1826.79
251.37	1691.62
251.59	1626.09
251.81	1697.77
252.02	1791.97
252.24	1677.29
252.46	1755.11
252.68	1589.22
252.89	1677.29
253.11	1662.95
253.33	1832.93
253.54	1820.64
253.76	1632.23
253.98	1767.40
254.20	1691.62
254.41	1599.46
254.63	1718.25
254.85	1605.61
255.06	1726.44
255.28	1708.01
255.50	1683.43
255.71	1726.44
255.93	1621.99
256.15	1714.15
256.36	1763.30
256.58	1705.96
256.80	1812.45
257.02	1691.62
257.23	1718.25
257.45	1679.33
257.67	1763.30
257.88	1638.38
258.10	1695.72
258.32	1705.96
258.53	1699.81
258.75	1734.63
258.97	1617.90
259.18	1822.69
259.40	1722.34
259.62	1783.78
259.83	1830.88
260.05	1656.81
260.27	1982.43
260.48	1818.60
260.70	1708.01
260.92	1646.57
261.13	1630.18
261.35	1757.16
261.57	1759.21
261.78	1587.18
262.00	1599.46
262.22	1705.96
262.43	1677.29
262.65	1624.04
262.86	1781.73
263.08	1871.84
263.30	1681.38
263.51	1642.47
263.73	1722.34
263.95	1775.59
264.16	1636.33
264.38	1648.61
264.60	1738.73
264.81	1665.00
265.03	1775.59
265.25	1693.67
265.46	1662.95
265.68	1683.43
265.89	1759.21
266.11	1665.00
266.33	1701.86
266.54	1769.44
266.76	1730.53
266.98	1722.34
267.19	1773.54
267.41	1812.45
267.62	1652.71
267.84	1587.18
268.06	1730.53
268.27	1728.49
268.49	1738.73
268.70	1777.64
268.92	1726.44
269.14	1628.14
269.35	1673.19
269.57	1708.01
269.79	1714.15
270.00	1656.81
270.22	1814.50
270.43	1607.66
270.65	1570.79
270.87	1665.00
271.08	1710.05
271.30	1726.44
271.51	1738.73
271.73	1716.20
271.95	1732.58
272.16	1636.33
272.38	1685.48
272.59	1705.96
272.81	1722.34
273.02	1728.49
273.24	1703.91
273.46	1710.05
273.67	1615.85
273.89	1701.86
274.10	1689.57
274.32	1748.97
274.54	1742.82
274.75	1712.10
274.97	1658.85
275.18	1736.68
275.40	1769.44
275.61	1693.67
275.83	1648.61
276.05	1667.05
276.26	1656.81
276.48	1697.77
276.69	1673.19
276.91	1693.67
277.12	1771.49
277.34	1744.87
277.55	1691.62
277.77	1691.62
277.99	1673.19
278.20	1699.81
278.42	1699.81
278.63	1658.85
278.85	1689.57
279.06	1581.03
279.28	1718.25
279.49	1683.43
279.71	1781.73
279.93	1695.72
280.14	1714.15
280.36	1703.91
280.57	1751.01
280.79	1751.01
281.00	1683.43
281.22	1779.68
281.43	1755.11
281.65	1613.80
281.86	1673.19
282.08	1730.53
282.29	1781.73
282.51	1650.66
282.73	1683.43
282.94	1650.66
283.16	1787.88
283.37	1765.35
283.59	1742.82
283.80	1761.25
284.02	1671.14
284.23	1740.77
284.45	1665.00
284.66	1697.77
284.88	1701.86
285.09	1755.11
285.31	1744.87
285.52	1673.19
285.74	1656.81
285.95	1771.49
286.17	1781.73
286.38	1763.30
286.60	1644.52
286.81	1660.90
287.03	1714.15
287.24	1677.29
287.46	1757.16
287.67	1675.24
287.89	1830.88
288.10	1714.15
288.32	1779.68
288.53	1773.54
288.75	1667.05
288.96	1812.45
289.18	1665.00
289.39	1714.15
289.61	1783.78
289.82	1810.40
290.04	1724.39
290.25	1673.19
290.47	1689.57
290.68	1636.33
290.90	1714.15
291.11	1673.19
291.33	1796.07
291.54	1675.24
291.76	1685.48
291.97	1830.88
292.18	1728.49
292.40	1658.85
292.61	1673.19
292.83	1781.73
293.04	1757.16
293.26	1730.53
293.47	1669.09
293.69	1621.99
293.90	1638.38
294.12	1800.16
294.33	1714.15
294.55	1683.43
294.76	1753.06
294.97	1746.92
295.19	1818.60
295.40	1742.82
295.62	1693.67
295.83	1755.11
296.05	1644.52
296.26	1777.64
296.48	1656.81
296.69	1732.58
296.90	1720.29
297.12	1689.57
297.33	1763.30
297.55	1648.61
297.76	1673.19
297.98	1736.68
298.19	1716.20
298.41	1644.52
298.62	1667.05
298.83	1763.30
299.05	1759.21
299.26	1599.46
299.48	1708.01
299.69	1742.82
299.90	1763.30
300.12	1636.33
300.33	1748.97
300.55	1724.39
300.76	1777.64
300.98	1691.62
301.19	1767.40
301.40	1621.99
301.62	1646.57
301.83	1757.16
302.05	1679.33
302.26	1722.34
302.47	1665.00
302.69	1660.90
302.90	1736.68
303.12	1626.09
303.33	1769.44
303.54	1875.94
303.76	1624.04
303.97	1699.81
304.19	1763.30
304.40	1693.67
304.61	1718.25
304.83	1781.73
305.04	1751.01
305.26	1787.88
305.47	1656.81
305.68	1710.05
305.90	1599.46
306.11	1730.53
306.33	1665.00
306.54	1671.14
306.75	1679.33
306.97	1648.61
307.18	1685.48
307.39	1646.57
307.61	1740.77
307.82	1679.33
308.04	1757.16
308.25	1576.94
308.46	1748.97
308.68	1642.47
308.89	1701.86
309.10	1671.14
309.32	1798.12
309.53	1693.67
309.74	1714.15
309.96	1763.30
310.17	1763.30
310.39	1710.05
310.60	1718.25
310.81	1728.49
311.03	1660.90
311.24	1742.82
311.45	1648.61
311.67	1755.11
311.88	1722.34
312.09	1660.90
312.31	1652.71
312.52	1703.91
312.73	1769.44
312.95	1673.19
313.16	1660.90
313.37	1746.92
313.59	1681.38
313.80	1701.86
314.01	1802.21
314.23	1701.86
314.44	1624.04
314.65	1658.85
314.87	1679.33
315.08	1636.33
315.29	1671.14
315.51	1630.18
315.72	1550.31
315.93	1771.49
316.15	1755.11
316.36	1683.43
316.57	1636.33
316.79	1808.36
317.00	1699.81
317.21	1748.97
317.43	1617.90
317.64	1621.99
317.85	1656.81
318.07	1636.33
318.28	1781.73
318.49	1769.44
318.70	1875.94
318.92	1812.45
319.13	1843.17
319.34	1851.36
319.56	1767.40
319.77	1779.68
319.98	1757.16
320.20	1851.36
320.41	1771.49
320.62	1699.81
320.83	1730.53
321.05	1880.04
321.26	1710.05
321.47	1728.49
321.69	1742.82
321.90	1617.90
322.11	1642.47
322.32	1650.66
322.54	1816.55
322.75	1660.90
322.96	1847.27
323.18	1578.98
323.39	1570.79
323.60	1642.47
323.81	1806.31
324.03	1677.29
324.24	1677.29
324.45	1703.91
324.66	1617.90
324.88	1724.39
325.09	1787.88
325.30	1722.34
325.52	1699.81
325.73	1734.63
325.94	1638.38
326.15	1660.90
326.37	1695.72
326.58	1748.97
326.79	1808.36
327.00	1665.00
327.22	1724.39
327.43	1607.66
327.64	1650.66
327.85	1746.92
328.07	1693.67
328.28	1777.64
328.49	1685.48
328.70	1669.09
328.92	1683.43
329.13	1675.24
329.34	1705.96
329.55	1804.26
329.76	1728.49
329.98	1689.57
330.19	1785.83
330.40	1685.48
330.61	1744.87
330.83	1714.15
331.04	1656.81
331.25	1683.43
331.46	1656.81
331.68	1701.86
331.89	1814.50
332.10	1748.97
332.31	1638.38
332.52	1665.00
332.74	1736.68
332.95	1716.20
333.16	1732.58
333.37	1730.53
333.58	1734.63
333.80	1677.29
334.01	1624.04
334.22	1648.61
334.43	1611.75
334.64	1669.09
334.86	1654.76
335.07	1669.09
335.28	1798.12
335.49	1617.90
335.70	1705.96
335.92	1753.06
336.13	1808.36
336.34	1748.97
336.55	1705.96
336.76	1673.19
336.98	1722.34
337.19	1591.27
337.40	1697.77
337.61	1816.55
337.82	1607.66
338.04	1761.25
338.25	1667.05
338.46	1755.11
338.67	1714.15
338.88	1665.00
339.09	1681.38
339.31	1648.61
339.52	1630.18
339.73	1599.46
339.94	1656.81
340.15	1695.72
340.36	1660.90
340.58	1722.34
340.79	1695.72
341.00	1724.39
341.21	1658.85
341.42	1787.88
341.63	1585.13
341.85	1712.10
342.06	1746.92
342.27	1701.86
342.48	1767.40
342.69	1601.51
342.90	1710.05
343.12	1603.56
343.33	1652.71
343.54	1748.97
343.75	1742.82
343.96	1671.14
344.17	1673.19
344.38	1765.35
344.60	1656.81
344.81	1720.29
345.02	1619.94
345.23	1755.11
345.44	1789.92
345.65	1753.06
345.86	1689.57
346.07	1691.62
346.29	1632.23
346.50	1785.83
346.71	1726.44
346.92	1763.30
347.13	1853.41
347.34	1662.95
347.55	1669.09
347.76	1722.34
347.98	1652.71
348.19	1673.19
348.40	1791.97
348.61	1632.23
348.82	1751.01
349.03	1712.10
349.24	1693.67
349.45	1751.01
349.66	1593.32
349.88	1740.77
350.09	1689.57
350.30	1724.39
350.51	1789.92
350.72	1708.01
350.93	1785.83
351.14	1644.52
351.35	1771.49
351.56	1656.81
351.77	1755.11
351.99	1701.86
352.20	1837.03
352.41	1755.11
352.62	1611.75
352.83	1679.33
353.04	1689.57
353.25	1718.25
353.46	1802.21
353.67	1765.35
353.88	1576.94
354.09	1728.49
354.30	1650.66
354.52	1726.44
354.73	1685.48
354.94	1652.71
355.15	1689.57
355.36	1777.64
355.57	1681.38
355.78	1755.11
355.99	1681.38
356.20	1656.81
356.41	1669.09
356.62	1730.53
356.83	1701.86
357.04	1832.93
357.25	1611.75
357.46	1660.90
357.68	1638.38
357.89	1693.67
358.10	1728.49
358.31	1660.90
358.52	1660.90
358.73	1607.66
358.94	1693.67
359.15	1662.95
359.36	1708.01
359.57	1650.66
359.78	1728.49
359.99	1791.97
360.20	1740.77
360.41	1605.61
360.62	1751.01
360.83	1646.57
361.04	1738.73
361.25	1738.73
361.46	1820.64
361.67	1763.30
361.88	1742.82
362.09	1722.34
362.30	1673.19
362.51	1652.71
362.72	1742.82
362.93	1767.40
363.14	1724.39
363.35	1685.48
363.56	1693.67
363.78	1751.01
363.99	1753.06
364.20	1644.52
364.41	1748.97
364.62	1806.31
364.83	1794.02
365.04	1652.71
365.25	1695.72
365.46	1751.01
365.67	1679.33
365.88	1669.09
366.09	1718.25
366.30	1744.87
366.51	1656.81
366.72	1656.81
366.93	1624.04
367.14	1611.75
367.35	1787.88
367.56	1699.81
367.77	1720.29
367.98	1689.57
368.18	1673.19
368.39	1714.15
368.60	1603.56
368.81	1804.26
369.02	1730.53
369.23	1751.01
369.44	1658.85
369.65	1714.15
369.86	1736.68
370.07	1757.16
370.28	1683.43
370.49	1724.39
370.70	1746.92
370.91	1656.81
371.12	1642.47
371.33	1775.59
371.54	1673.19
371.75	1818.60
371.96	1630.18
372.17	1687.53
372.38	1712.10
372.59	1767.40
372.80	1765.35
373.01	1624.04
373.22	1650.66
373.43	1724.39
373.64	1589.22
373.85	1800.16
374.06	1841.12
374.26	1787.88
374.47	1683.43
374.68	1796.07
374.89	1800.16
375.10	1644.52
375.31	1734.63
375.52	1673.19
375.73	1736.68
375.94	1640.42
376.15	1800.16
376.36	1689.57
376.57	1658.85
376.78	1648.61
376.99	1746.92
377.20	1746.92
377.40	1712.10
377.61	1789.92
377.82	1687.53
378.03	1763.30
378.24	1732.58
378.45	1705.96
378.66	1730.53
378.87	1583.08
379.08	1617.90
379.29	1689.57
379.50	1691.62
379.71	1681.38
379.91	1779.68
380.12	1689.57
380.33	1720.29
380.54	1624.04
380.75	1681.38
380.96	1660.90
381.17	1751.01
381.38	1751.01
381.59	1787.88
381.80	1652.71
382.00	1839.08
382.21	1736.68
382.42	1877.99
382.63	1886.18
382.84	1763.30
383.05	1703.91
383.26	1783.78
383.47	1634.28
383.68	1753.06
383.88	1728.49
384.09	1714.15
384.30	1863.65
384.51	1763.30
384.72	1652.71
384.93	1722.34
385.14	1710.05
385.35	1849.32
385.55	1665.00
385.76	1714.15
385.97	1671.14
386.18	1632.23
386.39	1665.00
386.60	1681.38
386.81	1603.56
387.02	1640.42
387.22	1607.66
387.43	1773.54
387.64	1689.57
387.85	1886.18
388.06	2121.70
388.27	4196.29
388.48	6604.70
388.68	8085.38
388.89	9426.80
389.10	9549.68
389.31	8456.06
389.52	7323.54
389.73	6530.97
389.93	6154.15
390.14	5609.39
390.35	5179.31
390.56	4440.00
390.77	3643.34
390.98	2979.79
391.18	2430.94
391.39	2154.46
391.60	1783.78
391.81	1855.46
392.02	1689.57
392.23	1775.59
392.43	1773.54
392.64	1820.64
392.85	1740.77
393.06	1781.73
393.27	1716.20
393.47	1648.61
393.68	1759.21
393.89	1673.19
394.10	1839.08
394.31	1642.47
394.52	1660.90
394.72	1669.09
394.93	1822.69
395.14	1667.05
395.35	1720.29
395.56	1742.82
395.76	1755.11
395.97	1783.78
396.18	1841.12
396.39	1765.35
396.60	1933.28
396.80	1923.04
397.01	1863.65
397.22	1806.31
397.43	1779.68
397.64	1734.63
397.84	1837.03
398.05	1824.74
398.26	1775.59
398.47	1775.59
398.67	1781.73
398.88	1691.62
399.09	1658.85
399.30	1630.18
399.51	1720.29
399.71	1615.85
399.92	1671.14
400.13	1724.39
400.34	1710.05
400.54	1767.40
400.75	1818.60
400.96	1757.16
401.17	1806.31
401.37	1820.64
401.58	1757.16
401.79	1732.58
402.00	1820.64
402.21	2011.11
402.41	1970.15
402.62	1976.29
402.83	2082.78
403.04	1970.15
403.24	1976.29
403.45	1849.32
403.66	1880.04
403.87	1877.99
404.07	1927.14
404.28	1918.95
404.49	1851.36
404.70	1779.68
404.90	1837.03
405.11	1767.40
405.32	1689.57
405.52	1705.96
405.73	1654.76
405.94	1638.38
406.15	1636.33
406.35	1705.96
406.56	1697.77
406.77	1740.77
406.98	1677.29
407.18	1683.43
407.39	1736.68
407.60	1710.05
407.80	1779.68
408.01	1687.53
408.22	1822.69
408.43	1705.96
408.63	1734.63
408.84	1751.01
409.05	1771.49
409.25	1640.42
409.46	1701.86
409.67	1685.48
409.88	1656.81
410.08	1710.05
410.29	1746.92
410.50	1671.14
410.70	1693.67
410.91	1621.99
411.12	1714.15
411.32	1689.57
411.53	1685.48
411.74	1791.97
411.95	1830.88
412.15	1802.21
412.36	1834.98
412.57	1759.21
412.77	1828.84
412.98	1685.48
413.19	1685.48
413.39	1734.63
413.60	1734.63
413.81	1714.15
414.01	1701.86
414.22	1712.10
414.43	1703.91
414.63	1667.05
414.84	1742.82
415.05	1755.11
415.25	1660.90
415.46	1820.64
415.67	1673.19
415.87	1763.30
416.08	1761.25
416.29	1695.72
416.49	1796.07
416.70	1769.44
416.91	1693.67
417.11	1687.53
417.32	1710.05
417.53	1771.49
417.73	1697.77
417.94	1734.63
418.15	1734.63
418.35	1751.01
418.56	1738.73
418.77	1859.56
418.97	1757.16
419.18	1705.96
419.38	1699.81
419.59	1689.57
419.80	1769.44
420.00	1660.90
420.21	1738.73
420.42	1763.30
420.62	1738.73
420.83	1642.47
421.04	1728.49
421.24	1722.34
421.45	1812.45
421.65	1689.57
421.86	1652.71
422.07	1757.16
422.27	1767.40
422.48	1710.05
422.69	1611.75
422.89	1644.52
423.10	1689.57
423.30	1648.61
423.51	1722.34
423.72	1710.05
423.92	1796.07
424.13	1621.99
424.33	1681.38
424.54	1699.81
424.75	1708.01
424.95	1914.85
425.16	1677.29
425.36	1708.01
425.57	1769.44
425.78	1773.54
425.98	1687.53
426.19	1675.24
426.39	1669.09
426.60	1675.24
426.81	1810.40
427.01	1724.39
427.22	1617.90
427.42	1640.42
427.63	1701.86
427.83	1882.08
428.04	1775.59
428.25	1822.69
428.45	1789.92
428.66	1814.50
428.86	1671.14
429.07	1724.39
429.28	1755.11
429.48	1689.57
429.69	1689.57
429.89	1708.01
430.10	1681.38
430.30	1726.44
430.51	1791.97
430.71	1597.42
430.92	1722.34
431.13	1693.67
431.33	1724.39
431.54	1705.96
431.74	1865.70
431.95	1783.78
432.15	1728.49
432.36	1679.33
432.56	1763.30
432.77	1884.13
432.98	1822.69
433.18	1734.63
433.39	1675.24
433.59	1687.53
433.80	1820.64
434.00	1824.74
434.21	1615.85
434.41	1654.76
434.62	1880.04
434.82	1673.19
435.03	1703.91
435.23	1757.16
435.44	1621.99
435.64	1679.33
435.85	1746.92
436.06	1775.59
436.26	1783.78
436.47	1736.68
436.67	1658.85
436.88	1744.87
437.08	1708.01
437.29	1810.40
437.49	1730.53
437.70	1789.92
437.90	1791.97
438.11	1824.74
438.31	1779.68
438.52	1855.46
438.72	1832.93
438.93	1931.23
439.13	1804.26
439.34	1832.93
439.54	1765.35
439.75	1820.64
439.95	1775.59
440.16	1681.38
440.36	1773.54
440.57	1679.33
440.77	1771.49
440.98	1753.06
441.18	1681.38
441.39	1759.21
441.59	1705.96
441.80	1857.51
442.00	1806.31
442.21	1802.21
442.41	1675.24
442.62	1744.87
442.82	1714.15
443.02	1730.53
443.23	1779.68
443.43	1767.40
443.64	1779.68
443.84	1642.47
444.05	1769.44
444.25	1679.33
444.46	1689.57
444.66	1753.06
444.87	1783.78
445.07	1607.66
445.28	1734.63
445.48	1740.77
445.69	1724.39
445.89	1855.46
446.09	1665.00
446.30	2021.35
446.50	2629.59
446.71	3663.82
446.91	4229.06
447.12	4659.13
447.32	4786.10
447.53	4198.34
447.73	3704.78
447.93	3434.44
448.14	3319.76
448.34	3162.06
448.55	2885.59
448.75	2809.81
448.96	2676.70
449.16	2375.64
449.36	2154.46
449.57	2066.40
449.77	1980.39
449.98	1796.07
450.18	1748.97
450.39	1791.97
450.59	1849.32
450.79	1753.06
451.00	1722.34
451.20	1824.74
451.41	1722.34
451.61	1751.01
451.81	1810.40
452.02	1673.19
452.22	1685.48
452.43	1685.48
452.63	1718.25
452.84	1761.25
453.04	1736.68
453.24	1746.92
453.45	1632.23
453.65	1660.90
453.86	1765.35
454.06	1746.92
454.26	1748.97
454.47	1751.01
454.67	1841.12
454.87	1744.87
455.08	1703.91
455.28	1808.36
455.49	1736.68
455.69	1718.25
455.89	1888.23
456.10	1769.44
456.30	1648.61
456.51	1812.45
456.71	1789.92
456.91	1751.01
457.12	1722.34
457.32	1738.73
457.52	1691.62
457.73	1845.22
457.93	1775.59
458.14	1681.38
458.34	1646.57
458.54	1730.53
458.75	1673.19
458.95	1699.81
459.15	1712.10
459.36	1785.83
459.56	1794.02
459.76	1867.75
459.97	1681.38
460.17	1712.10
460.37	1748.97
460.58	1726.44
460.78	1736.68
460.99	1701.86
461.19	1734.63
461.39	1726.44
461.60	1759.21
461.80	1761.25
462.00	1662.95
462.21	1765.35
462.41	1746.92
462.61	1658.85
462.82	1599.46
463.02	1714.15
463.22	1837.03
463.43	1779.68
463.63	1734.63
463.83	1816.55
464.04	1689.57
464.24	1716.20
464.44	1742.82
464.64	1794.02
464.85	1738.73
465.05	1845.22
465.25	1716.20
465.46	1695.72
465.66	1759.21
465.86	1849.32
466.07	1714.15
466.27	1738.73
466.47	1621.99
466.68	1691.62
466.88	1841.12
467.08	1722.34
467.29	1787.88
467.49	1779.68
467.69	1681.38
467.89	1738.73
468.10	1652.71
468.30	1720.29
468.50	1751.01
468.71	1814.50
468.91	1656.81
469.11	1884.13
469.31	1701.86
469.52	1693.67
469.72	1832.93
469.92	1855.46
470.13	1722.34
470.33	1656.81
470.53	1798.12
470.73	2148.32
470.94	2291.68
471.14	2285.53
471.34	2510.81
471.54	2271.20
471.75	2156.51
471.95	2084.83
472.15	2058.21
472.36	2095.07
472.56	2068.45
472.76	2041.82
472.96	2050.02
473.17	1943.52
473.37	1933.28
473.57	1771.49
473.77	1845.22
473.98	1714.15
474.18	1695.72
474.38	1898.47
474.58	1689.57
474.79	1753.06
474.99	1791.97
475.19	1869.80
475.39	1738.73
475.60	1724.39
475.80	1691.62
476.00	1738.73
476.20	1746.92
476.41	1714.15
476.61	1814.50
476.81	1761.25
477.01	1724.39
477.21	1757.16
477.42	1775.59
477.62	1574.89
477.82	1757.16
478.02	1746.92
478.23	1771.49
478.43	1646.57
478.63	1722.34
478.83	1681.38
479.03	1685.48
479.24	1775.59
479.44	1812.45
479.64	1677.29
479.84	1595.37
480.04	1669.09
480.25	1697.77
480.45	1695.72
480.65	1738.73
480.85	1761.25
481.06	1693.67
481.26	1736.68
481.46	1720.29
481.66	1761.25
481.86	1701.86
482.06	1744.87
482.27	1730.53
482.47	1710.05
482.67	1744.87
482.87	1681.38
483.07	1748.97
483.28	1650.66
483.48	1644.52
483.68	1712.10
483.88	1673.19
484.08	1626.09
484.29	1652.71
484.49	1654.76
484.69	1753.06
484.89	1832.93
485.09	1755.11
485.29	1736.68
485.50	1763.30
485.70	1677.29
485.90	1869.80
486.10	1660.90
486.30	1697.77
486.50	1714.15
486.71	1724.39
486.91	1742.82
487.11	1720.29
487.31	1726.44
487.51	1728.49
487.71	1730.53
487.91	1722.34
488.12	1652.71
488.32	1628.14
488.52	1689.57
488.72	1705.96
488.92	1669.09
489.12	1775.59
489.32	1708.01
489.53	1781.73
489.73	1587.18
489.93	1765.35
490.13	1630.18
490.33	1634.28
490.53	1787.88
490.73	1791.97
490.94	1695.72
491.14	1738.73
491.34	1837.03
491.54	2099.17
491.74	2488.28
491.94	2850.77
492.14	2981.84
492.34	2871.25
492.54	2715.61
492.75	2492.38
492.95	2428.89
493.15	2269.15
493.35	2217.95
493.55	2217.95
493.75	2078.69
493.95	2052.06
494.15	2103.26
494.35	1918.95
494.56	1867.75
494.76	1763.30
494.96	1785.83
495.16	1705.96
495.36	1624.04
495.56	1681.38
495.76	1710.05
495.96	1691.62
496.16	1705.96
496.36	1761.25
496.56	1665.00
496.77	1812.45
496.97	1683.43
497.17	1781.73
497.37	1628.14
497.57	1755.11
497.77	1679.33
497.97	1665.00
498.17	1724.39
498.37	1691.62
498.57	1785.83
498.77	1626.09
498.97	1753.06
499.17	1875.94
499.38	1748.97
499.58	1800.16
499.78	1869.80
499.98	1757.16
500.18	1720.29
500.38	1714.15
500.58	2004.96
500.78	2557.91
500.98	4446.14
501.18	5724.07
501.38	6739.87
501.58	6899.61
501.78	6563.74
501.98	5423.02
502.18	4861.88
502.38	4452.28
502.58	3946.44
502.78	3770.31
502.98	3512.27
503.18	3344.33
503.38	3143.63
503.59	2746.33
503.79	2541.53
503.99	2463.71
504.19	2303.96
504.39	2226.14
504.59	2226.14
504.79	2058.21
504.99	2025.44
505.19	1902.56
505.39	1916.90
505.59	1996.77
505.79	1812.45
505.99	1873.89
506.19	1779.68
506.39	1892.32
506.59	1693.67
506.79	1779.68
506.99	1824.74
507.19	1757.16
507.39	1685.48
507.59	1679.33
507.79	1753.06
507.99	1689.57
508.19	1714.15
508.39	1724.39
508.59	1714.15
508.79	1845.22
508.99	1837.03
509.19	1617.90
509.39	1738.73
509.59	1650.66
509.79	1683.43
509.99	1720.29
510.19	1783.78
510.39	1773.54
510.59	1695.72
510.79	1714.15
510.99	1697.77
511.19	1755.11
511.39	1863.65
511.59	1771.49
511.79	1761.25
511.99	1714.15
512.19	1773.54
512.38	1722.34
512.58	1699.81
512.78	1724.39
512.98	1800.16
513.18	1853.41
513.38	1583.08
513.58	1791.97
513.78	1679.33
513.98	1697.77
514.18	1746.92
514.38	1765.35
514.58	1751.01
514.78	1738.73
514.98	1671.14
515.18	1679.33
515.38	1746.92
515.58	1869.80
515.78	1662.95
515.98	1757.16
516.18	1761.25
516.38	1802.21
516.57	1800.16
516.77	1665.00
516.97	1718.25
517.17	1671.14
517.37	1628.14
517.57	1765.35
517.77	1681.38
517.97	1677.29
518.17	1738.73
518.37	1609.70
518.57	1703.91
518.77	1787.88
518.97	1675.24
519.16	1820.64
519.36	1738.73
519.56	1687.53
519.76	1787.88
519.96	1722.34
520.16	1800.16
520.36	1714.15
520.56	1832.93
520.76	1679.33
520.96	1628.14
521.16	1787.88
521.35	1873.89
521.55	1794.02
521.75	1734.63
521.95	1736.68
522.15	1656.81
522.35	1675.24
522.55	1673.19
522.75	1771.49
522.95	1699.81
523.14	1687.53
523.34	1777.64
523.54	1648.61
523.74	1740.77
523.94	1755.11
524.14	1714.15
524.34	1808.36
524.54	1769.44
524.73	1703.91
524.93	1738.73
525.13	1710.05
525.33	1677.29
525.53	1755.11
525.73	1816.55
525.93	1787.88
526.13	1673.19
526.32	1728.49
526.52	1736.68
526.72	1744.87
526.92	1742.82
527.12	1740.77
527.32	1599.46
527.52	1787.88
527.71	1665.00
527.91	1742.82
528.11	1593.32
528.31	1656.81
528.51	1691.62
528.71	1740.77
528.90	1828.84
529.10	1699.81
529.30	1789.92
529.50	1607.66
529.70	1673.19
529.90	1775.59
530.09	1705.96
530.29	1662.95
530.49	1732.58
530.69	1861.60
530.89	1738.73
531.09	1845.22
531.28	1732.58
531.48	1834.98
531.68	1822.69
531.88	1685.48
532.08	1808.36
532.28	1675.24
532.47	1775.59
532.67	1742.82
532.87	1681.38
533.07	1691.62
533.27	1791.97
533.46	1734.63
533.66	1779.68
533.86	1732.58
534.06	1693.67
534.26	1755.11
534.45	1751.01
534.65	1757.16
534.85	1671.14
535.05	1724.39
535.25	1669.09
535.44	1687.53
535.64	1843.17
535.84	1697.77
536.04	1761.25
536.24	1736.68
536.43	1695.72
536.63	1759.21
536.83	1705.96
537.03	1679.33
537.22	1701.86
537.42	1615.85
537.62	1746.92
537.82	1628.14
538.02	1777.64
538.21	1814.50
538.41	1920.99
538.61	1763.30
538.81	1705.96
539.00	1898.47
539.20	1638.38
539.40	1730.53
539.60	1761.25
539.79	1798.12
539.99	1734.63
540.19	1681.38
540.39	1734.63
540.58	1802.21
540.78	1748.97
540.98	1755.11
541.18	1734.63
541.37	1783.78
541.57	1695.72
541.77	1796.07
541.97	1710.05
542.16	1685.48
542.36	1712.10
542.56	1775.59
542.76	1841.12
542.95	1824.74
543.15	1798.12
543.35	1781.73
543.54	1689.57
543.74	1703.91
543.94	1802.21
544.14	1669.09
544.33	1785.83
544.53	1751.01
544.73	1648.61
544.93	1771.49
545.12	1697.77
545.32	1683.43
545.52	1753.06
545.71	1665.00
545.91	1816.55
546.11	1771.49
546.30	1660.90
546.50	1746.92
546.70	1699.81
546.90	1763.30
547.09	1640.42
547.29	1783.78
547.49	1748.97
547.68	1779.68
547.88	1683.43
548.08	1744.87
548.27	2176.99
548.47	1695.72
548.67	1652.71
548.87	1751.01
549.06	1669.09
549.26	1726.44
549.46	1767.40
549.65	1755.11
549.85	1751.01
550.05	1775.59
550.24	1705.96
550.44	1734.63
550.64	1767.40
550.83	1732.58
551.03	1796.07
551.23	1845.22
551.42	1755.11
551.62	1738.73
551.82	1632.23
552.01	1730.53
552.21	1763.30
552.41	1763.30
552.60	1837.03
552.80	1697.77
553.00	1675.24
553.19	1787.88
553.39	1853.41
553.59	1697.77
553.78	1701.86
553.98	1779.68
554.17	1722.34
554.37	1685.48
554.57	1769.44
554.76	1673.19
554.96	1699.81
555.16	1748.97
555.35	1726.44
555.55	1742.82
555.75	1769.44
555.94	1828.84
556.14	1634.28
556.33	1796.07
556.53	1734.63
556.73	1789.92
556.92	1832.93
557.12	1839.08
557.32	1740.77
557.51	1800.16
557.71	1767.40
557.90	1849.32
558.10	1837.03
558.30	1677.29
558.49	1748.97
558.69	1732.58
558.88	1755.11
559.08	1769.44
559.28	1722.34
559.47	1701.86
559.67	1736.68
559.86	1820.64
560.06	1757.16
560.26	1669.09
560.45	1820.64
560.65	1732.58
560.84	1755.11
561.04	1767.40
561.24	1751.01
561.43	1660.90
561.63	1861.60
561.82	1775.59
562.02	1804.26
562.22	1695.72
562.41	1753.06
562.61	1699.81
562.80	1642.47
563.00	1945.57
563.19	1755.11
563.39	1785.83
563.59	1753.06
563.78	1714.15
563.98	1669.09
564.17	1693.67
564.37	1636.33
564.56	1679.33
564.76	1718.25
564.96	1779.68
565.15	1730.53
565.35	1894.37
565.54	1755.11
565.74	1757.16
565.93	1691.62
566.13	1755.11
566.32	1834.98
566.52	1763.30
566.71	1689.57
566.91	1734.63
567.11	1744.87
567.30	1681.38
567.50	1783.78
567.69	1720.29
567.89	1701.86
568.08	1742.82
568.28	1781.73
568.47	1675.24
568.67	1785.83
568.86	1755.11
569.06	1736.68
569.25	1665.00
569.45	1681.38
569.64	1673.19
569.84	1767.40
570.04	1740.77
570.23	1734.63
570.43	1748.97
570.62	1671.14
570.82	1794.02
571.01	1701.86
571.21	1712.10
571.40	1732.58
571.60	1820.64
571.79	1671.14
571.99	1701.86
572.18	1691.62
572.38	1714.15
572.57	1720.29
572.77	1800.16
572.96	1845.22
573.16	1763.30
573.35	1673.19
573.55	1853.41
573.74	1783.78
573.94	1742.82
574.13	1742.82
574.33	1849.32
574.52	1800.16
574.71	1740.77
574.91	1730.53
575.10	1685.48
575.30	1603.56
575.49	1681.38
575.69	1652.71
575.88	1781.73
576.08	1710.05
576.27	1824.74
576.47	1814.50
576.66	1820.64
576.86	1796.07
577.05	1751.01
577.25	1808.36
577.44	1855.46
577.64	1734.63
577.83	1847.27
578.02	1613.80
578.22	1837.03
578.41	1849.32
578.61	1738.73
578.80	1673.19
579.00	1736.68
579.19	1796.07
579.39	1828.84
579.58	1808.36
579.77	1822.69
579.97	1834.98
580.16	1865.70
580.36	1861.60
580.55	1798.12
580.75	1791.97
580.94	1787.88
581.13	1824.74
581.33	1873.89
581.52	1761.25
581.72	1855.46
581.91	1900.52
582.11	1691.62
582.30	1718.25
582.49	1742.82
582.69	1839.08
582.88	1800.16
583.08	1767.40
583.27	1791.97
583.47	1730.53
583.66	1761.25
583.85	1736.68
584.05	1734.63
584.24	1796.07
584.44	1740.77
584.63	1814.50
584.82	1843.17
585.02	1865.70
585.21	1826.79
585.41	1789.92
585.60	1861.60
585.79	1865.70
585.99	1837.03
586.18	1769.44
586.37	2207.71
586.57	3338.19
586.76	9693.04
586.96	23797.40
587.15	33584.64
587.34	39355.82
587.54	40807.83
587.73	35444.20
587.93	25544.31
588.12	21067.45
588.31	17796.85
588.51	15859.47
588.70	14659.36
588.89	13821.74
589.09	12242.76
589.28	10782.56
589.47	9238.39
589.67	7792.52
589.86	6295.46
590.06	4874.17
590.25	3848.13
590.44	3086.29
590.64	2559.96
590.83	2289.63
591.02	2015.20
591.22	1959.91
591.41	1888.23
591.60	1884.13
591.80	1980.39
591.99	1722.34
592.18	1771.49
592.38	1892.32
592.57	1775.59
592.76	1808.36
592.96	1822.69
593.15	1744.87
593.34	1822.69
593.54	1722.34
593.73	1748.97
593.92	1822.69
594.12	1798.12
594.31	1763.30
594.50	1853.41
594.70	1724.39
594.89	1798.12
595.08	1695.72
595.28	1773.54
595.47	1974.24
595.66	1759.21
595.86	1734.63
596.05	1708.01
596.24	1742.82
596.43	1898.47
596.63	1775.59
596.82	1730.53
597.01	1751.01
597.21	1873.89
597.40	1787.88
597.59	1744.87
597.79	1685.48
597.98	1767.40
598.17	1812.45
598.36	1718.25
598.56	1771.49
598.75	1705.96
598.94	1712.10
599.14	1734.63
599.33	1679.33
599.52	1796.07
599.71	1712.10
599.91	1783.78
600.10	1767.40
600.29	1722.34
600.48	1796.07
600.68	1775.59
600.87	1789.92
601.06	1726.44
601.26	1718.25
601.45	1755.11
601.64	1724.39
601.83	1779.68
602.03	1654.76
602.22	1720.29
602.41	1802.21
602.60	1863.65
602.80	1814.50
602.99	1681.38
603.18	1669.09
603.37	1697.77
603.57	1722.34
603.76	1746.92
603.95	1763.30
604.14	1759.21
604.34	1701.86
604.53	1787.88
604.72	1806.31
604.91	1722.34
605.10	1740.77
605.30	1703.91
605.49	1869.80
605.68	1730.53
605.87	1785.83
606.07	1728.49
606.26	1714.15
606.45	1718.25
606.64	1724.39
606.84	1685.48
607.03	1746.92
607.22	1746.92
607.41	1683.43
607.60	1607.66
607.80	1808.36
607.99	1755.11
608.18	1744.87
608.37	1759.21
608.56	1703.91
608.76	1773.54
608.95	1839.08
609.14	1716.20
609.33	1748.97
609.52	1798.12
609.72	1718.25
609.91	1742.82
610.10	1730.53
610.29	1837.03
610.48	1806.31
610.68	1728.49
610.87	1665.00
611.06	1814.50
611.25	1689.57
611.44	1826.79
611.63	1734.63
611.83	1775.59
612.02	1646.57
612.21	1796.07
612.40	1634.28
612.59	1656.81
612.79	1691.62
612.98	1726.44
613.17	1777.64
613.36	1783.78
613.55	1822.69
613.74	1689.57
613.93	1773.54
614.13	1753.06
614.32	1728.49
614.51	1720.29
614.70	1730.53
614.89	1615.85
615.08	1761.25
615.28	2090.98
615.47	1632.23
615.66	1798.12
615.85	1703.91
616.04	1806.31
616.23	1693.67
616.42	1714.15
616.62	1738.73
616.81	1734.63
617.00	1722.34
617.19	1724.39
617.38	1716.20
617.57	1890.28
617.76	1691.62
617.95	1681.38
618.15	1806.31
618.34	1767.40
618.53	1603.56
618.72	1791.97
618.91	1820.64
619.10	1896.42
619.29	1740.77
619.48	1806.31
619.68	1669.09
619.87	1683.43
620.06	1652.71
620.25	1781.73
620.44	1779.68
620.63	1787.88
620.82	1753.06
621.01	1746.92
621.20	1677.29
621.39	1701.86
621.59	1732.58
621.78	1722.34
621.97	1681.38
622.16	1783.78
622.35	1703.91
622.54	1841.12
622.73	1814.50
622.92	1681.38
623.11	1804.26
623.30	1708.01
623.49	1791.97
623.68	1722.34
623.88	1738.73
624.07	1687.53
624.26	1714.15
624.45	1658.85
624.64	1693.67
624.83	1765.35
625.02	1652.71
625.21	1740.77
625.40	1740.77
625.59	1761.25
625.78	1730.53
625.97	1703.91
626.16	1800.16
626.35	1730.53
626.54	1689.57
626.74	1820.64
626.93	1726.44
627.12	1648.61
627.31	1726.44
627.50	1712.10
627.69	1796.07
627.88	1695.72
628.07	1728.49
628.26	1662.95
628.45	1656.81
628.64	1730.53
628.83	1724.39
629.02	1677.29
629.21	1755.11
629.40	1697.77
629.59	1617.90
629.78	1710.05
629.97	1656.81
630.16	1697.77
630.35	1728.49
630.54	1726.44
630.73	1638.38
630.92	1742.82
631.11	1683.43
631.30	1708.01
631.49	1753.06
631.68	1691.62
631.87	1714.15
632.06	1648.61
632.25	1875.94
632.44	1763.30
632.63	1714.15
632.82	1681.38
633.01	1701.86
633.20	1591.27
633.39	1726.44
633.58	1648.61
633.77	1675.24
633.96	1759.21
634.15	1742.82
634.34	1742.82
634.53	1763.30
634.72	1654.76
634.91	1632.23
635.10	1710.05
635.29	1746.92
635.48	1726.44
635.67	1718.25
635.86	1669.09
636.05	1798.12
636.24	1769.44
636.43	1753.06
636.62	1691.62
636.81	1609.70
637.00	1722.34
637.19	1759.21
637.38	1632.23
637.57	1638.38
637.76	1710.05
637.95	1662.95
638.14	1718.25
638.33	1734.63
638.52	1714.15
638.71	1652.71
638.89	1650.66
639.08	1853.41
639.27	1744.87
639.46	1656.81
639.65	1718.25
639.84	1791.97
640.03	1773.54
640.22	1667.05
640.41	1783.78
640.60	1691.62
640.79	1673.19
640.98	1683.43
641.17	1759.21
641.36	1767.40
641.55	1675.24
641.74	1605.61
641.92	1691.62
642.11	1732.58
642.30	1671.14
642.49	1753.06
642.68	1699.81
642.87	1724.39
643.06	1748.97
643.25	1720.29
643.44	1705.96
643.63	1744.87
643.82	1697.77
644.00	1716.20
644.19	1708.01
644.38	1617.90
644.57	1724.39
644.76	1714.15
644.95	1734.63
645.14	1665.00
645.33	1636.33
645.52	1673.19
645.71	1708.01
645.89	1701.86
646.08	1714.15
646.27	1802.21
646.46	1755.11
646.65	1632.23
646.84	1726.44
647.03	1703.91
647.22	1757.16
647.40	1779.68
647.59	1705.96
647.78	1630.18
647.97	1570.79
648.16	1683.43
648.35	1789.92
648.54	1761.25
648.73	1699.81
648.91	1689.57
649.10	1779.68
649.29	1703.91
649.48	1640.42
649.67	1669.09
649.86	1775.59
650.05	1644.52
650.23	1691.62
650.42	1593.32
650.61	1789.92
650.80	1716.20
650.99	1824.74
651.18	1722.34
651.36	1814.50
651.55	1679.33
651.74	1767.40
651.93	1656.81
652.12	1744.87
652.31	1736.68
652.49	1759.21
652.68	1689.57
652.87	1783.78
653.06	1726.44
653.25	1849.32
653.44	1746.92
653.62	1824.74
653.81	1769.44
654.00	1755.11
654.19	1738.73
654.38	1871.84
654.56	1785.83
654.75	1669.09
654.94	1804.26
655.13	1765.35
655.32	1748.97
655.51	1853.41
655.69	1691.62
655.88	1804.26
656.07	1617.90
656.26	1705.96
656.45	1710.05
656.63	1716.20
656.82	1738.73
657.01	1697.77
657.20	1650.66
657.38	1724.39
657.57	1746.92
657.76	1673.19
657.95	1791.97
658.14	1628.14
658.32	1757.16
658.51	1705.96
658.70	1769.44
658.89	1685.48
659.08	1744.87
659.26	1812.45
659.45	1705.96
659.64	1763.30
659.83	1697.77
660.01	1882.08
660.20	1732.58
660.39	1841.12
660.58	1589.22
660.76	1769.44
660.95	1656.81
661.14	1771.49
661.33	1667.05
661.51	1683.43
661.70	1695.72
661.89	1726.44
662.08	1685.48
662.26	1708.01
662.45	1642.47
662.64	1800.16
662.83	1771.49
663.01	1689.57
663.20	1675.24
663.39	1806.31
663.58	1740.77
663.76	1708.01
663.95	1787.88
664.14	1695.72
664.32	1607.66
664.51	1652.71
664.70	1591.27
664.89	1787.88
665.07	1755.11
665.26	1714.15
665.45	1648.61
665.64	1783.78
665.82	1730.53
666.01	1744.87
666.20	1619.94
666.38	1767.40
666.57	1949.67
666.76	2213.85
666.95	4503.48
667.13	10243.94
667.32	14860.06
667.51	17225.47
667.69	18544.36
667.88	17170.17
668.07	11962.19
668.25	9273.20
668.44	7960.45
668.63	7251.86
668.81	6606.75
669.00	6131.62
669.19	5699.50
669.38	5099.44
669.56	4493.24
669.75	3962.82
669.94	3473.36
670.12	2854.87
670.31	2504.67
670.50	2263.01
670.68	2027.49
670.87	1839.08
671.06	1794.02
671.24	1834.98
671.43	1863.65
671.62	1730.53
671.80	1683.43
671.99	1802.21
672.18	1722.34
672.36	1765.35
672.55	1742.82
672.74	1769.44
672.92	1687.53
673.11	1746.92
673.29	1757.16
673.48	1746.92
673.67	1742.82
673.85	1828.84
674.04	1669.09
674.23	1738.73
674.41	1839.08
674.60	1621.99
674.79	1630.18
674.97	1597.42
675.16	1689.57
675.34	1779.68
675.53	1685.48
675.72	1734.63
675.90	1767.40
676.09	1683.43
676.28	1763.30
676.46	1624.04
676.65	1716.20
676.83	1681.38
677.02	1734.63
677.21	1679.33
677.39	1744.87
677.58	1716.20
677.77	1710.05
677.95	1671.14
678.14	1716.20
678.32	1652.71
678.51	1665.00
678.70	1804.26
678.88	1689.57
679.07	1763.30
679.25	1673.19
679.44	1683.43
679.63	1626.09
679.81	1718.25
680.00	1771.49
680.18	1777.64
680.37	1920.99
680.55	1714.15
680.74	1675.24
680.93	1597.42
681.11	1769.44
681.30	1701.86
681.48	1748.97
681.67	1714.15
681.85	1693.67
682.04	1724.39
682.23	1791.97
682.41	1734.63
682.60	1642.47
682.78	1742.82
682.97	1677.29
683.15	1671.14
683.34	1724.39
683.53	1826.79
683.71	1662.95
683.90	1824.74
684.08	1783.78
684.27	1701.86
684.45	1767.40
684.64	1755.11
684.82	1794.02
685.01	1755.11
685.19	1658.85
685.38	1716.20
685.57	1705.96
685.75	1656.81
685.94	1615.85
686.12	1697.77
686.31	1685.48
686.49	1841.12
686.68	1578.98
686.86	1755.11
687.05	1681.38
687.23	1740.77
687.42	1806.31
687.60	1648.61
687.79	1751.01
687.97	1865.70
688.16	1738.73
688.34	1693.67
688.53	1617.90
688.71	1779.68
688.90	1832.93
689.08	1681.38
689.27	1591.27
689.45	1777.64
689.64	1685.48
689.82	1761.25
690.01	1693.67
690.19	1757.16
690.38	1697.77
690.56	1710.05
690.75	1636.33
690.93	1595.37
691.12	1675.24
691.30	1740.77
691.49	1609.70
691.67	1701.86
691.86	1853.41
692.04	1613.80
692.23	1665.00
692.41	1701.86
692.60	1894.37
692.78	1767.40
692.97	1679.33
693.15	1669.09
693.34	1843.17
693.52	1726.44
693.71	1681.38
693.89	1697.77
694.08	1595.37
694.26	1775.59
694.44	1783.78
694.63	1832.93
694.81	1650.66
695.00	1660.90
695.18	1654.76
695.37	1826.79
695.55	1783.78
695.74	1681.38
695.92	1687.53
696.10	1800.16
696.29	1632.23
696.47	1673.19
696.66	1605.61
696.84	1650.66
697.03	1746.92
697.21	1789.92
697.40	2387.93
697.58	1839.08
697.76	1701.86
697.95	1693.67
698.13	1642.47
698.32	1767.40
698.50	1769.44
698.68	1775.59
698.87	1755.11
699.05	1828.84
699.24	1683.43
699.42	1671.14
699.61	1734.63
699.79	1746.92
699.97	1759.21
700.16	1648.61
700.34	1615.85
700.53	1742.82
700.71	1796.07
700.89	1810.40
701.08	1730.53
701.26	1748.97
701.45	2056.16
701.63	1675.24
701.81	1679.33
702.00	1615.85
702.18	1703.91
702.37	1642.47
702.55	1738.73
702.73	1699.81
702.92	1677.29
703.10	1722.34
703.28	1675.24
703.47	1650.66
703.65	1759.21
703.84	1738.73
704.02	1630.18
704.20	1849.32
704.39	1632.23
704.57	1748.97
704.75	1775.59
704.94	1738.73
705.12	1767.40
705.30	1759.21
705.49	2277.34
705.67	4259.78
705.86	8992.63
706.04	12296.00
706.22	14104.36
706.41	14798.62
706.59	13219.64
706.77	9172.85
706.96	7274.38
707.14	6545.31
707.32	5816.23
707.51	5367.73
707.69	4779.96
707.87	4016.07
708.06	3489.74
708.24	2975.70
708.42	2394.08
708.61	2148.32
708.79	1920.99
708.97	1847.27
709.16	1851.36
709.34	1812.45
709.52	1738.73
709.71	1714.15
709.89	1734.63
710.07	1654.76
710.26	1617.90
710.44	1691.62
710.62	1796.07
710.80	1662.95
710.99	1753.06
711.17	1771.49
711.35	1658.85
711.54	1703.91
711.72	1763.30
711.90	1685.48
712.09	1718.25
712.27	1667.05
712.45	1738.73
712.63	1656.81
712.82	1701.86
713.00	1689.57
713.18	1697.77
713.37	1771.49
713.55	1695.72
713.73	1722.34
713.91	1716.20
714.10	1697.77
714.28	1685.48
714.46	1757.16
714.65	1779.68
714.83	1746.92
715.01	1632.23
715.19	1763.30
715.38	1710.05
715.56	1722.34
715.74	1681.38
715.92	1665.00
716.11	1785.83
716.29	1542.12
716.47	1652.71
716.65	1669.09
716.84	1613.80
717.02	1798.12
717.20	1615.85
717.38	1607.66
717.57	1732.58
717.75	1757.16
717.93	1646.57
718.11	1701.86
718.30	1677.29
718.48	1732.58
718.66	1755.11
718.84	1787.88
719.03	1710.05
719.21	1677.29
719.39	1779.68
719.57	1724.39
719.75	1714.15
719.94	1660.90
720.12	1662.95
720.30	1763.30
720.48	1697.77
720.67	1632.23
720.85	1609.70
721.03	1675.24
721.21	1701.86
721.39	1787.88
721.58	1740.77
721.76	1669.09
721.94	1751.01
722.12	1781.73
722.30	1798.12
722.49	1642.47
722.67	1681.38
722.85	1785.83
723.03	1714.15
723.21	1708.01
723.40	1703.91
723.58	1716.20
723.76	1730.53
723.94	1783.78
724.12	1685.48
724.30	1775.59
724.49	1695.72
724.67	1691.62
724.85	1822.69
725.03	1638.38
725.21	1708.01
725.40	1742.82
725.58	1685.48
725.76	1738.73
725.94	1777.64
726.12	1560.55
726.30	1748.97
726.49	1734.63
726.67	1660.90
726.85	1773.54
727.03	1759.21
727.21	2185.18
727.39	2877.40
727.57	3801.03
727.76	4140.99
727.94	4417.47
728.12	4319.17
728.30	3565.51
728.48	2899.92
728.66	2551.77
728.84	2502.62
729.03	2267.10
729.21	2166.75
729.39	2025.44
729.57	1847.27
729.75	1832.93
729.93	1814.50
730.11	1665.00
730.30	1697.77
730.48	1730.53
730.66	1771.49
730.84	1742.82
731.02	1734.63
731.20	1732.58
731.38	1642.47
731.56	1624.04
731.74	1624.04
731.93	1779.68
732.11	1701.86
732.29	1728.49
732.47	1775.59
732.65	1714.15
732.83	1789.92
733.01	1771.49
733.19	1669.09
733.37	1781.73
733.56	1765.35
733.74	1648.61
733.92	1777.64
734.10	1685.48
734.28	1677.29
734.46	1560.55
734.64	1656.81
734.82	1736.68
735.00	1632.23
735.18	1722.34
735.36	1757.16
735.54	1665.00
735.73	1732.58
735.91	1701.86
736.09	1781.73
736.27	1722.34
736.45	1769.44
736.63	1578.98
736.81	1679.33
736.99	1814.50
737.17	1775.59
737.35	1624.04
737.53	1798.12
737.71	1726.44
737.89	1734.63
738.07	1710.05
738.25	1648.61
738.43	1667.05
738.61	1677.29
738.80	1630.18
738.98	1576.94
739.16	1703.91
739.34	1669.09
739.52	1810.40
739.70	1617.90
739.88	1658.85
740.06	1757.16
740.24	1593.32
740.42	1783.78
740.60	1603.56
740.78	1759.21
740.96	1572.84
741.14	1748.97
741.32	1687.53
741.50	1667.05
741.68	1804.26
741.86	1769.44
742.04	1712.10
742.22	1724.39
742.40	1710.05
742.58	1765.35
742.76	1540.07
742.94	1755.11
743.12	1648.61
743.30	1642.47
743.48	1701.86
743.66	1660.90
743.84	1722.34
744.02	1712.10
744.20	1669.09
744.38	1718.25
744.56	1689.57
744.74	1826.79
744.92	1724.39
745.10	1830.88
745.28	1734.63
745.46	1826.79
745.64	1716.20
745.82	1761.25
746.00	1712.10
746.18	1767.40
746.36	1632.23
746.54	1732.58
746.72	1681.38
746.90	1669.09
747.08	1771.49
747.26	1687.53
747.44	1787.88
747.62	1740.77
747.80	1673.19
747.98	1736.68
748.15	1615.85
748.33	1802.21
748.51	1677.29
748.69	1757.16
748.87	1615.85
749.05	1636.33
749.23	1636.33
749.41	1722.34
749.59	1681.38
749.77	1703.91
749.95	1714.15
750.13	1615.85
750.31	1722.34
750.49	1742.82
750.67	1763.30
750.85	1802.21
751.03	1753.06
751.20	1820.64
751.38	1716.20
751.56	1632.23
751.74	1660.90
751.92	1669.09
752.10	1607.66
752.28	1734.63
752.46	1632.23
752.64	1763.30
752.82	1689.57
753.00	1785.83
753.18	1619.94
753.35	1662.95
753.53	1581.03
753.71	1658.85
753.89	1734.63
754.07	1791.97
754.25	1769.44
754.43	1701.86
754.61	1644.52
754.79	1791.97
754.97	1732.58
755.14	1738.73
755.32	1634.28
755.50	1671.14
755.68	1685.48
755.86	1669.09
756.04	1667.05
756.22	1578.98
756.40	1763.30
756.57	1826.79
756.75	1683.43
756.93	1734.63
757.11	1726.44
757.29	1679.33
757.47	1642.47
757.65	1650.66
757.82	1585.13
758.00	1601.51
758.18	1654.76
758.36	1640.42
758.54	1841.12
758.72	1644.52
758.90	1794.02
759.07	1689.57
759.25	1687.53
759.43	1744.87
759.61	1605.61
759.79	2246.62
759.97	1685.48
760.15	1660.90
760.32	1658.85
760.50	1763.30
760.68	1857.51
760.86	1611.75
761.04	1705.96
761.22	1791.97
761.39	1677.29
761.57	1757.16
761.75	1681.38
761.93	1722.34
762.11	1675.24
762.28	1714.15
762.46	1648.61
762.64	1757.16
762.82	1656.81
763.00	1708.01
763.18	1716.20
763.35	1656.81
763.53	1738.73
763.71	1673.19
763.89	1624.04
764.07	1746.92
764.24	1705.96
764.42	1783.78
764.60	1626.09
764.78	1767.40
764.96	1695.72
765.13	1771.49
765.31	1642.47
765.49	1746.92
765.67	1554.41
765.84	1652.71
766.02	1679.33
766.20	1630.18
766.38	1705.96
766.56	1730.53
766.73	1777.64
766.91	1742.82
767.09	1693.67
767.27	1720.29
767.44	1617.90
767.62	1734.63
767.80	1705.96
767.98	1640.42
768.15	1740.77
768.33	1746.92
768.51	1751.01
768.69	1751.01
768.87	1785.83
769.04	1636.33
769.22	1744.87
769.40	1839.08
769.58	1804.26
769.75	1726.44
769.93	1763.30
770.11	1708.01
770.28	1718.25
770.46	1755.11
770.64	1718.25
770.82	1660.90
770.99	1597.42
771.17	1763.30
771.35	1730.53
771.53	1685.48
771.70	1708.01
771.88	1728.49
772.06	1693.67
772.23	1695.72
772.41	1724.39
772.59	1732.58
772.77	1644.52
772.94	1705.96
773.12	1755.11
773.30	1656.81
773.47	1791.97
773.65	1632.23
773.83	1751.01
774.01	1675.24
774.18	1656.81
774.36	1765.35
774.54	1675.24
774.71	1677.29
774.89	1593.32
775.07	1662.95
775.24	1601.51
775.42	1693.67
775.60	1837.03
775.78	1599.46
775.95	1603.56
776.13	1693.67
776.31	1609.70
776.48	1726.44
776.66	1787.88
776.84	1693.67
777.01	1665.00
777.19	1583.08
777.37	1669.09
777.54	1767.40
777.72	1785.83
777.90	1755.11
778.07	1583.08
778.25	1822.69
778.43	1785.83
778.60	1636.33
778.78	1667.05
778.96	1804.26
779.13	1595.37
779.31	1755.11
779.49	1734.63
779.66	1681.38
779.84	1673.19
780.01	1624.04
780.19	1599.46
780.37	1757.16
780.54	1753.06
780.72	1710.05
780.90	1640.42
781.07	1683.43
781.25	1775.59
781.43	1720.29
781.60	1609.70
781.78	1820.64
781.95	1640.42
782.13	1714.15
782.31	1718.25
782.48	1617.90
782.66	1740.77
782.83	1808.36
783.01	1720.29
783.19	1759.21
783.36	1665.00
783.54	1615.85
783.72	1837.03
783.89	1654.76
784.07	1765.35
784.24	1720.29
784.42	1826.79
784.60	1677.29
784.77	1755.11
784.95	1603.56
785.12	1761.25
785.30	1693.67
785.47	1595.37
785.65	1685.48
785.83	1730.53
786.00	1740.77
786.18	1751.01
786.35	1595.37
786.53	1611.75
786.71	1669.09
786.88	1705.96
787.06	1755.11
787.23	1621.99
787.41	1665.00
787.58	1669.09
787.76	1675.24
787.94	1748.97
788.11	1779.68
788.29	1642.47
788.46	1646.57
788.64	1611.75
788.81	1701.86
788.99	1652.71
789.16	1619.94
789.34	1669.09
789.52	1744.87
789.69	1720.29
789.87	1513.45
790.04	1767.40
790.22	1722.34
790.39	1789.92
790.57	1617.90
790.74	1626.09
790.92	1753.06
791.09	1593.32
791.27	1726.44
791.44	1748.97
791.62	1712.10
791.79	1742.82
791.97	1662.95
792.15	1787.88
792.32	1705.96
792.50	1757.16
792.67	1761.25
792.85	1757.16
793.02	1699.81
793.20	1726.44
793.37	1621.99
793.55	1691.62
793.72	1619.94
793.90	1759.21
794.07	1640.42
794.25	1624.04
794.42	1724.39
794.60	1701.86
794.77	1693.67
794.95	1798.12
795.12	1671.14
795.30	1656.81
795.47	1673.19
795.65	1910.75
795.82	1746.92
796.00	1734.63
796.17	1673.19
796.34	1687.53
796.52	1703.91
796.69	1726.44
796.87	1724.39
797.04	1701.86
797.22	1714.15
797.39	1724.39
797.57	1751.01
797.74	1703.91
797.92	1697.77
798.09	1716.20
798.27	1800.16
798.44	1638.38
798.62	1716.20
798.79	1718.25
798.96	1730.53
799.14	1699.81
799.31	1865.70
799.49	1720.29
799.66	1732.58
799.84	1695.72
800.01	1648.61
800.19	1834.98
800.36	1644.52
800.53	1658.85
800.71	1716.20
800.88	1761.25
801.06	1660.90
801.23	1667.05
801.41	1683.43
801.58	1673.19
801.75	1550.31
801.93	1730.53
802.10	1787.88
802.28	1761.25
802.45	1669.09
802.63	1796.07
802.80	1726.44
802.97	1693.67
803.15	1681.38
803.32	1650.66
803.50	1656.81
803.67	1646.57
803.84	1662.95
804.02	1665.00
804.19	1679.33
804.37	1587.18
804.54	1632.23
804.71	1703.91
804.89	1660.90
805.06	1640.42
805.24	1578.98
805.41	1648.61
805.58	1667.05
805.76	1822.69
805.93	1650.66
806.10	1775.59
806.28	1638.38
806.45	1736.68
806.63	1685.48
806.80	1740.77
806.97	1685.48
807.15	1697.77
807.32	1710.05
807.49	1677.29
807.67	1716.20
807.84	1708.01
808.01	1665.00
808.19	1830.88
808.36	1791.97
808.54	1693.67
808.71	1703.91
808.88	1728.49
809.06	1732.58
809.23	1757.16
809.40	1648.61
809.58	1771.49
809.75	1730.53
809.92	1656.81
810.10	1834.98
810.27	1716.20
810.44	1757.16
810.62	1751.01
810.79	1714.15
810.96	1673.19
811.14	1607.66
811.31	1701.86
811.48	1728.49
811.66	1640.42
811.83	1751.01
812.00	1783.78
812.18	1679.33
812.35	1832.93
812.52	1687.53
812.69	1636.33
812.87	1695.72
813.04	1652.71
813.21	1650.66
813.39	1642.47
813.56	1609.70
813.73	1701.86
813.91	1669.09
814.08	1771.49
814.25	1753.06
814.42	1644.52
814.60	1681.38
814.77	1683.43
814.94	1748.97
815.12	1712.10
815.29	1771.49
815.46	1703.91
815.63	1710.05
815.81	1669.09
815.98	1699.81
816.15	1621.99
816.33	1722.34
816.50	1679.33
816.67	1660.90
816.84	1693.67
817.02	1675.24
817.19	1644.52
817.36	1771.49
817.53	1755.11
817.71	1642.47
817.88	1781.73
818.05	1619.94
818.22	1607.66
818.40	1783.78
818.57	1665.00
818.74	1644.52
818.91	1654.76
819.09	1718.25
819.26	1667.05
819.43	1730.53
819.60	1675.24
819.78	1746.92
819.95	1796.07
820.12	1689.57
820.29	1789.92
820.47	1808.36
820.64	1673.19
820.81	1654.76
820.98	1681.38
821.15	1624.04
821.33	1689.57
821.50	1677.29
821.67	1734.63
821.84	1693.67
822.02	1726.44
822.19	1665.00
822.36	1636.33
822.53	1679.33
822.70	1681.38
822.88	1617.90
823.05	1779.68
823.22	1722.34
823.39	1769.44
823.56	1718.25
823.74	1785.83
823.91	1697.77
824.08	1683.43
824.25	1615.85
824.42	1738.73
824.60	1556.46
824.77	1701.86
824.94	1667.05
825.11	1662.95
825.28	1648.61
825.45	1642.47
825.63	1681.38
825.80	1656.81
825.97	1746.92
826.14	1697.77
826.31	1540.07
826.48	1796.07
826.66	1634.28
826.83	1677.29
827.00	1718.25
827.17	1660.90
827.34	1673.19
827.51	1671.14
827.69	1726.44
827.86	1568.74
828.03	1705.96
828.20	1671.14
828.37	1683.43
828.54	1712.10
828.71	1656.81
828.89	1796.07
829.06	1738.73
829.23	1742.82
829.40	1685.48
829.57	1730.53
829.74	1714.15
829.91	1648.61
830.09	1693.67
830.26	1794.02
830.43	1824.74
830.60	1710.05
830.77	1757.16
830.94	1740.77
831.11	1742.82
831.28	1619.94
831.46	1724.39
831.63	1710.05
831.80	1763.30
831.97	1667.05
832.14	1662.95
832.31	1708.01
832.48	1699.81
832.65	1826.79
832.82	1757.16
832.99	1708.01
833.17	1744.87
833.34	1783.78
833.51	1695.72
833.68	1591.27
833.85	1697.77
834.02	1644.52
834.19	1642.47
834.36	1628.14
834.53	1734.63
834.70	1771.49
834.87	1806.31
835.04	1632.23
835.22	1601.51
835.39	1708.01
835.56	1593.32
835.73	1648.61
835.90	1804.26
836.07	1660.90
836.24	1748.97
836.41	1693.67
836.58	1652.71
836.75	1820.64
836.92	1691.62
837.09	1642.47
837.26	1767.40
837.43	1720.29
837.60	1730.53
837.77	1619.94
837.94	1683.43
838.12	1775.59
838.29	1771.49
838.46	1681.38
838.63	1611.75
838.80	1738.73
838.97	1734.63
839.14	1650.66
839.31	1732.58
839.48	1710.05
839.65	1554.41
839.82	1734.63
839.99	1695.72
840.16	1705.96
840.33	1720.29
840.50	1767.40
840.67	1640.42
840.84	1652.71
841.01	1761.25
841.18	1628.14
841.35	1695.72
841.52	1796.07
841.69	1849.32
841.86	1691.62
842.03	1683.43
842.20	1794.02
842.37	1714.15
842.54	1724.39
842.71	1697.77
842.88	1640.42
843.05	1740.77
843.22	1640.42
843.39	1728.49
843.56	1693.67
843.73	1751.01
843.90	1660.90
844.07	1701.86
844.24	1744.87
844.41	1742.82
844.58	1687.53
844.75	1699.81
844.92	1669.09
845.09	1697.77
845.26	1570.79
845.43	1767.40
845.60	1656.81
845.77	1834.98
845.94	1685.48
846.10	1771.49
846.27	1658.85
846.44	1640.42
846.61	1716.20
846.78	1773.54
846.95	1771.49
847.12	1705.96
847.29	1751.01
847.46	1703.91
847.63	1732.58
847.80	1691.62
847.97	1734.63
848.14	1861.60
848.31	1722.34
848.48	1648.61
848.65	1677.29
848.82	1665.00
848.98	1826.79
849.15	1708.01
849.32	1732.58
849.49	1783.78
849.66	1722.34
849.83	1763.30
850.00	1599.46
850.17	1734.63
850.34	1669.09
850.51	1708.01
850.68	1605.61
850.85	1832.93
851.01	1701.86
851.18	1716.20
851.35	1650.66
851.52	1691.62
851.69	1767.40
851.86	1585.13
852.03	1755.11
852.20	1683.43
852.37	1691.62
852.53	1665.00
852.70	1652.71
852.87	1716.20
853.04	1724.39
853.21	1660.90
853.38	1787.88
853.55	1744.87
853.72	1751.01
853.89	1626.09
854.05	1671.14
854.22	1689.57
854.39	1609.70
854.56	1759.21
854.73	1708.01
854.90	1701.86
855.07	1771.49
855.23	1722.34
855.40	1665.00
855.57	1705.96
855.74	1609.70
855.91	1857.51
856.08	1619.94
856.25	1652.71
856.41	1632.23
856.58	1667.05
856.75	1685.48
856.92	1644.52
857.09	1742.82
857.26	1609.70
857.42	1693.67
857.59	1716.20
857.76	1665.00
857.93	1759.21
858.10	1734.63
858.27	1619.94
858.43	1640.42
858.60	1632.23
858.77	1617.90
858.94	1730.53
859.11	1787.88
859.27	1687.53
859.44	1652.71
859.61	1810.40
859.78	1697.77
859.95	1708.01
860.12	1697.77
860.28	1810.40
860.45	1847.27
860.62	1644.52
860.79	1746.92
860.95	1658.85
861.12	1652.71
861.29	1691.62
861.46	1703.91
861.63	1705.96
861.79	1683.43
861.96	1705.96
862.13	1652.71
862.30	1705.96
862.47	1669.09
862.63	1675.24
862.80	1732.58
862.97	1779.68
863.14	1742.82
863.30	1685.48
863.47	1660.90
863.64	1796.07
863.81	1630.18
863.97	1615.85
864.14	1779.68
864.31	1695.72
864.48	1724.39
864.65	1726.44
864.81	1796.07
864.98	1771.49
865.15	1755.11
865.32	1796.07
865.48	1800.16
865.65	1746.92
865.82	1689.57
865.98	1761.25
866.15	1763.30
866.32	1779.68
866.49	1667.05
866.65	1748.97
866.82	1574.89
866.99	1675.24
867.16	1695.72
867.32	1669.09
867.49	1697.77
867.66	1691.62
867.83	1714.15
867.99	1701.86
868.16	1669.09
868.33	1667.05
868.49	1722.34
868.66	1701.86
868.83	1779.68
868.99	1687.53
869.16	1689.57
869.33	1794.02
869.50	1732.58
869.66	1701.86
869.83	1689.57
870.00	1609.70
870.16	1732.58
870.33	1769.44
870.50	1763.30
870.66	1746.92
870.83	1789.92
871.00	1693.67
871.17	1660.90
871.33	1724.39
871.50	1761.25
871.67	1687.53
871.83	1646.57
872.00	1814.50
872.17	1693.67
872.33	1738.73
872.50	1773.54
872.67	1671.14
872.83	1611.75
873.00	1734.63
873.17	1718.25
873.33	1791.97
873.50	1710.05
873.67	1683.43
873.83	1697.77
874.00	1646.57
874.16	1724.39
874.33	1673.19
874.50	1621.99
874.66	1820.64
874.83	1701.86
875.00	1718.25
875.16	1761.25
875.33	1722.34
875.50	1597.42
875.66	1685.48
875.83	1722.34
875.99	1744.87
876.16	1703.91
876.33	1638.38
876.49	1730.53
876.66	1755.11
876.83	1681.38
876.99	1642.47
877.16	1675.24
877.32	1742.82
877.49	1669.09
877.66	1695.72
877.82	1767.40
877.99	1730.53
878.15	1699.81
878.32	1677.29
878.49	1683.43
878.65	1699.81
878.82	1783.78
878.98	1662.95
879.15	1722.34
879.32	1773.54
879.48	1675.24
879.65	1681.38
879.81	1646.57
879.98	1669.09
880.15	1679.33
880.31	1710.05
880.48	1658.85
880.64	1730.53
880.81	1691.62
880.97	1744.87
881.14	1685.48
881.31	1650.66
881.47	1808.36
881.64	1681.38
881.80	1560.55
881.97	1767.40
882.13	1708.01
882.30	1601.51
882.47	1669.09
882.63	1628.14
882.80	1673.19
882.96	1650.66
883.13	1771.49
883.29	1718.25
883.46	1669.09
883.62	1810.40
883.79	1701.86
883.95	1716.20
884.12	1748.97
884.29	1730.53
884.45	1619.94
884.62	1779.68
884.78	1667.05
884.95	1783.78
885.11	1699.81
885.28	1787.88
885.44	1662.95
885.61	1773.54
885.77	1746.92
885.94	1636.33
886.10	1617.90
886.27	1671.14
886.43	1759.21
886.60	1822.69
886.76	1640.42
886.93	1677.29
887.09	1759.21
887.26	1564.65
887.42	1691.62
887.59	1777.64
887.75	1789.92
887.92	1736.68
888.08	1761.25
888.25	1837.03
888.41	1845.22
888.58	1742.82
888.74	1683.43
888.91	1632.23
>>>>>End Processed Spectral Data<<<<<
