SpectraSuite Data File
++++++++++++++++++++++++++++++++++++
Date: Mon Jun 06 13:39:57 CEST 2016
User: root
Dark Spectrum Present: No
Reference Spectrum Present: No
Number of Sampled Component Spectra: 1
Spectrometers: USB4C02835
Integration Time (usec): 100000 (USB4C02835)
Spectra Averaged: 1 (USB4C02835)
Boxcar Smoothing: 0 (USB4C02835)
Correct for Electrical Dark: No (USB4C02835)
Strobe/Lamp Enabled: No (USB4C02835)
Correct for Detector Non-linearity: No (USB4C02835)
Correct for Stray Light: No (USB4C02835)
Number of Pixels in Processed Spectrum: 3648
>>>>>Begin Processed Spectral Data<<<<<
177.47	1449.96
177.69	1449.96
177.91	1449.96
178.13	1460.20
178.36	1419.24
178.58	1617.90
178.80	1728.49
179.02	1644.52
179.24	1628.14
179.46	1708.01
179.68	1734.63
179.90	1761.25
180.13	1681.38
180.35	1677.29
180.57	1656.81
180.79	1720.29
181.01	1703.91
181.23	1697.77
181.45	1843.17
181.67	1667.05
181.90	1767.40
182.12	1613.80
182.34	1611.75
182.56	1665.00
182.78	1730.53
183.00	1683.43
183.22	1726.44
183.44	1562.60
183.66	1851.36
183.89	1800.16
184.11	1683.43
184.33	1669.09
184.55	1726.44
184.77	1648.61
184.99	1658.85
185.21	1656.81
185.43	1816.55
185.65	1677.29
185.87	1671.14
186.10	1830.88
186.32	1814.50
186.54	1691.62
186.76	1734.63
186.98	1808.36
187.20	1656.81
187.42	1677.29
187.64	1636.33
187.86	1677.29
188.08	1746.92
188.30	1646.57
188.52	1724.39
188.75	1753.06
188.97	1759.21
189.19	1679.33
189.41	1697.77
189.63	1701.86
189.85	1742.82
190.07	1624.04
190.29	1683.43
190.51	1730.53
190.73	1609.70
190.95	1736.68
191.17	1701.86
191.39	1646.57
191.61	1693.67
191.84	1681.38
192.06	1710.05
192.28	1568.74
192.50	1847.27
192.72	1722.34
192.94	1589.22
193.16	1755.11
193.38	1734.63
193.60	1644.52
193.82	1665.00
194.04	1767.40
194.26	1734.63
194.48	1693.67
194.70	1654.76
194.92	1642.47
195.14	1726.44
195.36	1681.38
195.58	1710.05
195.80	1736.68
196.02	1673.19
196.24	1677.29
196.46	1656.81
196.69	1640.42
196.91	1783.78
197.13	1669.09
197.35	1691.62
197.57	1738.73
197.79	1660.90
198.01	1716.20
198.23	1773.54
198.45	1685.48
198.67	1638.38
198.89	1730.53
199.11	1718.25
199.33	1671.14
199.55	1597.42
199.77	1763.30
199.99	1724.39
200.21	1650.66
200.43	1683.43
200.65	1624.04
200.87	1589.22
201.09	1648.61
201.31	1654.76
201.53	1765.35
201.75	1716.20
201.97	1720.29
202.19	1636.33
202.41	1763.30
202.63	1837.03
202.85	1693.67
203.07	1693.67
203.29	1691.62
203.51	1671.14
203.73	1640.42
203.95	1906.66
204.17	1800.16
204.39	1669.09
204.61	1732.58
204.83	1726.44
205.05	1679.33
205.27	1724.39
205.49	1755.11
205.71	1736.68
205.93	1570.79
206.15	1624.04
206.37	1662.95
206.59	1699.81
206.81	1617.90
207.03	1662.95
207.25	1605.61
207.47	1742.82
207.69	1705.96
207.91	1779.68
208.13	1701.86
208.34	1691.62
208.56	1603.56
208.78	1722.34
209.00	1687.53
209.22	1650.66
209.44	1693.67
209.66	1658.85
209.88	1662.95
210.10	1669.09
210.32	1699.81
210.54	1748.97
210.76	1687.53
210.98	1783.78
211.20	1626.09
211.42	1746.92
211.64	1791.97
211.86	1656.81
212.08	1775.59
212.30	1746.92
212.52	1691.62
212.74	1701.86
212.96	1769.44
213.17	1748.97
213.39	1712.10
213.61	1808.36
213.83	1607.66
214.05	1701.86
214.27	1742.82
214.49	1644.52
214.71	1619.94
214.93	1773.54
215.15	1720.29
215.37	1775.59
215.59	1591.27
215.81	1773.54
216.03	1771.49
216.24	1681.38
216.46	1662.95
216.68	1656.81
216.90	1732.58
217.12	1724.39
217.34	1755.11
217.56	1695.72
217.78	1791.97
218.00	1753.06
218.22	1677.29
218.44	1796.07
218.66	1724.39
218.87	1785.83
219.09	1701.86
219.31	1673.19
219.53	1708.01
219.75	1673.19
219.97	1730.53
220.19	1677.29
220.41	1753.06
220.63	1783.78
220.85	1677.29
221.06	1656.81
221.28	1755.11
221.50	1708.01
221.72	1740.77
221.94	1697.77
222.16	1710.05
222.38	1773.54
222.60	1695.72
222.82	1617.90
223.03	1716.20
223.25	1581.03
223.47	1802.21
223.69	1765.35
223.91	1685.48
224.13	1685.48
224.35	1626.09
224.57	1716.20
224.78	1671.14
225.00	1685.48
225.22	1609.70
225.44	1710.05
225.66	1808.36
225.88	1687.53
226.10	1755.11
226.32	1755.11
226.53	1800.16
226.75	1636.33
226.97	1646.57
227.19	1742.82
227.41	1671.14
227.63	1640.42
227.85	1667.05
228.06	1746.92
228.28	1656.81
228.50	1677.29
228.72	1587.18
228.94	1646.57
229.16	1556.46
229.37	1636.33
229.59	1624.04
229.81	1714.15
230.03	1730.53
230.25	1660.90
230.47	1640.42
230.69	1607.66
230.90	1783.78
231.12	1716.20
231.34	1742.82
231.56	1732.58
231.78	1675.24
232.00	1673.19
232.21	1691.62
232.43	1568.74
232.65	1552.36
232.87	1738.73
233.09	1671.14
233.30	1583.08
233.52	1755.11
233.74	1650.66
233.96	1595.37
234.18	1699.81
234.40	1660.90
234.61	1800.16
234.83	1632.23
235.05	1726.44
235.27	1890.28
235.49	1761.25
235.70	1656.81
235.92	1697.77
236.14	1687.53
236.36	1751.01
236.58	1636.33
236.79	1679.33
237.01	1779.68
237.23	1681.38
237.45	1789.92
237.67	1689.57
237.88	1681.38
238.10	1701.86
238.32	1681.38
238.54	1759.21
238.76	1671.14
238.97	1642.47
239.19	1683.43
239.41	1724.39
239.63	1720.29
239.85	1708.01
240.06	1708.01
240.28	1679.33
240.50	1794.02
240.72	1648.61
240.93	1679.33
241.15	1687.53
241.37	1701.86
241.59	1751.01
241.81	1683.43
242.02	1691.62
242.24	1740.77
242.46	1740.77
242.68	1679.33
242.89	1748.97
243.11	1716.20
243.33	1619.94
243.55	1712.10
243.76	1675.24
243.98	1685.48
244.20	1724.39
244.42	1728.49
244.64	1656.81
244.85	1650.66
245.07	1675.24
245.29	1716.20
245.51	1677.29
245.72	1738.73
245.94	1755.11
246.16	1665.00
246.38	1761.25
246.59	1679.33
246.81	1693.67
247.03	1632.23
247.24	1535.98
247.46	1681.38
247.68	1730.53
247.90	1662.95
248.11	1693.67
248.33	1718.25
248.55	1722.34
248.77	1667.05
248.98	1746.92
249.20	1738.73
249.42	1630.18
249.64	1757.16
249.85	1656.81
250.07	1675.24
250.29	1794.02
250.50	1755.11
250.72	1628.14
250.94	1697.77
251.16	1767.40
251.37	1759.21
251.59	1697.77
251.81	1757.16
252.02	1683.43
252.24	1662.95
252.46	1861.60
252.68	1595.37
252.89	1619.94
253.11	1585.13
253.33	1841.12
253.54	1714.15
253.76	1533.93
253.98	1650.66
254.20	1601.51
254.41	1693.67
254.63	1740.77
254.85	1648.61
255.06	1628.14
255.28	1771.49
255.50	1621.99
255.71	1597.42
255.93	1656.81
256.15	1687.53
256.36	1685.48
256.58	1740.77
256.80	1671.14
257.02	1722.34
257.23	1658.85
257.45	1642.47
257.67	1732.58
257.88	1628.14
258.10	1660.90
258.32	1736.68
258.53	1656.81
258.75	1755.11
258.97	1683.43
259.18	1734.63
259.40	1767.40
259.62	1796.07
259.83	1730.53
260.05	1681.38
260.27	1884.13
260.48	1751.01
260.70	1642.47
260.92	1712.10
261.13	1744.87
261.35	1730.53
261.57	1693.67
261.78	1648.61
262.00	1671.14
262.22	1744.87
262.43	1595.37
262.65	1701.86
262.86	1648.61
263.08	1875.94
263.30	1681.38
263.51	1601.51
263.73	1566.70
263.95	1873.89
264.16	1669.09
264.38	1699.81
264.60	1828.84
264.81	1761.25
265.03	1806.31
265.25	1732.58
265.46	1746.92
265.68	1759.21
265.89	1710.05
266.11	1677.29
266.33	1746.92
266.54	1794.02
266.76	1755.11
266.98	1771.49
267.19	1755.11
267.41	1712.10
267.62	1742.82
267.84	1683.43
268.06	1687.53
268.27	1744.87
268.49	1773.54
268.70	1761.25
268.92	1691.62
269.14	1642.47
269.35	1642.47
269.57	1677.29
269.79	1748.97
270.00	1638.38
270.22	1773.54
270.43	1683.43
270.65	1626.09
270.87	1671.14
271.08	1644.52
271.30	1736.68
271.51	1732.58
271.73	1720.29
271.95	1730.53
272.16	1683.43
272.38	1697.77
272.59	1642.47
272.81	1683.43
273.02	1718.25
273.24	1757.16
273.46	1697.77
273.67	1632.23
273.89	1685.48
274.10	1656.81
274.32	1773.54
274.54	1746.92
274.75	1738.73
274.97	1724.39
275.18	1728.49
275.40	1773.54
275.61	1736.68
275.83	1679.33
276.05	1619.94
276.26	1718.25
276.48	1777.64
276.69	1603.56
276.91	1634.28
277.12	1757.16
277.34	1751.01
277.55	1738.73
277.77	1658.85
277.99	1689.57
278.20	1628.14
278.42	1632.23
278.63	1671.14
278.85	1640.42
279.06	1636.33
279.28	1726.44
279.49	1734.63
279.71	1720.29
279.93	1648.61
280.14	1650.66
280.36	1607.66
280.57	1791.97
280.79	1751.01
281.00	1619.94
281.22	1630.18
281.43	1843.17
281.65	1574.89
281.86	1611.75
282.08	1703.91
282.29	1798.12
282.51	1548.26
282.73	1630.18
282.94	1662.95
283.16	1673.19
283.37	1736.68
283.59	1708.01
283.80	1734.63
284.02	1746.92
284.23	1759.21
284.45	1626.09
284.66	1714.15
284.88	1652.71
285.09	1759.21
285.31	1751.01
285.52	1708.01
285.74	1669.09
285.95	1746.92
286.17	1738.73
286.38	1685.48
286.60	1675.24
286.81	1671.14
287.03	1662.95
287.24	1669.09
287.46	1726.44
287.67	1720.29
287.89	1761.25
288.10	1753.06
288.32	1695.72
288.53	1689.57
288.75	1677.29
288.96	1738.73
289.18	1634.28
289.39	1615.85
289.61	1714.15
289.82	1824.74
290.04	1761.25
290.25	1642.47
290.47	1644.52
290.68	1632.23
290.90	1798.12
291.11	1595.37
291.33	1759.21
291.54	1601.51
291.76	1742.82
291.97	1689.57
292.18	1746.92
292.40	1589.22
292.61	1681.38
292.83	1796.07
293.04	1705.96
293.26	1705.96
293.47	1705.96
293.69	1574.89
293.90	1699.81
294.12	1757.16
294.33	1665.00
294.55	1605.61
294.76	1724.39
294.97	1765.35
295.19	1763.30
295.40	1716.20
295.62	1681.38
295.83	1734.63
296.05	1650.66
296.26	1796.07
296.48	1722.34
296.69	1658.85
296.90	1708.01
297.12	1753.06
297.33	1722.34
297.55	1763.30
297.76	1779.68
297.98	1693.67
298.19	1695.72
298.41	1677.29
298.62	1652.71
298.83	1812.45
299.05	1708.01
299.26	1710.05
299.48	1669.09
299.69	1746.92
299.90	1691.62
300.12	1665.00
300.33	1736.68
300.55	1675.24
300.76	1841.12
300.98	1599.46
301.19	1734.63
301.40	1662.95
301.62	1621.99
301.83	1677.29
302.05	1714.15
302.26	1695.72
302.47	1736.68
302.69	1648.61
302.90	1640.42
303.12	1609.70
303.33	1734.63
303.54	1769.44
303.76	1607.66
303.97	1783.78
304.19	1814.50
304.40	1634.28
304.61	1699.81
304.83	1841.12
305.04	1783.78
305.26	1734.63
305.47	1609.70
305.68	1656.81
305.90	1638.38
306.11	1742.82
306.33	1701.86
306.54	1660.90
306.75	1632.23
306.97	1599.46
307.18	1619.94
307.39	1708.01
307.61	1761.25
307.82	1658.85
308.04	1693.67
308.25	1574.89
308.46	1689.57
308.68	1753.06
308.89	1634.28
309.10	1742.82
309.32	1740.77
309.53	1658.85
309.74	1609.70
309.96	1632.23
310.17	1675.24
310.39	1636.33
310.60	1757.16
310.81	1677.29
311.03	1701.86
311.24	1667.05
311.45	1660.90
311.67	1791.97
311.88	1689.57
312.09	1632.23
312.31	1761.25
312.52	1703.91
312.73	1705.96
312.95	1593.32
313.16	1636.33
313.37	1837.03
313.59	1685.48
313.80	1783.78
314.01	1818.60
314.23	1640.42
314.44	1599.46
314.65	1564.65
314.87	1656.81
315.08	1732.58
315.29	1605.61
315.51	1660.90
315.72	1599.46
315.93	1753.06
316.15	1751.01
316.36	1654.76
316.57	1689.57
316.79	1728.49
317.00	1695.72
317.21	1722.34
317.43	1667.05
317.64	1728.49
317.85	1687.53
318.07	1738.73
318.28	1681.38
318.49	1705.96
318.70	1898.47
318.92	1796.07
319.13	1912.80
319.34	1871.84
319.56	1810.40
319.77	1779.68
319.98	1806.31
320.20	1742.82
320.41	1685.48
320.62	1716.20
320.83	1671.14
321.05	1761.25
321.26	1765.35
321.47	1730.53
321.69	1748.97
321.90	1552.36
322.11	1769.44
322.32	1708.01
322.54	1791.97
322.75	1648.61
322.96	1757.16
323.18	1646.57
323.39	1566.70
323.60	1675.24
323.81	1765.35
324.03	1589.22
324.24	1732.58
324.45	1718.25
324.66	1708.01
324.88	1710.05
325.09	1755.11
325.30	1722.34
325.52	1683.43
325.73	1695.72
325.94	1634.28
326.15	1652.71
326.37	1669.09
326.58	1748.97
326.79	1720.29
327.00	1607.66
327.22	1755.11
327.43	1628.14
327.64	1734.63
327.85	1712.10
328.07	1691.62
328.28	1859.56
328.49	1658.85
328.70	1669.09
328.92	1720.29
329.13	1687.53
329.34	1753.06
329.55	1853.41
329.76	1757.16
329.98	1734.63
330.19	1744.87
330.40	1779.68
330.61	1708.01
330.83	1718.25
331.04	1609.70
331.25	1691.62
331.46	1685.48
331.68	1667.05
331.89	1775.59
332.10	1662.95
332.31	1644.52
332.52	1671.14
332.74	1730.53
332.95	1574.89
333.16	1640.42
333.37	1665.00
333.58	1583.08
333.80	1730.53
334.01	1644.52
334.22	1720.29
334.43	1662.95
334.64	1687.53
334.86	1617.90
335.07	1636.33
335.28	1781.73
335.49	1665.00
335.70	1765.35
335.92	1759.21
336.13	1791.97
336.34	1697.77
336.55	1695.72
336.76	1687.53
336.98	1597.42
337.19	1734.63
337.40	1789.92
337.61	1814.50
337.82	1714.15
338.04	1669.09
338.25	1597.42
338.46	1669.09
338.67	1638.38
338.88	1644.52
339.09	1689.57
339.31	1638.38
339.52	1648.61
339.73	1587.18
339.94	1640.42
340.15	1759.21
340.36	1640.42
340.58	1740.77
340.79	1716.20
341.00	1781.73
341.21	1714.15
341.42	1810.40
341.63	1681.38
341.85	1794.02
342.06	1705.96
342.27	1615.85
342.48	1779.68
342.69	1642.47
342.90	1740.77
343.12	1761.25
343.33	1607.66
343.54	1665.00
343.75	1724.39
343.96	1705.96
344.17	1613.80
344.38	1665.00
344.60	1742.82
344.81	1724.39
345.02	1689.57
345.23	1791.97
345.44	1746.92
345.65	1740.77
345.86	1773.54
346.07	1697.77
346.29	1708.01
346.50	1734.63
346.71	1742.82
346.92	1732.58
347.13	1740.77
347.34	1705.96
347.55	1617.90
347.76	1775.59
347.98	1665.00
348.19	1677.29
348.40	1748.97
348.61	1644.52
348.82	1775.59
349.03	1716.20
349.24	1613.80
349.45	1785.83
349.66	1644.52
349.88	1703.91
350.09	1675.24
350.30	1796.07
350.51	1732.58
350.72	1710.05
350.93	1728.49
351.14	1656.81
351.35	1665.00
351.56	1720.29
351.77	1722.34
351.99	1667.05
352.20	1791.97
352.41	1738.73
352.62	1626.09
352.83	1697.77
353.04	1636.33
353.25	1734.63
353.46	1746.92
353.67	1751.01
353.88	1636.33
354.09	1744.87
354.30	1705.96
354.52	1755.11
354.73	1703.91
354.94	1677.29
355.15	1722.34
355.36	1884.13
355.57	1634.28
355.78	1742.82
355.99	1689.57
356.20	1675.24
356.41	1804.26
356.62	1701.86
356.83	1730.53
357.04	1777.64
357.25	1617.90
357.46	1646.57
357.68	1673.19
357.89	1630.18
358.10	1785.83
358.31	1679.33
358.52	1697.77
358.73	1611.75
358.94	1693.67
359.15	1667.05
359.36	1755.11
359.57	1630.18
359.78	1669.09
359.99	1714.15
360.20	1583.08
360.41	1691.62
360.62	1716.20
360.83	1746.92
361.04	1708.01
361.25	1689.57
361.46	1808.36
361.67	1708.01
361.88	1748.97
362.09	1810.40
362.30	1771.49
362.51	1734.63
362.72	1712.10
362.93	1708.01
363.14	1722.34
363.35	1732.58
363.56	1679.33
363.78	1652.71
363.99	1771.49
364.20	1621.99
364.41	1693.67
364.62	1824.74
364.83	1718.25
365.04	1687.53
365.25	1699.81
365.46	1875.94
365.67	1658.85
365.88	1671.14
366.09	1734.63
366.30	1603.56
366.51	1773.54
366.72	1669.09
366.93	1710.05
367.14	1701.86
367.35	1732.58
367.56	1742.82
367.77	1738.73
367.98	1705.96
368.18	1720.29
368.39	1730.53
368.60	1628.14
368.81	1738.73
369.02	1701.86
369.23	1683.43
369.44	1613.80
369.65	1650.66
369.86	1628.14
370.07	1740.77
370.28	1761.25
370.49	1699.81
370.70	1679.33
370.91	1619.94
371.12	1660.90
371.33	1802.21
371.54	1693.67
371.75	1869.80
371.96	1542.12
372.17	1744.87
372.38	1701.86
372.59	1765.35
372.80	1718.25
373.01	1742.82
373.22	1722.34
373.43	1746.92
373.64	1640.42
373.85	1798.12
374.06	1783.78
374.26	1843.17
374.47	1683.43
374.68	1779.68
374.89	1773.54
375.10	1746.92
375.31	1742.82
375.52	1779.68
375.73	1677.29
375.94	1603.56
376.15	1822.69
376.36	1705.96
376.57	1650.66
376.78	1652.71
376.99	1675.24
377.20	1691.62
377.40	1669.09
377.61	1744.87
377.82	1685.48
378.03	1695.72
378.24	1650.66
378.45	1732.58
378.66	1662.95
378.87	1673.19
379.08	1605.61
379.29	1634.28
379.50	1757.16
379.71	1765.35
379.91	1738.73
380.12	1632.23
380.33	1751.01
380.54	1714.15
380.75	1644.52
380.96	1740.77
381.17	1701.86
381.38	1677.29
381.59	1765.35
381.80	1751.01
382.00	1832.93
382.21	1761.25
382.42	1679.33
382.63	1886.18
382.84	1814.50
383.05	1771.49
383.26	1826.79
383.47	1621.99
383.68	1765.35
383.88	1751.01
384.09	1716.20
384.30	1751.01
384.51	1724.39
384.72	1673.19
384.93	1646.57
385.14	1671.14
385.35	1789.92
385.55	1658.85
385.76	1806.31
385.97	1734.63
386.18	1630.18
386.39	1701.86
386.60	1712.10
386.81	1607.66
387.02	1566.70
387.22	1671.14
387.43	1769.44
387.64	1857.51
387.85	1886.18
388.06	2191.33
388.27	4138.94
388.48	6707.10
388.68	8064.90
388.89	9553.77
389.10	9809.77
389.31	8492.93
389.52	7657.36
389.73	6711.19
389.93	6326.18
390.14	5799.85
390.35	5164.98
390.56	4513.72
390.77	3782.60
390.98	2998.23
391.18	2480.09
391.39	2054.11
391.60	1871.84
391.81	1800.16
392.02	1748.97
392.23	1796.07
392.43	1755.11
392.64	1736.68
392.85	1724.39
393.06	1796.07
393.27	1722.34
393.47	1595.37
393.68	1685.48
393.89	1701.86
394.10	1775.59
394.31	1613.80
394.52	1624.04
394.72	1681.38
394.93	1753.06
395.14	1691.62
395.35	1650.66
395.56	1714.15
395.76	1712.10
395.97	1845.22
396.18	1814.50
396.39	1867.75
396.60	1959.91
396.80	1935.33
397.01	1791.97
397.22	1804.26
397.43	1824.74
397.64	1671.14
397.84	1767.40
398.05	1877.99
398.26	1728.49
398.47	1806.31
398.67	1791.97
398.88	1660.90
399.09	1673.19
399.30	1648.61
399.51	1722.34
399.71	1593.32
399.92	1675.24
400.13	1781.73
400.34	1746.92
400.54	1646.57
400.75	1849.32
400.96	1662.95
401.17	1755.11
401.37	1736.68
401.58	1710.05
401.79	1740.77
402.00	1906.66
402.21	1992.67
402.41	1955.81
402.62	1951.71
402.83	2025.44
403.04	1908.71
403.24	2064.35
403.45	1861.60
403.66	1943.52
403.87	1877.99
404.07	1875.94
404.28	1851.36
404.49	1888.23
404.70	1748.97
404.90	1757.16
405.11	1705.96
405.32	1734.63
405.52	1648.61
405.73	1740.77
405.94	1685.48
406.15	1705.96
406.35	1636.33
406.56	1732.58
406.77	1697.77
406.98	1652.71
407.18	1660.90
407.39	1832.93
407.60	1691.62
407.80	1689.57
408.01	1665.00
408.22	1730.53
408.43	1617.90
408.63	1714.15
408.84	1810.40
409.05	1779.68
409.25	1621.99
409.46	1648.61
409.67	1705.96
409.88	1609.70
410.08	1746.92
410.29	1662.95
410.50	1726.44
410.70	1779.68
410.91	1675.24
411.12	1771.49
411.32	1755.11
411.53	1722.34
411.74	1857.51
411.95	1761.25
412.15	1748.97
412.36	1798.12
412.57	1734.63
412.77	1810.40
412.98	1675.24
413.19	1636.33
413.39	1789.92
413.60	1759.21
413.81	1839.08
414.01	1652.71
414.22	1714.15
414.43	1798.12
414.63	1691.62
414.84	1787.88
415.05	1722.34
415.25	1685.48
415.46	1769.44
415.67	1708.01
415.87	1722.34
416.08	1697.77
416.29	1671.14
416.49	1732.58
416.70	1681.38
416.91	1703.91
417.11	1667.05
417.32	1662.95
417.53	1757.16
417.73	1734.63
417.94	1685.48
418.15	1763.30
418.35	1738.73
418.56	1685.48
418.77	1861.60
418.97	1699.81
419.18	1665.00
419.38	1564.65
419.59	1699.81
419.80	1808.36
420.00	1675.24
420.21	1679.33
420.42	1830.88
420.62	1773.54
420.83	1658.85
421.04	1681.38
421.24	1652.71
421.45	1730.53
421.65	1712.10
421.86	1662.95
422.07	1757.16
422.27	1724.39
422.48	1761.25
422.69	1578.98
422.89	1779.68
423.10	1804.26
423.30	1679.33
423.51	1685.48
423.72	1644.52
423.92	1734.63
424.13	1656.81
424.33	1644.52
424.54	1849.32
424.75	1703.91
424.95	1787.88
425.16	1691.62
425.36	1681.38
425.57	1806.31
425.78	1744.87
425.98	1765.35
426.19	1716.20
426.39	1656.81
426.60	1732.58
426.81	1796.07
427.01	1697.77
427.22	1644.52
427.42	1619.94
427.63	1656.81
427.83	1751.01
428.04	1718.25
428.25	1734.63
428.45	1804.26
428.66	1685.48
428.86	1724.39
429.07	1675.24
429.28	1728.49
429.48	1683.43
429.69	1589.22
429.89	1656.81
430.10	1685.48
430.30	1691.62
430.51	1736.68
430.71	1626.09
430.92	1748.97
431.13	1662.95
431.33	1751.01
431.54	1722.34
431.74	1820.64
431.95	1777.64
432.15	1685.48
432.36	1695.72
432.56	1724.39
432.77	1746.92
432.98	1794.02
433.18	1665.00
433.39	1726.44
433.59	1650.66
433.80	1877.99
434.00	1894.37
434.21	1675.24
434.41	1701.86
434.62	1814.50
434.82	1685.48
435.03	1652.71
435.23	1734.63
435.44	1630.18
435.64	1673.19
435.85	1697.77
436.06	1665.00
436.26	1755.11
436.47	1744.87
436.67	1693.67
436.88	1671.14
437.08	1708.01
437.29	1814.50
437.49	1763.30
437.70	1720.29
437.90	1738.73
438.11	1888.23
438.31	1748.97
438.52	1863.65
438.72	1841.12
438.93	1933.28
439.13	1767.40
439.34	1847.27
439.54	1816.55
439.75	1781.73
439.95	1755.11
440.16	1748.97
440.36	1695.72
440.57	1724.39
440.77	1689.57
440.98	1701.86
441.18	1681.38
441.39	1660.90
441.59	1675.24
441.80	1851.36
442.00	1693.67
442.21	1796.07
442.41	1630.18
442.62	1748.97
442.82	1656.81
443.02	1701.86
443.23	1716.20
443.43	1650.66
443.64	1804.26
443.84	1681.38
444.05	1822.69
444.25	1783.78
444.46	1699.81
444.66	1640.42
444.87	1769.44
445.07	1636.33
445.28	1796.07
445.48	1841.12
445.69	1767.40
445.89	1867.75
446.09	1761.25
446.30	1976.29
446.50	2598.87
446.71	3776.45
446.91	4327.36
447.12	4747.19
447.32	4767.67
447.53	4188.10
447.73	3925.96
447.93	3532.75
448.14	3223.50
448.34	3141.58
448.55	2869.20
448.75	2791.38
448.96	2762.71
449.16	2428.89
449.36	2275.29
449.57	2084.83
449.77	1894.37
449.98	1781.73
450.18	1785.83
450.39	1820.64
450.59	1746.92
450.79	1726.44
451.00	1632.23
451.20	1808.36
451.41	1689.57
451.61	1798.12
451.81	1732.58
452.02	1722.34
452.22	1656.81
452.43	1607.66
452.63	1652.71
452.84	1689.57
453.04	1667.05
453.24	1771.49
453.45	1746.92
453.65	1759.21
453.86	1798.12
454.06	1734.63
454.26	1681.38
454.47	1619.94
454.67	1781.73
454.87	1820.64
455.08	1763.30
455.28	1834.98
455.49	1798.12
455.69	1736.68
455.89	1820.64
456.10	1787.88
456.30	1710.05
456.51	1851.36
456.71	1683.43
456.91	1691.62
457.12	1796.07
457.32	1740.77
457.52	1683.43
457.73	1777.64
457.93	1757.16
458.14	1751.01
458.34	1665.00
458.54	1720.29
458.75	1761.25
458.95	1748.97
459.15	1720.29
459.36	1789.92
459.56	1718.25
459.76	1861.60
459.97	1695.72
460.17	1761.25
460.37	1699.81
460.58	1753.06
460.78	1742.82
460.99	1734.63
461.19	1718.25
461.39	1751.01
461.60	1638.38
461.80	1894.37
462.00	1681.38
462.21	1728.49
462.41	1722.34
462.61	1646.57
462.82	1624.04
463.02	1718.25
463.22	1740.77
463.43	1779.68
463.63	1732.58
463.83	1804.26
464.04	1746.92
464.24	1722.34
464.44	1617.90
464.64	1685.48
464.85	1783.78
465.05	1740.77
465.25	1742.82
465.46	1644.52
465.66	1773.54
465.86	1781.73
466.07	1794.02
466.27	1695.72
466.47	1619.94
466.68	1662.95
466.88	1787.88
467.08	1695.72
467.29	1841.12
467.49	1740.77
467.69	1671.14
467.89	1751.01
468.10	1753.06
468.30	1665.00
468.50	1822.69
468.71	1738.73
468.91	1583.08
469.11	1744.87
469.31	1796.07
469.52	1646.57
469.72	1767.40
469.92	1814.50
470.13	1638.38
470.33	1716.20
470.53	1804.26
470.73	2140.13
470.94	2301.92
471.14	2281.44
471.34	2496.47
471.54	2426.84
471.75	2269.15
471.95	2111.46
472.15	2072.54
472.36	2043.87
472.56	2000.87
472.76	2009.06
472.96	1986.53
473.17	1869.80
473.37	1931.23
473.57	1847.27
473.77	1900.52
473.98	1744.87
474.18	1658.85
474.38	1810.40
474.58	1634.28
474.79	1734.63
474.99	1773.54
475.19	1736.68
475.39	1626.09
475.60	1767.40
475.80	1673.19
476.00	1736.68
476.20	1662.95
476.41	1738.73
476.61	1773.54
476.81	1863.65
477.01	1640.42
477.21	1908.71
477.42	1759.21
477.62	1634.28
477.82	1763.30
478.02	1660.90
478.23	1773.54
478.43	1660.90
478.63	1722.34
478.83	1685.48
479.03	1763.30
479.24	1828.84
479.44	1791.97
479.64	1609.70
479.84	1619.94
480.04	1609.70
480.25	1746.92
480.45	1708.01
480.65	1757.16
480.85	1824.74
481.06	1669.09
481.26	1701.86
481.46	1761.25
481.66	1814.50
481.86	1679.33
482.06	1834.98
482.27	1628.14
482.47	1650.66
482.67	1761.25
482.87	1753.06
483.07	1830.88
483.28	1681.38
483.48	1691.62
483.68	1720.29
483.88	1705.96
484.08	1609.70
484.29	1652.71
484.49	1669.09
484.69	1613.80
484.89	1808.36
485.09	1759.21
485.29	1728.49
485.50	1787.88
485.70	1607.66
485.90	1826.79
486.10	1771.49
486.30	1732.58
486.50	1818.60
486.71	1685.48
486.91	1761.25
487.11	1771.49
487.31	1697.77
487.51	1734.63
487.71	1726.44
487.91	1665.00
488.12	1691.62
488.32	1624.04
488.52	1650.66
488.72	1648.61
488.92	1716.20
489.12	1728.49
489.32	1720.29
489.53	1740.77
489.73	1662.95
489.93	1769.44
490.13	1656.81
490.33	1636.33
490.53	1751.01
490.73	1763.30
490.94	1599.46
491.14	1759.21
491.34	1826.79
491.54	2158.56
491.74	2516.95
491.94	2877.40
492.14	3057.62
492.34	2992.08
492.54	2736.09
492.75	2461.66
492.95	2435.03
493.15	2371.55
493.35	2240.48
493.55	2195.42
493.75	2121.70
493.95	2078.69
494.15	1978.34
494.35	1929.19
494.56	1910.75
494.76	1732.58
494.96	1794.02
495.16	1804.26
495.36	1751.01
495.56	1800.16
495.76	1662.95
495.96	1683.43
496.16	1693.67
496.36	1828.84
496.56	1732.58
496.77	1771.49
496.97	1710.05
497.17	1701.86
497.37	1720.29
497.57	1744.87
497.77	1720.29
497.97	1724.39
498.17	1748.97
498.37	1665.00
498.57	1744.87
498.77	1742.82
498.97	1783.78
499.17	1794.02
499.38	1685.48
499.58	1753.06
499.78	1810.40
499.98	1800.16
500.18	1710.05
500.38	1732.58
500.58	1910.75
500.78	2500.57
500.98	4581.31
501.18	5869.48
501.38	6768.54
501.58	7184.27
501.78	6479.77
501.98	5535.66
502.18	5013.43
502.38	4409.28
502.58	4118.47
502.78	3827.65
502.98	3635.14
503.18	3444.68
503.38	3186.64
503.59	2781.14
503.79	2602.97
503.99	2478.04
504.19	2213.85
504.39	2156.51
504.59	2203.61
504.79	2105.31
504.99	1961.95
505.19	1970.15
505.39	1861.60
505.59	2013.15
505.79	1863.65
505.99	1798.12
506.19	1857.51
506.39	1892.32
506.59	1771.49
506.79	1734.63
506.99	1851.36
507.19	1794.02
507.39	1742.82
507.59	1685.48
507.79	1646.57
507.99	1642.47
508.19	1705.96
508.39	1650.66
508.59	1681.38
508.79	1787.88
508.99	1853.41
509.19	1681.38
509.39	1742.82
509.59	1714.15
509.79	1712.10
509.99	1804.26
510.19	1781.73
510.39	1757.16
510.59	1705.96
510.79	1632.23
510.99	1667.05
511.19	1775.59
511.39	1822.69
511.59	1802.21
511.79	1808.36
511.99	1734.63
512.19	1826.79
512.38	1769.44
512.58	1685.48
512.78	1667.05
512.98	1716.20
513.18	1822.69
513.38	1673.19
513.58	1806.31
513.78	1759.21
513.98	1718.25
514.18	1738.73
514.38	1746.92
514.58	1734.63
514.78	1669.09
514.98	1605.61
515.18	1699.81
515.38	1669.09
515.58	1841.12
515.78	1720.29
515.98	1794.02
516.18	1783.78
516.38	1732.58
516.57	1802.21
516.77	1699.81
516.97	1787.88
517.17	1763.30
517.37	1605.61
517.57	1722.34
517.77	1763.30
517.97	1683.43
518.17	1740.77
518.37	1632.23
518.57	1671.14
518.77	1730.53
518.97	1775.59
519.16	1738.73
519.36	1816.55
519.56	1638.38
519.76	1755.11
519.96	1681.38
520.16	1755.11
520.36	1697.77
520.56	1796.07
520.76	1716.20
520.96	1656.81
521.16	1812.45
521.35	1890.28
521.55	1771.49
521.75	1714.15
521.95	1740.77
522.15	1703.91
522.35	1693.67
522.55	1681.38
522.75	1718.25
522.95	1759.21
523.14	1697.77
523.34	1730.53
523.54	1640.42
523.74	1714.15
523.94	1769.44
524.14	1562.60
524.34	1757.16
524.54	1751.01
524.73	1701.86
524.93	1779.68
525.13	1724.39
525.33	1695.72
525.53	1818.60
525.73	1708.01
525.93	1753.06
526.13	1794.02
526.32	1722.34
526.52	1839.08
526.72	1787.88
526.92	1644.52
527.12	1712.10
527.32	1683.43
527.52	1798.12
527.71	1701.86
527.91	1644.52
528.11	1650.66
528.31	1679.33
528.51	1652.71
528.71	1751.01
528.90	1849.32
529.10	1826.79
529.30	1923.04
529.50	1605.61
529.70	1669.09
529.90	1691.62
530.09	1710.05
530.29	1667.05
530.49	1636.33
530.69	1867.75
530.89	1767.40
531.09	1703.91
531.28	1732.58
531.48	1841.12
531.68	1710.05
531.88	1730.53
532.08	1632.23
532.28	1673.19
532.47	1830.88
532.67	1751.01
532.87	1767.40
533.07	1685.48
533.27	1796.07
533.46	1796.07
533.66	1748.97
533.86	1705.96
534.06	1732.58
534.26	1742.82
534.45	1693.67
534.65	1761.25
534.85	1687.53
535.05	1632.23
535.25	1722.34
535.44	1626.09
535.64	1746.92
535.84	1802.21
536.04	1673.19
536.24	1665.00
536.43	1693.67
536.63	1771.49
536.83	1697.77
537.03	1710.05
537.22	1656.81
537.42	1632.23
537.62	1748.97
537.82	1718.25
538.02	1781.73
538.21	1822.69
538.41	1882.08
538.61	1783.78
538.81	1751.01
539.00	1773.54
539.20	1667.05
539.40	1667.05
539.60	1769.44
539.79	1722.34
539.99	1734.63
540.19	1644.52
540.39	1763.30
540.58	1740.77
540.78	1761.25
540.98	1761.25
541.18	1804.26
541.37	1746.92
541.57	1683.43
541.77	1751.01
541.97	1654.76
542.16	1638.38
542.36	1759.21
542.56	1673.19
542.76	1806.31
542.95	1814.50
543.15	1710.05
543.35	1755.11
543.54	1624.04
543.74	1583.08
543.94	1800.16
544.14	1767.40
544.33	1718.25
544.53	1691.62
544.73	1693.67
544.93	1716.20
545.12	1777.64
545.32	1722.34
545.52	1669.09
545.71	1648.61
545.91	1671.14
546.11	1712.10
546.30	1640.42
546.50	1724.39
546.70	1789.92
546.90	1769.44
547.09	1624.04
547.29	1722.34
547.49	1716.20
547.68	1800.16
547.88	1607.66
548.08	1753.06
548.27	2140.13
548.47	1665.00
548.67	1667.05
548.87	1689.57
549.06	1691.62
549.26	1779.68
549.46	1822.69
549.65	1669.09
549.85	1791.97
550.05	1734.63
550.24	1712.10
550.44	1697.77
550.64	1740.77
550.83	1765.35
551.03	1837.03
551.23	1791.97
551.42	1740.77
551.62	1701.86
551.82	1746.92
552.01	1697.77
552.21	1855.46
552.41	1716.20
552.60	1832.93
552.80	1765.35
553.00	1703.91
553.19	1683.43
553.39	1839.08
553.59	1667.05
553.78	1748.97
553.98	1734.63
554.17	1687.53
554.37	1730.53
554.57	1810.40
554.76	1683.43
554.96	1656.81
555.16	1806.31
555.35	1718.25
555.55	1783.78
555.75	1730.53
555.94	1724.39
556.14	1640.42
556.33	1714.15
556.53	1681.38
556.73	1677.29
556.92	1710.05
557.12	1777.64
557.32	1898.47
557.51	1785.83
557.71	1814.50
557.90	1820.64
558.10	1781.73
558.30	1681.38
558.49	1677.29
558.69	1746.92
558.88	1755.11
559.08	1818.60
559.28	1791.97
559.47	1748.97
559.67	1789.92
559.86	1853.41
560.06	1769.44
560.26	1755.11
560.45	1730.53
560.65	1642.47
560.84	1734.63
561.04	1708.01
561.24	1832.93
561.43	1681.38
561.63	1828.84
561.82	1789.92
562.02	1673.19
562.22	1716.20
562.41	1701.86
562.61	1734.63
562.80	1617.90
563.00	1849.32
563.19	1673.19
563.39	1728.49
563.59	1789.92
563.78	1675.24
563.98	1744.87
564.17	1769.44
564.37	1599.46
564.56	1771.49
564.76	1656.81
564.96	1814.50
565.15	1771.49
565.35	1824.74
565.54	1712.10
565.74	1820.64
565.93	1705.96
566.13	1712.10
566.32	1722.34
566.52	1681.38
566.71	1775.59
566.91	1851.36
567.11	1769.44
567.30	1689.57
567.50	1708.01
567.69	1660.90
567.89	1748.97
568.08	1650.66
568.28	1765.35
568.47	1673.19
568.67	1755.11
568.86	1748.97
569.06	1832.93
569.25	1681.38
569.45	1660.90
569.64	1677.29
569.84	1722.34
570.04	1742.82
570.23	1607.66
570.43	1593.32
570.62	1746.92
570.82	1839.08
571.01	1783.78
571.21	1726.44
571.40	1660.90
571.60	1804.26
571.79	1718.25
571.99	1681.38
572.18	1660.90
572.38	1716.20
572.57	1730.53
572.77	1820.64
572.96	1908.71
573.16	1851.36
573.35	1710.05
573.55	1791.97
573.74	1742.82
573.94	1718.25
574.13	1691.62
574.33	1832.93
574.52	1802.21
574.71	1708.01
574.91	1816.55
575.10	1665.00
575.30	1705.96
575.49	1691.62
575.69	1718.25
575.88	1697.77
576.08	1777.64
576.27	1787.88
576.47	1718.25
576.66	1806.31
576.86	1779.68
577.05	1722.34
577.25	1783.78
577.44	1779.68
577.64	1667.05
577.83	1820.64
578.02	1771.49
578.22	1789.92
578.41	1828.84
578.61	1767.40
578.80	1648.61
579.00	1763.30
579.19	1738.73
579.39	1787.88
579.58	1832.93
579.77	1742.82
579.97	1888.23
580.16	1773.54
580.36	1753.06
580.55	1810.40
580.75	1785.83
580.94	1765.35
581.13	1843.17
581.33	1763.30
581.52	1691.62
581.72	1845.22
581.91	1818.60
582.11	1746.92
582.30	1812.45
582.49	1714.15
582.69	1789.92
582.88	1751.01
583.08	1746.92
583.27	1787.88
583.47	1806.31
583.66	1763.30
583.85	1718.25
584.05	1656.81
584.24	1755.11
584.44	1726.44
584.63	1810.40
584.82	1796.07
585.02	1791.97
585.21	1779.68
585.41	1855.46
585.60	1742.82
585.79	1902.56
585.99	1910.75
586.18	1908.71
586.37	2160.61
586.57	3438.54
586.76	9946.98
586.96	24364.68
587.15	34635.25
587.34	40545.69
587.54	42003.84
587.73	36699.60
587.93	26293.87
588.12	21493.43
588.31	18314.98
588.51	16416.52
588.70	15120.15
588.89	14212.90
589.09	12500.80
589.28	10864.47
589.47	9502.58
589.67	7929.74
589.86	6305.70
590.06	4990.90
590.25	3844.04
590.44	3123.15
590.64	2600.92
590.83	2246.62
591.02	2078.69
591.22	1939.43
591.41	1875.94
591.60	1902.56
591.80	1888.23
591.99	1771.49
592.18	1804.26
592.38	1824.74
592.57	1769.44
592.76	1818.60
592.96	1683.43
593.15	1744.87
593.34	1845.22
593.54	1740.77
593.73	1787.88
593.92	1714.15
594.12	1757.16
594.31	1720.29
594.50	1851.36
594.70	1767.40
594.89	1863.65
595.08	1720.29
595.28	1775.59
595.47	1794.02
595.66	1753.06
595.86	1658.85
596.05	1669.09
596.24	1748.97
596.43	1822.69
596.63	1730.53
596.82	1820.64
597.01	1757.16
597.21	1888.23
597.40	1826.79
597.59	1660.90
597.79	1759.21
597.98	1787.88
598.17	1742.82
598.36	1753.06
598.56	1730.53
598.75	1605.61
598.94	1824.74
599.14	1771.49
599.33	1679.33
599.52	1837.03
599.71	1773.54
599.91	1703.91
600.10	1736.68
600.29	1744.87
600.48	1763.30
600.68	1771.49
600.87	1738.73
601.06	1628.14
601.26	1693.67
601.45	1791.97
601.64	1693.67
601.83	1806.31
602.03	1681.38
602.22	1697.77
602.41	1710.05
602.60	1892.32
602.80	1736.68
602.99	1753.06
603.18	1701.86
603.37	1736.68
603.57	1732.58
603.76	1718.25
603.95	1794.02
604.14	1652.71
604.34	1744.87
604.53	1669.09
604.72	1701.86
604.91	1849.32
605.10	1771.49
605.30	1673.19
605.49	1834.98
605.68	1710.05
605.87	1691.62
606.07	1693.67
606.26	1712.10
606.45	1802.21
606.64	1771.49
606.84	1685.48
607.03	1748.97
607.22	1757.16
607.41	1759.21
607.60	1624.04
607.80	1789.92
607.99	1744.87
608.18	1691.62
608.37	1771.49
608.56	1691.62
608.76	1787.88
608.95	1845.22
609.14	1781.73
609.33	1798.12
609.52	1845.22
609.72	1642.47
609.91	1714.15
610.10	1665.00
610.29	1828.84
610.48	1802.21
610.68	1746.92
610.87	1716.20
611.06	1771.49
611.25	1695.72
611.44	1728.49
611.63	1665.00
611.83	1818.60
612.02	1673.19
612.21	1857.51
612.40	1687.53
612.59	1695.72
612.79	1656.81
612.98	1777.64
613.17	1855.46
613.36	1746.92
613.55	1863.65
613.74	1665.00
613.93	1695.72
614.13	1722.34
614.32	1724.39
614.51	1683.43
614.70	1699.81
614.89	1718.25
615.08	1769.44
615.28	2066.40
615.47	1650.66
615.66	1753.06
615.85	1677.29
616.04	1855.46
616.23	1728.49
616.42	1744.87
616.62	1685.48
616.81	1718.25
617.00	1757.16
617.19	1736.68
617.38	1710.05
617.57	1675.24
617.76	1689.57
617.95	1789.92
618.15	1740.77
618.34	1755.11
618.53	1683.43
618.72	1796.07
618.91	1837.03
619.10	1789.92
619.29	1759.21
619.48	1796.07
619.68	1652.71
619.87	1689.57
620.06	1699.81
620.25	1732.58
620.44	1736.68
620.63	1699.81
620.82	1683.43
621.01	1679.33
621.20	1734.63
621.39	1728.49
621.59	1787.88
621.78	1732.58
621.97	1763.30
622.16	1822.69
622.35	1736.68
622.54	1812.45
622.73	1763.30
622.92	1603.56
623.11	1800.16
623.30	1728.49
623.49	1712.10
623.68	1732.58
623.88	1800.16
624.07	1722.34
624.26	1730.53
624.45	1746.92
624.64	1681.38
624.83	1732.58
625.02	1677.29
625.21	1724.39
625.40	1632.23
625.59	1755.11
625.78	1652.71
625.97	1703.91
626.16	1708.01
626.35	1677.29
626.54	1667.05
626.74	1748.97
626.93	1701.86
627.12	1720.29
627.31	1738.73
627.50	1677.29
627.69	1734.63
627.88	1701.86
628.07	1734.63
628.26	1599.46
628.45	1732.58
628.64	1646.57
628.83	1742.82
629.02	1681.38
629.21	1732.58
629.40	1740.77
629.59	1742.82
629.78	1757.16
629.97	1654.76
630.16	1751.01
630.35	1681.38
630.54	1775.59
630.73	1595.37
630.92	1654.76
631.11	1679.33
631.30	1761.25
631.49	1642.47
631.68	1789.92
631.87	1791.97
632.06	1691.62
632.25	1851.36
632.44	1740.77
632.63	1779.68
632.82	1603.56
633.01	1677.29
633.20	1699.81
633.39	1652.71
633.58	1673.19
633.77	1650.66
633.96	1722.34
634.15	1812.45
634.34	1777.64
634.53	1703.91
634.72	1730.53
634.91	1667.05
635.10	1695.72
635.29	1730.53
635.48	1755.11
635.67	1599.46
635.86	1609.70
636.05	1787.88
636.24	1718.25
636.43	1724.39
636.62	1767.40
636.81	1542.12
637.00	1722.34
637.19	1808.36
637.38	1705.96
637.57	1628.14
637.76	1695.72
637.95	1771.49
638.14	1748.97
638.33	1656.81
638.52	1691.62
638.71	1658.85
638.89	1619.94
639.08	1804.26
639.27	1738.73
639.46	1708.01
639.65	1824.74
639.84	1656.81
640.03	1759.21
640.22	1648.61
640.41	1837.03
640.60	1673.19
640.79	1736.68
640.98	1726.44
641.17	1751.01
641.36	1736.68
641.55	1740.77
641.74	1585.13
641.92	1634.28
642.11	1724.39
642.30	1730.53
642.49	1710.05
642.68	1708.01
642.87	1732.58
643.06	1722.34
643.25	1687.53
643.44	1701.86
643.63	1652.71
643.82	1714.15
644.00	1685.48
644.19	1679.33
644.38	1683.43
644.57	1769.44
644.76	1691.62
644.95	1736.68
645.14	1705.96
645.33	1718.25
645.52	1708.01
645.71	1591.27
645.89	1679.33
646.08	1804.26
646.27	1718.25
646.46	1853.41
646.65	1587.18
646.84	1742.82
647.03	1646.57
647.22	1740.77
647.40	1748.97
647.59	1738.73
647.78	1650.66
647.97	1624.04
648.16	1679.33
648.35	1794.02
648.54	1755.11
648.73	1779.68
648.91	1710.05
649.10	1681.38
649.29	1742.82
649.48	1671.14
649.67	1630.18
649.86	1697.77
650.05	1615.85
650.23	1757.16
650.42	1619.94
650.61	1722.34
650.80	1814.50
650.99	1849.32
651.18	1761.25
651.36	1726.44
651.55	1644.52
651.74	1755.11
651.93	1705.96
652.12	1710.05
652.31	1703.91
652.49	1636.33
652.68	1632.23
652.87	1779.68
653.06	1818.60
653.25	1800.16
653.44	1722.34
653.62	1759.21
653.81	1658.85
654.00	1736.68
654.19	1681.38
654.38	1910.75
654.56	1740.77
654.75	1710.05
654.94	1748.97
655.13	1712.10
655.32	1710.05
655.51	1722.34
655.69	1648.61
655.88	1705.96
656.07	1675.24
656.26	1755.11
656.45	1687.53
656.63	1751.01
656.82	1769.44
657.01	1777.64
657.20	1609.70
657.38	1818.60
657.57	1679.33
657.76	1673.19
657.95	1738.73
658.14	1691.62
658.32	1665.00
658.51	1640.42
658.70	1714.15
658.89	1724.39
659.08	1710.05
659.26	1701.86
659.45	1624.04
659.64	1720.29
659.83	1640.42
660.01	1998.82
660.20	1648.61
660.39	1822.69
660.58	1603.56
660.76	1753.06
660.95	1621.99
661.14	1734.63
661.33	1652.71
661.51	1699.81
661.70	1669.09
661.89	1705.96
662.08	1615.85
662.26	1630.18
662.45	1646.57
662.64	1740.77
662.83	1751.01
663.01	1665.00
663.20	1726.44
663.39	1841.12
663.58	1697.77
663.76	1757.16
663.95	1802.21
664.14	1587.18
664.32	1736.68
664.51	1708.01
664.70	1613.80
664.89	1730.53
665.07	1648.61
665.26	1767.40
665.45	1689.57
665.64	1826.79
665.82	1722.34
666.01	1763.30
666.20	1697.77
666.38	1769.44
666.57	1806.31
666.76	2222.05
666.95	4403.13
667.13	10274.66
667.32	15218.46
667.51	17661.68
667.69	19025.63
667.88	17661.68
668.07	12420.93
668.25	9527.15
668.44	7978.89
668.63	7456.65
668.81	6768.54
669.00	6123.43
669.19	5562.28
669.38	5023.67
669.56	4491.20
669.75	4110.27
669.94	3362.76
670.12	2901.97
670.31	2553.82
670.50	2232.29
670.68	2011.11
670.87	1857.51
671.06	1841.12
671.24	1785.83
671.43	1845.22
671.62	1746.92
671.80	1740.77
671.99	1787.88
672.18	1728.49
672.36	1755.11
672.55	1703.91
672.74	1824.74
672.92	1736.68
673.11	1746.92
673.29	1671.14
673.48	1775.59
673.67	1697.77
673.85	1853.41
674.04	1656.81
674.23	1730.53
674.41	1843.17
674.60	1658.85
674.79	1640.42
674.97	1679.33
675.16	1812.45
675.34	1791.97
675.53	1613.80
675.72	1771.49
675.90	1800.16
676.09	1691.62
676.28	1679.33
676.46	1603.56
676.65	1771.49
676.83	1701.86
677.02	1626.09
677.21	1710.05
677.39	1761.25
677.58	1703.91
677.77	1681.38
677.95	1660.90
678.14	1687.53
678.32	1726.44
678.51	1642.47
678.70	1877.99
678.88	1726.44
679.07	1656.81
679.25	1683.43
679.44	1681.38
679.63	1660.90
679.81	1740.77
680.00	1695.72
680.18	1759.21
680.37	1738.73
680.55	1753.06
680.74	1705.96
680.93	1566.70
681.11	1708.01
681.30	1689.57
681.48	1705.96
681.67	1724.39
681.85	1693.67
682.04	1599.46
682.23	1681.38
682.41	1771.49
682.60	1691.62
682.78	1691.62
682.97	1662.95
683.15	1638.38
683.34	1789.92
683.53	1763.30
683.71	1695.72
683.90	1763.30
684.08	1851.36
684.27	1746.92
684.45	1732.58
684.64	1773.54
684.82	1652.71
685.01	1681.38
685.19	1687.53
685.38	1810.40
685.57	1701.86
685.75	1669.09
685.94	1607.66
686.12	1665.00
686.31	1695.72
686.49	1849.32
686.68	1574.89
686.86	1777.64
687.05	1687.53
687.23	1744.87
687.42	1636.33
687.60	1636.33
687.79	1757.16
687.97	1820.64
688.16	1783.78
688.34	1789.92
688.53	1644.52
688.71	1716.20
688.90	1804.26
689.08	1681.38
689.27	1644.52
689.45	1800.16
689.64	1703.91
689.82	1701.86
690.01	1693.67
690.19	1763.30
690.38	1708.01
690.56	1685.48
690.75	1607.66
690.93	1671.14
691.12	1677.29
691.30	1699.81
691.49	1662.95
691.67	1767.40
691.86	1845.22
692.04	1630.18
692.23	1650.66
692.41	1652.71
692.60	1767.40
692.78	1769.44
692.97	1691.62
693.15	1757.16
693.34	1806.31
693.52	1777.64
693.71	1675.24
693.89	1642.47
694.08	1615.85
694.26	1685.48
694.44	1822.69
694.63	1714.15
694.81	1607.66
695.00	1615.85
695.18	1744.87
695.37	1859.56
695.55	1783.78
695.74	1753.06
695.92	1601.51
696.10	1685.48
696.29	1636.33
696.47	1677.29
696.66	1640.42
696.84	1615.85
697.03	1765.35
697.21	1802.21
697.40	2230.24
697.58	1718.25
697.76	1708.01
697.95	1609.70
698.13	1624.04
698.32	1671.14
698.50	1730.53
698.68	1728.49
698.87	1734.63
699.05	1806.31
699.24	1691.62
699.42	1636.33
699.61	1685.48
699.79	1779.68
699.97	1665.00
700.16	1675.24
700.34	1576.94
700.53	1724.39
700.71	1820.64
700.89	1740.77
701.08	1689.57
701.26	1871.84
701.45	2105.31
701.63	1703.91
701.81	1705.96
702.00	1656.81
702.18	1658.85
702.37	1572.84
702.55	1734.63
702.73	1775.59
702.92	1656.81
703.10	1689.57
703.28	1701.86
703.47	1626.09
703.65	1730.53
703.84	1714.15
704.02	1683.43
704.20	1732.58
704.39	1683.43
704.57	1658.85
704.75	1775.59
704.94	1765.35
705.12	1751.01
705.30	1812.45
705.49	2213.85
705.67	4450.24
705.86	9434.99
706.04	12443.46
706.22	14581.54
706.41	15576.85
706.59	13842.22
706.77	9627.50
706.96	7329.68
707.14	6666.14
707.32	5955.49
707.51	5513.13
707.69	4833.21
707.87	4220.86
708.06	3604.42
708.24	2944.98
708.42	2488.28
708.61	2232.29
708.79	1918.95
708.97	1877.99
709.16	1832.93
709.34	1763.30
709.52	1710.05
709.71	1656.81
709.89	1757.16
710.07	1693.67
710.26	1640.42
710.44	1630.18
710.62	1767.40
710.80	1626.09
710.99	1730.53
711.17	1701.86
711.35	1683.43
711.54	1675.24
711.72	1816.55
711.90	1705.96
712.09	1734.63
712.27	1699.81
712.45	1738.73
712.63	1683.43
712.82	1695.72
713.00	1617.90
713.18	1783.78
713.37	1757.16
713.55	1730.53
713.73	1714.15
713.91	1716.20
714.10	1720.29
714.28	1599.46
714.46	1736.68
714.65	1763.30
714.83	1689.57
715.01	1654.76
715.19	1746.92
715.38	1650.66
715.56	1691.62
715.74	1699.81
715.92	1669.09
716.11	1845.22
716.29	1574.89
716.47	1740.77
716.65	1669.09
716.84	1585.13
717.02	1673.19
717.20	1650.66
717.38	1679.33
717.57	1773.54
717.75	1742.82
717.93	1658.85
718.11	1738.73
718.30	1669.09
718.48	1779.68
718.66	1753.06
718.84	1695.72
719.03	1691.62
719.21	1624.04
719.39	1775.59
719.57	1791.97
719.75	1757.16
719.94	1662.95
720.12	1609.70
720.30	1708.01
720.48	1675.24
720.67	1644.52
720.85	1734.63
721.03	1673.19
721.21	1646.57
721.39	1730.53
721.58	1771.49
721.76	1646.57
721.94	1671.14
722.12	1800.16
722.30	1785.83
722.49	1697.77
722.67	1685.48
722.85	1761.25
723.03	1626.09
723.21	1736.68
723.40	1730.53
723.58	1632.23
723.76	1714.15
723.94	1763.30
724.12	1677.29
724.30	1820.64
724.49	1755.11
724.67	1654.76
724.85	1720.29
725.03	1644.52
725.21	1689.57
725.40	1703.91
725.58	1636.33
725.76	1785.83
725.94	1716.20
726.12	1642.47
726.30	1738.73
726.49	1677.29
726.67	1708.01
726.85	1779.68
727.03	1806.31
727.21	2117.60
727.39	2844.63
727.57	3743.69
727.76	4175.81
727.94	4392.89
728.12	4360.13
728.30	3715.02
728.48	2990.03
728.66	2729.94
728.84	2631.64
729.03	2244.57
729.21	2162.66
729.39	2000.87
729.57	1820.64
729.75	1804.26
729.93	1828.84
730.11	1716.20
730.30	1617.90
730.48	1673.19
730.66	1828.84
730.84	1722.34
731.02	1748.97
731.20	1665.00
731.38	1736.68
731.56	1636.33
731.74	1726.44
731.93	1640.42
732.11	1742.82
732.29	1736.68
732.47	1761.25
732.65	1679.33
732.83	1738.73
733.01	1738.73
733.19	1681.38
733.37	1779.68
733.56	1746.92
733.74	1769.44
733.92	1787.88
734.10	1660.90
734.28	1667.05
734.46	1566.70
734.64	1697.77
734.82	1658.85
735.00	1628.14
735.18	1685.48
735.36	1755.11
735.54	1662.95
735.73	1681.38
735.91	1693.67
736.09	1701.86
736.27	1656.81
736.45	1681.38
736.63	1626.09
736.81	1701.86
736.99	1761.25
737.17	1814.50
737.35	1632.23
737.53	1744.87
737.71	1693.67
737.89	1746.92
738.07	1710.05
738.25	1613.80
738.43	1589.22
738.61	1734.63
738.80	1644.52
738.98	1552.36
739.16	1667.05
739.34	1640.42
739.52	1775.59
739.70	1714.15
739.88	1744.87
740.06	1744.87
740.24	1562.60
740.42	1828.84
740.60	1542.12
740.78	1685.48
740.96	1574.89
741.14	1671.14
741.32	1679.33
741.50	1587.18
741.68	1880.04
741.86	1818.60
742.04	1701.86
742.22	1624.04
742.40	1808.36
742.58	1730.53
742.76	1624.04
742.94	1742.82
743.12	1611.75
743.30	1671.14
743.48	1693.67
743.66	1669.09
743.84	1746.92
744.02	1708.01
744.20	1736.68
744.38	1665.00
744.56	1648.61
744.74	1771.49
744.92	1718.25
745.10	1798.12
745.28	1685.48
745.46	1773.54
745.64	1701.86
745.82	1779.68
746.00	1648.61
746.18	1734.63
746.36	1607.66
746.54	1718.25
746.72	1630.18
746.90	1671.14
747.08	1703.91
747.26	1673.19
747.44	1814.50
747.62	1726.44
747.80	1712.10
747.98	1759.21
748.15	1615.85
748.33	1765.35
748.51	1679.33
748.69	1716.20
748.87	1683.43
749.05	1736.68
749.23	1650.66
749.41	1701.86
749.59	1662.95
749.77	1773.54
749.95	1751.01
750.13	1665.00
750.31	1710.05
750.49	1708.01
750.67	1689.57
750.85	1763.30
751.03	1730.53
751.20	1783.78
751.38	1771.49
751.56	1652.71
751.74	1697.77
751.92	1656.81
752.10	1658.85
752.28	1644.52
752.46	1599.46
752.64	1689.57
752.82	1724.39
753.00	1726.44
753.18	1642.47
753.35	1710.05
753.53	1693.67
753.71	1597.42
753.89	1697.77
754.07	1755.11
754.25	1773.54
754.43	1689.57
754.61	1679.33
754.79	1724.39
754.97	1697.77
755.14	1800.16
755.32	1669.09
755.50	1656.81
755.68	1628.14
755.86	1648.61
756.04	1621.99
756.22	1634.28
756.40	1701.86
756.57	1804.26
756.75	1718.25
756.93	1753.06
757.11	1736.68
757.29	1646.57
757.47	1621.99
757.65	1683.43
757.82	1644.52
758.00	1642.47
758.18	1697.77
758.36	1636.33
758.54	1779.68
758.72	1585.13
758.90	1789.92
759.07	1718.25
759.25	1654.76
759.43	1726.44
759.61	1673.19
759.79	2205.66
759.97	1740.77
760.15	1642.47
760.32	1624.04
760.50	1820.64
760.68	1804.26
760.86	1556.46
761.04	1781.73
761.22	1701.86
761.39	1628.14
761.57	1736.68
761.75	1683.43
761.93	1697.77
762.11	1669.09
762.28	1734.63
762.46	1712.10
762.64	1658.85
762.82	1619.94
763.00	1626.09
763.18	1759.21
763.35	1632.23
763.53	1783.78
763.71	1656.81
763.89	1648.61
764.07	1695.72
764.24	1708.01
764.42	1767.40
764.60	1718.25
764.78	1656.81
764.96	1798.12
765.13	1746.92
765.31	1681.38
765.49	1769.44
765.67	1705.96
765.84	1650.66
766.02	1689.57
766.20	1613.80
766.38	1681.38
766.56	1734.63
766.73	1710.05
766.91	1636.33
767.09	1654.76
767.27	1615.85
767.44	1556.46
767.62	1722.34
767.80	1773.54
767.98	1691.62
768.15	1722.34
768.33	1722.34
768.51	1726.44
768.69	1658.85
768.87	1728.49
769.04	1744.87
769.22	1871.84
769.40	1808.36
769.58	1877.99
769.75	1675.24
769.93	1740.77
770.11	1691.62
770.28	1671.14
770.46	1785.83
770.64	1714.15
770.82	1691.62
770.99	1640.42
771.17	1757.16
771.35	1675.24
771.53	1662.95
771.70	1738.73
771.88	1701.86
772.06	1685.48
772.23	1589.22
772.41	1720.29
772.59	1621.99
772.77	1609.70
772.94	1689.57
773.12	1755.11
773.30	1599.46
773.47	1744.87
773.65	1681.38
773.83	1742.82
774.01	1761.25
774.18	1568.74
774.36	1640.42
774.54	1554.41
774.71	1677.29
774.89	1628.14
775.07	1591.27
775.24	1744.87
775.42	1656.81
775.60	1740.77
775.78	1660.90
775.95	1656.81
776.13	1613.80
776.31	1654.76
776.48	1695.72
776.66	1796.07
776.84	1636.33
777.01	1683.43
777.19	1677.29
777.37	1693.67
777.54	1736.68
777.72	1789.92
777.90	1718.25
778.07	1656.81
778.25	1931.23
778.43	1712.10
778.60	1695.72
778.78	1699.81
778.96	1765.35
779.13	1675.24
779.31	1726.44
779.49	1757.16
779.66	1669.09
779.84	1656.81
780.01	1738.73
780.19	1609.70
780.37	1771.49
780.54	1705.96
780.72	1589.22
780.90	1597.42
781.07	1648.61
781.25	1642.47
781.43	1730.53
781.60	1724.39
781.78	1767.40
781.95	1820.64
782.13	1724.39
782.31	1667.05
782.48	1636.33
782.66	1779.68
782.83	1783.78
783.01	1701.86
783.19	1748.97
783.36	1607.66
783.54	1654.76
783.72	1730.53
783.89	1603.56
784.07	1705.96
784.24	1685.48
784.42	1812.45
784.60	1675.24
784.77	1751.01
784.95	1632.23
785.12	1611.75
785.30	1683.43
785.47	1601.51
785.65	1607.66
785.83	1667.05
786.00	1644.52
786.18	1722.34
786.35	1597.42
786.53	1640.42
786.71	1701.86
786.88	1732.58
787.06	1650.66
787.23	1714.15
787.41	1619.94
787.58	1708.01
787.76	1585.13
787.94	1773.54
788.11	1746.92
788.29	1673.19
788.46	1642.47
788.64	1624.04
788.81	1683.43
788.99	1669.09
789.16	1658.85
789.34	1736.68
789.52	1720.29
789.69	1583.08
789.87	1554.41
790.04	1691.62
790.22	1732.58
790.39	1853.41
790.57	1593.32
790.74	1636.33
790.92	1681.38
791.09	1685.48
791.27	1705.96
791.44	1742.82
791.62	1644.52
791.79	1720.29
791.97	1691.62
792.15	1888.23
792.32	1744.87
792.50	1722.34
792.67	1800.16
792.85	1798.12
793.02	1681.38
793.20	1675.24
793.37	1644.52
793.55	1720.29
793.72	1628.14
793.90	1710.05
794.07	1619.94
794.25	1679.33
794.42	1673.19
794.60	1660.90
794.77	1652.71
794.95	1785.83
795.12	1726.44
795.30	1695.72
795.47	1562.60
795.65	1869.80
795.82	1757.16
796.00	1599.46
796.17	1734.63
796.34	1732.58
796.52	1654.76
796.69	1796.07
796.87	1736.68
797.04	1794.02
797.22	1658.85
797.39	1679.33
797.57	1767.40
797.74	1703.91
797.92	1703.91
798.09	1677.29
798.27	1642.47
798.44	1724.39
798.62	1710.05
798.79	1767.40
798.96	1673.19
799.14	1753.06
799.31	1861.60
799.49	1626.09
799.66	1621.99
799.84	1775.59
800.01	1619.94
800.19	1712.10
800.36	1646.57
800.53	1763.30
800.71	1695.72
800.88	1699.81
801.06	1677.29
801.23	1695.72
801.41	1710.05
801.58	1624.04
801.75	1597.42
801.93	1689.57
802.10	1697.77
802.28	1656.81
802.45	1697.77
802.63	1718.25
802.80	1726.44
802.97	1681.38
803.15	1742.82
803.32	1628.14
803.50	1607.66
803.67	1626.09
803.84	1632.23
804.02	1648.61
804.19	1691.62
804.37	1595.37
804.54	1693.67
804.71	1732.58
804.89	1687.53
805.06	1667.05
805.24	1619.94
805.41	1581.03
805.58	1724.39
805.76	1824.74
805.93	1619.94
806.10	1722.34
806.28	1722.34
806.45	1722.34
806.63	1732.58
806.80	1673.19
806.97	1734.63
807.15	1710.05
807.32	1724.39
807.49	1701.86
807.67	1722.34
807.84	1701.86
808.01	1626.09
808.19	1781.73
808.36	1798.12
808.54	1613.80
808.71	1605.61
808.88	1671.14
809.06	1658.85
809.23	1775.59
809.40	1660.90
809.58	1757.16
809.75	1673.19
809.92	1617.90
810.10	1800.16
810.27	1636.33
810.44	1671.14
810.62	1755.11
810.79	1695.72
810.96	1667.05
811.14	1683.43
811.31	1767.40
811.48	1669.09
811.66	1705.96
811.83	1781.73
812.00	1685.48
812.18	1697.77
812.35	1861.60
812.52	1650.66
812.69	1751.01
812.87	1689.57
813.04	1644.52
813.21	1708.01
813.39	1714.15
813.56	1650.66
813.73	1724.39
813.91	1533.93
814.08	1705.96
814.25	1640.42
814.42	1626.09
814.60	1708.01
814.77	1714.15
814.94	1703.91
815.12	1720.29
815.29	1751.01
815.46	1660.90
815.63	1755.11
815.81	1650.66
815.98	1646.57
816.15	1705.96
816.33	1683.43
816.50	1617.90
816.67	1658.85
816.84	1656.81
817.02	1701.86
817.19	1746.92
817.36	1665.00
817.53	1748.97
817.71	1654.76
817.88	1722.34
818.05	1734.63
818.22	1681.38
818.40	1832.93
818.57	1718.25
818.74	1724.39
818.91	1624.04
819.09	1841.12
819.26	1740.77
819.43	1624.04
819.60	1617.90
819.78	1697.77
819.95	1830.88
820.12	1699.81
820.29	1748.97
820.47	1705.96
820.64	1644.52
820.81	1632.23
820.98	1658.85
821.15	1593.32
821.33	1695.72
821.50	1617.90
821.67	1718.25
821.84	1726.44
822.02	1740.77
822.19	1755.11
822.36	1685.48
822.53	1712.10
822.70	1640.42
822.88	1669.09
823.05	1738.73
823.22	1703.91
823.39	1673.19
823.56	1720.29
823.74	1781.73
823.91	1665.00
824.08	1691.62
824.25	1691.62
824.42	1781.73
824.60	1667.05
824.77	1634.28
824.94	1683.43
825.11	1806.31
825.28	1615.85
825.45	1681.38
825.63	1726.44
825.80	1665.00
825.97	1724.39
826.14	1662.95
826.31	1630.18
826.48	1689.57
826.66	1636.33
826.83	1650.66
827.00	1748.97
827.17	1632.23
827.34	1660.90
827.51	1615.85
827.69	1708.01
827.86	1617.90
828.03	1665.00
828.20	1708.01
828.37	1611.75
828.54	1683.43
828.71	1640.42
828.89	1775.59
829.06	1662.95
829.23	1732.58
829.40	1679.33
829.57	1677.29
829.74	1746.92
829.91	1642.47
830.09	1677.29
830.26	1697.77
830.43	1812.45
830.60	1691.62
830.77	1759.21
830.94	1742.82
831.11	1796.07
831.28	1695.72
831.46	1808.36
831.63	1701.86
831.80	1660.90
831.97	1685.48
832.14	1585.13
832.31	1769.44
832.48	1701.86
832.65	1730.53
832.82	1714.15
832.99	1746.92
833.17	1650.66
833.34	1806.31
833.51	1724.39
833.68	1621.99
833.85	1693.67
834.02	1617.90
834.19	1701.86
834.36	1576.94
834.53	1671.14
834.70	1681.38
834.87	1677.29
835.04	1689.57
835.22	1636.33
835.39	1748.97
835.56	1591.27
835.73	1624.04
835.90	1751.01
836.07	1667.05
836.24	1722.34
836.41	1673.19
836.58	1685.48
836.75	1777.64
836.92	1710.05
837.09	1726.44
837.26	1771.49
837.43	1755.11
837.60	1628.14
837.77	1708.01
837.94	1710.05
838.12	1675.24
838.29	1691.62
838.46	1642.47
838.63	1640.42
838.80	1759.21
838.97	1757.16
839.14	1685.48
839.31	1708.01
839.48	1716.20
839.65	1714.15
839.82	1697.77
839.99	1613.80
840.16	1746.92
840.33	1732.58
840.50	1685.48
840.67	1695.72
840.84	1589.22
841.01	1746.92
841.18	1689.57
841.35	1695.72
841.52	1748.97
841.69	1853.41
841.86	1705.96
842.03	1773.54
842.20	1722.34
842.37	1699.81
842.54	1689.57
842.71	1726.44
842.88	1705.96
843.05	1740.77
843.22	1673.19
843.39	1685.48
843.56	1691.62
843.73	1644.52
843.90	1720.29
844.07	1712.10
844.24	1699.81
844.41	1730.53
844.58	1755.11
844.75	1685.48
844.92	1771.49
845.09	1771.49
845.26	1642.47
845.43	1814.50
845.60	1687.53
845.77	1763.30
845.94	1718.25
846.10	1757.16
846.27	1538.02
846.44	1654.76
846.61	1656.81
846.78	1699.81
846.95	1763.30
847.12	1683.43
847.29	1650.66
847.46	1654.76
847.63	1695.72
847.80	1656.81
847.97	1646.57
848.14	1869.80
848.31	1634.28
848.48	1607.66
848.65	1738.73
848.82	1712.10
848.98	1775.59
849.15	1718.25
849.32	1744.87
849.49	1783.78
849.66	1619.94
849.83	1665.00
850.00	1656.81
850.17	1652.71
850.34	1677.29
850.51	1636.33
850.68	1630.18
850.85	1806.31
851.01	1677.29
851.18	1726.44
851.35	1712.10
851.52	1720.29
851.69	1791.97
851.86	1628.14
852.03	1716.20
852.20	1681.38
852.37	1714.15
852.53	1597.42
852.70	1687.53
852.87	1685.48
853.04	1730.53
853.21	1679.33
853.38	1796.07
853.55	1822.69
853.72	1720.29
853.89	1665.00
854.05	1673.19
854.22	1669.09
854.39	1662.95
854.56	1697.77
854.73	1808.36
854.90	1689.57
855.07	1724.39
855.23	1748.97
855.40	1677.29
855.57	1687.53
855.74	1593.32
855.91	1861.60
856.08	1607.66
856.25	1578.98
856.41	1656.81
856.58	1607.66
856.75	1732.58
856.92	1621.99
857.09	1632.23
857.26	1644.52
857.42	1632.23
857.59	1730.53
857.76	1681.38
857.93	1744.87
858.10	1681.38
858.27	1644.52
858.43	1728.49
858.60	1669.09
858.77	1605.61
858.94	1689.57
859.11	1724.39
859.27	1681.38
859.44	1624.04
859.61	1806.31
859.78	1685.48
859.95	1722.34
860.12	1689.57
860.28	1810.40
860.45	1714.15
860.62	1644.52
860.79	1703.91
860.95	1626.09
861.12	1605.61
861.29	1656.81
861.46	1652.71
861.63	1615.85
861.79	1705.96
861.96	1669.09
862.13	1652.71
862.30	1751.01
862.47	1671.14
862.63	1703.91
862.80	1746.92
862.97	1810.40
863.14	1697.77
863.30	1679.33
863.47	1751.01
863.64	1779.68
863.81	1718.25
863.97	1652.71
864.14	1701.86
864.31	1681.38
864.48	1671.14
864.65	1673.19
864.81	1710.05
864.98	1781.73
865.15	1746.92
865.32	1699.81
865.48	1740.77
865.65	1742.82
865.82	1656.81
865.98	1718.25
866.15	1744.87
866.32	1646.57
866.49	1632.23
866.65	1808.36
866.82	1626.09
866.99	1669.09
867.16	1710.05
867.32	1699.81
867.49	1714.15
867.66	1691.62
867.83	1728.49
867.99	1607.66
868.16	1615.85
868.33	1669.09
868.49	1714.15
868.66	1677.29
868.83	1751.01
868.99	1650.66
869.16	1705.96
869.33	1669.09
869.50	1734.63
869.66	1736.68
869.83	1689.57
870.00	1675.24
870.16	1748.97
870.33	1636.33
870.50	1738.73
870.66	1658.85
870.83	1685.48
871.00	1691.62
871.17	1724.39
871.33	1759.21
871.50	1650.66
871.67	1628.14
871.83	1568.74
872.00	1689.57
872.17	1693.67
872.33	1812.45
872.50	1697.77
872.67	1589.22
872.83	1660.90
873.00	1675.24
873.17	1738.73
873.33	1714.15
873.50	1607.66
873.67	1712.10
873.83	1687.53
874.00	1644.52
874.16	1705.96
874.33	1773.54
874.50	1607.66
874.66	1652.71
874.83	1734.63
875.00	1736.68
875.16	1763.30
875.33	1751.01
875.50	1554.41
875.66	1685.48
875.83	1738.73
875.99	1771.49
876.16	1701.86
876.33	1642.47
876.49	1636.33
876.66	1685.48
876.83	1656.81
876.99	1591.27
877.16	1667.05
877.32	1710.05
877.49	1642.47
877.66	1712.10
877.82	1779.68
877.99	1734.63
878.15	1746.92
878.32	1679.33
878.49	1705.96
878.65	1628.14
878.82	1837.03
878.98	1722.34
879.15	1789.92
879.32	1755.11
879.48	1624.04
879.65	1718.25
879.81	1607.66
879.98	1652.71
880.15	1652.71
880.31	1714.15
880.48	1634.28
880.64	1742.82
880.81	1701.86
880.97	1814.50
881.14	1701.86
881.31	1689.57
881.47	1849.32
881.64	1724.39
881.80	1716.20
881.97	1634.28
882.13	1712.10
882.30	1624.04
882.47	1726.44
882.63	1595.37
882.80	1619.94
882.96	1632.23
883.13	1697.77
883.29	1689.57
883.46	1730.53
883.62	1734.63
883.79	1693.67
883.95	1714.15
884.12	1697.77
884.29	1693.67
884.45	1710.05
884.62	1681.38
884.78	1718.25
884.95	1810.40
885.11	1665.00
885.28	1716.20
885.44	1658.85
885.61	1830.88
885.77	1822.69
885.94	1681.38
886.10	1697.77
886.27	1744.87
886.43	1806.31
886.60	1875.94
886.76	1665.00
886.93	1636.33
887.09	1687.53
887.26	1576.94
887.42	1689.57
887.59	1742.82
887.75	1845.22
887.92	1695.72
888.08	1650.66
888.25	1837.03
888.41	1693.67
888.58	1779.68
888.74	1613.80
888.91	1669.09
>>>>>End Processed Spectral Data<<<<<
