SpectraSuite Data File
++++++++++++++++++++++++++++++++++++
Date: Mon Jun 06 15:13:37 CEST 2016
User: root
Dark Spectrum Present: No
Reference Spectrum Present: No
Number of Sampled Component Spectra: 1
Spectrometers: USB4C02835
Integration Time (usec): 100000 (USB4C02835)
Spectra Averaged: 1 (USB4C02835)
Boxcar Smoothing: 0 (USB4C02835)
Correct for Electrical Dark: No (USB4C02835)
Strobe/Lamp Enabled: No (USB4C02835)
Correct for Detector Non-linearity: No (USB4C02835)
Correct for Stray Light: No (USB4C02835)
Number of Pixels in Processed Spectrum: 3648
>>>>>Begin Processed Spectral Data<<<<<
177.47	1460.20
177.69	1460.20
177.91	1460.20
178.13	1406.95
178.36	1419.24
178.58	1624.04
178.80	1654.76
179.02	1667.05
179.24	1648.61
179.46	1632.23
179.68	1746.92
179.90	1746.92
180.13	1740.77
180.35	1634.28
180.57	1689.57
180.79	1687.53
181.01	1728.49
181.23	1736.68
181.45	1738.73
181.67	1712.10
181.90	1763.30
182.12	1558.50
182.34	1656.81
182.56	1697.77
182.78	1714.15
183.00	1773.54
183.22	1726.44
183.44	1662.95
183.66	1820.64
183.89	1798.12
184.11	1751.01
184.33	1751.01
184.55	1744.87
184.77	1816.55
184.99	1677.29
185.21	1673.19
185.43	1857.51
185.65	1708.01
185.87	1699.81
186.10	1849.32
186.32	1746.92
186.54	1759.21
186.76	1773.54
186.98	1746.92
187.20	1660.90
187.42	1683.43
187.64	1732.58
187.86	1748.97
188.08	1732.58
188.30	1746.92
188.52	1681.38
188.75	1767.40
188.97	1771.49
189.19	1654.76
189.41	1695.72
189.63	1728.49
189.85	1703.91
190.07	1650.66
190.29	1671.14
190.51	1730.53
190.73	1708.01
190.95	1777.64
191.17	1693.67
191.39	1638.38
191.61	1679.33
191.84	1720.29
192.06	1767.40
192.28	1636.33
192.50	1826.79
192.72	1687.53
192.94	1722.34
193.16	1701.86
193.38	1791.97
193.60	1722.34
193.82	1763.30
194.04	1783.78
194.26	1691.62
194.48	1716.20
194.70	1683.43
194.92	1652.71
195.14	1724.39
195.36	1630.18
195.58	1734.63
195.80	1679.33
196.02	1683.43
196.24	1667.05
196.46	1738.73
196.69	1662.95
196.91	1853.41
197.13	1628.14
197.35	1691.62
197.57	1890.28
197.79	1787.88
198.01	1701.86
198.23	1755.11
198.45	1689.57
198.67	1634.28
198.89	1626.09
199.11	1710.05
199.33	1675.24
199.55	1665.00
199.77	1718.25
199.99	1767.40
200.21	1634.28
200.43	1601.51
200.65	1585.13
200.87	1632.23
201.09	1681.38
201.31	1716.20
201.53	1732.58
201.75	1740.77
201.97	1656.81
202.19	1738.73
202.41	1677.29
202.63	1808.36
202.85	1767.40
203.07	1699.81
203.29	1626.09
203.51	1701.86
203.73	1689.57
203.95	1880.04
204.17	1779.68
204.39	1689.57
204.61	1695.72
204.83	1615.85
205.05	1767.40
205.27	1732.58
205.49	1822.69
205.71	1722.34
205.93	1605.61
206.15	1705.96
206.37	1714.15
206.59	1650.66
206.81	1628.14
207.03	1667.05
207.25	1699.81
207.47	1751.01
207.69	1619.94
207.91	1705.96
208.13	1775.59
208.34	1652.71
208.56	1689.57
208.78	1693.67
209.00	1720.29
209.22	1691.62
209.44	1691.62
209.66	1708.01
209.88	1703.91
210.10	1689.57
210.32	1642.47
210.54	1722.34
210.76	1654.76
210.98	1724.39
211.20	1581.03
211.42	1697.77
211.64	1724.39
211.86	1751.01
212.08	1740.77
212.30	1779.68
212.52	1722.34
212.74	1740.77
212.96	1796.07
213.17	1693.67
213.39	1742.82
213.61	1873.89
213.83	1734.63
214.05	1701.86
214.27	1771.49
214.49	1601.51
214.71	1677.29
214.93	1794.02
215.15	1640.42
215.37	1742.82
215.59	1613.80
215.81	1683.43
216.03	1787.88
216.24	1683.43
216.46	1722.34
216.68	1718.25
216.90	1740.77
217.12	1794.02
217.34	1720.29
217.56	1734.63
217.78	1812.45
218.00	1757.16
218.22	1703.91
218.44	1732.58
218.66	1714.15
218.87	1742.82
219.09	1726.44
219.31	1746.92
219.53	1738.73
219.75	1656.81
219.97	1708.01
220.19	1746.92
220.41	1718.25
220.63	1871.84
220.85	1767.40
221.06	1695.72
221.28	1683.43
221.50	1660.90
221.72	1720.29
221.94	1746.92
222.16	1699.81
222.38	1779.68
222.60	1730.53
222.82	1646.57
223.03	1751.01
223.25	1675.24
223.47	1732.58
223.69	1875.94
223.91	1751.01
224.13	1673.19
224.35	1683.43
224.57	1724.39
224.78	1779.68
225.00	1673.19
225.22	1683.43
225.44	1705.96
225.66	1716.20
225.88	1662.95
226.10	1753.06
226.32	1708.01
226.53	1765.35
226.75	1697.77
226.97	1710.05
227.19	1701.86
227.41	1667.05
227.63	1597.42
227.85	1626.09
228.06	1740.77
228.28	1685.48
228.50	1722.34
228.72	1624.04
228.94	1691.62
229.16	1585.13
229.37	1697.77
229.59	1624.04
229.81	1779.68
230.03	1560.55
230.25	1556.46
230.47	1683.43
230.69	1607.66
230.90	1716.20
231.12	1687.53
231.34	1742.82
231.56	1757.16
231.78	1705.96
232.00	1740.77
232.21	1718.25
232.43	1662.95
232.65	1656.81
232.87	1714.15
233.09	1650.66
233.30	1689.57
233.52	1773.54
233.74	1755.11
233.96	1611.75
234.18	1789.92
234.40	1722.34
234.61	1816.55
234.83	1650.66
235.05	1628.14
235.27	1726.44
235.49	1804.26
235.70	1777.64
235.92	1718.25
236.14	1679.33
236.36	1828.84
236.58	1613.80
236.79	1722.34
237.01	1673.19
237.23	1759.21
237.45	1748.97
237.67	1681.38
237.88	1679.33
238.10	1804.26
238.32	1701.86
238.54	1703.91
238.76	1703.91
238.97	1619.94
239.19	1742.82
239.41	1837.03
239.63	1812.45
239.85	1648.61
240.06	1679.33
240.28	1665.00
240.50	1806.31
240.72	1665.00
240.93	1630.18
241.15	1796.07
241.37	1642.47
241.59	1779.68
241.81	1691.62
242.02	1675.24
242.24	1679.33
242.46	1734.63
242.68	1662.95
242.89	1787.88
243.11	1734.63
243.33	1689.57
243.55	1751.01
243.76	1714.15
243.98	1763.30
244.20	1714.15
244.42	1636.33
244.64	1718.25
244.85	1648.61
245.07	1683.43
245.29	1710.05
245.51	1683.43
245.72	1751.01
245.94	1834.98
246.16	1740.77
246.38	1689.57
246.59	1720.29
246.81	1638.38
247.03	1626.09
247.24	1624.04
247.46	1681.38
247.68	1683.43
247.90	1677.29
248.11	1703.91
248.33	1744.87
248.55	1695.72
248.77	1703.91
248.98	1714.15
249.20	1828.84
249.42	1716.20
249.64	1728.49
249.85	1771.49
250.07	1656.81
250.29	1748.97
250.50	1714.15
250.72	1665.00
250.94	1771.49
251.16	1814.50
251.37	1837.03
251.59	1705.96
251.81	1701.86
252.02	1798.12
252.24	1720.29
252.46	1783.78
252.68	1624.04
252.89	1628.14
253.11	1574.89
253.33	1812.45
253.54	1802.21
253.76	1624.04
253.98	1693.67
254.20	1789.92
254.41	1652.71
254.63	1648.61
254.85	1699.81
255.06	1671.14
255.28	1712.10
255.50	1642.47
255.71	1660.90
255.93	1583.08
256.15	1656.81
256.36	1804.26
256.58	1679.33
256.80	1740.77
257.02	1748.97
257.23	1720.29
257.45	1675.24
257.67	1759.21
257.88	1658.85
258.10	1691.62
258.32	1689.57
258.53	1705.96
258.75	1773.54
258.97	1667.05
259.18	1738.73
259.40	1693.67
259.62	1832.93
259.83	1789.92
260.05	1777.64
260.27	2058.21
260.48	1703.91
260.70	1650.66
260.92	1695.72
261.13	1671.14
261.35	1781.73
261.57	1726.44
261.78	1673.19
262.00	1687.53
262.22	1720.29
262.43	1699.81
262.65	1761.25
262.86	1658.85
263.08	1820.64
263.30	1656.81
263.51	1591.27
263.73	1640.42
263.95	1851.36
264.16	1712.10
264.38	1628.14
264.60	1779.68
264.81	1648.61
265.03	1757.16
265.25	1818.60
265.46	1701.86
265.68	1763.30
265.89	1732.58
266.11	1578.98
266.33	1746.92
266.54	1759.21
266.76	1726.44
266.98	1787.88
267.19	1767.40
267.41	1716.20
267.62	1683.43
267.84	1562.60
268.06	1681.38
268.27	1730.53
268.49	1730.53
268.70	1810.40
268.92	1667.05
269.14	1621.99
269.35	1642.47
269.57	1734.63
269.79	1755.11
270.00	1644.52
270.22	1826.79
270.43	1624.04
270.65	1615.85
270.87	1648.61
271.08	1808.36
271.30	1695.72
271.51	1681.38
271.73	1828.84
271.95	1777.64
272.16	1748.97
272.38	1681.38
272.59	1701.86
272.81	1734.63
273.02	1671.14
273.24	1722.34
273.46	1765.35
273.67	1648.61
273.89	1626.09
274.10	1685.48
274.32	1757.16
274.54	1681.38
274.75	1675.24
274.97	1656.81
275.18	1736.68
275.40	1687.53
275.61	1658.85
275.83	1648.61
276.05	1658.85
276.26	1699.81
276.48	1748.97
276.69	1636.33
276.91	1728.49
277.12	1816.55
277.34	1738.73
277.55	1755.11
277.77	1746.92
277.99	1685.48
278.20	1624.04
278.42	1665.00
278.63	1595.37
278.85	1699.81
279.06	1578.98
279.28	1787.88
279.49	1740.77
279.71	1808.36
279.93	1751.01
280.14	1718.25
280.36	1595.37
280.57	1847.27
280.79	1765.35
281.00	1673.19
281.22	1730.53
281.43	1851.36
281.65	1591.27
281.86	1718.25
282.08	1763.30
282.29	1896.42
282.51	1656.81
282.73	1667.05
282.94	1679.33
283.16	1806.31
283.37	1785.83
283.59	1626.09
283.80	1775.59
284.02	1740.77
284.23	1658.85
284.45	1693.67
284.66	1724.39
284.88	1716.20
285.09	1677.29
285.31	1697.77
285.52	1716.20
285.74	1611.75
285.95	1712.10
286.17	1726.44
286.38	1742.82
286.60	1603.56
286.81	1691.62
287.03	1710.05
287.24	1695.72
287.46	1660.90
287.67	1652.71
287.89	1853.41
288.10	1722.34
288.32	1742.82
288.53	1849.32
288.75	1771.49
288.96	1771.49
289.18	1626.09
289.39	1689.57
289.61	1767.40
289.82	1834.98
290.04	1810.40
290.25	1648.61
290.47	1712.10
290.68	1718.25
290.90	1822.69
291.11	1591.27
291.33	1771.49
291.54	1570.79
291.76	1679.33
291.97	1787.88
292.18	1736.68
292.40	1730.53
292.61	1734.63
292.83	1779.68
293.04	1658.85
293.26	1685.48
293.47	1685.48
293.69	1697.77
293.90	1665.00
294.12	1837.03
294.33	1726.44
294.55	1695.72
294.76	1697.77
294.97	1748.97
295.19	1814.50
295.40	1677.29
295.62	1789.92
295.83	1759.21
296.05	1677.29
296.26	1773.54
296.48	1621.99
296.69	1624.04
296.90	1685.48
297.12	1773.54
297.33	1720.29
297.55	1665.00
297.76	1783.78
297.98	1806.31
298.19	1738.73
298.41	1808.36
298.62	1685.48
298.83	1771.49
299.05	1724.39
299.26	1662.95
299.48	1609.70
299.69	1703.91
299.90	1734.63
300.12	1632.23
300.33	1724.39
300.55	1746.92
300.76	1861.60
300.98	1628.14
301.19	1746.92
301.40	1669.09
301.62	1683.43
301.83	1777.64
302.05	1710.05
302.26	1646.57
302.47	1744.87
302.69	1628.14
302.90	1724.39
303.12	1583.08
303.33	1771.49
303.54	1751.01
303.76	1738.73
303.97	1767.40
304.19	1816.55
304.40	1656.81
304.61	1789.92
304.83	1863.65
305.04	1820.64
305.26	1761.25
305.47	1681.38
305.68	1701.86
305.90	1652.71
306.11	1798.12
306.33	1665.00
306.54	1701.86
306.75	1621.99
306.97	1689.57
307.18	1630.18
307.39	1726.44
307.61	1718.25
307.82	1730.53
308.04	1705.96
308.25	1734.63
308.46	1722.34
308.68	1738.73
308.89	1644.52
309.10	1751.01
309.32	1722.34
309.53	1705.96
309.74	1695.72
309.96	1714.15
310.17	1849.32
310.39	1683.43
310.60	1724.39
310.81	1689.57
311.03	1679.33
311.24	1732.58
311.45	1693.67
311.67	1804.26
311.88	1683.43
312.09	1685.48
312.31	1642.47
312.52	1757.16
312.73	1685.48
312.95	1665.00
313.16	1667.05
313.37	1755.11
313.59	1671.14
313.80	1736.68
314.01	1820.64
314.23	1656.81
314.44	1746.92
314.65	1662.95
314.87	1648.61
315.08	1671.14
315.29	1660.90
315.51	1654.76
315.72	1710.05
315.93	1718.25
316.15	1796.07
316.36	1728.49
316.57	1605.61
316.79	1765.35
317.00	1679.33
317.21	1734.63
317.43	1624.04
317.64	1708.01
317.85	1740.77
318.07	1705.96
318.28	1779.68
318.49	1791.97
318.70	1877.99
318.92	1820.64
319.13	1812.45
319.34	1859.56
319.56	1755.11
319.77	1822.69
319.98	1726.44
320.20	1828.84
320.41	1771.49
320.62	1724.39
320.83	1791.97
321.05	1861.60
321.26	1730.53
321.47	1648.61
321.69	1822.69
321.90	1679.33
322.11	1667.05
322.32	1677.29
322.54	1740.77
322.75	1632.23
322.96	1853.41
323.18	1626.09
323.39	1656.81
323.60	1628.14
323.81	1814.50
324.03	1695.72
324.24	1689.57
324.45	1765.35
324.66	1701.86
324.88	1679.33
325.09	1681.38
325.30	1708.01
325.52	1705.96
325.73	1773.54
325.94	1669.09
326.15	1638.38
326.37	1679.33
326.58	1708.01
326.79	1779.68
327.00	1644.52
327.22	1720.29
327.43	1742.82
327.64	1648.61
327.85	1746.92
328.07	1714.15
328.28	1863.65
328.49	1662.95
328.70	1671.14
328.92	1671.14
329.13	1673.19
329.34	1683.43
329.55	1796.07
329.76	1812.45
329.98	1787.88
330.19	1783.78
330.40	1761.25
330.61	1677.29
330.83	1789.92
331.04	1683.43
331.25	1730.53
331.46	1646.57
331.68	1595.37
331.89	1759.21
332.10	1744.87
332.31	1619.94
332.52	1712.10
332.74	1722.34
332.95	1660.90
333.16	1687.53
333.37	1765.35
333.58	1650.66
333.80	1669.09
334.01	1675.24
334.22	1746.92
334.43	1683.43
334.64	1619.94
334.86	1693.67
335.07	1613.80
335.28	1832.93
335.49	1619.94
335.70	1734.63
335.92	1708.01
336.13	1800.16
336.34	1740.77
336.55	1730.53
336.76	1746.92
336.98	1624.04
337.19	1744.87
337.40	1841.12
337.61	1808.36
337.82	1697.77
338.04	1759.21
338.25	1609.70
338.46	1648.61
338.67	1714.15
338.88	1640.42
339.09	1669.09
339.31	1689.57
339.52	1695.72
339.73	1644.52
339.94	1716.20
340.15	1755.11
340.36	1734.63
340.58	1755.11
340.79	1626.09
341.00	1763.30
341.21	1722.34
341.42	1742.82
341.63	1763.30
341.85	1720.29
342.06	1732.58
342.27	1609.70
342.48	1718.25
342.69	1689.57
342.90	1732.58
343.12	1744.87
343.33	1697.77
343.54	1714.15
343.75	1748.97
343.96	1806.31
344.17	1632.23
344.38	1683.43
344.60	1681.38
344.81	1740.77
345.02	1714.15
345.23	1796.07
345.44	1814.50
345.65	1699.81
345.86	1812.45
346.07	1732.58
346.29	1662.95
346.50	1718.25
346.71	1753.06
346.92	1767.40
347.13	1800.16
347.34	1683.43
347.55	1699.81
347.76	1628.14
347.98	1595.37
348.19	1681.38
348.40	1781.73
348.61	1736.68
348.82	1726.44
349.03	1705.96
349.24	1607.66
349.45	1834.98
349.66	1611.75
349.88	1720.29
350.09	1716.20
350.30	1771.49
350.51	1718.25
350.72	1673.19
350.93	1705.96
351.14	1726.44
351.35	1683.43
351.56	1613.80
351.77	1708.01
351.99	1724.39
352.20	1794.02
352.41	1755.11
352.62	1665.00
352.83	1736.68
353.04	1667.05
353.25	1738.73
353.46	1763.30
353.67	1820.64
353.88	1509.35
354.09	1697.77
354.30	1722.34
354.52	1701.86
354.73	1742.82
354.94	1665.00
355.15	1710.05
355.36	1824.74
355.57	1689.57
355.78	1722.34
355.99	1685.48
356.20	1681.38
356.41	1767.40
356.62	1724.39
356.83	1665.00
357.04	1783.78
357.25	1572.84
357.46	1730.53
357.68	1669.09
357.89	1658.85
358.10	1679.33
358.31	1755.11
358.52	1617.90
358.73	1574.89
358.94	1619.94
359.15	1665.00
359.36	1757.16
359.57	1744.87
359.78	1746.92
359.99	1742.82
360.20	1660.90
360.41	1689.57
360.62	1689.57
360.83	1656.81
361.04	1708.01
361.25	1716.20
361.46	1712.10
361.67	1716.20
361.88	1757.16
362.09	1771.49
362.30	1679.33
362.51	1699.81
362.72	1730.53
362.93	1765.35
363.14	1744.87
363.35	1710.05
363.56	1581.03
363.78	1783.78
363.99	1701.86
364.20	1673.19
364.41	1738.73
364.62	1794.02
364.83	1769.44
365.04	1740.77
365.25	1705.96
365.46	1791.97
365.67	1712.10
365.88	1693.67
366.09	1654.76
366.30	1718.25
366.51	1759.21
366.72	1652.71
366.93	1689.57
367.14	1640.42
367.35	1783.78
367.56	1650.66
367.77	1789.92
367.98	1673.19
368.18	1710.05
368.39	1759.21
368.60	1644.52
368.81	1716.20
369.02	1714.15
369.23	1675.24
369.44	1656.81
369.65	1607.66
369.86	1728.49
370.07	1818.60
370.28	1710.05
370.49	1726.44
370.70	1746.92
370.91	1648.61
371.12	1638.38
371.33	1777.64
371.54	1683.43
371.75	1820.64
371.96	1593.32
372.17	1744.87
372.38	1699.81
372.59	1714.15
372.80	1779.68
373.01	1693.67
373.22	1722.34
373.43	1787.88
373.64	1648.61
373.85	1794.02
374.06	1755.11
374.26	1783.78
374.47	1724.39
374.68	1804.26
374.89	1724.39
375.10	1683.43
375.31	1742.82
375.52	1742.82
375.73	1681.38
375.94	1650.66
376.15	1703.91
376.36	1761.25
376.57	1685.48
376.78	1714.15
376.99	1755.11
377.20	1804.26
377.40	1763.30
377.61	1779.68
377.82	1646.57
378.03	1779.68
378.24	1746.92
378.45	1800.16
378.66	1726.44
378.87	1695.72
379.08	1601.51
379.29	1693.67
379.50	1859.56
379.71	1714.15
379.91	1789.92
380.12	1691.62
380.33	1689.57
380.54	1714.15
380.75	1667.05
380.96	1689.57
381.17	1740.77
381.38	1738.73
381.59	1742.82
381.80	1720.29
382.00	1875.94
382.21	1757.16
382.42	1837.03
382.63	1839.08
382.84	1761.25
383.05	1796.07
383.26	1763.30
383.47	1798.12
383.68	1736.68
383.88	1746.92
384.09	1730.53
384.30	1769.44
384.51	1718.25
384.72	1681.38
384.93	1558.50
385.14	1765.35
385.35	1740.77
385.55	1660.90
385.76	1812.45
385.97	1687.53
386.18	1646.57
386.39	1716.20
386.60	1703.91
386.81	1669.09
387.02	1656.81
387.22	1644.52
387.43	1814.50
387.64	1773.54
387.85	1816.55
388.06	2138.08
388.27	4138.94
388.48	6784.92
388.68	7958.41
388.89	9336.69
389.10	9617.26
389.31	8423.30
389.52	7618.44
389.73	6586.27
389.93	6090.66
390.14	5793.70
390.35	5013.43
390.56	4589.50
390.77	3645.38
390.98	2957.27
391.18	2422.75
391.39	2086.88
391.60	1886.18
391.81	1880.04
392.02	1732.58
392.23	1855.46
392.43	1789.92
392.64	1732.58
392.85	1763.30
393.06	1804.26
393.27	1746.92
393.47	1654.76
393.68	1757.16
393.89	1736.68
394.10	1769.44
394.31	1683.43
394.52	1691.62
394.72	1662.95
394.93	1806.31
395.14	1693.67
395.35	1726.44
395.56	1662.95
395.76	1779.68
395.97	1783.78
396.18	1789.92
396.39	1890.28
396.60	1986.53
396.80	1880.04
397.01	1800.16
397.22	1787.88
397.43	1865.70
397.64	1724.39
397.84	1736.68
398.05	1941.47
398.26	1755.11
398.47	1796.07
398.67	1822.69
398.88	1755.11
399.09	1656.81
399.30	1755.11
399.51	1763.30
399.71	1728.49
399.92	1720.29
400.13	1730.53
400.34	1679.33
400.54	1644.52
400.75	1867.75
400.96	1779.68
401.17	1773.54
401.37	1757.16
401.58	1765.35
401.79	1767.40
402.00	1796.07
402.21	2000.87
402.41	1908.71
402.62	2000.87
402.83	2050.02
403.04	1953.76
403.24	2090.98
403.45	1890.28
403.66	1896.42
403.87	1853.41
404.07	1873.89
404.28	1927.14
404.49	1857.51
404.70	1830.88
404.90	1791.97
405.11	1794.02
405.32	1697.77
405.52	1634.28
405.73	1591.27
405.94	1665.00
406.15	1751.01
406.35	1755.11
406.56	1748.97
406.77	1695.72
406.98	1767.40
407.18	1658.85
407.39	1761.25
407.60	1724.39
407.80	1687.53
408.01	1695.72
408.22	1767.40
408.43	1716.20
408.63	1685.48
408.84	1693.67
409.05	1832.93
409.25	1621.99
409.46	1613.80
409.67	1613.80
409.88	1718.25
410.08	1771.49
410.29	1648.61
410.50	1685.48
410.70	1734.63
410.91	1685.48
411.12	1710.05
411.32	1705.96
411.53	1732.58
411.74	1839.08
411.95	1732.58
412.15	1701.86
412.36	1763.30
412.57	1773.54
412.77	1843.17
412.98	1767.40
413.19	1677.29
413.39	1689.57
413.60	1738.73
413.81	1769.44
414.01	1699.81
414.22	1755.11
414.43	1726.44
414.63	1716.20
414.84	1734.63
415.05	1724.39
415.25	1679.33
415.46	1759.21
415.67	1601.51
415.87	1679.33
416.08	1669.09
416.29	1611.75
416.49	1738.73
416.70	1677.29
416.91	1695.72
417.11	1767.40
417.32	1753.06
417.53	1742.82
417.73	1734.63
417.94	1722.34
418.15	1738.73
418.35	1771.49
418.56	1775.59
418.77	1877.99
418.97	1738.73
419.18	1732.58
419.38	1587.18
419.59	1724.39
419.80	1812.45
420.00	1693.67
420.21	1724.39
420.42	1775.59
420.62	1722.34
420.83	1665.00
421.04	1667.05
421.24	1716.20
421.45	1761.25
421.65	1753.06
421.86	1693.67
422.07	1781.73
422.27	1718.25
422.48	1699.81
422.69	1708.01
422.89	1628.14
423.10	1626.09
423.30	1693.67
423.51	1677.29
423.72	1773.54
423.92	1718.25
424.13	1591.27
424.33	1736.68
424.54	1714.15
424.75	1693.67
424.95	1767.40
425.16	1675.24
425.36	1646.57
425.57	1730.53
425.78	1705.96
425.98	1720.29
426.19	1648.61
426.39	1710.05
426.60	1732.58
426.81	1820.64
427.01	1689.57
427.22	1718.25
427.42	1611.75
427.63	1667.05
427.83	1744.87
428.04	1767.40
428.25	1849.32
428.45	1791.97
428.66	1748.97
428.86	1671.14
429.07	1705.96
429.28	1738.73
429.48	1759.21
429.69	1710.05
429.89	1708.01
430.10	1654.76
430.30	1785.83
430.51	1771.49
430.71	1640.42
430.92	1722.34
431.13	1677.29
431.33	1742.82
431.54	1765.35
431.74	1814.50
431.95	1861.60
432.15	1642.47
432.36	1740.77
432.56	1708.01
432.77	1830.88
432.98	1830.88
433.18	1740.77
433.39	1705.96
433.59	1695.72
433.80	1834.98
434.00	1875.94
434.21	1652.71
434.41	1673.19
434.62	1804.26
434.82	1628.14
435.03	1730.53
435.23	1667.05
435.44	1705.96
435.64	1669.09
435.85	1730.53
436.06	1710.05
436.26	1779.68
436.47	1665.00
436.67	1697.77
436.88	1656.81
437.08	1716.20
437.29	1877.99
437.49	1718.25
437.70	1781.73
437.90	1732.58
438.11	1841.12
438.31	1822.69
438.52	1783.78
438.72	1875.94
438.93	1927.14
439.13	1757.16
439.34	1841.12
439.54	1646.57
439.75	1785.83
439.95	1708.01
440.16	1724.39
440.36	1783.78
440.57	1785.83
440.77	1716.20
440.98	1740.77
441.18	1718.25
441.39	1730.53
441.59	1648.61
441.80	1738.73
442.00	1660.90
442.21	1742.82
442.41	1703.91
442.62	1767.40
442.82	1693.67
443.02	1673.19
443.23	1740.77
443.43	1763.30
443.64	1787.88
443.84	1646.57
444.05	1847.27
444.25	1789.92
444.46	1740.77
444.66	1759.21
444.87	1824.74
445.07	1642.47
445.28	1779.68
445.48	1767.40
445.69	1808.36
445.89	1796.07
446.09	1759.21
446.30	1953.76
446.50	2611.16
446.71	3604.42
446.91	4257.73
447.12	4683.70
447.32	4712.38
447.53	4290.49
447.73	3835.85
447.93	3532.75
448.14	3186.64
448.34	3143.63
448.55	2811.86
448.75	2875.35
448.96	2637.78
449.16	2457.56
449.36	2256.86
449.57	2029.54
449.77	1953.76
449.98	1832.93
450.18	1812.45
450.39	1818.60
450.59	1787.88
450.79	1691.62
451.00	1724.39
451.20	1839.08
451.41	1654.76
451.61	1816.55
451.81	1779.68
452.02	1800.16
452.22	1746.92
452.43	1751.01
452.63	1673.19
452.84	1738.73
453.04	1773.54
453.24	1785.83
453.45	1779.68
453.65	1724.39
453.86	1724.39
454.06	1773.54
454.26	1796.07
454.47	1677.29
454.67	1828.84
454.87	1753.06
455.08	1691.62
455.28	1796.07
455.49	1730.53
455.69	1673.19
455.89	1904.61
456.10	1773.54
456.30	1716.20
456.51	1800.16
456.71	1730.53
456.91	1800.16
457.12	1738.73
457.32	1779.68
457.52	1761.25
457.73	1769.44
457.93	1748.97
458.14	1658.85
458.34	1701.86
458.54	1703.91
458.75	1712.10
458.95	1701.86
459.15	1740.77
459.36	1746.92
459.56	1794.02
459.76	1875.94
459.97	1761.25
460.17	1748.97
460.37	1769.44
460.58	1738.73
460.78	1728.49
460.99	1665.00
461.19	1703.91
461.39	1716.20
461.60	1673.19
461.80	1724.39
462.00	1679.33
462.21	1730.53
462.41	1683.43
462.61	1714.15
462.82	1648.61
463.02	1808.36
463.22	1736.68
463.43	1751.01
463.63	1740.77
463.83	1830.88
464.04	1734.63
464.24	1699.81
464.44	1716.20
464.64	1697.77
464.85	1730.53
465.05	1724.39
465.25	1755.11
465.46	1734.63
465.66	1773.54
465.86	1730.53
466.07	1720.29
466.27	1652.71
466.47	1679.33
466.68	1642.47
466.88	1796.07
467.08	1775.59
467.29	1796.07
467.49	1738.73
467.69	1718.25
467.89	1779.68
468.10	1769.44
468.30	1767.40
468.50	1828.84
468.71	1728.49
468.91	1619.94
469.11	1826.79
469.31	1732.58
469.52	1636.33
469.72	1761.25
469.92	1877.99
470.13	1685.48
470.33	1701.86
470.53	1869.80
470.73	2041.82
470.94	2213.85
471.14	2353.12
471.34	2410.46
471.54	2398.17
471.75	2172.89
471.95	2136.03
472.15	2105.31
472.36	1992.67
472.56	2107.36
472.76	2033.63
472.96	1968.10
473.17	1908.71
473.37	1947.62
473.57	1791.97
473.77	1898.47
473.98	1705.96
474.18	1755.11
474.38	1898.47
474.58	1712.10
474.79	1683.43
474.99	1751.01
475.19	1751.01
475.39	1611.75
475.60	1767.40
475.80	1806.31
476.00	1667.05
476.20	1730.53
476.41	1761.25
476.61	1798.12
476.81	1832.93
477.01	1656.81
477.21	1824.74
477.42	1841.12
477.62	1701.86
477.82	1771.49
478.02	1650.66
478.23	1734.63
478.43	1671.14
478.63	1712.10
478.83	1753.06
479.03	1699.81
479.24	1787.88
479.44	1763.30
479.64	1665.00
479.84	1673.19
480.04	1769.44
480.25	1757.16
480.45	1634.28
480.65	1738.73
480.85	1834.98
481.06	1644.52
481.26	1722.34
481.46	1796.07
481.66	1734.63
481.86	1673.19
482.06	1728.49
482.27	1697.77
482.47	1759.21
482.67	1720.29
482.87	1732.58
483.07	1839.08
483.28	1671.14
483.48	1677.29
483.68	1755.11
483.88	1660.90
484.08	1591.27
484.29	1681.38
484.49	1699.81
484.69	1681.38
484.89	1820.64
485.09	1863.65
485.29	1740.77
485.50	1779.68
485.70	1732.58
485.90	1697.77
486.10	1746.92
486.30	1775.59
486.50	1730.53
486.71	1708.01
486.91	1722.34
487.11	1796.07
487.31	1652.71
487.51	1796.07
487.71	1716.20
487.91	1683.43
488.12	1710.05
488.32	1642.47
488.52	1710.05
488.72	1691.62
488.92	1615.85
489.12	1832.93
489.32	1730.53
489.53	1742.82
489.73	1665.00
489.93	1804.26
490.13	1662.95
490.33	1667.05
490.53	1693.67
490.73	1759.21
490.94	1685.48
491.14	1751.01
491.34	1781.73
491.54	2164.70
491.74	2449.37
491.94	2869.20
492.14	2965.46
492.34	2979.79
492.54	2664.41
492.75	2549.72
492.95	2369.50
493.15	2275.29
493.35	2301.92
493.55	2295.77
493.75	2127.84
493.95	2113.50
494.15	2060.26
494.35	1861.60
494.56	1855.46
494.76	1791.97
494.96	1714.15
495.16	1791.97
495.36	1755.11
495.56	1769.44
495.76	1728.49
495.96	1738.73
496.16	1613.80
496.36	1845.22
496.56	1740.77
496.77	1759.21
496.97	1701.86
497.17	1755.11
497.37	1708.01
497.57	1738.73
497.77	1708.01
497.97	1718.25
498.17	1695.72
498.37	1695.72
498.57	1761.25
498.77	1708.01
498.97	1662.95
499.17	1828.84
499.38	1757.16
499.58	1769.44
499.78	1894.37
499.98	1804.26
500.18	1628.14
500.38	1726.44
500.58	1970.15
500.78	2525.15
500.98	4452.28
501.18	5760.94
501.38	6551.45
501.58	7006.10
501.78	6455.20
501.98	5375.92
502.18	4937.65
502.38	4313.02
502.58	4169.66
502.78	3618.76
502.98	3561.42
503.18	3399.63
503.38	3030.99
503.59	2762.71
503.79	2666.46
503.99	2551.77
504.19	2246.62
504.39	2164.70
504.59	2166.75
504.79	2076.64
504.99	2033.63
505.19	1929.19
505.39	1894.37
505.59	1961.95
505.79	1886.18
505.99	1820.64
506.19	1730.53
506.39	1929.19
506.59	1859.56
506.79	1761.25
506.99	1769.44
507.19	1687.53
507.39	1773.54
507.59	1656.81
507.79	1769.44
507.99	1734.63
508.19	1822.69
508.39	1783.78
508.59	1673.19
508.79	1867.75
508.99	1875.94
509.19	1703.91
509.39	1740.77
509.59	1650.66
509.79	1722.34
509.99	1724.39
510.19	1816.55
510.39	1828.84
510.59	1822.69
510.79	1722.34
510.99	1687.53
511.19	1726.44
511.39	1886.18
511.59	1800.16
511.79	1796.07
511.99	1746.92
512.19	1804.26
512.38	1724.39
512.58	1699.81
512.78	1757.16
512.98	1796.07
513.18	1808.36
513.38	1683.43
513.58	1755.11
513.78	1738.73
513.98	1677.29
514.18	1775.59
514.38	1691.62
514.58	1773.54
514.78	1726.44
514.98	1673.19
515.18	1800.16
515.38	1689.57
515.58	1820.64
515.78	1621.99
515.98	1705.96
516.18	1779.68
516.38	1740.77
516.57	1660.90
516.77	1677.29
516.97	1755.11
517.17	1748.97
517.37	1665.00
517.57	1828.84
517.77	1826.79
517.97	1740.77
518.17	1769.44
518.37	1708.01
518.57	1683.43
518.77	1763.30
518.97	1669.09
519.16	1740.77
519.36	1781.73
519.56	1697.77
519.76	1753.06
519.96	1828.84
520.16	1773.54
520.36	1648.61
520.56	1791.97
520.76	1675.24
520.96	1814.50
521.16	1783.78
521.35	1841.12
521.55	1826.79
521.75	1746.92
521.95	1660.90
522.15	1667.05
522.35	1642.47
522.55	1740.77
522.75	1718.25
522.95	1665.00
523.14	1746.92
523.34	1742.82
523.54	1736.68
523.74	1714.15
523.94	1773.54
524.14	1644.52
524.34	1689.57
524.54	1816.55
524.73	1724.39
524.93	1796.07
525.13	1748.97
525.33	1685.48
525.53	1896.42
525.73	1789.92
525.93	1742.82
526.13	1714.15
526.32	1683.43
526.52	1773.54
526.72	1804.26
526.92	1785.83
527.12	1689.57
527.32	1652.71
527.52	1761.25
527.71	1742.82
527.91	1738.73
528.11	1738.73
528.31	1744.87
528.51	1660.90
528.71	1746.92
528.90	1773.54
529.10	1853.41
529.30	1794.02
529.50	1621.99
529.70	1740.77
529.90	1617.90
530.09	1746.92
530.29	1648.61
530.49	1720.29
530.69	1900.52
530.89	1740.77
531.09	1783.78
531.28	1679.33
531.48	1769.44
531.68	1730.53
531.88	1755.11
532.08	1783.78
532.28	1738.73
532.47	1746.92
532.67	1789.92
532.87	1761.25
533.07	1624.04
533.27	1726.44
533.46	1769.44
533.66	1781.73
533.86	1816.55
534.06	1714.15
534.26	1769.44
534.45	1681.38
534.65	1779.68
534.85	1744.87
535.05	1693.67
535.25	1740.77
535.44	1634.28
535.64	1775.59
535.84	1744.87
536.04	1722.34
536.24	1683.43
536.43	1775.59
536.63	1740.77
536.83	1791.97
537.03	1714.15
537.22	1693.67
537.42	1685.48
537.62	1726.44
537.82	1724.39
538.02	1822.69
538.21	1890.28
538.41	1920.99
538.61	1822.69
538.81	1740.77
539.00	1869.80
539.20	1701.86
539.40	1771.49
539.60	1746.92
539.79	1761.25
539.99	1728.49
540.19	1789.92
540.39	1691.62
540.58	1755.11
540.78	1773.54
540.98	1775.59
541.18	1796.07
541.37	1771.49
541.57	1714.15
541.77	1730.53
541.97	1675.24
542.16	1675.24
542.36	1685.48
542.56	1789.92
542.76	1880.04
542.95	1761.25
543.15	1730.53
543.35	1800.16
543.54	1751.01
543.74	1648.61
543.94	1748.97
544.14	1705.96
544.33	1755.11
544.53	1665.00
544.73	1769.44
544.93	1660.90
545.12	1785.83
545.32	1751.01
545.52	1687.53
545.71	1652.71
545.91	1695.72
546.11	1681.38
546.30	1642.47
546.50	1716.20
546.70	1763.30
546.90	1730.53
547.09	1683.43
547.29	1703.91
547.49	1761.25
547.68	1722.34
547.88	1738.73
548.08	1789.92
548.27	2097.12
548.47	1714.15
548.67	1691.62
548.87	1812.45
549.06	1677.29
549.26	1832.93
549.46	1732.58
549.65	1710.05
549.85	1775.59
550.05	1730.53
550.24	1705.96
550.44	1748.97
550.64	1787.88
550.83	1675.24
551.03	1773.54
551.23	1814.50
551.42	1798.12
551.62	1744.87
551.82	1671.14
552.01	1722.34
552.21	1861.60
552.41	1722.34
552.60	1789.92
552.80	1755.11
553.00	1716.20
553.19	1769.44
553.39	1841.12
553.59	1687.53
553.78	1703.91
553.98	1718.25
554.17	1703.91
554.37	1736.68
554.57	1800.16
554.76	1744.87
554.96	1710.05
555.16	1767.40
555.35	1796.07
555.55	1691.62
555.75	1730.53
555.94	1769.44
556.14	1710.05
556.33	1761.25
556.53	1671.14
556.73	1785.83
556.92	1783.78
557.12	1877.99
557.32	1875.94
557.51	1816.55
557.71	1763.30
557.90	1820.64
558.10	1693.67
558.30	1667.05
558.49	1718.25
558.69	1740.77
558.88	1773.54
559.08	1708.01
559.28	1740.77
559.47	1714.15
559.67	1740.77
559.86	1865.70
560.06	1748.97
560.26	1753.06
560.45	1769.44
560.65	1804.26
560.84	1751.01
561.04	1746.92
561.24	1818.60
561.43	1701.86
561.63	1863.65
561.82	1730.53
562.02	1736.68
562.22	1693.67
562.41	1738.73
562.61	1722.34
562.80	1724.39
563.00	1849.32
563.19	1753.06
563.39	1718.25
563.59	1837.03
563.78	1669.09
563.98	1699.81
564.17	1665.00
564.37	1705.96
564.56	1757.16
564.76	1681.38
564.96	1800.16
565.15	1806.31
565.35	1832.93
565.54	1662.95
565.74	1761.25
565.93	1705.96
566.13	1761.25
566.32	1841.12
566.52	1757.16
566.71	1761.25
566.91	1804.26
567.11	1726.44
567.30	1662.95
567.50	1656.81
567.69	1834.98
567.89	1703.91
568.08	1691.62
568.28	1767.40
568.47	1738.73
568.67	1832.93
568.86	1728.49
569.06	1693.67
569.25	1748.97
569.45	1697.77
569.64	1665.00
569.84	1703.91
570.04	1751.01
570.23	1732.58
570.43	1728.49
570.62	1724.39
570.82	1818.60
571.01	1714.15
571.21	1765.35
571.40	1685.48
571.60	1822.69
571.79	1763.30
571.99	1712.10
572.18	1705.96
572.38	1724.39
572.57	1722.34
572.77	1730.53
572.96	1857.51
573.16	1828.84
573.35	1724.39
573.55	1882.08
573.74	1761.25
573.94	1789.92
574.13	1691.62
574.33	1767.40
574.52	1798.12
574.71	1755.11
574.91	1738.73
575.10	1693.67
575.30	1746.92
575.49	1720.29
575.69	1705.96
575.88	1732.58
576.08	1601.51
576.27	1886.18
576.47	1720.29
576.66	1832.93
576.86	1892.32
577.05	1748.97
577.25	1775.59
577.44	1933.28
577.64	1753.06
577.83	1755.11
578.02	1734.63
578.22	1888.23
578.41	1853.41
578.61	1839.08
578.80	1654.76
579.00	1669.09
579.19	1748.97
579.39	1787.88
579.58	1824.74
579.77	1746.92
579.97	1900.52
580.16	1839.08
580.36	1804.26
580.55	1773.54
580.75	1810.40
580.94	1728.49
581.13	1902.56
581.33	1800.16
581.52	1677.29
581.72	1865.70
581.91	1849.32
582.11	1753.06
582.30	1828.84
582.49	1781.73
582.69	1875.94
582.88	1822.69
583.08	1781.73
583.27	1871.84
583.47	1787.88
583.66	1708.01
583.85	1687.53
584.05	1712.10
584.24	1744.87
584.44	1783.78
584.63	1783.78
584.82	1925.09
585.02	1753.06
585.21	1834.98
585.41	1873.89
585.60	1892.32
585.79	1984.48
585.99	1894.37
586.18	1902.56
586.37	2183.13
586.57	3303.37
586.76	9619.31
586.96	23903.89
587.15	33617.41
587.34	39181.74
587.54	40848.78
587.73	35571.17
587.93	25785.97
588.12	20973.25
588.31	17835.76
588.51	15986.44
588.70	14948.12
588.89	13838.12
589.09	12412.74
589.28	10889.05
589.47	9138.04
589.67	7731.08
589.86	6391.71
590.06	4786.10
590.25	3733.45
590.44	3006.42
590.64	2510.81
590.83	2308.06
591.02	2084.83
591.22	1982.43
591.41	1961.95
591.60	1841.12
591.80	1966.05
591.99	1789.92
592.18	1779.68
592.38	1861.60
592.57	1775.59
592.76	1763.30
592.96	1771.49
593.15	1816.55
593.34	1789.92
593.54	1697.77
593.73	1779.68
593.92	1732.58
594.12	1740.77
594.31	1763.30
594.50	1746.92
594.70	1710.05
594.89	1955.81
595.08	1695.72
595.28	1824.74
595.47	1894.37
595.66	1785.83
595.86	1763.30
596.05	1697.77
596.24	1755.11
596.43	1869.80
596.63	1861.60
596.82	1662.95
597.01	1734.63
597.21	1839.08
597.40	1810.40
597.59	1689.57
597.79	1779.68
597.98	1767.40
598.17	1794.02
598.36	1695.72
598.56	1794.02
598.75	1720.29
598.94	1660.90
599.14	1730.53
599.33	1697.77
599.52	1794.02
599.71	1779.68
599.91	1763.30
600.10	1824.74
600.29	1708.01
600.48	1794.02
600.68	1701.86
600.87	1781.73
601.06	1648.61
601.26	1708.01
601.45	1810.40
601.64	1753.06
601.83	1845.22
602.03	1779.68
602.22	1697.77
602.41	1867.75
602.60	1945.57
602.80	1699.81
602.99	1783.78
603.18	1675.24
603.37	1720.29
603.57	1761.25
603.76	1832.93
603.95	1740.77
604.14	1693.67
604.34	1681.38
604.53	1802.21
604.72	1693.67
604.91	1734.63
605.10	1789.92
605.30	1691.62
605.49	1877.99
605.68	1751.01
605.87	1705.96
606.07	1669.09
606.26	1656.81
606.45	1728.49
606.64	1691.62
606.84	1660.90
607.03	1693.67
607.22	1779.68
607.41	1630.18
607.60	1722.34
607.80	1789.92
607.99	1660.90
608.18	1779.68
608.37	1783.78
608.56	1701.86
608.76	1796.07
608.95	1859.56
609.14	1738.73
609.33	1720.29
609.52	1781.73
609.72	1798.12
609.91	1843.17
610.10	1718.25
610.29	1806.31
610.48	1804.26
610.68	1744.87
610.87	1736.68
611.06	1738.73
611.25	1691.62
611.44	1753.06
611.63	1804.26
611.83	1828.84
612.02	1665.00
612.21	1837.03
612.40	1624.04
612.59	1705.96
612.79	1681.38
612.98	1822.69
613.17	1890.28
613.36	1710.05
613.55	1800.16
613.74	1732.58
613.93	1742.82
614.13	1757.16
614.32	1775.59
614.51	1732.58
614.70	1697.77
614.89	1681.38
615.08	1771.49
615.28	2084.83
615.47	1638.38
615.66	1781.73
615.85	1734.63
616.04	1771.49
616.23	1624.04
616.42	1734.63
616.62	1791.97
616.81	1718.25
617.00	1699.81
617.19	1779.68
617.38	1689.57
617.57	1712.10
617.76	1763.30
617.95	1763.30
618.15	1757.16
618.34	1820.64
618.53	1697.77
618.72	1763.30
618.91	1806.31
619.10	1820.64
619.29	1691.62
619.48	1761.25
619.68	1609.70
619.87	1740.77
620.06	1712.10
620.25	1789.92
620.44	1648.61
620.63	1687.53
620.82	1683.43
621.01	1751.01
621.20	1658.85
621.39	1804.26
621.59	1757.16
621.78	1757.16
621.97	1716.20
622.16	1789.92
622.35	1787.88
622.54	1767.40
622.73	1755.11
622.92	1701.86
623.11	1800.16
623.30	1755.11
623.49	1716.20
623.68	1677.29
623.88	1777.64
624.07	1718.25
624.26	1632.23
624.45	1703.91
624.64	1656.81
624.83	1726.44
625.02	1660.90
625.21	1720.29
625.40	1718.25
625.59	1796.07
625.78	1632.23
625.97	1767.40
626.16	1826.79
626.35	1783.78
626.54	1701.86
626.74	1724.39
626.93	1683.43
627.12	1728.49
627.31	1789.92
627.50	1779.68
627.69	1800.16
627.88	1675.24
628.07	1712.10
628.26	1689.57
628.45	1681.38
628.64	1679.33
628.83	1742.82
629.02	1624.04
629.21	1789.92
629.40	1742.82
629.59	1656.81
629.78	1669.09
629.97	1685.48
630.16	1718.25
630.35	1699.81
630.54	1806.31
630.73	1689.57
630.92	1710.05
631.11	1755.11
631.30	1675.24
631.49	1814.50
631.68	1705.96
631.87	1753.06
632.06	1656.81
632.25	1853.41
632.44	1789.92
632.63	1687.53
632.82	1710.05
633.01	1660.90
633.20	1693.67
633.39	1699.81
633.58	1697.77
633.77	1734.63
633.96	1777.64
634.15	1771.49
634.34	1699.81
634.53	1708.01
634.72	1736.68
634.91	1648.61
635.10	1742.82
635.29	1767.40
635.48	1751.01
635.67	1720.29
635.86	1689.57
636.05	1697.77
636.24	1697.77
636.43	1744.87
636.62	1824.74
636.81	1550.31
637.00	1642.47
637.19	1787.88
637.38	1681.38
637.57	1673.19
637.76	1703.91
637.95	1732.58
638.14	1576.94
638.33	1703.91
638.52	1828.84
638.71	1607.66
638.89	1611.75
639.08	1853.41
639.27	1761.25
639.46	1701.86
639.65	1845.22
639.84	1767.40
640.03	1759.21
640.22	1675.24
640.41	1814.50
640.60	1660.90
640.79	1769.44
640.98	1660.90
641.17	1722.34
641.36	1742.82
641.55	1757.16
641.74	1675.24
641.92	1681.38
642.11	1636.33
642.30	1658.85
642.49	1665.00
642.68	1677.29
642.87	1796.07
643.06	1720.29
643.25	1806.31
643.44	1701.86
643.63	1763.30
643.82	1751.01
644.00	1656.81
644.19	1746.92
644.38	1617.90
644.57	1800.16
644.76	1734.63
644.95	1738.73
645.14	1734.63
645.33	1669.09
645.52	1695.72
645.71	1669.09
645.89	1632.23
646.08	1683.43
646.27	1753.06
646.46	1853.41
646.65	1634.28
646.84	1785.83
647.03	1755.11
647.22	1804.26
647.40	1693.67
647.59	1669.09
647.78	1589.22
647.97	1699.81
648.16	1693.67
648.35	1824.74
648.54	1730.53
648.73	1730.53
648.91	1751.01
649.10	1646.57
649.29	1703.91
649.48	1720.29
649.67	1705.96
649.86	1734.63
650.05	1630.18
650.23	1732.58
650.42	1699.81
650.61	1781.73
650.80	1693.67
650.99	1832.93
651.18	1763.30
651.36	1798.12
651.55	1708.01
651.74	1824.74
651.93	1648.61
652.12	1679.33
652.31	1658.85
652.49	1634.28
652.68	1687.53
652.87	1796.07
653.06	1681.38
653.25	1826.79
653.44	1744.87
653.62	1751.01
653.81	1767.40
654.00	1736.68
654.19	1689.57
654.38	1855.46
654.56	1716.20
654.75	1773.54
654.94	1755.11
655.13	1720.29
655.32	1753.06
655.51	1779.68
655.69	1714.15
655.88	1724.39
656.07	1646.57
656.26	1820.64
656.45	1654.76
656.63	1748.97
656.82	1775.59
657.01	1761.25
657.20	1775.59
657.38	1732.58
657.57	1679.33
657.76	1583.08
657.95	1867.75
658.14	1783.78
658.32	1683.43
658.51	1636.33
658.70	1748.97
658.89	1693.67
659.08	1765.35
659.26	1841.12
659.45	1648.61
659.64	1730.53
659.83	1724.39
660.01	1943.52
660.20	1734.63
660.39	1837.03
660.58	1619.94
660.76	1746.92
660.95	1619.94
661.14	1720.29
661.33	1626.09
661.51	1675.24
661.70	1714.15
661.89	1783.78
662.08	1701.86
662.26	1572.84
662.45	1695.72
662.64	1798.12
662.83	1785.83
663.01	1671.14
663.20	1662.95
663.39	1781.73
663.58	1730.53
663.76	1648.61
663.95	1759.21
664.14	1685.48
664.32	1761.25
664.51	1720.29
664.70	1660.90
664.89	1751.01
665.07	1632.23
665.26	1736.68
665.45	1681.38
665.64	1763.30
665.82	1724.39
666.01	1771.49
666.20	1673.19
666.38	1826.79
666.57	1810.40
666.76	2201.57
666.95	4501.44
667.13	10180.45
667.32	14960.41
667.51	17600.24
667.69	18487.01
667.88	16959.23
668.07	11908.94
668.25	9330.55
668.44	8109.96
668.63	7227.28
668.81	6553.50
669.00	6127.52
669.19	5605.29
669.38	4974.52
669.56	4485.05
669.75	4046.79
669.94	3411.92
670.12	2861.01
670.31	2459.61
670.50	2205.66
670.68	2113.50
670.87	1869.80
671.06	1822.69
671.24	1798.12
671.43	1804.26
671.62	1755.11
671.80	1644.52
671.99	1785.83
672.18	1765.35
672.36	1796.07
672.55	1791.97
672.74	1714.15
672.92	1697.77
673.11	1742.82
673.29	1642.47
673.48	1695.72
673.67	1734.63
673.85	1746.92
674.04	1705.96
674.23	1798.12
674.41	1796.07
674.60	1634.28
674.79	1695.72
674.97	1708.01
675.16	1753.06
675.34	1834.98
675.53	1789.92
675.72	1667.05
675.90	1820.64
676.09	1699.81
676.28	1716.20
676.46	1671.14
676.65	1683.43
676.83	1691.62
677.02	1759.21
677.21	1665.00
677.39	1634.28
677.58	1693.67
677.77	1644.52
677.95	1619.94
678.14	1736.68
678.32	1722.34
678.51	1697.77
678.70	1843.17
678.88	1699.81
679.07	1775.59
679.25	1697.77
679.44	1667.05
679.63	1685.48
679.81	1802.21
680.00	1820.64
680.18	1759.21
680.37	1748.97
680.55	1722.34
680.74	1648.61
680.93	1656.81
681.11	1748.97
681.30	1648.61
681.48	1748.97
681.67	1628.14
681.85	1761.25
682.04	1697.77
682.23	1757.16
682.41	1759.21
682.60	1699.81
682.78	1683.43
682.97	1669.09
683.15	1738.73
683.34	1734.63
683.53	1767.40
683.71	1660.90
683.90	1816.55
684.08	1769.44
684.27	1687.53
684.45	1691.62
684.64	1736.68
684.82	1703.91
685.01	1738.73
685.19	1814.50
685.38	1832.93
685.57	1728.49
685.75	1716.20
685.94	1726.44
686.12	1712.10
686.31	1746.92
686.49	1759.21
686.68	1562.60
686.86	1761.25
687.05	1722.34
687.23	1808.36
687.42	1640.42
687.60	1587.18
687.79	1785.83
687.97	1808.36
688.16	1716.20
688.34	1730.53
688.53	1593.32
688.71	1753.06
688.90	1826.79
689.08	1681.38
689.27	1611.75
689.45	1808.36
689.64	1744.87
689.82	1693.67
690.01	1757.16
690.19	1746.92
690.38	1621.99
690.56	1753.06
690.75	1636.33
690.93	1656.81
691.12	1615.85
691.30	1789.92
691.49	1617.90
691.67	1718.25
691.86	1880.04
692.04	1699.81
692.23	1632.23
692.41	1677.29
692.60	1847.27
692.78	1738.73
692.97	1669.09
693.15	1703.91
693.34	1875.94
693.52	1724.39
693.71	1603.56
693.89	1712.10
694.08	1591.27
694.26	1804.26
694.44	1755.11
694.63	1773.54
694.81	1636.33
695.00	1687.53
695.18	1730.53
695.37	1757.16
695.55	1748.97
695.74	1726.44
695.92	1671.14
696.10	1740.77
696.29	1624.04
696.47	1685.48
696.66	1677.29
696.84	1681.38
697.03	1787.88
697.21	1787.88
697.40	2205.66
697.58	1814.50
697.76	1656.81
697.95	1714.15
698.13	1658.85
698.32	1701.86
698.50	1697.77
698.68	1632.23
698.87	1722.34
699.05	1820.64
699.24	1677.29
699.42	1669.09
699.61	1775.59
699.79	1769.44
699.97	1791.97
700.16	1599.46
700.34	1642.47
700.53	1753.06
700.71	1798.12
700.89	1728.49
701.08	1683.43
701.26	1667.05
701.45	2136.03
701.63	1705.96
701.81	1712.10
702.00	1699.81
702.18	1740.77
702.37	1699.81
702.55	1746.92
702.73	1679.33
702.92	1673.19
703.10	1767.40
703.28	1703.91
703.47	1665.00
703.65	1798.12
703.84	1753.06
704.02	1691.62
704.20	1748.97
704.39	1751.01
704.57	1742.82
704.75	1687.53
704.94	1773.54
705.12	1814.50
705.30	1771.49
705.49	2220.00
705.67	4487.10
705.86	9265.01
706.04	12281.67
706.22	14227.24
706.41	14946.08
706.59	13420.34
706.77	9389.94
706.96	7169.94
707.14	6557.60
707.32	5787.56
707.51	5595.05
707.69	4921.27
707.87	4095.94
708.06	3448.78
708.24	2881.49
708.42	2482.14
708.61	2222.05
708.79	1898.47
708.97	1791.97
709.16	1765.35
709.34	1804.26
709.52	1722.34
709.71	1679.33
709.89	1736.68
710.07	1632.23
710.26	1705.96
710.44	1697.77
710.62	1794.02
710.80	1765.35
710.99	1726.44
711.17	1781.73
711.35	1654.76
711.54	1669.09
711.72	1687.53
711.90	1765.35
712.09	1718.25
712.27	1767.40
712.45	1697.77
712.63	1644.52
712.82	1726.44
713.00	1751.01
713.18	1679.33
713.37	1767.40
713.55	1738.73
713.73	1701.86
713.91	1732.58
714.10	1767.40
714.28	1630.18
714.46	1736.68
714.65	1798.12
714.83	1677.29
715.01	1660.90
715.19	1744.87
715.38	1689.57
715.56	1740.77
715.74	1693.67
715.92	1716.20
716.11	1802.21
716.29	1650.66
716.47	1716.20
716.65	1652.71
716.84	1587.18
717.02	1722.34
717.20	1574.89
717.38	1673.19
717.57	1816.55
717.75	1710.05
717.93	1607.66
718.11	1710.05
718.30	1574.89
718.48	1705.96
718.66	1753.06
718.84	1683.43
719.03	1763.30
719.21	1624.04
719.39	1791.97
719.57	1804.26
719.75	1806.31
719.94	1673.19
720.12	1728.49
720.30	1714.15
720.48	1839.08
720.67	1656.81
720.85	1677.29
721.03	1693.67
721.21	1708.01
721.39	1765.35
721.58	1732.58
721.76	1619.94
721.94	1798.12
722.12	1763.30
722.30	1751.01
722.49	1654.76
722.67	1753.06
722.85	1699.81
723.03	1632.23
723.21	1648.61
723.40	1697.77
723.58	1730.53
723.76	1753.06
723.94	1730.53
724.12	1722.34
724.30	1814.50
724.49	1791.97
724.67	1652.71
724.85	1783.78
725.03	1675.24
725.21	1712.10
725.40	1767.40
725.58	1605.61
725.76	1765.35
725.94	1697.77
726.12	1687.53
726.30	1734.63
726.49	1726.44
726.67	1724.39
726.85	1806.31
727.03	1830.88
727.21	2226.14
727.39	2942.93
727.57	3743.69
727.76	4104.13
727.94	4278.21
728.12	4267.97
728.30	3639.24
728.48	2854.87
728.66	2775.00
728.84	2537.43
729.03	2301.92
729.21	2052.06
729.39	2033.63
729.57	1843.17
729.75	1814.50
729.93	1890.28
730.11	1687.53
730.30	1732.58
730.48	1767.40
730.66	1796.07
730.84	1830.88
731.02	1714.15
731.20	1630.18
731.38	1785.83
731.56	1615.85
731.74	1646.57
731.93	1667.05
732.11	1718.25
732.29	1708.01
732.47	1781.73
732.65	1718.25
732.83	1779.68
733.01	1818.60
733.19	1673.19
733.37	1708.01
733.56	1794.02
733.74	1751.01
733.92	1763.30
734.10	1705.96
734.28	1843.17
734.46	1542.12
734.64	1673.19
734.82	1748.97
735.00	1665.00
735.18	1697.77
735.36	1636.33
735.54	1624.04
735.73	1685.48
735.91	1744.87
736.09	1773.54
736.27	1703.91
736.45	1759.21
736.63	1624.04
736.81	1691.62
736.99	1726.44
737.17	1818.60
737.35	1660.90
737.53	1755.11
737.71	1722.34
737.89	1701.86
738.07	1648.61
738.25	1636.33
738.43	1697.77
738.61	1708.01
738.80	1667.05
738.98	1576.94
739.16	1689.57
739.34	1667.05
739.52	1744.87
739.70	1691.62
739.88	1736.68
740.06	1728.49
740.24	1632.23
740.42	1800.16
740.60	1701.86
740.78	1621.99
740.96	1548.26
741.14	1656.81
741.32	1679.33
741.50	1771.49
741.68	1824.74
741.86	1767.40
742.04	1763.30
742.22	1644.52
742.40	1658.85
742.58	1691.62
742.76	1667.05
742.94	1761.25
743.12	1525.74
743.30	1644.52
743.48	1685.48
743.66	1632.23
743.84	1742.82
744.02	1665.00
744.20	1683.43
744.38	1705.96
744.56	1667.05
744.74	1734.63
744.92	1720.29
745.10	1748.97
745.28	1658.85
745.46	1849.32
745.64	1697.77
745.82	1857.51
746.00	1720.29
746.18	1697.77
746.36	1654.76
746.54	1748.97
746.72	1697.77
746.90	1685.48
747.08	1871.84
747.26	1718.25
747.44	1712.10
747.62	1783.78
747.80	1710.05
747.98	1671.14
748.15	1724.39
748.33	1773.54
748.51	1732.58
748.69	1689.57
748.87	1640.42
749.05	1677.29
749.23	1742.82
749.41	1779.68
749.59	1648.61
749.77	1732.58
749.95	1697.77
750.13	1632.23
750.31	1699.81
750.49	1697.77
750.67	1652.71
750.85	1787.88
751.03	1693.67
751.20	1734.63
751.38	1791.97
751.56	1730.53
751.74	1734.63
751.92	1703.91
752.10	1755.11
752.28	1742.82
752.46	1691.62
752.64	1683.43
752.82	1669.09
753.00	1773.54
753.18	1687.53
753.35	1581.03
753.53	1738.73
753.71	1677.29
753.89	1679.33
754.07	1826.79
754.25	1755.11
754.43	1705.96
754.61	1738.73
754.79	1716.20
754.97	1714.15
755.14	1828.84
755.32	1626.09
755.50	1667.05
755.68	1685.48
755.86	1583.08
756.04	1693.67
756.22	1683.43
756.40	1714.15
756.57	1839.08
756.75	1738.73
756.93	1767.40
757.11	1773.54
757.29	1662.95
757.47	1634.28
757.65	1585.13
757.82	1570.79
758.00	1689.57
758.18	1681.38
758.36	1646.57
758.54	1724.39
758.72	1578.98
758.90	1691.62
759.07	1742.82
759.25	1701.86
759.43	1767.40
759.61	1677.29
759.79	2205.66
759.97	1699.81
760.15	1669.09
760.32	1705.96
760.50	1687.53
760.68	1794.02
760.86	1683.43
761.04	1751.01
761.22	1761.25
761.39	1751.01
761.57	1693.67
761.75	1607.66
761.93	1740.77
762.11	1634.28
762.28	1722.34
762.46	1681.38
762.64	1689.57
762.82	1634.28
763.00	1726.44
763.18	1726.44
763.35	1681.38
763.53	1775.59
763.71	1710.05
763.89	1701.86
764.07	1705.96
764.24	1691.62
764.42	1720.29
764.60	1626.09
764.78	1759.21
764.96	1744.87
765.13	1794.02
765.31	1677.29
765.49	1736.68
765.67	1665.00
765.84	1607.66
766.02	1646.57
766.20	1689.57
766.38	1789.92
766.56	1693.67
766.73	1689.57
766.91	1685.48
767.09	1736.68
767.27	1757.16
767.44	1669.09
767.62	1789.92
767.80	1669.09
767.98	1738.73
768.15	1675.24
768.33	1748.97
768.51	1740.77
768.69	1808.36
768.87	1779.68
769.04	1648.61
769.22	1863.65
769.40	1773.54
769.58	1857.51
769.75	1697.77
769.93	1806.31
770.11	1683.43
770.28	1652.71
770.46	1738.73
770.64	1683.43
770.82	1794.02
770.99	1687.53
771.17	1740.77
771.35	1677.29
771.53	1712.10
771.70	1759.21
771.88	1724.39
772.06	1746.92
772.23	1712.10
772.41	1753.06
772.59	1699.81
772.77	1656.81
772.94	1636.33
773.12	1675.24
773.30	1701.86
773.47	1728.49
773.65	1621.99
773.83	1826.79
774.01	1673.19
774.18	1597.42
774.36	1685.48
774.54	1615.85
774.71	1650.66
774.89	1607.66
775.07	1634.28
775.24	1683.43
775.42	1675.24
775.60	1798.12
775.78	1611.75
775.95	1675.24
776.13	1642.47
776.31	1656.81
776.48	1634.28
776.66	1742.82
776.84	1736.68
777.01	1652.71
777.19	1560.55
777.37	1691.62
777.54	1720.29
777.72	1810.40
777.90	1703.91
778.07	1693.67
778.25	1920.99
778.43	1814.50
778.60	1742.82
778.78	1722.34
778.96	1832.93
779.13	1660.90
779.31	1740.77
779.49	1607.66
779.66	1658.85
779.84	1708.01
780.01	1613.80
780.19	1662.95
780.37	1689.57
780.54	1748.97
780.72	1640.42
780.90	1609.70
781.07	1665.00
781.25	1724.39
781.43	1767.40
781.60	1656.81
781.78	1794.02
781.95	1699.81
782.13	1710.05
782.31	1722.34
782.48	1632.23
782.66	1753.06
782.83	1863.65
783.01	1773.54
783.19	1720.29
783.36	1695.72
783.54	1593.32
783.72	1730.53
783.89	1738.73
784.07	1744.87
784.24	1695.72
784.42	1810.40
784.60	1667.05
784.77	1755.11
784.95	1570.79
785.12	1691.62
785.30	1708.01
785.47	1691.62
785.65	1638.38
785.83	1695.72
786.00	1703.91
786.18	1755.11
786.35	1636.33
786.53	1685.48
786.71	1822.69
786.88	1722.34
787.06	1775.59
787.23	1746.92
787.41	1669.09
787.58	1705.96
787.76	1660.90
787.94	1662.95
788.11	1644.52
788.29	1667.05
788.46	1753.06
788.64	1675.24
788.81	1677.29
788.99	1621.99
789.16	1742.82
789.34	1746.92
789.52	1595.37
789.69	1640.42
789.87	1566.70
790.04	1687.53
790.22	1677.29
790.39	1900.52
790.57	1665.00
790.74	1626.09
790.92	1738.73
791.09	1576.94
791.27	1742.82
791.44	1748.97
791.62	1697.77
791.79	1679.33
791.97	1759.21
792.15	1837.03
792.32	1769.44
792.50	1726.44
792.67	1912.80
792.85	1738.73
793.02	1689.57
793.20	1667.05
793.37	1593.32
793.55	1716.20
793.72	1619.94
793.90	1716.20
794.07	1624.04
794.25	1566.70
794.42	1730.53
794.60	1644.52
794.77	1724.39
794.95	1675.24
795.12	1734.63
795.30	1689.57
795.47	1587.18
795.65	1918.95
795.82	1636.33
796.00	1644.52
796.17	1730.53
796.34	1624.04
796.52	1699.81
796.69	1732.58
796.87	1712.10
797.04	1712.10
797.22	1712.10
797.39	1671.14
797.57	1777.64
797.74	1791.97
797.92	1734.63
798.09	1652.71
798.27	1736.68
798.44	1837.03
798.62	1654.76
798.79	1708.01
798.96	1748.97
799.14	1675.24
799.31	1812.45
799.49	1677.29
799.66	1726.44
799.84	1744.87
800.01	1605.61
800.19	1767.40
800.36	1574.89
800.53	1755.11
800.71	1679.33
800.88	1812.45
801.06	1681.38
801.23	1699.81
801.41	1648.61
801.58	1693.67
801.75	1662.95
801.93	1722.34
802.10	1732.58
802.28	1742.82
802.45	1714.15
802.63	1718.25
802.80	1806.31
802.97	1673.19
803.15	1677.29
803.32	1624.04
803.50	1699.81
803.67	1640.42
803.84	1646.57
804.02	1705.96
804.19	1619.94
804.37	1574.89
804.54	1591.27
804.71	1667.05
804.89	1693.67
805.06	1654.76
805.24	1712.10
805.41	1708.01
805.58	1685.48
805.76	1841.12
805.93	1734.63
806.10	1779.68
806.28	1714.15
806.45	1689.57
806.63	1658.85
806.80	1714.15
806.97	1751.01
807.15	1767.40
807.32	1675.24
807.49	1714.15
807.67	1591.27
807.84	1660.90
808.01	1652.71
808.19	1900.52
808.36	1785.83
808.54	1658.85
808.71	1665.00
808.88	1673.19
809.06	1761.25
809.23	1816.55
809.40	1669.09
809.58	1808.36
809.75	1771.49
809.92	1650.66
810.10	1816.55
810.27	1761.25
810.44	1714.15
810.62	1705.96
810.79	1744.87
810.96	1665.00
811.14	1736.68
811.31	1740.77
811.48	1800.16
811.66	1720.29
811.83	1804.26
812.00	1746.92
812.18	1675.24
812.35	1800.16
812.52	1665.00
812.69	1683.43
812.87	1753.06
813.04	1681.38
813.21	1724.39
813.39	1632.23
813.56	1648.61
813.73	1751.01
813.91	1607.66
814.08	1626.09
814.25	1687.53
814.42	1581.03
814.60	1771.49
814.77	1677.29
814.94	1660.90
815.12	1703.91
815.29	1794.02
815.46	1665.00
815.63	1693.67
815.81	1685.48
815.98	1636.33
816.15	1656.81
816.33	1734.63
816.50	1665.00
816.67	1675.24
816.84	1714.15
817.02	1630.18
817.19	1642.47
817.36	1744.87
817.53	1716.20
817.71	1675.24
817.88	1748.97
818.05	1679.33
818.22	1720.29
818.40	1841.12
818.57	1716.20
818.74	1785.83
818.91	1665.00
819.09	1828.84
819.26	1804.26
819.43	1652.71
819.60	1599.46
819.78	1699.81
819.95	1724.39
820.12	1636.33
820.29	1796.07
820.47	1834.98
820.64	1748.97
820.81	1630.18
820.98	1697.77
821.15	1693.67
821.33	1779.68
821.50	1701.86
821.67	1740.77
821.84	1724.39
822.02	1787.88
822.19	1779.68
822.36	1712.10
822.53	1662.95
822.70	1730.53
822.88	1705.96
823.05	1738.73
823.22	1662.95
823.39	1820.64
823.56	1755.11
823.74	1804.26
823.91	1665.00
824.08	1687.53
824.25	1601.51
824.42	1773.54
824.60	1677.29
824.77	1783.78
824.94	1738.73
825.11	1683.43
825.28	1714.15
825.45	1759.21
825.63	1728.49
825.80	1701.86
825.97	1681.38
826.14	1714.15
826.31	1699.81
826.48	1742.82
826.66	1695.72
826.83	1703.91
827.00	1697.77
827.17	1595.37
827.34	1730.53
827.51	1601.51
827.69	1746.92
827.86	1705.96
828.03	1689.57
828.20	1755.11
828.37	1681.38
828.54	1703.91
828.71	1710.05
828.89	1761.25
829.06	1738.73
829.23	1796.07
829.40	1710.05
829.57	1640.42
829.74	1642.47
829.91	1660.90
830.09	1648.61
830.26	1710.05
830.43	1738.73
830.60	1716.20
830.77	1767.40
830.94	1787.88
831.11	1734.63
831.28	1662.95
831.46	1810.40
831.63	1656.81
831.80	1753.06
831.97	1685.48
832.14	1671.14
832.31	1683.43
832.48	1763.30
832.65	1722.34
832.82	1654.76
832.99	1724.39
833.17	1681.38
833.34	1767.40
833.51	1779.68
833.68	1615.85
833.85	1769.44
834.02	1683.43
834.19	1652.71
834.36	1722.34
834.53	1720.29
834.70	1779.68
834.87	1718.25
835.04	1728.49
835.22	1675.24
835.39	1662.95
835.56	1681.38
835.73	1673.19
835.90	1722.34
836.07	1632.23
836.24	1765.35
836.41	1699.81
836.58	1607.66
836.75	1722.34
836.92	1689.57
837.09	1628.14
837.26	1736.68
837.43	1746.92
837.60	1746.92
837.77	1697.77
837.94	1716.20
838.12	1732.58
838.29	1685.48
838.46	1640.42
838.63	1685.48
838.80	1796.07
838.97	1738.73
839.14	1652.71
839.31	1691.62
839.48	1728.49
839.65	1685.48
839.82	1775.59
839.99	1710.05
840.16	1720.29
840.33	1671.14
840.50	1753.06
840.67	1632.23
840.84	1595.37
841.01	1703.91
841.18	1624.04
841.35	1650.66
841.52	1763.30
841.69	1882.08
841.86	1791.97
842.03	1728.49
842.20	1699.81
842.37	1718.25
842.54	1705.96
842.71	1689.57
842.88	1693.67
843.05	1693.67
843.22	1628.14
843.39	1691.62
843.56	1751.01
843.73	1695.72
843.90	1660.90
844.07	1699.81
844.24	1718.25
844.41	1708.01
844.58	1722.34
844.75	1691.62
844.92	1714.15
845.09	1705.96
845.26	1599.46
845.43	1658.85
845.60	1640.42
845.77	1771.49
845.94	1759.21
846.10	1724.39
846.27	1574.89
846.44	1667.05
846.61	1615.85
846.78	1724.39
846.95	1710.05
847.12	1654.76
847.29	1691.62
847.46	1681.38
847.63	1708.01
847.80	1640.42
847.97	1675.24
848.14	1847.27
848.31	1693.67
848.48	1603.56
848.65	1720.29
848.82	1720.29
848.98	1746.92
849.15	1716.20
849.32	1800.16
849.49	1812.45
849.66	1689.57
849.83	1685.48
850.00	1697.77
850.17	1751.01
850.34	1646.57
850.51	1636.33
850.68	1734.63
850.85	1839.08
851.01	1718.25
851.18	1804.26
851.35	1656.81
851.52	1677.29
851.69	1746.92
851.86	1712.10
852.03	1705.96
852.20	1712.10
852.37	1697.77
852.53	1646.57
852.70	1687.53
852.87	1726.44
853.04	1746.92
853.21	1667.05
853.38	1779.68
853.55	1857.51
853.72	1826.79
853.89	1646.57
854.05	1662.95
854.22	1685.48
854.39	1650.66
854.56	1673.19
854.73	1816.55
854.90	1599.46
855.07	1712.10
855.23	1681.38
855.40	1705.96
855.57	1648.61
855.74	1621.99
855.91	1841.12
856.08	1578.98
856.25	1685.48
856.41	1636.33
856.58	1669.09
856.75	1681.38
856.92	1652.71
857.09	1767.40
857.26	1683.43
857.42	1695.72
857.59	1777.64
857.76	1722.34
857.93	1710.05
858.10	1787.88
858.27	1665.00
858.43	1665.00
858.60	1673.19
858.77	1613.80
858.94	1681.38
859.11	1804.26
859.27	1708.01
859.44	1693.67
859.61	1837.03
859.78	1748.97
859.95	1693.67
860.12	1712.10
860.28	1800.16
860.45	1837.03
860.62	1730.53
860.79	1683.43
860.95	1697.77
861.12	1665.00
861.29	1630.18
861.46	1685.48
861.63	1665.00
861.79	1763.30
861.96	1701.86
862.13	1697.77
862.30	1759.21
862.47	1628.14
862.63	1693.67
862.80	1808.36
862.97	1773.54
863.14	1714.15
863.30	1689.57
863.47	1708.01
863.64	1761.25
863.81	1673.19
863.97	1646.57
864.14	1718.25
864.31	1640.42
864.48	1703.91
864.65	1665.00
864.81	1724.39
864.98	1728.49
865.15	1699.81
865.32	1777.64
865.48	1781.73
865.65	1791.97
865.82	1640.42
865.98	1681.38
866.15	1757.16
866.32	1722.34
866.49	1718.25
866.65	1736.68
866.82	1587.18
866.99	1619.94
867.16	1675.24
867.32	1712.10
867.49	1718.25
867.66	1742.82
867.83	1634.28
867.99	1738.73
868.16	1697.77
868.33	1722.34
868.49	1726.44
868.66	1619.94
868.83	1761.25
868.99	1708.01
869.16	1691.62
869.33	1744.87
869.50	1763.30
869.66	1697.77
869.83	1669.09
870.00	1601.51
870.16	1648.61
870.33	1740.77
870.50	1701.86
870.66	1693.67
870.83	1804.26
871.00	1763.30
871.17	1685.48
871.33	1777.64
871.50	1642.47
871.67	1710.05
871.83	1652.71
872.00	1738.73
872.17	1669.09
872.33	1845.22
872.50	1730.53
872.67	1650.66
872.83	1718.25
873.00	1742.82
873.17	1677.29
873.33	1648.61
873.50	1738.73
873.67	1689.57
873.83	1681.38
874.00	1675.24
874.16	1669.09
874.33	1751.01
874.50	1746.92
874.66	1748.97
874.83	1744.87
875.00	1810.40
875.16	1734.63
875.33	1812.45
875.50	1626.09
875.66	1669.09
875.83	1632.23
875.99	1716.20
876.16	1744.87
876.33	1703.91
876.49	1734.63
876.66	1677.29
876.83	1722.34
876.99	1656.81
877.16	1697.77
877.32	1761.25
877.49	1751.01
877.66	1654.76
877.82	1748.97
877.99	1732.58
878.15	1806.31
878.32	1785.83
878.49	1683.43
878.65	1683.43
878.82	1779.68
878.98	1699.81
879.15	1785.83
879.32	1802.21
879.48	1701.86
879.65	1654.76
879.81	1697.77
879.98	1697.77
880.15	1718.25
880.31	1751.01
880.48	1630.18
880.64	1767.40
880.81	1705.96
880.97	1808.36
881.14	1751.01
881.31	1667.05
881.47	1816.55
881.64	1722.34
881.80	1624.04
881.97	1693.67
882.13	1751.01
882.30	1681.38
882.47	1703.91
882.63	1628.14
882.80	1662.95
882.96	1665.00
883.13	1724.39
883.29	1691.62
883.46	1689.57
883.62	1785.83
883.79	1644.52
883.95	1722.34
884.12	1744.87
884.29	1820.64
884.45	1736.68
884.62	1693.67
884.78	1669.09
884.95	1857.51
885.11	1671.14
885.28	1714.15
885.44	1656.81
885.61	1718.25
885.77	1761.25
885.94	1724.39
886.10	1724.39
886.27	1693.67
886.43	1765.35
886.60	1783.78
886.76	1689.57
886.93	1626.09
887.09	1744.87
887.26	1728.49
887.42	1755.11
887.59	1787.88
887.75	1738.73
887.92	1732.58
888.08	1730.53
888.25	1769.44
888.41	1730.53
888.58	1671.14
888.74	1679.33
888.91	1730.53
>>>>>End Processed Spectral Data<<<<<
