SpectraSuite Data File
++++++++++++++++++++++++++++++++++++
Date: Mon Jun 06 14:26:17 CEST 2016
User: root
Dark Spectrum Present: No
Reference Spectrum Present: No
Number of Sampled Component Spectra: 1
Spectrometers: USB4C02835
Integration Time (usec): 100000 (USB4C02835)
Spectra Averaged: 1 (USB4C02835)
Boxcar Smoothing: 0 (USB4C02835)
Correct for Electrical Dark: No (USB4C02835)
Strobe/Lamp Enabled: No (USB4C02835)
Correct for Detector Non-linearity: No (USB4C02835)
Correct for Stray Light: No (USB4C02835)
Number of Pixels in Processed Spectrum: 3648
>>>>>Begin Processed Spectral Data<<<<<
177.47	1464.30
177.69	1464.30
177.91	1464.30
178.13	1503.21
178.36	1443.82
178.58	1679.33
178.80	1779.68
179.02	1621.99
179.24	1708.01
179.46	1748.97
179.68	1798.12
179.90	1646.57
180.13	1746.92
180.35	1581.03
180.57	1671.14
180.79	1734.63
181.01	1628.14
181.23	1767.40
181.45	1744.87
181.67	1705.96
181.90	1736.68
182.12	1695.72
182.34	1595.37
182.56	1746.92
182.78	1763.30
183.00	1714.15
183.22	1677.29
183.44	1574.89
183.66	1845.22
183.89	1820.64
184.11	1701.86
184.33	1802.21
184.55	1669.09
184.77	1769.44
184.99	1697.77
185.21	1714.15
185.43	1904.61
185.65	1687.53
185.87	1722.34
186.10	1781.73
186.32	1830.88
186.54	1759.21
186.76	1767.40
186.98	1814.50
187.20	1765.35
187.42	1640.42
187.64	1703.91
187.86	1779.68
188.08	1767.40
188.30	1691.62
188.52	1658.85
188.75	1794.02
188.97	1722.34
189.19	1644.52
189.41	1689.57
189.63	1761.25
189.85	1628.14
190.07	1603.56
190.29	1540.07
190.51	1636.33
190.73	1619.94
190.95	1724.39
191.17	1683.43
191.39	1607.66
191.61	1654.76
191.84	1644.52
192.06	1701.86
192.28	1642.47
192.50	1853.41
192.72	1669.09
192.94	1716.20
193.16	1853.41
193.38	1685.48
193.60	1693.67
193.82	1648.61
194.04	1767.40
194.26	1722.34
194.48	1621.99
194.70	1710.05
194.92	1646.57
195.14	1716.20
195.36	1742.82
195.58	1626.09
195.80	1695.72
196.02	1595.37
196.24	1673.19
196.46	1765.35
196.69	1712.10
196.91	1859.56
197.13	1644.52
197.35	1675.24
197.57	1796.07
197.79	1677.29
198.01	1712.10
198.23	1751.01
198.45	1738.73
198.67	1665.00
198.89	1662.95
199.11	1671.14
199.33	1636.33
199.55	1578.98
199.77	1689.57
199.99	1703.91
200.21	1705.96
200.43	1755.11
200.65	1685.48
200.87	1593.32
201.09	1738.73
201.31	1605.61
201.53	1695.72
201.75	1636.33
201.97	1724.39
202.19	1677.29
202.41	1787.88
202.63	1886.18
202.85	1720.29
203.07	1755.11
203.29	1738.73
203.51	1628.14
203.73	1597.42
203.95	1855.46
204.17	1720.29
204.39	1763.30
204.61	1621.99
204.83	1716.20
205.05	1796.07
205.27	1740.77
205.49	1744.87
205.71	1732.58
205.93	1583.08
206.15	1712.10
206.37	1751.01
206.59	1693.67
206.81	1611.75
207.03	1609.70
207.25	1730.53
207.47	1755.11
207.69	1751.01
207.91	1765.35
208.13	1748.97
208.34	1683.43
208.56	1681.38
208.78	1683.43
209.00	1671.14
209.22	1781.73
209.44	1630.18
209.66	1708.01
209.88	1644.52
210.10	1619.94
210.32	1712.10
210.54	1810.40
210.76	1701.86
210.98	1738.73
211.20	1572.84
211.42	1714.15
211.64	1718.25
211.86	1701.86
212.08	1742.82
212.30	1732.58
212.52	1615.85
212.74	1693.67
212.96	1767.40
213.17	1714.15
213.39	1751.01
213.61	1703.91
213.83	1753.06
214.05	1673.19
214.27	1722.34
214.49	1660.90
214.71	1642.47
214.93	1785.83
215.15	1656.81
215.37	1732.58
215.59	1617.90
215.81	1794.02
216.03	1746.92
216.24	1701.86
216.46	1744.87
216.68	1718.25
216.90	1746.92
217.12	1726.44
217.34	1675.24
217.56	1693.67
217.78	1777.64
218.00	1722.34
218.22	1689.57
218.44	1746.92
218.66	1757.16
218.87	1773.54
219.09	1636.33
219.31	1787.88
219.53	1687.53
219.75	1595.37
219.97	1697.77
220.19	1748.97
220.41	1681.38
220.63	1730.53
220.85	1658.85
221.06	1679.33
221.28	1738.73
221.50	1718.25
221.72	1748.97
221.94	1677.29
222.16	1736.68
222.38	1665.00
222.60	1693.67
222.82	1722.34
223.03	1761.25
223.25	1603.56
223.47	1757.16
223.69	1787.88
223.91	1751.01
224.13	1716.20
224.35	1675.24
224.57	1781.73
224.78	1685.48
225.00	1699.81
225.22	1742.82
225.44	1697.77
225.66	1738.73
225.88	1568.74
226.10	1726.44
226.32	1748.97
226.53	1773.54
226.75	1681.38
226.97	1652.71
227.19	1656.81
227.41	1685.48
227.63	1687.53
227.85	1603.56
228.06	1691.62
228.28	1705.96
228.50	1703.91
228.72	1683.43
228.94	1785.83
229.16	1640.42
229.37	1691.62
229.59	1597.42
229.81	1748.97
230.03	1681.38
230.25	1656.81
230.47	1613.80
230.69	1619.94
230.90	1720.29
231.12	1656.81
231.34	1681.38
231.56	1728.49
231.78	1605.61
232.00	1730.53
232.21	1652.71
232.43	1677.29
232.65	1611.75
232.87	1871.84
233.09	1677.29
233.30	1626.09
233.52	1765.35
233.74	1732.58
233.96	1621.99
234.18	1755.11
234.40	1597.42
234.61	1800.16
234.83	1646.57
235.05	1554.41
235.27	1843.17
235.49	1783.78
235.70	1701.86
235.92	1667.05
236.14	1693.67
236.36	1806.31
236.58	1681.38
236.79	1787.88
237.01	1732.58
237.23	1689.57
237.45	1783.78
237.67	1669.09
237.88	1710.05
238.10	1746.92
238.32	1603.56
238.54	1650.66
238.76	1697.77
238.97	1632.23
239.19	1624.04
239.41	1724.39
239.63	1787.88
239.85	1648.61
240.06	1708.01
240.28	1642.47
240.50	1773.54
240.72	1771.49
240.93	1679.33
241.15	1771.49
241.37	1771.49
241.59	1808.36
241.81	1652.71
242.02	1699.81
242.24	1679.33
242.46	1765.35
242.68	1673.19
242.89	1742.82
243.11	1783.78
243.33	1724.39
243.55	1697.77
243.76	1687.53
243.98	1673.19
244.20	1726.44
244.42	1736.68
244.64	1697.77
244.85	1587.18
245.07	1624.04
245.29	1755.11
245.51	1677.29
245.72	1691.62
245.94	1734.63
246.16	1820.64
246.38	1710.05
246.59	1734.63
246.81	1693.67
247.03	1712.10
247.24	1613.80
247.46	1724.39
247.68	1656.81
247.90	1751.01
248.11	1695.72
248.33	1722.34
248.55	1671.14
248.77	1724.39
248.98	1718.25
249.20	1812.45
249.42	1722.34
249.64	1722.34
249.85	1769.44
250.07	1578.98
250.29	1736.68
250.50	1785.83
250.72	1603.56
250.94	1738.73
251.16	1818.60
251.37	1781.73
251.59	1787.88
251.81	1681.38
252.02	1759.21
252.24	1738.73
252.46	1738.73
252.68	1603.56
252.89	1697.77
253.11	1644.52
253.33	1765.35
253.54	1783.78
253.76	1581.03
253.98	1642.47
254.20	1693.67
254.41	1603.56
254.63	1607.66
254.85	1673.19
255.06	1691.62
255.28	1775.59
255.50	1714.15
255.71	1615.85
255.93	1619.94
256.15	1708.01
256.36	1691.62
256.58	1699.81
256.80	1746.92
257.02	1669.09
257.23	1687.53
257.45	1773.54
257.67	1775.59
257.88	1712.10
258.10	1740.77
258.32	1695.72
258.53	1738.73
258.75	1757.16
258.97	1705.96
259.18	1644.52
259.40	1767.40
259.62	1755.11
259.83	1820.64
260.05	1722.34
260.27	1900.52
260.48	1699.81
260.70	1675.24
260.92	1693.67
261.13	1679.33
261.35	1734.63
261.57	1724.39
261.78	1619.94
262.00	1673.19
262.22	1716.20
262.43	1703.91
262.65	1648.61
262.86	1732.58
263.08	1900.52
263.30	1691.62
263.51	1554.41
263.73	1693.67
263.95	1771.49
264.16	1693.67
264.38	1636.33
264.60	1746.92
264.81	1675.24
265.03	1730.53
265.25	1679.33
265.46	1771.49
265.68	1722.34
265.89	1740.77
266.11	1712.10
266.33	1728.49
266.54	1746.92
266.76	1681.38
266.98	1753.06
267.19	1828.84
267.41	1808.36
267.62	1714.15
267.84	1601.51
268.06	1693.67
268.27	1691.62
268.49	1791.97
268.70	1841.12
268.92	1626.09
269.14	1628.14
269.35	1624.04
269.57	1699.81
269.79	1673.19
270.00	1660.90
270.22	1775.59
270.43	1658.85
270.65	1583.08
270.87	1677.29
271.08	1744.87
271.30	1679.33
271.51	1763.30
271.73	1691.62
271.95	1734.63
272.16	1732.58
272.38	1628.14
272.59	1728.49
272.81	1714.15
273.02	1767.40
273.24	1724.39
273.46	1734.63
273.67	1693.67
273.89	1712.10
274.10	1722.34
274.32	1742.82
274.54	1753.06
274.75	1746.92
274.97	1695.72
275.18	1808.36
275.40	1718.25
275.61	1695.72
275.83	1769.44
276.05	1613.80
276.26	1740.77
276.48	1781.73
276.69	1742.82
276.91	1662.95
277.12	1771.49
277.34	1742.82
277.55	1781.73
277.77	1722.34
277.99	1632.23
278.20	1644.52
278.42	1593.32
278.63	1685.48
278.85	1667.05
279.06	1703.91
279.28	1695.72
279.49	1755.11
279.71	1703.91
279.93	1753.06
280.14	1732.58
280.36	1593.32
280.57	1757.16
280.79	1738.73
281.00	1669.09
281.22	1679.33
281.43	1822.69
281.65	1531.88
281.86	1660.90
282.08	1730.53
282.29	1732.58
282.51	1632.23
282.73	1685.48
282.94	1576.94
283.16	1755.11
283.37	1751.01
283.59	1669.09
283.80	1677.29
284.02	1673.19
284.23	1699.81
284.45	1679.33
284.66	1636.33
284.88	1644.52
285.09	1767.40
285.31	1673.19
285.52	1708.01
285.74	1609.70
285.95	1824.74
286.17	1775.59
286.38	1746.92
286.60	1652.71
286.81	1626.09
287.03	1673.19
287.24	1667.05
287.46	1767.40
287.67	1681.38
287.89	1775.59
288.10	1716.20
288.32	1671.14
288.53	1755.11
288.75	1734.63
288.96	1689.57
289.18	1691.62
289.39	1695.72
289.61	1726.44
289.82	1861.60
290.04	1839.08
290.25	1691.62
290.47	1693.67
290.68	1636.33
290.90	1761.25
291.11	1628.14
291.33	1718.25
291.54	1685.48
291.76	1621.99
291.97	1722.34
292.18	1673.19
292.40	1701.86
292.61	1691.62
292.83	1789.92
293.04	1763.30
293.26	1677.29
293.47	1665.00
293.69	1742.82
293.90	1642.47
294.12	1718.25
294.33	1714.15
294.55	1697.77
294.76	1763.30
294.97	1722.34
295.19	1785.83
295.40	1724.39
295.62	1730.53
295.83	1742.82
296.05	1660.90
296.26	1699.81
296.48	1650.66
296.69	1671.14
296.90	1638.38
297.12	1734.63
297.33	1763.30
297.55	1685.48
297.76	1712.10
297.98	1769.44
298.19	1712.10
298.41	1660.90
298.62	1640.42
298.83	1769.44
299.05	1716.20
299.26	1714.15
299.48	1726.44
299.69	1708.01
299.90	1732.58
300.12	1656.81
300.33	1730.53
300.55	1683.43
300.76	1744.87
300.98	1658.85
301.19	1755.11
301.40	1755.11
301.62	1701.86
301.83	1701.86
302.05	1628.14
302.26	1710.05
302.47	1671.14
302.69	1632.23
302.90	1654.76
303.12	1621.99
303.33	1703.91
303.54	1810.40
303.76	1656.81
303.97	1691.62
304.19	1755.11
304.40	1673.19
304.61	1681.38
304.83	1834.98
305.04	1888.23
305.26	1685.48
305.47	1734.63
305.68	1605.61
305.90	1640.42
306.11	1791.97
306.33	1748.97
306.54	1722.34
306.75	1603.56
306.97	1650.66
307.18	1685.48
307.39	1697.77
307.61	1701.86
307.82	1687.53
308.04	1720.29
308.25	1695.72
308.46	1685.48
308.68	1708.01
308.89	1714.15
309.10	1759.21
309.32	1777.64
309.53	1728.49
309.74	1738.73
309.96	1640.42
310.17	1816.55
310.39	1640.42
310.60	1734.63
310.81	1648.61
311.03	1634.28
311.24	1730.53
311.45	1708.01
311.67	1802.21
311.88	1712.10
312.09	1714.15
312.31	1658.85
312.52	1693.67
312.73	1656.81
312.95	1650.66
313.16	1634.28
313.37	1751.01
313.59	1726.44
313.80	1769.44
314.01	1789.92
314.23	1671.14
314.44	1650.66
314.65	1607.66
314.87	1646.57
315.08	1724.39
315.29	1640.42
315.51	1675.24
315.72	1656.81
315.93	1796.07
316.15	1724.39
316.36	1751.01
316.57	1738.73
316.79	1714.15
317.00	1621.99
317.21	1755.11
317.43	1671.14
317.64	1720.29
317.85	1677.29
318.07	1656.81
318.28	1761.25
318.49	1763.30
318.70	1857.51
318.92	1871.84
319.13	1853.41
319.34	1935.33
319.56	1757.16
319.77	1751.01
319.98	1753.06
320.20	1761.25
320.41	1705.96
320.62	1767.40
320.83	1669.09
321.05	1779.68
321.26	1693.67
321.47	1640.42
321.69	1841.12
321.90	1683.43
322.11	1609.70
322.32	1808.36
322.54	1794.02
322.75	1656.81
322.96	1834.98
323.18	1648.61
323.39	1597.42
323.60	1595.37
323.81	1759.21
324.03	1665.00
324.24	1677.29
324.45	1685.48
324.66	1660.90
324.88	1722.34
325.09	1767.40
325.30	1697.77
325.52	1693.67
325.73	1679.33
325.94	1703.91
326.15	1607.66
326.37	1710.05
326.58	1804.26
326.79	1746.92
327.00	1578.98
327.22	1755.11
327.43	1665.00
327.64	1648.61
327.85	1779.68
328.07	1705.96
328.28	1742.82
328.49	1683.43
328.70	1630.18
328.92	1726.44
329.13	1660.90
329.34	1734.63
329.55	1814.50
329.76	1771.49
329.98	1667.05
330.19	1837.03
330.40	1728.49
330.61	1718.25
330.83	1769.44
331.04	1681.38
331.25	1630.18
331.46	1660.90
331.68	1562.60
331.89	1798.12
332.10	1689.57
332.31	1671.14
332.52	1591.27
332.74	1789.92
332.95	1642.47
333.16	1716.20
333.37	1695.72
333.58	1656.81
333.80	1722.34
334.01	1566.70
334.22	1681.38
334.43	1634.28
334.64	1685.48
334.86	1615.85
335.07	1673.19
335.28	1812.45
335.49	1671.14
335.70	1705.96
335.92	1763.30
336.13	1822.69
336.34	1767.40
336.55	1726.44
336.76	1718.25
336.98	1527.78
337.19	1656.81
337.40	1779.68
337.61	1820.64
337.82	1652.71
338.04	1812.45
338.25	1662.95
338.46	1626.09
338.67	1673.19
338.88	1712.10
339.09	1638.38
339.31	1701.86
339.52	1533.93
339.73	1667.05
339.94	1697.77
340.15	1785.83
340.36	1701.86
340.58	1722.34
340.79	1650.66
341.00	1740.77
341.21	1665.00
341.42	1859.56
341.63	1681.38
341.85	1699.81
342.06	1722.34
342.27	1705.96
342.48	1710.05
342.69	1650.66
342.90	1779.68
343.12	1722.34
343.33	1689.57
343.54	1841.12
343.75	1763.30
343.96	1640.42
344.17	1675.24
344.38	1689.57
344.60	1650.66
344.81	1636.33
345.02	1722.34
345.23	1820.64
345.44	1832.93
345.65	1767.40
345.86	1740.77
346.07	1679.33
346.29	1669.09
346.50	1636.33
346.71	1755.11
346.92	1746.92
347.13	1757.16
347.34	1691.62
347.55	1681.38
347.76	1720.29
347.98	1601.51
348.19	1658.85
348.40	1808.36
348.61	1720.29
348.82	1789.92
349.03	1738.73
349.24	1693.67
349.45	1808.36
349.66	1591.27
349.88	1679.33
350.09	1603.56
350.30	1816.55
350.51	1798.12
350.72	1701.86
350.93	1660.90
351.14	1683.43
351.35	1765.35
351.56	1710.05
351.77	1685.48
351.99	1646.57
352.20	1759.21
352.41	1748.97
352.62	1576.94
352.83	1685.48
353.04	1701.86
353.25	1632.23
353.46	1685.48
353.67	1767.40
353.88	1665.00
354.09	1693.67
354.30	1693.67
354.52	1753.06
354.73	1746.92
354.94	1679.33
355.15	1730.53
355.36	1804.26
355.57	1683.43
355.78	1693.67
355.99	1685.48
356.20	1705.96
356.41	1740.77
356.62	1716.20
356.83	1675.24
357.04	1818.60
357.25	1646.57
357.46	1697.77
357.68	1624.04
357.89	1648.61
358.10	1710.05
358.31	1695.72
358.52	1675.24
358.73	1630.18
358.94	1675.24
359.15	1615.85
359.36	1642.47
359.57	1644.52
359.78	1667.05
359.99	1665.00
360.20	1644.52
360.41	1685.48
360.62	1673.19
360.83	1695.72
361.04	1656.81
361.25	1710.05
361.46	1732.58
361.67	1789.92
361.88	1708.01
362.09	1730.53
362.30	1673.19
362.51	1681.38
362.72	1738.73
362.93	1710.05
363.14	1720.29
363.35	1751.01
363.56	1665.00
363.78	1783.78
363.99	1794.02
364.20	1656.81
364.41	1673.19
364.62	1804.26
364.83	1683.43
365.04	1703.91
365.25	1685.48
365.46	1806.31
365.67	1718.25
365.88	1662.95
366.09	1615.85
366.30	1681.38
366.51	1720.29
366.72	1636.33
366.93	1718.25
367.14	1656.81
367.35	1798.12
367.56	1685.48
367.77	1806.31
367.98	1761.25
368.18	1689.57
368.39	1710.05
368.60	1628.14
368.81	1785.83
369.02	1677.29
369.23	1681.38
369.44	1615.85
369.65	1669.09
369.86	1781.73
370.07	1769.44
370.28	1624.04
370.49	1714.15
370.70	1736.68
370.91	1621.99
371.12	1708.01
371.33	1724.39
371.54	1691.62
371.75	1785.83
371.96	1595.37
372.17	1693.67
372.38	1734.63
372.59	1740.77
372.80	1677.29
373.01	1718.25
373.22	1734.63
373.43	1734.63
373.64	1658.85
373.85	1740.77
374.06	1751.01
374.26	1728.49
374.47	1681.38
374.68	1804.26
374.89	1730.53
375.10	1714.15
375.31	1755.11
375.52	1734.63
375.73	1685.48
375.94	1632.23
376.15	1746.92
376.36	1675.24
376.57	1683.43
376.78	1675.24
376.99	1714.15
377.20	1796.07
377.40	1687.53
377.61	1716.20
377.82	1640.42
378.03	1767.40
378.24	1718.25
378.45	1724.39
378.66	1689.57
378.87	1691.62
379.08	1626.09
379.29	1720.29
379.50	1806.31
379.71	1679.33
379.91	1746.92
380.12	1693.67
380.33	1738.73
380.54	1738.73
380.75	1681.38
380.96	1701.86
381.17	1771.49
381.38	1751.01
381.59	1732.58
381.80	1648.61
382.00	1834.98
382.21	1779.68
382.42	1834.98
382.63	1861.60
382.84	1726.44
383.05	1675.24
383.26	1773.54
383.47	1667.05
383.68	1685.48
383.88	1693.67
384.09	1740.77
384.30	1845.22
384.51	1724.39
384.72	1757.16
384.93	1667.05
385.14	1624.04
385.35	1802.21
385.55	1710.05
385.76	1804.26
385.97	1728.49
386.18	1658.85
386.39	1542.12
386.60	1644.52
386.81	1656.81
387.02	1687.53
387.22	1654.76
387.43	1746.92
387.64	1769.44
387.85	1871.84
388.06	2199.52
388.27	4216.77
388.48	6733.72
388.68	8081.28
388.89	9521.01
389.10	9619.31
389.31	8537.98
389.52	7552.91
389.73	6698.91
389.93	6203.30
390.14	5814.18
390.35	5017.52
390.56	4491.20
390.77	3893.19
390.98	2914.26
391.18	2488.28
391.39	2115.55
391.60	1843.17
391.81	1886.18
392.02	1732.58
392.23	1865.70
392.43	1775.59
392.64	1800.16
392.85	1722.34
393.06	1701.86
393.27	1730.53
393.47	1652.71
393.68	1746.92
393.89	1628.14
394.10	1759.21
394.31	1687.53
394.52	1632.23
394.72	1662.95
394.93	1773.54
395.14	1640.42
395.35	1724.39
395.56	1703.91
395.76	1771.49
395.97	1751.01
396.18	1847.27
396.39	1773.54
396.60	1943.52
396.80	1865.70
397.01	1791.97
397.22	1822.69
397.43	1871.84
397.64	1791.97
397.84	1869.80
398.05	1875.94
398.26	1769.44
398.47	1818.60
398.67	1722.34
398.88	1759.21
399.09	1738.73
399.30	1650.66
399.51	1720.29
399.71	1628.14
399.92	1742.82
400.13	1687.53
400.34	1685.48
400.54	1720.29
400.75	1830.88
400.96	1720.29
401.17	1779.68
401.37	1810.40
401.58	1691.62
401.79	1714.15
402.00	1824.74
402.21	1959.91
402.41	1877.99
402.62	1937.38
402.83	2021.35
403.04	2095.07
403.24	2084.83
403.45	1841.12
403.66	1824.74
403.87	1830.88
404.07	1826.79
404.28	1972.19
404.49	1875.94
404.70	1787.88
404.90	1787.88
405.11	1710.05
405.32	1734.63
405.52	1636.33
405.73	1665.00
405.94	1589.22
406.15	1638.38
406.35	1697.77
406.56	1699.81
406.77	1794.02
406.98	1755.11
407.18	1689.57
407.39	1763.30
407.60	1671.14
407.80	1761.25
408.01	1679.33
408.22	1699.81
408.43	1763.30
408.63	1767.40
408.84	1771.49
409.05	1728.49
409.25	1656.81
409.46	1656.81
409.67	1701.86
409.88	1697.77
410.08	1710.05
410.29	1734.63
410.50	1791.97
410.70	1763.30
410.91	1679.33
411.12	1746.92
411.32	1732.58
411.53	1634.28
411.74	1773.54
411.95	1722.34
412.15	1730.53
412.36	1785.83
412.57	1806.31
412.77	1775.59
412.98	1681.38
413.19	1710.05
413.39	1748.97
413.60	1722.34
413.81	1851.36
414.01	1685.48
414.22	1775.59
414.43	1730.53
414.63	1691.62
414.84	1796.07
415.05	1675.24
415.25	1642.47
415.46	1751.01
415.67	1671.14
415.87	1779.68
416.08	1759.21
416.29	1587.18
416.49	1769.44
416.70	1751.01
416.91	1728.49
417.11	1681.38
417.32	1814.50
417.53	1685.48
417.73	1753.06
417.94	1683.43
418.15	1710.05
418.35	1744.87
418.56	1728.49
418.77	1857.51
418.97	1722.34
419.18	1679.33
419.38	1624.04
419.59	1652.71
419.80	1798.12
420.00	1714.15
420.21	1658.85
420.42	1779.68
420.62	1771.49
420.83	1628.14
421.04	1679.33
421.24	1724.39
421.45	1794.02
421.65	1714.15
421.86	1712.10
422.07	1740.77
422.27	1742.82
422.48	1712.10
422.69	1689.57
422.89	1734.63
423.10	1714.15
423.30	1636.33
423.51	1689.57
423.72	1740.77
423.92	1732.58
424.13	1613.80
424.33	1722.34
424.54	1761.25
424.75	1667.05
424.95	1787.88
425.16	1689.57
425.36	1710.05
425.57	1814.50
425.78	1658.85
425.98	1769.44
426.19	1677.29
426.39	1689.57
426.60	1779.68
426.81	1753.06
427.01	1646.57
427.22	1675.24
427.42	1630.18
427.63	1705.96
427.83	1730.53
428.04	1806.31
428.25	1789.92
428.45	1763.30
428.66	1845.22
428.86	1689.57
429.07	1693.67
429.28	1738.73
429.48	1705.96
429.69	1679.33
429.89	1724.39
430.10	1644.52
430.30	1710.05
430.51	1738.73
430.71	1603.56
430.92	1697.77
431.13	1708.01
431.33	1763.30
431.54	1669.09
431.74	1687.53
431.95	1843.17
432.15	1705.96
432.36	1720.29
432.56	1751.01
432.77	1806.31
432.98	1783.78
433.18	1777.64
433.39	1646.57
433.59	1634.28
433.80	1771.49
434.00	1910.75
434.21	1714.15
434.41	1656.81
434.62	1818.60
434.82	1667.05
435.03	1673.19
435.23	1710.05
435.44	1578.98
435.64	1785.83
435.85	1730.53
436.06	1785.83
436.26	1746.92
436.47	1744.87
436.67	1636.33
436.88	1687.53
437.08	1794.02
437.29	1712.10
437.49	1720.29
437.70	1751.01
437.90	1642.47
438.11	1855.46
438.31	1822.69
438.52	1841.12
438.72	1830.88
438.93	1873.89
439.13	1751.01
439.34	1894.37
439.54	1755.11
439.75	1742.82
439.95	1755.11
440.16	1734.63
440.36	1804.26
440.57	1658.85
440.77	1724.39
440.98	1728.49
441.18	1753.06
441.39	1630.18
441.59	1619.94
441.80	1830.88
442.00	1794.02
442.21	1783.78
442.41	1638.38
442.62	1726.44
442.82	1751.01
443.02	1654.76
443.23	1728.49
443.43	1687.53
443.64	1816.55
443.84	1800.16
444.05	1767.40
444.25	1728.49
444.46	1634.28
444.66	1783.78
444.87	1781.73
445.07	1609.70
445.28	1716.20
445.48	1796.07
445.69	1828.84
445.89	1816.55
446.09	1773.54
446.30	2021.35
446.50	2609.11
446.71	3657.67
446.91	4411.32
447.12	4710.33
447.32	4786.10
447.53	4403.13
447.73	3921.86
447.93	3573.71
448.14	3289.04
448.34	3274.70
448.55	2858.96
448.75	2863.06
448.96	2717.65
449.16	2383.84
449.36	2275.29
449.57	2025.44
449.77	1871.84
449.98	1724.39
450.18	1800.16
450.39	1773.54
450.59	1765.35
450.79	1769.44
451.00	1671.14
451.20	1771.49
451.41	1710.05
451.61	1742.82
451.81	1669.09
452.02	1671.14
452.22	1671.14
452.43	1746.92
452.63	1697.77
452.84	1714.15
453.04	1697.77
453.24	1718.25
453.45	1779.68
453.65	1705.96
453.86	1777.64
454.06	1728.49
454.26	1726.44
454.47	1712.10
454.67	1771.49
454.87	1730.53
455.08	1742.82
455.28	1765.35
455.49	1720.29
455.69	1693.67
455.89	1918.95
456.10	1761.25
456.30	1689.57
456.51	1773.54
456.71	1751.01
456.91	1765.35
457.12	1695.72
457.32	1712.10
457.52	1656.81
457.73	1771.49
457.93	1845.22
458.14	1701.86
458.34	1646.57
458.54	1757.16
458.75	1738.73
458.95	1769.44
459.15	1685.48
459.36	1714.15
459.56	1697.77
459.76	1890.28
459.97	1693.67
460.17	1734.63
460.37	1794.02
460.58	1726.44
460.78	1806.31
460.99	1705.96
461.19	1701.86
461.39	1695.72
461.60	1683.43
461.80	1812.45
462.00	1689.57
462.21	1679.33
462.41	1685.48
462.61	1679.33
462.82	1710.05
463.02	1673.19
463.22	1728.49
463.43	1779.68
463.63	1763.30
463.83	1832.93
464.04	1785.83
464.24	1796.07
464.44	1740.77
464.64	1746.92
464.85	1744.87
465.05	1812.45
465.25	1759.21
465.46	1689.57
465.66	1732.58
465.86	1726.44
466.07	1769.44
466.27	1687.53
466.47	1652.71
466.68	1640.42
466.88	1787.88
467.08	1841.12
467.29	1757.16
467.49	1722.34
467.69	1710.05
467.89	1783.78
468.10	1751.01
468.30	1701.86
468.50	1761.25
468.71	1808.36
468.91	1691.62
469.11	1845.22
469.31	1783.78
469.52	1722.34
469.72	1812.45
469.92	1837.03
470.13	1748.97
470.33	1726.44
470.53	1828.84
470.73	2039.78
470.94	2404.32
471.14	2267.10
471.34	2537.43
471.54	2389.98
471.75	2244.57
471.95	2148.32
472.15	2158.56
472.36	2103.26
472.56	2082.78
472.76	2095.07
472.96	2074.59
473.17	1961.95
473.37	1888.23
473.57	1753.06
473.77	1785.83
473.98	1740.77
474.18	1634.28
474.38	1978.34
474.58	1683.43
474.79	1720.29
474.99	1751.01
475.19	1769.44
475.39	1654.76
475.60	1679.33
475.80	1753.06
476.00	1736.68
476.20	1701.86
476.41	1746.92
476.61	1814.50
476.81	1736.68
477.01	1632.23
477.21	1824.74
477.42	1773.54
477.62	1648.61
477.82	1748.97
478.02	1695.72
478.23	1685.48
478.43	1748.97
478.63	1714.15
478.83	1671.14
479.03	1673.19
479.24	1808.36
479.44	1902.56
479.64	1556.46
479.84	1615.85
480.04	1628.14
480.25	1724.39
480.45	1697.77
480.65	1697.77
480.85	1851.36
481.06	1699.81
481.26	1755.11
481.46	1701.86
481.66	1777.64
481.86	1667.05
482.06	1796.07
482.27	1677.29
482.47	1609.70
482.67	1695.72
482.87	1701.86
483.07	1839.08
483.28	1624.04
483.48	1667.05
483.68	1701.86
483.88	1603.56
484.08	1564.65
484.29	1728.49
484.49	1705.96
484.69	1603.56
484.89	1777.64
485.09	1834.98
485.29	1843.17
485.50	1806.31
485.70	1705.96
485.90	1763.30
486.10	1740.77
486.30	1800.16
486.50	1751.01
486.71	1699.81
486.91	1748.97
487.11	1665.00
487.31	1595.37
487.51	1804.26
487.71	1763.30
487.91	1705.96
488.12	1722.34
488.32	1542.12
488.52	1632.23
488.72	1628.14
488.92	1716.20
489.12	1708.01
489.32	1767.40
489.53	1783.78
489.73	1648.61
489.93	1832.93
490.13	1685.48
490.33	1689.57
490.53	1744.87
490.73	1748.97
490.94	1648.61
491.14	1841.12
491.34	1816.55
491.54	2127.84
491.74	2576.34
491.94	2869.20
492.14	2981.84
492.34	3043.28
492.54	2711.51
492.75	2574.30
492.95	2404.32
493.15	2316.25
493.35	2308.06
493.55	2183.13
493.75	2133.98
493.95	2099.17
494.15	2017.25
494.35	1945.57
494.56	1830.88
494.76	1767.40
494.96	1744.87
495.16	1789.92
495.36	1742.82
495.56	1757.16
495.76	1742.82
495.96	1708.01
496.16	1720.29
496.36	1929.19
496.56	1751.01
496.77	1665.00
496.97	1697.77
497.17	1753.06
497.37	1642.47
497.57	1746.92
497.77	1796.07
497.97	1632.23
498.17	1730.53
498.37	1632.23
498.57	1767.40
498.77	1708.01
498.97	1705.96
499.17	1816.55
499.38	1753.06
499.58	1812.45
499.78	1714.15
499.98	1765.35
500.18	1787.88
500.38	1757.16
500.58	1910.75
500.78	2471.90
500.98	4575.16
501.18	5822.38
501.38	6846.36
501.58	6979.48
501.78	6520.73
501.98	5498.80
502.18	4863.93
502.38	4442.04
502.58	4032.45
502.78	3807.17
502.98	3592.14
503.18	3516.36
503.38	3190.74
503.59	2865.11
503.79	2652.12
503.99	2541.53
504.19	2320.35
504.39	2273.25
504.59	2150.37
504.79	2127.84
504.99	2107.36
505.19	1941.47
505.39	1939.43
505.59	1931.23
505.79	1980.39
505.99	1767.40
506.19	1882.08
506.39	1886.18
506.59	1726.44
506.79	1685.48
506.99	1775.59
507.19	1771.49
507.39	1771.49
507.59	1662.95
507.79	1681.38
507.99	1677.29
508.19	1695.72
508.39	1681.38
508.59	1820.64
508.79	1837.03
508.99	1828.84
509.19	1589.22
509.39	1837.03
509.59	1742.82
509.79	1642.47
509.99	1687.53
510.19	1775.59
510.39	1740.77
510.59	1726.44
510.79	1689.57
510.99	1632.23
511.19	1742.82
511.39	1781.73
511.59	1751.01
511.79	1824.74
511.99	1798.12
512.19	1820.64
512.38	1763.30
512.58	1691.62
512.78	1677.29
512.98	1771.49
513.18	1759.21
513.38	1677.29
513.58	1779.68
513.78	1695.72
513.98	1851.36
514.18	1734.63
514.38	1738.73
514.58	1726.44
514.78	1662.95
514.98	1640.42
515.18	1738.73
515.38	1595.37
515.58	1839.08
515.78	1757.16
515.98	1783.78
516.18	1757.16
516.38	1726.44
516.57	1665.00
516.77	1689.57
516.97	1691.62
517.17	1650.66
517.37	1611.75
517.57	1834.98
517.77	1673.19
517.97	1656.81
518.17	1757.16
518.37	1671.14
518.57	1679.33
518.77	1691.62
518.97	1634.28
519.16	1814.50
519.36	1802.21
519.56	1619.94
519.76	1679.33
519.96	1724.39
520.16	1781.73
520.36	1697.77
520.56	1802.21
520.76	1632.23
520.96	1705.96
521.16	1746.92
521.35	1773.54
521.55	1765.35
521.75	1716.20
521.95	1699.81
522.15	1646.57
522.35	1632.23
522.55	1640.42
522.75	1834.98
522.95	1705.96
523.14	1671.14
523.34	1710.05
523.54	1648.61
523.74	1777.64
523.94	1851.36
524.14	1683.43
524.34	1814.50
524.54	1736.68
524.73	1716.20
524.93	1806.31
525.13	1785.83
525.33	1636.33
525.53	1857.51
525.73	1800.16
525.93	1753.06
526.13	1615.85
526.32	1685.48
526.52	1765.35
526.72	1746.92
526.92	1769.44
527.12	1800.16
527.32	1644.52
527.52	1771.49
527.71	1722.34
527.91	1751.01
528.11	1740.77
528.31	1779.68
528.51	1689.57
528.71	1734.63
528.90	1796.07
529.10	1781.73
529.30	1898.47
529.50	1685.48
529.70	1722.34
529.90	1765.35
530.09	1695.72
530.29	1621.99
530.49	1656.81
530.69	1738.73
530.89	1726.44
531.09	1726.44
531.28	1648.61
531.48	1726.44
531.68	1736.68
531.88	1730.53
532.08	1736.68
532.28	1689.57
532.47	1783.78
532.67	1812.45
532.87	1748.97
533.07	1665.00
533.27	1824.74
533.46	1777.64
533.66	1787.88
533.86	1730.53
534.06	1687.53
534.26	1667.05
534.45	1730.53
534.65	1789.92
534.85	1734.63
535.05	1697.77
535.25	1748.97
535.44	1701.86
535.64	1824.74
535.84	1779.68
536.04	1703.91
536.24	1705.96
536.43	1730.53
536.63	1753.06
536.83	1697.77
537.03	1781.73
537.22	1583.08
537.42	1669.09
537.62	1712.10
537.82	1761.25
538.02	1814.50
538.21	1841.12
538.41	1839.08
538.61	1728.49
538.81	1757.16
539.00	1751.01
539.20	1632.23
539.40	1693.67
539.60	1759.21
539.79	1755.11
539.99	1751.01
540.19	1677.29
540.39	1718.25
540.58	1740.77
540.78	1800.16
540.98	1722.34
541.18	1761.25
541.37	1748.97
541.57	1677.29
541.77	1755.11
541.97	1673.19
542.16	1572.84
542.36	1693.67
542.56	1783.78
542.76	1824.74
542.95	1787.88
543.15	1769.44
543.35	1701.86
543.54	1718.25
543.74	1695.72
543.94	1818.60
544.14	1714.15
544.33	1708.01
544.53	1722.34
544.73	1728.49
544.93	1675.24
545.12	1748.97
545.32	1751.01
545.52	1685.48
545.71	1730.53
545.91	1722.34
546.11	1697.77
546.30	1712.10
546.50	1740.77
546.70	1728.49
546.90	1789.92
547.09	1660.90
547.29	1742.82
547.49	1783.78
547.68	1720.29
547.88	1628.14
548.08	1785.83
548.27	2131.94
548.47	1712.10
548.67	1675.24
548.87	1763.30
549.06	1669.09
549.26	1746.92
549.46	1718.25
549.65	1710.05
549.85	1828.84
550.05	1787.88
550.24	1624.04
550.44	1765.35
550.64	1746.92
550.83	1736.68
551.03	1839.08
551.23	1724.39
551.42	1880.04
551.62	1652.71
551.82	1701.86
552.01	1791.97
552.21	1822.69
552.41	1726.44
552.60	1755.11
552.80	1718.25
553.00	1693.67
553.19	1755.11
553.39	1839.08
553.59	1619.94
553.78	1783.78
553.98	1775.59
554.17	1632.23
554.37	1787.88
554.57	1789.92
554.76	1632.23
554.96	1806.31
555.16	1732.58
555.35	1785.83
555.55	1699.81
555.75	1781.73
555.94	1781.73
556.14	1665.00
556.33	1802.21
556.53	1703.91
556.73	1740.77
556.92	1769.44
557.12	1781.73
557.32	1834.98
557.51	1824.74
557.71	1775.59
557.90	1816.55
558.10	1800.16
558.30	1787.88
558.49	1656.81
558.69	1718.25
558.88	1734.63
559.08	1675.24
559.28	1755.11
559.47	1726.44
559.67	1757.16
559.86	1904.61
560.06	1853.41
560.26	1736.68
560.45	1777.64
560.65	1705.96
560.84	1767.40
561.04	1726.44
561.24	1734.63
561.43	1648.61
561.63	1947.62
561.82	1783.78
562.02	1824.74
562.22	1712.10
562.41	1722.34
562.61	1738.73
562.80	1665.00
563.00	1814.50
563.19	1777.64
563.39	1740.77
563.59	1814.50
563.78	1695.72
563.98	1681.38
564.17	1728.49
564.37	1644.52
564.56	1775.59
564.76	1697.77
564.96	1810.40
565.15	1736.68
565.35	1867.75
565.54	1732.58
565.74	1769.44
565.93	1816.55
566.13	1767.40
566.32	1767.40
566.52	1779.68
566.71	1808.36
566.91	1779.68
567.11	1816.55
567.30	1708.01
567.50	1791.97
567.69	1761.25
567.89	1673.19
568.08	1726.44
568.28	1736.68
568.47	1632.23
568.67	1710.05
568.86	1665.00
569.06	1796.07
569.25	1673.19
569.45	1757.16
569.64	1693.67
569.84	1751.01
570.04	1800.16
570.23	1658.85
570.43	1740.77
570.62	1738.73
570.82	1888.23
571.01	1691.62
571.21	1644.52
571.40	1650.66
571.60	1804.26
571.79	1781.73
571.99	1755.11
572.18	1732.58
572.38	1779.68
572.57	1710.05
572.77	1755.11
572.96	1865.70
573.16	1806.31
573.35	1728.49
573.55	1820.64
573.74	1781.73
573.94	1783.78
574.13	1736.68
574.33	1841.12
574.52	1824.74
574.71	1712.10
574.91	1740.77
575.10	1673.19
575.30	1734.63
575.49	1751.01
575.69	1675.24
575.88	1738.73
576.08	1714.15
576.27	1775.59
576.47	1791.97
576.66	1828.84
576.86	1730.53
577.05	1753.06
577.25	1794.02
577.44	1914.85
577.64	1759.21
577.83	1810.40
578.02	1712.10
578.22	1828.84
578.41	1839.08
578.61	1740.77
578.80	1722.34
579.00	1755.11
579.19	1781.73
579.39	1761.25
579.58	1845.22
579.77	1697.77
579.97	1873.89
580.16	1800.16
580.36	1759.21
580.55	1800.16
580.75	1806.31
580.94	1769.44
581.13	1755.11
581.33	1828.84
581.52	1716.20
581.72	1849.32
581.91	1873.89
582.11	1718.25
582.30	1791.97
582.49	1734.63
582.69	1847.27
582.88	1748.97
583.08	1789.92
583.27	1847.27
583.47	1726.44
583.66	1646.57
583.85	1716.20
584.05	1796.07
584.24	1753.06
584.44	1785.83
584.63	1748.97
584.82	1832.93
585.02	1767.40
585.21	1820.64
585.41	1794.02
585.60	1867.75
585.79	1951.71
585.99	1970.15
586.18	1929.19
586.37	2127.84
586.57	3391.44
586.76	9740.14
586.96	24422.03
587.15	34199.03
587.34	40056.22
587.54	42085.76
587.73	36412.88
587.93	26220.14
588.12	21362.36
588.31	18183.91
588.51	16416.52
588.70	15056.67
588.89	14006.06
589.09	12433.22
589.28	11011.93
589.47	9385.84
589.67	8073.09
589.86	6371.23
590.06	4878.26
590.25	3997.64
590.44	3176.40
590.64	2607.06
590.83	2244.57
591.02	2099.17
591.22	1964.00
591.41	1837.03
591.60	1837.03
591.80	1966.05
591.99	1769.44
592.18	1742.82
592.38	1814.50
592.57	1755.11
592.76	1714.15
592.96	1783.78
593.15	1742.82
593.34	1808.36
593.54	1738.73
593.73	1751.01
593.92	1785.83
594.12	1695.72
594.31	1775.59
594.50	1818.60
594.70	1789.92
594.89	1869.80
595.08	1746.92
595.28	1820.64
595.47	1851.36
595.66	1800.16
595.86	1650.66
596.05	1732.58
596.24	1732.58
596.43	1849.32
596.63	1822.69
596.82	1720.29
597.01	1742.82
597.21	1806.31
597.40	1798.12
597.59	1716.20
597.79	1734.63
597.98	1791.97
598.17	1818.60
598.36	1744.87
598.56	1740.77
598.75	1812.45
598.94	1775.59
599.14	1751.01
599.33	1687.53
599.52	1763.30
599.71	1732.58
599.91	1806.31
600.10	1736.68
600.29	1763.30
600.48	1791.97
600.68	1757.16
600.87	1767.40
601.06	1665.00
601.26	1665.00
601.45	1759.21
601.64	1755.11
601.83	1789.92
602.03	1736.68
602.22	1687.53
602.41	1712.10
602.60	1853.41
602.80	1820.64
602.99	1806.31
603.18	1697.77
603.37	1779.68
603.57	1728.49
603.76	1834.98
603.95	1847.27
604.14	1730.53
604.34	1789.92
604.53	1726.44
604.72	1753.06
604.91	1769.44
605.10	1751.01
605.30	1644.52
605.49	1902.56
605.68	1724.39
605.87	1732.58
606.07	1630.18
606.26	1683.43
606.45	1765.35
606.64	1714.15
606.84	1708.01
607.03	1746.92
607.22	1765.35
607.41	1689.57
607.60	1667.05
607.80	1710.05
607.99	1718.25
608.18	1685.48
608.37	1767.40
608.56	1687.53
608.76	1802.21
608.95	1873.89
609.14	1718.25
609.33	1746.92
609.52	1787.88
609.72	1710.05
609.91	1753.06
610.10	1779.68
610.29	1820.64
610.48	1728.49
610.68	1757.16
610.87	1703.91
611.06	1773.54
611.25	1705.96
611.44	1722.34
611.63	1767.40
611.83	1783.78
612.02	1654.76
612.21	1802.21
612.40	1611.75
612.59	1675.24
612.79	1726.44
612.98	1730.53
613.17	1814.50
613.36	1779.68
613.55	1832.93
613.74	1773.54
613.93	1726.44
614.13	1748.97
614.32	1736.68
614.51	1697.77
614.70	1703.91
614.89	1705.96
615.08	1755.11
615.28	2062.30
615.47	1732.58
615.66	1714.15
615.85	1734.63
616.04	1820.64
616.23	1656.81
616.42	1669.09
616.62	1720.29
616.81	1775.59
617.00	1677.29
617.19	1775.59
617.38	1681.38
617.57	1705.96
617.76	1800.16
617.95	1806.31
618.15	1751.01
618.34	1755.11
618.53	1691.62
618.72	1810.40
618.91	1830.88
619.10	1822.69
619.29	1662.95
619.48	1736.68
619.68	1636.33
619.87	1697.77
620.06	1665.00
620.25	1732.58
620.44	1724.39
620.63	1703.91
620.82	1660.90
621.01	1685.48
621.20	1732.58
621.39	1732.58
621.59	1638.38
621.78	1753.06
621.97	1712.10
622.16	1751.01
622.35	1718.25
622.54	1755.11
622.73	1753.06
622.92	1636.33
623.11	1814.50
623.30	1769.44
623.49	1662.95
623.68	1652.71
623.88	1763.30
624.07	1667.05
624.26	1677.29
624.45	1822.69
624.64	1652.71
624.83	1746.92
625.02	1779.68
625.21	1771.49
625.40	1701.86
625.59	1802.21
625.78	1669.09
625.97	1779.68
626.16	1785.83
626.35	1755.11
626.54	1767.40
626.74	1800.16
626.93	1665.00
627.12	1718.25
627.31	1779.68
627.50	1673.19
627.69	1771.49
627.88	1652.71
628.07	1689.57
628.26	1619.94
628.45	1734.63
628.64	1646.57
628.83	1740.77
629.02	1685.48
629.21	1822.69
629.40	1767.40
629.59	1642.47
629.78	1671.14
629.97	1699.81
630.16	1732.58
630.35	1708.01
630.54	1656.81
630.73	1699.81
630.92	1765.35
631.11	1789.92
631.30	1671.14
631.49	1769.44
631.68	1722.34
631.87	1755.11
632.06	1710.05
632.25	1855.46
632.44	1681.38
632.63	1757.16
632.82	1730.53
633.01	1605.61
633.20	1640.42
633.39	1552.36
633.58	1619.94
633.77	1720.29
633.96	1722.34
634.15	1789.92
634.34	1730.53
634.53	1710.05
634.72	1730.53
634.91	1546.22
635.10	1763.30
635.29	1757.16
635.48	1794.02
635.67	1675.24
635.86	1681.38
636.05	1773.54
636.24	1703.91
636.43	1755.11
636.62	1730.53
636.81	1632.23
637.00	1755.11
637.19	1755.11
637.38	1746.92
637.57	1685.48
637.76	1681.38
637.95	1763.30
638.14	1665.00
638.33	1718.25
638.52	1687.53
638.71	1611.75
638.89	1681.38
639.08	1865.70
639.27	1736.68
639.46	1718.25
639.65	1800.16
639.84	1783.78
640.03	1810.40
640.22	1742.82
640.41	1828.84
640.60	1697.77
640.79	1638.38
640.98	1693.67
641.17	1728.49
641.36	1748.97
641.55	1712.10
641.74	1656.81
641.92	1701.86
642.11	1699.81
642.30	1656.81
642.49	1669.09
642.68	1742.82
642.87	1691.62
643.06	1691.62
643.25	1728.49
643.44	1677.29
643.63	1675.24
643.82	1773.54
644.00	1759.21
644.19	1681.38
644.38	1667.05
644.57	1757.16
644.76	1767.40
644.95	1712.10
645.14	1769.44
645.33	1652.71
645.52	1689.57
645.71	1675.24
645.89	1617.90
646.08	1687.53
646.27	1693.67
646.46	1830.88
646.65	1708.01
646.84	1675.24
647.03	1619.94
647.22	1816.55
647.40	1722.34
647.59	1708.01
647.78	1718.25
647.97	1673.19
648.16	1685.48
648.35	1808.36
648.54	1765.35
648.73	1634.28
648.91	1726.44
649.10	1718.25
649.29	1644.52
649.48	1697.77
649.67	1738.73
649.86	1683.43
650.05	1732.58
650.23	1763.30
650.42	1644.52
650.61	1695.72
650.80	1708.01
650.99	1822.69
651.18	1804.26
651.36	1800.16
651.55	1675.24
651.74	1714.15
651.93	1640.42
652.12	1718.25
652.31	1761.25
652.49	1689.57
652.68	1667.05
652.87	1769.44
653.06	1615.85
653.25	1765.35
653.44	1667.05
653.62	1847.27
653.81	1718.25
654.00	1718.25
654.19	1677.29
654.38	1923.04
654.56	1730.53
654.75	1710.05
654.94	1748.97
655.13	1738.73
655.32	1726.44
655.51	1718.25
655.69	1777.64
655.88	1744.87
656.07	1677.29
656.26	1800.16
656.45	1660.90
656.63	1681.38
656.82	1660.90
657.01	1798.12
657.20	1660.90
657.38	1773.54
657.57	1640.42
657.76	1660.90
657.95	1736.68
658.14	1644.52
658.32	1787.88
658.51	1597.42
658.70	1636.33
658.89	1734.63
659.08	1740.77
659.26	1730.53
659.45	1662.95
659.64	1740.77
659.83	1671.14
660.01	1910.75
660.20	1759.21
660.39	1857.51
660.58	1617.90
660.76	1763.30
660.95	1695.72
661.14	1761.25
661.33	1656.81
661.51	1617.90
661.70	1732.58
661.89	1763.30
662.08	1693.67
662.26	1630.18
662.45	1701.86
662.64	1843.17
662.83	1751.01
663.01	1646.57
663.20	1699.81
663.39	1863.65
663.58	1677.29
663.76	1667.05
663.95	1691.62
664.14	1601.51
664.32	1703.91
664.51	1658.85
664.70	1644.52
664.89	1794.02
665.07	1697.77
665.26	1802.21
665.45	1617.90
665.64	1765.35
665.82	1708.01
666.01	1820.64
666.20	1671.14
666.38	1869.80
666.57	1763.30
666.76	2232.29
666.95	4454.33
667.13	10297.19
667.32	15083.29
667.51	17614.58
667.69	18704.10
667.88	17510.13
668.07	12267.33
668.25	9348.98
668.44	8157.06
668.63	7221.14
668.81	6655.90
669.00	6203.30
669.19	5547.95
669.38	5144.50
669.56	4483.00
669.75	4124.61
669.94	3424.20
670.12	2901.97
670.31	2621.40
670.50	2283.49
670.68	2082.78
670.87	1937.38
671.06	1853.41
671.24	1742.82
671.43	1853.41
671.62	1720.29
671.80	1646.57
671.99	1767.40
672.18	1720.29
672.36	1722.34
672.55	1726.44
672.74	1781.73
672.92	1716.20
673.11	1771.49
673.29	1689.57
673.48	1757.16
673.67	1691.62
673.85	1771.49
674.04	1642.47
674.23	1693.67
674.41	1828.84
674.60	1601.51
674.79	1632.23
674.97	1738.73
675.16	1744.87
675.34	1705.96
675.53	1656.81
675.72	1757.16
675.90	1714.15
676.09	1681.38
676.28	1744.87
676.46	1658.85
676.65	1722.34
676.83	1746.92
677.02	1724.39
677.21	1708.01
677.39	1687.53
677.58	1662.95
677.77	1703.91
677.95	1705.96
678.14	1607.66
678.32	1718.25
678.51	1665.00
678.70	1896.42
678.88	1705.96
679.07	1736.68
679.25	1693.67
679.44	1726.44
679.63	1765.35
679.81	1662.95
680.00	1722.34
680.18	1800.16
680.37	1796.07
680.55	1634.28
680.74	1695.72
680.93	1669.09
681.11	1744.87
681.30	1632.23
681.48	1748.97
681.67	1710.05
681.85	1644.52
682.04	1708.01
682.23	1708.01
682.41	1693.67
682.60	1716.20
682.78	1695.72
682.97	1689.57
683.15	1656.81
683.34	1675.24
683.53	1877.99
683.71	1691.62
683.90	1873.89
684.08	1834.98
684.27	1654.76
684.45	1689.57
684.64	1796.07
684.82	1789.92
685.01	1798.12
685.19	1705.96
685.38	1800.16
685.57	1746.92
685.75	1699.81
685.94	1667.05
686.12	1681.38
686.31	1630.18
686.49	1779.68
686.68	1632.23
686.86	1705.96
687.05	1716.20
687.23	1777.64
687.42	1658.85
687.60	1574.89
687.79	1732.58
687.97	1742.82
688.16	1779.68
688.34	1705.96
688.53	1589.22
688.71	1738.73
688.90	1755.11
689.08	1705.96
689.27	1613.80
689.45	1816.55
689.64	1787.88
689.82	1783.78
690.01	1769.44
690.19	1699.81
690.38	1689.57
690.56	1726.44
690.75	1615.85
690.93	1609.70
691.12	1699.81
691.30	1646.57
691.49	1652.71
691.67	1746.92
691.86	1863.65
692.04	1652.71
692.23	1677.29
692.41	1710.05
692.60	1888.23
692.78	1753.06
692.97	1781.73
693.15	1712.10
693.34	1738.73
693.52	1763.30
693.71	1687.53
693.89	1689.57
694.08	1726.44
694.26	1767.40
694.44	1757.16
694.63	1742.82
694.81	1626.09
695.00	1753.06
695.18	1681.38
695.37	1927.14
695.55	1701.86
695.74	1691.62
695.92	1699.81
696.10	1738.73
696.29	1652.71
696.47	1640.42
696.66	1574.89
696.84	1701.86
697.03	1720.29
697.21	1820.64
697.40	2324.44
697.58	1791.97
697.76	1699.81
697.95	1714.15
698.13	1644.52
698.32	1632.23
698.50	1689.57
698.68	1785.83
698.87	1689.57
699.05	1730.53
699.24	1802.21
699.42	1712.10
699.61	1724.39
699.79	1687.53
699.97	1662.95
700.16	1578.98
700.34	1644.52
700.53	1722.34
700.71	1746.92
700.89	1703.91
701.08	1689.57
701.26	1677.29
701.45	2117.60
701.63	1593.32
701.81	1710.05
702.00	1669.09
702.18	1708.01
702.37	1662.95
702.55	1705.96
702.73	1683.43
702.92	1632.23
703.10	1736.68
703.28	1734.63
703.47	1632.23
703.65	1785.83
703.84	1724.39
704.02	1703.91
704.20	1812.45
704.39	1662.95
704.57	1734.63
704.75	1722.34
704.94	1769.44
705.12	1736.68
705.30	1738.73
705.49	2201.57
705.67	4460.48
705.86	9111.41
706.04	12513.09
706.22	14399.27
706.41	15068.95
706.59	13618.99
706.77	9592.69
706.96	7370.64
707.14	6690.71
707.32	5851.05
707.51	5504.94
707.69	4886.45
707.87	4284.35
708.06	3534.79
708.24	2869.20
708.42	2449.37
708.61	2240.48
708.79	1875.94
708.97	1822.69
709.16	1812.45
709.34	1683.43
709.52	1708.01
709.71	1746.92
709.89	1812.45
710.07	1593.32
710.26	1693.67
710.44	1794.02
710.62	1802.21
710.80	1703.91
710.99	1808.36
711.17	1816.55
711.35	1695.72
711.54	1611.75
711.72	1771.49
711.90	1775.59
712.09	1722.34
712.27	1677.29
712.45	1755.11
712.63	1738.73
712.82	1710.05
713.00	1708.01
713.18	1755.11
713.37	1746.92
713.55	1740.77
713.73	1667.05
713.91	1656.81
714.10	1660.90
714.28	1720.29
714.46	1724.39
714.65	1673.19
714.83	1804.26
715.01	1675.24
715.19	1732.58
715.38	1611.75
715.56	1720.29
715.74	1710.05
715.92	1669.09
716.11	1814.50
716.29	1601.51
716.47	1687.53
716.65	1662.95
716.84	1607.66
717.02	1787.88
717.20	1658.85
717.38	1619.94
717.57	1642.47
717.75	1751.01
717.93	1685.48
718.11	1681.38
718.30	1624.04
718.48	1738.73
718.66	1755.11
718.84	1740.77
719.03	1751.01
719.21	1607.66
719.39	1767.40
719.57	1736.68
719.75	1726.44
719.94	1613.80
720.12	1654.76
720.30	1775.59
720.48	1734.63
720.67	1753.06
720.85	1646.57
721.03	1705.96
721.21	1722.34
721.39	1847.27
721.58	1699.81
721.76	1671.14
721.94	1734.63
722.12	1757.16
722.30	1818.60
722.49	1697.77
722.67	1652.71
722.85	1746.92
723.03	1681.38
723.21	1691.62
723.40	1708.01
723.58	1757.16
723.76	1748.97
723.94	1757.16
724.12	1693.67
724.30	1783.78
724.49	1753.06
724.67	1607.66
724.85	1810.40
725.03	1624.04
725.21	1771.49
725.40	1828.84
725.58	1699.81
725.76	1800.16
725.94	1656.81
726.12	1658.85
726.30	1685.48
726.49	1724.39
726.67	1656.81
726.85	1681.38
727.03	1857.51
727.21	2142.18
727.39	2863.06
727.57	3835.85
727.76	4026.31
727.94	4444.09
728.12	4337.60
728.30	3692.49
728.48	3004.37
728.66	2731.99
728.84	2607.06
729.03	2254.81
729.21	2179.04
729.39	1988.58
729.57	1849.32
729.75	1787.88
729.93	1871.84
730.11	1658.85
730.30	1769.44
730.48	1714.15
730.66	1771.49
730.84	1652.71
731.02	1693.67
731.20	1648.61
731.38	1677.29
731.56	1593.32
731.74	1601.51
731.93	1783.78
732.11	1677.29
732.29	1734.63
732.47	1816.55
732.65	1710.05
732.83	1798.12
733.01	1818.60
733.19	1630.18
733.37	1648.61
733.56	1716.20
733.74	1681.38
733.92	1798.12
734.10	1652.71
734.28	1636.33
734.46	1685.48
734.64	1712.10
734.82	1699.81
735.00	1769.44
735.18	1632.23
735.36	1810.40
735.54	1691.62
735.73	1769.44
735.91	1646.57
736.09	1757.16
736.27	1665.00
736.45	1667.05
736.63	1634.28
736.81	1701.86
736.99	1703.91
737.17	1796.07
737.35	1710.05
737.53	1728.49
737.71	1632.23
737.89	1818.60
738.07	1667.05
738.25	1677.29
738.43	1636.33
738.61	1644.52
738.80	1650.66
738.98	1585.13
739.16	1652.71
739.34	1730.53
739.52	1761.25
739.70	1730.53
739.88	1753.06
740.06	1736.68
740.24	1593.32
740.42	1787.88
740.60	1605.61
740.78	1751.01
740.96	1613.80
741.14	1691.62
741.32	1689.57
741.50	1581.03
741.68	1857.51
741.86	1724.39
742.04	1591.27
742.22	1650.66
742.40	1681.38
742.58	1761.25
742.76	1693.67
742.94	1798.12
743.12	1640.42
743.30	1740.77
743.48	1722.34
743.66	1658.85
743.84	1847.27
744.02	1636.33
744.20	1705.96
744.38	1611.75
744.56	1712.10
744.74	1789.92
744.92	1722.34
745.10	1757.16
745.28	1785.83
745.46	1765.35
745.64	1675.24
745.82	1732.58
746.00	1724.39
746.18	1718.25
746.36	1656.81
746.54	1689.57
746.72	1693.67
746.90	1587.18
747.08	1724.39
747.26	1572.84
747.44	1726.44
747.62	1722.34
747.80	1767.40
747.98	1751.01
748.15	1697.77
748.33	1789.92
748.51	1701.86
748.69	1720.29
748.87	1650.66
749.05	1728.49
749.23	1650.66
749.41	1699.81
749.59	1636.33
749.77	1695.72
749.95	1675.24
750.13	1703.91
750.31	1722.34
750.49	1742.82
750.67	1759.21
750.85	1804.26
751.03	1667.05
751.20	1843.17
751.38	1648.61
751.56	1720.29
751.74	1665.00
751.92	1693.67
752.10	1691.62
752.28	1714.15
752.46	1675.24
752.64	1705.96
752.82	1783.78
753.00	1798.12
753.18	1650.66
753.35	1705.96
753.53	1636.33
753.71	1607.66
753.89	1675.24
754.07	1697.77
754.25	1763.30
754.43	1669.09
754.61	1609.70
754.79	1718.25
754.97	1673.19
755.14	1800.16
755.32	1605.61
755.50	1800.16
755.68	1769.44
755.86	1660.90
756.04	1656.81
756.22	1640.42
756.40	1740.77
756.57	1767.40
756.75	1726.44
756.93	1771.49
757.11	1779.68
757.29	1658.85
757.47	1677.29
757.65	1603.56
757.82	1574.89
758.00	1703.91
758.18	1619.94
758.36	1566.70
758.54	1763.30
758.72	1636.33
758.90	1738.73
759.07	1736.68
759.25	1681.38
759.43	1746.92
759.61	1675.24
759.79	2142.18
759.97	1755.11
760.15	1722.34
760.32	1691.62
760.50	1671.14
760.68	1751.01
760.86	1648.61
761.04	1765.35
761.22	1718.25
761.39	1742.82
761.57	1732.58
761.75	1685.48
761.93	1863.65
762.11	1628.14
762.28	1634.28
762.46	1648.61
762.64	1761.25
762.82	1671.14
763.00	1681.38
763.18	1751.01
763.35	1642.47
763.53	1763.30
763.71	1710.05
763.89	1732.58
764.07	1630.18
764.24	1652.71
764.42	1693.67
764.60	1648.61
764.78	1724.39
764.96	1728.49
765.13	1679.33
765.31	1697.77
765.49	1738.73
765.67	1724.39
765.84	1669.09
766.02	1683.43
766.20	1644.52
766.38	1673.19
766.56	1746.92
766.73	1751.01
766.91	1656.81
767.09	1665.00
767.27	1675.24
767.44	1687.53
767.62	1751.01
767.80	1763.30
767.98	1607.66
768.15	1689.57
768.33	1738.73
768.51	1724.39
768.69	1703.91
768.87	1714.15
769.04	1646.57
769.22	1734.63
769.40	1785.83
769.58	1832.93
769.75	1765.35
769.93	1775.59
770.11	1683.43
770.28	1665.00
770.46	1722.34
770.64	1650.66
770.82	1716.20
770.99	1714.15
771.17	1626.09
771.35	1675.24
771.53	1693.67
771.70	1691.62
771.88	1734.63
772.06	1685.48
772.23	1718.25
772.41	1748.97
772.59	1652.71
772.77	1650.66
772.94	1697.77
773.12	1660.90
773.30	1714.15
773.47	1728.49
773.65	1691.62
773.83	1849.32
774.01	1687.53
774.18	1636.33
774.36	1720.29
774.54	1634.28
774.71	1744.87
774.89	1634.28
775.07	1650.66
775.24	1677.29
775.42	1689.57
775.60	1877.99
775.78	1658.85
775.95	1607.66
776.13	1648.61
776.31	1574.89
776.48	1763.30
776.66	1771.49
776.84	1710.05
777.01	1660.90
777.19	1648.61
777.37	1677.29
777.54	1603.56
777.72	1763.30
777.90	1789.92
778.07	1615.85
778.25	1871.84
778.43	1673.19
778.60	1595.37
778.78	1761.25
778.96	1800.16
779.13	1576.94
779.31	1757.16
779.49	1689.57
779.66	1767.40
779.84	1673.19
780.01	1687.53
780.19	1675.24
780.37	1734.63
780.54	1751.01
780.72	1765.35
780.90	1699.81
781.07	1677.29
781.25	1730.53
781.43	1642.47
781.60	1648.61
781.78	1767.40
781.95	1757.16
782.13	1615.85
782.31	1695.72
782.48	1589.22
782.66	1712.10
782.83	1755.11
783.01	1710.05
783.19	1726.44
783.36	1701.86
783.54	1669.09
783.72	1773.54
783.89	1730.53
784.07	1705.96
784.24	1726.44
784.42	1861.60
784.60	1669.09
784.77	1697.77
784.95	1615.85
785.12	1744.87
785.30	1781.73
785.47	1644.52
785.65	1660.90
785.83	1640.42
786.00	1667.05
786.18	1722.34
786.35	1669.09
786.53	1681.38
786.71	1804.26
786.88	1699.81
787.06	1751.01
787.23	1687.53
787.41	1591.27
787.58	1660.90
787.76	1650.66
787.94	1683.43
788.11	1705.96
788.29	1624.04
788.46	1728.49
788.64	1673.19
788.81	1656.81
788.99	1660.90
789.16	1624.04
789.34	1734.63
789.52	1619.94
789.69	1619.94
789.87	1572.84
790.04	1701.86
790.22	1638.38
790.39	1779.68
790.57	1644.52
790.74	1601.51
790.92	1753.06
791.09	1556.46
791.27	1746.92
791.44	1779.68
791.62	1738.73
791.79	1781.73
791.97	1746.92
792.15	1812.45
792.32	1695.72
792.50	1710.05
792.67	1810.40
792.85	1710.05
793.02	1681.38
793.20	1634.28
793.37	1595.37
793.55	1681.38
793.72	1640.42
793.90	1748.97
794.07	1605.61
794.25	1689.57
794.42	1671.14
794.60	1730.53
794.77	1705.96
794.95	1687.53
795.12	1708.01
795.30	1601.51
795.47	1593.32
795.65	1855.46
795.82	1638.38
796.00	1654.76
796.17	1681.38
796.34	1599.46
796.52	1689.57
796.69	1796.07
796.87	1716.20
797.04	1724.39
797.22	1697.77
797.39	1718.25
797.57	1746.92
797.74	1742.82
797.92	1705.96
798.09	1656.81
798.27	1796.07
798.44	1716.20
798.62	1634.28
798.79	1736.68
798.96	1828.84
799.14	1699.81
799.31	1859.56
799.49	1701.86
799.66	1701.86
799.84	1746.92
800.01	1626.09
800.19	1708.01
800.36	1615.85
800.53	1656.81
800.71	1648.61
800.88	1767.40
801.06	1703.91
801.23	1669.09
801.41	1626.09
801.58	1689.57
801.75	1687.53
801.93	1658.85
802.10	1712.10
802.28	1636.33
802.45	1646.57
802.63	1791.97
802.80	1763.30
802.97	1662.95
803.15	1660.90
803.32	1685.48
803.50	1636.33
803.67	1675.24
803.84	1691.62
804.02	1716.20
804.19	1705.96
804.37	1615.85
804.54	1660.90
804.71	1705.96
804.89	1732.58
805.06	1742.82
805.24	1603.56
805.41	1607.66
805.58	1665.00
805.76	1777.64
805.93	1748.97
806.10	1671.14
806.28	1767.40
806.45	1681.38
806.63	1685.48
806.80	1724.39
806.97	1671.14
807.15	1722.34
807.32	1611.75
807.49	1779.68
807.67	1724.39
807.84	1695.72
808.01	1626.09
808.19	1800.16
808.36	1816.55
808.54	1724.39
808.71	1640.42
808.88	1675.24
809.06	1697.77
809.23	1691.62
809.40	1658.85
809.58	1767.40
809.75	1746.92
809.92	1681.38
810.10	1779.68
810.27	1662.95
810.44	1708.01
810.62	1755.11
810.79	1759.21
810.96	1708.01
811.14	1636.33
811.31	1710.05
811.48	1728.49
811.66	1781.73
811.83	1787.88
812.00	1716.20
812.18	1660.90
812.35	1894.37
812.52	1681.38
812.69	1632.23
812.87	1748.97
813.04	1695.72
813.21	1646.57
813.39	1658.85
813.56	1603.56
813.73	1712.10
813.91	1619.94
814.08	1742.82
814.25	1687.53
814.42	1607.66
814.60	1648.61
814.77	1648.61
814.94	1710.05
815.12	1677.29
815.29	1773.54
815.46	1685.48
815.63	1814.50
815.81	1703.91
815.98	1660.90
816.15	1638.38
816.33	1755.11
816.50	1673.19
816.67	1714.15
816.84	1656.81
817.02	1667.05
817.19	1673.19
817.36	1746.92
817.53	1677.29
817.71	1632.23
817.88	1714.15
818.05	1677.29
818.22	1736.68
818.40	1841.12
818.57	1619.94
818.74	1740.77
818.91	1710.05
819.09	1798.12
819.26	1724.39
819.43	1691.62
819.60	1636.33
819.78	1726.44
819.95	1753.06
820.12	1671.14
820.29	1808.36
820.47	1771.49
820.64	1638.38
820.81	1722.34
820.98	1638.38
821.15	1632.23
821.33	1771.49
821.50	1646.57
821.67	1740.77
821.84	1716.20
822.02	1755.11
822.19	1751.01
822.36	1746.92
822.53	1732.58
822.70	1658.85
822.88	1791.97
823.05	1728.49
823.22	1683.43
823.39	1724.39
823.56	1765.35
823.74	1769.44
823.91	1589.22
824.08	1626.09
824.25	1611.75
824.42	1755.11
824.60	1601.51
824.77	1736.68
824.94	1751.01
825.11	1783.78
825.28	1597.42
825.45	1748.97
825.63	1679.33
825.80	1667.05
825.97	1671.14
826.14	1683.43
826.31	1652.71
826.48	1736.68
826.66	1703.91
826.83	1624.04
827.00	1753.06
827.17	1667.05
827.34	1716.20
827.51	1626.09
827.69	1673.19
827.86	1669.09
828.03	1681.38
828.20	1728.49
828.37	1644.52
828.54	1722.34
828.71	1640.42
828.89	1818.60
829.06	1701.86
829.23	1759.21
829.40	1652.71
829.57	1615.85
829.74	1716.20
829.91	1703.91
830.09	1742.82
830.26	1818.60
830.43	1779.68
830.60	1638.38
830.77	1779.68
830.94	1691.62
831.11	1636.33
831.28	1667.05
831.46	1787.88
831.63	1705.96
831.80	1701.86
831.97	1656.81
832.14	1632.23
832.31	1679.33
832.48	1722.34
832.65	1767.40
832.82	1685.48
832.99	1689.57
833.17	1605.61
833.34	1757.16
833.51	1726.44
833.68	1529.83
833.85	1804.26
834.02	1675.24
834.19	1667.05
834.36	1646.57
834.53	1703.91
834.70	1818.60
834.87	1742.82
835.04	1648.61
835.22	1701.86
835.39	1673.19
835.56	1658.85
835.73	1638.38
835.90	1748.97
836.07	1662.95
836.24	1699.81
836.41	1626.09
836.58	1636.33
836.75	1722.34
836.92	1814.50
837.09	1703.91
837.26	1671.14
837.43	1677.29
837.60	1783.78
837.77	1677.29
837.94	1781.73
838.12	1710.05
838.29	1751.01
838.46	1597.42
838.63	1673.19
838.80	1843.17
838.97	1677.29
839.14	1714.15
839.31	1673.19
839.48	1765.35
839.65	1636.33
839.82	1796.07
839.99	1660.90
840.16	1705.96
840.33	1624.04
840.50	1624.04
840.67	1566.70
840.84	1595.37
841.01	1693.67
841.18	1630.18
841.35	1681.38
841.52	1714.15
841.69	1757.16
841.86	1697.77
842.03	1683.43
842.20	1693.67
842.37	1650.66
842.54	1673.19
842.71	1669.09
842.88	1560.55
843.05	1681.38
843.22	1624.04
843.39	1644.52
843.56	1669.09
843.73	1720.29
843.90	1714.15
844.07	1697.77
844.24	1740.77
844.41	1736.68
844.58	1736.68
844.75	1759.21
844.92	1759.21
845.09	1751.01
845.26	1636.33
845.43	1708.01
845.60	1673.19
845.77	1734.63
845.94	1769.44
846.10	1785.83
846.27	1621.99
846.44	1652.71
846.61	1570.79
846.78	1726.44
846.95	1783.78
847.12	1685.48
847.29	1591.27
847.46	1689.57
847.63	1779.68
847.80	1679.33
847.97	1701.86
848.14	1806.31
848.31	1677.29
848.48	1626.09
848.65	1742.82
848.82	1619.94
848.98	1880.04
849.15	1703.91
849.32	1759.21
849.49	1722.34
849.66	1726.44
849.83	1667.05
850.00	1628.14
850.17	1759.21
850.34	1732.58
850.51	1699.81
850.68	1634.28
850.85	1845.22
851.01	1720.29
851.18	1722.34
851.35	1689.57
851.52	1736.68
851.69	1810.40
851.86	1597.42
852.03	1755.11
852.20	1671.14
852.37	1658.85
852.53	1638.38
852.70	1742.82
852.87	1701.86
853.04	1691.62
853.21	1701.86
853.38	1675.24
853.55	1775.59
853.72	1773.54
853.89	1667.05
854.05	1677.29
854.22	1734.63
854.39	1685.48
854.56	1673.19
854.73	1775.59
854.90	1691.62
855.07	1689.57
855.23	1640.42
855.40	1714.15
855.57	1728.49
855.74	1632.23
855.91	1861.60
856.08	1626.09
856.25	1636.33
856.41	1667.05
856.58	1683.43
856.75	1712.10
856.92	1615.85
857.09	1742.82
857.26	1613.80
857.42	1710.05
857.59	1791.97
857.76	1697.77
857.93	1720.29
858.10	1794.02
858.27	1644.52
858.43	1652.71
858.60	1613.80
858.77	1609.70
858.94	1701.86
859.11	1798.12
859.27	1617.90
859.44	1708.01
859.61	1773.54
859.78	1751.01
859.95	1685.48
860.12	1718.25
860.28	1834.98
860.45	1708.01
860.62	1673.19
860.79	1705.96
860.95	1714.15
861.12	1671.14
861.29	1562.60
861.46	1712.10
861.63	1681.38
861.79	1689.57
861.96	1603.56
862.13	1703.91
862.30	1796.07
862.47	1693.67
862.63	1734.63
862.80	1773.54
862.97	1765.35
863.14	1689.57
863.30	1744.87
863.47	1699.81
863.64	1804.26
863.81	1738.73
863.97	1689.57
864.14	1759.21
864.31	1716.20
864.48	1755.11
864.65	1658.85
864.81	1699.81
864.98	1763.30
865.15	1751.01
865.32	1781.73
865.48	1691.62
865.65	1810.40
865.82	1683.43
865.98	1708.01
866.15	1718.25
866.32	1693.67
866.49	1705.96
866.65	1755.11
866.82	1660.90
866.99	1761.25
867.16	1701.86
867.32	1675.24
867.49	1621.99
867.66	1683.43
867.83	1689.57
867.99	1624.04
868.16	1681.38
868.33	1681.38
868.49	1779.68
868.66	1667.05
868.83	1777.64
868.99	1710.05
869.16	1701.86
869.33	1763.30
869.50	1779.68
869.66	1761.25
869.83	1744.87
870.00	1617.90
870.16	1738.73
870.33	1636.33
870.50	1736.68
870.66	1642.47
870.83	1808.36
871.00	1683.43
871.17	1781.73
871.33	1724.39
871.50	1734.63
871.67	1671.14
871.83	1574.89
872.00	1824.74
872.17	1644.52
872.33	1734.63
872.50	1767.40
872.67	1640.42
872.83	1632.23
873.00	1775.59
873.17	1675.24
873.33	1712.10
873.50	1689.57
873.67	1662.95
873.83	1689.57
874.00	1744.87
874.16	1789.92
874.33	1759.21
874.50	1685.48
874.66	1742.82
874.83	1722.34
875.00	1785.83
875.16	1714.15
875.33	1730.53
875.50	1628.14
875.66	1601.51
875.83	1742.82
875.99	1667.05
876.16	1718.25
876.33	1624.04
876.49	1734.63
876.66	1726.44
876.83	1634.28
876.99	1630.18
877.16	1609.70
877.32	1619.94
877.49	1660.90
877.66	1710.05
877.82	1810.40
877.99	1697.77
878.15	1791.97
878.32	1712.10
878.49	1699.81
878.65	1695.72
878.82	1718.25
878.98	1628.14
879.15	1806.31
879.32	1767.40
879.48	1771.49
879.65	1644.52
879.81	1701.86
879.98	1742.82
880.15	1689.57
880.31	1740.77
880.48	1699.81
880.64	1759.21
880.81	1740.77
880.97	1812.45
881.14	1783.78
881.31	1605.61
881.47	1794.02
881.64	1710.05
881.80	1587.18
881.97	1763.30
882.13	1751.01
882.30	1683.43
882.47	1669.09
882.63	1693.67
882.80	1601.51
882.96	1644.52
883.13	1763.30
883.29	1697.77
883.46	1689.57
883.62	1789.92
883.79	1656.81
883.95	1730.53
884.12	1742.82
884.29	1718.25
884.45	1730.53
884.62	1724.39
884.78	1662.95
884.95	1810.40
885.11	1685.48
885.28	1662.95
885.44	1705.96
885.61	1734.63
885.77	1767.40
885.94	1748.97
886.10	1677.29
886.27	1699.81
886.43	1787.88
886.60	1712.10
886.76	1624.04
886.93	1628.14
887.09	1671.14
887.26	1589.22
887.42	1740.77
887.59	1759.21
887.75	1777.64
887.92	1804.26
888.08	1710.05
888.25	1806.31
888.41	1746.92
888.58	1601.51
888.74	1669.09
888.91	1716.20
>>>>>End Processed Spectral Data<<<<<
