SpectraSuite Data File
++++++++++++++++++++++++++++++++++++
Date: Mon Jun 06 12:26:37 CEST 2016
User: root
Dark Spectrum Present: No
Reference Spectrum Present: No
Number of Sampled Component Spectra: 1
Spectrometers: USB4C02835
Integration Time (usec): 100000 (USB4C02835)
Spectra Averaged: 1 (USB4C02835)
Boxcar Smoothing: 0 (USB4C02835)
Correct for Electrical Dark: No (USB4C02835)
Strobe/Lamp Enabled: No (USB4C02835)
Correct for Detector Non-linearity: No (USB4C02835)
Correct for Stray Light: No (USB4C02835)
Number of Pixels in Processed Spectrum: 3648
>>>>>Begin Processed Spectral Data<<<<<
177.47	1492.97
177.69	1492.97
177.91	1492.97
178.13	1404.91
178.36	1511.40
178.58	1628.14
178.80	1652.71
179.02	1642.47
179.24	1636.33
179.46	1665.00
179.68	1738.73
179.90	1667.05
180.13	1667.05
180.35	1630.18
180.57	1599.46
180.79	1701.86
181.01	1724.39
181.23	1751.01
181.45	1767.40
181.67	1734.63
181.90	1781.73
182.12	1601.51
182.34	1601.51
182.56	1777.64
182.78	1667.05
183.00	1726.44
183.22	1718.25
183.44	1587.18
183.66	1841.12
183.89	1845.22
184.11	1689.57
184.33	1712.10
184.55	1771.49
184.77	1681.38
184.99	1714.15
185.21	1675.24
185.43	1798.12
185.65	1613.80
185.87	1716.20
186.10	1773.54
186.32	1853.41
186.54	1679.33
186.76	1687.53
186.98	1669.09
187.20	1667.05
187.42	1630.18
187.64	1636.33
187.86	1712.10
188.08	1675.24
188.30	1673.19
188.52	1746.92
188.75	1789.92
188.97	1763.30
189.19	1669.09
189.41	1638.38
189.63	1730.53
189.85	1667.05
190.07	1648.61
190.29	1576.94
190.51	1738.73
190.73	1689.57
190.95	1734.63
191.17	1603.56
191.39	1583.08
191.61	1689.57
191.84	1648.61
192.06	1718.25
192.28	1638.38
192.50	1882.08
192.72	1757.16
192.94	1726.44
193.16	1740.77
193.38	1681.38
193.60	1701.86
193.82	1640.42
194.04	1742.82
194.26	1716.20
194.48	1560.55
194.70	1615.85
194.92	1740.77
195.14	1753.06
195.36	1615.85
195.58	1708.01
195.80	1589.22
196.02	1640.42
196.24	1701.86
196.46	1779.68
196.69	1660.90
196.91	1845.22
197.13	1677.29
197.35	1660.90
197.57	1796.07
197.79	1746.92
198.01	1654.76
198.23	1693.67
198.45	1638.38
198.67	1689.57
198.89	1601.51
199.11	1732.58
199.33	1562.60
199.55	1570.79
199.77	1718.25
199.99	1697.77
200.21	1624.04
200.43	1730.53
200.65	1589.22
200.87	1572.84
201.09	1714.15
201.31	1705.96
201.53	1802.21
201.75	1658.85
201.97	1685.48
202.19	1708.01
202.41	1640.42
202.63	1816.55
202.85	1716.20
203.07	1691.62
203.29	1591.27
203.51	1585.13
203.73	1648.61
203.95	1773.54
204.17	1697.77
204.39	1681.38
204.61	1789.92
204.83	1650.66
205.05	1742.82
205.27	1777.64
205.49	1800.16
205.71	1646.57
205.93	1552.36
206.15	1757.16
206.37	1667.05
206.59	1734.63
206.81	1648.61
207.03	1642.47
207.25	1714.15
207.47	1740.77
207.69	1617.90
207.91	1783.78
208.13	1652.71
208.34	1626.09
208.56	1595.37
208.78	1759.21
209.00	1658.85
209.22	1683.43
209.44	1660.90
209.66	1697.77
209.88	1701.86
210.10	1673.19
210.32	1640.42
210.54	1791.97
210.76	1615.85
210.98	1728.49
211.20	1538.02
211.42	1681.38
211.64	1744.87
211.86	1697.77
212.08	1718.25
212.30	1714.15
212.52	1718.25
212.74	1716.20
212.96	1787.88
213.17	1740.77
213.39	1787.88
213.61	1779.68
213.83	1855.46
214.05	1665.00
214.27	1730.53
214.49	1601.51
214.71	1701.86
214.93	1753.06
215.15	1738.73
215.37	1685.48
215.59	1646.57
215.81	1658.85
216.03	1857.51
216.24	1697.77
216.46	1753.06
216.68	1763.30
216.90	1691.62
217.12	1789.92
217.34	1646.57
217.56	1769.44
217.78	1769.44
218.00	1626.09
218.22	1628.14
218.44	1765.35
218.66	1652.71
218.87	1761.25
219.09	1683.43
219.31	1755.11
219.53	1724.39
219.75	1560.55
219.97	1650.66
220.19	1744.87
220.41	1699.81
220.63	1726.44
220.85	1716.20
221.06	1630.18
221.28	1748.97
221.50	1734.63
221.72	1665.00
221.94	1734.63
222.16	1697.77
222.38	1730.53
222.60	1761.25
222.82	1722.34
223.03	1665.00
223.25	1615.85
223.47	1763.30
223.69	1751.01
223.91	1628.14
224.13	1685.48
224.35	1679.33
224.57	1722.34
224.78	1683.43
225.00	1679.33
225.22	1677.29
225.44	1732.58
225.66	1705.96
225.88	1673.19
226.10	1771.49
226.32	1599.46
226.53	1806.31
226.75	1695.72
226.97	1660.90
227.19	1720.29
227.41	1667.05
227.63	1712.10
227.85	1648.61
228.06	1665.00
228.28	1626.09
228.50	1730.53
228.72	1607.66
228.94	1744.87
229.16	1554.41
229.37	1615.85
229.59	1632.23
229.81	1720.29
230.03	1656.81
230.25	1601.51
230.47	1603.56
230.69	1617.90
230.90	1781.73
231.12	1652.71
231.34	1726.44
231.56	1759.21
231.78	1615.85
232.00	1751.01
232.21	1642.47
232.43	1712.10
232.65	1632.23
232.87	1714.15
233.09	1611.75
233.30	1662.95
233.52	1656.81
233.74	1667.05
233.96	1669.09
234.18	1708.01
234.40	1732.58
234.61	1761.25
234.83	1581.03
235.05	1634.28
235.27	1806.31
235.49	1859.56
235.70	1714.15
235.92	1781.73
236.14	1791.97
236.36	1832.93
236.58	1601.51
236.79	1718.25
237.01	1722.34
237.23	1710.05
237.45	1779.68
237.67	1644.52
237.88	1722.34
238.10	1845.22
238.32	1638.38
238.54	1648.61
238.76	1697.77
238.97	1626.09
239.19	1630.18
239.41	1746.92
239.63	1701.86
239.85	1638.38
240.06	1740.77
240.28	1624.04
240.50	1730.53
240.72	1679.33
240.93	1685.48
241.15	1699.81
241.37	1667.05
241.59	1734.63
241.81	1677.29
242.02	1689.57
242.24	1714.15
242.46	1718.25
242.68	1683.43
242.89	1787.88
243.11	1691.62
243.33	1703.91
243.55	1763.30
243.76	1755.11
243.98	1714.15
244.20	1652.71
244.42	1753.06
244.64	1728.49
244.85	1636.33
245.07	1607.66
245.29	1728.49
245.51	1581.03
245.72	1646.57
245.94	1730.53
246.16	1681.38
246.38	1685.48
246.59	1705.96
246.81	1640.42
247.03	1644.52
247.24	1605.61
247.46	1628.14
247.68	1740.77
247.90	1611.75
248.11	1683.43
248.33	1751.01
248.55	1665.00
248.77	1701.86
248.98	1740.77
249.20	1820.64
249.42	1710.05
249.64	1755.11
249.85	1656.81
250.07	1703.91
250.29	1648.61
250.50	1746.92
250.72	1601.51
250.94	1746.92
251.16	1855.46
251.37	1755.11
251.59	1763.30
251.81	1791.97
252.02	1798.12
252.24	1607.66
252.46	1845.22
252.68	1662.95
252.89	1654.76
253.11	1519.59
253.33	1796.07
253.54	1710.05
253.76	1609.70
253.98	1609.70
254.20	1673.19
254.41	1671.14
254.63	1632.23
254.85	1593.32
255.06	1744.87
255.28	1755.11
255.50	1628.14
255.71	1716.20
255.93	1628.14
256.15	1558.50
256.36	1697.77
256.58	1603.56
256.80	1697.77
257.02	1662.95
257.23	1677.29
257.45	1656.81
257.67	1763.30
257.88	1611.75
258.10	1708.01
258.32	1738.73
258.53	1710.05
258.75	1812.45
258.97	1632.23
259.18	1767.40
259.40	1751.01
259.62	1859.56
259.83	1759.21
260.05	1724.39
260.27	2004.96
260.48	1718.25
260.70	1607.66
260.92	1751.01
261.13	1705.96
261.35	1705.96
261.57	1734.63
261.78	1650.66
262.00	1646.57
262.22	1802.21
262.43	1675.24
262.65	1660.90
262.86	1730.53
263.08	1763.30
263.30	1697.77
263.51	1578.98
263.73	1570.79
263.95	1726.44
264.16	1665.00
264.38	1695.72
264.60	1685.48
264.81	1662.95
265.03	1779.68
265.25	1748.97
265.46	1673.19
265.68	1796.07
265.89	1669.09
266.11	1599.46
266.33	1742.82
266.54	1830.88
266.76	1673.19
266.98	1828.84
267.19	1763.30
267.41	1683.43
267.62	1714.15
267.84	1685.48
268.06	1732.58
268.27	1701.86
268.49	1771.49
268.70	1722.34
268.92	1677.29
269.14	1677.29
269.35	1593.32
269.57	1652.71
269.79	1701.86
270.00	1648.61
270.22	1802.21
270.43	1720.29
270.65	1624.04
270.87	1693.67
271.08	1718.25
271.30	1720.29
271.51	1695.72
271.73	1695.72
271.95	1845.22
272.16	1642.47
272.38	1681.38
272.59	1714.15
272.81	1724.39
273.02	1628.14
273.24	1652.71
273.46	1763.30
273.67	1656.81
273.89	1660.90
274.10	1703.91
274.32	1828.84
274.54	1730.53
274.75	1658.85
274.97	1644.52
275.18	1712.10
275.40	1708.01
275.61	1665.00
275.83	1718.25
276.05	1621.99
276.26	1714.15
276.48	1697.77
276.69	1722.34
276.91	1607.66
277.12	1685.48
277.34	1673.19
277.55	1783.78
277.77	1683.43
277.99	1697.77
278.20	1687.53
278.42	1615.85
278.63	1685.48
278.85	1619.94
279.06	1644.52
279.28	1679.33
279.49	1798.12
279.71	1779.68
279.93	1597.42
280.14	1720.29
280.36	1665.00
280.57	1839.08
280.79	1740.77
281.00	1656.81
281.22	1609.70
281.43	1791.97
281.65	1585.13
281.86	1621.99
282.08	1755.11
282.29	1800.16
282.51	1681.38
282.73	1642.47
282.94	1648.61
283.16	1728.49
283.37	1761.25
283.59	1675.24
283.80	1761.25
284.02	1681.38
284.23	1746.92
284.45	1656.81
284.66	1585.13
284.88	1656.81
285.09	1718.25
285.31	1744.87
285.52	1689.57
285.74	1603.56
285.95	1701.86
286.17	1673.19
286.38	1667.05
286.60	1705.96
286.81	1652.71
287.03	1703.91
287.24	1576.94
287.46	1748.97
287.67	1671.14
287.89	1808.36
288.10	1765.35
288.32	1675.24
288.53	1732.58
288.75	1701.86
288.96	1736.68
289.18	1650.66
289.39	1779.68
289.61	1722.34
289.82	1791.97
290.04	1755.11
290.25	1626.09
290.47	1710.05
290.68	1650.66
290.90	1812.45
291.11	1630.18
291.33	1824.74
291.54	1615.85
291.76	1687.53
291.97	1738.73
292.18	1705.96
292.40	1693.67
292.61	1705.96
292.83	1751.01
293.04	1779.68
293.26	1734.63
293.47	1621.99
293.69	1673.19
293.90	1644.52
294.12	1759.21
294.33	1691.62
294.55	1701.86
294.76	1773.54
294.97	1800.16
295.19	1834.98
295.40	1726.44
295.62	1757.16
295.83	1755.11
296.05	1628.14
296.26	1730.53
296.48	1593.32
296.69	1751.01
296.90	1634.28
297.12	1783.78
297.33	1828.84
297.55	1671.14
297.76	1724.39
297.98	1785.83
298.19	1662.95
298.41	1744.87
298.62	1652.71
298.83	1728.49
299.05	1679.33
299.26	1624.04
299.48	1656.81
299.69	1693.67
299.90	1759.21
300.12	1593.32
300.33	1748.97
300.55	1683.43
300.76	1724.39
300.98	1607.66
301.19	1804.26
301.40	1718.25
301.62	1624.04
301.83	1669.09
302.05	1652.71
302.26	1705.96
302.47	1718.25
302.69	1654.76
302.90	1767.40
303.12	1609.70
303.33	1738.73
303.54	1804.26
303.76	1634.28
303.97	1742.82
304.19	1820.64
304.40	1677.29
304.61	1804.26
304.83	1820.64
305.04	1757.16
305.26	1724.39
305.47	1671.14
305.68	1628.14
305.90	1583.08
306.11	1677.29
306.33	1595.37
306.54	1615.85
306.75	1687.53
306.97	1636.33
307.18	1611.75
307.39	1689.57
307.61	1773.54
307.82	1697.77
308.04	1714.15
308.25	1650.66
308.46	1716.20
308.68	1636.33
308.89	1675.24
309.10	1808.36
309.32	1689.57
309.53	1644.52
309.74	1779.68
309.96	1652.71
310.17	1732.58
310.39	1671.14
310.60	1767.40
310.81	1677.29
311.03	1630.18
311.24	1753.06
311.45	1701.86
311.67	1775.59
311.88	1732.58
312.09	1681.38
312.31	1615.85
312.52	1681.38
312.73	1648.61
312.95	1609.70
313.16	1650.66
313.37	1804.26
313.59	1699.81
313.80	1716.20
314.01	1804.26
314.23	1660.90
314.44	1685.48
314.65	1591.27
314.87	1679.33
315.08	1628.14
315.29	1648.61
315.51	1626.09
315.72	1568.74
315.93	1824.74
316.15	1742.82
316.36	1687.53
316.57	1632.23
316.79	1726.44
317.00	1599.46
317.21	1685.48
317.43	1671.14
317.64	1734.63
317.85	1632.23
318.07	1638.38
318.28	1720.29
318.49	1787.88
318.70	1935.33
318.92	1785.83
319.13	1804.26
319.34	1812.45
319.56	1720.29
319.77	1753.06
319.98	1775.59
320.20	1748.97
320.41	1730.53
320.62	1787.88
320.83	1660.90
321.05	1877.99
321.26	1693.67
321.47	1660.90
321.69	1765.35
321.90	1611.75
322.11	1632.23
322.32	1648.61
322.54	1798.12
322.75	1617.90
322.96	1832.93
323.18	1624.04
323.39	1617.90
323.60	1626.09
323.81	1826.79
324.03	1626.09
324.24	1679.33
324.45	1714.15
324.66	1673.19
324.88	1791.97
325.09	1781.73
325.30	1636.33
325.52	1746.92
325.73	1605.61
325.94	1705.96
326.15	1570.79
326.37	1654.76
326.58	1777.64
326.79	1787.88
327.00	1679.33
327.22	1685.48
327.43	1673.19
327.64	1652.71
327.85	1728.49
328.07	1677.29
328.28	1837.03
328.49	1593.32
328.70	1658.85
328.92	1648.61
329.13	1613.80
329.34	1730.53
329.55	1804.26
329.76	1738.73
329.98	1691.62
330.19	1734.63
330.40	1703.91
330.61	1738.73
330.83	1648.61
331.04	1667.05
331.25	1699.81
331.46	1673.19
331.68	1693.67
331.89	1740.77
332.10	1611.75
332.31	1658.85
332.52	1722.34
332.74	1753.06
332.95	1624.04
333.16	1701.86
333.37	1710.05
333.58	1648.61
333.80	1595.37
334.01	1578.98
334.22	1771.49
334.43	1710.05
334.64	1628.14
334.86	1595.37
335.07	1642.47
335.28	1855.46
335.49	1556.46
335.70	1671.14
335.92	1761.25
336.13	1880.04
336.34	1751.01
336.55	1656.81
336.76	1761.25
336.98	1638.38
337.19	1755.11
337.40	1777.64
337.61	1853.41
337.82	1628.14
338.04	1722.34
338.25	1632.23
338.46	1710.05
338.67	1708.01
338.88	1648.61
339.09	1581.03
339.31	1669.09
339.52	1632.23
339.73	1560.55
339.94	1705.96
340.15	1814.50
340.36	1634.28
340.58	1718.25
340.79	1601.51
341.00	1689.57
341.21	1613.80
341.42	1777.64
341.63	1753.06
341.85	1755.11
342.06	1712.10
342.27	1748.97
342.48	1714.15
342.69	1615.85
342.90	1695.72
343.12	1746.92
343.33	1718.25
343.54	1712.10
343.75	1763.30
343.96	1701.86
344.17	1624.04
344.38	1736.68
344.60	1628.14
344.81	1599.46
345.02	1632.23
345.23	1748.97
345.44	1779.68
345.65	1701.86
345.86	1621.99
346.07	1652.71
346.29	1650.66
346.50	1757.16
346.71	1685.48
346.92	1726.44
347.13	1791.97
347.34	1642.47
347.55	1726.44
347.76	1740.77
347.98	1587.18
348.19	1607.66
348.40	1748.97
348.61	1617.90
348.82	1726.44
349.03	1746.92
349.24	1640.42
349.45	1755.11
349.66	1656.81
349.88	1648.61
350.09	1673.19
350.30	1804.26
350.51	1710.05
350.72	1701.86
350.93	1787.88
351.14	1705.96
351.35	1765.35
351.56	1638.38
351.77	1665.00
351.99	1734.63
352.20	1726.44
352.41	1734.63
352.62	1564.65
352.83	1626.09
353.04	1593.32
353.25	1613.80
353.46	1814.50
353.67	1816.55
353.88	1630.18
354.09	1722.34
354.30	1689.57
354.52	1658.85
354.73	1621.99
354.94	1730.53
355.15	1650.66
355.36	1740.77
355.57	1685.48
355.78	1751.01
355.99	1648.61
356.20	1685.48
356.41	1718.25
356.62	1681.38
356.83	1785.83
357.04	1800.16
357.25	1660.90
357.46	1648.61
357.68	1615.85
357.89	1560.55
358.10	1656.81
358.31	1665.00
358.52	1730.53
358.73	1654.76
358.94	1652.71
359.15	1695.72
359.36	1712.10
359.57	1624.04
359.78	1638.38
359.99	1751.01
360.20	1640.42
360.41	1632.23
360.62	1783.78
360.83	1681.38
361.04	1675.24
361.25	1683.43
361.46	1769.44
361.67	1769.44
361.88	1691.62
362.09	1773.54
362.30	1632.23
362.51	1644.52
362.72	1642.47
362.93	1783.78
363.14	1724.39
363.35	1789.92
363.56	1746.92
363.78	1785.83
363.99	1748.97
364.20	1636.33
364.41	1738.73
364.62	1794.02
364.83	1691.62
365.04	1673.19
365.25	1697.77
365.46	1837.03
365.67	1720.29
365.88	1636.33
366.09	1689.57
366.30	1576.94
366.51	1662.95
366.72	1658.85
366.93	1746.92
367.14	1681.38
367.35	1742.82
367.56	1665.00
367.77	1791.97
367.98	1650.66
368.18	1708.01
368.39	1703.91
368.60	1683.43
368.81	1726.44
369.02	1683.43
369.23	1742.82
369.44	1656.81
369.65	1660.90
369.86	1699.81
370.07	1751.01
370.28	1751.01
370.49	1767.40
370.70	1724.39
370.91	1609.70
371.12	1611.75
371.33	1712.10
371.54	1671.14
371.75	1906.66
371.96	1605.61
372.17	1742.82
372.38	1748.97
372.59	1730.53
372.80	1646.57
373.01	1697.77
373.22	1722.34
373.43	1740.77
373.64	1730.53
373.85	1783.78
374.06	1765.35
374.26	1703.91
374.47	1765.35
374.68	1796.07
374.89	1740.77
375.10	1619.94
375.31	1763.30
375.52	1673.19
375.73	1650.66
375.94	1611.75
376.15	1742.82
376.36	1658.85
376.57	1699.81
376.78	1675.24
376.99	1708.01
377.20	1695.72
377.40	1701.86
377.61	1806.31
377.82	1648.61
378.03	1796.07
378.24	1714.15
378.45	1724.39
378.66	1646.57
378.87	1611.75
379.08	1611.75
379.29	1693.67
379.50	1759.21
379.71	1767.40
379.91	1691.62
380.12	1642.47
380.33	1701.86
380.54	1718.25
380.75	1753.06
380.96	1689.57
381.17	1789.92
381.38	1730.53
381.59	1652.71
381.80	1767.40
382.00	1859.56
382.21	1748.97
382.42	1798.12
382.63	1826.79
382.84	1757.16
383.05	1837.03
383.26	1755.11
383.47	1771.49
383.68	1732.58
383.88	1701.86
384.09	1656.81
384.30	1730.53
384.51	1722.34
384.72	1673.19
384.93	1679.33
385.14	1718.25
385.35	1820.64
385.55	1607.66
385.76	1697.77
385.97	1734.63
386.18	1634.28
386.39	1640.42
386.60	1693.67
386.81	1662.95
387.02	1673.19
387.22	1599.46
387.43	1679.33
387.64	1779.68
387.85	1869.80
388.06	2207.71
388.27	4437.95
388.48	6975.38
388.68	8220.55
388.89	9686.89
389.10	9895.78
389.31	8703.87
389.52	7661.45
389.73	6721.43
389.93	6283.17
390.14	5889.96
390.35	5105.59
390.56	4560.83
390.77	3700.68
390.98	3106.77
391.18	2600.92
391.39	2109.41
391.60	1863.65
391.81	1834.98
392.02	1730.53
392.23	1830.88
392.43	1730.53
392.64	1791.97
392.85	1691.62
393.06	1912.80
393.27	1624.04
393.47	1669.09
393.68	1738.73
393.89	1654.76
394.10	1800.16
394.31	1712.10
394.52	1658.85
394.72	1652.71
394.93	1732.58
395.14	1650.66
395.35	1730.53
395.56	1636.33
395.76	1693.67
395.97	1769.44
396.18	1814.50
396.39	1767.40
396.60	1978.34
396.80	1859.56
397.01	1900.52
397.22	1806.31
397.43	1755.11
397.64	1693.67
397.84	1771.49
398.05	1806.31
398.26	1751.01
398.47	1726.44
398.67	1837.03
398.88	1781.73
399.09	1794.02
399.30	1796.07
399.51	1722.34
399.71	1648.61
399.92	1732.58
400.13	1736.68
400.34	1685.48
400.54	1689.57
400.75	1732.58
400.96	1644.52
401.17	1775.59
401.37	1685.48
401.58	1656.81
401.79	1746.92
402.00	1818.60
402.21	2009.06
402.41	1908.71
402.62	2045.92
402.83	1976.29
403.04	1976.29
403.24	2066.40
403.45	1767.40
403.66	1849.32
403.87	1877.99
404.07	1845.22
404.28	1851.36
404.49	1871.84
404.70	1761.25
404.90	1751.01
405.11	1716.20
405.32	1794.02
405.52	1708.01
405.73	1642.47
405.94	1638.38
406.15	1648.61
406.35	1785.83
406.56	1734.63
406.77	1728.49
406.98	1738.73
407.18	1609.70
407.39	1763.30
407.60	1667.05
407.80	1712.10
408.01	1718.25
408.22	1757.16
408.43	1591.27
408.63	1703.91
408.84	1667.05
409.05	1763.30
409.25	1638.38
409.46	1669.09
409.67	1689.57
409.88	1677.29
410.08	1716.20
410.29	1681.38
410.50	1687.53
410.70	1755.11
410.91	1652.71
411.12	1656.81
411.32	1675.24
411.53	1710.05
411.74	1748.97
411.95	1755.11
412.15	1812.45
412.36	1757.16
412.57	1755.11
412.77	1789.92
412.98	1697.77
413.19	1730.53
413.39	1726.44
413.60	1783.78
413.81	1734.63
414.01	1648.61
414.22	1767.40
414.43	1652.71
414.63	1724.39
414.84	1751.01
415.05	1753.06
415.25	1681.38
415.46	1697.77
415.67	1619.94
415.87	1763.30
416.08	1718.25
416.29	1658.85
416.49	1701.86
416.70	1660.90
416.91	1738.73
417.11	1712.10
417.32	1638.38
417.53	1693.67
417.73	1699.81
417.94	1732.58
418.15	1726.44
418.35	1679.33
418.56	1783.78
418.77	1802.21
418.97	1736.68
419.18	1634.28
419.38	1527.78
419.59	1726.44
419.80	1748.97
420.00	1679.33
420.21	1681.38
420.42	1789.92
420.62	1714.15
420.83	1679.33
421.04	1679.33
421.24	1708.01
421.45	1718.25
421.65	1751.01
421.86	1683.43
422.07	1724.39
422.27	1693.67
422.48	1681.38
422.69	1628.14
422.89	1777.64
423.10	1636.33
423.30	1626.09
423.51	1744.87
423.72	1759.21
423.92	1724.39
424.13	1599.46
424.33	1746.92
424.54	1730.53
424.75	1736.68
424.95	1759.21
425.16	1687.53
425.36	1683.43
425.57	1697.77
425.78	1703.91
425.98	1755.11
426.19	1669.09
426.39	1568.74
426.60	1689.57
426.81	1753.06
427.01	1773.54
427.22	1667.05
427.42	1621.99
427.63	1636.33
427.83	1744.87
428.04	1738.73
428.25	1769.44
428.45	1710.05
428.66	1732.58
428.86	1705.96
429.07	1681.38
429.28	1738.73
429.48	1697.77
429.69	1724.39
429.89	1728.49
430.10	1673.19
430.30	1740.77
430.51	1775.59
430.71	1630.18
430.92	1705.96
431.13	1654.76
431.33	1761.25
431.54	1636.33
431.74	1781.73
431.95	1761.25
432.15	1599.46
432.36	1714.15
432.56	1724.39
432.77	1822.69
432.98	1763.30
433.18	1728.49
433.39	1722.34
433.59	1675.24
433.80	1861.60
434.00	1853.41
434.21	1665.00
434.41	1701.86
434.62	1775.59
434.82	1562.60
435.03	1681.38
435.23	1779.68
435.44	1607.66
435.64	1701.86
435.85	1654.76
436.06	1751.01
436.26	1757.16
436.47	1673.19
436.67	1658.85
436.88	1615.85
437.08	1699.81
437.29	1818.60
437.49	1679.33
437.70	1855.46
437.90	1722.34
438.11	1763.30
438.31	1849.32
438.52	1837.03
438.72	1845.22
438.93	1859.56
439.13	1800.16
439.34	1851.36
439.54	1777.64
439.75	1783.78
439.95	1806.31
440.16	1656.81
440.36	1693.67
440.57	1724.39
440.77	1728.49
440.98	1716.20
441.18	1681.38
441.39	1734.63
441.59	1705.96
441.80	1865.70
442.00	1658.85
442.21	1832.93
442.41	1714.15
442.62	1759.21
442.82	1681.38
443.02	1718.25
443.23	1726.44
443.43	1617.90
443.64	1873.89
443.84	1621.99
444.05	1806.31
444.25	1748.97
444.46	1624.04
444.66	1722.34
444.87	1837.03
445.07	1671.14
445.28	1791.97
445.48	1742.82
445.69	1779.68
445.89	1851.36
446.09	1763.30
446.30	1968.10
446.50	2746.33
446.71	3745.73
446.91	4405.18
447.12	4722.62
447.32	4827.06
447.53	4255.68
447.73	3932.10
447.93	3559.37
448.14	3282.89
448.34	3166.16
448.55	3018.71
448.75	2828.24
448.96	2705.37
449.16	2435.03
449.36	2281.44
449.57	2037.73
449.77	1804.26
449.98	1791.97
450.18	1787.88
450.39	1808.36
450.59	1724.39
450.79	1691.62
451.00	1734.63
451.20	1779.68
451.41	1701.86
451.61	1779.68
451.81	1708.01
452.02	1738.73
452.22	1683.43
452.43	1660.90
452.63	1712.10
452.84	1730.53
453.04	1642.47
453.24	1748.97
453.45	1675.24
453.65	1679.33
453.86	1722.34
454.06	1767.40
454.26	1691.62
454.47	1667.05
454.67	1789.92
454.87	1742.82
455.08	1736.68
455.28	1861.60
455.49	1820.64
455.69	1662.95
455.89	1849.32
456.10	1806.31
456.30	1714.15
456.51	1710.05
456.71	1730.53
456.91	1769.44
457.12	1718.25
457.32	1689.57
457.52	1675.24
457.73	1775.59
457.93	1726.44
458.14	1662.95
458.34	1615.85
458.54	1677.29
458.75	1761.25
458.95	1738.73
459.15	1734.63
459.36	1732.58
459.56	1693.67
459.76	1779.68
459.97	1716.20
460.17	1677.29
460.37	1789.92
460.58	1599.46
460.78	1742.82
460.99	1710.05
461.19	1710.05
461.39	1822.69
461.60	1675.24
461.80	1771.49
462.00	1630.18
462.21	1685.48
462.41	1693.67
462.61	1662.95
462.82	1656.81
463.02	1753.06
463.22	1710.05
463.43	1759.21
463.63	1681.38
463.83	1781.73
464.04	1683.43
464.24	1677.29
464.44	1646.57
464.64	1732.58
464.85	1779.68
465.05	1781.73
465.25	1691.62
465.46	1624.04
465.66	1783.78
465.86	1755.11
466.07	1736.68
466.27	1671.14
466.47	1652.71
466.68	1654.76
466.88	1820.64
467.08	1751.01
467.29	1759.21
467.49	1738.73
467.69	1722.34
467.89	1722.34
468.10	1695.72
468.30	1736.68
468.50	1779.68
468.71	1740.77
468.91	1685.48
469.11	1839.08
469.31	1730.53
469.52	1679.33
469.72	1779.68
469.92	1845.22
470.13	1685.48
470.33	1712.10
470.53	1810.40
470.73	2062.30
470.94	2265.05
471.14	2306.01
471.34	2439.13
471.54	2420.70
471.75	2203.61
471.95	2181.09
472.15	2086.88
472.36	2058.21
472.56	2025.44
472.76	2009.06
472.96	1964.00
473.17	1900.52
473.37	1859.56
473.57	1798.12
473.77	1853.41
473.98	1787.88
474.18	1646.57
474.38	1964.00
474.58	1644.52
474.79	1771.49
474.99	1691.62
475.19	1705.96
475.39	1658.85
475.60	1714.15
475.80	1755.11
476.00	1705.96
476.20	1652.71
476.41	1748.97
476.61	1751.01
476.81	1753.06
477.01	1695.72
477.21	1810.40
477.42	1738.73
477.62	1628.14
477.82	1755.11
478.02	1667.05
478.23	1701.86
478.43	1624.04
478.63	1691.62
478.83	1648.61
479.03	1603.56
479.24	1767.40
479.44	1753.06
479.64	1693.67
479.84	1654.76
480.04	1626.09
480.25	1773.54
480.45	1695.72
480.65	1728.49
480.85	1751.01
481.06	1671.14
481.26	1796.07
481.46	1771.49
481.66	1728.49
481.86	1572.84
482.06	1828.84
482.27	1738.73
482.47	1611.75
482.67	1710.05
482.87	1726.44
483.07	1781.73
483.28	1652.71
483.48	1621.99
483.68	1748.97
483.88	1619.94
484.08	1511.40
484.29	1632.23
484.49	1753.06
484.69	1646.57
484.89	1824.74
485.09	1798.12
485.29	1691.62
485.50	1755.11
485.70	1718.25
485.90	1763.30
486.10	1720.29
486.30	1716.20
486.50	1748.97
486.71	1789.92
486.91	1812.45
487.11	1740.77
487.31	1703.91
487.51	1834.98
487.71	1648.61
487.91	1667.05
488.12	1656.81
488.32	1521.64
488.52	1728.49
488.72	1550.31
488.92	1607.66
489.12	1787.88
489.32	1841.12
489.53	1796.07
489.73	1660.90
489.93	1761.25
490.13	1722.34
490.33	1642.47
490.53	1746.92
490.73	1734.63
490.94	1630.18
491.14	1732.58
491.34	1830.88
491.54	2205.66
491.74	2600.92
491.94	2844.63
492.14	3067.86
492.34	2971.60
492.54	2811.86
492.75	2447.32
492.95	2473.95
493.15	2338.78
493.35	2283.49
493.55	2213.85
493.75	2097.12
493.95	2170.85
494.15	1998.82
494.35	2031.58
494.56	1783.78
494.76	1791.97
494.96	1767.40
495.16	1728.49
495.36	1748.97
495.56	1650.66
495.76	1705.96
495.96	1644.52
496.16	1634.28
496.36	1839.08
496.56	1757.16
496.77	1761.25
496.97	1755.11
497.17	1773.54
497.37	1665.00
497.57	1697.77
497.77	1703.91
497.97	1697.77
498.17	1775.59
498.37	1658.85
498.57	1677.29
498.77	1703.91
498.97	1808.36
499.17	1824.74
499.38	1736.68
499.58	1783.78
499.78	1763.30
499.98	1769.44
500.18	1693.67
500.38	1685.48
500.58	1894.37
500.78	2498.52
500.98	4528.06
501.18	5832.62
501.38	6739.87
501.58	7083.92
501.78	6698.91
501.98	5533.61
502.18	5029.81
502.38	4503.48
502.58	4114.37
502.78	3794.89
502.98	3684.30
503.18	3409.87
503.38	3170.26
503.59	2738.13
503.79	2619.35
503.99	2543.58
504.19	2334.68
504.39	2148.32
504.59	2097.12
504.79	2088.93
504.99	2025.44
505.19	1912.80
505.39	1943.52
505.59	1927.14
505.79	1908.71
505.99	1839.08
506.19	1828.84
506.39	1847.27
506.59	1730.53
506.79	1716.20
506.99	1794.02
507.19	1789.92
507.39	1751.01
507.59	1607.66
507.79	1763.30
507.99	1730.53
508.19	1703.91
508.39	1642.47
508.59	1662.95
508.79	1763.30
508.99	1697.77
509.19	1699.81
509.39	1705.96
509.59	1640.42
509.79	1675.24
509.99	1808.36
510.19	1734.63
510.39	1839.08
510.59	1804.26
510.79	1669.09
510.99	1607.66
511.19	1689.57
511.39	1806.31
511.59	1751.01
511.79	1812.45
511.99	1695.72
512.19	1767.40
512.38	1724.39
512.58	1638.38
512.78	1757.16
512.98	1853.41
513.18	1753.06
513.38	1724.39
513.58	1806.31
513.78	1673.19
513.98	1685.48
514.18	1738.73
514.38	1669.09
514.58	1791.97
514.78	1724.39
514.98	1695.72
515.18	1730.53
515.38	1630.18
515.58	1886.18
515.78	1722.34
515.98	1677.29
516.18	1818.60
516.38	1714.15
516.57	1654.76
516.77	1757.16
516.97	1761.25
517.17	1656.81
517.37	1611.75
517.57	1779.68
517.77	1757.16
517.97	1703.91
518.17	1849.32
518.37	1753.06
518.57	1708.01
518.77	1691.62
518.97	1765.35
519.16	1765.35
519.36	1734.63
519.56	1689.57
519.76	1689.57
519.96	1753.06
520.16	1781.73
520.36	1619.94
520.56	1812.45
520.76	1714.15
520.96	1660.90
521.16	1800.16
521.35	1757.16
521.55	1796.07
521.75	1767.40
521.95	1712.10
522.15	1691.62
522.35	1683.43
522.55	1693.67
522.75	1851.36
522.95	1716.20
523.14	1665.00
523.34	1759.21
523.54	1755.11
523.74	1701.86
523.94	1746.92
524.14	1699.81
524.34	1777.64
524.54	1818.60
524.73	1685.48
524.93	1775.59
525.13	1763.30
525.33	1689.57
525.53	1880.04
525.73	1746.92
525.93	1669.09
526.13	1658.85
526.32	1710.05
526.52	1742.82
526.72	1740.77
526.92	1669.09
527.12	1767.40
527.32	1714.15
527.52	1812.45
527.71	1712.10
527.91	1810.40
528.11	1738.73
528.31	1669.09
528.51	1644.52
528.71	1769.44
528.90	1716.20
529.10	1828.84
529.30	1828.84
529.50	1548.26
529.70	1685.48
529.90	1732.58
530.09	1675.24
530.29	1640.42
530.49	1638.38
530.69	1851.36
530.89	1718.25
531.09	1742.82
531.28	1734.63
531.48	1884.13
531.68	1814.50
531.88	1740.77
532.08	1798.12
532.28	1683.43
532.47	1742.82
532.67	1816.55
532.87	1746.92
533.07	1662.95
533.27	1787.88
533.46	1763.30
533.66	1744.87
533.86	1681.38
534.06	1755.11
534.26	1720.29
534.45	1667.05
534.65	1761.25
534.85	1753.06
535.05	1685.48
535.25	1781.73
535.44	1652.71
535.64	1710.05
535.84	1673.19
536.04	1673.19
536.24	1691.62
536.43	1769.44
536.63	1765.35
536.83	1683.43
537.03	1755.11
537.22	1603.56
537.42	1632.23
537.62	1714.15
537.82	1685.48
538.02	1703.91
538.21	1853.41
538.41	1908.71
538.61	1748.97
538.81	1685.48
539.00	1791.97
539.20	1632.23
539.40	1718.25
539.60	1701.86
539.79	1679.33
539.99	1742.82
540.19	1714.15
540.39	1652.71
540.58	1763.30
540.78	1783.78
540.98	1787.88
541.18	1800.16
541.37	1822.69
541.57	1748.97
541.77	1632.23
541.97	1710.05
542.16	1667.05
542.36	1710.05
542.56	1708.01
542.76	1855.46
542.95	1851.36
543.15	1800.16
543.35	1693.67
543.54	1734.63
543.74	1660.90
543.94	1759.21
544.14	1699.81
544.33	1755.11
544.53	1714.15
544.73	1759.21
544.93	1656.81
545.12	1712.10
545.32	1738.73
545.52	1710.05
545.71	1636.33
545.91	1837.03
546.11	1738.73
546.30	1714.15
546.50	1751.01
546.70	1759.21
546.90	1722.34
547.09	1597.42
547.29	1736.68
547.49	1759.21
547.68	1765.35
547.88	1662.95
548.08	1779.68
548.27	2129.89
548.47	1681.38
548.67	1734.63
548.87	1771.49
549.06	1714.15
549.26	1720.29
549.46	1779.68
549.65	1789.92
549.85	1769.44
550.05	1781.73
550.24	1617.90
550.44	1718.25
550.64	1730.53
550.83	1665.00
551.03	1781.73
551.23	1804.26
551.42	1794.02
551.62	1695.72
551.82	1740.77
552.01	1761.25
552.21	1853.41
552.41	1695.72
552.60	1769.44
552.80	1724.39
553.00	1701.86
553.19	1703.91
553.39	1871.84
553.59	1613.80
553.78	1775.59
553.98	1699.81
554.17	1689.57
554.37	1736.68
554.57	1796.07
554.76	1621.99
554.96	1738.73
555.16	1759.21
555.35	1730.53
555.55	1796.07
555.75	1775.59
555.94	1773.54
556.14	1665.00
556.33	1714.15
556.53	1697.77
556.73	1724.39
556.92	1740.77
557.12	1871.84
557.32	1839.08
557.51	1888.23
557.71	1794.02
557.90	1800.16
558.10	1832.93
558.30	1746.92
558.49	1697.77
558.69	1753.06
558.88	1804.26
559.08	1656.81
559.28	1849.32
559.47	1777.64
559.67	1775.59
559.86	1869.80
560.06	1730.53
560.26	1703.91
560.45	1726.44
560.65	1712.10
560.84	1773.54
561.04	1585.13
561.24	1765.35
561.43	1673.19
561.63	1818.60
561.82	1753.06
562.02	1771.49
562.22	1712.10
562.41	1714.15
562.61	1718.25
562.80	1671.14
563.00	1845.22
563.19	1753.06
563.39	1695.72
563.59	1714.15
563.78	1650.66
563.98	1630.18
564.17	1677.29
564.37	1708.01
564.56	1714.15
564.76	1634.28
564.96	1771.49
565.15	1691.62
565.35	1865.70
565.54	1683.43
565.74	1796.07
565.93	1814.50
566.13	1822.69
566.32	1742.82
566.52	1740.77
566.71	1697.77
566.91	1845.22
567.11	1708.01
567.30	1681.38
567.50	1783.78
567.69	1798.12
567.89	1746.92
568.08	1726.44
568.28	1732.58
568.47	1654.76
568.67	1755.11
568.86	1648.61
569.06	1804.26
569.25	1720.29
569.45	1730.53
569.64	1753.06
569.84	1771.49
570.04	1738.73
570.23	1712.10
570.43	1685.48
570.62	1759.21
570.82	1796.07
571.01	1751.01
571.21	1673.19
571.40	1591.27
571.60	1804.26
571.79	1730.53
571.99	1763.30
572.18	1744.87
572.38	1751.01
572.57	1689.57
572.77	1857.51
572.96	1857.51
573.16	1650.66
573.35	1734.63
573.55	1814.50
573.74	1791.97
573.94	1742.82
574.13	1679.33
574.33	1773.54
574.52	1871.84
574.71	1744.87
574.91	1744.87
575.10	1669.09
575.30	1734.63
575.49	1671.14
575.69	1675.24
575.88	1798.12
576.08	1746.92
576.27	1765.35
576.47	1697.77
576.66	1810.40
576.86	1812.45
577.05	1730.53
577.25	1744.87
577.44	1892.32
577.64	1650.66
577.83	1751.01
578.02	1757.16
578.22	1847.27
578.41	1808.36
578.61	1697.77
578.80	1691.62
579.00	1828.84
579.19	1804.26
579.39	1785.83
579.58	1853.41
579.77	1763.30
579.97	1828.84
580.16	1832.93
580.36	1802.21
580.55	1849.32
580.75	1769.44
580.94	1789.92
581.13	1910.75
581.33	1771.49
581.52	1685.48
581.72	1806.31
581.91	1851.36
582.11	1796.07
582.30	1732.58
582.49	1738.73
582.69	1796.07
582.88	1716.20
583.08	1742.82
583.27	1804.26
583.47	1705.96
583.66	1699.81
583.85	1718.25
584.05	1714.15
584.24	1806.31
584.44	1812.45
584.63	1841.12
584.82	1847.27
585.02	1812.45
585.21	1814.50
585.41	1880.04
585.60	1730.53
585.79	1974.24
585.99	1918.95
586.18	1845.22
586.37	2160.61
586.57	3426.25
586.76	10133.35
586.96	24675.98
587.15	35114.47
587.34	40994.19
587.54	42476.92
587.73	37146.06
587.93	26515.05
588.12	22093.49
588.31	18579.17
588.51	16469.76
588.70	15290.13
588.89	14190.38
589.09	12642.11
589.28	11204.44
589.47	9375.60
589.67	8064.90
589.86	6522.78
590.06	5046.20
590.25	3915.72
590.44	3086.29
590.64	2541.53
590.83	2254.81
591.02	2060.26
591.22	1884.13
591.41	1820.64
591.60	1773.54
591.80	1966.05
591.99	1789.92
592.18	1746.92
592.38	1765.35
592.57	1710.05
592.76	1837.03
592.96	1730.53
593.15	1734.63
593.34	1822.69
593.54	1695.72
593.73	1796.07
593.92	1761.25
594.12	1755.11
594.31	1804.26
594.50	1787.88
594.70	1800.16
594.89	1824.74
595.08	1693.67
595.28	1759.21
595.47	1890.28
595.66	1839.08
595.86	1697.77
596.05	1765.35
596.24	1738.73
596.43	1791.97
596.63	1865.70
596.82	1765.35
597.01	1726.44
597.21	1812.45
597.40	1703.91
597.59	1730.53
597.79	1720.29
597.98	1716.20
598.17	1734.63
598.36	1718.25
598.56	1777.64
598.75	1636.33
598.94	1783.78
599.14	1714.15
599.33	1714.15
599.52	1851.36
599.71	1744.87
599.91	1789.92
600.10	1781.73
600.29	1732.58
600.48	1755.11
600.68	1804.26
600.87	1791.97
601.06	1667.05
601.26	1728.49
601.45	1800.16
601.64	1742.82
601.83	1816.55
602.03	1708.01
602.22	1587.18
602.41	1759.21
602.60	1787.88
602.80	1785.83
602.99	1767.40
603.18	1677.29
603.37	1632.23
603.57	1716.20
603.76	1736.68
603.95	1771.49
604.14	1734.63
604.34	1699.81
604.53	1740.77
604.72	1679.33
604.91	1816.55
605.10	1777.64
605.30	1654.76
605.49	1837.03
605.68	1714.15
605.87	1783.78
606.07	1669.09
606.26	1755.11
606.45	1802.21
606.64	1734.63
606.84	1642.47
607.03	1767.40
607.22	1740.77
607.41	1656.81
607.60	1697.77
607.80	1716.20
607.99	1816.55
608.18	1720.29
608.37	1730.53
608.56	1679.33
608.76	1740.77
608.95	1769.44
609.14	1765.35
609.33	1783.78
609.52	1751.01
609.72	1761.25
609.91	1855.46
610.10	1730.53
610.29	1845.22
610.48	1736.68
610.68	1638.38
610.87	1714.15
611.06	1759.21
611.25	1705.96
611.44	1765.35
611.63	1652.71
611.83	1814.50
612.02	1667.05
612.21	1888.23
612.40	1644.52
612.59	1726.44
612.79	1710.05
612.98	1746.92
613.17	1777.64
613.36	1736.68
613.55	1783.78
613.74	1675.24
613.93	1695.72
614.13	1642.47
614.32	1761.25
614.51	1730.53
614.70	1624.04
614.89	1675.24
615.08	1798.12
615.28	2017.25
615.47	1648.61
615.66	1742.82
615.85	1665.00
616.04	1765.35
616.23	1740.77
616.42	1658.85
616.62	1683.43
616.81	1734.63
617.00	1716.20
617.19	1798.12
617.38	1751.01
617.57	1687.53
617.76	1691.62
617.95	1757.16
618.15	1791.97
618.34	1832.93
618.53	1660.90
618.72	1822.69
618.91	1771.49
619.10	1855.46
619.29	1744.87
619.48	1759.21
619.68	1685.48
619.87	1714.15
620.06	1681.38
620.25	1724.39
620.44	1695.72
620.63	1685.48
620.82	1746.92
621.01	1714.15
621.20	1744.87
621.39	1710.05
621.59	1783.78
621.78	1726.44
621.97	1697.77
622.16	1751.01
622.35	1734.63
622.54	1742.82
622.73	1843.17
622.92	1615.85
623.11	1726.44
623.30	1724.39
623.49	1800.16
623.68	1667.05
623.88	1789.92
624.07	1650.66
624.26	1646.57
624.45	1746.92
624.64	1708.01
624.83	1667.05
625.02	1843.17
625.21	1767.40
625.40	1697.77
625.59	1789.92
625.78	1710.05
625.97	1732.58
626.16	1759.21
626.35	1724.39
626.54	1660.90
626.74	1757.16
626.93	1685.48
627.12	1685.48
627.31	1726.44
627.50	1712.10
627.69	1720.29
627.88	1615.85
628.07	1714.15
628.26	1679.33
628.45	1677.29
628.64	1722.34
628.83	1781.73
629.02	1681.38
629.21	1748.97
629.40	1699.81
629.59	1677.29
629.78	1753.06
629.97	1718.25
630.16	1730.53
630.35	1716.20
630.54	1753.06
630.73	1736.68
630.92	1714.15
631.11	1677.29
631.30	1742.82
631.49	1769.44
631.68	1732.58
631.87	1763.30
632.06	1632.23
632.25	1910.75
632.44	1783.78
632.63	1699.81
632.82	1624.04
633.01	1681.38
633.20	1716.20
633.39	1740.77
633.58	1538.02
633.77	1730.53
633.96	1759.21
634.15	1761.25
634.34	1771.49
634.53	1734.63
634.72	1759.21
634.91	1650.66
635.10	1675.24
635.29	1740.77
635.48	1761.25
635.67	1740.77
635.86	1675.24
636.05	1808.36
636.24	1722.34
636.43	1708.01
636.62	1732.58
636.81	1597.42
637.00	1699.81
637.19	1765.35
637.38	1755.11
637.57	1621.99
637.76	1740.77
637.95	1767.40
638.14	1615.85
638.33	1695.72
638.52	1722.34
638.71	1662.95
638.89	1736.68
639.08	1916.90
639.27	1755.11
639.46	1699.81
639.65	1875.94
639.84	1769.44
640.03	1722.34
640.22	1751.01
640.41	1804.26
640.60	1656.81
640.79	1734.63
640.98	1705.96
641.17	1665.00
641.36	1726.44
641.55	1726.44
641.74	1644.52
641.92	1605.61
642.11	1665.00
642.30	1771.49
642.49	1671.14
642.68	1648.61
642.87	1734.63
643.06	1806.31
643.25	1712.10
643.44	1679.33
643.63	1693.67
643.82	1746.92
644.00	1714.15
644.19	1730.53
644.38	1679.33
644.57	1746.92
644.76	1777.64
644.95	1662.95
645.14	1769.44
645.33	1671.14
645.52	1669.09
645.71	1703.91
645.89	1693.67
646.08	1726.44
646.27	1746.92
646.46	1806.31
646.65	1667.05
646.84	1724.39
647.03	1734.63
647.22	1789.92
647.40	1646.57
647.59	1693.67
647.78	1671.14
647.97	1611.75
648.16	1662.95
648.35	1839.08
648.54	1755.11
648.73	1689.57
648.91	1802.21
649.10	1708.01
649.29	1593.32
649.48	1650.66
649.67	1660.90
649.86	1648.61
650.05	1699.81
650.23	1669.09
650.42	1722.34
650.61	1738.73
650.80	1724.39
650.99	1847.27
651.18	1773.54
651.36	1763.30
651.55	1748.97
651.74	1767.40
651.93	1742.82
652.12	1687.53
652.31	1677.29
652.49	1662.95
652.68	1724.39
652.87	1822.69
653.06	1724.39
653.25	1759.21
653.44	1732.58
653.62	1796.07
653.81	1720.29
654.00	1724.39
654.19	1742.82
654.38	1798.12
654.56	1722.34
654.75	1708.01
654.94	1796.07
655.13	1705.96
655.32	1677.29
655.51	1742.82
655.69	1660.90
655.88	1775.59
656.07	1630.18
656.26	1718.25
656.45	1650.66
656.63	1708.01
656.82	1685.48
657.01	1681.38
657.20	1685.48
657.38	1845.22
657.57	1634.28
657.76	1693.67
657.95	1812.45
658.14	1708.01
658.32	1730.53
658.51	1673.19
658.70	1746.92
658.89	1738.73
659.08	1748.97
659.26	1789.92
659.45	1630.18
659.64	1765.35
659.83	1718.25
660.01	1914.85
660.20	1763.30
660.39	1796.07
660.58	1599.46
660.76	1677.29
660.95	1699.81
661.14	1722.34
661.33	1683.43
661.51	1695.72
661.70	1689.57
661.89	1746.92
662.08	1665.00
662.26	1681.38
662.45	1679.33
662.64	1791.97
662.83	1800.16
663.01	1615.85
663.20	1685.48
663.39	1853.41
663.58	1681.38
663.76	1724.39
663.95	1796.07
664.14	1677.29
664.32	1632.23
664.51	1685.48
664.70	1644.52
664.89	1767.40
665.07	1574.89
665.26	1779.68
665.45	1660.90
665.64	1824.74
665.82	1777.64
666.01	1726.44
666.20	1669.09
666.38	1855.46
666.57	1787.88
666.76	2244.57
666.95	4595.64
667.13	10665.82
667.32	15216.41
667.51	18048.75
667.69	19101.40
667.88	17835.76
668.07	12310.34
668.25	9592.69
668.44	8064.90
668.63	7419.79
668.81	6877.08
669.00	6252.45
669.19	5709.74
669.38	5119.92
669.56	4700.09
669.75	3985.35
669.94	3366.86
670.12	2875.35
670.31	2592.73
670.50	2258.91
670.68	2109.41
670.87	1945.57
671.06	1732.58
671.24	1761.25
671.43	1785.83
671.62	1810.40
671.80	1701.86
671.99	1748.97
672.18	1757.16
672.36	1687.53
672.55	1710.05
672.74	1734.63
672.92	1667.05
673.11	1751.01
673.29	1632.23
673.48	1720.29
673.67	1669.09
673.85	1742.82
674.04	1740.77
674.23	1763.30
674.41	1751.01
674.60	1587.18
674.79	1681.38
674.97	1705.96
675.16	1779.68
675.34	1705.96
675.53	1667.05
675.72	1722.34
675.90	1800.16
676.09	1689.57
676.28	1779.68
676.46	1593.32
676.65	1714.15
676.83	1636.33
677.02	1656.81
677.21	1708.01
677.39	1679.33
677.58	1656.81
677.77	1751.01
677.95	1609.70
678.14	1722.34
678.32	1710.05
678.51	1716.20
678.70	1775.59
678.88	1658.85
679.07	1734.63
679.25	1710.05
679.44	1624.04
679.63	1617.90
679.81	1681.38
680.00	1826.79
680.18	1716.20
680.37	1763.30
680.55	1763.30
680.74	1554.41
680.93	1589.22
681.11	1722.34
681.30	1634.28
681.48	1779.68
681.67	1650.66
681.85	1730.53
682.04	1697.77
682.23	1746.92
682.41	1757.16
682.60	1667.05
682.78	1667.05
682.97	1695.72
683.15	1761.25
683.34	1689.57
683.53	1726.44
683.71	1687.53
683.90	1845.22
684.08	1796.07
684.27	1732.58
684.45	1697.77
684.64	1814.50
684.82	1693.67
685.01	1734.63
685.19	1662.95
685.38	1771.49
685.57	1710.05
685.75	1681.38
685.94	1679.33
686.12	1689.57
686.31	1746.92
686.49	1763.30
686.68	1564.65
686.86	1818.60
687.05	1695.72
687.23	1812.45
687.42	1652.71
687.60	1705.96
687.79	1736.68
687.97	1806.31
688.16	1728.49
688.34	1816.55
688.53	1650.66
688.71	1658.85
688.90	1744.87
689.08	1697.77
689.27	1576.94
689.45	1740.77
689.64	1755.11
689.82	1742.82
690.01	1761.25
690.19	1738.73
690.38	1714.15
690.56	1757.16
690.75	1665.00
690.93	1703.91
691.12	1646.57
691.30	1740.77
691.49	1646.57
691.67	1621.99
691.86	1761.25
692.04	1597.42
692.23	1646.57
692.41	1550.31
692.60	1802.21
692.78	1671.14
692.97	1662.95
693.15	1728.49
693.34	1783.78
693.52	1751.01
693.71	1705.96
693.89	1691.62
694.08	1658.85
694.26	1683.43
694.44	1751.01
694.63	1699.81
694.81	1601.51
695.00	1679.33
695.18	1767.40
695.37	1810.40
695.55	1742.82
695.74	1734.63
695.92	1656.81
696.10	1697.77
696.29	1648.61
696.47	1652.71
696.66	1660.90
696.84	1665.00
697.03	1710.05
697.21	1896.42
697.40	2316.25
697.58	1759.21
697.76	1636.33
697.95	1695.72
698.13	1722.34
698.32	1714.15
698.50	1695.72
698.68	1703.91
698.87	1679.33
699.05	1779.68
699.24	1665.00
699.42	1648.61
699.61	1783.78
699.79	1687.53
699.97	1648.61
700.16	1679.33
700.34	1667.05
700.53	1710.05
700.71	1787.88
700.89	1773.54
701.08	1662.95
701.26	1650.66
701.45	2064.35
701.63	1724.39
701.81	1617.90
702.00	1640.42
702.18	1695.72
702.37	1638.38
702.55	1720.29
702.73	1673.19
702.92	1619.94
703.10	1794.02
703.28	1744.87
703.47	1683.43
703.65	1759.21
703.84	1759.21
704.02	1650.66
704.20	1695.72
704.39	1683.43
704.57	1671.14
704.75	1710.05
704.94	1722.34
705.12	1716.20
705.30	1720.29
705.49	2168.80
705.67	4560.83
705.86	9475.95
706.04	12832.57
706.22	14636.83
706.41	15830.80
706.59	14059.31
706.77	9637.74
706.96	7311.25
707.14	6739.87
707.32	5990.31
707.51	5590.95
707.69	4839.35
707.87	4128.70
708.06	3614.66
708.24	2944.98
708.42	2467.80
708.61	2312.16
708.79	1820.64
708.97	1845.22
709.16	1796.07
709.34	1785.83
709.52	1800.16
709.71	1693.67
709.89	1759.21
710.07	1632.23
710.26	1640.42
710.44	1697.77
710.62	1740.77
710.80	1691.62
710.99	1683.43
711.17	1748.97
711.35	1656.81
711.54	1681.38
711.72	1736.68
711.90	1757.16
712.09	1734.63
712.27	1640.42
712.45	1730.53
712.63	1667.05
712.82	1687.53
713.00	1691.62
713.18	1703.91
713.37	1822.69
713.55	1804.26
713.73	1691.62
713.91	1720.29
714.10	1675.24
714.28	1708.01
714.46	1667.05
714.65	1716.20
714.83	1726.44
715.01	1718.25
715.19	1785.83
715.38	1630.18
715.56	1689.57
715.74	1630.18
715.92	1665.00
716.11	1777.64
716.29	1570.79
716.47	1685.48
716.65	1767.40
716.84	1566.70
717.02	1714.15
717.20	1654.76
717.38	1636.33
717.57	1789.92
717.75	1646.57
717.93	1738.73
718.11	1708.01
718.30	1626.09
718.48	1742.82
718.66	1761.25
718.84	1732.58
719.03	1613.80
719.21	1638.38
719.39	1791.97
719.57	1652.71
719.75	1820.64
719.94	1607.66
720.12	1644.52
720.30	1699.81
720.48	1775.59
720.67	1679.33
720.85	1644.52
721.03	1777.64
721.21	1662.95
721.39	1822.69
721.58	1796.07
721.76	1652.71
721.94	1779.68
722.12	1755.11
722.30	1777.64
722.49	1736.68
722.67	1675.24
722.85	1597.42
723.03	1679.33
723.21	1660.90
723.40	1716.20
723.58	1779.68
723.76	1665.00
723.94	1710.05
724.12	1732.58
724.30	1779.68
724.49	1751.01
724.67	1667.05
724.85	1787.88
725.03	1652.71
725.21	1724.39
725.40	1781.73
725.58	1701.86
725.76	1765.35
725.94	1744.87
726.12	1683.43
726.30	1648.61
726.49	1734.63
726.67	1603.56
726.85	1732.58
727.03	1740.77
727.21	2207.71
727.39	3024.85
727.57	3876.80
727.76	4245.44
727.94	4347.84
728.12	4321.21
728.30	3602.38
728.48	3000.27
728.66	2701.27
728.84	2527.19
729.03	2326.49
729.21	1990.63
729.39	1927.14
729.57	1830.88
729.75	1798.12
729.93	1837.03
730.11	1699.81
730.30	1665.00
730.48	1677.29
730.66	1855.46
730.84	1605.61
731.02	1677.29
731.20	1634.28
731.38	1685.48
731.56	1609.70
731.74	1603.56
731.93	1689.57
732.11	1650.66
732.29	1708.01
732.47	1804.26
732.65	1744.87
732.83	1755.11
733.01	1753.06
733.19	1673.19
733.37	1751.01
733.56	1714.15
733.74	1652.71
733.92	1738.73
734.10	1669.09
734.28	1683.43
734.46	1603.56
734.64	1767.40
734.82	1701.86
735.00	1628.14
735.18	1611.75
735.36	1689.57
735.54	1771.49
735.73	1726.44
735.91	1742.82
736.09	1787.88
736.27	1703.91
736.45	1714.15
736.63	1640.42
736.81	1665.00
736.99	1656.81
737.17	1714.15
737.35	1638.38
737.53	1740.77
737.71	1679.33
737.89	1814.50
738.07	1714.15
738.25	1695.72
738.43	1628.14
738.61	1648.61
738.80	1593.32
738.98	1718.25
739.16	1646.57
739.34	1652.71
739.52	1832.93
739.70	1667.05
739.88	1796.07
740.06	1767.40
740.24	1638.38
740.42	1810.40
740.60	1570.79
740.78	1636.33
740.96	1544.17
741.14	1689.57
741.32	1671.14
741.50	1603.56
741.68	1849.32
741.86	1816.55
742.04	1722.34
742.22	1628.14
742.40	1726.44
742.58	1771.49
742.76	1599.46
742.94	1681.38
743.12	1615.85
743.30	1621.99
743.48	1753.06
743.66	1578.98
743.84	1738.73
744.02	1705.96
744.20	1628.14
744.38	1675.24
744.56	1648.61
744.74	1849.32
744.92	1720.29
745.10	1769.44
745.28	1708.01
745.46	1794.02
745.64	1705.96
745.82	1755.11
746.00	1613.80
746.18	1738.73
746.36	1650.66
746.54	1662.95
746.72	1681.38
746.90	1554.41
747.08	1730.53
747.26	1689.57
747.44	1689.57
747.62	1769.44
747.80	1746.92
747.98	1726.44
748.15	1634.28
748.33	1820.64
748.51	1673.19
748.69	1667.05
748.87	1581.03
749.05	1738.73
749.23	1636.33
749.41	1763.30
749.59	1726.44
749.77	1699.81
749.95	1628.14
750.13	1658.85
750.31	1710.05
750.49	1669.09
750.67	1746.92
750.85	1773.54
751.03	1736.68
751.20	1796.07
751.38	1734.63
751.56	1716.20
751.74	1660.90
751.92	1642.47
752.10	1626.09
752.28	1697.77
752.46	1671.14
752.64	1619.94
752.82	1755.11
753.00	1779.68
753.18	1566.70
753.35	1673.19
753.53	1607.66
753.71	1601.51
753.89	1748.97
754.07	1705.96
754.25	1789.92
754.43	1761.25
754.61	1740.77
754.79	1669.09
754.97	1722.34
755.14	1818.60
755.32	1642.47
755.50	1662.95
755.68	1730.53
755.86	1689.57
756.04	1673.19
756.22	1521.64
756.40	1763.30
756.57	1695.72
756.75	1669.09
756.93	1687.53
757.11	1718.25
757.29	1617.90
757.47	1636.33
757.65	1587.18
757.82	1621.99
758.00	1689.57
758.18	1673.19
758.36	1689.57
758.54	1669.09
758.72	1609.70
758.90	1708.01
759.07	1724.39
759.25	1689.57
759.43	1691.62
759.61	1634.28
759.79	2250.72
759.97	1734.63
760.15	1634.28
760.32	1699.81
760.50	1681.38
760.68	1755.11
760.86	1617.90
761.04	1781.73
761.22	1693.67
761.39	1746.92
761.57	1695.72
761.75	1738.73
761.93	1755.11
762.11	1591.27
762.28	1736.68
762.46	1593.32
762.64	1730.53
762.82	1595.37
763.00	1695.72
763.18	1779.68
763.35	1650.66
763.53	1697.77
763.71	1683.43
763.89	1695.72
764.07	1646.57
764.24	1708.01
764.42	1742.82
764.60	1712.10
764.78	1675.24
764.96	1839.08
765.13	1781.73
765.31	1673.19
765.49	1826.79
765.67	1597.42
765.84	1640.42
766.02	1740.77
766.20	1566.70
766.38	1718.25
766.56	1804.26
766.73	1726.44
766.91	1636.33
767.09	1687.53
767.27	1687.53
767.44	1617.90
767.62	1697.77
767.80	1701.86
767.98	1621.99
768.15	1697.77
768.33	1710.05
768.51	1763.30
768.69	1767.40
768.87	1714.15
769.04	1724.39
769.22	1847.27
769.40	1796.07
769.58	1740.77
769.75	1779.68
769.93	1740.77
770.11	1662.95
770.28	1640.42
770.46	1748.97
770.64	1720.29
770.82	1695.72
770.99	1685.48
771.17	1726.44
771.35	1687.53
771.53	1652.71
771.70	1640.42
771.88	1693.67
772.06	1712.10
772.23	1726.44
772.41	1685.48
772.59	1628.14
772.77	1613.80
772.94	1718.25
773.12	1767.40
773.30	1636.33
773.47	1765.35
773.65	1652.71
773.83	1837.03
774.01	1636.33
774.18	1658.85
774.36	1699.81
774.54	1628.14
774.71	1703.91
774.89	1644.52
775.07	1640.42
775.24	1771.49
775.42	1654.76
775.60	1773.54
775.78	1636.33
775.95	1697.77
776.13	1593.32
776.31	1546.22
776.48	1638.38
776.66	1755.11
776.84	1630.18
777.01	1628.14
777.19	1591.27
777.37	1675.24
777.54	1726.44
777.72	1839.08
777.90	1646.57
778.07	1621.99
778.25	1871.84
778.43	1746.92
778.60	1628.14
778.78	1697.77
778.96	1843.17
779.13	1673.19
779.31	1714.15
779.49	1681.38
779.66	1624.04
779.84	1626.09
780.01	1636.33
780.19	1665.00
780.37	1814.50
780.54	1748.97
780.72	1687.53
780.90	1691.62
781.07	1671.14
781.25	1652.71
781.43	1708.01
781.60	1640.42
781.78	1828.84
781.95	1677.29
782.13	1585.13
782.31	1708.01
782.48	1574.89
782.66	1736.68
782.83	1812.45
783.01	1748.97
783.19	1703.91
783.36	1718.25
783.54	1630.18
783.72	1828.84
783.89	1669.09
784.07	1718.25
784.24	1753.06
784.42	1804.26
784.60	1697.77
784.77	1765.35
784.95	1595.37
785.12	1624.04
785.30	1720.29
785.47	1683.43
785.65	1593.32
785.83	1615.85
786.00	1693.67
786.18	1746.92
786.35	1671.14
786.53	1660.90
786.71	1722.34
786.88	1755.11
787.06	1689.57
787.23	1712.10
787.41	1632.23
787.58	1667.05
787.76	1607.66
787.94	1718.25
788.11	1687.53
788.29	1640.42
788.46	1669.09
788.64	1691.62
788.81	1595.37
788.99	1660.90
789.16	1535.98
789.34	1642.47
789.52	1697.77
789.69	1665.00
789.87	1619.94
790.04	1638.38
790.22	1710.05
790.39	1771.49
790.57	1589.22
790.74	1722.34
790.92	1736.68
791.09	1654.76
791.27	1689.57
791.44	1828.84
791.62	1699.81
791.79	1705.96
791.97	1650.66
792.15	1884.13
792.32	1753.06
792.50	1730.53
792.67	1761.25
792.85	1802.21
793.02	1695.72
793.20	1656.81
793.37	1667.05
793.55	1685.48
793.72	1662.95
793.90	1634.28
794.07	1673.19
794.25	1624.04
794.42	1662.95
794.60	1656.81
794.77	1738.73
794.95	1757.16
795.12	1853.41
795.30	1667.05
795.47	1554.41
795.65	1914.85
795.82	1708.01
796.00	1687.53
796.17	1673.19
796.34	1671.14
796.52	1755.11
796.69	1734.63
796.87	1763.30
797.04	1775.59
797.22	1742.82
797.39	1705.96
797.57	1689.57
797.74	1679.33
797.92	1726.44
798.09	1691.62
798.27	1720.29
798.44	1720.29
798.62	1652.71
798.79	1665.00
798.96	1738.73
799.14	1693.67
799.31	1830.88
799.49	1767.40
799.66	1679.33
799.84	1683.43
800.01	1599.46
800.19	1746.92
800.36	1650.66
800.53	1726.44
800.71	1748.97
800.88	1779.68
801.06	1677.29
801.23	1640.42
801.41	1609.70
801.58	1705.96
801.75	1626.09
801.93	1738.73
802.10	1669.09
802.28	1710.05
802.45	1654.76
802.63	1775.59
802.80	1689.57
802.97	1724.39
803.15	1615.85
803.32	1595.37
803.50	1589.22
803.67	1636.33
803.84	1665.00
804.02	1634.28
804.19	1730.53
804.37	1552.36
804.54	1589.22
804.71	1613.80
804.89	1720.29
805.06	1697.77
805.24	1656.81
805.41	1605.61
805.58	1593.32
805.76	1839.08
805.93	1669.09
806.10	1769.44
806.28	1755.11
806.45	1665.00
806.63	1712.10
806.80	1705.96
806.97	1751.01
807.15	1691.62
807.32	1669.09
807.49	1740.77
807.67	1714.15
807.84	1681.38
808.01	1673.19
808.19	1826.79
808.36	1716.20
808.54	1636.33
808.71	1675.24
808.88	1669.09
809.06	1763.30
809.23	1748.97
809.40	1658.85
809.58	1740.77
809.75	1675.24
809.92	1673.19
810.10	1847.27
810.27	1722.34
810.44	1673.19
810.62	1728.49
810.79	1798.12
810.96	1683.43
811.14	1576.94
811.31	1656.81
811.48	1697.77
811.66	1710.05
811.83	1751.01
812.00	1722.34
812.18	1746.92
812.35	1798.12
812.52	1628.14
812.69	1691.62
812.87	1589.22
813.04	1578.98
813.21	1601.51
813.39	1665.00
813.56	1619.94
813.73	1722.34
813.91	1628.14
814.08	1687.53
814.25	1724.39
814.42	1617.90
814.60	1681.38
814.77	1681.38
814.94	1583.08
815.12	1693.67
815.29	1800.16
815.46	1636.33
815.63	1734.63
815.81	1691.62
815.98	1658.85
816.15	1677.29
816.33	1708.01
816.50	1658.85
816.67	1701.86
816.84	1585.13
817.02	1558.50
817.19	1632.23
817.36	1687.53
817.53	1718.25
817.71	1593.32
817.88	1783.78
818.05	1681.38
818.22	1650.66
818.40	1738.73
818.57	1658.85
818.74	1705.96
818.91	1693.67
819.09	1724.39
819.26	1722.34
819.43	1720.29
819.60	1615.85
819.78	1767.40
819.95	1779.68
820.12	1665.00
820.29	1806.31
820.47	1693.67
820.64	1689.57
820.81	1632.23
820.98	1683.43
821.15	1619.94
821.33	1771.49
821.50	1634.28
821.67	1712.10
821.84	1654.76
822.02	1720.29
822.19	1705.96
822.36	1751.01
822.53	1712.10
822.70	1634.28
822.88	1632.23
823.05	1746.92
823.22	1619.94
823.39	1681.38
823.56	1628.14
823.74	1746.92
823.91	1619.94
824.08	1626.09
824.25	1683.43
824.42	1800.16
824.60	1701.86
824.77	1642.47
824.94	1662.95
825.11	1738.73
825.28	1640.42
825.45	1744.87
825.63	1671.14
825.80	1681.38
825.97	1714.15
826.14	1710.05
826.31	1650.66
826.48	1757.16
826.66	1730.53
826.83	1734.63
827.00	1662.95
827.17	1587.18
827.34	1703.91
827.51	1611.75
827.69	1732.58
827.86	1626.09
828.03	1689.57
828.20	1718.25
828.37	1710.05
828.54	1738.73
828.71	1687.53
828.89	1728.49
829.06	1740.77
829.23	1724.39
829.40	1648.61
829.57	1632.23
829.74	1734.63
829.91	1722.34
830.09	1621.99
830.26	1736.68
830.43	1800.16
830.60	1714.15
830.77	1775.59
830.94	1730.53
831.11	1738.73
831.28	1648.61
831.46	1726.44
831.63	1646.57
831.80	1753.06
831.97	1675.24
832.14	1605.61
832.31	1738.73
832.48	1660.90
832.65	1730.53
832.82	1697.77
832.99	1730.53
833.17	1667.05
833.34	1722.34
833.51	1687.53
833.68	1605.61
833.85	1718.25
834.02	1691.62
834.19	1583.08
834.36	1648.61
834.53	1632.23
834.70	1730.53
834.87	1751.01
835.04	1648.61
835.22	1683.43
835.39	1748.97
835.56	1701.86
835.73	1718.25
835.90	1742.82
836.07	1656.81
836.24	1767.40
836.41	1626.09
836.58	1701.86
836.75	1746.92
836.92	1744.87
837.09	1693.67
837.26	1744.87
837.43	1757.16
837.60	1695.72
837.77	1669.09
837.94	1730.53
838.12	1748.97
838.29	1695.72
838.46	1654.76
838.63	1677.29
838.80	1789.92
838.97	1730.53
839.14	1677.29
839.31	1665.00
839.48	1640.42
839.65	1673.19
839.82	1619.94
839.99	1693.67
840.16	1644.52
840.33	1634.28
840.50	1740.77
840.67	1650.66
840.84	1595.37
841.01	1718.25
841.18	1599.46
841.35	1695.72
841.52	1712.10
841.69	1763.30
841.86	1759.21
842.03	1673.19
842.20	1744.87
842.37	1677.29
842.54	1626.09
842.71	1697.77
842.88	1687.53
843.05	1779.68
843.22	1720.29
843.39	1781.73
843.56	1611.75
843.73	1683.43
843.90	1685.48
844.07	1712.10
844.24	1675.24
844.41	1740.77
844.58	1697.77
844.75	1701.86
844.92	1675.24
845.09	1705.96
845.26	1671.14
845.43	1714.15
845.60	1681.38
845.77	1742.82
845.94	1636.33
846.10	1736.68
846.27	1585.13
846.44	1611.75
846.61	1679.33
846.78	1730.53
846.95	1755.11
847.12	1648.61
847.29	1619.94
847.46	1615.85
847.63	1693.67
847.80	1734.63
847.97	1761.25
848.14	1763.30
848.31	1722.34
848.48	1656.81
848.65	1699.81
848.82	1712.10
848.98	1796.07
849.15	1734.63
849.32	1738.73
849.49	1753.06
849.66	1726.44
849.83	1687.53
850.00	1683.43
850.17	1644.52
850.34	1701.86
850.51	1648.61
850.68	1632.23
850.85	1794.02
851.01	1705.96
851.18	1617.90
851.35	1658.85
851.52	1630.18
851.69	1845.22
851.86	1617.90
852.03	1642.47
852.20	1751.01
852.37	1683.43
852.53	1591.27
852.70	1675.24
852.87	1638.38
853.04	1662.95
853.21	1714.15
853.38	1730.53
853.55	1708.01
853.72	1691.62
853.89	1681.38
854.05	1681.38
854.22	1681.38
854.39	1703.91
854.56	1740.77
854.73	1697.77
854.90	1667.05
855.07	1626.09
855.23	1689.57
855.40	1685.48
855.57	1652.71
855.74	1576.94
855.91	1828.84
856.08	1626.09
856.25	1634.28
856.41	1673.19
856.58	1693.67
856.75	1736.68
856.92	1662.95
857.09	1695.72
857.26	1593.32
857.42	1615.85
857.59	1751.01
857.76	1615.85
857.93	1652.71
858.10	1636.33
858.27	1642.47
858.43	1677.29
858.60	1658.85
858.77	1556.46
858.94	1628.14
859.11	1685.48
859.27	1665.00
859.44	1689.57
859.61	1728.49
859.78	1761.25
859.95	1705.96
860.12	1665.00
860.28	1804.26
860.45	1791.97
860.62	1720.29
860.79	1689.57
860.95	1640.42
861.12	1656.81
861.29	1671.14
861.46	1581.03
861.63	1665.00
861.79	1757.16
861.96	1642.47
862.13	1652.71
862.30	1767.40
862.47	1683.43
862.63	1667.05
862.80	1744.87
862.97	1767.40
863.14	1673.19
863.30	1736.68
863.47	1640.42
863.64	1783.78
863.81	1699.81
863.97	1658.85
864.14	1732.58
864.31	1675.24
864.48	1683.43
864.65	1732.58
864.81	1726.44
864.98	1683.43
865.15	1689.57
865.32	1654.76
865.48	1734.63
865.65	1714.15
865.82	1603.56
865.98	1742.82
866.15	1802.21
866.32	1650.66
866.49	1570.79
866.65	1722.34
866.82	1730.53
866.99	1738.73
867.16	1589.22
867.32	1540.07
867.49	1644.52
867.66	1742.82
867.83	1685.48
867.99	1585.13
868.16	1554.41
868.33	1595.37
868.49	1742.82
868.66	1675.24
868.83	1714.15
868.99	1648.61
869.16	1681.38
869.33	1730.53
869.50	1718.25
869.66	1642.47
869.83	1703.91
870.00	1671.14
870.16	1701.86
870.33	1642.47
870.50	1759.21
870.66	1624.04
870.83	1753.06
871.00	1626.09
871.17	1742.82
871.33	1628.14
871.50	1621.99
871.67	1628.14
871.83	1724.39
872.00	1843.17
872.17	1673.19
872.33	1841.12
872.50	1718.25
872.67	1658.85
872.83	1599.46
873.00	1656.81
873.17	1681.38
873.33	1697.77
873.50	1693.67
873.67	1644.52
873.83	1667.05
874.00	1642.47
874.16	1724.39
874.33	1751.01
874.50	1621.99
874.66	1738.73
874.83	1687.53
875.00	1726.44
875.16	1763.30
875.33	1697.77
875.50	1585.13
875.66	1624.04
875.83	1677.29
875.99	1714.15
876.16	1701.86
876.33	1724.39
876.49	1652.71
876.66	1720.29
876.83	1689.57
876.99	1632.23
877.16	1722.34
877.32	1705.96
877.49	1685.48
877.66	1734.63
877.82	1771.49
877.99	1697.77
878.15	1742.82
878.32	1708.01
878.49	1640.42
878.65	1611.75
878.82	1699.81
878.98	1708.01
879.15	1705.96
879.32	1691.62
879.48	1695.72
879.65	1658.85
879.81	1634.28
879.98	1667.05
880.15	1642.47
880.31	1693.67
880.48	1617.90
880.64	1746.92
880.81	1681.38
880.97	1783.78
881.14	1734.63
881.31	1562.60
881.47	1767.40
881.64	1718.25
881.80	1667.05
881.97	1671.14
882.13	1677.29
882.30	1624.04
882.47	1683.43
882.63	1595.37
882.80	1681.38
882.96	1650.66
883.13	1796.07
883.29	1640.42
883.46	1673.19
883.62	1775.59
883.79	1710.05
883.95	1642.47
884.12	1630.18
884.29	1769.44
884.45	1691.62
884.62	1734.63
884.78	1718.25
884.95	1849.32
885.11	1640.42
885.28	1740.77
885.44	1714.15
885.61	1697.77
885.77	1769.44
885.94	1724.39
886.10	1646.57
886.27	1673.19
886.43	1812.45
886.60	1650.66
886.76	1642.47
886.93	1570.79
887.09	1679.33
887.26	1570.79
887.42	1630.18
887.59	1722.34
887.75	1837.03
887.92	1650.66
888.08	1718.25
888.25	1742.82
888.41	1738.73
888.58	1654.76
888.74	1665.00
888.91	1660.90
>>>>>End Processed Spectral Data<<<<<
