SpectraSuite Data File
++++++++++++++++++++++++++++++++++++
Date: Mon Jun 06 12:39:17 CEST 2016
User: root
Dark Spectrum Present: No
Reference Spectrum Present: No
Number of Sampled Component Spectra: 1
Spectrometers: USB4C02835
Integration Time (usec): 100000 (USB4C02835)
Spectra Averaged: 1 (USB4C02835)
Boxcar Smoothing: 0 (USB4C02835)
Correct for Electrical Dark: No (USB4C02835)
Strobe/Lamp Enabled: No (USB4C02835)
Correct for Detector Non-linearity: No (USB4C02835)
Correct for Stray Light: No (USB4C02835)
Number of Pixels in Processed Spectrum: 3648
>>>>>Begin Processed Spectral Data<<<<<
177.47	1435.63
177.69	1435.63
177.91	1435.63
178.13	1507.30
178.36	1429.48
178.58	1693.67
178.80	1703.91
179.02	1673.19
179.24	1662.95
179.46	1656.81
179.68	1757.16
179.90	1718.25
180.13	1726.44
180.35	1617.90
180.57	1716.20
180.79	1775.59
181.01	1763.30
181.23	1759.21
181.45	1736.68
181.67	1656.81
181.90	1736.68
182.12	1626.09
182.34	1603.56
182.56	1660.90
182.78	1726.44
183.00	1705.96
183.22	1654.76
183.44	1566.70
183.66	1798.12
183.89	1773.54
184.11	1667.05
184.33	1714.15
184.55	1783.78
184.77	1671.14
184.99	1703.91
185.21	1662.95
185.43	1781.73
185.65	1673.19
185.87	1761.25
186.10	1832.93
186.32	1787.88
186.54	1681.38
186.76	1765.35
186.98	1693.67
187.20	1697.77
187.42	1619.94
187.64	1701.86
187.86	1755.11
188.08	1689.57
188.30	1665.00
188.52	1716.20
188.75	1789.92
188.97	1779.68
189.19	1621.99
189.41	1789.92
189.63	1781.73
189.85	1585.13
190.07	1632.23
190.29	1652.71
190.51	1705.96
190.73	1634.28
190.95	1769.44
191.17	1667.05
191.39	1654.76
191.61	1681.38
191.84	1687.53
192.06	1705.96
192.28	1603.56
192.50	1871.84
192.72	1703.91
192.94	1677.29
193.16	1708.01
193.38	1755.11
193.60	1628.14
193.82	1621.99
194.04	1763.30
194.26	1714.15
194.48	1728.49
194.70	1642.47
194.92	1638.38
195.14	1708.01
195.36	1673.19
195.58	1685.48
195.80	1673.19
196.02	1720.29
196.24	1744.87
196.46	1783.78
196.69	1683.43
196.91	1796.07
197.13	1703.91
197.35	1603.56
197.57	1808.36
197.79	1722.34
198.01	1673.19
198.23	1763.30
198.45	1722.34
198.67	1689.57
198.89	1675.24
199.11	1697.77
199.33	1677.29
199.55	1611.75
199.77	1681.38
199.99	1718.25
200.21	1730.53
200.43	1722.34
200.65	1646.57
200.87	1581.03
201.09	1660.90
201.31	1644.52
201.53	1761.25
201.75	1718.25
201.97	1669.09
202.19	1724.39
202.41	1708.01
202.63	1867.75
202.85	1673.19
203.07	1746.92
203.29	1699.81
203.51	1730.53
203.73	1710.05
203.95	1830.88
204.17	1697.77
204.39	1718.25
204.61	1673.19
204.83	1634.28
205.05	1742.82
205.27	1757.16
205.49	1769.44
205.71	1691.62
205.93	1673.19
206.15	1685.48
206.37	1665.00
206.59	1724.39
206.81	1691.62
207.03	1591.27
207.25	1654.76
207.47	1779.68
207.69	1665.00
207.91	1814.50
208.13	1763.30
208.34	1703.91
208.56	1671.14
208.78	1679.33
209.00	1630.18
209.22	1658.85
209.44	1685.48
209.66	1685.48
209.88	1710.05
210.10	1662.95
210.32	1640.42
210.54	1798.12
210.76	1665.00
210.98	1769.44
211.20	1646.57
211.42	1703.91
211.64	1787.88
211.86	1701.86
212.08	1699.81
212.30	1748.97
212.52	1687.53
212.74	1783.78
212.96	1671.14
213.17	1769.44
213.39	1777.64
213.61	1658.85
213.83	1765.35
214.05	1665.00
214.27	1787.88
214.49	1599.46
214.71	1677.29
214.93	1781.73
215.15	1673.19
215.37	1689.57
215.59	1607.66
215.81	1751.01
216.03	1753.06
216.24	1671.14
216.46	1740.77
216.68	1767.40
216.90	1722.34
217.12	1769.44
217.34	1761.25
217.56	1638.38
217.78	1845.22
218.00	1781.73
218.22	1773.54
218.44	1685.48
218.66	1755.11
218.87	1794.02
219.09	1681.38
219.31	1710.05
219.53	1714.15
219.75	1648.61
219.97	1652.71
220.19	1742.82
220.41	1716.20
220.63	1808.36
220.85	1697.77
221.06	1722.34
221.28	1830.88
221.50	1814.50
221.72	1640.42
221.94	1703.91
222.16	1718.25
222.38	1787.88
222.60	1726.44
222.82	1636.33
223.03	1716.20
223.25	1529.83
223.47	1720.29
223.69	1847.27
223.91	1767.40
224.13	1677.29
224.35	1681.38
224.57	1718.25
224.78	1810.40
225.00	1589.22
225.22	1708.01
225.44	1624.04
225.66	1712.10
225.88	1601.51
226.10	1718.25
226.32	1669.09
226.53	1785.83
226.75	1626.09
226.97	1679.33
227.19	1703.91
227.41	1714.15
227.63	1697.77
227.85	1611.75
228.06	1660.90
228.28	1652.71
228.50	1763.30
228.72	1642.47
228.94	1705.96
229.16	1576.94
229.37	1626.09
229.59	1681.38
229.81	1779.68
230.03	1685.48
230.25	1597.42
230.47	1628.14
230.69	1595.37
230.90	1796.07
231.12	1677.29
231.34	1675.24
231.56	1748.97
231.78	1671.14
232.00	1701.86
232.21	1681.38
232.43	1710.05
232.65	1599.46
232.87	1675.24
233.09	1695.72
233.30	1710.05
233.52	1710.05
233.74	1714.15
233.96	1677.29
234.18	1773.54
234.40	1681.38
234.61	1822.69
234.83	1587.18
235.05	1634.28
235.27	1828.84
235.49	1830.88
235.70	1734.63
235.92	1791.97
236.14	1746.92
236.36	1832.93
236.58	1683.43
236.79	1689.57
237.01	1650.66
237.23	1662.95
237.45	1767.40
237.67	1644.52
237.88	1660.90
238.10	1789.92
238.32	1617.90
238.54	1705.96
238.76	1683.43
238.97	1689.57
239.19	1695.72
239.41	1718.25
239.63	1716.20
239.85	1712.10
240.06	1740.77
240.28	1681.38
240.50	1816.55
240.72	1658.85
240.93	1697.77
241.15	1748.97
241.37	1638.38
241.59	1787.88
241.81	1748.97
242.02	1658.85
242.24	1818.60
242.46	1705.96
242.68	1693.67
242.89	1734.63
243.11	1736.68
243.33	1720.29
243.55	1697.77
243.76	1730.53
243.98	1685.48
244.20	1693.67
244.42	1658.85
244.64	1767.40
244.85	1652.71
245.07	1570.79
245.29	1779.68
245.51	1673.19
245.72	1763.30
245.94	1685.48
246.16	1751.01
246.38	1710.05
246.59	1685.48
246.81	1685.48
247.03	1712.10
247.24	1609.70
247.46	1689.57
247.68	1705.96
247.90	1673.19
248.11	1654.76
248.33	1691.62
248.55	1714.15
248.77	1636.33
248.98	1652.71
249.20	1716.20
249.42	1724.39
249.64	1734.63
249.85	1667.05
250.07	1667.05
250.29	1802.21
250.50	1734.63
250.72	1626.09
250.94	1798.12
251.16	1777.64
251.37	1736.68
251.59	1740.77
251.81	1773.54
252.02	1810.40
252.24	1681.38
252.46	1773.54
252.68	1679.33
252.89	1632.23
253.11	1613.80
253.33	1722.34
253.54	1757.16
253.76	1607.66
253.98	1734.63
254.20	1681.38
254.41	1566.70
254.63	1695.72
254.85	1685.48
255.06	1697.77
255.28	1683.43
255.50	1755.11
255.71	1630.18
255.93	1601.51
256.15	1755.11
256.36	1724.39
256.58	1669.09
256.80	1685.48
257.02	1646.57
257.23	1667.05
257.45	1738.73
257.67	1798.12
257.88	1615.85
258.10	1738.73
258.32	1646.57
258.53	1724.39
258.75	1728.49
258.97	1669.09
259.18	1683.43
259.40	1720.29
259.62	1830.88
259.83	1751.01
260.05	1703.91
260.27	1953.76
260.48	1693.67
260.70	1603.56
260.92	1638.38
261.13	1703.91
261.35	1701.86
261.57	1769.44
261.78	1681.38
262.00	1615.85
262.22	1789.92
262.43	1632.23
262.65	1656.81
262.86	1732.58
263.08	1779.68
263.30	1759.21
263.51	1585.13
263.73	1689.57
263.95	1796.07
264.16	1644.52
264.38	1628.14
264.60	1722.34
264.81	1642.47
265.03	1765.35
265.25	1677.29
265.46	1703.91
265.68	1806.31
265.89	1767.40
266.11	1562.60
266.33	1736.68
266.54	1685.48
266.76	1728.49
266.98	1730.53
267.19	1773.54
267.41	1753.06
267.62	1677.29
267.84	1683.43
268.06	1740.77
268.27	1650.66
268.49	1726.44
268.70	1767.40
268.92	1718.25
269.14	1646.57
269.35	1679.33
269.57	1650.66
269.79	1763.30
270.00	1748.97
270.22	1802.21
270.43	1755.11
270.65	1583.08
270.87	1828.84
271.08	1738.73
271.30	1660.90
271.51	1656.81
271.73	1730.53
271.95	1701.86
272.16	1716.20
272.38	1736.68
272.59	1583.08
272.81	1722.34
273.02	1699.81
273.24	1746.92
273.46	1740.77
273.67	1710.05
273.89	1738.73
274.10	1689.57
274.32	1783.78
274.54	1697.77
274.75	1705.96
274.97	1648.61
275.18	1804.26
275.40	1748.97
275.61	1677.29
275.83	1701.86
276.05	1638.38
276.26	1597.42
276.48	1728.49
276.69	1640.42
276.91	1640.42
277.12	1775.59
277.34	1763.30
277.55	1751.01
277.77	1738.73
277.99	1714.15
278.20	1624.04
278.42	1621.99
278.63	1652.71
278.85	1677.29
279.06	1628.14
279.28	1730.53
279.49	1734.63
279.71	1669.09
279.93	1710.05
280.14	1710.05
280.36	1621.99
280.57	1687.53
280.79	1738.73
281.00	1667.05
281.22	1648.61
281.43	1683.43
281.65	1609.70
281.86	1701.86
282.08	1708.01
282.29	1779.68
282.51	1558.50
282.73	1607.66
282.94	1601.51
283.16	1728.49
283.37	1826.79
283.59	1757.16
283.80	1726.44
284.02	1699.81
284.23	1716.20
284.45	1665.00
284.66	1632.23
284.88	1681.38
285.09	1710.05
285.31	1619.94
285.52	1685.48
285.74	1613.80
285.95	1677.29
286.17	1701.86
286.38	1740.77
286.60	1677.29
286.81	1726.44
287.03	1699.81
287.24	1757.16
287.46	1816.55
287.67	1642.47
287.89	1898.47
288.10	1650.66
288.32	1701.86
288.53	1771.49
288.75	1748.97
288.96	1736.68
289.18	1724.39
289.39	1685.48
289.61	1789.92
289.82	1841.12
290.04	1822.69
290.25	1640.42
290.47	1705.96
290.68	1638.38
290.90	1708.01
291.11	1662.95
291.33	1742.82
291.54	1617.90
291.76	1695.72
291.97	1650.66
292.18	1757.16
292.40	1640.42
292.61	1679.33
292.83	1834.98
293.04	1748.97
293.26	1693.67
293.47	1765.35
293.69	1718.25
293.90	1710.05
294.12	1791.97
294.33	1632.23
294.55	1675.24
294.76	1779.68
294.97	1834.98
295.19	1851.36
295.40	1660.90
295.62	1820.64
295.83	1644.52
296.05	1712.10
296.26	1697.77
296.48	1671.14
296.69	1732.58
296.90	1683.43
297.12	1736.68
297.33	1763.30
297.55	1716.20
297.76	1734.63
297.98	1857.51
298.19	1708.01
298.41	1652.71
298.62	1644.52
298.83	1789.92
299.05	1634.28
299.26	1763.30
299.48	1677.29
299.69	1775.59
299.90	1667.05
300.12	1587.18
300.33	1738.73
300.55	1755.11
300.76	1755.11
300.98	1595.37
301.19	1642.47
301.40	1660.90
301.62	1660.90
301.83	1703.91
302.05	1777.64
302.26	1685.48
302.47	1726.44
302.69	1617.90
302.90	1646.57
303.12	1611.75
303.33	1724.39
303.54	1826.79
303.76	1675.24
303.97	1748.97
304.19	1810.40
304.40	1630.18
304.61	1755.11
304.83	1748.97
305.04	1753.06
305.26	1734.63
305.47	1771.49
305.68	1705.96
305.90	1705.96
306.11	1779.68
306.33	1683.43
306.54	1726.44
306.75	1732.58
306.97	1603.56
307.18	1624.04
307.39	1681.38
307.61	1730.53
307.82	1660.90
308.04	1679.33
308.25	1644.52
308.46	1767.40
308.68	1775.59
308.89	1738.73
309.10	1779.68
309.32	1705.96
309.53	1691.62
309.74	1693.67
309.96	1685.48
310.17	1767.40
310.39	1652.71
310.60	1677.29
310.81	1703.91
311.03	1626.09
311.24	1703.91
311.45	1699.81
311.67	1781.73
311.88	1710.05
312.09	1695.72
312.31	1699.81
312.52	1683.43
312.73	1667.05
312.95	1636.33
313.16	1630.18
313.37	1687.53
313.59	1683.43
313.80	1820.64
314.01	1804.26
314.23	1748.97
314.44	1626.09
314.65	1581.03
314.87	1677.29
315.08	1648.61
315.29	1644.52
315.51	1732.58
315.72	1648.61
315.93	1828.84
316.15	1759.21
316.36	1665.00
316.57	1751.01
316.79	1761.25
317.00	1771.49
317.21	1796.07
317.43	1693.67
317.64	1712.10
317.85	1638.38
318.07	1624.04
318.28	1734.63
318.49	1857.51
318.70	1810.40
318.92	1652.71
319.13	1820.64
319.34	1804.26
319.56	1748.97
319.77	1828.84
319.98	1701.86
320.20	1800.16
320.41	1732.58
320.62	1742.82
320.83	1697.77
321.05	1839.08
321.26	1689.57
321.47	1796.07
321.69	1806.31
321.90	1677.29
322.11	1736.68
322.32	1746.92
322.54	1757.16
322.75	1740.77
322.96	1771.49
323.18	1621.99
323.39	1630.18
323.60	1556.46
323.81	1771.49
324.03	1640.42
324.24	1656.81
324.45	1710.05
324.66	1673.19
324.88	1779.68
325.09	1804.26
325.30	1650.66
325.52	1701.86
325.73	1675.24
325.94	1632.23
326.15	1621.99
326.37	1607.66
326.58	1748.97
326.79	1722.34
327.00	1671.14
327.22	1785.83
327.43	1658.85
327.64	1624.04
327.85	1728.49
328.07	1679.33
328.28	1689.57
328.49	1675.24
328.70	1710.05
328.92	1681.38
329.13	1691.62
329.34	1705.96
329.55	1802.21
329.76	1705.96
329.98	1691.62
330.19	1738.73
330.40	1742.82
330.61	1751.01
330.83	1724.39
331.04	1613.80
331.25	1755.11
331.46	1658.85
331.68	1656.81
331.89	1789.92
332.10	1695.72
332.31	1628.14
332.52	1689.57
332.74	1800.16
332.95	1613.80
333.16	1730.53
333.37	1679.33
333.58	1628.14
333.80	1728.49
334.01	1593.32
334.22	1691.62
334.43	1603.56
334.64	1742.82
334.86	1535.98
335.07	1650.66
335.28	1820.64
335.49	1675.24
335.70	1748.97
335.92	1728.49
336.13	1847.27
336.34	1654.76
336.55	1744.87
336.76	1726.44
336.98	1638.38
337.19	1669.09
337.40	1771.49
337.61	1834.98
337.82	1648.61
338.04	1759.21
338.25	1650.66
338.46	1734.63
338.67	1697.77
338.88	1648.61
339.09	1624.04
339.31	1650.66
339.52	1619.94
339.73	1646.57
339.94	1751.01
340.15	1757.16
340.36	1689.57
340.58	1710.05
340.79	1730.53
341.00	1781.73
341.21	1636.33
341.42	1710.05
341.63	1714.15
341.85	1736.68
342.06	1712.10
342.27	1660.90
342.48	1785.83
342.69	1642.47
342.90	1697.77
343.12	1687.53
343.33	1691.62
343.54	1724.39
343.75	1824.74
343.96	1726.44
344.17	1632.23
344.38	1693.67
344.60	1687.53
344.81	1654.76
345.02	1699.81
345.23	1689.57
345.44	1787.88
345.65	1841.12
345.86	1820.64
346.07	1695.72
346.29	1656.81
346.50	1767.40
346.71	1751.01
346.92	1718.25
347.13	1828.84
347.34	1742.82
347.55	1705.96
347.76	1710.05
347.98	1542.12
348.19	1714.15
348.40	1753.06
348.61	1705.96
348.82	1748.97
349.03	1691.62
349.24	1646.57
349.45	1816.55
349.66	1597.42
349.88	1644.52
350.09	1648.61
350.30	1814.50
350.51	1708.01
350.72	1685.48
350.93	1757.16
351.14	1673.19
351.35	1755.11
351.56	1759.21
351.77	1636.33
351.99	1761.25
352.20	1869.80
352.41	1726.44
352.62	1646.57
352.83	1710.05
353.04	1679.33
353.25	1701.86
353.46	1775.59
353.67	1785.83
353.88	1595.37
354.09	1685.48
354.30	1679.33
354.52	1683.43
354.73	1710.05
354.94	1667.05
355.15	1658.85
355.36	1814.50
355.57	1691.62
355.78	1710.05
355.99	1744.87
356.20	1695.72
356.41	1728.49
356.62	1695.72
356.83	1673.19
357.04	1742.82
357.25	1607.66
357.46	1652.71
357.68	1591.27
357.89	1652.71
358.10	1691.62
358.31	1763.30
358.52	1742.82
358.73	1654.76
358.94	1640.42
359.15	1630.18
359.36	1746.92
359.57	1712.10
359.78	1724.39
359.99	1775.59
360.20	1652.71
360.41	1626.09
360.62	1730.53
360.83	1701.86
361.04	1712.10
361.25	1683.43
361.46	1826.79
361.67	1738.73
361.88	1703.91
362.09	1779.68
362.30	1705.96
362.51	1660.90
362.72	1652.71
362.93	1734.63
363.14	1699.81
363.35	1716.20
363.56	1689.57
363.78	1763.30
363.99	1724.39
364.20	1658.85
364.41	1720.29
364.62	1798.12
364.83	1763.30
365.04	1667.05
365.25	1718.25
365.46	1796.07
365.67	1607.66
365.88	1646.57
366.09	1705.96
366.30	1701.86
366.51	1667.05
366.72	1619.94
366.93	1677.29
367.14	1703.91
367.35	1843.17
367.56	1656.81
367.77	1783.78
367.98	1654.76
368.18	1755.11
368.39	1746.92
368.60	1701.86
368.81	1667.05
369.02	1779.68
369.23	1712.10
369.44	1593.32
369.65	1695.72
369.86	1718.25
370.07	1738.73
370.28	1642.47
370.49	1724.39
370.70	1783.78
370.91	1624.04
371.12	1599.46
371.33	1779.68
371.54	1695.72
371.75	1802.21
371.96	1585.13
372.17	1691.62
372.38	1701.86
372.59	1714.15
372.80	1626.09
373.01	1712.10
373.22	1689.57
373.43	1783.78
373.64	1636.33
373.85	1744.87
374.06	1828.84
374.26	1746.92
374.47	1765.35
374.68	1818.60
374.89	1691.62
375.10	1679.33
375.31	1777.64
375.52	1710.05
375.73	1755.11
375.94	1705.96
376.15	1767.40
376.36	1710.05
376.57	1691.62
376.78	1681.38
376.99	1699.81
377.20	1779.68
377.40	1701.86
377.61	1800.16
377.82	1613.80
378.03	1751.01
378.24	1720.29
378.45	1650.66
378.66	1695.72
378.87	1646.57
379.08	1599.46
379.29	1640.42
379.50	1822.69
379.71	1628.14
379.91	1751.01
380.12	1718.25
380.33	1724.39
380.54	1695.72
380.75	1722.34
380.96	1626.09
381.17	1738.73
381.38	1695.72
381.59	1665.00
381.80	1689.57
382.00	1759.21
382.21	1751.01
382.42	1898.47
382.63	1771.49
382.84	1714.15
383.05	1775.59
383.26	1828.84
383.47	1708.01
383.68	1781.73
383.88	1761.25
384.09	1787.88
384.30	1777.64
384.51	1673.19
384.72	1685.48
384.93	1642.47
385.14	1642.47
385.35	1769.44
385.55	1636.33
385.76	1769.44
385.97	1652.71
386.18	1652.71
386.39	1601.51
386.60	1718.25
386.81	1665.00
387.02	1603.56
387.22	1716.20
387.43	1794.02
387.64	1746.92
387.85	1789.92
388.06	2295.77
388.27	4261.82
388.48	6817.69
388.68	8234.88
388.89	9461.62
389.10	9858.92
389.31	8531.84
389.52	7436.17
389.73	6725.53
389.93	6440.86
390.14	5722.02
390.35	5181.36
390.56	4560.83
390.77	3827.65
390.98	3055.57
391.18	2502.62
391.39	2158.56
391.60	1908.71
391.81	1828.84
392.02	1757.16
392.23	1898.47
392.43	1695.72
392.64	1808.36
392.85	1753.06
393.06	1810.40
393.27	1757.16
393.47	1634.28
393.68	1712.10
393.89	1710.05
394.10	1839.08
394.31	1660.90
394.52	1685.48
394.72	1646.57
394.93	1746.92
395.14	1671.14
395.35	1660.90
395.56	1665.00
395.76	1708.01
395.97	1814.50
396.18	1763.30
396.39	1763.30
396.60	1988.58
396.80	1914.85
397.01	1804.26
397.22	1906.66
397.43	1789.92
397.64	1691.62
397.84	1773.54
398.05	1779.68
398.26	1740.77
398.47	1781.73
398.67	1777.64
398.88	1714.15
399.09	1757.16
399.30	1679.33
399.51	1701.86
399.71	1677.29
399.92	1714.15
400.13	1767.40
400.34	1726.44
400.54	1669.09
400.75	1806.31
400.96	1722.34
401.17	1773.54
401.37	1646.57
401.58	1718.25
401.79	1726.44
402.00	1744.87
402.21	2011.11
402.41	1843.17
402.62	1939.43
402.83	1982.43
403.04	1961.95
403.24	2050.02
403.45	1820.64
403.66	1925.09
403.87	1908.71
404.07	1925.09
404.28	1925.09
404.49	1820.64
404.70	1718.25
404.90	1755.11
405.11	1718.25
405.32	1769.44
405.52	1701.86
405.73	1753.06
405.94	1671.14
406.15	1683.43
406.35	1810.40
406.56	1781.73
406.77	1724.39
406.98	1687.53
407.18	1628.14
407.39	1746.92
407.60	1705.96
407.80	1796.07
408.01	1730.53
408.22	1699.81
408.43	1699.81
408.63	1771.49
408.84	1738.73
409.05	1783.78
409.25	1681.38
409.46	1642.47
409.67	1662.95
409.88	1665.00
410.08	1691.62
410.29	1640.42
410.50	1712.10
410.70	1783.78
410.91	1597.42
411.12	1726.44
411.32	1699.81
411.53	1675.24
411.74	1769.44
411.95	1771.49
412.15	1767.40
412.36	1820.64
412.57	1746.92
412.77	1800.16
412.98	1759.21
413.19	1701.86
413.39	1755.11
413.60	1738.73
413.81	1740.77
414.01	1599.46
414.22	1761.25
414.43	1683.43
414.63	1714.15
414.84	1802.21
415.05	1714.15
415.25	1683.43
415.46	1826.79
415.67	1697.77
415.87	1806.31
416.08	1740.77
416.29	1689.57
416.49	1732.58
416.70	1640.42
416.91	1716.20
417.11	1712.10
417.32	1779.68
417.53	1755.11
417.73	1734.63
417.94	1708.01
418.15	1675.24
418.35	1736.68
418.56	1656.81
418.77	1761.25
418.97	1689.57
419.18	1689.57
419.38	1611.75
419.59	1675.24
419.80	1800.16
420.00	1652.71
420.21	1699.81
420.42	1779.68
420.62	1757.16
420.83	1669.09
421.04	1753.06
421.24	1636.33
421.45	1726.44
421.65	1808.36
421.86	1662.95
422.07	1738.73
422.27	1787.88
422.48	1744.87
422.69	1615.85
422.89	1679.33
423.10	1669.09
423.30	1621.99
423.51	1765.35
423.72	1685.48
423.92	1646.57
424.13	1652.71
424.33	1611.75
424.54	1724.39
424.75	1794.02
424.95	1791.97
425.16	1722.34
425.36	1734.63
425.57	1787.88
425.78	1669.09
425.98	1779.68
426.19	1744.87
426.39	1669.09
426.60	1701.86
426.81	1832.93
427.01	1728.49
427.22	1708.01
427.42	1642.47
427.63	1609.70
427.83	1814.50
428.04	1818.60
428.25	1791.97
428.45	1800.16
428.66	1718.25
428.86	1685.48
429.07	1665.00
429.28	1718.25
429.48	1646.57
429.69	1591.27
429.89	1705.96
430.10	1611.75
430.30	1732.58
430.51	1724.39
430.71	1746.92
430.92	1675.24
431.13	1626.09
431.33	1699.81
431.54	1714.15
431.74	1812.45
431.95	1818.60
432.15	1628.14
432.36	1722.34
432.56	1761.25
432.77	1796.07
432.98	1814.50
433.18	1738.73
433.39	1662.95
433.59	1683.43
433.80	1763.30
434.00	1861.60
434.21	1720.29
434.41	1673.19
434.62	1869.80
434.82	1660.90
435.03	1669.09
435.23	1681.38
435.44	1570.79
435.64	1718.25
435.85	1677.29
436.06	1863.65
436.26	1757.16
436.47	1626.09
436.67	1705.96
436.88	1728.49
437.08	1738.73
437.29	1826.79
437.49	1679.33
437.70	1718.25
437.90	1755.11
438.11	1902.56
438.31	1783.78
438.52	1849.32
438.72	1837.03
438.93	1871.84
439.13	1744.87
439.34	1828.84
439.54	1691.62
439.75	1796.07
439.95	1800.16
440.16	1683.43
440.36	1665.00
440.57	1736.68
440.77	1863.65
440.98	1720.29
441.18	1746.92
441.39	1738.73
441.59	1665.00
441.80	1861.60
442.00	1728.49
442.21	1843.17
442.41	1634.28
442.62	1818.60
442.82	1697.77
443.02	1685.48
443.23	1822.69
443.43	1669.09
443.64	1765.35
443.84	1667.05
444.05	1845.22
444.25	1730.53
444.46	1701.86
444.66	1742.82
444.87	1882.08
445.07	1650.66
445.28	1767.40
445.48	1757.16
445.69	1773.54
445.89	1875.94
446.09	1714.15
446.30	2013.15
446.50	2578.39
446.71	3598.28
446.91	4327.36
447.12	4827.06
447.32	4876.21
447.53	4329.41
447.73	3893.19
447.93	3483.59
448.14	3264.46
448.34	3190.74
448.55	2873.30
448.75	2858.96
448.96	2609.11
449.16	2447.32
449.36	2222.05
449.57	2031.58
449.77	1859.56
449.98	1834.98
450.18	1820.64
450.39	1824.74
450.59	1728.49
450.79	1738.73
451.00	1665.00
451.20	1746.92
451.41	1794.02
451.61	1763.30
451.81	1789.92
452.02	1814.50
452.22	1738.73
452.43	1730.53
452.63	1732.58
452.84	1693.67
453.04	1687.53
453.24	1761.25
453.45	1689.57
453.65	1667.05
453.86	1718.25
454.06	1693.67
454.26	1697.77
454.47	1595.37
454.67	1834.98
454.87	1736.68
455.08	1660.90
455.28	1824.74
455.49	1744.87
455.69	1689.57
455.89	1826.79
456.10	1828.84
456.30	1705.96
456.51	1738.73
456.71	1738.73
456.91	1742.82
457.12	1789.92
457.32	1773.54
457.52	1675.24
457.73	1773.54
457.93	1746.92
458.14	1738.73
458.34	1642.47
458.54	1691.62
458.75	1726.44
458.95	1779.68
459.15	1804.26
459.36	1777.64
459.56	1806.31
459.76	1824.74
459.97	1660.90
460.17	1718.25
460.37	1781.73
460.58	1726.44
460.78	1769.44
460.99	1685.48
461.19	1654.76
461.39	1748.97
461.60	1669.09
461.80	1751.01
462.00	1712.10
462.21	1746.92
462.41	1697.77
462.61	1703.91
462.82	1628.14
463.02	1746.92
463.22	1712.10
463.43	1703.91
463.63	1626.09
463.83	1869.80
464.04	1722.34
464.24	1710.05
464.44	1675.24
464.64	1738.73
464.85	1757.16
465.05	1769.44
465.25	1765.35
465.46	1689.57
465.66	1761.25
465.86	1810.40
466.07	1705.96
466.27	1667.05
466.47	1634.28
466.68	1660.90
466.88	1871.84
467.08	1761.25
467.29	1806.31
467.49	1712.10
467.69	1689.57
467.89	1714.15
468.10	1726.44
468.30	1736.68
468.50	1845.22
468.71	1740.77
468.91	1576.94
469.11	1822.69
469.31	1740.77
469.52	1665.00
469.72	1816.55
469.92	1851.36
470.13	1710.05
470.33	1748.97
470.53	1781.73
470.73	2029.54
470.94	2287.58
471.14	2357.21
471.34	2557.91
471.54	2455.51
471.75	2215.90
471.95	2090.98
472.15	2142.18
472.36	2062.30
472.56	2097.12
472.76	2101.22
472.96	1972.19
473.17	1867.75
473.37	1843.17
473.57	1738.73
473.77	1839.08
473.98	1732.58
474.18	1669.09
474.38	1890.28
474.58	1691.62
474.79	1636.33
474.99	1779.68
475.19	1789.92
475.39	1648.61
475.60	1822.69
475.80	1761.25
476.00	1755.11
476.20	1748.97
476.41	1746.92
476.61	1845.22
476.81	1820.64
477.01	1656.81
477.21	1871.84
477.42	1763.30
477.62	1665.00
477.82	1718.25
478.02	1804.26
478.23	1708.01
478.43	1685.48
478.63	1736.68
478.83	1685.48
479.03	1718.25
479.24	1800.16
479.44	1808.36
479.64	1685.48
479.84	1624.04
480.04	1667.05
480.25	1738.73
480.45	1701.86
480.65	1687.53
480.85	1771.49
481.06	1654.76
481.26	1689.57
481.46	1693.67
481.66	1718.25
481.86	1742.82
482.06	1714.15
482.27	1724.39
482.47	1738.73
482.67	1779.68
482.87	1824.74
483.07	1802.21
483.28	1665.00
483.48	1570.79
483.68	1673.19
483.88	1753.06
484.08	1589.22
484.29	1716.20
484.49	1716.20
484.69	1642.47
484.89	1789.92
485.09	1693.67
485.29	1765.35
485.50	1683.43
485.70	1646.57
485.90	1871.84
486.10	1734.63
486.30	1773.54
486.50	1730.53
486.71	1732.58
486.91	1730.53
487.11	1796.07
487.31	1673.19
487.51	1718.25
487.71	1603.56
487.91	1695.72
488.12	1675.24
488.32	1640.42
488.52	1640.42
488.72	1708.01
488.92	1691.62
489.12	1759.21
489.32	1796.07
489.53	1765.35
489.73	1734.63
489.93	1804.26
490.13	1701.86
490.33	1642.47
490.53	1718.25
490.73	1722.34
490.94	1748.97
491.14	1767.40
491.34	1830.88
491.54	2205.66
491.74	2541.53
491.94	2875.35
492.14	2973.65
492.34	3006.42
492.54	2779.09
492.75	2502.62
492.95	2389.98
493.15	2361.31
493.35	2224.09
493.55	2299.87
493.75	2103.26
493.95	2131.94
494.15	1996.77
494.35	1929.19
494.56	1880.04
494.76	1734.63
494.96	1804.26
495.16	1716.20
495.36	1710.05
495.56	1695.72
495.76	1753.06
495.96	1710.05
496.16	1751.01
496.36	1808.36
496.56	1708.01
496.77	1837.03
496.97	1626.09
497.17	1726.44
497.37	1662.95
497.57	1775.59
497.77	1687.53
497.97	1695.72
498.17	1783.78
498.37	1648.61
498.57	1826.79
498.77	1730.53
498.97	1820.64
499.17	1785.83
499.38	1755.11
499.58	1724.39
499.78	1783.78
499.98	1814.50
500.18	1748.97
500.38	1701.86
500.58	1957.86
500.78	2531.29
500.98	4569.02
501.18	5779.37
501.38	6774.68
501.58	7157.65
501.78	6559.64
501.98	5455.79
502.18	5005.24
502.38	4329.41
502.58	4014.02
502.78	3829.70
502.98	3678.15
503.18	3346.38
503.38	3135.44
503.59	2873.30
503.79	2572.25
503.99	2484.19
504.19	2310.11
504.39	2201.57
504.59	2179.04
504.79	2099.17
504.99	2041.82
505.19	1935.33
505.39	1916.90
505.59	1968.10
505.79	1861.60
505.99	1888.23
506.19	1798.12
506.39	1890.28
506.59	1703.91
506.79	1812.45
506.99	1845.22
507.19	1720.29
507.39	1687.53
507.59	1722.34
507.79	1673.19
507.99	1662.95
508.19	1761.25
508.39	1789.92
508.59	1722.34
508.79	1759.21
508.99	1843.17
509.19	1656.81
509.39	1765.35
509.59	1701.86
509.79	1736.68
509.99	1814.50
510.19	1757.16
510.39	1769.44
510.59	1683.43
510.79	1744.87
510.99	1691.62
511.19	1710.05
511.39	1796.07
511.59	1814.50
511.79	1763.30
511.99	1732.58
512.19	1718.25
512.38	1708.01
512.58	1710.05
512.78	1763.30
512.98	1748.97
513.18	1785.83
513.38	1640.42
513.58	1740.77
513.78	1720.29
513.98	1775.59
514.18	1634.28
514.38	1744.87
514.58	1816.55
514.78	1720.29
514.98	1695.72
515.18	1658.85
515.38	1722.34
515.58	1787.88
515.78	1705.96
515.98	1806.31
516.18	1671.14
516.38	1722.34
516.57	1753.06
516.77	1679.33
516.97	1705.96
517.17	1740.77
517.37	1595.37
517.57	1771.49
517.77	1761.25
517.97	1658.85
518.17	1724.39
518.37	1669.09
518.57	1601.51
518.77	1765.35
518.97	1716.20
519.16	1722.34
519.36	1851.36
519.56	1767.40
519.76	1746.92
519.96	1769.44
520.16	1853.41
520.36	1763.30
520.56	1845.22
520.76	1669.09
520.96	1736.68
521.16	1771.49
521.35	1779.68
521.55	1841.12
521.75	1734.63
521.95	1660.90
522.15	1677.29
522.35	1617.90
522.55	1681.38
522.75	1746.92
522.95	1681.38
523.14	1724.39
523.34	1718.25
523.54	1665.00
523.74	1757.16
523.94	1718.25
524.14	1689.57
524.34	1738.73
524.54	1855.46
524.73	1673.19
524.93	1718.25
525.13	1832.93
525.33	1705.96
525.53	1898.47
525.73	1794.02
525.93	1826.79
526.13	1712.10
526.32	1681.38
526.52	1753.06
526.72	1820.64
526.92	1736.68
527.12	1789.92
527.32	1687.53
527.52	1748.97
527.71	1724.39
527.91	1699.81
528.11	1701.86
528.31	1632.23
528.51	1638.38
528.71	1791.97
528.90	1730.53
529.10	1798.12
529.30	1798.12
529.50	1566.70
529.70	1703.91
529.90	1660.90
530.09	1714.15
530.29	1740.77
530.49	1693.67
530.69	1939.43
530.89	1767.40
531.09	1794.02
531.28	1683.43
531.48	1820.64
531.68	1742.82
531.88	1810.40
532.08	1777.64
532.28	1683.43
532.47	1695.72
532.67	1757.16
532.87	1767.40
533.07	1681.38
533.27	1757.16
533.46	1791.97
533.66	1759.21
533.86	1755.11
534.06	1677.29
534.26	1746.92
534.45	1753.06
534.65	1839.08
534.85	1763.30
535.05	1675.24
535.25	1779.68
535.44	1695.72
535.64	1738.73
535.84	1703.91
536.04	1689.57
536.24	1722.34
536.43	1746.92
536.63	1714.15
536.83	1685.48
537.03	1730.53
537.22	1685.48
537.42	1648.61
537.62	1675.24
537.82	1677.29
538.02	1724.39
538.21	1783.78
538.41	1853.41
538.61	1777.64
538.81	1683.43
539.00	1841.12
539.20	1642.47
539.40	1705.96
539.60	1757.16
539.79	1736.68
539.99	1701.86
540.19	1712.10
540.39	1738.73
540.58	1716.20
540.78	1779.68
540.98	1828.84
541.18	1763.30
541.37	1755.11
541.57	1710.05
541.77	1746.92
541.97	1669.09
542.16	1632.23
542.36	1662.95
542.56	1728.49
542.76	1929.19
542.95	1691.62
543.15	1734.63
543.35	1783.78
543.54	1658.85
543.74	1695.72
543.94	1744.87
544.14	1730.53
544.33	1810.40
544.53	1703.91
544.73	1730.53
544.93	1697.77
545.12	1689.57
545.32	1744.87
545.52	1714.15
545.71	1652.71
545.91	1619.94
546.11	1648.61
546.30	1697.77
546.50	1763.30
546.70	1800.16
546.90	1705.96
547.09	1677.29
547.29	1771.49
547.49	1730.53
547.68	1718.25
547.88	1634.28
548.08	1771.49
548.27	2209.76
548.47	1701.86
548.67	1652.71
548.87	1724.39
549.06	1695.72
549.26	1730.53
549.46	1730.53
549.65	1742.82
549.85	1665.00
550.05	1775.59
550.24	1642.47
550.44	1773.54
550.64	1761.25
550.83	1730.53
551.03	1859.56
551.23	1857.51
551.42	1761.25
551.62	1708.01
551.82	1767.40
552.01	1708.01
552.21	1814.50
552.41	1691.62
552.60	1834.98
552.80	1722.34
553.00	1746.92
553.19	1742.82
553.39	1839.08
553.59	1638.38
553.78	1771.49
553.98	1804.26
554.17	1613.80
554.37	1787.88
554.57	1789.92
554.76	1632.23
554.96	1601.51
555.16	1751.01
555.35	1802.21
555.55	1728.49
555.75	1671.14
555.94	1775.59
556.14	1689.57
556.33	1822.69
556.53	1677.29
556.73	1787.88
556.92	1773.54
557.12	1837.03
557.32	1880.04
557.51	1826.79
557.71	1806.31
557.90	1798.12
558.10	1834.98
558.30	1683.43
558.49	1828.84
558.69	1660.90
558.88	1751.01
559.08	1757.16
559.28	1757.16
559.47	1734.63
559.67	1771.49
559.86	1900.52
560.06	1781.73
560.26	1755.11
560.45	1738.73
560.65	1673.19
560.84	1830.88
561.04	1695.72
561.24	1810.40
561.43	1710.05
561.63	1812.45
561.82	1671.14
562.02	1742.82
562.22	1681.38
562.41	1736.68
562.61	1730.53
562.80	1705.96
563.00	1955.81
563.19	1736.68
563.39	1761.25
563.59	1761.25
563.78	1691.62
563.98	1648.61
564.17	1779.68
564.37	1603.56
564.56	1757.16
564.76	1593.32
564.96	1791.97
565.15	1640.42
565.35	1826.79
565.54	1656.81
565.74	1751.01
565.93	1755.11
566.13	1728.49
566.32	1693.67
566.52	1708.01
566.71	1730.53
566.91	1773.54
567.11	1753.06
567.30	1667.05
567.50	1804.26
567.69	1757.16
567.89	1746.92
568.08	1687.53
568.28	1767.40
568.47	1753.06
568.67	1828.84
568.86	1724.39
569.06	1798.12
569.25	1714.15
569.45	1689.57
569.64	1781.73
569.84	1763.30
570.04	1699.81
570.23	1724.39
570.43	1710.05
570.62	1773.54
570.82	1806.31
571.01	1630.18
571.21	1689.57
571.40	1667.05
571.60	1746.92
571.79	1714.15
571.99	1740.77
572.18	1691.62
572.38	1689.57
572.57	1748.97
572.77	1787.88
572.96	1837.03
573.16	1761.25
573.35	1712.10
573.55	1816.55
573.74	1748.97
573.94	1710.05
574.13	1697.77
574.33	1810.40
574.52	1834.98
574.71	1730.53
574.91	1783.78
575.10	1662.95
575.30	1681.38
575.49	1667.05
575.69	1771.49
575.88	1728.49
576.08	1685.48
576.27	1869.80
576.47	1673.19
576.66	1894.37
576.86	1734.63
577.05	1683.43
577.25	1810.40
577.44	1920.99
577.64	1665.00
577.83	1718.25
578.02	1744.87
578.22	1791.97
578.41	1912.80
578.61	1667.05
578.80	1705.96
579.00	1845.22
579.19	1789.92
579.39	1736.68
579.58	1843.17
579.77	1662.95
579.97	1880.04
580.16	1800.16
580.36	1830.88
580.55	1822.69
580.75	1800.16
580.94	1785.83
581.13	1845.22
581.33	1824.74
581.52	1716.20
581.72	1912.80
581.91	1837.03
582.11	1736.68
582.30	1765.35
582.49	1789.92
582.69	1781.73
582.88	1705.96
583.08	1808.36
583.27	1824.74
583.47	1759.21
583.66	1755.11
583.85	1718.25
584.05	1781.73
584.24	1839.08
584.44	1720.29
584.63	1847.27
584.82	1826.79
585.02	1824.74
585.21	1865.70
585.41	1775.59
585.60	1830.88
585.79	1935.33
585.99	1877.99
586.18	1896.42
586.37	2148.32
586.57	3559.37
586.76	9996.14
586.96	24538.76
587.15	35016.17
587.34	40523.16
587.54	42263.93
587.73	36976.08
587.93	26570.35
588.12	21896.88
588.31	18525.93
588.51	16254.73
588.70	15066.91
588.89	14118.70
589.09	12748.61
589.28	11087.70
589.47	9502.58
589.67	7937.93
589.86	6246.30
590.06	4980.66
590.25	3930.05
590.44	3051.47
590.64	2510.81
590.83	2267.10
591.02	2090.98
591.22	2002.91
591.41	1871.84
591.60	1798.12
591.80	1918.95
591.99	1777.64
592.18	1796.07
592.38	1890.28
592.57	1820.64
592.76	1763.30
592.96	1816.55
593.15	1796.07
593.34	1853.41
593.54	1828.84
593.73	1738.73
593.92	1746.92
594.12	1746.92
594.31	1708.01
594.50	1834.98
594.70	1820.64
594.89	1888.23
595.08	1703.91
595.28	1771.49
595.47	1865.70
595.66	1814.50
595.86	1677.29
596.05	1746.92
596.24	1705.96
596.43	1802.21
596.63	1800.16
596.82	1718.25
597.01	1824.74
597.21	1804.26
597.40	1777.64
597.59	1708.01
597.79	1716.20
597.98	1773.54
598.17	1806.31
598.36	1701.86
598.56	1761.25
598.75	1660.90
598.94	1777.64
599.14	1697.77
599.33	1724.39
599.52	1794.02
599.71	1746.92
599.91	1755.11
600.10	1744.87
600.29	1712.10
600.48	1767.40
600.68	1810.40
600.87	1785.83
601.06	1689.57
601.26	1705.96
601.45	1732.58
601.64	1755.11
601.83	1746.92
602.03	1621.99
602.22	1746.92
602.41	1824.74
602.60	1867.75
602.80	1773.54
602.99	1751.01
603.18	1701.86
603.37	1736.68
603.57	1740.77
603.76	1712.10
603.95	1714.15
604.14	1701.86
604.34	1742.82
604.53	1740.77
604.72	1738.73
604.91	1753.06
605.10	1791.97
605.30	1742.82
605.49	1886.18
605.68	1746.92
605.87	1755.11
606.07	1599.46
606.26	1708.01
606.45	1783.78
606.64	1759.21
606.84	1677.29
607.03	1751.01
607.22	1828.84
607.41	1710.05
607.60	1765.35
607.80	1820.64
607.99	1638.38
608.18	1785.83
608.37	1789.92
608.56	1665.00
608.76	1800.16
608.95	1787.88
609.14	1730.53
609.33	1769.44
609.52	1738.73
609.72	1697.77
609.91	1802.21
610.10	1787.88
610.29	1779.68
610.48	1777.64
610.68	1732.58
610.87	1779.68
611.06	1765.35
611.25	1710.05
611.44	1748.97
611.63	1685.48
611.83	1779.68
612.02	1687.53
612.21	1828.84
612.40	1636.33
612.59	1609.70
612.79	1714.15
612.98	1736.68
613.17	1849.32
613.36	1773.54
613.55	1771.49
613.74	1650.66
613.93	1699.81
614.13	1679.33
614.32	1769.44
614.51	1685.48
614.70	1630.18
614.89	1720.29
615.08	1771.49
615.28	2113.50
615.47	1648.61
615.66	1710.05
615.85	1751.01
616.04	1820.64
616.23	1708.01
616.42	1671.14
616.62	1751.01
616.81	1724.39
617.00	1716.20
617.19	1712.10
617.38	1630.18
617.57	1769.44
617.76	1732.58
617.95	1736.68
618.15	1781.73
618.34	1800.16
618.53	1640.42
618.72	1837.03
618.91	1783.78
619.10	1763.30
619.29	1742.82
619.48	1740.77
619.68	1646.57
619.87	1716.20
620.06	1662.95
620.25	1744.87
620.44	1658.85
620.63	1687.53
620.82	1665.00
621.01	1640.42
621.20	1724.39
621.39	1771.49
621.59	1710.05
621.78	1699.81
621.97	1691.62
622.16	1746.92
622.35	1671.14
622.54	1767.40
622.73	1775.59
622.92	1669.09
623.11	1804.26
623.30	1689.57
623.49	1810.40
623.68	1644.52
623.88	1859.56
624.07	1683.43
624.26	1695.72
624.45	1757.16
624.64	1712.10
624.83	1759.21
625.02	1732.58
625.21	1693.67
625.40	1681.38
625.59	1734.63
625.78	1669.09
625.97	1740.77
626.16	1855.46
626.35	1753.06
626.54	1705.96
626.74	1839.08
626.93	1685.48
627.12	1722.34
627.31	1753.06
627.50	1722.34
627.69	1714.15
627.88	1665.00
628.07	1660.90
628.26	1650.66
628.45	1652.71
628.64	1654.76
628.83	1665.00
629.02	1652.71
629.21	1738.73
629.40	1771.49
629.59	1673.19
629.78	1673.19
629.97	1722.34
630.16	1773.54
630.35	1714.15
630.54	1800.16
630.73	1677.29
630.92	1705.96
631.11	1683.43
631.30	1734.63
631.49	1736.68
631.68	1769.44
631.87	1742.82
632.06	1687.53
632.25	1841.12
632.44	1718.25
632.63	1738.73
632.82	1681.38
633.01	1683.43
633.20	1703.91
633.39	1693.67
633.58	1613.80
633.77	1724.39
633.96	1734.63
634.15	1763.30
634.34	1796.07
634.53	1658.85
634.72	1746.92
634.91	1595.37
635.10	1669.09
635.29	1744.87
635.48	1681.38
635.67	1669.09
635.86	1656.81
636.05	1763.30
636.24	1767.40
636.43	1669.09
636.62	1806.31
636.81	1644.52
637.00	1724.39
637.19	1712.10
637.38	1701.86
637.57	1656.81
637.76	1757.16
637.95	1812.45
638.14	1605.61
638.33	1722.34
638.52	1751.01
638.71	1632.23
638.89	1640.42
639.08	1796.07
639.27	1675.24
639.46	1740.77
639.65	1882.08
639.84	1722.34
640.03	1837.03
640.22	1685.48
640.41	1804.26
640.60	1626.09
640.79	1738.73
640.98	1699.81
641.17	1748.97
641.36	1781.73
641.55	1681.38
641.74	1636.33
641.92	1660.90
642.11	1624.04
642.30	1679.33
642.49	1656.81
642.68	1701.86
642.87	1626.09
643.06	1730.53
643.25	1734.63
643.44	1648.61
643.63	1710.05
643.82	1720.29
644.00	1628.14
644.19	1667.05
644.38	1581.03
644.57	1738.73
644.76	1777.64
644.95	1611.75
645.14	1712.10
645.33	1671.14
645.52	1714.15
645.71	1640.42
645.89	1691.62
646.08	1685.48
646.27	1710.05
646.46	1861.60
646.65	1597.42
646.84	1734.63
647.03	1597.42
647.22	1716.20
647.40	1648.61
647.59	1736.68
647.78	1646.57
647.97	1712.10
648.16	1691.62
648.35	1806.31
648.54	1746.92
648.73	1699.81
648.91	1783.78
649.10	1677.29
649.29	1744.87
649.48	1693.67
649.67	1736.68
649.86	1660.90
650.05	1619.94
650.23	1787.88
650.42	1646.57
650.61	1720.29
650.80	1742.82
650.99	1824.74
651.18	1779.68
651.36	1806.31
651.55	1656.81
651.74	1808.36
651.93	1671.14
652.12	1701.86
652.31	1820.64
652.49	1665.00
652.68	1642.47
652.87	1796.07
653.06	1742.82
653.25	1736.68
653.44	1705.96
653.62	1806.31
653.81	1671.14
654.00	1681.38
654.19	1669.09
654.38	1851.36
654.56	1732.58
654.75	1642.47
654.94	1767.40
655.13	1761.25
655.32	1761.25
655.51	1687.53
655.69	1568.74
655.88	1837.03
656.07	1671.14
656.26	1732.58
656.45	1609.70
656.63	1722.34
656.82	1802.21
657.01	1712.10
657.20	1667.05
657.38	1800.16
657.57	1701.86
657.76	1650.66
657.95	1820.64
658.14	1746.92
658.32	1759.21
658.51	1613.80
658.70	1634.28
658.89	1718.25
659.08	1685.48
659.26	1794.02
659.45	1746.92
659.64	1734.63
659.83	1703.91
660.01	1939.43
660.20	1720.29
660.39	1906.66
660.58	1628.14
660.76	1761.25
660.95	1697.77
661.14	1722.34
661.33	1701.86
661.51	1751.01
661.70	1736.68
661.89	1751.01
662.08	1665.00
662.26	1673.19
662.45	1658.85
662.64	1777.64
662.83	1773.54
663.01	1697.77
663.20	1658.85
663.39	1843.17
663.58	1665.00
663.76	1751.01
663.95	1726.44
664.14	1638.38
664.32	1718.25
664.51	1607.66
664.70	1658.85
664.89	1794.02
665.07	1648.61
665.26	1777.64
665.45	1669.09
665.64	1710.05
665.82	1742.82
666.01	1724.39
666.20	1693.67
666.38	1794.02
666.57	1818.60
666.76	2224.09
666.95	4599.74
667.13	10456.93
667.32	15087.39
667.51	18173.67
667.69	18966.24
667.88	17618.68
668.07	12173.13
668.25	9434.99
668.44	8159.11
668.63	7284.62
668.81	6791.06
669.00	6131.62
669.19	5711.78
669.38	4997.04
669.56	4650.94
669.75	3997.64
669.94	3416.01
670.12	2877.40
670.31	2529.24
670.50	2279.39
670.68	2017.25
670.87	1871.84
671.06	1751.01
671.24	1759.21
671.43	1753.06
671.62	1718.25
671.80	1611.75
671.99	1757.16
672.18	1705.96
672.36	1712.10
672.55	1665.00
672.74	1669.09
672.92	1716.20
673.11	1755.11
673.29	1675.24
673.48	1734.63
673.67	1669.09
673.85	1837.03
674.04	1697.77
674.23	1771.49
674.41	1769.44
674.60	1660.90
674.79	1660.90
674.97	1652.71
675.16	1742.82
675.34	1816.55
675.53	1728.49
675.72	1734.63
675.90	1828.84
676.09	1693.67
676.28	1701.86
676.46	1660.90
676.65	1716.20
676.83	1665.00
677.02	1724.39
677.21	1734.63
677.39	1775.59
677.58	1689.57
677.77	1660.90
677.95	1730.53
678.14	1662.95
678.32	1732.58
678.51	1669.09
678.70	1791.97
678.88	1718.25
679.07	1728.49
679.25	1656.81
679.44	1691.62
679.63	1615.85
679.81	1748.97
680.00	1771.49
680.18	1751.01
680.37	1796.07
680.55	1748.97
680.74	1699.81
680.93	1624.04
681.11	1783.78
681.30	1783.78
681.48	1705.96
681.67	1710.05
681.85	1708.01
682.04	1697.77
682.23	1779.68
682.41	1691.62
682.60	1642.47
682.78	1681.38
682.97	1726.44
683.15	1701.86
683.34	1695.72
683.53	1804.26
683.71	1644.52
683.90	1814.50
684.08	1845.22
684.27	1759.21
684.45	1759.21
684.64	1796.07
684.82	1714.15
685.01	1660.90
685.19	1656.81
685.38	1855.46
685.57	1755.11
685.75	1640.42
685.94	1734.63
686.12	1617.90
686.31	1607.66
686.49	1816.55
686.68	1581.03
686.86	1724.39
687.05	1630.18
687.23	1757.16
687.42	1656.81
687.60	1636.33
687.79	1724.39
687.97	1791.97
688.16	1720.29
688.34	1808.36
688.53	1585.13
688.71	1744.87
688.90	1806.31
689.08	1708.01
689.27	1558.50
689.45	1814.50
689.64	1724.39
689.82	1744.87
690.01	1724.39
690.19	1681.38
690.38	1773.54
690.56	1818.60
690.75	1689.57
690.93	1689.57
691.12	1632.23
691.30	1722.34
691.49	1650.66
691.67	1628.14
691.86	1820.64
692.04	1708.01
692.23	1656.81
692.41	1724.39
692.60	1796.07
692.78	1703.91
692.97	1714.15
693.15	1701.86
693.34	1818.60
693.52	1746.92
693.71	1691.62
693.89	1624.04
694.08	1558.50
694.26	1742.82
694.44	1767.40
694.63	1728.49
694.81	1665.00
695.00	1644.52
695.18	1759.21
695.37	1828.84
695.55	1671.14
695.74	1798.12
695.92	1624.04
696.10	1732.58
696.29	1632.23
696.47	1681.38
696.66	1636.33
696.84	1673.19
697.03	1703.91
697.21	1763.30
697.40	2301.92
697.58	1820.64
697.76	1785.83
697.95	1712.10
698.13	1667.05
698.32	1656.81
698.50	1687.53
698.68	1646.57
698.87	1693.67
699.05	1773.54
699.24	1724.39
699.42	1718.25
699.61	1665.00
699.79	1691.62
699.97	1656.81
700.16	1576.94
700.34	1615.85
700.53	1699.81
700.71	1791.97
700.89	1744.87
701.08	1740.77
701.26	1691.62
701.45	2193.37
701.63	1691.62
701.81	1767.40
702.00	1685.48
702.18	1724.39
702.37	1644.52
702.55	1796.07
702.73	1673.19
702.92	1658.85
703.10	1724.39
703.28	1716.20
703.47	1669.09
703.65	1806.31
703.84	1771.49
704.02	1718.25
704.20	1763.30
704.39	1585.13
704.57	1652.71
704.75	1710.05
704.94	1808.36
705.12	1693.67
705.30	1787.88
705.49	2215.90
705.67	4425.66
705.86	9533.29
706.04	12752.70
706.22	14642.98
706.41	15388.44
706.59	13872.94
706.77	9652.08
706.96	7434.13
707.14	6629.27
707.32	5971.88
707.51	5597.10
707.69	4827.06
707.87	4229.06
708.06	3553.23
708.24	2883.54
708.42	2465.75
708.61	2179.04
708.79	1890.28
708.97	1814.50
709.16	1761.25
709.34	1716.20
709.52	1757.16
709.71	1703.91
709.89	1773.54
710.07	1771.49
710.26	1615.85
710.44	1734.63
710.62	1714.15
710.80	1644.52
710.99	1769.44
711.17	1759.21
711.35	1714.15
711.54	1738.73
711.72	1742.82
711.90	1681.38
712.09	1697.77
712.27	1634.28
712.45	1683.43
712.63	1718.25
712.82	1656.81
713.00	1732.58
713.18	1691.62
713.37	1740.77
713.55	1751.01
713.73	1738.73
713.91	1648.61
714.10	1701.86
714.28	1765.35
714.46	1796.07
714.65	1740.77
714.83	1746.92
715.01	1730.53
715.19	1773.54
715.38	1650.66
715.56	1751.01
715.74	1636.33
715.92	1685.48
716.11	1708.01
716.29	1535.98
716.47	1718.25
716.65	1654.76
716.84	1654.76
717.02	1722.34
717.20	1628.14
717.38	1683.43
717.57	1652.71
717.75	1658.85
717.93	1630.18
718.11	1656.81
718.30	1599.46
718.48	1705.96
718.66	1853.41
718.84	1697.77
719.03	1701.86
719.21	1605.61
719.39	1724.39
719.57	1765.35
719.75	1810.40
719.94	1630.18
720.12	1689.57
720.30	1728.49
720.48	1703.91
720.67	1640.42
720.85	1613.80
721.03	1675.24
721.21	1593.32
721.39	1794.02
721.58	1716.20
721.76	1730.53
721.94	1724.39
722.12	1730.53
722.30	1810.40
722.49	1679.33
722.67	1673.19
722.85	1693.67
723.03	1603.56
723.21	1665.00
723.40	1673.19
723.58	1740.77
723.76	1730.53
723.94	1800.16
724.12	1683.43
724.30	1779.68
724.49	1755.11
724.67	1652.71
724.85	1791.97
725.03	1593.32
725.21	1708.01
725.40	1767.40
725.58	1703.91
725.76	1771.49
725.94	1769.44
726.12	1558.50
726.30	1763.30
726.49	1714.15
726.67	1705.96
726.85	1753.06
727.03	1781.73
727.21	2080.74
727.39	2828.24
727.57	3760.07
727.76	4224.96
727.94	4415.42
728.12	4339.65
728.30	3712.97
728.48	2932.69
728.66	2762.71
728.84	2469.85
729.03	2297.82
729.21	2142.18
729.39	1992.67
729.57	1865.70
729.75	1806.31
729.93	1779.68
730.11	1773.54
730.30	1648.61
730.48	1779.68
730.66	1728.49
730.84	1730.53
731.02	1712.10
731.20	1650.66
731.38	1660.90
731.56	1644.52
731.74	1603.56
731.93	1736.68
732.11	1652.71
732.29	1619.94
732.47	1708.01
732.65	1720.29
732.83	1791.97
733.01	1787.88
733.19	1689.57
733.37	1753.06
733.56	1775.59
733.74	1681.38
733.92	1705.96
734.10	1714.15
734.28	1710.05
734.46	1650.66
734.64	1673.19
734.82	1705.96
735.00	1665.00
735.18	1699.81
735.36	1751.01
735.54	1710.05
735.73	1654.76
735.91	1779.68
736.09	1699.81
736.27	1691.62
736.45	1687.53
736.63	1624.04
736.81	1626.09
736.99	1789.92
737.17	1798.12
737.35	1685.48
737.53	1685.48
737.71	1689.57
737.89	1796.07
738.07	1656.81
738.25	1648.61
738.43	1658.85
738.61	1574.89
738.80	1673.19
738.98	1662.95
739.16	1634.28
739.34	1628.14
739.52	1744.87
739.70	1665.00
739.88	1730.53
740.06	1761.25
740.24	1638.38
740.42	1730.53
740.60	1624.04
740.78	1648.61
740.96	1568.74
741.14	1652.71
741.32	1734.63
741.50	1656.81
741.68	1818.60
741.86	1732.58
742.04	1669.09
742.22	1691.62
742.40	1626.09
742.58	1701.86
742.76	1632.23
742.94	1722.34
743.12	1609.70
743.30	1683.43
743.48	1773.54
743.66	1650.66
743.84	1761.25
744.02	1636.33
744.20	1642.47
744.38	1611.75
744.56	1591.27
744.74	1708.01
744.92	1783.78
745.10	1748.97
745.28	1701.86
745.46	1734.63
745.64	1677.29
745.82	1753.06
746.00	1673.19
746.18	1771.49
746.36	1669.09
746.54	1742.82
746.72	1753.06
746.90	1689.57
747.08	1779.68
747.26	1726.44
747.44	1732.58
747.62	1771.49
747.80	1722.34
747.98	1693.67
748.15	1697.77
748.33	1857.51
748.51	1675.24
748.69	1773.54
748.87	1736.68
749.05	1683.43
749.23	1705.96
749.41	1783.78
749.59	1708.01
749.77	1734.63
749.95	1697.77
750.13	1638.38
750.31	1681.38
750.49	1650.66
750.67	1697.77
750.85	1759.21
751.03	1669.09
751.20	1794.02
751.38	1683.43
751.56	1658.85
751.74	1703.91
751.92	1693.67
752.10	1621.99
752.28	1789.92
752.46	1630.18
752.64	1695.72
752.82	1652.71
753.00	1708.01
753.18	1685.48
753.35	1642.47
753.53	1626.09
753.71	1660.90
753.89	1705.96
754.07	1630.18
754.25	1791.97
754.43	1736.68
754.61	1634.28
754.79	1714.15
754.97	1607.66
755.14	1880.04
755.32	1726.44
755.50	1777.64
755.68	1708.01
755.86	1708.01
756.04	1660.90
756.22	1621.99
756.40	1791.97
756.57	1822.69
756.75	1658.85
756.93	1787.88
757.11	1773.54
757.29	1638.38
757.47	1660.90
757.65	1574.89
757.82	1583.08
758.00	1673.19
758.18	1648.61
758.36	1724.39
758.54	1773.54
758.72	1671.14
758.90	1771.49
759.07	1691.62
759.25	1648.61
759.43	1757.16
759.61	1644.52
759.79	2199.52
759.97	1712.10
760.15	1681.38
760.32	1716.20
760.50	1705.96
760.68	1849.32
760.86	1658.85
761.04	1732.58
761.22	1812.45
761.39	1708.01
761.57	1742.82
761.75	1691.62
761.93	1714.15
762.11	1568.74
762.28	1753.06
762.46	1644.52
762.64	1794.02
762.82	1648.61
763.00	1730.53
763.18	1771.49
763.35	1619.94
763.53	1742.82
763.71	1697.77
763.89	1722.34
764.07	1751.01
764.24	1632.23
764.42	1681.38
764.60	1705.96
764.78	1710.05
764.96	1726.44
765.13	1699.81
765.31	1730.53
765.49	1732.58
765.67	1656.81
765.84	1640.42
766.02	1726.44
766.20	1624.04
766.38	1757.16
766.56	1705.96
766.73	1755.11
766.91	1697.77
767.09	1681.38
767.27	1697.77
767.44	1648.61
767.62	1722.34
767.80	1697.77
767.98	1708.01
768.15	1689.57
768.33	1736.68
768.51	1714.15
768.69	1753.06
768.87	1779.68
769.04	1734.63
769.22	1789.92
769.40	1800.16
769.58	1755.11
769.75	1673.19
769.93	1732.58
770.11	1742.82
770.28	1644.52
770.46	1665.00
770.64	1720.29
770.82	1703.91
770.99	1669.09
771.17	1716.20
771.35	1689.57
771.53	1748.97
771.70	1685.48
771.88	1703.91
772.06	1732.58
772.23	1675.24
772.41	1722.34
772.59	1669.09
772.77	1583.08
772.94	1652.71
773.12	1740.77
773.30	1624.04
773.47	1742.82
773.65	1736.68
773.83	1841.12
774.01	1718.25
774.18	1587.18
774.36	1654.76
774.54	1640.42
774.71	1800.16
774.89	1636.33
775.07	1656.81
775.24	1699.81
775.42	1675.24
775.60	1783.78
775.78	1667.05
775.95	1658.85
776.13	1624.04
776.31	1583.08
776.48	1736.68
776.66	1753.06
776.84	1677.29
777.01	1669.09
777.19	1646.57
777.37	1642.47
777.54	1720.29
777.72	1865.70
777.90	1769.44
778.07	1734.63
778.25	1873.89
778.43	1759.21
778.60	1654.76
778.78	1789.92
778.96	1740.77
779.13	1621.99
779.31	1718.25
779.49	1658.85
779.66	1665.00
779.84	1644.52
780.01	1697.77
780.19	1644.52
780.37	1669.09
780.54	1667.05
780.72	1705.96
780.90	1665.00
781.07	1677.29
781.25	1638.38
781.43	1755.11
781.60	1695.72
781.78	1751.01
781.95	1691.62
782.13	1615.85
782.31	1773.54
782.48	1603.56
782.66	1673.19
782.83	1771.49
783.01	1714.15
783.19	1751.01
783.36	1685.48
783.54	1699.81
783.72	1734.63
783.89	1601.51
784.07	1691.62
784.24	1699.81
784.42	1810.40
784.60	1724.39
784.77	1603.56
784.95	1564.65
785.12	1646.57
785.30	1665.00
785.47	1638.38
785.65	1671.14
785.83	1714.15
786.00	1630.18
786.18	1740.77
786.35	1617.90
786.53	1662.95
786.71	1812.45
786.88	1671.14
787.06	1687.53
787.23	1724.39
787.41	1607.66
787.58	1646.57
787.76	1687.53
787.94	1722.34
788.11	1619.94
788.29	1695.72
788.46	1712.10
788.64	1652.71
788.81	1617.90
788.99	1683.43
789.16	1607.66
789.34	1718.25
789.52	1640.42
789.69	1626.09
789.87	1568.74
790.04	1732.58
790.22	1671.14
790.39	1732.58
790.57	1587.18
790.74	1636.33
790.92	1634.28
791.09	1597.42
791.27	1603.56
791.44	1769.44
791.62	1710.05
791.79	1740.77
791.97	1689.57
792.15	1882.08
792.32	1802.21
792.50	1728.49
792.67	1761.25
792.85	1722.34
793.02	1695.72
793.20	1662.95
793.37	1572.84
793.55	1644.52
793.72	1578.98
793.90	1705.96
794.07	1562.60
794.25	1626.09
794.42	1685.48
794.60	1681.38
794.77	1722.34
794.95	1738.73
795.12	1738.73
795.30	1650.66
795.47	1644.52
795.65	1822.69
795.82	1683.43
796.00	1638.38
796.17	1667.05
796.34	1667.05
796.52	1677.29
796.69	1763.30
796.87	1742.82
797.04	1722.34
797.22	1658.85
797.39	1710.05
797.57	1710.05
797.74	1671.14
797.92	1689.57
798.09	1714.15
798.27	1753.06
798.44	1689.57
798.62	1662.95
798.79	1732.58
798.96	1662.95
799.14	1693.67
799.31	1830.88
799.49	1681.38
799.66	1712.10
799.84	1685.48
800.01	1558.50
800.19	1677.29
800.36	1593.32
800.53	1621.99
800.71	1689.57
800.88	1738.73
801.06	1636.33
801.23	1626.09
801.41	1683.43
801.58	1683.43
801.75	1607.66
801.93	1660.90
802.10	1771.49
802.28	1718.25
802.45	1710.05
802.63	1800.16
802.80	1818.60
802.97	1695.72
803.15	1742.82
803.32	1667.05
803.50	1621.99
803.67	1681.38
803.84	1583.08
804.02	1726.44
804.19	1640.42
804.37	1626.09
804.54	1585.13
804.71	1652.71
804.89	1648.61
805.06	1681.38
805.24	1636.33
805.41	1677.29
805.58	1574.89
805.76	1865.70
805.93	1681.38
806.10	1781.73
806.28	1800.16
806.45	1703.91
806.63	1667.05
806.80	1767.40
806.97	1736.68
807.15	1705.96
807.32	1679.33
807.49	1703.91
807.67	1662.95
807.84	1753.06
808.01	1630.18
808.19	1777.64
808.36	1843.17
808.54	1636.33
808.71	1587.18
808.88	1732.58
809.06	1593.32
809.23	1742.82
809.40	1689.57
809.58	1837.03
809.75	1617.90
809.92	1638.38
810.10	1763.30
810.27	1665.00
810.44	1742.82
810.62	1703.91
810.79	1708.01
810.96	1677.29
811.14	1652.71
811.31	1777.64
811.48	1753.06
811.66	1728.49
811.83	1665.00
812.00	1681.38
812.18	1718.25
812.35	1796.07
812.52	1695.72
812.69	1658.85
812.87	1630.18
813.04	1626.09
813.21	1677.29
813.39	1685.48
813.56	1589.22
813.73	1789.92
813.91	1646.57
814.08	1689.57
814.25	1638.38
814.42	1634.28
814.60	1699.81
814.77	1689.57
814.94	1660.90
815.12	1710.05
815.29	1746.92
815.46	1699.81
815.63	1652.71
815.81	1677.29
815.98	1701.86
816.15	1791.97
816.33	1656.81
816.50	1648.61
816.67	1656.81
816.84	1738.73
817.02	1624.04
817.19	1705.96
817.36	1779.68
817.53	1699.81
817.71	1609.70
817.88	1755.11
818.05	1583.08
818.22	1646.57
818.40	1822.69
818.57	1697.77
818.74	1705.96
818.91	1677.29
819.09	1794.02
819.26	1742.82
819.43	1718.25
819.60	1687.53
819.78	1705.96
819.95	1822.69
820.12	1675.24
820.29	1755.11
820.47	1722.34
820.64	1693.67
820.81	1642.47
820.98	1613.80
821.15	1730.53
821.33	1677.29
821.50	1566.70
821.67	1599.46
821.84	1644.52
822.02	1716.20
822.19	1738.73
822.36	1675.24
822.53	1656.81
822.70	1570.79
822.88	1665.00
823.05	1828.84
823.22	1687.53
823.39	1685.48
823.56	1650.66
823.74	1757.16
823.91	1687.53
824.08	1646.57
824.25	1660.90
824.42	1779.68
824.60	1652.71
824.77	1689.57
824.94	1693.67
825.11	1738.73
825.28	1574.89
825.45	1685.48
825.63	1652.71
825.80	1656.81
825.97	1732.58
826.14	1701.86
826.31	1632.23
826.48	1726.44
826.66	1634.28
826.83	1628.14
827.00	1683.43
827.17	1669.09
827.34	1710.05
827.51	1624.04
827.69	1740.77
827.86	1662.95
828.03	1718.25
828.20	1716.20
828.37	1738.73
828.54	1759.21
828.71	1669.09
828.89	1781.73
829.06	1665.00
829.23	1724.39
829.40	1665.00
829.57	1708.01
829.74	1773.54
829.91	1716.20
830.09	1628.14
830.26	1787.88
830.43	1742.82
830.60	1671.14
830.77	1740.77
830.94	1798.12
831.11	1724.39
831.28	1628.14
831.46	1755.11
831.63	1714.15
831.80	1742.82
831.97	1652.71
832.14	1652.71
832.31	1751.01
832.48	1714.15
832.65	1753.06
832.82	1708.01
832.99	1710.05
833.17	1636.33
833.34	1720.29
833.51	1810.40
833.68	1566.70
833.85	1767.40
834.02	1718.25
834.19	1605.61
834.36	1689.57
834.53	1740.77
834.70	1794.02
834.87	1720.29
835.04	1794.02
835.22	1638.38
835.39	1748.97
835.56	1619.94
835.73	1660.90
835.90	1769.44
836.07	1671.14
836.24	1710.05
836.41	1603.56
836.58	1691.62
836.75	1673.19
836.92	1724.39
837.09	1607.66
837.26	1732.58
837.43	1751.01
837.60	1730.53
837.77	1669.09
837.94	1714.15
838.12	1787.88
838.29	1658.85
838.46	1611.75
838.63	1654.76
838.80	1734.63
838.97	1757.16
839.14	1662.95
839.31	1757.16
839.48	1687.53
839.65	1654.76
839.82	1757.16
839.99	1710.05
840.16	1685.48
840.33	1638.38
840.50	1699.81
840.67	1687.53
840.84	1505.26
841.01	1730.53
841.18	1693.67
841.35	1671.14
841.52	1703.91
841.69	1824.74
841.86	1703.91
842.03	1734.63
842.20	1705.96
842.37	1708.01
842.54	1724.39
842.71	1710.05
842.88	1619.94
843.05	1732.58
843.22	1689.57
843.39	1798.12
843.56	1681.38
843.73	1677.29
843.90	1677.29
844.07	1703.91
844.24	1732.58
844.41	1726.44
844.58	1644.52
844.75	1726.44
844.92	1757.16
845.09	1665.00
845.26	1621.99
845.43	1730.53
845.60	1609.70
845.77	1652.71
845.94	1693.67
846.10	1732.58
846.27	1603.56
846.44	1646.57
846.61	1615.85
846.78	1765.35
846.95	1791.97
847.12	1675.24
847.29	1757.16
847.46	1630.18
847.63	1718.25
847.80	1681.38
847.97	1673.19
848.14	1810.40
848.31	1613.80
848.48	1519.59
848.65	1695.72
848.82	1644.52
848.98	1828.84
849.15	1755.11
849.32	1791.97
849.49	1693.67
849.66	1695.72
849.83	1728.49
850.00	1603.56
850.17	1701.86
850.34	1626.09
850.51	1640.42
850.68	1673.19
850.85	1773.54
851.01	1701.86
851.18	1769.44
851.35	1708.01
851.52	1708.01
851.69	1830.88
851.86	1650.66
852.03	1718.25
852.20	1740.77
852.37	1671.14
852.53	1669.09
852.70	1705.96
852.87	1722.34
853.04	1730.53
853.21	1722.34
853.38	1697.77
853.55	1791.97
853.72	1822.69
853.89	1640.42
854.05	1648.61
854.22	1650.66
854.39	1648.61
854.56	1718.25
854.73	1791.97
854.90	1595.37
855.07	1714.15
855.23	1644.52
855.40	1681.38
855.57	1648.61
855.74	1611.75
855.91	1914.85
856.08	1650.66
856.25	1607.66
856.41	1644.52
856.58	1656.81
856.75	1675.24
856.92	1609.70
857.09	1753.06
857.26	1693.67
857.42	1685.48
857.59	1757.16
857.76	1650.66
857.93	1765.35
858.10	1656.81
858.27	1636.33
858.43	1744.87
858.60	1568.74
858.77	1675.24
858.94	1662.95
859.11	1763.30
859.27	1691.62
859.44	1652.71
859.61	1740.77
859.78	1681.38
859.95	1675.24
860.12	1695.72
860.28	1785.83
860.45	1728.49
860.62	1705.96
860.79	1753.06
860.95	1642.47
861.12	1581.03
861.29	1665.00
861.46	1624.04
861.63	1695.72
861.79	1763.30
861.96	1695.72
862.13	1658.85
862.30	1767.40
862.47	1697.77
862.63	1695.72
862.80	1789.92
862.97	1798.12
863.14	1746.92
863.30	1703.91
863.47	1652.71
863.64	1705.96
863.81	1693.67
863.97	1726.44
864.14	1712.10
864.31	1624.04
864.48	1767.40
864.65	1660.90
864.81	1687.53
864.98	1724.39
865.15	1740.77
865.32	1642.47
865.48	1800.16
865.65	1748.97
865.82	1697.77
865.98	1738.73
866.15	1751.01
866.32	1736.68
866.49	1619.94
866.65	1650.66
866.82	1640.42
866.99	1673.19
867.16	1685.48
867.32	1644.52
867.49	1746.92
867.66	1681.38
867.83	1636.33
867.99	1628.14
868.16	1714.15
868.33	1673.19
868.49	1753.06
868.66	1697.77
868.83	1681.38
868.99	1771.49
869.16	1718.25
869.33	1736.68
869.50	1748.97
869.66	1730.53
869.83	1624.04
870.00	1624.04
870.16	1654.76
870.33	1675.24
870.50	1665.00
870.66	1650.66
870.83	1798.12
871.00	1705.96
871.17	1662.95
871.33	1738.73
871.50	1656.81
871.67	1710.05
871.83	1611.75
872.00	1820.64
872.17	1722.34
872.33	1787.88
872.50	1685.48
872.67	1701.86
872.83	1685.48
873.00	1665.00
873.17	1699.81
873.33	1742.82
873.50	1757.16
873.67	1658.85
873.83	1597.42
874.00	1650.66
874.16	1751.01
874.33	1730.53
874.50	1574.89
874.66	1736.68
874.83	1746.92
875.00	1712.10
875.16	1765.35
875.33	1820.64
875.50	1605.61
875.66	1640.42
875.83	1746.92
875.99	1636.33
876.16	1689.57
876.33	1675.24
876.49	1693.67
876.66	1697.77
876.83	1681.38
876.99	1660.90
877.16	1714.15
877.32	1652.71
877.49	1626.09
877.66	1722.34
877.82	1865.70
877.99	1751.01
878.15	1746.92
878.32	1703.91
878.49	1714.15
878.65	1679.33
878.82	1744.87
878.98	1654.76
879.15	1746.92
879.32	1755.11
879.48	1732.58
879.65	1615.85
879.81	1662.95
879.98	1683.43
880.15	1689.57
880.31	1736.68
880.48	1640.42
880.64	1814.50
880.81	1746.92
880.97	1775.59
881.14	1720.29
881.31	1632.23
881.47	1785.83
881.64	1595.37
881.80	1585.13
881.97	1671.14
882.13	1816.55
882.30	1607.66
882.47	1701.86
882.63	1609.70
882.80	1632.23
882.96	1558.50
883.13	1755.11
883.29	1765.35
883.46	1648.61
883.62	1828.84
883.79	1763.30
883.95	1734.63
884.12	1662.95
884.29	1671.14
884.45	1736.68
884.62	1699.81
884.78	1595.37
884.95	1785.83
885.11	1591.27
885.28	1681.38
885.44	1652.71
885.61	1658.85
885.77	1687.53
885.94	1701.86
886.10	1615.85
886.27	1724.39
886.43	1808.36
886.60	1779.68
886.76	1648.61
886.93	1646.57
887.09	1650.66
887.26	1613.80
887.42	1693.67
887.59	1767.40
887.75	1748.97
887.92	1708.01
888.08	1728.49
888.25	1703.91
888.41	1818.60
888.58	1773.54
888.74	1615.85
888.91	1681.38
>>>>>End Processed Spectral Data<<<<<
