SpectraSuite Data File
++++++++++++++++++++++++++++++++++++
Date: Mon Jun 06 13:11:37 CEST 2016
User: root
Dark Spectrum Present: No
Reference Spectrum Present: No
Number of Sampled Component Spectra: 1
Spectrometers: USB4C02835
Integration Time (usec): 100000 (USB4C02835)
Spectra Averaged: 1 (USB4C02835)
Boxcar Smoothing: 0 (USB4C02835)
Correct for Electrical Dark: No (USB4C02835)
Strobe/Lamp Enabled: No (USB4C02835)
Correct for Detector Non-linearity: No (USB4C02835)
Correct for Stray Light: No (USB4C02835)
Number of Pixels in Processed Spectrum: 3648
>>>>>Begin Processed Spectral Data<<<<<
177.47	1505.26
177.69	1505.26
177.91	1505.26
178.13	1447.91
178.36	1476.59
178.58	1675.24
178.80	1757.16
179.02	1656.81
179.24	1624.04
179.46	1693.67
179.68	1748.97
179.90	1751.01
180.13	1810.40
180.35	1636.33
180.57	1683.43
180.79	1728.49
181.01	1738.73
181.23	1779.68
181.45	1765.35
181.67	1802.21
181.90	1755.11
182.12	1603.56
182.34	1624.04
182.56	1787.88
182.78	1716.20
183.00	1722.34
183.22	1742.82
183.44	1591.27
183.66	1863.65
183.89	1742.82
184.11	1751.01
184.33	1712.10
184.55	1763.30
184.77	1718.25
184.99	1701.86
185.21	1718.25
185.43	1882.08
185.65	1730.53
185.87	1771.49
186.10	1740.77
186.32	1894.37
186.54	1746.92
186.76	1800.16
186.98	1728.49
187.20	1665.00
187.42	1701.86
187.64	1714.15
187.86	1703.91
188.08	1751.01
188.30	1697.77
188.52	1667.05
188.75	1738.73
188.97	1765.35
189.19	1710.05
189.41	1677.29
189.63	1730.53
189.85	1640.42
190.07	1624.04
190.29	1660.90
190.51	1695.72
190.73	1587.18
190.95	1798.12
191.17	1695.72
191.39	1566.70
191.61	1660.90
191.84	1644.52
192.06	1761.25
192.28	1652.71
192.50	1865.70
192.72	1740.77
192.94	1662.95
193.16	1738.73
193.38	1728.49
193.60	1695.72
193.82	1701.86
194.04	1769.44
194.26	1697.77
194.48	1714.15
194.70	1648.61
194.92	1718.25
195.14	1679.33
195.36	1703.91
195.58	1718.25
195.80	1714.15
196.02	1619.94
196.24	1718.25
196.46	1734.63
196.69	1685.48
196.91	1775.59
197.13	1695.72
197.35	1738.73
197.57	1734.63
197.79	1724.39
198.01	1726.44
198.23	1767.40
198.45	1714.15
198.67	1595.37
198.89	1724.39
199.11	1738.73
199.33	1644.52
199.55	1611.75
199.77	1710.05
199.99	1787.88
200.21	1624.04
200.43	1712.10
200.65	1615.85
200.87	1554.41
201.09	1578.98
201.31	1738.73
201.53	1777.64
201.75	1757.16
201.97	1658.85
202.19	1728.49
202.41	1751.01
202.63	1820.64
202.85	1701.86
203.07	1656.81
203.29	1738.73
203.51	1624.04
203.73	1654.76
203.95	1841.12
204.17	1755.11
204.39	1748.97
204.61	1628.14
204.83	1660.90
205.05	1777.64
205.27	1683.43
205.49	1810.40
205.71	1658.85
205.93	1656.81
206.15	1656.81
206.37	1673.19
206.59	1626.09
206.81	1644.52
207.03	1669.09
207.25	1632.23
207.47	1718.25
207.69	1703.91
207.91	1812.45
208.13	1763.30
208.34	1718.25
208.56	1615.85
208.78	1759.21
209.00	1753.06
209.22	1650.66
209.44	1615.85
209.66	1677.29
209.88	1654.76
210.10	1681.38
210.32	1603.56
210.54	1785.83
210.76	1718.25
210.98	1751.01
211.20	1515.50
211.42	1714.15
211.64	1718.25
211.86	1726.44
212.08	1712.10
212.30	1636.33
212.52	1679.33
212.74	1751.01
212.96	1714.15
213.17	1738.73
213.39	1695.72
213.61	1814.50
213.83	1822.69
214.05	1644.52
214.27	1699.81
214.49	1617.90
214.71	1648.61
214.93	1736.68
215.15	1642.47
215.37	1714.15
215.59	1636.33
215.81	1812.45
216.03	1791.97
216.24	1703.91
216.46	1638.38
216.68	1730.53
216.90	1777.64
217.12	1755.11
217.34	1710.05
217.56	1740.77
217.78	1822.69
218.00	1710.05
218.22	1693.67
218.44	1685.48
218.66	1681.38
218.87	1796.07
219.09	1652.71
219.31	1789.92
219.53	1693.67
219.75	1660.90
219.97	1677.29
220.19	1751.01
220.41	1665.00
220.63	1824.74
220.85	1718.25
221.06	1671.14
221.28	1769.44
221.50	1812.45
221.72	1716.20
221.94	1638.38
222.16	1665.00
222.38	1652.71
222.60	1787.88
222.82	1626.09
223.03	1675.24
223.25	1638.38
223.47	1746.92
223.69	1781.73
223.91	1740.77
224.13	1699.81
224.35	1669.09
224.57	1746.92
224.78	1761.25
225.00	1665.00
225.22	1740.77
225.44	1665.00
225.66	1685.48
225.88	1660.90
226.10	1781.73
226.32	1777.64
226.53	1783.78
226.75	1718.25
226.97	1746.92
227.19	1695.72
227.41	1757.16
227.63	1611.75
227.85	1570.79
228.06	1660.90
228.28	1699.81
228.50	1779.68
228.72	1648.61
228.94	1628.14
229.16	1570.79
229.37	1642.47
229.59	1613.80
229.81	1837.03
230.03	1621.99
230.25	1619.94
230.47	1599.46
230.69	1624.04
230.90	1714.15
231.12	1708.01
231.34	1736.68
231.56	1667.05
231.78	1605.61
232.00	1714.15
232.21	1697.77
232.43	1671.14
232.65	1636.33
232.87	1705.96
233.09	1650.66
233.30	1685.48
233.52	1628.14
233.74	1693.67
233.96	1714.15
234.18	1660.90
234.40	1699.81
234.61	1787.88
234.83	1628.14
235.05	1613.80
235.27	1869.80
235.49	1748.97
235.70	1640.42
235.92	1816.55
236.14	1720.29
236.36	1800.16
236.58	1656.81
236.79	1746.92
237.01	1751.01
237.23	1687.53
237.45	1812.45
237.67	1675.24
237.88	1695.72
238.10	1832.93
238.32	1615.85
238.54	1716.20
238.76	1675.24
238.97	1671.14
239.19	1677.29
239.41	1685.48
239.63	1814.50
239.85	1699.81
240.06	1697.77
240.28	1673.19
240.50	1742.82
240.72	1628.14
240.93	1695.72
241.15	1783.78
241.37	1734.63
241.59	1783.78
241.81	1665.00
242.02	1675.24
242.24	1705.96
242.46	1738.73
242.68	1722.34
242.89	1695.72
243.11	1736.68
243.33	1742.82
243.55	1714.15
243.76	1755.11
243.98	1660.90
244.20	1693.67
244.42	1736.68
244.64	1724.39
244.85	1656.81
245.07	1650.66
245.29	1804.26
245.51	1687.53
245.72	1638.38
245.94	1765.35
246.16	1730.53
246.38	1714.15
246.59	1634.28
246.81	1677.29
247.03	1726.44
247.24	1650.66
247.46	1669.09
247.68	1652.71
247.90	1701.86
248.11	1642.47
248.33	1734.63
248.55	1673.19
248.77	1722.34
248.98	1794.02
249.20	1761.25
249.42	1765.35
249.64	1742.82
249.85	1746.92
250.07	1677.29
250.29	1691.62
250.50	1699.81
250.72	1562.60
250.94	1665.00
251.16	1822.69
251.37	1781.73
251.59	1634.28
251.81	1748.97
252.02	1808.36
252.24	1665.00
252.46	1710.05
252.68	1691.62
252.89	1693.67
253.11	1617.90
253.33	1800.16
253.54	1796.07
253.76	1626.09
253.98	1644.52
254.20	1669.09
254.41	1613.80
254.63	1710.05
254.85	1710.05
255.06	1701.86
255.28	1734.63
255.50	1671.14
255.71	1683.43
255.93	1630.18
256.15	1673.19
256.36	1677.29
256.58	1701.86
256.80	1738.73
257.02	1662.95
257.23	1675.24
257.45	1705.96
257.67	1794.02
257.88	1681.38
258.10	1742.82
258.32	1640.42
258.53	1748.97
258.75	1814.50
258.97	1675.24
259.18	1703.91
259.40	1662.95
259.62	1812.45
259.83	1728.49
260.05	1693.67
260.27	1976.29
260.48	1748.97
260.70	1574.89
260.92	1636.33
261.13	1724.39
261.35	1712.10
261.57	1734.63
261.78	1669.09
262.00	1701.86
262.22	1673.19
262.43	1677.29
262.65	1708.01
262.86	1824.74
263.08	1787.88
263.30	1648.61
263.51	1673.19
263.73	1667.05
263.95	1716.20
264.16	1626.09
264.38	1683.43
264.60	1765.35
264.81	1722.34
265.03	1687.53
265.25	1701.86
265.46	1689.57
265.68	1767.40
265.89	1796.07
266.11	1630.18
266.33	1714.15
266.54	1759.21
266.76	1783.78
266.98	1693.67
267.19	1785.83
267.41	1767.40
267.62	1675.24
267.84	1701.86
268.06	1683.43
268.27	1673.19
268.49	1732.58
268.70	1748.97
268.92	1636.33
269.14	1634.28
269.35	1615.85
269.57	1638.38
269.79	1730.53
270.00	1593.32
270.22	1751.01
270.43	1669.09
270.65	1617.90
270.87	1677.29
271.08	1699.81
271.30	1744.87
271.51	1697.77
271.73	1599.46
271.95	1767.40
272.16	1705.96
272.38	1669.09
272.59	1693.67
272.81	1679.33
273.02	1732.58
273.24	1634.28
273.46	1800.16
273.67	1689.57
273.89	1673.19
274.10	1697.77
274.32	1779.68
274.54	1667.05
274.75	1714.15
274.97	1648.61
275.18	1734.63
275.40	1744.87
275.61	1665.00
275.83	1665.00
276.05	1677.29
276.26	1677.29
276.48	1710.05
276.69	1708.01
276.91	1705.96
277.12	1720.29
277.34	1720.29
277.55	1769.44
277.77	1738.73
277.99	1779.68
278.20	1619.94
278.42	1681.38
278.63	1609.70
278.85	1619.94
279.06	1640.42
279.28	1689.57
279.49	1783.78
279.71	1728.49
279.93	1712.10
280.14	1687.53
280.36	1595.37
280.57	1679.33
280.79	1787.88
281.00	1689.57
281.22	1619.94
281.43	1779.68
281.65	1603.56
281.86	1652.71
282.08	1677.29
282.29	1796.07
282.51	1671.14
282.73	1636.33
282.94	1654.76
283.16	1806.31
283.37	1781.73
283.59	1738.73
283.80	1742.82
284.02	1681.38
284.23	1771.49
284.45	1675.24
284.66	1654.76
284.88	1607.66
285.09	1669.09
285.31	1708.01
285.52	1722.34
285.74	1619.94
285.95	1718.25
286.17	1724.39
286.38	1742.82
286.60	1652.71
286.81	1699.81
287.03	1615.85
287.24	1632.23
287.46	1693.67
287.67	1708.01
287.89	1816.55
288.10	1681.38
288.32	1728.49
288.53	1767.40
288.75	1658.85
288.96	1712.10
289.18	1716.20
289.39	1673.19
289.61	1624.04
289.82	1861.60
290.04	1783.78
290.25	1617.90
290.47	1691.62
290.68	1632.23
290.90	1759.21
291.11	1650.66
291.33	1722.34
291.54	1681.38
291.76	1681.38
291.97	1730.53
292.18	1703.91
292.40	1687.53
292.61	1636.33
292.83	1798.12
293.04	1718.25
293.26	1662.95
293.47	1710.05
293.69	1714.15
293.90	1693.67
294.12	1740.77
294.33	1687.53
294.55	1675.24
294.76	1748.97
294.97	1734.63
295.19	1847.27
295.40	1708.01
295.62	1691.62
295.83	1859.56
296.05	1662.95
296.26	1738.73
296.48	1642.47
296.69	1701.86
296.90	1675.24
297.12	1791.97
297.33	1806.31
297.55	1703.91
297.76	1744.87
297.98	1748.97
298.19	1691.62
298.41	1718.25
298.62	1671.14
298.83	1800.16
299.05	1691.62
299.26	1687.53
299.48	1650.66
299.69	1691.62
299.90	1714.15
300.12	1595.37
300.33	1740.77
300.55	1658.85
300.76	1759.21
300.98	1609.70
301.19	1654.76
301.40	1726.44
301.62	1693.67
301.83	1712.10
302.05	1681.38
302.26	1681.38
302.47	1671.14
302.69	1695.72
302.90	1720.29
303.12	1593.32
303.33	1781.73
303.54	1759.21
303.76	1632.23
303.97	1718.25
304.19	1863.65
304.40	1701.86
304.61	1699.81
304.83	1794.02
305.04	1781.73
305.26	1736.68
305.47	1597.42
305.68	1732.58
305.90	1634.28
306.11	1726.44
306.33	1673.19
306.54	1628.14
306.75	1720.29
306.97	1558.50
307.18	1638.38
307.39	1662.95
307.61	1748.97
307.82	1683.43
308.04	1714.15
308.25	1617.90
308.46	1685.48
308.68	1708.01
308.89	1734.63
309.10	1769.44
309.32	1746.92
309.53	1691.62
309.74	1722.34
309.96	1662.95
310.17	1740.77
310.39	1624.04
310.60	1673.19
310.81	1662.95
311.03	1595.37
311.24	1769.44
311.45	1679.33
311.67	1808.36
311.88	1783.78
312.09	1617.90
312.31	1644.52
312.52	1693.67
312.73	1701.86
312.95	1677.29
313.16	1730.53
313.37	1695.72
313.59	1775.59
313.80	1724.39
314.01	1789.92
314.23	1728.49
314.44	1578.98
314.65	1581.03
314.87	1642.47
315.08	1630.18
315.29	1757.16
315.51	1691.62
315.72	1646.57
315.93	1781.73
316.15	1779.68
316.36	1656.81
316.57	1697.77
316.79	1740.77
317.00	1650.66
317.21	1695.72
317.43	1724.39
317.64	1712.10
317.85	1679.33
318.07	1689.57
318.28	1701.86
318.49	1787.88
318.70	1910.75
318.92	1806.31
319.13	1771.49
319.34	1820.64
319.56	1824.74
319.77	1818.60
319.98	1820.64
320.20	1771.49
320.41	1724.39
320.62	1755.11
320.83	1628.14
321.05	1867.75
321.26	1685.48
321.47	1640.42
321.69	1724.39
321.90	1558.50
322.11	1681.38
322.32	1703.91
322.54	1789.92
322.75	1656.81
322.96	1785.83
323.18	1583.08
323.39	1585.13
323.60	1697.77
323.81	1771.49
324.03	1640.42
324.24	1660.90
324.45	1732.58
324.66	1634.28
324.88	1800.16
325.09	1781.73
325.30	1726.44
325.52	1738.73
325.73	1730.53
325.94	1681.38
326.15	1572.84
326.37	1697.77
326.58	1728.49
326.79	1734.63
327.00	1701.86
327.22	1699.81
327.43	1665.00
327.64	1724.39
327.85	1708.01
328.07	1785.83
328.28	1779.68
328.49	1648.61
328.70	1669.09
328.92	1746.92
329.13	1669.09
329.34	1708.01
329.55	1724.39
329.76	1744.87
329.98	1740.77
330.19	1751.01
330.40	1695.72
330.61	1714.15
330.83	1757.16
331.04	1685.48
331.25	1693.67
331.46	1624.04
331.68	1591.27
331.89	1787.88
332.10	1697.77
332.31	1628.14
332.52	1689.57
332.74	1742.82
332.95	1603.56
333.16	1705.96
333.37	1730.53
333.58	1673.19
333.80	1720.29
334.01	1538.02
334.22	1683.43
334.43	1656.81
334.64	1665.00
334.86	1673.19
335.07	1638.38
335.28	1810.40
335.49	1660.90
335.70	1708.01
335.92	1732.58
336.13	1839.08
336.34	1632.23
336.55	1621.99
336.76	1689.57
336.98	1597.42
337.19	1783.78
337.40	1839.08
337.61	1882.08
337.82	1617.90
338.04	1748.97
338.25	1636.33
338.46	1667.05
338.67	1665.00
338.88	1697.77
339.09	1646.57
339.31	1675.24
339.52	1648.61
339.73	1695.72
339.94	1667.05
340.15	1763.30
340.36	1642.47
340.58	1683.43
340.79	1705.96
341.00	1724.39
341.21	1581.03
341.42	1787.88
341.63	1701.86
341.85	1662.95
342.06	1742.82
342.27	1570.79
342.48	1746.92
342.69	1550.31
342.90	1748.97
343.12	1718.25
343.33	1689.57
343.54	1736.68
343.75	1740.77
343.96	1757.16
344.17	1591.27
344.38	1677.29
344.60	1687.53
344.81	1673.19
345.02	1685.48
345.23	1767.40
345.44	1755.11
345.65	1837.03
345.86	1751.01
346.07	1734.63
346.29	1685.48
346.50	1705.96
346.71	1691.62
346.92	1773.54
347.13	1736.68
347.34	1665.00
347.55	1683.43
347.76	1687.53
347.98	1646.57
348.19	1648.61
348.40	1763.30
348.61	1683.43
348.82	1787.88
349.03	1722.34
349.24	1615.85
349.45	1771.49
349.66	1591.27
349.88	1665.00
350.09	1691.62
350.30	1757.16
350.51	1675.24
350.72	1712.10
350.93	1673.19
351.14	1675.24
351.35	1785.83
351.56	1671.14
351.77	1736.68
351.99	1710.05
352.20	1783.78
352.41	1843.17
352.62	1578.98
352.83	1683.43
353.04	1665.00
353.25	1716.20
353.46	1677.29
353.67	1800.16
353.88	1652.71
354.09	1652.71
354.30	1765.35
354.52	1683.43
354.73	1697.77
354.94	1642.47
355.15	1714.15
355.36	1808.36
355.57	1675.24
355.78	1738.73
355.99	1708.01
356.20	1613.80
356.41	1757.16
356.62	1728.49
356.83	1710.05
357.04	1775.59
357.25	1669.09
357.46	1660.90
357.68	1624.04
357.89	1703.91
358.10	1708.01
358.31	1693.67
358.52	1685.48
358.73	1613.80
358.94	1712.10
359.15	1710.05
359.36	1746.92
359.57	1722.34
359.78	1648.61
359.99	1724.39
360.20	1611.75
360.41	1632.23
360.62	1691.62
360.83	1671.14
361.04	1699.81
361.25	1740.77
361.46	1806.31
361.67	1683.43
361.88	1689.57
362.09	1726.44
362.30	1693.67
362.51	1638.38
362.72	1699.81
362.93	1804.26
363.14	1712.10
363.35	1759.21
363.56	1660.90
363.78	1716.20
363.99	1736.68
364.20	1607.66
364.41	1695.72
364.62	1853.41
364.83	1710.05
365.04	1708.01
365.25	1587.18
365.46	1787.88
365.67	1619.94
365.88	1572.84
366.09	1685.48
366.30	1658.85
366.51	1710.05
366.72	1621.99
366.93	1617.90
367.14	1677.29
367.35	1775.59
367.56	1708.01
367.77	1767.40
367.98	1607.66
368.18	1736.68
368.39	1705.96
368.60	1599.46
368.81	1837.03
369.02	1685.48
369.23	1734.63
369.44	1609.70
369.65	1601.51
369.86	1718.25
370.07	1763.30
370.28	1603.56
370.49	1683.43
370.70	1738.73
370.91	1677.29
371.12	1585.13
371.33	1722.34
371.54	1724.39
371.75	1779.68
371.96	1556.46
372.17	1691.62
372.38	1654.76
372.59	1724.39
372.80	1644.52
373.01	1644.52
373.22	1681.38
373.43	1701.86
373.64	1689.57
373.85	1843.17
374.06	1785.83
374.26	1740.77
374.47	1775.59
374.68	1716.20
374.89	1732.58
375.10	1699.81
375.31	1734.63
375.52	1765.35
375.73	1716.20
375.94	1662.95
376.15	1771.49
376.36	1669.09
376.57	1589.22
376.78	1757.16
376.99	1716.20
377.20	1789.92
377.40	1636.33
377.61	1699.81
377.82	1673.19
378.03	1734.63
378.24	1716.20
378.45	1648.61
378.66	1716.20
378.87	1650.66
379.08	1632.23
379.29	1615.85
379.50	1667.05
379.71	1671.14
379.91	1701.86
380.12	1734.63
380.33	1662.95
380.54	1732.58
380.75	1660.90
380.96	1720.29
381.17	1765.35
381.38	1681.38
381.59	1771.49
381.80	1794.02
382.00	1751.01
382.21	1683.43
382.42	1832.93
382.63	1892.32
382.84	1771.49
383.05	1755.11
383.26	1789.92
383.47	1646.57
383.68	1867.75
383.88	1699.81
384.09	1683.43
384.30	1746.92
384.51	1693.67
384.72	1660.90
384.93	1673.19
385.14	1660.90
385.35	1751.01
385.55	1615.85
385.76	1771.49
385.97	1746.92
386.18	1621.99
386.39	1753.06
386.60	1671.14
386.81	1689.57
387.02	1691.62
387.22	1652.71
387.43	1724.39
387.64	1781.73
387.85	1853.41
388.06	2172.89
388.27	4427.71
388.48	6746.01
388.68	8243.07
388.89	9604.97
389.10	9893.74
389.31	8566.65
389.52	7606.16
389.73	6789.02
389.93	6426.53
390.14	5922.73
390.35	5234.61
390.56	4554.68
390.77	3786.69
390.98	2990.03
391.18	2602.97
391.39	2127.84
391.60	1822.69
391.81	1820.64
392.02	1777.64
392.23	1826.79
392.43	1765.35
392.64	1800.16
392.85	1681.38
393.06	1898.47
393.27	1679.33
393.47	1677.29
393.68	1703.91
393.89	1714.15
394.10	1775.59
394.31	1667.05
394.52	1697.77
394.72	1675.24
394.93	1818.60
395.14	1621.99
395.35	1726.44
395.56	1679.33
395.76	1740.77
395.97	1816.55
396.18	1814.50
396.39	1806.31
396.60	1931.23
396.80	1904.61
397.01	1826.79
397.22	1826.79
397.43	1845.22
397.64	1687.53
397.84	1763.30
398.05	1837.03
398.26	1746.92
398.47	1767.40
398.67	1796.07
398.88	1742.82
399.09	1806.31
399.30	1648.61
399.51	1742.82
399.71	1732.58
399.92	1742.82
400.13	1800.16
400.34	1685.48
400.54	1716.20
400.75	1730.53
400.96	1628.14
401.17	1724.39
401.37	1720.29
401.58	1644.52
401.79	1730.53
402.00	1839.08
402.21	1929.19
402.41	1986.53
402.62	2041.82
402.83	1980.39
403.04	2004.96
403.24	2082.78
403.45	1812.45
403.66	1896.42
403.87	1892.32
404.07	1906.66
404.28	1910.75
404.49	1837.03
404.70	1724.39
404.90	1779.68
405.11	1777.64
405.32	1718.25
405.52	1738.73
405.73	1740.77
405.94	1646.57
406.15	1681.38
406.35	1740.77
406.56	1710.05
406.77	1796.07
406.98	1734.63
407.18	1638.38
407.39	1738.73
407.60	1712.10
407.80	1712.10
408.01	1667.05
408.22	1742.82
408.43	1681.38
408.63	1740.77
408.84	1671.14
409.05	1722.34
409.25	1679.33
409.46	1587.18
409.67	1724.39
409.88	1624.04
410.08	1683.43
410.29	1673.19
410.50	1728.49
410.70	1783.78
410.91	1648.61
411.12	1687.53
411.32	1679.33
411.53	1628.14
411.74	1763.30
411.95	1822.69
412.15	1730.53
412.36	1826.79
412.57	1767.40
412.77	1705.96
412.98	1712.10
413.19	1736.68
413.39	1701.86
413.60	1804.26
413.81	1724.39
414.01	1601.51
414.22	1775.59
414.43	1738.73
414.63	1740.77
414.84	1730.53
415.05	1720.29
415.25	1656.81
415.46	1746.92
415.67	1593.32
415.87	1650.66
416.08	1632.23
416.29	1697.77
416.49	1714.15
416.70	1603.56
416.91	1697.77
417.11	1730.53
417.32	1753.06
417.53	1759.21
417.73	1671.14
417.94	1753.06
418.15	1730.53
418.35	1705.96
418.56	1718.25
418.77	1863.65
418.97	1673.19
419.18	1718.25
419.38	1587.18
419.59	1726.44
419.80	1789.92
420.00	1699.81
420.21	1689.57
420.42	1804.26
420.62	1738.73
420.83	1644.52
421.04	1751.01
421.24	1665.00
421.45	1722.34
421.65	1736.68
421.86	1683.43
422.07	1744.87
422.27	1767.40
422.48	1703.91
422.69	1675.24
422.89	1769.44
423.10	1777.64
423.30	1665.00
423.51	1740.77
423.72	1687.53
423.92	1646.57
424.13	1578.98
424.33	1681.38
424.54	1789.92
424.75	1794.02
424.95	1779.68
425.16	1638.38
425.36	1648.61
425.57	1697.77
425.78	1753.06
425.98	1736.68
426.19	1681.38
426.39	1683.43
426.60	1662.95
426.81	1779.68
427.01	1642.47
427.22	1712.10
427.42	1665.00
427.63	1619.94
427.83	1796.07
428.04	1734.63
428.25	1757.16
428.45	1769.44
428.66	1828.84
428.86	1787.88
429.07	1689.57
429.28	1693.67
429.48	1673.19
429.69	1697.77
429.89	1660.90
430.10	1632.23
430.30	1789.92
430.51	1757.16
430.71	1587.18
430.92	1636.33
431.13	1697.77
431.33	1726.44
431.54	1611.75
431.74	1787.88
431.95	1841.12
432.15	1701.86
432.36	1753.06
432.56	1738.73
432.77	1759.21
432.98	1796.07
433.18	1656.81
433.39	1708.01
433.59	1708.01
433.80	1796.07
434.00	1882.08
434.21	1673.19
434.41	1628.14
434.62	1929.19
434.82	1603.56
435.03	1640.42
435.23	1730.53
435.44	1652.71
435.64	1691.62
435.85	1685.48
436.06	1738.73
436.26	1740.77
436.47	1753.06
436.67	1710.05
436.88	1720.29
437.08	1759.21
437.29	1824.74
437.49	1736.68
437.70	1746.92
437.90	1689.57
438.11	1830.88
438.31	1751.01
438.52	1947.62
438.72	1869.80
438.93	1906.66
439.13	1798.12
439.34	1843.17
439.54	1693.67
439.75	1712.10
439.95	1703.91
440.16	1763.30
440.36	1699.81
440.57	1742.82
440.77	1814.50
440.98	1710.05
441.18	1804.26
441.39	1644.52
441.59	1675.24
441.80	1769.44
442.00	1748.97
442.21	1746.92
442.41	1599.46
442.62	1726.44
442.82	1703.91
443.02	1695.72
443.23	1728.49
443.43	1736.68
443.64	1804.26
443.84	1669.09
444.05	1806.31
444.25	1738.73
444.46	1621.99
444.66	1800.16
444.87	1828.84
445.07	1701.86
445.28	1687.53
445.48	1814.50
445.69	1802.21
445.89	1886.18
446.09	1703.91
446.30	2037.73
446.50	2680.79
446.71	3680.20
446.91	4335.55
447.12	4726.71
447.32	4911.03
447.53	4310.97
447.73	3803.08
447.93	3532.75
448.14	3262.41
448.34	3129.30
448.55	2832.34
448.75	2766.81
448.96	2709.46
449.16	2418.65
449.36	2285.53
449.57	2086.88
449.77	1945.57
449.98	1845.22
450.18	1800.16
450.39	1814.50
450.59	1738.73
450.79	1753.06
451.00	1640.42
451.20	1787.88
451.41	1765.35
451.61	1796.07
451.81	1771.49
452.02	1755.11
452.22	1738.73
452.43	1703.91
452.63	1685.48
452.84	1763.30
453.04	1724.39
453.24	1728.49
453.45	1724.39
453.65	1730.53
453.86	1701.86
454.06	1751.01
454.26	1724.39
454.47	1738.73
454.67	1877.99
454.87	1775.59
455.08	1738.73
455.28	1787.88
455.49	1751.01
455.69	1693.67
455.89	1863.65
456.10	1804.26
456.30	1714.15
456.51	1730.53
456.71	1757.16
456.91	1703.91
457.12	1714.15
457.32	1736.68
457.52	1689.57
457.73	1818.60
457.93	1742.82
458.14	1699.81
458.34	1599.46
458.54	1660.90
458.75	1675.24
458.95	1830.88
459.15	1732.58
459.36	1744.87
459.56	1746.92
459.76	1834.98
459.97	1789.92
460.17	1718.25
460.37	1816.55
460.58	1703.91
460.78	1824.74
460.99	1675.24
461.19	1755.11
461.39	1654.76
461.60	1722.34
461.80	1800.16
462.00	1681.38
462.21	1636.33
462.41	1714.15
462.61	1673.19
462.82	1615.85
463.02	1789.92
463.22	1660.90
463.43	1769.44
463.63	1738.73
463.83	1859.56
464.04	1746.92
464.24	1726.44
464.44	1624.04
464.64	1683.43
464.85	1746.92
465.05	1732.58
465.25	1683.43
465.46	1718.25
465.66	1785.83
465.86	1804.26
466.07	1701.86
466.27	1691.62
466.47	1621.99
466.68	1689.57
466.88	1857.51
467.08	1728.49
467.29	1771.49
467.49	1748.97
467.69	1673.19
467.89	1660.90
468.10	1740.77
468.30	1775.59
468.50	1785.83
468.71	1726.44
468.91	1665.00
469.11	1808.36
469.31	1726.44
469.52	1617.90
469.72	1867.75
469.92	1843.17
470.13	1697.77
470.33	1748.97
470.53	1804.26
470.73	2041.82
470.94	2279.39
471.14	2310.11
471.34	2523.10
471.54	2340.83
471.75	2273.25
471.95	2107.36
472.15	2064.35
472.36	2103.26
472.56	2047.97
472.76	2113.50
472.96	2009.06
473.17	1970.15
473.37	1839.08
473.57	1822.69
473.77	1822.69
473.98	1765.35
474.18	1740.77
474.38	1859.56
474.58	1746.92
474.79	1671.14
474.99	1757.16
475.19	1693.67
475.39	1667.05
475.60	1628.14
475.80	1773.54
476.00	1716.20
476.20	1755.11
476.41	1722.34
476.61	1822.69
476.81	1755.11
477.01	1591.27
477.21	1873.89
477.42	1847.27
477.62	1689.57
477.82	1765.35
478.02	1667.05
478.23	1753.06
478.43	1714.15
478.63	1746.92
478.83	1796.07
479.03	1683.43
479.24	1755.11
479.44	1871.84
479.64	1662.95
479.84	1656.81
480.04	1650.66
480.25	1740.77
480.45	1689.57
480.65	1718.25
480.85	1763.30
481.06	1722.34
481.26	1732.58
481.46	1695.72
481.66	1714.15
481.86	1658.85
482.06	1808.36
482.27	1689.57
482.47	1697.77
482.67	1673.19
482.87	1753.06
483.07	1753.06
483.28	1673.19
483.48	1665.00
483.68	1828.84
483.88	1687.53
484.08	1609.70
484.29	1667.05
484.49	1681.38
484.69	1728.49
484.89	1785.83
485.09	1777.64
485.29	1677.29
485.50	1718.25
485.70	1601.51
485.90	1730.53
486.10	1718.25
486.30	1746.92
486.50	1830.88
486.71	1769.44
486.91	1714.15
487.11	1759.21
487.31	1648.61
487.51	1699.81
487.71	1654.76
487.91	1644.52
488.12	1654.76
488.32	1617.90
488.52	1779.68
488.72	1599.46
488.92	1759.21
489.12	1877.99
489.32	1798.12
489.53	1720.29
489.73	1585.13
489.93	1822.69
490.13	1693.67
490.33	1695.72
490.53	1701.86
490.73	1796.07
490.94	1673.19
491.14	1783.78
491.34	1791.97
491.54	2060.26
491.74	2625.50
491.94	2918.36
492.14	3018.71
492.34	2942.93
492.54	2811.86
492.75	2451.42
492.95	2461.66
493.15	2293.72
493.35	2252.77
493.55	2256.86
493.75	2136.03
493.95	2154.46
494.15	2019.30
494.35	1912.80
494.56	1845.22
494.76	1806.31
494.96	1736.68
495.16	1798.12
495.36	1703.91
495.56	1675.24
495.76	1669.09
495.96	1710.05
496.16	1695.72
496.36	1886.18
496.56	1751.01
496.77	1720.29
496.97	1667.05
497.17	1785.83
497.37	1671.14
497.57	1714.15
497.77	1695.72
497.97	1697.77
498.17	1746.92
498.37	1712.10
498.57	1753.06
498.77	1681.38
498.97	1761.25
499.17	1845.22
499.38	1665.00
499.58	1775.59
499.78	1769.44
499.98	1718.25
500.18	1785.83
500.38	1714.15
500.58	1982.43
500.78	2586.58
500.98	4526.01
501.18	5869.48
501.38	6879.13
501.58	7133.08
501.78	6666.14
501.98	5566.38
502.18	4933.56
502.38	4476.86
502.58	4218.82
502.78	3651.53
502.98	3780.55
503.18	3385.29
503.38	3059.67
503.59	2801.62
503.79	2699.22
503.99	2488.28
504.19	2230.24
504.39	2230.24
504.59	2150.37
504.79	2000.87
504.99	1982.43
505.19	1941.47
505.39	1984.48
505.59	2070.50
505.79	1925.09
505.99	1837.03
506.19	1775.59
506.39	1798.12
506.59	1796.07
506.79	1724.39
506.99	1837.03
507.19	1748.97
507.39	1783.78
507.59	1683.43
507.79	1689.57
507.99	1732.58
508.19	1742.82
508.39	1671.14
508.59	1644.52
508.79	1781.73
508.99	1839.08
509.19	1718.25
509.39	1742.82
509.59	1646.57
509.79	1636.33
509.99	1681.38
510.19	1812.45
510.39	1746.92
510.59	1794.02
510.79	1722.34
510.99	1628.14
511.19	1732.58
511.39	1802.21
511.59	1757.16
511.79	1746.92
511.99	1765.35
512.19	1781.73
512.38	1769.44
512.58	1771.49
512.78	1734.63
512.98	1734.63
513.18	1822.69
513.38	1662.95
513.58	1761.25
513.78	1646.57
513.98	1701.86
514.18	1728.49
514.38	1830.88
514.58	1732.58
514.78	1687.53
514.98	1724.39
515.18	1697.77
515.38	1613.80
515.58	1804.26
515.78	1716.20
515.98	1787.88
516.18	1744.87
516.38	1734.63
516.57	1697.77
516.77	1724.39
516.97	1746.92
517.17	1695.72
517.37	1705.96
517.57	1777.64
517.77	1765.35
517.97	1656.81
518.17	1695.72
518.37	1679.33
518.57	1693.67
518.77	1673.19
518.97	1734.63
519.16	1720.29
519.36	1812.45
519.56	1730.53
519.76	1738.73
519.96	1708.01
520.16	1841.12
520.36	1673.19
520.56	1830.88
520.76	1652.71
520.96	1640.42
521.16	1865.70
521.35	1738.73
521.55	1812.45
521.75	1759.21
521.95	1744.87
522.15	1753.06
522.35	1710.05
522.55	1632.23
522.75	1757.16
522.95	1761.25
523.14	1599.46
523.34	1816.55
523.54	1714.15
523.74	1724.39
523.94	1814.50
524.14	1628.14
524.34	1816.55
524.54	1880.04
524.73	1650.66
524.93	1734.63
525.13	1667.05
525.33	1644.52
525.53	1882.08
525.73	1740.77
525.93	1712.10
526.13	1714.15
526.32	1673.19
526.52	1800.16
526.72	1789.92
526.92	1689.57
527.12	1724.39
527.32	1648.61
527.52	1787.88
527.71	1834.98
527.91	1738.73
528.11	1673.19
528.31	1783.78
528.51	1683.43
528.71	1697.77
528.90	1710.05
529.10	1794.02
529.30	1806.31
529.50	1578.98
529.70	1607.66
529.90	1689.57
530.09	1714.15
530.29	1634.28
530.49	1722.34
530.69	1855.46
530.89	1765.35
531.09	1724.39
531.28	1662.95
531.48	1841.12
531.68	1687.53
531.88	1710.05
532.08	1818.60
532.28	1724.39
532.47	1763.30
532.67	1830.88
532.87	1720.29
533.07	1660.90
533.27	1726.44
533.46	1726.44
533.66	1703.91
533.86	1724.39
534.06	1656.81
534.26	1724.39
534.45	1683.43
534.65	1800.16
534.85	1738.73
535.05	1740.77
535.25	1837.03
535.44	1656.81
535.64	1781.73
535.84	1693.67
536.04	1724.39
536.24	1699.81
536.43	1660.90
536.63	1802.21
536.83	1726.44
537.03	1765.35
537.22	1566.70
537.42	1679.33
537.62	1777.64
537.82	1595.37
538.02	1759.21
538.21	1783.78
538.41	1855.46
538.61	1832.93
538.81	1689.57
539.00	1763.30
539.20	1634.28
539.40	1736.68
539.60	1730.53
539.79	1757.16
539.99	1716.20
540.19	1718.25
540.39	1665.00
540.58	1699.81
540.78	1779.68
540.98	1642.47
541.18	1783.78
541.37	1783.78
541.57	1658.85
541.77	1708.01
541.97	1660.90
542.16	1691.62
542.36	1753.06
542.56	1685.48
542.76	1865.70
542.95	1740.77
543.15	1798.12
543.35	1767.40
543.54	1746.92
543.74	1705.96
543.94	1744.87
544.14	1675.24
544.33	1710.05
544.53	1683.43
544.73	1701.86
544.93	1787.88
545.12	1771.49
545.32	1753.06
545.52	1689.57
545.71	1677.29
545.91	1708.01
546.11	1771.49
546.30	1693.67
546.50	1763.30
546.70	1755.11
546.90	1714.15
547.09	1630.18
547.29	1705.96
547.49	1783.78
547.68	1710.05
547.88	1599.46
548.08	1798.12
548.27	2082.78
548.47	1759.21
548.67	1777.64
548.87	1781.73
549.06	1671.14
549.26	1722.34
549.46	1699.81
549.65	1751.01
549.85	1703.91
550.05	1720.29
550.24	1677.29
550.44	1708.01
550.64	1714.15
550.83	1746.92
551.03	1746.92
551.23	1779.68
551.42	1734.63
551.62	1748.97
551.82	1681.38
552.01	1671.14
552.21	1785.83
552.41	1720.29
552.60	1767.40
552.80	1716.20
553.00	1642.47
553.19	1722.34
553.39	1810.40
553.59	1703.91
553.78	1744.87
553.98	1738.73
554.17	1646.57
554.37	1800.16
554.57	1789.92
554.76	1626.09
554.96	1609.70
555.16	1697.77
555.35	1736.68
555.55	1722.34
555.75	1742.82
555.94	1859.56
556.14	1675.24
556.33	1855.46
556.53	1771.49
556.73	1722.34
556.92	1714.15
557.12	1828.84
557.32	1847.27
557.51	1814.50
557.71	1697.77
557.90	1767.40
558.10	1820.64
558.30	1708.01
558.49	1716.20
558.69	1736.68
558.88	1763.30
559.08	1742.82
559.28	1734.63
559.47	1857.51
559.67	1744.87
559.86	1800.16
560.06	1765.35
560.26	1683.43
560.45	1794.02
560.65	1716.20
560.84	1847.27
561.04	1759.21
561.24	1783.78
561.43	1697.77
561.63	1834.98
561.82	1710.05
562.02	1806.31
562.22	1685.48
562.41	1665.00
562.61	1671.14
562.80	1638.38
563.00	1884.13
563.19	1724.39
563.39	1708.01
563.59	1796.07
563.78	1626.09
563.98	1648.61
564.17	1748.97
564.37	1638.38
564.56	1777.64
564.76	1654.76
564.96	1798.12
565.15	1779.68
565.35	1855.46
565.54	1665.00
565.74	1837.03
565.93	1767.40
566.13	1818.60
566.32	1779.68
566.52	1763.30
566.71	1724.39
566.91	1767.40
567.11	1751.01
567.30	1740.77
567.50	1800.16
567.69	1787.88
567.89	1730.53
568.08	1779.68
568.28	1718.25
568.47	1648.61
568.67	1802.21
568.86	1599.46
569.06	1816.55
569.25	1687.53
569.45	1736.68
569.64	1763.30
569.84	1716.20
570.04	1677.29
570.23	1746.92
570.43	1763.30
570.62	1732.58
570.82	1789.92
571.01	1748.97
571.21	1744.87
571.40	1677.29
571.60	1763.30
571.79	1759.21
571.99	1681.38
572.18	1716.20
572.38	1763.30
572.57	1681.38
572.77	1732.58
572.96	1820.64
573.16	1789.92
573.35	1720.29
573.55	1765.35
573.74	1767.40
573.94	1765.35
574.13	1716.20
574.33	1845.22
574.52	1736.68
574.71	1738.73
574.91	1816.55
575.10	1683.43
575.30	1728.49
575.49	1728.49
575.69	1720.29
575.88	1791.97
576.08	1804.26
576.27	1802.21
576.47	1744.87
576.66	1796.07
576.86	1822.69
577.05	1773.54
577.25	1771.49
577.44	1925.09
577.64	1742.82
577.83	1789.92
578.02	1767.40
578.22	1877.99
578.41	1814.50
578.61	1652.71
578.80	1689.57
579.00	1744.87
579.19	1714.15
579.39	1724.39
579.58	1802.21
579.77	1740.77
579.97	1845.22
580.16	1855.46
580.36	1826.79
580.55	1751.01
580.75	1712.10
580.94	1693.67
581.13	1800.16
581.33	1832.93
581.52	1740.77
581.72	1894.37
581.91	1791.97
582.11	1726.44
582.30	1804.26
582.49	1724.39
582.69	1759.21
582.88	1767.40
583.08	1703.91
583.27	1822.69
583.47	1787.88
583.66	1755.11
583.85	1695.72
584.05	1779.68
584.24	1791.97
584.44	1761.25
584.63	1808.36
584.82	1771.49
585.02	1804.26
585.21	1785.83
585.41	1822.69
585.60	1884.13
585.79	1939.43
585.99	1927.14
586.18	1888.23
586.37	2111.46
586.57	3438.54
586.76	9817.96
586.96	24694.41
587.15	34407.92
587.34	41045.39
587.54	42777.97
587.73	36931.02
587.93	26420.84
588.12	21651.13
588.31	18360.04
588.51	16529.16
588.70	15159.06
588.89	14143.27
589.09	12611.39
589.28	11241.30
589.47	9553.77
589.67	8175.49
589.86	6463.39
590.06	5015.48
590.25	3868.61
590.44	3071.95
590.64	2533.34
590.83	2260.96
591.02	2111.46
591.22	1951.71
591.41	1943.52
591.60	1841.12
591.80	1923.04
591.99	1683.43
592.18	1765.35
592.38	1837.03
592.57	1722.34
592.76	1738.73
592.96	1767.40
593.15	1740.77
593.34	1738.73
593.54	1775.59
593.73	1781.73
593.92	1863.65
594.12	1812.45
594.31	1689.57
594.50	1837.03
594.70	1765.35
594.89	1935.33
595.08	1619.94
595.28	1738.73
595.47	1849.32
595.66	1818.60
595.86	1673.19
596.05	1667.05
596.24	1693.67
596.43	1839.08
596.63	1759.21
596.82	1740.77
597.01	1687.53
597.21	1853.41
597.40	1796.07
597.59	1720.29
597.79	1767.40
597.98	1681.38
598.17	1837.03
598.36	1695.72
598.56	1775.59
598.75	1689.57
598.94	1724.39
599.14	1744.87
599.33	1675.24
599.52	1738.73
599.71	1730.53
599.91	1808.36
600.10	1726.44
600.29	1734.63
600.48	1697.77
600.68	1744.87
600.87	1744.87
601.06	1779.68
601.26	1740.77
601.45	1751.01
601.64	1693.67
601.83	1890.28
602.03	1703.91
602.22	1753.06
602.41	1837.03
602.60	1806.31
602.80	1724.39
602.99	1796.07
603.18	1687.53
603.37	1779.68
603.57	1746.92
603.76	1785.83
603.95	1824.74
604.14	1642.47
604.34	1701.86
604.53	1761.25
604.72	1773.54
604.91	1703.91
605.10	1755.11
605.30	1617.90
605.49	1855.46
605.68	1720.29
605.87	1775.59
606.07	1722.34
606.26	1736.68
606.45	1765.35
606.64	1724.39
606.84	1697.77
607.03	1705.96
607.22	1732.58
607.41	1705.96
607.60	1720.29
607.80	1832.93
607.99	1679.33
608.18	1738.73
608.37	1710.05
608.56	1648.61
608.76	1812.45
608.95	1806.31
609.14	1761.25
609.33	1791.97
609.52	1783.78
609.72	1710.05
609.91	1798.12
610.10	1697.77
610.29	1771.49
610.48	1771.49
610.68	1783.78
610.87	1710.05
611.06	1769.44
611.25	1660.90
611.44	1748.97
611.63	1693.67
611.83	1748.97
612.02	1689.57
612.21	1820.64
612.40	1581.03
612.59	1675.24
612.79	1640.42
612.98	1718.25
613.17	1826.79
613.36	1671.14
613.55	1791.97
613.74	1681.38
613.93	1695.72
614.13	1705.96
614.32	1763.30
614.51	1800.16
614.70	1667.05
614.89	1734.63
615.08	1783.78
615.28	2039.78
615.47	1624.04
615.66	1771.49
615.85	1771.49
616.04	1791.97
616.23	1697.77
616.42	1738.73
616.62	1722.34
616.81	1665.00
617.00	1824.74
617.19	1763.30
617.38	1716.20
617.57	1726.44
617.76	1789.92
617.95	1820.64
618.15	1697.77
618.34	1832.93
618.53	1656.81
618.72	1837.03
618.91	1798.12
619.10	1826.79
619.29	1685.48
619.48	1763.30
619.68	1593.32
619.87	1791.97
620.06	1636.33
620.25	1806.31
620.44	1648.61
620.63	1642.47
620.82	1785.83
621.01	1714.15
621.20	1714.15
621.39	1777.64
621.59	1769.44
621.78	1697.77
621.97	1789.92
622.16	1720.29
622.35	1771.49
622.54	1818.60
622.73	1736.68
622.92	1624.04
623.11	1734.63
623.30	1695.72
623.49	1808.36
623.68	1689.57
623.88	1794.02
624.07	1689.57
624.26	1755.11
624.45	1728.49
624.64	1687.53
624.83	1685.48
625.02	1695.72
625.21	1730.53
625.40	1630.18
625.59	1845.22
625.78	1679.33
625.97	1757.16
626.16	1781.73
626.35	1728.49
626.54	1714.15
626.74	1759.21
626.93	1660.90
627.12	1732.58
627.31	1759.21
627.50	1665.00
627.69	1785.83
627.88	1646.57
628.07	1693.67
628.26	1546.22
628.45	1687.53
628.64	1628.14
628.83	1748.97
629.02	1683.43
629.21	1794.02
629.40	1693.67
629.59	1652.71
629.78	1667.05
629.97	1767.40
630.16	1759.21
630.35	1726.44
630.54	1755.11
630.73	1597.42
630.92	1658.85
631.11	1587.18
631.30	1730.53
631.49	1748.97
631.68	1716.20
631.87	1767.40
632.06	1667.05
632.25	1845.22
632.44	1658.85
632.63	1699.81
632.82	1742.82
633.01	1646.57
633.20	1685.48
633.39	1632.23
633.58	1632.23
633.77	1769.44
633.96	1695.72
634.15	1718.25
634.34	1761.25
634.53	1730.53
634.72	1642.47
634.91	1566.70
635.10	1791.97
635.29	1779.68
635.48	1789.92
635.67	1658.85
635.86	1587.18
636.05	1812.45
636.24	1724.39
636.43	1703.91
636.62	1734.63
636.81	1644.52
637.00	1804.26
637.19	1728.49
637.38	1773.54
637.57	1726.44
637.76	1658.85
637.95	1775.59
638.14	1667.05
638.33	1652.71
638.52	1718.25
638.71	1720.29
638.89	1665.00
639.08	1828.84
639.27	1763.30
639.46	1761.25
639.65	1816.55
639.84	1714.15
640.03	1746.92
640.22	1660.90
640.41	1822.69
640.60	1638.38
640.79	1744.87
640.98	1689.57
641.17	1779.68
641.36	1703.91
641.55	1671.14
641.74	1636.33
641.92	1660.90
642.11	1660.90
642.30	1722.34
642.49	1734.63
642.68	1765.35
642.87	1738.73
643.06	1773.54
643.25	1744.87
643.44	1644.52
643.63	1701.86
643.82	1732.58
644.00	1621.99
644.19	1724.39
644.38	1697.77
644.57	1714.15
644.76	1716.20
644.95	1722.34
645.14	1773.54
645.33	1650.66
645.52	1746.92
645.71	1708.01
645.89	1656.81
646.08	1716.20
646.27	1732.58
646.46	1871.84
646.65	1626.09
646.84	1681.38
647.03	1669.09
647.22	1828.84
647.40	1757.16
647.59	1730.53
647.78	1566.70
647.97	1675.24
648.16	1646.57
648.35	1755.11
648.54	1783.78
648.73	1632.23
648.91	1738.73
649.10	1834.98
649.29	1697.77
649.48	1662.95
649.67	1695.72
649.86	1808.36
650.05	1695.72
650.23	1734.63
650.42	1675.24
650.61	1775.59
650.80	1785.83
650.99	1869.80
651.18	1779.68
651.36	1789.92
651.55	1685.48
651.74	1839.08
651.93	1636.33
652.12	1781.73
652.31	1742.82
652.49	1609.70
652.68	1648.61
652.87	1783.78
653.06	1658.85
653.25	1755.11
653.44	1740.77
653.62	1746.92
653.81	1710.05
654.00	1753.06
654.19	1689.57
654.38	1902.56
654.56	1701.86
654.75	1685.48
654.94	1802.21
655.13	1652.71
655.32	1675.24
655.51	1802.21
655.69	1673.19
655.88	1738.73
656.07	1644.52
656.26	1753.06
656.45	1642.47
656.63	1732.58
656.82	1740.77
657.01	1810.40
657.20	1724.39
657.38	1802.21
657.57	1634.28
657.76	1677.29
657.95	1710.05
658.14	1654.76
658.32	1703.91
658.51	1601.51
658.70	1726.44
658.89	1701.86
659.08	1740.77
659.26	1761.25
659.45	1697.77
659.64	1828.84
659.83	1673.19
660.01	1902.56
660.20	1724.39
660.39	1757.16
660.58	1638.38
660.76	1769.44
660.95	1654.76
661.14	1736.68
661.33	1720.29
661.51	1710.05
661.70	1658.85
661.89	1753.06
662.08	1662.95
662.26	1658.85
662.45	1656.81
662.64	1757.16
662.83	1720.29
663.01	1644.52
663.20	1685.48
663.39	1769.44
663.58	1701.86
663.76	1671.14
663.95	1765.35
664.14	1701.86
664.32	1712.10
664.51	1689.57
664.70	1591.27
664.89	1730.53
665.07	1683.43
665.26	1791.97
665.45	1603.56
665.64	1796.07
665.82	1685.48
666.01	1730.53
666.20	1679.33
666.38	1845.22
666.57	1828.84
666.76	2152.42
666.95	4458.43
667.13	10432.35
667.32	15234.84
667.51	18073.32
667.69	19295.96
667.88	17686.26
668.07	12390.21
668.25	9713.52
668.44	8054.66
668.63	7210.90
668.81	6883.22
669.00	6420.38
669.19	5810.09
669.38	5074.87
669.56	4607.93
669.75	4016.07
669.94	3485.64
670.12	2818.00
670.31	2508.76
670.50	2271.20
670.68	2093.02
670.87	1929.19
671.06	1820.64
671.24	1828.84
671.43	1787.88
671.62	1703.91
671.80	1746.92
671.99	1765.35
672.18	1732.58
672.36	1800.16
672.55	1718.25
672.74	1665.00
672.92	1720.29
673.11	1783.78
673.29	1660.90
673.48	1748.97
673.67	1757.16
673.85	1806.31
674.04	1615.85
674.23	1767.40
674.41	1769.44
674.60	1687.53
674.79	1593.32
674.97	1646.57
675.16	1718.25
675.34	1810.40
675.53	1742.82
675.72	1710.05
675.90	1783.78
676.09	1665.00
676.28	1755.11
676.46	1671.14
676.65	1777.64
676.83	1613.80
677.02	1718.25
677.21	1736.68
677.39	1693.67
677.58	1718.25
677.77	1636.33
677.95	1632.23
678.14	1665.00
678.32	1710.05
678.51	1570.79
678.70	1837.03
678.88	1703.91
679.07	1716.20
679.25	1722.34
679.44	1669.09
679.63	1636.33
679.81	1712.10
680.00	1804.26
680.18	1689.57
680.37	1832.93
680.55	1751.01
680.74	1615.85
680.93	1523.69
681.11	1716.20
681.30	1701.86
681.48	1671.14
681.67	1724.39
681.85	1714.15
682.04	1685.48
682.23	1708.01
682.41	1724.39
682.60	1697.77
682.78	1634.28
682.97	1685.48
683.15	1736.68
683.34	1699.81
683.53	1812.45
683.71	1687.53
683.90	1791.97
684.08	1789.92
684.27	1665.00
684.45	1808.36
684.64	1779.68
684.82	1714.15
685.01	1738.73
685.19	1703.91
685.38	1791.97
685.57	1716.20
685.75	1691.62
685.94	1687.53
686.12	1671.14
686.31	1630.18
686.49	1791.97
686.68	1605.61
686.86	1679.33
687.05	1630.18
687.23	1814.50
687.42	1673.19
687.60	1697.77
687.79	1710.05
687.97	1757.16
688.16	1753.06
688.34	1734.63
688.53	1619.94
688.71	1730.53
688.90	1804.26
689.08	1757.16
689.27	1578.98
689.45	1675.24
689.64	1699.81
689.82	1730.53
690.01	1675.24
690.19	1757.16
690.38	1695.72
690.56	1802.21
690.75	1691.62
690.93	1757.16
691.12	1742.82
691.30	1722.34
691.49	1665.00
691.67	1751.01
691.86	1804.26
692.04	1785.83
692.23	1644.52
692.41	1734.63
692.60	1834.98
692.78	1753.06
692.97	1624.04
693.15	1804.26
693.34	1845.22
693.52	1738.73
693.71	1724.39
693.89	1581.03
694.08	1568.74
694.26	1818.60
694.44	1761.25
694.63	1703.91
694.81	1650.66
695.00	1779.68
695.18	1722.34
695.37	1861.60
695.55	1708.01
695.74	1699.81
695.92	1685.48
696.10	1785.83
696.29	1619.94
696.47	1683.43
696.66	1615.85
696.84	1718.25
697.03	1697.77
697.21	1769.44
697.40	2246.62
697.58	1720.29
697.76	1648.61
697.95	1675.24
698.13	1574.89
698.32	1691.62
698.50	1751.01
698.68	1683.43
698.87	1732.58
699.05	1767.40
699.24	1753.06
699.42	1673.19
699.61	1765.35
699.79	1726.44
699.97	1710.05
700.16	1605.61
700.34	1587.18
700.53	1748.97
700.71	1783.78
700.89	1773.54
701.08	1644.52
701.26	1691.62
701.45	2078.69
701.63	1691.62
701.81	1669.09
702.00	1669.09
702.18	1648.61
702.37	1634.28
702.55	1732.58
702.73	1730.53
702.92	1716.20
703.10	1708.01
703.28	1826.79
703.47	1658.85
703.65	1677.29
703.84	1767.40
704.02	1759.21
704.20	1808.36
704.39	1716.20
704.57	1624.04
704.75	1759.21
704.94	1724.39
705.12	1695.72
705.30	1808.36
705.49	2242.53
705.67	4464.57
705.86	9336.69
706.04	12685.12
706.22	14759.71
706.41	15701.78
706.59	14034.73
706.77	9641.84
706.96	7401.36
707.14	6797.21
707.32	5990.31
707.51	5574.57
707.69	4872.12
707.87	4222.91
708.06	3565.51
708.24	3002.32
708.42	2504.67
708.61	2308.06
708.79	1853.41
708.97	1849.32
709.16	1820.64
709.34	1779.68
709.52	1781.73
709.71	1785.83
709.89	1732.58
710.07	1624.04
710.26	1710.05
710.44	1714.15
710.62	1814.50
710.80	1685.48
710.99	1834.98
711.17	1773.54
711.35	1679.33
711.54	1699.81
711.72	1824.74
711.90	1724.39
712.09	1744.87
712.27	1705.96
712.45	1724.39
712.63	1726.44
712.82	1744.87
713.00	1665.00
713.18	1712.10
713.37	1765.35
713.55	1757.16
713.73	1675.24
713.91	1751.01
714.10	1671.14
714.28	1640.42
714.46	1773.54
714.65	1685.48
714.83	1648.61
715.01	1638.38
715.19	1681.38
715.38	1646.57
715.56	1650.66
715.74	1693.67
715.92	1685.48
716.11	1718.25
716.29	1595.37
716.47	1800.16
716.65	1697.77
716.84	1691.62
717.02	1757.16
717.20	1652.71
717.38	1656.81
717.57	1689.57
717.75	1662.95
717.93	1697.77
718.11	1724.39
718.30	1636.33
718.48	1728.49
718.66	1701.86
718.84	1773.54
719.03	1722.34
719.21	1718.25
719.39	1808.36
719.57	1789.92
719.75	1656.81
719.94	1687.53
720.12	1683.43
720.30	1751.01
720.48	1742.82
720.67	1654.76
720.85	1675.24
721.03	1701.86
721.21	1630.18
721.39	1779.68
721.58	1775.59
721.76	1671.14
721.94	1851.36
722.12	1701.86
722.30	1730.53
722.49	1681.38
722.67	1753.06
722.85	1740.77
723.03	1652.71
723.21	1669.09
723.40	1736.68
723.58	1714.15
723.76	1724.39
723.94	1785.83
724.12	1775.59
724.30	1771.49
724.49	1861.60
724.67	1673.19
724.85	1697.77
725.03	1607.66
725.21	1812.45
725.40	1710.05
725.58	1687.53
725.76	1712.10
725.94	1810.40
726.12	1644.52
726.30	1759.21
726.49	1705.96
726.67	1703.91
726.85	1720.29
727.03	1869.80
727.21	2133.98
727.39	2840.53
727.57	3739.59
727.76	4194.24
727.94	4538.30
728.12	4454.33
728.30	3657.67
728.48	2955.22
728.66	2783.19
728.84	2420.70
729.03	2281.44
729.21	2217.95
729.39	1988.58
729.57	1826.79
729.75	1714.15
729.93	1849.32
730.11	1675.24
730.30	1759.21
730.48	1787.88
730.66	1775.59
730.84	1691.62
731.02	1656.81
731.20	1697.77
731.38	1714.15
731.56	1656.81
731.74	1636.33
731.93	1699.81
732.11	1697.77
732.29	1632.23
732.47	1697.77
732.65	1679.33
732.83	1814.50
733.01	1693.67
733.19	1708.01
733.37	1695.72
733.56	1748.97
733.74	1714.15
733.92	1748.97
734.10	1636.33
734.28	1751.01
734.46	1597.42
734.64	1667.05
734.82	1615.85
735.00	1665.00
735.18	1683.43
735.36	1685.48
735.54	1705.96
735.73	1722.34
735.91	1660.90
736.09	1742.82
736.27	1660.90
736.45	1746.92
736.63	1574.89
736.81	1626.09
736.99	1775.59
737.17	1765.35
737.35	1728.49
737.53	1701.86
737.71	1681.38
737.89	1730.53
738.07	1658.85
738.25	1679.33
738.43	1681.38
738.61	1609.70
738.80	1628.14
738.98	1601.51
739.16	1669.09
739.34	1632.23
739.52	1777.64
739.70	1656.81
739.88	1757.16
740.06	1767.40
740.24	1638.38
740.42	1742.82
740.60	1603.56
740.78	1677.29
740.96	1599.46
741.14	1683.43
741.32	1740.77
741.50	1619.94
741.68	1746.92
741.86	1767.40
742.04	1720.29
742.22	1708.01
742.40	1681.38
742.58	1759.21
742.76	1683.43
742.94	1746.92
743.12	1615.85
743.30	1654.76
743.48	1712.10
743.66	1697.77
743.84	1746.92
744.02	1683.43
744.20	1714.15
744.38	1583.08
744.56	1662.95
744.74	1787.88
744.92	1730.53
745.10	1806.31
745.28	1812.45
745.46	1771.49
745.64	1728.49
745.82	1683.43
746.00	1697.77
746.18	1669.09
746.36	1628.14
746.54	1673.19
746.72	1601.51
746.90	1578.98
747.08	1712.10
747.26	1724.39
747.44	1714.15
747.62	1665.00
747.80	1673.19
747.98	1769.44
748.15	1689.57
748.33	1816.55
748.51	1691.62
748.69	1771.49
748.87	1710.05
749.05	1630.18
749.23	1722.34
749.41	1673.19
749.59	1667.05
749.77	1712.10
749.95	1658.85
750.13	1650.66
750.31	1730.53
750.49	1673.19
750.67	1757.16
750.85	1777.64
751.03	1714.15
751.20	1802.21
751.38	1646.57
751.56	1660.90
751.74	1677.29
751.92	1689.57
752.10	1609.70
752.28	1732.58
752.46	1687.53
752.64	1712.10
752.82	1755.11
753.00	1798.12
753.18	1726.44
753.35	1636.33
753.53	1714.15
753.71	1677.29
753.89	1765.35
754.07	1689.57
754.25	1755.11
754.43	1802.21
754.61	1578.98
754.79	1730.53
754.97	1732.58
755.14	1865.70
755.32	1708.01
755.50	1681.38
755.68	1720.29
755.86	1665.00
756.04	1667.05
756.22	1611.75
756.40	1693.67
756.57	1808.36
756.75	1736.68
756.93	1724.39
757.11	1769.44
757.29	1687.53
757.47	1705.96
757.65	1665.00
757.82	1527.78
758.00	1665.00
758.18	1667.05
758.36	1646.57
758.54	1802.21
758.72	1591.27
758.90	1714.15
759.07	1673.19
759.25	1716.20
759.43	1710.05
759.61	1685.48
759.79	2209.76
759.97	1720.29
760.15	1687.53
760.32	1693.67
760.50	1757.16
760.68	1751.01
760.86	1636.33
761.04	1691.62
761.22	1738.73
761.39	1701.86
761.57	1703.91
761.75	1712.10
761.93	1708.01
762.11	1667.05
762.28	1683.43
762.46	1667.05
762.64	1777.64
762.82	1578.98
763.00	1644.52
763.18	1751.01
763.35	1630.18
763.53	1724.39
763.71	1710.05
763.89	1718.25
764.07	1732.58
764.24	1667.05
764.42	1781.73
764.60	1644.52
764.78	1773.54
764.96	1703.91
765.13	1728.49
765.31	1697.77
765.49	1714.15
765.67	1695.72
765.84	1628.14
766.02	1683.43
766.20	1722.34
766.38	1703.91
766.56	1662.95
766.73	1740.77
766.91	1650.66
767.09	1691.62
767.27	1697.77
767.44	1646.57
767.62	1730.53
767.80	1740.77
767.98	1675.24
768.15	1697.77
768.33	1683.43
768.51	1673.19
768.69	1724.39
768.87	1755.11
769.04	1683.43
769.22	1830.88
769.40	1816.55
769.58	1759.21
769.75	1679.33
769.93	1841.12
770.11	1611.75
770.28	1628.14
770.46	1675.24
770.64	1677.29
770.82	1621.99
770.99	1695.72
771.17	1732.58
771.35	1662.95
771.53	1665.00
771.70	1669.09
771.88	1701.86
772.06	1708.01
772.23	1722.34
772.41	1742.82
772.59	1673.19
772.77	1603.56
772.94	1662.95
773.12	1781.73
773.30	1662.95
773.47	1714.15
773.65	1685.48
773.83	1837.03
774.01	1722.34
774.18	1566.70
774.36	1652.71
774.54	1607.66
774.71	1701.86
774.89	1701.86
775.07	1673.19
775.24	1685.48
775.42	1646.57
775.60	1755.11
775.78	1695.72
775.95	1585.13
776.13	1552.36
776.31	1570.79
776.48	1708.01
776.66	1839.08
776.84	1671.14
777.01	1761.25
777.19	1648.61
777.37	1632.23
777.54	1728.49
777.72	1794.02
777.90	1746.92
778.07	1689.57
778.25	1759.21
778.43	1781.73
778.60	1693.67
778.78	1783.78
778.96	1763.30
779.13	1738.73
779.31	1763.30
779.49	1662.95
779.66	1673.19
779.84	1759.21
780.01	1636.33
780.19	1710.05
780.37	1796.07
780.54	1740.77
780.72	1611.75
780.90	1712.10
781.07	1734.63
781.25	1665.00
781.43	1785.83
781.60	1708.01
781.78	1804.26
781.95	1763.30
782.13	1683.43
782.31	1720.29
782.48	1550.31
782.66	1720.29
782.83	1802.21
783.01	1710.05
783.19	1705.96
783.36	1667.05
783.54	1660.90
783.72	1687.53
783.89	1607.66
784.07	1658.85
784.24	1744.87
784.42	1787.88
784.60	1652.71
784.77	1757.16
784.95	1624.04
785.12	1609.70
785.30	1638.38
785.47	1607.66
785.65	1697.77
785.83	1689.57
786.00	1679.33
786.18	1662.95
786.35	1613.80
786.53	1683.43
786.71	1695.72
786.88	1734.63
787.06	1691.62
787.23	1705.96
787.41	1660.90
787.58	1736.68
787.76	1654.76
787.94	1669.09
788.11	1734.63
788.29	1681.38
788.46	1593.32
788.64	1587.18
788.81	1687.53
788.99	1632.23
789.16	1689.57
789.34	1738.73
789.52	1626.09
789.69	1693.67
789.87	1605.61
790.04	1660.90
790.22	1753.06
790.39	1855.46
790.57	1642.47
790.74	1675.24
790.92	1804.26
791.09	1624.04
791.27	1714.15
791.44	1849.32
791.62	1689.57
791.79	1634.28
791.97	1703.91
792.15	1843.17
792.32	1703.91
792.50	1685.48
792.67	1665.00
792.85	1751.01
793.02	1658.85
793.20	1665.00
793.37	1583.08
793.55	1665.00
793.72	1621.99
793.90	1779.68
794.07	1673.19
794.25	1632.23
794.42	1646.57
794.60	1691.62
794.77	1796.07
794.95	1742.82
795.12	1789.92
795.30	1654.76
795.47	1589.22
795.65	1869.80
795.82	1712.10
796.00	1642.47
796.17	1671.14
796.34	1609.70
796.52	1746.92
796.69	1720.29
796.87	1708.01
797.04	1732.58
797.22	1703.91
797.39	1732.58
797.57	1767.40
797.74	1619.94
797.92	1732.58
798.09	1648.61
798.27	1701.86
798.44	1773.54
798.62	1650.66
798.79	1691.62
798.96	1650.66
799.14	1759.21
799.31	1748.97
799.49	1738.73
799.66	1683.43
799.84	1757.16
800.01	1660.90
800.19	1751.01
800.36	1611.75
800.53	1734.63
800.71	1632.23
800.88	1728.49
801.06	1589.22
801.23	1615.85
801.41	1656.81
801.58	1656.81
801.75	1599.46
801.93	1697.77
802.10	1765.35
802.28	1697.77
802.45	1656.81
802.63	1714.15
802.80	1771.49
802.97	1615.85
803.15	1683.43
803.32	1691.62
803.50	1640.42
803.67	1599.46
803.84	1544.17
804.02	1689.57
804.19	1636.33
804.37	1650.66
804.54	1681.38
804.71	1705.96
804.89	1734.63
805.06	1650.66
805.24	1630.18
805.41	1677.29
805.58	1638.38
805.76	1857.51
805.93	1675.24
806.10	1837.03
806.28	1703.91
806.45	1722.34
806.63	1705.96
806.80	1720.29
806.97	1720.29
807.15	1646.57
807.32	1757.16
807.49	1757.16
807.67	1671.14
807.84	1660.90
808.01	1562.60
808.19	1855.46
808.36	1834.98
808.54	1662.95
808.71	1646.57
808.88	1695.72
809.06	1730.53
809.23	1779.68
809.40	1656.81
809.58	1703.91
809.75	1681.38
809.92	1703.91
810.10	1783.78
810.27	1683.43
810.44	1681.38
810.62	1765.35
810.79	1695.72
810.96	1669.09
811.14	1738.73
811.31	1701.86
811.48	1757.16
811.66	1578.98
811.83	1763.30
812.00	1746.92
812.18	1732.58
812.35	1943.52
812.52	1681.38
812.69	1652.71
812.87	1675.24
813.04	1630.18
813.21	1638.38
813.39	1634.28
813.56	1656.81
813.73	1736.68
813.91	1562.60
814.08	1710.05
814.25	1636.33
814.42	1632.23
814.60	1615.85
814.77	1685.48
814.94	1626.09
815.12	1691.62
815.29	1785.83
815.46	1660.90
815.63	1630.18
815.81	1677.29
815.98	1746.92
816.15	1710.05
816.33	1740.77
816.50	1583.08
816.67	1675.24
816.84	1691.62
817.02	1671.14
817.19	1697.77
817.36	1648.61
817.53	1673.19
817.71	1667.05
817.88	1761.25
818.05	1656.81
818.22	1685.48
818.40	1789.92
818.57	1648.61
818.74	1759.21
818.91	1751.01
819.09	1695.72
819.26	1865.70
819.43	1681.38
819.60	1714.15
819.78	1697.77
819.95	1771.49
820.12	1665.00
820.29	1673.19
820.47	1800.16
820.64	1624.04
820.81	1642.47
820.98	1640.42
821.15	1697.77
821.33	1746.92
821.50	1660.90
821.67	1662.95
821.84	1665.00
822.02	1732.58
822.19	1818.60
822.36	1681.38
822.53	1710.05
822.70	1615.85
822.88	1703.91
823.05	1794.02
823.22	1697.77
823.39	1708.01
823.56	1691.62
823.74	1773.54
823.91	1636.33
824.08	1591.27
824.25	1654.76
824.42	1736.68
824.60	1587.18
824.77	1689.57
824.94	1710.05
825.11	1685.48
825.28	1605.61
825.45	1689.57
825.63	1734.63
825.80	1685.48
825.97	1701.86
826.14	1720.29
826.31	1632.23
826.48	1677.29
826.66	1630.18
826.83	1683.43
827.00	1746.92
827.17	1636.33
827.34	1646.57
827.51	1634.28
827.69	1677.29
827.86	1636.33
828.03	1652.71
828.20	1681.38
828.37	1634.28
828.54	1742.82
828.71	1570.79
828.89	1712.10
829.06	1701.86
829.23	1712.10
829.40	1611.75
829.57	1689.57
829.74	1742.82
829.91	1675.24
830.09	1687.53
830.26	1730.53
830.43	1765.35
830.60	1697.77
830.77	1691.62
830.94	1751.01
831.11	1785.83
831.28	1695.72
831.46	1773.54
831.63	1665.00
831.80	1732.58
831.97	1687.53
832.14	1679.33
832.31	1773.54
832.48	1705.96
832.65	1742.82
832.82	1695.72
832.99	1773.54
833.17	1656.81
833.34	1800.16
833.51	1652.71
833.68	1638.38
833.85	1738.73
834.02	1621.99
834.19	1722.34
834.36	1685.48
834.53	1675.24
834.70	1728.49
834.87	1744.87
835.04	1703.91
835.22	1599.46
835.39	1685.48
835.56	1669.09
835.73	1691.62
835.90	1701.86
836.07	1611.75
836.24	1740.77
836.41	1714.15
836.58	1617.90
836.75	1726.44
836.92	1710.05
837.09	1583.08
837.26	1708.01
837.43	1695.72
837.60	1771.49
837.77	1679.33
837.94	1701.86
838.12	1757.16
838.29	1712.10
838.46	1585.13
838.63	1566.70
838.80	1812.45
838.97	1685.48
839.14	1685.48
839.31	1697.77
839.48	1751.01
839.65	1621.99
839.82	1671.14
839.99	1638.38
840.16	1718.25
840.33	1576.94
840.50	1687.53
840.67	1626.09
840.84	1638.38
841.01	1671.14
841.18	1673.19
841.35	1722.34
841.52	1708.01
841.69	1789.92
841.86	1691.62
842.03	1656.81
842.20	1722.34
842.37	1705.96
842.54	1689.57
842.71	1607.66
842.88	1669.09
843.05	1740.77
843.22	1652.71
843.39	1710.05
843.56	1755.11
843.73	1685.48
843.90	1722.34
844.07	1753.06
844.24	1755.11
844.41	1761.25
844.58	1767.40
844.75	1697.77
844.92	1794.02
845.09	1681.38
845.26	1621.99
845.43	1765.35
845.60	1712.10
845.77	1740.77
845.94	1730.53
846.10	1740.77
846.27	1611.75
846.44	1640.42
846.61	1613.80
846.78	1683.43
846.95	1826.79
847.12	1650.66
847.29	1648.61
847.46	1609.70
847.63	1796.07
847.80	1722.34
847.97	1650.66
848.14	1849.32
848.31	1724.39
848.48	1609.70
848.65	1718.25
848.82	1650.66
848.98	1837.03
849.15	1746.92
849.32	1744.87
849.49	1720.29
849.66	1642.47
849.83	1714.15
850.00	1593.32
850.17	1755.11
850.34	1660.90
850.51	1597.42
850.68	1636.33
850.85	1783.78
851.01	1730.53
851.18	1677.29
851.35	1708.01
851.52	1724.39
851.69	1800.16
851.86	1630.18
852.03	1648.61
852.20	1748.97
852.37	1718.25
852.53	1583.08
852.70	1626.09
852.87	1691.62
853.04	1820.64
853.21	1769.44
853.38	1722.34
853.55	1685.48
853.72	1810.40
853.89	1683.43
854.05	1685.48
854.22	1718.25
854.39	1712.10
854.56	1691.62
854.73	1777.64
854.90	1742.82
855.07	1736.68
855.23	1728.49
855.40	1685.48
855.57	1673.19
855.74	1640.42
855.91	1826.79
856.08	1654.76
856.25	1615.85
856.41	1669.09
856.58	1611.75
856.75	1781.73
856.92	1662.95
857.09	1742.82
857.26	1615.85
857.42	1724.39
857.59	1746.92
857.76	1667.05
857.93	1611.75
858.10	1714.15
858.27	1605.61
858.43	1726.44
858.60	1662.95
858.77	1671.14
858.94	1658.85
859.11	1689.57
859.27	1705.96
859.44	1751.01
859.61	1898.47
859.78	1757.16
859.95	1714.15
860.12	1673.19
860.28	1820.64
860.45	1837.03
860.62	1617.90
860.79	1722.34
860.95	1708.01
861.12	1626.09
861.29	1611.75
861.46	1679.33
861.63	1738.73
861.79	1654.76
861.96	1675.24
862.13	1658.85
862.30	1740.77
862.47	1722.34
862.63	1634.28
862.80	1712.10
862.97	1701.86
863.14	1773.54
863.30	1669.09
863.47	1708.01
863.64	1746.92
863.81	1615.85
863.97	1638.38
864.14	1738.73
864.31	1728.49
864.48	1781.73
864.65	1742.82
864.81	1689.57
864.98	1652.71
865.15	1691.62
865.32	1822.69
865.48	1738.73
865.65	1767.40
865.82	1636.33
865.98	1691.62
866.15	1810.40
866.32	1660.90
866.49	1695.72
866.65	1701.86
866.82	1556.46
866.99	1710.05
867.16	1636.33
867.32	1630.18
867.49	1662.95
867.66	1728.49
867.83	1673.19
867.99	1624.04
868.16	1697.77
868.33	1546.22
868.49	1662.95
868.66	1685.48
868.83	1689.57
868.99	1689.57
869.16	1689.57
869.33	1714.15
869.50	1634.28
869.66	1720.29
869.83	1654.76
870.00	1671.14
870.16	1736.68
870.33	1708.01
870.50	1794.02
870.66	1736.68
870.83	1822.69
871.00	1660.90
871.17	1689.57
871.33	1673.19
871.50	1656.81
871.67	1689.57
871.83	1624.04
872.00	1841.12
872.17	1714.15
872.33	1771.49
872.50	1761.25
872.67	1718.25
872.83	1708.01
873.00	1695.72
873.17	1642.47
873.33	1755.11
873.50	1728.49
873.67	1679.33
873.83	1718.25
874.00	1691.62
874.16	1777.64
874.33	1581.03
874.50	1628.14
874.66	1734.63
874.83	1710.05
875.00	1773.54
875.16	1763.30
875.33	1763.30
875.50	1591.27
875.66	1687.53
875.83	1767.40
875.99	1763.30
876.16	1689.57
876.33	1697.77
876.49	1665.00
876.66	1677.29
876.83	1650.66
876.99	1632.23
877.16	1654.76
877.32	1656.81
877.49	1669.09
877.66	1617.90
877.82	1722.34
877.99	1656.81
878.15	1771.49
878.32	1683.43
878.49	1628.14
878.65	1654.76
878.82	1845.22
878.98	1675.24
879.15	1716.20
879.32	1765.35
879.48	1708.01
879.65	1662.95
879.81	1615.85
879.98	1646.57
880.15	1665.00
880.31	1728.49
880.48	1677.29
880.64	1796.07
880.81	1669.09
880.97	1800.16
881.14	1722.34
881.31	1636.33
881.47	1861.60
881.64	1665.00
881.80	1665.00
881.97	1718.25
882.13	1730.53
882.30	1656.81
882.47	1714.15
882.63	1667.05
882.80	1656.81
882.96	1689.57
883.13	1796.07
883.29	1712.10
883.46	1697.77
883.62	1796.07
883.79	1748.97
883.95	1732.58
884.12	1705.96
884.29	1787.88
884.45	1720.29
884.62	1748.97
884.78	1636.33
884.95	1720.29
885.11	1636.33
885.28	1650.66
885.44	1669.09
885.61	1650.66
885.77	1724.39
885.94	1804.26
886.10	1693.67
886.27	1697.77
886.43	1830.88
886.60	1740.77
886.76	1650.66
886.93	1648.61
887.09	1755.11
887.26	1583.08
887.42	1730.53
887.59	1832.93
887.75	1822.69
887.92	1763.30
888.08	1759.21
888.25	1697.77
888.41	1769.44
888.58	1681.38
888.74	1626.09
888.91	1654.76
>>>>>End Processed Spectral Data<<<<<
