SpectraSuite Data File
++++++++++++++++++++++++++++++++++++
Date: Mon Jun 06 17:01:17 CEST 2016
User: root
Dark Spectrum Present: No
Reference Spectrum Present: No
Number of Sampled Component Spectra: 1
Spectrometers: USB4C02835
Integration Time (usec): 100000 (USB4C02835)
Spectra Averaged: 1 (USB4C02835)
Boxcar Smoothing: 0 (USB4C02835)
Correct for Electrical Dark: No (USB4C02835)
Strobe/Lamp Enabled: No (USB4C02835)
Correct for Detector Non-linearity: No (USB4C02835)
Correct for Stray Light: No (USB4C02835)
Number of Pixels in Processed Spectrum: 3648
>>>>>Begin Processed Spectral Data<<<<<
177.47	1443.82
177.69	1443.82
177.91	1443.82
178.13	1411.05
178.36	1443.82
178.58	1591.27
178.80	1767.40
179.02	1695.72
179.24	1624.04
179.46	1679.33
179.68	1765.35
179.90	1742.82
180.13	1677.29
180.35	1673.19
180.57	1763.30
180.79	1742.82
181.01	1685.48
181.23	1742.82
181.45	1783.78
181.67	1744.87
181.90	1712.10
182.12	1699.81
182.34	1603.56
182.56	1759.21
182.78	1673.19
183.00	1689.57
183.22	1789.92
183.44	1591.27
183.66	1873.89
183.89	1794.02
184.11	1736.68
184.33	1765.35
184.55	1785.83
184.77	1740.77
184.99	1683.43
185.21	1665.00
185.43	1822.69
185.65	1714.15
185.87	1777.64
186.10	1820.64
186.32	1888.23
186.54	1796.07
186.76	1632.23
186.98	1853.41
187.20	1665.00
187.42	1726.44
187.64	1722.34
187.86	1718.25
188.08	1728.49
188.30	1630.18
188.52	1638.38
188.75	1755.11
188.97	1853.41
189.19	1701.86
189.41	1781.73
189.63	1783.78
189.85	1722.34
190.07	1638.38
190.29	1699.81
190.51	1759.21
190.73	1646.57
190.95	1726.44
191.17	1718.25
191.39	1572.84
191.61	1732.58
191.84	1734.63
192.06	1832.93
192.28	1562.60
192.50	1884.13
192.72	1726.44
192.94	1759.21
193.16	1787.88
193.38	1732.58
193.60	1601.51
193.82	1726.44
194.04	1769.44
194.26	1753.06
194.48	1740.77
194.70	1591.27
194.92	1710.05
195.14	1828.84
195.36	1740.77
195.58	1757.16
195.80	1683.43
196.02	1660.90
196.24	1701.86
196.46	1712.10
196.69	1703.91
196.91	1787.88
197.13	1683.43
197.35	1687.53
197.57	1775.59
197.79	1806.31
198.01	1777.64
198.23	1746.92
198.45	1726.44
198.67	1617.90
198.89	1665.00
199.11	1746.92
199.33	1687.53
199.55	1581.03
199.77	1640.42
199.99	1761.25
200.21	1636.33
200.43	1689.57
200.65	1685.48
200.87	1679.33
201.09	1753.06
201.31	1626.09
201.53	1755.11
201.75	1824.74
201.97	1796.07
202.19	1720.29
202.41	1783.78
202.63	1824.74
202.85	1753.06
203.07	1783.78
203.29	1693.67
203.51	1609.70
203.73	1615.85
203.95	1918.95
204.17	1734.63
204.39	1679.33
204.61	1675.24
204.83	1722.34
205.05	1828.84
205.27	1802.21
205.49	1791.97
205.71	1708.01
205.93	1642.47
206.15	1689.57
206.37	1675.24
206.59	1701.86
206.81	1632.23
207.03	1677.29
207.25	1624.04
207.47	1705.96
207.69	1679.33
207.91	1798.12
208.13	1763.30
208.34	1665.00
208.56	1767.40
208.78	1763.30
209.00	1619.94
209.22	1699.81
209.44	1722.34
209.66	1734.63
209.88	1701.86
210.10	1736.68
210.32	1683.43
210.54	1826.79
210.76	1634.28
210.98	1753.06
211.20	1609.70
211.42	1701.86
211.64	1736.68
211.86	1636.33
212.08	1720.29
212.30	1748.97
212.52	1687.53
212.74	1693.67
212.96	1708.01
213.17	1787.88
213.39	1734.63
213.61	1712.10
213.83	1718.25
214.05	1550.31
214.27	1736.68
214.49	1556.46
214.71	1683.43
214.93	1732.58
215.15	1708.01
215.37	1826.79
215.59	1615.85
215.81	1730.53
216.03	1748.97
216.24	1818.60
216.46	1693.67
216.68	1740.77
216.90	1759.21
217.12	1730.53
217.34	1730.53
217.56	1753.06
217.78	1781.73
218.00	1744.87
218.22	1736.68
218.44	1689.57
218.66	1718.25
218.87	1783.78
219.09	1669.09
219.31	1738.73
219.53	1679.33
219.75	1658.85
219.97	1748.97
220.19	1763.30
220.41	1699.81
220.63	1855.46
220.85	1742.82
221.06	1720.29
221.28	1724.39
221.50	1775.59
221.72	1703.91
221.94	1740.77
222.16	1671.14
222.38	1632.23
222.60	1757.16
222.82	1720.29
223.03	1716.20
223.25	1628.14
223.47	1810.40
223.69	1775.59
223.91	1687.53
224.13	1738.73
224.35	1677.29
224.57	1724.39
224.78	1761.25
225.00	1652.71
225.22	1728.49
225.44	1665.00
225.66	1777.64
225.88	1708.01
226.10	1730.53
226.32	1753.06
226.53	1722.34
226.75	1646.57
226.97	1660.90
227.19	1789.92
227.41	1693.67
227.63	1683.43
227.85	1609.70
228.06	1761.25
228.28	1796.07
228.50	1785.83
228.72	1644.52
228.94	1681.38
229.16	1646.57
229.37	1615.85
229.59	1613.80
229.81	1796.07
230.03	1689.57
230.25	1632.23
230.47	1630.18
230.69	1685.48
230.90	1769.44
231.12	1753.06
231.34	1697.77
231.56	1761.25
231.78	1681.38
232.00	1683.43
232.21	1671.14
232.43	1662.95
232.65	1613.80
232.87	1724.39
233.09	1710.05
233.30	1646.57
233.52	1777.64
233.74	1675.24
233.96	1628.14
234.18	1744.87
234.40	1708.01
234.61	1818.60
234.83	1683.43
235.05	1665.00
235.27	1822.69
235.49	1742.82
235.70	1740.77
235.92	1832.93
236.14	1736.68
236.36	1828.84
236.58	1660.90
236.79	1839.08
237.01	1695.72
237.23	1701.86
237.45	1746.92
237.67	1701.86
237.88	1740.77
238.10	1773.54
238.32	1597.42
238.54	1712.10
238.76	1734.63
238.97	1708.01
239.19	1640.42
239.41	1761.25
239.63	1822.69
239.85	1689.57
240.06	1695.72
240.28	1630.18
240.50	1742.82
240.72	1716.20
240.93	1689.57
241.15	1798.12
241.37	1687.53
241.59	1746.92
241.81	1665.00
242.02	1734.63
242.24	1746.92
242.46	1730.53
242.68	1638.38
242.89	1683.43
243.11	1802.21
243.33	1724.39
243.55	1718.25
243.76	1796.07
243.98	1675.24
244.20	1734.63
244.42	1630.18
244.64	1771.49
244.85	1675.24
245.07	1634.28
245.29	1732.58
245.51	1712.10
245.72	1712.10
245.94	1845.22
246.16	1665.00
246.38	1689.57
246.59	1611.75
246.81	1656.81
247.03	1697.77
247.24	1599.46
247.46	1693.67
247.68	1728.49
247.90	1738.73
248.11	1740.77
248.33	1732.58
248.55	1660.90
248.77	1734.63
248.98	1775.59
249.20	1824.74
249.42	1679.33
249.64	1699.81
249.85	1769.44
250.07	1710.05
250.29	1753.06
250.50	1732.58
250.72	1652.71
250.94	1722.34
251.16	1763.30
251.37	1773.54
251.59	1753.06
251.81	1771.49
252.02	1753.06
252.24	1662.95
252.46	1755.11
252.68	1646.57
252.89	1634.28
253.11	1587.18
253.33	1896.42
253.54	1794.02
253.76	1617.90
253.98	1626.09
254.20	1617.90
254.41	1621.99
254.63	1681.38
254.85	1642.47
255.06	1667.05
255.28	1712.10
255.50	1771.49
255.71	1658.85
255.93	1642.47
256.15	1695.72
256.36	1697.77
256.58	1632.23
256.80	1738.73
257.02	1744.87
257.23	1708.01
257.45	1724.39
257.67	1732.58
257.88	1630.18
258.10	1783.78
258.32	1718.25
258.53	1677.29
258.75	1791.97
258.97	1591.27
259.18	1652.71
259.40	1687.53
259.62	1828.84
259.83	1849.32
260.05	1818.60
260.27	2033.63
260.48	1748.97
260.70	1658.85
260.92	1617.90
261.13	1710.05
261.35	1728.49
261.57	1626.09
261.78	1619.94
262.00	1683.43
262.22	1708.01
262.43	1642.47
262.65	1662.95
262.86	1644.52
263.08	1806.31
263.30	1683.43
263.51	1628.14
263.73	1710.05
263.95	1722.34
264.16	1628.14
264.38	1722.34
264.60	1712.10
264.81	1724.39
265.03	1787.88
265.25	1759.21
265.46	1693.67
265.68	1701.86
265.89	1755.11
266.11	1607.66
266.33	1642.47
266.54	1787.88
266.76	1800.16
266.98	1791.97
267.19	1767.40
267.41	1615.85
267.62	1761.25
267.84	1599.46
268.06	1771.49
268.27	1640.42
268.49	1730.53
268.70	1779.68
268.92	1757.16
269.14	1748.97
269.35	1550.31
269.57	1738.73
269.79	1748.97
270.00	1667.05
270.22	1765.35
270.43	1607.66
270.65	1611.75
270.87	1710.05
271.08	1658.85
271.30	1738.73
271.51	1730.53
271.73	1771.49
271.95	1748.97
272.16	1640.42
272.38	1669.09
272.59	1650.66
272.81	1738.73
273.02	1708.01
273.24	1718.25
273.46	1808.36
273.67	1660.90
273.89	1714.15
274.10	1710.05
274.32	1802.21
274.54	1695.72
274.75	1763.30
274.97	1681.38
275.18	1691.62
275.40	1775.59
275.61	1753.06
275.83	1662.95
276.05	1681.38
276.26	1722.34
276.48	1724.39
276.69	1644.52
276.91	1693.67
277.12	1820.64
277.34	1804.26
277.55	1777.64
277.77	1740.77
277.99	1730.53
278.20	1628.14
278.42	1665.00
278.63	1667.05
278.85	1730.53
279.06	1644.52
279.28	1779.68
279.49	1806.31
279.71	1816.55
279.93	1751.01
280.14	1740.77
280.36	1656.81
280.57	1751.01
280.79	1744.87
281.00	1615.85
281.22	1636.33
281.43	1716.20
281.65	1632.23
281.86	1650.66
282.08	1689.57
282.29	1796.07
282.51	1585.13
282.73	1607.66
282.94	1613.80
283.16	1751.01
283.37	1771.49
283.59	1669.09
283.80	1773.54
284.02	1705.96
284.23	1763.30
284.45	1599.46
284.66	1673.19
284.88	1689.57
285.09	1720.29
285.31	1839.08
285.52	1642.47
285.74	1650.66
285.95	1810.40
286.17	1726.44
286.38	1802.21
286.60	1599.46
286.81	1763.30
287.03	1714.15
287.24	1642.47
287.46	1767.40
287.67	1722.34
287.89	1808.36
288.10	1722.34
288.32	1724.39
288.53	1767.40
288.75	1730.53
288.96	1681.38
289.18	1699.81
289.39	1667.05
289.61	1769.44
289.82	1791.97
290.04	1822.69
290.25	1669.09
290.47	1648.61
290.68	1708.01
290.90	1863.65
291.11	1654.76
291.33	1789.92
291.54	1601.51
291.76	1736.68
291.97	1693.67
292.18	1689.57
292.40	1642.47
292.61	1681.38
292.83	1771.49
293.04	1732.58
293.26	1767.40
293.47	1697.77
293.69	1603.56
293.90	1724.39
294.12	1773.54
294.33	1708.01
294.55	1718.25
294.76	1732.58
294.97	1769.44
295.19	1847.27
295.40	1648.61
295.62	1699.81
295.83	1751.01
296.05	1673.19
296.26	1773.54
296.48	1718.25
296.69	1769.44
296.90	1699.81
297.12	1839.08
297.33	1789.92
297.55	1730.53
297.76	1705.96
297.98	1796.07
298.19	1720.29
298.41	1613.80
298.62	1699.81
298.83	1728.49
299.05	1718.25
299.26	1685.48
299.48	1697.77
299.69	1724.39
299.90	1705.96
300.12	1705.96
300.33	1660.90
300.55	1730.53
300.76	1738.73
300.98	1615.85
301.19	1775.59
301.40	1644.52
301.62	1619.94
301.83	1777.64
302.05	1691.62
302.26	1650.66
302.47	1712.10
302.69	1712.10
302.90	1771.49
303.12	1619.94
303.33	1673.19
303.54	1718.25
303.76	1662.95
303.97	1753.06
304.19	1769.44
304.40	1701.86
304.61	1718.25
304.83	1800.16
305.04	1761.25
305.26	1726.44
305.47	1714.15
305.68	1681.38
305.90	1644.52
306.11	1773.54
306.33	1691.62
306.54	1730.53
306.75	1609.70
306.97	1644.52
307.18	1650.66
307.39	1675.24
307.61	1759.21
307.82	1701.86
308.04	1757.16
308.25	1691.62
308.46	1751.01
308.68	1716.20
308.89	1736.68
309.10	1773.54
309.32	1753.06
309.53	1662.95
309.74	1808.36
309.96	1755.11
310.17	1755.11
310.39	1679.33
310.60	1789.92
310.81	1773.54
311.03	1695.72
311.24	1779.68
311.45	1665.00
311.67	1826.79
311.88	1765.35
312.09	1697.77
312.31	1689.57
312.52	1701.86
312.73	1720.29
312.95	1587.18
313.16	1703.91
313.37	1718.25
313.59	1742.82
313.80	1751.01
314.01	1718.25
314.23	1687.53
314.44	1697.77
314.65	1619.94
314.87	1630.18
315.08	1726.44
315.29	1671.14
315.51	1656.81
315.72	1646.57
315.93	1794.02
316.15	1783.78
316.36	1701.86
316.57	1740.77
316.79	1726.44
317.00	1691.62
317.21	1695.72
317.43	1708.01
317.64	1722.34
317.85	1669.09
318.07	1703.91
318.28	1738.73
318.49	1814.50
318.70	1923.04
318.92	1859.56
319.13	1812.45
319.34	1877.99
319.56	1742.82
319.77	1843.17
319.98	1814.50
320.20	1802.21
320.41	1775.59
320.62	1783.78
320.83	1746.92
321.05	1855.46
321.26	1748.97
321.47	1652.71
321.69	1779.68
321.90	1642.47
322.11	1710.05
322.32	1742.82
322.54	1722.34
322.75	1679.33
322.96	1820.64
323.18	1677.29
323.39	1595.37
323.60	1779.68
323.81	1863.65
324.03	1675.24
324.24	1703.91
324.45	1687.53
324.66	1726.44
324.88	1808.36
325.09	1822.69
325.30	1712.10
325.52	1738.73
325.73	1796.07
325.94	1568.74
326.15	1609.70
326.37	1615.85
326.58	1775.59
326.79	1822.69
327.00	1718.25
327.22	1724.39
327.43	1697.77
327.64	1703.91
327.85	1808.36
328.07	1757.16
328.28	1755.11
328.49	1738.73
328.70	1755.11
328.92	1697.77
329.13	1667.05
329.34	1806.31
329.55	1828.84
329.76	1732.58
329.98	1720.29
330.19	1714.15
330.40	1771.49
330.61	1701.86
330.83	1734.63
331.04	1687.53
331.25	1683.43
331.46	1675.24
331.68	1681.38
331.89	1783.78
332.10	1640.42
332.31	1685.48
332.52	1685.48
332.74	1814.50
332.95	1648.61
333.16	1675.24
333.37	1775.59
333.58	1710.05
333.80	1785.83
334.01	1632.23
334.22	1714.15
334.43	1677.29
334.64	1665.00
334.86	1632.23
335.07	1650.66
335.28	1849.32
335.49	1640.42
335.70	1720.29
335.92	1806.31
336.13	1810.40
336.34	1714.15
336.55	1798.12
336.76	1796.07
336.98	1626.09
337.19	1761.25
337.40	1779.68
337.61	1796.07
337.82	1665.00
338.04	1769.44
338.25	1685.48
338.46	1757.16
338.67	1765.35
338.88	1634.28
339.09	1701.86
339.31	1724.39
339.52	1693.67
339.73	1683.43
339.94	1759.21
340.15	1769.44
340.36	1617.90
340.58	1689.57
340.79	1605.61
341.00	1781.73
341.21	1515.50
341.42	1814.50
341.63	1656.81
341.85	1742.82
342.06	1746.92
342.27	1710.05
342.48	1755.11
342.69	1691.62
342.90	1705.96
343.12	1834.98
343.33	1714.15
343.54	1804.26
343.75	1757.16
343.96	1746.92
344.17	1679.33
344.38	1646.57
344.60	1585.13
344.81	1562.60
345.02	1683.43
345.23	1820.64
345.44	1730.53
345.65	1738.73
345.86	1677.29
346.07	1738.73
346.29	1660.90
346.50	1812.45
346.71	1791.97
346.92	1839.08
347.13	1873.89
347.34	1654.76
347.55	1654.76
347.76	1730.53
347.98	1652.71
348.19	1730.53
348.40	1820.64
348.61	1697.77
348.82	1789.92
349.03	1767.40
349.24	1685.48
349.45	1742.82
349.66	1693.67
349.88	1675.24
350.09	1607.66
350.30	1695.72
350.51	1849.32
350.72	1701.86
350.93	1671.14
351.14	1705.96
351.35	1779.68
351.56	1716.20
351.77	1701.86
351.99	1703.91
352.20	1814.50
352.41	1808.36
352.62	1591.27
352.83	1738.73
353.04	1699.81
353.25	1738.73
353.46	1824.74
353.67	1773.54
353.88	1689.57
354.09	1697.77
354.30	1718.25
354.52	1744.87
354.73	1697.77
354.94	1685.48
355.15	1722.34
355.36	1832.93
355.57	1675.24
355.78	1800.16
355.99	1683.43
356.20	1759.21
356.41	1839.08
356.62	1689.57
356.83	1673.19
357.04	1845.22
357.25	1611.75
357.46	1609.70
357.68	1621.99
357.89	1669.09
358.10	1771.49
358.31	1722.34
358.52	1705.96
358.73	1628.14
358.94	1660.90
359.15	1718.25
359.36	1761.25
359.57	1691.62
359.78	1677.29
359.99	1740.77
360.20	1677.29
360.41	1712.10
360.62	1705.96
360.83	1724.39
361.04	1773.54
361.25	1681.38
361.46	1771.49
361.67	1755.11
361.88	1740.77
362.09	1818.60
362.30	1781.73
362.51	1746.92
362.72	1679.33
362.93	1802.21
363.14	1783.78
363.35	1701.86
363.56	1677.29
363.78	1771.49
363.99	1837.03
364.20	1648.61
364.41	1730.53
364.62	1824.74
364.83	1705.96
365.04	1671.14
365.25	1714.15
365.46	1949.67
365.67	1695.72
365.88	1648.61
366.09	1677.29
366.30	1615.85
366.51	1703.91
366.72	1728.49
366.93	1714.15
367.14	1716.20
367.35	1779.68
367.56	1681.38
367.77	1716.20
367.98	1740.77
368.18	1771.49
368.39	1726.44
368.60	1654.76
368.81	1714.15
369.02	1712.10
369.23	1736.68
369.44	1646.57
369.65	1691.62
369.86	1712.10
370.07	1726.44
370.28	1710.05
370.49	1763.30
370.70	1810.40
370.91	1603.56
371.12	1644.52
371.33	1787.88
371.54	1703.91
371.75	1808.36
371.96	1556.46
372.17	1748.97
372.38	1705.96
372.59	1771.49
372.80	1693.67
373.01	1722.34
373.22	1720.29
373.43	1673.19
373.64	1599.46
373.85	1769.44
374.06	1816.55
374.26	1734.63
374.47	1787.88
374.68	1820.64
374.89	1722.34
375.10	1652.71
375.31	1804.26
375.52	1705.96
375.73	1794.02
375.94	1662.95
376.15	1871.84
376.36	1703.91
376.57	1685.48
376.78	1710.05
376.99	1789.92
377.20	1789.92
377.40	1712.10
377.61	1837.03
377.82	1617.90
378.03	1826.79
378.24	1673.19
378.45	1710.05
378.66	1728.49
378.87	1679.33
379.08	1630.18
379.29	1718.25
379.50	1755.11
379.71	1697.77
379.91	1796.07
380.12	1697.77
380.33	1722.34
380.54	1703.91
380.75	1751.01
380.96	1597.42
381.17	1734.63
381.38	1773.54
381.59	1701.86
381.80	1662.95
382.00	1886.18
382.21	1773.54
382.42	1884.13
382.63	1888.23
382.84	1767.40
383.05	1808.36
383.26	1761.25
383.47	1769.44
383.68	1701.86
383.88	1800.16
384.09	1828.84
384.30	1828.84
384.51	1708.01
384.72	1642.47
384.93	1660.90
385.14	1687.53
385.35	1669.09
385.55	1652.71
385.76	1757.16
385.97	1697.77
386.18	1646.57
386.39	1665.00
386.60	1691.62
386.81	1742.82
387.02	1681.38
387.22	1730.53
387.43	1742.82
387.64	1849.32
387.85	1951.71
388.06	2123.74
388.27	4130.75
388.48	6799.26
388.68	8001.41
388.89	9355.12
389.10	9592.69
389.31	8411.01
389.52	7464.85
389.73	6475.68
389.93	6211.49
390.14	5797.80
390.35	5093.30
390.56	4517.82
390.77	3835.85
390.98	3020.75
391.18	2490.33
391.39	2254.81
391.60	1869.80
391.81	1849.32
392.02	1710.05
392.23	1814.50
392.43	1705.96
392.64	1740.77
392.85	1724.39
393.06	1896.42
393.27	1785.83
393.47	1675.24
393.68	1644.52
393.89	1708.01
394.10	1808.36
394.31	1677.29
394.52	1693.67
394.72	1697.77
394.93	1757.16
395.14	1673.19
395.35	1755.11
395.56	1697.77
395.76	1703.91
395.97	1761.25
396.18	1820.64
396.39	1824.74
396.60	2103.26
396.80	1910.75
397.01	1820.64
397.22	1826.79
397.43	1888.23
397.64	1687.53
397.84	1845.22
398.05	1884.13
398.26	1714.15
398.47	1703.91
398.67	1730.53
398.88	1718.25
399.09	1808.36
399.30	1683.43
399.51	1722.34
399.71	1675.24
399.92	1738.73
400.13	1753.06
400.34	1767.40
400.54	1630.18
400.75	1818.60
400.96	1691.62
401.17	1873.89
401.37	1724.39
401.58	1642.47
401.79	1748.97
402.00	1898.47
402.21	2033.63
402.41	1925.09
402.62	1990.63
402.83	2009.06
403.04	2011.11
403.24	2072.54
403.45	1937.38
403.66	1998.82
403.87	1906.66
404.07	1906.66
404.28	1945.57
404.49	1853.41
404.70	1789.92
404.90	1740.77
405.11	1810.40
405.32	1738.73
405.52	1679.33
405.73	1728.49
405.94	1673.19
406.15	1759.21
406.35	1669.09
406.56	1814.50
406.77	1738.73
406.98	1753.06
407.18	1691.62
407.39	1816.55
407.60	1748.97
407.80	1728.49
408.01	1695.72
408.22	1738.73
408.43	1689.57
408.63	1736.68
408.84	1755.11
409.05	1771.49
409.25	1642.47
409.46	1650.66
409.67	1675.24
409.88	1732.58
410.08	1679.33
410.29	1716.20
410.50	1781.73
410.70	1720.29
410.91	1652.71
411.12	1775.59
411.32	1687.53
411.53	1669.09
411.74	1832.93
411.95	1748.97
412.15	1894.37
412.36	1779.68
412.57	1777.64
412.77	1861.60
412.98	1716.20
413.19	1705.96
413.39	1748.97
413.60	1714.15
413.81	1798.12
414.01	1595.37
414.22	1734.63
414.43	1789.92
414.63	1679.33
414.84	1759.21
415.05	1730.53
415.25	1712.10
415.46	1812.45
415.67	1751.01
415.87	1691.62
416.08	1763.30
416.29	1693.67
416.49	1724.39
416.70	1761.25
416.91	1640.42
417.11	1718.25
417.32	1718.25
417.53	1759.21
417.73	1714.15
417.94	1673.19
418.15	1740.77
418.35	1763.30
418.56	1779.68
418.77	1820.64
418.97	1775.59
419.18	1695.72
419.38	1685.48
419.59	1679.33
419.80	1824.74
420.00	1740.77
420.21	1693.67
420.42	1783.78
420.62	1755.11
420.83	1646.57
421.04	1669.09
421.24	1687.53
421.45	1777.64
421.65	1746.92
421.86	1785.83
422.07	1804.26
422.27	1753.06
422.48	1765.35
422.69	1656.81
422.89	1728.49
423.10	1630.18
423.30	1636.33
423.51	1699.81
423.72	1720.29
423.92	1724.39
424.13	1671.14
424.33	1751.01
424.54	1753.06
424.75	1806.31
424.95	1808.36
425.16	1787.88
425.36	1675.24
425.57	1773.54
425.78	1691.62
425.98	1685.48
426.19	1722.34
426.39	1681.38
426.60	1759.21
426.81	1802.21
427.01	1675.24
427.22	1669.09
427.42	1583.08
427.63	1656.81
427.83	1781.73
428.04	1841.12
428.25	1789.92
428.45	1740.77
428.66	1771.49
428.86	1665.00
429.07	1726.44
429.28	1726.44
429.48	1751.01
429.69	1609.70
429.89	1683.43
430.10	1699.81
430.30	1751.01
430.51	1789.92
430.71	1703.91
430.92	1705.96
431.13	1673.19
431.33	1751.01
431.54	1738.73
431.74	1865.70
431.95	1716.20
432.15	1689.57
432.36	1738.73
432.56	1773.54
432.77	1779.68
432.98	1802.21
433.18	1697.77
433.39	1681.38
433.59	1726.44
433.80	1812.45
434.00	1828.84
434.21	1703.91
434.41	1699.81
434.62	1796.07
434.82	1611.75
435.03	1595.37
435.23	1746.92
435.44	1576.94
435.64	1748.97
435.85	1765.35
436.06	1839.08
436.26	1806.31
436.47	1695.72
436.67	1683.43
436.88	1730.53
437.08	1779.68
437.29	1771.49
437.49	1791.97
437.70	1763.30
437.90	1742.82
438.11	1859.56
438.31	1757.16
438.52	1830.88
438.72	1802.21
438.93	1937.38
439.13	1765.35
439.34	1863.65
439.54	1740.77
439.75	1783.78
439.95	1716.20
440.16	1726.44
440.36	1710.05
440.57	1730.53
440.77	1789.92
440.98	1849.32
441.18	1773.54
441.39	1609.70
441.59	1734.63
441.80	1873.89
442.00	1714.15
442.21	1757.16
442.41	1673.19
442.62	1791.97
442.82	1662.95
443.02	1755.11
443.23	1744.87
443.43	1742.82
443.64	1845.22
443.84	1667.05
444.05	1808.36
444.25	1689.57
444.46	1789.92
444.66	1695.72
444.87	1863.65
445.07	1665.00
445.28	1673.19
445.48	1822.69
445.69	1730.53
445.89	1857.51
446.09	1806.31
446.30	2050.02
446.50	2645.98
446.71	3723.21
446.91	4290.49
447.12	4728.76
447.32	4771.77
447.53	4335.55
447.73	3829.70
447.93	3590.09
448.14	3323.85
448.34	3319.76
448.55	2914.26
448.75	2797.53
448.96	2660.31
449.16	2375.64
449.36	2351.07
449.57	2156.51
449.77	1929.19
449.98	1845.22
450.18	1771.49
450.39	1787.88
450.59	1726.44
450.79	1712.10
451.00	1685.48
451.20	1785.83
451.41	1738.73
451.61	1730.53
451.81	1757.16
452.02	1650.66
452.22	1730.53
452.43	1724.39
452.63	1714.15
452.84	1767.40
453.04	1763.30
453.24	1746.92
453.45	1699.81
453.65	1722.34
453.86	1671.14
454.06	1779.68
454.26	1675.24
454.47	1662.95
454.67	1816.55
454.87	1712.10
455.08	1769.44
455.28	1824.74
455.49	1708.01
455.69	1673.19
455.89	1931.23
456.10	1853.41
456.30	1767.40
456.51	1669.09
456.71	1724.39
456.91	1779.68
457.12	1781.73
457.32	1712.10
457.52	1734.63
457.73	1771.49
457.93	1701.86
458.14	1675.24
458.34	1628.14
458.54	1724.39
458.75	1734.63
458.95	1839.08
459.15	1705.96
459.36	1810.40
459.56	1755.11
459.76	1865.70
459.97	1771.49
460.17	1697.77
460.37	1834.98
460.58	1779.68
460.78	1751.01
460.99	1708.01
461.19	1710.05
461.39	1726.44
461.60	1697.77
461.80	1742.82
462.00	1710.05
462.21	1722.34
462.41	1689.57
462.61	1685.48
462.82	1675.24
463.02	1740.77
463.22	1728.49
463.43	1722.34
463.63	1728.49
463.83	1742.82
464.04	1751.01
464.24	1665.00
464.44	1748.97
464.64	1742.82
464.85	1732.58
465.05	1791.97
465.25	1675.24
465.46	1687.53
465.66	1726.44
465.86	1738.73
466.07	1740.77
466.27	1671.14
466.47	1609.70
466.68	1681.38
466.88	1781.73
467.08	1783.78
467.29	1796.07
467.49	1656.81
467.69	1708.01
467.89	1728.49
468.10	1734.63
468.30	1767.40
468.50	1779.68
468.71	1718.25
468.91	1597.42
469.11	1748.97
469.31	1714.15
469.52	1710.05
469.72	1771.49
469.92	1877.99
470.13	1730.53
470.33	1791.97
470.53	1744.87
470.73	2111.46
470.94	2220.00
471.14	2240.48
471.34	2557.91
471.54	2502.62
471.75	2281.44
471.95	2160.61
472.15	2156.51
472.36	2054.11
472.56	2113.50
472.76	2029.54
472.96	2043.87
473.17	2009.06
473.37	1869.80
473.57	1751.01
473.77	1796.07
473.98	1724.39
474.18	1683.43
474.38	1877.99
474.58	1665.00
474.79	1681.38
474.99	1804.26
475.19	1789.92
475.39	1705.96
475.60	1708.01
475.80	1685.48
476.00	1863.65
476.20	1697.77
476.41	1699.81
476.61	1880.04
476.81	1812.45
477.01	1675.24
477.21	1808.36
477.42	1896.42
477.62	1638.38
477.82	1808.36
478.02	1718.25
478.23	1708.01
478.43	1636.33
478.63	1632.23
478.83	1607.66
479.03	1742.82
479.24	1779.68
479.44	1822.69
479.64	1701.86
479.84	1585.13
480.04	1638.38
480.25	1748.97
480.45	1810.40
480.65	1738.73
480.85	1777.64
481.06	1660.90
481.26	1746.92
481.46	1769.44
481.66	1759.21
481.86	1701.86
482.06	1734.63
482.27	1710.05
482.47	1683.43
482.67	1726.44
482.87	1705.96
483.07	1886.18
483.28	1640.42
483.48	1634.28
483.68	1673.19
483.88	1683.43
484.08	1628.14
484.29	1638.38
484.49	1720.29
484.69	1603.56
484.89	1814.50
485.09	1708.01
485.29	1796.07
485.50	1763.30
485.70	1683.43
485.90	1865.70
486.10	1722.34
486.30	1767.40
486.50	1767.40
486.71	1724.39
486.91	1775.59
487.11	1763.30
487.31	1607.66
487.51	1712.10
487.71	1771.49
487.91	1699.81
488.12	1712.10
488.32	1642.47
488.52	1644.52
488.72	1658.85
488.92	1822.69
489.12	1759.21
489.32	1849.32
489.53	1783.78
489.73	1599.46
489.93	1820.64
490.13	1656.81
490.33	1607.66
490.53	1748.97
490.73	1746.92
490.94	1523.69
491.14	1841.12
491.34	1824.74
491.54	2164.70
491.74	2506.71
491.94	2961.36
492.14	3063.76
492.34	2990.03
492.54	2783.19
492.75	2467.80
492.95	2539.48
493.15	2334.68
493.35	2297.82
493.55	2168.80
493.75	2080.74
493.95	2066.40
494.15	1914.85
494.35	1880.04
494.56	1832.93
494.76	1783.78
494.96	1822.69
495.16	1755.11
495.36	1763.30
495.56	1771.49
495.76	1716.20
495.96	1740.77
496.16	1718.25
496.36	1828.84
496.56	1779.68
496.77	1763.30
496.97	1822.69
497.17	1816.55
497.37	1722.34
497.57	1796.07
497.77	1751.01
497.97	1714.15
498.17	1716.20
498.37	1726.44
498.57	1783.78
498.77	1699.81
498.97	1822.69
499.17	1798.12
499.38	1746.92
499.58	1763.30
499.78	1828.84
499.98	1751.01
500.18	1726.44
500.38	1673.19
500.58	1855.46
500.78	2475.99
500.98	4448.19
501.18	5826.47
501.38	6707.10
501.58	7108.50
501.78	6715.29
501.98	5523.37
502.18	5005.24
502.38	4358.08
502.58	4063.17
502.78	3868.61
502.98	3669.96
503.18	3440.59
503.38	3141.58
503.59	2904.02
503.79	2682.84
503.99	2480.09
504.19	2242.53
504.39	2189.28
504.59	2144.22
504.79	2156.51
504.99	2041.82
505.19	1976.29
505.39	1894.37
505.59	1982.43
505.79	1871.84
505.99	1877.99
506.19	1796.07
506.39	1845.22
506.59	1775.59
506.79	1783.78
506.99	1834.98
507.19	1800.16
507.39	1755.11
507.59	1648.61
507.79	1806.31
507.99	1689.57
508.19	1716.20
508.39	1697.77
508.59	1761.25
508.79	1851.36
508.99	1904.61
509.19	1669.09
509.39	1802.21
509.59	1697.77
509.79	1736.68
509.99	1765.35
510.19	1802.21
510.39	1740.77
510.59	1728.49
510.79	1626.09
510.99	1697.77
511.19	1802.21
511.39	1882.08
511.59	1740.77
511.79	1853.41
511.99	1785.83
512.19	1779.68
512.38	1732.58
512.58	1708.01
512.78	1751.01
512.98	1806.31
513.18	1869.80
513.38	1669.09
513.58	1753.06
513.78	1705.96
513.98	1800.16
514.18	1748.97
514.38	1748.97
514.58	1869.80
514.78	1730.53
514.98	1632.23
515.18	1699.81
515.38	1730.53
515.58	1847.27
515.78	1757.16
515.98	1714.15
516.18	1730.53
516.38	1775.59
516.57	1748.97
516.77	1789.92
516.97	1740.77
517.17	1691.62
517.37	1679.33
517.57	1839.08
517.77	1689.57
517.97	1689.57
518.17	1820.64
518.37	1775.59
518.57	1695.72
518.77	1744.87
518.97	1746.92
519.16	1808.36
519.36	1791.97
519.56	1742.82
519.76	1783.78
519.96	1679.33
520.16	1808.36
520.36	1767.40
520.56	1820.64
520.76	1705.96
520.96	1738.73
521.16	1802.21
521.35	1808.36
521.55	1808.36
521.75	1740.77
521.95	1773.54
522.15	1740.77
522.35	1656.81
522.55	1685.48
522.75	1781.73
522.95	1759.21
523.14	1703.91
523.34	1755.11
523.54	1757.16
523.74	1783.78
523.94	1720.29
524.14	1779.68
524.34	1828.84
524.54	1808.36
524.73	1716.20
524.93	1742.82
525.13	1738.73
525.33	1675.24
525.53	1943.52
525.73	1751.01
525.93	1783.78
526.13	1724.39
526.32	1718.25
526.52	1804.26
526.72	1796.07
526.92	1665.00
527.12	1648.61
527.32	1744.87
527.52	1736.68
527.71	1738.73
527.91	1699.81
528.11	1796.07
528.31	1689.57
528.51	1708.01
528.71	1787.88
528.90	1748.97
529.10	1777.64
529.30	1791.97
529.50	1652.71
529.70	1744.87
529.90	1689.57
530.09	1720.29
530.29	1650.66
530.49	1734.63
530.69	1892.32
530.89	1779.68
531.09	1775.59
531.28	1736.68
531.48	1796.07
531.68	1753.06
531.88	1853.41
532.08	1830.88
532.28	1736.68
532.47	1785.83
532.67	1779.68
532.87	1785.83
533.07	1722.34
533.27	1804.26
533.46	1730.53
533.66	1787.88
533.86	1689.57
534.06	1718.25
534.26	1718.25
534.45	1705.96
534.65	1769.44
534.85	1775.59
535.05	1753.06
535.25	1761.25
535.44	1595.37
535.64	1675.24
535.84	1738.73
536.04	1650.66
536.24	1648.61
536.43	1781.73
536.63	1816.55
536.83	1734.63
537.03	1673.19
537.22	1626.09
537.42	1638.38
537.62	1636.33
537.82	1705.96
538.02	1787.88
538.21	1845.22
538.41	1851.36
538.61	1773.54
538.81	1724.39
539.00	1783.78
539.20	1701.86
539.40	1642.47
539.60	1810.40
539.79	1779.68
539.99	1665.00
540.19	1699.81
540.39	1710.05
540.58	1828.84
540.78	1826.79
540.98	1761.25
541.18	1767.40
541.37	1714.15
541.57	1724.39
541.77	1859.56
541.97	1699.81
542.16	1558.50
542.36	1722.34
542.56	1673.19
542.76	1800.16
542.95	1753.06
543.15	1703.91
543.35	1820.64
543.54	1736.68
543.74	1718.25
543.94	1837.03
544.14	1732.58
544.33	1708.01
544.53	1732.58
544.73	1646.57
544.93	1673.19
545.12	1708.01
545.32	1656.81
545.52	1796.07
545.71	1742.82
545.91	1820.64
546.11	1740.77
546.30	1689.57
546.50	1742.82
546.70	1857.51
546.90	1738.73
547.09	1646.57
547.29	1648.61
547.49	1822.69
547.68	1714.15
547.88	1689.57
548.08	1763.30
548.27	2248.67
548.47	1722.34
548.67	1671.14
548.87	1755.11
549.06	1691.62
549.26	1800.16
549.46	1748.97
549.65	1740.77
549.85	1751.01
550.05	1734.63
550.24	1681.38
550.44	1771.49
550.64	1683.43
550.83	1748.97
551.03	1832.93
551.23	1806.31
551.42	1779.68
551.62	1812.45
551.82	1818.60
552.01	1740.77
552.21	1675.24
552.41	1781.73
552.60	1771.49
552.80	1771.49
553.00	1732.58
553.19	1763.30
553.39	1839.08
553.59	1691.62
553.78	1800.16
553.98	1802.21
554.17	1636.33
554.37	1779.68
554.57	1740.77
554.76	1595.37
554.96	1751.01
555.16	1710.05
555.35	1759.21
555.55	1755.11
555.75	1771.49
555.94	1705.96
556.14	1689.57
556.33	1849.32
556.53	1783.78
556.73	1748.97
556.92	1759.21
557.12	1798.12
557.32	1841.12
557.51	1871.84
557.71	1757.16
557.90	1869.80
558.10	1802.21
558.30	1705.96
558.49	1763.30
558.69	1695.72
558.88	1781.73
559.08	1769.44
559.28	1732.58
559.47	1781.73
559.67	1820.64
559.86	1902.56
560.06	1763.30
560.26	1771.49
560.45	1738.73
560.65	1691.62
560.84	1865.70
561.04	1644.52
561.24	1773.54
561.43	1693.67
561.63	1877.99
561.82	1783.78
562.02	1769.44
562.22	1708.01
562.41	1630.18
562.61	1791.97
562.80	1693.67
563.00	1898.47
563.19	1746.92
563.39	1771.49
563.59	1791.97
563.78	1658.85
563.98	1751.01
564.17	1697.77
564.37	1703.91
564.56	1761.25
564.76	1660.90
564.96	1767.40
565.15	1759.21
565.35	1898.47
565.54	1671.14
565.74	1822.69
565.93	1755.11
566.13	1679.33
566.32	1775.59
566.52	1828.84
566.71	1722.34
566.91	1763.30
567.11	1742.82
567.30	1720.29
567.50	1765.35
567.69	1785.83
567.89	1673.19
568.08	1763.30
568.28	1726.44
568.47	1800.16
568.67	1785.83
568.86	1699.81
569.06	1775.59
569.25	1767.40
569.45	1640.42
569.64	1728.49
569.84	1806.31
570.04	1742.82
570.23	1673.19
570.43	1716.20
570.62	1759.21
570.82	1914.85
571.01	1689.57
571.21	1669.09
571.40	1685.48
571.60	1781.73
571.79	1777.64
571.99	1759.21
572.18	1697.77
572.38	1783.78
572.57	1740.77
572.77	1714.15
572.96	1884.13
573.16	1804.26
573.35	1701.86
573.55	1873.89
573.74	1779.68
573.94	1763.30
574.13	1734.63
574.33	1808.36
574.52	1781.73
574.71	1699.81
574.91	1810.40
575.10	1724.39
575.30	1765.35
575.49	1724.39
575.69	1779.68
575.88	1740.77
576.08	1697.77
576.27	1714.15
576.47	1748.97
576.66	1802.21
576.86	1818.60
577.05	1726.44
577.25	1789.92
577.44	1816.55
577.64	1712.10
577.83	1834.98
578.02	1748.97
578.22	1853.41
578.41	1906.66
578.61	1769.44
578.80	1714.15
579.00	1744.87
579.19	1712.10
579.39	1753.06
579.58	1808.36
579.77	1755.11
579.97	1767.40
580.16	1826.79
580.36	1779.68
580.55	1796.07
580.75	1794.02
580.94	1800.16
581.13	1853.41
581.33	1873.89
581.52	1775.59
581.72	1908.71
581.91	1775.59
582.11	1722.34
582.30	1818.60
582.49	1798.12
582.69	1849.32
582.88	1773.54
583.08	1771.49
583.27	1853.41
583.47	1716.20
583.66	1755.11
583.85	1716.20
584.05	1748.97
584.24	1847.27
584.44	1734.63
584.63	1798.12
584.82	1884.13
585.02	1880.04
585.21	1763.30
585.41	1826.79
585.60	1861.60
585.79	1916.90
585.99	1935.33
586.18	1851.36
586.37	2117.60
586.57	3235.79
586.76	9662.32
586.96	24159.89
587.15	33979.90
587.34	39804.32
587.54	41461.13
587.73	36183.51
587.93	26019.44
588.12	21345.98
588.31	18071.28
588.51	15793.94
588.70	14845.73
588.89	13768.49
589.09	12525.38
589.28	10858.33
589.47	9416.56
589.67	7763.85
589.86	6264.74
590.06	4892.60
590.25	3835.85
590.44	3004.37
590.64	2594.78
590.83	2224.09
591.02	2138.08
591.22	1931.23
591.41	1925.09
591.60	1806.31
591.80	1912.80
591.99	1775.59
592.18	1732.58
592.38	1839.08
592.57	1767.40
592.76	1777.64
592.96	1781.73
593.15	1826.79
593.34	1822.69
593.54	1791.97
593.73	1775.59
593.92	1798.12
594.12	1736.68
594.31	1697.77
594.50	1841.12
594.70	1771.49
594.89	1884.13
595.08	1669.09
595.28	1806.31
595.47	1925.09
595.66	1787.88
595.86	1718.25
596.05	1763.30
596.24	1685.48
596.43	1810.40
596.63	1845.22
596.82	1673.19
597.01	1724.39
597.21	1875.94
597.40	1769.44
597.59	1718.25
597.79	1728.49
597.98	1789.92
598.17	1787.88
598.36	1757.16
598.56	1722.34
598.75	1761.25
598.94	1783.78
599.14	1697.77
599.33	1751.01
599.52	1830.88
599.71	1789.92
599.91	1828.84
600.10	1841.12
600.29	1714.15
600.48	1779.68
600.68	1810.40
600.87	1757.16
601.06	1748.97
601.26	1822.69
601.45	1759.21
601.64	1763.30
601.83	1800.16
602.03	1681.38
602.22	1691.62
602.41	1767.40
602.60	1935.33
602.80	1757.16
602.99	1828.84
603.18	1652.71
603.37	1687.53
603.57	1775.59
603.76	1763.30
603.95	1802.21
604.14	1748.97
604.34	1703.91
604.53	1726.44
604.72	1701.86
604.91	1781.73
605.10	1845.22
605.30	1671.14
605.49	1920.99
605.68	1740.77
605.87	1863.65
606.07	1705.96
606.26	1828.84
606.45	1748.97
606.64	1773.54
606.84	1718.25
607.03	1742.82
607.22	1796.07
607.41	1796.07
607.60	1708.01
607.80	1710.05
607.99	1742.82
608.18	1761.25
608.37	1687.53
608.56	1701.86
608.76	1794.02
608.95	1869.80
609.14	1695.72
609.33	1701.86
609.52	1824.74
609.72	1683.43
609.91	1845.22
610.10	1736.68
610.29	1849.32
610.48	1744.87
610.68	1820.64
610.87	1671.14
611.06	1748.97
611.25	1724.39
611.44	1820.64
611.63	1718.25
611.83	1839.08
612.02	1599.46
612.21	1742.82
612.40	1652.71
612.59	1734.63
612.79	1675.24
612.98	1744.87
613.17	1785.83
613.36	1738.73
613.55	1781.73
613.74	1665.00
613.93	1644.52
614.13	1701.86
614.32	1693.67
614.51	1712.10
614.70	1699.81
614.89	1699.81
615.08	1808.36
615.28	2029.54
615.47	1660.90
615.66	1734.63
615.85	1783.78
616.04	1783.78
616.23	1695.72
616.42	1738.73
616.62	1771.49
616.81	1673.19
617.00	1697.77
617.19	1828.84
617.38	1697.77
617.57	1673.19
617.76	1722.34
617.95	1830.88
618.15	1769.44
618.34	1834.98
618.53	1638.38
618.72	1869.80
618.91	1783.78
619.10	1787.88
619.29	1787.88
619.48	1808.36
619.68	1742.82
619.87	1757.16
620.06	1574.89
620.25	1708.01
620.44	1712.10
620.63	1673.19
620.82	1759.21
621.01	1738.73
621.20	1822.69
621.39	1718.25
621.59	1824.74
621.78	1701.86
621.97	1652.71
622.16	1767.40
622.35	1751.01
622.54	1773.54
622.73	1855.46
622.92	1658.85
623.11	1806.31
623.30	1748.97
623.49	1759.21
623.68	1679.33
623.88	1761.25
624.07	1632.23
624.26	1753.06
624.45	1755.11
624.64	1710.05
624.83	1785.83
625.02	1675.24
625.21	1738.73
625.40	1761.25
625.59	1875.94
625.78	1697.77
625.97	1761.25
626.16	1753.06
626.35	1689.57
626.54	1714.15
626.74	1824.74
626.93	1734.63
627.12	1689.57
627.31	1781.73
627.50	1771.49
627.69	1773.54
627.88	1699.81
628.07	1726.44
628.26	1644.52
628.45	1748.97
628.64	1712.10
628.83	1705.96
629.02	1607.66
629.21	1802.21
629.40	1703.91
629.59	1679.33
629.78	1789.92
629.97	1630.18
630.16	1681.38
630.35	1636.33
630.54	1746.92
630.73	1736.68
630.92	1734.63
631.11	1685.48
631.30	1783.78
631.49	1716.20
631.68	1720.29
631.87	1673.19
632.06	1701.86
632.25	1853.41
632.44	1763.30
632.63	1744.87
632.82	1718.25
633.01	1669.09
633.20	1791.97
633.39	1621.99
633.58	1632.23
633.77	1716.20
633.96	1746.92
634.15	1736.68
634.34	1816.55
634.53	1757.16
634.72	1718.25
634.91	1619.94
635.10	1765.35
635.29	1667.05
635.48	1769.44
635.67	1638.38
635.86	1693.67
636.05	1720.29
636.24	1726.44
636.43	1679.33
636.62	1806.31
636.81	1638.38
637.00	1710.05
637.19	1722.34
637.38	1767.40
637.57	1660.90
637.76	1708.01
637.95	1767.40
638.14	1779.68
638.33	1712.10
638.52	1763.30
638.71	1693.67
638.89	1593.32
639.08	1863.65
639.27	1767.40
639.46	1779.68
639.65	1851.36
639.84	1708.01
640.03	1812.45
640.22	1699.81
640.41	1755.11
640.60	1673.19
640.79	1738.73
640.98	1681.38
641.17	1693.67
641.36	1695.72
641.55	1787.88
641.74	1658.85
641.92	1687.53
642.11	1728.49
642.30	1726.44
642.49	1683.43
642.68	1722.34
642.87	1744.87
643.06	1746.92
643.25	1685.48
643.44	1738.73
643.63	1695.72
643.82	1689.57
644.00	1708.01
644.19	1673.19
644.38	1699.81
644.57	1703.91
644.76	1736.68
644.95	1710.05
645.14	1787.88
645.33	1720.29
645.52	1697.77
645.71	1708.01
645.89	1626.09
646.08	1761.25
646.27	1671.14
646.46	1900.52
646.65	1646.57
646.84	1714.15
647.03	1681.38
647.22	1812.45
647.40	1751.01
647.59	1665.00
647.78	1677.29
647.97	1685.48
648.16	1691.62
648.35	1853.41
648.54	1806.31
648.73	1636.33
648.91	1794.02
649.10	1765.35
649.29	1638.38
649.48	1714.15
649.67	1771.49
649.86	1673.19
650.05	1771.49
650.23	1779.68
650.42	1689.57
650.61	1814.50
650.80	1714.15
650.99	1820.64
651.18	1822.69
651.36	1746.92
651.55	1734.63
651.74	1746.92
651.93	1673.19
652.12	1732.58
652.31	1638.38
652.49	1716.20
652.68	1697.77
652.87	1746.92
653.06	1730.53
653.25	1724.39
653.44	1679.33
653.62	1775.59
653.81	1609.70
654.00	1665.00
654.19	1812.45
654.38	1896.42
654.56	1748.97
654.75	1761.25
654.94	1771.49
655.13	1658.85
655.32	1779.68
655.51	1814.50
655.69	1767.40
655.88	1777.64
656.07	1640.42
656.26	1757.16
656.45	1656.81
656.63	1730.53
656.82	1726.44
657.01	1849.32
657.20	1662.95
657.38	1841.12
657.57	1628.14
657.76	1652.71
657.95	1753.06
658.14	1685.48
658.32	1746.92
658.51	1652.71
658.70	1757.16
658.89	1718.25
659.08	1730.53
659.26	1826.79
659.45	1667.05
659.64	1712.10
659.83	1689.57
660.01	1959.91
660.20	1724.39
660.39	1812.45
660.58	1656.81
660.76	1757.16
660.95	1609.70
661.14	1757.16
661.33	1665.00
661.51	1734.63
661.70	1699.81
661.89	1728.49
662.08	1734.63
662.26	1642.47
662.45	1665.00
662.64	1828.84
662.83	1847.27
663.01	1718.25
663.20	1761.25
663.39	1849.32
663.58	1708.01
663.76	1767.40
663.95	1757.16
664.14	1646.57
664.32	1740.77
664.51	1705.96
664.70	1705.96
664.89	1787.88
665.07	1638.38
665.26	1787.88
665.45	1591.27
665.64	1708.01
665.82	1775.59
666.01	1789.92
666.20	1687.53
666.38	1837.03
666.57	1841.12
666.76	2129.89
666.95	4464.57
667.13	10033.00
667.32	15083.29
667.51	17583.86
667.69	18659.04
667.88	17473.27
668.07	12150.60
668.25	9412.46
668.44	7927.69
668.63	7298.96
668.81	6680.47
669.00	6332.32
669.19	5636.01
669.38	5056.43
669.56	4472.76
669.75	3989.44
669.94	3461.07
670.12	2838.48
670.31	2568.15
670.50	2338.78
670.68	2029.54
670.87	1910.75
671.06	1765.35
671.24	1794.02
671.43	1826.79
671.62	1814.50
671.80	1632.23
671.99	1738.73
672.18	1783.78
672.36	1771.49
672.55	1726.44
672.74	1724.39
672.92	1740.77
673.11	1779.68
673.29	1638.38
673.48	1740.77
673.67	1726.44
673.85	1814.50
674.04	1650.66
674.23	1716.20
674.41	1761.25
674.60	1632.23
674.79	1687.53
674.97	1730.53
675.16	1806.31
675.34	1751.01
675.53	1667.05
675.72	1662.95
675.90	1837.03
676.09	1742.82
676.28	1748.97
676.46	1617.90
676.65	1794.02
676.83	1679.33
677.02	1701.86
677.21	1724.39
677.39	1695.72
677.58	1730.53
677.77	1636.33
677.95	1689.57
678.14	1665.00
678.32	1708.01
678.51	1609.70
678.70	1800.16
678.88	1640.42
679.07	1742.82
679.25	1677.29
679.44	1701.86
679.63	1705.96
679.81	1806.31
680.00	1755.11
680.18	1667.05
680.37	1734.63
680.55	1765.35
680.74	1685.48
680.93	1570.79
681.11	1746.92
681.30	1681.38
681.48	1708.01
681.67	1718.25
681.85	1761.25
682.04	1697.77
682.23	1812.45
682.41	1705.96
682.60	1652.71
682.78	1624.04
682.97	1685.48
683.15	1718.25
683.34	1791.97
683.53	1845.22
683.71	1714.15
683.90	1783.78
684.08	1853.41
684.27	1703.91
684.45	1841.12
684.64	1824.74
684.82	1652.71
685.01	1765.35
685.19	1796.07
685.38	1714.15
685.57	1738.73
685.75	1705.96
685.94	1673.19
686.12	1691.62
686.31	1742.82
686.49	1828.84
686.68	1665.00
686.86	1734.63
687.05	1679.33
687.23	1734.63
687.42	1689.57
687.60	1646.57
687.79	1755.11
687.97	1857.51
688.16	1798.12
688.34	1718.25
688.53	1652.71
688.71	1728.49
688.90	1785.83
689.08	1617.90
689.27	1603.56
689.45	1753.06
689.64	1783.78
689.82	1771.49
690.01	1732.58
690.19	1798.12
690.38	1687.53
690.56	1787.88
690.75	1703.91
690.93	1640.42
691.12	1677.29
691.30	1701.86
691.49	1687.53
691.67	1650.66
691.86	1820.64
692.04	1581.03
692.23	1648.61
692.41	1708.01
692.60	1832.93
692.78	1755.11
692.97	1685.48
693.15	1822.69
693.34	1843.17
693.52	1810.40
693.71	1732.58
693.89	1718.25
694.08	1691.62
694.26	1720.29
694.44	1779.68
694.63	1738.73
694.81	1650.66
695.00	1648.61
695.18	1744.87
695.37	1843.17
695.55	1771.49
695.74	1703.91
695.92	1695.72
696.10	1779.68
696.29	1691.62
696.47	1693.67
696.66	1605.61
696.84	1673.19
697.03	1742.82
697.21	1843.17
697.40	2402.27
697.58	1753.06
697.76	1671.14
697.95	1748.97
698.13	1605.61
698.32	1564.65
698.50	1730.53
698.68	1832.93
698.87	1718.25
699.05	1820.64
699.24	1665.00
699.42	1693.67
699.61	1714.15
699.79	1773.54
699.97	1753.06
700.16	1740.77
700.34	1685.48
700.53	1712.10
700.71	1777.64
700.89	1843.17
701.08	1642.47
701.26	1847.27
701.45	2056.16
701.63	1665.00
701.81	1761.25
702.00	1675.24
702.18	1708.01
702.37	1634.28
702.55	1783.78
702.73	1695.72
702.92	1697.77
703.10	1775.59
703.28	1722.34
703.47	1650.66
703.65	1689.57
703.84	1718.25
704.02	1679.33
704.20	1812.45
704.39	1695.72
704.57	1658.85
704.75	1777.64
704.94	1710.05
705.12	1738.73
705.30	1822.69
705.49	2295.77
705.67	4339.65
705.86	9154.42
706.04	12283.72
706.22	14188.33
706.41	15214.36
706.59	13532.98
706.77	9480.05
706.96	7186.32
707.14	6430.62
707.32	5728.17
707.51	5552.04
707.69	4908.98
707.87	4229.06
708.06	3571.66
708.24	2998.23
708.42	2385.88
708.61	2209.76
708.79	1939.43
708.97	1908.71
709.16	1783.78
709.34	1800.16
709.52	1734.63
709.71	1736.68
709.89	1763.30
710.07	1689.57
710.26	1681.38
710.44	1722.34
710.62	1771.49
710.80	1761.25
710.99	1759.21
711.17	1732.58
711.35	1624.04
711.54	1658.85
711.72	1834.98
711.90	1738.73
712.09	1728.49
712.27	1644.52
712.45	1687.53
712.63	1744.87
712.82	1728.49
713.00	1673.19
713.18	1679.33
713.37	1742.82
713.55	1746.92
713.73	1769.44
713.91	1728.49
714.10	1732.58
714.28	1705.96
714.46	1746.92
714.65	1734.63
714.83	1681.38
715.01	1669.09
715.19	1710.05
715.38	1718.25
715.56	1724.39
715.74	1710.05
715.92	1642.47
716.11	1855.46
716.29	1675.24
716.47	1738.73
716.65	1724.39
716.84	1648.61
717.02	1767.40
717.20	1648.61
717.38	1607.66
717.57	1683.43
717.75	1734.63
717.93	1708.01
718.11	1691.62
718.30	1687.53
718.48	1656.81
718.66	1851.36
718.84	1746.92
719.03	1685.48
719.21	1667.05
719.39	1822.69
719.57	1757.16
719.75	1843.17
719.94	1683.43
720.12	1720.29
720.30	1742.82
720.48	1800.16
720.67	1683.43
720.85	1675.24
721.03	1646.57
721.21	1669.09
721.39	1837.03
721.58	1796.07
721.76	1708.01
721.94	1771.49
722.12	1705.96
722.30	1822.69
722.49	1675.24
722.67	1660.90
722.85	1708.01
723.03	1667.05
723.21	1724.39
723.40	1755.11
723.58	1730.53
723.76	1738.73
723.94	1759.21
724.12	1697.77
724.30	1779.68
724.49	1751.01
724.67	1705.96
724.85	1787.88
725.03	1630.18
725.21	1718.25
725.40	1804.26
725.58	1695.72
725.76	1732.58
725.94	1763.30
726.12	1681.38
726.30	1667.05
726.49	1763.30
726.67	1746.92
726.85	1720.29
727.03	1771.49
727.21	2140.13
727.39	2998.23
727.57	3743.69
727.76	4253.63
727.94	4378.56
728.12	4405.18
728.30	3622.86
728.48	3049.43
728.66	2668.50
728.84	2623.45
729.03	2385.88
729.21	2199.52
729.39	2002.91
729.57	1785.83
729.75	1888.23
729.93	1834.98
730.11	1609.70
730.30	1740.77
730.48	1724.39
730.66	1832.93
730.84	1757.16
731.02	1722.34
731.20	1695.72
731.38	1712.10
731.56	1679.33
731.74	1720.29
731.93	1740.77
732.11	1734.63
732.29	1673.19
732.47	1812.45
732.65	1791.97
732.83	1767.40
733.01	1730.53
733.19	1714.15
733.37	1746.92
733.56	1687.53
733.74	1681.38
733.92	1857.51
734.10	1691.62
734.28	1701.86
734.46	1624.04
734.64	1755.11
734.82	1634.28
735.00	1708.01
735.18	1665.00
735.36	1724.39
735.54	1734.63
735.73	1738.73
735.91	1683.43
736.09	1712.10
736.27	1714.15
736.45	1787.88
736.63	1615.85
736.81	1642.47
736.99	1757.16
737.17	1775.59
737.35	1701.86
737.53	1705.96
737.71	1685.48
737.89	1730.53
738.07	1603.56
738.25	1605.61
738.43	1615.85
738.61	1763.30
738.80	1648.61
738.98	1605.61
739.16	1683.43
739.34	1699.81
739.52	1847.27
739.70	1671.14
739.88	1767.40
740.06	1843.17
740.24	1644.52
740.42	1781.73
740.60	1665.00
740.78	1701.86
740.96	1599.46
741.14	1695.72
741.32	1705.96
741.50	1619.94
741.68	1765.35
741.86	1802.21
742.04	1695.72
742.22	1656.81
742.40	1744.87
742.58	1677.29
742.76	1671.14
742.94	1722.34
743.12	1607.66
743.30	1718.25
743.48	1693.67
743.66	1636.33
743.84	1755.11
744.02	1765.35
744.20	1744.87
744.38	1685.48
744.56	1595.37
744.74	1800.16
744.92	1738.73
745.10	1814.50
745.28	1687.53
745.46	1755.11
745.64	1699.81
745.82	1810.40
746.00	1738.73
746.18	1769.44
746.36	1648.61
746.54	1804.26
746.72	1722.34
746.90	1685.48
747.08	1802.21
747.26	1712.10
747.44	1728.49
747.62	1757.16
747.80	1755.11
747.98	1791.97
748.15	1701.86
748.33	1826.79
748.51	1697.77
748.69	1740.77
748.87	1665.00
749.05	1697.77
749.23	1660.90
749.41	1742.82
749.59	1632.23
749.77	1751.01
749.95	1675.24
750.13	1570.79
750.31	1718.25
750.49	1656.81
750.67	1687.53
750.85	1818.60
751.03	1697.77
751.20	1818.60
751.38	1697.77
751.56	1667.05
751.74	1767.40
751.92	1632.23
752.10	1673.19
752.28	1705.96
752.46	1632.23
752.64	1703.91
752.82	1628.14
753.00	1777.64
753.18	1753.06
753.35	1665.00
753.53	1699.81
753.71	1574.89
753.89	1789.92
754.07	1648.61
754.25	1773.54
754.43	1783.78
754.61	1675.24
754.79	1738.73
754.97	1679.33
755.14	1757.16
755.32	1587.18
755.50	1697.77
755.68	1781.73
755.86	1656.81
756.04	1675.24
756.22	1613.80
756.40	1789.92
756.57	1816.55
756.75	1630.18
756.93	1746.92
757.11	1740.77
757.29	1617.90
757.47	1609.70
757.65	1644.52
757.82	1593.32
758.00	1626.09
758.18	1683.43
758.36	1675.24
758.54	1785.83
758.72	1542.12
758.90	1730.53
759.07	1710.05
759.25	1527.78
759.43	1662.95
759.61	1695.72
759.79	2226.14
759.97	1724.39
760.15	1652.71
760.32	1759.21
760.50	1665.00
760.68	1804.26
760.86	1675.24
761.04	1775.59
761.22	1716.20
761.39	1697.77
761.57	1728.49
761.75	1748.97
761.93	1697.77
762.11	1783.78
762.28	1740.77
762.46	1632.23
762.64	1759.21
762.82	1630.18
763.00	1660.90
763.18	1753.06
763.35	1634.28
763.53	1740.77
763.71	1710.05
763.89	1724.39
764.07	1591.27
764.24	1673.19
764.42	1662.95
764.60	1691.62
764.78	1742.82
764.96	1839.08
765.13	1806.31
765.31	1691.62
765.49	1683.43
765.67	1667.05
765.84	1652.71
766.02	1705.96
766.20	1671.14
766.38	1757.16
766.56	1667.05
766.73	1736.68
766.91	1679.33
767.09	1724.39
767.27	1744.87
767.44	1716.20
767.62	1748.97
767.80	1728.49
767.98	1558.50
768.15	1662.95
768.33	1699.81
768.51	1779.68
768.69	1742.82
768.87	1763.30
769.04	1669.09
769.22	1855.46
769.40	1785.83
769.58	1902.56
769.75	1708.01
769.93	1742.82
770.11	1767.40
770.28	1634.28
770.46	1742.82
770.64	1724.39
770.82	1656.81
770.99	1642.47
771.17	1726.44
771.35	1681.38
771.53	1728.49
771.70	1648.61
771.88	1796.07
772.06	1705.96
772.23	1626.09
772.41	1732.58
772.59	1697.77
772.77	1673.19
772.94	1734.63
773.12	1691.62
773.30	1705.96
773.47	1843.17
773.65	1648.61
773.83	1775.59
774.01	1771.49
774.18	1628.14
774.36	1728.49
774.54	1716.20
774.71	1806.31
774.89	1650.66
775.07	1669.09
775.24	1677.29
775.42	1662.95
775.60	1794.02
775.78	1636.33
775.95	1624.04
776.13	1615.85
776.31	1697.77
776.48	1714.15
776.66	1726.44
776.84	1640.42
777.01	1642.47
777.19	1685.48
777.37	1675.24
777.54	1732.58
777.72	1761.25
777.90	1705.96
778.07	1662.95
778.25	1851.36
778.43	1708.01
778.60	1593.32
778.78	1734.63
778.96	1695.72
779.13	1708.01
779.31	1746.92
779.49	1771.49
779.66	1710.05
779.84	1705.96
780.01	1718.25
780.19	1724.39
780.37	1806.31
780.54	1763.30
780.72	1691.62
780.90	1744.87
781.07	1687.53
781.25	1701.86
781.43	1755.11
781.60	1714.15
781.78	1822.69
781.95	1697.77
782.13	1669.09
782.31	1699.81
782.48	1689.57
782.66	1761.25
782.83	1828.84
783.01	1705.96
783.19	1775.59
783.36	1726.44
783.54	1720.29
783.72	1751.01
783.89	1714.15
784.07	1730.53
784.24	1720.29
784.42	1763.30
784.60	1755.11
784.77	1722.34
784.95	1583.08
785.12	1669.09
785.30	1677.29
785.47	1691.62
785.65	1710.05
785.83	1718.25
786.00	1687.53
786.18	1669.09
786.35	1605.61
786.53	1683.43
786.71	1783.78
786.88	1714.15
787.06	1773.54
787.23	1724.39
787.41	1677.29
787.58	1699.81
787.76	1710.05
787.94	1701.86
788.11	1695.72
788.29	1658.85
788.46	1683.43
788.64	1695.72
788.81	1671.14
788.99	1619.94
789.16	1681.38
789.34	1665.00
789.52	1679.33
789.69	1677.29
789.87	1564.65
790.04	1798.12
790.22	1644.52
790.39	1877.99
790.57	1613.80
790.74	1650.66
790.92	1705.96
791.09	1656.81
791.27	1705.96
791.44	1744.87
791.62	1720.29
791.79	1742.82
791.97	1677.29
792.15	1871.84
792.32	1775.59
792.50	1687.53
792.67	1841.12
792.85	1859.56
793.02	1769.44
793.20	1642.47
793.37	1695.72
793.55	1681.38
793.72	1654.76
793.90	1708.01
794.07	1632.23
794.25	1730.53
794.42	1658.85
794.60	1724.39
794.77	1728.49
794.95	1718.25
795.12	1779.68
795.30	1679.33
795.47	1578.98
795.65	1894.37
795.82	1773.54
796.00	1691.62
796.17	1685.48
796.34	1615.85
796.52	1730.53
796.69	1769.44
796.87	1775.59
797.04	1710.05
797.22	1828.84
797.39	1695.72
797.57	1787.88
797.74	1689.57
797.92	1763.30
798.09	1644.52
798.27	1802.21
798.44	1708.01
798.62	1660.90
798.79	1677.29
798.96	1773.54
799.14	1759.21
799.31	1751.01
799.49	1665.00
799.66	1662.95
799.84	1759.21
800.01	1665.00
800.19	1738.73
800.36	1597.42
800.53	1742.82
800.71	1705.96
800.88	1800.16
801.06	1744.87
801.23	1634.28
801.41	1755.11
801.58	1638.38
801.75	1679.33
801.93	1679.33
802.10	1716.20
802.28	1812.45
802.45	1683.43
802.63	1804.26
802.80	1718.25
802.97	1705.96
803.15	1781.73
803.32	1705.96
803.50	1675.24
803.67	1665.00
803.84	1658.85
804.02	1714.15
804.19	1722.34
804.37	1697.77
804.54	1626.09
804.71	1724.39
804.89	1703.91
805.06	1646.57
805.24	1630.18
805.41	1624.04
805.58	1689.57
805.76	1763.30
805.93	1718.25
806.10	1751.01
806.28	1738.73
806.45	1681.38
806.63	1753.06
806.80	1693.67
806.97	1669.09
807.15	1726.44
807.32	1753.06
807.49	1769.44
807.67	1628.14
807.84	1751.01
808.01	1632.23
808.19	1845.22
808.36	1787.88
808.54	1714.15
808.71	1675.24
808.88	1771.49
809.06	1718.25
809.23	1767.40
809.40	1693.67
809.58	1724.39
809.75	1726.44
809.92	1611.75
810.10	1779.68
810.27	1681.38
810.44	1716.20
810.62	1691.62
810.79	1693.67
810.96	1738.73
811.14	1662.95
811.31	1787.88
811.48	1714.15
811.66	1738.73
811.83	1759.21
812.00	1658.85
812.18	1705.96
812.35	1890.28
812.52	1728.49
812.69	1697.77
812.87	1669.09
813.04	1744.87
813.21	1802.21
813.39	1705.96
813.56	1636.33
813.73	1775.59
813.91	1755.11
814.08	1767.40
814.25	1718.25
814.42	1669.09
814.60	1716.20
814.77	1705.96
814.94	1746.92
815.12	1826.79
815.29	1822.69
815.46	1753.06
815.63	1728.49
815.81	1644.52
815.98	1605.61
816.15	1675.24
816.33	1726.44
816.50	1656.81
816.67	1665.00
816.84	1693.67
817.02	1699.81
817.19	1654.76
817.36	1763.30
817.53	1691.62
817.71	1728.49
817.88	1755.11
818.05	1683.43
818.22	1703.91
818.40	1814.50
818.57	1652.71
818.74	1693.67
818.91	1718.25
819.09	1742.82
819.26	1757.16
819.43	1673.19
819.60	1681.38
819.78	1814.50
819.95	1779.68
820.12	1658.85
820.29	1787.88
820.47	1787.88
820.64	1642.47
820.81	1660.90
820.98	1693.67
821.15	1689.57
821.33	1826.79
821.50	1654.76
821.67	1734.63
821.84	1683.43
822.02	1689.57
822.19	1771.49
822.36	1673.19
822.53	1669.09
822.70	1703.91
822.88	1687.53
823.05	1748.97
823.22	1753.06
823.39	1789.92
823.56	1689.57
823.74	1832.93
823.91	1650.66
824.08	1732.58
824.25	1634.28
824.42	1753.06
824.60	1658.85
824.77	1718.25
824.94	1687.53
825.11	1748.97
825.28	1628.14
825.45	1794.02
825.63	1722.34
825.80	1660.90
825.97	1751.01
826.14	1746.92
826.31	1621.99
826.48	1695.72
826.66	1601.51
826.83	1656.81
827.00	1697.77
827.17	1685.48
827.34	1730.53
827.51	1738.73
827.69	1673.19
827.86	1624.04
828.03	1683.43
828.20	1755.11
828.37	1628.14
828.54	1845.22
828.71	1650.66
828.89	1765.35
829.06	1718.25
829.23	1720.29
829.40	1701.86
829.57	1662.95
829.74	1718.25
829.91	1691.62
830.09	1591.27
830.26	1689.57
830.43	1734.63
830.60	1757.16
830.77	1781.73
830.94	1701.86
831.11	1771.49
831.28	1675.24
831.46	1779.68
831.63	1673.19
831.80	1767.40
831.97	1716.20
832.14	1654.76
832.31	1755.11
832.48	1787.88
832.65	1755.11
832.82	1716.20
832.99	1806.31
833.17	1644.52
833.34	1810.40
833.51	1791.97
833.68	1636.33
833.85	1753.06
834.02	1675.24
834.19	1609.70
834.36	1609.70
834.53	1738.73
834.70	1767.40
834.87	1865.70
835.04	1724.39
835.22	1615.85
835.39	1765.35
835.56	1552.36
835.73	1699.81
835.90	1777.64
836.07	1648.61
836.24	1789.92
836.41	1644.52
836.58	1656.81
836.75	1730.53
836.92	1617.90
837.09	1654.76
837.26	1765.35
837.43	1740.77
837.60	1726.44
837.77	1634.28
837.94	1662.95
838.12	1714.15
838.29	1728.49
838.46	1593.32
838.63	1669.09
838.80	1812.45
838.97	1818.60
839.14	1730.53
839.31	1724.39
839.48	1720.29
839.65	1712.10
839.82	1675.24
839.99	1716.20
840.16	1724.39
840.33	1679.33
840.50	1644.52
840.67	1705.96
840.84	1587.18
841.01	1718.25
841.18	1689.57
841.35	1599.46
841.52	1730.53
841.69	1857.51
841.86	1734.63
842.03	1667.05
842.20	1736.68
842.37	1681.38
842.54	1742.82
842.71	1714.15
842.88	1611.75
843.05	1722.34
843.22	1705.96
843.39	1740.77
843.56	1654.76
843.73	1759.21
843.90	1714.15
844.07	1759.21
844.24	1701.86
844.41	1710.05
844.58	1742.82
844.75	1732.58
844.92	1773.54
845.09	1751.01
845.26	1667.05
845.43	1755.11
845.60	1681.38
845.77	1789.92
845.94	1755.11
846.10	1755.11
846.27	1574.89
846.44	1669.09
846.61	1617.90
846.78	1763.30
846.95	1701.86
847.12	1679.33
847.29	1708.01
847.46	1654.76
847.63	1767.40
847.80	1677.29
847.97	1681.38
848.14	1796.07
848.31	1730.53
848.48	1714.15
848.65	1724.39
848.82	1757.16
848.98	1904.61
849.15	1716.20
849.32	1779.68
849.49	1757.16
849.66	1640.42
849.83	1722.34
850.00	1628.14
850.17	1751.01
850.34	1677.29
850.51	1642.47
850.68	1652.71
850.85	1812.45
851.01	1728.49
851.18	1724.39
851.35	1693.67
851.52	1722.34
851.69	1759.21
851.86	1648.61
852.03	1699.81
852.20	1746.92
852.37	1611.75
852.53	1634.28
852.70	1687.53
852.87	1710.05
853.04	1771.49
853.21	1730.53
853.38	1732.58
853.55	1751.01
853.72	1802.21
853.89	1675.24
854.05	1744.87
854.22	1738.73
854.39	1658.85
854.56	1669.09
854.73	1732.58
854.90	1671.14
855.07	1687.53
855.23	1665.00
855.40	1767.40
855.57	1677.29
855.74	1632.23
855.91	1902.56
856.08	1613.80
856.25	1636.33
856.41	1705.96
856.58	1728.49
856.75	1669.09
856.92	1574.89
857.09	1781.73
857.26	1576.94
857.42	1728.49
857.59	1822.69
857.76	1693.67
857.93	1693.67
858.10	1671.14
858.27	1621.99
858.43	1708.01
858.60	1667.05
858.77	1632.23
858.94	1689.57
859.11	1763.30
859.27	1613.80
859.44	1701.86
859.61	1796.07
859.78	1753.06
859.95	1628.14
860.12	1697.77
860.28	1775.59
860.45	1738.73
860.62	1718.25
860.79	1699.81
860.95	1777.64
861.12	1669.09
861.29	1697.77
861.46	1673.19
861.63	1697.77
861.79	1708.01
861.96	1736.68
862.13	1665.00
862.30	1732.58
862.47	1667.05
862.63	1656.81
862.80	1744.87
862.97	1759.21
863.14	1755.11
863.30	1683.43
863.47	1765.35
863.64	1771.49
863.81	1777.64
863.97	1734.63
864.14	1716.20
864.31	1703.91
864.48	1726.44
864.65	1755.11
864.81	1665.00
864.98	1734.63
865.15	1732.58
865.32	1728.49
865.48	1812.45
865.65	1734.63
865.82	1689.57
865.98	1720.29
866.15	1751.01
866.32	1673.19
866.49	1669.09
866.65	1710.05
866.82	1589.22
866.99	1748.97
867.16	1646.57
867.32	1742.82
867.49	1710.05
867.66	1708.01
867.83	1691.62
867.99	1677.29
868.16	1734.63
868.33	1591.27
868.49	1736.68
868.66	1726.44
868.83	1693.67
868.99	1722.34
869.16	1738.73
869.33	1734.63
869.50	1751.01
869.66	1652.71
869.83	1722.34
870.00	1632.23
870.16	1755.11
870.33	1648.61
870.50	1761.25
870.66	1677.29
870.83	1761.25
871.00	1677.29
871.17	1677.29
871.33	1755.11
871.50	1671.14
871.67	1583.08
871.83	1730.53
872.00	1851.36
872.17	1642.47
872.33	1779.68
872.50	1789.92
872.67	1640.42
872.83	1652.71
873.00	1669.09
873.17	1695.72
873.33	1722.34
873.50	1691.62
873.67	1695.72
873.83	1701.86
874.00	1703.91
874.16	1724.39
874.33	1763.30
874.50	1714.15
874.66	1759.21
874.83	1705.96
875.00	1748.97
875.16	1789.92
875.33	1769.44
875.50	1642.47
875.66	1714.15
875.83	1744.87
875.99	1716.20
876.16	1683.43
876.33	1644.52
876.49	1650.66
876.66	1648.61
876.83	1654.76
876.99	1642.47
877.16	1712.10
877.32	1703.91
877.49	1681.38
877.66	1765.35
877.82	1728.49
877.99	1718.25
878.15	1794.02
878.32	1720.29
878.49	1744.87
878.65	1683.43
878.82	1789.92
878.98	1710.05
879.15	1751.01
879.32	1794.02
879.48	1708.01
879.65	1662.95
879.81	1632.23
879.98	1650.66
880.15	1724.39
880.31	1800.16
880.48	1613.80
880.64	1751.01
880.81	1708.01
880.97	1783.78
881.14	1757.16
881.31	1665.00
881.47	1873.89
881.64	1714.15
881.80	1646.57
881.97	1767.40
882.13	1722.34
882.30	1681.38
882.47	1687.53
882.63	1677.29
882.80	1654.76
882.96	1697.77
883.13	1820.64
883.29	1720.29
883.46	1658.85
883.62	1820.64
883.79	1732.58
883.95	1818.60
884.12	1728.49
884.29	1800.16
884.45	1693.67
884.62	1775.59
884.78	1603.56
884.95	1802.21
885.11	1693.67
885.28	1826.79
885.44	1757.16
885.61	1751.01
885.77	1865.70
885.94	1636.33
886.10	1714.15
886.27	1693.67
886.43	1771.49
886.60	1771.49
886.76	1712.10
886.93	1654.76
887.09	1730.53
887.26	1671.14
887.42	1685.48
887.59	1828.84
887.75	1755.11
887.92	1826.79
888.08	1794.02
888.25	1845.22
888.41	1734.63
888.58	1677.29
888.74	1716.20
888.91	1738.73
>>>>>End Processed Spectral Data<<<<<
