SpectraSuite Data File
++++++++++++++++++++++++++++++++++++
Date: Mon Jun 06 14:31:17 CEST 2016
User: root
Dark Spectrum Present: No
Reference Spectrum Present: No
Number of Sampled Component Spectra: 1
Spectrometers: USB4C02835
Integration Time (usec): 100000 (USB4C02835)
Spectra Averaged: 1 (USB4C02835)
Boxcar Smoothing: 0 (USB4C02835)
Correct for Electrical Dark: No (USB4C02835)
Strobe/Lamp Enabled: No (USB4C02835)
Correct for Detector Non-linearity: No (USB4C02835)
Correct for Stray Light: No (USB4C02835)
Number of Pixels in Processed Spectrum: 3648
>>>>>Begin Processed Spectral Data<<<<<
177.47	1484.78
177.69	1484.78
177.91	1484.78
178.13	1366.00
178.36	1452.01
178.58	1730.53
178.80	1742.82
179.02	1636.33
179.24	1669.09
179.46	1683.43
179.68	1779.68
179.90	1687.53
180.13	1705.96
180.35	1691.62
180.57	1705.96
180.79	1822.69
181.01	1685.48
181.23	1753.06
181.45	1701.86
181.67	1763.30
181.90	1742.82
182.12	1675.24
182.34	1730.53
182.56	1746.92
182.78	1712.10
183.00	1728.49
183.22	1714.15
183.44	1578.98
183.66	1912.80
183.89	1755.11
184.11	1681.38
184.33	1689.57
184.55	1796.07
184.77	1701.86
184.99	1679.33
185.21	1613.80
185.43	1806.31
185.65	1628.14
185.87	1673.19
186.10	1845.22
186.32	1779.68
186.54	1708.01
186.76	1679.33
186.98	1794.02
187.20	1691.62
187.42	1699.81
187.64	1736.68
187.86	1755.11
188.08	1753.06
188.30	1699.81
188.52	1660.90
188.75	1755.11
188.97	1761.25
189.19	1669.09
189.41	1681.38
189.63	1753.06
189.85	1732.58
190.07	1611.75
190.29	1607.66
190.51	1724.39
190.73	1634.28
190.95	1839.08
191.17	1744.87
191.39	1574.89
191.61	1658.85
191.84	1724.39
192.06	1771.49
192.28	1591.27
192.50	1849.32
192.72	1705.96
192.94	1832.93
193.16	1791.97
193.38	1761.25
193.60	1646.57
193.82	1644.52
194.04	1726.44
194.26	1730.53
194.48	1716.20
194.70	1693.67
194.92	1665.00
195.14	1763.30
195.36	1611.75
195.58	1685.48
195.80	1679.33
196.02	1689.57
196.24	1714.15
196.46	1691.62
196.69	1648.61
196.91	1896.42
197.13	1648.61
197.35	1652.71
197.57	1865.70
197.79	1626.09
198.01	1701.86
198.23	1759.21
198.45	1720.29
198.67	1609.70
198.89	1738.73
199.11	1693.67
199.33	1740.77
199.55	1519.59
199.77	1708.01
199.99	1791.97
200.21	1687.53
200.43	1746.92
200.65	1593.32
200.87	1621.99
201.09	1658.85
201.31	1679.33
201.53	1710.05
201.75	1798.12
201.97	1685.48
202.19	1757.16
202.41	1644.52
202.63	1785.83
202.85	1677.29
203.07	1703.91
203.29	1708.01
203.51	1583.08
203.73	1671.14
203.95	1791.97
204.17	1718.25
204.39	1753.06
204.61	1669.09
204.83	1771.49
205.05	1722.34
205.27	1751.01
205.49	1839.08
205.71	1701.86
205.93	1636.33
206.15	1652.71
206.37	1644.52
206.59	1667.05
206.81	1583.08
207.03	1652.71
207.25	1662.95
207.47	1720.29
207.69	1687.53
207.91	1744.87
208.13	1771.49
208.34	1599.46
208.56	1601.51
208.78	1722.34
209.00	1695.72
209.22	1697.77
209.44	1693.67
209.66	1662.95
209.88	1714.15
210.10	1648.61
210.32	1665.00
210.54	1808.36
210.76	1683.43
210.98	1755.11
211.20	1607.66
211.42	1728.49
211.64	1822.69
211.86	1728.49
212.08	1660.90
212.30	1740.77
212.52	1759.21
212.74	1746.92
212.96	1667.05
213.17	1810.40
213.39	1701.86
213.61	1779.68
213.83	1681.38
214.05	1714.15
214.27	1771.49
214.49	1701.86
214.71	1667.05
214.93	1714.15
215.15	1722.34
215.37	1701.86
215.59	1640.42
215.81	1773.54
216.03	1787.88
216.24	1703.91
216.46	1755.11
216.68	1673.19
216.90	1718.25
217.12	1773.54
217.34	1693.67
217.56	1726.44
217.78	1720.29
218.00	1761.25
218.22	1746.92
218.44	1656.81
218.66	1708.01
218.87	1716.20
219.09	1646.57
219.31	1703.91
219.53	1673.19
219.75	1677.29
219.97	1753.06
220.19	1671.14
220.41	1740.77
220.63	1722.34
220.85	1734.63
221.06	1681.38
221.28	1826.79
221.50	1667.05
221.72	1708.01
221.94	1679.33
222.16	1722.34
222.38	1777.64
222.60	1710.05
222.82	1652.71
223.03	1769.44
223.25	1591.27
223.47	1759.21
223.69	1834.98
223.91	1687.53
224.13	1738.73
224.35	1626.09
224.57	1681.38
224.78	1740.77
225.00	1570.79
225.22	1630.18
225.44	1740.77
225.66	1683.43
225.88	1697.77
226.10	1767.40
226.32	1615.85
226.53	1734.63
226.75	1714.15
226.97	1630.18
227.19	1705.96
227.41	1642.47
227.63	1734.63
227.85	1597.42
228.06	1716.20
228.28	1691.62
228.50	1771.49
228.72	1699.81
228.94	1603.56
229.16	1589.22
229.37	1615.85
229.59	1615.85
229.81	1763.30
230.03	1693.67
230.25	1619.94
230.47	1603.56
230.69	1656.81
230.90	1732.58
231.12	1642.47
231.34	1595.37
231.56	1705.96
231.78	1650.66
232.00	1742.82
232.21	1742.82
232.43	1689.57
232.65	1628.14
232.87	1705.96
233.09	1685.48
233.30	1738.73
233.52	1689.57
233.74	1634.28
233.96	1611.75
234.18	1796.07
234.40	1705.96
234.61	1837.03
234.83	1624.04
235.05	1595.37
235.27	1884.13
235.49	1845.22
235.70	1718.25
235.92	1812.45
236.14	1716.20
236.36	1873.89
236.58	1695.72
236.79	1738.73
237.01	1673.19
237.23	1669.09
237.45	1789.92
237.67	1648.61
237.88	1675.24
238.10	1783.78
238.32	1660.90
238.54	1779.68
238.76	1697.77
238.97	1683.43
239.19	1656.81
239.41	1761.25
239.63	1738.73
239.85	1720.29
240.06	1669.09
240.28	1642.47
240.50	1744.87
240.72	1681.38
240.93	1697.77
241.15	1751.01
241.37	1636.33
241.59	1722.34
241.81	1759.21
242.02	1624.04
242.24	1755.11
242.46	1675.24
242.68	1589.22
242.89	1742.82
243.11	1726.44
243.33	1710.05
243.55	1656.81
243.76	1789.92
243.98	1644.52
244.20	1732.58
244.42	1646.57
244.64	1716.20
244.85	1658.85
245.07	1681.38
245.29	1796.07
245.51	1730.53
245.72	1662.95
245.94	1732.58
246.16	1761.25
246.38	1779.68
246.59	1689.57
246.81	1603.56
247.03	1681.38
247.24	1658.85
247.46	1712.10
247.68	1703.91
247.90	1710.05
248.11	1656.81
248.33	1751.01
248.55	1712.10
248.77	1734.63
248.98	1767.40
249.20	1785.83
249.42	1714.15
249.64	1673.19
249.85	1724.39
250.07	1628.14
250.29	1773.54
250.50	1773.54
250.72	1675.24
250.94	1689.57
251.16	1818.60
251.37	1693.67
251.59	1714.15
251.81	1726.44
252.02	1687.53
252.24	1705.96
252.46	1789.92
252.68	1630.18
252.89	1673.19
253.11	1613.80
253.33	1759.21
253.54	1775.59
253.76	1632.23
253.98	1689.57
254.20	1587.18
254.41	1617.90
254.63	1705.96
254.85	1667.05
255.06	1695.72
255.28	1781.73
255.50	1677.29
255.71	1595.37
255.93	1630.18
256.15	1755.11
256.36	1705.96
256.58	1701.86
256.80	1763.30
257.02	1689.57
257.23	1673.19
257.45	1654.76
257.67	1734.63
257.88	1642.47
258.10	1701.86
258.32	1744.87
258.53	1759.21
258.75	1658.85
258.97	1703.91
259.18	1675.24
259.40	1665.00
259.62	1822.69
259.83	1767.40
260.05	1769.44
260.27	2002.91
260.48	1822.69
260.70	1656.81
260.92	1652.71
261.13	1693.67
261.35	1667.05
261.57	1810.40
261.78	1595.37
262.00	1691.62
262.22	1771.49
262.43	1724.39
262.65	1705.96
262.86	1695.72
263.08	1826.79
263.30	1722.34
263.51	1628.14
263.73	1615.85
263.95	1740.77
264.16	1708.01
264.38	1679.33
264.60	1722.34
264.81	1611.75
265.03	1720.29
265.25	1771.49
265.46	1681.38
265.68	1742.82
265.89	1708.01
266.11	1603.56
266.33	1806.31
266.54	1822.69
266.76	1708.01
266.98	1697.77
267.19	1851.36
267.41	1775.59
267.62	1705.96
267.84	1636.33
268.06	1703.91
268.27	1777.64
268.49	1761.25
268.70	1820.64
268.92	1669.09
269.14	1644.52
269.35	1679.33
269.57	1724.39
269.79	1697.77
270.00	1703.91
270.22	1767.40
270.43	1671.14
270.65	1656.81
270.87	1744.87
271.08	1730.53
271.30	1662.95
271.51	1705.96
271.73	1685.48
271.95	1708.01
272.16	1722.34
272.38	1744.87
272.59	1726.44
272.81	1671.14
273.02	1769.44
273.24	1789.92
273.46	1777.64
273.67	1621.99
273.89	1718.25
274.10	1607.66
274.32	1759.21
274.54	1726.44
274.75	1710.05
274.97	1667.05
275.18	1808.36
275.40	1757.16
275.61	1722.34
275.83	1671.14
276.05	1613.80
276.26	1726.44
276.48	1753.06
276.69	1607.66
276.91	1693.67
277.12	1687.53
277.34	1773.54
277.55	1765.35
277.77	1787.88
277.99	1615.85
278.20	1554.41
278.42	1640.42
278.63	1654.76
278.85	1685.48
279.06	1603.56
279.28	1718.25
279.49	1736.68
279.71	1701.86
279.93	1759.21
280.14	1644.52
280.36	1642.47
280.57	1751.01
280.79	1783.78
281.00	1679.33
281.22	1677.29
281.43	1751.01
281.65	1593.32
281.86	1628.14
282.08	1746.92
282.29	1804.26
282.51	1615.85
282.73	1654.76
282.94	1630.18
283.16	1738.73
283.37	1853.41
283.59	1634.28
283.80	1773.54
284.02	1656.81
284.23	1765.35
284.45	1607.66
284.66	1640.42
284.88	1665.00
285.09	1748.97
285.31	1712.10
285.52	1669.09
285.74	1644.52
285.95	1683.43
286.17	1705.96
286.38	1759.21
286.60	1601.51
286.81	1732.58
287.03	1703.91
287.24	1685.48
287.46	1658.85
287.67	1673.19
287.89	1849.32
288.10	1650.66
288.32	1769.44
288.53	1769.44
288.75	1708.01
288.96	1773.54
289.18	1617.90
289.39	1763.30
289.61	1755.11
289.82	1812.45
290.04	1746.92
290.25	1642.47
290.47	1724.39
290.68	1677.29
290.90	1810.40
291.11	1605.61
291.33	1738.73
291.54	1687.53
291.76	1687.53
291.97	1689.57
292.18	1796.07
292.40	1665.00
292.61	1667.05
292.83	1828.84
293.04	1705.96
293.26	1708.01
293.47	1691.62
293.69	1636.33
293.90	1691.62
294.12	1751.01
294.33	1759.21
294.55	1728.49
294.76	1742.82
294.97	1787.88
295.19	1861.60
295.40	1634.28
295.62	1769.44
295.83	1738.73
296.05	1660.90
296.26	1763.30
296.48	1642.47
296.69	1658.85
296.90	1669.09
297.12	1714.15
297.33	1710.05
297.55	1705.96
297.76	1716.20
297.98	1679.33
298.19	1665.00
298.41	1763.30
298.62	1679.33
298.83	1828.84
299.05	1734.63
299.26	1667.05
299.48	1693.67
299.69	1687.53
299.90	1742.82
300.12	1578.98
300.33	1763.30
300.55	1617.90
300.76	1693.67
300.98	1576.94
301.19	1658.85
301.40	1662.95
301.62	1675.24
301.83	1753.06
302.05	1742.82
302.26	1720.29
302.47	1710.05
302.69	1640.42
302.90	1673.19
303.12	1531.88
303.33	1679.33
303.54	1824.74
303.76	1646.57
303.97	1701.86
304.19	1783.78
304.40	1660.90
304.61	1734.63
304.83	1789.92
305.04	1722.34
305.26	1705.96
305.47	1665.00
305.68	1728.49
305.90	1755.11
306.11	1701.86
306.33	1652.71
306.54	1677.29
306.75	1697.77
306.97	1626.09
307.18	1652.71
307.39	1714.15
307.61	1693.67
307.82	1699.81
308.04	1726.44
308.25	1650.66
308.46	1697.77
308.68	1716.20
308.89	1691.62
309.10	1734.63
309.32	1718.25
309.53	1720.29
309.74	1763.30
309.96	1755.11
310.17	1820.64
310.39	1665.00
310.60	1746.92
310.81	1744.87
311.03	1656.81
311.24	1669.09
311.45	1689.57
311.67	1824.74
311.88	1669.09
312.09	1665.00
312.31	1691.62
312.52	1720.29
312.73	1714.15
312.95	1648.61
313.16	1755.11
313.37	1757.16
313.59	1703.91
313.80	1763.30
314.01	1730.53
314.23	1716.20
314.44	1636.33
314.65	1611.75
314.87	1599.46
315.08	1703.91
315.29	1738.73
315.51	1640.42
315.72	1683.43
315.93	1740.77
316.15	1712.10
316.36	1656.81
316.57	1748.97
316.79	1738.73
317.00	1685.48
317.21	1710.05
317.43	1652.71
317.64	1683.43
317.85	1628.14
318.07	1648.61
318.28	1738.73
318.49	1830.88
318.70	1873.89
318.92	1869.80
319.13	1812.45
319.34	1781.73
319.56	1791.97
319.77	1742.82
319.98	1738.73
320.20	1765.35
320.41	1746.92
320.62	1767.40
320.83	1701.86
321.05	1888.23
321.26	1738.73
321.47	1650.66
321.69	1812.45
321.90	1687.53
322.11	1669.09
322.32	1718.25
322.54	1730.53
322.75	1665.00
322.96	1828.84
323.18	1619.94
323.39	1583.08
323.60	1701.86
323.81	1753.06
324.03	1677.29
324.24	1738.73
324.45	1703.91
324.66	1634.28
324.88	1687.53
325.09	1791.97
325.30	1675.24
325.52	1714.15
325.73	1714.15
325.94	1671.14
326.15	1652.71
326.37	1640.42
326.58	1716.20
326.79	1810.40
327.00	1677.29
327.22	1738.73
327.43	1773.54
327.64	1679.33
327.85	1732.58
328.07	1718.25
328.28	1751.01
328.49	1734.63
328.70	1656.81
328.92	1691.62
329.13	1722.34
329.34	1730.53
329.55	1798.12
329.76	1718.25
329.98	1658.85
330.19	1714.15
330.40	1710.05
330.61	1740.77
330.83	1751.01
331.04	1722.34
331.25	1646.57
331.46	1693.67
331.68	1570.79
331.89	1681.38
332.10	1742.82
332.31	1654.76
332.52	1734.63
332.74	1763.30
332.95	1646.57
333.16	1656.81
333.37	1763.30
333.58	1710.05
333.80	1726.44
334.01	1595.37
334.22	1671.14
334.43	1746.92
334.64	1687.53
334.86	1613.80
335.07	1632.23
335.28	1789.92
335.49	1656.81
335.70	1730.53
335.92	1714.15
336.13	1828.84
336.34	1718.25
336.55	1759.21
336.76	1761.25
336.98	1570.79
337.19	1671.14
337.40	1761.25
337.61	1908.71
337.82	1697.77
338.04	1765.35
338.25	1660.90
338.46	1689.57
338.67	1681.38
338.88	1716.20
339.09	1615.85
339.31	1646.57
339.52	1652.71
339.73	1660.90
339.94	1699.81
340.15	1710.05
340.36	1665.00
340.58	1689.57
340.79	1517.54
341.00	1662.95
341.21	1640.42
341.42	1796.07
341.63	1705.96
341.85	1695.72
342.06	1652.71
342.27	1656.81
342.48	1759.21
342.69	1607.66
342.90	1693.67
343.12	1740.77
343.33	1732.58
343.54	1705.96
343.75	1777.64
343.96	1730.53
344.17	1658.85
344.38	1697.77
344.60	1644.52
344.81	1673.19
345.02	1671.14
345.23	1742.82
345.44	1812.45
345.65	1746.92
345.86	1695.72
346.07	1736.68
346.29	1703.91
346.50	1726.44
346.71	1632.23
346.92	1800.16
347.13	1787.88
347.34	1646.57
347.55	1726.44
347.76	1689.57
347.98	1603.56
348.19	1677.29
348.40	1814.50
348.61	1710.05
348.82	1806.31
349.03	1736.68
349.24	1642.47
349.45	1796.07
349.66	1589.22
349.88	1724.39
350.09	1568.74
350.30	1759.21
350.51	1753.06
350.72	1677.29
350.93	1816.55
351.14	1665.00
351.35	1746.92
351.56	1726.44
351.77	1718.25
351.99	1695.72
352.20	1734.63
352.41	1761.25
352.62	1613.80
352.83	1693.67
353.04	1761.25
353.25	1681.38
353.46	1763.30
353.67	1755.11
353.88	1601.51
354.09	1720.29
354.30	1691.62
354.52	1736.68
354.73	1693.67
354.94	1705.96
355.15	1746.92
355.36	1730.53
355.57	1753.06
355.78	1632.23
355.99	1652.71
356.20	1638.38
356.41	1724.39
356.62	1744.87
356.83	1744.87
357.04	1810.40
357.25	1722.34
357.46	1714.15
357.68	1595.37
357.89	1673.19
358.10	1679.33
358.31	1677.29
358.52	1701.86
358.73	1671.14
358.94	1624.04
359.15	1603.56
359.36	1738.73
359.57	1771.49
359.78	1720.29
359.99	1732.58
360.20	1632.23
360.41	1669.09
360.62	1615.85
360.83	1748.97
361.04	1724.39
361.25	1708.01
361.46	1781.73
361.67	1736.68
361.88	1732.58
362.09	1734.63
362.30	1634.28
362.51	1687.53
362.72	1693.67
362.93	1761.25
363.14	1695.72
363.35	1640.42
363.56	1703.91
363.78	1730.53
363.99	1773.54
364.20	1660.90
364.41	1675.24
364.62	1791.97
364.83	1785.83
365.04	1677.29
365.25	1693.67
365.46	1832.93
365.67	1665.00
365.88	1638.38
366.09	1724.39
366.30	1734.63
366.51	1662.95
366.72	1654.76
366.93	1718.25
367.14	1781.73
367.35	1763.30
367.56	1695.72
367.77	1718.25
367.98	1669.09
368.18	1669.09
368.39	1714.15
368.60	1656.81
368.81	1716.20
369.02	1697.77
369.23	1718.25
369.44	1656.81
369.65	1646.57
369.86	1673.19
370.07	1751.01
370.28	1619.94
370.49	1773.54
370.70	1703.91
370.91	1611.75
371.12	1591.27
371.33	1705.96
371.54	1632.23
371.75	1773.54
371.96	1558.50
372.17	1751.01
372.38	1691.62
372.59	1714.15
372.80	1656.81
373.01	1691.62
373.22	1751.01
373.43	1712.10
373.64	1613.80
373.85	1800.16
374.06	1806.31
374.26	1679.33
374.47	1677.29
374.68	1781.73
374.89	1638.38
375.10	1730.53
375.31	1718.25
375.52	1808.36
375.73	1718.25
375.94	1591.27
376.15	1742.82
376.36	1701.86
376.57	1738.73
376.78	1697.77
376.99	1738.73
377.20	1757.16
377.40	1722.34
377.61	1843.17
377.82	1677.29
378.03	1779.68
378.24	1681.38
378.45	1718.25
378.66	1640.42
378.87	1673.19
379.08	1681.38
379.29	1697.77
379.50	1781.73
379.71	1644.52
379.91	1724.39
380.12	1667.05
380.33	1665.00
380.54	1691.62
380.75	1734.63
380.96	1699.81
381.17	1736.68
381.38	1699.81
381.59	1697.77
381.80	1730.53
382.00	1877.99
382.21	1763.30
382.42	1808.36
382.63	1783.78
382.84	1710.05
383.05	1734.63
383.26	1857.51
383.47	1830.88
383.68	1667.05
383.88	1767.40
384.09	1751.01
384.30	1751.01
384.51	1794.02
384.72	1665.00
384.93	1691.62
385.14	1656.81
385.35	1726.44
385.55	1693.67
385.76	1847.27
385.97	1693.67
386.18	1626.09
386.39	1703.91
386.60	1730.53
386.81	1650.66
387.02	1730.53
387.22	1638.38
387.43	1820.64
387.64	1734.63
387.85	1865.70
388.06	2263.01
388.27	4288.45
388.48	6719.39
388.68	8177.54
388.89	9555.82
389.10	9754.48
389.31	8503.17
389.52	7534.48
389.73	6567.84
389.93	6047.65
390.14	5789.61
390.35	5126.07
390.56	4616.12
390.77	3821.51
390.98	3108.82
391.18	2512.86
391.39	2107.36
391.60	1904.61
391.81	1859.56
392.02	1691.62
392.23	1894.37
392.43	1744.87
392.64	1839.08
392.85	1794.02
393.06	1800.16
393.27	1718.25
393.47	1705.96
393.68	1722.34
393.89	1652.71
394.10	1775.59
394.31	1718.25
394.52	1654.76
394.72	1701.86
394.93	1787.88
395.14	1583.08
395.35	1689.57
395.56	1708.01
395.76	1714.15
395.97	1738.73
396.18	1814.50
396.39	1855.46
396.60	2041.82
396.80	1935.33
397.01	1861.60
397.22	1832.93
397.43	1851.36
397.64	1794.02
397.84	1769.44
398.05	1861.60
398.26	1697.77
398.47	1777.64
398.67	1855.46
398.88	1685.48
399.09	1783.78
399.30	1703.91
399.51	1781.73
399.71	1619.94
399.92	1677.29
400.13	1802.21
400.34	1693.67
400.54	1734.63
400.75	1773.54
400.96	1732.58
401.17	1796.07
401.37	1777.64
401.58	1728.49
401.79	1708.01
402.00	1820.64
402.21	2088.93
402.41	1992.67
402.62	1871.84
402.83	2041.82
403.04	1957.86
403.24	2070.50
403.45	1841.12
403.66	1867.75
403.87	1882.08
404.07	1951.71
404.28	1880.04
404.49	1916.90
404.70	1757.16
404.90	1773.54
405.11	1816.55
405.32	1781.73
405.52	1697.77
405.73	1673.19
405.94	1665.00
406.15	1773.54
406.35	1722.34
406.56	1763.30
406.77	1726.44
406.98	1746.92
407.18	1615.85
407.39	1738.73
407.60	1724.39
407.80	1701.86
408.01	1636.33
408.22	1724.39
408.43	1679.33
408.63	1744.87
408.84	1753.06
409.05	1738.73
409.25	1617.90
409.46	1656.81
409.67	1646.57
409.88	1736.68
410.08	1734.63
410.29	1652.71
410.50	1726.44
410.70	1751.01
410.91	1615.85
411.12	1746.92
411.32	1693.67
411.53	1591.27
411.74	1734.63
411.95	1757.16
412.15	1738.73
412.36	1730.53
412.57	1759.21
412.77	1751.01
412.98	1699.81
413.19	1728.49
413.39	1779.68
413.60	1720.29
413.81	1771.49
414.01	1587.18
414.22	1732.58
414.43	1724.39
414.63	1646.57
414.84	1763.30
415.05	1777.64
415.25	1609.70
415.46	1738.73
415.67	1624.04
415.87	1798.12
416.08	1812.45
416.29	1687.53
416.49	1816.55
416.70	1687.53
416.91	1660.90
417.11	1755.11
417.32	1712.10
417.53	1847.27
417.73	1730.53
417.94	1640.42
418.15	1751.01
418.35	1681.38
418.56	1757.16
418.77	1814.50
418.97	1734.63
419.18	1730.53
419.38	1591.27
419.59	1695.72
419.80	1796.07
420.00	1683.43
420.21	1710.05
420.42	1804.26
420.62	1703.91
420.83	1630.18
421.04	1650.66
421.24	1732.58
421.45	1685.48
421.65	1746.92
421.86	1675.24
422.07	1703.91
422.27	1697.77
422.48	1697.77
422.69	1742.82
422.89	1697.77
423.10	1662.95
423.30	1607.66
423.51	1755.11
423.72	1726.44
423.92	1794.02
424.13	1662.95
424.33	1712.10
424.54	1753.06
424.75	1744.87
424.95	1789.92
425.16	1757.16
425.36	1665.00
425.57	1722.34
425.78	1775.59
425.98	1718.25
426.19	1685.48
426.39	1605.61
426.60	1638.38
426.81	1816.55
427.01	1783.78
427.22	1755.11
427.42	1607.66
427.63	1632.23
427.83	1744.87
428.04	1820.64
428.25	1816.55
428.45	1849.32
428.66	1748.97
428.86	1716.20
429.07	1665.00
429.28	1662.95
429.48	1718.25
429.69	1755.11
429.89	1767.40
430.10	1566.70
430.30	1814.50
430.51	1732.58
430.71	1605.61
430.92	1753.06
431.13	1597.42
431.33	1701.86
431.54	1738.73
431.74	1751.01
431.95	1818.60
432.15	1693.67
432.36	1753.06
432.56	1742.82
432.77	1769.44
432.98	1826.79
433.18	1765.35
433.39	1630.18
433.59	1722.34
433.80	1808.36
434.00	1804.26
434.21	1691.62
434.41	1712.10
434.62	1820.64
434.82	1716.20
435.03	1662.95
435.23	1677.29
435.44	1654.76
435.64	1701.86
435.85	1740.77
436.06	1757.16
436.26	1722.34
436.47	1742.82
436.67	1624.04
436.88	1679.33
437.08	1746.92
437.29	1814.50
437.49	1701.86
437.70	1730.53
437.90	1775.59
438.11	1873.89
438.31	1773.54
438.52	1804.26
438.72	1882.08
438.93	1898.47
439.13	1818.60
439.34	1824.74
439.54	1808.36
439.75	1761.25
439.95	1761.25
440.16	1714.15
440.36	1761.25
440.57	1791.97
440.77	1814.50
440.98	1779.68
441.18	1728.49
441.39	1621.99
441.59	1626.09
441.80	1839.08
442.00	1742.82
442.21	1849.32
442.41	1677.29
442.62	1738.73
442.82	1699.81
443.02	1708.01
443.23	1724.39
443.43	1785.83
443.64	1781.73
443.84	1687.53
444.05	1761.25
444.25	1654.76
444.46	1720.29
444.66	1748.97
444.87	1716.20
445.07	1572.84
445.28	1701.86
445.48	1818.60
445.69	1726.44
445.89	1853.41
446.09	1814.50
446.30	2037.73
446.50	2666.46
446.71	3723.21
446.91	4270.01
447.12	4634.55
447.32	4843.45
447.53	4249.54
447.73	3788.74
447.93	3483.59
448.14	3258.32
448.34	3286.99
448.55	2897.88
448.75	2852.82
448.96	2686.94
449.16	2387.93
449.36	2271.20
449.57	2078.69
449.77	1845.22
449.98	1710.05
450.18	1757.16
450.39	1794.02
450.59	1812.45
450.79	1697.77
451.00	1687.53
451.20	1834.98
451.41	1722.34
451.61	1779.68
451.81	1755.11
452.02	1644.52
452.22	1742.82
452.43	1738.73
452.63	1658.85
452.84	1701.86
453.04	1697.77
453.24	1703.91
453.45	1708.01
453.65	1763.30
453.86	1757.16
454.06	1708.01
454.26	1665.00
454.47	1744.87
454.67	1853.41
454.87	1757.16
455.08	1781.73
455.28	1816.55
455.49	1744.87
455.69	1636.33
455.89	1783.78
456.10	1867.75
456.30	1683.43
456.51	1703.91
456.71	1802.21
456.91	1779.68
457.12	1767.40
457.32	1775.59
457.52	1679.33
457.73	1794.02
457.93	1740.77
458.14	1687.53
458.34	1660.90
458.54	1691.62
458.75	1761.25
458.95	1810.40
459.15	1720.29
459.36	1701.86
459.56	1785.83
459.76	1857.51
459.97	1656.81
460.17	1742.82
460.37	1796.07
460.58	1697.77
460.78	1779.68
460.99	1652.71
461.19	1734.63
461.39	1665.00
461.60	1681.38
461.80	1767.40
462.00	1660.90
462.21	1718.25
462.41	1701.86
462.61	1654.76
462.82	1710.05
463.02	1746.92
463.22	1701.86
463.43	1777.64
463.63	1724.39
463.83	1744.87
464.04	1753.06
464.24	1695.72
464.44	1669.09
464.64	1728.49
464.85	1779.68
465.05	1832.93
465.25	1732.58
465.46	1685.48
465.66	1773.54
465.86	1773.54
466.07	1746.92
466.27	1730.53
466.47	1624.04
466.68	1681.38
466.88	1734.63
467.08	1730.53
467.29	1761.25
467.49	1769.44
467.69	1777.64
467.89	1722.34
468.10	1730.53
468.30	1798.12
468.50	1834.98
468.71	1748.97
468.91	1601.51
469.11	1822.69
469.31	1724.39
469.52	1685.48
469.72	1812.45
469.92	1839.08
470.13	1734.63
470.33	1693.67
470.53	1849.32
470.73	2103.26
470.94	2379.74
471.14	2324.44
471.34	2510.81
471.54	2363.36
471.75	2238.43
471.95	2146.27
472.15	2043.87
472.36	2140.13
472.56	2060.26
472.76	2004.96
472.96	2002.91
473.17	1953.76
473.37	1849.32
473.57	1771.49
473.77	1845.22
473.98	1800.16
474.18	1662.95
474.38	1888.23
474.58	1734.63
474.79	1714.15
474.99	1712.10
475.19	1777.64
475.39	1685.48
475.60	1759.21
475.80	1738.73
476.00	1798.12
476.20	1693.67
476.41	1763.30
476.61	1877.99
476.81	1730.53
477.01	1660.90
477.21	1814.50
477.42	1820.64
477.62	1593.32
477.82	1820.64
478.02	1740.77
478.23	1785.83
478.43	1640.42
478.63	1708.01
478.83	1791.97
479.03	1699.81
479.24	1775.59
479.44	1865.70
479.64	1693.67
479.84	1535.98
480.04	1691.62
480.25	1769.44
480.45	1673.19
480.65	1730.53
480.85	1843.17
481.06	1705.96
481.26	1777.64
481.46	1712.10
481.66	1777.64
481.86	1650.66
482.06	1714.15
482.27	1767.40
482.47	1646.57
482.67	1753.06
482.87	1720.29
483.07	1728.49
483.28	1695.72
483.48	1685.48
483.68	1728.49
483.88	1667.05
484.08	1605.61
484.29	1652.71
484.49	1728.49
484.69	1650.66
484.89	1748.97
485.09	1689.57
485.29	1669.09
485.50	1802.21
485.70	1714.15
485.90	1812.45
486.10	1773.54
486.30	1744.87
486.50	1746.92
486.71	1748.97
486.91	1728.49
487.11	1763.30
487.31	1695.72
487.51	1734.63
487.71	1705.96
487.91	1697.77
488.12	1662.95
488.32	1523.69
488.52	1703.91
488.72	1626.09
488.92	1703.91
489.12	1804.26
489.32	1769.44
489.53	1746.92
489.73	1669.09
489.93	1724.39
490.13	1621.99
490.33	1650.66
490.53	1726.44
490.73	1812.45
490.94	1636.33
491.14	1816.55
491.34	1839.08
491.54	2203.61
491.74	2598.87
491.94	2820.05
492.14	3002.32
492.34	3037.14
492.54	2705.37
492.75	2494.43
492.95	2469.85
493.15	2322.40
493.35	2263.01
493.55	2150.37
493.75	2154.46
493.95	2193.37
494.15	2113.50
494.35	1968.10
494.56	1800.16
494.76	1779.68
494.96	1701.86
495.16	1751.01
495.36	1675.24
495.56	1699.81
495.76	1677.29
495.96	1722.34
496.16	1720.29
496.36	1802.21
496.56	1761.25
496.77	1736.68
496.97	1695.72
497.17	1779.68
497.37	1654.76
497.57	1732.58
497.77	1828.84
497.97	1652.71
498.17	1736.68
498.37	1708.01
498.57	1763.30
498.77	1691.62
498.97	1738.73
499.17	1742.82
499.38	1716.20
499.58	1738.73
499.78	1765.35
499.98	1814.50
500.18	1695.72
500.38	1691.62
500.58	1939.43
500.78	2564.06
500.98	4571.07
501.18	5756.84
501.38	6565.79
501.58	7065.49
501.78	6612.89
501.98	5525.42
502.18	4970.42
502.38	4409.28
502.58	4069.31
502.78	3821.51
502.98	3649.48
503.18	3479.50
503.38	3233.74
503.59	2822.10
503.79	2557.91
503.99	2467.80
504.19	2318.30
504.39	2213.85
504.59	2193.37
504.79	2105.31
504.99	2093.02
505.19	1941.47
505.39	1992.67
505.59	1951.71
505.79	1918.95
505.99	1849.32
506.19	1777.64
506.39	1814.50
506.59	1753.06
506.79	1800.16
506.99	1718.25
507.19	1710.05
507.39	1777.64
507.59	1685.48
507.79	1722.34
507.99	1605.61
508.19	1773.54
508.39	1705.96
508.59	1626.09
508.79	1837.03
508.99	1869.80
509.19	1665.00
509.39	1761.25
509.59	1716.20
509.79	1654.76
509.99	1714.15
510.19	1763.30
510.39	1732.58
510.59	1734.63
510.79	1722.34
510.99	1689.57
511.19	1667.05
511.39	1875.94
511.59	1777.64
511.79	1804.26
511.99	1753.06
512.19	1783.78
512.38	1710.05
512.58	1718.25
512.78	1738.73
512.98	1738.73
513.18	1781.73
513.38	1634.28
513.58	1742.82
513.78	1783.78
513.98	1720.29
514.18	1714.15
514.38	1742.82
514.58	1730.53
514.78	1720.29
514.98	1732.58
515.18	1738.73
515.38	1677.29
515.58	1896.42
515.78	1681.38
515.98	1722.34
516.18	1791.97
516.38	1669.09
516.57	1634.28
516.77	1636.33
516.97	1810.40
517.17	1697.77
517.37	1605.61
517.57	1761.25
517.77	1708.01
517.97	1712.10
518.17	1771.49
518.37	1683.43
518.57	1634.28
518.77	1730.53
518.97	1728.49
519.16	1744.87
519.36	1742.82
519.56	1765.35
519.76	1697.77
519.96	1714.15
520.16	1800.16
520.36	1640.42
520.56	1787.88
520.76	1689.57
520.96	1671.14
521.16	1757.16
521.35	1765.35
521.55	1769.44
521.75	1732.58
521.95	1722.34
522.15	1720.29
522.35	1665.00
522.55	1681.38
522.75	1751.01
522.95	1720.29
523.14	1681.38
523.34	1738.73
523.54	1660.90
523.74	1800.16
523.94	1748.97
524.14	1595.37
524.34	1712.10
524.54	1804.26
524.73	1716.20
524.93	1779.68
525.13	1761.25
525.33	1695.72
525.53	1857.51
525.73	1705.96
525.93	1753.06
526.13	1777.64
526.32	1736.68
526.52	1703.91
526.72	1789.92
526.92	1712.10
527.12	1679.33
527.32	1675.24
527.52	1751.01
527.71	1746.92
527.91	1751.01
528.11	1712.10
528.31	1667.05
528.51	1667.05
528.71	1658.85
528.90	1755.11
529.10	1798.12
529.30	1855.46
529.50	1632.23
529.70	1708.01
529.90	1714.15
530.09	1714.15
530.29	1626.09
530.49	1677.29
530.69	1910.75
530.89	1791.97
531.09	1828.84
531.28	1683.43
531.48	1847.27
531.68	1771.49
531.88	1705.96
532.08	1722.34
532.28	1720.29
532.47	1810.40
532.67	1775.59
532.87	1757.16
533.07	1705.96
533.27	1722.34
533.46	1681.38
533.66	1826.79
533.86	1703.91
534.06	1779.68
534.26	1718.25
534.45	1800.16
534.65	1822.69
534.85	1730.53
535.05	1730.53
535.25	1691.62
535.44	1705.96
535.64	1843.17
535.84	1775.59
536.04	1660.90
536.24	1724.39
536.43	1630.18
536.63	1738.73
536.83	1716.20
537.03	1697.77
537.22	1716.20
537.42	1665.00
537.62	1691.62
537.82	1685.48
538.02	1742.82
538.21	1800.16
538.41	1902.56
538.61	1804.26
538.81	1708.01
539.00	1812.45
539.20	1607.66
539.40	1730.53
539.60	1748.97
539.79	1763.30
539.99	1626.09
540.19	1753.06
540.39	1665.00
540.58	1798.12
540.78	1722.34
540.98	1765.35
541.18	1789.92
541.37	1761.25
541.57	1695.72
541.77	1742.82
541.97	1712.10
542.16	1669.09
542.36	1779.68
542.56	1732.58
542.76	1867.75
542.95	1748.97
543.15	1734.63
543.35	1771.49
543.54	1701.86
543.74	1710.05
543.94	1851.36
544.14	1671.14
544.33	1759.21
544.53	1724.39
544.73	1617.90
544.93	1812.45
545.12	1662.95
545.32	1722.34
545.52	1730.53
545.71	1626.09
545.91	1759.21
546.11	1693.67
546.30	1714.15
546.50	1697.77
546.70	1791.97
546.90	1783.78
547.09	1599.46
547.29	1763.30
547.49	1828.84
547.68	1703.91
547.88	1677.29
548.08	1847.27
548.27	2191.33
548.47	1689.57
548.67	1671.14
548.87	1794.02
549.06	1728.49
549.26	1744.87
549.46	1755.11
549.65	1705.96
549.85	1728.49
550.05	1755.11
550.24	1701.86
550.44	1718.25
550.64	1701.86
550.83	1708.01
551.03	1871.84
551.23	1746.92
551.42	1759.21
551.62	1722.34
551.82	1693.67
552.01	1673.19
552.21	1822.69
552.41	1738.73
552.60	1826.79
552.80	1730.53
553.00	1683.43
553.19	1740.77
553.39	1877.99
553.59	1677.29
553.78	1748.97
553.98	1751.01
554.17	1718.25
554.37	1710.05
554.57	1832.93
554.76	1648.61
554.96	1693.67
555.16	1742.82
555.35	1773.54
555.55	1804.26
555.75	1812.45
555.94	1718.25
556.14	1634.28
556.33	1763.30
556.53	1724.39
556.73	1728.49
556.92	1763.30
557.12	1880.04
557.32	1892.32
557.51	1812.45
557.71	1751.01
557.90	1714.15
558.10	1775.59
558.30	1785.83
558.49	1671.14
558.69	1775.59
558.88	1781.73
559.08	1761.25
559.28	1673.19
559.47	1761.25
559.67	1773.54
559.86	1843.17
560.06	1787.88
560.26	1689.57
560.45	1779.68
560.65	1665.00
560.84	1800.16
561.04	1742.82
561.24	1812.45
561.43	1652.71
561.63	1863.65
561.82	1742.82
562.02	1818.60
562.22	1679.33
562.41	1697.77
562.61	1726.44
562.80	1701.86
563.00	1933.28
563.19	1742.82
563.39	1816.55
563.59	1755.11
563.78	1701.86
563.98	1562.60
564.17	1665.00
564.37	1607.66
564.56	1755.11
564.76	1656.81
564.96	1806.31
565.15	1767.40
565.35	1834.98
565.54	1699.81
565.74	1820.64
565.93	1742.82
566.13	1751.01
566.32	1724.39
566.52	1695.72
566.71	1662.95
566.91	1773.54
567.11	1796.07
567.30	1656.81
567.50	1802.21
567.69	1712.10
567.89	1740.77
568.08	1755.11
568.28	1744.87
568.47	1652.71
568.67	1753.06
568.86	1681.38
569.06	1746.92
569.25	1769.44
569.45	1681.38
569.64	1675.24
569.84	1638.38
570.04	1751.01
570.23	1736.68
570.43	1712.10
570.62	1705.96
570.82	1783.78
571.01	1683.43
571.21	1712.10
571.40	1791.97
571.60	1740.77
571.79	1820.64
571.99	1710.05
572.18	1718.25
572.38	1753.06
572.57	1736.68
572.77	1800.16
572.96	1871.84
573.16	1757.16
573.35	1789.92
573.55	1869.80
573.74	1812.45
573.94	1681.38
574.13	1726.44
574.33	1796.07
574.52	1837.03
574.71	1716.20
574.91	1806.31
575.10	1708.01
575.30	1705.96
575.49	1695.72
575.69	1716.20
575.88	1732.58
576.08	1724.39
576.27	1781.73
576.47	1806.31
576.66	1851.36
576.86	1806.31
577.05	1714.15
577.25	1757.16
577.44	1869.80
577.64	1800.16
577.83	1855.46
578.02	1738.73
578.22	1861.60
578.41	1769.44
578.61	1767.40
578.80	1656.81
579.00	1818.60
579.19	1759.21
579.39	1767.40
579.58	1802.21
579.77	1794.02
579.97	1742.82
580.16	1863.65
580.36	1785.83
580.55	1759.21
580.75	1820.64
580.94	1763.30
581.13	1751.01
581.33	1849.32
581.52	1785.83
581.72	1847.27
581.91	1791.97
582.11	1748.97
582.30	1867.75
582.49	1742.82
582.69	1808.36
582.88	1783.78
583.08	1791.97
583.27	1763.30
583.47	1710.05
583.66	1748.97
583.85	1681.38
584.05	1759.21
584.24	1742.82
584.44	1814.50
584.63	1861.60
584.82	1871.84
585.02	1849.32
585.21	1880.04
585.41	1839.08
585.60	1705.96
585.79	1880.04
585.99	1902.56
586.18	1906.66
586.37	2172.89
586.57	3444.68
586.76	9875.31
586.96	24295.05
587.15	33996.28
587.34	39970.21
587.54	41792.90
587.73	36373.97
587.93	26269.30
588.12	21532.34
588.31	18317.03
588.51	16301.83
588.70	15093.53
588.89	13926.19
589.09	12382.02
589.28	10878.81
589.47	9381.74
589.67	7929.74
589.86	6465.44
590.06	4896.69
590.25	3985.35
590.44	3129.30
590.64	2695.13
590.83	2197.47
591.02	1994.72
591.22	1877.99
591.41	1839.08
591.60	1873.89
591.80	1972.19
591.99	1726.44
592.18	1763.30
592.38	1830.88
592.57	1796.07
592.76	1753.06
592.96	1761.25
593.15	1748.97
593.34	1843.17
593.54	1757.16
593.73	1755.11
593.92	1751.01
594.12	1812.45
594.31	1820.64
594.50	1812.45
594.70	1845.22
594.89	1882.08
595.08	1634.28
595.28	1765.35
595.47	1910.75
595.66	1828.84
595.86	1738.73
596.05	1779.68
596.24	1730.53
596.43	1798.12
596.63	1789.92
596.82	1798.12
597.01	1826.79
597.21	1751.01
597.40	1853.41
597.59	1769.44
597.79	1710.05
597.98	1783.78
598.17	1705.96
598.36	1718.25
598.56	1658.85
598.75	1703.91
598.94	1685.48
599.14	1734.63
599.33	1720.29
599.52	1800.16
599.71	1726.44
599.91	1751.01
600.10	1804.26
600.29	1732.58
600.48	1796.07
600.68	1832.93
600.87	1775.59
601.06	1751.01
601.26	1773.54
601.45	1748.97
601.64	1753.06
601.83	1746.92
602.03	1775.59
602.22	1624.04
602.41	1767.40
602.60	1886.18
602.80	1849.32
602.99	1783.78
603.18	1636.33
603.37	1724.39
603.57	1812.45
603.76	1789.92
603.95	1861.60
604.14	1734.63
604.34	1746.92
604.53	1701.86
604.72	1748.97
604.91	1761.25
605.10	1791.97
605.30	1632.23
605.49	1828.84
605.68	1708.01
605.87	1787.88
606.07	1636.33
606.26	1710.05
606.45	1765.35
606.64	1800.16
606.84	1734.63
607.03	1681.38
607.22	1755.11
607.41	1644.52
607.60	1693.67
607.80	1773.54
607.99	1847.27
608.18	1658.85
608.37	1718.25
608.56	1724.39
608.76	1789.92
608.95	1794.02
609.14	1718.25
609.33	1777.64
609.52	1783.78
609.72	1794.02
609.91	1824.74
610.10	1734.63
610.29	1845.22
610.48	1681.38
610.68	1779.68
610.87	1744.87
611.06	1791.97
611.25	1665.00
611.44	1759.21
611.63	1708.01
611.83	1773.54
612.02	1695.72
612.21	1757.16
612.40	1691.62
612.59	1599.46
612.79	1667.05
612.98	1701.86
613.17	1849.32
613.36	1724.39
613.55	1830.88
613.74	1720.29
613.93	1802.21
614.13	1722.34
614.32	1712.10
614.51	1791.97
614.70	1705.96
614.89	1689.57
615.08	1751.01
615.28	2031.58
615.47	1634.28
615.66	1628.14
615.85	1765.35
616.04	1779.68
616.23	1699.81
616.42	1742.82
616.62	1751.01
616.81	1800.16
617.00	1730.53
617.19	1699.81
617.38	1708.01
617.57	1802.21
617.76	1703.91
617.95	1695.72
618.15	1681.38
618.34	1804.26
618.53	1681.38
618.72	1794.02
618.91	1826.79
619.10	1751.01
619.29	1820.64
619.48	1699.81
619.68	1673.19
619.87	1763.30
620.06	1611.75
620.25	1732.58
620.44	1656.81
620.63	1705.96
620.82	1722.34
621.01	1781.73
621.20	1742.82
621.39	1791.97
621.59	1757.16
621.78	1765.35
621.97	1691.62
622.16	1660.90
622.35	1710.05
622.54	1728.49
622.73	1675.24
622.92	1685.48
623.11	1812.45
623.30	1667.05
623.49	1777.64
623.68	1624.04
623.88	1808.36
624.07	1689.57
624.26	1728.49
624.45	1730.53
624.64	1679.33
624.83	1740.77
625.02	1732.58
625.21	1732.58
625.40	1669.09
625.59	1867.75
625.78	1689.57
625.97	1763.30
626.16	1744.87
626.35	1777.64
626.54	1738.73
626.74	1806.31
626.93	1767.40
627.12	1632.23
627.31	1765.35
627.50	1726.44
627.69	1751.01
627.88	1687.53
628.07	1673.19
628.26	1638.38
628.45	1685.48
628.64	1679.33
628.83	1671.14
629.02	1640.42
629.21	1753.06
629.40	1716.20
629.59	1636.33
629.78	1648.61
629.97	1689.57
630.16	1828.84
630.35	1617.90
630.54	1681.38
630.73	1720.29
630.92	1708.01
631.11	1697.77
631.30	1755.11
631.49	1787.88
631.68	1687.53
631.87	1755.11
632.06	1669.09
632.25	1820.64
632.44	1759.21
632.63	1728.49
632.82	1621.99
633.01	1701.86
633.20	1689.57
633.39	1665.00
633.58	1660.90
633.77	1673.19
633.96	1796.07
634.15	1632.23
634.34	1708.01
634.53	1691.62
634.72	1712.10
634.91	1654.76
635.10	1806.31
635.29	1701.86
635.48	1699.81
635.67	1718.25
635.86	1632.23
636.05	1710.05
636.24	1736.68
636.43	1755.11
636.62	1796.07
636.81	1681.38
637.00	1734.63
637.19	1716.20
637.38	1679.33
637.57	1701.86
637.76	1665.00
637.95	1718.25
638.14	1640.42
638.33	1734.63
638.52	1724.39
638.71	1648.61
638.89	1607.66
639.08	1824.74
639.27	1748.97
639.46	1638.38
639.65	1798.12
639.84	1800.16
640.03	1748.97
640.22	1609.70
640.41	1865.70
640.60	1708.01
640.79	1689.57
640.98	1787.88
641.17	1744.87
641.36	1761.25
641.55	1734.63
641.74	1691.62
641.92	1642.47
642.11	1636.33
642.30	1640.42
642.49	1677.29
642.68	1716.20
642.87	1646.57
643.06	1767.40
643.25	1779.68
643.44	1726.44
643.63	1742.82
643.82	1728.49
644.00	1607.66
644.19	1730.53
644.38	1689.57
644.57	1689.57
644.76	1746.92
644.95	1681.38
645.14	1740.77
645.33	1738.73
645.52	1765.35
645.71	1628.14
645.89	1619.94
646.08	1722.34
646.27	1634.28
646.46	1865.70
646.65	1658.85
646.84	1675.24
647.03	1636.33
647.22	1753.06
647.40	1802.21
647.59	1689.57
647.78	1611.75
647.97	1632.23
648.16	1705.96
648.35	1818.60
648.54	1757.16
648.73	1714.15
648.91	1810.40
649.10	1708.01
649.29	1714.15
649.48	1697.77
649.67	1712.10
649.86	1720.29
650.05	1662.95
650.23	1814.50
650.42	1738.73
650.61	1740.77
650.80	1800.16
650.99	1865.70
651.18	1708.01
651.36	1748.97
651.55	1671.14
651.74	1753.06
651.93	1658.85
652.12	1746.92
652.31	1763.30
652.49	1669.09
652.68	1693.67
652.87	1757.16
653.06	1685.48
653.25	1732.58
653.44	1624.04
653.62	1740.77
653.81	1667.05
654.00	1753.06
654.19	1791.97
654.38	1820.64
654.56	1767.40
654.75	1679.33
654.94	1738.73
655.13	1773.54
655.32	1673.19
655.51	1861.60
655.69	1656.81
655.88	1755.11
656.07	1572.84
656.26	1734.63
656.45	1751.01
656.63	1716.20
656.82	1726.44
657.01	1791.97
657.20	1675.24
657.38	1779.68
657.57	1685.48
657.76	1652.71
657.95	1742.82
658.14	1642.47
658.32	1703.91
658.51	1718.25
658.70	1716.20
658.89	1738.73
659.08	1740.77
659.26	1740.77
659.45	1671.14
659.64	1769.44
659.83	1691.62
660.01	1931.23
660.20	1679.33
660.39	1791.97
660.58	1585.13
660.76	1812.45
660.95	1621.99
661.14	1722.34
661.33	1628.14
661.51	1658.85
661.70	1708.01
661.89	1654.76
662.08	1734.63
662.26	1591.27
662.45	1683.43
662.64	1871.84
662.83	1787.88
663.01	1609.70
663.20	1708.01
663.39	1771.49
663.58	1665.00
663.76	1605.61
663.95	1767.40
664.14	1685.48
664.32	1691.62
664.51	1662.95
664.70	1648.61
664.89	1767.40
665.07	1634.28
665.26	1798.12
665.45	1671.14
665.64	1812.45
665.82	1751.01
666.01	1880.04
666.20	1699.81
666.38	1820.64
666.57	1769.44
666.76	2150.37
666.95	4456.38
667.13	10260.32
667.32	15245.08
667.51	17755.89
667.69	18974.43
667.88	17696.50
668.07	12363.59
668.25	9338.74
668.44	8130.44
668.63	7249.81
668.81	6762.39
669.00	6266.78
669.19	5703.59
669.38	5115.83
669.56	4415.42
669.75	4065.22
669.94	3424.20
670.12	2846.68
670.31	2506.71
670.50	2299.87
670.68	2031.58
670.87	1914.85
671.06	1755.11
671.24	1804.26
671.43	1845.22
671.62	1796.07
671.80	1638.38
671.99	1722.34
672.18	1679.33
672.36	1783.78
672.55	1638.38
672.74	1748.97
672.92	1726.44
673.11	1763.30
673.29	1660.90
673.48	1710.05
673.67	1732.58
673.85	1779.68
674.04	1718.25
674.23	1652.71
674.41	1773.54
674.60	1757.16
674.79	1601.51
674.97	1751.01
675.16	1767.40
675.34	1779.68
675.53	1699.81
675.72	1761.25
675.90	1791.97
676.09	1599.46
676.28	1695.72
676.46	1603.56
676.65	1751.01
676.83	1648.61
677.02	1734.63
677.21	1748.97
677.39	1708.01
677.58	1669.09
677.77	1720.29
677.95	1665.00
678.14	1679.33
678.32	1681.38
678.51	1730.53
678.70	1800.16
678.88	1673.19
679.07	1763.30
679.25	1722.34
679.44	1708.01
679.63	1667.05
679.81	1665.00
680.00	1687.53
680.18	1742.82
680.37	1703.91
680.55	1714.15
680.74	1605.61
680.93	1638.38
681.11	1675.24
681.30	1730.53
681.48	1695.72
681.67	1710.05
681.85	1701.86
682.04	1634.28
682.23	1693.67
682.41	1691.62
682.60	1601.51
682.78	1714.15
682.97	1652.71
683.15	1681.38
683.34	1701.86
683.53	1806.31
683.71	1593.32
683.90	1796.07
684.08	1802.21
684.27	1656.81
684.45	1746.92
684.64	1806.31
684.82	1687.53
685.01	1701.86
685.19	1681.38
685.38	1726.44
685.57	1718.25
685.75	1691.62
685.94	1730.53
686.12	1685.48
686.31	1615.85
686.49	1775.59
686.68	1540.07
686.86	1804.26
687.05	1751.01
687.23	1693.67
687.42	1742.82
687.60	1603.56
687.79	1781.73
687.97	1734.63
688.16	1708.01
688.34	1812.45
688.53	1583.08
688.71	1783.78
688.90	1765.35
689.08	1624.04
689.27	1624.04
689.45	1781.73
689.64	1730.53
689.82	1757.16
690.01	1669.09
690.19	1665.00
690.38	1679.33
690.56	1742.82
690.75	1673.19
690.93	1607.66
691.12	1671.14
691.30	1693.67
691.49	1718.25
691.67	1689.57
691.86	1828.84
692.04	1697.77
692.23	1671.14
692.41	1634.28
692.60	1865.70
692.78	1708.01
692.97	1787.88
693.15	1681.38
693.34	1763.30
693.52	1734.63
693.71	1689.57
693.89	1701.86
694.08	1578.98
694.26	1771.49
694.44	1746.92
694.63	1708.01
694.81	1665.00
695.00	1656.81
695.18	1771.49
695.37	1826.79
695.55	1697.77
695.74	1730.53
695.92	1656.81
696.10	1810.40
696.29	1652.71
696.47	1716.20
696.66	1607.66
696.84	1718.25
697.03	1742.82
697.21	1818.60
697.40	2377.69
697.58	1767.40
697.76	1665.00
697.95	1673.19
698.13	1671.14
698.32	1630.18
698.50	1748.97
698.68	1773.54
698.87	1726.44
699.05	1830.88
699.24	1761.25
699.42	1677.29
699.61	1755.11
699.79	1726.44
699.97	1701.86
700.16	1640.42
700.34	1691.62
700.53	1703.91
700.71	1841.12
700.89	1757.16
701.08	1691.62
701.26	1751.01
701.45	2068.45
701.63	1662.95
701.81	1689.57
702.00	1703.91
702.18	1652.71
702.37	1581.03
702.55	1710.05
702.73	1679.33
702.92	1628.14
703.10	1755.11
703.28	1691.62
703.47	1722.34
703.65	1705.96
703.84	1767.40
704.02	1646.57
704.20	1812.45
704.39	1687.53
704.57	1669.09
704.75	1777.64
704.94	1781.73
705.12	1703.91
705.30	1804.26
705.49	2224.09
705.67	4386.75
705.86	9402.22
706.04	12541.76
706.22	14157.61
706.41	15300.37
706.59	13631.28
706.77	9574.25
706.96	7350.16
707.14	6459.29
707.32	5969.83
707.51	5455.79
707.69	4884.41
707.87	4208.58
708.06	3424.20
708.24	2934.74
708.42	2336.73
708.61	2332.64
708.79	1927.14
708.97	1859.56
709.16	1783.78
709.34	1777.64
709.52	1730.53
709.71	1734.63
709.89	1769.44
710.07	1687.53
710.26	1654.76
710.44	1671.14
710.62	1699.81
710.80	1730.53
710.99	1800.16
711.17	1748.97
711.35	1722.34
711.54	1648.61
711.72	1724.39
711.90	1687.53
712.09	1710.05
712.27	1621.99
712.45	1763.30
712.63	1742.82
712.82	1685.48
713.00	1691.62
713.18	1810.40
713.37	1781.73
713.55	1746.92
713.73	1751.01
713.91	1757.16
714.10	1701.86
714.28	1658.85
714.46	1755.11
714.65	1695.72
714.83	1769.44
715.01	1775.59
715.19	1634.28
715.38	1650.66
715.56	1736.68
715.74	1634.28
715.92	1607.66
716.11	1818.60
716.29	1538.02
716.47	1695.72
716.65	1757.16
716.84	1650.66
717.02	1824.74
717.20	1644.52
717.38	1662.95
717.57	1685.48
717.75	1748.97
717.93	1650.66
718.11	1701.86
718.30	1591.27
718.48	1779.68
718.66	1699.81
718.84	1779.68
719.03	1597.42
719.21	1611.75
719.39	1814.50
719.57	1789.92
719.75	1742.82
719.94	1591.27
720.12	1677.29
720.30	1722.34
720.48	1763.30
720.67	1634.28
720.85	1642.47
721.03	1673.19
721.21	1591.27
721.39	1726.44
721.58	1755.11
721.76	1740.77
721.94	1691.62
722.12	1662.95
722.30	1773.54
722.49	1667.05
722.67	1671.14
722.85	1697.77
723.03	1632.23
723.21	1697.77
723.40	1679.33
723.58	1800.16
723.76	1734.63
723.94	1816.55
724.12	1701.86
724.30	1765.35
724.49	1767.40
724.67	1634.28
724.85	1787.88
725.03	1630.18
725.21	1796.07
725.40	1802.21
725.58	1677.29
725.76	1775.59
725.94	1732.58
726.12	1675.24
726.30	1695.72
726.49	1720.29
726.67	1722.34
726.85	1744.87
727.03	1736.68
727.21	2166.75
727.39	2848.72
727.57	3819.46
727.76	4265.92
727.94	4323.26
728.12	4370.37
728.30	3684.30
728.48	2953.17
728.66	2639.83
728.84	2549.72
729.03	2369.50
729.21	2162.66
729.39	1882.08
729.57	1855.46
729.75	1796.07
729.93	1816.55
730.11	1654.76
730.30	1769.44
730.48	1714.15
730.66	1787.88
730.84	1740.77
731.02	1714.15
731.20	1714.15
731.38	1787.88
731.56	1699.81
731.74	1660.90
731.93	1746.92
732.11	1742.82
732.29	1683.43
732.47	1734.63
732.65	1779.68
732.83	1724.39
733.01	1669.09
733.19	1640.42
733.37	1730.53
733.56	1779.68
733.74	1669.09
733.92	1755.11
734.10	1685.48
734.28	1703.91
734.46	1718.25
734.64	1675.24
734.82	1667.05
735.00	1705.96
735.18	1652.71
735.36	1716.20
735.54	1753.06
735.73	1742.82
735.91	1611.75
736.09	1693.67
736.27	1724.39
736.45	1773.54
736.63	1648.61
736.81	1632.23
736.99	1761.25
737.17	1753.06
737.35	1626.09
737.53	1626.09
737.71	1640.42
737.89	1791.97
738.07	1726.44
738.25	1638.38
738.43	1583.08
738.61	1763.30
738.80	1644.52
738.98	1703.91
739.16	1652.71
739.34	1603.56
739.52	1699.81
739.70	1697.77
739.88	1740.77
740.06	1794.02
740.24	1544.17
740.42	1665.00
740.60	1650.66
740.78	1667.05
740.96	1685.48
741.14	1652.71
741.32	1716.20
741.50	1611.75
741.68	1779.68
741.86	1710.05
742.04	1593.32
742.22	1652.71
742.40	1677.29
742.58	1677.29
742.76	1675.24
742.94	1757.16
743.12	1540.07
743.30	1671.14
743.48	1685.48
743.66	1708.01
743.84	1708.01
744.02	1683.43
744.20	1705.96
744.38	1665.00
744.56	1689.57
744.74	1798.12
744.92	1652.71
745.10	1712.10
745.28	1689.57
745.46	1771.49
745.64	1695.72
745.82	1767.40
746.00	1705.96
746.18	1703.91
746.36	1632.23
746.54	1673.19
746.72	1703.91
746.90	1712.10
747.08	1824.74
747.26	1708.01
747.44	1781.73
747.62	1736.68
747.80	1746.92
747.98	1736.68
748.15	1732.58
748.33	1748.97
748.51	1681.38
748.69	1753.06
748.87	1648.61
749.05	1779.68
749.23	1667.05
749.41	1742.82
749.59	1626.09
749.77	1689.57
749.95	1724.39
750.13	1697.77
750.31	1720.29
750.49	1675.24
750.67	1736.68
750.85	1755.11
751.03	1691.62
751.20	1847.27
751.38	1791.97
751.56	1638.38
751.74	1722.34
751.92	1673.19
752.10	1654.76
752.28	1800.16
752.46	1673.19
752.64	1691.62
752.82	1781.73
753.00	1722.34
753.18	1740.77
753.35	1689.57
753.53	1656.81
753.71	1638.38
753.89	1740.77
754.07	1648.61
754.25	1722.34
754.43	1820.64
754.61	1658.85
754.79	1736.68
754.97	1681.38
755.14	1791.97
755.32	1617.90
755.50	1810.40
755.68	1652.71
755.86	1646.57
756.04	1667.05
756.22	1599.46
756.40	1839.08
756.57	1794.02
756.75	1605.61
756.93	1769.44
757.11	1697.77
757.29	1658.85
757.47	1660.90
757.65	1644.52
757.82	1552.36
758.00	1636.33
758.18	1710.05
758.36	1648.61
758.54	1857.51
758.72	1609.70
758.90	1794.02
759.07	1720.29
759.25	1671.14
759.43	1689.57
759.61	1589.22
759.79	2193.37
759.97	1763.30
760.15	1665.00
760.32	1632.23
760.50	1685.48
760.68	1890.28
760.86	1589.22
761.04	1820.64
761.22	1773.54
761.39	1693.67
761.57	1660.90
761.75	1691.62
761.93	1757.16
762.11	1738.73
762.28	1640.42
762.46	1644.52
762.64	1748.97
762.82	1675.24
763.00	1748.97
763.18	1744.87
763.35	1621.99
763.53	1755.11
763.71	1673.19
763.89	1693.67
764.07	1710.05
764.24	1624.04
764.42	1763.30
764.60	1708.01
764.78	1771.49
764.96	1730.53
765.13	1763.30
765.31	1650.66
765.49	1777.64
765.67	1626.09
765.84	1564.65
766.02	1751.01
766.20	1689.57
766.38	1732.58
766.56	1761.25
766.73	1732.58
766.91	1681.38
767.09	1708.01
767.27	1751.01
767.44	1681.38
767.62	1732.58
767.80	1714.15
767.98	1660.90
768.15	1705.96
768.33	1687.53
768.51	1646.57
768.69	1667.05
768.87	1738.73
769.04	1660.90
769.22	1794.02
769.40	1798.12
769.58	1781.73
769.75	1714.15
769.93	1667.05
770.11	1712.10
770.28	1556.46
770.46	1806.31
770.64	1761.25
770.82	1757.16
770.99	1712.10
771.17	1759.21
771.35	1679.33
771.53	1628.14
771.70	1691.62
771.88	1753.06
772.06	1765.35
772.23	1742.82
772.41	1708.01
772.59	1679.33
772.77	1681.38
772.94	1662.95
773.12	1744.87
773.30	1755.11
773.47	1642.47
773.65	1613.80
773.83	1841.12
774.01	1697.77
774.18	1546.22
774.36	1617.90
774.54	1624.04
774.71	1732.58
774.89	1720.29
775.07	1675.24
775.24	1685.48
775.42	1720.29
775.60	1714.15
775.78	1619.94
775.95	1681.38
776.13	1673.19
776.31	1583.08
776.48	1689.57
776.66	1771.49
776.84	1669.09
777.01	1644.52
777.19	1685.48
777.37	1662.95
777.54	1679.33
777.72	1783.78
777.90	1683.43
778.07	1570.79
778.25	1841.12
778.43	1732.58
778.60	1720.29
778.78	1748.97
778.96	1755.11
779.13	1638.38
779.31	1779.68
779.49	1724.39
779.66	1718.25
779.84	1660.90
780.01	1787.88
780.19	1744.87
780.37	1824.74
780.54	1751.01
780.72	1658.85
780.90	1662.95
781.07	1667.05
781.25	1691.62
781.43	1728.49
781.60	1705.96
781.78	1796.07
781.95	1701.86
782.13	1660.90
782.31	1757.16
782.48	1621.99
782.66	1763.30
782.83	1755.11
783.01	1773.54
783.19	1761.25
783.36	1656.81
783.54	1714.15
783.72	1703.91
783.89	1644.52
784.07	1748.97
784.24	1714.15
784.42	1681.38
784.60	1673.19
784.77	1769.44
784.95	1619.94
785.12	1619.94
785.30	1718.25
785.47	1621.99
785.65	1644.52
785.83	1644.52
786.00	1714.15
786.18	1708.01
786.35	1642.47
786.53	1617.90
786.71	1755.11
786.88	1755.11
787.06	1716.20
787.23	1683.43
787.41	1615.85
787.58	1691.62
787.76	1609.70
787.94	1705.96
788.11	1675.24
788.29	1722.34
788.46	1695.72
788.64	1675.24
788.81	1712.10
788.99	1665.00
789.16	1638.38
789.34	1697.77
789.52	1691.62
789.69	1699.81
789.87	1535.98
790.04	1665.00
790.22	1687.53
790.39	1816.55
790.57	1667.05
790.74	1716.20
790.92	1722.34
791.09	1576.94
791.27	1730.53
791.44	1761.25
791.62	1652.71
791.79	1755.11
791.97	1697.77
792.15	1865.70
792.32	1718.25
792.50	1699.81
792.67	1808.36
792.85	1802.21
793.02	1660.90
793.20	1650.66
793.37	1630.18
793.55	1718.25
793.72	1632.23
793.90	1777.64
794.07	1732.58
794.25	1626.09
794.42	1736.68
794.60	1695.72
794.77	1816.55
794.95	1781.73
795.12	1757.16
795.30	1720.29
795.47	1644.52
795.65	1845.22
795.82	1744.87
796.00	1724.39
796.17	1701.86
796.34	1644.52
796.52	1681.38
796.69	1751.01
796.87	1767.40
797.04	1753.06
797.22	1742.82
797.39	1787.88
797.57	1621.99
797.74	1681.38
797.92	1767.40
798.09	1671.14
798.27	1808.36
798.44	1800.16
798.62	1773.54
798.79	1683.43
798.96	1726.44
799.14	1681.38
799.31	1826.79
799.49	1691.62
799.66	1716.20
799.84	1722.34
800.01	1640.42
800.19	1638.38
800.36	1712.10
800.53	1662.95
800.71	1710.05
800.88	1791.97
801.06	1658.85
801.23	1644.52
801.41	1701.86
801.58	1644.52
801.75	1636.33
801.93	1720.29
802.10	1736.68
802.28	1693.67
802.45	1646.57
802.63	1685.48
802.80	1859.56
802.97	1691.62
803.15	1691.62
803.32	1652.71
803.50	1648.61
803.67	1675.24
803.84	1660.90
804.02	1755.11
804.19	1724.39
804.37	1605.61
804.54	1658.85
804.71	1736.68
804.89	1665.00
805.06	1716.20
805.24	1658.85
805.41	1632.23
805.58	1628.14
805.76	1896.42
805.93	1726.44
806.10	1726.44
806.28	1732.58
806.45	1705.96
806.63	1718.25
806.80	1697.77
806.97	1665.00
807.15	1679.33
807.32	1658.85
807.49	1679.33
807.67	1603.56
807.84	1640.42
808.01	1689.57
808.19	1798.12
808.36	1777.64
808.54	1673.19
808.71	1660.90
808.88	1679.33
809.06	1734.63
809.23	1812.45
809.40	1656.81
809.58	1740.77
809.75	1712.10
809.92	1656.81
810.10	1771.49
810.27	1673.19
810.44	1665.00
810.62	1730.53
810.79	1726.44
810.96	1714.15
811.14	1681.38
811.31	1781.73
811.48	1771.49
811.66	1693.67
811.83	1763.30
812.00	1724.39
812.18	1634.28
812.35	1773.54
812.52	1683.43
812.69	1677.29
812.87	1624.04
813.04	1683.43
813.21	1683.43
813.39	1675.24
813.56	1724.39
813.73	1665.00
813.91	1671.14
814.08	1742.82
814.25	1718.25
814.42	1648.61
814.60	1667.05
814.77	1695.72
814.94	1744.87
815.12	1701.86
815.29	1738.73
815.46	1605.61
815.63	1730.53
815.81	1662.95
815.98	1748.97
816.15	1751.01
816.33	1720.29
816.50	1660.90
816.67	1714.15
816.84	1591.27
817.02	1615.85
817.19	1705.96
817.36	1695.72
817.53	1710.05
817.71	1636.33
817.88	1773.54
818.05	1677.29
818.22	1656.81
818.40	1851.36
818.57	1646.57
818.74	1746.92
818.91	1742.82
819.09	1759.21
819.26	1738.73
819.43	1642.47
819.60	1621.99
819.78	1710.05
819.95	1779.68
820.12	1695.72
820.29	1777.64
820.47	1660.90
820.64	1636.33
820.81	1585.13
820.98	1626.09
821.15	1693.67
821.33	1683.43
821.50	1642.47
821.67	1779.68
821.84	1699.81
822.02	1734.63
822.19	1839.08
822.36	1636.33
822.53	1708.01
822.70	1642.47
822.88	1683.43
823.05	1753.06
823.22	1640.42
823.39	1691.62
823.56	1728.49
823.74	1781.73
823.91	1660.90
824.08	1595.37
824.25	1593.32
824.42	1740.77
824.60	1583.08
824.77	1703.91
824.94	1673.19
825.11	1703.91
825.28	1644.52
825.45	1689.57
825.63	1705.96
825.80	1566.70
825.97	1710.05
826.14	1757.16
826.31	1636.33
826.48	1740.77
826.66	1683.43
826.83	1689.57
827.00	1675.24
827.17	1689.57
827.34	1671.14
827.51	1638.38
827.69	1683.43
827.86	1681.38
828.03	1753.06
828.20	1710.05
828.37	1689.57
828.54	1724.39
828.71	1658.85
828.89	1851.36
829.06	1714.15
829.23	1775.59
829.40	1675.24
829.57	1656.81
829.74	1724.39
829.91	1742.82
830.09	1665.00
830.26	1691.62
830.43	1763.30
830.60	1693.67
830.77	1710.05
830.94	1785.83
831.11	1742.82
831.28	1662.95
831.46	1734.63
831.63	1701.86
831.80	1824.74
831.97	1624.04
832.14	1642.47
832.31	1779.68
832.48	1722.34
832.65	1789.92
832.82	1740.77
832.99	1658.85
833.17	1634.28
833.34	1779.68
833.51	1720.29
833.68	1560.55
833.85	1769.44
834.02	1650.66
834.19	1654.76
834.36	1652.71
834.53	1652.71
834.70	1796.07
834.87	1781.73
835.04	1624.04
835.22	1673.19
835.39	1652.71
835.56	1662.95
835.73	1708.01
835.90	1716.20
836.07	1673.19
836.24	1720.29
836.41	1624.04
836.58	1650.66
836.75	1757.16
836.92	1802.21
837.09	1632.23
837.26	1679.33
837.43	1677.29
837.60	1736.68
837.77	1654.76
837.94	1687.53
838.12	1798.12
838.29	1642.47
838.46	1658.85
838.63	1564.65
838.80	1738.73
838.97	1687.53
839.14	1667.05
839.31	1636.33
839.48	1748.97
839.65	1681.38
839.82	1757.16
839.99	1687.53
840.16	1689.57
840.33	1726.44
840.50	1738.73
840.67	1658.85
840.84	1615.85
841.01	1691.62
841.18	1689.57
841.35	1767.40
841.52	1716.20
841.69	1806.31
841.86	1673.19
842.03	1677.29
842.20	1742.82
842.37	1656.81
842.54	1701.86
842.71	1673.19
842.88	1644.52
843.05	1695.72
843.22	1648.61
843.39	1798.12
843.56	1699.81
843.73	1710.05
843.90	1626.09
844.07	1681.38
844.24	1697.77
844.41	1812.45
844.58	1687.53
844.75	1671.14
844.92	1708.01
845.09	1705.96
845.26	1621.99
845.43	1624.04
845.60	1765.35
845.77	1746.92
845.94	1675.24
846.10	1730.53
846.27	1624.04
846.44	1599.46
846.61	1699.81
846.78	1679.33
846.95	1767.40
847.12	1662.95
847.29	1736.68
847.46	1624.04
847.63	1744.87
847.80	1689.57
847.97	1693.67
848.14	1800.16
848.31	1757.16
848.48	1691.62
848.65	1720.29
848.82	1677.29
848.98	1830.88
849.15	1755.11
849.32	1736.68
849.49	1796.07
849.66	1691.62
849.83	1656.81
850.00	1691.62
850.17	1675.24
850.34	1705.96
850.51	1624.04
850.68	1705.96
850.85	1837.03
851.01	1787.88
851.18	1607.66
851.35	1691.62
851.52	1740.77
851.69	1765.35
851.86	1636.33
852.03	1724.39
852.20	1681.38
852.37	1732.58
852.53	1656.81
852.70	1679.33
852.87	1673.19
853.04	1742.82
853.21	1734.63
853.38	1697.77
853.55	1849.32
853.72	1796.07
853.89	1669.09
854.05	1669.09
854.22	1636.33
854.39	1693.67
854.56	1712.10
854.73	1763.30
854.90	1705.96
855.07	1708.01
855.23	1621.99
855.40	1648.61
855.57	1628.14
855.74	1540.07
855.91	1808.36
856.08	1689.57
856.25	1638.38
856.41	1632.23
856.58	1656.81
856.75	1732.58
856.92	1632.23
857.09	1722.34
857.26	1656.81
857.42	1718.25
857.59	1841.12
857.76	1603.56
857.93	1695.72
858.10	1679.33
858.27	1646.57
858.43	1660.90
858.60	1607.66
858.77	1607.66
858.94	1660.90
859.11	1734.63
859.27	1638.38
859.44	1755.11
859.61	1783.78
859.78	1753.06
859.95	1736.68
860.12	1673.19
860.28	1759.21
860.45	1861.60
860.62	1669.09
860.79	1712.10
860.95	1769.44
861.12	1658.85
861.29	1669.09
861.46	1718.25
861.63	1724.39
861.79	1732.58
861.96	1609.70
862.13	1724.39
862.30	1736.68
862.47	1652.71
862.63	1693.67
862.80	1730.53
862.97	1718.25
863.14	1730.53
863.30	1744.87
863.47	1718.25
863.64	1669.09
863.81	1652.71
863.97	1650.66
864.14	1730.53
864.31	1632.23
864.48	1720.29
864.65	1632.23
864.81	1859.56
864.98	1689.57
865.15	1728.49
865.32	1701.86
865.48	1669.09
865.65	1802.21
865.82	1722.34
865.98	1669.09
866.15	1710.05
866.32	1617.90
866.49	1665.00
866.65	1787.88
866.82	1675.24
866.99	1636.33
867.16	1646.57
867.32	1624.04
867.49	1714.15
867.66	1693.67
867.83	1712.10
867.99	1667.05
868.16	1662.95
868.33	1667.05
868.49	1718.25
868.66	1712.10
868.83	1730.53
868.99	1691.62
869.16	1726.44
869.33	1734.63
869.50	1759.21
869.66	1708.01
869.83	1714.15
870.00	1648.61
870.16	1765.35
870.33	1665.00
870.50	1753.06
870.66	1751.01
870.83	1857.51
871.00	1644.52
871.17	1732.58
871.33	1708.01
871.50	1726.44
871.67	1675.24
871.83	1673.19
872.00	1869.80
872.17	1716.20
872.33	1863.65
872.50	1697.77
872.67	1673.19
872.83	1687.53
873.00	1683.43
873.17	1695.72
873.33	1683.43
873.50	1726.44
873.67	1595.37
873.83	1714.15
874.00	1787.88
874.16	1634.28
874.33	1677.29
874.50	1656.81
874.66	1757.16
874.83	1691.62
875.00	1843.17
875.16	1669.09
875.33	1802.21
875.50	1630.18
875.66	1665.00
875.83	1740.77
875.99	1705.96
876.16	1804.26
876.33	1634.28
876.49	1691.62
876.66	1763.30
876.83	1658.85
876.99	1591.27
877.16	1667.05
877.32	1732.58
877.49	1605.61
877.66	1658.85
877.82	1677.29
877.99	1744.87
878.15	1761.25
878.32	1748.97
878.49	1710.05
878.65	1724.39
878.82	1738.73
878.98	1587.18
879.15	1802.21
879.32	1732.58
879.48	1689.57
879.65	1599.46
879.81	1726.44
879.98	1646.57
880.15	1591.27
880.31	1718.25
880.48	1658.85
880.64	1734.63
880.81	1753.06
880.97	1765.35
881.14	1726.44
881.31	1642.47
881.47	1875.94
881.64	1691.62
881.80	1564.65
881.97	1726.44
882.13	1773.54
882.30	1705.96
882.47	1632.23
882.63	1613.80
882.80	1693.67
882.96	1619.94
883.13	1781.73
883.29	1671.14
883.46	1681.38
883.62	1853.41
883.79	1712.10
883.95	1708.01
884.12	1658.85
884.29	1710.05
884.45	1599.46
884.62	1695.72
884.78	1681.38
884.95	1804.26
885.11	1665.00
885.28	1730.53
885.44	1624.04
885.61	1714.15
885.77	1785.83
885.94	1718.25
886.10	1720.29
886.27	1755.11
886.43	1794.02
886.60	1779.68
886.76	1662.95
886.93	1638.38
887.09	1673.19
887.26	1624.04
887.42	1730.53
887.59	1705.96
887.75	1869.80
887.92	1742.82
888.08	1759.21
888.25	1773.54
888.41	1755.11
888.58	1734.63
888.74	1636.33
888.91	1656.81
>>>>>End Processed Spectral Data<<<<<
