SpectraSuite Data File
++++++++++++++++++++++++++++++++++++
Date: Mon Jun 06 16:49:17 CEST 2016
User: root
Dark Spectrum Present: No
Reference Spectrum Present: No
Number of Sampled Component Spectra: 1
Spectrometers: USB4C02835
Integration Time (usec): 100000 (USB4C02835)
Spectra Averaged: 1 (USB4C02835)
Boxcar Smoothing: 0 (USB4C02835)
Correct for Electrical Dark: No (USB4C02835)
Strobe/Lamp Enabled: No (USB4C02835)
Correct for Detector Non-linearity: No (USB4C02835)
Correct for Stray Light: No (USB4C02835)
Number of Pixels in Processed Spectrum: 3648
>>>>>Begin Processed Spectral Data<<<<<
177.47	1503.21
177.69	1503.21
177.91	1503.21
178.13	1462.25
178.36	1472.49
178.58	1685.48
178.80	1740.77
179.02	1626.09
179.24	1634.28
179.46	1683.43
179.68	1773.54
179.90	1689.57
180.13	1705.96
180.35	1736.68
180.57	1632.23
180.79	1804.26
181.01	1724.39
181.23	1763.30
181.45	1791.97
181.67	1683.43
181.90	1808.36
182.12	1656.81
182.34	1634.28
182.56	1736.68
182.78	1761.25
183.00	1677.29
183.22	1712.10
183.44	1552.36
183.66	1861.60
183.89	1837.03
184.11	1701.86
184.33	1705.96
184.55	1761.25
184.77	1693.67
184.99	1771.49
185.21	1712.10
185.43	1871.84
185.65	1644.52
185.87	1806.31
186.10	1851.36
186.32	1806.31
186.54	1736.68
186.76	1689.57
186.98	1726.44
187.20	1728.49
187.42	1730.53
187.64	1701.86
187.86	1697.77
188.08	1722.34
188.30	1677.29
188.52	1697.77
188.75	1820.64
188.97	1730.53
189.19	1685.48
189.41	1693.67
189.63	1761.25
189.85	1658.85
190.07	1695.72
190.29	1591.27
190.51	1794.02
190.73	1669.09
190.95	1718.25
191.17	1687.53
191.39	1640.42
191.61	1646.57
191.84	1705.96
192.06	1736.68
192.28	1593.32
192.50	1873.89
192.72	1718.25
192.94	1759.21
193.16	1791.97
193.38	1724.39
193.60	1681.38
193.82	1705.96
194.04	1816.55
194.26	1728.49
194.48	1763.30
194.70	1681.38
194.92	1685.48
195.14	1710.05
195.36	1654.76
195.58	1673.19
195.80	1669.09
196.02	1632.23
196.24	1699.81
196.46	1667.05
196.69	1716.20
196.91	1841.12
197.13	1689.57
197.35	1681.38
197.57	1828.84
197.79	1744.87
198.01	1761.25
198.23	1714.15
198.45	1781.73
198.67	1615.85
198.89	1658.85
199.11	1705.96
199.33	1632.23
199.55	1634.28
199.77	1693.67
199.99	1734.63
200.21	1685.48
200.43	1660.90
200.65	1640.42
200.87	1630.18
201.09	1765.35
201.31	1710.05
201.53	1796.07
201.75	1744.87
201.97	1742.82
202.19	1736.68
202.41	1765.35
202.63	1806.31
202.85	1691.62
203.07	1656.81
203.29	1703.91
203.51	1642.47
203.73	1720.29
203.95	1794.02
204.17	1710.05
204.39	1761.25
204.61	1679.33
204.83	1636.33
205.05	1714.15
205.27	1771.49
205.49	1773.54
205.71	1662.95
205.93	1558.50
206.15	1650.66
206.37	1671.14
206.59	1693.67
206.81	1640.42
207.03	1624.04
207.25	1642.47
207.47	1783.78
207.69	1589.22
207.91	1830.88
208.13	1802.21
208.34	1755.11
208.56	1712.10
208.78	1718.25
209.00	1699.81
209.22	1673.19
209.44	1705.96
209.66	1656.81
209.88	1671.14
210.10	1726.44
210.32	1675.24
210.54	1818.60
210.76	1701.86
210.98	1753.06
211.20	1646.57
211.42	1697.77
211.64	1744.87
211.86	1712.10
212.08	1681.38
212.30	1751.01
212.52	1701.86
212.74	1759.21
212.96	1734.63
213.17	1775.59
213.39	1767.40
213.61	1888.23
213.83	1724.39
214.05	1636.33
214.27	1689.57
214.49	1650.66
214.71	1730.53
214.93	1816.55
215.15	1650.66
215.37	1767.40
215.59	1701.86
215.81	1740.77
216.03	1736.68
216.24	1716.20
216.46	1730.53
216.68	1761.25
216.90	1744.87
217.12	1744.87
217.34	1773.54
217.56	1722.34
217.78	1773.54
218.00	1689.57
218.22	1665.00
218.44	1763.30
218.66	1746.92
218.87	1853.41
219.09	1624.04
219.31	1769.44
219.53	1687.53
219.75	1636.33
219.97	1734.63
220.19	1755.11
220.41	1720.29
220.63	1785.83
220.85	1765.35
221.06	1665.00
221.28	1728.49
221.50	1755.11
221.72	1705.96
221.94	1658.85
222.16	1695.72
222.38	1818.60
222.60	1742.82
222.82	1736.68
223.03	1695.72
223.25	1644.52
223.47	1662.95
223.69	1822.69
223.91	1763.30
224.13	1742.82
224.35	1648.61
224.57	1824.74
224.78	1724.39
225.00	1703.91
225.22	1708.01
225.44	1656.81
225.66	1777.64
225.88	1671.14
226.10	1726.44
226.32	1791.97
226.53	1794.02
226.75	1728.49
226.97	1773.54
227.19	1708.01
227.41	1722.34
227.63	1695.72
227.85	1656.81
228.06	1734.63
228.28	1724.39
228.50	1783.78
228.72	1658.85
228.94	1691.62
229.16	1665.00
229.37	1656.81
229.59	1681.38
229.81	1781.73
230.03	1695.72
230.25	1671.14
230.47	1703.91
230.69	1667.05
230.90	1677.29
231.12	1689.57
231.34	1742.82
231.56	1796.07
231.78	1689.57
232.00	1777.64
232.21	1716.20
232.43	1775.59
232.65	1564.65
232.87	1738.73
233.09	1648.61
233.30	1716.20
233.52	1730.53
233.74	1726.44
233.96	1699.81
234.18	1726.44
234.40	1724.39
234.61	1798.12
234.83	1640.42
235.05	1626.09
235.27	1800.16
235.49	1798.12
235.70	1665.00
235.92	1806.31
236.14	1695.72
236.36	1888.23
236.58	1687.53
236.79	1734.63
237.01	1757.16
237.23	1619.94
237.45	1802.21
237.67	1728.49
237.88	1822.69
238.10	1830.88
238.32	1681.38
238.54	1755.11
238.76	1650.66
238.97	1634.28
239.19	1675.24
239.41	1710.05
239.63	1783.78
239.85	1744.87
240.06	1703.91
240.28	1734.63
240.50	1798.12
240.72	1687.53
240.93	1691.62
241.15	1730.53
241.37	1777.64
241.59	1820.64
241.81	1714.15
242.02	1705.96
242.24	1755.11
242.46	1800.16
242.68	1658.85
242.89	1716.20
243.11	1714.15
243.33	1669.09
243.55	1673.19
243.76	1751.01
243.98	1742.82
244.20	1732.58
244.42	1697.77
244.64	1673.19
244.85	1591.27
245.07	1679.33
245.29	1681.38
245.51	1742.82
245.72	1683.43
245.94	1783.78
246.16	1699.81
246.38	1744.87
246.59	1746.92
246.81	1673.19
247.03	1644.52
247.24	1615.85
247.46	1644.52
247.68	1675.24
247.90	1730.53
248.11	1718.25
248.33	1791.97
248.55	1753.06
248.77	1705.96
248.98	1703.91
249.20	1761.25
249.42	1685.48
249.64	1718.25
249.85	1746.92
250.07	1681.38
250.29	1738.73
250.50	1765.35
250.72	1621.99
250.94	1685.48
251.16	1824.74
251.37	1853.41
251.59	1632.23
251.81	1753.06
252.02	1763.30
252.24	1599.46
252.46	1871.84
252.68	1619.94
252.89	1710.05
253.11	1650.66
253.33	1773.54
253.54	1767.40
253.76	1681.38
253.98	1621.99
254.20	1716.20
254.41	1695.72
254.63	1714.15
254.85	1650.66
255.06	1708.01
255.28	1701.86
255.50	1701.86
255.71	1658.85
255.93	1671.14
256.15	1685.48
256.36	1734.63
256.58	1685.48
256.80	1755.11
257.02	1691.62
257.23	1724.39
257.45	1601.51
257.67	1673.19
257.88	1681.38
258.10	1673.19
258.32	1744.87
258.53	1726.44
258.75	1843.17
258.97	1630.18
259.18	1701.86
259.40	1746.92
259.62	1828.84
259.83	1814.50
260.05	1751.01
260.27	1900.52
260.48	1726.44
260.70	1665.00
260.92	1662.95
261.13	1769.44
261.35	1771.49
261.57	1738.73
261.78	1640.42
262.00	1689.57
262.22	1705.96
262.43	1689.57
262.65	1669.09
262.86	1665.00
263.08	1820.64
263.30	1701.86
263.51	1650.66
263.73	1605.61
263.95	1828.84
264.16	1726.44
264.38	1671.14
264.60	1648.61
264.81	1677.29
265.03	1755.11
265.25	1718.25
265.46	1673.19
265.68	1775.59
265.89	1755.11
266.11	1599.46
266.33	1728.49
266.54	1824.74
266.76	1660.90
266.98	1669.09
267.19	1804.26
267.41	1802.21
267.62	1654.76
267.84	1705.96
268.06	1697.77
268.27	1734.63
268.49	1761.25
268.70	1808.36
268.92	1697.77
269.14	1572.84
269.35	1533.93
269.57	1693.67
269.79	1722.34
270.00	1726.44
270.22	1806.31
270.43	1665.00
270.65	1603.56
270.87	1744.87
271.08	1753.06
271.30	1818.60
271.51	1665.00
271.73	1802.21
271.95	1796.07
272.16	1658.85
272.38	1714.15
272.59	1746.92
272.81	1767.40
273.02	1710.05
273.24	1736.68
273.46	1728.49
273.67	1667.05
273.89	1675.24
274.10	1710.05
274.32	1783.78
274.54	1720.29
274.75	1810.40
274.97	1644.52
275.18	1755.11
275.40	1681.38
275.61	1708.01
275.83	1656.81
276.05	1650.66
276.26	1742.82
276.48	1757.16
276.69	1673.19
276.91	1646.57
277.12	1738.73
277.34	1720.29
277.55	1755.11
277.77	1810.40
277.99	1632.23
278.20	1665.00
278.42	1665.00
278.63	1689.57
278.85	1607.66
279.06	1650.66
279.28	1757.16
279.49	1812.45
279.71	1779.68
279.93	1787.88
280.14	1730.53
280.36	1667.05
280.57	1779.68
280.79	1791.97
281.00	1658.85
281.22	1665.00
281.43	1716.20
281.65	1609.70
281.86	1705.96
282.08	1787.88
282.29	1789.92
282.51	1619.94
282.73	1665.00
282.94	1667.05
283.16	1714.15
283.37	1777.64
283.59	1712.10
283.80	1695.72
284.02	1722.34
284.23	1660.90
284.45	1677.29
284.66	1613.80
284.88	1626.09
285.09	1736.68
285.31	1736.68
285.52	1791.97
285.74	1650.66
285.95	1746.92
286.17	1822.69
286.38	1843.17
286.60	1720.29
286.81	1671.14
287.03	1697.77
287.24	1624.04
287.46	1716.20
287.67	1738.73
287.89	1877.99
288.10	1755.11
288.32	1705.96
288.53	1722.34
288.75	1751.01
288.96	1753.06
289.18	1742.82
289.39	1683.43
289.61	1855.46
289.82	1849.32
290.04	1759.21
290.25	1599.46
290.47	1730.53
290.68	1656.81
290.90	1757.16
291.11	1632.23
291.33	1759.21
291.54	1708.01
291.76	1665.00
291.97	1751.01
292.18	1632.23
292.40	1669.09
292.61	1738.73
292.83	1837.03
293.04	1724.39
293.26	1714.15
293.47	1699.81
293.69	1603.56
293.90	1685.48
294.12	1785.83
294.33	1679.33
294.55	1730.53
294.76	1734.63
294.97	1751.01
295.19	1822.69
295.40	1714.15
295.62	1724.39
295.83	1722.34
296.05	1673.19
296.26	1761.25
296.48	1650.66
296.69	1730.53
296.90	1744.87
297.12	1783.78
297.33	1765.35
297.55	1650.66
297.76	1744.87
297.98	1708.01
298.19	1697.77
298.41	1714.15
298.62	1646.57
298.83	1761.25
299.05	1757.16
299.26	1636.33
299.48	1718.25
299.69	1804.26
299.90	1742.82
300.12	1693.67
300.33	1681.38
300.55	1701.86
300.76	1714.15
300.98	1599.46
301.19	1730.53
301.40	1583.08
301.62	1734.63
301.83	1806.31
302.05	1753.06
302.26	1662.95
302.47	1716.20
302.69	1675.24
302.90	1787.88
303.12	1546.22
303.33	1703.91
303.54	1855.46
303.76	1665.00
303.97	1777.64
304.19	1763.30
304.40	1646.57
304.61	1734.63
304.83	1912.80
305.04	1791.97
305.26	1722.34
305.47	1683.43
305.68	1761.25
305.90	1648.61
306.11	1769.44
306.33	1689.57
306.54	1681.38
306.75	1656.81
306.97	1613.80
307.18	1611.75
307.39	1683.43
307.61	1779.68
307.82	1677.29
308.04	1738.73
308.25	1683.43
308.46	1753.06
308.68	1638.38
308.89	1722.34
309.10	1818.60
309.32	1695.72
309.53	1810.40
309.74	1759.21
309.96	1708.01
310.17	1751.01
310.39	1685.48
310.60	1730.53
310.81	1683.43
311.03	1636.33
311.24	1753.06
311.45	1714.15
311.67	1800.16
311.88	1722.34
312.09	1656.81
312.31	1662.95
312.52	1683.43
312.73	1708.01
312.95	1624.04
313.16	1607.66
313.37	1865.70
313.59	1720.29
313.80	1724.39
314.01	1800.16
314.23	1636.33
314.44	1665.00
314.65	1601.51
314.87	1701.86
315.08	1632.23
315.29	1736.68
315.51	1665.00
315.72	1636.33
315.93	1839.08
316.15	1728.49
316.36	1703.91
316.57	1607.66
316.79	1710.05
317.00	1705.96
317.21	1746.92
317.43	1691.62
317.64	1783.78
317.85	1699.81
318.07	1714.15
318.28	1763.30
318.49	1773.54
318.70	1943.52
318.92	1763.30
319.13	1837.03
319.34	1867.75
319.56	1877.99
319.77	1791.97
319.98	1785.83
320.20	1757.16
320.41	1746.92
320.62	1755.11
320.83	1714.15
321.05	1814.50
321.26	1746.92
321.47	1693.67
321.69	1785.83
321.90	1665.00
322.11	1683.43
322.32	1730.53
322.54	1791.97
322.75	1570.79
322.96	1832.93
323.18	1615.85
323.39	1611.75
323.60	1636.33
323.81	1742.82
324.03	1724.39
324.24	1697.77
324.45	1716.20
324.66	1689.57
324.88	1808.36
325.09	1714.15
325.30	1714.15
325.52	1755.11
325.73	1781.73
325.94	1699.81
326.15	1621.99
326.37	1665.00
326.58	1705.96
326.79	1845.22
327.00	1665.00
327.22	1722.34
327.43	1636.33
327.64	1581.03
327.85	1724.39
328.07	1714.15
328.28	1755.11
328.49	1662.95
328.70	1687.53
328.92	1720.29
329.13	1681.38
329.34	1650.66
329.55	1845.22
329.76	1779.68
329.98	1669.09
330.19	1796.07
330.40	1669.09
330.61	1730.53
330.83	1701.86
331.04	1667.05
331.25	1667.05
331.46	1603.56
331.68	1632.23
331.89	1773.54
332.10	1767.40
332.31	1636.33
332.52	1679.33
332.74	1785.83
332.95	1593.32
333.16	1665.00
333.37	1742.82
333.58	1718.25
333.80	1720.29
334.01	1630.18
334.22	1708.01
334.43	1613.80
334.64	1665.00
334.86	1665.00
335.07	1638.38
335.28	1820.64
335.49	1611.75
335.70	1718.25
335.92	1849.32
336.13	1812.45
336.34	1738.73
336.55	1738.73
336.76	1660.90
336.98	1570.79
337.19	1697.77
337.40	1783.78
337.61	1849.32
337.82	1681.38
338.04	1759.21
338.25	1669.09
338.46	1705.96
338.67	1761.25
338.88	1724.39
339.09	1642.47
339.31	1757.16
339.52	1671.14
339.73	1570.79
339.94	1683.43
340.15	1728.49
340.36	1679.33
340.58	1697.77
340.79	1697.77
341.00	1714.15
341.21	1673.19
341.42	1796.07
341.63	1730.53
341.85	1779.68
342.06	1787.88
342.27	1687.53
342.48	1791.97
342.69	1644.52
342.90	1699.81
343.12	1730.53
343.33	1665.00
343.54	1710.05
343.75	1810.40
343.96	1728.49
344.17	1652.71
344.38	1718.25
344.60	1683.43
344.81	1705.96
345.02	1699.81
345.23	1732.58
345.44	1816.55
345.65	1777.64
345.86	1730.53
346.07	1738.73
346.29	1708.01
346.50	1753.06
346.71	1699.81
346.92	1726.44
347.13	1877.99
347.34	1701.86
347.55	1675.24
347.76	1716.20
347.98	1611.75
348.19	1683.43
348.40	1802.21
348.61	1613.80
348.82	1763.30
349.03	1785.83
349.24	1671.14
349.45	1736.68
349.66	1617.90
349.88	1640.42
350.09	1710.05
350.30	1814.50
350.51	1773.54
350.72	1726.44
350.93	1689.57
351.14	1703.91
351.35	1673.19
351.56	1736.68
351.77	1685.48
351.99	1720.29
352.20	1755.11
352.41	1712.10
352.62	1550.31
352.83	1734.63
353.04	1693.67
353.25	1646.57
353.46	1748.97
353.67	1708.01
353.88	1617.90
354.09	1693.67
354.30	1681.38
354.52	1730.53
354.73	1648.61
354.94	1691.62
355.15	1722.34
355.36	1841.12
355.57	1722.34
355.78	1742.82
355.99	1654.76
356.20	1695.72
356.41	1783.78
356.62	1740.77
356.83	1730.53
357.04	1804.26
357.25	1642.47
357.46	1714.15
357.68	1652.71
357.89	1621.99
358.10	1708.01
358.31	1654.76
358.52	1613.80
358.73	1621.99
358.94	1701.86
359.15	1699.81
359.36	1753.06
359.57	1665.00
359.78	1615.85
359.99	1755.11
360.20	1660.90
360.41	1726.44
360.62	1816.55
360.83	1802.21
361.04	1800.16
361.25	1763.30
361.46	1769.44
361.67	1814.50
361.88	1748.97
362.09	1789.92
362.30	1761.25
362.51	1796.07
362.72	1798.12
362.93	1744.87
363.14	1732.58
363.35	1695.72
363.56	1644.52
363.78	1822.69
363.99	1771.49
364.20	1669.09
364.41	1724.39
364.62	1796.07
364.83	1656.81
365.04	1726.44
365.25	1671.14
365.46	1834.98
365.67	1720.29
365.88	1675.24
366.09	1601.51
366.30	1632.23
366.51	1720.29
366.72	1605.61
366.93	1687.53
367.14	1751.01
367.35	1812.45
367.56	1652.71
367.77	1751.01
367.98	1734.63
368.18	1712.10
368.39	1703.91
368.60	1689.57
368.81	1654.76
369.02	1712.10
369.23	1734.63
369.44	1662.95
369.65	1687.53
369.86	1701.86
370.07	1773.54
370.28	1689.57
370.49	1814.50
370.70	1742.82
370.91	1708.01
371.12	1630.18
371.33	1742.82
371.54	1712.10
371.75	1779.68
371.96	1646.57
372.17	1658.85
372.38	1689.57
372.59	1646.57
372.80	1787.88
373.01	1669.09
373.22	1734.63
373.43	1677.29
373.64	1677.29
373.85	1720.29
374.06	1888.23
374.26	1796.07
374.47	1683.43
374.68	1763.30
374.89	1759.21
375.10	1703.91
375.31	1802.21
375.52	1701.86
375.73	1691.62
375.94	1652.71
376.15	1822.69
376.36	1638.38
376.57	1685.48
376.78	1751.01
376.99	1669.09
377.20	1808.36
377.40	1701.86
377.61	1859.56
377.82	1685.48
378.03	1839.08
378.24	1710.05
378.45	1771.49
378.66	1775.59
378.87	1593.32
379.08	1654.76
379.29	1773.54
379.50	1814.50
379.71	1683.43
379.91	1765.35
380.12	1746.92
380.33	1710.05
380.54	1675.24
380.75	1724.39
380.96	1650.66
381.17	1818.60
381.38	1761.25
381.59	1751.01
381.80	1765.35
382.00	1910.75
382.21	1763.30
382.42	1837.03
382.63	1867.75
382.84	1724.39
383.05	1800.16
383.26	1808.36
383.47	1859.56
383.68	1759.21
383.88	1800.16
384.09	1724.39
384.30	1685.48
384.51	1812.45
384.72	1605.61
384.93	1601.51
385.14	1701.86
385.35	1703.91
385.55	1701.86
385.76	1806.31
385.97	1669.09
386.18	1681.38
386.39	1722.34
386.60	1701.86
386.81	1757.16
387.02	1697.77
387.22	1628.14
387.43	1724.39
387.64	1802.21
387.85	1927.14
388.06	2234.33
388.27	4313.02
388.48	6719.39
388.68	8259.46
388.89	9475.95
389.10	9820.01
389.31	8556.41
389.52	7522.19
389.73	6743.96
389.93	6174.63
390.14	5908.39
390.35	5203.89
390.56	4540.35
390.77	3835.85
390.98	3094.48
391.18	2521.05
391.39	2086.88
391.60	1806.31
391.81	1751.01
392.02	1722.34
392.23	1941.47
392.43	1718.25
392.64	1816.55
392.85	1720.29
393.06	1804.26
393.27	1714.15
393.47	1685.48
393.68	1773.54
393.89	1683.43
394.10	1753.06
394.31	1732.58
394.52	1669.09
394.72	1693.67
394.93	1857.51
395.14	1654.76
395.35	1845.22
395.56	1628.14
395.76	1730.53
395.97	1814.50
396.18	1816.55
396.39	1832.93
396.60	2041.82
396.80	1820.64
397.01	1777.64
397.22	1888.23
397.43	1853.41
397.64	1738.73
397.84	1757.16
398.05	1871.84
398.26	1746.92
398.47	1726.44
398.67	1806.31
398.88	1662.95
399.09	1740.77
399.30	1712.10
399.51	1730.53
399.71	1726.44
399.92	1691.62
400.13	1708.01
400.34	1624.04
400.54	1697.77
400.75	1824.74
400.96	1705.96
401.17	1853.41
401.37	1728.49
401.58	1765.35
401.79	1732.58
402.00	1933.28
402.21	1964.00
402.41	1912.80
402.62	1961.95
402.83	2002.91
403.04	1968.10
403.24	2097.12
403.45	1845.22
403.66	1957.86
403.87	1894.37
404.07	1863.65
404.28	1894.37
404.49	1847.27
404.70	1720.29
404.90	1738.73
405.11	1800.16
405.32	1742.82
405.52	1705.96
405.73	1818.60
405.94	1708.01
406.15	1728.49
406.35	1820.64
406.56	1777.64
406.77	1765.35
406.98	1693.67
407.18	1705.96
407.39	1763.30
407.60	1701.86
407.80	1755.11
408.01	1671.14
408.22	1765.35
408.43	1689.57
408.63	1773.54
408.84	1726.44
409.05	1759.21
409.25	1615.85
409.46	1673.19
409.67	1669.09
409.88	1673.19
410.08	1660.90
410.29	1689.57
410.50	1798.12
410.70	1746.92
410.91	1701.86
411.12	1820.64
411.32	1681.38
411.53	1734.63
411.74	1757.16
411.95	1841.12
412.15	1785.83
412.36	1742.82
412.57	1714.15
412.77	1785.83
412.98	1701.86
413.19	1730.53
413.39	1787.88
413.60	1736.68
413.81	1773.54
414.01	1642.47
414.22	1759.21
414.43	1751.01
414.63	1755.11
414.84	1667.05
415.05	1691.62
415.25	1619.94
415.46	1763.30
415.67	1718.25
415.87	1757.16
416.08	1736.68
416.29	1636.33
416.49	1763.30
416.70	1710.05
416.91	1751.01
417.11	1740.77
417.32	1757.16
417.53	1798.12
417.73	1763.30
417.94	1800.16
418.15	1697.77
418.35	1738.73
418.56	1732.58
418.77	1796.07
418.97	1681.38
419.18	1722.34
419.38	1677.29
419.59	1720.29
419.80	1892.32
420.00	1710.05
420.21	1779.68
420.42	1748.97
420.62	1761.25
420.83	1667.05
421.04	1681.38
421.24	1644.52
421.45	1736.68
421.65	1779.68
421.86	1763.30
422.07	1763.30
422.27	1714.15
422.48	1722.34
422.69	1648.61
422.89	1716.20
423.10	1708.01
423.30	1714.15
423.51	1714.15
423.72	1742.82
423.92	1738.73
424.13	1648.61
424.33	1748.97
424.54	1785.83
424.75	1742.82
424.95	1798.12
425.16	1744.87
425.36	1681.38
425.57	1724.39
425.78	1708.01
425.98	1705.96
426.19	1701.86
426.39	1638.38
426.60	1718.25
426.81	1839.08
427.01	1675.24
427.22	1646.57
427.42	1675.24
427.63	1607.66
427.83	1673.19
428.04	1826.79
428.25	1830.88
428.45	1806.31
428.66	1730.53
428.86	1716.20
429.07	1658.85
429.28	1726.44
429.48	1742.82
429.69	1658.85
429.89	1705.96
430.10	1738.73
430.30	1742.82
430.51	1746.92
430.71	1671.14
430.92	1603.56
431.13	1658.85
431.33	1767.40
431.54	1718.25
431.74	1837.03
431.95	1787.88
432.15	1642.47
432.36	1755.11
432.56	1812.45
432.77	1796.07
432.98	1751.01
433.18	1646.57
433.39	1724.39
433.59	1746.92
433.80	1826.79
434.00	1808.36
434.21	1763.30
434.41	1673.19
434.62	1904.61
434.82	1619.94
435.03	1628.14
435.23	1751.01
435.44	1624.04
435.64	1697.77
435.85	1734.63
436.06	1783.78
436.26	1759.21
436.47	1708.01
436.67	1656.81
436.88	1683.43
437.08	1738.73
437.29	1773.54
437.49	1759.21
437.70	1779.68
437.90	1753.06
438.11	1845.22
438.31	1808.36
438.52	1853.41
438.72	1894.37
438.93	1929.19
439.13	1814.50
439.34	1818.60
439.54	1748.97
439.75	1806.31
439.95	1781.73
440.16	1740.77
440.36	1714.15
440.57	1765.35
440.77	1767.40
440.98	1757.16
441.18	1814.50
441.39	1714.15
441.59	1662.95
441.80	1837.03
442.00	1671.14
442.21	1834.98
442.41	1660.90
442.62	1789.92
442.82	1630.18
443.02	1767.40
443.23	1783.78
443.43	1708.01
443.64	1843.17
443.84	1724.39
444.05	1890.28
444.25	1796.07
444.46	1667.05
444.66	1740.77
444.87	1773.54
445.07	1689.57
445.28	1765.35
445.48	1804.26
445.69	1808.36
445.89	1859.56
446.09	1748.97
446.30	2002.91
446.50	2772.95
446.71	3747.78
446.91	4386.75
447.12	4673.46
447.32	4868.02
447.53	4384.70
447.73	3905.48
447.93	3708.87
448.14	3397.58
448.34	3155.92
448.55	2940.88
448.75	2922.45
448.96	2723.80
449.16	2451.42
449.36	2306.01
449.57	1976.29
449.77	1935.33
449.98	1824.74
450.18	1800.16
450.39	1757.16
450.59	1812.45
450.79	1724.39
451.00	1701.86
451.20	1769.44
451.41	1705.96
451.61	1710.05
451.81	1761.25
452.02	1742.82
452.22	1685.48
452.43	1748.97
452.63	1708.01
452.84	1708.01
453.04	1718.25
453.24	1773.54
453.45	1705.96
453.65	1789.92
453.86	1757.16
454.06	1701.86
454.26	1775.59
454.47	1697.77
454.67	1931.23
454.87	1738.73
455.08	1724.39
455.28	1820.64
455.49	1847.27
455.69	1697.77
455.89	1939.43
456.10	1837.03
456.30	1665.00
456.51	1808.36
456.71	1783.78
456.91	1773.54
457.12	1751.01
457.32	1757.16
457.52	1740.77
457.73	1783.78
457.93	1804.26
458.14	1701.86
458.34	1695.72
458.54	1630.18
458.75	1785.83
458.95	1794.02
459.15	1730.53
459.36	1789.92
459.56	1830.88
459.76	1773.54
459.97	1697.77
460.17	1732.58
460.37	1820.64
460.58	1730.53
460.78	1714.15
460.99	1701.86
461.19	1724.39
461.39	1660.90
461.60	1763.30
461.80	1851.36
462.00	1728.49
462.21	1728.49
462.41	1634.28
462.61	1679.33
462.82	1689.57
463.02	1740.77
463.22	1755.11
463.43	1822.69
463.63	1845.22
463.83	1812.45
464.04	1812.45
464.24	1746.92
464.44	1671.14
464.64	1697.77
464.85	1771.49
465.05	1804.26
465.25	1724.39
465.46	1644.52
465.66	1779.68
465.86	1789.92
466.07	1705.96
466.27	1687.53
466.47	1656.81
466.68	1638.38
466.88	1753.06
467.08	1693.67
467.29	1763.30
467.49	1775.59
467.69	1697.77
467.89	1726.44
468.10	1740.77
468.30	1841.12
468.50	1798.12
468.71	1789.92
468.91	1632.23
469.11	1796.07
469.31	1724.39
469.52	1630.18
469.72	1791.97
469.92	1877.99
470.13	1726.44
470.33	1693.67
470.53	1894.37
470.73	2125.79
470.94	2224.09
471.14	2328.54
471.34	2480.09
471.54	2449.37
471.75	2193.37
471.95	2144.22
472.15	2189.28
472.36	2131.94
472.56	2015.20
472.76	2076.64
472.96	1984.48
473.17	1976.29
473.37	1873.89
473.57	1804.26
473.77	1880.04
473.98	1710.05
474.18	1771.49
474.38	1912.80
474.58	1685.48
474.79	1687.53
474.99	1759.21
475.19	1740.77
475.39	1648.61
475.60	1716.20
475.80	1740.77
476.00	1759.21
476.20	1779.68
476.41	1718.25
476.61	1834.98
476.81	1882.08
477.01	1732.58
477.21	1802.21
477.42	1841.12
477.62	1660.90
477.82	1796.07
478.02	1744.87
478.23	1804.26
478.43	1650.66
478.63	1701.86
478.83	1722.34
479.03	1691.62
479.24	1810.40
479.44	1828.84
479.64	1767.40
479.84	1705.96
480.04	1746.92
480.25	1781.73
480.45	1632.23
480.65	1697.77
480.85	1734.63
481.06	1624.04
481.26	1785.83
481.46	1710.05
481.66	1779.68
481.86	1740.77
482.06	1822.69
482.27	1681.38
482.47	1689.57
482.67	1779.68
482.87	1742.82
483.07	1783.78
483.28	1673.19
483.48	1665.00
483.68	1724.39
483.88	1693.67
484.08	1624.04
484.29	1646.57
484.49	1699.81
484.69	1656.81
484.89	1763.30
485.09	1744.87
485.29	1751.01
485.50	1787.88
485.70	1652.71
485.90	1816.55
486.10	1746.92
486.30	1779.68
486.50	1806.31
486.71	1722.34
486.91	1789.92
487.11	1814.50
487.31	1667.05
487.51	1726.44
487.71	1697.77
487.91	1652.71
488.12	1691.62
488.32	1570.79
488.52	1738.73
488.72	1607.66
488.92	1693.67
489.12	1716.20
489.32	1847.27
489.53	1794.02
489.73	1648.61
489.93	1814.50
490.13	1701.86
490.33	1746.92
490.53	1695.72
490.73	1818.60
490.94	1640.42
491.14	1748.97
491.34	1931.23
491.54	2115.55
491.74	2588.63
491.94	2928.60
492.14	3078.10
492.34	2975.70
492.54	2803.67
492.75	2498.52
492.95	2469.85
493.15	2328.54
493.35	2334.68
493.55	2217.95
493.75	2107.36
493.95	2123.74
494.15	1978.34
494.35	1834.98
494.56	1863.65
494.76	1837.03
494.96	1771.49
495.16	1736.68
495.36	1757.16
495.56	1757.16
495.76	1734.63
495.96	1722.34
496.16	1714.15
496.36	1777.64
496.56	1734.63
496.77	1714.15
496.97	1693.67
497.17	1837.03
497.37	1654.76
497.57	1814.50
497.77	1755.11
497.97	1701.86
498.17	1755.11
498.37	1802.21
498.57	1796.07
498.77	1648.61
498.97	1763.30
499.17	1814.50
499.38	1736.68
499.58	1761.25
499.78	1746.92
499.98	1800.16
500.18	1728.49
500.38	1679.33
500.58	1904.61
500.78	2504.67
500.98	4665.27
501.18	5889.96
501.38	6784.92
501.58	7114.64
501.78	6737.82
501.98	5496.75
502.18	5087.15
502.38	4435.90
502.58	4130.75
502.78	3717.06
502.98	3674.06
503.18	3379.15
503.38	3233.74
503.59	2781.14
503.79	2662.36
503.99	2488.28
504.19	2330.59
504.39	2185.18
504.59	2234.33
504.79	2103.26
504.99	2078.69
505.19	1951.71
505.39	1894.37
505.59	1984.48
505.79	1861.60
505.99	1910.75
506.19	1755.11
506.39	1955.81
506.59	1765.35
506.79	1820.64
506.99	1746.92
507.19	1759.21
507.39	1789.92
507.59	1687.53
507.79	1714.15
507.99	1673.19
508.19	1783.78
508.39	1683.43
508.59	1679.33
508.79	1791.97
508.99	1755.11
509.19	1832.93
509.39	1804.26
509.59	1658.85
509.79	1738.73
509.99	1796.07
510.19	1751.01
510.39	1728.49
510.59	1787.88
510.79	1701.86
510.99	1650.66
511.19	1712.10
511.39	1884.13
511.59	1794.02
511.79	1794.02
511.99	1812.45
512.19	1779.68
512.38	1804.26
512.58	1662.95
512.78	1734.63
512.98	1742.82
513.18	1810.40
513.38	1648.61
513.58	1761.25
513.78	1701.86
513.98	1746.92
514.18	1673.19
514.38	1675.24
514.58	1691.62
514.78	1675.24
514.98	1656.81
515.18	1730.53
515.38	1748.97
515.58	1769.44
515.78	1705.96
515.98	1765.35
516.18	1720.29
516.38	1716.20
516.57	1753.06
516.77	1656.81
516.97	1794.02
517.17	1789.92
517.37	1570.79
517.57	1726.44
517.77	1751.01
517.97	1689.57
518.17	1777.64
518.37	1617.90
518.57	1757.16
518.77	1644.52
518.97	1697.77
519.16	1787.88
519.36	1798.12
519.56	1710.05
519.76	1773.54
519.96	1787.88
520.16	1834.98
520.36	1667.05
520.56	1738.73
520.76	1695.72
520.96	1720.29
521.16	1765.35
521.35	1751.01
521.55	1920.99
521.75	1757.16
521.95	1738.73
522.15	1726.44
522.35	1652.71
522.55	1591.27
522.75	1796.07
522.95	1714.15
523.14	1730.53
523.34	1722.34
523.54	1753.06
523.74	1728.49
523.94	1726.44
524.14	1708.01
524.34	1771.49
524.54	1816.55
524.73	1757.16
524.93	1804.26
525.13	1816.55
525.33	1744.87
525.53	1900.52
525.73	1785.83
525.93	1787.88
526.13	1714.15
526.32	1705.96
526.52	1796.07
526.72	1847.27
526.92	1716.20
527.12	1728.49
527.32	1642.47
527.52	1808.36
527.71	1755.11
527.91	1785.83
528.11	1726.44
528.31	1769.44
528.51	1671.14
528.71	1771.49
528.90	1736.68
529.10	1806.31
529.30	1837.03
529.50	1617.90
529.70	1853.41
529.90	1712.10
530.09	1767.40
530.29	1677.29
530.49	1681.38
530.69	1931.23
530.89	1654.76
531.09	1779.68
531.28	1679.33
531.48	1734.63
531.68	1730.53
531.88	1798.12
532.08	1849.32
532.28	1660.90
532.47	1746.92
532.67	1791.97
532.87	1748.97
533.07	1671.14
533.27	1806.31
533.46	1767.40
533.66	1746.92
533.86	1757.16
534.06	1796.07
534.26	1773.54
534.45	1767.40
534.65	1820.64
534.85	1785.83
535.05	1724.39
535.25	1806.31
535.44	1652.71
535.64	1853.41
535.84	1757.16
536.04	1703.91
536.24	1716.20
536.43	1628.14
536.63	1789.92
536.83	1685.48
537.03	1671.14
537.22	1648.61
537.42	1609.70
537.62	1777.64
537.82	1701.86
538.02	1857.51
538.21	1818.60
538.41	1869.80
538.61	1691.62
538.81	1771.49
539.00	1806.31
539.20	1615.85
539.40	1779.68
539.60	1767.40
539.79	1769.44
539.99	1740.77
540.19	1679.33
540.39	1746.92
540.58	1787.88
540.78	1841.12
540.98	1722.34
541.18	1796.07
541.37	1875.94
541.57	1812.45
541.77	1814.50
541.97	1658.85
542.16	1691.62
542.36	1714.15
542.56	1677.29
542.76	1837.03
542.95	1787.88
543.15	1863.65
543.35	1701.86
543.54	1734.63
543.74	1699.81
543.94	1865.70
544.14	1738.73
544.33	1732.58
544.53	1712.10
544.73	1665.00
544.93	1658.85
545.12	1724.39
545.32	1787.88
545.52	1722.34
545.71	1722.34
545.91	1667.05
546.11	1695.72
546.30	1683.43
546.50	1730.53
546.70	1822.69
546.90	1734.63
547.09	1570.79
547.29	1751.01
547.49	1800.16
547.68	1714.15
547.88	1634.28
548.08	1699.81
548.27	2181.09
548.47	1718.25
548.67	1765.35
548.87	1794.02
549.06	1730.53
549.26	1687.53
549.46	1726.44
549.65	1714.15
549.85	1742.82
550.05	1775.59
550.24	1658.85
550.44	1746.92
550.64	1781.73
550.83	1763.30
551.03	1837.03
551.23	1845.22
551.42	1804.26
551.62	1708.01
551.82	1779.68
552.01	1705.96
552.21	1834.98
552.41	1732.58
552.60	1771.49
552.80	1761.25
553.00	1771.49
553.19	1783.78
553.39	1830.88
553.59	1689.57
553.78	1855.46
553.98	1710.05
554.17	1656.81
554.37	1771.49
554.57	1669.09
554.76	1703.91
554.96	1708.01
555.16	1738.73
555.35	1746.92
555.55	1740.77
555.75	1746.92
555.94	1787.88
556.14	1650.66
556.33	1722.34
556.53	1787.88
556.73	1734.63
556.92	1769.44
557.12	1847.27
557.32	1787.88
557.51	1818.60
557.71	1781.73
557.90	1867.75
558.10	1863.65
558.30	1753.06
558.49	1736.68
558.69	1720.29
558.88	1771.49
559.08	1757.16
559.28	1708.01
559.47	1810.40
559.67	1744.87
559.86	1828.84
560.06	1767.40
560.26	1693.67
560.45	1695.72
560.65	1710.05
560.84	1802.21
561.04	1755.11
561.24	1771.49
561.43	1789.92
561.63	1783.78
561.82	1798.12
562.02	1699.81
562.22	1683.43
562.41	1619.94
562.61	1683.43
562.80	1660.90
563.00	1894.37
563.19	1849.32
563.39	1769.44
563.59	1753.06
563.78	1751.01
563.98	1669.09
564.17	1720.29
564.37	1634.28
564.56	1810.40
564.76	1656.81
564.96	1804.26
565.15	1820.64
565.35	1943.52
565.54	1636.33
565.74	1751.01
565.93	1798.12
566.13	1755.11
566.32	1796.07
566.52	1826.79
566.71	1634.28
566.91	1781.73
567.11	1669.09
567.30	1693.67
567.50	1798.12
567.69	1847.27
567.89	1726.44
568.08	1677.29
568.28	1730.53
568.47	1693.67
568.67	1761.25
568.86	1701.86
569.06	1683.43
569.25	1697.77
569.45	1683.43
569.64	1689.57
569.84	1767.40
570.04	1746.92
570.23	1767.40
570.43	1705.96
570.62	1705.96
570.82	1845.22
571.01	1718.25
571.21	1767.40
571.40	1724.39
571.60	1789.92
571.79	1828.84
571.99	1748.97
572.18	1679.33
572.38	1822.69
572.57	1773.54
572.77	1763.30
572.96	1904.61
573.16	1738.73
573.35	1726.44
573.55	1837.03
573.74	1720.29
573.94	1740.77
574.13	1746.92
574.33	1781.73
574.52	1853.41
574.71	1765.35
574.91	1890.28
575.10	1691.62
575.30	1685.48
575.49	1738.73
575.69	1648.61
575.88	1767.40
576.08	1732.58
576.27	1845.22
576.47	1822.69
576.66	1771.49
576.86	1744.87
577.05	1767.40
577.25	1832.93
577.44	1822.69
577.64	1718.25
577.83	1808.36
578.02	1701.86
578.22	1816.55
578.41	1808.36
578.61	1824.74
578.80	1611.75
579.00	1738.73
579.19	1789.92
579.39	1769.44
579.58	1771.49
579.77	1781.73
579.97	1855.46
580.16	1855.46
580.36	1910.75
580.55	1748.97
580.75	1806.31
580.94	1785.83
581.13	1824.74
581.33	1806.31
581.52	1751.01
581.72	1822.69
581.91	1843.17
582.11	1730.53
582.30	1796.07
582.49	1720.29
582.69	1783.78
582.88	1755.11
583.08	1751.01
583.27	1767.40
583.47	1699.81
583.66	1802.21
583.85	1759.21
584.05	1794.02
584.24	1785.83
584.44	1877.99
584.63	1794.02
584.82	1839.08
585.02	1890.28
585.21	1849.32
585.41	1845.22
585.60	1908.71
585.79	1898.47
585.99	1914.85
586.18	1918.95
586.37	2152.42
586.57	3409.87
586.76	9981.80
586.96	24721.03
587.15	34551.28
587.34	40490.39
587.54	42196.35
587.73	36539.86
587.93	26400.37
588.12	21552.82
588.31	18540.26
588.51	16320.26
588.70	15167.26
588.89	14155.56
589.09	12486.47
589.28	11046.74
589.47	9353.07
589.67	8001.41
589.86	6504.35
590.06	4868.02
590.25	4042.69
590.44	3149.78
590.64	2596.82
590.83	2283.49
591.02	2142.18
591.22	1955.81
591.41	1845.22
591.60	1828.84
591.80	1906.66
591.99	1753.06
592.18	1779.68
592.38	1820.64
592.57	1681.38
592.76	1757.16
592.96	1839.08
593.15	1765.35
593.34	1898.47
593.54	1708.01
593.73	1757.16
593.92	1705.96
594.12	1652.71
594.31	1755.11
594.50	1908.71
594.70	1779.68
594.89	1877.99
595.08	1740.77
595.28	1796.07
595.47	1968.10
595.66	1863.65
595.86	1710.05
596.05	1714.15
596.24	1710.05
596.43	1853.41
596.63	1832.93
596.82	1722.34
597.01	1824.74
597.21	1822.69
597.40	1765.35
597.59	1722.34
597.79	1722.34
597.98	1816.55
598.17	1814.50
598.36	1638.38
598.56	1779.68
598.75	1759.21
598.94	1718.25
599.14	1730.53
599.33	1671.14
599.52	1748.97
599.71	1779.68
599.91	1849.32
600.10	1783.78
600.29	1667.05
600.48	1703.91
600.68	1791.97
600.87	1849.32
601.06	1718.25
601.26	1708.01
601.45	1773.54
601.64	1703.91
601.83	1775.59
602.03	1744.87
602.22	1710.05
602.41	1810.40
602.60	1900.52
602.80	1736.68
602.99	1722.34
603.18	1722.34
603.37	1812.45
603.57	1785.83
603.76	1722.34
603.95	1800.16
604.14	1746.92
604.34	1699.81
604.53	1695.72
604.72	1716.20
604.91	1755.11
605.10	1765.35
605.30	1773.54
605.49	1884.13
605.68	1708.01
605.87	1748.97
606.07	1751.01
606.26	1732.58
606.45	1902.56
606.64	1681.38
606.84	1683.43
607.03	1714.15
607.22	1759.21
607.41	1644.52
607.60	1720.29
607.80	1794.02
607.99	1734.63
608.18	1773.54
608.37	1740.77
608.56	1736.68
608.76	1828.84
608.95	1828.84
609.14	1748.97
609.33	1761.25
609.52	1773.54
609.72	1660.90
609.91	1716.20
610.10	1757.16
610.29	1748.97
610.48	1722.34
610.68	1771.49
610.87	1693.67
611.06	1767.40
611.25	1665.00
611.44	1781.73
611.63	1720.29
611.83	1746.92
612.02	1679.33
612.21	1884.13
612.40	1591.27
612.59	1654.76
612.79	1675.24
612.98	1691.62
613.17	1837.03
613.36	1650.66
613.55	1791.97
613.74	1642.47
613.93	1656.81
614.13	1751.01
614.32	1703.91
614.51	1748.97
614.70	1742.82
614.89	1703.91
615.08	1740.77
615.28	1970.15
615.47	1681.38
615.66	1660.90
615.85	1734.63
616.04	1812.45
616.23	1759.21
616.42	1683.43
616.62	1738.73
616.81	1865.70
617.00	1716.20
617.19	1730.53
617.38	1685.48
617.57	1697.77
617.76	1802.21
617.95	1777.64
618.15	1671.14
618.34	1837.03
618.53	1677.29
618.72	1767.40
618.91	1863.65
619.10	1812.45
619.29	1746.92
619.48	1751.01
619.68	1712.10
619.87	1744.87
620.06	1701.86
620.25	1800.16
620.44	1671.14
620.63	1693.67
620.82	1681.38
621.01	1720.29
621.20	1720.29
621.39	1728.49
621.59	1775.59
621.78	1710.05
621.97	1740.77
622.16	1740.77
622.35	1732.58
622.54	1826.79
622.73	1783.78
622.92	1607.66
623.11	1757.16
623.30	1703.91
623.49	1806.31
623.68	1728.49
623.88	1773.54
624.07	1703.91
624.26	1708.01
624.45	1726.44
624.64	1660.90
624.83	1787.88
625.02	1705.96
625.21	1769.44
625.40	1791.97
625.59	1781.73
625.78	1632.23
625.97	1796.07
626.16	1775.59
626.35	1828.84
626.54	1650.66
626.74	1845.22
626.93	1640.42
627.12	1744.87
627.31	1820.64
627.50	1783.78
627.69	1810.40
627.88	1685.48
628.07	1701.86
628.26	1648.61
628.45	1656.81
628.64	1708.01
628.83	1765.35
629.02	1718.25
629.21	1783.78
629.40	1660.90
629.59	1660.90
629.78	1705.96
629.97	1746.92
630.16	1714.15
630.35	1728.49
630.54	1710.05
630.73	1730.53
630.92	1755.11
631.11	1720.29
631.30	1757.16
631.49	1685.48
631.68	1802.21
631.87	1736.68
632.06	1654.76
632.25	1853.41
632.44	1738.73
632.63	1714.15
632.82	1787.88
633.01	1691.62
633.20	1720.29
633.39	1699.81
633.58	1656.81
633.77	1755.11
633.96	1744.87
634.15	1744.87
634.34	1769.44
634.53	1662.95
634.72	1744.87
634.91	1683.43
635.10	1738.73
635.29	1771.49
635.48	1804.26
635.67	1671.14
635.86	1642.47
636.05	1722.34
636.24	1798.12
636.43	1732.58
636.62	1787.88
636.81	1583.08
637.00	1708.01
637.19	1728.49
637.38	1710.05
637.57	1730.53
637.76	1748.97
637.95	1679.33
638.14	1681.38
638.33	1652.71
638.52	1714.15
638.71	1681.38
638.89	1658.85
639.08	1808.36
639.27	1802.21
639.46	1656.81
639.65	1798.12
639.84	1705.96
640.03	1757.16
640.22	1699.81
640.41	1853.41
640.60	1701.86
640.79	1742.82
640.98	1796.07
641.17	1763.30
641.36	1673.19
641.55	1757.16
641.74	1634.28
641.92	1703.91
642.11	1636.33
642.30	1710.05
642.49	1701.86
642.68	1681.38
642.87	1712.10
643.06	1777.64
643.25	1701.86
643.44	1681.38
643.63	1691.62
643.82	1718.25
644.00	1646.57
644.19	1765.35
644.38	1695.72
644.57	1708.01
644.76	1699.81
644.95	1716.20
645.14	1701.86
645.33	1773.54
645.52	1665.00
645.71	1685.48
645.89	1660.90
646.08	1732.58
646.27	1728.49
646.46	1845.22
646.65	1693.67
646.84	1624.04
647.03	1605.61
647.22	1822.69
647.40	1714.15
647.59	1714.15
647.78	1660.90
647.97	1734.63
648.16	1626.09
648.35	1800.16
648.54	1728.49
648.73	1642.47
648.91	1822.69
649.10	1804.26
649.29	1667.05
649.48	1730.53
649.67	1675.24
649.86	1705.96
650.05	1652.71
650.23	1796.07
650.42	1648.61
650.61	1777.64
650.80	1814.50
650.99	1783.78
651.18	1812.45
651.36	1771.49
651.55	1671.14
651.74	1761.25
651.93	1755.11
652.12	1722.34
652.31	1673.19
652.49	1767.40
652.68	1710.05
652.87	1751.01
653.06	1730.53
653.25	1839.08
653.44	1665.00
653.62	1794.02
653.81	1720.29
654.00	1763.30
654.19	1802.21
654.38	1906.66
654.56	1738.73
654.75	1730.53
654.94	1773.54
655.13	1779.68
655.32	1697.77
655.51	1732.58
655.69	1705.96
655.88	1761.25
656.07	1695.72
656.26	1751.01
656.45	1650.66
656.63	1724.39
656.82	1748.97
657.01	1837.03
657.20	1611.75
657.38	1859.56
657.57	1789.92
657.76	1621.99
657.95	1736.68
658.14	1605.61
658.32	1767.40
658.51	1615.85
658.70	1740.77
658.89	1732.58
659.08	1765.35
659.26	1867.75
659.45	1685.48
659.64	1679.33
659.83	1648.61
660.01	1830.88
660.20	1681.38
660.39	1814.50
660.58	1650.66
660.76	1804.26
660.95	1609.70
661.14	1730.53
661.33	1691.62
661.51	1744.87
661.70	1683.43
661.89	1732.58
662.08	1705.96
662.26	1714.15
662.45	1787.88
662.64	1800.16
662.83	1828.84
663.01	1703.91
663.20	1701.86
663.39	1849.32
663.58	1714.15
663.76	1619.94
663.95	1822.69
664.14	1755.11
664.32	1785.83
664.51	1648.61
664.70	1599.46
664.89	1632.23
665.07	1611.75
665.26	1722.34
665.45	1658.85
665.64	1740.77
665.82	1761.25
666.01	1701.86
666.20	1673.19
666.38	1802.21
666.57	1824.74
666.76	2093.02
666.95	4587.45
667.13	10473.31
667.32	15378.20
667.51	18083.56
667.69	19459.80
667.88	17735.41
668.07	12488.51
668.25	9840.49
668.44	8247.17
668.63	7477.13
668.81	7116.69
669.00	6360.99
669.19	5687.21
669.38	5038.00
669.56	4616.12
669.75	3991.49
669.94	3432.40
670.12	2942.93
670.31	2527.19
670.50	2265.05
670.68	2144.22
670.87	1918.95
671.06	1882.08
671.24	1791.97
671.43	1798.12
671.62	1781.73
671.80	1677.29
671.99	1828.84
672.18	1718.25
672.36	1806.31
672.55	1734.63
672.74	1734.63
672.92	1683.43
673.11	1767.40
673.29	1679.33
673.48	1789.92
673.67	1658.85
673.85	1816.55
674.04	1718.25
674.23	1763.30
674.41	1830.88
674.60	1652.71
674.79	1671.14
674.97	1679.33
675.16	1703.91
675.34	1853.41
675.53	1634.28
675.72	1767.40
675.90	1832.93
676.09	1695.72
676.28	1759.21
676.46	1568.74
676.65	1759.21
676.83	1646.57
677.02	1730.53
677.21	1677.29
677.39	1796.07
677.58	1685.48
677.77	1695.72
677.95	1652.71
678.14	1681.38
678.32	1665.00
678.51	1609.70
678.70	1894.37
678.88	1732.58
679.07	1759.21
679.25	1665.00
679.44	1740.77
679.63	1675.24
679.81	1720.29
680.00	1755.11
680.18	1771.49
680.37	1771.49
680.55	1722.34
680.74	1669.09
680.93	1648.61
681.11	1683.43
681.30	1701.86
681.48	1789.92
681.67	1710.05
681.85	1650.66
682.04	1665.00
682.23	1740.77
682.41	1730.53
682.60	1734.63
682.78	1722.34
682.97	1681.38
683.15	1755.11
683.34	1771.49
683.53	1761.25
683.71	1638.38
683.90	1765.35
684.08	1828.84
684.27	1617.90
684.45	1701.86
684.64	1818.60
684.82	1763.30
685.01	1705.96
685.19	1763.30
685.38	1918.95
685.57	1794.02
685.75	1642.47
685.94	1681.38
686.12	1665.00
686.31	1697.77
686.49	1816.55
686.68	1667.05
686.86	1755.11
687.05	1638.38
687.23	1783.78
687.42	1607.66
687.60	1642.47
687.79	1746.92
687.97	1732.58
688.16	1800.16
688.34	1773.54
688.53	1611.75
688.71	1773.54
688.90	1773.54
689.08	1787.88
689.27	1640.42
689.45	1759.21
689.64	1697.77
689.82	1695.72
690.01	1787.88
690.19	1720.29
690.38	1798.12
690.56	1765.35
690.75	1654.76
690.93	1695.72
691.12	1611.75
691.30	1751.01
691.49	1759.21
691.67	1714.15
691.86	1814.50
692.04	1650.66
692.23	1697.77
692.41	1722.34
692.60	1791.97
692.78	1775.59
692.97	1742.82
693.15	1695.72
693.34	1853.41
693.52	1769.44
693.71	1693.67
693.89	1712.10
694.08	1669.09
694.26	1843.17
694.44	1765.35
694.63	1789.92
694.81	1656.81
695.00	1773.54
695.18	1746.92
695.37	1839.08
695.55	1796.07
695.74	1714.15
695.92	1683.43
696.10	1804.26
696.29	1652.71
696.47	1662.95
696.66	1712.10
696.84	1697.77
697.03	1740.77
697.21	1873.89
697.40	2318.30
697.58	1798.12
697.76	1714.15
697.95	1683.43
698.13	1642.47
698.32	1699.81
698.50	1650.66
698.68	1757.16
698.87	1697.77
699.05	1812.45
699.24	1759.21
699.42	1613.80
699.61	1730.53
699.79	1697.77
699.97	1744.87
700.16	1675.24
700.34	1593.32
700.53	1675.24
700.71	1761.25
700.89	1767.40
701.08	1701.86
701.26	1775.59
701.45	2140.13
701.63	1691.62
701.81	1742.82
702.00	1658.85
702.18	1689.57
702.37	1626.09
702.55	1820.64
702.73	1720.29
702.92	1558.50
703.10	1691.62
703.28	1710.05
703.47	1675.24
703.65	1779.68
703.84	1744.87
704.02	1697.77
704.20	1785.83
704.39	1726.44
704.57	1771.49
704.75	1837.03
704.94	1808.36
705.12	1738.73
705.30	1765.35
705.49	2289.63
705.67	4419.52
705.86	9426.80
706.04	12558.14
706.22	14499.62
706.41	15449.88
706.59	13754.16
706.77	9752.43
706.96	7524.24
707.14	6698.91
707.32	5887.91
707.51	5668.78
707.69	4868.02
707.87	4161.47
708.06	3463.12
708.24	2959.31
708.42	2385.88
708.61	2291.68
708.79	1998.82
708.97	1832.93
709.16	1826.79
709.34	1746.92
709.52	1703.91
709.71	1783.78
709.89	1720.29
710.07	1755.11
710.26	1757.16
710.44	1697.77
710.62	1736.68
710.80	1796.07
710.99	1828.84
711.17	1763.30
711.35	1689.57
711.54	1742.82
711.72	1753.06
711.90	1746.92
712.09	1650.66
712.27	1675.24
712.45	1708.01
712.63	1748.97
712.82	1726.44
713.00	1710.05
713.18	1837.03
713.37	1761.25
713.55	1742.82
713.73	1708.01
713.91	1734.63
714.10	1662.95
714.28	1675.24
714.46	1796.07
714.65	1742.82
714.83	1806.31
715.01	1734.63
715.19	1673.19
715.38	1705.96
715.56	1748.97
715.74	1640.42
715.92	1679.33
716.11	1775.59
716.29	1585.13
716.47	1683.43
716.65	1658.85
716.84	1665.00
717.02	1757.16
717.20	1644.52
717.38	1656.81
717.57	1740.77
717.75	1699.81
717.93	1660.90
718.11	1652.71
718.30	1624.04
718.48	1714.15
718.66	1847.27
718.84	1798.12
719.03	1708.01
719.21	1671.14
719.39	1849.32
719.57	1748.97
719.75	1783.78
719.94	1677.29
720.12	1681.38
720.30	1796.07
720.48	1787.88
720.67	1683.43
720.85	1640.42
721.03	1757.16
721.21	1624.04
721.39	1863.65
721.58	1751.01
721.76	1726.44
721.94	1714.15
722.12	1640.42
722.30	1810.40
722.49	1671.14
722.67	1714.15
722.85	1755.11
723.03	1638.38
723.21	1650.66
723.40	1724.39
723.58	1755.11
723.76	1683.43
723.94	1798.12
724.12	1703.91
724.30	1767.40
724.49	1697.77
724.67	1624.04
724.85	1732.58
725.03	1638.38
725.21	1767.40
725.40	1748.97
725.58	1650.66
725.76	1703.91
725.94	1720.29
726.12	1689.57
726.30	1759.21
726.49	1734.63
726.67	1714.15
726.85	1787.88
727.03	1755.11
727.21	2215.90
727.39	2881.49
727.57	3807.17
727.76	4167.62
727.94	4466.62
728.12	4569.02
728.30	3690.44
728.48	3096.53
728.66	2688.98
728.84	2545.63
729.03	2355.16
729.21	2213.85
729.39	2033.63
729.57	1845.22
729.75	1818.60
729.93	1853.41
730.11	1718.25
730.30	1755.11
730.48	1691.62
730.66	1839.08
730.84	1761.25
731.02	1748.97
731.20	1716.20
731.38	1683.43
731.56	1693.67
731.74	1621.99
731.93	1730.53
732.11	1773.54
732.29	1691.62
732.47	1761.25
732.65	1812.45
732.83	1761.25
733.01	1689.57
733.19	1650.66
733.37	1779.68
733.56	1695.72
733.74	1728.49
733.92	1785.83
734.10	1654.76
734.28	1654.76
734.46	1652.71
734.64	1816.55
734.82	1685.48
735.00	1638.38
735.18	1740.77
735.36	1781.73
735.54	1730.53
735.73	1759.21
735.91	1738.73
736.09	1806.31
736.27	1689.57
736.45	1708.01
736.63	1671.14
736.81	1681.38
736.99	1759.21
737.17	1886.18
737.35	1669.09
737.53	1681.38
737.71	1685.48
737.89	1800.16
738.07	1624.04
738.25	1638.38
738.43	1662.95
738.61	1701.86
738.80	1613.80
738.98	1630.18
739.16	1628.14
739.34	1693.67
739.52	1808.36
739.70	1673.19
739.88	1755.11
740.06	1800.16
740.24	1617.90
740.42	1800.16
740.60	1613.80
740.78	1572.84
740.96	1671.14
741.14	1671.14
741.32	1738.73
741.50	1607.66
741.68	1841.12
741.86	1767.40
742.04	1744.87
742.22	1624.04
742.40	1775.59
742.58	1697.77
742.76	1677.29
742.94	1714.15
743.12	1597.42
743.30	1691.62
743.48	1669.09
743.66	1638.38
743.84	1757.16
744.02	1599.46
744.20	1730.53
744.38	1642.47
744.56	1691.62
744.74	1751.01
744.92	1796.07
745.10	1714.15
745.28	1724.39
745.46	1900.52
745.64	1646.57
745.82	1730.53
746.00	1720.29
746.18	1656.81
746.36	1689.57
746.54	1740.77
746.72	1650.66
746.90	1710.05
747.08	1738.73
747.26	1701.86
747.44	1759.21
747.62	1710.05
747.80	1732.58
747.98	1746.92
748.15	1746.92
748.33	1775.59
748.51	1687.53
748.69	1720.29
748.87	1667.05
749.05	1722.34
749.23	1701.86
749.41	1695.72
749.59	1677.29
749.77	1806.31
749.95	1683.43
750.13	1699.81
750.31	1787.88
750.49	1705.96
750.67	1757.16
750.85	1880.04
751.03	1685.48
751.20	1841.12
751.38	1662.95
751.56	1628.14
751.74	1744.87
751.92	1712.10
752.10	1662.95
752.28	1751.01
752.46	1714.15
752.64	1708.01
752.82	1714.15
753.00	1767.40
753.18	1658.85
753.35	1675.24
753.53	1722.34
753.71	1718.25
753.89	1804.26
754.07	1665.00
754.25	1751.01
754.43	1740.77
754.61	1656.81
754.79	1732.58
754.97	1665.00
755.14	1822.69
755.32	1636.33
755.50	1785.83
755.68	1691.62
755.86	1667.05
756.04	1732.58
756.22	1656.81
756.40	1820.64
756.57	1791.97
756.75	1736.68
756.93	1761.25
757.11	1783.78
757.29	1740.77
757.47	1648.61
757.65	1681.38
757.82	1636.33
758.00	1691.62
758.18	1714.15
758.36	1656.81
758.54	1791.97
758.72	1615.85
758.90	1748.97
759.07	1685.48
759.25	1652.71
759.43	1689.57
759.61	1681.38
759.79	2113.50
759.97	1728.49
760.15	1728.49
760.32	1669.09
760.50	1675.24
760.68	1785.83
760.86	1685.48
761.04	1759.21
761.22	1734.63
761.39	1673.19
761.57	1783.78
761.75	1673.19
761.93	1742.82
762.11	1714.15
762.28	1728.49
762.46	1636.33
762.64	1845.22
762.82	1669.09
763.00	1636.33
763.18	1789.92
763.35	1566.70
763.53	1748.97
763.71	1724.39
763.89	1740.77
764.07	1753.06
764.24	1722.34
764.42	1699.81
764.60	1667.05
764.78	1800.16
764.96	1800.16
765.13	1808.36
765.31	1714.15
765.49	1777.64
765.67	1634.28
765.84	1640.42
766.02	1755.11
766.20	1656.81
766.38	1732.58
766.56	1642.47
766.73	1771.49
766.91	1748.97
767.09	1673.19
767.27	1728.49
767.44	1734.63
767.62	1722.34
767.80	1748.97
767.98	1665.00
768.15	1705.96
768.33	1673.19
768.51	1697.77
768.69	1761.25
768.87	1697.77
769.04	1683.43
769.22	1822.69
769.40	1812.45
769.58	1896.42
769.75	1660.90
769.93	1806.31
770.11	1744.87
770.28	1718.25
770.46	1757.16
770.64	1716.20
770.82	1660.90
770.99	1724.39
771.17	1734.63
771.35	1648.61
771.53	1693.67
771.70	1701.86
771.88	1865.70
772.06	1757.16
772.23	1769.44
772.41	1767.40
772.59	1763.30
772.77	1634.28
772.94	1714.15
773.12	1705.96
773.30	1708.01
773.47	1761.25
773.65	1697.77
773.83	1798.12
774.01	1753.06
774.18	1669.09
774.36	1662.95
774.54	1665.00
774.71	1656.81
774.89	1595.37
775.07	1634.28
775.24	1615.85
775.42	1687.53
775.60	1685.48
775.78	1705.96
775.95	1687.53
776.13	1607.66
776.31	1648.61
776.48	1722.34
776.66	1757.16
776.84	1613.80
777.01	1634.28
777.19	1701.86
777.37	1671.14
777.54	1751.01
777.72	1902.56
777.90	1652.71
778.07	1656.81
778.25	1865.70
778.43	1787.88
778.60	1640.42
778.78	1759.21
778.96	1738.73
779.13	1673.19
779.31	1751.01
779.49	1720.29
779.66	1761.25
779.84	1646.57
780.01	1691.62
780.19	1685.48
780.37	1773.54
780.54	1714.15
780.72	1658.85
780.90	1703.91
781.07	1716.20
781.25	1681.38
781.43	1695.72
781.60	1693.67
781.78	1671.14
781.95	1759.21
782.13	1634.28
782.31	1665.00
782.48	1638.38
782.66	1685.48
782.83	1830.88
783.01	1701.86
783.19	1763.30
783.36	1736.68
783.54	1718.25
783.72	1681.38
783.89	1681.38
784.07	1697.77
784.24	1675.24
784.42	1777.64
784.60	1714.15
784.77	1783.78
784.95	1701.86
785.12	1632.23
785.30	1701.86
785.47	1699.81
785.65	1583.08
785.83	1683.43
786.00	1673.19
786.18	1691.62
786.35	1624.04
786.53	1685.48
786.71	1708.01
786.88	1771.49
787.06	1742.82
787.23	1621.99
787.41	1634.28
787.58	1738.73
787.76	1632.23
787.94	1779.68
788.11	1746.92
788.29	1746.92
788.46	1722.34
788.64	1662.95
788.81	1769.44
788.99	1697.77
789.16	1695.72
789.34	1630.18
789.52	1701.86
789.69	1693.67
789.87	1591.27
790.04	1581.03
790.22	1681.38
790.39	1816.55
790.57	1742.82
790.74	1742.82
790.92	1755.11
791.09	1642.47
791.27	1697.77
791.44	1691.62
791.62	1650.66
791.79	1806.31
791.97	1771.49
792.15	1939.43
792.32	1716.20
792.50	1759.21
792.67	1716.20
792.85	1796.07
793.02	1757.16
793.20	1621.99
793.37	1613.80
793.55	1701.86
793.72	1650.66
793.90	1751.01
794.07	1697.77
794.25	1693.67
794.42	1714.15
794.60	1695.72
794.77	1728.49
794.95	1845.22
795.12	1744.87
795.30	1716.20
795.47	1638.38
795.65	1863.65
795.82	1638.38
796.00	1703.91
796.17	1626.09
796.34	1671.14
796.52	1675.24
796.69	1742.82
796.87	1787.88
797.04	1763.30
797.22	1785.83
797.39	1716.20
797.57	1798.12
797.74	1687.53
797.92	1738.73
798.09	1675.24
798.27	1753.06
798.44	1771.49
798.62	1658.85
798.79	1673.19
798.96	1738.73
799.14	1708.01
799.31	1834.98
799.49	1660.90
799.66	1728.49
799.84	1701.86
800.01	1652.71
800.19	1755.11
800.36	1538.02
800.53	1853.41
800.71	1724.39
800.88	1804.26
801.06	1683.43
801.23	1685.48
801.41	1755.11
801.58	1607.66
801.75	1658.85
801.93	1683.43
802.10	1759.21
802.28	1732.58
802.45	1714.15
802.63	1734.63
802.80	1779.68
802.97	1699.81
803.15	1738.73
803.32	1613.80
803.50	1644.52
803.67	1705.96
803.84	1589.22
804.02	1720.29
804.19	1689.57
804.37	1624.04
804.54	1685.48
804.71	1732.58
804.89	1773.54
805.06	1675.24
805.24	1697.77
805.41	1636.33
805.58	1669.09
805.76	1849.32
805.93	1695.72
806.10	1779.68
806.28	1841.12
806.45	1724.39
806.63	1701.86
806.80	1685.48
806.97	1675.24
807.15	1734.63
807.32	1757.16
807.49	1742.82
807.67	1609.70
807.84	1701.86
808.01	1642.47
808.19	1808.36
808.36	1859.56
808.54	1699.81
808.71	1687.53
808.88	1753.06
809.06	1779.68
809.23	1820.64
809.40	1583.08
809.58	1820.64
809.75	1665.00
809.92	1722.34
810.10	1773.54
810.27	1681.38
810.44	1744.87
810.62	1677.29
810.79	1640.42
810.96	1650.66
811.14	1626.09
811.31	1753.06
811.48	1689.57
811.66	1794.02
811.83	1777.64
812.00	1726.44
812.18	1677.29
812.35	1865.70
812.52	1609.70
812.69	1660.90
812.87	1677.29
813.04	1734.63
813.21	1656.81
813.39	1695.72
813.56	1656.81
813.73	1761.25
813.91	1617.90
814.08	1695.72
814.25	1718.25
814.42	1656.81
814.60	1757.16
814.77	1685.48
814.94	1794.02
815.12	1812.45
815.29	1781.73
815.46	1708.01
815.63	1728.49
815.81	1746.92
815.98	1654.76
816.15	1718.25
816.33	1667.05
816.50	1681.38
816.67	1695.72
816.84	1714.15
817.02	1697.77
817.19	1744.87
817.36	1732.58
817.53	1740.77
817.71	1632.23
817.88	1687.53
818.05	1695.72
818.22	1712.10
818.40	1783.78
818.57	1636.33
818.74	1703.91
818.91	1675.24
819.09	1771.49
819.26	1742.82
819.43	1642.47
819.60	1611.75
819.78	1744.87
819.95	1865.70
820.12	1615.85
820.29	1845.22
820.47	1714.15
820.64	1728.49
820.81	1646.57
820.98	1652.71
821.15	1681.38
821.33	1763.30
821.50	1605.61
821.67	1787.88
821.84	1673.19
822.02	1732.58
822.19	1757.16
822.36	1656.81
822.53	1712.10
822.70	1634.28
822.88	1652.71
823.05	1748.97
823.22	1744.87
823.39	1812.45
823.56	1714.15
823.74	1773.54
823.91	1656.81
824.08	1621.99
824.25	1595.37
824.42	1787.88
824.60	1626.09
824.77	1714.15
824.94	1716.20
825.11	1738.73
825.28	1634.28
825.45	1742.82
825.63	1701.86
825.80	1621.99
825.97	1652.71
826.14	1724.39
826.31	1554.41
826.48	1740.77
826.66	1578.98
826.83	1695.72
827.00	1714.15
827.17	1724.39
827.34	1640.42
827.51	1701.86
827.69	1681.38
827.86	1646.57
828.03	1701.86
828.20	1691.62
828.37	1708.01
828.54	1705.96
828.71	1656.81
828.89	1789.92
829.06	1730.53
829.23	1738.73
829.40	1687.53
829.57	1691.62
829.74	1765.35
829.91	1669.09
830.09	1658.85
830.26	1673.19
830.43	1787.88
830.60	1648.61
830.77	1726.44
830.94	1826.79
831.11	1755.11
831.28	1677.29
831.46	1806.31
831.63	1671.14
831.80	1742.82
831.97	1669.09
832.14	1617.90
832.31	1705.96
832.48	1703.91
832.65	1757.16
832.82	1619.94
832.99	1679.33
833.17	1675.24
833.34	1808.36
833.51	1779.68
833.68	1587.18
833.85	1773.54
834.02	1660.90
834.19	1599.46
834.36	1671.14
834.53	1628.14
834.70	1802.21
834.87	1650.66
835.04	1736.68
835.22	1697.77
835.39	1761.25
835.56	1617.90
835.73	1697.77
835.90	1705.96
836.07	1660.90
836.24	1767.40
836.41	1697.77
836.58	1667.05
836.75	1736.68
836.92	1667.05
837.09	1671.14
837.26	1679.33
837.43	1746.92
837.60	1697.77
837.77	1656.81
837.94	1767.40
838.12	1800.16
838.29	1730.53
838.46	1660.90
838.63	1650.66
838.80	1791.97
838.97	1738.73
839.14	1654.76
839.31	1738.73
839.48	1728.49
839.65	1609.70
839.82	1755.11
839.99	1660.90
840.16	1644.52
840.33	1615.85
840.50	1658.85
840.67	1591.27
840.84	1626.09
841.01	1677.29
841.18	1665.00
841.35	1699.81
841.52	1755.11
841.69	1757.16
841.86	1732.58
842.03	1705.96
842.20	1701.86
842.37	1677.29
842.54	1705.96
842.71	1665.00
842.88	1601.51
843.05	1746.92
843.22	1681.38
843.39	1759.21
843.56	1710.05
843.73	1712.10
843.90	1710.05
844.07	1753.06
844.24	1804.26
844.41	1736.68
844.58	1673.19
844.75	1650.66
844.92	1796.07
845.09	1748.97
845.26	1658.85
845.43	1714.15
845.60	1669.09
845.77	1765.35
845.94	1712.10
846.10	1650.66
846.27	1632.23
846.44	1654.76
846.61	1681.38
846.78	1771.49
846.95	1767.40
847.12	1701.86
847.29	1726.44
847.46	1621.99
847.63	1732.58
847.80	1724.39
847.97	1603.56
848.14	1841.12
848.31	1710.05
848.48	1665.00
848.65	1740.77
848.82	1648.61
848.98	1781.73
849.15	1693.67
849.32	1789.92
849.49	1746.92
849.66	1652.71
849.83	1703.91
850.00	1658.85
850.17	1705.96
850.34	1689.57
850.51	1705.96
850.68	1652.71
850.85	1804.26
851.01	1742.82
851.18	1740.77
851.35	1701.86
851.52	1679.33
851.69	1890.28
851.86	1595.37
852.03	1718.25
852.20	1753.06
852.37	1722.34
852.53	1626.09
852.70	1675.24
852.87	1693.67
853.04	1701.86
853.21	1695.72
853.38	1812.45
853.55	1767.40
853.72	1834.98
853.89	1585.13
854.05	1656.81
854.22	1617.90
854.39	1691.62
854.56	1751.01
854.73	1691.62
854.90	1699.81
855.07	1697.77
855.23	1726.44
855.40	1685.48
855.57	1656.81
855.74	1619.94
855.91	1843.17
856.08	1671.14
856.25	1607.66
856.41	1673.19
856.58	1599.46
856.75	1773.54
856.92	1617.90
857.09	1753.06
857.26	1603.56
857.42	1658.85
857.59	1722.34
857.76	1675.24
857.93	1714.15
858.10	1654.76
858.27	1699.81
858.43	1730.53
858.60	1644.52
858.77	1589.22
858.94	1714.15
859.11	1734.63
859.27	1601.51
859.44	1581.03
859.61	1832.93
859.78	1738.73
859.95	1685.48
860.12	1640.42
860.28	1843.17
860.45	1763.30
860.62	1697.77
860.79	1638.38
860.95	1685.48
861.12	1683.43
861.29	1724.39
861.46	1763.30
861.63	1687.53
861.79	1789.92
861.96	1675.24
862.13	1646.57
862.30	1804.26
862.47	1609.70
862.63	1677.29
862.80	1800.16
862.97	1812.45
863.14	1777.64
863.30	1761.25
863.47	1656.81
863.64	1808.36
863.81	1746.92
863.97	1648.61
864.14	1669.09
864.31	1658.85
864.48	1730.53
864.65	1683.43
864.81	1726.44
864.98	1699.81
865.15	1728.49
865.32	1740.77
865.48	1740.77
865.65	1806.31
865.82	1624.04
865.98	1693.67
866.15	1771.49
866.32	1724.39
866.49	1677.29
866.65	1742.82
866.82	1626.09
866.99	1677.29
867.16	1708.01
867.32	1701.86
867.49	1628.14
867.66	1777.64
867.83	1685.48
867.99	1648.61
868.16	1652.71
868.33	1673.19
868.49	1679.33
868.66	1708.01
868.83	1697.77
868.99	1718.25
869.16	1748.97
869.33	1767.40
869.50	1738.73
869.66	1650.66
869.83	1726.44
870.00	1638.38
870.16	1820.64
870.33	1695.72
870.50	1703.91
870.66	1734.63
870.83	1800.16
871.00	1701.86
871.17	1779.68
871.33	1771.49
871.50	1667.05
871.67	1742.82
871.83	1685.48
872.00	1898.47
872.17	1632.23
872.33	1794.02
872.50	1757.16
872.67	1662.95
872.83	1761.25
873.00	1755.11
873.17	1665.00
873.33	1859.56
873.50	1697.77
873.67	1652.71
873.83	1644.52
874.00	1724.39
874.16	1810.40
874.33	1724.39
874.50	1658.85
874.66	1656.81
874.83	1705.96
875.00	1775.59
875.16	1748.97
875.33	1736.68
875.50	1595.37
875.66	1712.10
875.83	1685.48
875.99	1763.30
876.16	1697.77
876.33	1613.80
876.49	1697.77
876.66	1746.92
876.83	1779.68
876.99	1662.95
877.16	1689.57
877.32	1714.15
877.49	1656.81
877.66	1695.72
877.82	1839.08
877.99	1712.10
878.15	1763.30
878.32	1570.79
878.49	1763.30
878.65	1695.72
878.82	1814.50
878.98	1652.71
879.15	1789.92
879.32	1755.11
879.48	1669.09
879.65	1701.86
879.81	1683.43
879.98	1724.39
880.15	1755.11
880.31	1710.05
880.48	1679.33
880.64	1794.02
880.81	1738.73
880.97	1816.55
881.14	1765.35
881.31	1691.62
881.47	1841.12
881.64	1644.52
881.80	1597.42
881.97	1681.38
882.13	1734.63
882.30	1708.01
882.47	1665.00
882.63	1646.57
882.80	1689.57
882.96	1646.57
883.13	1740.77
883.29	1728.49
883.46	1681.38
883.62	1705.96
883.79	1675.24
883.95	1687.53
884.12	1730.53
884.29	1718.25
884.45	1738.73
884.62	1765.35
884.78	1644.52
884.95	1810.40
885.11	1658.85
885.28	1689.57
885.44	1667.05
885.61	1691.62
885.77	1785.83
885.94	1726.44
886.10	1712.10
886.27	1699.81
886.43	1765.35
886.60	1800.16
886.76	1658.85
886.93	1646.57
887.09	1722.34
887.26	1603.56
887.42	1685.48
887.59	1804.26
887.75	1845.22
887.92	1796.07
888.08	1787.88
888.25	1781.73
888.41	1777.64
888.58	1753.06
888.74	1687.53
888.91	1656.81
>>>>>End Processed Spectral Data<<<<<
