SpectraSuite Data File
++++++++++++++++++++++++++++++++++++
Date: Mon Jun 06 12:25:57 CEST 2016
User: root
Dark Spectrum Present: No
Reference Spectrum Present: No
Number of Sampled Component Spectra: 1
Spectrometers: USB4C02835
Integration Time (usec): 100000 (USB4C02835)
Spectra Averaged: 1 (USB4C02835)
Boxcar Smoothing: 0 (USB4C02835)
Correct for Electrical Dark: No (USB4C02835)
Strobe/Lamp Enabled: No (USB4C02835)
Correct for Detector Non-linearity: No (USB4C02835)
Correct for Stray Light: No (USB4C02835)
Number of Pixels in Processed Spectrum: 3648
>>>>>Begin Processed Spectral Data<<<<<
177.47	1460.20
177.69	1460.20
177.91	1460.20
178.13	1468.39
178.36	1492.97
178.58	1624.04
178.80	1697.77
179.02	1699.81
179.24	1607.66
179.46	1619.94
179.68	1730.53
179.90	1755.11
180.13	1708.01
180.35	1669.09
180.57	1699.81
180.79	1701.86
181.01	1667.05
181.23	1636.33
181.45	1728.49
181.67	1699.81
181.90	1785.83
182.12	1650.66
182.34	1660.90
182.56	1755.11
182.78	1701.86
183.00	1683.43
183.22	1683.43
183.44	1628.14
183.66	1806.31
183.89	1714.15
184.11	1771.49
184.33	1718.25
184.55	1806.31
184.77	1624.04
184.99	1656.81
185.21	1599.46
185.43	1834.98
185.65	1695.72
185.87	1705.96
186.10	1787.88
186.32	1841.12
186.54	1740.77
186.76	1757.16
186.98	1726.44
187.20	1634.28
187.42	1705.96
187.64	1658.85
187.86	1681.38
188.08	1757.16
188.30	1669.09
188.52	1779.68
188.75	1816.55
188.97	1708.01
189.19	1710.05
189.41	1746.92
189.63	1742.82
189.85	1601.51
190.07	1660.90
190.29	1509.35
190.51	1654.76
190.73	1585.13
190.95	1701.86
191.17	1726.44
191.39	1624.04
191.61	1636.33
191.84	1654.76
192.06	1712.10
192.28	1548.26
192.50	1861.60
192.72	1757.16
192.94	1691.62
193.16	1724.39
193.38	1710.05
193.60	1626.09
193.82	1656.81
194.04	1787.88
194.26	1683.43
194.48	1712.10
194.70	1693.67
194.92	1652.71
195.14	1697.77
195.36	1613.80
195.58	1716.20
195.80	1728.49
196.02	1628.14
196.24	1763.30
196.46	1705.96
196.69	1703.91
196.91	1839.08
197.13	1621.99
197.35	1689.57
197.57	1775.59
197.79	1669.09
198.01	1675.24
198.23	1703.91
198.45	1697.77
198.67	1656.81
198.89	1738.73
199.11	1638.38
199.33	1607.66
199.55	1632.23
199.77	1730.53
199.99	1742.82
200.21	1673.19
200.43	1695.72
200.65	1656.81
200.87	1626.09
201.09	1634.28
201.31	1701.86
201.53	1757.16
201.75	1708.01
201.97	1685.48
202.19	1730.53
202.41	1677.29
202.63	1779.68
202.85	1736.68
203.07	1703.91
203.29	1656.81
203.51	1662.95
203.73	1681.38
203.95	1834.98
204.17	1726.44
204.39	1730.53
204.61	1753.06
204.83	1675.24
205.05	1734.63
205.27	1740.77
205.49	1798.12
205.71	1728.49
205.93	1646.57
206.15	1593.32
206.37	1695.72
206.59	1675.24
206.81	1628.14
207.03	1644.52
207.25	1644.52
207.47	1732.58
207.69	1630.18
207.91	1755.11
208.13	1757.16
208.34	1681.38
208.56	1658.85
208.78	1660.90
209.00	1632.23
209.22	1640.42
209.44	1662.95
209.66	1640.42
209.88	1646.57
210.10	1716.20
210.32	1630.18
210.54	1789.92
210.76	1718.25
210.98	1777.64
211.20	1595.37
211.42	1624.04
211.64	1763.30
211.86	1617.90
212.08	1703.91
212.30	1773.54
212.52	1642.47
212.74	1716.20
212.96	1648.61
213.17	1697.77
213.39	1781.73
213.61	1734.63
213.83	1685.48
214.05	1683.43
214.27	1710.05
214.49	1650.66
214.71	1665.00
214.93	1748.97
215.15	1660.90
215.37	1640.42
215.59	1619.94
215.81	1771.49
216.03	1755.11
216.24	1679.33
216.46	1617.90
216.68	1697.77
216.90	1697.77
217.12	1632.23
217.34	1708.01
217.56	1712.10
217.78	1753.06
218.00	1757.16
218.22	1716.20
218.44	1710.05
218.66	1695.72
218.87	1708.01
219.09	1740.77
219.31	1771.49
219.53	1683.43
219.75	1683.43
219.97	1667.05
220.19	1763.30
220.41	1660.90
220.63	1757.16
220.85	1751.01
221.06	1677.29
221.28	1767.40
221.50	1691.62
221.72	1671.14
221.94	1718.25
222.16	1708.01
222.38	1841.12
222.60	1708.01
222.82	1683.43
223.03	1873.89
223.25	1642.47
223.47	1710.05
223.69	1789.92
223.91	1703.91
224.13	1705.96
224.35	1626.09
224.57	1748.97
224.78	1699.81
225.00	1681.38
225.22	1683.43
225.44	1697.77
225.66	1751.01
225.88	1607.66
226.10	1714.15
226.32	1685.48
226.53	1765.35
226.75	1652.71
226.97	1720.29
227.19	1640.42
227.41	1710.05
227.63	1646.57
227.85	1624.04
228.06	1730.53
228.28	1689.57
228.50	1730.53
228.72	1609.70
228.94	1699.81
229.16	1601.51
229.37	1589.22
229.59	1640.42
229.81	1726.44
230.03	1669.09
230.25	1570.79
230.47	1583.08
230.69	1591.27
230.90	1832.93
231.12	1554.41
231.34	1658.85
231.56	1806.31
231.78	1624.04
232.00	1665.00
232.21	1671.14
232.43	1767.40
232.65	1527.78
232.87	1652.71
233.09	1619.94
233.30	1638.38
233.52	1757.16
233.74	1710.05
233.96	1634.28
234.18	1738.73
234.40	1652.71
234.61	1806.31
234.83	1630.18
235.05	1548.26
235.27	1865.70
235.49	1738.73
235.70	1708.01
235.92	1726.44
236.14	1748.97
236.36	1810.40
236.58	1658.85
236.79	1699.81
237.01	1644.52
237.23	1746.92
237.45	1834.98
237.67	1742.82
237.88	1705.96
238.10	1810.40
238.32	1650.66
238.54	1673.19
238.76	1671.14
238.97	1667.05
239.19	1677.29
239.41	1738.73
239.63	1808.36
239.85	1662.95
240.06	1654.76
240.28	1628.14
240.50	1757.16
240.72	1691.62
240.93	1697.77
241.15	1775.59
241.37	1673.19
241.59	1759.21
241.81	1736.68
242.02	1701.86
242.24	1679.33
242.46	1718.25
242.68	1619.94
242.89	1691.62
243.11	1660.90
243.33	1722.34
243.55	1726.44
243.76	1699.81
243.98	1652.71
244.20	1660.90
244.42	1658.85
244.64	1732.58
244.85	1669.09
245.07	1554.41
245.29	1714.15
245.51	1722.34
245.72	1724.39
245.94	1714.15
246.16	1769.44
246.38	1806.31
246.59	1767.40
246.81	1699.81
247.03	1671.14
247.24	1595.37
247.46	1757.16
247.68	1708.01
247.90	1683.43
248.11	1677.29
248.33	1779.68
248.55	1636.33
248.77	1730.53
248.98	1775.59
249.20	1730.53
249.42	1705.96
249.64	1689.57
249.85	1652.71
250.07	1669.09
250.29	1777.64
250.50	1714.15
250.72	1613.80
250.94	1689.57
251.16	1828.84
251.37	1785.83
251.59	1771.49
251.81	1714.15
252.02	1812.45
252.24	1644.52
252.46	1742.82
252.68	1636.33
252.89	1630.18
253.11	1595.37
253.33	1800.16
253.54	1804.26
253.76	1654.76
253.98	1665.00
254.20	1654.76
254.41	1654.76
254.63	1675.24
254.85	1578.98
255.06	1644.52
255.28	1742.82
255.50	1718.25
255.71	1605.61
255.93	1591.27
256.15	1708.01
256.36	1687.53
256.58	1650.66
256.80	1748.97
257.02	1638.38
257.23	1699.81
257.45	1628.14
257.67	1734.63
257.88	1603.56
258.10	1816.55
258.32	1730.53
258.53	1734.63
258.75	1775.59
258.97	1621.99
259.18	1705.96
259.40	1660.90
259.62	1738.73
259.83	1816.55
260.05	1724.39
260.27	1953.76
260.48	1660.90
260.70	1589.22
260.92	1716.20
261.13	1697.77
261.35	1619.94
261.57	1722.34
261.78	1583.08
262.00	1708.01
262.22	1734.63
262.43	1593.32
262.65	1591.27
262.86	1751.01
263.08	1771.49
263.30	1697.77
263.51	1628.14
263.73	1685.48
263.95	1804.26
264.16	1730.53
264.38	1644.52
264.60	1665.00
264.81	1724.39
265.03	1757.16
265.25	1816.55
265.46	1722.34
265.68	1773.54
265.89	1683.43
266.11	1583.08
266.33	1794.02
266.54	1785.83
266.76	1738.73
266.98	1687.53
267.19	1779.68
267.41	1718.25
267.62	1660.90
267.84	1601.51
268.06	1746.92
268.27	1673.19
268.49	1714.15
268.70	1748.97
268.92	1802.21
269.14	1589.22
269.35	1599.46
269.57	1638.38
269.79	1734.63
270.00	1642.47
270.22	1767.40
270.43	1671.14
270.65	1597.42
270.87	1730.53
271.08	1714.15
271.30	1816.55
271.51	1722.34
271.73	1712.10
271.95	1703.91
272.16	1640.42
272.38	1665.00
272.59	1679.33
272.81	1746.92
273.02	1665.00
273.24	1832.93
273.46	1724.39
273.67	1720.29
273.89	1660.90
274.10	1615.85
274.32	1708.01
274.54	1693.67
274.75	1673.19
274.97	1607.66
275.18	1785.83
275.40	1773.54
275.61	1763.30
275.83	1675.24
276.05	1669.09
276.26	1693.67
276.48	1667.05
276.69	1677.29
276.91	1693.67
277.12	1798.12
277.34	1773.54
277.55	1783.78
277.77	1701.86
277.99	1673.19
278.20	1591.27
278.42	1718.25
278.63	1564.65
278.85	1642.47
279.06	1673.19
279.28	1736.68
279.49	1693.67
279.71	1789.92
279.93	1634.28
280.14	1673.19
280.36	1632.23
280.57	1658.85
280.79	1683.43
281.00	1607.66
281.22	1621.99
281.43	1769.44
281.65	1609.70
281.86	1550.31
282.08	1705.96
282.29	1714.15
282.51	1546.22
282.73	1634.28
282.94	1593.32
283.16	1642.47
283.37	1765.35
283.59	1742.82
283.80	1720.29
284.02	1634.28
284.23	1769.44
284.45	1724.39
284.66	1701.86
284.88	1619.94
285.09	1761.25
285.31	1705.96
285.52	1714.15
285.74	1599.46
285.95	1742.82
286.17	1697.77
286.38	1742.82
286.60	1656.81
286.81	1656.81
287.03	1656.81
287.24	1669.09
287.46	1769.44
287.67	1658.85
287.89	1812.45
288.10	1710.05
288.32	1722.34
288.53	1787.88
288.75	1722.34
288.96	1687.53
289.18	1679.33
289.39	1685.48
289.61	1720.29
289.82	1832.93
290.04	1798.12
290.25	1621.99
290.47	1730.53
290.68	1683.43
290.90	1736.68
291.11	1605.61
291.33	1673.19
291.54	1683.43
291.76	1689.57
291.97	1679.33
292.18	1732.58
292.40	1624.04
292.61	1658.85
292.83	1814.50
293.04	1652.71
293.26	1777.64
293.47	1669.09
293.69	1660.90
293.90	1677.29
294.12	1771.49
294.33	1705.96
294.55	1728.49
294.76	1798.12
294.97	1763.30
295.19	1722.34
295.40	1703.91
295.62	1632.23
295.83	1761.25
296.05	1687.53
296.26	1736.68
296.48	1728.49
296.69	1712.10
296.90	1615.85
297.12	1662.95
297.33	1800.16
297.55	1746.92
297.76	1742.82
297.98	1732.58
298.19	1705.96
298.41	1716.20
298.62	1624.04
298.83	1753.06
299.05	1738.73
299.26	1621.99
299.48	1652.71
299.69	1695.72
299.90	1681.38
300.12	1683.43
300.33	1722.34
300.55	1689.57
300.76	1736.68
300.98	1699.81
301.19	1769.44
301.40	1689.57
301.62	1703.91
301.83	1642.47
302.05	1677.29
302.26	1662.95
302.47	1693.67
302.69	1634.28
302.90	1681.38
303.12	1607.66
303.33	1746.92
303.54	1771.49
303.76	1683.43
303.97	1734.63
304.19	1705.96
304.40	1572.84
304.61	1759.21
304.83	1806.31
305.04	1767.40
305.26	1736.68
305.47	1529.83
305.68	1708.01
305.90	1644.52
306.11	1693.67
306.33	1640.42
306.54	1714.15
306.75	1675.24
306.97	1646.57
307.18	1683.43
307.39	1630.18
307.61	1798.12
307.82	1660.90
308.04	1714.15
308.25	1658.85
308.46	1667.05
308.68	1658.85
308.89	1718.25
309.10	1802.21
309.32	1789.92
309.53	1636.33
309.74	1687.53
309.96	1751.01
310.17	1748.97
310.39	1689.57
310.60	1658.85
310.81	1775.59
311.03	1691.62
311.24	1791.97
311.45	1695.72
311.67	1837.03
311.88	1718.25
312.09	1669.09
312.31	1720.29
312.52	1652.71
312.73	1691.62
312.95	1603.56
313.16	1646.57
313.37	1865.70
313.59	1671.14
313.80	1738.73
314.01	1837.03
314.23	1673.19
314.44	1675.24
314.65	1648.61
314.87	1679.33
315.08	1791.97
315.29	1685.48
315.51	1638.38
315.72	1685.48
315.93	1718.25
316.15	1783.78
316.36	1662.95
316.57	1730.53
316.79	1740.77
317.00	1722.34
317.21	1722.34
317.43	1697.77
317.64	1689.57
317.85	1585.13
318.07	1667.05
318.28	1675.24
318.49	1763.30
318.70	1955.81
318.92	1812.45
319.13	1861.60
319.34	1822.69
319.56	1822.69
319.77	1787.88
319.98	1880.04
320.20	1796.07
320.41	1685.48
320.62	1804.26
320.83	1679.33
321.05	1759.21
321.26	1720.29
321.47	1673.19
321.69	1744.87
321.90	1609.70
322.11	1675.24
322.32	1730.53
322.54	1759.21
322.75	1632.23
322.96	1847.27
323.18	1703.91
323.39	1628.14
323.60	1671.14
323.81	1783.78
324.03	1626.09
324.24	1648.61
324.45	1658.85
324.66	1626.09
324.88	1773.54
325.09	1703.91
325.30	1685.48
325.52	1748.97
325.73	1726.44
325.94	1705.96
326.15	1597.42
326.37	1613.80
326.58	1800.16
326.79	1708.01
327.00	1576.94
327.22	1669.09
327.43	1736.68
327.64	1617.90
327.85	1697.77
328.07	1714.15
328.28	1740.77
328.49	1675.24
328.70	1685.48
328.92	1689.57
329.13	1636.33
329.34	1730.53
329.55	1787.88
329.76	1755.11
329.98	1667.05
330.19	1736.68
330.40	1712.10
330.61	1732.58
330.83	1671.14
331.04	1583.08
331.25	1763.30
331.46	1701.86
331.68	1669.09
331.89	1693.67
332.10	1617.90
332.31	1644.52
332.52	1621.99
332.74	1808.36
332.95	1626.09
333.16	1697.77
333.37	1693.67
333.58	1701.86
333.80	1683.43
334.01	1648.61
334.22	1671.14
334.43	1591.27
334.64	1652.71
334.86	1564.65
335.07	1687.53
335.28	1822.69
335.49	1595.37
335.70	1673.19
335.92	1806.31
336.13	1777.64
336.34	1720.29
336.55	1675.24
336.76	1757.16
336.98	1581.03
337.19	1656.81
337.40	1796.07
337.61	1847.27
337.82	1763.30
338.04	1806.31
338.25	1550.31
338.46	1755.11
338.67	1681.38
338.88	1632.23
339.09	1632.23
339.31	1673.19
339.52	1624.04
339.73	1574.89
339.94	1642.47
340.15	1755.11
340.36	1597.42
340.58	1703.91
340.79	1607.66
341.00	1697.77
341.21	1634.28
341.42	1796.07
341.63	1624.04
341.85	1738.73
342.06	1697.77
342.27	1732.58
342.48	1703.91
342.69	1621.99
342.90	1708.01
343.12	1710.05
343.33	1681.38
343.54	1695.72
343.75	1804.26
343.96	1724.39
344.17	1699.81
344.38	1710.05
344.60	1605.61
344.81	1630.18
345.02	1648.61
345.23	1695.72
345.44	1742.82
345.65	1765.35
345.86	1757.16
346.07	1652.71
346.29	1644.52
346.50	1679.33
346.71	1714.15
346.92	1736.68
347.13	1775.59
347.34	1654.76
347.55	1693.67
347.76	1757.16
347.98	1611.75
348.19	1660.90
348.40	1738.73
348.61	1701.86
348.82	1800.16
349.03	1751.01
349.24	1675.24
349.45	1806.31
349.66	1601.51
349.88	1689.57
350.09	1679.33
350.30	1730.53
350.51	1781.73
350.72	1646.57
350.93	1720.29
351.14	1689.57
351.35	1796.07
351.56	1644.52
351.77	1636.33
351.99	1730.53
352.20	1724.39
352.41	1736.68
352.62	1544.17
352.83	1613.80
353.04	1658.85
353.25	1703.91
353.46	1677.29
353.67	1837.03
353.88	1628.14
354.09	1703.91
354.30	1656.81
354.52	1710.05
354.73	1691.62
354.94	1705.96
355.15	1724.39
355.36	1769.44
355.57	1669.09
355.78	1714.15
355.99	1636.33
356.20	1638.38
356.41	1804.26
356.62	1687.53
356.83	1695.72
357.04	1769.44
357.25	1619.94
357.46	1648.61
357.68	1589.22
357.89	1601.51
358.10	1736.68
358.31	1746.92
358.52	1701.86
358.73	1615.85
358.94	1673.19
359.15	1671.14
359.36	1710.05
359.57	1699.81
359.78	1691.62
359.99	1757.16
360.20	1652.71
360.41	1691.62
360.62	1742.82
360.83	1695.72
361.04	1705.96
361.25	1710.05
361.46	1759.21
361.67	1781.73
361.88	1769.44
362.09	1761.25
362.30	1669.09
362.51	1626.09
362.72	1771.49
362.93	1861.60
363.14	1773.54
363.35	1644.52
363.56	1619.94
363.78	1769.44
363.99	1748.97
364.20	1632.23
364.41	1712.10
364.62	1781.73
364.83	1705.96
365.04	1685.48
365.25	1722.34
365.46	1841.12
365.67	1683.43
365.88	1626.09
366.09	1665.00
366.30	1675.24
366.51	1679.33
366.72	1613.80
366.93	1714.15
367.14	1675.24
367.35	1757.16
367.56	1724.39
367.77	1769.44
367.98	1710.05
368.18	1714.15
368.39	1746.92
368.60	1624.04
368.81	1751.01
369.02	1753.06
369.23	1771.49
369.44	1613.80
369.65	1642.47
369.86	1748.97
370.07	1740.77
370.28	1726.44
370.49	1636.33
370.70	1685.48
370.91	1654.76
371.12	1572.84
371.33	1738.73
371.54	1699.81
371.75	1783.78
371.96	1613.80
372.17	1691.62
372.38	1742.82
372.59	1751.01
372.80	1691.62
373.01	1683.43
373.22	1718.25
373.43	1714.15
373.64	1642.47
373.85	1681.38
374.06	1779.68
374.26	1665.00
374.47	1785.83
374.68	1734.63
374.89	1681.38
375.10	1665.00
375.31	1783.78
375.52	1628.14
375.73	1726.44
375.94	1662.95
376.15	1812.45
376.36	1591.27
376.57	1673.19
376.78	1697.77
376.99	1796.07
377.20	1744.87
377.40	1640.42
377.61	1767.40
377.82	1619.94
378.03	1841.12
378.24	1626.09
378.45	1667.05
378.66	1714.15
378.87	1681.38
379.08	1617.90
379.29	1710.05
379.50	1732.58
379.71	1746.92
379.91	1730.53
380.12	1630.18
380.33	1671.14
380.54	1724.39
380.75	1673.19
380.96	1687.53
381.17	1791.97
381.38	1665.00
381.59	1738.73
381.80	1691.62
382.00	1865.70
382.21	1691.62
382.42	1822.69
382.63	1812.45
382.84	1818.60
383.05	1708.01
383.26	1759.21
383.47	1740.77
383.68	1781.73
383.88	1658.85
384.09	1652.71
384.30	1771.49
384.51	1783.78
384.72	1693.67
384.93	1572.84
385.14	1783.78
385.35	1742.82
385.55	1679.33
385.76	1806.31
385.97	1697.77
386.18	1628.14
386.39	1693.67
386.60	1671.14
386.81	1734.63
387.02	1685.48
387.22	1621.99
387.43	1804.26
387.64	1658.85
387.85	1826.79
388.06	2162.66
388.27	4302.78
388.48	6825.88
388.68	8042.37
388.89	9564.01
389.10	9879.40
389.31	8601.47
389.52	7593.87
389.73	6653.85
389.93	6162.34
390.14	5695.40
390.35	5236.66
390.56	4595.64
390.77	3825.61
390.98	2942.93
391.18	2516.95
391.39	2084.83
391.60	1853.41
391.81	1869.80
392.02	1718.25
392.23	1800.16
392.43	1779.68
392.64	1701.86
392.85	1628.14
393.06	1865.70
393.27	1710.05
393.47	1687.53
393.68	1677.29
393.89	1662.95
394.10	1714.15
394.31	1697.77
394.52	1683.43
394.72	1722.34
394.93	1775.59
395.14	1677.29
395.35	1689.57
395.56	1646.57
395.76	1691.62
395.97	1746.92
396.18	1834.98
396.39	1834.98
396.60	1953.76
396.80	1861.60
397.01	1861.60
397.22	1892.32
397.43	1820.64
397.64	1753.06
397.84	1716.20
398.05	1857.51
398.26	1779.68
398.47	1671.14
398.67	1773.54
398.88	1714.15
399.09	1730.53
399.30	1683.43
399.51	1730.53
399.71	1681.38
399.92	1626.09
400.13	1734.63
400.34	1689.57
400.54	1691.62
400.75	1722.34
400.96	1710.05
401.17	1773.54
401.37	1683.43
401.58	1667.05
401.79	1728.49
402.00	1873.89
402.21	1951.71
402.41	1943.52
402.62	1937.38
402.83	1961.95
403.04	1877.99
403.24	2056.16
403.45	1785.83
403.66	1920.99
403.87	1796.07
404.07	1947.62
404.28	1945.57
404.49	1892.32
404.70	1777.64
404.90	1744.87
405.11	1701.86
405.32	1656.81
405.52	1636.33
405.73	1689.57
405.94	1566.70
406.15	1685.48
406.35	1783.78
406.56	1689.57
406.77	1695.72
406.98	1667.05
407.18	1648.61
407.39	1822.69
407.60	1740.77
407.80	1673.19
408.01	1658.85
408.22	1834.98
408.43	1710.05
408.63	1779.68
408.84	1714.15
409.05	1703.91
409.25	1599.46
409.46	1691.62
409.67	1665.00
409.88	1677.29
410.08	1693.67
410.29	1646.57
410.50	1718.25
410.70	1691.62
410.91	1609.70
411.12	1746.92
411.32	1665.00
411.53	1660.90
411.74	1837.03
411.95	1669.09
412.15	1746.92
412.36	1697.77
412.57	1851.36
412.77	1736.68
412.98	1695.72
413.19	1746.92
413.39	1695.72
413.60	1724.39
413.81	1755.11
414.01	1644.52
414.22	1740.77
414.43	1728.49
414.63	1675.24
414.84	1701.86
415.05	1658.85
415.25	1667.05
415.46	1759.21
415.67	1730.53
415.87	1656.81
416.08	1673.19
416.29	1593.32
416.49	1699.81
416.70	1658.85
416.91	1640.42
417.11	1658.85
417.32	1767.40
417.53	1755.11
417.73	1722.34
417.94	1726.44
418.15	1742.82
418.35	1640.42
418.56	1685.48
418.77	1816.55
418.97	1755.11
419.18	1714.15
419.38	1591.27
419.59	1775.59
419.80	1746.92
420.00	1660.90
420.21	1759.21
420.42	1787.88
420.62	1716.20
420.83	1665.00
421.04	1630.18
421.24	1730.53
421.45	1791.97
421.65	1671.14
421.86	1699.81
422.07	1716.20
422.27	1728.49
422.48	1734.63
422.69	1718.25
422.89	1658.85
423.10	1697.77
423.30	1673.19
423.51	1705.96
423.72	1697.77
423.92	1695.72
424.13	1628.14
424.33	1677.29
424.54	1781.73
424.75	1681.38
424.95	1796.07
425.16	1791.97
425.36	1660.90
425.57	1691.62
425.78	1757.16
425.98	1791.97
426.19	1632.23
426.39	1628.14
426.60	1605.61
426.81	1775.59
427.01	1685.48
427.22	1665.00
427.42	1636.33
427.63	1699.81
427.83	1785.83
428.04	1724.39
428.25	1708.01
428.45	1740.77
428.66	1693.67
428.86	1658.85
429.07	1708.01
429.28	1683.43
429.48	1646.57
429.69	1691.62
429.89	1652.71
430.10	1687.53
430.30	1746.92
430.51	1716.20
430.71	1667.05
430.92	1648.61
431.13	1710.05
431.33	1619.94
431.54	1667.05
431.74	1767.40
431.95	1824.74
432.15	1603.56
432.36	1734.63
432.56	1718.25
432.77	1816.55
432.98	1824.74
433.18	1691.62
433.39	1667.05
433.59	1697.77
433.80	1783.78
434.00	1830.88
434.21	1699.81
434.41	1660.90
434.62	1804.26
434.82	1648.61
435.03	1703.91
435.23	1693.67
435.44	1591.27
435.64	1779.68
435.85	1748.97
436.06	1740.77
436.26	1726.44
436.47	1724.39
436.67	1710.05
436.88	1656.81
437.08	1757.16
437.29	1769.44
437.49	1626.09
437.70	1757.16
437.90	1736.68
438.11	1808.36
438.31	1746.92
438.52	1941.47
438.72	1875.94
438.93	1939.43
439.13	1710.05
439.34	1798.12
439.54	1800.16
439.75	1816.55
439.95	1728.49
440.16	1759.21
440.36	1710.05
440.57	1802.21
440.77	1753.06
440.98	1744.87
441.18	1714.15
441.39	1759.21
441.59	1652.71
441.80	1808.36
442.00	1722.34
442.21	1808.36
442.41	1669.09
442.62	1689.57
442.82	1732.58
443.02	1658.85
443.23	1687.53
443.43	1673.19
443.64	1751.01
443.84	1656.81
444.05	1742.82
444.25	1724.39
444.46	1671.14
444.66	1726.44
444.87	1853.41
445.07	1679.33
445.28	1710.05
445.48	1775.59
445.69	1759.21
445.89	1794.02
446.09	1689.57
446.30	2052.06
446.50	2654.17
446.71	3708.87
446.91	4329.41
447.12	4655.03
447.32	4693.94
447.53	4204.48
447.73	3774.41
447.93	3571.66
448.14	3229.65
448.34	3067.86
448.55	2924.50
448.75	2791.38
448.96	2664.41
449.16	2400.22
449.36	2222.05
449.57	2058.21
449.77	1912.80
449.98	1775.59
450.18	1722.34
450.39	1857.51
450.59	1787.88
450.79	1738.73
451.00	1724.39
451.20	1853.41
451.41	1689.57
451.61	1697.77
451.81	1716.20
452.02	1689.57
452.22	1710.05
452.43	1656.81
452.63	1658.85
452.84	1695.72
453.04	1720.29
453.24	1746.92
453.45	1665.00
453.65	1621.99
453.86	1726.44
454.06	1808.36
454.26	1732.58
454.47	1695.72
454.67	1851.36
454.87	1712.10
455.08	1677.29
455.28	1806.31
455.49	1837.03
455.69	1683.43
455.89	1918.95
456.10	1859.56
456.30	1724.39
456.51	1771.49
456.71	1658.85
456.91	1798.12
457.12	1732.58
457.32	1693.67
457.52	1599.46
457.73	1740.77
457.93	1740.77
458.14	1667.05
458.34	1611.75
458.54	1816.55
458.75	1734.63
458.95	1773.54
459.15	1724.39
459.36	1777.64
459.56	1775.59
459.76	1818.60
459.97	1765.35
460.17	1720.29
460.37	1818.60
460.58	1757.16
460.78	1773.54
460.99	1730.53
461.19	1777.64
461.39	1699.81
461.60	1665.00
461.80	1710.05
462.00	1619.94
462.21	1734.63
462.41	1619.94
462.61	1714.15
462.82	1648.61
463.02	1714.15
463.22	1751.01
463.43	1808.36
463.63	1746.92
463.83	1789.92
464.04	1714.15
464.24	1710.05
464.44	1624.04
464.64	1771.49
464.85	1734.63
465.05	1779.68
465.25	1779.68
465.46	1767.40
465.66	1765.35
465.86	1665.00
466.07	1732.58
466.27	1728.49
466.47	1611.75
466.68	1636.33
466.88	1779.68
467.08	1775.59
467.29	1796.07
467.49	1748.97
467.69	1726.44
467.89	1693.67
468.10	1656.81
468.30	1744.87
468.50	1757.16
468.71	1726.44
468.91	1703.91
469.11	1763.30
469.31	1724.39
469.52	1697.77
469.72	1761.25
469.92	1724.39
470.13	1648.61
470.33	1781.73
470.53	1851.36
470.73	2111.46
470.94	2279.39
471.14	2271.20
471.34	2551.77
471.54	2324.44
471.75	2183.13
471.95	2150.37
472.15	2162.66
472.36	2142.18
472.56	2099.17
472.76	2035.68
472.96	1970.15
473.17	1941.47
473.37	1847.27
473.57	1808.36
473.77	1732.58
473.98	1734.63
474.18	1665.00
474.38	1851.36
474.58	1660.90
474.79	1695.72
474.99	1714.15
475.19	1742.82
475.39	1755.11
475.60	1701.86
475.80	1671.14
476.00	1697.77
476.20	1714.15
476.41	1730.53
476.61	1796.07
476.81	1841.12
477.01	1593.32
477.21	1796.07
477.42	1822.69
477.62	1673.19
477.82	1748.97
478.02	1675.24
478.23	1771.49
478.43	1660.90
478.63	1755.11
478.83	1658.85
479.03	1665.00
479.24	1761.25
479.44	1892.32
479.64	1687.53
479.84	1603.56
480.04	1652.71
480.25	1705.96
480.45	1724.39
480.65	1611.75
480.85	1755.11
481.06	1654.76
481.26	1730.53
481.46	1724.39
481.66	1667.05
481.86	1648.61
482.06	1740.77
482.27	1705.96
482.47	1679.33
482.67	1710.05
482.87	1677.29
483.07	1740.77
483.28	1656.81
483.48	1685.48
483.68	1628.14
483.88	1556.46
484.08	1650.66
484.29	1650.66
484.49	1681.38
484.69	1667.05
484.89	1810.40
485.09	1845.22
485.29	1742.82
485.50	1734.63
485.70	1665.00
485.90	1781.73
486.10	1767.40
486.30	1800.16
486.50	1720.29
486.71	1843.17
486.91	1671.14
487.11	1775.59
487.31	1679.33
487.51	1771.49
487.71	1685.48
487.91	1607.66
488.12	1634.28
488.32	1576.94
488.52	1640.42
488.72	1607.66
488.92	1722.34
489.12	1787.88
489.32	1789.92
489.53	1705.96
489.73	1648.61
489.93	1822.69
490.13	1656.81
490.33	1538.02
490.53	1771.49
490.73	1777.64
490.94	1628.14
491.14	1812.45
491.34	1859.56
491.54	2060.26
491.74	2639.83
491.94	2828.24
492.14	2865.11
492.34	3182.54
492.54	2731.99
492.75	2437.08
492.95	2387.93
493.15	2303.96
493.35	2226.14
493.55	2234.33
493.75	2125.79
493.95	2160.61
494.15	1929.19
494.35	1902.56
494.56	1925.09
494.76	1748.97
494.96	1804.26
495.16	1746.92
495.36	1755.11
495.56	1751.01
495.76	1687.53
495.96	1669.09
496.16	1628.14
496.36	1843.17
496.56	1751.01
496.77	1804.26
496.97	1755.11
497.17	1744.87
497.37	1628.14
497.57	1681.38
497.77	1705.96
497.97	1601.51
498.17	1658.85
498.37	1648.61
498.57	1718.25
498.77	1689.57
498.97	1732.58
499.17	1828.84
499.38	1667.05
499.58	1759.21
499.78	1779.68
499.98	1832.93
500.18	1722.34
500.38	1710.05
500.58	1886.18
500.78	2510.81
500.98	4493.24
501.18	5697.45
501.38	6692.76
501.58	7069.59
501.78	6563.74
501.98	5326.77
502.18	5068.72
502.38	4419.52
502.58	4138.94
502.78	3604.42
502.98	3676.10
503.18	3375.05
503.38	3108.82
503.59	2893.78
503.79	2625.50
503.99	2531.29
504.19	2299.87
504.39	2217.95
504.59	2176.99
504.79	2078.69
504.99	2035.68
505.19	1863.65
505.39	1888.23
505.59	2019.30
505.79	1859.56
505.99	1906.66
506.19	1828.84
506.39	1808.36
506.59	1751.01
506.79	1738.73
506.99	1787.88
507.19	1748.97
507.39	1798.12
507.59	1671.14
507.79	1677.29
507.99	1746.92
508.19	1632.23
508.39	1687.53
508.59	1763.30
508.79	1730.53
508.99	1806.31
509.19	1681.38
509.39	1804.26
509.59	1650.66
509.79	1701.86
509.99	1732.58
510.19	1814.50
510.39	1832.93
510.59	1720.29
510.79	1636.33
510.99	1665.00
511.19	1730.53
511.39	1818.60
511.59	1759.21
511.79	1710.05
511.99	1730.53
512.19	1808.36
512.38	1699.81
512.58	1691.62
512.78	1787.88
512.98	1794.02
513.18	1796.07
513.38	1619.94
513.58	1763.30
513.78	1656.81
513.98	1746.92
514.18	1693.67
514.38	1710.05
514.58	1718.25
514.78	1732.58
514.98	1697.77
515.18	1703.91
515.38	1726.44
515.58	1798.12
515.78	1763.30
515.98	1771.49
516.18	1785.83
516.38	1740.77
516.57	1660.90
516.77	1720.29
516.97	1794.02
517.17	1734.63
517.37	1578.98
517.57	1834.98
517.77	1683.43
517.97	1691.62
518.17	1773.54
518.37	1667.05
518.57	1611.75
518.77	1718.25
518.97	1724.39
519.16	1802.21
519.36	1748.97
519.56	1656.81
519.76	1714.15
519.96	1759.21
520.16	1804.26
520.36	1667.05
520.56	1791.97
520.76	1634.28
520.96	1689.57
521.16	1777.64
521.35	1802.21
521.55	1814.50
521.75	1697.77
521.95	1632.23
522.15	1767.40
522.35	1613.80
522.55	1710.05
522.75	1777.64
522.95	1732.58
523.14	1687.53
523.34	1708.01
523.54	1716.20
523.74	1724.39
523.94	1695.72
524.14	1667.05
524.34	1779.68
524.54	1826.79
524.73	1705.96
524.93	1765.35
525.13	1781.73
525.33	1712.10
525.53	1847.27
525.73	1822.69
525.93	1740.77
526.13	1720.29
526.32	1718.25
526.52	1726.44
526.72	1761.25
526.92	1751.01
527.12	1716.20
527.32	1568.74
527.52	1732.58
527.71	1746.92
527.91	1746.92
528.11	1677.29
528.31	1675.24
528.51	1734.63
528.71	1748.97
528.90	1755.11
529.10	1783.78
529.30	1796.07
529.50	1628.14
529.70	1755.11
529.90	1681.38
530.09	1710.05
530.29	1679.33
530.49	1701.86
530.69	1822.69
530.89	1724.39
531.09	1822.69
531.28	1693.67
531.48	1820.64
531.68	1765.35
531.88	1724.39
532.08	1855.46
532.28	1675.24
532.47	1806.31
532.67	1755.11
532.87	1724.39
533.07	1642.47
533.27	1773.54
533.46	1744.87
533.66	1693.67
533.86	1738.73
534.06	1751.01
534.26	1714.15
534.45	1669.09
534.65	1798.12
534.85	1710.05
535.05	1613.80
535.25	1751.01
535.44	1691.62
535.64	1777.64
535.84	1697.77
536.04	1753.06
536.24	1738.73
536.43	1708.01
536.63	1763.30
536.83	1761.25
537.03	1724.39
537.22	1644.52
537.42	1691.62
537.62	1705.96
537.82	1697.77
538.02	1777.64
538.21	1781.73
538.41	1910.75
538.61	1732.58
538.81	1746.92
539.00	1798.12
539.20	1644.52
539.40	1701.86
539.60	1771.49
539.79	1746.92
539.99	1656.81
540.19	1697.77
540.39	1796.07
540.58	1683.43
540.78	1806.31
540.98	1701.86
541.18	1699.81
541.37	1779.68
541.57	1687.53
541.77	1730.53
541.97	1683.43
542.16	1693.67
542.36	1697.77
542.56	1701.86
542.76	1877.99
542.95	1810.40
543.15	1759.21
543.35	1746.92
543.54	1712.10
543.74	1695.72
543.94	1734.63
544.14	1634.28
544.33	1812.45
544.53	1742.82
544.73	1734.63
544.93	1705.96
545.12	1705.96
545.32	1732.58
545.52	1683.43
545.71	1636.33
545.91	1708.01
546.11	1705.96
546.30	1697.77
546.50	1699.81
546.70	1738.73
546.90	1726.44
547.09	1636.33
547.29	1742.82
547.49	1714.15
547.68	1695.72
547.88	1683.43
548.08	1722.34
548.27	2181.09
548.47	1671.14
548.67	1628.14
548.87	1693.67
549.06	1693.67
549.26	1748.97
549.46	1738.73
549.65	1642.47
549.85	1759.21
550.05	1701.86
550.24	1591.27
550.44	1732.58
550.64	1671.14
550.83	1703.91
551.03	1703.91
551.23	1730.53
551.42	1789.92
551.62	1744.87
551.82	1738.73
552.01	1658.85
552.21	1804.26
552.41	1732.58
552.60	1830.88
552.80	1761.25
553.00	1665.00
553.19	1773.54
553.39	1814.50
553.59	1714.15
553.78	1697.77
553.98	1695.72
554.17	1630.18
554.37	1734.63
554.57	1734.63
554.76	1613.80
554.96	1724.39
555.16	1775.59
555.35	1701.86
555.55	1755.11
555.75	1742.82
555.94	1642.47
556.14	1660.90
556.33	1693.67
556.53	1693.67
556.73	1710.05
556.92	1767.40
557.12	1730.53
557.32	1834.98
557.51	1775.59
557.71	1761.25
557.90	1794.02
558.10	1794.02
558.30	1798.12
558.49	1742.82
558.69	1732.58
558.88	1740.77
559.08	1757.16
559.28	1712.10
559.47	1757.16
559.67	1730.53
559.86	1820.64
560.06	1753.06
560.26	1695.72
560.45	1806.31
560.65	1689.57
560.84	1751.01
561.04	1683.43
561.24	1796.07
561.43	1740.77
561.63	1800.16
561.82	1761.25
562.02	1771.49
562.22	1732.58
562.41	1734.63
562.61	1724.39
562.80	1710.05
563.00	1925.09
563.19	1720.29
563.39	1791.97
563.59	1767.40
563.78	1675.24
563.98	1613.80
564.17	1738.73
564.37	1576.94
564.56	1712.10
564.76	1701.86
564.96	1837.03
565.15	1734.63
565.35	1914.85
565.54	1720.29
565.74	1714.15
565.93	1714.15
566.13	1728.49
566.32	1730.53
566.52	1832.93
566.71	1730.53
566.91	1742.82
567.11	1738.73
567.30	1705.96
567.50	1712.10
567.69	1757.16
567.89	1771.49
568.08	1759.21
568.28	1687.53
568.47	1710.05
568.67	1775.59
568.86	1701.86
569.06	1779.68
569.25	1654.76
569.45	1675.24
569.64	1681.38
569.84	1806.31
570.04	1701.86
570.23	1779.68
570.43	1726.44
570.62	1705.96
570.82	1812.45
571.01	1671.14
571.21	1656.81
571.40	1673.19
571.60	1802.21
571.79	1730.53
571.99	1701.86
572.18	1638.38
572.38	1716.20
572.57	1740.77
572.77	1742.82
572.96	1900.52
573.16	1763.30
573.35	1744.87
573.55	1812.45
573.74	1722.34
573.94	1746.92
574.13	1742.82
574.33	1826.79
574.52	1820.64
574.71	1697.77
574.91	1746.92
575.10	1724.39
575.30	1761.25
575.49	1662.95
575.69	1679.33
575.88	1705.96
576.08	1718.25
576.27	1765.35
576.47	1742.82
576.66	1814.50
576.86	1796.07
577.05	1710.05
577.25	1701.86
577.44	1822.69
577.64	1679.33
577.83	1730.53
578.02	1759.21
578.22	1845.22
578.41	1832.93
578.61	1748.97
578.80	1742.82
579.00	1736.68
579.19	1748.97
579.39	1767.40
579.58	1775.59
579.77	1738.73
579.97	1816.55
580.16	1814.50
580.36	1828.84
580.55	1890.28
580.75	1800.16
580.94	1763.30
581.13	1853.41
581.33	1834.98
581.52	1785.83
581.72	1802.21
581.91	1820.64
582.11	1677.29
582.30	1714.15
582.49	1765.35
582.69	1826.79
582.88	1806.31
583.08	1755.11
583.27	1798.12
583.47	1763.30
583.66	1654.76
583.85	1644.52
584.05	1777.64
584.24	1775.59
584.44	1828.84
584.63	1720.29
584.82	1863.65
585.02	1781.73
585.21	1824.74
585.41	1822.69
585.60	1798.12
585.79	1855.46
585.99	1902.56
586.18	1890.28
586.37	2193.37
586.57	3358.67
586.76	9807.72
586.96	24194.70
587.15	34291.19
587.34	40318.36
587.54	41790.85
587.73	36595.15
587.93	25984.63
588.12	21530.30
588.31	17975.02
588.51	16217.86
588.70	15175.45
588.89	14118.70
589.09	12502.85
589.28	10899.29
589.47	9412.46
589.67	8003.46
589.86	6365.09
590.06	4968.37
590.25	4040.64
590.44	3033.04
590.64	2631.64
590.83	2226.14
591.02	2105.31
591.22	2004.96
591.41	1894.37
591.60	1863.65
591.80	1914.85
591.99	1744.87
592.18	1834.98
592.38	1818.60
592.57	1771.49
592.76	1683.43
592.96	1783.78
593.15	1751.01
593.34	1769.44
593.54	1730.53
593.73	1734.63
593.92	1716.20
594.12	1722.34
594.31	1769.44
594.50	1796.07
594.70	1832.93
594.89	1804.26
595.08	1628.14
595.28	1853.41
595.47	1851.36
595.66	1755.11
595.86	1685.48
596.05	1703.91
596.24	1771.49
596.43	1826.79
596.63	1783.78
596.82	1826.79
597.01	1732.58
597.21	1894.37
597.40	1714.15
597.59	1714.15
597.79	1703.91
597.98	1716.20
598.17	1826.79
598.36	1738.73
598.56	1777.64
598.75	1677.29
598.94	1751.01
599.14	1828.84
599.33	1701.86
599.52	1771.49
599.71	1771.49
599.91	1839.08
600.10	1757.16
600.29	1775.59
600.48	1751.01
600.68	1687.53
600.87	1683.43
601.06	1730.53
601.26	1687.53
601.45	1697.77
601.64	1667.05
601.83	1720.29
602.03	1718.25
602.22	1683.43
602.41	1667.05
602.60	1826.79
602.80	1771.49
602.99	1703.91
603.18	1650.66
603.37	1736.68
603.57	1695.72
603.76	1779.68
603.95	1755.11
604.14	1736.68
604.34	1722.34
604.53	1734.63
604.72	1748.97
604.91	1720.29
605.10	1765.35
605.30	1679.33
605.49	1894.37
605.68	1722.34
605.87	1763.30
606.07	1689.57
606.26	1687.53
606.45	1824.74
606.64	1748.97
606.84	1736.68
607.03	1720.29
607.22	1806.31
607.41	1671.14
607.60	1691.62
607.80	1771.49
607.99	1718.25
608.18	1738.73
608.37	1718.25
608.56	1730.53
608.76	1914.85
608.95	1716.20
609.14	1744.87
609.33	1730.53
609.52	1740.77
609.72	1810.40
609.91	1728.49
610.10	1767.40
610.29	1865.70
610.48	1693.67
610.68	1699.81
610.87	1634.28
611.06	1714.15
611.25	1730.53
611.44	1816.55
611.63	1769.44
611.83	1744.87
612.02	1626.09
612.21	1738.73
612.40	1570.79
612.59	1640.42
612.79	1652.71
612.98	1734.63
613.17	1767.40
613.36	1693.67
613.55	1832.93
613.74	1724.39
613.93	1746.92
614.13	1621.99
614.32	1689.57
614.51	1767.40
614.70	1732.58
614.89	1679.33
615.08	1763.30
615.28	2125.79
615.47	1681.38
615.66	1714.15
615.85	1740.77
616.04	1820.64
616.23	1730.53
616.42	1667.05
616.62	1759.21
616.81	1798.12
617.00	1675.24
617.19	1732.58
617.38	1685.48
617.57	1734.63
617.76	1738.73
617.95	1785.83
618.15	1755.11
618.34	1804.26
618.53	1693.67
618.72	1822.69
618.91	1802.21
619.10	1773.54
619.29	1718.25
619.48	1751.01
619.68	1701.86
619.87	1658.85
620.06	1576.94
620.25	1806.31
620.44	1767.40
620.63	1705.96
620.82	1718.25
621.01	1755.11
621.20	1781.73
621.39	1699.81
621.59	1679.33
621.78	1708.01
621.97	1665.00
622.16	1732.58
622.35	1718.25
622.54	1712.10
622.73	1843.17
622.92	1556.46
623.11	1771.49
623.30	1708.01
623.49	1738.73
623.68	1691.62
623.88	1771.49
624.07	1636.33
624.26	1759.21
624.45	1730.53
624.64	1636.33
624.83	1701.86
625.02	1673.19
625.21	1738.73
625.40	1714.15
625.59	1777.64
625.78	1730.53
625.97	1777.64
626.16	1834.98
626.35	1662.95
626.54	1679.33
626.74	1740.77
626.93	1677.29
627.12	1785.83
627.31	1777.64
627.50	1730.53
627.69	1812.45
627.88	1697.77
628.07	1761.25
628.26	1665.00
628.45	1611.75
628.64	1683.43
628.83	1789.92
629.02	1662.95
629.21	1734.63
629.40	1708.01
629.59	1673.19
629.78	1734.63
629.97	1746.92
630.16	1677.29
630.35	1656.81
630.54	1689.57
630.73	1665.00
630.92	1732.58
631.11	1689.57
631.30	1722.34
631.49	1703.91
631.68	1724.39
631.87	1742.82
632.06	1708.01
632.25	1837.03
632.44	1667.05
632.63	1695.72
632.82	1609.70
633.01	1628.14
633.20	1683.43
633.39	1638.38
633.58	1624.04
633.77	1708.01
633.96	1718.25
634.15	1693.67
634.34	1699.81
634.53	1755.11
634.72	1652.71
634.91	1632.23
635.10	1751.01
635.29	1759.21
635.48	1736.68
635.67	1615.85
635.86	1603.56
636.05	1751.01
636.24	1648.61
636.43	1746.92
636.62	1746.92
636.81	1630.18
637.00	1724.39
637.19	1697.77
637.38	1712.10
637.57	1609.70
637.76	1681.38
637.95	1724.39
638.14	1572.84
638.33	1648.61
638.52	1742.82
638.71	1624.04
638.89	1734.63
639.08	1820.64
639.27	1708.01
639.46	1724.39
639.65	1791.97
639.84	1757.16
640.03	1767.40
640.22	1724.39
640.41	1763.30
640.60	1665.00
640.79	1716.20
640.98	1626.09
641.17	1757.16
641.36	1693.67
641.55	1753.06
641.74	1732.58
641.92	1642.47
642.11	1677.29
642.30	1720.29
642.49	1654.76
642.68	1705.96
642.87	1744.87
643.06	1667.05
643.25	1667.05
643.44	1705.96
643.63	1767.40
643.82	1763.30
644.00	1679.33
644.19	1697.77
644.38	1662.95
644.57	1736.68
644.76	1691.62
644.95	1710.05
645.14	1740.77
645.33	1755.11
645.52	1720.29
645.71	1658.85
645.89	1667.05
646.08	1742.82
646.27	1685.48
646.46	1785.83
646.65	1619.94
646.84	1679.33
647.03	1646.57
647.22	1736.68
647.40	1705.96
647.59	1640.42
647.78	1595.37
647.97	1660.90
648.16	1671.14
648.35	1845.22
648.54	1734.63
648.73	1624.04
648.91	1767.40
649.10	1683.43
649.29	1689.57
649.48	1724.39
649.67	1693.67
649.86	1675.24
650.05	1691.62
650.23	1755.11
650.42	1595.37
650.61	1728.49
650.80	1734.63
650.99	1806.31
651.18	1701.86
651.36	1697.77
651.55	1677.29
651.74	1738.73
651.93	1677.29
652.12	1724.39
652.31	1691.62
652.49	1720.29
652.68	1642.47
652.87	1746.92
653.06	1724.39
653.25	1832.93
653.44	1693.67
653.62	1763.30
653.81	1794.02
654.00	1689.57
654.19	1718.25
654.38	1798.12
654.56	1732.58
654.75	1607.66
654.94	1769.44
655.13	1736.68
655.32	1628.14
655.51	1724.39
655.69	1705.96
655.88	1796.07
656.07	1716.20
656.26	1755.11
656.45	1683.43
656.63	1732.58
656.82	1775.59
657.01	1734.63
657.20	1753.06
657.38	1771.49
657.57	1632.23
657.76	1634.28
657.95	1800.16
658.14	1673.19
658.32	1724.39
658.51	1574.89
658.70	1710.05
658.89	1693.67
659.08	1728.49
659.26	1814.50
659.45	1669.09
659.64	1714.15
659.83	1652.71
660.01	1843.17
660.20	1767.40
660.39	1789.92
660.58	1595.37
660.76	1761.25
660.95	1642.47
661.14	1693.67
661.33	1683.43
661.51	1691.62
661.70	1751.01
661.89	1740.77
662.08	1714.15
662.26	1624.04
662.45	1634.28
662.64	1794.02
662.83	1746.92
663.01	1656.81
663.20	1697.77
663.39	1779.68
663.58	1650.66
663.76	1687.53
663.95	1742.82
664.14	1679.33
664.32	1722.34
664.51	1716.20
664.70	1617.90
664.89	1789.92
665.07	1671.14
665.26	1767.40
665.45	1705.96
665.64	1738.73
665.82	1716.20
666.01	1730.53
666.20	1630.18
666.38	1820.64
666.57	1796.07
666.76	2131.94
666.95	4407.23
667.13	10315.62
667.32	15183.64
667.51	17628.92
667.69	18941.66
667.88	17676.02
668.07	12291.91
668.25	9482.10
668.44	8089.48
668.63	7290.77
668.81	6743.96
669.00	6223.78
669.19	5607.34
669.38	5056.43
669.56	4581.31
669.75	3930.05
669.94	3289.04
670.12	2926.55
670.31	2502.62
670.50	2273.25
670.68	2047.97
670.87	1888.23
671.06	1810.40
671.24	1808.36
671.43	1847.27
671.62	1765.35
671.80	1630.18
671.99	1748.97
672.18	1640.42
672.36	1810.40
672.55	1765.35
672.74	1763.30
672.92	1613.80
673.11	1740.77
673.29	1669.09
673.48	1744.87
673.67	1740.77
673.85	1767.40
674.04	1662.95
674.23	1789.92
674.41	1818.60
674.60	1634.28
674.79	1619.94
674.97	1644.52
675.16	1810.40
675.34	1740.77
675.53	1665.00
675.72	1744.87
675.90	1785.83
676.09	1744.87
676.28	1728.49
676.46	1652.71
676.65	1714.15
676.83	1689.57
677.02	1712.10
677.21	1685.48
677.39	1736.68
677.58	1617.90
677.77	1632.23
677.95	1660.90
678.14	1675.24
678.32	1699.81
678.51	1730.53
678.70	1771.49
678.88	1644.52
679.07	1675.24
679.25	1701.86
679.44	1693.67
679.63	1624.04
679.81	1671.14
680.00	1769.44
680.18	1828.84
680.37	1785.83
680.55	1759.21
680.74	1673.19
680.93	1695.72
681.11	1671.14
681.30	1755.11
681.48	1681.38
681.67	1665.00
681.85	1779.68
682.04	1677.29
682.23	1708.01
682.41	1705.96
682.60	1673.19
682.78	1726.44
682.97	1640.42
683.15	1695.72
683.34	1726.44
683.53	1785.83
683.71	1621.99
683.90	1882.08
684.08	1789.92
684.27	1675.24
684.45	1765.35
684.64	1812.45
684.82	1771.49
685.01	1718.25
685.19	1722.34
685.38	1804.26
685.57	1732.58
685.75	1669.09
685.94	1695.72
686.12	1718.25
686.31	1601.51
686.49	1806.31
686.68	1632.23
686.86	1648.61
687.05	1701.86
687.23	1779.68
687.42	1689.57
687.60	1646.57
687.79	1722.34
687.97	1822.69
688.16	1753.06
688.34	1794.02
688.53	1634.28
688.71	1710.05
688.90	1740.77
689.08	1720.29
689.27	1652.71
689.45	1746.92
689.64	1781.73
689.82	1705.96
690.01	1660.90
690.19	1710.05
690.38	1740.77
690.56	1812.45
690.75	1665.00
690.93	1648.61
691.12	1626.09
691.30	1665.00
691.49	1679.33
691.67	1730.53
691.86	1765.35
692.04	1646.57
692.23	1660.90
692.41	1705.96
692.60	1765.35
692.78	1714.15
692.97	1689.57
693.15	1689.57
693.34	1849.32
693.52	1736.68
693.71	1617.90
693.89	1695.72
694.08	1576.94
694.26	1730.53
694.44	1736.68
694.63	1691.62
694.81	1638.38
695.00	1671.14
695.18	1773.54
695.37	1873.89
695.55	1677.29
695.74	1748.97
695.92	1693.67
696.10	1781.73
696.29	1583.08
696.47	1685.48
696.66	1644.52
696.84	1626.09
697.03	1708.01
697.21	1818.60
697.40	2193.37
697.58	1763.30
697.76	1740.77
697.95	1656.81
698.13	1665.00
698.32	1673.19
698.50	1691.62
698.68	1708.01
698.87	1755.11
699.05	1785.83
699.24	1689.57
699.42	1650.66
699.61	1675.24
699.79	1705.96
699.97	1740.77
700.16	1619.94
700.34	1656.81
700.53	1673.19
700.71	1718.25
700.89	1714.15
701.08	1697.77
701.26	1748.97
701.45	2068.45
701.63	1589.22
701.81	1710.05
702.00	1644.52
702.18	1675.24
702.37	1615.85
702.55	1677.29
702.73	1673.19
702.92	1728.49
703.10	1734.63
703.28	1767.40
703.47	1607.66
703.65	1800.16
703.84	1722.34
704.02	1652.71
704.20	1765.35
704.39	1683.43
704.57	1708.01
704.75	1806.31
704.94	1699.81
705.12	1761.25
705.30	1740.77
705.49	2254.81
705.67	4386.75
705.86	9428.85
706.04	12541.76
706.22	14618.40
706.41	15324.95
706.59	13766.45
706.77	9523.05
706.96	7430.03
707.14	6649.75
707.32	5990.31
707.51	5597.10
707.69	4878.26
707.87	4327.36
708.06	3526.60
708.24	2981.84
708.42	2398.17
708.61	2250.72
708.79	1869.80
708.97	1767.40
709.16	1802.21
709.34	1773.54
709.52	1740.77
709.71	1787.88
709.89	1763.30
710.07	1693.67
710.26	1634.28
710.44	1732.58
710.62	1701.86
710.80	1695.72
710.99	1751.01
711.17	1800.16
711.35	1679.33
711.54	1658.85
711.72	1779.68
711.90	1691.62
712.09	1734.63
712.27	1628.14
712.45	1769.44
712.63	1638.38
712.82	1660.90
713.00	1679.33
713.18	1775.59
713.37	1816.55
713.55	1796.07
713.73	1718.25
713.91	1765.35
714.10	1685.48
714.28	1677.29
714.46	1789.92
714.65	1748.97
714.83	1718.25
715.01	1705.96
715.19	1734.63
715.38	1685.48
715.56	1699.81
715.74	1646.57
715.92	1632.23
716.11	1814.50
716.29	1615.85
716.47	1701.86
716.65	1687.53
716.84	1542.12
717.02	1703.91
717.20	1634.28
717.38	1671.14
717.57	1671.14
717.75	1705.96
717.93	1587.18
718.11	1691.62
718.30	1669.09
718.48	1703.91
718.66	1755.11
718.84	1783.78
719.03	1726.44
719.21	1591.27
719.39	1705.96
719.57	1650.66
719.75	1728.49
719.94	1712.10
720.12	1656.81
720.30	1689.57
720.48	1681.38
720.67	1724.39
720.85	1615.85
721.03	1628.14
721.21	1613.80
721.39	1724.39
721.58	1662.95
721.76	1779.68
721.94	1724.39
722.12	1755.11
722.30	1769.44
722.49	1687.53
722.67	1679.33
722.85	1720.29
723.03	1634.28
723.21	1671.14
723.40	1675.24
723.58	1714.15
723.76	1705.96
723.94	1718.25
724.12	1681.38
724.30	1673.19
724.49	1734.63
724.67	1619.94
724.85	1832.93
725.03	1632.23
725.21	1734.63
725.40	1755.11
725.58	1671.14
725.76	1751.01
725.94	1669.09
726.12	1650.66
726.30	1654.76
726.49	1718.25
726.67	1675.24
726.85	1730.53
727.03	1828.84
727.21	2123.74
727.39	2861.01
727.57	3747.78
727.76	4083.65
727.94	4446.14
728.12	4444.09
728.30	3592.14
728.48	3008.47
728.66	2686.94
728.84	2553.82
729.03	2271.20
729.21	2078.69
729.39	1949.67
729.57	1849.32
729.75	1773.54
729.93	1808.36
730.11	1728.49
730.30	1728.49
730.48	1730.53
730.66	1787.88
730.84	1708.01
731.02	1738.73
731.20	1738.73
731.38	1724.39
731.56	1693.67
731.74	1636.33
731.93	1683.43
732.11	1726.44
732.29	1638.38
732.47	1781.73
732.65	1751.01
732.83	1748.97
733.01	1691.62
733.19	1576.94
733.37	1765.35
733.56	1720.29
733.74	1697.77
733.92	1763.30
734.10	1724.39
734.28	1714.15
734.46	1677.29
734.64	1611.75
734.82	1650.66
735.00	1710.05
735.18	1626.09
735.36	1683.43
735.54	1652.71
735.73	1679.33
735.91	1753.06
736.09	1630.18
736.27	1615.85
736.45	1712.10
736.63	1714.15
736.81	1683.43
736.99	1826.79
737.17	1791.97
737.35	1685.48
737.53	1693.67
737.71	1730.53
737.89	1816.55
738.07	1626.09
738.25	1673.19
738.43	1587.18
738.61	1624.04
738.80	1701.86
738.98	1644.52
739.16	1703.91
739.34	1693.67
739.52	1708.01
739.70	1650.66
739.88	1779.68
740.06	1759.21
740.24	1611.75
740.42	1736.68
740.60	1607.66
740.78	1656.81
740.96	1621.99
741.14	1691.62
741.32	1681.38
741.50	1642.47
741.68	1908.71
741.86	1781.73
742.04	1693.67
742.22	1646.57
742.40	1662.95
742.58	1701.86
742.76	1640.42
742.94	1808.36
743.12	1601.51
743.30	1718.25
743.48	1730.53
743.66	1615.85
743.84	1748.97
744.02	1634.28
744.20	1703.91
744.38	1736.68
744.56	1595.37
744.74	1791.97
744.92	1681.38
745.10	1773.54
745.28	1705.96
745.46	1708.01
745.64	1683.43
745.82	1777.64
746.00	1732.58
746.18	1742.82
746.36	1628.14
746.54	1697.77
746.72	1708.01
746.90	1648.61
747.08	1742.82
747.26	1681.38
747.44	1753.06
747.62	1742.82
747.80	1724.39
747.98	1738.73
748.15	1607.66
748.33	1742.82
748.51	1671.14
748.69	1714.15
748.87	1701.86
749.05	1734.63
749.23	1667.05
749.41	1730.53
749.59	1665.00
749.77	1767.40
749.95	1595.37
750.13	1673.19
750.31	1714.15
750.49	1667.05
750.67	1740.77
750.85	1726.44
751.03	1716.20
751.20	1853.41
751.38	1660.90
751.56	1732.58
751.74	1763.30
751.92	1636.33
752.10	1652.71
752.28	1720.29
752.46	1591.27
752.64	1679.33
752.82	1665.00
753.00	1736.68
753.18	1644.52
753.35	1685.48
753.53	1673.19
753.71	1714.15
753.89	1779.68
754.07	1656.81
754.25	1705.96
754.43	1693.67
754.61	1634.28
754.79	1722.34
754.97	1671.14
755.14	1781.73
755.32	1648.61
755.50	1687.53
755.68	1734.63
755.86	1615.85
756.04	1667.05
756.22	1599.46
756.40	1740.77
756.57	1828.84
756.75	1636.33
756.93	1714.15
757.11	1693.67
757.29	1656.81
757.47	1542.12
757.65	1613.80
757.82	1632.23
758.00	1644.52
758.18	1638.38
758.36	1646.57
758.54	1771.49
758.72	1656.81
758.90	1652.71
759.07	1722.34
759.25	1636.33
759.43	1693.67
759.61	1665.00
759.79	2205.66
759.97	1740.77
760.15	1730.53
760.32	1566.70
760.50	1724.39
760.68	1814.50
760.86	1589.22
761.04	1800.16
761.22	1734.63
761.39	1712.10
761.57	1638.38
761.75	1648.61
761.93	1779.68
762.11	1669.09
762.28	1642.47
762.46	1703.91
762.64	1701.86
762.82	1617.90
763.00	1697.77
763.18	1804.26
763.35	1607.66
763.53	1753.06
763.71	1710.05
763.89	1740.77
764.07	1703.91
764.24	1695.72
764.42	1775.59
764.60	1642.47
764.78	1611.75
764.96	1734.63
765.13	1746.92
765.31	1697.77
765.49	1669.09
765.67	1656.81
765.84	1609.70
766.02	1658.85
766.20	1652.71
766.38	1703.91
766.56	1660.90
766.73	1804.26
766.91	1695.72
767.09	1687.53
767.27	1761.25
767.44	1597.42
767.62	1703.91
767.80	1615.85
767.98	1791.97
768.15	1642.47
768.33	1701.86
768.51	1736.68
768.69	1689.57
768.87	1716.20
769.04	1720.29
769.22	1804.26
769.40	1791.97
769.58	1779.68
769.75	1732.58
769.93	1777.64
770.11	1636.33
770.28	1712.10
770.46	1691.62
770.64	1703.91
770.82	1738.73
770.99	1650.66
771.17	1691.62
771.35	1708.01
771.53	1650.66
771.70	1607.66
771.88	1703.91
772.06	1626.09
772.23	1718.25
772.41	1732.58
772.59	1636.33
772.77	1708.01
772.94	1722.34
773.12	1648.61
773.30	1679.33
773.47	1638.38
773.65	1648.61
773.83	1802.21
774.01	1712.10
774.18	1660.90
774.36	1701.86
774.54	1710.05
774.71	1714.15
774.89	1619.94
775.07	1681.38
775.24	1634.28
775.42	1689.57
775.60	1798.12
775.78	1712.10
775.95	1644.52
776.13	1669.09
776.31	1452.01
776.48	1695.72
776.66	1693.67
776.84	1671.14
777.01	1716.20
777.19	1773.54
777.37	1593.32
777.54	1693.67
777.72	1841.12
777.90	1726.44
778.07	1738.73
778.25	1849.32
778.43	1779.68
778.60	1695.72
778.78	1751.01
778.96	1767.40
779.13	1644.52
779.31	1695.72
779.49	1660.90
779.66	1755.11
779.84	1712.10
780.01	1669.09
780.19	1638.38
780.37	1753.06
780.54	1740.77
780.72	1615.85
780.90	1683.43
781.07	1675.24
781.25	1595.37
781.43	1695.72
781.60	1628.14
781.78	1759.21
781.95	1603.56
782.13	1644.52
782.31	1656.81
782.48	1570.79
782.66	1705.96
782.83	1832.93
783.01	1675.24
783.19	1779.68
783.36	1667.05
783.54	1611.75
783.72	1683.43
783.89	1595.37
784.07	1677.29
784.24	1708.01
784.42	1761.25
784.60	1677.29
784.77	1724.39
784.95	1591.27
785.12	1607.66
785.30	1697.77
785.47	1691.62
785.65	1566.70
785.83	1652.71
786.00	1642.47
786.18	1640.42
786.35	1642.47
786.53	1708.01
786.71	1810.40
786.88	1746.92
787.06	1687.53
787.23	1675.24
787.41	1542.12
787.58	1658.85
787.76	1695.72
787.94	1728.49
788.11	1714.15
788.29	1613.80
788.46	1714.15
788.64	1689.57
788.81	1712.10
788.99	1697.77
789.16	1599.46
789.34	1705.96
789.52	1695.72
789.69	1720.29
789.87	1556.46
790.04	1650.66
790.22	1730.53
790.39	1751.01
790.57	1714.15
790.74	1658.85
790.92	1728.49
791.09	1550.31
791.27	1693.67
791.44	1837.03
791.62	1611.75
791.79	1705.96
791.97	1671.14
792.15	1882.08
792.32	1724.39
792.50	1712.10
792.67	1783.78
792.85	1843.17
793.02	1660.90
793.20	1681.38
793.37	1644.52
793.55	1703.91
793.72	1665.00
793.90	1751.01
794.07	1656.81
794.25	1667.05
794.42	1732.58
794.60	1691.62
794.77	1679.33
794.95	1708.01
795.12	1710.05
795.30	1697.77
795.47	1667.05
795.65	1886.18
795.82	1716.20
796.00	1675.24
796.17	1642.47
796.34	1609.70
796.52	1744.87
796.69	1746.92
796.87	1669.09
797.04	1716.20
797.22	1744.87
797.39	1771.49
797.57	1703.91
797.74	1732.58
797.92	1675.24
798.09	1695.72
798.27	1710.05
798.44	1757.16
798.62	1638.38
798.79	1642.47
798.96	1722.34
799.14	1714.15
799.31	1800.16
799.49	1652.71
799.66	1681.38
799.84	1601.51
800.01	1644.52
800.19	1763.30
800.36	1632.23
800.53	1724.39
800.71	1730.53
800.88	1730.53
801.06	1677.29
801.23	1576.94
801.41	1642.47
801.58	1708.01
801.75	1636.33
801.93	1648.61
802.10	1708.01
802.28	1675.24
802.45	1677.29
802.63	1732.58
802.80	1781.73
802.97	1734.63
803.15	1607.66
803.32	1665.00
803.50	1640.42
803.67	1673.19
803.84	1701.86
804.02	1705.96
804.19	1621.99
804.37	1513.45
804.54	1634.28
804.71	1621.99
804.89	1701.86
805.06	1624.04
805.24	1734.63
805.41	1624.04
805.58	1601.51
805.76	1908.71
805.93	1638.38
806.10	1736.68
806.28	1710.05
806.45	1714.15
806.63	1720.29
806.80	1746.92
806.97	1714.15
807.15	1658.85
807.32	1683.43
807.49	1691.62
807.67	1662.95
807.84	1744.87
808.01	1527.78
808.19	1912.80
808.36	1769.44
808.54	1736.68
808.71	1714.15
808.88	1662.95
809.06	1712.10
809.23	1818.60
809.40	1650.66
809.58	1652.71
809.75	1677.29
809.92	1703.91
810.10	1861.60
810.27	1763.30
810.44	1632.23
810.62	1671.14
810.79	1697.77
810.96	1724.39
811.14	1658.85
811.31	1658.85
811.48	1769.44
811.66	1755.11
811.83	1724.39
812.00	1746.92
812.18	1681.38
812.35	1789.92
812.52	1619.94
812.69	1681.38
812.87	1619.94
813.04	1691.62
813.21	1642.47
813.39	1689.57
813.56	1611.75
813.73	1769.44
813.91	1683.43
814.08	1681.38
814.25	1671.14
814.42	1578.98
814.60	1624.04
814.77	1673.19
814.94	1710.05
815.12	1691.62
815.29	1677.29
815.46	1642.47
815.63	1734.63
815.81	1699.81
815.98	1695.72
816.15	1656.81
816.33	1671.14
816.50	1708.01
816.67	1728.49
816.84	1687.53
817.02	1636.33
817.19	1693.67
817.36	1722.34
817.53	1703.91
817.71	1658.85
817.88	1763.30
818.05	1605.61
818.22	1650.66
818.40	1759.21
818.57	1609.70
818.74	1724.39
818.91	1638.38
819.09	1812.45
819.26	1759.21
819.43	1613.80
819.60	1660.90
819.78	1746.92
819.95	1730.53
820.12	1613.80
820.29	1781.73
820.47	1736.68
820.64	1613.80
820.81	1640.42
820.98	1671.14
821.15	1628.14
821.33	1736.68
821.50	1576.94
821.67	1742.82
821.84	1669.09
822.02	1656.81
822.19	1728.49
822.36	1667.05
822.53	1710.05
822.70	1767.40
822.88	1705.96
823.05	1738.73
823.22	1626.09
823.39	1693.67
823.56	1757.16
823.74	1744.87
823.91	1589.22
824.08	1615.85
824.25	1603.56
824.42	1765.35
824.60	1597.42
824.77	1718.25
824.94	1677.29
825.11	1722.34
825.28	1609.70
825.45	1675.24
825.63	1662.95
825.80	1689.57
825.97	1714.15
826.14	1791.97
826.31	1578.98
826.48	1683.43
826.66	1689.57
826.83	1665.00
827.00	1757.16
827.17	1656.81
827.34	1636.33
827.51	1638.38
827.69	1705.96
827.86	1654.76
828.03	1701.86
828.20	1673.19
828.37	1632.23
828.54	1744.87
828.71	1683.43
828.89	1771.49
829.06	1712.10
829.23	1753.06
829.40	1697.77
829.57	1708.01
829.74	1689.57
829.91	1644.52
830.09	1683.43
830.26	1728.49
830.43	1847.27
830.60	1683.43
830.77	1665.00
830.94	1767.40
831.11	1736.68
831.28	1685.48
831.46	1751.01
831.63	1654.76
831.80	1693.67
831.97	1673.19
832.14	1669.09
832.31	1781.73
832.48	1630.18
832.65	1695.72
832.82	1662.95
832.99	1767.40
833.17	1626.09
833.34	1771.49
833.51	1701.86
833.68	1595.37
833.85	1802.21
834.02	1617.90
834.19	1574.89
834.36	1587.18
834.53	1701.86
834.70	1677.29
834.87	1703.91
835.04	1665.00
835.22	1658.85
835.39	1669.09
835.56	1691.62
835.73	1677.29
835.90	1617.90
836.07	1642.47
836.24	1693.67
836.41	1660.90
836.58	1720.29
836.75	1771.49
836.92	1699.81
837.09	1724.39
837.26	1693.67
837.43	1701.86
837.60	1693.67
837.77	1744.87
837.94	1716.20
838.12	1738.73
838.29	1734.63
838.46	1630.18
838.63	1615.85
838.80	1773.54
838.97	1720.29
839.14	1691.62
839.31	1708.01
839.48	1671.14
839.65	1624.04
839.82	1802.21
839.99	1667.05
840.16	1718.25
840.33	1656.81
840.50	1712.10
840.67	1621.99
840.84	1568.74
841.01	1671.14
841.18	1634.28
841.35	1681.38
841.52	1734.63
841.69	1849.32
841.86	1693.67
842.03	1628.14
842.20	1710.05
842.37	1726.44
842.54	1658.85
842.71	1673.19
842.88	1636.33
843.05	1818.60
843.22	1603.56
843.39	1761.25
843.56	1683.43
843.73	1656.81
843.90	1665.00
844.07	1693.67
844.24	1693.67
844.41	1726.44
844.58	1718.25
844.75	1699.81
844.92	1724.39
845.09	1705.96
845.26	1669.09
845.43	1677.29
845.60	1648.61
845.77	1703.91
845.94	1699.81
846.10	1755.11
846.27	1646.57
846.44	1609.70
846.61	1683.43
846.78	1755.11
846.95	1759.21
847.12	1644.52
847.29	1699.81
847.46	1718.25
847.63	1742.82
847.80	1624.04
847.97	1673.19
848.14	1843.17
848.31	1634.28
848.48	1628.14
848.65	1693.67
848.82	1697.77
848.98	1861.60
849.15	1732.58
849.32	1779.68
849.49	1796.07
849.66	1650.66
849.83	1783.78
850.00	1599.46
850.17	1650.66
850.34	1669.09
850.51	1636.33
850.68	1654.76
850.85	1871.84
851.01	1658.85
851.18	1681.38
851.35	1662.95
851.52	1730.53
851.69	1748.97
851.86	1695.72
852.03	1687.53
852.20	1710.05
852.37	1587.18
852.53	1673.19
852.70	1740.77
852.87	1720.29
853.04	1730.53
853.21	1675.24
853.38	1761.25
853.55	1722.34
853.72	1773.54
853.89	1634.28
854.05	1650.66
854.22	1697.77
854.39	1751.01
854.56	1701.86
854.73	1775.59
854.90	1644.52
855.07	1703.91
855.23	1691.62
855.40	1621.99
855.57	1624.04
855.74	1593.32
855.91	1910.75
856.08	1609.70
856.25	1511.40
856.41	1656.81
856.58	1705.96
856.75	1652.71
856.92	1652.71
857.09	1730.53
857.26	1599.46
857.42	1673.19
857.59	1726.44
857.76	1681.38
857.93	1710.05
858.10	1691.62
858.27	1628.14
858.43	1683.43
858.60	1570.79
858.77	1609.70
858.94	1662.95
859.11	1734.63
859.27	1730.53
859.44	1648.61
859.61	1828.84
859.78	1763.30
859.95	1718.25
860.12	1648.61
860.28	1826.79
860.45	1753.06
860.62	1695.72
860.79	1689.57
860.95	1677.29
861.12	1656.81
861.29	1640.42
861.46	1619.94
861.63	1679.33
861.79	1751.01
861.96	1689.57
862.13	1624.04
862.30	1779.68
862.47	1677.29
862.63	1671.14
862.80	1775.59
862.97	1738.73
863.14	1662.95
863.30	1728.49
863.47	1712.10
863.64	1796.07
863.81	1640.42
863.97	1722.34
864.14	1716.20
864.31	1683.43
864.48	1732.58
864.65	1685.48
864.81	1722.34
864.98	1748.97
865.15	1710.05
865.32	1677.29
865.48	1783.78
865.65	1732.58
865.82	1730.53
865.98	1728.49
866.15	1712.10
866.32	1701.86
866.49	1648.61
866.65	1730.53
866.82	1619.94
866.99	1632.23
867.16	1609.70
867.32	1611.75
867.49	1632.23
867.66	1660.90
867.83	1705.96
867.99	1558.50
868.16	1777.64
868.33	1603.56
868.49	1697.77
868.66	1689.57
868.83	1708.01
868.99	1693.67
869.16	1646.57
869.33	1710.05
869.50	1767.40
869.66	1650.66
869.83	1705.96
870.00	1615.85
870.16	1681.38
870.33	1708.01
870.50	1689.57
870.66	1636.33
870.83	1800.16
871.00	1720.29
871.17	1759.21
871.33	1654.76
871.50	1761.25
871.67	1617.90
871.83	1687.53
872.00	1822.69
872.17	1613.80
872.33	1769.44
872.50	1675.24
872.67	1626.09
872.83	1656.81
873.00	1671.14
873.17	1716.20
873.33	1697.77
873.50	1740.77
873.67	1648.61
873.83	1689.57
874.00	1730.53
874.16	1732.58
874.33	1669.09
874.50	1648.61
874.66	1665.00
874.83	1738.73
875.00	1746.92
875.16	1804.26
875.33	1755.11
875.50	1624.04
875.66	1648.61
875.83	1734.63
875.99	1652.71
876.16	1669.09
876.33	1701.86
876.49	1658.85
876.66	1740.77
876.83	1656.81
876.99	1581.03
877.16	1689.57
877.32	1693.67
877.49	1679.33
877.66	1693.67
877.82	1763.30
877.99	1681.38
878.15	1701.86
878.32	1757.16
878.49	1767.40
878.65	1740.77
878.82	1734.63
878.98	1722.34
879.15	1718.25
879.32	1744.87
879.48	1667.05
879.65	1722.34
879.81	1693.67
879.98	1615.85
880.15	1691.62
880.31	1730.53
880.48	1628.14
880.64	1685.48
880.81	1738.73
880.97	1802.21
881.14	1769.44
881.31	1652.71
881.47	1757.16
881.64	1671.14
881.80	1593.32
881.97	1583.08
882.13	1705.96
882.30	1572.84
882.47	1611.75
882.63	1701.86
882.80	1693.67
882.96	1703.91
883.13	1632.23
883.29	1667.05
883.46	1675.24
883.62	1787.88
883.79	1660.90
883.95	1755.11
884.12	1636.33
884.29	1746.92
884.45	1669.09
884.62	1742.82
884.78	1646.57
884.95	1769.44
885.11	1640.42
885.28	1705.96
885.44	1673.19
885.61	1746.92
885.77	1714.15
885.94	1726.44
886.10	1675.24
886.27	1671.14
886.43	1785.83
886.60	1705.96
886.76	1673.19
886.93	1677.29
887.09	1781.73
887.26	1648.61
887.42	1665.00
887.59	1740.77
887.75	1859.56
887.92	1734.63
888.08	1804.26
888.25	1785.83
888.41	1746.92
888.58	1728.49
888.74	1628.14
888.91	1667.05
>>>>>End Processed Spectral Data<<<<<
