SpectraSuite Data File
++++++++++++++++++++++++++++++++++++
Date: Mon Jun 06 12:48:37 CEST 2016
User: root
Dark Spectrum Present: No
Reference Spectrum Present: No
Number of Sampled Component Spectra: 1
Spectrometers: USB4C02835
Integration Time (usec): 100000 (USB4C02835)
Spectra Averaged: 1 (USB4C02835)
Boxcar Smoothing: 0 (USB4C02835)
Correct for Electrical Dark: No (USB4C02835)
Strobe/Lamp Enabled: No (USB4C02835)
Correct for Detector Non-linearity: No (USB4C02835)
Correct for Stray Light: No (USB4C02835)
Number of Pixels in Processed Spectrum: 3648
>>>>>Begin Processed Spectral Data<<<<<
177.47	1452.01
177.69	1452.01
177.91	1452.01
178.13	1499.11
178.36	1560.55
178.58	1597.42
178.80	1646.57
179.02	1689.57
179.24	1640.42
179.46	1695.72
179.68	1746.92
179.90	1722.34
180.13	1701.86
180.35	1703.91
180.57	1695.72
180.79	1708.01
181.01	1662.95
181.23	1789.92
181.45	1746.92
181.67	1736.68
181.90	1691.62
182.12	1677.29
182.34	1632.23
182.56	1765.35
182.78	1724.39
183.00	1665.00
183.22	1730.53
183.44	1605.61
183.66	1808.36
183.89	1804.26
184.11	1701.86
184.33	1783.78
184.55	1714.15
184.77	1728.49
184.99	1693.67
185.21	1658.85
185.43	1798.12
185.65	1695.72
185.87	1691.62
186.10	1791.97
186.32	1822.69
186.54	1787.88
186.76	1765.35
186.98	1791.97
187.20	1779.68
187.42	1689.57
187.64	1718.25
187.86	1734.63
188.08	1740.77
188.30	1677.29
188.52	1705.96
188.75	1722.34
188.97	1701.86
189.19	1712.10
189.41	1751.01
189.63	1673.19
189.85	1724.39
190.07	1665.00
190.29	1619.94
190.51	1746.92
190.73	1628.14
190.95	1800.16
191.17	1656.81
191.39	1679.33
191.61	1720.29
191.84	1738.73
192.06	1714.15
192.28	1621.99
192.50	1892.32
192.72	1714.15
192.94	1757.16
193.16	1812.45
193.38	1759.21
193.60	1632.23
193.82	1646.57
194.04	1703.91
194.26	1697.77
194.48	1716.20
194.70	1701.86
194.92	1703.91
195.14	1755.11
195.36	1718.25
195.58	1669.09
195.80	1662.95
196.02	1767.40
196.24	1693.67
196.46	1689.57
196.69	1730.53
196.91	1722.34
197.13	1687.53
197.35	1646.57
197.57	1759.21
197.79	1673.19
198.01	1748.97
198.23	1767.40
198.45	1708.01
198.67	1683.43
198.89	1673.19
199.11	1675.24
199.33	1609.70
199.55	1642.47
199.77	1621.99
199.99	1753.06
200.21	1648.61
200.43	1714.15
200.65	1687.53
200.87	1578.98
201.09	1681.38
201.31	1718.25
201.53	1718.25
201.75	1742.82
201.97	1746.92
202.19	1738.73
202.41	1775.59
202.63	1769.44
202.85	1742.82
203.07	1673.19
203.29	1703.91
203.51	1687.53
203.73	1662.95
203.95	1918.95
204.17	1695.72
204.39	1710.05
204.61	1714.15
204.83	1687.53
205.05	1726.44
205.27	1787.88
205.49	1802.21
205.71	1794.02
205.93	1644.52
206.15	1646.57
206.37	1718.25
206.59	1671.14
206.81	1705.96
207.03	1656.81
207.25	1667.05
207.47	1691.62
207.69	1677.29
207.91	1761.25
208.13	1816.55
208.34	1691.62
208.56	1646.57
208.78	1675.24
209.00	1677.29
209.22	1712.10
209.44	1617.90
209.66	1732.58
209.88	1767.40
210.10	1669.09
210.32	1710.05
210.54	1789.92
210.76	1652.71
210.98	1806.31
211.20	1591.27
211.42	1724.39
211.64	1748.97
211.86	1814.50
212.08	1800.16
212.30	1726.44
212.52	1646.57
212.74	1656.81
212.96	1759.21
213.17	1740.77
213.39	1769.44
213.61	1785.83
213.83	1701.86
214.05	1587.18
214.27	1781.73
214.49	1607.66
214.71	1681.38
214.93	1722.34
215.15	1648.61
215.37	1742.82
215.59	1634.28
215.81	1708.01
216.03	1808.36
216.24	1724.39
216.46	1669.09
216.68	1730.53
216.90	1763.30
217.12	1726.44
217.34	1658.85
217.56	1751.01
217.78	1763.30
218.00	1712.10
218.22	1726.44
218.44	1767.40
218.66	1738.73
218.87	1763.30
219.09	1697.77
219.31	1755.11
219.53	1759.21
219.75	1677.29
219.97	1658.85
220.19	1640.42
220.41	1716.20
220.63	1730.53
220.85	1726.44
221.06	1673.19
221.28	1783.78
221.50	1724.39
221.72	1728.49
221.94	1720.29
222.16	1685.48
222.38	1824.74
222.60	1675.24
222.82	1771.49
223.03	1761.25
223.25	1695.72
223.47	1720.29
223.69	1789.92
223.91	1677.29
224.13	1685.48
224.35	1685.48
224.57	1763.30
224.78	1720.29
225.00	1654.76
225.22	1710.05
225.44	1669.09
225.66	1675.24
225.88	1624.04
226.10	1714.15
226.32	1650.66
226.53	1775.59
226.75	1667.05
226.97	1695.72
227.19	1665.00
227.41	1656.81
227.63	1677.29
227.85	1591.27
228.06	1765.35
228.28	1693.67
228.50	1757.16
228.72	1658.85
228.94	1665.00
229.16	1638.38
229.37	1685.48
229.59	1583.08
229.81	1769.44
230.03	1746.92
230.25	1581.03
230.47	1660.90
230.69	1648.61
230.90	1708.01
231.12	1601.51
231.34	1738.73
231.56	1708.01
231.78	1619.94
232.00	1736.68
232.21	1697.77
232.43	1722.34
232.65	1597.42
232.87	1693.67
233.09	1619.94
233.30	1572.84
233.52	1697.77
233.74	1730.53
233.96	1617.90
234.18	1679.33
234.40	1665.00
234.61	1785.83
234.83	1585.13
235.05	1587.18
235.27	1804.26
235.49	1705.96
235.70	1734.63
235.92	1777.64
236.14	1738.73
236.36	1884.13
236.58	1636.33
236.79	1728.49
237.01	1708.01
237.23	1701.86
237.45	1796.07
237.67	1714.15
237.88	1742.82
238.10	1822.69
238.32	1667.05
238.54	1710.05
238.76	1658.85
238.97	1697.77
239.19	1648.61
239.41	1753.06
239.63	1767.40
239.85	1693.67
240.06	1634.28
240.28	1648.61
240.50	1720.29
240.72	1708.01
240.93	1677.29
241.15	1763.30
241.37	1691.62
241.59	1761.25
241.81	1740.77
242.02	1689.57
242.24	1685.48
242.46	1757.16
242.68	1636.33
242.89	1714.15
243.11	1695.72
243.33	1646.57
243.55	1708.01
243.76	1679.33
243.98	1673.19
244.20	1648.61
244.42	1699.81
244.64	1705.96
244.85	1658.85
245.07	1681.38
245.29	1718.25
245.51	1726.44
245.72	1687.53
245.94	1703.91
246.16	1716.20
246.38	1763.30
246.59	1640.42
246.81	1703.91
247.03	1703.91
247.24	1638.38
247.46	1630.18
247.68	1693.67
247.90	1718.25
248.11	1697.77
248.33	1669.09
248.55	1718.25
248.77	1726.44
248.98	1675.24
249.20	1800.16
249.42	1689.57
249.64	1710.05
249.85	1722.34
250.07	1687.53
250.29	1724.39
250.50	1742.82
250.72	1693.67
250.94	1722.34
251.16	1830.88
251.37	1755.11
251.59	1675.24
251.81	1742.82
252.02	1685.48
252.24	1574.89
252.46	1689.57
252.68	1619.94
252.89	1705.96
253.11	1658.85
253.33	1798.12
253.54	1665.00
253.76	1624.04
253.98	1650.66
254.20	1673.19
254.41	1644.52
254.63	1617.90
254.85	1609.70
255.06	1724.39
255.28	1742.82
255.50	1665.00
255.71	1667.05
255.93	1658.85
256.15	1716.20
256.36	1787.88
256.58	1599.46
256.80	1683.43
257.02	1794.02
257.23	1626.09
257.45	1640.42
257.67	1757.16
257.88	1689.57
258.10	1648.61
258.32	1738.73
258.53	1722.34
258.75	1705.96
258.97	1720.29
259.18	1705.96
259.40	1771.49
259.62	1783.78
259.83	1814.50
260.05	1732.58
260.27	2035.68
260.48	1740.77
260.70	1667.05
260.92	1628.14
261.13	1656.81
261.35	1671.14
261.57	1695.72
261.78	1648.61
262.00	1714.15
262.22	1710.05
262.43	1611.75
262.65	1576.94
262.86	1673.19
263.08	1794.02
263.30	1691.62
263.51	1630.18
263.73	1646.57
263.95	1771.49
264.16	1691.62
264.38	1683.43
264.60	1648.61
264.81	1595.37
265.03	1718.25
265.25	1726.44
265.46	1656.81
265.68	1794.02
265.89	1738.73
266.11	1595.37
266.33	1742.82
266.54	1783.78
266.76	1785.83
266.98	1791.97
267.19	1773.54
267.41	1730.53
267.62	1705.96
267.84	1562.60
268.06	1746.92
268.27	1732.58
268.49	1806.31
268.70	1722.34
268.92	1712.10
269.14	1564.65
269.35	1640.42
269.57	1644.52
269.79	1738.73
270.00	1646.57
270.22	1722.34
270.43	1634.28
270.65	1667.05
270.87	1646.57
271.08	1673.19
271.30	1724.39
271.51	1748.97
271.73	1742.82
271.95	1789.92
272.16	1669.09
272.38	1763.30
272.59	1671.14
272.81	1701.86
273.02	1730.53
273.24	1769.44
273.46	1765.35
273.67	1665.00
273.89	1693.67
274.10	1693.67
274.32	1732.58
274.54	1671.14
274.75	1718.25
274.97	1632.23
275.18	1757.16
275.40	1761.25
275.61	1673.19
275.83	1667.05
276.05	1611.75
276.26	1656.81
276.48	1734.63
276.69	1675.24
276.91	1642.47
277.12	1740.77
277.34	1753.06
277.55	1697.77
277.77	1728.49
277.99	1673.19
278.20	1624.04
278.42	1576.94
278.63	1662.95
278.85	1587.18
279.06	1624.04
279.28	1736.68
279.49	1730.53
279.71	1708.01
279.93	1710.05
280.14	1761.25
280.36	1593.32
280.57	1726.44
280.79	1718.25
281.00	1712.10
281.22	1753.06
281.43	1710.05
281.65	1630.18
281.86	1705.96
282.08	1755.11
282.29	1839.08
282.51	1621.99
282.73	1562.60
282.94	1619.94
283.16	1767.40
283.37	1771.49
283.59	1640.42
283.80	1724.39
284.02	1746.92
284.23	1697.77
284.45	1710.05
284.66	1632.23
284.88	1617.90
285.09	1728.49
285.31	1771.49
285.52	1714.15
285.74	1652.71
285.95	1751.01
286.17	1734.63
286.38	1720.29
286.60	1667.05
286.81	1671.14
287.03	1646.57
287.24	1703.91
287.46	1755.11
287.67	1685.48
287.89	1806.31
288.10	1738.73
288.32	1763.30
288.53	1744.87
288.75	1630.18
288.96	1687.53
289.18	1654.76
289.39	1736.68
289.61	1714.15
289.82	1794.02
290.04	1730.53
290.25	1624.04
290.47	1759.21
290.68	1669.09
290.90	1705.96
291.11	1605.61
291.33	1761.25
291.54	1638.38
291.76	1667.05
291.97	1726.44
292.18	1718.25
292.40	1654.76
292.61	1703.91
292.83	1861.60
293.04	1746.92
293.26	1734.63
293.47	1652.71
293.69	1662.95
293.90	1665.00
294.12	1824.74
294.33	1755.11
294.55	1730.53
294.76	1718.25
294.97	1763.30
295.19	1828.84
295.40	1687.53
295.62	1658.85
295.83	1730.53
296.05	1634.28
296.26	1841.12
296.48	1648.61
296.69	1679.33
296.90	1728.49
297.12	1697.77
297.33	1730.53
297.55	1724.39
297.76	1710.05
297.98	1812.45
298.19	1677.29
298.41	1630.18
298.62	1681.38
298.83	1781.73
299.05	1726.44
299.26	1697.77
299.48	1658.85
299.69	1767.40
299.90	1775.59
300.12	1611.75
300.33	1716.20
300.55	1673.19
300.76	1781.73
300.98	1615.85
301.19	1703.91
301.40	1611.75
301.62	1624.04
301.83	1716.20
302.05	1665.00
302.26	1681.38
302.47	1771.49
302.69	1671.14
302.90	1679.33
303.12	1605.61
303.33	1705.96
303.54	1804.26
303.76	1697.77
303.97	1708.01
304.19	1779.68
304.40	1644.52
304.61	1759.21
304.83	1800.16
305.04	1781.73
305.26	1630.18
305.47	1632.23
305.68	1675.24
305.90	1585.13
306.11	1669.09
306.33	1695.72
306.54	1646.57
306.75	1591.27
306.97	1648.61
307.18	1644.52
307.39	1644.52
307.61	1783.78
307.82	1738.73
308.04	1730.53
308.25	1648.61
308.46	1619.94
308.68	1667.05
308.89	1722.34
309.10	1794.02
309.32	1708.01
309.53	1755.11
309.74	1734.63
309.96	1646.57
310.17	1814.50
310.39	1679.33
310.60	1685.48
310.81	1738.73
311.03	1632.23
311.24	1742.82
311.45	1716.20
311.67	1716.20
311.88	1759.21
312.09	1662.95
312.31	1660.90
312.52	1683.43
312.73	1734.63
312.95	1621.99
313.16	1699.81
313.37	1740.77
313.59	1740.77
313.80	1808.36
314.01	1800.16
314.23	1611.75
314.44	1636.33
314.65	1685.48
314.87	1656.81
315.08	1673.19
315.29	1697.77
315.51	1599.46
315.72	1624.04
315.93	1769.44
316.15	1800.16
316.36	1589.22
316.57	1787.88
316.79	1767.40
317.00	1753.06
317.21	1693.67
317.43	1640.42
317.64	1773.54
317.85	1624.04
318.07	1658.85
318.28	1753.06
318.49	1794.02
318.70	1857.51
318.92	1820.64
319.13	1781.73
319.34	1853.41
319.56	1837.03
319.77	1851.36
319.98	1761.25
320.20	1722.34
320.41	1759.21
320.62	1746.92
320.83	1650.66
321.05	1855.46
321.26	1683.43
321.47	1695.72
321.69	1751.01
321.90	1626.09
322.11	1699.81
322.32	1648.61
322.54	1761.25
322.75	1656.81
322.96	1892.32
323.18	1621.99
323.39	1574.89
323.60	1658.85
323.81	1710.05
324.03	1714.15
324.24	1642.47
324.45	1665.00
324.66	1654.76
324.88	1689.57
325.09	1683.43
325.30	1734.63
325.52	1710.05
325.73	1720.29
325.94	1638.38
326.15	1665.00
326.37	1677.29
326.58	1755.11
326.79	1771.49
327.00	1615.85
327.22	1730.53
327.43	1654.76
327.64	1665.00
327.85	1697.77
328.07	1718.25
328.28	1826.79
328.49	1753.06
328.70	1724.39
328.92	1748.97
329.13	1673.19
329.34	1755.11
329.55	1834.98
329.76	1732.58
329.98	1667.05
330.19	1742.82
330.40	1718.25
330.61	1675.24
330.83	1691.62
331.04	1632.23
331.25	1742.82
331.46	1687.53
331.68	1626.09
331.89	1761.25
332.10	1724.39
332.31	1597.42
332.52	1652.71
332.74	1767.40
332.95	1511.40
333.16	1753.06
333.37	1677.29
333.58	1673.19
333.80	1746.92
334.01	1626.09
334.22	1724.39
334.43	1697.77
334.64	1689.57
334.86	1605.61
335.07	1613.80
335.28	1802.21
335.49	1603.56
335.70	1763.30
335.92	1824.74
336.13	1730.53
336.34	1642.47
336.55	1660.90
336.76	1759.21
336.98	1658.85
337.19	1724.39
337.40	1783.78
337.61	1796.07
337.82	1634.28
338.04	1839.08
338.25	1642.47
338.46	1560.55
338.67	1652.71
338.88	1685.48
339.09	1665.00
339.31	1734.63
339.52	1632.23
339.73	1607.66
339.94	1630.18
340.15	1763.30
340.36	1658.85
340.58	1742.82
340.79	1630.18
341.00	1757.16
341.21	1638.38
341.42	1683.43
341.63	1726.44
341.85	1726.44
342.06	1658.85
342.27	1710.05
342.48	1763.30
342.69	1619.94
342.90	1689.57
343.12	1810.40
343.33	1675.24
343.54	1705.96
343.75	1794.02
343.96	1675.24
344.17	1642.47
344.38	1699.81
344.60	1654.76
344.81	1652.71
345.02	1703.91
345.23	1724.39
345.44	1736.68
345.65	1746.92
345.86	1779.68
346.07	1705.96
346.29	1673.19
346.50	1675.24
346.71	1771.49
346.92	1783.78
347.13	1800.16
347.34	1679.33
347.55	1638.38
347.76	1718.25
347.98	1597.42
348.19	1613.80
348.40	1724.39
348.61	1669.09
348.82	1771.49
349.03	1722.34
349.24	1665.00
349.45	1812.45
349.66	1550.31
349.88	1658.85
350.09	1730.53
350.30	1718.25
350.51	1736.68
350.72	1761.25
350.93	1740.77
351.14	1732.58
351.35	1726.44
351.56	1640.42
351.77	1730.53
351.99	1693.67
352.20	1873.89
352.41	1777.64
352.62	1595.37
352.83	1687.53
353.04	1665.00
353.25	1646.57
353.46	1640.42
353.67	1708.01
353.88	1562.60
354.09	1712.10
354.30	1642.47
354.52	1720.29
354.73	1722.34
354.94	1697.77
355.15	1669.09
355.36	1818.60
355.57	1705.96
355.78	1771.49
355.99	1605.61
356.20	1708.01
356.41	1697.77
356.62	1695.72
356.83	1722.34
357.04	1828.84
357.25	1574.89
357.46	1599.46
357.68	1634.28
357.89	1615.85
358.10	1685.48
358.31	1671.14
358.52	1634.28
358.73	1652.71
358.94	1669.09
359.15	1812.45
359.36	1744.87
359.57	1755.11
359.78	1718.25
359.99	1681.38
360.20	1628.14
360.41	1632.23
360.62	1712.10
360.83	1710.05
361.04	1658.85
361.25	1687.53
361.46	1771.49
361.67	1638.38
361.88	1714.15
362.09	1832.93
362.30	1665.00
362.51	1681.38
362.72	1748.97
362.93	1705.96
363.14	1769.44
363.35	1728.49
363.56	1601.51
363.78	1726.44
363.99	1736.68
364.20	1583.08
364.41	1726.44
364.62	1787.88
364.83	1775.59
365.04	1597.42
365.25	1716.20
365.46	1847.27
365.67	1738.73
365.88	1642.47
366.09	1794.02
366.30	1640.42
366.51	1650.66
366.72	1634.28
366.93	1677.29
367.14	1638.38
367.35	1753.06
367.56	1640.42
367.77	1791.97
367.98	1654.76
368.18	1796.07
368.39	1636.33
368.60	1683.43
368.81	1708.01
369.02	1769.44
369.23	1628.14
369.44	1665.00
369.65	1728.49
369.86	1705.96
370.07	1841.12
370.28	1632.23
370.49	1718.25
370.70	1689.57
370.91	1640.42
371.12	1667.05
371.33	1712.10
371.54	1685.48
371.75	1748.97
371.96	1578.98
372.17	1722.34
372.38	1665.00
372.59	1802.21
372.80	1734.63
373.01	1736.68
373.22	1689.57
373.43	1722.34
373.64	1570.79
373.85	1794.02
374.06	1773.54
374.26	1751.01
374.47	1720.29
374.68	1746.92
374.89	1763.30
375.10	1708.01
375.31	1757.16
375.52	1712.10
375.73	1662.95
375.94	1574.89
376.15	1783.78
376.36	1626.09
376.57	1619.94
376.78	1685.48
376.99	1773.54
377.20	1759.21
377.40	1695.72
377.61	1808.36
377.82	1613.80
378.03	1839.08
378.24	1705.96
378.45	1650.66
378.66	1648.61
378.87	1583.08
379.08	1677.29
379.29	1589.22
379.50	1800.16
379.71	1730.53
379.91	1759.21
380.12	1714.15
380.33	1675.24
380.54	1656.81
380.75	1673.19
380.96	1726.44
381.17	1789.92
381.38	1769.44
381.59	1695.72
381.80	1740.77
382.00	1859.56
382.21	1656.81
382.42	1816.55
382.63	1888.23
382.84	1718.25
383.05	1718.25
383.26	1845.22
383.47	1705.96
383.68	1689.57
383.88	1722.34
384.09	1722.34
384.30	1705.96
384.51	1710.05
384.72	1701.86
384.93	1632.23
385.14	1683.43
385.35	1755.11
385.55	1681.38
385.76	1769.44
385.97	1632.23
386.18	1691.62
386.39	1755.11
386.60	1714.15
386.81	1634.28
387.02	1609.70
387.22	1679.33
387.43	1783.78
387.64	1759.21
387.85	1918.95
388.06	2189.28
388.27	4339.65
388.48	6764.44
388.68	8284.03
388.89	9574.25
389.10	9799.53
389.31	8589.18
389.52	7647.12
389.73	6686.62
389.93	6311.84
390.14	5765.03
390.35	5156.79
390.56	4507.58
390.77	3729.35
390.98	3026.90
391.18	2521.05
391.39	2146.27
391.60	1830.88
391.81	1767.40
392.02	1730.53
392.23	1851.36
392.43	1755.11
392.64	1730.53
392.85	1728.49
393.06	1818.60
393.27	1705.96
393.47	1650.66
393.68	1781.73
393.89	1675.24
394.10	1722.34
394.31	1636.33
394.52	1710.05
394.72	1710.05
394.93	1763.30
395.14	1648.61
395.35	1820.64
395.56	1685.48
395.76	1699.81
395.97	1710.05
396.18	1853.41
396.39	1800.16
396.60	1929.19
396.80	2031.58
397.01	1775.59
397.22	1875.94
397.43	1808.36
397.64	1714.15
397.84	1806.31
398.05	1853.41
398.26	1769.44
398.47	1759.21
398.67	1800.16
398.88	1738.73
399.09	1755.11
399.30	1689.57
399.51	1740.77
399.71	1685.48
399.92	1718.25
400.13	1716.20
400.34	1650.66
400.54	1656.81
400.75	1873.89
400.96	1720.29
401.17	1751.01
401.37	1751.01
401.58	1753.06
401.79	1708.01
402.00	1933.28
402.21	1984.48
402.41	1847.27
402.62	1947.62
402.83	2045.92
403.04	1982.43
403.24	2031.58
403.45	1900.52
403.66	1982.43
403.87	1822.69
404.07	1920.99
404.28	1943.52
404.49	1814.50
404.70	1771.49
404.90	1746.92
405.11	1683.43
405.32	1740.77
405.52	1769.44
405.73	1675.24
405.94	1679.33
406.15	1654.76
406.35	1714.15
406.56	1839.08
406.77	1724.39
406.98	1740.77
407.18	1705.96
407.39	1783.78
407.60	1681.38
407.80	1681.38
408.01	1683.43
408.22	1705.96
408.43	1673.19
408.63	1718.25
408.84	1769.44
409.05	1656.81
409.25	1640.42
409.46	1619.94
409.67	1681.38
409.88	1673.19
410.08	1765.35
410.29	1634.28
410.50	1738.73
410.70	1683.43
410.91	1681.38
411.12	1708.01
411.32	1744.87
411.53	1724.39
411.74	1837.03
411.95	1814.50
412.15	1769.44
412.36	1779.68
412.57	1683.43
412.77	1783.78
412.98	1765.35
413.19	1775.59
413.39	1751.01
413.60	1699.81
413.81	1863.65
414.01	1644.52
414.22	1794.02
414.43	1742.82
414.63	1640.42
414.84	1761.25
415.05	1701.86
415.25	1581.03
415.46	1726.44
415.67	1732.58
415.87	1740.77
416.08	1708.01
416.29	1624.04
416.49	1757.16
416.70	1640.42
416.91	1669.09
417.11	1767.40
417.32	1763.30
417.53	1798.12
417.73	1691.62
417.94	1673.19
418.15	1716.20
418.35	1757.16
418.56	1691.62
418.77	1814.50
418.97	1691.62
419.18	1685.48
419.38	1564.65
419.59	1675.24
419.80	1865.70
420.00	1605.61
420.21	1660.90
420.42	1755.11
420.62	1705.96
420.83	1660.90
421.04	1712.10
421.24	1722.34
421.45	1732.58
421.65	1798.12
421.86	1683.43
422.07	1767.40
422.27	1751.01
422.48	1712.10
422.69	1730.53
422.89	1687.53
423.10	1650.66
423.30	1714.15
423.51	1755.11
423.72	1720.29
423.92	1693.67
424.13	1613.80
424.33	1660.90
424.54	1748.97
424.75	1705.96
424.95	1841.12
425.16	1742.82
425.36	1728.49
425.57	1714.15
425.78	1730.53
425.98	1767.40
426.19	1738.73
426.39	1683.43
426.60	1742.82
426.81	1787.88
427.01	1710.05
427.22	1675.24
427.42	1714.15
427.63	1687.53
427.83	1712.10
428.04	1783.78
428.25	1798.12
428.45	1759.21
428.66	1808.36
428.86	1714.15
429.07	1730.53
429.28	1722.34
429.48	1644.52
429.69	1665.00
429.89	1732.58
430.10	1660.90
430.30	1757.16
430.51	1806.31
430.71	1695.72
430.92	1665.00
431.13	1708.01
431.33	1753.06
431.54	1701.86
431.74	1830.88
431.95	1808.36
432.15	1613.80
432.36	1619.94
432.56	1679.33
432.77	1826.79
432.98	1779.68
433.18	1785.83
433.39	1683.43
433.59	1689.57
433.80	1824.74
434.00	1875.94
434.21	1656.81
434.41	1634.28
434.62	1871.84
434.82	1646.57
435.03	1669.09
435.23	1652.71
435.44	1581.03
435.64	1722.34
435.85	1689.57
436.06	1761.25
436.26	1853.41
436.47	1708.01
436.67	1693.67
436.88	1726.44
437.08	1730.53
437.29	1757.16
437.49	1732.58
437.70	1730.53
437.90	1683.43
438.11	1818.60
438.31	1828.84
438.52	1855.46
438.72	1789.92
438.93	1837.03
439.13	1726.44
439.34	1859.56
439.54	1697.77
439.75	1822.69
439.95	1748.97
440.16	1691.62
440.36	1791.97
440.57	1783.78
440.77	1837.03
440.98	1728.49
441.18	1744.87
441.39	1648.61
441.59	1697.77
441.80	1839.08
442.00	1683.43
442.21	1779.68
442.41	1691.62
442.62	1804.26
442.82	1677.29
443.02	1685.48
443.23	1800.16
443.43	1613.80
443.64	1808.36
443.84	1624.04
444.05	1871.84
444.25	1785.83
444.46	1746.92
444.66	1771.49
444.87	1814.50
445.07	1673.19
445.28	1712.10
445.48	1779.68
445.69	1820.64
445.89	1880.04
446.09	1789.92
446.30	2013.15
446.50	2607.06
446.71	3624.90
446.91	4274.11
447.12	4671.42
447.32	4784.06
447.53	4339.65
447.73	3823.56
447.93	3596.23
448.14	3219.41
448.34	3266.51
448.55	2889.68
448.75	2885.59
448.96	2697.17
449.16	2465.75
449.36	2164.70
449.57	2056.16
449.77	1867.75
449.98	1800.16
450.18	1800.16
450.39	1828.84
450.59	1802.21
450.79	1789.92
451.00	1667.05
451.20	1742.82
451.41	1734.63
451.61	1791.97
451.81	1708.01
452.02	1740.77
452.22	1724.39
452.43	1757.16
452.63	1736.68
452.84	1714.15
453.04	1748.97
453.24	1769.44
453.45	1570.79
453.65	1677.29
453.86	1740.77
454.06	1724.39
454.26	1730.53
454.47	1685.48
454.67	1787.88
454.87	1701.86
455.08	1689.57
455.28	1798.12
455.49	1748.97
455.69	1703.91
455.89	1816.55
456.10	1777.64
456.30	1746.92
456.51	1753.06
456.71	1806.31
456.91	1751.01
457.12	1812.45
457.32	1808.36
457.52	1599.46
457.73	1748.97
457.93	1748.97
458.14	1763.30
458.34	1658.85
458.54	1753.06
458.75	1697.77
458.95	1818.60
459.15	1832.93
459.36	1794.02
459.56	1742.82
459.76	1832.93
459.97	1753.06
460.17	1710.05
460.37	1794.02
460.58	1761.25
460.78	1730.53
460.99	1708.01
461.19	1724.39
461.39	1693.67
461.60	1693.67
461.80	1742.82
462.00	1693.67
462.21	1746.92
462.41	1710.05
462.61	1681.38
462.82	1650.66
463.02	1767.40
463.22	1693.67
463.43	1726.44
463.63	1802.21
463.83	1783.78
464.04	1732.58
464.24	1695.72
464.44	1662.95
464.64	1574.89
464.85	1765.35
465.05	1728.49
465.25	1654.76
465.46	1724.39
465.66	1765.35
465.86	1789.92
466.07	1660.90
466.27	1728.49
466.47	1621.99
466.68	1675.24
466.88	1734.63
467.08	1753.06
467.29	1716.20
467.49	1761.25
467.69	1724.39
467.89	1724.39
468.10	1697.77
468.30	1834.98
468.50	1787.88
468.71	1753.06
468.91	1708.01
469.11	1865.70
469.31	1730.53
469.52	1652.71
469.72	1789.92
469.92	1863.65
470.13	1746.92
470.33	1712.10
470.53	1904.61
470.73	2125.79
470.94	2281.44
471.14	2432.99
471.34	2496.47
471.54	2453.47
471.75	2183.13
471.95	2123.74
472.15	2093.02
472.36	2160.61
472.56	2056.16
472.76	2119.65
472.96	1980.39
473.17	1910.75
473.37	1916.90
473.57	1794.02
473.77	1839.08
473.98	1699.81
474.18	1673.19
474.38	1906.66
474.58	1714.15
474.79	1695.72
474.99	1802.21
475.19	1742.82
475.39	1642.47
475.60	1783.78
475.80	1767.40
476.00	1695.72
476.20	1660.90
476.41	1697.77
476.61	1800.16
476.81	1748.97
477.01	1617.90
477.21	1824.74
477.42	1794.02
477.62	1708.01
477.82	1763.30
478.02	1699.81
478.23	1796.07
478.43	1710.05
478.63	1789.92
478.83	1681.38
479.03	1662.95
479.24	1834.98
479.44	1845.22
479.64	1671.14
479.84	1673.19
480.04	1685.48
480.25	1753.06
480.45	1648.61
480.65	1697.77
480.85	1841.12
481.06	1732.58
481.26	1648.61
481.46	1701.86
481.66	1753.06
481.86	1722.34
482.06	1802.21
482.27	1656.81
482.47	1646.57
482.67	1744.87
482.87	1632.23
483.07	1816.55
483.28	1673.19
483.48	1738.73
483.68	1716.20
483.88	1642.47
484.08	1642.47
484.29	1644.52
484.49	1730.53
484.69	1644.52
484.89	1816.55
485.09	1761.25
485.29	1800.16
485.50	1720.29
485.70	1660.90
485.90	1824.74
486.10	1703.91
486.30	1671.14
486.50	1769.44
486.71	1691.62
486.91	1736.68
487.11	1771.49
487.31	1587.18
487.51	1740.77
487.71	1691.62
487.91	1630.18
488.12	1726.44
488.32	1675.24
488.52	1634.28
488.72	1624.04
488.92	1738.73
489.12	1701.86
489.32	1794.02
489.53	1767.40
489.73	1597.42
489.93	1857.51
490.13	1689.57
490.33	1630.18
490.53	1726.44
490.73	1847.27
490.94	1597.42
491.14	1775.59
491.34	1808.36
491.54	2078.69
491.74	2502.62
491.94	2887.64
492.14	3006.42
492.34	2901.97
492.54	2764.76
492.75	2480.09
492.95	2443.23
493.15	2340.83
493.35	2285.53
493.55	2179.04
493.75	2197.47
493.95	2203.61
494.15	1902.56
494.35	1875.94
494.56	1802.21
494.76	1779.68
494.96	1708.01
495.16	1771.49
495.36	1708.01
495.56	1736.68
495.76	1685.48
495.96	1683.43
496.16	1687.53
496.36	1843.17
496.56	1681.38
496.77	1753.06
496.97	1701.86
497.17	1794.02
497.37	1714.15
497.57	1767.40
497.77	1806.31
497.97	1683.43
498.17	1701.86
498.37	1640.42
498.57	1734.63
498.77	1634.28
498.97	1773.54
499.17	1845.22
499.38	1816.55
499.58	1763.30
499.78	1802.21
499.98	1802.21
500.18	1716.20
500.38	1699.81
500.58	1886.18
500.78	2478.04
500.98	4585.40
501.18	5818.28
501.38	6649.75
501.58	6913.94
501.78	6424.48
501.98	5472.17
502.18	4976.56
502.38	4429.76
502.58	4083.65
502.78	3739.59
502.98	3608.52
503.18	3520.46
503.38	3110.86
503.59	2863.06
503.79	2605.02
503.99	2529.24
504.19	2289.63
504.39	2176.99
504.59	2105.31
504.79	2084.83
504.99	2062.30
505.19	1949.67
505.39	1947.62
505.59	1890.28
505.79	1890.28
505.99	1828.84
506.19	1695.72
506.39	1912.80
506.59	1824.74
506.79	1748.97
506.99	1841.12
507.19	1775.59
507.39	1769.44
507.59	1644.52
507.79	1724.39
507.99	1693.67
508.19	1726.44
508.39	1705.96
508.59	1701.86
508.79	1877.99
508.99	1837.03
509.19	1746.92
509.39	1812.45
509.59	1703.91
509.79	1800.16
509.99	1644.52
510.19	1841.12
510.39	1814.50
510.59	1701.86
510.79	1740.77
510.99	1699.81
511.19	1730.53
511.39	1847.27
511.59	1769.44
511.79	1832.93
511.99	1777.64
512.19	1800.16
512.38	1759.21
512.58	1734.63
512.78	1667.05
512.98	1810.40
513.18	1814.50
513.38	1677.29
513.58	1824.74
513.78	1710.05
513.98	1673.19
514.18	1673.19
514.38	1714.15
514.58	1734.63
514.78	1691.62
514.98	1671.14
515.18	1787.88
515.38	1748.97
515.58	1894.37
515.78	1724.39
515.98	1718.25
516.18	1769.44
516.38	1816.55
516.57	1646.57
516.77	1656.81
516.97	1769.44
517.17	1656.81
517.37	1644.52
517.57	1773.54
517.77	1693.67
517.97	1669.09
518.17	1708.01
518.37	1689.57
518.57	1730.53
518.77	1757.16
518.97	1691.62
519.16	1769.44
519.36	1826.79
519.56	1677.29
519.76	1687.53
519.96	1738.73
520.16	1789.92
520.36	1701.86
520.56	1748.97
520.76	1695.72
520.96	1730.53
521.16	1699.81
521.35	1814.50
521.55	1796.07
521.75	1695.72
521.95	1681.38
522.15	1654.76
522.35	1640.42
522.55	1693.67
522.75	1728.49
522.95	1732.58
523.14	1658.85
523.34	1781.73
523.54	1718.25
523.74	1765.35
523.94	1720.29
524.14	1683.43
524.34	1712.10
524.54	1785.83
524.73	1761.25
524.93	1834.98
525.13	1722.34
525.33	1624.04
525.53	1892.32
525.73	1763.30
525.93	1742.82
526.13	1734.63
526.32	1730.53
526.52	1781.73
526.72	1812.45
526.92	1667.05
527.12	1677.29
527.32	1691.62
527.52	1765.35
527.71	1800.16
527.91	1693.67
528.11	1740.77
528.31	1738.73
528.51	1665.00
528.71	1624.04
528.90	1794.02
529.10	1822.69
529.30	1855.46
529.50	1644.52
529.70	1804.26
529.90	1769.44
530.09	1697.77
530.29	1642.47
530.49	1689.57
530.69	1855.46
530.89	1751.01
531.09	1832.93
531.28	1675.24
531.48	1775.59
531.68	1730.53
531.88	1734.63
532.08	1796.07
532.28	1732.58
532.47	1640.42
532.67	1824.74
532.87	1759.21
533.07	1673.19
533.27	1806.31
533.46	1736.68
533.66	1714.15
533.86	1679.33
534.06	1759.21
534.26	1746.92
534.45	1767.40
534.65	1689.57
534.85	1728.49
535.05	1697.77
535.25	1779.68
535.44	1708.01
535.64	1701.86
535.84	1705.96
536.04	1722.34
536.24	1798.12
536.43	1757.16
536.63	1748.97
536.83	1748.97
537.03	1714.15
537.22	1595.37
537.42	1619.94
537.62	1736.68
537.82	1648.61
538.02	1794.02
538.21	1757.16
538.41	1884.13
538.61	1701.86
538.81	1773.54
539.00	1802.21
539.20	1658.85
539.40	1759.21
539.60	1701.86
539.79	1730.53
539.99	1730.53
540.19	1679.33
540.39	1673.19
540.58	1763.30
540.78	1802.21
540.98	1738.73
541.18	1738.73
541.37	1857.51
541.57	1771.49
541.77	1755.11
541.97	1683.43
542.16	1632.23
542.36	1740.77
542.56	1751.01
542.76	1871.84
542.95	1794.02
543.15	1765.35
543.35	1794.02
543.54	1722.34
543.74	1732.58
543.94	1738.73
544.14	1665.00
544.33	1744.87
544.53	1744.87
544.73	1675.24
544.93	1746.92
545.12	1691.62
545.32	1738.73
545.52	1703.91
545.71	1638.38
545.91	1736.68
546.11	1708.01
546.30	1665.00
546.50	1681.38
546.70	1714.15
546.90	1720.29
547.09	1609.70
547.29	1742.82
547.49	1834.98
547.68	1714.15
547.88	1675.24
548.08	1716.20
548.27	2215.90
548.47	1703.91
548.67	1734.63
548.87	1757.16
549.06	1722.34
549.26	1771.49
549.46	1785.83
549.65	1693.67
549.85	1691.62
550.05	1730.53
550.24	1574.89
550.44	1746.92
550.64	1730.53
550.83	1705.96
551.03	1888.23
551.23	1699.81
551.42	1761.25
551.62	1724.39
551.82	1730.53
552.01	1769.44
552.21	1810.40
552.41	1665.00
552.60	1800.16
552.80	1673.19
553.00	1679.33
553.19	1841.12
553.39	1791.97
553.59	1693.67
553.78	1714.15
553.98	1781.73
554.17	1728.49
554.37	1775.59
554.57	1734.63
554.76	1677.29
554.96	1728.49
555.16	1740.77
555.35	1708.01
555.55	1806.31
555.75	1740.77
555.94	1830.88
556.14	1628.14
556.33	1824.74
556.53	1763.30
556.73	1695.72
556.92	1742.82
557.12	1837.03
557.32	1822.69
557.51	1693.67
557.71	1753.06
557.90	1830.88
558.10	1785.83
558.30	1769.44
558.49	1710.05
558.69	1644.52
558.88	1728.49
559.08	1734.63
559.28	1728.49
559.47	1703.91
559.67	1726.44
559.86	1873.89
560.06	1701.86
560.26	1718.25
560.45	1765.35
560.65	1701.86
560.84	1824.74
561.04	1660.90
561.24	1748.97
561.43	1624.04
561.63	1775.59
561.82	1738.73
562.02	1720.29
562.22	1753.06
562.41	1675.24
562.61	1703.91
562.80	1771.49
563.00	1841.12
563.19	1718.25
563.39	1828.84
563.59	1785.83
563.78	1705.96
563.98	1576.94
564.17	1740.77
564.37	1679.33
564.56	1701.86
564.76	1632.23
564.96	1824.74
565.15	1769.44
565.35	1877.99
565.54	1748.97
565.74	1796.07
565.93	1730.53
566.13	1695.72
566.32	1859.56
566.52	1705.96
566.71	1738.73
566.91	1806.31
567.11	1728.49
567.30	1677.29
567.50	1832.93
567.69	1773.54
567.89	1697.77
568.08	1685.48
568.28	1695.72
568.47	1669.09
568.67	1773.54
568.86	1691.62
569.06	1800.16
569.25	1800.16
569.45	1652.71
569.64	1646.57
569.84	1726.44
570.04	1759.21
570.23	1695.72
570.43	1708.01
570.62	1767.40
570.82	1877.99
571.01	1757.16
571.21	1724.39
571.40	1636.33
571.60	1783.78
571.79	1777.64
571.99	1699.81
572.18	1699.81
572.38	1701.86
572.57	1675.24
572.77	1783.78
572.96	1830.88
573.16	1708.01
573.35	1730.53
573.55	1892.32
573.74	1798.12
573.94	1781.73
574.13	1658.85
574.33	1826.79
574.52	1708.01
574.71	1738.73
574.91	1804.26
575.10	1617.90
575.30	1759.21
575.49	1650.66
575.69	1791.97
575.88	1734.63
576.08	1699.81
576.27	1804.26
576.47	1775.59
576.66	1810.40
576.86	1810.40
577.05	1763.30
577.25	1804.26
577.44	1785.83
577.64	1646.57
577.83	1738.73
578.02	1783.78
578.22	1861.60
578.41	1845.22
578.61	1685.48
578.80	1683.43
579.00	1726.44
579.19	1796.07
579.39	1767.40
579.58	1822.69
579.77	1740.77
579.97	1804.26
580.16	1828.84
580.36	1828.84
580.55	1824.74
580.75	1849.32
580.94	1789.92
581.13	1839.08
581.33	1939.43
581.52	1728.49
581.72	1789.92
581.91	1822.69
582.11	1794.02
582.30	1787.88
582.49	1757.16
582.69	1863.65
582.88	1726.44
583.08	1742.82
583.27	1798.12
583.47	1748.97
583.66	1734.63
583.85	1665.00
584.05	1812.45
584.24	1775.59
584.44	1722.34
584.63	1796.07
584.82	1820.64
585.02	1867.75
585.21	1828.84
585.41	1775.59
585.60	1783.78
585.79	1978.34
585.99	1884.13
586.18	1820.64
586.37	2170.85
586.57	3407.82
586.76	10041.19
586.96	24616.58
587.15	34440.69
587.34	40293.79
587.54	42161.53
587.73	36232.66
587.93	26199.66
588.12	21595.83
588.31	18269.93
588.51	16267.02
588.70	15384.34
588.89	14249.77
589.09	12396.35
589.28	10956.63
589.47	9463.66
589.67	7896.97
589.86	6438.81
590.06	4917.17
590.25	3964.87
590.44	3082.19
590.64	2648.02
590.83	2277.34
591.02	2062.30
591.22	1974.24
591.41	1916.90
591.60	1843.17
591.80	1908.71
591.99	1748.97
592.18	1736.68
592.38	1818.60
592.57	1742.82
592.76	1699.81
592.96	1773.54
593.15	1716.20
593.34	1763.30
593.54	1693.67
593.73	1738.73
593.92	1802.21
594.12	1722.34
594.31	1757.16
594.50	1859.56
594.70	1746.92
594.89	1841.12
595.08	1650.66
595.28	1845.22
595.47	1988.58
595.66	1740.77
595.86	1712.10
596.05	1783.78
596.24	1658.85
596.43	1822.69
596.63	1798.12
596.82	1714.15
597.01	1718.25
597.21	1871.84
597.40	1810.40
597.59	1658.85
597.79	1701.86
597.98	1765.35
598.17	1769.44
598.36	1789.92
598.56	1648.61
598.75	1691.62
598.94	1773.54
599.14	1736.68
599.33	1681.38
599.52	1718.25
599.71	1718.25
599.91	1796.07
600.10	1740.77
600.29	1726.44
600.48	1789.92
600.68	1787.88
600.87	1771.49
601.06	1671.14
601.26	1720.29
601.45	1728.49
601.64	1644.52
601.83	1839.08
602.03	1703.91
602.22	1640.42
602.41	1802.21
602.60	1847.27
602.80	1791.97
602.99	1822.69
603.18	1724.39
603.37	1685.48
603.57	1779.68
603.76	1787.88
603.95	1740.77
604.14	1716.20
604.34	1677.29
604.53	1710.05
604.72	1728.49
604.91	1759.21
605.10	1691.62
605.30	1705.96
605.49	1869.80
605.68	1710.05
605.87	1800.16
606.07	1703.91
606.26	1771.49
606.45	1800.16
606.64	1791.97
606.84	1742.82
607.03	1787.88
607.22	1777.64
607.41	1634.28
607.60	1695.72
607.80	1736.68
607.99	1675.24
608.18	1679.33
608.37	1785.83
608.56	1714.15
608.76	1775.59
608.95	1812.45
609.14	1767.40
609.33	1771.49
609.52	1755.11
609.72	1710.05
609.91	1783.78
610.10	1732.58
610.29	1779.68
610.48	1681.38
610.68	1753.06
610.87	1695.72
611.06	1771.49
611.25	1744.87
611.44	1804.26
611.63	1710.05
611.83	1787.88
612.02	1597.42
612.21	1761.25
612.40	1603.56
612.59	1621.99
612.79	1712.10
612.98	1708.01
613.17	1830.88
613.36	1714.15
613.55	1824.74
613.74	1669.09
613.93	1718.25
614.13	1699.81
614.32	1779.68
614.51	1738.73
614.70	1759.21
614.89	1740.77
615.08	1710.05
615.28	2146.27
615.47	1605.61
615.66	1802.21
615.85	1710.05
616.04	1783.78
616.23	1785.83
616.42	1763.30
616.62	1783.78
616.81	1708.01
617.00	1748.97
617.19	1789.92
617.38	1701.86
617.57	1728.49
617.76	1757.16
617.95	1767.40
618.15	1777.64
618.34	1740.77
618.53	1673.19
618.72	1769.44
618.91	1734.63
619.10	1814.50
619.29	1675.24
619.48	1755.11
619.68	1642.47
619.87	1755.11
620.06	1617.90
620.25	1779.68
620.44	1665.00
620.63	1730.53
620.82	1759.21
621.01	1705.96
621.20	1710.05
621.39	1710.05
621.59	1794.02
621.78	1734.63
621.97	1650.66
622.16	1720.29
622.35	1748.97
622.54	1732.58
622.73	1769.44
622.92	1601.51
623.11	1794.02
623.30	1679.33
623.49	1757.16
623.68	1634.28
623.88	1732.58
624.07	1656.81
624.26	1708.01
624.45	1732.58
624.64	1667.05
624.83	1757.16
625.02	1761.25
625.21	1730.53
625.40	1669.09
625.59	1808.36
625.78	1785.83
625.97	1789.92
626.16	1748.97
626.35	1742.82
626.54	1722.34
626.74	1875.94
626.93	1673.19
627.12	1667.05
627.31	1818.60
627.50	1738.73
627.69	1822.69
627.88	1716.20
628.07	1677.29
628.26	1603.56
628.45	1710.05
628.64	1652.71
628.83	1787.88
629.02	1595.37
629.21	1740.77
629.40	1695.72
629.59	1665.00
629.78	1673.19
629.97	1697.77
630.16	1740.77
630.35	1722.34
630.54	1710.05
630.73	1763.30
630.92	1609.70
631.11	1669.09
631.30	1656.81
631.49	1748.97
631.68	1773.54
631.87	1748.97
632.06	1632.23
632.25	1834.98
632.44	1667.05
632.63	1714.15
632.82	1705.96
633.01	1669.09
633.20	1656.81
633.39	1681.38
633.58	1669.09
633.77	1736.68
633.96	1705.96
634.15	1722.34
634.34	1683.43
634.53	1837.03
634.72	1619.94
634.91	1710.05
635.10	1783.78
635.29	1804.26
635.48	1626.09
635.67	1712.10
635.86	1609.70
636.05	1730.53
636.24	1714.15
636.43	1722.34
636.62	1773.54
636.81	1583.08
637.00	1691.62
637.19	1769.44
637.38	1720.29
637.57	1714.15
637.76	1689.57
637.95	1746.92
638.14	1667.05
638.33	1687.53
638.52	1714.15
638.71	1697.77
638.89	1644.52
639.08	1761.25
639.27	1759.21
639.46	1636.33
639.65	1787.88
639.84	1759.21
640.03	1714.15
640.22	1695.72
640.41	1802.21
640.60	1613.80
640.79	1646.57
640.98	1720.29
641.17	1757.16
641.36	1736.68
641.55	1779.68
641.74	1591.27
641.92	1716.20
642.11	1691.62
642.30	1763.30
642.49	1703.91
642.68	1691.62
642.87	1695.72
643.06	1732.58
643.25	1660.90
643.44	1705.96
643.63	1669.09
643.82	1787.88
644.00	1667.05
644.19	1687.53
644.38	1681.38
644.57	1783.78
644.76	1677.29
644.95	1660.90
645.14	1705.96
645.33	1761.25
645.52	1746.92
645.71	1685.48
645.89	1699.81
646.08	1675.24
646.27	1740.77
646.46	1816.55
646.65	1644.52
646.84	1748.97
647.03	1665.00
647.22	1730.53
647.40	1767.40
647.59	1652.71
647.78	1644.52
647.97	1726.44
648.16	1636.33
648.35	1839.08
648.54	1761.25
648.73	1730.53
648.91	1742.82
649.10	1738.73
649.29	1650.66
649.48	1708.01
649.67	1675.24
649.86	1699.81
650.05	1679.33
650.23	1755.11
650.42	1617.90
650.61	1826.79
650.80	1730.53
650.99	1871.84
651.18	1718.25
651.36	1728.49
651.55	1718.25
651.74	1712.10
651.93	1726.44
652.12	1691.62
652.31	1771.49
652.49	1689.57
652.68	1730.53
652.87	1800.16
653.06	1798.12
653.25	1781.73
653.44	1734.63
653.62	1744.87
653.81	1689.57
654.00	1722.34
654.19	1755.11
654.38	1785.83
654.56	1681.38
654.75	1665.00
654.94	1718.25
655.13	1660.90
655.32	1734.63
655.51	1748.97
655.69	1701.86
655.88	1845.22
656.07	1638.38
656.26	1751.01
656.45	1585.13
656.63	1703.91
656.82	1726.44
657.01	1816.55
657.20	1648.61
657.38	1701.86
657.57	1738.73
657.76	1597.42
657.95	1703.91
658.14	1665.00
658.32	1701.86
658.51	1697.77
658.70	1730.53
658.89	1681.38
659.08	1708.01
659.26	1794.02
659.45	1611.75
659.64	1763.30
659.83	1583.08
660.01	1892.32
660.20	1746.92
660.39	1816.55
660.58	1527.78
660.76	1714.15
660.95	1650.66
661.14	1722.34
661.33	1662.95
661.51	1650.66
661.70	1615.85
661.89	1730.53
662.08	1773.54
662.26	1656.81
662.45	1648.61
662.64	1761.25
662.83	1800.16
663.01	1636.33
663.20	1736.68
663.39	1765.35
663.58	1646.57
663.76	1697.77
663.95	1716.20
664.14	1646.57
664.32	1677.29
664.51	1685.48
664.70	1599.46
664.89	1779.68
665.07	1636.33
665.26	1798.12
665.45	1540.07
665.64	1740.77
665.82	1769.44
666.01	1796.07
666.20	1673.19
666.38	1839.08
666.57	1779.68
666.76	2220.00
666.95	4429.76
667.13	10399.59
667.32	15202.07
667.51	17667.83
667.69	18902.75
667.88	17682.16
668.07	12201.80
668.25	9295.73
668.44	7931.78
668.63	7362.45
668.81	6748.06
669.00	6172.58
669.19	5646.25
669.38	5093.30
669.56	4579.26
669.75	4022.21
669.94	3473.36
670.12	2926.55
670.31	2519.00
670.50	2246.62
670.68	2041.82
670.87	1982.43
671.06	1705.96
671.24	1785.83
671.43	1890.28
671.62	1748.97
671.80	1765.35
671.99	1822.69
672.18	1718.25
672.36	1665.00
672.55	1779.68
672.74	1744.87
672.92	1718.25
673.11	1845.22
673.29	1652.71
673.48	1718.25
673.67	1662.95
673.85	1812.45
674.04	1708.01
674.23	1755.11
674.41	1824.74
674.60	1634.28
674.79	1634.28
674.97	1699.81
675.16	1773.54
675.34	1798.12
675.53	1732.58
675.72	1667.05
675.90	1824.74
676.09	1708.01
676.28	1695.72
676.46	1652.71
676.65	1710.05
676.83	1619.94
677.02	1763.30
677.21	1708.01
677.39	1781.73
677.58	1736.68
677.77	1654.76
677.95	1648.61
678.14	1710.05
678.32	1708.01
678.51	1712.10
678.70	1824.74
678.88	1624.04
679.07	1705.96
679.25	1660.90
679.44	1689.57
679.63	1619.94
679.81	1701.86
680.00	1691.62
680.18	1804.26
680.37	1816.55
680.55	1736.68
680.74	1652.71
680.93	1675.24
681.11	1669.09
681.30	1724.39
681.48	1773.54
681.67	1689.57
681.85	1724.39
682.04	1730.53
682.23	1781.73
682.41	1718.25
682.60	1650.66
682.78	1699.81
682.97	1693.67
683.15	1773.54
683.34	1656.81
683.53	1824.74
683.71	1609.70
683.90	1820.64
684.08	1771.49
684.27	1783.78
684.45	1671.14
684.64	1771.49
684.82	1656.81
685.01	1691.62
685.19	1771.49
685.38	1765.35
685.57	1679.33
685.75	1634.28
685.94	1640.42
686.12	1742.82
686.31	1677.29
686.49	1837.03
686.68	1626.09
686.86	1716.20
687.05	1669.09
687.23	1718.25
687.42	1650.66
687.60	1642.47
687.79	1650.66
687.97	1851.36
688.16	1744.87
688.34	1726.44
688.53	1615.85
688.71	1773.54
688.90	1816.55
689.08	1683.43
689.27	1595.37
689.45	1804.26
689.64	1683.43
689.82	1769.44
690.01	1787.88
690.19	1789.92
690.38	1656.81
690.56	1753.06
690.75	1679.33
690.93	1656.81
691.12	1632.23
691.30	1705.96
691.49	1738.73
691.67	1656.81
691.86	1769.44
692.04	1726.44
692.23	1617.90
692.41	1738.73
692.60	1775.59
692.78	1732.58
692.97	1665.00
693.15	1734.63
693.34	1828.84
693.52	1773.54
693.71	1689.57
693.89	1681.38
694.08	1675.24
694.26	1771.49
694.44	1742.82
694.63	1755.11
694.81	1667.05
695.00	1593.32
695.18	1771.49
695.37	1884.13
695.55	1714.15
695.74	1718.25
695.92	1638.38
696.10	1847.27
696.29	1640.42
696.47	1679.33
696.66	1679.33
696.84	1740.77
697.03	1703.91
697.21	1828.84
697.40	2279.39
697.58	1783.78
697.76	1724.39
697.95	1708.01
698.13	1667.05
698.32	1724.39
698.50	1681.38
698.68	1724.39
698.87	1650.66
699.05	1755.11
699.24	1673.19
699.42	1701.86
699.61	1703.91
699.79	1705.96
699.97	1716.20
700.16	1691.62
700.34	1638.38
700.53	1671.14
700.71	1820.64
700.89	1796.07
701.08	1687.53
701.26	1677.29
701.45	2123.74
701.63	1732.58
701.81	1734.63
702.00	1646.57
702.18	1636.33
702.37	1689.57
702.55	1783.78
702.73	1724.39
702.92	1697.77
703.10	1810.40
703.28	1740.77
703.47	1605.61
703.65	1806.31
703.84	1763.30
704.02	1683.43
704.20	1789.92
704.39	1689.57
704.57	1693.67
704.75	1751.01
704.94	1781.73
705.12	1697.77
705.30	1759.21
705.49	2285.53
705.67	4485.05
705.86	9424.75
706.04	12603.20
706.22	14391.08
706.41	15406.87
706.59	13674.29
706.77	9631.60
706.96	7276.43
707.14	6590.36
707.32	6088.61
707.51	5550.00
707.69	4847.54
707.87	4173.76
708.06	3536.84
708.24	2947.03
708.42	2482.14
708.61	2240.48
708.79	1908.71
708.97	1851.36
709.16	1845.22
709.34	1734.63
709.52	1710.05
709.71	1681.38
709.89	1751.01
710.07	1660.90
710.26	1646.57
710.44	1759.21
710.62	1787.88
710.80	1669.09
710.99	1765.35
711.17	1773.54
711.35	1679.33
711.54	1691.62
711.72	1763.30
711.90	1820.64
712.09	1695.72
712.27	1609.70
712.45	1753.06
712.63	1759.21
712.82	1705.96
713.00	1748.97
713.18	1701.86
713.37	1779.68
713.55	1779.68
713.73	1685.48
713.91	1669.09
714.10	1638.38
714.28	1652.71
714.46	1746.92
714.65	1734.63
714.83	1759.21
715.01	1667.05
715.19	1693.67
715.38	1665.00
715.56	1681.38
715.74	1630.18
715.92	1576.94
716.11	1783.78
716.29	1599.46
716.47	1726.44
716.65	1714.15
716.84	1587.18
717.02	1808.36
717.20	1654.76
717.38	1667.05
717.57	1662.95
717.75	1820.64
717.93	1675.24
718.11	1714.15
718.30	1603.56
718.48	1773.54
718.66	1812.45
718.84	1759.21
719.03	1626.09
719.21	1691.62
719.39	1794.02
719.57	1757.16
719.75	1808.36
719.94	1615.85
720.12	1708.01
720.30	1697.77
720.48	1808.36
720.67	1642.47
720.85	1675.24
721.03	1705.96
721.21	1656.81
721.39	1775.59
721.58	1738.73
721.76	1675.24
721.94	1654.76
722.12	1732.58
722.30	1753.06
722.49	1728.49
722.67	1699.81
722.85	1740.77
723.03	1632.23
723.21	1708.01
723.40	1748.97
723.58	1783.78
723.76	1744.87
723.94	1746.92
724.12	1701.86
724.30	1773.54
724.49	1779.68
724.67	1662.95
724.85	1787.88
725.03	1642.47
725.21	1699.81
725.40	1716.20
725.58	1587.18
725.76	1796.07
725.94	1763.30
726.12	1665.00
726.30	1744.87
726.49	1656.81
726.67	1722.34
726.85	1667.05
727.03	1830.88
727.21	2152.42
727.39	2957.27
727.57	3819.46
727.76	4235.20
727.94	4521.92
728.12	4376.51
728.30	3610.57
728.48	3055.57
728.66	2721.75
728.84	2551.77
729.03	2265.05
729.21	2095.07
729.39	1970.15
729.57	1818.60
729.75	1800.16
729.93	1785.83
730.11	1736.68
730.30	1722.34
730.48	1757.16
730.66	1746.92
730.84	1796.07
731.02	1763.30
731.20	1626.09
731.38	1665.00
731.56	1583.08
731.74	1705.96
731.93	1718.25
732.11	1755.11
732.29	1665.00
732.47	1740.77
732.65	1685.48
732.83	1816.55
733.01	1648.61
733.19	1673.19
733.37	1726.44
733.56	1681.38
733.74	1615.85
733.92	1755.11
734.10	1769.44
734.28	1757.16
734.46	1658.85
734.64	1738.73
734.82	1689.57
735.00	1628.14
735.18	1677.29
735.36	1808.36
735.54	1658.85
735.73	1685.48
735.91	1689.57
736.09	1689.57
736.27	1738.73
736.45	1712.10
736.63	1634.28
736.81	1693.67
736.99	1669.09
737.17	1714.15
737.35	1628.14
737.53	1662.95
737.71	1683.43
737.89	1775.59
738.07	1710.05
738.25	1681.38
738.43	1665.00
738.61	1712.10
738.80	1665.00
738.98	1603.56
739.16	1632.23
739.34	1685.48
739.52	1732.58
739.70	1658.85
739.88	1759.21
740.06	1804.26
740.24	1662.95
740.42	1714.15
740.60	1624.04
740.78	1679.33
740.96	1658.85
741.14	1660.90
741.32	1712.10
741.50	1701.86
741.68	1767.40
741.86	1769.44
742.04	1640.42
742.22	1630.18
742.40	1724.39
742.58	1683.43
742.76	1607.66
742.94	1771.49
743.12	1599.46
743.30	1718.25
743.48	1712.10
743.66	1697.77
743.84	1740.77
744.02	1630.18
744.20	1685.48
744.38	1611.75
744.56	1693.67
744.74	1730.53
744.92	1722.34
745.10	1742.82
745.28	1732.58
745.46	1755.11
745.64	1671.14
745.82	1791.97
746.00	1726.44
746.18	1697.77
746.36	1640.42
746.54	1703.91
746.72	1687.53
746.90	1662.95
747.08	1738.73
747.26	1669.09
747.44	1861.60
747.62	1654.76
747.80	1703.91
747.98	1736.68
748.15	1726.44
748.33	1736.68
748.51	1710.05
748.69	1736.68
748.87	1701.86
749.05	1722.34
749.23	1712.10
749.41	1771.49
749.59	1730.53
749.77	1718.25
749.95	1646.57
750.13	1691.62
750.31	1638.38
750.49	1685.48
750.67	1814.50
750.85	1834.98
751.03	1658.85
751.20	1814.50
751.38	1800.16
751.56	1685.48
751.74	1685.48
751.92	1740.77
752.10	1611.75
752.28	1787.88
752.46	1671.14
752.64	1656.81
752.82	1777.64
753.00	1716.20
753.18	1621.99
753.35	1624.04
753.53	1654.76
753.71	1683.43
753.89	1738.73
754.07	1648.61
754.25	1687.53
754.43	1765.35
754.61	1646.57
754.79	1652.71
754.97	1740.77
755.14	1695.72
755.32	1681.38
755.50	1667.05
755.68	1695.72
755.86	1634.28
756.04	1697.77
756.22	1556.46
756.40	1800.16
756.57	1783.78
756.75	1681.38
756.93	1714.15
757.11	1697.77
757.29	1632.23
757.47	1673.19
757.65	1617.90
757.82	1558.50
758.00	1617.90
758.18	1697.77
758.36	1644.52
758.54	1789.92
758.72	1566.70
758.90	1763.30
759.07	1710.05
759.25	1652.71
759.43	1693.67
759.61	1689.57
759.79	2164.70
759.97	1742.82
760.15	1740.77
760.32	1810.40
760.50	1683.43
760.68	1740.77
760.86	1574.89
761.04	1806.31
761.22	1765.35
761.39	1693.67
761.57	1705.96
761.75	1605.61
761.93	1748.97
762.11	1636.33
762.28	1658.85
762.46	1689.57
762.64	1769.44
762.82	1646.57
763.00	1712.10
763.18	1789.92
763.35	1665.00
763.53	1822.69
763.71	1662.95
763.89	1714.15
764.07	1695.72
764.24	1712.10
764.42	1781.73
764.60	1626.09
764.78	1732.58
764.96	1796.07
765.13	1775.59
765.31	1708.01
765.49	1769.44
765.67	1605.61
765.84	1652.71
766.02	1718.25
766.20	1619.94
766.38	1746.92
766.56	1763.30
766.73	1765.35
766.91	1660.90
767.09	1646.57
767.27	1818.60
767.44	1697.77
767.62	1738.73
767.80	1681.38
767.98	1626.09
768.15	1699.81
768.33	1779.68
768.51	1675.24
768.69	1742.82
768.87	1748.97
769.04	1662.95
769.22	1810.40
769.40	1767.40
769.58	1890.28
769.75	1695.72
769.93	1742.82
770.11	1693.67
770.28	1650.66
770.46	1689.57
770.64	1701.86
770.82	1634.28
770.99	1685.48
771.17	1718.25
771.35	1744.87
771.53	1689.57
771.70	1697.77
771.88	1751.01
772.06	1681.38
772.23	1683.43
772.41	1691.62
772.59	1621.99
772.77	1648.61
772.94	1705.96
773.12	1722.34
773.30	1675.24
773.47	1660.90
773.65	1599.46
773.83	1701.86
774.01	1722.34
774.18	1597.42
774.36	1693.67
774.54	1685.48
774.71	1785.83
774.89	1617.90
775.07	1650.66
775.24	1687.53
775.42	1603.56
775.60	1806.31
775.78	1611.75
775.95	1626.09
776.13	1605.61
776.31	1570.79
776.48	1734.63
776.66	1708.01
776.84	1665.00
777.01	1677.29
777.19	1640.42
777.37	1742.82
777.54	1714.15
777.72	1822.69
777.90	1728.49
778.07	1708.01
778.25	1822.69
778.43	1812.45
778.60	1687.53
778.78	1824.74
778.96	1744.87
779.13	1648.61
779.31	1759.21
779.49	1613.80
779.66	1671.14
779.84	1671.14
780.01	1691.62
780.19	1658.85
780.37	1746.92
780.54	1701.86
780.72	1701.86
780.90	1757.16
781.07	1636.33
781.25	1562.60
781.43	1841.12
781.60	1685.48
781.78	1740.77
781.95	1703.91
782.13	1728.49
782.31	1650.66
782.48	1603.56
782.66	1656.81
782.83	1822.69
783.01	1722.34
783.19	1740.77
783.36	1648.61
783.54	1642.47
783.72	1734.63
783.89	1679.33
784.07	1671.14
784.24	1703.91
784.42	1732.58
784.60	1734.63
784.77	1734.63
784.95	1636.33
785.12	1671.14
785.30	1660.90
785.47	1687.53
785.65	1689.57
785.83	1746.92
786.00	1695.72
786.18	1699.81
786.35	1685.48
786.53	1628.14
786.71	1695.72
786.88	1669.09
787.06	1738.73
787.23	1619.94
787.41	1699.81
787.58	1822.69
787.76	1656.81
787.94	1652.71
788.11	1667.05
788.29	1632.23
788.46	1677.29
788.64	1634.28
788.81	1734.63
788.99	1613.80
789.16	1685.48
789.34	1658.85
789.52	1613.80
789.69	1708.01
789.87	1576.94
790.04	1683.43
790.22	1703.91
790.39	1800.16
790.57	1650.66
790.74	1665.00
790.92	1755.11
791.09	1587.18
791.27	1667.05
791.44	1738.73
791.62	1667.05
791.79	1746.92
791.97	1636.33
792.15	1816.55
792.32	1759.21
792.50	1742.82
792.67	1781.73
792.85	1847.27
793.02	1712.10
793.20	1662.95
793.37	1548.26
793.55	1611.75
793.72	1636.33
793.90	1728.49
794.07	1718.25
794.25	1720.29
794.42	1691.62
794.60	1660.90
794.77	1689.57
794.95	1693.67
795.12	1667.05
795.30	1740.77
795.47	1607.66
795.65	1937.38
795.82	1703.91
796.00	1656.81
796.17	1736.68
796.34	1724.39
796.52	1802.21
796.69	1730.53
796.87	1779.68
797.04	1701.86
797.22	1675.24
797.39	1742.82
797.57	1781.73
797.74	1705.96
797.92	1748.97
798.09	1595.37
798.27	1812.45
798.44	1757.16
798.62	1691.62
798.79	1732.58
798.96	1724.39
799.14	1642.47
799.31	1828.84
799.49	1728.49
799.66	1695.72
799.84	1681.38
800.01	1626.09
800.19	1701.86
800.36	1566.70
800.53	1705.96
800.71	1687.53
800.88	1744.87
801.06	1679.33
801.23	1587.18
801.41	1736.68
801.58	1660.90
801.75	1716.20
801.93	1720.29
802.10	1697.77
802.28	1677.29
802.45	1794.02
802.63	1753.06
802.80	1789.92
802.97	1689.57
803.15	1681.38
803.32	1634.28
803.50	1648.61
803.67	1658.85
803.84	1599.46
804.02	1705.96
804.19	1611.75
804.37	1556.46
804.54	1630.18
804.71	1755.11
804.89	1687.53
805.06	1708.01
805.24	1697.77
805.41	1673.19
805.58	1730.53
805.76	1849.32
805.93	1677.29
806.10	1834.98
806.28	1742.82
806.45	1744.87
806.63	1693.67
806.80	1660.90
806.97	1665.00
807.15	1730.53
807.32	1673.19
807.49	1660.90
807.67	1636.33
807.84	1615.85
808.01	1603.56
808.19	1808.36
808.36	1746.92
808.54	1693.67
808.71	1585.13
808.88	1636.33
809.06	1787.88
809.23	1789.92
809.40	1681.38
809.58	1755.11
809.75	1710.05
809.92	1638.38
810.10	1875.94
810.27	1677.29
810.44	1673.19
810.62	1687.53
810.79	1695.72
810.96	1669.09
811.14	1599.46
811.31	1746.92
811.48	1708.01
811.66	1705.96
811.83	1791.97
812.00	1736.68
812.18	1636.33
812.35	1791.97
812.52	1687.53
812.69	1669.09
812.87	1679.33
813.04	1671.14
813.21	1744.87
813.39	1742.82
813.56	1683.43
813.73	1724.39
813.91	1587.18
814.08	1716.20
814.25	1667.05
814.42	1660.90
814.60	1703.91
814.77	1662.95
814.94	1708.01
815.12	1718.25
815.29	1759.21
815.46	1632.23
815.63	1642.47
815.81	1699.81
815.98	1681.38
816.15	1691.62
816.33	1687.53
816.50	1714.15
816.67	1681.38
816.84	1724.39
817.02	1665.00
817.19	1697.77
817.36	1699.81
817.53	1665.00
817.71	1708.01
817.88	1781.73
818.05	1675.24
818.22	1677.29
818.40	1830.88
818.57	1710.05
818.74	1685.48
818.91	1699.81
819.09	1736.68
819.26	1703.91
819.43	1617.90
819.60	1640.42
819.78	1697.77
819.95	1708.01
820.12	1634.28
820.29	1701.86
820.47	1765.35
820.64	1673.19
820.81	1654.76
820.98	1691.62
821.15	1687.53
821.33	1804.26
821.50	1652.71
821.67	1744.87
821.84	1638.38
822.02	1697.77
822.19	1656.81
822.36	1693.67
822.53	1656.81
822.70	1581.03
822.88	1701.86
823.05	1775.59
823.22	1708.01
823.39	1679.33
823.56	1681.38
823.74	1710.05
823.91	1648.61
824.08	1685.48
824.25	1597.42
824.42	1742.82
824.60	1648.61
824.77	1751.01
824.94	1681.38
825.11	1720.29
825.28	1624.04
825.45	1724.39
825.63	1714.15
825.80	1607.66
825.97	1751.01
826.14	1662.95
826.31	1605.61
826.48	1685.48
826.66	1660.90
826.83	1671.14
827.00	1783.78
827.17	1677.29
827.34	1673.19
827.51	1656.81
827.69	1662.95
827.86	1640.42
828.03	1753.06
828.20	1714.15
828.37	1683.43
828.54	1689.57
828.71	1650.66
828.89	1710.05
829.06	1710.05
829.23	1757.16
829.40	1669.09
829.57	1624.04
829.74	1691.62
829.91	1609.70
830.09	1642.47
830.26	1746.92
830.43	1744.87
830.60	1714.15
830.77	1716.20
830.94	1753.06
831.11	1734.63
831.28	1636.33
831.46	1781.73
831.63	1658.85
831.80	1720.29
831.97	1667.05
832.14	1626.09
832.31	1746.92
832.48	1718.25
832.65	1738.73
832.82	1728.49
832.99	1648.61
833.17	1675.24
833.34	1859.56
833.51	1695.72
833.68	1585.13
833.85	1800.16
834.02	1675.24
834.19	1665.00
834.36	1685.48
834.53	1683.43
834.70	1710.05
834.87	1773.54
835.04	1660.90
835.22	1671.14
835.39	1673.19
835.56	1589.22
835.73	1722.34
835.90	1765.35
836.07	1665.00
836.24	1693.67
836.41	1632.23
836.58	1671.14
836.75	1767.40
836.92	1699.81
837.09	1613.80
837.26	1757.16
837.43	1708.01
837.60	1683.43
837.77	1734.63
837.94	1716.20
838.12	1697.77
838.29	1689.57
838.46	1630.18
838.63	1630.18
838.80	1796.07
838.97	1763.30
839.14	1660.90
839.31	1701.86
839.48	1794.02
839.65	1679.33
839.82	1720.29
839.99	1662.95
840.16	1599.46
840.33	1712.10
840.50	1759.21
840.67	1689.57
840.84	1640.42
841.01	1675.24
841.18	1650.66
841.35	1687.53
841.52	1755.11
841.69	1812.45
841.86	1728.49
842.03	1703.91
842.20	1699.81
842.37	1648.61
842.54	1634.28
842.71	1679.33
842.88	1665.00
843.05	1763.30
843.22	1652.71
843.39	1728.49
843.56	1646.57
843.73	1644.52
843.90	1724.39
844.07	1669.09
844.24	1738.73
844.41	1740.77
844.58	1740.77
844.75	1693.67
844.92	1648.61
845.09	1615.85
845.26	1603.56
845.43	1691.62
845.60	1648.61
845.77	1658.85
845.94	1722.34
846.10	1701.86
846.27	1650.66
846.44	1673.19
846.61	1605.61
846.78	1740.77
846.95	1703.91
847.12	1693.67
847.29	1691.62
847.46	1583.08
847.63	1775.59
847.80	1644.52
847.97	1710.05
848.14	1779.68
848.31	1656.81
848.48	1605.61
848.65	1683.43
848.82	1603.56
848.98	1814.50
849.15	1658.85
849.32	1779.68
849.49	1740.77
849.66	1689.57
849.83	1689.57
850.00	1652.71
850.17	1777.64
850.34	1687.53
850.51	1683.43
850.68	1673.19
850.85	1812.45
851.01	1716.20
851.18	1689.57
851.35	1705.96
851.52	1705.96
851.69	1769.44
851.86	1632.23
852.03	1671.14
852.20	1673.19
852.37	1656.81
852.53	1613.80
852.70	1669.09
852.87	1746.92
853.04	1681.38
853.21	1712.10
853.38	1738.73
853.55	1783.78
853.72	1773.54
853.89	1665.00
854.05	1662.95
854.22	1712.10
854.39	1667.05
854.56	1652.71
854.73	1775.59
854.90	1611.75
855.07	1685.48
855.23	1572.84
855.40	1697.77
855.57	1720.29
855.74	1634.28
855.91	1886.18
856.08	1697.77
856.25	1603.56
856.41	1673.19
856.58	1660.90
856.75	1712.10
856.92	1617.90
857.09	1746.92
857.26	1673.19
857.42	1699.81
857.59	1765.35
857.76	1634.28
857.93	1658.85
858.10	1714.15
858.27	1695.72
858.43	1724.39
858.60	1689.57
858.77	1603.56
858.94	1705.96
859.11	1763.30
859.27	1683.43
859.44	1568.74
859.61	1775.59
859.78	1714.15
859.95	1689.57
860.12	1722.34
860.28	1796.07
860.45	1759.21
860.62	1665.00
860.79	1689.57
860.95	1714.15
861.12	1701.86
861.29	1695.72
861.46	1667.05
861.63	1636.33
861.79	1771.49
861.96	1611.75
862.13	1589.22
862.30	1781.73
862.47	1691.62
862.63	1654.76
862.80	1720.29
862.97	1728.49
863.14	1765.35
863.30	1689.57
863.47	1708.01
863.64	1732.58
863.81	1732.58
863.97	1673.19
864.14	1757.16
864.31	1732.58
864.48	1648.61
864.65	1730.53
864.81	1722.34
864.98	1755.11
865.15	1708.01
865.32	1708.01
865.48	1755.11
865.65	1724.39
865.82	1605.61
865.98	1701.86
866.15	1667.05
866.32	1683.43
866.49	1712.10
866.65	1775.59
866.82	1605.61
866.99	1667.05
867.16	1687.53
867.32	1572.84
867.49	1646.57
867.66	1665.00
867.83	1642.47
867.99	1650.66
868.16	1687.53
868.33	1718.25
868.49	1644.52
868.66	1613.80
868.83	1689.57
868.99	1695.72
869.16	1691.62
869.33	1755.11
869.50	1751.01
869.66	1695.72
869.83	1716.20
870.00	1701.86
870.16	1695.72
870.33	1650.66
870.50	1675.24
870.66	1724.39
870.83	1775.59
871.00	1746.92
871.17	1712.10
871.33	1808.36
871.50	1732.58
871.67	1757.16
871.83	1656.81
872.00	1763.30
872.17	1656.81
872.33	1759.21
872.50	1712.10
872.67	1583.08
872.83	1673.19
873.00	1650.66
873.17	1730.53
873.33	1808.36
873.50	1644.52
873.67	1720.29
873.83	1613.80
874.00	1650.66
874.16	1656.81
874.33	1740.77
874.50	1642.47
874.66	1669.09
874.83	1767.40
875.00	1716.20
875.16	1783.78
875.33	1763.30
875.50	1560.55
875.66	1619.94
875.83	1693.67
875.99	1798.12
876.16	1658.85
876.33	1605.61
876.49	1742.82
876.66	1708.01
876.83	1689.57
876.99	1601.51
877.16	1691.62
877.32	1654.76
877.49	1640.42
877.66	1746.92
877.82	1763.30
877.99	1646.57
878.15	1726.44
878.32	1757.16
878.49	1689.57
878.65	1730.53
878.82	1802.21
878.98	1624.04
879.15	1765.35
879.32	1728.49
879.48	1722.34
879.65	1656.81
879.81	1697.77
879.98	1677.29
880.15	1710.05
880.31	1730.53
880.48	1712.10
880.64	1742.82
880.81	1679.33
880.97	1738.73
881.14	1726.44
881.31	1560.55
881.47	1757.16
881.64	1691.62
881.80	1597.42
881.97	1650.66
882.13	1665.00
882.30	1603.56
882.47	1671.14
882.63	1621.99
882.80	1603.56
882.96	1695.72
883.13	1814.50
883.29	1718.25
883.46	1681.38
883.62	1794.02
883.79	1771.49
883.95	1765.35
884.12	1665.00
884.29	1720.29
884.45	1660.90
884.62	1791.97
884.78	1665.00
884.95	1759.21
885.11	1587.18
885.28	1630.18
885.44	1632.23
885.61	1710.05
885.77	1748.97
885.94	1695.72
886.10	1632.23
886.27	1701.86
886.43	1781.73
886.60	1787.88
886.76	1658.85
886.93	1640.42
887.09	1769.44
887.26	1587.18
887.42	1638.38
887.59	1697.77
887.75	1796.07
887.92	1728.49
888.08	1726.44
888.25	1847.27
888.41	1712.10
888.58	1683.43
888.74	1669.09
888.91	1615.85
>>>>>End Processed Spectral Data<<<<<
