SpectraSuite Data File
++++++++++++++++++++++++++++++++++++
Date: Mon Jun 06 14:52:37 CEST 2016
User: root
Dark Spectrum Present: No
Reference Spectrum Present: No
Number of Sampled Component Spectra: 1
Spectrometers: USB4C02835
Integration Time (usec): 100000 (USB4C02835)
Spectra Averaged: 1 (USB4C02835)
Boxcar Smoothing: 0 (USB4C02835)
Correct for Electrical Dark: No (USB4C02835)
Strobe/Lamp Enabled: No (USB4C02835)
Correct for Detector Non-linearity: No (USB4C02835)
Correct for Stray Light: No (USB4C02835)
Number of Pixels in Processed Spectrum: 3648
>>>>>Begin Processed Spectral Data<<<<<
177.47	1509.35
177.69	1509.35
177.91	1509.35
178.13	1429.48
178.36	1437.67
178.58	1677.29
178.80	1662.95
179.02	1632.23
179.24	1652.71
179.46	1720.29
179.68	1703.91
179.90	1630.18
180.13	1751.01
180.35	1644.52
180.57	1630.18
180.79	1677.29
181.01	1705.96
181.23	1703.91
181.45	1781.73
181.67	1675.24
181.90	1714.15
182.12	1665.00
182.34	1665.00
182.56	1722.34
182.78	1720.29
183.00	1689.57
183.22	1798.12
183.44	1624.04
183.66	1822.69
183.89	1724.39
184.11	1665.00
184.33	1718.25
184.55	1796.07
184.77	1781.73
184.99	1726.44
185.21	1722.34
185.43	1853.41
185.65	1759.21
185.87	1697.77
186.10	1837.03
186.32	1839.08
186.54	1746.92
186.76	1742.82
186.98	1738.73
187.20	1615.85
187.42	1632.23
187.64	1652.71
187.86	1675.24
188.08	1869.80
188.30	1583.08
188.52	1648.61
188.75	1832.93
188.97	1845.22
189.19	1660.90
189.41	1685.48
189.63	1716.20
189.85	1722.34
190.07	1636.33
190.29	1665.00
190.51	1652.71
190.73	1628.14
190.95	1777.64
191.17	1753.06
191.39	1544.17
191.61	1722.34
191.84	1705.96
192.06	1693.67
192.28	1601.51
192.50	1902.56
192.72	1667.05
192.94	1685.48
193.16	1718.25
193.38	1740.77
193.60	1644.52
193.82	1718.25
194.04	1730.53
194.26	1662.95
194.48	1703.91
194.70	1679.33
194.92	1646.57
195.14	1701.86
195.36	1681.38
195.58	1665.00
195.80	1662.95
196.02	1763.30
196.24	1677.29
196.46	1718.25
196.69	1703.91
196.91	1882.08
197.13	1673.19
197.35	1634.28
197.57	1759.21
197.79	1693.67
198.01	1777.64
198.23	1722.34
198.45	1681.38
198.67	1662.95
198.89	1687.53
199.11	1738.73
199.33	1716.20
199.55	1611.75
199.77	1730.53
199.99	1730.53
200.21	1675.24
200.43	1691.62
200.65	1601.51
200.87	1529.83
201.09	1708.01
201.31	1710.05
201.53	1669.09
201.75	1695.72
201.97	1681.38
202.19	1748.97
202.41	1699.81
202.63	1863.65
202.85	1744.87
203.07	1679.33
203.29	1687.53
203.51	1689.57
203.73	1619.94
203.95	1851.36
204.17	1681.38
204.39	1763.30
204.61	1677.29
204.83	1673.19
205.05	1740.77
205.27	1740.77
205.49	1783.78
205.71	1714.15
205.93	1675.24
206.15	1695.72
206.37	1685.48
206.59	1656.81
206.81	1626.09
207.03	1630.18
207.25	1550.31
207.47	1718.25
207.69	1693.67
207.91	1732.58
208.13	1767.40
208.34	1634.28
208.56	1640.42
208.78	1697.77
209.00	1636.33
209.22	1691.62
209.44	1689.57
209.66	1634.28
209.88	1673.19
210.10	1693.67
210.32	1746.92
210.54	1726.44
210.76	1689.57
210.98	1712.10
211.20	1568.74
211.42	1681.38
211.64	1726.44
211.86	1740.77
212.08	1738.73
212.30	1652.71
212.52	1689.57
212.74	1705.96
212.96	1742.82
213.17	1722.34
213.39	1720.29
213.61	1796.07
213.83	1724.39
214.05	1619.94
214.27	1783.78
214.49	1681.38
214.71	1705.96
214.93	1757.16
215.15	1712.10
215.37	1738.73
215.59	1636.33
215.81	1677.29
216.03	1818.60
216.24	1665.00
216.46	1673.19
216.68	1712.10
216.90	1775.59
217.12	1759.21
217.34	1673.19
217.56	1794.02
217.78	1779.68
218.00	1787.88
218.22	1701.86
218.44	1816.55
218.66	1773.54
218.87	1804.26
219.09	1650.66
219.31	1746.92
219.53	1726.44
219.75	1667.05
219.97	1658.85
220.19	1757.16
220.41	1564.65
220.63	1744.87
220.85	1722.34
221.06	1695.72
221.28	1708.01
221.50	1724.39
221.72	1738.73
221.94	1730.53
222.16	1777.64
222.38	1777.64
222.60	1791.97
222.82	1701.86
223.03	1722.34
223.25	1632.23
223.47	1771.49
223.69	1794.02
223.91	1769.44
224.13	1773.54
224.35	1693.67
224.57	1726.44
224.78	1722.34
225.00	1667.05
225.22	1636.33
225.44	1701.86
225.66	1769.44
225.88	1632.23
226.10	1755.11
226.32	1761.25
226.53	1794.02
226.75	1697.77
226.97	1667.05
227.19	1685.48
227.41	1665.00
227.63	1638.38
227.85	1607.66
228.06	1779.68
228.28	1734.63
228.50	1681.38
228.72	1718.25
228.94	1697.77
229.16	1628.14
229.37	1722.34
229.59	1632.23
229.81	1748.97
230.03	1636.33
230.25	1593.32
230.47	1669.09
230.69	1640.42
230.90	1710.05
231.12	1656.81
231.34	1712.10
231.56	1773.54
231.78	1607.66
232.00	1763.30
232.21	1734.63
232.43	1648.61
232.65	1660.90
232.87	1689.57
233.09	1662.95
233.30	1650.66
233.52	1681.38
233.74	1669.09
233.96	1738.73
234.18	1685.48
234.40	1675.24
234.61	1765.35
234.83	1634.28
235.05	1630.18
235.27	1806.31
235.49	1804.26
235.70	1671.14
235.92	1779.68
236.14	1710.05
236.36	1759.21
236.58	1660.90
236.79	1691.62
237.01	1681.38
237.23	1703.91
237.45	1853.41
237.67	1662.95
237.88	1640.42
238.10	1851.36
238.32	1642.47
238.54	1736.68
238.76	1644.52
238.97	1662.95
239.19	1660.90
239.41	1697.77
239.63	1779.68
239.85	1675.24
240.06	1656.81
240.28	1634.28
240.50	1751.01
240.72	1689.57
240.93	1703.91
241.15	1759.21
241.37	1689.57
241.59	1730.53
241.81	1607.66
242.02	1730.53
242.24	1769.44
242.46	1736.68
242.68	1689.57
242.89	1796.07
243.11	1748.97
243.33	1734.63
243.55	1724.39
243.76	1710.05
243.98	1611.75
244.20	1697.77
244.42	1710.05
244.64	1665.00
244.85	1574.89
245.07	1683.43
245.29	1644.52
245.51	1628.14
245.72	1689.57
245.94	1761.25
246.16	1699.81
246.38	1669.09
246.59	1685.48
246.81	1673.19
247.03	1677.29
247.24	1648.61
247.46	1646.57
247.68	1611.75
247.90	1662.95
248.11	1654.76
248.33	1818.60
248.55	1669.09
248.77	1648.61
248.98	1738.73
249.20	1738.73
249.42	1650.66
249.64	1705.96
249.85	1656.81
250.07	1685.48
250.29	1730.53
250.50	1818.60
250.72	1609.70
250.94	1722.34
251.16	1789.92
251.37	1708.01
251.59	1683.43
251.81	1710.05
252.02	1800.16
252.24	1667.05
252.46	1783.78
252.68	1687.53
252.89	1648.61
253.11	1630.18
253.33	1800.16
253.54	1791.97
253.76	1601.51
253.98	1658.85
254.20	1757.16
254.41	1621.99
254.63	1683.43
254.85	1732.58
255.06	1693.67
255.28	1656.81
255.50	1697.77
255.71	1634.28
255.93	1630.18
256.15	1656.81
256.36	1671.14
256.58	1624.04
256.80	1755.11
257.02	1730.53
257.23	1710.05
257.45	1724.39
257.67	1789.92
257.88	1652.71
258.10	1667.05
258.32	1718.25
258.53	1675.24
258.75	1787.88
258.97	1640.42
259.18	1632.23
259.40	1746.92
259.62	1742.82
259.83	1791.97
260.05	1728.49
260.27	1980.39
260.48	1701.86
260.70	1644.52
260.92	1638.38
261.13	1712.10
261.35	1705.96
261.57	1695.72
261.78	1693.67
262.00	1742.82
262.22	1693.67
262.43	1652.71
262.65	1589.22
262.86	1626.09
263.08	1890.28
263.30	1671.14
263.51	1642.47
263.73	1650.66
263.95	1818.60
264.16	1665.00
264.38	1705.96
264.60	1632.23
264.81	1619.94
265.03	1773.54
265.25	1808.36
265.46	1658.85
265.68	1806.31
265.89	1683.43
266.11	1632.23
266.33	1716.20
266.54	1695.72
266.76	1744.87
266.98	1673.19
267.19	1794.02
267.41	1767.40
267.62	1699.81
267.84	1619.94
268.06	1800.16
268.27	1740.77
268.49	1732.58
268.70	1765.35
268.92	1730.53
269.14	1619.94
269.35	1628.14
269.57	1644.52
269.79	1751.01
270.00	1630.18
270.22	1765.35
270.43	1691.62
270.65	1591.27
270.87	1724.39
271.08	1732.58
271.30	1726.44
271.51	1753.06
271.73	1716.20
271.95	1740.77
272.16	1701.86
272.38	1708.01
272.59	1667.05
272.81	1705.96
273.02	1740.77
273.24	1775.59
273.46	1720.29
273.67	1681.38
273.89	1689.57
274.10	1652.71
274.32	1794.02
274.54	1691.62
274.75	1769.44
274.97	1712.10
275.18	1697.77
275.40	1738.73
275.61	1675.24
275.83	1650.66
276.05	1642.47
276.26	1660.90
276.48	1765.35
276.69	1660.90
276.91	1581.03
277.12	1767.40
277.34	1773.54
277.55	1798.12
277.77	1675.24
277.99	1753.06
278.20	1646.57
278.42	1621.99
278.63	1617.90
278.85	1728.49
279.06	1673.19
279.28	1732.58
279.49	1738.73
279.71	1689.57
279.93	1771.49
280.14	1714.15
280.36	1632.23
280.57	1677.29
280.79	1714.15
281.00	1660.90
281.22	1615.85
281.43	1720.29
281.65	1687.53
281.86	1677.29
282.08	1695.72
282.29	1771.49
282.51	1581.03
282.73	1619.94
282.94	1632.23
283.16	1814.50
283.37	1814.50
283.59	1730.53
283.80	1779.68
284.02	1658.85
284.23	1800.16
284.45	1691.62
284.66	1665.00
284.88	1650.66
285.09	1712.10
285.31	1720.29
285.52	1726.44
285.74	1710.05
285.95	1744.87
286.17	1748.97
286.38	1658.85
286.60	1638.38
286.81	1699.81
287.03	1677.29
287.24	1652.71
287.46	1736.68
287.67	1619.94
287.89	1789.92
288.10	1638.38
288.32	1689.57
288.53	1849.32
288.75	1687.53
288.96	1759.21
289.18	1640.42
289.39	1648.61
289.61	1757.16
289.82	1808.36
290.04	1722.34
290.25	1638.38
290.47	1689.57
290.68	1673.19
290.90	1759.21
291.11	1628.14
291.33	1755.11
291.54	1691.62
291.76	1673.19
291.97	1699.81
292.18	1705.96
292.40	1685.48
292.61	1673.19
292.83	1783.78
293.04	1648.61
293.26	1703.91
293.47	1732.58
293.69	1693.67
293.90	1736.68
294.12	1791.97
294.33	1681.38
294.55	1662.95
294.76	1763.30
294.97	1804.26
295.19	1804.26
295.40	1726.44
295.62	1677.29
295.83	1726.44
296.05	1658.85
296.26	1716.20
296.48	1710.05
296.69	1652.71
296.90	1669.09
297.12	1779.68
297.33	1751.01
297.55	1724.39
297.76	1703.91
297.98	1730.53
298.19	1705.96
298.41	1669.09
298.62	1617.90
298.83	1804.26
299.05	1681.38
299.26	1708.01
299.48	1619.94
299.69	1626.09
299.90	1673.19
300.12	1724.39
300.33	1730.53
300.55	1685.48
300.76	1740.77
300.98	1671.14
301.19	1775.59
301.40	1667.05
301.62	1697.77
301.83	1734.63
302.05	1728.49
302.26	1642.47
302.47	1761.25
302.69	1605.61
302.90	1656.81
303.12	1673.19
303.33	1716.20
303.54	1693.67
303.76	1710.05
303.97	1697.77
304.19	1775.59
304.40	1609.70
304.61	1724.39
304.83	1763.30
305.04	1810.40
305.26	1691.62
305.47	1609.70
305.68	1640.42
305.90	1595.37
306.11	1787.88
306.33	1751.01
306.54	1624.04
306.75	1634.28
306.97	1628.14
307.18	1587.18
307.39	1630.18
307.61	1728.49
307.82	1724.39
308.04	1775.59
308.25	1697.77
308.46	1673.19
308.68	1740.77
308.89	1726.44
309.10	1820.64
309.32	1660.90
309.53	1689.57
309.74	1771.49
309.96	1677.29
310.17	1755.11
310.39	1638.38
310.60	1722.34
310.81	1738.73
311.03	1615.85
311.24	1695.72
311.45	1658.85
311.67	1847.27
311.88	1718.25
312.09	1667.05
312.31	1683.43
312.52	1673.19
312.73	1705.96
312.95	1624.04
313.16	1718.25
313.37	1789.92
313.59	1691.62
313.80	1859.56
314.01	1759.21
314.23	1671.14
314.44	1640.42
314.65	1572.84
314.87	1691.62
315.08	1665.00
315.29	1699.81
315.51	1665.00
315.72	1615.85
315.93	1722.34
316.15	1763.30
316.36	1665.00
316.57	1685.48
316.79	1734.63
317.00	1712.10
317.21	1693.67
317.43	1644.52
317.64	1724.39
317.85	1691.62
318.07	1626.09
318.28	1832.93
318.49	1755.11
318.70	1837.03
318.92	1839.08
319.13	1834.98
319.34	1908.71
319.56	1779.68
319.77	1791.97
319.98	1732.58
320.20	1851.36
320.41	1753.06
320.62	1751.01
320.83	1695.72
321.05	1736.68
321.26	1722.34
321.47	1687.53
321.69	1789.92
321.90	1628.14
322.11	1667.05
322.32	1714.15
322.54	1808.36
322.75	1697.77
322.96	1812.45
323.18	1611.75
323.39	1607.66
323.60	1660.90
323.81	1767.40
324.03	1679.33
324.24	1673.19
324.45	1705.96
324.66	1705.96
324.88	1722.34
325.09	1789.92
325.30	1685.48
325.52	1683.43
325.73	1673.19
325.94	1644.52
326.15	1619.94
326.37	1675.24
326.58	1718.25
326.79	1757.16
327.00	1675.24
327.22	1708.01
327.43	1679.33
327.64	1626.09
327.85	1705.96
328.07	1689.57
328.28	1830.88
328.49	1673.19
328.70	1708.01
328.92	1689.57
329.13	1687.53
329.34	1771.49
329.55	1771.49
329.76	1720.29
329.98	1720.29
330.19	1755.11
330.40	1712.10
330.61	1753.06
330.83	1726.44
331.04	1634.28
331.25	1660.90
331.46	1652.71
331.68	1671.14
331.89	1734.63
332.10	1675.24
332.31	1652.71
332.52	1619.94
332.74	1710.05
332.95	1595.37
333.16	1759.21
333.37	1693.67
333.58	1683.43
333.80	1701.86
334.01	1619.94
334.22	1693.67
334.43	1669.09
334.64	1628.14
334.86	1617.90
335.07	1677.29
335.28	1826.79
335.49	1658.85
335.70	1765.35
335.92	1730.53
336.13	1804.26
336.34	1681.38
336.55	1699.81
336.76	1751.01
336.98	1636.33
337.19	1617.90
337.40	1863.65
337.61	1855.46
337.82	1677.29
338.04	1779.68
338.25	1615.85
338.46	1798.12
338.67	1699.81
338.88	1644.52
339.09	1628.14
339.31	1638.38
339.52	1669.09
339.73	1665.00
339.94	1689.57
340.15	1759.21
340.36	1652.71
340.58	1730.53
340.79	1669.09
341.00	1660.90
341.21	1660.90
341.42	1751.01
341.63	1648.61
341.85	1710.05
342.06	1765.35
342.27	1656.81
342.48	1748.97
342.69	1675.24
342.90	1714.15
343.12	1796.07
343.33	1722.34
343.54	1693.67
343.75	1804.26
343.96	1738.73
344.17	1619.94
344.38	1767.40
344.60	1705.96
344.81	1654.76
345.02	1708.01
345.23	1681.38
345.44	1781.73
345.65	1828.84
345.86	1720.29
346.07	1695.72
346.29	1708.01
346.50	1767.40
346.71	1718.25
346.92	1785.83
347.13	1794.02
347.34	1759.21
347.55	1656.81
347.76	1699.81
347.98	1642.47
348.19	1726.44
348.40	1740.77
348.61	1574.89
348.82	1812.45
349.03	1773.54
349.24	1656.81
349.45	1834.98
349.66	1540.07
349.88	1697.77
350.09	1755.11
350.30	1730.53
350.51	1746.92
350.72	1718.25
350.93	1650.66
351.14	1685.48
351.35	1632.23
351.56	1697.77
351.77	1695.72
351.99	1669.09
352.20	1738.73
352.41	1738.73
352.62	1644.52
352.83	1705.96
353.04	1753.06
353.25	1667.05
353.46	1753.06
353.67	1798.12
353.88	1585.13
354.09	1755.11
354.30	1626.09
354.52	1722.34
354.73	1665.00
354.94	1712.10
355.15	1705.96
355.36	1849.32
355.57	1652.71
355.78	1697.77
355.99	1724.39
356.20	1714.15
356.41	1710.05
356.62	1699.81
356.83	1669.09
357.04	1728.49
357.25	1669.09
357.46	1701.86
357.68	1632.23
357.89	1609.70
358.10	1685.48
358.31	1665.00
358.52	1724.39
358.73	1632.23
358.94	1603.56
359.15	1679.33
359.36	1667.05
359.57	1628.14
359.78	1763.30
359.99	1761.25
360.20	1593.32
360.41	1720.29
360.62	1773.54
360.83	1742.82
361.04	1753.06
361.25	1746.92
361.46	1824.74
361.67	1712.10
361.88	1724.39
362.09	1648.61
362.30	1728.49
362.51	1669.09
362.72	1714.15
362.93	1710.05
363.14	1691.62
363.35	1681.38
363.56	1644.52
363.78	1701.86
363.99	1773.54
364.20	1654.76
364.41	1705.96
364.62	1804.26
364.83	1755.11
365.04	1646.57
365.25	1734.63
365.46	1796.07
365.67	1652.71
365.88	1595.37
366.09	1675.24
366.30	1628.14
366.51	1734.63
366.72	1572.84
366.93	1667.05
367.14	1722.34
367.35	1763.30
367.56	1726.44
367.77	1755.11
367.98	1665.00
368.18	1761.25
368.39	1689.57
368.60	1593.32
368.81	1728.49
369.02	1726.44
369.23	1660.90
369.44	1673.19
369.65	1681.38
369.86	1740.77
370.07	1665.00
370.28	1648.61
370.49	1767.40
370.70	1679.33
370.91	1667.05
371.12	1654.76
371.33	1667.05
371.54	1705.96
371.75	1740.77
371.96	1583.08
372.17	1722.34
372.38	1673.19
372.59	1732.58
372.80	1740.77
373.01	1675.24
373.22	1785.83
373.43	1662.95
373.64	1638.38
373.85	1771.49
374.06	1714.15
374.26	1736.68
374.47	1755.11
374.68	1896.42
374.89	1724.39
375.10	1648.61
375.31	1730.53
375.52	1703.91
375.73	1695.72
375.94	1644.52
376.15	1732.58
376.36	1644.52
376.57	1691.62
376.78	1695.72
376.99	1740.77
377.20	1779.68
377.40	1646.57
377.61	1830.88
377.82	1638.38
378.03	1779.68
378.24	1730.53
378.45	1705.96
378.66	1703.91
378.87	1626.09
379.08	1669.09
379.29	1665.00
379.50	1880.04
379.71	1697.77
379.91	1734.63
380.12	1714.15
380.33	1710.05
380.54	1675.24
380.75	1669.09
380.96	1701.86
381.17	1781.73
381.38	1744.87
381.59	1734.63
381.80	1732.58
382.00	1839.08
382.21	1744.87
382.42	1884.13
382.63	1755.11
382.84	1748.97
383.05	1822.69
383.26	1808.36
383.47	1771.49
383.68	1771.49
383.88	1714.15
384.09	1648.61
384.30	1779.68
384.51	1816.55
384.72	1646.57
384.93	1599.46
385.14	1693.67
385.35	1736.68
385.55	1658.85
385.76	1775.59
385.97	1761.25
386.18	1669.09
386.39	1667.05
386.60	1724.39
386.81	1632.23
387.02	1669.09
387.22	1763.30
387.43	1742.82
387.64	1773.54
387.85	1789.92
388.06	2129.89
388.27	4413.37
388.48	6784.92
388.68	8431.49
388.89	9715.56
389.10	9826.15
389.31	8796.03
389.52	7407.50
389.73	6741.91
389.93	6369.18
390.14	5699.50
390.35	5222.32
390.56	4542.39
390.77	3825.61
390.98	3047.38
391.18	2504.67
391.39	2045.92
391.60	1841.12
391.81	1816.55
392.02	1714.15
392.23	1798.12
392.43	1769.44
392.64	1830.88
392.85	1665.00
393.06	1755.11
393.27	1656.81
393.47	1757.16
393.68	1730.53
393.89	1699.81
394.10	1748.97
394.31	1636.33
394.52	1624.04
394.72	1673.19
394.93	1759.21
395.14	1683.43
395.35	1787.88
395.56	1703.91
395.76	1697.77
395.97	1798.12
396.18	1820.64
396.39	1802.21
396.60	2037.73
396.80	1910.75
397.01	1888.23
397.22	1796.07
397.43	1845.22
397.64	1779.68
397.84	1789.92
398.05	1837.03
398.26	1804.26
398.47	1742.82
398.67	1816.55
398.88	1677.29
399.09	1720.29
399.30	1800.16
399.51	1726.44
399.71	1638.38
399.92	1703.91
400.13	1812.45
400.34	1675.24
400.54	1671.14
400.75	1818.60
400.96	1705.96
401.17	1769.44
401.37	1736.68
401.58	1710.05
401.79	1748.97
402.00	1939.43
402.21	2041.82
402.41	1908.71
402.62	1886.18
402.83	2066.40
403.04	1994.72
403.24	2093.02
403.45	1830.88
403.66	1908.71
403.87	1863.65
404.07	1845.22
404.28	1923.04
404.49	1841.12
404.70	1716.20
404.90	1755.11
405.11	1785.83
405.32	1679.33
405.52	1675.24
405.73	1667.05
405.94	1642.47
406.15	1652.71
406.35	1757.16
406.56	1710.05
406.77	1675.24
406.98	1748.97
407.18	1683.43
407.39	1714.15
407.60	1695.72
407.80	1724.39
408.01	1652.71
408.22	1638.38
408.43	1685.48
408.63	1808.36
408.84	1724.39
409.05	1728.49
409.25	1624.04
409.46	1679.33
409.67	1560.55
409.88	1697.77
410.08	1712.10
410.29	1671.14
410.50	1718.25
410.70	1751.01
410.91	1740.77
411.12	1687.53
411.32	1722.34
411.53	1689.57
411.74	1804.26
411.95	1669.09
412.15	1843.17
412.36	1744.87
412.57	1726.44
412.77	1767.40
412.98	1726.44
413.19	1748.97
413.39	1693.67
413.60	1665.00
413.81	1869.80
414.01	1617.90
414.22	1667.05
414.43	1791.97
414.63	1753.06
414.84	1822.69
415.05	1640.42
415.25	1681.38
415.46	1757.16
415.67	1685.48
415.87	1697.77
416.08	1703.91
416.29	1710.05
416.49	1716.20
416.70	1716.20
416.91	1693.67
417.11	1703.91
417.32	1705.96
417.53	1771.49
417.73	1742.82
417.94	1726.44
418.15	1697.77
418.35	1701.86
418.56	1681.38
418.77	1832.93
418.97	1679.33
419.18	1730.53
419.38	1527.78
419.59	1693.67
419.80	1779.68
420.00	1683.43
420.21	1730.53
420.42	1765.35
420.62	1689.57
420.83	1667.05
421.04	1755.11
421.24	1669.09
421.45	1746.92
421.65	1777.64
421.86	1658.85
422.07	1667.05
422.27	1673.19
422.48	1714.15
422.69	1746.92
422.89	1697.77
423.10	1718.25
423.30	1615.85
423.51	1654.76
423.72	1824.74
423.92	1714.15
424.13	1638.38
424.33	1697.77
424.54	1718.25
424.75	1755.11
424.95	1748.97
425.16	1701.86
425.36	1730.53
425.57	1708.01
425.78	1767.40
425.98	1787.88
426.19	1677.29
426.39	1648.61
426.60	1703.91
426.81	1779.68
427.01	1757.16
427.22	1652.71
427.42	1572.84
427.63	1734.63
427.83	1705.96
428.04	1818.60
428.25	1781.73
428.45	1800.16
428.66	1708.01
428.86	1695.72
429.07	1705.96
429.28	1677.29
429.48	1701.86
429.69	1675.24
429.89	1738.73
430.10	1679.33
430.30	1732.58
430.51	1701.86
430.71	1677.29
430.92	1613.80
431.13	1681.38
431.33	1734.63
431.54	1693.67
431.74	1826.79
431.95	1791.97
432.15	1644.52
432.36	1789.92
432.56	1771.49
432.77	1871.84
432.98	1847.27
433.18	1742.82
433.39	1662.95
433.59	1665.00
433.80	1822.69
434.00	1912.80
434.21	1597.42
434.41	1658.85
434.62	1798.12
434.82	1585.13
435.03	1630.18
435.23	1789.92
435.44	1562.60
435.64	1716.20
435.85	1677.29
436.06	1724.39
436.26	1746.92
436.47	1701.86
436.67	1640.42
436.88	1740.77
437.08	1699.81
437.29	1783.78
437.49	1722.34
437.70	1748.97
437.90	1718.25
438.11	1884.13
438.31	1796.07
438.52	1865.70
438.72	1808.36
438.93	1888.23
439.13	1779.68
439.34	1800.16
439.54	1695.72
439.75	1761.25
439.95	1744.87
440.16	1755.11
440.36	1744.87
440.57	1771.49
440.77	1730.53
440.98	1773.54
441.18	1771.49
441.39	1640.42
441.59	1656.81
441.80	1810.40
442.00	1736.68
442.21	1781.73
442.41	1677.29
442.62	1798.12
442.82	1687.53
443.02	1744.87
443.23	1654.76
443.43	1734.63
443.64	1808.36
443.84	1617.90
444.05	1796.07
444.25	1759.21
444.46	1714.15
444.66	1769.44
444.87	1820.64
445.07	1656.81
445.28	1744.87
445.48	1796.07
445.69	1816.55
445.89	1777.64
446.09	1746.92
446.30	2052.06
446.50	2578.39
446.71	3831.75
446.91	4411.32
447.12	4792.25
447.32	4880.31
447.53	4411.32
447.73	3923.91
447.93	3626.95
448.14	3229.65
448.34	3295.18
448.55	2920.40
448.75	2801.62
448.96	2738.13
449.16	2422.75
449.36	2271.20
449.57	2140.13
449.77	1902.56
449.98	1783.78
450.18	1830.88
450.39	1773.54
450.59	1728.49
450.79	1675.24
451.00	1697.77
451.20	1716.20
451.41	1681.38
451.61	1751.01
451.81	1742.82
452.02	1736.68
452.22	1761.25
452.43	1755.11
452.63	1689.57
452.84	1736.68
453.04	1710.05
453.24	1705.96
453.45	1675.24
453.65	1720.29
453.86	1763.30
454.06	1798.12
454.26	1710.05
454.47	1726.44
454.67	1832.93
454.87	1687.53
455.08	1773.54
455.28	1828.84
455.49	1736.68
455.69	1595.37
455.89	1869.80
456.10	1865.70
456.30	1800.16
456.51	1789.92
456.71	1755.11
456.91	1755.11
457.12	1789.92
457.32	1669.09
457.52	1724.39
457.73	1830.88
457.93	1785.83
458.14	1722.34
458.34	1697.77
458.54	1730.53
458.75	1705.96
458.95	1800.16
459.15	1742.82
459.36	1761.25
459.56	1755.11
459.76	1882.08
459.97	1771.49
460.17	1742.82
460.37	1828.84
460.58	1722.34
460.78	1722.34
460.99	1732.58
461.19	1738.73
461.39	1683.43
461.60	1826.79
461.80	1781.73
462.00	1718.25
462.21	1693.67
462.41	1611.75
462.61	1658.85
462.82	1632.23
463.02	1789.92
463.22	1660.90
463.43	1837.03
463.63	1699.81
463.83	1746.92
464.04	1748.97
464.24	1759.21
464.44	1675.24
464.64	1787.88
464.85	1744.87
465.05	1755.11
465.25	1703.91
465.46	1748.97
465.66	1738.73
465.86	1789.92
466.07	1763.30
466.27	1685.48
466.47	1673.19
466.68	1667.05
466.88	1873.89
467.08	1771.49
467.29	1667.05
467.49	1683.43
467.69	1718.25
467.89	1701.86
468.10	1701.86
468.30	1822.69
468.50	1789.92
468.71	1732.58
468.91	1578.98
469.11	1818.60
469.31	1701.86
469.52	1640.42
469.72	1824.74
469.92	1914.85
470.13	1716.20
470.33	1667.05
470.53	1800.16
470.73	2088.93
470.94	2271.20
471.14	2344.92
471.34	2543.58
471.54	2469.85
471.75	2209.76
471.95	2150.37
472.15	2084.83
472.36	2099.17
472.56	2052.06
472.76	2066.40
472.96	2004.96
473.17	1880.04
473.37	1927.14
473.57	1785.83
473.77	1902.56
473.98	1775.59
474.18	1734.63
474.38	1839.08
474.58	1644.52
474.79	1720.29
474.99	1751.01
475.19	1791.97
475.39	1712.10
475.60	1802.21
475.80	1708.01
476.00	1757.16
476.20	1685.48
476.41	1734.63
476.61	1808.36
476.81	1771.49
477.01	1675.24
477.21	1914.85
477.42	1751.01
477.62	1656.81
477.82	1791.97
478.02	1720.29
478.23	1712.10
478.43	1693.67
478.63	1710.05
478.83	1712.10
479.03	1730.53
479.24	1804.26
479.44	1746.92
479.64	1693.67
479.84	1660.90
480.04	1675.24
480.25	1759.21
480.45	1730.53
480.65	1714.15
480.85	1794.02
481.06	1738.73
481.26	1755.11
481.46	1765.35
481.66	1710.05
481.86	1597.42
482.06	1832.93
482.27	1673.19
482.47	1648.61
482.67	1675.24
482.87	1691.62
483.07	1794.02
483.28	1638.38
483.48	1671.14
483.68	1718.25
483.88	1681.38
484.08	1628.14
484.29	1613.80
484.49	1744.87
484.69	1742.82
484.89	1773.54
485.09	1722.34
485.29	1742.82
485.50	1742.82
485.70	1720.29
485.90	1812.45
486.10	1671.14
486.30	1771.49
486.50	1806.31
486.71	1767.40
486.91	1781.73
487.11	1767.40
487.31	1681.38
487.51	1794.02
487.71	1619.94
487.91	1677.29
488.12	1697.77
488.32	1605.61
488.52	1718.25
488.72	1562.60
488.92	1755.11
489.12	1718.25
489.32	1839.08
489.53	1730.53
489.73	1642.47
489.93	1804.26
490.13	1712.10
490.33	1673.19
490.53	1712.10
490.73	1794.02
490.94	1701.86
491.14	1794.02
491.34	1830.88
491.54	2131.94
491.74	2576.34
491.94	3004.37
492.14	3094.48
492.34	3069.91
492.54	2713.56
492.75	2545.63
492.95	2465.75
493.15	2316.25
493.35	2363.36
493.55	2174.94
493.75	2185.18
493.95	2164.70
494.15	2037.73
494.35	1906.66
494.56	1832.93
494.76	1714.15
494.96	1763.30
495.16	1775.59
495.36	1718.25
495.56	1861.60
495.76	1712.10
495.96	1576.94
496.16	1638.38
496.36	1863.65
496.56	1769.44
496.77	1695.72
496.97	1712.10
497.17	1841.12
497.37	1677.29
497.57	1761.25
497.77	1687.53
497.97	1712.10
498.17	1695.72
498.37	1705.96
498.57	1755.11
498.77	1759.21
498.97	1798.12
499.17	1834.98
499.38	1724.39
499.58	1765.35
499.78	1738.73
499.98	1783.78
500.18	1699.81
500.38	1736.68
500.58	1937.38
500.78	2611.16
500.98	4536.25
501.18	5830.57
501.38	6838.17
501.58	7096.21
501.78	6715.29
501.98	5584.81
502.18	4956.08
502.38	4478.91
502.58	4192.19
502.78	3747.78
502.98	3725.26
503.18	3626.95
503.38	3289.04
503.59	2785.24
503.79	2701.27
503.99	2557.91
504.19	2324.44
504.39	2197.47
504.59	2183.13
504.79	2191.33
504.99	2031.58
505.19	1865.70
505.39	1877.99
505.59	1923.04
505.79	1912.80
505.99	1800.16
506.19	1771.49
506.39	1902.56
506.59	1775.59
506.79	1816.55
506.99	1730.53
507.19	1763.30
507.39	1736.68
507.59	1619.94
507.79	1722.34
507.99	1679.33
508.19	1662.95
508.39	1722.34
508.59	1732.58
508.79	1820.64
508.99	1820.64
509.19	1769.44
509.39	1748.97
509.59	1724.39
509.79	1691.62
509.99	1720.29
510.19	1816.55
510.39	1736.68
510.59	1708.01
510.79	1687.53
510.99	1703.91
511.19	1757.16
511.39	1857.51
511.59	1775.59
511.79	1751.01
511.99	1736.68
512.19	1796.07
512.38	1724.39
512.58	1675.24
512.78	1730.53
512.98	1857.51
513.18	1808.36
513.38	1669.09
513.58	1705.96
513.78	1703.91
513.98	1748.97
514.18	1738.73
514.38	1761.25
514.58	1761.25
514.78	1693.67
514.98	1714.15
515.18	1718.25
515.38	1654.76
515.58	1902.56
515.78	1683.43
515.98	1744.87
516.18	1761.25
516.38	1738.73
516.57	1724.39
516.77	1757.16
516.97	1806.31
517.17	1673.19
517.37	1683.43
517.57	1755.11
517.77	1685.48
517.97	1755.11
518.17	1748.97
518.37	1652.71
518.57	1681.38
518.77	1710.05
518.97	1714.15
519.16	1755.11
519.36	1800.16
519.56	1665.00
519.76	1738.73
519.96	1724.39
520.16	1800.16
520.36	1665.00
520.56	1796.07
520.76	1632.23
520.96	1710.05
521.16	1751.01
521.35	1789.92
521.55	1773.54
521.75	1796.07
521.95	1718.25
522.15	1746.92
522.35	1675.24
522.55	1701.86
522.75	1818.60
522.95	1744.87
523.14	1667.05
523.34	1708.01
523.54	1710.05
523.74	1757.16
523.94	1791.97
524.14	1667.05
524.34	1816.55
524.54	1871.84
524.73	1726.44
524.93	1757.16
525.13	1755.11
525.33	1576.94
525.53	1834.98
525.73	1785.83
525.93	1730.53
526.13	1738.73
526.32	1693.67
526.52	1894.37
526.72	1736.68
526.92	1775.59
527.12	1742.82
527.32	1675.24
527.52	1730.53
527.71	1726.44
527.91	1689.57
528.11	1683.43
528.31	1652.71
528.51	1705.96
528.71	1724.39
528.90	1834.98
529.10	1830.88
529.30	1824.74
529.50	1568.74
529.70	1773.54
529.90	1685.48
530.09	1724.39
530.29	1679.33
530.49	1732.58
530.69	1845.22
530.89	1765.35
531.09	1742.82
531.28	1734.63
531.48	1959.91
531.68	1816.55
531.88	1726.44
532.08	1837.03
532.28	1718.25
532.47	1746.92
532.67	1923.04
532.87	1796.07
533.07	1724.39
533.27	1769.44
533.46	1691.62
533.66	1847.27
533.86	1705.96
534.06	1755.11
534.26	1761.25
534.45	1761.25
534.65	1736.68
534.85	1763.30
535.05	1652.71
535.25	1763.30
535.44	1656.81
535.64	1767.40
535.84	1658.85
536.04	1669.09
536.24	1695.72
536.43	1667.05
536.63	1732.58
536.83	1708.01
537.03	1728.49
537.22	1640.42
537.42	1662.95
537.62	1675.24
537.82	1673.19
538.02	1830.88
538.21	1798.12
538.41	1812.45
538.61	1791.97
538.81	1632.23
539.00	1781.73
539.20	1699.81
539.40	1689.57
539.60	1726.44
539.79	1736.68
539.99	1701.86
540.19	1671.14
540.39	1689.57
540.58	1687.53
540.78	1695.72
540.98	1773.54
541.18	1763.30
541.37	1783.78
541.57	1744.87
541.77	1796.07
541.97	1718.25
542.16	1708.01
542.36	1697.77
542.56	1710.05
542.76	1853.41
542.95	1744.87
543.15	1808.36
543.35	1822.69
543.54	1695.72
543.74	1675.24
543.94	1710.05
544.14	1660.90
544.33	1779.68
544.53	1693.67
544.73	1708.01
544.93	1697.77
545.12	1705.96
545.32	1712.10
545.52	1738.73
545.71	1609.70
545.91	1701.86
546.11	1746.92
546.30	1638.38
546.50	1718.25
546.70	1746.92
546.90	1798.12
547.09	1671.14
547.29	1771.49
547.49	1771.49
547.68	1738.73
547.88	1765.35
548.08	1769.44
548.27	2185.18
548.47	1658.85
548.67	1744.87
548.87	1847.27
549.06	1748.97
549.26	1714.15
549.46	1751.01
549.65	1675.24
549.85	1787.88
550.05	1738.73
550.24	1648.61
550.44	1843.17
550.64	1744.87
550.83	1773.54
551.03	1769.44
551.23	1818.60
551.42	1685.48
551.62	1779.68
551.82	1705.96
552.01	1724.39
552.21	1935.33
552.41	1814.50
552.60	1808.36
552.80	1677.29
553.00	1669.09
553.19	1781.73
553.39	1802.21
553.59	1755.11
553.78	1775.59
553.98	1767.40
554.17	1667.05
554.37	1658.85
554.57	1714.15
554.76	1624.04
554.96	1648.61
555.16	1751.01
555.35	1685.48
555.55	1699.81
555.75	1759.21
555.94	1798.12
556.14	1644.52
556.33	1812.45
556.53	1775.59
556.73	1658.85
556.92	1771.49
557.12	1800.16
557.32	1931.23
557.51	1816.55
557.71	1746.92
557.90	1789.92
558.10	1779.68
558.30	1724.39
558.49	1712.10
558.69	1755.11
558.88	1779.68
559.08	1781.73
559.28	1689.57
559.47	1775.59
559.67	1832.93
559.86	1871.84
560.06	1720.29
560.26	1708.01
560.45	1744.87
560.65	1759.21
560.84	1787.88
561.04	1652.71
561.24	1722.34
561.43	1703.91
561.63	1771.49
561.82	1791.97
562.02	1783.78
562.22	1699.81
562.41	1646.57
562.61	1720.29
562.80	1673.19
563.00	1882.08
563.19	1740.77
563.39	1798.12
563.59	1798.12
563.78	1738.73
563.98	1595.37
564.17	1644.52
564.37	1695.72
564.56	1746.92
564.76	1652.71
564.96	1753.06
565.15	1779.68
565.35	1853.41
565.54	1742.82
565.74	1724.39
565.93	1732.58
566.13	1710.05
566.32	1808.36
566.52	1726.44
566.71	1656.81
566.91	1796.07
567.11	1714.15
567.30	1681.38
567.50	1714.15
567.69	1767.40
567.89	1746.92
568.08	1656.81
568.28	1691.62
568.47	1669.09
568.67	1753.06
568.86	1726.44
569.06	1802.21
569.25	1726.44
569.45	1660.90
569.64	1691.62
569.84	1687.53
570.04	1726.44
570.23	1671.14
570.43	1710.05
570.62	1775.59
570.82	1820.64
571.01	1662.95
571.21	1720.29
571.40	1726.44
571.60	1726.44
571.79	1783.78
571.99	1736.68
572.18	1648.61
572.38	1783.78
572.57	1697.77
572.77	1724.39
572.96	1916.90
573.16	1765.35
573.35	1648.61
573.55	1730.53
573.74	1773.54
573.94	1757.16
574.13	1705.96
574.33	1871.84
574.52	1787.88
574.71	1722.34
574.91	1705.96
575.10	1738.73
575.30	1748.97
575.49	1697.77
575.69	1736.68
575.88	1669.09
576.08	1691.62
576.27	1734.63
576.47	1712.10
576.66	1777.64
576.86	1761.25
577.05	1755.11
577.25	1812.45
577.44	1828.84
577.64	1683.43
577.83	1796.07
578.02	1757.16
578.22	1822.69
578.41	1826.79
578.61	1705.96
578.80	1710.05
579.00	1802.21
579.19	1748.97
579.39	1783.78
579.58	1775.59
579.77	1777.64
579.97	1783.78
580.16	1812.45
580.36	1834.98
580.55	1843.17
580.75	1789.92
580.94	1841.12
581.13	1785.83
581.33	1875.94
581.52	1800.16
581.72	1886.18
581.91	1785.83
582.11	1712.10
582.30	1763.30
582.49	1765.35
582.69	1902.56
582.88	1791.97
583.08	1775.59
583.27	1875.94
583.47	1751.01
583.66	1730.53
583.85	1712.10
584.05	1734.63
584.24	1812.45
584.44	1798.12
584.63	1771.49
584.82	1824.74
585.02	1808.36
585.21	1830.88
585.41	1834.98
585.60	1775.59
585.79	1945.57
585.99	1916.90
586.18	1806.31
586.37	2115.55
586.57	3342.28
586.76	9889.64
586.96	24946.31
587.15	34969.07
587.34	40945.04
587.54	42732.92
587.73	37084.62
587.93	26916.45
588.12	21749.43
588.31	18718.43
588.51	16492.29
588.70	15339.29
588.89	14153.51
589.09	12810.04
589.28	11378.51
589.47	9598.83
589.67	8050.57
589.86	6332.32
590.06	5136.31
590.25	3962.82
590.44	3170.26
590.64	2645.98
590.83	2271.20
591.02	2070.50
591.22	1970.15
591.41	1898.47
591.60	1851.36
591.80	1898.47
591.99	1822.69
592.18	1763.30
592.38	1871.84
592.57	1867.75
592.76	1755.11
592.96	1789.92
593.15	1808.36
593.34	1865.70
593.54	1771.49
593.73	1777.64
593.92	1708.01
594.12	1791.97
594.31	1812.45
594.50	1837.03
594.70	1779.68
594.89	1908.71
595.08	1742.82
595.28	1787.88
595.47	1904.61
595.66	1816.55
595.86	1728.49
596.05	1722.34
596.24	1728.49
596.43	1808.36
596.63	1853.41
596.82	1753.06
597.01	1779.68
597.21	1820.64
597.40	1808.36
597.59	1710.05
597.79	1787.88
597.98	1746.92
598.17	1718.25
598.36	1796.07
598.56	1824.74
598.75	1660.90
598.94	1742.82
599.14	1742.82
599.33	1726.44
599.52	1777.64
599.71	1712.10
599.91	1796.07
600.10	1802.21
600.29	1812.45
600.48	1736.68
600.68	1769.44
600.87	1693.67
601.06	1738.73
601.26	1748.97
601.45	1740.77
601.64	1708.01
601.83	1732.58
602.03	1689.57
602.22	1660.90
602.41	1851.36
602.60	1806.31
602.80	1730.53
602.99	1734.63
603.18	1695.72
603.37	1691.62
603.57	1705.96
603.76	1744.87
603.95	1834.98
604.14	1697.77
604.34	1683.43
604.53	1685.48
604.72	1714.15
604.91	1783.78
605.10	1695.72
605.30	1691.62
605.49	1847.27
605.68	1765.35
605.87	1777.64
606.07	1705.96
606.26	1748.97
606.45	1767.40
606.64	1783.78
606.84	1619.94
607.03	1656.81
607.22	1757.16
607.41	1722.34
607.60	1691.62
607.80	1769.44
607.99	1673.19
608.18	1808.36
608.37	1742.82
608.56	1722.34
608.76	1847.27
608.95	1824.74
609.14	1726.44
609.33	1755.11
609.52	1748.97
609.72	1689.57
609.91	1834.98
610.10	1730.53
610.29	1798.12
610.48	1763.30
610.68	1738.73
610.87	1744.87
611.06	1632.23
611.25	1695.72
611.44	1828.84
611.63	1662.95
611.83	1820.64
612.02	1673.19
612.21	1761.25
612.40	1621.99
612.59	1726.44
612.79	1619.94
612.98	1677.29
613.17	1839.08
613.36	1722.34
613.55	1812.45
613.74	1662.95
613.93	1720.29
614.13	1806.31
614.32	1734.63
614.51	1751.01
614.70	1714.15
614.89	1769.44
615.08	1769.44
615.28	2140.13
615.47	1746.92
615.66	1722.34
615.85	1738.73
616.04	1740.77
616.23	1665.00
616.42	1708.01
616.62	1697.77
616.81	1814.50
617.00	1718.25
617.19	1708.01
617.38	1681.38
617.57	1679.33
617.76	1830.88
617.95	1748.97
618.15	1730.53
618.34	1851.36
618.53	1685.48
618.72	1648.61
618.91	1834.98
619.10	1798.12
619.29	1767.40
619.48	1757.16
619.68	1673.19
619.87	1748.97
620.06	1646.57
620.25	1796.07
620.44	1728.49
620.63	1640.42
620.82	1699.81
621.01	1705.96
621.20	1740.77
621.39	1609.70
621.59	1769.44
621.78	1607.66
621.97	1681.38
622.16	1742.82
622.35	1660.90
622.54	1730.53
622.73	1775.59
622.92	1693.67
623.11	1763.30
623.30	1742.82
623.49	1757.16
623.68	1658.85
623.88	1773.54
624.07	1693.67
624.26	1697.77
624.45	1765.35
624.64	1693.67
624.83	1746.92
625.02	1708.01
625.21	1673.19
625.40	1738.73
625.59	1755.11
625.78	1755.11
625.97	1742.82
626.16	1773.54
626.35	1744.87
626.54	1697.77
626.74	1806.31
626.93	1705.96
627.12	1753.06
627.31	1783.78
627.50	1724.39
627.69	1730.53
627.88	1646.57
628.07	1697.77
628.26	1667.05
628.45	1673.19
628.64	1665.00
628.83	1613.80
629.02	1669.09
629.21	1736.68
629.40	1861.60
629.59	1619.94
629.78	1597.42
629.97	1708.01
630.16	1740.77
630.35	1656.81
630.54	1697.77
630.73	1718.25
630.92	1732.58
631.11	1648.61
631.30	1720.29
631.49	1703.91
631.68	1685.48
631.87	1734.63
632.06	1607.66
632.25	1767.40
632.44	1720.29
632.63	1648.61
632.82	1662.95
633.01	1667.05
633.20	1775.59
633.39	1697.77
633.58	1576.94
633.77	1712.10
633.96	1783.78
634.15	1740.77
634.34	1722.34
634.53	1787.88
634.72	1710.05
634.91	1681.38
635.10	1751.01
635.29	1791.97
635.48	1585.13
635.67	1705.96
635.86	1611.75
636.05	1746.92
636.24	1671.14
636.43	1599.46
636.62	1738.73
636.81	1624.04
637.00	1667.05
637.19	1820.64
637.38	1732.58
637.57	1740.77
637.76	1697.77
637.95	1755.11
638.14	1621.99
638.33	1714.15
638.52	1783.78
638.71	1599.46
638.89	1613.80
639.08	1839.08
639.27	1656.81
639.46	1642.47
639.65	1787.88
639.84	1753.06
640.03	1785.83
640.22	1714.15
640.41	1843.17
640.60	1658.85
640.79	1683.43
640.98	1648.61
641.17	1705.96
641.36	1753.06
641.55	1748.97
641.74	1646.57
641.92	1650.66
642.11	1691.62
642.30	1617.90
642.49	1642.47
642.68	1724.39
642.87	1712.10
643.06	1751.01
643.25	1718.25
643.44	1738.73
643.63	1716.20
643.82	1724.39
644.00	1667.05
644.19	1779.68
644.38	1691.62
644.57	1677.29
644.76	1769.44
644.95	1634.28
645.14	1705.96
645.33	1681.38
645.52	1636.33
645.71	1683.43
645.89	1634.28
646.08	1714.15
646.27	1634.28
646.46	1726.44
646.65	1640.42
646.84	1763.30
647.03	1695.72
647.22	1734.63
647.40	1757.16
647.59	1703.91
647.78	1564.65
647.97	1617.90
648.16	1644.52
648.35	1765.35
648.54	1857.51
648.73	1701.86
648.91	1763.30
649.10	1763.30
649.29	1646.57
649.48	1667.05
649.67	1722.34
649.86	1742.82
650.05	1728.49
650.23	1798.12
650.42	1691.62
650.61	1767.40
650.80	1746.92
650.99	1935.33
651.18	1775.59
651.36	1753.06
651.55	1767.40
651.74	1779.68
651.93	1695.72
652.12	1699.81
652.31	1640.42
652.49	1722.34
652.68	1736.68
652.87	1763.30
653.06	1767.40
653.25	1837.03
653.44	1675.24
653.62	1812.45
653.81	1712.10
654.00	1703.91
654.19	1763.30
654.38	1828.84
654.56	1724.39
654.75	1767.40
654.94	1730.53
655.13	1695.72
655.32	1718.25
655.51	1716.20
655.69	1675.24
655.88	1773.54
656.07	1720.29
656.26	1759.21
656.45	1642.47
656.63	1722.34
656.82	1783.78
657.01	1710.05
657.20	1708.01
657.38	1816.55
657.57	1734.63
657.76	1619.94
657.95	1726.44
658.14	1736.68
658.32	1730.53
658.51	1662.95
658.70	1732.58
658.89	1818.60
659.08	1730.53
659.26	1789.92
659.45	1716.20
659.64	1665.00
659.83	1648.61
660.01	1929.19
660.20	1701.86
660.39	1804.26
660.58	1591.27
660.76	1773.54
660.95	1626.09
661.14	1757.16
661.33	1697.77
661.51	1724.39
661.70	1693.67
661.89	1753.06
662.08	1746.92
662.26	1615.85
662.45	1642.47
662.64	1779.68
662.83	1812.45
663.01	1689.57
663.20	1728.49
663.39	1845.22
663.58	1658.85
663.76	1759.21
663.95	1748.97
664.14	1638.38
664.32	1689.57
664.51	1626.09
664.70	1650.66
664.89	1742.82
665.07	1578.98
665.26	1832.93
665.45	1613.80
665.64	1837.03
665.82	1679.33
666.01	1771.49
666.20	1734.63
666.38	1732.58
666.57	1781.73
666.76	2140.13
666.95	4384.70
667.13	10418.02
667.32	15408.92
667.51	17977.07
667.69	19121.88
667.88	17909.49
668.07	12627.78
668.25	9766.76
668.44	8318.85
668.63	7542.67
668.81	6842.26
669.00	6373.28
669.19	5769.13
669.38	5078.96
669.56	4632.51
669.75	4018.11
669.94	3491.79
670.12	3012.56
670.31	2447.32
670.50	2248.67
670.68	2109.41
670.87	1837.03
671.06	1822.69
671.24	1759.21
671.43	1882.08
671.62	1689.57
671.80	1693.67
671.99	1730.53
672.18	1681.38
672.36	1816.55
672.55	1814.50
672.74	1738.73
672.92	1691.62
673.11	1746.92
673.29	1742.82
673.48	1773.54
673.67	1710.05
673.85	1730.53
674.04	1714.15
674.23	1736.68
674.41	1820.64
674.60	1705.96
674.79	1615.85
674.97	1626.09
675.16	1732.58
675.34	1746.92
675.53	1669.09
675.72	1697.77
675.90	1781.73
676.09	1722.34
676.28	1751.01
676.46	1587.18
676.65	1763.30
676.83	1599.46
677.02	1710.05
677.21	1746.92
677.39	1705.96
677.58	1665.00
677.77	1703.91
677.95	1757.16
678.14	1718.25
678.32	1691.62
678.51	1583.08
678.70	1820.64
678.88	1691.62
679.07	1738.73
679.25	1669.09
679.44	1687.53
679.63	1656.81
679.81	1751.01
680.00	1691.62
680.18	1691.62
680.37	1695.72
680.55	1724.39
680.74	1599.46
680.93	1578.98
681.11	1671.14
681.30	1681.38
681.48	1705.96
681.67	1669.09
681.85	1693.67
682.04	1648.61
682.23	1726.44
682.41	1769.44
682.60	1718.25
682.78	1714.15
682.97	1644.52
683.15	1759.21
683.34	1679.33
683.53	1771.49
683.71	1638.38
683.90	1798.12
684.08	1847.27
684.27	1736.68
684.45	1716.20
684.64	1777.64
684.82	1701.86
685.01	1691.62
685.19	1716.20
685.38	1718.25
685.57	1697.77
685.75	1619.94
685.94	1648.61
686.12	1656.81
686.31	1626.09
686.49	1830.88
686.68	1613.80
686.86	1708.01
687.05	1638.38
687.23	1705.96
687.42	1644.52
687.60	1662.95
687.79	1736.68
687.97	1767.40
688.16	1808.36
688.34	1761.25
688.53	1581.03
688.71	1714.15
688.90	1781.73
689.08	1722.34
689.27	1566.70
689.45	1828.84
689.64	1757.16
689.82	1685.48
690.01	1667.05
690.19	1667.05
690.38	1755.11
690.56	1712.10
690.75	1650.66
690.93	1648.61
691.12	1757.16
691.30	1755.11
691.49	1644.52
691.67	1675.24
691.86	1816.55
692.04	1652.71
692.23	1656.81
692.41	1730.53
692.60	1759.21
692.78	1798.12
692.97	1710.05
693.15	1724.39
693.34	1736.68
693.52	1794.02
693.71	1689.57
693.89	1703.91
694.08	1705.96
694.26	1751.01
694.44	1658.85
694.63	1751.01
694.81	1640.42
695.00	1656.81
695.18	1705.96
695.37	1783.78
695.55	1708.01
695.74	1720.29
695.92	1669.09
696.10	1744.87
696.29	1591.27
696.47	1728.49
696.66	1699.81
696.84	1718.25
697.03	1736.68
697.21	1853.41
697.40	2318.30
697.58	1853.41
697.76	1710.05
697.95	1685.48
698.13	1736.68
698.32	1708.01
698.50	1710.05
698.68	1742.82
698.87	1714.15
699.05	1822.69
699.24	1695.72
699.42	1617.90
699.61	1634.28
699.79	1816.55
699.97	1785.83
700.16	1628.14
700.34	1578.98
700.53	1783.78
700.71	1771.49
700.89	1695.72
701.08	1691.62
701.26	1748.97
701.45	2103.26
701.63	1718.25
701.81	1720.29
702.00	1665.00
702.18	1726.44
702.37	1701.86
702.55	1708.01
702.73	1718.25
702.92	1636.33
703.10	1722.34
703.28	1708.01
703.47	1599.46
703.65	1814.50
703.84	1730.53
704.02	1648.61
704.20	1748.97
704.39	1644.52
704.57	1607.66
704.75	1773.54
704.94	1716.20
705.12	1646.57
705.30	1779.68
705.49	2238.43
705.67	4409.28
705.86	9246.58
706.04	12744.51
706.22	14622.50
706.41	15400.72
706.59	14186.28
706.77	9736.04
706.96	7505.81
707.14	6598.56
707.32	6053.80
707.51	5607.34
707.69	4945.84
707.87	4222.91
708.06	3606.47
708.24	3002.32
708.42	2469.85
708.61	2281.44
708.79	1892.32
708.97	1904.61
709.16	1808.36
709.34	1753.06
709.52	1714.15
709.71	1722.34
709.89	1781.73
710.07	1626.09
710.26	1662.95
710.44	1710.05
710.62	1781.73
710.80	1726.44
710.99	1734.63
711.17	1771.49
711.35	1650.66
711.54	1665.00
711.72	1808.36
711.90	1703.91
712.09	1718.25
712.27	1742.82
712.45	1841.12
712.63	1753.06
712.82	1636.33
713.00	1802.21
713.18	1722.34
713.37	1738.73
713.55	1736.68
713.73	1705.96
713.91	1697.77
714.10	1593.32
714.28	1697.77
714.46	1751.01
714.65	1787.88
714.83	1726.44
715.01	1669.09
715.19	1665.00
715.38	1689.57
715.56	1708.01
715.74	1695.72
715.92	1660.90
716.11	1751.01
716.29	1615.85
716.47	1693.67
716.65	1699.81
716.84	1669.09
717.02	1796.07
717.20	1652.71
717.38	1685.48
717.57	1763.30
717.75	1734.63
717.93	1628.14
718.11	1695.72
718.30	1677.29
718.48	1691.62
718.66	1759.21
718.84	1785.83
719.03	1636.33
719.21	1632.23
719.39	1734.63
719.57	1746.92
719.75	1730.53
719.94	1662.95
720.12	1621.99
720.30	1697.77
720.48	1753.06
720.67	1634.28
720.85	1640.42
721.03	1667.05
721.21	1626.09
721.39	1796.07
721.58	1785.83
721.76	1699.81
721.94	1730.53
722.12	1677.29
722.30	1730.53
722.49	1665.00
722.67	1734.63
722.85	1695.72
723.03	1617.90
723.21	1640.42
723.40	1660.90
723.58	1738.73
723.76	1681.38
723.94	1753.06
724.12	1654.76
724.30	1757.16
724.49	1759.21
724.67	1667.05
724.85	1734.63
725.03	1687.53
725.21	1800.16
725.40	1834.98
725.58	1632.23
725.76	1783.78
725.94	1802.21
726.12	1650.66
726.30	1685.48
726.49	1679.33
726.67	1601.51
726.85	1767.40
727.03	1763.30
727.21	2172.89
727.39	2897.88
727.57	3841.99
727.76	4188.10
727.94	4450.24
728.12	4384.70
728.30	3807.17
728.48	2981.84
728.66	2727.89
728.84	2525.15
729.03	2418.65
729.21	2199.52
729.39	2082.78
729.57	1849.32
729.75	1779.68
729.93	1830.88
730.11	1718.25
730.30	1660.90
730.48	1703.91
730.66	1857.51
730.84	1751.01
731.02	1738.73
731.20	1624.04
731.38	1714.15
731.56	1646.57
731.74	1626.09
731.93	1753.06
732.11	1740.77
732.29	1677.29
732.47	1755.11
732.65	1665.00
732.83	1732.58
733.01	1800.16
733.19	1693.67
733.37	1703.91
733.56	1699.81
733.74	1697.77
733.92	1744.87
734.10	1671.14
734.28	1697.77
734.46	1656.81
734.64	1718.25
734.82	1679.33
735.00	1736.68
735.18	1578.98
735.36	1736.68
735.54	1699.81
735.73	1669.09
735.91	1785.83
736.09	1757.16
736.27	1705.96
736.45	1763.30
736.63	1642.47
736.81	1722.34
736.99	1751.01
737.17	1761.25
737.35	1679.33
737.53	1638.38
737.71	1714.15
737.89	1798.12
738.07	1624.04
738.25	1599.46
738.43	1593.32
738.61	1644.52
738.80	1609.70
738.98	1691.62
739.16	1652.71
739.34	1703.91
739.52	1757.16
739.70	1714.15
739.88	1734.63
740.06	1771.49
740.24	1472.49
740.42	1796.07
740.60	1576.94
740.78	1679.33
740.96	1673.19
741.14	1681.38
741.32	1705.96
741.50	1619.94
741.68	1849.32
741.86	1800.16
742.04	1640.42
742.22	1662.95
742.40	1695.72
742.58	1753.06
742.76	1679.33
742.94	1726.44
743.12	1607.66
743.30	1693.67
743.48	1724.39
743.66	1621.99
743.84	1765.35
744.02	1689.57
744.20	1740.77
744.38	1769.44
744.56	1617.90
744.74	1843.17
744.92	1740.77
745.10	1734.63
745.28	1751.01
745.46	1767.40
745.64	1710.05
745.82	1714.15
746.00	1726.44
746.18	1716.20
746.36	1671.14
746.54	1708.01
746.72	1685.48
746.90	1710.05
747.08	1814.50
747.26	1683.43
747.44	1722.34
747.62	1699.81
747.80	1693.67
747.98	1703.91
748.15	1730.53
748.33	1865.70
748.51	1611.75
748.69	1722.34
748.87	1671.14
749.05	1691.62
749.23	1757.16
749.41	1681.38
749.59	1742.82
749.77	1695.72
749.95	1708.01
750.13	1619.94
750.31	1748.97
750.49	1689.57
750.67	1691.62
750.85	1794.02
751.03	1755.11
751.20	1843.17
751.38	1742.82
751.56	1656.81
751.74	1716.20
751.92	1677.29
752.10	1597.42
752.28	1744.87
752.46	1621.99
752.64	1669.09
752.82	1685.48
753.00	1757.16
753.18	1632.23
753.35	1732.58
753.53	1581.03
753.71	1654.76
753.89	1685.48
754.07	1695.72
754.25	1787.88
754.43	1724.39
754.61	1634.28
754.79	1681.38
754.97	1675.24
755.14	1808.36
755.32	1585.13
755.50	1722.34
755.68	1714.15
755.86	1677.29
756.04	1662.95
756.22	1630.18
756.40	1763.30
756.57	1779.68
756.75	1689.57
756.93	1800.16
757.11	1669.09
757.29	1665.00
757.47	1611.75
757.65	1695.72
757.82	1611.75
758.00	1671.14
758.18	1716.20
758.36	1705.96
758.54	1746.92
758.72	1628.14
758.90	1724.39
759.07	1656.81
759.25	1626.09
759.43	1742.82
759.61	1677.29
759.79	2197.47
759.97	1828.84
760.15	1679.33
760.32	1693.67
760.50	1746.92
760.68	1841.12
760.86	1669.09
761.04	1794.02
761.22	1742.82
761.39	1714.15
761.57	1763.30
761.75	1677.29
761.93	1703.91
762.11	1681.38
762.28	1738.73
762.46	1646.57
762.64	1732.58
762.82	1613.80
763.00	1632.23
763.18	1736.68
763.35	1665.00
763.53	1736.68
763.71	1705.96
763.89	1691.62
764.07	1662.95
764.24	1705.96
764.42	1701.86
764.60	1640.42
764.78	1712.10
764.96	1765.35
765.13	1787.88
765.31	1665.00
765.49	1712.10
765.67	1685.48
765.84	1656.81
766.02	1646.57
766.20	1585.13
766.38	1779.68
766.56	1751.01
766.73	1755.11
766.91	1710.05
767.09	1732.58
767.27	1734.63
767.44	1710.05
767.62	1722.34
767.80	1740.77
767.98	1718.25
768.15	1673.19
768.33	1724.39
768.51	1708.01
768.69	1697.77
768.87	1742.82
769.04	1667.05
769.22	1796.07
769.40	1808.36
769.58	1796.07
769.75	1708.01
769.93	1728.49
770.11	1648.61
770.28	1677.29
770.46	1662.95
770.64	1683.43
770.82	1576.94
770.99	1697.77
771.17	1714.15
771.35	1658.85
771.53	1679.33
771.70	1671.14
771.88	1697.77
772.06	1730.53
772.23	1681.38
772.41	1712.10
772.59	1683.43
772.77	1642.47
772.94	1708.01
773.12	1705.96
773.30	1726.44
773.47	1677.29
773.65	1605.61
773.83	1755.11
774.01	1732.58
774.18	1626.09
774.36	1722.34
774.54	1589.22
774.71	1669.09
774.89	1650.66
775.07	1619.94
775.24	1673.19
775.42	1603.56
775.60	1871.84
775.78	1656.81
775.95	1621.99
776.13	1628.14
776.31	1583.08
776.48	1705.96
776.66	1740.77
776.84	1722.34
777.01	1654.76
777.19	1648.61
777.37	1652.71
777.54	1677.29
777.72	1773.54
777.90	1738.73
778.07	1648.61
778.25	1865.70
778.43	1757.16
778.60	1689.57
778.78	1697.77
778.96	1812.45
779.13	1615.85
779.31	1687.53
779.49	1685.48
779.66	1667.05
779.84	1619.94
780.01	1718.25
780.19	1638.38
780.37	1763.30
780.54	1714.15
780.72	1697.77
780.90	1722.34
781.07	1724.39
781.25	1681.38
781.43	1789.92
781.60	1714.15
781.78	1736.68
781.95	1671.14
782.13	1693.67
782.31	1673.19
782.48	1587.18
782.66	1699.81
782.83	1808.36
783.01	1775.59
783.19	1789.92
783.36	1728.49
783.54	1636.33
783.72	1798.12
783.89	1691.62
784.07	1699.81
784.24	1802.21
784.42	1812.45
784.60	1714.15
784.77	1687.53
784.95	1683.43
785.12	1677.29
785.30	1675.24
785.47	1685.48
785.65	1697.77
785.83	1638.38
786.00	1652.71
786.18	1695.72
786.35	1660.90
786.53	1640.42
786.71	1769.44
786.88	1718.25
787.06	1673.19
787.23	1744.87
787.41	1583.08
787.58	1724.39
787.76	1554.41
787.94	1658.85
788.11	1656.81
788.29	1654.76
788.46	1636.33
788.64	1589.22
788.81	1753.06
788.99	1591.27
789.16	1640.42
789.34	1689.57
789.52	1599.46
789.69	1685.48
789.87	1603.56
790.04	1660.90
790.22	1742.82
790.39	1791.97
790.57	1619.94
790.74	1705.96
790.92	1683.43
791.09	1642.47
791.27	1689.57
791.44	1773.54
791.62	1730.53
791.79	1667.05
791.97	1630.18
792.15	1820.64
792.32	1734.63
792.50	1734.63
792.67	1781.73
792.85	1748.97
793.02	1791.97
793.20	1636.33
793.37	1638.38
793.55	1714.15
793.72	1621.99
793.90	1751.01
794.07	1673.19
794.25	1554.41
794.42	1716.20
794.60	1636.33
794.77	1748.97
794.95	1830.88
795.12	1738.73
795.30	1732.58
795.47	1560.55
795.65	1861.60
795.82	1738.73
796.00	1572.84
796.17	1658.85
796.34	1677.29
796.52	1757.16
796.69	1779.68
796.87	1771.49
797.04	1732.58
797.22	1761.25
797.39	1763.30
797.57	1712.10
797.74	1740.77
797.92	1759.21
798.09	1662.95
798.27	1767.40
798.44	1675.24
798.62	1646.57
798.79	1779.68
798.96	1746.92
799.14	1708.01
799.31	1880.04
799.49	1699.81
799.66	1675.24
799.84	1720.29
800.01	1648.61
800.19	1701.86
800.36	1654.76
800.53	1757.16
800.71	1765.35
800.88	1800.16
801.06	1683.43
801.23	1757.16
801.41	1683.43
801.58	1652.71
801.75	1632.23
801.93	1722.34
802.10	1759.21
802.28	1746.92
802.45	1628.14
802.63	1740.77
802.80	1732.58
802.97	1632.23
803.15	1726.44
803.32	1624.04
803.50	1718.25
803.67	1619.94
803.84	1638.38
804.02	1621.99
804.19	1685.48
804.37	1570.79
804.54	1611.75
804.71	1632.23
804.89	1681.38
805.06	1708.01
805.24	1648.61
805.41	1652.71
805.58	1601.51
805.76	1806.31
805.93	1683.43
806.10	1783.78
806.28	1761.25
806.45	1746.92
806.63	1640.42
806.80	1691.62
806.97	1681.38
807.15	1708.01
807.32	1685.48
807.49	1685.48
807.67	1574.89
807.84	1720.29
808.01	1589.22
808.19	1834.98
808.36	1875.94
808.54	1681.38
808.71	1658.85
808.88	1671.14
809.06	1724.39
809.23	1777.64
809.40	1677.29
809.58	1718.25
809.75	1720.29
809.92	1701.86
810.10	1824.74
810.27	1714.15
810.44	1716.20
810.62	1771.49
810.79	1669.09
810.96	1615.85
811.14	1636.33
811.31	1724.39
811.48	1744.87
811.66	1656.81
811.83	1736.68
812.00	1716.20
812.18	1691.62
812.35	1837.03
812.52	1730.53
812.69	1687.53
812.87	1683.43
813.04	1662.95
813.21	1677.29
813.39	1609.70
813.56	1654.76
813.73	1748.97
813.91	1630.18
814.08	1736.68
814.25	1697.77
814.42	1609.70
814.60	1720.29
814.77	1720.29
814.94	1675.24
815.12	1675.24
815.29	1820.64
815.46	1714.15
815.63	1720.29
815.81	1705.96
815.98	1689.57
816.15	1677.29
816.33	1691.62
816.50	1691.62
816.67	1689.57
816.84	1726.44
817.02	1665.00
817.19	1757.16
817.36	1679.33
817.53	1701.86
817.71	1683.43
817.88	1783.78
818.05	1755.11
818.22	1703.91
818.40	1789.92
818.57	1718.25
818.74	1742.82
818.91	1730.53
819.09	1708.01
819.26	1746.92
819.43	1714.15
819.60	1720.29
819.78	1734.63
819.95	1804.26
820.12	1640.42
820.29	1796.07
820.47	1789.92
820.64	1650.66
820.81	1558.50
820.98	1658.85
821.15	1781.73
821.33	1689.57
821.50	1662.95
821.67	1736.68
821.84	1703.91
822.02	1769.44
822.19	1736.68
822.36	1677.29
822.53	1644.52
822.70	1675.24
822.88	1646.57
823.05	1787.88
823.22	1648.61
823.39	1791.97
823.56	1697.77
823.74	1828.84
823.91	1558.50
824.08	1640.42
824.25	1652.71
824.42	1796.07
824.60	1548.26
824.77	1687.53
824.94	1691.62
825.11	1789.92
825.28	1609.70
825.45	1699.81
825.63	1669.09
825.80	1646.57
825.97	1734.63
826.14	1757.16
826.31	1591.27
826.48	1722.34
826.66	1609.70
826.83	1626.09
827.00	1753.06
827.17	1669.09
827.34	1656.81
827.51	1634.28
827.69	1716.20
827.86	1685.48
828.03	1685.48
828.20	1701.86
828.37	1695.72
828.54	1765.35
828.71	1636.33
828.89	1744.87
829.06	1703.91
829.23	1822.69
829.40	1611.75
829.57	1626.09
829.74	1730.53
829.91	1689.57
830.09	1615.85
830.26	1730.53
830.43	1806.31
830.60	1744.87
830.77	1732.58
830.94	1804.26
831.11	1718.25
831.28	1679.33
831.46	1681.38
831.63	1665.00
831.80	1800.16
831.97	1730.53
832.14	1667.05
832.31	1724.39
832.48	1691.62
832.65	1708.01
832.82	1761.25
832.99	1671.14
833.17	1626.09
833.34	1771.49
833.51	1718.25
833.68	1656.81
833.85	1751.01
834.02	1652.71
834.19	1673.19
834.36	1644.52
834.53	1662.95
834.70	1726.44
834.87	1769.44
835.04	1656.81
835.22	1660.90
835.39	1757.16
835.56	1708.01
835.73	1677.29
835.90	1726.44
836.07	1693.67
836.24	1730.53
836.41	1687.53
836.58	1673.19
836.75	1771.49
836.92	1648.61
837.09	1697.77
837.26	1757.16
837.43	1640.42
837.60	1730.53
837.77	1648.61
837.94	1740.77
838.12	1757.16
838.29	1695.72
838.46	1716.20
838.63	1562.60
838.80	1787.88
838.97	1728.49
839.14	1699.81
839.31	1769.44
839.48	1730.53
839.65	1634.28
839.82	1685.48
839.99	1732.58
840.16	1693.67
840.33	1609.70
840.50	1703.91
840.67	1601.51
840.84	1609.70
841.01	1708.01
841.18	1656.81
841.35	1587.18
841.52	1791.97
841.69	1746.92
841.86	1673.19
842.03	1650.66
842.20	1714.15
842.37	1730.53
842.54	1714.15
842.71	1687.53
842.88	1652.71
843.05	1748.97
843.22	1662.95
843.39	1708.01
843.56	1687.53
843.73	1658.85
843.90	1728.49
844.07	1728.49
844.24	1800.16
844.41	1763.30
844.58	1691.62
844.75	1665.00
844.92	1687.53
845.09	1630.18
845.26	1699.81
845.43	1728.49
845.60	1710.05
845.77	1740.77
845.94	1644.52
846.10	1751.01
846.27	1669.09
846.44	1675.24
846.61	1595.37
846.78	1746.92
846.95	1744.87
847.12	1648.61
847.29	1665.00
847.46	1671.14
847.63	1800.16
847.80	1550.31
847.97	1685.48
848.14	1818.60
848.31	1658.85
848.48	1603.56
848.65	1722.34
848.82	1617.90
848.98	1730.53
849.15	1689.57
849.32	1716.20
849.49	1728.49
849.66	1593.32
849.83	1751.01
850.00	1652.71
850.17	1746.92
850.34	1732.58
850.51	1638.38
850.68	1644.52
850.85	1855.46
851.01	1724.39
851.18	1673.19
851.35	1744.87
851.52	1679.33
851.69	1724.39
851.86	1665.00
852.03	1644.52
852.20	1785.83
852.37	1722.34
852.53	1607.66
852.70	1722.34
852.87	1658.85
853.04	1734.63
853.21	1699.81
853.38	1738.73
853.55	1746.92
853.72	1794.02
853.89	1626.09
854.05	1652.71
854.22	1697.77
854.39	1669.09
854.56	1720.29
854.73	1800.16
854.90	1595.37
855.07	1761.25
855.23	1654.76
855.40	1699.81
855.57	1691.62
855.74	1613.80
855.91	1859.56
856.08	1642.47
856.25	1564.65
856.41	1630.18
856.58	1638.38
856.75	1708.01
856.92	1599.46
857.09	1787.88
857.26	1619.94
857.42	1740.77
857.59	1703.91
857.76	1681.38
857.93	1654.76
858.10	1732.58
858.27	1656.81
858.43	1720.29
858.60	1689.57
858.77	1673.19
858.94	1677.29
859.11	1730.53
859.27	1683.43
859.44	1771.49
859.61	1789.92
859.78	1716.20
859.95	1669.09
860.12	1648.61
860.28	1845.22
860.45	1791.97
860.62	1667.05
860.79	1689.57
860.95	1697.77
861.12	1632.23
861.29	1599.46
861.46	1533.93
861.63	1673.19
861.79	1832.93
861.96	1687.53
862.13	1636.33
862.30	1673.19
862.47	1693.67
862.63	1720.29
862.80	1767.40
862.97	1644.52
863.14	1789.92
863.30	1710.05
863.47	1601.51
863.64	1837.03
863.81	1677.29
863.97	1638.38
864.14	1718.25
864.31	1728.49
864.48	1691.62
864.65	1624.04
864.81	1796.07
864.98	1722.34
865.15	1730.53
865.32	1783.78
865.48	1669.09
865.65	1757.16
865.82	1648.61
865.98	1787.88
866.15	1810.40
866.32	1701.86
866.49	1640.42
866.65	1697.77
866.82	1624.04
866.99	1626.09
867.16	1710.05
867.32	1689.57
867.49	1665.00
867.66	1695.72
867.83	1710.05
867.99	1570.79
868.16	1708.01
868.33	1636.33
868.49	1724.39
868.66	1615.85
868.83	1710.05
868.99	1681.38
869.16	1740.77
869.33	1724.39
869.50	1738.73
869.66	1652.71
869.83	1658.85
870.00	1652.71
870.16	1677.29
870.33	1669.09
870.50	1687.53
870.66	1675.24
870.83	1822.69
871.00	1673.19
871.17	1687.53
871.33	1679.33
871.50	1714.15
871.67	1656.81
871.83	1646.57
872.00	1757.16
872.17	1628.14
872.33	1832.93
872.50	1810.40
872.67	1660.90
872.83	1646.57
873.00	1722.34
873.17	1718.25
873.33	1765.35
873.50	1746.92
873.67	1677.29
873.83	1660.90
874.00	1628.14
874.16	1779.68
874.33	1783.78
874.50	1656.81
874.66	1751.01
874.83	1634.28
875.00	1771.49
875.16	1763.30
875.33	1730.53
875.50	1531.88
875.66	1681.38
875.83	1742.82
875.99	1769.44
876.16	1581.03
876.33	1669.09
876.49	1685.48
876.66	1738.73
876.83	1705.96
876.99	1595.37
877.16	1621.99
877.32	1689.57
877.49	1699.81
877.66	1804.26
877.82	1785.83
877.99	1734.63
878.15	1726.44
878.32	1644.52
878.49	1701.86
878.65	1615.85
878.82	1824.74
878.98	1722.34
879.15	1785.83
879.32	1781.73
879.48	1689.57
879.65	1701.86
879.81	1689.57
879.98	1650.66
880.15	1611.75
880.31	1687.53
880.48	1710.05
880.64	1777.64
880.81	1712.10
880.97	1761.25
881.14	1738.73
881.31	1660.90
881.47	1888.23
881.64	1632.23
881.80	1597.42
881.97	1740.77
882.13	1796.07
882.30	1683.43
882.47	1634.28
882.63	1630.18
882.80	1738.73
882.96	1660.90
883.13	1732.58
883.29	1714.15
883.46	1685.48
883.62	1748.97
883.79	1634.28
883.95	1691.62
884.12	1724.39
884.29	1708.01
884.45	1695.72
884.62	1759.21
884.78	1693.67
884.95	1720.29
885.11	1642.47
885.28	1744.87
885.44	1603.56
885.61	1693.67
885.77	1748.97
885.94	1732.58
886.10	1712.10
886.27	1703.91
886.43	1693.67
886.60	1777.64
886.76	1726.44
886.93	1650.66
887.09	1681.38
887.26	1646.57
887.42	1648.61
887.59	1705.96
887.75	1820.64
887.92	1816.55
888.08	1751.01
888.25	1798.12
888.41	1648.61
888.58	1716.20
888.74	1697.77
888.91	1552.36
>>>>>End Processed Spectral Data<<<<<
