SpectraSuite Data File
++++++++++++++++++++++++++++++++++++
Date: Mon Jun 06 15:50:17 CEST 2016
User: root
Dark Spectrum Present: No
Reference Spectrum Present: No
Number of Sampled Component Spectra: 1
Spectrometers: USB4C02835
Integration Time (usec): 100000 (USB4C02835)
Spectra Averaged: 1 (USB4C02835)
Boxcar Smoothing: 0 (USB4C02835)
Correct for Electrical Dark: No (USB4C02835)
Strobe/Lamp Enabled: No (USB4C02835)
Correct for Detector Non-linearity: No (USB4C02835)
Correct for Stray Light: No (USB4C02835)
Number of Pixels in Processed Spectrum: 3648
>>>>>Begin Processed Spectral Data<<<<<
177.47	1445.87
177.69	1445.87
177.91	1445.87
178.13	1421.29
178.36	1386.47
178.58	1710.05
178.80	1705.96
179.02	1728.49
179.24	1634.28
179.46	1736.68
179.68	1746.92
179.90	1662.95
180.13	1708.01
180.35	1705.96
180.57	1626.09
180.79	1789.92
181.01	1705.96
181.23	1712.10
181.45	1781.73
181.67	1773.54
181.90	1777.64
182.12	1695.72
182.34	1658.85
182.56	1730.53
182.78	1734.63
183.00	1656.81
183.22	1759.21
183.44	1607.66
183.66	1818.60
183.89	1751.01
184.11	1746.92
184.33	1757.16
184.55	1849.32
184.77	1671.14
184.99	1703.91
185.21	1722.34
185.43	1843.17
185.65	1671.14
185.87	1675.24
186.10	1863.65
186.32	1900.52
186.54	1771.49
186.76	1746.92
186.98	1810.40
187.20	1734.63
187.42	1636.33
187.64	1646.57
187.86	1718.25
188.08	1738.73
188.30	1665.00
188.52	1726.44
188.75	1814.50
188.97	1843.17
189.19	1669.09
189.41	1697.77
189.63	1787.88
189.85	1683.43
190.07	1685.48
190.29	1699.81
190.51	1693.67
190.73	1697.77
190.95	1822.69
191.17	1675.24
191.39	1697.77
191.61	1701.86
191.84	1718.25
192.06	1710.05
192.28	1642.47
192.50	1865.70
192.72	1716.20
192.94	1734.63
193.16	1753.06
193.38	1812.45
193.60	1587.18
193.82	1757.16
194.04	1724.39
194.26	1765.35
194.48	1720.29
194.70	1693.67
194.92	1636.33
195.14	1730.53
195.36	1648.61
195.58	1744.87
195.80	1703.91
196.02	1705.96
196.24	1781.73
196.46	1808.36
196.69	1714.15
196.91	1937.38
197.13	1597.42
197.35	1718.25
197.57	1845.22
197.79	1734.63
198.01	1759.21
198.23	1773.54
198.45	1765.35
198.67	1714.15
198.89	1718.25
199.11	1708.01
199.33	1658.85
199.55	1599.46
199.77	1740.77
199.99	1757.16
200.21	1662.95
200.43	1763.30
200.65	1669.09
200.87	1624.04
201.09	1703.91
201.31	1730.53
201.53	1722.34
201.75	1767.40
201.97	1689.57
202.19	1689.57
202.41	1767.40
202.63	1863.65
202.85	1779.68
203.07	1755.11
203.29	1771.49
203.51	1665.00
203.73	1703.91
203.95	1916.90
204.17	1720.29
204.39	1699.81
204.61	1716.20
204.83	1753.06
205.05	1800.16
205.27	1714.15
205.49	1734.63
205.71	1832.93
205.93	1689.57
206.15	1640.42
206.37	1728.49
206.59	1726.44
206.81	1634.28
207.03	1599.46
207.25	1673.19
207.47	1708.01
207.69	1712.10
207.91	1804.26
208.13	1828.84
208.34	1619.94
208.56	1691.62
208.78	1757.16
209.00	1689.57
209.22	1691.62
209.44	1621.99
209.66	1632.23
209.88	1742.82
210.10	1689.57
210.32	1718.25
210.54	1771.49
210.76	1728.49
210.98	1724.39
211.20	1564.65
211.42	1669.09
211.64	1701.86
211.86	1751.01
212.08	1791.97
212.30	1699.81
212.52	1665.00
212.74	1757.16
212.96	1757.16
213.17	1808.36
213.39	1728.49
213.61	1755.11
213.83	1654.76
214.05	1644.52
214.27	1767.40
214.49	1669.09
214.71	1640.42
214.93	1740.77
215.15	1701.86
215.37	1775.59
215.59	1636.33
215.81	1812.45
216.03	1716.20
216.24	1699.81
216.46	1671.14
216.68	1701.86
216.90	1771.49
217.12	1773.54
217.34	1662.95
217.56	1771.49
217.78	1761.25
218.00	1734.63
218.22	1710.05
218.44	1697.77
218.66	1744.87
218.87	1814.50
219.09	1675.24
219.31	1699.81
219.53	1730.53
219.75	1658.85
219.97	1746.92
220.19	1703.91
220.41	1695.72
220.63	1791.97
220.85	1767.40
221.06	1730.53
221.28	1755.11
221.50	1771.49
221.72	1802.21
221.94	1726.44
222.16	1740.77
222.38	1779.68
222.60	1740.77
222.82	1675.24
223.03	1751.01
223.25	1708.01
223.47	1712.10
223.69	1779.68
223.91	1712.10
224.13	1738.73
224.35	1665.00
224.57	1789.92
224.78	1705.96
225.00	1642.47
225.22	1611.75
225.44	1757.16
225.66	1740.77
225.88	1665.00
226.10	1777.64
226.32	1724.39
226.53	1857.51
226.75	1755.11
226.97	1736.68
227.19	1798.12
227.41	1712.10
227.63	1748.97
227.85	1652.71
228.06	1771.49
228.28	1720.29
228.50	1810.40
228.72	1660.90
228.94	1718.25
229.16	1611.75
229.37	1667.05
229.59	1654.76
229.81	1785.83
230.03	1599.46
230.25	1658.85
230.47	1677.29
230.69	1722.34
230.90	1783.78
231.12	1667.05
231.34	1767.40
231.56	1722.34
231.78	1615.85
232.00	1691.62
232.21	1665.00
232.43	1656.81
232.65	1548.26
232.87	1695.72
233.09	1673.19
233.30	1681.38
233.52	1742.82
233.74	1714.15
233.96	1701.86
234.18	1687.53
234.40	1693.67
234.61	1841.12
234.83	1673.19
235.05	1628.14
235.27	1886.18
235.49	1847.27
235.70	1683.43
235.92	1832.93
236.14	1794.02
236.36	1886.18
236.58	1718.25
236.79	1730.53
237.01	1660.90
237.23	1673.19
237.45	1728.49
237.67	1677.29
237.88	1705.96
238.10	1841.12
238.32	1720.29
238.54	1716.20
238.76	1701.86
238.97	1720.29
239.19	1685.48
239.41	1734.63
239.63	1783.78
239.85	1667.05
240.06	1662.95
240.28	1705.96
240.50	1771.49
240.72	1748.97
240.93	1751.01
241.15	1781.73
241.37	1734.63
241.59	1832.93
241.81	1738.73
242.02	1667.05
242.24	1738.73
242.46	1697.77
242.68	1665.00
242.89	1728.49
243.11	1665.00
243.33	1716.20
243.55	1816.55
243.76	1746.92
243.98	1734.63
244.20	1730.53
244.42	1728.49
244.64	1675.24
244.85	1767.40
245.07	1648.61
245.29	1716.20
245.51	1724.39
245.72	1722.34
245.94	1742.82
246.16	1775.59
246.38	1734.63
246.59	1650.66
246.81	1677.29
247.03	1710.05
247.24	1613.80
247.46	1626.09
247.68	1763.30
247.90	1677.29
248.11	1673.19
248.33	1722.34
248.55	1708.01
248.77	1751.01
248.98	1798.12
249.20	1806.31
249.42	1730.53
249.64	1742.82
249.85	1624.04
250.07	1685.48
250.29	1736.68
250.50	1767.40
250.72	1621.99
250.94	1791.97
251.16	1839.08
251.37	1789.92
251.59	1757.16
251.81	1759.21
252.02	1812.45
252.24	1677.29
252.46	1802.21
252.68	1671.14
252.89	1619.94
253.11	1589.22
253.33	1787.88
253.54	1738.73
253.76	1607.66
253.98	1658.85
254.20	1705.96
254.41	1703.91
254.63	1695.72
254.85	1619.94
255.06	1669.09
255.28	1744.87
255.50	1708.01
255.71	1742.82
255.93	1640.42
256.15	1644.52
256.36	1769.44
256.58	1689.57
256.80	1814.50
257.02	1777.64
257.23	1748.97
257.45	1701.86
257.67	1761.25
257.88	1683.43
258.10	1701.86
258.32	1693.67
258.53	1714.15
258.75	1837.03
258.97	1701.86
259.18	1683.43
259.40	1773.54
259.62	1812.45
259.83	1726.44
260.05	1755.11
260.27	1970.15
260.48	1767.40
260.70	1656.81
260.92	1613.80
261.13	1734.63
261.35	1689.57
261.57	1771.49
261.78	1607.66
262.00	1634.28
262.22	1701.86
262.43	1697.77
262.65	1701.86
262.86	1728.49
263.08	1839.08
263.30	1705.96
263.51	1638.38
263.73	1667.05
263.95	1804.26
264.16	1693.67
264.38	1640.42
264.60	1736.68
264.81	1658.85
265.03	1771.49
265.25	1712.10
265.46	1705.96
265.68	1812.45
265.89	1796.07
266.11	1585.13
266.33	1742.82
266.54	1773.54
266.76	1789.92
266.98	1716.20
267.19	1804.26
267.41	1820.64
267.62	1755.11
267.84	1685.48
268.06	1736.68
268.27	1751.01
268.49	1722.34
268.70	1781.73
268.92	1685.48
269.14	1693.67
269.35	1583.08
269.57	1685.48
269.79	1757.16
270.00	1693.67
270.22	1785.83
270.43	1746.92
270.65	1511.40
270.87	1714.15
271.08	1794.02
271.30	1742.82
271.51	1658.85
271.73	1683.43
271.95	1763.30
272.16	1640.42
272.38	1740.77
272.59	1640.42
272.81	1675.24
273.02	1740.77
273.24	1738.73
273.46	1765.35
273.67	1599.46
273.89	1718.25
274.10	1681.38
274.32	1769.44
274.54	1767.40
274.75	1753.06
274.97	1673.19
275.18	1757.16
275.40	1718.25
275.61	1693.67
275.83	1775.59
276.05	1624.04
276.26	1724.39
276.48	1796.07
276.69	1662.95
276.91	1675.24
277.12	1845.22
277.34	1826.79
277.55	1720.29
277.77	1722.34
277.99	1685.48
278.20	1675.24
278.42	1695.72
278.63	1701.86
278.85	1716.20
279.06	1693.67
279.28	1755.11
279.49	1761.25
279.71	1691.62
279.93	1748.97
280.14	1705.96
280.36	1677.29
280.57	1730.53
280.79	1718.25
281.00	1689.57
281.22	1593.32
281.43	1722.34
281.65	1562.60
281.86	1578.98
282.08	1705.96
282.29	1818.60
282.51	1605.61
282.73	1683.43
282.94	1642.47
283.16	1679.33
283.37	1742.82
283.59	1703.91
283.80	1757.16
284.02	1667.05
284.23	1697.77
284.45	1642.47
284.66	1665.00
284.88	1671.14
285.09	1751.01
285.31	1730.53
285.52	1767.40
285.74	1626.09
285.95	1757.16
286.17	1644.52
286.38	1742.82
286.60	1628.14
286.81	1646.57
287.03	1671.14
287.24	1703.91
287.46	1794.02
287.67	1740.77
287.89	1787.88
288.10	1673.19
288.32	1662.95
288.53	1779.68
288.75	1744.87
288.96	1775.59
289.18	1693.67
289.39	1681.38
289.61	1699.81
289.82	1802.21
290.04	1777.64
290.25	1695.72
290.47	1779.68
290.68	1697.77
290.90	1828.84
291.11	1556.46
291.33	1834.98
291.54	1703.91
291.76	1697.77
291.97	1701.86
292.18	1732.58
292.40	1652.71
292.61	1771.49
292.83	1830.88
293.04	1789.92
293.26	1728.49
293.47	1779.68
293.69	1734.63
293.90	1751.01
294.12	1765.35
294.33	1632.23
294.55	1665.00
294.76	1755.11
294.97	1775.59
295.19	1877.99
295.40	1677.29
295.62	1671.14
295.83	1783.78
296.05	1681.38
296.26	1771.49
296.48	1675.24
296.69	1742.82
296.90	1722.34
297.12	1744.87
297.33	1761.25
297.55	1628.14
297.76	1753.06
297.98	1732.58
298.19	1691.62
298.41	1730.53
298.62	1681.38
298.83	1816.55
299.05	1714.15
299.26	1693.67
299.48	1689.57
299.69	1744.87
299.90	1759.21
300.12	1689.57
300.33	1740.77
300.55	1730.53
300.76	1771.49
300.98	1593.32
301.19	1732.58
301.40	1636.33
301.62	1693.67
301.83	1687.53
302.05	1775.59
302.26	1669.09
302.47	1703.91
302.69	1687.53
302.90	1679.33
303.12	1605.61
303.33	1822.69
303.54	1802.21
303.76	1630.18
303.97	1804.26
304.19	1806.31
304.40	1693.67
304.61	1755.11
304.83	1818.60
305.04	1810.40
305.26	1746.92
305.47	1609.70
305.68	1683.43
305.90	1662.95
306.11	1767.40
306.33	1724.39
306.54	1722.34
306.75	1566.70
306.97	1646.57
307.18	1576.94
307.39	1730.53
307.61	1804.26
307.82	1769.44
308.04	1837.03
308.25	1742.82
308.46	1775.59
308.68	1744.87
308.89	1669.09
309.10	1841.12
309.32	1775.59
309.53	1687.53
309.74	1718.25
309.96	1683.43
310.17	1816.55
310.39	1724.39
310.60	1771.49
310.81	1732.58
311.03	1667.05
311.24	1832.93
311.45	1640.42
311.67	1781.73
311.88	1740.77
312.09	1669.09
312.31	1681.38
312.52	1816.55
312.73	1693.67
312.95	1615.85
313.16	1693.67
313.37	1804.26
313.59	1718.25
313.80	1849.32
314.01	1728.49
314.23	1687.53
314.44	1763.30
314.65	1650.66
314.87	1687.53
315.08	1660.90
315.29	1703.91
315.51	1611.75
315.72	1656.81
315.93	1738.73
316.15	1777.64
316.36	1724.39
316.57	1806.31
316.79	1783.78
317.00	1681.38
317.21	1736.68
317.43	1656.81
317.64	1716.20
317.85	1708.01
318.07	1673.19
318.28	1714.15
318.49	1839.08
318.70	1923.04
318.92	1865.70
319.13	1816.55
319.34	1880.04
319.56	1724.39
319.77	1847.27
319.98	1791.97
320.20	1781.73
320.41	1722.34
320.62	1724.39
320.83	1650.66
321.05	1755.11
321.26	1701.86
321.47	1738.73
321.69	1724.39
321.90	1646.57
322.11	1699.81
322.32	1785.83
322.54	1818.60
322.75	1640.42
322.96	1845.22
323.18	1613.80
323.39	1595.37
323.60	1705.96
323.81	1796.07
324.03	1632.23
324.24	1714.15
324.45	1730.53
324.66	1673.19
324.88	1783.78
325.09	1687.53
325.30	1679.33
325.52	1708.01
325.73	1837.03
325.94	1656.81
326.15	1669.09
326.37	1648.61
326.58	1785.83
326.79	1775.59
327.00	1660.90
327.22	1708.01
327.43	1675.24
327.64	1593.32
327.85	1742.82
328.07	1703.91
328.28	1794.02
328.49	1728.49
328.70	1683.43
328.92	1732.58
329.13	1675.24
329.34	1738.73
329.55	1779.68
329.76	1808.36
329.98	1677.29
330.19	1787.88
330.40	1689.57
330.61	1714.15
330.83	1740.77
331.04	1695.72
331.25	1767.40
331.46	1683.43
331.68	1642.47
331.89	1800.16
332.10	1705.96
332.31	1624.04
332.52	1705.96
332.74	1701.86
332.95	1583.08
333.16	1667.05
333.37	1738.73
333.58	1728.49
333.80	1716.20
334.01	1619.94
334.22	1751.01
334.43	1708.01
334.64	1654.76
334.86	1550.31
335.07	1646.57
335.28	1740.77
335.49	1673.19
335.70	1687.53
335.92	1808.36
336.13	1845.22
336.34	1751.01
336.55	1691.62
336.76	1748.97
336.98	1611.75
337.19	1697.77
337.40	1798.12
337.61	1918.95
337.82	1673.19
338.04	1800.16
338.25	1626.09
338.46	1720.29
338.67	1742.82
338.88	1705.96
339.09	1613.80
339.31	1689.57
339.52	1650.66
339.73	1708.01
339.94	1679.33
340.15	1773.54
340.36	1656.81
340.58	1736.68
340.79	1640.42
341.00	1751.01
341.21	1683.43
341.42	1808.36
341.63	1669.09
341.85	1783.78
342.06	1771.49
342.27	1572.84
342.48	1712.10
342.69	1650.66
342.90	1730.53
343.12	1728.49
343.33	1669.09
343.54	1685.48
343.75	1812.45
343.96	1710.05
344.17	1736.68
344.38	1714.15
344.60	1730.53
344.81	1617.90
345.02	1671.14
345.23	1787.88
345.44	1738.73
345.65	1722.34
345.86	1656.81
346.07	1662.95
346.29	1624.04
346.50	1775.59
346.71	1763.30
346.92	1703.91
347.13	1898.47
347.34	1685.48
347.55	1775.59
347.76	1753.06
347.98	1634.28
348.19	1705.96
348.40	1791.97
348.61	1769.44
348.82	1837.03
349.03	1728.49
349.24	1662.95
349.45	1845.22
349.66	1634.28
349.88	1769.44
350.09	1650.66
350.30	1775.59
350.51	1847.27
350.72	1779.68
350.93	1730.53
351.14	1716.20
351.35	1685.48
351.56	1681.38
351.77	1697.77
351.99	1744.87
352.20	1738.73
352.41	1744.87
352.62	1574.89
352.83	1675.24
353.04	1734.63
353.25	1644.52
353.46	1748.97
353.67	1808.36
353.88	1574.89
354.09	1742.82
354.30	1630.18
354.52	1779.68
354.73	1714.15
354.94	1644.52
355.15	1673.19
355.36	1847.27
355.57	1660.90
355.78	1771.49
355.99	1769.44
356.20	1708.01
356.41	1785.83
356.62	1736.68
356.83	1679.33
357.04	1771.49
357.25	1665.00
357.46	1701.86
357.68	1566.70
357.89	1656.81
358.10	1628.14
358.31	1650.66
358.52	1785.83
358.73	1640.42
358.94	1650.66
359.15	1687.53
359.36	1681.38
359.57	1695.72
359.78	1652.71
359.99	1722.34
360.20	1644.52
360.41	1658.85
360.62	1802.21
360.83	1800.16
361.04	1759.21
361.25	1708.01
361.46	1828.84
361.67	1779.68
361.88	1755.11
362.09	1779.68
362.30	1765.35
362.51	1759.21
362.72	1796.07
362.93	1791.97
363.14	1783.78
363.35	1755.11
363.56	1640.42
363.78	1748.97
363.99	1771.49
364.20	1773.54
364.41	1785.83
364.62	1767.40
364.83	1662.95
365.04	1679.33
365.25	1705.96
365.46	1847.27
365.67	1710.05
365.88	1665.00
366.09	1734.63
366.30	1726.44
366.51	1650.66
366.72	1671.14
366.93	1712.10
367.14	1726.44
367.35	1738.73
367.56	1726.44
367.77	1773.54
367.98	1716.20
368.18	1722.34
368.39	1699.81
368.60	1673.19
368.81	1718.25
369.02	1695.72
369.23	1699.81
369.44	1599.46
369.65	1732.58
369.86	1748.97
370.07	1724.39
370.28	1738.73
370.49	1769.44
370.70	1771.49
370.91	1703.91
371.12	1619.94
371.33	1736.68
371.54	1705.96
371.75	1751.01
371.96	1644.52
372.17	1689.57
372.38	1714.15
372.59	1755.11
372.80	1703.91
373.01	1712.10
373.22	1738.73
373.43	1740.77
373.64	1587.18
373.85	1796.07
374.06	1855.46
374.26	1785.83
374.47	1679.33
374.68	1806.31
374.89	1785.83
375.10	1673.19
375.31	1728.49
375.52	1699.81
375.73	1771.49
375.94	1673.19
376.15	1771.49
376.36	1701.86
376.57	1611.75
376.78	1652.71
376.99	1718.25
377.20	1767.40
377.40	1742.82
377.61	1726.44
377.82	1628.14
378.03	1828.84
378.24	1769.44
378.45	1687.53
378.66	1716.20
378.87	1607.66
379.08	1648.61
379.29	1679.33
379.50	1841.12
379.71	1736.68
379.91	1708.01
380.12	1669.09
380.33	1714.15
380.54	1746.92
380.75	1771.49
380.96	1689.57
381.17	1728.49
381.38	1701.86
381.59	1722.34
381.80	1712.10
382.00	1869.80
382.21	1683.43
382.42	1886.18
382.63	1898.47
382.84	1765.35
383.05	1834.98
383.26	1857.51
383.47	1736.68
383.68	1714.15
383.88	1796.07
384.09	1712.10
384.30	1820.64
384.51	1722.34
384.72	1685.48
384.93	1662.95
385.14	1722.34
385.35	1789.92
385.55	1656.81
385.76	1720.29
385.97	1675.24
386.18	1660.90
386.39	1689.57
386.60	1722.34
386.81	1660.90
387.02	1626.09
387.22	1685.48
387.43	1744.87
387.64	1794.02
387.85	1894.37
388.06	2195.42
388.27	4089.79
388.48	6610.84
388.68	8148.87
388.89	9406.32
389.10	9621.36
389.31	8537.98
389.52	7393.17
389.73	6457.25
389.93	6117.28
390.14	5631.91
390.35	5119.92
390.56	4425.66
390.77	3753.93
390.98	3047.38
391.18	2461.66
391.39	2117.60
391.60	1894.37
391.81	1851.36
392.02	1681.38
392.23	1796.07
392.43	1742.82
392.64	1820.64
392.85	1724.39
393.06	1783.78
393.27	1689.57
393.47	1669.09
393.68	1726.44
393.89	1755.11
394.10	1845.22
394.31	1671.14
394.52	1554.41
394.72	1650.66
394.93	1814.50
395.14	1669.09
395.35	1839.08
395.56	1630.18
395.76	1800.16
395.97	1759.21
396.18	1859.56
396.39	1806.31
396.60	2074.59
396.80	1900.52
397.01	1877.99
397.22	1789.92
397.43	1853.41
397.64	1816.55
397.84	1820.64
398.05	1925.09
398.26	1779.68
398.47	1714.15
398.67	1748.97
398.88	1718.25
399.09	1691.62
399.30	1759.21
399.51	1742.82
399.71	1697.77
399.92	1718.25
400.13	1681.38
400.34	1679.33
400.54	1662.95
400.75	1783.78
400.96	1787.88
401.17	1888.23
401.37	1779.68
401.58	1677.29
401.79	1771.49
402.00	1910.75
402.21	1953.76
402.41	1996.77
402.62	1957.86
402.83	1968.10
403.04	1976.29
403.24	2097.12
403.45	1880.04
403.66	1808.36
403.87	1884.13
404.07	1935.33
404.28	1945.57
404.49	1834.98
404.70	1841.12
404.90	1732.58
405.11	1789.92
405.32	1837.03
405.52	1687.53
405.73	1746.92
405.94	1642.47
406.15	1742.82
406.35	1775.59
406.56	1763.30
406.77	1671.14
406.98	1755.11
407.18	1683.43
407.39	1675.24
407.60	1759.21
407.80	1800.16
408.01	1738.73
408.22	1710.05
408.43	1705.96
408.63	1765.35
408.84	1712.10
409.05	1773.54
409.25	1642.47
409.46	1736.68
409.67	1654.76
409.88	1679.33
410.08	1755.11
410.29	1673.19
410.50	1767.40
410.70	1732.58
410.91	1581.03
411.12	1681.38
411.32	1671.14
411.53	1736.68
411.74	1763.30
411.95	1812.45
412.15	1781.73
412.36	1742.82
412.57	1687.53
412.77	1800.16
412.98	1767.40
413.19	1691.62
413.39	1851.36
413.60	1751.01
413.81	1759.21
414.01	1689.57
414.22	1732.58
414.43	1804.26
414.63	1718.25
414.84	1738.73
415.05	1638.38
415.25	1658.85
415.46	1736.68
415.67	1667.05
415.87	1791.97
416.08	1691.62
416.29	1726.44
416.49	1726.44
416.70	1652.71
416.91	1673.19
417.11	1779.68
417.32	1732.58
417.53	1753.06
417.73	1744.87
417.94	1671.14
418.15	1728.49
418.35	1734.63
418.56	1730.53
418.77	1865.70
418.97	1779.68
419.18	1697.77
419.38	1560.55
419.59	1703.91
419.80	1806.31
420.00	1697.77
420.21	1732.58
420.42	1683.43
420.62	1755.11
420.83	1710.05
421.04	1781.73
421.24	1689.57
421.45	1734.63
421.65	1757.16
421.86	1671.14
422.07	1775.59
422.27	1802.21
422.48	1863.65
422.69	1701.86
422.89	1697.77
423.10	1736.68
423.30	1568.74
423.51	1699.81
423.72	1755.11
423.92	1748.97
424.13	1683.43
424.33	1755.11
424.54	1685.48
424.75	1814.50
424.95	1877.99
425.16	1804.26
425.36	1675.24
425.57	1794.02
425.78	1656.81
425.98	1771.49
426.19	1665.00
426.39	1624.04
426.60	1759.21
426.81	1828.84
427.01	1691.62
427.22	1681.38
427.42	1660.90
427.63	1785.83
427.83	1798.12
428.04	1796.07
428.25	1755.11
428.45	1820.64
428.66	1755.11
428.86	1718.25
429.07	1681.38
429.28	1755.11
429.48	1681.38
429.69	1724.39
429.89	1650.66
430.10	1607.66
430.30	1765.35
430.51	1769.44
430.71	1640.42
430.92	1673.19
431.13	1667.05
431.33	1783.78
431.54	1656.81
431.74	1759.21
431.95	1818.60
432.15	1673.19
432.36	1687.53
432.56	1751.01
432.77	1779.68
432.98	1771.49
433.18	1746.92
433.39	1724.39
433.59	1679.33
433.80	1771.49
434.00	1845.22
434.21	1748.97
434.41	1632.23
434.62	1812.45
434.82	1630.18
435.03	1695.72
435.23	1726.44
435.44	1683.43
435.64	1681.38
435.85	1761.25
436.06	1708.01
436.26	1742.82
436.47	1722.34
436.67	1669.09
436.88	1740.77
437.08	1681.38
437.29	1777.64
437.49	1787.88
437.70	1779.68
437.90	1697.77
438.11	1884.13
438.31	1849.32
438.52	1859.56
438.72	1857.51
438.93	1927.14
439.13	1722.34
439.34	1826.79
439.54	1732.58
439.75	1824.74
439.95	1730.53
440.16	1728.49
440.36	1837.03
440.57	1841.12
440.77	1834.98
440.98	1710.05
441.18	1748.97
441.39	1693.67
441.59	1642.47
441.80	1908.71
442.00	1753.06
442.21	1837.03
442.41	1699.81
442.62	1759.21
442.82	1714.15
443.02	1738.73
443.23	1695.72
443.43	1751.01
443.64	1800.16
443.84	1697.77
444.05	1796.07
444.25	1779.68
444.46	1837.03
444.66	1759.21
444.87	1746.92
445.07	1650.66
445.28	1779.68
445.48	1802.21
445.69	1738.73
445.89	1945.57
446.09	1689.57
446.30	2013.15
446.50	2613.21
446.71	3704.78
446.91	4263.87
447.12	4638.65
447.32	4771.77
447.53	4247.49
447.73	3944.39
447.93	3446.73
448.14	3217.36
448.34	3213.26
448.55	2879.44
448.75	2824.15
448.96	2645.98
449.16	2396.12
449.36	2316.25
449.57	2062.30
449.77	1900.52
449.98	1820.64
450.18	1818.60
450.39	1796.07
450.59	1773.54
450.79	1712.10
451.00	1769.44
451.20	1818.60
451.41	1734.63
451.61	1773.54
451.81	1763.30
452.02	1781.73
452.22	1691.62
452.43	1685.48
452.63	1669.09
452.84	1771.49
453.04	1837.03
453.24	1796.07
453.45	1718.25
453.65	1755.11
453.86	1710.05
454.06	1822.69
454.26	1755.11
454.47	1695.72
454.67	1845.22
454.87	1691.62
455.08	1693.67
455.28	1832.93
455.49	1736.68
455.69	1683.43
455.89	1837.03
456.10	1832.93
456.30	1751.01
456.51	1841.12
456.71	1677.29
456.91	1730.53
457.12	1777.64
457.32	1804.26
457.52	1699.81
457.73	1816.55
457.93	1785.83
458.14	1746.92
458.34	1669.09
458.54	1740.77
458.75	1732.58
458.95	1810.40
459.15	1740.77
459.36	1746.92
459.56	1759.21
459.76	1869.80
459.97	1742.82
460.17	1718.25
460.37	1808.36
460.58	1779.68
460.78	1789.92
460.99	1716.20
461.19	1775.59
461.39	1753.06
461.60	1691.62
461.80	1822.69
462.00	1697.77
462.21	1748.97
462.41	1708.01
462.61	1738.73
462.82	1683.43
463.02	1798.12
463.22	1734.63
463.43	1775.59
463.63	1763.30
463.83	1875.94
464.04	1722.34
464.24	1761.25
464.44	1697.77
464.64	1734.63
464.85	1777.64
465.05	1783.78
465.25	1714.15
465.46	1671.14
465.66	1781.73
465.86	1761.25
466.07	1726.44
466.27	1716.20
466.47	1673.19
466.68	1652.71
466.88	1744.87
467.08	1761.25
467.29	1828.84
467.49	1800.16
467.69	1763.30
467.89	1816.55
468.10	1685.48
468.30	1787.88
468.50	1816.55
468.71	1712.10
468.91	1689.57
469.11	1865.70
469.31	1783.78
469.52	1634.28
469.72	1783.78
469.92	1896.42
470.13	1755.11
470.33	1742.82
470.53	1867.75
470.73	2131.94
470.94	2277.34
471.14	2404.32
471.34	2533.34
471.54	2418.65
471.75	2220.00
471.95	2115.55
472.15	2054.11
472.36	2027.49
472.56	2181.09
472.76	2111.46
472.96	1972.19
473.17	2013.15
473.37	1918.95
473.57	1814.50
473.77	1871.84
473.98	1738.73
474.18	1720.29
474.38	1937.38
474.58	1716.20
474.79	1748.97
474.99	1794.02
475.19	1818.60
475.39	1693.67
475.60	1718.25
475.80	1710.05
476.00	1699.81
476.20	1753.06
476.41	1820.64
476.61	1902.56
476.81	1810.40
477.01	1720.29
477.21	1873.89
477.42	1839.08
477.62	1689.57
477.82	1812.45
478.02	1667.05
478.23	1777.64
478.43	1705.96
478.63	1691.62
478.83	1738.73
479.03	1714.15
479.24	1808.36
479.44	1847.27
479.64	1693.67
479.84	1640.42
480.04	1726.44
480.25	1779.68
480.45	1662.95
480.65	1712.10
480.85	1898.47
481.06	1701.86
481.26	1777.64
481.46	1791.97
481.66	1746.92
481.86	1658.85
482.06	1763.30
482.27	1744.87
482.47	1699.81
482.67	1783.78
482.87	1730.53
483.07	1804.26
483.28	1714.15
483.48	1646.57
483.68	1722.34
483.88	1646.57
484.08	1574.89
484.29	1638.38
484.49	1796.07
484.69	1710.05
484.89	1808.36
485.09	1763.30
485.29	1710.05
485.50	1710.05
485.70	1710.05
485.90	1775.59
486.10	1722.34
486.30	1767.40
486.50	1783.78
486.71	1697.77
486.91	1697.77
487.11	1816.55
487.31	1626.09
487.51	1718.25
487.71	1662.95
487.91	1669.09
488.12	1710.05
488.32	1599.46
488.52	1652.71
488.72	1609.70
488.92	1742.82
489.12	1708.01
489.32	1830.88
489.53	1775.59
489.73	1677.29
489.93	1789.92
490.13	1720.29
490.33	1656.81
490.53	1742.82
490.73	1806.31
490.94	1638.38
491.14	1783.78
491.34	1861.60
491.54	2125.79
491.74	2615.26
491.94	2889.68
492.14	3037.14
492.34	3041.23
492.54	2768.85
492.75	2385.88
492.95	2502.62
493.15	2320.35
493.35	2324.44
493.55	2260.96
493.75	2066.40
493.95	2189.28
494.15	1943.52
494.35	1957.86
494.56	1861.60
494.76	1714.15
494.96	1769.44
495.16	1800.16
495.36	1822.69
495.56	1730.53
495.76	1798.12
495.96	1767.40
496.16	1701.86
496.36	1896.42
496.56	1726.44
496.77	1787.88
496.97	1742.82
497.17	1822.69
497.37	1644.52
497.57	1753.06
497.77	1763.30
497.97	1669.09
498.17	1763.30
498.37	1626.09
498.57	1775.59
498.77	1744.87
498.97	1755.11
499.17	1822.69
499.38	1734.63
499.58	1789.92
499.78	1828.84
499.98	1867.75
500.18	1621.99
500.38	1701.86
500.58	1884.13
500.78	2557.91
500.98	4427.71
501.18	5738.41
501.38	6680.47
501.58	7051.16
501.78	6619.04
501.98	5558.19
502.18	4995.00
502.38	4261.82
502.58	4181.95
502.78	3688.39
502.98	3598.28
503.18	3422.16
503.38	3137.49
503.59	2772.95
503.79	2600.92
503.99	2514.91
504.19	2256.86
504.39	2195.42
504.59	2191.33
504.79	2117.60
504.99	2035.68
505.19	1970.15
505.39	1875.94
505.59	2004.96
505.79	1888.23
505.99	1875.94
506.19	1822.69
506.39	1834.98
506.59	1746.92
506.79	1783.78
506.99	1828.84
507.19	1812.45
507.39	1765.35
507.59	1638.38
507.79	1769.44
507.99	1712.10
508.19	1789.92
508.39	1773.54
508.59	1691.62
508.79	1843.17
508.99	1847.27
509.19	1753.06
509.39	1787.88
509.59	1757.16
509.79	1730.53
509.99	1822.69
510.19	1810.40
510.39	1796.07
510.59	1763.30
510.79	1628.14
510.99	1724.39
511.19	1773.54
511.39	1812.45
511.59	1863.65
511.79	1794.02
511.99	1732.58
512.19	1742.82
512.38	1789.92
512.58	1699.81
512.78	1746.92
512.98	1775.59
513.18	1818.60
513.38	1642.47
513.58	1802.21
513.78	1683.43
513.98	1755.11
514.18	1687.53
514.38	1779.68
514.58	1759.21
514.78	1699.81
514.98	1652.71
515.18	1746.92
515.38	1626.09
515.58	1800.16
515.78	1742.82
515.98	1740.77
516.18	1759.21
516.38	1697.77
516.57	1683.43
516.77	1730.53
516.97	1791.97
517.17	1697.77
517.37	1681.38
517.57	1738.73
517.77	1662.95
517.97	1824.74
518.17	1820.64
518.37	1673.19
518.57	1730.53
518.77	1726.44
518.97	1736.68
519.16	1658.85
519.36	1791.97
519.56	1699.81
519.76	1689.57
519.96	1699.81
520.16	1834.98
520.36	1697.77
520.56	1855.46
520.76	1599.46
520.96	1730.53
521.16	1837.03
521.35	1777.64
521.55	1894.37
521.75	1777.64
521.95	1701.86
522.15	1740.77
522.35	1652.71
522.55	1660.90
522.75	1722.34
522.95	1708.01
523.14	1714.15
523.34	1718.25
523.54	1703.91
523.74	1865.70
523.94	1765.35
524.14	1714.15
524.34	1744.87
524.54	1775.59
524.73	1779.68
524.93	1748.97
525.13	1757.16
525.33	1712.10
525.53	1916.90
525.73	1812.45
525.93	1748.97
526.13	1751.01
526.32	1665.00
526.52	1763.30
526.72	1771.49
526.92	1671.14
527.12	1732.58
527.32	1656.81
527.52	1769.44
527.71	1730.53
527.91	1720.29
528.11	1708.01
528.31	1787.88
528.51	1701.86
528.71	1783.78
528.90	1779.68
529.10	1841.12
529.30	1802.21
529.50	1689.57
529.70	1744.87
529.90	1736.68
530.09	1810.40
530.29	1656.81
530.49	1724.39
530.69	1935.33
530.89	1761.25
531.09	1816.55
531.28	1734.63
531.48	1847.27
531.68	1769.44
531.88	1755.11
532.08	1828.84
532.28	1619.94
532.47	1734.63
532.67	1812.45
532.87	1820.64
533.07	1753.06
533.27	1710.05
533.46	1781.73
533.66	1738.73
533.86	1765.35
534.06	1775.59
534.26	1732.58
534.45	1699.81
534.65	1810.40
534.85	1791.97
535.05	1742.82
535.25	1814.50
535.44	1595.37
535.64	1832.93
535.84	1732.58
536.04	1712.10
536.24	1718.25
536.43	1701.86
536.63	1849.32
536.83	1765.35
537.03	1740.77
537.22	1650.66
537.42	1599.46
537.62	1753.06
537.82	1638.38
538.02	1740.77
538.21	1826.79
538.41	1968.10
538.61	1736.68
538.81	1761.25
539.00	1765.35
539.20	1665.00
539.40	1732.58
539.60	1769.44
539.79	1789.92
539.99	1730.53
540.19	1648.61
540.39	1798.12
540.58	1787.88
540.78	1851.36
540.98	1665.00
541.18	1794.02
541.37	1718.25
541.57	1769.44
541.77	1853.41
541.97	1730.53
542.16	1730.53
542.36	1755.11
542.56	1845.22
542.76	1847.27
542.95	1769.44
543.15	1708.01
543.35	1746.92
543.54	1660.90
543.74	1785.83
543.94	1841.12
544.14	1800.16
544.33	1798.12
544.53	1773.54
544.73	1681.38
544.93	1708.01
545.12	1785.83
545.32	1769.44
545.52	1810.40
545.71	1712.10
545.91	1683.43
546.11	1771.49
546.30	1705.96
546.50	1746.92
546.70	1746.92
546.90	1761.25
547.09	1636.33
547.29	1753.06
547.49	1789.92
547.68	1681.38
547.88	1751.01
548.08	1812.45
548.27	2181.09
548.47	1695.72
548.67	1732.58
548.87	1832.93
549.06	1710.05
549.26	1728.49
549.46	1808.36
549.65	1701.86
549.85	1816.55
550.05	1853.41
550.24	1677.29
550.44	1718.25
550.64	1675.24
550.83	1718.25
551.03	1816.55
551.23	1798.12
551.42	1763.30
551.62	1689.57
551.82	1761.25
552.01	1654.76
552.21	1789.92
552.41	1810.40
552.60	1884.13
552.80	1742.82
553.00	1765.35
553.19	1718.25
553.39	1830.88
553.59	1697.77
553.78	1759.21
553.98	1781.73
554.17	1697.77
554.37	1794.02
554.57	1798.12
554.76	1662.95
554.96	1814.50
555.16	1798.12
555.35	1757.16
555.55	1716.20
555.75	1787.88
555.94	1716.20
556.14	1644.52
556.33	1773.54
556.53	1703.91
556.73	1732.58
556.92	1787.88
557.12	1787.88
557.32	1804.26
557.51	1853.41
557.71	1796.07
557.90	1877.99
558.10	1843.17
558.30	1796.07
558.49	1798.12
558.69	1779.68
558.88	1806.31
559.08	1667.05
559.28	1775.59
559.47	1738.73
559.67	1701.86
559.86	1814.50
560.06	1734.63
560.26	1787.88
560.45	1779.68
560.65	1732.58
560.84	1853.41
561.04	1656.81
561.24	1791.97
561.43	1701.86
561.63	1949.67
561.82	1746.92
562.02	1814.50
562.22	1728.49
562.41	1648.61
562.61	1724.39
562.80	1687.53
563.00	1873.89
563.19	1832.93
563.39	1755.11
563.59	1828.84
563.78	1716.20
563.98	1675.24
564.17	1703.91
564.37	1708.01
564.56	1779.68
564.76	1646.57
564.96	1875.94
565.15	1804.26
565.35	1931.23
565.54	1701.86
565.74	1787.88
565.93	1781.73
566.13	1660.90
566.32	1787.88
566.52	1773.54
566.71	1708.01
566.91	1789.92
567.11	1806.31
567.30	1748.97
567.50	1806.31
567.69	1746.92
567.89	1773.54
568.08	1732.58
568.28	1832.93
568.47	1726.44
568.67	1726.44
568.86	1730.53
569.06	1791.97
569.25	1734.63
569.45	1634.28
569.64	1689.57
569.84	1705.96
570.04	1830.88
570.23	1703.91
570.43	1767.40
570.62	1812.45
570.82	1789.92
571.01	1726.44
571.21	1685.48
571.40	1699.81
571.60	1816.55
571.79	1736.68
571.99	1763.30
572.18	1730.53
572.38	1830.88
572.57	1757.16
572.77	1689.57
572.96	1877.99
573.16	1806.31
573.35	1724.39
573.55	1818.60
573.74	1761.25
573.94	1701.86
574.13	1728.49
574.33	1837.03
574.52	1820.64
574.71	1728.49
574.91	1755.11
575.10	1675.24
575.30	1656.81
575.49	1742.82
575.69	1687.53
575.88	1779.68
576.08	1738.73
576.27	1757.16
576.47	1738.73
576.66	1888.23
576.86	1851.36
577.05	1763.30
577.25	1800.16
577.44	1810.40
577.64	1718.25
577.83	1822.69
578.02	1742.82
578.22	1837.03
578.41	1914.85
578.61	1718.25
578.80	1675.24
579.00	1736.68
579.19	1798.12
579.39	1820.64
579.58	1834.98
579.77	1775.59
579.97	1832.93
580.16	1834.98
580.36	1812.45
580.55	1751.01
580.75	1791.97
580.94	1783.78
581.13	1839.08
581.33	1796.07
581.52	1746.92
581.72	1974.24
581.91	1920.99
582.11	1765.35
582.30	1802.21
582.49	1789.92
582.69	1800.16
582.88	1775.59
583.08	1843.17
583.27	1791.97
583.47	1751.01
583.66	1710.05
583.85	1718.25
584.05	1730.53
584.24	1794.02
584.44	1787.88
584.63	1851.36
584.82	1818.60
585.02	1775.59
585.21	1937.38
585.41	1834.98
585.60	1871.84
585.79	1857.51
585.99	1953.76
586.18	1875.94
586.37	2166.75
586.57	3346.38
586.76	9682.80
586.96	23912.08
587.15	33754.62
587.34	39132.59
587.54	41031.05
587.73	35898.84
587.93	25505.40
588.12	20971.20
588.31	17872.62
588.51	15828.75
588.70	14870.30
588.89	13799.21
589.09	12087.11
589.28	10905.43
589.47	9148.28
589.67	7886.73
589.86	6227.87
590.06	4839.35
590.25	3774.41
590.44	3010.51
590.64	2527.19
590.83	2336.73
591.02	2164.70
591.22	1865.70
591.41	1935.33
591.60	1808.36
591.80	1912.80
591.99	1718.25
592.18	1796.07
592.38	1904.61
592.57	1822.69
592.76	1834.98
592.96	1740.77
593.15	1751.01
593.34	1873.89
593.54	1746.92
593.73	1808.36
593.92	1763.30
594.12	1773.54
594.31	1765.35
594.50	1882.08
594.70	1828.84
594.89	1888.23
595.08	1701.86
595.28	1798.12
595.47	1910.75
595.66	1847.27
595.86	1699.81
596.05	1640.42
596.24	1714.15
596.43	1849.32
596.63	1820.64
596.82	1767.40
597.01	1763.30
597.21	1865.70
597.40	1824.74
597.59	1773.54
597.79	1806.31
597.98	1812.45
598.17	1781.73
598.36	1859.56
598.56	1779.68
598.75	1763.30
598.94	1730.53
599.14	1806.31
599.33	1751.01
599.52	1808.36
599.71	1738.73
599.91	1839.08
600.10	1781.73
600.29	1740.77
600.48	1785.83
600.68	1804.26
600.87	1783.78
601.06	1708.01
601.26	1779.68
601.45	1814.50
601.64	1738.73
601.83	1791.97
602.03	1689.57
602.22	1681.38
602.41	1814.50
602.60	1837.03
602.80	1822.69
602.99	1783.78
603.18	1697.77
603.37	1783.78
603.57	1738.73
603.76	1757.16
603.95	1800.16
604.14	1689.57
604.34	1665.00
604.53	1677.29
604.72	1808.36
604.91	1800.16
605.10	1761.25
605.30	1724.39
605.49	1884.13
605.68	1781.73
605.87	1769.44
606.07	1701.86
606.26	1738.73
606.45	1755.11
606.64	1728.49
606.84	1740.77
607.03	1730.53
607.22	1738.73
607.41	1607.66
607.60	1742.82
607.80	1783.78
607.99	1703.91
608.18	1783.78
608.37	1740.77
608.56	1675.24
608.76	1787.88
608.95	1861.60
609.14	1759.21
609.33	1837.03
609.52	1814.50
609.72	1777.64
609.91	1834.98
610.10	1738.73
610.29	1804.26
610.48	1781.73
610.68	1759.21
610.87	1732.58
611.06	1857.51
611.25	1650.66
611.44	1800.16
611.63	1671.14
611.83	1882.08
612.02	1650.66
612.21	1814.50
612.40	1628.14
612.59	1720.29
612.79	1699.81
612.98	1771.49
613.17	1789.92
613.36	1767.40
613.55	1794.02
613.74	1689.57
613.93	1601.51
614.13	1689.57
614.32	1796.07
614.51	1787.88
614.70	1767.40
614.89	1689.57
615.08	1765.35
615.28	2060.26
615.47	1673.19
615.66	1746.92
615.85	1718.25
616.04	1849.32
616.23	1658.85
616.42	1689.57
616.62	1730.53
616.81	1855.46
617.00	1736.68
617.19	1781.73
617.38	1697.77
617.57	1751.01
617.76	1691.62
617.95	1746.92
618.15	1757.16
618.34	1820.64
618.53	1697.77
618.72	1806.31
618.91	1855.46
619.10	1839.08
619.29	1796.07
619.48	1742.82
619.68	1759.21
619.87	1650.66
620.06	1669.09
620.25	1791.97
620.44	1738.73
620.63	1761.25
620.82	1703.91
621.01	1794.02
621.20	1650.66
621.39	1722.34
621.59	1734.63
621.78	1748.97
621.97	1742.82
622.16	1791.97
622.35	1802.21
622.54	1611.75
622.73	1755.11
622.92	1665.00
623.11	1767.40
623.30	1710.05
623.49	1800.16
623.68	1652.71
623.88	1777.64
624.07	1665.00
624.26	1681.38
624.45	1755.11
624.64	1703.91
624.83	1724.39
625.02	1669.09
625.21	1734.63
625.40	1738.73
625.59	1789.92
625.78	1691.62
625.97	1705.96
626.16	1714.15
626.35	1771.49
626.54	1753.06
626.74	1703.91
626.93	1701.86
627.12	1800.16
627.31	1728.49
627.50	1730.53
627.69	1785.83
627.88	1708.01
628.07	1675.24
628.26	1650.66
628.45	1685.48
628.64	1699.81
628.83	1708.01
629.02	1710.05
629.21	1728.49
629.40	1789.92
629.59	1648.61
629.78	1708.01
629.97	1767.40
630.16	1771.49
630.35	1697.77
630.54	1722.34
630.73	1708.01
630.92	1775.59
631.11	1697.77
631.30	1722.34
631.49	1810.40
631.68	1759.21
631.87	1791.97
632.06	1673.19
632.25	1822.69
632.44	1757.16
632.63	1730.53
632.82	1748.97
633.01	1636.33
633.20	1642.47
633.39	1660.90
633.58	1636.33
633.77	1722.34
633.96	1785.83
634.15	1757.16
634.34	1755.11
634.53	1730.53
634.72	1642.47
634.91	1626.09
635.10	1781.73
635.29	1808.36
635.48	1824.74
635.67	1642.47
635.86	1658.85
636.05	1806.31
636.24	1755.11
636.43	1757.16
636.62	1759.21
636.81	1589.22
637.00	1710.05
637.19	1765.35
637.38	1771.49
637.57	1681.38
637.76	1699.81
637.95	1785.83
638.14	1603.56
638.33	1773.54
638.52	1701.86
638.71	1677.29
638.89	1669.09
639.08	1910.75
639.27	1716.20
639.46	1720.29
639.65	1814.50
639.84	1837.03
640.03	1777.64
640.22	1681.38
640.41	1869.80
640.60	1781.73
640.79	1730.53
640.98	1730.53
641.17	1763.30
641.36	1695.72
641.55	1802.21
641.74	1728.49
641.92	1705.96
642.11	1646.57
642.30	1685.48
642.49	1740.77
642.68	1697.77
642.87	1748.97
643.06	1714.15
643.25	1724.39
643.44	1640.42
643.63	1742.82
643.82	1746.92
644.00	1652.71
644.19	1773.54
644.38	1699.81
644.57	1798.12
644.76	1808.36
644.95	1759.21
645.14	1755.11
645.33	1720.29
645.52	1669.09
645.71	1654.76
645.89	1685.48
646.08	1755.11
646.27	1775.59
646.46	1857.51
646.65	1634.28
646.84	1751.01
647.03	1671.14
647.22	1808.36
647.40	1779.68
647.59	1753.06
647.78	1636.33
647.97	1626.09
648.16	1708.01
648.35	1738.73
648.54	1765.35
648.73	1624.04
648.91	1777.64
649.10	1716.20
649.29	1691.62
649.48	1718.25
649.67	1802.21
649.86	1675.24
650.05	1695.72
650.23	1781.73
650.42	1611.75
650.61	1753.06
650.80	1779.68
650.99	1783.78
651.18	1746.92
651.36	1820.64
651.55	1734.63
651.74	1804.26
651.93	1648.61
652.12	1710.05
652.31	1761.25
652.49	1722.34
652.68	1765.35
652.87	1849.32
653.06	1703.91
653.25	1789.92
653.44	1673.19
653.62	1822.69
653.81	1759.21
654.00	1773.54
654.19	1775.59
654.38	1886.18
654.56	1728.49
654.75	1685.48
654.94	1802.21
655.13	1697.77
655.32	1703.91
655.51	1789.92
655.69	1753.06
655.88	1748.97
656.07	1632.23
656.26	1667.05
656.45	1632.23
656.63	1710.05
656.82	1724.39
657.01	1781.73
657.20	1726.44
657.38	1869.80
657.57	1665.00
657.76	1646.57
657.95	1740.77
658.14	1658.85
658.32	1675.24
658.51	1662.95
658.70	1751.01
658.89	1751.01
659.08	1658.85
659.26	1810.40
659.45	1642.47
659.64	1779.68
659.83	1751.01
660.01	1945.57
660.20	1781.73
660.39	1783.78
660.58	1665.00
660.76	1726.44
660.95	1652.71
661.14	1732.58
661.33	1630.18
661.51	1804.26
661.70	1726.44
661.89	1718.25
662.08	1785.83
662.26	1701.86
662.45	1687.53
662.64	1867.75
662.83	1781.73
663.01	1660.90
663.20	1705.96
663.39	1777.64
663.58	1722.34
663.76	1697.77
663.95	1771.49
664.14	1691.62
664.32	1783.78
664.51	1728.49
664.70	1644.52
664.89	1789.92
665.07	1726.44
665.26	1755.11
665.45	1566.70
665.64	1787.88
665.82	1791.97
666.01	1746.92
666.20	1667.05
666.38	1828.84
666.57	1816.55
666.76	2113.50
666.95	4468.67
667.13	10196.84
667.32	14982.94
667.51	17606.39
667.69	18685.67
667.88	17116.92
668.07	12158.79
668.25	9232.24
668.44	8066.95
668.63	7098.26
668.81	6639.51
669.00	6107.04
669.19	5699.50
669.38	5105.59
669.56	4466.62
669.75	4014.02
669.94	3450.83
670.12	2934.74
670.31	2480.09
670.50	2213.85
670.68	2041.82
670.87	1957.86
671.06	1810.40
671.24	1820.64
671.43	1898.47
671.62	1742.82
671.80	1796.07
671.99	1777.64
672.18	1777.64
672.36	1708.01
672.55	1761.25
672.74	1746.92
672.92	1689.57
673.11	1726.44
673.29	1673.19
673.48	1742.82
673.67	1665.00
673.85	1796.07
674.04	1712.10
674.23	1751.01
674.41	1787.88
674.60	1718.25
674.79	1634.28
674.97	1591.27
675.16	1757.16
675.34	1804.26
675.53	1691.62
675.72	1765.35
675.90	1785.83
676.09	1708.01
676.28	1720.29
676.46	1654.76
676.65	1779.68
676.83	1683.43
677.02	1748.97
677.21	1736.68
677.39	1732.58
677.58	1681.38
677.77	1656.81
677.95	1738.73
678.14	1724.39
678.32	1775.59
678.51	1665.00
678.70	1877.99
678.88	1748.97
679.07	1716.20
679.25	1738.73
679.44	1687.53
679.63	1583.08
679.81	1771.49
680.00	1740.77
680.18	1742.82
680.37	1775.59
680.55	1722.34
680.74	1693.67
680.93	1673.19
681.11	1751.01
681.30	1675.24
681.48	1726.44
681.67	1736.68
681.85	1724.39
682.04	1673.19
682.23	1787.88
682.41	1757.16
682.60	1724.39
682.78	1693.67
682.97	1722.34
683.15	1796.07
683.34	1734.63
683.53	1779.68
683.71	1595.37
683.90	1796.07
684.08	1773.54
684.27	1726.44
684.45	1812.45
684.64	1771.49
684.82	1673.19
685.01	1746.92
685.19	1669.09
685.38	1865.70
685.57	1779.68
685.75	1746.92
685.94	1699.81
686.12	1755.11
686.31	1722.34
686.49	1781.73
686.68	1619.94
686.86	1738.73
687.05	1652.71
687.23	1773.54
687.42	1736.68
687.60	1683.43
687.79	1796.07
687.97	1796.07
688.16	1837.03
688.34	1849.32
688.53	1726.44
688.71	1724.39
688.90	1796.07
689.08	1714.15
689.27	1611.75
689.45	1757.16
689.64	1787.88
689.82	1779.68
690.01	1779.68
690.19	1724.39
690.38	1646.57
690.56	1769.44
690.75	1679.33
690.93	1691.62
691.12	1675.24
691.30	1671.14
691.49	1759.21
691.67	1710.05
691.86	1851.36
692.04	1652.71
692.23	1597.42
692.41	1738.73
692.60	1822.69
692.78	1732.58
692.97	1599.46
693.15	1755.11
693.34	1855.46
693.52	1853.41
693.71	1669.09
693.89	1759.21
694.08	1642.47
694.26	1755.11
694.44	1746.92
694.63	1787.88
694.81	1667.05
695.00	1654.76
695.18	1785.83
695.37	1779.68
695.55	1699.81
695.74	1667.05
695.92	1636.33
696.10	1710.05
696.29	1701.86
696.47	1716.20
696.66	1671.14
696.84	1722.34
697.03	1748.97
697.21	1796.07
697.40	2303.96
697.58	1808.36
697.76	1724.39
697.95	1689.57
698.13	1642.47
698.32	1646.57
698.50	1699.81
698.68	1839.08
698.87	1755.11
699.05	1775.59
699.24	1705.96
699.42	1675.24
699.61	1705.96
699.79	1705.96
699.97	1767.40
700.16	1656.81
700.34	1656.81
700.53	1732.58
700.71	1746.92
700.89	1859.56
701.08	1701.86
701.26	1718.25
701.45	2160.61
701.63	1720.29
701.81	1687.53
702.00	1726.44
702.18	1726.44
702.37	1695.72
702.55	1671.14
702.73	1705.96
702.92	1624.04
703.10	1740.77
703.28	1714.15
703.47	1654.76
703.65	1771.49
703.84	1771.49
704.02	1730.53
704.20	1812.45
704.39	1669.09
704.57	1683.43
704.75	1781.73
704.94	1779.68
705.12	1734.63
705.30	1894.37
705.49	2293.72
705.67	4501.44
705.86	9242.48
706.04	12185.41
706.22	14190.38
706.41	14956.32
706.59	13477.68
706.77	9318.26
706.96	7243.67
707.14	6483.87
707.32	5904.29
707.51	5437.36
707.69	4861.88
707.87	4253.63
708.06	3327.95
708.24	2983.89
708.42	2463.71
708.61	2240.48
708.79	1953.76
708.97	1843.17
709.16	1890.28
709.34	1839.08
709.52	1751.01
709.71	1714.15
709.89	1748.97
710.07	1683.43
710.26	1755.11
710.44	1789.92
710.62	1814.50
710.80	1755.11
710.99	1738.73
711.17	1728.49
711.35	1675.24
711.54	1720.29
711.72	1781.73
711.90	1708.01
712.09	1720.29
712.27	1691.62
712.45	1730.53
712.63	1656.81
712.82	1712.10
713.00	1734.63
713.18	1742.82
713.37	1855.46
713.55	1751.01
713.73	1722.34
713.91	1714.15
714.10	1703.91
714.28	1757.16
714.46	1697.77
714.65	1738.73
714.83	1693.67
715.01	1720.29
715.19	1712.10
715.38	1669.09
715.56	1732.58
715.74	1699.81
715.92	1638.38
716.11	1820.64
716.29	1615.85
716.47	1654.76
716.65	1767.40
716.84	1660.90
717.02	1800.16
717.20	1636.33
717.38	1671.14
717.57	1681.38
717.75	1636.33
717.93	1673.19
718.11	1730.53
718.30	1652.71
718.48	1738.73
718.66	1736.68
718.84	1755.11
719.03	1712.10
719.21	1644.52
719.39	1757.16
719.57	1757.16
719.75	1789.92
719.94	1662.95
720.12	1738.73
720.30	1665.00
720.48	1822.69
720.67	1695.72
720.85	1693.67
721.03	1744.87
721.21	1742.82
721.39	1722.34
721.58	1746.92
721.76	1716.20
721.94	1785.83
722.12	1804.26
722.30	1800.16
722.49	1624.04
722.67	1767.40
722.85	1665.00
723.03	1746.92
723.21	1699.81
723.40	1748.97
723.58	1820.64
723.76	1763.30
723.94	1728.49
724.12	1636.33
724.30	1822.69
724.49	1724.39
724.67	1636.33
724.85	1859.56
725.03	1681.38
725.21	1822.69
725.40	1697.77
725.58	1708.01
725.76	1859.56
725.94	1705.96
726.12	1656.81
726.30	1660.90
726.49	1738.73
726.67	1693.67
726.85	1761.25
727.03	1765.35
727.21	2193.37
727.39	2893.78
727.57	3751.88
727.76	4253.63
727.94	4351.93
728.12	4208.58
728.30	3686.34
728.48	2844.63
728.66	2844.63
728.84	2463.71
729.03	2205.66
729.21	2228.19
729.39	1972.19
729.57	1886.18
729.75	1789.92
729.93	1845.22
730.11	1685.48
730.30	1722.34
730.48	1804.26
730.66	1818.60
730.84	1800.16
731.02	1681.38
731.20	1667.05
731.38	1724.39
731.56	1673.19
731.74	1705.96
731.93	1662.95
732.11	1716.20
732.29	1689.57
732.47	1789.92
732.65	1738.73
732.83	1857.51
733.01	1669.09
733.19	1683.43
733.37	1730.53
733.56	1746.92
733.74	1705.96
733.92	1808.36
734.10	1646.57
734.28	1708.01
734.46	1699.81
734.64	1656.81
734.82	1718.25
735.00	1730.53
735.18	1677.29
735.36	1691.62
735.54	1738.73
735.73	1722.34
735.91	1714.15
736.09	1746.92
736.27	1648.61
736.45	1789.92
736.63	1615.85
736.81	1644.52
736.99	1800.16
737.17	1779.68
737.35	1673.19
737.53	1691.62
737.71	1703.91
737.89	1787.88
738.07	1652.71
738.25	1667.05
738.43	1652.71
738.61	1677.29
738.80	1683.43
738.98	1640.42
739.16	1681.38
739.34	1697.77
739.52	1724.39
739.70	1763.30
739.88	1791.97
740.06	1824.74
740.24	1617.90
740.42	1796.07
740.60	1656.81
740.78	1685.48
740.96	1568.74
741.14	1701.86
741.32	1724.39
741.50	1628.14
741.68	1834.98
741.86	1800.16
742.04	1662.95
742.22	1681.38
742.40	1730.53
742.58	1708.01
742.76	1687.53
742.94	1769.44
743.12	1615.85
743.30	1687.53
743.48	1720.29
743.66	1685.48
743.84	1777.64
744.02	1724.39
744.20	1669.09
744.38	1683.43
744.56	1732.58
744.74	1740.77
744.92	1779.68
745.10	1787.88
745.28	1789.92
745.46	1753.06
745.64	1748.97
745.82	1785.83
746.00	1738.73
746.18	1703.91
746.36	1703.91
746.54	1775.59
746.72	1722.34
746.90	1646.57
747.08	1787.88
747.26	1697.77
747.44	1699.81
747.62	1751.01
747.80	1710.05
747.98	1804.26
748.15	1697.77
748.33	1816.55
748.51	1730.53
748.69	1820.64
748.87	1710.05
749.05	1693.67
749.23	1669.09
749.41	1767.40
749.59	1673.19
749.77	1699.81
749.95	1673.19
750.13	1730.53
750.31	1685.48
750.49	1654.76
750.67	1755.11
750.85	1804.26
751.03	1751.01
751.20	1785.83
751.38	1757.16
751.56	1714.15
751.74	1802.21
751.92	1796.07
752.10	1656.81
752.28	1802.21
752.46	1652.71
752.64	1673.19
752.82	1755.11
753.00	1748.97
753.18	1681.38
753.35	1677.29
753.53	1683.43
753.71	1722.34
753.89	1695.72
754.07	1783.78
754.25	1701.86
754.43	1687.53
754.61	1634.28
754.79	1746.92
754.97	1724.39
755.14	1757.16
755.32	1591.27
755.50	1652.71
755.68	1720.29
755.86	1681.38
756.04	1761.25
756.22	1531.88
756.40	1806.31
756.57	1847.27
756.75	1648.61
756.93	1800.16
757.11	1755.11
757.29	1697.77
757.47	1724.39
757.65	1693.67
757.82	1593.32
758.00	1644.52
758.18	1667.05
758.36	1652.71
758.54	1771.49
758.72	1624.04
758.90	1712.10
759.07	1726.44
759.25	1689.57
759.43	1730.53
759.61	1648.61
759.79	2217.95
759.97	1718.25
760.15	1611.75
760.32	1687.53
760.50	1740.77
760.68	1812.45
760.86	1669.09
761.04	1714.15
761.22	1767.40
761.39	1677.29
761.57	1703.91
761.75	1775.59
761.93	1888.23
762.11	1683.43
762.28	1755.11
762.46	1701.86
762.64	1773.54
762.82	1636.33
763.00	1636.33
763.18	1761.25
763.35	1648.61
763.53	1724.39
763.71	1738.73
763.89	1732.58
764.07	1794.02
764.24	1695.72
764.42	1744.87
764.60	1773.54
764.78	1728.49
764.96	1759.21
765.13	1763.30
765.31	1683.43
765.49	1755.11
765.67	1656.81
765.84	1710.05
766.02	1679.33
766.20	1636.33
766.38	1732.58
766.56	1691.62
766.73	1765.35
766.91	1656.81
767.09	1693.67
767.27	1806.31
767.44	1642.47
767.62	1755.11
767.80	1697.77
767.98	1742.82
768.15	1673.19
768.33	1753.06
768.51	1804.26
768.69	1828.84
768.87	1775.59
769.04	1728.49
769.22	1937.38
769.40	1822.69
769.58	1875.94
769.75	1695.72
769.93	1763.30
770.11	1675.24
770.28	1603.56
770.46	1777.64
770.64	1769.44
770.82	1679.33
770.99	1673.19
771.17	1773.54
771.35	1730.53
771.53	1632.23
771.70	1665.00
771.88	1757.16
772.06	1607.66
772.23	1742.82
772.41	1687.53
772.59	1656.81
772.77	1665.00
772.94	1732.58
773.12	1748.97
773.30	1642.47
773.47	1708.01
773.65	1656.81
773.83	1708.01
774.01	1648.61
774.18	1626.09
774.36	1732.58
774.54	1712.10
774.71	1710.05
774.89	1601.51
775.07	1607.66
775.24	1697.77
775.42	1708.01
775.60	1841.12
775.78	1669.09
775.95	1632.23
776.13	1605.61
776.31	1628.14
776.48	1708.01
776.66	1773.54
776.84	1693.67
777.01	1634.28
777.19	1658.85
777.37	1689.57
777.54	1769.44
777.72	1841.12
777.90	1812.45
778.07	1691.62
778.25	1761.25
778.43	1810.40
778.60	1697.77
778.78	1822.69
778.96	1751.01
779.13	1648.61
779.31	1755.11
779.49	1720.29
779.66	1734.63
779.84	1779.68
780.01	1710.05
780.19	1642.47
780.37	1800.16
780.54	1673.19
780.72	1800.16
780.90	1648.61
781.07	1757.16
781.25	1601.51
781.43	1810.40
781.60	1701.86
781.78	1763.30
781.95	1673.19
782.13	1736.68
782.31	1755.11
782.48	1566.70
782.66	1708.01
782.83	1900.52
783.01	1732.58
783.19	1798.12
783.36	1681.38
783.54	1585.13
783.72	1800.16
783.89	1685.48
784.07	1712.10
784.24	1748.97
784.42	1761.25
784.60	1796.07
784.77	1740.77
784.95	1675.24
785.12	1695.72
785.30	1738.73
785.47	1617.90
785.65	1648.61
785.83	1755.11
786.00	1710.05
786.18	1742.82
786.35	1691.62
786.53	1685.48
786.71	1761.25
786.88	1757.16
787.06	1718.25
787.23	1714.15
787.41	1613.80
787.58	1712.10
787.76	1669.09
787.94	1755.11
788.11	1759.21
788.29	1671.14
788.46	1703.91
788.64	1648.61
788.81	1730.53
788.99	1650.66
789.16	1624.04
789.34	1710.05
789.52	1689.57
789.69	1714.15
789.87	1634.28
790.04	1755.11
790.22	1757.16
790.39	1804.26
790.57	1665.00
790.74	1728.49
790.92	1720.29
791.09	1540.07
791.27	1738.73
791.44	1748.97
791.62	1734.63
791.79	1789.92
791.97	1775.59
792.15	1834.98
792.32	1712.10
792.50	1732.58
792.67	1767.40
792.85	1796.07
793.02	1724.39
793.20	1648.61
793.37	1638.38
793.55	1646.57
793.72	1644.52
793.90	1730.53
794.07	1675.24
794.25	1644.52
794.42	1798.12
794.60	1665.00
794.77	1722.34
794.95	1781.73
795.12	1771.49
795.30	1681.38
795.47	1578.98
795.65	1845.22
795.82	1834.98
796.00	1724.39
796.17	1648.61
796.34	1609.70
796.52	1785.83
796.69	1726.44
796.87	1748.97
797.04	1759.21
797.22	1718.25
797.39	1650.66
797.57	1732.58
797.74	1687.53
797.92	1724.39
798.09	1624.04
798.27	1771.49
798.44	1689.57
798.62	1697.77
798.79	1738.73
798.96	1783.78
799.14	1681.38
799.31	1892.32
799.49	1712.10
799.66	1669.09
799.84	1757.16
800.01	1736.68
800.19	1685.48
800.36	1632.23
800.53	1722.34
800.71	1765.35
800.88	1845.22
801.06	1683.43
801.23	1748.97
801.41	1740.77
801.58	1685.48
801.75	1724.39
801.93	1736.68
802.10	1671.14
802.28	1691.62
802.45	1656.81
802.63	1689.57
802.80	1812.45
802.97	1669.09
803.15	1820.64
803.32	1695.72
803.50	1624.04
803.67	1656.81
803.84	1568.74
804.02	1744.87
804.19	1691.62
804.37	1619.94
804.54	1665.00
804.71	1714.15
804.89	1683.43
805.06	1638.38
805.24	1640.42
805.41	1681.38
805.58	1646.57
805.76	1873.89
805.93	1724.39
806.10	1802.21
806.28	1798.12
806.45	1697.77
806.63	1697.77
806.80	1757.16
806.97	1732.58
807.15	1662.95
807.32	1665.00
807.49	1794.02
807.67	1611.75
807.84	1708.01
808.01	1593.32
808.19	1755.11
808.36	1771.49
808.54	1634.28
808.71	1673.19
808.88	1771.49
809.06	1785.83
809.23	1812.45
809.40	1699.81
809.58	1757.16
809.75	1708.01
809.92	1679.33
810.10	1810.40
810.27	1746.92
810.44	1716.20
810.62	1712.10
810.79	1791.97
810.96	1703.91
811.14	1646.57
811.31	1667.05
811.48	1779.68
811.66	1710.05
811.83	1857.51
812.00	1746.92
812.18	1771.49
812.35	1787.88
812.52	1714.15
812.69	1728.49
812.87	1757.16
813.04	1652.71
813.21	1697.77
813.39	1722.34
813.56	1646.57
813.73	1742.82
813.91	1695.72
814.08	1699.81
814.25	1708.01
814.42	1642.47
814.60	1667.05
814.77	1734.63
814.94	1712.10
815.12	1755.11
815.29	1748.97
815.46	1730.53
815.63	1667.05
815.81	1673.19
815.98	1816.55
816.15	1640.42
816.33	1691.62
816.50	1673.19
816.67	1769.44
816.84	1765.35
817.02	1624.04
817.19	1658.85
817.36	1701.86
817.53	1720.29
817.71	1656.81
817.88	1771.49
818.05	1568.74
818.22	1783.78
818.40	1816.55
818.57	1685.48
818.74	1763.30
818.91	1728.49
819.09	1746.92
819.26	1779.68
819.43	1720.29
819.60	1701.86
819.78	1769.44
819.95	1730.53
820.12	1714.15
820.29	1738.73
820.47	1728.49
820.64	1697.77
820.81	1564.65
820.98	1691.62
821.15	1640.42
821.33	1769.44
821.50	1636.33
821.67	1746.92
821.84	1644.52
822.02	1779.68
822.19	1755.11
822.36	1687.53
822.53	1677.29
822.70	1673.19
822.88	1697.77
823.05	1757.16
823.22	1751.01
823.39	1769.44
823.56	1722.34
823.74	1794.02
823.91	1595.37
824.08	1722.34
824.25	1632.23
824.42	1904.61
824.60	1624.04
824.77	1773.54
824.94	1648.61
825.11	1665.00
825.28	1642.47
825.45	1701.86
825.63	1730.53
825.80	1691.62
825.97	1726.44
826.14	1656.81
826.31	1640.42
826.48	1730.53
826.66	1701.86
826.83	1757.16
827.00	1708.01
827.17	1675.24
827.34	1646.57
827.51	1716.20
827.69	1679.33
827.86	1673.19
828.03	1742.82
828.20	1705.96
828.37	1648.61
828.54	1726.44
828.71	1662.95
828.89	1834.98
829.06	1748.97
829.23	1789.92
829.40	1605.61
829.57	1665.00
829.74	1738.73
829.91	1675.24
830.09	1730.53
830.26	1705.96
830.43	1791.97
830.60	1789.92
830.77	1697.77
830.94	1738.73
831.11	1791.97
831.28	1720.29
831.46	1789.92
831.63	1708.01
831.80	1755.11
831.97	1726.44
832.14	1646.57
832.31	1787.88
832.48	1724.39
832.65	1689.57
832.82	1705.96
832.99	1699.81
833.17	1619.94
833.34	1832.93
833.51	1669.09
833.68	1611.75
833.85	1761.25
834.02	1683.43
834.19	1634.28
834.36	1611.75
834.53	1703.91
834.70	1763.30
834.87	1673.19
835.04	1769.44
835.22	1611.75
835.39	1720.29
835.56	1695.72
835.73	1697.77
835.90	1789.92
836.07	1669.09
836.24	1785.83
836.41	1667.05
836.58	1632.23
836.75	1751.01
836.92	1759.21
837.09	1742.82
837.26	1640.42
837.43	1761.25
837.60	1796.07
837.77	1705.96
837.94	1777.64
838.12	1796.07
838.29	1716.20
838.46	1593.32
838.63	1654.76
838.80	1771.49
838.97	1693.67
839.14	1730.53
839.31	1703.91
839.48	1736.68
839.65	1732.58
839.82	1816.55
839.99	1738.73
840.16	1681.38
840.33	1687.53
840.50	1744.87
840.67	1652.71
840.84	1605.61
841.01	1691.62
841.18	1669.09
841.35	1665.00
841.52	1767.40
841.69	1841.12
841.86	1691.62
842.03	1687.53
842.20	1824.74
842.37	1710.05
842.54	1753.06
842.71	1746.92
842.88	1634.28
843.05	1763.30
843.22	1652.71
843.39	1779.68
843.56	1665.00
843.73	1681.38
843.90	1740.77
844.07	1769.44
844.24	1802.21
844.41	1765.35
844.58	1820.64
844.75	1699.81
844.92	1718.25
845.09	1720.29
845.26	1705.96
845.43	1738.73
845.60	1689.57
845.77	1685.48
845.94	1716.20
846.10	1710.05
846.27	1638.38
846.44	1693.67
846.61	1691.62
846.78	1775.59
846.95	1812.45
847.12	1710.05
847.29	1734.63
847.46	1673.19
847.63	1775.59
847.80	1732.58
847.97	1689.57
848.14	1900.52
848.31	1701.86
848.48	1595.37
848.65	1724.39
848.82	1695.72
848.98	1824.74
849.15	1726.44
849.32	1796.07
849.49	1791.97
849.66	1658.85
849.83	1714.15
850.00	1621.99
850.17	1726.44
850.34	1681.38
850.51	1638.38
850.68	1701.86
850.85	1861.60
851.01	1794.02
851.18	1734.63
851.35	1658.85
851.52	1763.30
851.69	1748.97
851.86	1644.52
852.03	1644.52
852.20	1744.87
852.37	1755.11
852.53	1617.90
852.70	1695.72
852.87	1675.24
853.04	1765.35
853.21	1757.16
853.38	1800.16
853.55	1753.06
853.72	1794.02
853.89	1652.71
854.05	1693.67
854.22	1656.81
854.39	1689.57
854.56	1683.43
854.73	1759.21
854.90	1681.38
855.07	1677.29
855.23	1671.14
855.40	1691.62
855.57	1669.09
855.74	1634.28
855.91	1865.70
856.08	1634.28
856.25	1683.43
856.41	1710.05
856.58	1701.86
856.75	1734.63
856.92	1658.85
857.09	1732.58
857.26	1581.03
857.42	1687.53
857.59	1722.34
857.76	1716.20
857.93	1716.20
858.10	1767.40
858.27	1665.00
858.43	1779.68
858.60	1603.56
858.77	1689.57
858.94	1667.05
859.11	1808.36
859.27	1716.20
859.44	1703.91
859.61	1843.17
859.78	1746.92
859.95	1716.20
860.12	1722.34
860.28	1789.92
860.45	1789.92
860.62	1677.29
860.79	1681.38
860.95	1814.50
861.12	1619.94
861.29	1691.62
861.46	1677.29
861.63	1720.29
861.79	1740.77
861.96	1665.00
862.13	1689.57
862.30	1806.31
862.47	1699.81
862.63	1601.51
862.80	1839.08
862.97	1765.35
863.14	1693.67
863.30	1798.12
863.47	1673.19
863.64	1742.82
863.81	1738.73
863.97	1728.49
864.14	1751.01
864.31	1669.09
864.48	1677.29
864.65	1642.47
864.81	1748.97
864.98	1658.85
865.15	1714.15
865.32	1732.58
865.48	1796.07
865.65	1746.92
865.82	1669.09
865.98	1746.92
866.15	1796.07
866.32	1693.67
866.49	1665.00
866.65	1802.21
866.82	1677.29
866.99	1738.73
867.16	1654.76
867.32	1619.94
867.49	1736.68
867.66	1679.33
867.83	1611.75
867.99	1568.74
868.16	1724.39
868.33	1652.71
868.49	1705.96
868.66	1652.71
868.83	1730.53
868.99	1755.11
869.16	1636.33
869.33	1759.21
869.50	1732.58
869.66	1691.62
869.83	1703.91
870.00	1638.38
870.16	1746.92
870.33	1748.97
870.50	1763.30
870.66	1656.81
870.83	1789.92
871.00	1728.49
871.17	1791.97
871.33	1783.78
871.50	1681.38
871.67	1794.02
871.83	1671.14
872.00	1773.54
872.17	1722.34
872.33	1834.98
872.50	1734.63
872.67	1591.27
872.83	1683.43
873.00	1681.38
873.17	1755.11
873.33	1791.97
873.50	1732.58
873.67	1665.00
873.83	1640.42
874.00	1742.82
874.16	1767.40
874.33	1714.15
874.50	1626.09
874.66	1716.20
874.83	1785.83
875.00	1769.44
875.16	1736.68
875.33	1738.73
875.50	1546.22
875.66	1716.20
875.83	1779.68
875.99	1753.06
876.16	1667.05
876.33	1615.85
876.49	1740.77
876.66	1708.01
876.83	1705.96
876.99	1624.04
877.16	1650.66
877.32	1720.29
877.49	1705.96
877.66	1748.97
877.82	1843.17
877.99	1699.81
878.15	1742.82
878.32	1712.10
878.49	1763.30
878.65	1681.38
878.82	1812.45
878.98	1615.85
879.15	1699.81
879.32	1746.92
879.48	1800.16
879.65	1716.20
879.81	1726.44
879.98	1656.81
880.15	1724.39
880.31	1769.44
880.48	1656.81
880.64	1822.69
880.81	1744.87
880.97	1822.69
881.14	1769.44
881.31	1648.61
881.47	1863.65
881.64	1740.77
881.80	1689.57
881.97	1714.15
882.13	1740.77
882.30	1632.23
882.47	1714.15
882.63	1603.56
882.80	1697.77
882.96	1689.57
883.13	1773.54
883.29	1656.81
883.46	1789.92
883.62	1851.36
883.79	1722.34
883.95	1732.58
884.12	1644.52
884.29	1794.02
884.45	1718.25
884.62	1742.82
884.78	1669.09
884.95	1810.40
885.11	1740.77
885.28	1767.40
885.44	1710.05
885.61	1656.81
885.77	1791.97
885.94	1708.01
886.10	1652.71
886.27	1740.77
886.43	1816.55
886.60	1710.05
886.76	1675.24
886.93	1681.38
887.09	1748.97
887.26	1617.90
887.42	1724.39
887.59	1730.53
887.75	1765.35
887.92	1759.21
888.08	1785.83
888.25	1787.88
888.41	1824.74
888.58	1779.68
888.74	1654.76
888.91	1742.82
>>>>>End Processed Spectral Data<<<<<
