SpectraSuite Data File
++++++++++++++++++++++++++++++++++++
Date: Mon Jun 06 12:34:37 CEST 2016
User: root
Dark Spectrum Present: No
Reference Spectrum Present: No
Number of Sampled Component Spectra: 1
Spectrometers: USB4C02835
Integration Time (usec): 100000 (USB4C02835)
Spectra Averaged: 1 (USB4C02835)
Boxcar Smoothing: 0 (USB4C02835)
Correct for Electrical Dark: No (USB4C02835)
Strobe/Lamp Enabled: No (USB4C02835)
Correct for Detector Non-linearity: No (USB4C02835)
Correct for Stray Light: No (USB4C02835)
Number of Pixels in Processed Spectrum: 3648
>>>>>Begin Processed Spectral Data<<<<<
177.47	1419.24
177.69	1419.24
177.91	1419.24
178.13	1513.45
178.36	1495.02
178.58	1665.00
178.80	1798.12
179.02	1617.90
179.24	1593.32
179.46	1650.66
179.68	1712.10
179.90	1660.90
180.13	1628.14
180.35	1665.00
180.57	1691.62
180.79	1753.06
181.01	1648.61
181.23	1748.97
181.45	1773.54
181.67	1708.01
181.90	1787.88
182.12	1640.42
182.34	1617.90
182.56	1679.33
182.78	1718.25
183.00	1652.71
183.22	1732.58
183.44	1636.33
183.66	1857.51
183.89	1822.69
184.11	1714.15
184.33	1722.34
184.55	1755.11
184.77	1714.15
184.99	1742.82
185.21	1738.73
185.43	1820.64
185.65	1701.86
185.87	1697.77
186.10	1798.12
186.32	1751.01
186.54	1671.14
186.76	1701.86
186.98	1748.97
187.20	1621.99
187.42	1695.72
187.64	1740.77
187.86	1748.97
188.08	1738.73
188.30	1714.15
188.52	1662.95
188.75	1771.49
188.97	1787.88
189.19	1675.24
189.41	1650.66
189.63	1695.72
189.85	1705.96
190.07	1687.53
190.29	1619.94
190.51	1677.29
190.73	1601.51
190.95	1693.67
191.17	1656.81
191.39	1609.70
191.61	1701.86
191.84	1687.53
192.06	1697.77
192.28	1634.28
192.50	1841.12
192.72	1695.72
192.94	1681.38
193.16	1796.07
193.38	1746.92
193.60	1656.81
193.82	1648.61
194.04	1816.55
194.26	1681.38
194.48	1734.63
194.70	1683.43
194.92	1638.38
195.14	1677.29
195.36	1724.39
195.58	1669.09
195.80	1683.43
196.02	1648.61
196.24	1619.94
196.46	1730.53
196.69	1660.90
196.91	1800.16
197.13	1652.71
197.35	1621.99
197.57	1802.21
197.79	1689.57
198.01	1650.66
198.23	1677.29
198.45	1777.64
198.67	1638.38
198.89	1703.91
199.11	1701.86
199.33	1665.00
199.55	1572.84
199.77	1656.81
199.99	1712.10
200.21	1683.43
200.43	1732.58
200.65	1687.53
200.87	1626.09
201.09	1730.53
201.31	1671.14
201.53	1804.26
201.75	1683.43
201.97	1755.11
202.19	1665.00
202.41	1746.92
202.63	1824.74
202.85	1679.33
203.07	1710.05
203.29	1697.77
203.51	1667.05
203.73	1681.38
203.95	1877.99
204.17	1712.10
204.39	1800.16
204.61	1658.85
204.83	1658.85
205.05	1765.35
205.27	1759.21
205.49	1806.31
205.71	1701.86
205.93	1693.67
206.15	1734.63
206.37	1765.35
206.59	1632.23
206.81	1650.66
207.03	1662.95
207.25	1658.85
207.47	1736.68
207.69	1687.53
207.91	1726.44
208.13	1785.83
208.34	1650.66
208.56	1654.76
208.78	1738.73
209.00	1701.86
209.22	1658.85
209.44	1722.34
209.66	1654.76
209.88	1710.05
210.10	1677.29
210.32	1728.49
210.54	1802.21
210.76	1726.44
210.98	1783.78
211.20	1566.70
211.42	1705.96
211.64	1759.21
211.86	1718.25
212.08	1685.48
212.30	1658.85
212.52	1693.67
212.74	1699.81
212.96	1650.66
213.17	1621.99
213.39	1773.54
213.61	1789.92
213.83	1669.09
214.05	1652.71
214.27	1779.68
214.49	1669.09
214.71	1677.29
214.93	1681.38
215.15	1630.18
215.37	1689.57
215.59	1607.66
215.81	1720.29
216.03	1798.12
216.24	1673.19
216.46	1712.10
216.68	1787.88
216.90	1789.92
217.12	1765.35
217.34	1781.73
217.56	1736.68
217.78	1779.68
218.00	1681.38
218.22	1734.63
218.44	1705.96
218.66	1681.38
218.87	1720.29
219.09	1728.49
219.31	1703.91
219.53	1763.30
219.75	1646.57
219.97	1703.91
220.19	1748.97
220.41	1642.47
220.63	1773.54
220.85	1728.49
221.06	1697.77
221.28	1683.43
221.50	1714.15
221.72	1732.58
221.94	1769.44
222.16	1644.52
222.38	1787.88
222.60	1765.35
222.82	1730.53
223.03	1710.05
223.25	1652.71
223.47	1710.05
223.69	1798.12
223.91	1789.92
224.13	1689.57
224.35	1718.25
224.57	1818.60
224.78	1744.87
225.00	1638.38
225.22	1630.18
225.44	1656.81
225.66	1734.63
225.88	1626.09
226.10	1730.53
226.32	1615.85
226.53	1777.64
226.75	1603.56
226.97	1654.76
227.19	1720.29
227.41	1607.66
227.63	1609.70
227.85	1619.94
228.06	1775.59
228.28	1681.38
228.50	1730.53
228.72	1644.52
228.94	1679.33
229.16	1624.04
229.37	1591.27
229.59	1615.85
229.81	1789.92
230.03	1683.43
230.25	1619.94
230.47	1652.71
230.69	1640.42
230.90	1726.44
231.12	1611.75
231.34	1669.09
231.56	1857.51
231.78	1605.61
232.00	1712.10
232.21	1685.48
232.43	1648.61
232.65	1544.17
232.87	1738.73
233.09	1638.38
233.30	1710.05
233.52	1701.86
233.74	1640.42
233.96	1732.58
234.18	1708.01
234.40	1665.00
234.61	1837.03
234.83	1583.08
235.05	1642.47
235.27	1812.45
235.49	1726.44
235.70	1681.38
235.92	1742.82
236.14	1720.29
236.36	1843.17
236.58	1656.81
236.79	1742.82
237.01	1710.05
237.23	1658.85
237.45	1871.84
237.67	1642.47
237.88	1689.57
238.10	1748.97
238.32	1685.48
238.54	1685.48
238.76	1705.96
238.97	1578.98
239.19	1644.52
239.41	1708.01
239.63	1734.63
239.85	1701.86
240.06	1751.01
240.28	1673.19
240.50	1759.21
240.72	1693.67
240.93	1777.64
241.15	1818.60
241.37	1708.01
241.59	1759.21
241.81	1673.19
242.02	1650.66
242.24	1681.38
242.46	1759.21
242.68	1654.76
242.89	1710.05
243.11	1771.49
243.33	1718.25
243.55	1728.49
243.76	1656.81
243.98	1773.54
244.20	1669.09
244.42	1646.57
244.64	1656.81
244.85	1644.52
245.07	1624.04
245.29	1744.87
245.51	1716.20
245.72	1779.68
245.94	1748.97
246.16	1732.58
246.38	1753.06
246.59	1593.32
246.81	1640.42
247.03	1636.33
247.24	1576.94
247.46	1665.00
247.68	1771.49
247.90	1714.15
248.11	1642.47
248.33	1742.82
248.55	1695.72
248.77	1652.71
248.98	1681.38
249.20	1800.16
249.42	1644.52
249.64	1722.34
249.85	1751.01
250.07	1624.04
250.29	1804.26
250.50	1791.97
250.72	1642.47
250.94	1744.87
251.16	1867.75
251.37	1730.53
251.59	1656.81
251.81	1714.15
252.02	1755.11
252.24	1642.47
252.46	1796.07
252.68	1660.90
252.89	1683.43
253.11	1601.51
253.33	1820.64
253.54	1724.39
253.76	1656.81
253.98	1671.14
254.20	1720.29
254.41	1607.66
254.63	1708.01
254.85	1583.08
255.06	1808.36
255.28	1730.53
255.50	1693.67
255.71	1621.99
255.93	1619.94
256.15	1718.25
256.36	1691.62
256.58	1605.61
256.80	1773.54
257.02	1753.06
257.23	1619.94
257.45	1697.77
257.67	1718.25
257.88	1644.52
258.10	1728.49
258.32	1701.86
258.53	1716.20
258.75	1751.01
258.97	1658.85
259.18	1669.09
259.40	1718.25
259.62	1755.11
259.83	1791.97
260.05	1615.85
260.27	1933.28
260.48	1671.14
260.70	1603.56
260.92	1755.11
261.13	1746.92
261.35	1726.44
261.57	1685.48
261.78	1630.18
262.00	1609.70
262.22	1673.19
262.43	1589.22
262.65	1599.46
262.86	1652.71
263.08	1871.84
263.30	1720.29
263.51	1564.65
263.73	1689.57
263.95	1775.59
264.16	1689.57
264.38	1679.33
264.60	1710.05
264.81	1624.04
265.03	1740.77
265.25	1810.40
265.46	1675.24
265.68	1753.06
265.89	1736.68
266.11	1619.94
266.33	1718.25
266.54	1726.44
266.76	1787.88
266.98	1767.40
267.19	1730.53
267.41	1796.07
267.62	1685.48
267.84	1621.99
268.06	1669.09
268.27	1636.33
268.49	1748.97
268.70	1798.12
268.92	1683.43
269.14	1626.09
269.35	1634.28
269.57	1712.10
269.79	1781.73
270.00	1652.71
270.22	1761.25
270.43	1675.24
270.65	1615.85
270.87	1728.49
271.08	1691.62
271.30	1755.11
271.51	1708.01
271.73	1755.11
271.95	1789.92
272.16	1781.73
272.38	1673.19
272.59	1628.14
272.81	1769.44
273.02	1708.01
273.24	1724.39
273.46	1755.11
273.67	1650.66
273.89	1703.91
274.10	1687.53
274.32	1677.29
274.54	1724.39
274.75	1703.91
274.97	1693.67
275.18	1816.55
275.40	1689.57
275.61	1652.71
275.83	1718.25
276.05	1636.33
276.26	1695.72
276.48	1759.21
276.69	1665.00
276.91	1712.10
277.12	1685.48
277.34	1724.39
277.55	1720.29
277.77	1701.86
277.99	1660.90
278.20	1665.00
278.42	1621.99
278.63	1605.61
278.85	1681.38
279.06	1585.13
279.28	1748.97
279.49	1744.87
279.71	1736.68
279.93	1673.19
280.14	1681.38
280.36	1650.66
280.57	1781.73
280.79	1673.19
281.00	1673.19
281.22	1640.42
281.43	1798.12
281.65	1550.31
281.86	1589.22
282.08	1693.67
282.29	1828.84
282.51	1568.74
282.73	1660.90
282.94	1595.37
283.16	1732.58
283.37	1783.78
283.59	1722.34
283.80	1705.96
284.02	1679.33
284.23	1677.29
284.45	1718.25
284.66	1644.52
284.88	1595.37
285.09	1828.84
285.31	1691.62
285.52	1738.73
285.74	1601.51
285.95	1748.97
286.17	1748.97
286.38	1830.88
286.60	1628.14
286.81	1689.57
287.03	1642.47
287.24	1662.95
287.46	1789.92
287.67	1761.25
287.89	1798.12
288.10	1708.01
288.32	1628.14
288.53	1804.26
288.75	1716.20
288.96	1699.81
289.18	1642.47
289.39	1703.91
289.61	1689.57
289.82	1757.16
290.04	1808.36
290.25	1607.66
290.47	1665.00
290.68	1730.53
290.90	1687.53
291.11	1593.32
291.33	1763.30
291.54	1671.14
291.76	1714.15
291.97	1740.77
292.18	1718.25
292.40	1624.04
292.61	1681.38
292.83	1796.07
293.04	1714.15
293.26	1783.78
293.47	1630.18
293.69	1699.81
293.90	1724.39
294.12	1748.97
294.33	1697.77
294.55	1781.73
294.76	1771.49
294.97	1787.88
295.19	1873.89
295.40	1712.10
295.62	1722.34
295.83	1732.58
296.05	1699.81
296.26	1671.14
296.48	1648.61
296.69	1794.02
296.90	1744.87
297.12	1734.63
297.33	1683.43
297.55	1730.53
297.76	1736.68
297.98	1712.10
298.19	1640.42
298.41	1724.39
298.62	1662.95
298.83	1775.59
299.05	1630.18
299.26	1662.95
299.48	1544.17
299.69	1669.09
299.90	1621.99
300.12	1660.90
300.33	1689.57
300.55	1705.96
300.76	1718.25
300.98	1570.79
301.19	1773.54
301.40	1669.09
301.62	1673.19
301.83	1716.20
302.05	1691.62
302.26	1738.73
302.47	1726.44
302.69	1681.38
302.90	1730.53
303.12	1675.24
303.33	1751.01
303.54	1859.56
303.76	1708.01
303.97	1751.01
304.19	1779.68
304.40	1634.28
304.61	1757.16
304.83	1748.97
305.04	1755.11
305.26	1804.26
305.47	1617.90
305.68	1783.78
305.90	1644.52
306.11	1806.31
306.33	1714.15
306.54	1658.85
306.75	1722.34
306.97	1615.85
307.18	1673.19
307.39	1652.71
307.61	1740.77
307.82	1681.38
308.04	1708.01
308.25	1636.33
308.46	1699.81
308.68	1697.77
308.89	1652.71
309.10	1841.12
309.32	1644.52
309.53	1722.34
309.74	1742.82
309.96	1708.01
310.17	1714.15
310.39	1638.38
310.60	1734.63
310.81	1703.91
311.03	1615.85
311.24	1693.67
311.45	1714.15
311.67	1771.49
311.88	1710.05
312.09	1726.44
312.31	1662.95
312.52	1742.82
312.73	1648.61
312.95	1624.04
313.16	1550.31
313.37	1667.05
313.59	1748.97
313.80	1726.44
314.01	1740.77
314.23	1675.24
314.44	1705.96
314.65	1693.67
314.87	1691.62
315.08	1714.15
315.29	1753.06
315.51	1619.94
315.72	1564.65
315.93	1730.53
316.15	1763.30
316.36	1724.39
316.57	1718.25
316.79	1714.15
317.00	1617.90
317.21	1685.48
317.43	1693.67
317.64	1742.82
317.85	1687.53
318.07	1701.86
318.28	1718.25
318.49	1775.59
318.70	1875.94
318.92	1820.64
319.13	1832.93
319.34	1787.88
319.56	1845.22
319.77	1771.49
319.98	1806.31
320.20	1755.11
320.41	1767.40
320.62	1703.91
320.83	1619.94
321.05	1863.65
321.26	1673.19
321.47	1693.67
321.69	1810.40
321.90	1581.03
322.11	1667.05
322.32	1703.91
322.54	1824.74
322.75	1656.81
322.96	1875.94
323.18	1681.38
323.39	1574.89
323.60	1708.01
323.81	1742.82
324.03	1650.66
324.24	1716.20
324.45	1683.43
324.66	1724.39
324.88	1830.88
325.09	1738.73
325.30	1697.77
325.52	1687.53
325.73	1693.67
325.94	1601.51
326.15	1578.98
326.37	1683.43
326.58	1765.35
326.79	1732.58
327.00	1648.61
327.22	1771.49
327.43	1640.42
327.64	1660.90
327.85	1736.68
328.07	1722.34
328.28	1755.11
328.49	1689.57
328.70	1732.58
328.92	1695.72
329.13	1652.71
329.34	1767.40
329.55	1832.93
329.76	1732.58
329.98	1665.00
330.19	1794.02
330.40	1759.21
330.61	1738.73
330.83	1695.72
331.04	1591.27
331.25	1673.19
331.46	1697.77
331.68	1640.42
331.89	1826.79
332.10	1621.99
332.31	1591.27
332.52	1730.53
332.74	1710.05
332.95	1601.51
333.16	1714.15
333.37	1718.25
333.58	1669.09
333.80	1621.99
334.01	1564.65
334.22	1662.95
334.43	1652.71
334.64	1703.91
334.86	1705.96
335.07	1671.14
335.28	1746.92
335.49	1685.48
335.70	1660.90
335.92	1769.44
336.13	1816.55
336.34	1673.19
336.55	1681.38
336.76	1705.96
336.98	1585.13
337.19	1740.77
337.40	1839.08
337.61	1882.08
337.82	1730.53
338.04	1808.36
338.25	1628.14
338.46	1732.58
338.67	1763.30
338.88	1679.33
339.09	1658.85
339.31	1626.09
339.52	1720.29
339.73	1595.37
339.94	1685.48
340.15	1763.30
340.36	1691.62
340.58	1689.57
340.79	1566.70
341.00	1791.97
341.21	1587.18
341.42	1755.11
341.63	1720.29
341.85	1693.67
342.06	1662.95
342.27	1621.99
342.48	1763.30
342.69	1621.99
342.90	1693.67
343.12	1732.58
343.33	1691.62
343.54	1701.86
343.75	1779.68
343.96	1734.63
344.17	1710.05
344.38	1658.85
344.60	1581.03
344.81	1638.38
345.02	1656.81
345.23	1740.77
345.44	1798.12
345.65	1732.58
345.86	1771.49
346.07	1611.75
346.29	1634.28
346.50	1697.77
346.71	1755.11
346.92	1724.39
347.13	1834.98
347.34	1660.90
347.55	1638.38
347.76	1685.48
347.98	1605.61
348.19	1621.99
348.40	1794.02
348.61	1673.19
348.82	1800.16
349.03	1728.49
349.24	1642.47
349.45	1755.11
349.66	1564.65
349.88	1734.63
350.09	1646.57
350.30	1849.32
350.51	1763.30
350.72	1726.44
350.93	1665.00
351.14	1699.81
351.35	1695.72
351.56	1667.05
351.77	1638.38
351.99	1691.62
352.20	1765.35
352.41	1742.82
352.62	1632.23
352.83	1718.25
353.04	1697.77
353.25	1617.90
353.46	1755.11
353.67	1724.39
353.88	1609.70
354.09	1687.53
354.30	1722.34
354.52	1660.90
354.73	1660.90
354.94	1644.52
355.15	1779.68
355.36	1689.57
355.57	1619.94
355.78	1720.29
355.99	1689.57
356.20	1648.61
356.41	1748.97
356.62	1687.53
356.83	1740.77
357.04	1722.34
357.25	1595.37
357.46	1703.91
357.68	1613.80
357.89	1660.90
358.10	1681.38
358.31	1642.47
358.52	1636.33
358.73	1732.58
358.94	1591.27
359.15	1605.61
359.36	1728.49
359.57	1619.94
359.78	1744.87
359.99	1695.72
360.20	1652.71
360.41	1724.39
360.62	1736.68
360.83	1701.86
361.04	1724.39
361.25	1767.40
361.46	1802.21
361.67	1761.25
361.88	1742.82
362.09	1771.49
362.30	1693.67
362.51	1677.29
362.72	1667.05
362.93	1834.98
363.14	1726.44
363.35	1720.29
363.56	1634.28
363.78	1834.98
363.99	1726.44
364.20	1628.14
364.41	1718.25
364.62	1814.50
364.83	1746.92
365.04	1632.23
365.25	1685.48
365.46	1769.44
365.67	1667.05
365.88	1634.28
366.09	1738.73
366.30	1705.96
366.51	1669.09
366.72	1658.85
366.93	1710.05
367.14	1771.49
367.35	1787.88
367.56	1671.14
367.77	1783.78
367.98	1722.34
368.18	1705.96
368.39	1716.20
368.60	1617.90
368.81	1718.25
369.02	1695.72
369.23	1697.77
369.44	1591.27
369.65	1642.47
369.86	1728.49
370.07	1781.73
370.28	1712.10
370.49	1650.66
370.70	1769.44
370.91	1644.52
371.12	1562.60
371.33	1736.68
371.54	1681.38
371.75	1800.16
371.96	1578.98
372.17	1679.33
372.38	1712.10
372.59	1730.53
372.80	1730.53
373.01	1722.34
373.22	1720.29
373.43	1730.53
373.64	1738.73
373.85	1716.20
374.06	1734.63
374.26	1726.44
374.47	1646.57
374.68	1710.05
374.89	1742.82
375.10	1712.10
375.31	1765.35
375.52	1697.77
375.73	1712.10
375.94	1708.01
376.15	1748.97
376.36	1675.24
376.57	1669.09
376.78	1648.61
376.99	1808.36
377.20	1732.58
377.40	1662.95
377.61	1849.32
377.82	1724.39
378.03	1755.11
378.24	1777.64
378.45	1720.29
378.66	1787.88
378.87	1683.43
379.08	1624.04
379.29	1675.24
379.50	1714.15
379.71	1660.90
379.91	1804.26
380.12	1740.77
380.33	1640.42
380.54	1681.38
380.75	1626.09
380.96	1738.73
381.17	1765.35
381.38	1746.92
381.59	1654.76
381.80	1714.15
382.00	1847.27
382.21	1740.77
382.42	1748.97
382.63	1923.04
382.84	1777.64
383.05	1755.11
383.26	1761.25
383.47	1708.01
383.68	1748.97
383.88	1730.53
384.09	1714.15
384.30	1802.21
384.51	1781.73
384.72	1761.25
384.93	1652.71
385.14	1701.86
385.35	1724.39
385.55	1648.61
385.76	1769.44
385.97	1724.39
386.18	1621.99
386.39	1724.39
386.60	1722.34
386.81	1708.01
387.02	1648.61
387.22	1630.18
387.43	1722.34
387.64	1773.54
387.85	1908.71
388.06	2215.90
388.27	4202.43
388.48	6846.36
388.68	8368.00
388.89	9906.02
389.10	10121.06
389.31	8759.16
389.52	7581.58
389.73	6840.22
389.93	6324.13
390.14	5758.89
390.35	5091.25
390.56	4577.21
390.77	3811.27
390.98	3074.00
391.18	2459.61
391.39	2082.78
391.60	1855.46
391.81	1837.03
392.02	1734.63
392.23	1822.69
392.43	1773.54
392.64	1734.63
392.85	1667.05
393.06	1757.16
393.27	1673.19
393.47	1665.00
393.68	1656.81
393.89	1656.81
394.10	1742.82
394.31	1693.67
394.52	1681.38
394.72	1665.00
394.93	1775.59
395.14	1589.22
395.35	1697.77
395.56	1617.90
395.76	1746.92
395.97	1800.16
396.18	1837.03
396.39	1783.78
396.60	2007.01
396.80	1855.46
397.01	1822.69
397.22	1845.22
397.43	1808.36
397.64	1746.92
397.84	1781.73
398.05	1857.51
398.26	1677.29
398.47	1736.68
398.67	1839.08
398.88	1789.92
399.09	1755.11
399.30	1652.71
399.51	1777.64
399.71	1697.77
399.92	1693.67
400.13	1730.53
400.34	1675.24
400.54	1695.72
400.75	1779.68
400.96	1748.97
401.17	1816.55
401.37	1759.21
401.58	1667.05
401.79	1736.68
402.00	1877.99
402.21	1955.81
402.41	1923.04
402.62	2019.30
402.83	2056.16
403.04	2072.54
403.24	2117.60
403.45	1787.88
403.66	1847.27
403.87	1890.28
404.07	1863.65
404.28	1892.32
404.49	1828.84
404.70	1751.01
404.90	1777.64
405.11	1716.20
405.32	1732.58
405.52	1675.24
405.73	1607.66
405.94	1724.39
406.15	1703.91
406.35	1814.50
406.56	1746.92
406.77	1748.97
406.98	1732.58
407.18	1615.85
407.39	1765.35
407.60	1685.48
407.80	1648.61
408.01	1738.73
408.22	1642.47
408.43	1669.09
408.63	1746.92
408.84	1714.15
409.05	1699.81
409.25	1660.90
409.46	1685.48
409.67	1648.61
409.88	1667.05
410.08	1732.58
410.29	1705.96
410.50	1746.92
410.70	1755.11
410.91	1691.62
411.12	1689.57
411.32	1742.82
411.53	1634.28
411.74	1753.06
411.95	1720.29
412.15	1763.30
412.36	1748.97
412.57	1746.92
412.77	1767.40
412.98	1728.49
413.19	1716.20
413.39	1800.16
413.60	1763.30
413.81	1757.16
414.01	1695.72
414.22	1701.86
414.43	1773.54
414.63	1689.57
414.84	1826.79
415.05	1716.20
415.25	1646.57
415.46	1736.68
415.67	1632.23
415.87	1738.73
416.08	1724.39
416.29	1726.44
416.49	1742.82
416.70	1769.44
416.91	1652.71
417.11	1726.44
417.32	1634.28
417.53	1744.87
417.73	1732.58
417.94	1624.04
418.15	1716.20
418.35	1687.53
418.56	1730.53
418.77	1925.09
418.97	1769.44
419.18	1708.01
419.38	1609.70
419.59	1730.53
419.80	1820.64
420.00	1708.01
420.21	1697.77
420.42	1720.29
420.62	1681.38
420.83	1681.38
421.04	1697.77
421.24	1781.73
421.45	1710.05
421.65	1697.77
421.86	1652.71
422.07	1718.25
422.27	1699.81
422.48	1697.77
422.69	1691.62
422.89	1673.19
423.10	1714.15
423.30	1681.38
423.51	1705.96
423.72	1660.90
423.92	1665.00
424.13	1581.03
424.33	1718.25
424.54	1755.11
424.75	1640.42
424.95	1787.88
425.16	1724.39
425.36	1736.68
425.57	1771.49
425.78	1726.44
425.98	1679.33
426.19	1712.10
426.39	1681.38
426.60	1697.77
426.81	1853.41
427.01	1683.43
427.22	1644.52
427.42	1619.94
427.63	1603.56
427.83	1775.59
428.04	1841.12
428.25	1789.92
428.45	1773.54
428.66	1744.87
428.86	1705.96
429.07	1662.95
429.28	1734.63
429.48	1699.81
429.69	1689.57
429.89	1740.77
430.10	1703.91
430.30	1671.14
430.51	1732.58
430.71	1660.90
430.92	1708.01
431.13	1675.24
431.33	1710.05
431.54	1767.40
431.74	1732.58
431.95	1837.03
432.15	1640.42
432.36	1726.44
432.56	1787.88
432.77	1791.97
432.98	1753.06
433.18	1726.44
433.39	1665.00
433.59	1656.81
433.80	1732.58
434.00	1837.03
434.21	1685.48
434.41	1656.81
434.62	1812.45
434.82	1646.57
435.03	1705.96
435.23	1736.68
435.44	1544.17
435.64	1722.34
435.85	1767.40
436.06	1761.25
436.26	1777.64
436.47	1691.62
436.67	1720.29
436.88	1695.72
437.08	1718.25
437.29	1785.83
437.49	1705.96
437.70	1753.06
437.90	1730.53
438.11	1783.78
438.31	1759.21
438.52	1785.83
438.72	1877.99
438.93	1824.74
439.13	1783.78
439.34	1841.12
439.54	1773.54
439.75	1859.56
439.95	1865.70
440.16	1744.87
440.36	1746.92
440.57	1718.25
440.77	1771.49
440.98	1746.92
441.18	1773.54
441.39	1689.57
441.59	1640.42
441.80	1851.36
442.00	1730.53
442.21	1763.30
442.41	1654.76
442.62	1779.68
442.82	1681.38
443.02	1771.49
443.23	1691.62
443.43	1660.90
443.64	1748.97
443.84	1607.66
444.05	1775.59
444.25	1767.40
444.46	1716.20
444.66	1761.25
444.87	1785.83
445.07	1671.14
445.28	1708.01
445.48	1748.97
445.69	1746.92
445.89	1851.36
446.09	1648.61
446.30	2004.96
446.50	2684.89
446.71	3788.74
446.91	4216.77
447.12	4714.42
447.32	4765.62
447.53	4362.17
447.73	3876.80
447.93	3493.83
448.14	3358.67
448.34	3121.10
448.55	2930.64
448.75	2893.78
448.96	2680.79
449.16	2473.95
449.36	2326.49
449.57	2035.68
449.77	1886.18
449.98	1757.16
450.18	1794.02
450.39	1824.74
450.59	1765.35
450.79	1687.53
451.00	1689.57
451.20	1806.31
451.41	1728.49
451.61	1744.87
451.81	1794.02
452.02	1679.33
452.22	1804.26
452.43	1742.82
452.63	1656.81
452.84	1693.67
453.04	1705.96
453.24	1669.09
453.45	1689.57
453.65	1673.19
453.86	1757.16
454.06	1660.90
454.26	1710.05
454.47	1654.76
454.67	1771.49
454.87	1683.43
455.08	1722.34
455.28	1871.84
455.49	1798.12
455.69	1662.95
455.89	1806.31
456.10	1847.27
456.30	1705.96
456.51	1759.21
456.71	1757.16
456.91	1714.15
457.12	1755.11
457.32	1753.06
457.52	1705.96
457.73	1771.49
457.93	1759.21
458.14	1744.87
458.34	1685.48
458.54	1671.14
458.75	1730.53
458.95	1718.25
459.15	1779.68
459.36	1726.44
459.56	1798.12
459.76	1904.61
459.97	1789.92
460.17	1787.88
460.37	1798.12
460.58	1744.87
460.78	1746.92
460.99	1722.34
461.19	1689.57
461.39	1712.10
461.60	1730.53
461.80	1708.01
462.00	1619.94
462.21	1751.01
462.41	1673.19
462.61	1689.57
462.82	1673.19
463.02	1669.09
463.22	1732.58
463.43	1771.49
463.63	1740.77
463.83	1730.53
464.04	1744.87
464.24	1814.50
464.44	1667.05
464.64	1738.73
464.85	1787.88
465.05	1845.22
465.25	1673.19
465.46	1665.00
465.66	1722.34
465.86	1742.82
466.07	1755.11
466.27	1789.92
466.47	1708.01
466.68	1634.28
466.88	1837.03
467.08	1814.50
467.29	1726.44
467.49	1712.10
467.69	1671.14
467.89	1712.10
468.10	1687.53
468.30	1712.10
468.50	1767.40
468.71	1771.49
468.91	1673.19
469.11	1859.56
469.31	1728.49
469.52	1712.10
469.72	1820.64
469.92	1810.40
470.13	1716.20
470.33	1693.67
470.53	1812.45
470.73	2133.98
470.94	2314.20
471.14	2394.08
471.34	2455.51
471.54	2408.41
471.75	2289.63
471.95	2164.70
472.15	2068.45
472.36	2004.96
472.56	2029.54
472.76	2041.82
472.96	2052.06
473.17	1943.52
473.37	1851.36
473.57	1781.73
473.77	1853.41
473.98	1763.30
474.18	1671.14
474.38	1814.50
474.58	1615.85
474.79	1705.96
474.99	1802.21
475.19	1830.88
475.39	1687.53
475.60	1779.68
475.80	1656.81
476.00	1800.16
476.20	1662.95
476.41	1732.58
476.61	1769.44
476.81	1726.44
477.01	1632.23
477.21	1869.80
477.42	1832.93
477.62	1730.53
477.82	1697.77
478.02	1812.45
478.23	1765.35
478.43	1652.71
478.63	1658.85
478.83	1751.01
479.03	1617.90
479.24	1783.78
479.44	1796.07
479.64	1652.71
479.84	1658.85
480.04	1644.52
480.25	1738.73
480.45	1617.90
480.65	1714.15
480.85	1738.73
481.06	1671.14
481.26	1703.91
481.46	1697.77
481.66	1712.10
481.86	1595.37
482.06	1871.84
482.27	1738.73
482.47	1708.01
482.67	1730.53
482.87	1683.43
483.07	1781.73
483.28	1636.33
483.48	1677.29
483.68	1740.77
483.88	1611.75
484.08	1476.59
484.29	1667.05
484.49	1650.66
484.69	1695.72
484.89	1808.36
485.09	1783.78
485.29	1697.77
485.50	1732.58
485.70	1634.28
485.90	1804.26
486.10	1703.91
486.30	1796.07
486.50	1767.40
486.71	1681.38
486.91	1724.39
487.11	1761.25
487.31	1722.34
487.51	1775.59
487.71	1630.18
487.91	1677.29
488.12	1681.38
488.32	1488.87
488.52	1669.09
488.72	1599.46
488.92	1716.20
489.12	1822.69
489.32	1726.44
489.53	1705.96
489.73	1648.61
489.93	1839.08
490.13	1734.63
490.33	1638.38
490.53	1751.01
490.73	1828.84
490.94	1679.33
491.14	1761.25
491.34	1853.41
491.54	2144.22
491.74	2482.14
491.94	3002.32
492.14	3047.38
492.34	3069.91
492.54	2740.18
492.75	2459.61
492.95	2379.74
493.15	2336.73
493.35	2373.60
493.55	2193.37
493.75	2160.61
493.95	2119.65
494.15	2027.49
494.35	1861.60
494.56	1816.55
494.76	1787.88
494.96	1794.02
495.16	1798.12
495.36	1748.97
495.56	1693.67
495.76	1642.47
495.96	1730.53
496.16	1654.76
496.36	1763.30
496.56	1757.16
496.77	1744.87
496.97	1699.81
497.17	1857.51
497.37	1583.08
497.57	1763.30
497.77	1671.14
497.97	1730.53
498.17	1691.62
498.37	1685.48
498.57	1759.21
498.77	1773.54
498.97	1800.16
499.17	1789.92
499.38	1671.14
499.58	1705.96
499.78	1771.49
499.98	1789.92
500.18	1751.01
500.38	1656.81
500.58	1851.36
500.78	2590.68
500.98	4546.49
501.18	5986.21
501.38	6819.74
501.58	7165.84
501.78	6606.75
501.98	5611.43
502.18	5085.11
502.38	4442.04
502.58	4188.10
502.78	3688.39
502.98	3696.58
503.18	3461.07
503.38	3270.61
503.59	2811.86
503.79	2676.70
503.99	2467.80
504.19	2316.25
504.39	2224.09
504.59	2181.09
504.79	2076.64
504.99	2033.63
505.19	1955.81
505.39	1939.43
505.59	1916.90
505.79	1834.98
505.99	1869.80
506.19	1800.16
506.39	1884.13
506.59	1759.21
506.79	1701.86
506.99	1789.92
507.19	1742.82
507.39	1789.92
507.59	1652.71
507.79	1638.38
507.99	1751.01
508.19	1748.97
508.39	1699.81
508.59	1761.25
508.79	1757.16
508.99	1796.07
509.19	1646.57
509.39	1685.48
509.59	1734.63
509.79	1716.20
509.99	1722.34
510.19	1791.97
510.39	1775.59
510.59	1746.92
510.79	1736.68
510.99	1683.43
511.19	1789.92
511.39	1740.77
511.59	1728.49
511.79	1832.93
511.99	1783.78
512.19	1814.50
512.38	1691.62
512.58	1724.39
512.78	1726.44
512.98	1804.26
513.18	1810.40
513.38	1617.90
513.58	1812.45
513.78	1640.42
513.98	1718.25
514.18	1755.11
514.38	1710.05
514.58	1644.52
514.78	1705.96
514.98	1705.96
515.18	1712.10
515.38	1679.33
515.58	1812.45
515.78	1697.77
515.98	1802.21
516.18	1708.01
516.38	1767.40
516.57	1650.66
516.77	1742.82
516.97	1746.92
517.17	1710.05
517.37	1662.95
517.57	1800.16
517.77	1722.34
517.97	1705.96
518.17	1742.82
518.37	1652.71
518.57	1640.42
518.77	1718.25
518.97	1656.81
519.16	1787.88
519.36	1716.20
519.56	1738.73
519.76	1738.73
519.96	1742.82
520.16	1755.11
520.36	1685.48
520.56	1761.25
520.76	1646.57
520.96	1677.29
521.16	1765.35
521.35	1832.93
521.55	1867.75
521.75	1767.40
521.95	1748.97
522.15	1708.01
522.35	1656.81
522.55	1779.68
522.75	1753.06
522.95	1705.96
523.14	1738.73
523.34	1753.06
523.54	1730.53
523.74	1765.35
523.94	1751.01
524.14	1644.52
524.34	1755.11
524.54	1804.26
524.73	1658.85
524.93	1753.06
525.13	1699.81
525.33	1656.81
525.53	1875.94
525.73	1849.32
525.93	1738.73
526.13	1685.48
526.32	1656.81
526.52	1804.26
526.72	1759.21
526.92	1742.82
527.12	1746.92
527.32	1648.61
527.52	1796.07
527.71	1722.34
527.91	1695.72
528.11	1705.96
528.31	1632.23
528.51	1644.52
528.71	1701.86
528.90	1730.53
529.10	1746.92
529.30	1785.83
529.50	1658.85
529.70	1718.25
529.90	1732.58
530.09	1714.15
530.29	1671.14
530.49	1742.82
530.69	1869.80
530.89	1765.35
531.09	1763.30
531.28	1677.29
531.48	1814.50
531.68	1753.06
531.88	1771.49
532.08	1802.21
532.28	1728.49
532.47	1761.25
532.67	1863.65
532.87	1781.73
533.07	1714.15
533.27	1763.30
533.46	1691.62
533.66	1712.10
533.86	1722.34
534.06	1748.97
534.26	1783.78
534.45	1716.20
534.65	1705.96
534.85	1642.47
535.05	1705.96
535.25	1804.26
535.44	1607.66
535.64	1763.30
535.84	1673.19
536.04	1757.16
536.24	1673.19
536.43	1714.15
536.63	1710.05
536.83	1701.86
537.03	1703.91
537.22	1695.72
537.42	1669.09
537.62	1740.77
537.82	1802.21
538.02	1705.96
538.21	1806.31
538.41	1920.99
538.61	1808.36
538.81	1644.52
539.00	1841.12
539.20	1621.99
539.40	1712.10
539.60	1785.83
539.79	1734.63
539.99	1658.85
540.19	1644.52
540.39	1638.38
540.58	1716.20
540.78	1804.26
540.98	1789.92
541.18	1781.73
541.37	1781.73
541.57	1783.78
541.77	1785.83
541.97	1744.87
542.16	1626.09
542.36	1716.20
542.56	1697.77
542.76	1779.68
542.95	1757.16
543.15	1746.92
543.35	1753.06
543.54	1730.53
543.74	1740.77
543.94	1869.80
544.14	1726.44
544.33	1806.31
544.53	1751.01
544.73	1669.09
544.93	1742.82
545.12	1714.15
545.32	1726.44
545.52	1732.58
545.71	1619.94
545.91	1665.00
546.11	1753.06
546.30	1650.66
546.50	1755.11
546.70	1753.06
546.90	1748.97
547.09	1513.45
547.29	1740.77
547.49	1740.77
547.68	1761.25
547.88	1703.91
548.08	1800.16
548.27	2205.66
548.47	1736.68
548.67	1705.96
548.87	1765.35
549.06	1748.97
549.26	1669.09
549.46	1744.87
549.65	1740.77
549.85	1789.92
550.05	1748.97
550.24	1673.19
550.44	1785.83
550.64	1710.05
550.83	1705.96
551.03	1755.11
551.23	1718.25
551.42	1791.97
551.62	1718.25
551.82	1781.73
552.01	1742.82
552.21	1789.92
552.41	1701.86
552.60	1816.55
552.80	1744.87
553.00	1677.29
553.19	1671.14
553.39	1853.41
553.59	1667.05
553.78	1804.26
553.98	1810.40
554.17	1609.70
554.37	1757.16
554.57	1736.68
554.76	1705.96
554.96	1638.38
555.16	1751.01
555.35	1732.58
555.55	1759.21
555.75	1714.15
555.94	1712.10
556.14	1650.66
556.33	1753.06
556.53	1720.29
556.73	1837.03
556.92	1810.40
557.12	1849.32
557.32	1820.64
557.51	1798.12
557.71	1765.35
557.90	1742.82
558.10	1814.50
558.30	1769.44
558.49	1753.06
558.69	1767.40
558.88	1748.97
559.08	1771.49
559.28	1755.11
559.47	1783.78
559.67	1765.35
559.86	1845.22
560.06	1726.44
560.26	1779.68
560.45	1718.25
560.65	1734.63
560.84	1785.83
561.04	1730.53
561.24	1708.01
561.43	1630.18
561.63	1824.74
561.82	1691.62
562.02	1781.73
562.22	1675.24
562.41	1710.05
562.61	1679.33
562.80	1689.57
563.00	1873.89
563.19	1820.64
563.39	1685.48
563.59	1826.79
563.78	1642.47
563.98	1630.18
564.17	1693.67
564.37	1665.00
564.56	1673.19
564.76	1662.95
564.96	1822.69
565.15	1753.06
565.35	1839.08
565.54	1691.62
565.74	1722.34
565.93	1681.38
566.13	1718.25
566.32	1726.44
566.52	1732.58
566.71	1753.06
566.91	1753.06
567.11	1814.50
567.30	1761.25
567.50	1789.92
567.69	1771.49
567.89	1744.87
568.08	1734.63
568.28	1701.86
568.47	1716.20
568.67	1751.01
568.86	1716.20
569.06	1718.25
569.25	1753.06
569.45	1685.48
569.64	1738.73
569.84	1785.83
570.04	1751.01
570.23	1685.48
570.43	1748.97
570.62	1845.22
570.82	1824.74
571.01	1642.47
571.21	1728.49
571.40	1755.11
571.60	1724.39
571.79	1712.10
571.99	1761.25
572.18	1658.85
572.38	1712.10
572.57	1697.77
572.77	1730.53
572.96	1859.56
573.16	1789.92
573.35	1714.15
573.55	1845.22
573.74	1769.44
573.94	1705.96
574.13	1759.21
574.33	1802.21
574.52	1837.03
574.71	1685.48
574.91	1726.44
575.10	1650.66
575.30	1728.49
575.49	1646.57
575.69	1712.10
575.88	1689.57
576.08	1734.63
576.27	1820.64
576.47	1748.97
576.66	1791.97
576.86	1861.60
577.05	1746.92
577.25	1822.69
577.44	1892.32
577.64	1714.15
577.83	1822.69
578.02	1708.01
578.22	1763.30
578.41	1779.68
578.61	1761.25
578.80	1712.10
579.00	1783.78
579.19	1699.81
579.39	1710.05
579.58	1730.53
579.77	1861.60
579.97	1767.40
580.16	1773.54
580.36	1855.46
580.55	1892.32
580.75	1712.10
580.94	1765.35
581.13	1810.40
581.33	1814.50
581.52	1820.64
581.72	1894.37
581.91	1830.88
582.11	1738.73
582.30	1759.21
582.49	1742.82
582.69	1834.98
582.88	1812.45
583.08	1794.02
583.27	1800.16
583.47	1763.30
583.66	1828.84
583.85	1615.85
584.05	1728.49
584.24	1806.31
584.44	1783.78
584.63	1771.49
584.82	1828.84
585.02	1882.08
585.21	1812.45
585.41	1841.12
585.60	1816.55
585.79	1880.04
585.99	1888.23
586.18	1871.84
586.37	2230.24
586.57	3307.47
586.76	10147.69
586.96	24696.46
587.15	35288.55
587.34	41252.23
587.54	43189.61
587.73	37178.82
587.93	26680.94
588.12	21966.51
588.31	18732.77
588.51	16510.72
588.70	15615.76
588.89	14307.11
589.09	12822.33
589.28	11034.46
589.47	9701.23
589.67	8230.79
589.86	6557.60
590.06	5060.53
590.25	3960.77
590.44	3151.82
590.64	2488.28
590.83	2269.15
591.02	2084.83
591.22	1937.38
591.41	1914.85
591.60	1822.69
591.80	2007.01
591.99	1726.44
592.18	1746.92
592.38	1761.25
592.57	1783.78
592.76	1779.68
592.96	1824.74
593.15	1783.78
593.34	1837.03
593.54	1738.73
593.73	1734.63
593.92	1875.94
594.12	1687.53
594.31	1738.73
594.50	1796.07
594.70	1857.51
594.89	1820.64
595.08	1654.76
595.28	1665.00
595.47	1966.05
595.66	1787.88
595.86	1738.73
596.05	1738.73
596.24	1740.77
596.43	1771.49
596.63	1810.40
596.82	1818.60
597.01	1757.16
597.21	1859.56
597.40	1824.74
597.59	1789.92
597.79	1773.54
597.98	1726.44
598.17	1761.25
598.36	1742.82
598.56	1740.77
598.75	1673.19
598.94	1701.86
599.14	1685.48
599.33	1689.57
599.52	1771.49
599.71	1726.44
599.91	1753.06
600.10	1779.68
600.29	1703.91
600.48	1814.50
600.68	1757.16
600.87	1714.15
601.06	1728.49
601.26	1724.39
601.45	1789.92
601.64	1769.44
601.83	1851.36
602.03	1710.05
602.22	1683.43
602.41	1753.06
602.60	1820.64
602.80	1703.91
602.99	1744.87
603.18	1669.09
603.37	1691.62
603.57	1736.68
603.76	1785.83
603.95	1812.45
604.14	1654.76
604.34	1662.95
604.53	1763.30
604.72	1734.63
604.91	1791.97
605.10	1763.30
605.30	1677.29
605.49	1845.22
605.68	1769.44
605.87	1673.19
606.07	1767.40
606.26	1705.96
606.45	1705.96
606.64	1689.57
606.84	1703.91
607.03	1685.48
607.22	1761.25
607.41	1726.44
607.60	1736.68
607.80	1785.83
607.99	1722.34
608.18	1722.34
608.37	1708.01
608.56	1691.62
608.76	1710.05
608.95	1787.88
609.14	1681.38
609.33	1722.34
609.52	1730.53
609.72	1746.92
609.91	1773.54
610.10	1710.05
610.29	1834.98
610.48	1736.68
610.68	1796.07
610.87	1751.01
611.06	1746.92
611.25	1718.25
611.44	1759.21
611.63	1769.44
611.83	1822.69
612.02	1738.73
612.21	1777.64
612.40	1628.14
612.59	1683.43
612.79	1662.95
612.98	1777.64
613.17	1875.94
613.36	1701.86
613.55	1789.92
613.74	1701.86
613.93	1689.57
614.13	1771.49
614.32	1734.63
614.51	1761.25
614.70	1660.90
614.89	1615.85
615.08	1785.83
615.28	2070.50
615.47	1624.04
615.66	1738.73
615.85	1665.00
616.04	1785.83
616.23	1746.92
616.42	1648.61
616.62	1744.87
616.81	1665.00
617.00	1697.77
617.19	1757.16
617.38	1712.10
617.57	1705.96
617.76	1665.00
617.95	1691.62
618.15	1740.77
618.34	1759.21
618.53	1734.63
618.72	1769.44
618.91	1847.27
619.10	1779.68
619.29	1722.34
619.48	1830.88
619.68	1591.27
619.87	1705.96
620.06	1699.81
620.25	1740.77
620.44	1746.92
620.63	1675.24
620.82	1665.00
621.01	1732.58
621.20	1710.05
621.39	1714.15
621.59	1779.68
621.78	1683.43
621.97	1746.92
622.16	1820.64
622.35	1746.92
622.54	1660.90
622.73	1767.40
622.92	1646.57
623.11	1857.51
623.30	1710.05
623.49	1718.25
623.68	1656.81
623.88	1765.35
624.07	1753.06
624.26	1718.25
624.45	1665.00
624.64	1683.43
624.83	1730.53
625.02	1734.63
625.21	1722.34
625.40	1701.86
625.59	1880.04
625.78	1712.10
625.97	1746.92
626.16	1736.68
626.35	1757.16
626.54	1667.05
626.74	1822.69
626.93	1615.85
627.12	1732.58
627.31	1759.21
627.50	1720.29
627.69	1771.49
627.88	1644.52
628.07	1687.53
628.26	1648.61
628.45	1650.66
628.64	1720.29
628.83	1734.63
629.02	1708.01
629.21	1775.59
629.40	1689.57
629.59	1691.62
629.78	1753.06
629.97	1699.81
630.16	1703.91
630.35	1667.05
630.54	1705.96
630.73	1697.77
630.92	1697.77
631.11	1640.42
631.30	1695.72
631.49	1755.11
631.68	1712.10
631.87	1742.82
632.06	1642.47
632.25	1884.13
632.44	1658.85
632.63	1691.62
632.82	1646.57
633.01	1673.19
633.20	1724.39
633.39	1578.98
633.58	1630.18
633.77	1714.15
633.96	1751.01
634.15	1703.91
634.34	1705.96
634.53	1824.74
634.72	1662.95
634.91	1626.09
635.10	1746.92
635.29	1751.01
635.48	1720.29
635.67	1720.29
635.86	1589.22
636.05	1767.40
636.24	1644.52
636.43	1728.49
636.62	1757.16
636.81	1538.02
637.00	1667.05
637.19	1755.11
637.38	1667.05
637.57	1671.14
637.76	1806.31
637.95	1662.95
638.14	1710.05
638.33	1724.39
638.52	1652.71
638.71	1671.14
638.89	1669.09
639.08	1783.78
639.27	1796.07
639.46	1773.54
639.65	1839.08
639.84	1757.16
640.03	1771.49
640.22	1687.53
640.41	1820.64
640.60	1681.38
640.79	1665.00
640.98	1726.44
641.17	1673.19
641.36	1791.97
641.55	1724.39
641.74	1699.81
641.92	1636.33
642.11	1599.46
642.30	1687.53
642.49	1677.29
642.68	1642.47
642.87	1695.72
643.06	1722.34
643.25	1660.90
643.44	1726.44
643.63	1695.72
643.82	1775.59
644.00	1699.81
644.19	1667.05
644.38	1585.13
644.57	1681.38
644.76	1722.34
644.95	1802.21
645.14	1755.11
645.33	1710.05
645.52	1660.90
645.71	1654.76
645.89	1669.09
646.08	1705.96
646.27	1714.15
646.46	1931.23
646.65	1667.05
646.84	1621.99
647.03	1650.66
647.22	1787.88
647.40	1685.48
647.59	1697.77
647.78	1634.28
647.97	1693.67
648.16	1730.53
648.35	1775.59
648.54	1791.97
648.73	1632.23
648.91	1748.97
649.10	1722.34
649.29	1605.61
649.48	1734.63
649.67	1738.73
649.86	1662.95
650.05	1652.71
650.23	1810.40
650.42	1632.23
650.61	1689.57
650.80	1812.45
650.99	1914.85
651.18	1785.83
651.36	1800.16
651.55	1710.05
651.74	1708.01
651.93	1638.38
652.12	1732.58
652.31	1681.38
652.49	1681.38
652.68	1669.09
652.87	1804.26
653.06	1681.38
653.25	1767.40
653.44	1767.40
653.62	1798.12
653.81	1697.77
654.00	1681.38
654.19	1734.63
654.38	1810.40
654.56	1708.01
654.75	1667.05
654.94	1718.25
655.13	1732.58
655.32	1611.75
655.51	1779.68
655.69	1691.62
655.88	1728.49
656.07	1718.25
656.26	1648.61
656.45	1644.52
656.63	1650.66
656.82	1660.90
657.01	1812.45
657.20	1730.53
657.38	1753.06
657.57	1736.68
657.76	1675.24
657.95	1744.87
658.14	1693.67
658.32	1611.75
658.51	1630.18
658.70	1687.53
658.89	1722.34
659.08	1726.44
659.26	1824.74
659.45	1595.37
659.64	1761.25
659.83	1673.19
660.01	1892.32
660.20	1601.51
660.39	1812.45
660.58	1636.33
660.76	1693.67
660.95	1636.33
661.14	1654.76
661.33	1611.75
661.51	1753.06
661.70	1720.29
661.89	1714.15
662.08	1714.15
662.26	1636.33
662.45	1685.48
662.64	1802.21
662.83	1787.88
663.01	1699.81
663.20	1675.24
663.39	1751.01
663.58	1689.57
663.76	1665.00
663.95	1796.07
664.14	1693.67
664.32	1667.05
664.51	1634.28
664.70	1607.66
664.89	1683.43
665.07	1662.95
665.26	1816.55
665.45	1615.85
665.64	1656.81
665.82	1744.87
666.01	1820.64
666.20	1753.06
666.38	1794.02
666.57	1853.41
666.76	2230.24
666.95	4509.63
667.13	10493.79
667.32	15357.72
667.51	18267.88
667.69	19408.60
667.88	17837.81
668.07	12496.71
668.25	9707.37
668.44	8230.79
668.63	7364.50
668.81	6985.62
669.00	6303.65
669.19	5838.76
669.38	5207.98
669.56	4566.97
669.75	3973.06
669.94	3450.83
670.12	2985.94
670.31	2471.90
670.50	2238.43
670.68	2127.84
670.87	1943.52
671.06	1853.41
671.24	1718.25
671.43	1796.07
671.62	1722.34
671.80	1734.63
671.99	1718.25
672.18	1734.63
672.36	1759.21
672.55	1654.76
672.74	1730.53
672.92	1644.52
673.11	1734.63
673.29	1630.18
673.48	1730.53
673.67	1642.47
673.85	1794.02
674.04	1701.86
674.23	1697.77
674.41	1767.40
674.60	1697.77
674.79	1628.14
674.97	1646.57
675.16	1751.01
675.34	1775.59
675.53	1583.08
675.72	1708.01
675.90	1841.12
676.09	1710.05
676.28	1732.58
676.46	1574.89
676.65	1648.61
676.83	1583.08
677.02	1783.78
677.21	1636.33
677.39	1681.38
677.58	1611.75
677.77	1761.25
677.95	1712.10
678.14	1714.15
678.32	1662.95
678.51	1710.05
678.70	1820.64
678.88	1677.29
679.07	1755.11
679.25	1671.14
679.44	1708.01
679.63	1658.85
679.81	1779.68
680.00	1781.73
680.18	1691.62
680.37	1753.06
680.55	1681.38
680.74	1652.71
680.93	1689.57
681.11	1763.30
681.30	1681.38
681.48	1714.15
681.67	1689.57
681.85	1609.70
682.04	1708.01
682.23	1724.39
682.41	1718.25
682.60	1671.14
682.78	1734.63
682.97	1658.85
683.15	1603.56
683.34	1658.85
683.53	1763.30
683.71	1648.61
683.90	1800.16
684.08	1843.17
684.27	1611.75
684.45	1669.09
684.64	1880.04
684.82	1722.34
685.01	1804.26
685.19	1722.34
685.38	1736.68
685.57	1714.15
685.75	1658.85
685.94	1677.29
686.12	1576.94
686.31	1689.57
686.49	1761.25
686.68	1650.66
686.86	1683.43
687.05	1712.10
687.23	1865.70
687.42	1734.63
687.60	1671.14
687.79	1724.39
687.97	1806.31
688.16	1746.92
688.34	1785.83
688.53	1603.56
688.71	1689.57
688.90	1724.39
689.08	1738.73
689.27	1615.85
689.45	1691.62
689.64	1746.92
689.82	1722.34
690.01	1720.29
690.19	1685.48
690.38	1697.77
690.56	1773.54
690.75	1697.77
690.93	1679.33
691.12	1615.85
691.30	1720.29
691.49	1681.38
691.67	1705.96
691.86	1775.59
692.04	1658.85
692.23	1724.39
692.41	1748.97
692.60	1882.08
692.78	1806.31
692.97	1689.57
693.15	1708.01
693.34	1787.88
693.52	1665.00
693.71	1630.18
693.89	1595.37
694.08	1550.31
694.26	1687.53
694.44	1787.88
694.63	1699.81
694.81	1652.71
695.00	1693.67
695.18	1755.11
695.37	1773.54
695.55	1609.70
695.74	1691.62
695.92	1660.90
696.10	1730.53
696.29	1648.61
696.47	1665.00
696.66	1566.70
696.84	1574.89
697.03	1689.57
697.21	1812.45
697.40	2316.25
697.58	1730.53
697.76	1720.29
697.95	1728.49
698.13	1701.86
698.32	1660.90
698.50	1662.95
698.68	1791.97
698.87	1710.05
699.05	1849.32
699.24	1701.86
699.42	1720.29
699.61	1712.10
699.79	1591.27
699.97	1689.57
700.16	1708.01
700.34	1648.61
700.53	1720.29
700.71	1773.54
700.89	1767.40
701.08	1685.48
701.26	1671.14
701.45	2088.93
701.63	1654.76
701.81	1755.11
702.00	1710.05
702.18	1705.96
702.37	1746.92
702.55	1716.20
702.73	1693.67
702.92	1615.85
703.10	1673.19
703.28	1708.01
703.47	1658.85
703.65	1820.64
703.84	1742.82
704.02	1662.95
704.20	1751.01
704.39	1705.96
704.57	1738.73
704.75	1701.86
704.94	1753.06
705.12	1867.75
705.30	1824.74
705.49	2279.39
705.67	4415.42
705.86	9502.58
706.04	12869.44
706.22	14776.09
706.41	15847.18
706.59	14262.05
706.77	9846.63
706.96	7473.04
707.14	6688.67
707.32	6068.13
707.51	5605.29
707.69	5064.63
707.87	4298.69
708.06	3450.83
708.24	2887.64
708.42	2334.68
708.61	2217.95
708.79	1916.90
708.97	1820.64
709.16	1814.50
709.34	1777.64
709.52	1726.44
709.71	1722.34
709.89	1767.40
710.07	1708.01
710.26	1667.05
710.44	1716.20
710.62	1761.25
710.80	1673.19
710.99	1839.08
711.17	1812.45
711.35	1701.86
711.54	1626.09
711.72	1771.49
711.90	1712.10
712.09	1714.15
712.27	1665.00
712.45	1767.40
712.63	1673.19
712.82	1814.50
713.00	1662.95
713.18	1796.07
713.37	1726.44
713.55	1757.16
713.73	1628.14
713.91	1791.97
714.10	1673.19
714.28	1726.44
714.46	1667.05
714.65	1714.15
714.83	1730.53
715.01	1673.19
715.19	1718.25
715.38	1675.24
715.56	1685.48
715.74	1632.23
715.92	1685.48
716.11	1826.79
716.29	1632.23
716.47	1644.52
716.65	1800.16
716.84	1619.94
717.02	1720.29
717.20	1599.46
717.38	1587.18
717.57	1726.44
717.75	1705.96
717.93	1615.85
718.11	1695.72
718.30	1626.09
718.48	1806.31
718.66	1689.57
718.84	1824.74
719.03	1667.05
719.21	1738.73
719.39	1761.25
719.57	1755.11
719.75	1753.06
719.94	1714.15
720.12	1638.38
720.30	1812.45
720.48	1730.53
720.67	1681.38
720.85	1595.37
721.03	1660.90
721.21	1609.70
721.39	1748.97
721.58	1730.53
721.76	1685.48
721.94	1693.67
722.12	1781.73
722.30	1773.54
722.49	1714.15
722.67	1724.39
722.85	1755.11
723.03	1576.94
723.21	1675.24
723.40	1689.57
723.58	1753.06
723.76	1689.57
723.94	1763.30
724.12	1722.34
724.30	1757.16
724.49	1794.02
724.67	1652.71
724.85	1753.06
725.03	1693.67
725.21	1691.62
725.40	1757.16
725.58	1681.38
725.76	1761.25
725.94	1738.73
726.12	1662.95
726.30	1746.92
726.49	1775.59
726.67	1609.70
726.85	1765.35
727.03	1757.16
727.21	2176.99
727.39	2885.59
727.57	3874.76
727.76	4286.40
727.94	4425.66
728.12	4497.34
728.30	3778.50
728.48	3012.56
728.66	2697.17
728.84	2512.86
729.03	2443.23
729.21	2174.94
729.39	2011.11
729.57	1804.26
729.75	1810.40
729.93	1796.07
730.11	1652.71
730.30	1714.15
730.48	1740.77
730.66	1798.12
730.84	1824.74
731.02	1710.05
731.20	1716.20
731.38	1771.49
731.56	1679.33
731.74	1691.62
731.93	1726.44
732.11	1734.63
732.29	1679.33
732.47	1669.09
732.65	1716.20
732.83	1800.16
733.01	1736.68
733.19	1642.47
733.37	1683.43
733.56	1705.96
733.74	1658.85
733.92	1734.63
734.10	1697.77
734.28	1796.07
734.46	1619.94
734.64	1601.51
734.82	1681.38
735.00	1669.09
735.18	1626.09
735.36	1673.19
735.54	1656.81
735.73	1742.82
735.91	1697.77
736.09	1624.04
736.27	1720.29
736.45	1724.39
736.63	1640.42
736.81	1693.67
736.99	1804.26
737.17	1773.54
737.35	1628.14
737.53	1740.77
737.71	1687.53
737.89	1869.80
738.07	1748.97
738.25	1714.15
738.43	1589.22
738.61	1669.09
738.80	1720.29
738.98	1648.61
739.16	1599.46
739.34	1708.01
739.52	1695.72
739.70	1710.05
739.88	1738.73
740.06	1777.64
740.24	1589.22
740.42	1701.86
740.60	1593.32
740.78	1658.85
740.96	1583.08
741.14	1685.48
741.32	1689.57
741.50	1626.09
741.68	1771.49
741.86	1748.97
742.04	1683.43
742.22	1601.51
742.40	1724.39
742.58	1712.10
742.76	1669.09
742.94	1687.53
743.12	1624.04
743.30	1708.01
743.48	1705.96
743.66	1634.28
743.84	1742.82
744.02	1669.09
744.20	1708.01
744.38	1632.23
744.56	1683.43
744.74	1859.56
744.92	1665.00
745.10	1812.45
745.28	1699.81
745.46	1773.54
745.64	1703.91
745.82	1738.73
746.00	1677.29
746.18	1757.16
746.36	1656.81
746.54	1722.34
746.72	1697.77
746.90	1671.14
747.08	1726.44
747.26	1705.96
747.44	1810.40
747.62	1716.20
747.80	1697.77
747.98	1763.30
748.15	1675.24
748.33	1796.07
748.51	1693.67
748.69	1714.15
748.87	1626.09
749.05	1654.76
749.23	1615.85
749.41	1701.86
749.59	1714.15
749.77	1716.20
749.95	1628.14
750.13	1681.38
750.31	1757.16
750.49	1708.01
750.67	1640.42
750.85	1759.21
751.03	1705.96
751.20	1787.88
751.38	1685.48
751.56	1691.62
751.74	1648.61
751.92	1687.53
752.10	1632.23
752.28	1767.40
752.46	1720.29
752.64	1687.53
752.82	1662.95
753.00	1779.68
753.18	1675.24
753.35	1724.39
753.53	1720.29
753.71	1648.61
753.89	1730.53
754.07	1691.62
754.25	1650.66
754.43	1685.48
754.61	1636.33
754.79	1722.34
754.97	1691.62
755.14	1695.72
755.32	1640.42
755.50	1673.19
755.68	1804.26
755.86	1679.33
756.04	1660.90
756.22	1628.14
756.40	1652.71
756.57	1716.20
756.75	1644.52
756.93	1814.50
757.11	1714.15
757.29	1626.09
757.47	1689.57
757.65	1660.90
757.82	1525.74
758.00	1652.71
758.18	1689.57
758.36	1679.33
758.54	1767.40
758.72	1599.46
758.90	1767.40
759.07	1652.71
759.25	1640.42
759.43	1710.05
759.61	1621.99
759.79	2244.57
759.97	1744.87
760.15	1718.25
760.32	1746.92
760.50	1730.53
760.68	1794.02
760.86	1601.51
761.04	1816.55
761.22	1712.10
761.39	1781.73
761.57	1669.09
761.75	1734.63
761.93	1773.54
762.11	1691.62
762.28	1695.72
762.46	1662.95
762.64	1767.40
762.82	1650.66
763.00	1644.52
763.18	1693.67
763.35	1617.90
763.53	1693.67
763.71	1669.09
763.89	1701.86
764.07	1716.20
764.24	1783.78
764.42	1720.29
764.60	1732.58
764.78	1755.11
764.96	1789.92
765.13	1769.44
765.31	1703.91
765.49	1708.01
765.67	1634.28
765.84	1685.48
766.02	1667.05
766.20	1556.46
766.38	1724.39
766.56	1746.92
766.73	1673.19
766.91	1695.72
767.09	1693.67
767.27	1751.01
767.44	1624.04
767.62	1779.68
767.80	1689.57
767.98	1775.59
768.15	1705.96
768.33	1724.39
768.51	1787.88
768.69	1673.19
768.87	1720.29
769.04	1736.68
769.22	1824.74
769.40	1746.92
769.58	1822.69
769.75	1783.78
769.93	1724.39
770.11	1671.14
770.28	1648.61
770.46	1736.68
770.64	1798.12
770.82	1699.81
770.99	1669.09
771.17	1640.42
771.35	1630.18
771.53	1716.20
771.70	1669.09
771.88	1710.05
772.06	1699.81
772.23	1662.95
772.41	1710.05
772.59	1628.14
772.77	1662.95
772.94	1665.00
773.12	1773.54
773.30	1648.61
773.47	1738.73
773.65	1699.81
773.83	1777.64
774.01	1746.92
774.18	1634.28
774.36	1716.20
774.54	1632.23
774.71	1640.42
774.89	1595.37
775.07	1718.25
775.24	1728.49
775.42	1662.95
775.60	1798.12
775.78	1673.19
775.95	1617.90
776.13	1673.19
776.31	1632.23
776.48	1654.76
776.66	1769.44
776.84	1697.77
777.01	1583.08
777.19	1697.77
777.37	1619.94
777.54	1691.62
777.72	1839.08
777.90	1716.20
778.07	1648.61
778.25	1888.23
778.43	1720.29
778.60	1644.52
778.78	1800.16
778.96	1695.72
779.13	1656.81
779.31	1732.58
779.49	1728.49
779.66	1703.91
779.84	1646.57
780.01	1677.29
780.19	1652.71
780.37	1783.78
780.54	1656.81
780.72	1673.19
780.90	1687.53
781.07	1673.19
781.25	1615.85
781.43	1691.62
781.60	1673.19
781.78	1779.68
781.95	1789.92
782.13	1673.19
782.31	1673.19
782.48	1646.57
782.66	1677.29
782.83	1820.64
783.01	1736.68
783.19	1751.01
783.36	1701.86
783.54	1632.23
783.72	1791.97
783.89	1697.77
784.07	1708.01
784.24	1738.73
784.42	1806.31
784.60	1687.53
784.77	1761.25
784.95	1564.65
785.12	1665.00
785.30	1718.25
785.47	1714.15
785.65	1654.76
785.83	1632.23
786.00	1662.95
786.18	1681.38
786.35	1673.19
786.53	1710.05
786.71	1714.15
786.88	1714.15
787.06	1759.21
787.23	1693.67
787.41	1550.31
787.58	1703.91
787.76	1642.47
787.94	1662.95
788.11	1714.15
788.29	1675.24
788.46	1642.47
788.64	1656.81
788.81	1644.52
788.99	1689.57
789.16	1609.70
789.34	1648.61
789.52	1644.52
789.69	1652.71
789.87	1617.90
790.04	1652.71
790.22	1730.53
790.39	1822.69
790.57	1673.19
790.74	1638.38
790.92	1773.54
791.09	1599.46
791.27	1703.91
791.44	1724.39
791.62	1746.92
791.79	1697.77
791.97	1705.96
792.15	1855.46
792.32	1759.21
792.50	1740.77
792.67	1763.30
792.85	1767.40
793.02	1714.15
793.20	1660.90
793.37	1574.89
793.55	1705.96
793.72	1644.52
793.90	1652.71
794.07	1548.26
794.25	1634.28
794.42	1740.77
794.60	1654.76
794.77	1681.38
794.95	1800.16
795.12	1703.91
795.30	1685.48
795.47	1583.08
795.65	1896.42
795.82	1740.77
796.00	1609.70
796.17	1615.85
796.34	1699.81
796.52	1652.71
796.69	1755.11
796.87	1740.77
797.04	1728.49
797.22	1746.92
797.39	1763.30
797.57	1738.73
797.74	1705.96
797.92	1644.52
798.09	1611.75
798.27	1712.10
798.44	1695.72
798.62	1609.70
798.79	1650.66
798.96	1734.63
799.14	1632.23
799.31	1781.73
799.49	1755.11
799.66	1669.09
799.84	1730.53
800.01	1611.75
800.19	1730.53
800.36	1650.66
800.53	1757.16
800.71	1648.61
800.88	1759.21
801.06	1693.67
801.23	1677.29
801.41	1687.53
801.58	1644.52
801.75	1685.48
801.93	1697.77
802.10	1728.49
802.28	1705.96
802.45	1650.66
802.63	1736.68
802.80	1769.44
802.97	1644.52
803.15	1701.86
803.32	1699.81
803.50	1667.05
803.67	1648.61
803.84	1617.90
804.02	1720.29
804.19	1710.05
804.37	1581.03
804.54	1710.05
804.71	1601.51
804.89	1695.72
805.06	1722.34
805.24	1615.85
805.41	1710.05
805.58	1626.09
805.76	1853.41
805.93	1742.82
806.10	1648.61
806.28	1640.42
806.45	1689.57
806.63	1634.28
806.80	1714.15
806.97	1726.44
807.15	1726.44
807.32	1751.01
807.49	1736.68
807.67	1636.33
807.84	1771.49
808.01	1642.47
808.19	1785.83
808.36	1826.79
808.54	1691.62
808.71	1615.85
808.88	1665.00
809.06	1759.21
809.23	1798.12
809.40	1685.48
809.58	1804.26
809.75	1673.19
809.92	1648.61
810.10	1798.12
810.27	1648.61
810.44	1763.30
810.62	1742.82
810.79	1757.16
810.96	1609.70
811.14	1718.25
811.31	1808.36
811.48	1726.44
811.66	1689.57
811.83	1789.92
812.00	1724.39
812.18	1689.57
812.35	1759.21
812.52	1701.86
812.69	1636.33
812.87	1677.29
813.04	1681.38
813.21	1671.14
813.39	1613.80
813.56	1636.33
813.73	1683.43
813.91	1640.42
814.08	1708.01
814.25	1669.09
814.42	1656.81
814.60	1722.34
814.77	1660.90
814.94	1656.81
815.12	1671.14
815.29	1740.77
815.46	1503.21
815.63	1738.73
815.81	1638.38
815.98	1642.47
816.15	1656.81
816.33	1689.57
816.50	1699.81
816.67	1677.29
816.84	1742.82
817.02	1656.81
817.19	1656.81
817.36	1716.20
817.53	1789.92
817.71	1656.81
817.88	1687.53
818.05	1681.38
818.22	1595.37
818.40	1783.78
818.57	1648.61
818.74	1787.88
818.91	1621.99
819.09	1667.05
819.26	1724.39
819.43	1660.90
819.60	1648.61
819.78	1726.44
819.95	1769.44
820.12	1665.00
820.29	1855.46
820.47	1746.92
820.64	1652.71
820.81	1601.51
820.98	1648.61
821.15	1609.70
821.33	1669.09
821.50	1640.42
821.67	1703.91
821.84	1646.57
822.02	1693.67
822.19	1742.82
822.36	1660.90
822.53	1624.04
822.70	1628.14
822.88	1734.63
823.05	1845.22
823.22	1689.57
823.39	1722.34
823.56	1665.00
823.74	1830.88
823.91	1671.14
824.08	1617.90
824.25	1603.56
824.42	1794.02
824.60	1683.43
824.77	1669.09
824.94	1716.20
825.11	1697.77
825.28	1687.53
825.45	1748.97
825.63	1732.58
825.80	1689.57
825.97	1730.53
826.14	1675.24
826.31	1595.37
826.48	1742.82
826.66	1691.62
826.83	1642.47
827.00	1722.34
827.17	1626.09
827.34	1636.33
827.51	1660.90
827.69	1724.39
827.86	1570.79
828.03	1722.34
828.20	1640.42
828.37	1736.68
828.54	1777.64
828.71	1658.85
828.89	1798.12
829.06	1728.49
829.23	1798.12
829.40	1650.66
829.57	1724.39
829.74	1660.90
829.91	1675.24
830.09	1683.43
830.26	1656.81
830.43	1802.21
830.60	1720.29
830.77	1658.85
830.94	1695.72
831.11	1726.44
831.28	1624.04
831.46	1712.10
831.63	1648.61
831.80	1667.05
831.97	1638.38
832.14	1626.09
832.31	1769.44
832.48	1712.10
832.65	1781.73
832.82	1726.44
832.99	1732.58
833.17	1609.70
833.34	1791.97
833.51	1791.97
833.68	1658.85
833.85	1724.39
834.02	1660.90
834.19	1654.76
834.36	1689.57
834.53	1660.90
834.70	1777.64
834.87	1681.38
835.04	1669.09
835.22	1658.85
835.39	1701.86
835.56	1601.51
835.73	1642.47
835.90	1701.86
836.07	1650.66
836.24	1763.30
836.41	1564.65
836.58	1640.42
836.75	1740.77
836.92	1693.67
837.09	1699.81
837.26	1654.76
837.43	1646.57
837.60	1718.25
837.77	1689.57
837.94	1759.21
838.12	1783.78
838.29	1728.49
838.46	1689.57
838.63	1626.09
838.80	1730.53
838.97	1744.87
839.14	1730.53
839.31	1665.00
839.48	1712.10
839.65	1632.23
839.82	1693.67
839.99	1718.25
840.16	1705.96
840.33	1660.90
840.50	1681.38
840.67	1630.18
840.84	1570.79
841.01	1699.81
841.18	1665.00
841.35	1757.16
841.52	1746.92
841.69	1796.07
841.86	1695.72
842.03	1667.05
842.20	1689.57
842.37	1708.01
842.54	1617.90
842.71	1677.29
842.88	1658.85
843.05	1804.26
843.22	1617.90
843.39	1771.49
843.56	1593.32
843.73	1591.27
843.90	1595.37
844.07	1591.27
844.24	1714.15
844.41	1705.96
844.58	1671.14
844.75	1642.47
844.92	1734.63
845.09	1734.63
845.26	1611.75
845.43	1712.10
845.60	1652.71
845.77	1712.10
845.94	1689.57
846.10	1808.36
846.27	1617.90
846.44	1560.55
846.61	1662.95
846.78	1701.86
846.95	1751.01
847.12	1619.94
847.29	1632.23
847.46	1609.70
847.63	1748.97
847.80	1624.04
847.97	1736.68
848.14	1798.12
848.31	1624.04
848.48	1705.96
848.65	1744.87
848.82	1599.46
848.98	1812.45
849.15	1744.87
849.32	1773.54
849.49	1734.63
849.66	1697.77
849.83	1771.49
850.00	1638.38
850.17	1724.39
850.34	1697.77
850.51	1724.39
850.68	1683.43
850.85	1818.60
851.01	1759.21
851.18	1689.57
851.35	1619.94
851.52	1814.50
851.69	1757.16
851.86	1632.23
852.03	1744.87
852.20	1681.38
852.37	1658.85
852.53	1599.46
852.70	1722.34
852.87	1681.38
853.04	1767.40
853.21	1701.86
853.38	1703.91
853.55	1728.49
853.72	1853.41
853.89	1742.82
854.05	1714.15
854.22	1607.66
854.39	1665.00
854.56	1701.86
854.73	1697.77
854.90	1667.05
855.07	1699.81
855.23	1677.29
855.40	1654.76
855.57	1658.85
855.74	1576.94
855.91	1865.70
856.08	1683.43
856.25	1609.70
856.41	1656.81
856.58	1617.90
856.75	1720.29
856.92	1611.75
857.09	1740.77
857.26	1640.42
857.42	1701.86
857.59	1771.49
857.76	1677.29
857.93	1734.63
858.10	1710.05
858.27	1636.33
858.43	1667.05
858.60	1685.48
858.77	1601.51
858.94	1597.42
859.11	1712.10
859.27	1640.42
859.44	1695.72
859.61	1810.40
859.78	1691.62
859.95	1632.23
860.12	1699.81
860.28	1830.88
860.45	1843.17
860.62	1730.53
860.79	1736.68
860.95	1613.80
861.12	1583.08
861.29	1656.81
861.46	1558.50
861.63	1648.61
861.79	1642.47
861.96	1593.32
862.13	1591.27
862.30	1759.21
862.47	1587.18
862.63	1693.67
862.80	1773.54
862.97	1742.82
863.14	1644.52
863.30	1710.05
863.47	1689.57
863.64	1839.08
863.81	1714.15
863.97	1640.42
864.14	1718.25
864.31	1652.71
864.48	1759.21
864.65	1681.38
864.81	1789.92
864.98	1609.70
865.15	1736.68
865.32	1824.74
865.48	1775.59
865.65	1730.53
865.82	1724.39
865.98	1701.86
866.15	1716.20
866.32	1714.15
866.49	1656.81
866.65	1746.92
866.82	1550.31
866.99	1716.20
867.16	1695.72
867.32	1626.09
867.49	1720.29
867.66	1671.14
867.83	1689.57
867.99	1638.38
868.16	1710.05
868.33	1599.46
868.49	1658.85
868.66	1683.43
868.83	1726.44
868.99	1683.43
869.16	1751.01
869.33	1708.01
869.50	1722.34
869.66	1652.71
869.83	1640.42
870.00	1652.71
870.16	1687.53
870.33	1775.59
870.50	1763.30
870.66	1714.15
870.83	1877.99
871.00	1636.33
871.17	1742.82
871.33	1763.30
871.50	1695.72
871.67	1775.59
871.83	1667.05
872.00	1732.58
872.17	1695.72
872.33	1796.07
872.50	1677.29
872.67	1691.62
872.83	1638.38
873.00	1771.49
873.17	1605.61
873.33	1785.83
873.50	1732.58
873.67	1615.85
873.83	1589.22
874.00	1693.67
874.16	1708.01
874.33	1712.10
874.50	1652.71
874.66	1748.97
874.83	1804.26
875.00	1777.64
875.16	1728.49
875.33	1730.53
875.50	1642.47
875.66	1677.29
875.83	1710.05
875.99	1759.21
876.16	1642.47
876.33	1601.51
876.49	1671.14
876.66	1693.67
876.83	1607.66
876.99	1591.27
877.16	1705.96
877.32	1642.47
877.49	1705.96
877.66	1587.18
877.82	1767.40
877.99	1728.49
878.15	1738.73
878.32	1791.97
878.49	1671.14
878.65	1687.53
878.82	1808.36
878.98	1695.72
879.15	1830.88
879.32	1726.44
879.48	1720.29
879.65	1675.24
879.81	1615.85
879.98	1658.85
880.15	1636.33
880.31	1726.44
880.48	1640.42
880.64	1777.64
880.81	1689.57
880.97	1818.60
881.14	1689.57
881.31	1669.09
881.47	1873.89
881.64	1675.24
881.80	1613.80
881.97	1685.48
882.13	1738.73
882.30	1624.04
882.47	1669.09
882.63	1634.28
882.80	1679.33
882.96	1665.00
883.13	1755.11
883.29	1687.53
883.46	1742.82
883.62	1728.49
883.79	1656.81
883.95	1742.82
884.12	1675.24
884.29	1714.15
884.45	1601.51
884.62	1781.73
884.78	1710.05
884.95	1722.34
885.11	1697.77
885.28	1695.72
885.44	1658.85
885.61	1695.72
885.77	1783.78
885.94	1697.77
886.10	1746.92
886.27	1681.38
886.43	1732.58
886.60	1726.44
886.76	1607.66
886.93	1679.33
887.09	1732.58
887.26	1646.57
887.42	1667.05
887.59	1781.73
887.75	1843.17
887.92	1697.77
888.08	1705.96
888.25	1710.05
888.41	1810.40
888.58	1724.39
888.74	1562.60
888.91	1685.48
>>>>>End Processed Spectral Data<<<<<
