SpectraSuite Data File
++++++++++++++++++++++++++++++++++++
Date: Mon Jun 06 16:07:17 CEST 2016
User: root
Dark Spectrum Present: No
Reference Spectrum Present: No
Number of Sampled Component Spectra: 1
Spectrometers: USB4C02835
Integration Time (usec): 100000 (USB4C02835)
Spectra Averaged: 1 (USB4C02835)
Boxcar Smoothing: 0 (USB4C02835)
Correct for Electrical Dark: No (USB4C02835)
Strobe/Lamp Enabled: No (USB4C02835)
Correct for Detector Non-linearity: No (USB4C02835)
Correct for Stray Light: No (USB4C02835)
Number of Pixels in Processed Spectrum: 3648
>>>>>Begin Processed Spectral Data<<<<<
177.47	1466.35
177.69	1466.35
177.91	1466.35
178.13	1398.76
178.36	1488.87
178.58	1619.94
178.80	1730.53
179.02	1656.81
179.24	1640.42
179.46	1736.68
179.68	1828.84
179.90	1654.76
180.13	1763.30
180.35	1693.67
180.57	1658.85
180.79	1751.01
181.01	1785.83
181.23	1765.35
181.45	1806.31
181.67	1693.67
181.90	1757.16
182.12	1701.86
182.34	1587.18
182.56	1779.68
182.78	1757.16
183.00	1691.62
183.22	1718.25
183.44	1603.56
183.66	1855.46
183.89	1789.92
184.11	1798.12
184.33	1763.30
184.55	1753.06
184.77	1787.88
184.99	1708.01
185.21	1619.94
185.43	1845.22
185.65	1697.77
185.87	1710.05
186.10	1839.08
186.32	1812.45
186.54	1771.49
186.76	1705.96
186.98	1732.58
187.20	1638.38
187.42	1615.85
187.64	1718.25
187.86	1751.01
188.08	1837.03
188.30	1697.77
188.52	1703.91
188.75	1796.07
188.97	1740.77
189.19	1671.14
189.41	1634.28
189.63	1789.92
189.85	1724.39
190.07	1587.18
190.29	1603.56
190.51	1767.40
190.73	1552.36
190.95	1787.88
191.17	1689.57
191.39	1621.99
191.61	1742.82
191.84	1718.25
192.06	1767.40
192.28	1636.33
192.50	1863.65
192.72	1675.24
192.94	1732.58
193.16	1794.02
193.38	1796.07
193.60	1665.00
193.82	1665.00
194.04	1777.64
194.26	1710.05
194.48	1660.90
194.70	1648.61
194.92	1638.38
195.14	1773.54
195.36	1671.14
195.58	1726.44
195.80	1636.33
196.02	1644.52
196.24	1656.81
196.46	1740.77
196.69	1755.11
196.91	1853.41
197.13	1742.82
197.35	1669.09
197.57	1851.36
197.79	1714.15
198.01	1744.87
198.23	1718.25
198.45	1800.16
198.67	1714.15
198.89	1697.77
199.11	1673.19
199.33	1681.38
199.55	1624.04
199.77	1677.29
199.99	1767.40
200.21	1669.09
200.43	1726.44
200.65	1628.14
200.87	1624.04
201.09	1646.57
201.31	1763.30
201.53	1783.78
201.75	1701.86
201.97	1697.77
202.19	1730.53
202.41	1744.87
202.63	1812.45
202.85	1744.87
203.07	1740.77
203.29	1632.23
203.51	1642.47
203.73	1710.05
203.95	1875.94
204.17	1687.53
204.39	1765.35
204.61	1730.53
204.83	1712.10
205.05	1806.31
205.27	1699.81
205.49	1857.51
205.71	1771.49
205.93	1621.99
206.15	1683.43
206.37	1740.77
206.59	1730.53
206.81	1689.57
207.03	1640.42
207.25	1644.52
207.47	1794.02
207.69	1671.14
207.91	1732.58
208.13	1808.36
208.34	1691.62
208.56	1630.18
208.78	1691.62
209.00	1701.86
209.22	1652.71
209.44	1740.77
209.66	1683.43
209.88	1621.99
210.10	1568.74
210.32	1669.09
210.54	1814.50
210.76	1755.11
210.98	1810.40
211.20	1597.42
211.42	1695.72
211.64	1832.93
211.86	1802.21
212.08	1730.53
212.30	1685.48
212.52	1710.05
212.74	1705.96
212.96	1705.96
213.17	1730.53
213.39	1740.77
213.61	1761.25
213.83	1732.58
214.05	1720.29
214.27	1771.49
214.49	1681.38
214.71	1683.43
214.93	1773.54
215.15	1746.92
215.37	1781.73
215.59	1671.14
215.81	1724.39
216.03	1685.48
216.24	1685.48
216.46	1714.15
216.68	1744.87
216.90	1736.68
217.12	1830.88
217.34	1716.20
217.56	1775.59
217.78	1843.17
218.00	1757.16
218.22	1800.16
218.44	1705.96
218.66	1636.33
218.87	1841.12
219.09	1712.10
219.31	1697.77
219.53	1730.53
219.75	1693.67
219.97	1699.81
220.19	1740.77
220.41	1759.21
220.63	1806.31
220.85	1726.44
221.06	1656.81
221.28	1759.21
221.50	1832.93
221.72	1794.02
221.94	1730.53
222.16	1722.34
222.38	1751.01
222.60	1742.82
222.82	1685.48
223.03	1775.59
223.25	1687.53
223.47	1689.57
223.69	1880.04
223.91	1728.49
224.13	1720.29
224.35	1755.11
224.57	1765.35
224.78	1701.86
225.00	1685.48
225.22	1771.49
225.44	1779.68
225.66	1755.11
225.88	1703.91
226.10	1705.96
226.32	1689.57
226.53	1796.07
226.75	1652.71
226.97	1708.01
227.19	1748.97
227.41	1681.38
227.63	1751.01
227.85	1540.07
228.06	1730.53
228.28	1677.29
228.50	1806.31
228.72	1607.66
228.94	1652.71
229.16	1650.66
229.37	1669.09
229.59	1644.52
229.81	1834.98
230.03	1759.21
230.25	1638.38
230.47	1626.09
230.69	1675.24
230.90	1779.68
231.12	1662.95
231.34	1755.11
231.56	1847.27
231.78	1624.04
232.00	1712.10
232.21	1648.61
232.43	1695.72
232.65	1564.65
232.87	1654.76
233.09	1638.38
233.30	1687.53
233.52	1767.40
233.74	1722.34
233.96	1734.63
234.18	1722.34
234.40	1806.31
234.61	1837.03
234.83	1650.66
235.05	1689.57
235.27	1925.09
235.49	1775.59
235.70	1726.44
235.92	1847.27
236.14	1755.11
236.36	1806.31
236.58	1667.05
236.79	1759.21
237.01	1767.40
237.23	1691.62
237.45	1828.84
237.67	1710.05
237.88	1732.58
238.10	1832.93
238.32	1613.80
238.54	1665.00
238.76	1710.05
238.97	1652.71
239.19	1685.48
239.41	1763.30
239.63	1839.08
239.85	1705.96
240.06	1705.96
240.28	1693.67
240.50	1746.92
240.72	1757.16
240.93	1671.14
241.15	1765.35
241.37	1732.58
241.59	1800.16
241.81	1759.21
242.02	1724.39
242.24	1705.96
242.46	1765.35
242.68	1660.90
242.89	1757.16
243.11	1787.88
243.33	1761.25
243.55	1763.30
243.76	1853.41
243.98	1642.47
244.20	1748.97
244.42	1695.72
244.64	1720.29
244.85	1671.14
245.07	1607.66
245.29	1701.86
245.51	1683.43
245.72	1685.48
245.94	1726.44
246.16	1695.72
246.38	1738.73
246.59	1628.14
246.81	1628.14
247.03	1714.15
247.24	1525.74
247.46	1646.57
247.68	1648.61
247.90	1679.33
248.11	1697.77
248.33	1787.88
248.55	1710.05
248.77	1654.76
248.98	1794.02
249.20	1818.60
249.42	1691.62
249.64	1689.57
249.85	1826.79
250.07	1673.19
250.29	1751.01
250.50	1808.36
250.72	1607.66
250.94	1701.86
251.16	1884.13
251.37	1740.77
251.59	1783.78
251.81	1642.47
252.02	1726.44
252.24	1679.33
252.46	1812.45
252.68	1693.67
252.89	1589.22
253.11	1624.04
253.33	1853.41
253.54	1755.11
253.76	1683.43
253.98	1726.44
254.20	1703.91
254.41	1681.38
254.63	1636.33
254.85	1677.29
255.06	1699.81
255.28	1681.38
255.50	1738.73
255.71	1634.28
255.93	1646.57
256.15	1667.05
256.36	1720.29
256.58	1744.87
256.80	1648.61
257.02	1716.20
257.23	1642.47
257.45	1701.86
257.67	1751.01
257.88	1701.86
258.10	1742.82
258.32	1691.62
258.53	1724.39
258.75	1843.17
258.97	1738.73
259.18	1765.35
259.40	1746.92
259.62	1773.54
259.83	1796.07
260.05	1722.34
260.27	1996.77
260.48	1771.49
260.70	1591.27
260.92	1652.71
261.13	1732.58
261.35	1681.38
261.57	1724.39
261.78	1611.75
262.00	1624.04
262.22	1683.43
262.43	1617.90
262.65	1687.53
262.86	1740.77
263.08	1871.84
263.30	1718.25
263.51	1677.29
263.73	1703.91
263.95	1730.53
264.16	1644.52
264.38	1714.15
264.60	1705.96
264.81	1691.62
265.03	1781.73
265.25	1796.07
265.46	1728.49
265.68	1777.64
265.89	1703.91
266.11	1615.85
266.33	1804.26
266.54	1748.97
266.76	1705.96
266.98	1748.97
267.19	1845.22
267.41	1740.77
267.62	1746.92
267.84	1677.29
268.06	1751.01
268.27	1742.82
268.49	1800.16
268.70	1656.81
268.92	1705.96
269.14	1626.09
269.35	1658.85
269.57	1652.71
269.79	1757.16
270.00	1685.48
270.22	1808.36
270.43	1673.19
270.65	1611.75
270.87	1767.40
271.08	1798.12
271.30	1689.57
271.51	1738.73
271.73	1687.53
271.95	1796.07
272.16	1744.87
272.38	1765.35
272.59	1677.29
272.81	1787.88
273.02	1681.38
273.24	1755.11
273.46	1763.30
273.67	1642.47
273.89	1671.14
274.10	1650.66
274.32	1791.97
274.54	1728.49
274.75	1693.67
274.97	1679.33
275.18	1701.86
275.40	1730.53
275.61	1691.62
275.83	1744.87
276.05	1628.14
276.26	1673.19
276.48	1732.58
276.69	1705.96
276.91	1726.44
277.12	1710.05
277.34	1751.01
277.55	1759.21
277.77	1724.39
277.99	1675.24
278.20	1689.57
278.42	1701.86
278.63	1632.23
278.85	1626.09
279.06	1669.09
279.28	1691.62
279.49	1740.77
279.71	1789.92
279.93	1669.09
280.14	1681.38
280.36	1662.95
280.57	1777.64
280.79	1783.78
281.00	1742.82
281.22	1652.71
281.43	1734.63
281.65	1605.61
281.86	1705.96
282.08	1822.69
282.29	1814.50
282.51	1638.38
282.73	1648.61
282.94	1660.90
283.16	1789.92
283.37	1802.21
283.59	1738.73
283.80	1685.48
284.02	1710.05
284.23	1689.57
284.45	1677.29
284.66	1646.57
284.88	1685.48
285.09	1773.54
285.31	1701.86
285.52	1701.86
285.74	1619.94
285.95	1775.59
286.17	1660.90
286.38	1755.11
286.60	1732.58
286.81	1734.63
287.03	1683.43
287.24	1746.92
287.46	1720.29
287.67	1718.25
287.89	1837.03
288.10	1726.44
288.32	1722.34
288.53	1708.01
288.75	1738.73
288.96	1742.82
289.18	1689.57
289.39	1720.29
289.61	1761.25
289.82	1787.88
290.04	1748.97
290.25	1697.77
290.47	1667.05
290.68	1705.96
290.90	1839.08
291.11	1613.80
291.33	1804.26
291.54	1624.04
291.76	1712.10
291.97	1798.12
292.18	1773.54
292.40	1609.70
292.61	1658.85
292.83	1890.28
293.04	1765.35
293.26	1744.87
293.47	1681.38
293.69	1628.14
293.90	1722.34
294.12	1796.07
294.33	1681.38
294.55	1714.15
294.76	1763.30
294.97	1761.25
295.19	1828.84
295.40	1667.05
295.62	1726.44
295.83	1724.39
296.05	1677.29
296.26	1738.73
296.48	1722.34
296.69	1675.24
296.90	1710.05
297.12	1732.58
297.33	1839.08
297.55	1791.97
297.76	1685.48
297.98	1826.79
298.19	1724.39
298.41	1673.19
298.62	1724.39
298.83	1839.08
299.05	1771.49
299.26	1638.38
299.48	1675.24
299.69	1748.97
299.90	1740.77
300.12	1673.19
300.33	1697.77
300.55	1728.49
300.76	1697.77
300.98	1632.23
301.19	1742.82
301.40	1744.87
301.62	1687.53
301.83	1746.92
302.05	1763.30
302.26	1748.97
302.47	1708.01
302.69	1609.70
302.90	1744.87
303.12	1628.14
303.33	1693.67
303.54	1830.88
303.76	1753.06
303.97	1683.43
304.19	1845.22
304.40	1669.09
304.61	1710.05
304.83	1877.99
305.04	1783.78
305.26	1755.11
305.47	1767.40
305.68	1728.49
305.90	1572.84
306.11	1740.77
306.33	1746.92
306.54	1675.24
306.75	1640.42
306.97	1554.41
307.18	1619.94
307.39	1753.06
307.61	1794.02
307.82	1720.29
308.04	1710.05
308.25	1683.43
308.46	1740.77
308.68	1720.29
308.89	1695.72
309.10	1738.73
309.32	1736.68
309.53	1697.77
309.74	1724.39
309.96	1705.96
310.17	1703.91
310.39	1603.56
310.60	1742.82
310.81	1732.58
311.03	1681.38
311.24	1722.34
311.45	1685.48
311.67	1808.36
311.88	1736.68
312.09	1585.13
312.31	1662.95
312.52	1683.43
312.73	1681.38
312.95	1675.24
313.16	1683.43
313.37	1771.49
313.59	1757.16
313.80	1691.62
314.01	1859.56
314.23	1660.90
314.44	1644.52
314.65	1697.77
314.87	1665.00
315.08	1662.95
315.29	1755.11
315.51	1726.44
315.72	1574.89
315.93	1867.75
316.15	1822.69
316.36	1640.42
316.57	1773.54
316.79	1732.58
317.00	1697.77
317.21	1685.48
317.43	1701.86
317.64	1775.59
317.85	1687.53
318.07	1714.15
318.28	1744.87
318.49	1873.89
318.70	1972.19
318.92	1886.18
319.13	1783.78
319.34	1775.59
319.56	1816.55
319.77	1785.83
319.98	1787.88
320.20	1837.03
320.41	1769.44
320.62	1742.82
320.83	1619.94
321.05	1857.51
321.26	1789.92
321.47	1724.39
321.69	1820.64
321.90	1644.52
322.11	1751.01
322.32	1716.20
322.54	1812.45
322.75	1718.25
322.96	1757.16
323.18	1708.01
323.39	1689.57
323.60	1650.66
323.81	1771.49
324.03	1769.44
324.24	1724.39
324.45	1716.20
324.66	1712.10
324.88	1703.91
325.09	1867.75
325.30	1677.29
325.52	1708.01
325.73	1755.11
325.94	1646.57
326.15	1607.66
326.37	1679.33
326.58	1765.35
326.79	1814.50
327.00	1675.24
327.22	1712.10
327.43	1638.38
327.64	1638.38
327.85	1736.68
328.07	1767.40
328.28	1722.34
328.49	1736.68
328.70	1757.16
328.92	1669.09
329.13	1748.97
329.34	1703.91
329.55	1800.16
329.76	1753.06
329.98	1613.80
330.19	1800.16
330.40	1796.07
330.61	1751.01
330.83	1761.25
331.04	1669.09
331.25	1710.05
331.46	1656.81
331.68	1535.98
331.89	1771.49
332.10	1693.67
332.31	1626.09
332.52	1662.95
332.74	1751.01
332.95	1660.90
333.16	1658.85
333.37	1722.34
333.58	1705.96
333.80	1767.40
334.01	1644.52
334.22	1693.67
334.43	1759.21
334.64	1642.47
334.86	1677.29
335.07	1685.48
335.28	1763.30
335.49	1611.75
335.70	1796.07
335.92	1820.64
336.13	1798.12
336.34	1730.53
336.55	1710.05
336.76	1759.21
336.98	1744.87
337.19	1673.19
337.40	1818.60
337.61	1865.70
337.82	1726.44
338.04	1757.16
338.25	1658.85
338.46	1683.43
338.67	1746.92
338.88	1644.52
339.09	1601.51
339.31	1656.81
339.52	1755.11
339.73	1609.70
339.94	1722.34
340.15	1744.87
340.36	1726.44
340.58	1773.54
340.79	1662.95
341.00	1783.78
341.21	1615.85
341.42	1847.27
341.63	1742.82
341.85	1744.87
342.06	1654.76
342.27	1689.57
342.48	1726.44
342.69	1603.56
342.90	1705.96
343.12	1781.73
343.33	1675.24
343.54	1767.40
343.75	1787.88
343.96	1740.77
344.17	1693.67
344.38	1656.81
344.60	1720.29
344.81	1607.66
345.02	1710.05
345.23	1755.11
345.44	1908.71
345.65	1712.10
345.86	1746.92
346.07	1681.38
346.29	1644.52
346.50	1824.74
346.71	1775.59
346.92	1830.88
347.13	1828.84
347.34	1716.20
347.55	1730.53
347.76	1761.25
347.98	1714.15
348.19	1705.96
348.40	1765.35
348.61	1679.33
348.82	1812.45
349.03	1681.38
349.24	1658.85
349.45	1892.32
349.66	1599.46
349.88	1675.24
350.09	1730.53
350.30	1822.69
350.51	1845.22
350.72	1697.77
350.93	1759.21
351.14	1640.42
351.35	1753.06
351.56	1650.66
351.77	1734.63
351.99	1738.73
352.20	1779.68
352.41	1771.49
352.62	1540.07
352.83	1636.33
353.04	1720.29
353.25	1679.33
353.46	1699.81
353.67	1837.03
353.88	1550.31
354.09	1705.96
354.30	1714.15
354.52	1753.06
354.73	1744.87
354.94	1685.48
355.15	1710.05
355.36	1740.77
355.57	1712.10
355.78	1716.20
355.99	1632.23
356.20	1751.01
356.41	1834.98
356.62	1734.63
356.83	1753.06
357.04	1771.49
357.25	1665.00
357.46	1615.85
357.68	1615.85
357.89	1699.81
358.10	1787.88
358.31	1716.20
358.52	1744.87
358.73	1650.66
358.94	1617.90
359.15	1722.34
359.36	1703.91
359.57	1730.53
359.78	1816.55
359.99	1753.06
360.20	1724.39
360.41	1730.53
360.62	1730.53
360.83	1687.53
361.04	1687.53
361.25	1722.34
361.46	1753.06
361.67	1794.02
361.88	1720.29
362.09	1759.21
362.30	1753.06
362.51	1656.81
362.72	1681.38
362.93	1759.21
363.14	1748.97
363.35	1779.68
363.56	1671.14
363.78	1689.57
363.99	1765.35
364.20	1646.57
364.41	1742.82
364.62	1806.31
364.83	1636.33
365.04	1716.20
365.25	1644.52
365.46	1834.98
365.67	1667.05
365.88	1714.15
366.09	1673.19
366.30	1701.86
366.51	1751.01
366.72	1669.09
366.93	1660.90
367.14	1685.48
367.35	1806.31
367.56	1718.25
367.77	1767.40
367.98	1689.57
368.18	1689.57
368.39	1724.39
368.60	1652.71
368.81	1806.31
369.02	1685.48
369.23	1701.86
369.44	1746.92
369.65	1742.82
369.86	1722.34
370.07	1712.10
370.28	1681.38
370.49	1681.38
370.70	1746.92
370.91	1652.71
371.12	1679.33
371.33	1814.50
371.54	1660.90
371.75	1787.88
371.96	1599.46
372.17	1699.81
372.38	1708.01
372.59	1744.87
372.80	1746.92
373.01	1660.90
373.22	1671.14
373.43	1673.19
373.64	1640.42
373.85	1785.83
374.06	1828.84
374.26	1783.78
374.47	1791.97
374.68	1787.88
374.89	1783.78
375.10	1650.66
375.31	1699.81
375.52	1720.29
375.73	1769.44
375.94	1609.70
376.15	1822.69
376.36	1699.81
376.57	1675.24
376.78	1685.48
376.99	1744.87
377.20	1789.92
377.40	1714.15
377.61	1853.41
377.82	1632.23
378.03	1783.78
378.24	1720.29
378.45	1746.92
378.66	1730.53
378.87	1646.57
379.08	1615.85
379.29	1617.90
379.50	1812.45
379.71	1757.16
379.91	1783.78
380.12	1699.81
380.33	1695.72
380.54	1769.44
380.75	1691.62
380.96	1695.72
381.17	1718.25
381.38	1691.62
381.59	1736.68
381.80	1775.59
382.00	1894.37
382.21	1845.22
382.42	1806.31
382.63	1918.95
382.84	1763.30
383.05	1791.97
383.26	1923.04
383.47	1738.73
383.68	1742.82
383.88	1730.53
384.09	1765.35
384.30	1845.22
384.51	1693.67
384.72	1701.86
384.93	1619.94
385.14	1761.25
385.35	1791.97
385.55	1667.05
385.76	1875.94
385.97	1669.09
386.18	1619.94
386.39	1671.14
386.60	1722.34
386.81	1669.09
387.02	1599.46
387.22	1714.15
387.43	1742.82
387.64	1746.92
387.85	1886.18
388.06	2277.34
388.27	4200.38
388.48	6813.59
388.68	8103.81
388.89	9703.28
389.10	9969.51
389.31	8630.14
389.52	7557.00
389.73	6805.40
389.93	6162.34
390.14	5791.66
390.35	5207.98
390.56	4583.35
390.77	3790.79
390.98	3182.54
391.18	2480.09
391.39	2105.31
391.60	1800.16
391.81	1824.74
392.02	1757.16
392.23	1843.17
392.43	1812.45
392.64	1812.45
392.85	1855.46
393.06	1796.07
393.27	1718.25
393.47	1718.25
393.68	1697.77
393.89	1708.01
394.10	1796.07
394.31	1665.00
394.52	1675.24
394.72	1691.62
394.93	1777.64
395.14	1677.29
395.35	1767.40
395.56	1656.81
395.76	1761.25
395.97	1794.02
396.18	1820.64
396.39	1806.31
396.60	1968.10
396.80	1914.85
397.01	1796.07
397.22	1865.70
397.43	1841.12
397.64	1722.34
397.84	1859.56
398.05	1859.56
398.26	1746.92
398.47	1763.30
398.67	1812.45
398.88	1673.19
399.09	1789.92
399.30	1716.20
399.51	1779.68
399.71	1630.18
399.92	1714.15
400.13	1789.92
400.34	1697.77
400.54	1742.82
400.75	1822.69
400.96	1718.25
401.17	1820.64
401.37	1718.25
401.58	1691.62
401.79	1759.21
402.00	1855.46
402.21	1990.63
402.41	1937.38
402.62	1947.62
402.83	2041.82
403.04	1980.39
403.24	2086.88
403.45	1845.22
403.66	1890.28
403.87	1918.95
404.07	1937.38
404.28	1916.90
404.49	1943.52
404.70	1826.79
404.90	1816.55
405.11	1726.44
405.32	1714.15
405.52	1689.57
405.73	1617.90
405.94	1652.71
406.15	1820.64
406.35	1800.16
406.56	1716.20
406.77	1705.96
406.98	1714.15
407.18	1656.81
407.39	1806.31
407.60	1716.20
407.80	1736.68
408.01	1720.29
408.22	1791.97
408.43	1681.38
408.63	1824.74
408.84	1705.96
409.05	1773.54
409.25	1673.19
409.46	1730.53
409.67	1679.33
409.88	1650.66
410.08	1755.11
410.29	1693.67
410.50	1665.00
410.70	1695.72
410.91	1718.25
411.12	1767.40
411.32	1705.96
411.53	1648.61
411.74	1853.41
411.95	1775.59
412.15	1763.30
412.36	1783.78
412.57	1765.35
412.77	1847.27
412.98	1689.57
413.19	1728.49
413.39	1744.87
413.60	1746.92
413.81	1853.41
414.01	1581.03
414.22	1697.77
414.43	1767.40
414.63	1656.81
414.84	1669.09
415.05	1753.06
415.25	1697.77
415.46	1728.49
415.67	1722.34
415.87	1791.97
416.08	1701.86
416.29	1728.49
416.49	1759.21
416.70	1667.05
416.91	1681.38
417.11	1671.14
417.32	1685.48
417.53	1775.59
417.73	1804.26
417.94	1695.72
418.15	1759.21
418.35	1736.68
418.56	1681.38
418.77	1861.60
418.97	1769.44
419.18	1722.34
419.38	1658.85
419.59	1650.66
419.80	1751.01
420.00	1742.82
420.21	1802.21
420.42	1818.60
420.62	1773.54
420.83	1640.42
421.04	1644.52
421.24	1708.01
421.45	1701.86
421.65	1757.16
421.86	1740.77
422.07	1765.35
422.27	1734.63
422.48	1687.53
422.69	1638.38
422.89	1669.09
423.10	1695.72
423.30	1695.72
423.51	1775.59
423.72	1736.68
423.92	1789.92
424.13	1583.08
424.33	1730.53
424.54	1832.93
424.75	1734.63
424.95	1877.99
425.16	1822.69
425.36	1734.63
425.57	1746.92
425.78	1697.77
425.98	1748.97
426.19	1685.48
426.39	1650.66
426.60	1697.77
426.81	1822.69
427.01	1744.87
427.22	1675.24
427.42	1658.85
427.63	1630.18
427.83	1753.06
428.04	1740.77
428.25	1849.32
428.45	1769.44
428.66	1681.38
428.86	1720.29
429.07	1728.49
429.28	1751.01
429.48	1677.29
429.69	1710.05
429.89	1734.63
430.10	1654.76
430.30	1744.87
430.51	1845.22
430.71	1687.53
430.92	1685.48
431.13	1742.82
431.33	1783.78
431.54	1718.25
431.74	1816.55
431.95	1847.27
432.15	1701.86
432.36	1751.01
432.56	1767.40
432.77	1816.55
432.98	1812.45
433.18	1757.16
433.39	1734.63
433.59	1685.48
433.80	1843.17
434.00	1847.27
434.21	1681.38
434.41	1720.29
434.62	1918.95
434.82	1701.86
435.03	1665.00
435.23	1755.11
435.44	1703.91
435.64	1714.15
435.85	1726.44
436.06	1806.31
436.26	1789.92
436.47	1767.40
436.67	1724.39
436.88	1665.00
437.08	1740.77
437.29	1804.26
437.49	1738.73
437.70	1736.68
437.90	1738.73
438.11	1896.42
438.31	1849.32
438.52	1859.56
438.72	1828.84
438.93	1867.75
439.13	1779.68
439.34	1937.38
439.54	1763.30
439.75	1861.60
439.95	1861.60
440.16	1755.11
440.36	1769.44
440.57	1734.63
440.77	1773.54
440.98	1769.44
441.18	1703.91
441.39	1716.20
441.59	1685.48
441.80	1826.79
442.00	1761.25
442.21	1789.92
442.41	1763.30
442.62	1783.78
442.82	1689.57
443.02	1726.44
443.23	1773.54
443.43	1720.29
443.64	1757.16
443.84	1697.77
444.05	1849.32
444.25	1765.35
444.46	1710.05
444.66	1759.21
444.87	1834.98
445.07	1546.22
445.28	1714.15
445.48	1769.44
445.69	1818.60
445.89	1945.57
446.09	1773.54
446.30	1976.29
446.50	2611.16
446.71	3721.16
446.91	4343.74
447.12	4695.99
447.32	4825.01
447.53	4167.62
447.73	3909.57
447.93	3542.99
448.14	3340.24
448.34	3221.45
448.55	2850.77
448.75	2877.40
448.96	2639.83
449.16	2506.71
449.36	2263.01
449.57	2054.11
449.77	1886.18
449.98	1796.07
450.18	1837.03
450.39	1882.08
450.59	1806.31
450.79	1748.97
451.00	1728.49
451.20	1822.69
451.41	1769.44
451.61	1695.72
451.81	1738.73
452.02	1738.73
452.22	1732.58
452.43	1722.34
452.63	1689.57
452.84	1681.38
453.04	1691.62
453.24	1730.53
453.45	1738.73
453.65	1689.57
453.86	1732.58
454.06	1742.82
454.26	1708.01
454.47	1740.77
454.67	1804.26
454.87	1779.68
455.08	1845.22
455.28	1867.75
455.49	1794.02
455.69	1734.63
455.89	1853.41
456.10	1796.07
456.30	1636.33
456.51	1818.60
456.71	1742.82
456.91	1804.26
457.12	1742.82
457.32	1800.16
457.52	1689.57
457.73	1730.53
457.93	1728.49
458.14	1697.77
458.34	1669.09
458.54	1757.16
458.75	1818.60
458.95	1851.36
459.15	1796.07
459.36	1800.16
459.56	1812.45
459.76	1859.56
459.97	1689.57
460.17	1789.92
460.37	1771.49
460.58	1748.97
460.78	1828.84
460.99	1757.16
461.19	1691.62
461.39	1671.14
461.60	1779.68
461.80	1771.49
462.00	1708.01
462.21	1759.21
462.41	1720.29
462.61	1718.25
462.82	1589.22
463.02	1787.88
463.22	1738.73
463.43	1777.64
463.63	1798.12
463.83	1845.22
464.04	1757.16
464.24	1757.16
464.44	1722.34
464.64	1724.39
464.85	1796.07
465.05	1755.11
465.25	1722.34
465.46	1703.91
465.66	1822.69
465.86	1783.78
466.07	1781.73
466.27	1687.53
466.47	1626.09
466.68	1654.76
466.88	1826.79
467.08	1753.06
467.29	1744.87
467.49	1730.53
467.69	1734.63
467.89	1724.39
468.10	1736.68
468.30	1728.49
468.50	1765.35
468.71	1699.81
468.91	1724.39
469.11	1886.18
469.31	1675.24
469.52	1603.56
469.72	1808.36
469.92	1849.32
470.13	1710.05
470.33	1796.07
470.53	1818.60
470.73	2113.50
470.94	2267.10
471.14	2432.99
471.34	2514.91
471.54	2463.71
471.75	2207.71
471.95	2226.14
472.15	2090.98
472.36	2115.55
472.56	2033.63
472.76	2072.54
472.96	1968.10
473.17	1974.24
473.37	1939.43
473.57	1804.26
473.77	1834.98
473.98	1822.69
474.18	1712.10
474.38	2062.30
474.58	1695.72
474.79	1722.34
474.99	1755.11
475.19	1796.07
475.39	1589.22
475.60	1755.11
475.80	1845.22
476.00	1781.73
476.20	1767.40
476.41	1634.28
476.61	1886.18
476.81	1763.30
477.01	1650.66
477.21	1849.32
477.42	1841.12
477.62	1746.92
477.82	1742.82
478.02	1626.09
478.23	1730.53
478.43	1699.81
478.63	1718.25
478.83	1785.83
479.03	1763.30
479.24	1814.50
479.44	1771.49
479.64	1656.81
479.84	1624.04
480.04	1771.49
480.25	1810.40
480.45	1630.18
480.65	1650.66
480.85	1820.64
481.06	1714.15
481.26	1701.86
481.46	1808.36
481.66	1732.58
481.86	1734.63
482.06	1843.17
482.27	1820.64
482.47	1669.09
482.67	1718.25
482.87	1671.14
483.07	1812.45
483.28	1677.29
483.48	1697.77
483.68	1712.10
483.88	1630.18
484.08	1597.42
484.29	1730.53
484.49	1681.38
484.69	1601.51
484.89	1810.40
485.09	1814.50
485.29	1812.45
485.50	1724.39
485.70	1746.92
485.90	1822.69
486.10	1802.21
486.30	1802.21
486.50	1843.17
486.71	1708.01
486.91	1759.21
487.11	1820.64
487.31	1667.05
487.51	1732.58
487.71	1658.85
487.91	1650.66
488.12	1728.49
488.32	1566.70
488.52	1718.25
488.72	1683.43
488.92	1787.88
489.12	1773.54
489.32	1720.29
489.53	1812.45
489.73	1654.76
489.93	1826.79
490.13	1605.61
490.33	1685.48
490.53	1730.53
490.73	1785.83
490.94	1669.09
491.14	1781.73
491.34	1824.74
491.54	2156.51
491.74	2549.72
491.94	2918.36
492.14	3037.14
492.34	3035.09
492.54	2834.39
492.75	2535.39
492.95	2535.39
493.15	2320.35
493.35	2293.72
493.55	2263.01
493.75	2080.74
493.95	2136.03
494.15	2002.91
494.35	1951.71
494.56	1847.27
494.76	1828.84
494.96	1806.31
495.16	1877.99
495.36	1691.62
495.56	1787.88
495.76	1802.21
495.96	1673.19
496.16	1734.63
496.36	1888.23
496.56	1705.96
496.77	1710.05
496.97	1705.96
497.17	1841.12
497.37	1619.94
497.57	1802.21
497.77	1701.86
497.97	1755.11
498.17	1783.78
498.37	1673.19
498.57	1726.44
498.77	1796.07
498.97	1779.68
499.17	1837.03
499.38	1650.66
499.58	1761.25
499.78	1732.58
499.98	1800.16
500.18	1736.68
500.38	1722.34
500.58	1880.04
500.78	2566.10
500.98	4614.07
501.18	5760.94
501.38	6768.54
501.58	7210.90
501.78	6774.68
501.98	5560.24
502.18	5058.48
502.38	4358.08
502.58	4237.25
502.78	3862.47
502.98	3700.68
503.18	3489.74
503.38	3153.87
503.59	2879.44
503.79	2742.23
503.99	2488.28
504.19	2312.16
504.39	2187.23
504.59	2222.05
504.79	2068.45
504.99	2111.46
505.19	1904.61
505.39	1843.17
505.59	1976.29
505.79	1916.90
505.99	1871.84
506.19	1814.50
506.39	1830.88
506.59	1718.25
506.79	1738.73
506.99	1802.21
507.19	1771.49
507.39	1777.64
507.59	1705.96
507.79	1714.15
507.99	1697.77
508.19	1744.87
508.39	1683.43
508.59	1691.62
508.79	1851.36
508.99	1843.17
509.19	1718.25
509.39	1802.21
509.59	1701.86
509.79	1697.77
509.99	1771.49
510.19	1796.07
510.39	1771.49
510.59	1753.06
510.79	1755.11
510.99	1613.80
511.19	1746.92
511.39	1857.51
511.59	1767.40
511.79	1746.92
511.99	1808.36
512.19	1894.37
512.38	1742.82
512.58	1732.58
512.78	1732.58
512.98	1802.21
513.18	1804.26
513.38	1685.48
513.58	1740.77
513.78	1726.44
513.98	1761.25
514.18	1789.92
514.38	1708.01
514.58	1773.54
514.78	1658.85
514.98	1691.62
515.18	1744.87
515.38	1748.97
515.58	1822.69
515.78	1763.30
515.98	1726.44
516.18	1755.11
516.38	1775.59
516.57	1734.63
516.77	1683.43
516.97	1757.16
517.17	1730.53
517.37	1701.86
517.57	1798.12
517.77	1703.91
517.97	1730.53
518.17	1802.21
518.37	1728.49
518.57	1767.40
518.77	1701.86
518.97	1767.40
519.16	1791.97
519.36	1773.54
519.56	1718.25
519.76	1726.44
519.96	1699.81
520.16	1761.25
520.36	1722.34
520.56	1830.88
520.76	1746.92
520.96	1665.00
521.16	1822.69
521.35	1839.08
521.55	1837.03
521.75	1783.78
521.95	1652.71
522.15	1802.21
522.35	1581.03
522.55	1710.05
522.75	1851.36
522.95	1757.16
523.14	1714.15
523.34	1763.30
523.54	1746.92
523.74	1779.68
523.94	1779.68
524.14	1611.75
524.34	1810.40
524.54	1806.31
524.73	1757.16
524.93	1785.83
525.13	1775.59
525.33	1634.28
525.53	1871.84
525.73	1699.81
525.93	1730.53
526.13	1669.09
526.32	1748.97
526.52	1851.36
526.72	1794.02
526.92	1701.86
527.12	1712.10
527.32	1689.57
527.52	1759.21
527.71	1781.73
527.91	1791.97
528.11	1656.81
528.31	1640.42
528.51	1638.38
528.71	1757.16
528.90	1730.53
529.10	1847.27
529.30	1794.02
529.50	1652.71
529.70	1779.68
529.90	1775.59
530.09	1796.07
530.29	1677.29
530.49	1722.34
530.69	1894.37
530.89	1759.21
531.09	1808.36
531.28	1789.92
531.48	1806.31
531.68	1738.73
531.88	1757.16
532.08	1832.93
532.28	1708.01
532.47	1886.18
532.67	1724.39
532.87	1738.73
533.07	1632.23
533.27	1826.79
533.46	1791.97
533.66	1773.54
533.86	1787.88
534.06	1708.01
534.26	1781.73
534.45	1669.09
534.65	1771.49
534.85	1753.06
535.05	1773.54
535.25	1798.12
535.44	1695.72
535.64	1753.06
535.84	1757.16
536.04	1753.06
536.24	1697.77
536.43	1652.71
536.63	1763.30
536.83	1689.57
537.03	1779.68
537.22	1712.10
537.42	1677.29
537.62	1822.69
537.82	1683.43
538.02	1810.40
538.21	1796.07
538.41	1964.00
538.61	1783.78
538.81	1796.07
539.00	1828.84
539.20	1728.49
539.40	1748.97
539.60	1814.50
539.79	1744.87
539.99	1691.62
540.19	1746.92
540.39	1759.21
540.58	1767.40
540.78	1785.83
540.98	1755.11
541.18	1722.34
541.37	1839.08
541.57	1753.06
541.77	1791.97
541.97	1708.01
542.16	1626.09
542.36	1767.40
542.56	1865.70
542.76	1820.64
542.95	1816.55
543.15	1779.68
543.35	1779.68
543.54	1794.02
543.74	1742.82
543.94	1841.12
544.14	1769.44
544.33	1714.15
544.53	1718.25
544.73	1730.53
544.93	1746.92
545.12	1742.82
545.32	1751.01
545.52	1726.44
545.71	1691.62
545.91	1691.62
546.11	1714.15
546.30	1697.77
546.50	1724.39
546.70	1748.97
546.90	1771.49
547.09	1644.52
547.29	1746.92
547.49	1800.16
547.68	1718.25
547.88	1771.49
548.08	1773.54
548.27	2224.09
548.47	1753.06
548.67	1705.96
548.87	1822.69
549.06	1757.16
549.26	1789.92
549.46	1794.02
549.65	1697.77
549.85	1787.88
550.05	1703.91
550.24	1656.81
550.44	1804.26
550.64	1740.77
550.83	1820.64
551.03	1798.12
551.23	1732.58
551.42	1820.64
551.62	1681.38
551.82	1873.89
552.01	1732.58
552.21	1816.55
552.41	1697.77
552.60	1800.16
552.80	1728.49
553.00	1669.09
553.19	1771.49
553.39	1849.32
553.59	1636.33
553.78	1779.68
553.98	1705.96
554.17	1691.62
554.37	1789.92
554.57	1708.01
554.76	1658.85
554.96	1679.33
555.16	1773.54
555.35	1753.06
555.55	1798.12
555.75	1800.16
555.94	1804.26
556.14	1671.14
556.33	1753.06
556.53	1779.68
556.73	1720.29
556.92	1763.30
557.12	1882.08
557.32	1865.70
557.51	1834.98
557.71	1779.68
557.90	1853.41
558.10	1812.45
558.30	1767.40
558.49	1695.72
558.69	1740.77
558.88	1712.10
559.08	1779.68
559.28	1755.11
559.47	1728.49
559.67	1703.91
559.86	1906.66
560.06	1710.05
560.26	1724.39
560.45	1798.12
560.65	1718.25
560.84	1753.06
561.04	1761.25
561.24	1826.79
561.43	1656.81
561.63	1812.45
561.82	1732.58
562.02	1722.34
562.22	1716.20
562.41	1621.99
562.61	1800.16
562.80	1742.82
563.00	1847.27
563.19	1791.97
563.39	1785.83
563.59	1753.06
563.78	1693.67
563.98	1679.33
564.17	1726.44
564.37	1626.09
564.56	1808.36
564.76	1654.76
564.96	1787.88
565.15	1740.77
565.35	1894.37
565.54	1759.21
565.74	1753.06
565.93	1839.08
566.13	1691.62
566.32	1787.88
566.52	1730.53
566.71	1746.92
566.91	1855.46
567.11	1744.87
567.30	1691.62
567.50	1849.32
567.69	1759.21
567.89	1751.01
568.08	1730.53
568.28	1794.02
568.47	1738.73
568.67	1787.88
568.86	1695.72
569.06	1804.26
569.25	1681.38
569.45	1687.53
569.64	1751.01
569.84	1703.91
570.04	1791.97
570.23	1730.53
570.43	1779.68
570.62	1716.20
570.82	1808.36
571.01	1751.01
571.21	1724.39
571.40	1824.74
571.60	1773.54
571.79	1785.83
571.99	1794.02
572.18	1714.15
572.38	1781.73
572.57	1695.72
572.77	1839.08
572.96	1896.42
573.16	1798.12
573.35	1738.73
573.55	1855.46
573.74	1845.22
573.94	1699.81
574.13	1710.05
574.33	1808.36
574.52	1791.97
574.71	1724.39
574.91	1763.30
575.10	1673.19
575.30	1714.15
575.49	1742.82
575.69	1691.62
575.88	1714.15
576.08	1781.73
576.27	1796.07
576.47	1746.92
576.66	1841.12
576.86	1791.97
577.05	1712.10
577.25	1830.88
577.44	1910.75
577.64	1777.64
577.83	1798.12
578.02	1781.73
578.22	1867.75
578.41	1851.36
578.61	1832.93
578.80	1742.82
579.00	1822.69
579.19	1744.87
579.39	1849.32
579.58	1855.46
579.77	1828.84
579.97	1884.13
580.16	1828.84
580.36	1820.64
580.55	1849.32
580.75	1748.97
580.94	1808.36
581.13	1867.75
581.33	1814.50
581.52	1732.58
581.72	1820.64
581.91	1843.17
582.11	1673.19
582.30	1845.22
582.49	1751.01
582.69	1861.60
582.88	1777.64
583.08	1822.69
583.27	1800.16
583.47	1712.10
583.66	1736.68
583.85	1689.57
584.05	1736.68
584.24	1775.59
584.44	1837.03
584.63	1748.97
584.82	1773.54
585.02	1826.79
585.21	1865.70
585.41	1796.07
585.60	1798.12
585.79	1904.61
585.99	1933.28
586.18	1906.66
586.37	2277.34
586.57	3499.98
586.76	10078.05
586.96	24581.77
587.15	34573.81
587.34	40265.11
587.54	42110.33
587.73	36552.15
587.93	26146.42
588.12	21573.30
588.31	18155.24
588.51	16123.66
588.70	15124.25
588.89	14010.15
589.09	12511.04
589.28	11024.22
589.47	9381.74
589.67	7968.65
589.86	6346.66
590.06	4964.28
590.25	3844.04
590.44	3028.95
590.64	2572.25
590.83	2187.23
591.02	2062.30
591.22	1896.42
591.41	1787.88
591.60	1845.22
591.80	2000.87
591.99	1769.44
592.18	1705.96
592.38	1837.03
592.57	1896.42
592.76	1773.54
592.96	1826.79
593.15	1796.07
593.34	1830.88
593.54	1746.92
593.73	1710.05
593.92	1781.73
594.12	1753.06
594.31	1785.83
594.50	1837.03
594.70	1714.15
594.89	1849.32
595.08	1753.06
595.28	1800.16
595.47	1884.13
595.66	1867.75
595.86	1695.72
596.05	1724.39
596.24	1738.73
596.43	1853.41
596.63	1865.70
596.82	1816.55
597.01	1708.01
597.21	1804.26
597.40	1826.79
597.59	1798.12
597.79	1718.25
597.98	1810.40
598.17	1812.45
598.36	1710.05
598.56	1847.27
598.75	1720.29
598.94	1757.16
599.14	1759.21
599.33	1718.25
599.52	1769.44
599.71	1777.64
599.91	1822.69
600.10	1740.77
600.29	1763.30
600.48	1802.21
600.68	1806.31
600.87	1742.82
601.06	1763.30
601.26	1730.53
601.45	1816.55
601.64	1751.01
601.83	1843.17
602.03	1710.05
602.22	1693.67
602.41	1791.97
602.60	1939.43
602.80	1789.92
602.99	1837.03
603.18	1718.25
603.37	1791.97
603.57	1822.69
603.76	1869.80
603.95	1794.02
604.14	1693.67
604.34	1701.86
604.53	1730.53
604.72	1755.11
604.91	1722.34
605.10	1734.63
605.30	1665.00
605.49	1820.64
605.68	1771.49
605.87	1759.21
606.07	1751.01
606.26	1775.59
606.45	1742.82
606.64	1794.02
606.84	1746.92
607.03	1726.44
607.22	1722.34
607.41	1701.86
607.60	1634.28
607.80	1773.54
607.99	1687.53
608.18	1757.16
608.37	1775.59
608.56	1677.29
608.76	1802.21
608.95	1822.69
609.14	1748.97
609.33	1726.44
609.52	1834.98
609.72	1718.25
609.91	1775.59
610.10	1759.21
610.29	1816.55
610.48	1767.40
610.68	1732.58
610.87	1712.10
611.06	1779.68
611.25	1730.53
611.44	1783.78
611.63	1701.86
611.83	1812.45
612.02	1687.53
612.21	1783.78
612.40	1624.04
612.59	1708.01
612.79	1718.25
612.98	1714.15
613.17	1806.31
613.36	1712.10
613.55	1847.27
613.74	1669.09
613.93	1667.05
614.13	1806.31
614.32	1732.58
614.51	1775.59
614.70	1679.33
614.89	1724.39
615.08	1722.34
615.28	2082.78
615.47	1708.01
615.66	1775.59
615.85	1804.26
616.04	1845.22
616.23	1685.48
616.42	1708.01
616.62	1771.49
616.81	1701.86
617.00	1800.16
617.19	1769.44
617.38	1673.19
617.57	1730.53
617.76	1820.64
617.95	1796.07
618.15	1718.25
618.34	1783.78
618.53	1697.77
618.72	1847.27
618.91	1806.31
619.10	1847.27
619.29	1689.57
619.48	1771.49
619.68	1734.63
619.87	1695.72
620.06	1656.81
620.25	1718.25
620.44	1763.30
620.63	1714.15
620.82	1763.30
621.01	1769.44
621.20	1730.53
621.39	1769.44
621.59	1759.21
621.78	1689.57
621.97	1767.40
622.16	1865.70
622.35	1759.21
622.54	1730.53
622.73	1779.68
622.92	1628.14
623.11	1802.21
623.30	1777.64
623.49	1783.78
623.68	1701.86
623.88	1738.73
624.07	1759.21
624.26	1699.81
624.45	1708.01
624.64	1679.33
624.83	1718.25
625.02	1734.63
625.21	1703.91
625.40	1828.84
625.59	1816.55
625.78	1746.92
625.97	1759.21
626.16	1808.36
626.35	1789.92
626.54	1710.05
626.74	1849.32
626.93	1787.88
627.12	1593.32
627.31	1771.49
627.50	1718.25
627.69	1781.73
627.88	1685.48
628.07	1673.19
628.26	1667.05
628.45	1708.01
628.64	1605.61
628.83	1779.68
629.02	1671.14
629.21	1773.54
629.40	1742.82
629.59	1728.49
629.78	1787.88
629.97	1724.39
630.16	1677.29
630.35	1757.16
630.54	1738.73
630.73	1710.05
630.92	1665.00
631.11	1691.62
631.30	1818.60
631.49	1683.43
631.68	1728.49
631.87	1730.53
632.06	1691.62
632.25	1884.13
632.44	1744.87
632.63	1808.36
632.82	1718.25
633.01	1621.99
633.20	1710.05
633.39	1621.99
633.58	1714.15
633.77	1665.00
633.96	1691.62
634.15	1834.98
634.34	1814.50
634.53	1740.77
634.72	1701.86
634.91	1697.77
635.10	1738.73
635.29	1732.58
635.48	1804.26
635.67	1744.87
635.86	1669.09
636.05	1779.68
636.24	1703.91
636.43	1751.01
636.62	1740.77
636.81	1660.90
637.00	1783.78
637.19	1771.49
637.38	1765.35
637.57	1691.62
637.76	1703.91
637.95	1773.54
638.14	1710.05
638.33	1742.82
638.52	1681.38
638.71	1665.00
638.89	1638.38
639.08	1880.04
639.27	1765.35
639.46	1691.62
639.65	1732.58
639.84	1718.25
640.03	1820.64
640.22	1734.63
640.41	1779.68
640.60	1654.76
640.79	1697.77
640.98	1761.25
641.17	1796.07
641.36	1732.58
641.55	1779.68
641.74	1650.66
641.92	1728.49
642.11	1728.49
642.30	1699.81
642.49	1679.33
642.68	1703.91
642.87	1720.29
643.06	1826.79
643.25	1720.29
643.44	1744.87
643.63	1683.43
643.82	1746.92
644.00	1662.95
644.19	1722.34
644.38	1646.57
644.57	1789.92
644.76	1710.05
644.95	1781.73
645.14	1697.77
645.33	1712.10
645.52	1771.49
645.71	1619.94
645.89	1726.44
646.08	1755.11
646.27	1671.14
646.46	1757.16
646.65	1605.61
646.84	1720.29
647.03	1710.05
647.22	1832.93
647.40	1761.25
647.59	1712.10
647.78	1695.72
647.97	1705.96
648.16	1751.01
648.35	1787.88
648.54	1765.35
648.73	1755.11
648.91	1767.40
649.10	1769.44
649.29	1714.15
649.48	1695.72
649.67	1718.25
649.86	1673.19
650.05	1673.19
650.23	1767.40
650.42	1689.57
650.61	1777.64
650.80	1771.49
650.99	1845.22
651.18	1738.73
651.36	1783.78
651.55	1621.99
651.74	1753.06
651.93	1726.44
652.12	1720.29
652.31	1763.30
652.49	1697.77
652.68	1724.39
652.87	1773.54
653.06	1687.53
653.25	1814.50
653.44	1718.25
653.62	1826.79
653.81	1722.34
654.00	1718.25
654.19	1798.12
654.38	1869.80
654.56	1810.40
654.75	1624.04
654.94	1755.11
655.13	1746.92
655.32	1669.09
655.51	1757.16
655.69	1701.86
655.88	1771.49
656.07	1654.76
656.26	1826.79
656.45	1642.47
656.63	1757.16
656.82	1783.78
657.01	1834.98
657.20	1742.82
657.38	1818.60
657.57	1701.86
657.76	1652.71
657.95	1789.92
658.14	1640.42
658.32	1738.73
658.51	1652.71
658.70	1787.88
658.89	1710.05
659.08	1781.73
659.26	1775.59
659.45	1732.58
659.64	1740.77
659.83	1703.91
660.01	1834.98
660.20	1736.68
660.39	1902.56
660.58	1619.94
660.76	1751.01
660.95	1714.15
661.14	1777.64
661.33	1718.25
661.51	1718.25
661.70	1662.95
661.89	1767.40
662.08	1742.82
662.26	1673.19
662.45	1685.48
662.64	1785.83
662.83	1712.10
663.01	1605.61
663.20	1681.38
663.39	1822.69
663.58	1595.37
663.76	1718.25
663.95	1810.40
664.14	1687.53
664.32	1744.87
664.51	1742.82
664.70	1701.86
664.89	1755.11
665.07	1673.19
665.26	1884.13
665.45	1628.14
665.64	1753.06
665.82	1775.59
666.01	1771.49
666.20	1695.72
666.38	1828.84
666.57	1787.88
666.76	2230.24
666.95	4468.67
667.13	10356.58
667.32	15499.03
667.51	17891.06
667.69	19046.11
667.88	17608.44
668.07	12367.68
668.25	9604.97
668.44	8286.08
668.63	7344.02
668.81	6856.60
669.00	6199.20
669.19	5627.82
669.38	5050.29
669.56	4399.04
669.75	3960.77
669.94	3516.36
670.12	2922.45
670.31	2498.52
670.50	2297.82
670.68	2078.69
670.87	1937.38
671.06	1873.89
671.24	1783.78
671.43	1828.84
671.62	1753.06
671.80	1699.81
671.99	1759.21
672.18	1771.49
672.36	1865.70
672.55	1765.35
672.74	1689.57
672.92	1724.39
673.11	1767.40
673.29	1794.02
673.48	1826.79
673.67	1652.71
673.85	1834.98
674.04	1697.77
674.23	1701.86
674.41	1826.79
674.60	1583.08
674.79	1638.38
674.97	1732.58
675.16	1744.87
675.34	1697.77
675.53	1763.30
675.72	1812.45
675.90	1773.54
676.09	1705.96
676.28	1701.86
676.46	1681.38
676.65	1769.44
676.83	1679.33
677.02	1716.20
677.21	1720.29
677.39	1712.10
677.58	1640.42
677.77	1658.85
677.95	1662.95
678.14	1652.71
678.32	1693.67
678.51	1757.16
678.70	1794.02
678.88	1724.39
679.07	1722.34
679.25	1716.20
679.44	1730.53
679.63	1638.38
679.81	1716.20
680.00	1771.49
680.18	1718.25
680.37	1861.60
680.55	1740.77
680.74	1658.85
680.93	1679.33
681.11	1798.12
681.30	1740.77
681.48	1724.39
681.67	1701.86
681.85	1724.39
682.04	1714.15
682.23	1796.07
682.41	1624.04
682.60	1665.00
682.78	1773.54
682.97	1609.70
683.15	1753.06
683.34	1726.44
683.53	1730.53
683.71	1632.23
683.90	1841.12
684.08	1824.74
684.27	1683.43
684.45	1716.20
684.64	1814.50
684.82	1630.18
685.01	1832.93
685.19	1724.39
685.38	1808.36
685.57	1765.35
685.75	1669.09
685.94	1708.01
686.12	1632.23
686.31	1695.72
686.49	1822.69
686.68	1667.05
686.86	1726.44
687.05	1699.81
687.23	1841.12
687.42	1740.77
687.60	1708.01
687.79	1775.59
687.97	1804.26
688.16	1806.31
688.34	1755.11
688.53	1638.38
688.71	1685.48
688.90	1855.46
689.08	1681.38
689.27	1581.03
689.45	1767.40
689.64	1728.49
689.82	1714.15
690.01	1705.96
690.19	1769.44
690.38	1693.67
690.56	1701.86
690.75	1630.18
690.93	1662.95
691.12	1656.81
691.30	1705.96
691.49	1738.73
691.67	1742.82
691.86	1906.66
692.04	1660.90
692.23	1701.86
692.41	1746.92
692.60	1918.95
692.78	1730.53
692.97	1728.49
693.15	1742.82
693.34	1759.21
693.52	1736.68
693.71	1628.14
693.89	1665.00
694.08	1644.52
694.26	1826.79
694.44	1775.59
694.63	1718.25
694.81	1652.71
695.00	1632.23
695.18	1798.12
695.37	1920.99
695.55	1783.78
695.74	1734.63
695.92	1626.09
696.10	1742.82
696.29	1646.57
696.47	1671.14
696.66	1693.67
696.84	1665.00
697.03	1693.67
697.21	1771.49
697.40	2344.92
697.58	1791.97
697.76	1697.77
697.95	1736.68
698.13	1671.14
698.32	1667.05
698.50	1720.29
698.68	1791.97
698.87	1714.15
699.05	1816.55
699.24	1742.82
699.42	1589.22
699.61	1810.40
699.79	1757.16
699.97	1701.86
700.16	1683.43
700.34	1667.05
700.53	1773.54
700.71	1781.73
700.89	1771.49
701.08	1667.05
701.26	1679.33
701.45	2105.31
701.63	1708.01
701.81	1789.92
702.00	1654.76
702.18	1611.75
702.37	1593.32
702.55	1714.15
702.73	1685.48
702.92	1708.01
703.10	1816.55
703.28	1759.21
703.47	1646.57
703.65	1759.21
703.84	1796.07
704.02	1613.80
704.20	1820.64
704.39	1695.72
704.57	1705.96
704.75	1791.97
704.94	1773.54
705.12	1734.63
705.30	1851.36
705.49	2232.29
705.67	4460.48
705.86	9658.22
706.04	12674.88
706.22	14442.28
706.41	15357.72
706.59	13831.98
706.77	9547.63
706.96	7276.43
707.14	6692.76
707.32	5980.07
707.51	5638.06
707.69	4896.69
707.87	4235.20
708.06	3456.97
708.24	2869.20
708.42	2428.89
708.61	2289.63
708.79	1951.71
708.97	1935.33
709.16	1916.90
709.34	1867.75
709.52	1705.96
709.71	1740.77
709.89	1761.25
710.07	1722.34
710.26	1742.82
710.44	1726.44
710.62	1722.34
710.80	1730.53
710.99	1705.96
711.17	1779.68
711.35	1718.25
711.54	1736.68
711.72	1759.21
711.90	1767.40
712.09	1751.01
712.27	1705.96
712.45	1775.59
712.63	1691.62
712.82	1687.53
713.00	1742.82
713.18	1705.96
713.37	1769.44
713.55	1826.79
713.73	1732.58
713.91	1763.30
714.10	1720.29
714.28	1697.77
714.46	1699.81
714.65	1763.30
714.83	1767.40
715.01	1730.53
715.19	1759.21
715.38	1671.14
715.56	1701.86
715.74	1730.53
715.92	1718.25
716.11	1714.15
716.29	1619.94
716.47	1781.73
716.65	1628.14
716.84	1681.38
717.02	1777.64
717.20	1665.00
717.38	1662.95
717.57	1720.29
717.75	1675.24
717.93	1665.00
718.11	1701.86
718.30	1646.57
718.48	1728.49
718.66	1708.01
718.84	1787.88
719.03	1708.01
719.21	1638.38
719.39	1798.12
719.57	1740.77
719.75	1763.30
719.94	1697.77
720.12	1718.25
720.30	1765.35
720.48	1748.97
720.67	1687.53
720.85	1681.38
721.03	1744.87
721.21	1697.77
721.39	1845.22
721.58	1767.40
721.76	1662.95
721.94	1748.97
722.12	1712.10
722.30	1830.88
722.49	1677.29
722.67	1705.96
722.85	1740.77
723.03	1617.90
723.21	1671.14
723.40	1712.10
723.58	1699.81
723.76	1777.64
723.94	1773.54
724.12	1753.06
724.30	1804.26
724.49	1767.40
724.67	1636.33
724.85	1822.69
725.03	1761.25
725.21	1748.97
725.40	1771.49
725.58	1648.61
725.76	1787.88
725.94	1777.64
726.12	1734.63
726.30	1761.25
726.49	1718.25
726.67	1757.16
726.85	1802.21
727.03	1808.36
727.21	2197.47
727.39	2967.51
727.57	3837.89
727.76	4231.10
727.94	4573.11
728.12	4372.41
728.30	3659.72
728.48	2973.65
728.66	2731.99
728.84	2557.91
729.03	2295.77
729.21	2090.98
729.39	1951.71
729.57	1849.32
729.75	1863.65
729.93	1875.94
730.11	1679.33
730.30	1648.61
730.48	1710.05
730.66	1798.12
730.84	1841.12
731.02	1665.00
731.20	1667.05
731.38	1718.25
731.56	1640.42
731.74	1662.95
731.93	1734.63
732.11	1812.45
732.29	1722.34
732.47	1740.77
732.65	1818.60
732.83	1826.79
733.01	1734.63
733.19	1595.37
733.37	1722.34
733.56	1746.92
733.74	1677.29
733.92	1763.30
734.10	1701.86
734.28	1652.71
734.46	1529.83
734.64	1720.29
734.82	1755.11
735.00	1630.18
735.18	1687.53
735.36	1763.30
735.54	1718.25
735.73	1718.25
735.91	1751.01
736.09	1746.92
736.27	1685.48
736.45	1796.07
736.63	1665.00
736.81	1751.01
736.99	1738.73
737.17	1826.79
737.35	1689.57
737.53	1736.68
737.71	1732.58
737.89	1730.53
738.07	1673.19
738.25	1624.04
738.43	1597.42
738.61	1630.18
738.80	1624.04
738.98	1632.23
739.16	1695.72
739.34	1705.96
739.52	1746.92
739.70	1759.21
739.88	1794.02
740.06	1714.15
740.24	1615.85
740.42	1791.97
740.60	1634.28
740.78	1665.00
740.96	1662.95
741.14	1628.14
741.32	1716.20
741.50	1691.62
741.68	1914.85
741.86	1765.35
742.04	1724.39
742.22	1691.62
742.40	1714.15
742.58	1724.39
742.76	1658.85
742.94	1742.82
743.12	1691.62
743.30	1730.53
743.48	1689.57
743.66	1697.77
743.84	1828.84
744.02	1701.86
744.20	1705.96
744.38	1699.81
744.56	1648.61
744.74	1794.02
744.92	1730.53
745.10	1728.49
745.28	1785.83
745.46	1781.73
745.64	1732.58
745.82	1804.26
746.00	1699.81
746.18	1738.73
746.36	1595.37
746.54	1718.25
746.72	1708.01
746.90	1695.72
747.08	1826.79
747.26	1681.38
747.44	1828.84
747.62	1757.16
747.80	1609.70
747.98	1783.78
748.15	1693.67
748.33	1742.82
748.51	1742.82
748.69	1775.59
748.87	1658.85
749.05	1652.71
749.23	1654.76
749.41	1769.44
749.59	1746.92
749.77	1767.40
749.95	1720.29
750.13	1681.38
750.31	1757.16
750.49	1701.86
750.67	1771.49
750.85	1789.92
751.03	1744.87
751.20	1847.27
751.38	1691.62
751.56	1738.73
751.74	1748.97
751.92	1755.11
752.10	1671.14
752.28	1783.78
752.46	1714.15
752.64	1736.68
752.82	1740.77
753.00	1785.83
753.18	1667.05
753.35	1724.39
753.53	1740.77
753.71	1605.61
753.89	1736.68
754.07	1742.82
754.25	1718.25
754.43	1720.29
754.61	1654.76
754.79	1726.44
754.97	1679.33
755.14	1816.55
755.32	1652.71
755.50	1728.49
755.68	1812.45
755.86	1636.33
756.04	1689.57
756.22	1648.61
756.40	1789.92
756.57	1861.60
756.75	1705.96
756.93	1800.16
757.11	1779.68
757.29	1697.77
757.47	1665.00
757.65	1697.77
757.82	1601.51
758.00	1710.05
758.18	1634.28
758.36	1714.15
758.54	1789.92
758.72	1581.03
758.90	1757.16
759.07	1783.78
759.25	1697.77
759.43	1804.26
759.61	1656.81
759.79	2164.70
759.97	1722.34
760.15	1757.16
760.32	1701.86
760.50	1705.96
760.68	1755.11
760.86	1652.71
761.04	1744.87
761.22	1716.20
761.39	1722.34
761.57	1779.68
761.75	1806.31
761.93	1662.95
762.11	1697.77
762.28	1718.25
762.46	1652.71
762.64	1789.92
762.82	1697.77
763.00	1710.05
763.18	1746.92
763.35	1652.71
763.53	1763.30
763.71	1777.64
763.89	1703.91
764.07	1824.74
764.24	1769.44
764.42	1814.50
764.60	1734.63
764.78	1689.57
764.96	1757.16
765.13	1748.97
765.31	1769.44
765.49	1736.68
765.67	1701.86
765.84	1630.18
766.02	1675.24
766.20	1628.14
766.38	1748.97
766.56	1765.35
766.73	1820.64
766.91	1695.72
767.09	1781.73
767.27	1718.25
767.44	1624.04
767.62	1798.12
767.80	1730.53
767.98	1730.53
768.15	1679.33
768.33	1830.88
768.51	1708.01
768.69	1761.25
768.87	1728.49
769.04	1802.21
769.22	1900.52
769.40	1781.73
769.58	1773.54
769.75	1763.30
769.93	1728.49
770.11	1701.86
770.28	1599.46
770.46	1701.86
770.64	1689.57
770.82	1710.05
770.99	1654.76
771.17	1753.06
771.35	1720.29
771.53	1705.96
771.70	1640.42
771.88	1730.53
772.06	1679.33
772.23	1650.66
772.41	1787.88
772.59	1726.44
772.77	1656.81
772.94	1716.20
773.12	1738.73
773.30	1679.33
773.47	1708.01
773.65	1699.81
773.83	1755.11
774.01	1779.68
774.18	1642.47
774.36	1701.86
774.54	1652.71
774.71	1705.96
774.89	1689.57
775.07	1607.66
775.24	1632.23
775.42	1671.14
775.60	1834.98
775.78	1746.92
775.95	1685.48
776.13	1677.29
776.31	1611.75
776.48	1642.47
776.66	1759.21
776.84	1710.05
777.01	1642.47
777.19	1736.68
777.37	1673.19
777.54	1681.38
777.72	1804.26
777.90	1701.86
778.07	1685.48
778.25	1890.28
778.43	1755.11
778.60	1720.29
778.78	1722.34
778.96	1808.36
779.13	1665.00
779.31	1734.63
779.49	1755.11
779.66	1722.34
779.84	1695.72
780.01	1759.21
780.19	1656.81
780.37	1787.88
780.54	1748.97
780.72	1681.38
780.90	1665.00
781.07	1734.63
781.25	1640.42
781.43	1714.15
781.60	1697.77
781.78	1748.97
781.95	1746.92
782.13	1718.25
782.31	1730.53
782.48	1581.03
782.66	1740.77
782.83	1937.38
783.01	1820.64
783.19	1740.77
783.36	1755.11
783.54	1667.05
783.72	1761.25
783.89	1646.57
784.07	1675.24
784.24	1775.59
784.42	1798.12
784.60	1730.53
784.77	1714.15
784.95	1562.60
785.12	1636.33
785.30	1734.63
785.47	1675.24
785.65	1685.48
785.83	1740.77
786.00	1718.25
786.18	1724.39
786.35	1714.15
786.53	1693.67
786.71	1820.64
786.88	1748.97
787.06	1687.53
787.23	1730.53
787.41	1613.80
787.58	1701.86
787.76	1716.20
787.94	1705.96
788.11	1732.58
788.29	1722.34
788.46	1732.58
788.64	1617.90
788.81	1685.48
788.99	1669.09
789.16	1632.23
789.34	1724.39
789.52	1730.53
789.69	1710.05
789.87	1593.32
790.04	1697.77
790.22	1697.77
790.39	1843.17
790.57	1591.27
790.74	1650.66
790.92	1695.72
791.09	1732.58
791.27	1720.29
791.44	1798.12
791.62	1636.33
791.79	1771.49
791.97	1708.01
792.15	1861.60
792.32	1785.83
792.50	1720.29
792.67	1806.31
792.85	1837.03
793.02	1759.21
793.20	1636.33
793.37	1650.66
793.55	1718.25
793.72	1572.84
793.90	1796.07
794.07	1689.57
794.25	1669.09
794.42	1716.20
794.60	1695.72
794.77	1761.25
794.95	1765.35
795.12	1773.54
795.30	1771.49
795.47	1654.76
795.65	1837.03
795.82	1777.64
796.00	1675.24
796.17	1751.01
796.34	1736.68
796.52	1787.88
796.69	1832.93
796.87	1845.22
797.04	1755.11
797.22	1744.87
797.39	1718.25
797.57	1685.48
797.74	1728.49
797.92	1660.90
798.09	1656.81
798.27	1738.73
798.44	1730.53
798.62	1632.23
798.79	1724.39
798.96	1744.87
799.14	1609.70
799.31	1857.51
799.49	1656.81
799.66	1703.91
799.84	1777.64
800.01	1626.09
800.19	1738.73
800.36	1617.90
800.53	1669.09
800.71	1677.29
800.88	1869.80
801.06	1687.53
801.23	1626.09
801.41	1679.33
801.58	1656.81
801.75	1638.38
801.93	1681.38
802.10	1748.97
802.28	1689.57
802.45	1648.61
802.63	1687.53
802.80	1808.36
802.97	1703.91
803.15	1681.38
803.32	1765.35
803.50	1667.05
803.67	1681.38
803.84	1574.89
804.02	1718.25
804.19	1705.96
804.37	1595.37
804.54	1621.99
804.71	1648.61
804.89	1695.72
805.06	1638.38
805.24	1624.04
805.41	1648.61
805.58	1656.81
805.76	1857.51
805.93	1720.29
806.10	1751.01
806.28	1771.49
806.45	1718.25
806.63	1759.21
806.80	1677.29
806.97	1753.06
807.15	1744.87
807.32	1658.85
807.49	1687.53
807.67	1665.00
807.84	1789.92
808.01	1624.04
808.19	1855.46
808.36	1818.60
808.54	1687.53
808.71	1642.47
808.88	1658.85
809.06	1677.29
809.23	1785.83
809.40	1681.38
809.58	1755.11
809.75	1671.14
809.92	1652.71
810.10	1806.31
810.27	1746.92
810.44	1759.21
810.62	1751.01
810.79	1789.92
810.96	1716.20
811.14	1689.57
811.31	1763.30
811.48	1769.44
811.66	1714.15
811.83	1796.07
812.00	1730.53
812.18	1783.78
812.35	1791.97
812.52	1646.57
812.69	1683.43
812.87	1734.63
813.04	1720.29
813.21	1710.05
813.39	1687.53
813.56	1656.81
813.73	1787.88
813.91	1621.99
814.08	1742.82
814.25	1708.01
814.42	1646.57
814.60	1734.63
814.77	1722.34
814.94	1796.07
815.12	1757.16
815.29	1781.73
815.46	1691.62
815.63	1691.62
815.81	1785.83
815.98	1665.00
816.15	1646.57
816.33	1726.44
816.50	1677.29
816.67	1726.44
816.84	1738.73
817.02	1529.83
817.19	1718.25
817.36	1718.25
817.53	1755.11
817.71	1683.43
817.88	1720.29
818.05	1677.29
818.22	1675.24
818.40	1734.63
818.57	1667.05
818.74	1748.97
818.91	1665.00
819.09	1808.36
819.26	1785.83
819.43	1689.57
819.60	1708.01
819.78	1744.87
819.95	1718.25
820.12	1726.44
820.29	1757.16
820.47	1753.06
820.64	1779.68
820.81	1597.42
820.98	1681.38
821.15	1675.24
821.33	1757.16
821.50	1640.42
821.67	1771.49
821.84	1701.86
822.02	1763.30
822.19	1757.16
822.36	1826.79
822.53	1720.29
822.70	1724.39
822.88	1609.70
823.05	1777.64
823.22	1718.25
823.39	1691.62
823.56	1734.63
823.74	1771.49
823.91	1642.47
824.08	1691.62
824.25	1683.43
824.42	1804.26
824.60	1656.81
824.77	1705.96
824.94	1636.33
825.11	1789.92
825.28	1726.44
825.45	1710.05
825.63	1699.81
825.80	1683.43
825.97	1730.53
826.14	1611.75
826.31	1574.89
826.48	1738.73
826.66	1665.00
826.83	1695.72
827.00	1722.34
827.17	1708.01
827.34	1728.49
827.51	1703.91
827.69	1660.90
827.86	1675.24
828.03	1656.81
828.20	1675.24
828.37	1652.71
828.54	1722.34
828.71	1677.29
828.89	1791.97
829.06	1703.91
829.23	1806.31
829.40	1646.57
829.57	1691.62
829.74	1734.63
829.91	1697.77
830.09	1658.85
830.26	1740.77
830.43	1824.74
830.60	1675.24
830.77	1708.01
830.94	1794.02
831.11	1779.68
831.28	1611.75
831.46	1775.59
831.63	1677.29
831.80	1783.78
831.97	1634.28
832.14	1705.96
832.31	1736.68
832.48	1769.44
832.65	1755.11
832.82	1771.49
832.99	1757.16
833.17	1626.09
833.34	1755.11
833.51	1785.83
833.68	1605.61
833.85	1828.84
834.02	1697.77
834.19	1626.09
834.36	1654.76
834.53	1638.38
834.70	1781.73
834.87	1734.63
835.04	1808.36
835.22	1691.62
835.39	1699.81
835.56	1615.85
835.73	1736.68
835.90	1826.79
836.07	1730.53
836.24	1757.16
836.41	1658.85
836.58	1654.76
836.75	1828.84
836.92	1697.77
837.09	1697.77
837.26	1734.63
837.43	1697.77
837.60	1748.97
837.77	1714.15
837.94	1724.39
838.12	1744.87
838.29	1722.34
838.46	1644.52
838.63	1660.90
838.80	1830.88
838.97	1736.68
839.14	1710.05
839.31	1730.53
839.48	1705.96
839.65	1718.25
839.82	1746.92
839.99	1740.77
840.16	1740.77
840.33	1699.81
840.50	1763.30
840.67	1679.33
840.84	1595.37
841.01	1720.29
841.18	1660.90
841.35	1628.14
841.52	1697.77
841.69	1808.36
841.86	1763.30
842.03	1615.85
842.20	1785.83
842.37	1722.34
842.54	1738.73
842.71	1720.29
842.88	1677.29
843.05	1744.87
843.22	1732.58
843.39	1726.44
843.56	1718.25
843.73	1685.48
843.90	1716.20
844.07	1679.33
844.24	1746.92
844.41	1695.72
844.58	1812.45
844.75	1726.44
844.92	1677.29
845.09	1710.05
845.26	1632.23
845.43	1824.74
845.60	1677.29
845.77	1730.53
845.94	1767.40
846.10	1812.45
846.27	1632.23
846.44	1662.95
846.61	1628.14
846.78	1673.19
846.95	1806.31
847.12	1617.90
847.29	1705.96
847.46	1638.38
847.63	1748.97
847.80	1628.14
847.97	1632.23
848.14	1867.75
848.31	1673.19
848.48	1652.71
848.65	1658.85
848.82	1650.66
848.98	1875.94
849.15	1687.53
849.32	1804.26
849.49	1800.16
849.66	1658.85
849.83	1679.33
850.00	1683.43
850.17	1746.92
850.34	1798.12
850.51	1697.77
850.68	1722.34
850.85	1832.93
851.01	1718.25
851.18	1785.83
851.35	1671.14
851.52	1728.49
851.69	1734.63
851.86	1609.70
852.03	1703.91
852.20	1765.35
852.37	1724.39
852.53	1648.61
852.70	1660.90
852.87	1746.92
853.04	1740.77
853.21	1665.00
853.38	1755.11
853.55	1781.73
853.72	1730.53
853.89	1626.09
854.05	1581.03
854.22	1671.14
854.39	1640.42
854.56	1834.98
854.73	1755.11
854.90	1722.34
855.07	1734.63
855.23	1726.44
855.40	1642.47
855.57	1677.29
855.74	1650.66
855.91	1777.64
856.08	1599.46
856.25	1671.14
856.41	1687.53
856.58	1652.71
856.75	1665.00
856.92	1677.29
857.09	1787.88
857.26	1601.51
857.42	1703.91
857.59	1683.43
857.76	1679.33
857.93	1751.01
858.10	1732.58
858.27	1656.81
858.43	1806.31
858.60	1691.62
858.77	1626.09
858.94	1691.62
859.11	1779.68
859.27	1710.05
859.44	1783.78
859.61	1832.93
859.78	1812.45
859.95	1693.67
860.12	1722.34
860.28	1849.32
860.45	1773.54
860.62	1642.47
860.79	1724.39
860.95	1697.77
861.12	1658.85
861.29	1646.57
861.46	1689.57
861.63	1720.29
861.79	1683.43
861.96	1703.91
862.13	1636.33
862.30	1839.08
862.47	1656.81
862.63	1714.15
862.80	1753.06
862.97	1773.54
863.14	1785.83
863.30	1742.82
863.47	1720.29
863.64	1796.07
863.81	1716.20
863.97	1701.86
864.14	1689.57
864.31	1650.66
864.48	1738.73
864.65	1714.15
864.81	1738.73
864.98	1738.73
865.15	1787.88
865.32	1728.49
865.48	1775.59
865.65	1769.44
865.82	1656.81
865.98	1691.62
866.15	1740.77
866.32	1714.15
866.49	1705.96
866.65	1763.30
866.82	1617.90
866.99	1642.47
867.16	1746.92
867.32	1734.63
867.49	1658.85
867.66	1728.49
867.83	1660.90
867.99	1648.61
868.16	1636.33
868.33	1687.53
868.49	1677.29
868.66	1685.48
868.83	1761.25
868.99	1695.72
869.16	1720.29
869.33	1736.68
869.50	1718.25
869.66	1705.96
869.83	1685.48
870.00	1699.81
870.16	1730.53
870.33	1687.53
870.50	1767.40
870.66	1722.34
870.83	1730.53
871.00	1771.49
871.17	1703.91
871.33	1751.01
871.50	1648.61
871.67	1693.67
871.83	1652.71
872.00	1818.60
872.17	1665.00
872.33	1730.53
872.50	1787.88
872.67	1677.29
872.83	1628.14
873.00	1710.05
873.17	1775.59
873.33	1722.34
873.50	1656.81
873.67	1736.68
873.83	1732.58
874.00	1744.87
874.16	1769.44
874.33	1683.43
874.50	1607.66
874.66	1753.06
874.83	1744.87
875.00	1736.68
875.16	1738.73
875.33	1781.73
875.50	1626.09
875.66	1699.81
875.83	1796.07
875.99	1677.29
876.16	1658.85
876.33	1671.14
876.49	1708.01
876.66	1703.91
876.83	1730.53
876.99	1701.86
877.16	1734.63
877.32	1697.77
877.49	1722.34
877.66	1771.49
877.82	1875.94
877.99	1710.05
878.15	1744.87
878.32	1769.44
878.49	1755.11
878.65	1716.20
878.82	1751.01
878.98	1619.94
879.15	1800.16
879.32	1705.96
879.48	1722.34
879.65	1748.97
879.81	1708.01
879.98	1720.29
880.15	1755.11
880.31	1765.35
880.48	1732.58
880.64	1767.40
880.81	1685.48
880.97	1818.60
881.14	1800.16
881.31	1687.53
881.47	1847.27
881.64	1728.49
881.80	1611.75
881.97	1798.12
882.13	1767.40
882.30	1658.85
882.47	1656.81
882.63	1681.38
882.80	1607.66
882.96	1712.10
883.13	1800.16
883.29	1763.30
883.46	1689.57
883.62	1900.52
883.79	1701.86
883.95	1800.16
884.12	1677.29
884.29	1763.30
884.45	1771.49
884.62	1738.73
884.78	1609.70
884.95	1779.68
885.11	1691.62
885.28	1734.63
885.44	1660.90
885.61	1722.34
885.77	1761.25
885.94	1771.49
886.10	1767.40
886.27	1701.86
886.43	1767.40
886.60	1755.11
886.76	1724.39
886.93	1705.96
887.09	1765.35
887.26	1626.09
887.42	1691.62
887.59	1771.49
887.75	1773.54
887.92	1773.54
888.08	1779.68
888.25	1798.12
888.41	1648.61
888.58	1734.63
888.74	1593.32
888.91	1646.57
>>>>>End Processed Spectral Data<<<<<
