SpectraSuite Data File
++++++++++++++++++++++++++++++++++++
Date: Mon Jun 06 17:20:17 CEST 2016
User: root
Dark Spectrum Present: No
Reference Spectrum Present: No
Number of Sampled Component Spectra: 1
Spectrometers: USB4C02835
Integration Time (usec): 100000 (USB4C02835)
Spectra Averaged: 1 (USB4C02835)
Boxcar Smoothing: 0 (USB4C02835)
Correct for Electrical Dark: No (USB4C02835)
Strobe/Lamp Enabled: No (USB4C02835)
Correct for Detector Non-linearity: No (USB4C02835)
Correct for Stray Light: No (USB4C02835)
Number of Pixels in Processed Spectrum: 3648
>>>>>Begin Processed Spectral Data<<<<<
177.47	1533.93
177.69	1533.93
177.91	1533.93
178.13	1458.15
178.36	1341.42
178.58	1689.57
178.80	1748.97
179.02	1660.90
179.24	1624.04
179.46	1732.58
179.68	1746.92
179.90	1638.38
180.13	1755.11
180.35	1624.04
180.57	1693.67
180.79	1755.11
181.01	1767.40
181.23	1730.53
181.45	1703.91
181.67	1785.83
181.90	1767.40
182.12	1669.09
182.34	1650.66
182.56	1785.83
182.78	1714.15
183.00	1724.39
183.22	1675.24
183.44	1640.42
183.66	1851.36
183.89	1806.31
184.11	1726.44
184.33	1746.92
184.55	1751.01
184.77	1779.68
184.99	1781.73
185.21	1710.05
185.43	1849.32
185.65	1705.96
185.87	1689.57
186.10	1869.80
186.32	1877.99
186.54	1779.68
186.76	1691.62
186.98	1734.63
187.20	1724.39
187.42	1720.29
187.64	1671.14
187.86	1726.44
188.08	1730.53
188.30	1687.53
188.52	1652.71
188.75	1810.40
188.97	1779.68
189.19	1665.00
189.41	1726.44
189.63	1691.62
189.85	1669.09
190.07	1609.70
190.29	1687.53
190.51	1730.53
190.73	1650.66
190.95	1820.64
191.17	1658.85
191.39	1722.34
191.61	1677.29
191.84	1699.81
192.06	1714.15
192.28	1638.38
192.50	1945.57
192.72	1689.57
192.94	1695.72
193.16	1800.16
193.38	1722.34
193.60	1656.81
193.82	1656.81
194.04	1769.44
194.26	1673.19
194.48	1712.10
194.70	1677.29
194.92	1658.85
195.14	1816.55
195.36	1691.62
195.58	1669.09
195.80	1794.02
196.02	1640.42
196.24	1703.91
196.46	1794.02
196.69	1742.82
196.91	1839.08
197.13	1697.77
197.35	1697.77
197.57	1734.63
197.79	1691.62
198.01	1724.39
198.23	1761.25
198.45	1724.39
198.67	1601.51
198.89	1716.20
199.11	1748.97
199.33	1693.67
199.55	1632.23
199.77	1675.24
199.99	1757.16
200.21	1611.75
200.43	1714.15
200.65	1689.57
200.87	1576.94
201.09	1656.81
201.31	1744.87
201.53	1656.81
201.75	1708.01
201.97	1755.11
202.19	1675.24
202.41	1665.00
202.63	1853.41
202.85	1800.16
203.07	1734.63
203.29	1683.43
203.51	1642.47
203.73	1630.18
203.95	1888.23
204.17	1742.82
204.39	1779.68
204.61	1703.91
204.83	1679.33
205.05	1751.01
205.27	1757.16
205.49	1875.94
205.71	1656.81
205.93	1681.38
206.15	1669.09
206.37	1685.48
206.59	1724.39
206.81	1699.81
207.03	1640.42
207.25	1630.18
207.47	1685.48
207.69	1716.20
207.91	1781.73
208.13	1808.36
208.34	1732.58
208.56	1662.95
208.78	1751.01
209.00	1628.14
209.22	1691.62
209.44	1724.39
209.66	1683.43
209.88	1716.20
210.10	1685.48
210.32	1718.25
210.54	1800.16
210.76	1695.72
210.98	1781.73
211.20	1638.38
211.42	1755.11
211.64	1757.16
211.86	1757.16
212.08	1740.77
212.30	1767.40
212.52	1701.86
212.74	1740.77
212.96	1726.44
213.17	1755.11
213.39	1740.77
213.61	1650.66
213.83	1812.45
214.05	1650.66
214.27	1726.44
214.49	1699.81
214.71	1742.82
214.93	1802.21
215.15	1789.92
215.37	1751.01
215.59	1607.66
215.81	1785.83
216.03	1763.30
216.24	1746.92
216.46	1744.87
216.68	1728.49
216.90	1697.77
217.12	1730.53
217.34	1691.62
217.56	1771.49
217.78	1771.49
218.00	1708.01
218.22	1736.68
218.44	1824.74
218.66	1695.72
218.87	1787.88
219.09	1654.76
219.31	1665.00
219.53	1695.72
219.75	1781.73
219.97	1763.30
220.19	1716.20
220.41	1685.48
220.63	1718.25
220.85	1751.01
221.06	1634.28
221.28	1832.93
221.50	1755.11
221.72	1746.92
221.94	1660.90
222.16	1671.14
222.38	1775.59
222.60	1769.44
222.82	1646.57
223.03	1732.58
223.25	1632.23
223.47	1744.87
223.69	1830.88
223.91	1679.33
224.13	1738.73
224.35	1654.76
224.57	1785.83
224.78	1710.05
225.00	1660.90
225.22	1558.50
225.44	1744.87
225.66	1714.15
225.88	1681.38
226.10	1742.82
226.32	1667.05
226.53	1853.41
226.75	1673.19
226.97	1718.25
227.19	1660.90
227.41	1667.05
227.63	1660.90
227.85	1589.22
228.06	1693.67
228.28	1820.64
228.50	1765.35
228.72	1669.09
228.94	1712.10
229.16	1628.14
229.37	1615.85
229.59	1648.61
229.81	1732.58
230.03	1691.62
230.25	1644.52
230.47	1679.33
230.69	1572.84
230.90	1851.36
231.12	1685.48
231.34	1753.06
231.56	1767.40
231.78	1665.00
232.00	1708.01
232.21	1667.05
232.43	1693.67
232.65	1634.28
232.87	1751.01
233.09	1675.24
233.30	1673.19
233.52	1689.57
233.74	1726.44
233.96	1714.15
234.18	1714.15
234.40	1683.43
234.61	1789.92
234.83	1667.05
235.05	1646.57
235.27	1824.74
235.49	1681.38
235.70	1748.97
235.92	1767.40
236.14	1722.34
236.36	1755.11
236.58	1621.99
236.79	1779.68
237.01	1695.72
237.23	1759.21
237.45	1777.64
237.67	1679.33
237.88	1744.87
238.10	1853.41
238.32	1638.38
238.54	1689.57
238.76	1751.01
238.97	1677.29
239.19	1673.19
239.41	1703.91
239.63	1832.93
239.85	1697.77
240.06	1710.05
240.28	1679.33
240.50	1796.07
240.72	1697.77
240.93	1638.38
241.15	1820.64
241.37	1734.63
241.59	1765.35
241.81	1611.75
242.02	1738.73
242.24	1826.79
242.46	1697.77
242.68	1730.53
242.89	1771.49
243.11	1761.25
243.33	1742.82
243.55	1652.71
243.76	1751.01
243.98	1677.29
244.20	1662.95
244.42	1699.81
244.64	1689.57
244.85	1578.98
245.07	1609.70
245.29	1765.35
245.51	1673.19
245.72	1736.68
245.94	1843.17
246.16	1665.00
246.38	1757.16
246.59	1701.86
246.81	1603.56
247.03	1738.73
247.24	1585.13
247.46	1775.59
247.68	1671.14
247.90	1685.48
248.11	1718.25
248.33	1746.92
248.55	1753.06
248.77	1681.38
248.98	1781.73
249.20	1796.07
249.42	1732.58
249.64	1687.53
249.85	1640.42
250.07	1685.48
250.29	1681.38
250.50	1742.82
250.72	1642.47
250.94	1746.92
251.16	1834.98
251.37	1796.07
251.59	1757.16
251.81	1746.92
252.02	1783.78
252.24	1681.38
252.46	1812.45
252.68	1681.38
252.89	1730.53
253.11	1632.23
253.33	1877.99
253.54	1818.60
253.76	1718.25
253.98	1644.52
254.20	1757.16
254.41	1574.89
254.63	1693.67
254.85	1634.28
255.06	1728.49
255.28	1740.77
255.50	1656.81
255.71	1687.53
255.93	1742.82
256.15	1708.01
256.36	1683.43
256.58	1619.94
256.80	1695.72
257.02	1689.57
257.23	1759.21
257.45	1687.53
257.67	1746.92
257.88	1638.38
258.10	1705.96
258.32	1718.25
258.53	1677.29
258.75	1755.11
258.97	1683.43
259.18	1705.96
259.40	1710.05
259.62	1775.59
259.83	1736.68
260.05	1769.44
260.27	1920.99
260.48	1720.29
260.70	1667.05
260.92	1714.15
261.13	1683.43
261.35	1732.58
261.57	1755.11
261.78	1665.00
262.00	1591.27
262.22	1648.61
262.43	1656.81
262.65	1671.14
262.86	1697.77
263.08	1824.74
263.30	1724.39
263.51	1654.76
263.73	1681.38
263.95	1785.83
264.16	1652.71
264.38	1683.43
264.60	1767.40
264.81	1679.33
265.03	1763.30
265.25	1751.01
265.46	1669.09
265.68	1841.12
265.89	1771.49
266.11	1591.27
266.33	1775.59
266.54	1796.07
266.76	1832.93
266.98	1736.68
267.19	1783.78
267.41	1775.59
267.62	1781.73
267.84	1578.98
268.06	1689.57
268.27	1705.96
268.49	1808.36
268.70	1759.21
268.92	1636.33
269.14	1624.04
269.35	1578.98
269.57	1681.38
269.79	1751.01
270.00	1681.38
270.22	1791.97
270.43	1677.29
270.65	1593.32
270.87	1781.73
271.08	1796.07
271.30	1812.45
271.51	1699.81
271.73	1771.49
271.95	1771.49
272.16	1662.95
272.38	1755.11
272.59	1714.15
272.81	1726.44
273.02	1736.68
273.24	1697.77
273.46	1767.40
273.67	1755.11
273.89	1652.71
274.10	1648.61
274.32	1787.88
274.54	1783.78
274.75	1796.07
274.97	1705.96
275.18	1771.49
275.40	1767.40
275.61	1613.80
275.83	1710.05
276.05	1710.05
276.26	1677.29
276.48	1843.17
276.69	1638.38
276.91	1759.21
277.12	1775.59
277.34	1761.25
277.55	1800.16
277.77	1757.16
277.99	1689.57
278.20	1683.43
278.42	1687.53
278.63	1644.52
278.85	1681.38
279.06	1693.67
279.28	1730.53
279.49	1740.77
279.71	1695.72
279.93	1689.57
280.14	1697.77
280.36	1730.53
280.57	1748.97
280.79	1656.81
281.00	1644.52
281.22	1771.49
281.43	1763.30
281.65	1673.19
281.86	1603.56
282.08	1720.29
282.29	1783.78
282.51	1677.29
282.73	1730.53
282.94	1597.42
283.16	1691.62
283.37	1880.04
283.59	1718.25
283.80	1705.96
284.02	1753.06
284.23	1734.63
284.45	1701.86
284.66	1652.71
284.88	1691.62
285.09	1744.87
285.31	1773.54
285.52	1744.87
285.74	1556.46
285.95	1787.88
286.17	1779.68
286.38	1732.58
286.60	1638.38
286.81	1628.14
287.03	1658.85
287.24	1689.57
287.46	1802.21
287.67	1718.25
287.89	1818.60
288.10	1730.53
288.32	1640.42
288.53	1759.21
288.75	1687.53
288.96	1751.01
289.18	1656.81
289.39	1755.11
289.61	1767.40
289.82	1834.98
290.04	1816.55
290.25	1683.43
290.47	1705.96
290.68	1689.57
290.90	1830.88
291.11	1656.81
291.33	1800.16
291.54	1677.29
291.76	1689.57
291.97	1787.88
292.18	1718.25
292.40	1578.98
292.61	1681.38
292.83	1816.55
293.04	1791.97
293.26	1771.49
293.47	1693.67
293.69	1662.95
293.90	1675.24
294.12	1712.10
294.33	1740.77
294.55	1691.62
294.76	1791.97
294.97	1798.12
295.19	1839.08
295.40	1685.48
295.62	1714.15
295.83	1796.07
296.05	1636.33
296.26	1785.83
296.48	1716.20
296.69	1681.38
296.90	1671.14
297.12	1794.02
297.33	1769.44
297.55	1748.97
297.76	1695.72
297.98	1783.78
298.19	1705.96
298.41	1726.44
298.62	1613.80
298.83	1806.31
299.05	1738.73
299.26	1726.44
299.48	1624.04
299.69	1722.34
299.90	1679.33
300.12	1599.46
300.33	1687.53
300.55	1662.95
300.76	1763.30
300.98	1658.85
301.19	1746.92
301.40	1705.96
301.62	1714.15
301.83	1734.63
302.05	1738.73
302.26	1662.95
302.47	1722.34
302.69	1740.77
302.90	1744.87
303.12	1519.59
303.33	1689.57
303.54	1853.41
303.76	1683.43
303.97	1814.50
304.19	1859.56
304.40	1667.05
304.61	1714.15
304.83	1912.80
305.04	1789.92
305.26	1675.24
305.47	1662.95
305.68	1718.25
305.90	1605.61
306.11	1718.25
306.33	1697.77
306.54	1662.95
306.75	1665.00
306.97	1595.37
307.18	1646.57
307.39	1624.04
307.61	1755.11
307.82	1632.23
308.04	1658.85
308.25	1648.61
308.46	1751.01
308.68	1669.09
308.89	1808.36
309.10	1753.06
309.32	1701.86
309.53	1718.25
309.74	1722.34
309.96	1609.70
310.17	1824.74
310.39	1658.85
310.60	1806.31
310.81	1744.87
311.03	1679.33
311.24	1740.77
311.45	1779.68
311.67	1814.50
311.88	1679.33
312.09	1654.76
312.31	1669.09
312.52	1746.92
312.73	1685.48
312.95	1607.66
313.16	1632.23
313.37	1775.59
313.59	1763.30
313.80	1751.01
314.01	1746.92
314.23	1677.29
314.44	1693.67
314.65	1646.57
314.87	1726.44
315.08	1746.92
315.29	1654.76
315.51	1632.23
315.72	1665.00
315.93	1755.11
316.15	1751.01
316.36	1699.81
316.57	1708.01
316.79	1683.43
317.00	1734.63
317.21	1746.92
317.43	1679.33
317.64	1738.73
317.85	1705.96
318.07	1703.91
318.28	1675.24
318.49	1748.97
318.70	1906.66
318.92	1812.45
319.13	1882.08
319.34	1804.26
319.56	1787.88
319.77	1771.49
319.98	1781.73
320.20	1693.67
320.41	1773.54
320.62	1703.91
320.83	1724.39
321.05	1843.17
321.26	1755.11
321.47	1748.97
321.69	1820.64
321.90	1587.18
322.11	1742.82
322.32	1724.39
322.54	1853.41
322.75	1673.19
322.96	1871.84
323.18	1665.00
323.39	1583.08
323.60	1652.71
323.81	1738.73
324.03	1705.96
324.24	1673.19
324.45	1738.73
324.66	1667.05
324.88	1763.30
325.09	1794.02
325.30	1699.81
325.52	1746.92
325.73	1681.38
325.94	1716.20
326.15	1595.37
326.37	1718.25
326.58	1740.77
326.79	1755.11
327.00	1595.37
327.22	1746.92
327.43	1669.09
327.64	1679.33
327.85	1804.26
328.07	1742.82
328.28	1808.36
328.49	1695.72
328.70	1652.71
328.92	1689.57
329.13	1691.62
329.34	1703.91
329.55	1890.28
329.76	1689.57
329.98	1650.66
330.19	1794.02
330.40	1746.92
330.61	1734.63
330.83	1712.10
331.04	1652.71
331.25	1679.33
331.46	1650.66
331.68	1644.52
331.89	1783.78
332.10	1763.30
332.31	1695.72
332.52	1722.34
332.74	1763.30
332.95	1642.47
333.16	1667.05
333.37	1724.39
333.58	1738.73
333.80	1656.81
334.01	1570.79
334.22	1759.21
334.43	1755.11
334.64	1689.57
334.86	1648.61
335.07	1640.42
335.28	1767.40
335.49	1589.22
335.70	1671.14
335.92	1740.77
336.13	1877.99
336.34	1718.25
336.55	1746.92
336.76	1724.39
336.98	1701.86
337.19	1714.15
337.40	1779.68
337.61	1812.45
337.82	1712.10
338.04	1777.64
338.25	1671.14
338.46	1626.09
338.67	1621.99
338.88	1685.48
339.09	1658.85
339.31	1712.10
339.52	1628.14
339.73	1628.14
339.94	1730.53
340.15	1718.25
340.36	1722.34
340.58	1712.10
340.79	1624.04
341.00	1716.20
341.21	1722.34
341.42	1882.08
341.63	1640.42
341.85	1724.39
342.06	1757.16
342.27	1642.47
342.48	1748.97
342.69	1716.20
342.90	1751.01
343.12	1736.68
343.33	1699.81
343.54	1718.25
343.75	1771.49
343.96	1742.82
344.17	1642.47
344.38	1720.29
344.60	1607.66
344.81	1650.66
345.02	1693.67
345.23	1779.68
345.44	1800.16
345.65	1789.92
345.86	1714.15
346.07	1695.72
346.29	1677.29
346.50	1648.61
346.71	1697.77
346.92	1703.91
347.13	1871.84
347.34	1675.24
347.55	1757.16
347.76	1757.16
347.98	1654.76
348.19	1812.45
348.40	1765.35
348.61	1611.75
348.82	1812.45
349.03	1722.34
349.24	1632.23
349.45	1902.56
349.66	1468.39
349.88	1677.29
350.09	1570.79
350.30	1777.64
350.51	1679.33
350.72	1697.77
350.93	1683.43
351.14	1703.91
351.35	1738.73
351.56	1720.29
351.77	1763.30
351.99	1636.33
352.20	1812.45
352.41	1728.49
352.62	1607.66
352.83	1658.85
353.04	1742.82
353.25	1673.19
353.46	1771.49
353.67	1751.01
353.88	1638.38
354.09	1685.48
354.30	1808.36
354.52	1779.68
354.73	1701.86
354.94	1654.76
355.15	1667.05
355.36	1834.98
355.57	1740.77
355.78	1759.21
355.99	1665.00
356.20	1722.34
356.41	1761.25
356.62	1781.73
356.83	1734.63
357.04	1763.30
357.25	1634.28
357.46	1718.25
357.68	1613.80
357.89	1691.62
358.10	1746.92
358.31	1738.73
358.52	1765.35
358.73	1693.67
358.94	1652.71
359.15	1705.96
359.36	1755.11
359.57	1662.95
359.78	1673.19
359.99	1812.45
360.20	1753.06
360.41	1722.34
360.62	1748.97
360.83	1703.91
361.04	1751.01
361.25	1736.68
361.46	1871.84
361.67	1675.24
361.88	1769.44
362.09	1783.78
362.30	1740.77
362.51	1722.34
362.72	1701.86
362.93	1738.73
363.14	1689.57
363.35	1726.44
363.56	1742.82
363.78	1763.30
363.99	1814.50
364.20	1654.76
364.41	1722.34
364.62	1806.31
364.83	1705.96
365.04	1759.21
365.25	1677.29
365.46	1863.65
365.67	1658.85
365.88	1613.80
366.09	1681.38
366.30	1652.71
366.51	1679.33
366.72	1613.80
366.93	1656.81
367.14	1751.01
367.35	1738.73
367.56	1748.97
367.77	1867.75
367.98	1712.10
368.18	1744.87
368.39	1781.73
368.60	1673.19
368.81	1746.92
369.02	1679.33
369.23	1720.29
369.44	1566.70
369.65	1669.09
369.86	1705.96
370.07	1738.73
370.28	1716.20
370.49	1796.07
370.70	1812.45
370.91	1693.67
371.12	1640.42
371.33	1828.84
371.54	1773.54
371.75	1787.88
371.96	1626.09
372.17	1757.16
372.38	1755.11
372.59	1800.16
372.80	1669.09
373.01	1691.62
373.22	1673.19
373.43	1693.67
373.64	1691.62
373.85	1744.87
374.06	1828.84
374.26	1746.92
374.47	1685.48
374.68	1771.49
374.89	1695.72
375.10	1755.11
375.31	1738.73
375.52	1718.25
375.73	1736.68
375.94	1701.86
376.15	1841.12
376.36	1660.90
376.57	1628.14
376.78	1722.34
376.99	1751.01
377.20	1773.54
377.40	1716.20
377.61	1832.93
377.82	1613.80
378.03	1740.77
378.24	1767.40
378.45	1712.10
378.66	1656.81
378.87	1650.66
379.08	1697.77
379.29	1728.49
379.50	1812.45
379.71	1736.68
379.91	1697.77
380.12	1726.44
380.33	1755.11
380.54	1613.80
380.75	1708.01
380.96	1689.57
381.17	1746.92
381.38	1701.86
381.59	1742.82
381.80	1705.96
382.00	1861.60
382.21	1812.45
382.42	1841.12
382.63	1845.22
382.84	1830.88
383.05	1796.07
383.26	1736.68
383.47	1775.59
383.68	1804.26
383.88	1708.01
384.09	1781.73
384.30	1822.69
384.51	1619.94
384.72	1712.10
384.93	1630.18
385.14	1800.16
385.35	1781.73
385.55	1652.71
385.76	1798.12
385.97	1767.40
386.18	1609.70
386.39	1693.67
386.60	1675.24
386.81	1665.00
387.02	1640.42
387.22	1638.38
387.43	1712.10
387.64	1791.97
387.85	1806.31
388.06	2246.62
388.27	4243.39
388.48	6692.76
388.68	8066.95
388.89	9715.56
389.10	9918.31
389.31	8562.56
389.52	7489.42
389.73	6774.68
389.93	6137.76
390.14	5889.96
390.35	5128.11
390.56	4487.10
390.77	3913.67
390.98	3020.75
391.18	2543.58
391.39	2041.82
391.60	1802.21
391.81	1830.88
392.02	1759.21
392.23	1851.36
392.43	1751.01
392.64	1806.31
392.85	1714.15
393.06	1910.75
393.27	1748.97
393.47	1679.33
393.68	1765.35
393.89	1738.73
394.10	1785.83
394.31	1619.94
394.52	1619.94
394.72	1685.48
394.93	1808.36
395.14	1669.09
395.35	1787.88
395.56	1710.05
395.76	1751.01
395.97	1781.73
396.18	1830.88
396.39	1783.78
396.60	2047.97
396.80	1884.13
397.01	1845.22
397.22	1824.74
397.43	1818.60
397.64	1687.53
397.84	1839.08
398.05	1861.60
398.26	1681.38
398.47	1802.21
398.67	1791.97
398.88	1751.01
399.09	1720.29
399.30	1677.29
399.51	1744.87
399.71	1742.82
399.92	1689.57
400.13	1783.78
400.34	1710.05
400.54	1742.82
400.75	1826.79
400.96	1820.64
401.17	1812.45
401.37	1708.01
401.58	1742.82
401.79	1826.79
402.00	1941.47
402.21	2009.06
402.41	1970.15
402.62	2033.63
402.83	2045.92
403.04	2025.44
403.24	2041.82
403.45	1875.94
403.66	1972.19
403.87	1927.14
404.07	1935.33
404.28	1953.76
404.49	1929.19
404.70	1777.64
404.90	1746.92
405.11	1773.54
405.32	1699.81
405.52	1638.38
405.73	1675.24
405.94	1697.77
406.15	1742.82
406.35	1773.54
406.56	1718.25
406.77	1697.77
406.98	1726.44
407.18	1640.42
407.39	1783.78
407.60	1685.48
407.80	1746.92
408.01	1667.05
408.22	1791.97
408.43	1665.00
408.63	1771.49
408.84	1822.69
409.05	1781.73
409.25	1720.29
409.46	1693.67
409.67	1736.68
409.88	1665.00
410.08	1685.48
410.29	1632.23
410.50	1785.83
410.70	1748.97
410.91	1671.14
411.12	1722.34
411.32	1759.21
411.53	1658.85
411.74	1824.74
411.95	1716.20
412.15	1726.44
412.36	1802.21
412.57	1812.45
412.77	1781.73
412.98	1769.44
413.19	1769.44
413.39	1742.82
413.60	1693.67
413.81	1755.11
414.01	1599.46
414.22	1820.64
414.43	1710.05
414.63	1728.49
414.84	1722.34
415.05	1673.19
415.25	1693.67
415.46	1810.40
415.67	1755.11
415.87	1665.00
416.08	1710.05
416.29	1691.62
416.49	1800.16
416.70	1730.53
416.91	1683.43
417.11	1742.82
417.32	1693.67
417.53	1755.11
417.73	1701.86
417.94	1691.62
418.15	1720.29
418.35	1708.01
418.56	1703.91
418.77	1834.98
418.97	1685.48
419.18	1677.29
419.38	1632.23
419.59	1751.01
419.80	1708.01
420.00	1687.53
420.21	1769.44
420.42	1802.21
420.62	1783.78
420.83	1703.91
421.04	1724.39
421.24	1701.86
421.45	1755.11
421.65	1689.57
421.86	1652.71
422.07	1718.25
422.27	1755.11
422.48	1779.68
422.69	1632.23
422.89	1716.20
423.10	1673.19
423.30	1703.91
423.51	1662.95
423.72	1757.16
423.92	1757.16
424.13	1654.76
424.33	1693.67
424.54	1763.30
424.75	1714.15
424.95	1830.88
425.16	1683.43
425.36	1689.57
425.57	1763.30
425.78	1691.62
425.98	1837.03
426.19	1654.76
426.39	1693.67
426.60	1689.57
426.81	1783.78
427.01	1685.48
427.22	1628.14
427.42	1671.14
427.63	1673.19
427.83	1761.25
428.04	1812.45
428.25	1812.45
428.45	1818.60
428.66	1740.77
428.86	1740.77
429.07	1718.25
429.28	1744.87
429.48	1734.63
429.69	1734.63
429.89	1708.01
430.10	1673.19
430.30	1736.68
430.51	1753.06
430.71	1656.81
430.92	1742.82
431.13	1708.01
431.33	1724.39
431.54	1650.66
431.74	1847.27
431.95	1822.69
432.15	1675.24
432.36	1753.06
432.56	1697.77
432.77	1814.50
432.98	1830.88
433.18	1728.49
433.39	1734.63
433.59	1710.05
433.80	1781.73
434.00	1826.79
434.21	1689.57
434.41	1691.62
434.62	1880.04
434.82	1665.00
435.03	1728.49
435.23	1736.68
435.44	1652.71
435.64	1796.07
435.85	1771.49
436.06	1757.16
436.26	1894.37
436.47	1746.92
436.67	1634.28
436.88	1742.82
437.08	1738.73
437.29	1720.29
437.49	1759.21
437.70	1763.30
437.90	1675.24
438.11	1834.98
438.31	1742.82
438.52	1820.64
438.72	1886.18
438.93	1945.57
439.13	1783.78
439.34	1927.14
439.54	1708.01
439.75	1843.17
439.95	1783.78
440.16	1740.77
440.36	1740.77
440.57	1748.97
440.77	1794.02
440.98	1738.73
441.18	1814.50
441.39	1740.77
441.59	1652.71
441.80	1789.92
442.00	1763.30
442.21	1853.41
442.41	1656.81
442.62	1783.78
442.82	1732.58
443.02	1677.29
443.23	1767.40
443.43	1724.39
443.64	1859.56
443.84	1759.21
444.05	1736.68
444.25	1708.01
444.46	1740.77
444.66	1734.63
444.87	1814.50
445.07	1650.66
445.28	1800.16
445.48	1820.64
445.69	1853.41
445.89	1812.45
446.09	1763.30
446.30	2050.02
446.50	2656.22
446.71	3774.41
446.91	4399.04
447.12	4751.29
447.32	4786.10
447.53	4337.60
447.73	3928.00
447.93	3489.74
448.14	3327.95
448.34	3233.74
448.55	2885.59
448.75	2887.64
448.96	2691.03
449.16	2453.47
449.36	2189.28
449.57	2062.30
449.77	1884.13
449.98	1861.60
450.18	1732.58
450.39	1884.13
450.59	1783.78
450.79	1837.03
451.00	1689.57
451.20	1753.06
451.41	1763.30
451.61	1787.88
451.81	1714.15
452.02	1763.30
452.22	1720.29
452.43	1796.07
452.63	1746.92
452.84	1712.10
453.04	1669.09
453.24	1691.62
453.45	1724.39
453.65	1730.53
453.86	1779.68
454.06	1699.81
454.26	1755.11
454.47	1794.02
454.67	1841.12
454.87	1798.12
455.08	1779.68
455.28	1814.50
455.49	1726.44
455.69	1689.57
455.89	1898.47
456.10	1843.17
456.30	1740.77
456.51	1785.83
456.71	1800.16
456.91	1689.57
457.12	1714.15
457.32	1712.10
457.52	1656.81
457.73	1691.62
457.93	1728.49
458.14	1683.43
458.34	1660.90
458.54	1728.49
458.75	1763.30
458.95	1796.07
459.15	1746.92
459.36	1761.25
459.56	1783.78
459.76	1748.97
459.97	1734.63
460.17	1712.10
460.37	1763.30
460.58	1783.78
460.78	1757.16
460.99	1738.73
461.19	1675.24
461.39	1675.24
461.60	1697.77
461.80	1785.83
462.00	1665.00
462.21	1716.20
462.41	1691.62
462.61	1781.73
462.82	1619.94
463.02	1789.92
463.22	1669.09
463.43	1763.30
463.63	1755.11
463.83	1734.63
464.04	1740.77
464.24	1740.77
464.44	1636.33
464.64	1746.92
464.85	1718.25
465.05	1771.49
465.25	1773.54
465.46	1730.53
465.66	1787.88
465.86	1771.49
466.07	1757.16
466.27	1800.16
466.47	1650.66
466.68	1636.33
466.88	1779.68
467.08	1834.98
467.29	1718.25
467.49	1787.88
467.69	1773.54
467.89	1767.40
468.10	1697.77
468.30	1753.06
468.50	1789.92
468.71	1806.31
468.91	1634.28
469.11	1834.98
469.31	1746.92
469.52	1714.15
469.72	1787.88
469.92	1802.21
470.13	1671.14
470.33	1771.49
470.53	1771.49
470.73	2148.32
470.94	2310.11
471.14	2306.01
471.34	2525.15
471.54	2355.16
471.75	2254.81
471.95	2121.70
472.15	2131.94
472.36	2093.02
472.56	2119.65
472.76	2119.65
472.96	2017.25
473.17	1972.19
473.37	1908.71
473.57	1730.53
473.77	1822.69
473.98	1826.79
474.18	1761.25
474.38	1912.80
474.58	1751.01
474.79	1701.86
474.99	1738.73
475.19	1765.35
475.39	1740.77
475.60	1726.44
475.80	1703.91
476.00	1687.53
476.20	1734.63
476.41	1644.52
476.61	1839.08
476.81	1751.01
477.01	1685.48
477.21	1906.66
477.42	1818.60
477.62	1683.43
477.82	1734.63
478.02	1732.58
478.23	1777.64
478.43	1699.81
478.63	1703.91
478.83	1714.15
479.03	1671.14
479.24	1779.68
479.44	1882.08
479.64	1665.00
479.84	1658.85
480.04	1650.66
480.25	1718.25
480.45	1673.19
480.65	1722.34
480.85	1796.07
481.06	1714.15
481.26	1718.25
481.46	1732.58
481.66	1685.48
481.86	1656.81
482.06	1839.08
482.27	1724.39
482.47	1738.73
482.67	1751.01
482.87	1685.48
483.07	1757.16
483.28	1679.33
483.48	1761.25
483.68	1710.05
483.88	1644.52
484.08	1677.29
484.29	1599.46
484.49	1662.95
484.69	1689.57
484.89	1828.84
485.09	1705.96
485.29	1744.87
485.50	1736.68
485.70	1630.18
485.90	1794.02
486.10	1796.07
486.30	1779.68
486.50	1775.59
486.71	1798.12
486.91	1826.79
487.11	1859.56
487.31	1685.48
487.51	1820.64
487.71	1683.43
487.91	1732.58
488.12	1683.43
488.32	1603.56
488.52	1724.39
488.72	1660.90
488.92	1755.11
489.12	1767.40
489.32	1724.39
489.53	1828.84
489.73	1650.66
489.93	1796.07
490.13	1681.38
490.33	1728.49
490.53	1689.57
490.73	1843.17
490.94	1689.57
491.14	1730.53
491.34	1894.37
491.54	2164.70
491.74	2502.62
491.94	2899.92
492.14	3008.47
492.34	3022.80
492.54	2729.94
492.75	2441.18
492.95	2463.71
493.15	2267.10
493.35	2363.36
493.55	2342.88
493.75	2123.74
493.95	2189.28
494.15	1959.91
494.35	1908.71
494.56	1869.80
494.76	1816.55
494.96	1798.12
495.16	1806.31
495.36	1777.64
495.56	1775.59
495.76	1759.21
495.96	1724.39
496.16	1718.25
496.36	1914.85
496.56	1665.00
496.77	1716.20
496.97	1671.14
497.17	1828.84
497.37	1689.57
497.57	1748.97
497.77	1742.82
497.97	1689.57
498.17	1728.49
498.37	1763.30
498.57	1812.45
498.77	1748.97
498.97	1710.05
499.17	1841.12
499.38	1701.86
499.58	1882.08
499.78	1849.32
499.98	1806.31
500.18	1683.43
500.38	1724.39
500.58	1933.28
500.78	2465.75
500.98	4618.17
501.18	5990.31
501.38	6799.26
501.58	7133.08
501.78	6641.56
501.98	5601.19
502.18	5056.43
502.38	4573.11
502.58	4220.86
502.78	3680.20
502.98	3678.15
503.18	3440.59
503.38	3241.93
503.59	2879.44
503.79	2693.08
503.99	2469.85
504.19	2250.72
504.39	2250.72
504.59	2142.18
504.79	2131.94
504.99	2035.68
505.19	1865.70
505.39	1918.95
505.59	2002.91
505.79	1923.04
505.99	1861.60
506.19	1738.73
506.39	1851.36
506.59	1818.60
506.79	1736.68
506.99	1818.60
507.19	1789.92
507.39	1783.78
507.59	1708.01
507.79	1720.29
507.99	1742.82
508.19	1765.35
508.39	1697.77
508.59	1777.64
508.79	1828.84
508.99	1853.41
509.19	1724.39
509.39	1730.53
509.59	1712.10
509.79	1691.62
509.99	1742.82
510.19	1785.83
510.39	1751.01
510.59	1800.16
510.79	1738.73
510.99	1720.29
511.19	1705.96
511.39	1808.36
511.59	1779.68
511.79	1775.59
511.99	1757.16
512.19	1886.18
512.38	1804.26
512.58	1736.68
512.78	1789.92
512.98	1796.07
513.18	1796.07
513.38	1603.56
513.58	1748.97
513.78	1673.19
513.98	1685.48
514.18	1638.38
514.38	1728.49
514.58	1753.06
514.78	1724.39
514.98	1667.05
515.18	1718.25
515.38	1751.01
515.58	1824.74
515.78	1671.14
515.98	1767.40
516.18	1738.73
516.38	1812.45
516.57	1701.86
516.77	1728.49
516.97	1773.54
517.17	1759.21
517.37	1628.14
517.57	1755.11
517.77	1683.43
517.97	1687.53
518.17	1716.20
518.37	1693.67
518.57	1646.57
518.77	1673.19
518.97	1726.44
519.16	1783.78
519.36	1808.36
519.56	1732.58
519.76	1759.21
519.96	1730.53
520.16	1828.84
520.36	1665.00
520.56	1806.31
520.76	1740.77
520.96	1746.92
521.16	1781.73
521.35	1812.45
521.55	1812.45
521.75	1767.40
521.95	1587.18
522.15	1693.67
522.35	1662.95
522.55	1740.77
522.75	1769.44
522.95	1738.73
523.14	1669.09
523.34	1744.87
523.54	1734.63
523.74	1691.62
523.94	1787.88
524.14	1669.09
524.34	1701.86
524.54	1824.74
524.73	1736.68
524.93	1796.07
525.13	1804.26
525.33	1665.00
525.53	1902.56
525.73	1679.33
525.93	1767.40
526.13	1697.77
526.32	1761.25
526.52	1724.39
526.72	1769.44
526.92	1732.58
527.12	1693.67
527.32	1697.77
527.52	1863.65
527.71	1736.68
527.91	1658.85
528.11	1720.29
528.31	1755.11
528.51	1578.98
528.71	1726.44
528.90	1722.34
529.10	1726.44
529.30	1812.45
529.50	1675.24
529.70	1787.88
529.90	1708.01
530.09	1781.73
530.29	1734.63
530.49	1744.87
530.69	1873.89
530.89	1814.50
531.09	1832.93
531.28	1734.63
531.48	1845.22
531.68	1744.87
531.88	1708.01
532.08	1789.92
532.28	1683.43
532.47	1783.78
532.67	1910.75
532.87	1763.30
533.07	1703.91
533.27	1736.68
533.46	1732.58
533.66	1740.77
533.86	1708.01
534.06	1679.33
534.26	1796.07
534.45	1685.48
534.65	1839.08
534.85	1736.68
535.05	1730.53
535.25	1771.49
535.44	1724.39
535.64	1818.60
535.84	1753.06
536.04	1660.90
536.24	1687.53
536.43	1748.97
536.63	1775.59
536.83	1681.38
537.03	1794.02
537.22	1576.94
537.42	1673.19
537.62	1740.77
537.82	1679.33
538.02	1867.75
538.21	1783.78
538.41	1841.12
538.61	1787.88
538.81	1691.62
539.00	1728.49
539.20	1726.44
539.40	1734.63
539.60	1777.64
539.79	1767.40
539.99	1705.96
540.19	1705.96
540.39	1791.97
540.58	1804.26
540.78	1796.07
540.98	1708.01
541.18	1839.08
541.37	1877.99
541.57	1740.77
541.77	1712.10
541.97	1705.96
542.16	1673.19
542.36	1599.46
542.56	1679.33
542.76	1882.08
542.95	1765.35
543.15	1863.65
543.35	1734.63
543.54	1755.11
543.74	1712.10
543.94	1853.41
544.14	1699.81
544.33	1824.74
544.53	1746.92
544.73	1753.06
544.93	1744.87
545.12	1705.96
545.32	1742.82
545.52	1722.34
545.71	1640.42
545.91	1785.83
546.11	1757.16
546.30	1730.53
546.50	1693.67
546.70	1828.84
546.90	1744.87
547.09	1648.61
547.29	1669.09
547.49	1738.73
547.68	1798.12
547.88	1658.85
548.08	1712.10
548.27	2297.82
548.47	1757.16
548.67	1615.85
548.87	1753.06
549.06	1683.43
549.26	1732.58
549.46	1730.53
549.65	1763.30
549.85	1763.30
550.05	1798.12
550.24	1615.85
550.44	1763.30
550.64	1789.92
550.83	1779.68
551.03	1851.36
551.23	1873.89
551.42	1810.40
551.62	1773.54
551.82	1738.73
552.01	1761.25
552.21	1767.40
552.41	1763.30
552.60	1810.40
552.80	1808.36
553.00	1726.44
553.19	1714.15
553.39	1896.42
553.59	1665.00
553.78	1814.50
553.98	1812.45
554.17	1710.05
554.37	1742.82
554.57	1714.15
554.76	1621.99
554.96	1685.48
555.16	1728.49
555.35	1771.49
555.55	1796.07
555.75	1810.40
555.94	1773.54
556.14	1654.76
556.33	1757.16
556.53	1720.29
556.73	1789.92
556.92	1771.49
557.12	1775.59
557.32	1832.93
557.51	1820.64
557.71	1771.49
557.90	1871.84
558.10	1906.66
558.30	1718.25
558.49	1779.68
558.69	1687.53
558.88	1744.87
559.08	1779.68
559.28	1738.73
559.47	1683.43
559.67	1726.44
559.86	1853.41
560.06	1775.59
560.26	1763.30
560.45	1746.92
560.65	1763.30
560.84	1783.78
561.04	1681.38
561.24	1761.25
561.43	1732.58
561.63	1877.99
561.82	1732.58
562.02	1806.31
562.22	1703.91
562.41	1654.76
562.61	1751.01
562.80	1732.58
563.00	1808.36
563.19	1824.74
563.39	1794.02
563.59	1863.65
563.78	1642.47
563.98	1605.61
564.17	1685.48
564.37	1656.81
564.56	1667.05
564.76	1710.05
564.96	1843.17
565.15	1773.54
565.35	1841.12
565.54	1714.15
565.74	1822.69
565.93	1755.11
566.13	1779.68
566.32	1759.21
566.52	1759.21
566.71	1775.59
566.91	1773.54
567.11	1775.59
567.30	1769.44
567.50	1742.82
567.69	1869.80
567.89	1689.57
568.08	1714.15
568.28	1746.92
568.47	1712.10
568.67	1800.16
568.86	1779.68
569.06	1767.40
569.25	1728.49
569.45	1701.86
569.64	1685.48
569.84	1687.53
570.04	1814.50
570.23	1732.58
570.43	1681.38
570.62	1753.06
570.82	1847.27
571.01	1738.73
571.21	1751.01
571.40	1783.78
571.60	1763.30
571.79	1748.97
571.99	1738.73
572.18	1675.24
572.38	1773.54
572.57	1683.43
572.77	1769.44
572.96	1869.80
573.16	1861.60
573.35	1767.40
573.55	1869.80
573.74	1837.03
573.94	1738.73
574.13	1802.21
574.33	1818.60
574.52	1853.41
574.71	1779.68
574.91	1716.20
575.10	1732.58
575.30	1771.49
575.49	1677.29
575.69	1794.02
575.88	1767.40
576.08	1726.44
576.27	1714.15
576.47	1726.44
576.66	1894.37
576.86	1818.60
577.05	1761.25
577.25	1767.40
577.44	1832.93
577.64	1693.67
577.83	1775.59
578.02	1763.30
578.22	1818.60
578.41	1853.41
578.61	1738.73
578.80	1658.85
579.00	1789.92
579.19	1732.58
579.39	1882.08
579.58	1746.92
579.77	1761.25
579.97	1843.17
580.16	1802.21
580.36	1796.07
580.55	1785.83
580.75	1822.69
580.94	1818.60
581.13	1898.47
581.33	1855.46
581.52	1734.63
581.72	1892.32
581.91	1873.89
582.11	1769.44
582.30	1837.03
582.49	1730.53
582.69	1837.03
582.88	1796.07
583.08	1775.59
583.27	1791.97
583.47	1740.77
583.66	1724.39
583.85	1673.19
584.05	1796.07
584.24	1804.26
584.44	1828.84
584.63	1804.26
584.82	1798.12
585.02	1828.84
585.21	1796.07
585.41	1800.16
585.60	1834.98
585.79	1912.80
585.99	2050.02
586.18	1894.37
586.37	2189.28
586.57	3393.48
586.76	9926.50
586.96	24342.16
587.15	34317.81
587.34	40326.55
587.54	41989.50
587.73	36650.45
587.93	26459.76
588.12	21800.63
588.31	18304.74
588.51	16295.69
588.70	15183.64
588.89	13993.77
589.09	12453.70
589.28	11011.93
589.47	9408.37
589.67	8032.13
589.86	6455.20
590.06	4997.04
590.25	3782.60
590.44	3082.19
590.64	2607.06
590.83	2312.16
591.02	2066.40
591.22	1982.43
591.41	1873.89
591.60	1843.17
591.80	1933.28
591.99	1732.58
592.18	1834.98
592.38	1812.45
592.57	1765.35
592.76	1822.69
592.96	1865.70
593.15	1771.49
593.34	1808.36
593.54	1787.88
593.73	1853.41
593.92	1716.20
594.12	1779.68
594.31	1712.10
594.50	1812.45
594.70	1880.04
594.89	1773.54
595.08	1748.97
595.28	1832.93
595.47	1929.19
595.66	1849.32
595.86	1732.58
596.05	1773.54
596.24	1740.77
596.43	1865.70
596.63	1855.46
596.82	1738.73
597.01	1812.45
597.21	1832.93
597.40	1771.49
597.59	1777.64
597.79	1853.41
597.98	1755.11
598.17	1789.92
598.36	1746.92
598.56	1818.60
598.75	1703.91
598.94	1826.79
599.14	1759.21
599.33	1726.44
599.52	1753.06
599.71	1798.12
599.91	1804.26
600.10	1822.69
600.29	1763.30
600.48	1730.53
600.68	1822.69
600.87	1751.01
601.06	1738.73
601.26	1697.77
601.45	1740.77
601.64	1722.34
601.83	1800.16
602.03	1693.67
602.22	1689.57
602.41	1783.78
602.60	1826.79
602.80	1751.01
602.99	1757.16
603.18	1716.20
603.37	1710.05
603.57	1755.11
603.76	1736.68
603.95	1771.49
604.14	1734.63
604.34	1718.25
604.53	1796.07
604.72	1763.30
604.91	1804.26
605.10	1740.77
605.30	1671.14
605.49	1837.03
605.68	1724.39
605.87	1791.97
606.07	1701.86
606.26	1794.02
606.45	1779.68
606.64	1753.06
606.84	1710.05
607.03	1769.44
607.22	1816.55
607.41	1699.81
607.60	1701.86
607.80	1800.16
607.99	1673.19
608.18	1697.77
608.37	1763.30
608.56	1724.39
608.76	1755.11
608.95	1849.32
609.14	1675.24
609.33	1767.40
609.52	1839.08
609.72	1679.33
609.91	1730.53
610.10	1820.64
610.29	1810.40
610.48	1779.68
610.68	1710.05
610.87	1734.63
611.06	1775.59
611.25	1703.91
611.44	1828.84
611.63	1738.73
611.83	1832.93
612.02	1677.29
612.21	1816.55
612.40	1693.67
612.59	1789.92
612.79	1734.63
612.98	1755.11
613.17	1871.84
613.36	1685.48
613.55	1853.41
613.74	1759.21
613.93	1728.49
614.13	1775.59
614.32	1777.64
614.51	1779.68
614.70	1806.31
614.89	1720.29
615.08	1824.74
615.28	2090.98
615.47	1718.25
615.66	1742.82
615.85	1693.67
616.04	1832.93
616.23	1732.58
616.42	1755.11
616.62	1724.39
616.81	1763.30
617.00	1716.20
617.19	1804.26
617.38	1746.92
617.57	1667.05
617.76	1783.78
617.95	1779.68
618.15	1718.25
618.34	1806.31
618.53	1644.52
618.72	1832.93
618.91	1853.41
619.10	1828.84
619.29	1738.73
619.48	1728.49
619.68	1640.42
619.87	1736.68
620.06	1767.40
620.25	1701.86
620.44	1648.61
620.63	1734.63
620.82	1769.44
621.01	1695.72
621.20	1738.73
621.39	1810.40
621.59	1779.68
621.78	1691.62
621.97	1746.92
622.16	1800.16
622.35	1849.32
622.54	1839.08
622.73	1787.88
622.92	1566.70
623.11	1779.68
623.30	1714.15
623.49	1755.11
623.68	1638.38
623.88	1859.56
624.07	1796.07
624.26	1681.38
624.45	1796.07
624.64	1751.01
624.83	1804.26
625.02	1738.73
625.21	1718.25
625.40	1751.01
625.59	1794.02
625.78	1683.43
625.97	1789.92
626.16	1806.31
626.35	1708.01
626.54	1779.68
626.74	1867.75
626.93	1699.81
627.12	1761.25
627.31	1867.75
627.50	1777.64
627.69	1765.35
627.88	1798.12
628.07	1718.25
628.26	1617.90
628.45	1718.25
628.64	1687.53
628.83	1742.82
629.02	1699.81
629.21	1757.16
629.40	1751.01
629.59	1640.42
629.78	1722.34
629.97	1777.64
630.16	1691.62
630.35	1675.24
630.54	1703.91
630.73	1708.01
630.92	1681.38
631.11	1695.72
631.30	1755.11
631.49	1726.44
631.68	1703.91
631.87	1740.77
632.06	1648.61
632.25	1820.64
632.44	1724.39
632.63	1800.16
632.82	1744.87
633.01	1671.14
633.20	1730.53
633.39	1724.39
633.58	1556.46
633.77	1722.34
633.96	1761.25
634.15	1732.58
634.34	1810.40
634.53	1710.05
634.72	1705.96
634.91	1691.62
635.10	1740.77
635.29	1841.12
635.48	1728.49
635.67	1640.42
635.86	1642.47
636.05	1802.21
636.24	1761.25
636.43	1748.97
636.62	1773.54
636.81	1615.85
637.00	1791.97
637.19	1771.49
637.38	1734.63
637.57	1679.33
637.76	1669.09
637.95	1785.83
638.14	1691.62
638.33	1744.87
638.52	1681.38
638.71	1701.86
638.89	1656.81
639.08	1837.03
639.27	1740.77
639.46	1775.59
639.65	1832.93
639.84	1693.67
640.03	1751.01
640.22	1800.16
640.41	1853.41
640.60	1691.62
640.79	1738.73
640.98	1775.59
641.17	1791.97
641.36	1712.10
641.55	1673.19
641.74	1656.81
641.92	1732.58
642.11	1681.38
642.30	1632.23
642.49	1755.11
642.68	1714.15
642.87	1759.21
643.06	1716.20
643.25	1736.68
643.44	1652.71
643.63	1693.67
643.82	1714.15
644.00	1699.81
644.19	1767.40
644.38	1619.94
644.57	1806.31
644.76	1703.91
644.95	1687.53
645.14	1742.82
645.33	1734.63
645.52	1689.57
645.71	1624.04
645.89	1673.19
646.08	1763.30
646.27	1665.00
646.46	1880.04
646.65	1591.27
646.84	1818.60
647.03	1636.33
647.22	1826.79
647.40	1701.86
647.59	1712.10
647.78	1697.77
647.97	1660.90
648.16	1673.19
648.35	1810.40
648.54	1759.21
648.73	1708.01
648.91	1781.73
649.10	1775.59
649.29	1703.91
649.48	1841.12
649.67	1673.19
649.86	1722.34
650.05	1716.20
650.23	1804.26
650.42	1652.71
650.61	1755.11
650.80	1732.58
650.99	1796.07
651.18	1748.97
651.36	1798.12
651.55	1714.15
651.74	1740.77
651.93	1701.86
652.12	1744.87
652.31	1703.91
652.49	1671.14
652.68	1693.67
652.87	1775.59
653.06	1765.35
653.25	1877.99
653.44	1767.40
653.62	1832.93
653.81	1779.68
654.00	1687.53
654.19	1789.92
654.38	1902.56
654.56	1824.74
654.75	1720.29
654.94	1777.64
655.13	1742.82
655.32	1621.99
655.51	1708.01
655.69	1726.44
655.88	1824.74
656.07	1677.29
656.26	1728.49
656.45	1683.43
656.63	1724.39
656.82	1705.96
657.01	1738.73
657.20	1718.25
657.38	1828.84
657.57	1681.38
657.76	1617.90
657.95	1824.74
658.14	1658.85
658.32	1726.44
658.51	1693.67
658.70	1722.34
658.89	1746.92
659.08	1773.54
659.26	1816.55
659.45	1740.77
659.64	1804.26
659.83	1703.91
660.01	1832.93
660.20	1759.21
660.39	1839.08
660.58	1624.04
660.76	1683.43
660.95	1689.57
661.14	1740.77
661.33	1669.09
661.51	1718.25
661.70	1671.14
661.89	1652.71
662.08	1712.10
662.26	1632.23
662.45	1652.71
662.64	1779.68
662.83	1769.44
663.01	1665.00
663.20	1685.48
663.39	1849.32
663.58	1701.86
663.76	1755.11
663.95	1728.49
664.14	1699.81
664.32	1712.10
664.51	1689.57
664.70	1595.37
664.89	1722.34
665.07	1667.05
665.26	1810.40
665.45	1646.57
665.64	1718.25
665.82	1751.01
666.01	1746.92
666.20	1658.85
666.38	1775.59
666.57	1837.03
666.76	2199.52
666.95	4351.93
667.13	10637.15
667.32	15511.32
667.51	17864.43
667.69	19416.79
667.88	17592.05
668.07	12293.96
668.25	9564.01
668.44	8073.09
668.63	7190.42
668.81	6860.70
669.00	6174.63
669.19	5687.21
669.38	5027.76
669.56	4626.36
669.75	4018.11
669.94	3344.33
670.12	2883.54
670.31	2525.15
670.50	2215.90
670.68	2031.58
670.87	1970.15
671.06	1822.69
671.24	1816.55
671.43	1865.70
671.62	1683.43
671.80	1748.97
671.99	1716.20
672.18	1783.78
672.36	1765.35
672.55	1742.82
672.74	1718.25
672.92	1763.30
673.11	1804.26
673.29	1617.90
673.48	1710.05
673.67	1734.63
673.85	1824.74
674.04	1722.34
674.23	1767.40
674.41	1800.16
674.60	1632.23
674.79	1699.81
674.97	1646.57
675.16	1779.68
675.34	1789.92
675.53	1720.29
675.72	1697.77
675.90	1859.56
676.09	1705.96
676.28	1738.73
676.46	1691.62
676.65	1685.48
676.83	1691.62
677.02	1691.62
677.21	1687.53
677.39	1804.26
677.58	1677.29
677.77	1619.94
677.95	1691.62
678.14	1679.33
678.32	1693.67
678.51	1730.53
678.70	1812.45
678.88	1691.62
679.07	1720.29
679.25	1673.19
679.44	1689.57
679.63	1683.43
679.81	1773.54
680.00	1843.17
680.18	1734.63
680.37	1869.80
680.55	1736.68
680.74	1685.48
680.93	1597.42
681.11	1720.29
681.30	1722.34
681.48	1728.49
681.67	1691.62
681.85	1695.72
682.04	1738.73
682.23	1806.31
682.41	1705.96
682.60	1734.63
682.78	1705.96
682.97	1613.80
683.15	1779.68
683.34	1681.38
683.53	1746.92
683.71	1574.89
683.90	1806.31
684.08	1783.78
684.27	1691.62
684.45	1722.34
684.64	1740.77
684.82	1658.85
685.01	1818.60
685.19	1716.20
685.38	1761.25
685.57	1660.90
685.75	1675.24
685.94	1701.86
686.12	1615.85
686.31	1662.95
686.49	1822.69
686.68	1609.70
686.86	1718.25
687.05	1656.81
687.23	1857.51
687.42	1734.63
687.60	1644.52
687.79	1751.01
687.97	1730.53
688.16	1773.54
688.34	1701.86
688.53	1697.77
688.71	1742.82
688.90	1751.01
689.08	1714.15
689.27	1775.59
689.45	1808.36
689.64	1728.49
689.82	1728.49
690.01	1714.15
690.19	1791.97
690.38	1701.86
690.56	1798.12
690.75	1615.85
690.93	1734.63
691.12	1681.38
691.30	1771.49
691.49	1710.05
691.67	1693.67
691.86	1806.31
692.04	1712.10
692.23	1705.96
692.41	1697.77
692.60	1800.16
692.78	1720.29
692.97	1703.91
693.15	1771.49
693.34	1871.84
693.52	1818.60
693.71	1689.57
693.89	1697.77
694.08	1640.42
694.26	1789.92
694.44	1703.91
694.63	1814.50
694.81	1660.90
695.00	1767.40
695.18	1804.26
695.37	1820.64
695.55	1726.44
695.74	1724.39
695.92	1720.29
696.10	1767.40
696.29	1617.90
696.47	1710.05
696.66	1654.76
696.84	1736.68
697.03	1699.81
697.21	1873.89
697.40	2357.21
697.58	1748.97
697.76	1679.33
697.95	1607.66
698.13	1683.43
698.32	1689.57
698.50	1716.20
698.68	1755.11
698.87	1753.06
699.05	1914.85
699.24	1701.86
699.42	1705.96
699.61	1755.11
699.79	1732.58
699.97	1695.72
700.16	1658.85
700.34	1703.91
700.53	1701.86
700.71	1779.68
700.89	1708.01
701.08	1714.15
701.26	1677.29
701.45	2099.17
701.63	1677.29
701.81	1787.88
702.00	1748.97
702.18	1751.01
702.37	1646.57
702.55	1722.34
702.73	1693.67
702.92	1671.14
703.10	1746.92
703.28	1757.16
703.47	1595.37
703.65	1796.07
703.84	1697.77
704.02	1763.30
704.20	1761.25
704.39	1665.00
704.57	1656.81
704.75	1828.84
704.94	1742.82
705.12	1681.38
705.30	1753.06
705.49	2279.39
705.67	4495.29
705.86	9604.97
706.04	12582.72
706.22	14251.81
706.41	15367.96
706.59	13639.47
706.77	9437.04
706.96	7382.93
707.14	6541.21
707.32	5930.92
707.51	5461.93
707.69	4913.08
707.87	4163.52
708.06	3442.64
708.24	2904.02
708.42	2414.56
708.61	2283.49
708.79	1943.52
708.97	1886.18
709.16	1789.92
709.34	1787.88
709.52	1714.15
709.71	1726.44
709.89	1701.86
710.07	1710.05
710.26	1724.39
710.44	1775.59
710.62	1746.92
710.80	1714.15
710.99	1832.93
711.17	1746.92
711.35	1697.77
711.54	1617.90
711.72	1806.31
711.90	1781.73
712.09	1742.82
712.27	1755.11
712.45	1728.49
712.63	1693.67
712.82	1683.43
713.00	1759.21
713.18	1722.34
713.37	1820.64
713.55	1730.53
713.73	1724.39
713.91	1808.36
714.10	1714.15
714.28	1746.92
714.46	1699.81
714.65	1714.15
714.83	1757.16
715.01	1703.91
715.19	1714.15
715.38	1658.85
715.56	1767.40
715.74	1751.01
715.92	1691.62
716.11	1757.16
716.29	1632.23
716.47	1722.34
716.65	1693.67
716.84	1636.33
717.02	1734.63
717.20	1693.67
717.38	1660.90
717.57	1818.60
717.75	1718.25
717.93	1677.29
718.11	1761.25
718.30	1673.19
718.48	1744.87
718.66	1693.67
718.84	1789.92
719.03	1728.49
719.21	1716.20
719.39	1796.07
719.57	1687.53
719.75	1716.20
719.94	1705.96
720.12	1671.14
720.30	1718.25
720.48	1783.78
720.67	1679.33
720.85	1595.37
721.03	1679.33
721.21	1691.62
721.39	1734.63
721.58	1714.15
721.76	1734.63
721.94	1732.58
722.12	1656.81
722.30	1882.08
722.49	1654.76
722.67	1759.21
722.85	1691.62
723.03	1691.62
723.21	1636.33
723.40	1771.49
723.58	1738.73
723.76	1738.73
723.94	1824.74
724.12	1705.96
724.30	1798.12
724.49	1775.59
724.67	1591.27
724.85	1822.69
725.03	1576.94
725.21	1787.88
725.40	1845.22
725.58	1621.99
725.76	1843.17
725.94	1734.63
726.12	1685.48
726.30	1697.77
726.49	1716.20
726.67	1685.48
726.85	1761.25
727.03	1800.16
727.21	2168.80
727.39	2906.07
727.57	3745.73
727.76	4251.58
727.94	4632.51
728.12	4392.89
728.30	3753.93
728.48	2951.12
728.66	2740.18
728.84	2504.67
729.03	2277.34
729.21	2199.52
729.39	1990.63
729.57	1820.64
729.75	1804.26
729.93	1871.84
730.11	1675.24
730.30	1789.92
730.48	1662.95
730.66	1828.84
730.84	1845.22
731.02	1705.96
731.20	1644.52
731.38	1720.29
731.56	1669.09
731.74	1585.13
731.93	1742.82
732.11	1634.28
732.29	1712.10
732.47	1748.97
732.65	1798.12
732.83	1822.69
733.01	1798.12
733.19	1714.15
733.37	1751.01
733.56	1744.87
733.74	1695.72
733.92	1783.78
734.10	1710.05
734.28	1771.49
734.46	1673.19
734.64	1669.09
734.82	1689.57
735.00	1675.24
735.18	1767.40
735.36	1738.73
735.54	1722.34
735.73	1734.63
735.91	1748.97
736.09	1804.26
736.27	1710.05
736.45	1757.16
736.63	1640.42
736.81	1718.25
736.99	1771.49
737.17	1748.97
737.35	1683.43
737.53	1746.92
737.71	1677.29
737.89	1767.40
738.07	1626.09
738.25	1630.18
738.43	1652.71
738.61	1656.81
738.80	1669.09
738.98	1665.00
739.16	1744.87
739.34	1628.14
739.52	1822.69
739.70	1705.96
739.88	1732.58
740.06	1691.62
740.24	1677.29
740.42	1683.43
740.60	1642.47
740.78	1671.14
740.96	1679.33
741.14	1626.09
741.32	1703.91
741.50	1673.19
741.68	1882.08
741.86	1757.16
742.04	1695.72
742.22	1665.00
742.40	1708.01
742.58	1748.97
742.76	1675.24
742.94	1714.15
743.12	1619.94
743.30	1689.57
743.48	1779.68
743.66	1650.66
743.84	1779.68
744.02	1701.86
744.20	1703.91
744.38	1648.61
744.56	1636.33
744.74	1845.22
744.92	1734.63
745.10	1759.21
745.28	1824.74
745.46	1849.32
745.64	1767.40
745.82	1738.73
746.00	1685.48
746.18	1683.43
746.36	1671.14
746.54	1759.21
746.72	1705.96
746.90	1652.71
747.08	1767.40
747.26	1642.47
747.44	1826.79
747.62	1789.92
747.80	1740.77
747.98	1757.16
748.15	1691.62
748.33	1779.68
748.51	1816.55
748.69	1742.82
748.87	1652.71
749.05	1648.61
749.23	1665.00
749.41	1804.26
749.59	1681.38
749.77	1820.64
749.95	1642.47
750.13	1660.90
750.31	1759.21
750.49	1687.53
750.67	1734.63
750.85	1804.26
751.03	1794.02
751.20	1798.12
751.38	1724.39
751.56	1587.18
751.74	1783.78
751.92	1716.20
752.10	1638.38
752.28	1765.35
752.46	1636.33
752.64	1746.92
752.82	1730.53
753.00	1841.12
753.18	1710.05
753.35	1701.86
753.53	1665.00
753.71	1699.81
753.89	1705.96
754.07	1746.92
754.25	1724.39
754.43	1748.97
754.61	1673.19
754.79	1730.53
754.97	1683.43
755.14	1794.02
755.32	1638.38
755.50	1722.34
755.68	1744.87
755.86	1624.04
756.04	1634.28
756.22	1517.54
756.40	1800.16
756.57	1847.27
756.75	1726.44
756.93	1744.87
757.11	1742.82
757.29	1644.52
757.47	1617.90
757.65	1630.18
757.82	1609.70
758.00	1691.62
758.18	1679.33
758.36	1654.76
758.54	1769.44
758.72	1654.76
758.90	1757.16
759.07	1802.21
759.25	1654.76
759.43	1656.81
759.61	1613.80
759.79	2201.57
759.97	1783.78
760.15	1636.33
760.32	1724.39
760.50	1783.78
760.68	1804.26
760.86	1619.94
761.04	1841.12
761.22	1732.58
761.39	1687.53
761.57	1791.97
761.75	1710.05
761.93	1759.21
762.11	1644.52
762.28	1656.81
762.46	1667.05
762.64	1884.13
762.82	1658.85
763.00	1755.11
763.18	1738.73
763.35	1660.90
763.53	1783.78
763.71	1675.24
763.89	1742.82
764.07	1677.29
764.24	1695.72
764.42	1726.44
764.60	1744.87
764.78	1689.57
764.96	1769.44
765.13	1787.88
765.31	1746.92
765.49	1767.40
765.67	1654.76
765.84	1703.91
766.02	1718.25
766.20	1611.75
766.38	1736.68
766.56	1734.63
766.73	1673.19
766.91	1677.29
767.09	1791.97
767.27	1730.53
767.44	1683.43
767.62	1759.21
767.80	1728.49
767.98	1687.53
768.15	1693.67
768.33	1812.45
768.51	1656.81
768.69	1748.97
768.87	1734.63
769.04	1714.15
769.22	1839.08
769.40	1769.44
769.58	1873.89
769.75	1718.25
769.93	1771.49
770.11	1708.01
770.28	1615.85
770.46	1783.78
770.64	1755.11
770.82	1705.96
770.99	1677.29
771.17	1679.33
771.35	1705.96
771.53	1701.86
771.70	1740.77
771.88	1720.29
772.06	1767.40
772.23	1710.05
772.41	1681.38
772.59	1730.53
772.77	1609.70
772.94	1701.86
773.12	1720.29
773.30	1689.57
773.47	1757.16
773.65	1595.37
773.83	1834.98
774.01	1705.96
774.18	1607.66
774.36	1693.67
774.54	1677.29
774.71	1769.44
774.89	1644.52
775.07	1662.95
775.24	1728.49
775.42	1744.87
775.60	1837.03
775.78	1630.18
775.95	1705.96
776.13	1683.43
776.31	1566.70
776.48	1746.92
776.66	1839.08
776.84	1710.05
777.01	1640.42
777.19	1714.15
777.37	1603.56
777.54	1759.21
777.72	1812.45
777.90	1724.39
778.07	1626.09
778.25	1900.52
778.43	1746.92
778.60	1665.00
778.78	1763.30
778.96	1763.30
779.13	1677.29
779.31	1726.44
779.49	1691.62
779.66	1683.43
779.84	1617.90
780.01	1677.29
780.19	1679.33
780.37	1746.92
780.54	1714.15
780.72	1728.49
780.90	1673.19
781.07	1724.39
781.25	1671.14
781.43	1738.73
781.60	1656.81
781.78	1714.15
781.95	1689.57
782.13	1734.63
782.31	1650.66
782.48	1619.94
782.66	1697.77
782.83	1779.68
783.01	1849.32
783.19	1783.78
783.36	1724.39
783.54	1656.81
783.72	1818.60
783.89	1726.44
784.07	1742.82
784.24	1769.44
784.42	1826.79
784.60	1740.77
784.77	1789.92
784.95	1605.61
785.12	1740.77
785.30	1808.36
785.47	1644.52
785.65	1691.62
785.83	1652.71
786.00	1665.00
786.18	1716.20
786.35	1714.15
786.53	1656.81
786.71	1712.10
786.88	1736.68
787.06	1722.34
787.23	1755.11
787.41	1683.43
787.58	1693.67
787.76	1718.25
787.94	1699.81
788.11	1665.00
788.29	1681.38
788.46	1638.38
788.64	1714.15
788.81	1695.72
788.99	1695.72
789.16	1660.90
789.34	1728.49
789.52	1669.09
789.69	1681.38
789.87	1669.09
790.04	1656.81
790.22	1765.35
790.39	1810.40
790.57	1652.71
790.74	1595.37
790.92	1734.63
791.09	1652.71
791.27	1665.00
791.44	1802.21
791.62	1652.71
791.79	1800.16
791.97	1738.73
792.15	1837.03
792.32	1804.26
792.50	1742.82
792.67	1769.44
792.85	1732.58
793.02	1761.25
793.20	1753.06
793.37	1687.53
793.55	1718.25
793.72	1636.33
793.90	1697.77
794.07	1718.25
794.25	1644.52
794.42	1753.06
794.60	1757.16
794.77	1740.77
794.95	1789.92
795.12	1773.54
795.30	1615.85
795.47	1615.85
795.65	1845.22
795.82	1734.63
796.00	1652.71
796.17	1806.31
796.34	1689.57
796.52	1632.23
796.69	1798.12
796.87	1714.15
797.04	1734.63
797.22	1757.16
797.39	1714.15
797.57	1763.30
797.74	1705.96
797.92	1804.26
798.09	1681.38
798.27	1851.36
798.44	1720.29
798.62	1769.44
798.79	1708.01
798.96	1779.68
799.14	1665.00
799.31	1869.80
799.49	1687.53
799.66	1640.42
799.84	1701.86
800.01	1662.95
800.19	1632.23
800.36	1583.08
800.53	1826.79
800.71	1779.68
800.88	1822.69
801.06	1720.29
801.23	1650.66
801.41	1677.29
801.58	1691.62
801.75	1669.09
801.93	1660.90
802.10	1751.01
802.28	1675.24
802.45	1593.32
802.63	1705.96
802.80	1783.78
802.97	1671.14
803.15	1787.88
803.32	1744.87
803.50	1677.29
803.67	1708.01
803.84	1685.48
804.02	1675.24
804.19	1705.96
804.37	1669.09
804.54	1679.33
804.71	1681.38
804.89	1667.05
805.06	1697.77
805.24	1705.96
805.41	1615.85
805.58	1691.62
805.76	1867.75
805.93	1785.83
806.10	1800.16
806.28	1683.43
806.45	1689.57
806.63	1726.44
806.80	1763.30
806.97	1800.16
807.15	1638.38
807.32	1791.97
807.49	1734.63
807.67	1667.05
807.84	1732.58
808.01	1638.38
808.19	1851.36
808.36	1755.11
808.54	1703.91
808.71	1681.38
808.88	1650.66
809.06	1685.48
809.23	1763.30
809.40	1724.39
809.58	1771.49
809.75	1705.96
809.92	1619.94
810.10	1898.47
810.27	1714.15
810.44	1751.01
810.62	1710.05
810.79	1687.53
810.96	1693.67
811.14	1771.49
811.31	1720.29
811.48	1853.41
811.66	1734.63
811.83	1751.01
812.00	1677.29
812.18	1708.01
812.35	1789.92
812.52	1718.25
812.69	1755.11
812.87	1738.73
813.04	1697.77
813.21	1734.63
813.39	1720.29
813.56	1677.29
813.73	1773.54
813.91	1677.29
814.08	1662.95
814.25	1785.83
814.42	1599.46
814.60	1705.96
814.77	1773.54
814.94	1714.15
815.12	1732.58
815.29	1812.45
815.46	1677.29
815.63	1746.92
815.81	1660.90
815.98	1701.86
816.15	1775.59
816.33	1746.92
816.50	1689.57
816.67	1755.11
816.84	1722.34
817.02	1665.00
817.19	1656.81
817.36	1665.00
817.53	1718.25
817.71	1679.33
817.88	1701.86
818.05	1699.81
818.22	1738.73
818.40	1800.16
818.57	1642.47
818.74	1675.24
818.91	1640.42
819.09	1755.11
819.26	1771.49
819.43	1583.08
819.60	1701.86
819.78	1822.69
819.95	1808.36
820.12	1673.19
820.29	1816.55
820.47	1824.74
820.64	1701.86
820.81	1595.37
820.98	1689.57
821.15	1771.49
821.33	1757.16
821.50	1632.23
821.67	1751.01
821.84	1628.14
822.02	1757.16
822.19	1820.64
822.36	1683.43
822.53	1699.81
822.70	1656.81
822.88	1710.05
823.05	1722.34
823.22	1759.21
823.39	1730.53
823.56	1720.29
823.74	1765.35
823.91	1613.80
824.08	1624.04
824.25	1642.47
824.42	1837.03
824.60	1681.38
824.77	1757.16
824.94	1667.05
825.11	1693.67
825.28	1636.33
825.45	1726.44
825.63	1759.21
825.80	1703.91
825.97	1718.25
826.14	1714.15
826.31	1648.61
826.48	1757.16
826.66	1632.23
826.83	1667.05
827.00	1705.96
827.17	1714.15
827.34	1753.06
827.51	1671.14
827.69	1722.34
827.86	1593.32
828.03	1763.30
828.20	1738.73
828.37	1720.29
828.54	1679.33
828.71	1697.77
828.89	1800.16
829.06	1765.35
829.23	1824.74
829.40	1687.53
829.57	1650.66
829.74	1734.63
829.91	1681.38
830.09	1636.33
830.26	1703.91
830.43	1785.83
830.60	1773.54
830.77	1705.96
830.94	1804.26
831.11	1783.78
831.28	1624.04
831.46	1802.21
831.63	1671.14
831.80	1771.49
831.97	1693.67
832.14	1669.09
832.31	1718.25
832.48	1740.77
832.65	1816.55
832.82	1705.96
832.99	1687.53
833.17	1611.75
833.34	1738.73
833.51	1796.07
833.68	1652.71
833.85	1744.87
834.02	1697.77
834.19	1654.76
834.36	1703.91
834.53	1726.44
834.70	1734.63
834.87	1751.01
835.04	1665.00
835.22	1681.38
835.39	1611.75
835.56	1644.52
835.73	1669.09
835.90	1763.30
836.07	1617.90
836.24	1773.54
836.41	1648.61
836.58	1624.04
836.75	1730.53
836.92	1695.72
837.09	1685.48
837.26	1738.73
837.43	1693.67
837.60	1757.16
837.77	1693.67
837.94	1660.90
838.12	1765.35
838.29	1619.94
838.46	1603.56
838.63	1648.61
838.80	1783.78
838.97	1697.77
839.14	1736.68
839.31	1746.92
839.48	1675.24
839.65	1738.73
839.82	1759.21
839.99	1734.63
840.16	1703.91
840.33	1679.33
840.50	1669.09
840.67	1636.33
840.84	1593.32
841.01	1724.39
841.18	1677.29
841.35	1689.57
841.52	1755.11
841.69	1849.32
841.86	1693.67
842.03	1720.29
842.20	1769.44
842.37	1697.77
842.54	1693.67
842.71	1701.86
842.88	1638.38
843.05	1742.82
843.22	1748.97
843.39	1665.00
843.56	1574.89
843.73	1765.35
843.90	1734.63
844.07	1753.06
844.24	1632.23
844.41	1740.77
844.58	1681.38
844.75	1761.25
844.92	1824.74
845.09	1673.19
845.26	1646.57
845.43	1691.62
845.60	1687.53
845.77	1740.77
845.94	1732.58
846.10	1763.30
846.27	1646.57
846.44	1673.19
846.61	1699.81
846.78	1787.88
846.95	1800.16
847.12	1650.66
847.29	1667.05
847.46	1644.52
847.63	1783.78
847.80	1673.19
847.97	1691.62
848.14	1791.97
848.31	1681.38
848.48	1681.38
848.65	1697.77
848.82	1648.61
848.98	1808.36
849.15	1804.26
849.32	1708.01
849.49	1763.30
849.66	1730.53
849.83	1714.15
850.00	1640.42
850.17	1703.91
850.34	1701.86
850.51	1650.66
850.68	1716.20
850.85	1820.64
851.01	1732.58
851.18	1736.68
851.35	1705.96
851.52	1697.77
851.69	1734.63
851.86	1642.47
852.03	1701.86
852.20	1757.16
852.37	1714.15
852.53	1617.90
852.70	1685.48
852.87	1654.76
853.04	1652.71
853.21	1730.53
853.38	1740.77
853.55	1744.87
853.72	1783.78
853.89	1646.57
854.05	1679.33
854.22	1693.67
854.39	1636.33
854.56	1697.77
854.73	1769.44
854.90	1687.53
855.07	1689.57
855.23	1665.00
855.40	1679.33
855.57	1681.38
855.74	1628.14
855.91	1865.70
856.08	1677.29
856.25	1617.90
856.41	1691.62
856.58	1658.85
856.75	1738.73
856.92	1667.05
857.09	1652.71
857.26	1697.77
857.42	1660.90
857.59	1748.97
857.76	1683.43
857.93	1812.45
858.10	1701.86
858.27	1693.67
858.43	1695.72
858.60	1628.14
858.77	1619.94
858.94	1658.85
859.11	1824.74
859.27	1658.85
859.44	1681.38
859.61	1726.44
859.78	1697.77
859.95	1703.91
860.12	1669.09
860.28	1714.15
860.45	1763.30
860.62	1697.77
860.79	1673.19
860.95	1673.19
861.12	1681.38
861.29	1632.23
861.46	1695.72
861.63	1677.29
861.79	1773.54
861.96	1802.21
862.13	1695.72
862.30	1806.31
862.47	1695.72
862.63	1654.76
862.80	1818.60
862.97	1808.36
863.14	1738.73
863.30	1759.21
863.47	1697.77
863.64	1757.16
863.81	1697.77
863.97	1615.85
864.14	1765.35
864.31	1714.15
864.48	1767.40
864.65	1689.57
864.81	1722.34
864.98	1759.21
865.15	1748.97
865.32	1716.20
865.48	1691.62
865.65	1734.63
865.82	1763.30
865.98	1748.97
866.15	1744.87
866.32	1712.10
866.49	1660.90
866.65	1804.26
866.82	1665.00
866.99	1724.39
867.16	1765.35
867.32	1708.01
867.49	1648.61
867.66	1710.05
867.83	1699.81
867.99	1632.23
868.16	1751.01
868.33	1615.85
868.49	1755.11
868.66	1662.95
868.83	1734.63
868.99	1671.14
869.16	1699.81
869.33	1820.64
869.50	1738.73
869.66	1675.24
869.83	1714.15
870.00	1556.46
870.16	1769.44
870.33	1710.05
870.50	1742.82
870.66	1636.33
870.83	1837.03
871.00	1763.30
871.17	1746.92
871.33	1753.06
871.50	1644.52
871.67	1718.25
871.83	1601.51
872.00	1767.40
872.17	1710.05
872.33	1812.45
872.50	1781.73
872.67	1757.16
872.83	1726.44
873.00	1744.87
873.17	1736.68
873.33	1773.54
873.50	1730.53
873.67	1677.29
873.83	1656.81
874.00	1658.85
874.16	1789.92
874.33	1748.97
874.50	1689.57
874.66	1703.91
874.83	1734.63
875.00	1826.79
875.16	1806.31
875.33	1722.34
875.50	1665.00
875.66	1710.05
875.83	1720.29
875.99	1753.06
876.16	1716.20
876.33	1679.33
876.49	1683.43
876.66	1755.11
876.83	1671.14
876.99	1615.85
877.16	1710.05
877.32	1736.68
877.49	1697.77
877.66	1732.58
877.82	1734.63
877.99	1691.62
878.15	1839.08
878.32	1679.33
878.49	1638.38
878.65	1667.05
878.82	1779.68
878.98	1673.19
879.15	1689.57
879.32	1787.88
879.48	1701.86
879.65	1708.01
879.81	1679.33
879.98	1673.19
880.15	1683.43
880.31	1794.02
880.48	1665.00
880.64	1775.59
880.81	1740.77
880.97	1777.64
881.14	1755.11
881.31	1722.34
881.47	1861.60
881.64	1716.20
881.80	1611.75
881.97	1744.87
882.13	1794.02
882.30	1626.09
882.47	1630.18
882.63	1660.90
882.80	1658.85
882.96	1716.20
883.13	1722.34
883.29	1693.67
883.46	1773.54
883.62	1812.45
883.79	1746.92
883.95	1744.87
884.12	1755.11
884.29	1802.21
884.45	1726.44
884.62	1777.64
884.78	1652.71
884.95	1841.12
885.11	1677.29
885.28	1695.72
885.44	1650.66
885.61	1744.87
885.77	1783.78
885.94	1675.24
886.10	1662.95
886.27	1732.58
886.43	1755.11
886.60	1771.49
886.76	1619.94
886.93	1667.05
887.09	1728.49
887.26	1644.52
887.42	1701.86
887.59	1660.90
887.75	1816.55
887.92	1787.88
888.08	1804.26
888.25	1898.47
888.41	1779.68
888.58	1724.39
888.74	1675.24
888.91	1712.10
>>>>>End Processed Spectral Data<<<<<
