SpectraSuite Data File
++++++++++++++++++++++++++++++++++++
Date: Mon Jun 06 12:16:37 CEST 2016
User: root
Dark Spectrum Present: No
Reference Spectrum Present: No
Number of Sampled Component Spectra: 1
Spectrometers: USB4C02835
Integration Time (usec): 100000 (USB4C02835)
Spectra Averaged: 1 (USB4C02835)
Boxcar Smoothing: 0 (USB4C02835)
Correct for Electrical Dark: No (USB4C02835)
Strobe/Lamp Enabled: No (USB4C02835)
Correct for Detector Non-linearity: No (USB4C02835)
Correct for Stray Light: No (USB4C02835)
Number of Pixels in Processed Spectrum: 3648
>>>>>Begin Processed Spectral Data<<<<<
177.47	1417.19
177.69	1417.19
177.91	1417.19
178.13	1486.83
178.36	1484.78
178.58	1685.48
178.80	1695.72
179.02	1642.47
179.24	1548.26
179.46	1703.91
179.68	1714.15
179.90	1701.86
180.13	1652.71
180.35	1615.85
180.57	1624.04
180.79	1767.40
181.01	1642.47
181.23	1757.16
181.45	1800.16
181.67	1685.48
181.90	1679.33
182.12	1621.99
182.34	1665.00
182.56	1789.92
182.78	1697.77
183.00	1679.33
183.22	1601.51
183.44	1599.46
183.66	1914.85
183.89	1697.77
184.11	1738.73
184.33	1796.07
184.55	1781.73
184.77	1675.24
184.99	1714.15
185.21	1615.85
185.43	1802.21
185.65	1642.47
185.87	1705.96
186.10	1685.48
186.32	1771.49
186.54	1640.42
186.76	1652.71
186.98	1701.86
187.20	1699.81
187.42	1630.18
187.64	1734.63
187.86	1742.82
188.08	1759.21
188.30	1679.33
188.52	1697.77
188.75	1771.49
188.97	1736.68
189.19	1593.32
189.41	1716.20
189.63	1722.34
189.85	1716.20
190.07	1665.00
190.29	1609.70
190.51	1748.97
190.73	1603.56
190.95	1751.01
191.17	1742.82
191.39	1589.22
191.61	1726.44
191.84	1724.39
192.06	1712.10
192.28	1693.67
192.50	1832.93
192.72	1710.05
192.94	1640.42
193.16	1759.21
193.38	1632.23
193.60	1642.47
193.82	1677.29
194.04	1771.49
194.26	1689.57
194.48	1689.57
194.70	1722.34
194.92	1675.24
195.14	1724.39
195.36	1570.79
195.58	1710.05
195.80	1681.38
196.02	1699.81
196.24	1644.52
196.46	1779.68
196.69	1667.05
196.91	1769.44
197.13	1673.19
197.35	1646.57
197.57	1775.59
197.79	1757.16
198.01	1724.39
198.23	1738.73
198.45	1742.82
198.67	1626.09
198.89	1748.97
199.11	1681.38
199.33	1613.80
199.55	1621.99
199.77	1714.15
199.99	1767.40
200.21	1644.52
200.43	1601.51
200.65	1630.18
200.87	1607.66
201.09	1728.49
201.31	1597.42
201.53	1726.44
201.75	1705.96
201.97	1619.94
202.19	1648.61
202.41	1689.57
202.63	1746.92
202.85	1716.20
203.07	1673.19
203.29	1726.44
203.51	1734.63
203.73	1693.67
203.95	1847.27
204.17	1660.90
204.39	1699.81
204.61	1697.77
204.83	1626.09
205.05	1757.16
205.27	1777.64
205.49	1900.52
205.71	1662.95
205.93	1636.33
206.15	1669.09
206.37	1638.38
206.59	1775.59
206.81	1576.94
207.03	1605.61
207.25	1652.71
207.47	1722.34
207.69	1677.29
207.91	1791.97
208.13	1681.38
208.34	1689.57
208.56	1671.14
208.78	1716.20
209.00	1660.90
209.22	1662.95
209.44	1699.81
209.66	1703.91
209.88	1718.25
210.10	1697.77
210.32	1701.86
210.54	1787.88
210.76	1640.42
210.98	1771.49
211.20	1552.36
211.42	1691.62
211.64	1742.82
211.86	1695.72
212.08	1794.02
212.30	1667.05
212.52	1705.96
212.74	1730.53
212.96	1753.06
213.17	1773.54
213.39	1753.06
213.61	1802.21
213.83	1691.62
214.05	1619.94
214.27	1722.34
214.49	1660.90
214.71	1624.04
214.93	1748.97
215.15	1732.58
215.37	1720.29
215.59	1658.85
215.81	1701.86
216.03	1759.21
216.24	1667.05
216.46	1650.66
216.68	1597.42
216.90	1794.02
217.12	1761.25
217.34	1714.15
217.56	1714.15
217.78	1689.57
218.00	1681.38
218.22	1689.57
218.44	1712.10
218.66	1716.20
218.87	1789.92
219.09	1669.09
219.31	1673.19
219.53	1765.35
219.75	1624.04
219.97	1603.56
220.19	1652.71
220.41	1656.81
220.63	1751.01
220.85	1738.73
221.06	1621.99
221.28	1763.30
221.50	1740.77
221.72	1681.38
221.94	1697.77
222.16	1644.52
222.38	1748.97
222.60	1753.06
222.82	1691.62
223.03	1718.25
223.25	1665.00
223.47	1714.15
223.69	1800.16
223.91	1718.25
224.13	1640.42
224.35	1646.57
224.57	1787.88
224.78	1734.63
225.00	1658.85
225.22	1730.53
225.44	1697.77
225.66	1763.30
225.88	1689.57
226.10	1734.63
226.32	1636.33
226.53	1785.83
226.75	1626.09
226.97	1644.52
227.19	1724.39
227.41	1726.44
227.63	1658.85
227.85	1662.95
228.06	1773.54
228.28	1726.44
228.50	1730.53
228.72	1611.75
228.94	1697.77
229.16	1667.05
229.37	1632.23
229.59	1693.67
229.81	1751.01
230.03	1607.66
230.25	1574.89
230.47	1705.96
230.69	1566.70
230.90	1708.01
231.12	1662.95
231.34	1685.48
231.56	1730.53
231.78	1699.81
232.00	1667.05
232.21	1697.77
232.43	1667.05
232.65	1624.04
232.87	1757.16
233.09	1648.61
233.30	1654.76
233.52	1660.90
233.74	1695.72
233.96	1677.29
234.18	1736.68
234.40	1716.20
234.61	1781.73
234.83	1681.38
235.05	1634.28
235.27	1761.25
235.49	1740.77
235.70	1703.91
235.92	1724.39
236.14	1716.20
236.36	1759.21
236.58	1607.66
236.79	1710.05
237.01	1705.96
237.23	1609.70
237.45	1804.26
237.67	1763.30
237.88	1736.68
238.10	1785.83
238.32	1675.24
238.54	1644.52
238.76	1636.33
238.97	1632.23
239.19	1654.76
239.41	1740.77
239.63	1726.44
239.85	1669.09
240.06	1658.85
240.28	1665.00
240.50	1757.16
240.72	1665.00
240.93	1673.19
241.15	1816.55
241.37	1628.14
241.59	1710.05
241.81	1640.42
242.02	1624.04
242.24	1675.24
242.46	1767.40
242.68	1636.33
242.89	1736.68
243.11	1763.30
243.33	1660.90
243.55	1656.81
243.76	1769.44
243.98	1662.95
244.20	1705.96
244.42	1746.92
244.64	1742.82
244.85	1679.33
245.07	1570.79
245.29	1767.40
245.51	1734.63
245.72	1675.24
245.94	1732.58
246.16	1693.67
246.38	1681.38
246.59	1722.34
246.81	1630.18
247.03	1679.33
247.24	1642.47
247.46	1617.90
247.68	1697.77
247.90	1662.95
248.11	1662.95
248.33	1720.29
248.55	1650.66
248.77	1679.33
248.98	1718.25
249.20	1761.25
249.42	1720.29
249.64	1675.24
249.85	1640.42
250.07	1587.18
250.29	1716.20
250.50	1746.92
250.72	1593.32
250.94	1712.10
251.16	1822.69
251.37	1689.57
251.59	1722.34
251.81	1730.53
252.02	1769.44
252.24	1642.47
252.46	1716.20
252.68	1636.33
252.89	1685.48
253.11	1605.61
253.33	1791.97
253.54	1775.59
253.76	1617.90
253.98	1665.00
254.20	1675.24
254.41	1662.95
254.63	1681.38
254.85	1705.96
255.06	1726.44
255.28	1710.05
255.50	1751.01
255.71	1628.14
255.93	1628.14
256.15	1619.94
256.36	1667.05
256.58	1626.09
256.80	1746.92
257.02	1705.96
257.23	1667.05
257.45	1746.92
257.67	1701.86
257.88	1646.57
258.10	1757.16
258.32	1640.42
258.53	1730.53
258.75	1746.92
258.97	1656.81
259.18	1632.23
259.40	1789.92
259.62	1751.01
259.83	1794.02
260.05	1789.92
260.27	2045.92
260.48	1759.21
260.70	1656.81
260.92	1695.72
261.13	1673.19
261.35	1693.67
261.57	1701.86
261.78	1595.37
262.00	1677.29
262.22	1660.90
262.43	1687.53
262.65	1671.14
262.86	1689.57
263.08	1771.49
263.30	1759.21
263.51	1634.28
263.73	1683.43
263.95	1673.19
264.16	1632.23
264.38	1669.09
264.60	1685.48
264.81	1619.94
265.03	1669.09
265.25	1642.47
265.46	1705.96
265.68	1759.21
265.89	1720.29
266.11	1572.84
266.33	1757.16
266.54	1734.63
266.76	1701.86
266.98	1732.58
267.19	1824.74
267.41	1726.44
267.62	1636.33
267.84	1521.64
268.06	1734.63
268.27	1726.44
268.49	1697.77
268.70	1726.44
268.92	1705.96
269.14	1581.03
269.35	1632.23
269.57	1683.43
269.79	1705.96
270.00	1673.19
270.22	1728.49
270.43	1624.04
270.65	1599.46
270.87	1669.09
271.08	1628.14
271.30	1759.21
271.51	1755.11
271.73	1681.38
271.95	1738.73
272.16	1724.39
272.38	1714.15
272.59	1658.85
272.81	1708.01
273.02	1724.39
273.24	1734.63
273.46	1800.16
273.67	1699.81
273.89	1605.61
274.10	1718.25
274.32	1736.68
274.54	1716.20
274.75	1740.77
274.97	1669.09
275.18	1787.88
275.40	1730.53
275.61	1730.53
275.83	1755.11
276.05	1699.81
276.26	1722.34
276.48	1734.63
276.69	1714.15
276.91	1708.01
277.12	1781.73
277.34	1767.40
277.55	1722.34
277.77	1619.94
277.99	1757.16
278.20	1642.47
278.42	1640.42
278.63	1673.19
278.85	1677.29
279.06	1730.53
279.28	1724.39
279.49	1720.29
279.71	1712.10
279.93	1705.96
280.14	1683.43
280.36	1646.57
280.57	1746.92
280.79	1685.48
281.00	1658.85
281.22	1683.43
281.43	1759.21
281.65	1576.94
281.86	1578.98
282.08	1734.63
282.29	1804.26
282.51	1581.03
282.73	1638.38
282.94	1576.94
283.16	1775.59
283.37	1730.53
283.59	1734.63
283.80	1703.91
284.02	1642.47
284.23	1781.73
284.45	1687.53
284.66	1685.48
284.88	1660.90
285.09	1703.91
285.31	1697.77
285.52	1755.11
285.74	1593.32
285.95	1730.53
286.17	1701.86
286.38	1773.54
286.60	1679.33
286.81	1654.76
287.03	1705.96
287.24	1736.68
287.46	1714.15
287.67	1730.53
287.89	1791.97
288.10	1738.73
288.32	1722.34
288.53	1746.92
288.75	1673.19
288.96	1744.87
289.18	1646.57
289.39	1714.15
289.61	1763.30
289.82	1789.92
290.04	1816.55
290.25	1621.99
290.47	1679.33
290.68	1699.81
290.90	1753.06
291.11	1591.27
291.33	1834.98
291.54	1617.90
291.76	1654.76
291.97	1724.39
292.18	1724.39
292.40	1675.24
292.61	1693.67
292.83	1853.41
293.04	1763.30
293.26	1734.63
293.47	1705.96
293.69	1621.99
293.90	1693.67
294.12	1828.84
294.33	1691.62
294.55	1662.95
294.76	1742.82
294.97	1761.25
295.19	1742.82
295.40	1679.33
295.62	1734.63
295.83	1720.29
296.05	1615.85
296.26	1718.25
296.48	1693.67
296.69	1669.09
296.90	1624.04
297.12	1705.96
297.33	1773.54
297.55	1675.24
297.76	1744.87
297.98	1751.01
298.19	1703.91
298.41	1681.38
298.62	1708.01
298.83	1789.92
299.05	1701.86
299.26	1621.99
299.48	1650.66
299.69	1710.05
299.90	1746.92
300.12	1660.90
300.33	1656.81
300.55	1654.76
300.76	1714.15
300.98	1652.71
301.19	1705.96
301.40	1703.91
301.62	1607.66
301.83	1673.19
302.05	1728.49
302.26	1710.05
302.47	1779.68
302.69	1601.51
302.90	1730.53
303.12	1572.84
303.33	1722.34
303.54	1810.40
303.76	1675.24
303.97	1724.39
304.19	1771.49
304.40	1611.75
304.61	1675.24
304.83	1822.69
305.04	1787.88
305.26	1710.05
305.47	1712.10
305.68	1675.24
305.90	1656.81
306.11	1683.43
306.33	1726.44
306.54	1673.19
306.75	1697.77
306.97	1644.52
307.18	1574.89
307.39	1669.09
307.61	1697.77
307.82	1716.20
308.04	1701.86
308.25	1644.52
308.46	1736.68
308.68	1689.57
308.89	1722.34
309.10	1783.78
309.32	1691.62
309.53	1771.49
309.74	1667.05
309.96	1597.42
310.17	1759.21
310.39	1638.38
310.60	1673.19
310.81	1642.47
311.03	1609.70
311.24	1660.90
311.45	1693.67
311.67	1701.86
311.88	1710.05
312.09	1720.29
312.31	1634.28
312.52	1658.85
312.73	1673.19
312.95	1630.18
313.16	1640.42
313.37	1779.68
313.59	1693.67
313.80	1775.59
314.01	1834.98
314.23	1626.09
314.44	1695.72
314.65	1654.76
314.87	1705.96
315.08	1656.81
315.29	1660.90
315.51	1708.01
315.72	1619.94
315.93	1781.73
316.15	1796.07
316.36	1669.09
316.57	1781.73
316.79	1765.35
317.00	1705.96
317.21	1720.29
317.43	1677.29
317.64	1634.28
317.85	1636.33
318.07	1617.90
318.28	1660.90
318.49	1771.49
318.70	1902.56
318.92	1779.68
319.13	1820.64
319.34	1818.60
319.56	1783.78
319.77	1781.73
319.98	1783.78
320.20	1732.58
320.41	1748.97
320.62	1675.24
320.83	1742.82
321.05	1796.07
321.26	1804.26
321.47	1748.97
321.69	1849.32
321.90	1673.19
322.11	1642.47
322.32	1769.44
322.54	1798.12
322.75	1738.73
322.96	1767.40
323.18	1599.46
323.39	1638.38
323.60	1654.76
323.81	1722.34
324.03	1669.09
324.24	1691.62
324.45	1601.51
324.66	1699.81
324.88	1724.39
325.09	1791.97
325.30	1636.33
325.52	1687.53
325.73	1671.14
325.94	1652.71
326.15	1617.90
326.37	1673.19
326.58	1714.15
326.79	1839.08
327.00	1601.51
327.22	1718.25
327.43	1767.40
327.64	1710.05
327.85	1724.39
328.07	1732.58
328.28	1798.12
328.49	1634.28
328.70	1665.00
328.92	1708.01
329.13	1599.46
329.34	1732.58
329.55	1765.35
329.76	1716.20
329.98	1703.91
330.19	1732.58
330.40	1748.97
330.61	1683.43
330.83	1751.01
331.04	1617.90
331.25	1716.20
331.46	1665.00
331.68	1619.94
331.89	1728.49
332.10	1656.81
332.31	1665.00
332.52	1712.10
332.74	1724.39
332.95	1683.43
333.16	1699.81
333.37	1693.67
333.58	1644.52
333.80	1697.77
334.01	1587.18
334.22	1619.94
334.43	1632.23
334.64	1671.14
334.86	1648.61
335.07	1630.18
335.28	1724.39
335.49	1611.75
335.70	1710.05
335.92	1746.92
336.13	1869.80
336.34	1669.09
336.55	1658.85
336.76	1685.48
336.98	1621.99
337.19	1703.91
337.40	1783.78
337.61	1841.12
337.82	1691.62
338.04	1759.21
338.25	1624.04
338.46	1658.85
338.67	1714.15
338.88	1677.29
339.09	1705.96
339.31	1652.71
339.52	1613.80
339.73	1568.74
339.94	1726.44
340.15	1730.53
340.36	1736.68
340.58	1701.86
340.79	1665.00
341.00	1736.68
341.21	1607.66
341.42	1785.83
341.63	1626.09
341.85	1705.96
342.06	1642.47
342.27	1673.19
342.48	1720.29
342.69	1656.81
342.90	1669.09
343.12	1769.44
343.33	1650.66
343.54	1753.06
343.75	1716.20
343.96	1681.38
344.17	1697.77
344.38	1720.29
344.60	1660.90
344.81	1619.94
345.02	1648.61
345.23	1804.26
345.44	1736.68
345.65	1742.82
345.86	1699.81
346.07	1712.10
346.29	1648.61
346.50	1689.57
346.71	1656.81
346.92	1714.15
347.13	1857.51
347.34	1697.77
347.55	1781.73
347.76	1755.11
347.98	1609.70
348.19	1708.01
348.40	1740.77
348.61	1667.05
348.82	1798.12
349.03	1744.87
349.24	1683.43
349.45	1828.84
349.66	1624.04
349.88	1593.32
350.09	1677.29
350.30	1705.96
350.51	1691.62
350.72	1695.72
350.93	1671.14
351.14	1626.09
351.35	1658.85
351.56	1769.44
351.77	1693.67
351.99	1687.53
352.20	1816.55
352.41	1800.16
352.62	1634.28
352.83	1699.81
353.04	1736.68
353.25	1634.28
353.46	1757.16
353.67	1677.29
353.88	1574.89
354.09	1693.67
354.30	1730.53
354.52	1646.57
354.73	1658.85
354.94	1583.08
355.15	1611.75
355.36	1824.74
355.57	1656.81
355.78	1679.33
355.99	1644.52
356.20	1654.76
356.41	1691.62
356.62	1701.86
356.83	1689.57
357.04	1734.63
357.25	1583.08
357.46	1624.04
357.68	1583.08
357.89	1613.80
358.10	1656.81
358.31	1697.77
358.52	1705.96
358.73	1595.37
358.94	1718.25
359.15	1722.34
359.36	1665.00
359.57	1660.90
359.78	1689.57
359.99	1673.19
360.20	1650.66
360.41	1746.92
360.62	1648.61
360.83	1726.44
361.04	1789.92
361.25	1665.00
361.46	1783.78
361.67	1826.79
361.88	1724.39
362.09	1691.62
362.30	1730.53
362.51	1654.76
362.72	1650.66
362.93	1761.25
363.14	1765.35
363.35	1677.29
363.56	1656.81
363.78	1761.25
363.99	1765.35
364.20	1718.25
364.41	1759.21
364.62	1820.64
364.83	1691.62
365.04	1736.68
365.25	1695.72
365.46	1808.36
365.67	1685.48
365.88	1650.66
366.09	1615.85
366.30	1658.85
366.51	1634.28
366.72	1638.38
366.93	1646.57
367.14	1718.25
367.35	1708.01
367.56	1769.44
367.77	1777.64
367.98	1732.58
368.18	1765.35
368.39	1781.73
368.60	1615.85
368.81	1730.53
369.02	1683.43
369.23	1687.53
369.44	1662.95
369.65	1628.14
369.86	1708.01
370.07	1767.40
370.28	1652.71
370.49	1783.78
370.70	1685.48
370.91	1675.24
371.12	1611.75
371.33	1771.49
371.54	1665.00
371.75	1820.64
371.96	1609.70
372.17	1667.05
372.38	1712.10
372.59	1769.44
372.80	1699.81
373.01	1687.53
373.22	1732.58
373.43	1697.77
373.64	1650.66
373.85	1693.67
374.06	1755.11
374.26	1755.11
374.47	1705.96
374.68	1742.82
374.89	1703.91
375.10	1642.47
375.31	1712.10
375.52	1658.85
375.73	1708.01
375.94	1660.90
376.15	1744.87
376.36	1640.42
376.57	1615.85
376.78	1658.85
376.99	1806.31
377.20	1791.97
377.40	1763.30
377.61	1806.31
377.82	1642.47
378.03	1738.73
378.24	1804.26
378.45	1638.38
378.66	1689.57
378.87	1560.55
379.08	1593.32
379.29	1705.96
379.50	1755.11
379.71	1705.96
379.91	1796.07
380.12	1716.20
380.33	1689.57
380.54	1703.91
380.75	1677.29
380.96	1710.05
381.17	1685.48
381.38	1675.24
381.59	1703.91
381.80	1718.25
382.00	1812.45
382.21	1796.07
382.42	1791.97
382.63	1857.51
382.84	1738.73
383.05	1759.21
383.26	1794.02
383.47	1665.00
383.68	1769.44
383.88	1742.82
384.09	1724.39
384.30	1845.22
384.51	1687.53
384.72	1687.53
384.93	1630.18
385.14	1687.53
385.35	1671.14
385.55	1652.71
385.76	1761.25
385.97	1726.44
386.18	1603.56
386.39	1624.04
386.60	1665.00
386.81	1720.29
387.02	1652.71
387.22	1648.61
387.43	1693.67
387.64	1761.25
387.85	1886.18
388.06	2158.56
388.27	4286.40
388.48	6817.69
388.68	8411.01
388.89	9654.12
389.10	9875.31
389.31	8820.60
389.52	7714.70
389.73	6719.39
389.93	6309.79
390.14	5990.31
390.35	5269.42
390.56	4548.54
390.77	3827.65
390.98	3037.14
391.18	2543.58
391.39	2136.03
391.60	1865.70
391.81	1826.79
392.02	1701.86
392.23	1861.60
392.43	1732.58
392.64	1818.60
392.85	1703.91
393.06	1755.11
393.27	1660.90
393.47	1636.33
393.68	1648.61
393.89	1615.85
394.10	1726.44
394.31	1701.86
394.52	1703.91
394.72	1679.33
394.93	1732.58
395.14	1675.24
395.35	1724.39
395.56	1671.14
395.76	1693.67
395.97	1759.21
396.18	1796.07
396.39	1877.99
396.60	2021.35
396.80	1865.70
397.01	1742.82
397.22	1767.40
397.43	1849.32
397.64	1652.71
397.84	1761.25
398.05	1777.64
398.26	1638.38
398.47	1806.31
398.67	1751.01
398.88	1724.39
399.09	1708.01
399.30	1677.29
399.51	1765.35
399.71	1654.76
399.92	1724.39
400.13	1732.58
400.34	1814.50
400.54	1669.09
400.75	1763.30
400.96	1757.16
401.17	1830.88
401.37	1757.16
401.58	1669.09
401.79	1658.85
402.00	1779.68
402.21	1966.05
402.41	1972.19
402.62	1998.82
402.83	2015.20
403.04	1957.86
403.24	2054.11
403.45	1888.23
403.66	1824.74
403.87	1849.32
404.07	1914.85
404.28	1867.75
404.49	1863.65
404.70	1714.15
404.90	1757.16
405.11	1689.57
405.32	1736.68
405.52	1628.14
405.73	1619.94
405.94	1644.52
406.15	1658.85
406.35	1673.19
406.56	1804.26
406.77	1697.77
406.98	1730.53
407.18	1656.81
407.39	1755.11
407.60	1685.48
407.80	1734.63
408.01	1638.38
408.22	1689.57
408.43	1665.00
408.63	1728.49
408.84	1726.44
409.05	1769.44
409.25	1613.80
409.46	1599.46
409.67	1724.39
409.88	1648.61
410.08	1699.81
410.29	1693.67
410.50	1718.25
410.70	1712.10
410.91	1705.96
411.12	1687.53
411.32	1746.92
411.53	1716.20
411.74	1816.55
411.95	1796.07
412.15	1800.16
412.36	1748.97
412.57	1634.28
412.77	1804.26
412.98	1708.01
413.19	1636.33
413.39	1689.57
413.60	1720.29
413.81	1877.99
414.01	1697.77
414.22	1724.39
414.43	1746.92
414.63	1656.81
414.84	1812.45
415.05	1744.87
415.25	1591.27
415.46	1710.05
415.67	1673.19
415.87	1779.68
416.08	1753.06
416.29	1624.04
416.49	1748.97
416.70	1642.47
416.91	1658.85
417.11	1640.42
417.32	1693.67
417.53	1697.77
417.73	1722.34
417.94	1724.39
418.15	1658.85
418.35	1685.48
418.56	1691.62
418.77	1810.40
418.97	1671.14
419.18	1607.66
419.38	1572.84
419.59	1654.76
419.80	1759.21
420.00	1708.01
420.21	1742.82
420.42	1740.77
420.62	1648.61
420.83	1705.96
421.04	1603.56
421.24	1660.90
421.45	1828.84
421.65	1722.34
421.86	1628.14
422.07	1695.72
422.27	1771.49
422.48	1722.34
422.69	1648.61
422.89	1687.53
423.10	1703.91
423.30	1591.27
423.51	1718.25
423.72	1755.11
423.92	1763.30
424.13	1593.32
424.33	1751.01
424.54	1728.49
424.75	1619.94
424.95	1800.16
425.16	1673.19
425.36	1685.48
425.57	1814.50
425.78	1814.50
425.98	1708.01
426.19	1685.48
426.39	1699.81
426.60	1728.49
426.81	1804.26
427.01	1773.54
427.22	1605.61
427.42	1589.22
427.63	1636.33
427.83	1710.05
428.04	1826.79
428.25	1773.54
428.45	1757.16
428.66	1728.49
428.86	1673.19
429.07	1679.33
429.28	1697.77
429.48	1675.24
429.69	1605.61
429.89	1724.39
430.10	1613.80
430.30	1746.92
430.51	1736.68
430.71	1640.42
430.92	1716.20
431.13	1701.86
431.33	1787.88
431.54	1771.49
431.74	1818.60
431.95	1853.41
432.15	1734.63
432.36	1748.97
432.56	1746.92
432.77	1779.68
432.98	1837.03
433.18	1736.68
433.39	1673.19
433.59	1683.43
433.80	1828.84
434.00	1789.92
434.21	1714.15
434.41	1648.61
434.62	1808.36
434.82	1570.79
435.03	1660.90
435.23	1699.81
435.44	1581.03
435.64	1734.63
435.85	1755.11
436.06	1771.49
436.26	1730.53
436.47	1689.57
436.67	1665.00
436.88	1656.81
437.08	1712.10
437.29	1708.01
437.49	1679.33
437.70	1712.10
437.90	1757.16
438.11	1794.02
438.31	1755.11
438.52	1841.12
438.72	1865.70
438.93	1935.33
439.13	1810.40
439.34	1779.68
439.54	1837.03
439.75	1806.31
439.95	1753.06
440.16	1650.66
440.36	1742.82
440.57	1718.25
440.77	1781.73
440.98	1716.20
441.18	1755.11
441.39	1699.81
441.59	1708.01
441.80	1841.12
442.00	1769.44
442.21	1730.53
442.41	1691.62
442.62	1746.92
442.82	1683.43
443.02	1652.71
443.23	1767.40
443.43	1650.66
443.64	1865.70
443.84	1748.97
444.05	1820.64
444.25	1726.44
444.46	1683.43
444.66	1720.29
444.87	1822.69
445.07	1611.75
445.28	1738.73
445.48	1781.73
445.69	1763.30
445.89	1820.64
446.09	1728.49
446.30	2004.96
446.50	2666.46
446.71	3747.78
446.91	4333.50
447.12	4726.71
447.32	4827.06
447.53	4208.58
447.73	3934.15
447.93	3483.59
448.14	3362.76
448.34	3231.69
448.55	2834.39
448.75	2820.05
448.96	2770.90
449.16	2410.46
449.36	2355.16
449.57	2031.58
449.77	1933.28
449.98	1789.92
450.18	1804.26
450.39	1767.40
450.59	1761.25
450.79	1714.15
451.00	1687.53
451.20	1734.63
451.41	1779.68
451.61	1742.82
451.81	1755.11
452.02	1710.05
452.22	1718.25
452.43	1730.53
452.63	1681.38
452.84	1734.63
453.04	1654.76
453.24	1728.49
453.45	1712.10
453.65	1685.48
453.86	1755.11
454.06	1720.29
454.26	1789.92
454.47	1679.33
454.67	1751.01
454.87	1714.15
455.08	1718.25
455.28	1820.64
455.49	1716.20
455.69	1689.57
455.89	1775.59
456.10	1814.50
456.30	1667.05
456.51	1744.87
456.71	1730.53
456.91	1695.72
457.12	1632.23
457.32	1705.96
457.52	1644.52
457.73	1708.01
457.93	1781.73
458.14	1708.01
458.34	1691.62
458.54	1757.16
458.75	1683.43
458.95	1826.79
459.15	1808.36
459.36	1705.96
459.56	1777.64
459.76	1814.50
459.97	1724.39
460.17	1726.44
460.37	1826.79
460.58	1742.82
460.78	1794.02
460.99	1650.66
461.19	1636.33
461.39	1669.09
461.60	1695.72
461.80	1753.06
462.00	1787.88
462.21	1804.26
462.41	1648.61
462.61	1677.29
462.82	1605.61
463.02	1771.49
463.22	1722.34
463.43	1902.56
463.63	1669.09
463.83	1826.79
464.04	1779.68
464.24	1796.07
464.44	1648.61
464.64	1730.53
464.85	1710.05
465.05	1765.35
465.25	1705.96
465.46	1705.96
465.66	1740.77
465.86	1728.49
466.07	1769.44
466.27	1708.01
466.47	1665.00
466.68	1671.14
466.88	1763.30
467.08	1730.53
467.29	1757.16
467.49	1753.06
467.69	1632.23
467.89	1753.06
468.10	1724.39
468.30	1763.30
468.50	1755.11
468.71	1877.99
468.91	1638.38
469.11	1771.49
469.31	1730.53
469.52	1603.56
469.72	1783.78
469.92	1789.92
470.13	1656.81
470.33	1726.44
470.53	1746.92
470.73	2172.89
470.94	2303.96
471.14	2316.25
471.34	2564.06
471.54	2418.65
471.75	2174.94
471.95	2189.28
472.15	2070.50
472.36	2050.02
472.56	2101.22
472.76	2052.06
472.96	1988.58
473.17	1904.61
473.37	1941.47
473.57	1740.77
473.77	1773.54
473.98	1685.48
474.18	1703.91
474.38	1871.84
474.58	1714.15
474.79	1705.96
474.99	1751.01
475.19	1830.88
475.39	1611.75
475.60	1695.72
475.80	1722.34
476.00	1732.58
476.20	1576.94
476.41	1701.86
476.61	1822.69
476.81	1708.01
477.01	1638.38
477.21	1781.73
477.42	1806.31
477.62	1736.68
477.82	1705.96
478.02	1640.42
478.23	1779.68
478.43	1648.61
478.63	1679.33
478.83	1701.86
479.03	1679.33
479.24	1785.83
479.44	1753.06
479.64	1667.05
479.84	1583.08
480.04	1710.05
480.25	1738.73
480.45	1712.10
480.65	1734.63
480.85	1787.88
481.06	1681.38
481.26	1720.29
481.46	1771.49
481.66	1699.81
481.86	1722.34
482.06	1763.30
482.27	1648.61
482.47	1695.72
482.67	1687.53
482.87	1701.86
483.07	1732.58
483.28	1718.25
483.48	1654.76
483.68	1703.91
483.88	1644.52
484.08	1628.14
484.29	1656.81
484.49	1771.49
484.69	1611.75
484.89	1773.54
485.09	1744.87
485.29	1763.30
485.50	1732.58
485.70	1695.72
485.90	1796.07
486.10	1710.05
486.30	1699.81
486.50	1771.49
486.71	1746.92
486.91	1726.44
487.11	1783.78
487.31	1611.75
487.51	1693.67
487.71	1644.52
487.91	1681.38
488.12	1687.53
488.32	1652.71
488.52	1658.85
488.72	1634.28
488.92	1699.81
489.12	1730.53
489.32	1865.70
489.53	1748.97
489.73	1609.70
489.93	1742.82
490.13	1697.77
490.33	1560.55
490.53	1697.77
490.73	1826.79
490.94	1638.38
491.14	1753.06
491.34	1947.62
491.54	2148.32
491.74	2611.16
491.94	2877.40
492.14	2959.31
492.34	3065.81
492.54	2824.15
492.75	2402.27
492.95	2422.75
493.15	2303.96
493.35	2308.06
493.55	2236.38
493.75	2166.75
493.95	2123.74
494.15	2072.54
494.35	1873.89
494.56	1904.61
494.76	1748.97
494.96	1761.25
495.16	1787.88
495.36	1736.68
495.56	1705.96
495.76	1708.01
495.96	1748.97
496.16	1734.63
496.36	1822.69
496.56	1685.48
496.77	1689.57
496.97	1722.34
497.17	1796.07
497.37	1611.75
497.57	1796.07
497.77	1757.16
497.97	1636.33
498.17	1773.54
498.37	1710.05
498.57	1767.40
498.77	1789.92
498.97	1789.92
499.17	1916.90
499.38	1746.92
499.58	1699.81
499.78	1742.82
499.98	1814.50
500.18	1628.14
500.38	1679.33
500.58	1935.33
500.78	2584.54
500.98	4679.61
501.18	5849.00
501.38	6922.13
501.58	7182.23
501.78	6653.85
501.98	5543.85
502.18	5001.14
502.38	4343.74
502.58	4108.23
502.78	3717.06
502.98	3567.56
503.18	3499.98
503.38	3121.10
503.59	2775.00
503.79	2717.65
503.99	2510.81
504.19	2406.36
504.39	2197.47
504.59	2201.57
504.79	2193.37
504.99	2052.06
505.19	1896.42
505.39	1837.03
505.59	1947.62
505.79	2011.11
505.99	1834.98
506.19	1730.53
506.39	1906.66
506.59	1712.10
506.79	1761.25
506.99	1783.78
507.19	1740.77
507.39	1722.34
507.59	1748.97
507.79	1652.71
507.99	1724.39
508.19	1679.33
508.39	1759.21
508.59	1693.67
508.79	1771.49
508.99	1834.98
509.19	1689.57
509.39	1748.97
509.59	1673.19
509.79	1667.05
509.99	1732.58
510.19	1726.44
510.39	1732.58
510.59	1734.63
510.79	1634.28
510.99	1720.29
511.19	1697.77
511.39	1798.12
511.59	1714.15
511.79	1822.69
511.99	1763.30
512.19	1761.25
512.38	1695.72
512.58	1687.53
512.78	1667.05
512.98	1701.86
513.18	1787.88
513.38	1630.18
513.58	1703.91
513.78	1738.73
513.98	1728.49
514.18	1712.10
514.38	1677.29
514.58	1783.78
514.78	1683.43
514.98	1738.73
515.18	1755.11
515.38	1665.00
515.58	1794.02
515.78	1689.57
515.98	1751.01
516.18	1755.11
516.38	1710.05
516.57	1730.53
516.77	1718.25
516.97	1759.21
517.17	1689.57
517.37	1593.32
517.57	1787.88
517.77	1673.19
517.97	1689.57
518.17	1794.02
518.37	1648.61
518.57	1619.94
518.77	1650.66
518.97	1771.49
519.16	1722.34
519.36	1767.40
519.56	1751.01
519.76	1714.15
519.96	1732.58
520.16	1865.70
520.36	1689.57
520.56	1791.97
520.76	1714.15
520.96	1710.05
521.16	1834.98
521.35	1826.79
521.55	1812.45
521.75	1681.38
521.95	1740.77
522.15	1667.05
522.35	1601.51
522.55	1699.81
522.75	1748.97
522.95	1652.71
523.14	1687.53
523.34	1804.26
523.54	1646.57
523.74	1742.82
523.94	1748.97
524.14	1726.44
524.34	1705.96
524.54	1761.25
524.73	1730.53
524.93	1834.98
525.13	1753.06
525.33	1658.85
525.53	1849.32
525.73	1685.48
525.93	1714.15
526.13	1714.15
526.32	1679.33
526.52	1804.26
526.72	1701.86
526.92	1689.57
527.12	1720.29
527.32	1630.18
527.52	1718.25
527.71	1798.12
527.91	1689.57
528.11	1619.94
528.31	1667.05
528.51	1675.24
528.71	1789.92
528.90	1748.97
529.10	1753.06
529.30	1712.10
529.50	1581.03
529.70	1650.66
529.90	1691.62
530.09	1759.21
530.29	1673.19
530.49	1695.72
530.69	1855.46
530.89	1732.58
531.09	1839.08
531.28	1693.67
531.48	1796.07
531.68	1699.81
531.88	1716.20
532.08	1751.01
532.28	1677.29
532.47	1794.02
532.67	1748.97
532.87	1681.38
533.07	1691.62
533.27	1746.92
533.46	1746.92
533.66	1673.19
533.86	1681.38
534.06	1744.87
534.26	1699.81
534.45	1630.18
534.65	1828.84
534.85	1681.38
535.05	1669.09
535.25	1738.73
535.44	1691.62
535.64	1718.25
535.84	1730.53
536.04	1599.46
536.24	1673.19
536.43	1718.25
536.63	1804.26
536.83	1759.21
537.03	1736.68
537.22	1619.94
537.42	1619.94
537.62	1718.25
537.82	1714.15
538.02	1816.55
538.21	1765.35
538.41	1816.55
538.61	1757.16
538.81	1734.63
539.00	1798.12
539.20	1609.70
539.40	1648.61
539.60	1685.48
539.79	1820.64
539.99	1744.87
540.19	1718.25
540.39	1734.63
540.58	1746.92
540.78	1804.26
540.98	1697.77
541.18	1763.30
541.37	1810.40
541.57	1703.91
541.77	1759.21
541.97	1662.95
542.16	1703.91
542.36	1763.30
542.56	1650.66
542.76	1857.51
542.95	1761.25
543.15	1775.59
543.35	1724.39
543.54	1636.33
543.74	1779.68
543.94	1800.16
544.14	1644.52
544.33	1757.16
544.53	1761.25
544.73	1753.06
544.93	1636.33
545.12	1697.77
545.32	1703.91
545.52	1761.25
545.71	1705.96
545.91	1654.76
546.11	1765.35
546.30	1665.00
546.50	1683.43
546.70	1771.49
546.90	1665.00
547.09	1619.94
547.29	1757.16
547.49	1783.78
547.68	1644.52
547.88	1613.80
548.08	1712.10
548.27	2138.08
548.47	1662.95
548.67	1648.61
548.87	1757.16
549.06	1703.91
549.26	1703.91
549.46	1685.48
549.65	1681.38
549.85	1675.24
550.05	1775.59
550.24	1669.09
550.44	1685.48
550.64	1730.53
550.83	1796.07
551.03	1812.45
551.23	1789.92
551.42	1726.44
551.62	1767.40
551.82	1798.12
552.01	1746.92
552.21	1769.44
552.41	1757.16
552.60	1834.98
552.80	1656.81
553.00	1714.15
553.19	1755.11
553.39	1802.21
553.59	1689.57
553.78	1781.73
553.98	1781.73
554.17	1626.09
554.37	1751.01
554.57	1746.92
554.76	1681.38
554.96	1638.38
555.16	1687.53
555.35	1804.26
555.55	1732.58
555.75	1751.01
555.94	1798.12
556.14	1681.38
556.33	1775.59
556.53	1748.97
556.73	1773.54
556.92	1765.35
557.12	1923.04
557.32	1877.99
557.51	1814.50
557.71	1777.64
557.90	1828.84
558.10	1839.08
558.30	1769.44
558.49	1738.73
558.69	1714.15
558.88	1703.91
559.08	1662.95
559.28	1701.86
559.47	1701.86
559.67	1812.45
559.86	1810.40
560.06	1777.64
560.26	1712.10
560.45	1765.35
560.65	1714.15
560.84	1816.55
561.04	1652.71
561.24	1726.44
561.43	1669.09
561.63	1783.78
561.82	1738.73
562.02	1697.77
562.22	1728.49
562.41	1597.42
562.61	1675.24
562.80	1665.00
563.00	1875.94
563.19	1796.07
563.39	1843.17
563.59	1773.54
563.78	1665.00
563.98	1667.05
564.17	1628.14
564.37	1595.37
564.56	1740.77
564.76	1687.53
564.96	1841.12
565.15	1779.68
565.35	1845.22
565.54	1658.85
565.74	1689.57
565.93	1769.44
566.13	1697.77
566.32	1744.87
566.52	1806.31
566.71	1708.01
566.91	1685.48
567.11	1730.53
567.30	1748.97
567.50	1742.82
567.69	1726.44
567.89	1751.01
568.08	1691.62
568.28	1722.34
568.47	1687.53
568.67	1689.57
568.86	1818.60
569.06	1839.08
569.25	1761.25
569.45	1656.81
569.64	1771.49
569.84	1769.44
570.04	1650.66
570.23	1677.29
570.43	1730.53
570.62	1718.25
570.82	1763.30
571.01	1669.09
571.21	1757.16
571.40	1689.57
571.60	1884.13
571.79	1705.96
571.99	1742.82
572.18	1660.90
572.38	1746.92
572.57	1787.88
572.77	1710.05
572.96	1906.66
573.16	1730.53
573.35	1744.87
573.55	1804.26
573.74	1697.77
573.94	1748.97
574.13	1677.29
574.33	1736.68
574.52	1800.16
574.71	1783.78
574.91	1722.34
575.10	1630.18
575.30	1779.68
575.49	1624.04
575.69	1740.77
575.88	1773.54
576.08	1728.49
576.27	1820.64
576.47	1708.01
576.66	1812.45
576.86	1763.30
577.05	1798.12
577.25	1828.84
577.44	1802.21
577.64	1665.00
577.83	1789.92
578.02	1712.10
578.22	1773.54
578.41	1865.70
578.61	1665.00
578.80	1677.29
579.00	1806.31
579.19	1705.96
579.39	1798.12
579.58	1869.80
579.77	1773.54
579.97	1851.36
580.16	1832.93
580.36	1779.68
580.55	1742.82
580.75	1775.59
580.94	1802.21
581.13	1814.50
581.33	1818.60
581.52	1751.01
581.72	1877.99
581.91	1806.31
582.11	1726.44
582.30	1751.01
582.49	1726.44
582.69	1787.88
582.88	1730.53
583.08	1710.05
583.27	1804.26
583.47	1742.82
583.66	1718.25
583.85	1671.14
584.05	1789.92
584.24	1779.68
584.44	1742.82
584.63	1802.21
584.82	1783.78
585.02	1779.68
585.21	1834.98
585.41	1794.02
585.60	1785.83
585.79	1951.71
585.99	1910.75
586.18	1890.28
586.37	2101.22
586.57	3442.64
586.76	10213.22
586.96	24886.92
587.15	35093.99
587.34	40801.68
587.54	43140.46
587.73	37307.85
587.93	26900.07
588.12	21968.56
588.31	18448.10
588.51	16723.71
588.70	15361.81
588.89	14176.04
589.09	12715.84
589.28	11222.87
589.47	9553.77
589.67	8130.44
589.86	6578.08
590.06	5081.01
590.25	3882.95
590.44	3067.86
590.64	2562.01
590.83	2275.29
591.02	2148.32
591.22	1982.43
591.41	1896.42
591.60	1771.49
591.80	1863.65
591.99	1740.77
592.18	1763.30
592.38	1806.31
592.57	1699.81
592.76	1759.21
592.96	1789.92
593.15	1722.34
593.34	1730.53
593.54	1755.11
593.73	1755.11
593.92	1744.87
594.12	1724.39
594.31	1734.63
594.50	1791.97
594.70	1720.29
594.89	1927.14
595.08	1779.68
595.28	1765.35
595.47	1902.56
595.66	1789.92
595.86	1699.81
596.05	1753.06
596.24	1621.99
596.43	1873.89
596.63	1832.93
596.82	1755.11
597.01	1718.25
597.21	1785.83
597.40	1734.63
597.59	1718.25
597.79	1738.73
597.98	1830.88
598.17	1771.49
598.36	1753.06
598.56	1800.16
598.75	1581.03
598.94	1734.63
599.14	1724.39
599.33	1742.82
599.52	1722.34
599.71	1738.73
599.91	1695.72
600.10	1757.16
600.29	1742.82
600.48	1828.84
600.68	1779.68
600.87	1728.49
601.06	1708.01
601.26	1820.64
601.45	1730.53
601.64	1740.77
601.83	1834.98
602.03	1736.68
602.22	1615.85
602.41	1789.92
602.60	1861.60
602.80	1787.88
602.99	1759.21
603.18	1628.14
603.37	1716.20
603.57	1771.49
603.76	1716.20
603.95	1771.49
604.14	1705.96
604.34	1712.10
604.53	1675.24
604.72	1730.53
604.91	1740.77
605.10	1751.01
605.30	1646.57
605.49	1818.60
605.68	1781.73
605.87	1755.11
606.07	1675.24
606.26	1691.62
606.45	1693.67
606.64	1751.01
606.84	1685.48
607.03	1763.30
607.22	1722.34
607.41	1757.16
607.60	1722.34
607.80	1779.68
607.99	1652.71
608.18	1746.92
608.37	1673.19
608.56	1705.96
608.76	1761.25
608.95	1781.73
609.14	1722.34
609.33	1763.30
609.52	1697.77
609.72	1673.19
609.91	1701.86
610.10	1691.62
610.29	1806.31
610.48	1748.97
610.68	1714.15
610.87	1773.54
611.06	1718.25
611.25	1710.05
611.44	1783.78
611.63	1697.77
611.83	1742.82
612.02	1759.21
612.21	1763.30
612.40	1611.75
612.59	1714.15
612.79	1628.14
612.98	1755.11
613.17	1830.88
613.36	1679.33
613.55	1791.97
613.74	1640.42
613.93	1650.66
614.13	1708.01
614.32	1759.21
614.51	1712.10
614.70	1597.42
614.89	1691.62
615.08	1806.31
615.28	2095.07
615.47	1611.75
615.66	1644.52
615.85	1628.14
616.04	1828.84
616.23	1669.09
616.42	1724.39
616.62	1705.96
616.81	1722.34
617.00	1777.64
617.19	1875.94
617.38	1740.77
617.57	1712.10
617.76	1763.30
617.95	1726.44
618.15	1681.38
618.34	1705.96
618.53	1660.90
618.72	1738.73
618.91	1818.60
619.10	1847.27
619.29	1701.86
619.48	1712.10
619.68	1734.63
619.87	1691.62
620.06	1710.05
620.25	1689.57
620.44	1615.85
620.63	1771.49
620.82	1705.96
621.01	1685.48
621.20	1669.09
621.39	1656.81
621.59	1677.29
621.78	1640.42
621.97	1751.01
622.16	1781.73
622.35	1683.43
622.54	1767.40
622.73	1814.50
622.92	1675.24
623.11	1830.88
623.30	1683.43
623.49	1736.68
623.68	1681.38
623.88	1767.40
624.07	1607.66
624.26	1685.48
624.45	1705.96
624.64	1636.33
624.83	1740.77
625.02	1724.39
625.21	1705.96
625.40	1728.49
625.59	1716.20
625.78	1755.11
625.97	1759.21
626.16	1808.36
626.35	1673.19
626.54	1675.24
626.74	1746.92
626.93	1660.90
627.12	1720.29
627.31	1701.86
627.50	1755.11
627.69	1726.44
627.88	1560.55
628.07	1650.66
628.26	1605.61
628.45	1601.51
628.64	1597.42
628.83	1693.67
629.02	1654.76
629.21	1714.15
629.40	1691.62
629.59	1728.49
629.78	1779.68
629.97	1708.01
630.16	1695.72
630.35	1705.96
630.54	1679.33
630.73	1642.47
630.92	1736.68
631.11	1656.81
631.30	1742.82
631.49	1714.15
631.68	1699.81
631.87	1746.92
632.06	1673.19
632.25	1933.28
632.44	1640.42
632.63	1652.71
632.82	1722.34
633.01	1617.90
633.20	1638.38
633.39	1636.33
633.58	1619.94
633.77	1705.96
633.96	1742.82
634.15	1798.12
634.34	1648.61
634.53	1779.68
634.72	1689.57
634.91	1560.55
635.10	1748.97
635.29	1724.39
635.48	1746.92
635.67	1667.05
635.86	1578.98
636.05	1671.14
636.24	1687.53
636.43	1673.19
636.62	1742.82
636.81	1587.18
637.00	1695.72
637.19	1654.76
637.38	1748.97
637.57	1595.37
637.76	1665.00
637.95	1687.53
638.14	1753.06
638.33	1681.38
638.52	1687.53
638.71	1621.99
638.89	1693.67
639.08	1785.83
639.27	1742.82
639.46	1673.19
639.65	1771.49
639.84	1777.64
640.03	1724.39
640.22	1736.68
640.41	1787.88
640.60	1654.76
640.79	1697.77
640.98	1638.38
641.17	1685.48
641.36	1771.49
641.55	1794.02
641.74	1652.71
641.92	1667.05
642.11	1595.37
642.30	1730.53
642.49	1681.38
642.68	1646.57
642.87	1732.58
643.06	1693.67
643.25	1679.33
643.44	1683.43
643.63	1644.52
643.82	1609.70
644.00	1728.49
644.19	1748.97
644.38	1621.99
644.57	1736.68
644.76	1652.71
644.95	1746.92
645.14	1757.16
645.33	1748.97
645.52	1677.29
645.71	1632.23
645.89	1695.72
646.08	1740.77
646.27	1650.66
646.46	1814.50
646.65	1632.23
646.84	1683.43
647.03	1634.28
647.22	1822.69
647.40	1738.73
647.59	1634.28
647.78	1656.81
647.97	1552.36
648.16	1662.95
648.35	1771.49
648.54	1757.16
648.73	1677.29
648.91	1755.11
649.10	1650.66
649.29	1630.18
649.48	1660.90
649.67	1687.53
649.86	1644.52
650.05	1652.71
650.23	1726.44
650.42	1722.34
650.61	1765.35
650.80	1794.02
650.99	1796.07
651.18	1726.44
651.36	1755.11
651.55	1658.85
651.74	1708.01
651.93	1718.25
652.12	1740.77
652.31	1716.20
652.49	1650.66
652.68	1720.29
652.87	1820.64
653.06	1716.20
653.25	1824.74
653.44	1667.05
653.62	1787.88
653.81	1736.68
654.00	1716.20
654.19	1759.21
654.38	1800.16
654.56	1693.67
654.75	1710.05
654.94	1755.11
655.13	1701.86
655.32	1695.72
655.51	1753.06
655.69	1732.58
655.88	1730.53
656.07	1675.24
656.26	1703.91
656.45	1648.61
656.63	1687.53
656.82	1738.73
657.01	1718.25
657.20	1644.52
657.38	1800.16
657.57	1681.38
657.76	1591.27
657.95	1757.16
658.14	1689.57
658.32	1748.97
658.51	1599.46
658.70	1708.01
658.89	1736.68
659.08	1683.43
659.26	1796.07
659.45	1595.37
659.64	1699.81
659.83	1675.24
660.01	1986.53
660.20	1728.49
660.39	1732.58
660.58	1558.50
660.76	1677.29
660.95	1554.41
661.14	1714.15
661.33	1621.99
661.51	1615.85
661.70	1726.44
661.89	1697.77
662.08	1697.77
662.26	1697.77
662.45	1691.62
662.64	1837.03
662.83	1785.83
663.01	1638.38
663.20	1656.81
663.39	1734.63
663.58	1689.57
663.76	1632.23
663.95	1771.49
664.14	1624.04
664.32	1669.09
664.51	1667.05
664.70	1609.70
664.89	1789.92
665.07	1626.09
665.26	1822.69
665.45	1662.95
665.64	1730.53
665.82	1751.01
666.01	1720.29
666.20	1599.46
666.38	1828.84
666.57	1816.55
666.76	2271.20
666.95	4466.62
667.13	10633.05
667.32	15378.20
667.51	18087.66
667.69	19420.89
667.88	17856.24
668.07	12592.96
668.25	9592.69
668.44	7942.02
668.63	7505.81
668.81	6872.98
669.00	6299.55
669.19	5805.99
669.38	5205.94
669.56	4708.28
669.75	4052.93
669.94	3520.46
670.12	2965.46
670.31	2553.82
670.50	2295.77
670.68	2047.97
670.87	1959.91
671.06	1759.21
671.24	1740.77
671.43	1806.31
671.62	1714.15
671.80	1734.63
671.99	1794.02
672.18	1734.63
672.36	1697.77
672.55	1781.73
672.74	1714.15
672.92	1716.20
673.11	1787.88
673.29	1648.61
673.48	1722.34
673.67	1648.61
673.85	1828.84
674.04	1654.76
674.23	1683.43
674.41	1800.16
674.60	1634.28
674.79	1654.76
674.97	1679.33
675.16	1763.30
675.34	1773.54
675.53	1669.09
675.72	1783.78
675.90	1849.32
676.09	1677.29
676.28	1691.62
676.46	1591.27
676.65	1732.58
676.83	1669.09
677.02	1746.92
677.21	1773.54
677.39	1794.02
677.58	1615.85
677.77	1669.09
677.95	1732.58
678.14	1738.73
678.32	1710.05
678.51	1591.27
678.70	1761.25
678.88	1632.23
679.07	1787.88
679.25	1697.77
679.44	1658.85
679.63	1599.46
679.81	1615.85
680.00	1804.26
680.18	1693.67
680.37	1761.25
680.55	1675.24
680.74	1619.94
680.93	1609.70
681.11	1804.26
681.30	1685.48
681.48	1701.86
681.67	1677.29
681.85	1738.73
682.04	1644.52
682.23	1781.73
682.41	1761.25
682.60	1693.67
682.78	1679.33
682.97	1624.04
683.15	1781.73
683.34	1687.53
683.53	1697.77
683.71	1615.85
683.90	1765.35
684.08	1777.64
684.27	1732.58
684.45	1742.82
684.64	1828.84
684.82	1695.72
685.01	1755.11
685.19	1683.43
685.38	1738.73
685.57	1763.30
685.75	1644.52
685.94	1644.52
686.12	1652.71
686.31	1607.66
686.49	1728.49
686.68	1626.09
686.86	1742.82
687.05	1669.09
687.23	1828.84
687.42	1636.33
687.60	1656.81
687.79	1748.97
687.97	1740.77
688.16	1660.90
688.34	1802.21
688.53	1611.75
688.71	1757.16
688.90	1773.54
689.08	1705.96
689.27	1638.38
689.45	1705.96
689.64	1740.77
689.82	1718.25
690.01	1646.57
690.19	1712.10
690.38	1742.82
690.56	1724.39
690.75	1681.38
690.93	1691.62
691.12	1667.05
691.30	1720.29
691.49	1753.06
691.67	1714.15
691.86	1785.83
692.04	1775.59
692.23	1708.01
692.41	1699.81
692.60	1744.87
692.78	1730.53
692.97	1646.57
693.15	1673.19
693.34	1806.31
693.52	1728.49
693.71	1603.56
693.89	1599.46
694.08	1665.00
694.26	1767.40
694.44	1712.10
694.63	1677.29
694.81	1652.71
695.00	1634.28
695.18	1738.73
695.37	1820.64
695.55	1732.58
695.74	1665.00
695.92	1665.00
696.10	1732.58
696.29	1607.66
696.47	1685.48
696.66	1644.52
696.84	1593.32
697.03	1738.73
697.21	1810.40
697.40	2183.13
697.58	1751.01
697.76	1693.67
697.95	1689.57
698.13	1638.38
698.32	1691.62
698.50	1667.05
698.68	1771.49
698.87	1742.82
699.05	1781.73
699.24	1673.19
699.42	1697.77
699.61	1726.44
699.79	1755.11
699.97	1662.95
700.16	1634.28
700.34	1640.42
700.53	1665.00
700.71	1716.20
700.89	1710.05
701.08	1648.61
701.26	1687.53
701.45	2082.78
701.63	1740.77
701.81	1689.57
702.00	1591.27
702.18	1685.48
702.37	1630.18
702.55	1740.77
702.73	1693.67
702.92	1658.85
703.10	1736.68
703.28	1701.86
703.47	1501.16
703.65	1730.53
703.84	1701.86
704.02	1599.46
704.20	1810.40
704.39	1701.86
704.57	1681.38
704.75	1751.01
704.94	1738.73
705.12	1755.11
705.30	1800.16
705.49	2246.62
705.67	4261.82
705.86	9774.95
706.04	12834.62
706.22	14780.19
706.41	15656.72
706.59	14114.60
706.77	9711.47
706.96	7581.58
707.14	6694.81
707.32	5992.36
707.51	5601.19
707.69	4960.18
707.87	4378.56
708.06	3577.80
708.24	3008.47
708.42	2461.66
708.61	2346.97
708.79	1837.03
708.97	1877.99
709.16	1802.21
709.34	1695.72
709.52	1738.73
709.71	1765.35
709.89	1783.78
710.07	1703.91
710.26	1630.18
710.44	1781.73
710.62	1777.64
710.80	1646.57
710.99	1705.96
711.17	1724.39
711.35	1675.24
711.54	1710.05
711.72	1787.88
711.90	1626.09
712.09	1673.19
712.27	1634.28
712.45	1691.62
712.63	1675.24
712.82	1755.11
713.00	1705.96
713.18	1677.29
713.37	1728.49
713.55	1716.20
713.73	1720.29
713.91	1757.16
714.10	1714.15
714.28	1685.48
714.46	1638.38
714.65	1759.21
714.83	1691.62
715.01	1603.56
715.19	1701.86
715.38	1755.11
715.56	1718.25
715.74	1705.96
715.92	1636.33
716.11	1826.79
716.29	1726.44
716.47	1767.40
716.65	1705.96
716.84	1605.61
717.02	1763.30
717.20	1603.56
717.38	1597.42
717.57	1660.90
717.75	1681.38
717.93	1648.61
718.11	1746.92
718.30	1667.05
718.48	1708.01
718.66	1710.05
718.84	1802.21
719.03	1673.19
719.21	1609.70
719.39	1818.60
719.57	1699.81
719.75	1732.58
719.94	1621.99
720.12	1687.53
720.30	1665.00
720.48	1771.49
720.67	1689.57
720.85	1650.66
721.03	1665.00
721.21	1613.80
721.39	1767.40
721.58	1679.33
721.76	1734.63
721.94	1751.01
722.12	1699.81
722.30	1804.26
722.49	1648.61
722.67	1726.44
722.85	1746.92
723.03	1624.04
723.21	1673.19
723.40	1705.96
723.58	1781.73
723.76	1679.33
723.94	1767.40
724.12	1724.39
724.30	1740.77
724.49	1736.68
724.67	1578.98
724.85	1755.11
725.03	1583.08
725.21	1740.77
725.40	1716.20
725.58	1716.20
725.76	1714.15
725.94	1753.06
726.12	1652.71
726.30	1648.61
726.49	1712.10
726.67	1619.94
726.85	1689.57
727.03	1763.30
727.21	2230.24
727.39	2918.36
727.57	3817.41
727.76	4294.59
727.94	4595.64
728.12	4440.00
728.30	3735.50
728.48	2996.18
728.66	2768.85
728.84	2525.15
729.03	2340.83
729.21	2224.09
729.39	1935.33
729.57	1880.04
729.75	1804.26
729.93	1800.16
730.11	1738.73
730.30	1679.33
730.48	1708.01
730.66	1794.02
730.84	1748.97
731.02	1636.33
731.20	1671.14
731.38	1705.96
731.56	1730.53
731.74	1677.29
731.93	1681.38
732.11	1738.73
732.29	1738.73
732.47	1800.16
732.65	1667.05
732.83	1800.16
733.01	1726.44
733.19	1673.19
733.37	1683.43
733.56	1771.49
733.74	1679.33
733.92	1775.59
734.10	1628.14
734.28	1708.01
734.46	1675.24
734.64	1691.62
734.82	1648.61
735.00	1583.08
735.18	1710.05
735.36	1644.52
735.54	1697.77
735.73	1734.63
735.91	1675.24
736.09	1697.77
736.27	1646.57
736.45	1703.91
736.63	1589.22
736.81	1572.84
736.99	1834.98
737.17	1771.49
737.35	1667.05
737.53	1744.87
737.71	1634.28
737.89	1728.49
738.07	1708.01
738.25	1689.57
738.43	1632.23
738.61	1599.46
738.80	1597.42
738.98	1572.84
739.16	1646.57
739.34	1662.95
739.52	1783.78
739.70	1677.29
739.88	1755.11
740.06	1744.87
740.24	1558.50
740.42	1781.73
740.60	1640.42
740.78	1679.33
740.96	1531.88
741.14	1628.14
741.32	1718.25
741.50	1585.13
741.68	1722.34
741.86	1718.25
742.04	1669.09
742.22	1648.61
742.40	1658.85
742.58	1699.81
742.76	1603.56
742.94	1738.73
743.12	1593.32
743.30	1654.76
743.48	1746.92
743.66	1630.18
743.84	1617.90
744.02	1660.90
744.20	1732.58
744.38	1679.33
744.56	1675.24
744.74	1765.35
744.92	1755.11
745.10	1736.68
745.28	1742.82
745.46	1849.32
745.64	1730.53
745.82	1732.58
746.00	1701.86
746.18	1708.01
746.36	1697.77
746.54	1697.77
746.72	1671.14
746.90	1714.15
747.08	1691.62
747.26	1648.61
747.44	1755.11
747.62	1689.57
747.80	1746.92
747.98	1755.11
748.15	1658.85
748.33	1800.16
748.51	1687.53
748.69	1685.48
748.87	1722.34
749.05	1687.53
749.23	1626.09
749.41	1742.82
749.59	1673.19
749.77	1726.44
749.95	1726.44
750.13	1689.57
750.31	1718.25
750.49	1656.81
750.67	1636.33
750.85	1689.57
751.03	1730.53
751.20	1775.59
751.38	1683.43
751.56	1705.96
751.74	1681.38
751.92	1673.19
752.10	1681.38
752.28	1646.57
752.46	1634.28
752.64	1646.57
752.82	1693.67
753.00	1730.53
753.18	1703.91
753.35	1632.23
753.53	1632.23
753.71	1679.33
753.89	1722.34
754.07	1673.19
754.25	1765.35
754.43	1675.24
754.61	1556.46
754.79	1757.16
754.97	1724.39
755.14	1806.31
755.32	1632.23
755.50	1660.90
755.68	1763.30
755.86	1624.04
756.04	1658.85
756.22	1591.27
756.40	1751.01
756.57	1806.31
756.75	1615.85
756.93	1718.25
757.11	1722.34
757.29	1685.48
757.47	1675.24
757.65	1638.38
757.82	1546.22
758.00	1693.67
758.18	1652.71
758.36	1617.90
758.54	1757.16
758.72	1632.23
758.90	1781.73
759.07	1755.11
759.25	1669.09
759.43	1708.01
759.61	1593.32
759.79	2121.70
759.97	1751.01
760.15	1665.00
760.32	1617.90
760.50	1615.85
760.68	1761.25
760.86	1626.09
761.04	1796.07
761.22	1699.81
761.39	1777.64
761.57	1695.72
761.75	1656.81
761.93	1642.47
762.11	1626.09
762.28	1763.30
762.46	1660.90
762.64	1722.34
762.82	1613.80
763.00	1667.05
763.18	1834.98
763.35	1624.04
763.53	1722.34
763.71	1691.62
763.89	1728.49
764.07	1654.76
764.24	1685.48
764.42	1714.15
764.60	1632.23
764.78	1679.33
764.96	1683.43
765.13	1771.49
765.31	1615.85
765.49	1736.68
765.67	1763.30
765.84	1656.81
766.02	1603.56
766.20	1634.28
766.38	1673.19
766.56	1699.81
766.73	1755.11
766.91	1785.83
767.09	1798.12
767.27	1732.58
767.44	1552.36
767.62	1722.34
767.80	1683.43
767.98	1697.77
768.15	1726.44
768.33	1687.53
768.51	1701.86
768.69	1755.11
768.87	1652.71
769.04	1730.53
769.22	1796.07
769.40	1759.21
769.58	1834.98
769.75	1751.01
769.93	1701.86
770.11	1648.61
770.28	1566.70
770.46	1720.29
770.64	1675.24
770.82	1681.38
770.99	1695.72
771.17	1648.61
771.35	1671.14
771.53	1724.39
771.70	1714.15
771.88	1681.38
772.06	1658.85
772.23	1652.71
772.41	1697.77
772.59	1638.38
772.77	1619.94
772.94	1669.09
773.12	1695.72
773.30	1624.04
773.47	1775.59
773.65	1642.47
773.83	1796.07
774.01	1652.71
774.18	1615.85
774.36	1669.09
774.54	1746.92
774.71	1652.71
774.89	1562.60
775.07	1642.47
775.24	1650.66
775.42	1662.95
775.60	1757.16
775.78	1585.13
775.95	1572.84
776.13	1658.85
776.31	1560.55
776.48	1753.06
776.66	1810.40
776.84	1703.91
777.01	1585.13
777.19	1718.25
777.37	1699.81
777.54	1673.19
777.72	1708.01
777.90	1665.00
778.07	1673.19
778.25	1810.40
778.43	1736.68
778.60	1671.14
778.78	1722.34
778.96	1703.91
779.13	1564.65
779.31	1753.06
779.49	1689.57
779.66	1703.91
779.84	1697.77
780.01	1658.85
780.19	1685.48
780.37	1765.35
780.54	1705.96
780.72	1718.25
780.90	1720.29
781.07	1683.43
781.25	1687.53
781.43	1744.87
781.60	1755.11
781.78	1802.21
781.95	1714.15
782.13	1634.28
782.31	1687.53
782.48	1619.94
782.66	1689.57
782.83	1763.30
783.01	1755.11
783.19	1689.57
783.36	1677.29
783.54	1566.70
783.72	1701.86
783.89	1697.77
784.07	1630.18
784.24	1708.01
784.42	1796.07
784.60	1652.71
784.77	1720.29
784.95	1535.98
785.12	1632.23
785.30	1708.01
785.47	1630.18
785.65	1646.57
785.83	1724.39
786.00	1626.09
786.18	1691.62
786.35	1599.46
786.53	1654.76
786.71	1654.76
786.88	1703.91
787.06	1660.90
787.23	1673.19
787.41	1599.46
787.58	1658.85
787.76	1677.29
787.94	1693.67
788.11	1748.97
788.29	1677.29
788.46	1626.09
788.64	1648.61
788.81	1697.77
788.99	1650.66
789.16	1648.61
789.34	1654.76
789.52	1722.34
789.69	1667.05
789.87	1621.99
790.04	1667.05
790.22	1765.35
790.39	1738.73
790.57	1675.24
790.74	1687.53
790.92	1671.14
791.09	1624.04
791.27	1679.33
791.44	1767.40
791.62	1761.25
791.79	1693.67
791.97	1652.71
792.15	1861.60
792.32	1724.39
792.50	1794.02
792.67	1769.44
792.85	1779.68
793.02	1714.15
793.20	1681.38
793.37	1605.61
793.55	1748.97
793.72	1619.94
793.90	1746.92
794.07	1648.61
794.25	1615.85
794.42	1699.81
794.60	1667.05
794.77	1710.05
794.95	1757.16
795.12	1771.49
795.30	1671.14
795.47	1646.57
795.65	1861.60
795.82	1765.35
796.00	1681.38
796.17	1636.33
796.34	1703.91
796.52	1708.01
796.69	1748.97
796.87	1675.24
797.04	1687.53
797.22	1744.87
797.39	1708.01
797.57	1738.73
797.74	1724.39
797.92	1673.19
798.09	1624.04
798.27	1716.20
798.44	1720.29
798.62	1646.57
798.79	1665.00
798.96	1718.25
799.14	1681.38
799.31	1771.49
799.49	1693.67
799.66	1644.52
799.84	1673.19
800.01	1576.94
800.19	1732.58
800.36	1593.32
800.53	1734.63
800.71	1736.68
800.88	1761.25
801.06	1675.24
801.23	1626.09
801.41	1660.90
801.58	1632.23
801.75	1714.15
801.93	1691.62
802.10	1716.20
802.28	1648.61
802.45	1564.65
802.63	1751.01
802.80	1734.63
802.97	1660.90
803.15	1720.29
803.32	1644.52
803.50	1615.85
803.67	1570.79
803.84	1632.23
804.02	1640.42
804.19	1630.18
804.37	1550.31
804.54	1589.22
804.71	1728.49
804.89	1710.05
805.06	1705.96
805.24	1634.28
805.41	1656.81
805.58	1624.04
805.76	1787.88
805.93	1677.29
806.10	1699.81
806.28	1703.91
806.45	1730.53
806.63	1685.48
806.80	1701.86
806.97	1650.66
807.15	1708.01
807.32	1748.97
807.49	1701.86
807.67	1591.27
807.84	1685.48
808.01	1636.33
808.19	1785.83
808.36	1875.94
808.54	1671.14
808.71	1697.77
808.88	1722.34
809.06	1699.81
809.23	1755.11
809.40	1669.09
809.58	1783.78
809.75	1705.96
809.92	1662.95
810.10	1794.02
810.27	1718.25
810.44	1781.73
810.62	1732.58
810.79	1728.49
810.96	1697.77
811.14	1675.24
811.31	1738.73
811.48	1646.57
811.66	1734.63
811.83	1744.87
812.00	1710.05
812.18	1693.67
812.35	1796.07
812.52	1775.59
812.69	1722.34
812.87	1578.98
813.04	1624.04
813.21	1656.81
813.39	1609.70
813.56	1642.47
813.73	1751.01
813.91	1665.00
814.08	1675.24
814.25	1652.71
814.42	1667.05
814.60	1636.33
814.77	1671.14
814.94	1605.61
815.12	1673.19
815.29	1779.68
815.46	1634.28
815.63	1634.28
815.81	1755.11
815.98	1677.29
816.15	1656.81
816.33	1675.24
816.50	1691.62
816.67	1691.62
816.84	1703.91
817.02	1585.13
817.19	1624.04
817.36	1718.25
817.53	1695.72
817.71	1693.67
817.88	1763.30
818.05	1712.10
818.22	1634.28
818.40	1732.58
818.57	1681.38
818.74	1759.21
818.91	1751.01
819.09	1697.77
819.26	1697.77
819.43	1677.29
819.60	1722.34
819.78	1728.49
819.95	1787.88
820.12	1626.09
820.29	1720.29
820.47	1751.01
820.64	1591.27
820.81	1628.14
820.98	1675.24
821.15	1669.09
821.33	1669.09
821.50	1607.66
821.67	1746.92
821.84	1683.43
822.02	1773.54
822.19	1740.77
822.36	1638.38
822.53	1671.14
822.70	1697.77
822.88	1677.29
823.05	1834.98
823.22	1724.39
823.39	1697.77
823.56	1654.76
823.74	1746.92
823.91	1679.33
824.08	1652.71
824.25	1665.00
824.42	1755.11
824.60	1671.14
824.77	1648.61
824.94	1701.86
825.11	1714.15
825.28	1507.30
825.45	1714.15
825.63	1722.34
825.80	1589.22
825.97	1689.57
826.14	1720.29
826.31	1578.98
826.48	1693.67
826.66	1642.47
826.83	1595.37
827.00	1722.34
827.17	1677.29
827.34	1679.33
827.51	1642.47
827.69	1714.15
827.86	1611.75
828.03	1701.86
828.20	1726.44
828.37	1656.81
828.54	1662.95
828.71	1611.75
828.89	1824.74
829.06	1662.95
829.23	1697.77
829.40	1785.83
829.57	1765.35
829.74	1783.78
829.91	1521.64
830.09	1632.23
830.26	1716.20
830.43	1742.82
830.60	1697.77
830.77	1767.40
830.94	1714.15
831.11	1748.97
831.28	1701.86
831.46	1726.44
831.63	1626.09
831.80	1689.57
831.97	1644.52
832.14	1656.81
832.31	1685.48
832.48	1742.82
832.65	1814.50
832.82	1765.35
832.99	1730.53
833.17	1597.42
833.34	1667.05
833.51	1720.29
833.68	1630.18
833.85	1685.48
834.02	1626.09
834.19	1591.27
834.36	1699.81
834.53	1742.82
834.70	1820.64
834.87	1722.34
835.04	1665.00
835.22	1667.05
835.39	1677.29
835.56	1673.19
835.73	1642.47
835.90	1785.83
836.07	1665.00
836.24	1718.25
836.41	1632.23
836.58	1658.85
836.75	1734.63
836.92	1730.53
837.09	1648.61
837.26	1736.68
837.43	1642.47
837.60	1689.57
837.77	1710.05
837.94	1716.20
838.12	1658.85
838.29	1681.38
838.46	1607.66
838.63	1615.85
838.80	1824.74
838.97	1662.95
839.14	1716.20
839.31	1714.15
839.48	1701.86
839.65	1669.09
839.82	1691.62
839.99	1658.85
840.16	1677.29
840.33	1669.09
840.50	1720.29
840.67	1652.71
840.84	1630.18
841.01	1751.01
841.18	1644.52
841.35	1662.95
841.52	1667.05
841.69	1773.54
841.86	1705.96
842.03	1652.71
842.20	1759.21
842.37	1669.09
842.54	1667.05
842.71	1714.15
842.88	1671.14
843.05	1736.68
843.22	1753.06
843.39	1693.67
843.56	1699.81
843.73	1734.63
843.90	1687.53
844.07	1734.63
844.24	1691.62
844.41	1726.44
844.58	1646.57
844.75	1722.34
844.92	1665.00
845.09	1687.53
845.26	1720.29
845.43	1677.29
845.60	1626.09
845.77	1826.79
845.94	1714.15
846.10	1791.97
846.27	1679.33
846.44	1634.28
846.61	1699.81
846.78	1679.33
846.95	1742.82
847.12	1687.53
847.29	1634.28
847.46	1730.53
847.63	1751.01
847.80	1652.71
847.97	1609.70
848.14	1773.54
848.31	1689.57
848.48	1630.18
848.65	1681.38
848.82	1677.29
848.98	1849.32
849.15	1724.39
849.32	1751.01
849.49	1742.82
849.66	1646.57
849.83	1660.90
850.00	1626.09
850.17	1714.15
850.34	1716.20
850.51	1718.25
850.68	1695.72
850.85	1744.87
851.01	1726.44
851.18	1755.11
851.35	1642.47
851.52	1671.14
851.69	1757.16
851.86	1593.32
852.03	1656.81
852.20	1722.34
852.37	1640.42
852.53	1638.38
852.70	1726.44
852.87	1683.43
853.04	1798.12
853.21	1658.85
853.38	1808.36
853.55	1785.83
853.72	1775.59
853.89	1552.36
854.05	1642.47
854.22	1691.62
854.39	1681.38
854.56	1738.73
854.73	1736.68
854.90	1611.75
855.07	1697.77
855.23	1675.24
855.40	1665.00
855.57	1640.42
855.74	1650.66
855.91	1808.36
856.08	1599.46
856.25	1652.71
856.41	1632.23
856.58	1587.18
856.75	1691.62
856.92	1570.79
857.09	1683.43
857.26	1679.33
857.42	1677.29
857.59	1779.68
857.76	1718.25
857.93	1695.72
858.10	1697.77
858.27	1654.76
858.43	1644.52
858.60	1652.71
858.77	1611.75
858.94	1632.23
859.11	1796.07
859.27	1740.77
859.44	1609.70
859.61	1832.93
859.78	1697.77
859.95	1609.70
860.12	1671.14
860.28	1734.63
860.45	1847.27
860.62	1652.71
860.79	1759.21
860.95	1583.08
861.12	1615.85
861.29	1683.43
861.46	1677.29
861.63	1634.28
861.79	1757.16
861.96	1665.00
862.13	1646.57
862.30	1699.81
862.47	1671.14
862.63	1675.24
862.80	1765.35
862.97	1753.06
863.14	1753.06
863.30	1685.48
863.47	1619.94
863.64	1820.64
863.81	1732.58
863.97	1665.00
864.14	1652.71
864.31	1611.75
864.48	1734.63
864.65	1656.81
864.81	1720.29
864.98	1712.10
865.15	1718.25
865.32	1755.11
865.48	1730.53
865.65	1728.49
865.82	1611.75
865.98	1685.48
866.15	1705.96
866.32	1742.82
866.49	1720.29
866.65	1759.21
866.82	1636.33
866.99	1654.76
867.16	1665.00
867.32	1673.19
867.49	1632.23
867.66	1675.24
867.83	1644.52
867.99	1648.61
868.16	1691.62
868.33	1599.46
868.49	1652.71
868.66	1597.42
868.83	1695.72
868.99	1710.05
869.16	1759.21
869.33	1757.16
869.50	1705.96
869.66	1734.63
869.83	1681.38
870.00	1540.07
870.16	1751.01
870.33	1640.42
870.50	1712.10
870.66	1640.42
870.83	1839.08
871.00	1751.01
871.17	1708.01
871.33	1708.01
871.50	1632.23
871.67	1683.43
871.83	1630.18
872.00	1820.64
872.17	1699.81
872.33	1804.26
872.50	1699.81
872.67	1632.23
872.83	1654.76
873.00	1710.05
873.17	1718.25
873.33	1705.96
873.50	1708.01
873.67	1650.66
873.83	1695.72
874.00	1644.52
874.16	1765.35
874.33	1597.42
874.50	1593.32
874.66	1824.74
874.83	1650.66
875.00	1730.53
875.16	1665.00
875.33	1740.77
875.50	1587.18
875.66	1718.25
875.83	1687.53
875.99	1734.63
876.16	1662.95
876.33	1673.19
876.49	1665.00
876.66	1667.05
876.83	1619.94
876.99	1658.85
877.16	1667.05
877.32	1611.75
877.49	1642.47
877.66	1660.90
877.82	1779.68
877.99	1685.48
878.15	1765.35
878.32	1650.66
878.49	1656.81
878.65	1615.85
878.82	1744.87
878.98	1652.71
879.15	1759.21
879.32	1669.09
879.48	1689.57
879.65	1662.95
879.81	1693.67
879.98	1689.57
880.15	1681.38
880.31	1746.92
880.48	1593.32
880.64	1724.39
880.81	1748.97
880.97	1751.01
881.14	1755.11
881.31	1652.71
881.47	1787.88
881.64	1726.44
881.80	1574.89
881.97	1687.53
882.13	1765.35
882.30	1650.66
882.47	1656.81
882.63	1558.50
882.80	1689.57
882.96	1632.23
883.13	1834.98
883.29	1634.28
883.46	1738.73
883.62	1720.29
883.79	1701.86
883.95	1781.73
884.12	1615.85
884.29	1763.30
884.45	1716.20
884.62	1751.01
884.78	1697.77
884.95	1765.35
885.11	1611.75
885.28	1705.96
885.44	1603.56
885.61	1740.77
885.77	1794.02
885.94	1662.95
886.10	1656.81
886.27	1685.48
886.43	1839.08
886.60	1730.53
886.76	1681.38
886.93	1677.29
887.09	1695.72
887.26	1597.42
887.42	1689.57
887.59	1751.01
887.75	1779.68
887.92	1648.61
888.08	1701.86
888.25	1714.15
888.41	1761.25
888.58	1734.63
888.74	1662.95
888.91	1660.90
>>>>>End Processed Spectral Data<<<<<
