SpectraSuite Data File
++++++++++++++++++++++++++++++++++++
Date: Mon Jun 06 16:20:37 CEST 2016
User: root
Dark Spectrum Present: No
Reference Spectrum Present: No
Number of Sampled Component Spectra: 1
Spectrometers: USB4C02835
Integration Time (usec): 100000 (USB4C02835)
Spectra Averaged: 1 (USB4C02835)
Boxcar Smoothing: 0 (USB4C02835)
Correct for Electrical Dark: No (USB4C02835)
Strobe/Lamp Enabled: No (USB4C02835)
Correct for Detector Non-linearity: No (USB4C02835)
Correct for Stray Light: No (USB4C02835)
Number of Pixels in Processed Spectrum: 3648
>>>>>Begin Processed Spectral Data<<<<<
177.47	1488.87
177.69	1488.87
177.91	1488.87
178.13	1513.45
178.36	1535.98
178.58	1767.40
178.80	1769.44
179.02	1718.25
179.24	1675.24
179.46	1671.14
179.68	1732.58
179.90	1689.57
180.13	1783.78
180.35	1683.43
180.57	1693.67
180.79	1759.21
181.01	1632.23
181.23	1744.87
181.45	1779.68
181.67	1710.05
181.90	1746.92
182.12	1712.10
182.34	1597.42
182.56	1732.58
182.78	1746.92
183.00	1722.34
183.22	1716.20
183.44	1652.71
183.66	1873.89
183.89	1830.88
184.11	1720.29
184.33	1787.88
184.55	1820.64
184.77	1791.97
184.99	1679.33
185.21	1609.70
185.43	1861.60
185.65	1656.81
185.87	1710.05
186.10	1841.12
186.32	1935.33
186.54	1763.30
186.76	1738.73
186.98	1796.07
187.20	1708.01
187.42	1671.14
187.64	1650.66
187.86	1732.58
188.08	1734.63
188.30	1646.57
188.52	1646.57
188.75	1767.40
188.97	1814.50
189.19	1718.25
189.41	1703.91
189.63	1800.16
189.85	1665.00
190.07	1601.51
190.29	1654.76
190.51	1722.34
190.73	1621.99
190.95	1753.06
191.17	1763.30
191.39	1660.90
191.61	1665.00
191.84	1650.66
192.06	1718.25
192.28	1642.47
192.50	1884.13
192.72	1722.34
192.94	1779.68
193.16	1716.20
193.38	1718.25
193.60	1744.87
193.82	1683.43
194.04	1785.83
194.26	1763.30
194.48	1691.62
194.70	1728.49
194.92	1710.05
195.14	1746.92
195.36	1681.38
195.58	1757.16
195.80	1722.34
196.02	1730.53
196.24	1734.63
196.46	1804.26
196.69	1691.62
196.91	1931.23
197.13	1679.33
197.35	1624.04
197.57	1810.40
197.79	1683.43
198.01	1658.85
198.23	1746.92
198.45	1767.40
198.67	1665.00
198.89	1736.68
199.11	1773.54
199.33	1732.58
199.55	1581.03
199.77	1648.61
199.99	1794.02
200.21	1673.19
200.43	1736.68
200.65	1687.53
200.87	1527.78
201.09	1662.95
201.31	1751.01
201.53	1726.44
201.75	1730.53
201.97	1740.77
202.19	1753.06
202.41	1783.78
202.63	1853.41
202.85	1691.62
203.07	1734.63
203.29	1603.56
203.51	1701.86
203.73	1656.81
203.95	1822.69
204.17	1669.09
204.39	1775.59
204.61	1675.24
204.83	1722.34
205.05	1783.78
205.27	1791.97
205.49	1808.36
205.71	1761.25
205.93	1609.70
206.15	1730.53
206.37	1800.16
206.59	1699.81
206.81	1632.23
207.03	1679.33
207.25	1687.53
207.47	1728.49
207.69	1691.62
207.91	1814.50
208.13	1796.07
208.34	1718.25
208.56	1646.57
208.78	1738.73
209.00	1656.81
209.22	1638.38
209.44	1761.25
209.66	1695.72
209.88	1742.82
210.10	1626.09
210.32	1695.72
210.54	1783.78
210.76	1679.33
210.98	1804.26
211.20	1570.79
211.42	1753.06
211.64	1789.92
211.86	1708.01
212.08	1767.40
212.30	1714.15
212.52	1775.59
212.74	1708.01
212.96	1724.39
213.17	1746.92
213.39	1710.05
213.61	1828.84
213.83	1843.17
214.05	1642.47
214.27	1814.50
214.49	1658.85
214.71	1636.33
214.93	1820.64
215.15	1728.49
215.37	1759.21
215.59	1671.14
215.81	1662.95
216.03	1746.92
216.24	1689.57
216.46	1632.23
216.68	1658.85
216.90	1728.49
217.12	1806.31
217.34	1681.38
217.56	1742.82
217.78	1757.16
218.00	1734.63
218.22	1767.40
218.44	1820.64
218.66	1710.05
218.87	1771.49
219.09	1716.20
219.31	1703.91
219.53	1724.39
219.75	1658.85
219.97	1710.05
220.19	1722.34
220.41	1689.57
220.63	1837.03
220.85	1763.30
221.06	1748.97
221.28	1712.10
221.50	1712.10
221.72	1734.63
221.94	1730.53
222.16	1722.34
222.38	1771.49
222.60	1685.48
222.82	1701.86
223.03	1720.29
223.25	1621.99
223.47	1746.92
223.69	1843.17
223.91	1777.64
224.13	1689.57
224.35	1691.62
224.57	1839.08
224.78	1697.77
225.00	1611.75
225.22	1726.44
225.44	1705.96
225.66	1779.68
225.88	1708.01
226.10	1773.54
226.32	1744.87
226.53	1724.39
226.75	1673.19
226.97	1697.77
227.19	1734.63
227.41	1658.85
227.63	1679.33
227.85	1576.94
228.06	1765.35
228.28	1720.29
228.50	1763.30
228.72	1728.49
228.94	1679.33
229.16	1669.09
229.37	1621.99
229.59	1685.48
229.81	1861.60
230.03	1681.38
230.25	1658.85
230.47	1607.66
230.69	1544.17
230.90	1720.29
231.12	1599.46
231.34	1712.10
231.56	1794.02
231.78	1642.47
232.00	1671.14
232.21	1726.44
232.43	1691.62
232.65	1642.47
232.87	1816.55
233.09	1650.66
233.30	1671.14
233.52	1773.54
233.74	1679.33
233.96	1644.52
234.18	1714.15
234.40	1701.86
234.61	1812.45
234.83	1611.75
235.05	1693.67
235.27	1796.07
235.49	1755.11
235.70	1722.34
235.92	1744.87
236.14	1705.96
236.36	1894.37
236.58	1632.23
236.79	1777.64
237.01	1712.10
237.23	1648.61
237.45	1818.60
237.67	1687.53
237.88	1765.35
238.10	1798.12
238.32	1671.14
238.54	1609.70
238.76	1757.16
238.97	1675.24
239.19	1693.67
239.41	1783.78
239.63	1767.40
239.85	1691.62
240.06	1742.82
240.28	1710.05
240.50	1800.16
240.72	1738.73
240.93	1789.92
241.15	1748.97
241.37	1699.81
241.59	1748.97
241.81	1685.48
242.02	1804.26
242.24	1746.92
242.46	1738.73
242.68	1726.44
242.89	1763.30
243.11	1759.21
243.33	1640.42
243.55	1748.97
243.76	1757.16
243.98	1658.85
244.20	1720.29
244.42	1691.62
244.64	1695.72
244.85	1646.57
245.07	1697.77
245.29	1759.21
245.51	1728.49
245.72	1669.09
245.94	1783.78
246.16	1665.00
246.38	1822.69
246.59	1693.67
246.81	1617.90
247.03	1722.34
247.24	1607.66
247.46	1685.48
247.68	1740.77
247.90	1716.20
248.11	1716.20
248.33	1712.10
248.55	1746.92
248.77	1714.15
248.98	1714.15
249.20	1828.84
249.42	1708.01
249.64	1665.00
249.85	1658.85
250.07	1708.01
250.29	1828.84
250.50	1748.97
250.72	1611.75
250.94	1667.05
251.16	1814.50
251.37	1757.16
251.59	1769.44
251.81	1701.86
252.02	1775.59
252.24	1648.61
252.46	1837.03
252.68	1736.68
252.89	1640.42
253.11	1644.52
253.33	1785.83
253.54	1783.78
253.76	1628.14
253.98	1685.48
254.20	1773.54
254.41	1617.90
254.63	1710.05
254.85	1675.24
255.06	1681.38
255.28	1781.73
255.50	1701.86
255.71	1640.42
255.93	1685.48
256.15	1710.05
256.36	1789.92
256.58	1726.44
256.80	1777.64
257.02	1648.61
257.23	1599.46
257.45	1677.29
257.67	1673.19
257.88	1671.14
258.10	1736.68
258.32	1722.34
258.53	1675.24
258.75	1753.06
258.97	1615.85
259.18	1712.10
259.40	1767.40
259.62	1781.73
259.83	1834.98
260.05	1794.02
260.27	2082.78
260.48	1734.63
260.70	1621.99
260.92	1734.63
261.13	1658.85
261.35	1720.29
261.57	1787.88
261.78	1644.52
262.00	1730.53
262.22	1734.63
262.43	1718.25
262.65	1785.83
262.86	1744.87
263.08	1767.40
263.30	1703.91
263.51	1624.04
263.73	1699.81
263.95	1775.59
264.16	1681.38
264.38	1640.42
264.60	1726.44
264.81	1648.61
265.03	1791.97
265.25	1779.68
265.46	1783.78
265.68	1753.06
265.89	1665.00
266.11	1599.46
266.33	1802.21
266.54	1783.78
266.76	1785.83
266.98	1755.11
267.19	1730.53
267.41	1849.32
267.62	1738.73
267.84	1693.67
268.06	1730.53
268.27	1652.71
268.49	1769.44
268.70	1779.68
268.92	1697.77
269.14	1642.47
269.35	1652.71
269.57	1703.91
269.79	1730.53
270.00	1591.27
270.22	1808.36
270.43	1626.09
270.65	1560.55
270.87	1726.44
271.08	1740.77
271.30	1689.57
271.51	1677.29
271.73	1810.40
271.95	1787.88
272.16	1722.34
272.38	1736.68
272.59	1640.42
272.81	1740.77
273.02	1769.44
273.24	1755.11
273.46	1751.01
273.67	1646.57
273.89	1644.52
274.10	1669.09
274.32	1703.91
274.54	1712.10
274.75	1720.29
274.97	1705.96
275.18	1794.02
275.40	1767.40
275.61	1693.67
275.83	1693.67
276.05	1544.17
276.26	1832.93
276.48	1673.19
276.69	1624.04
276.91	1658.85
277.12	1710.05
277.34	1779.68
277.55	1771.49
277.77	1697.77
277.99	1685.48
278.20	1654.76
278.42	1675.24
278.63	1695.72
278.85	1634.28
279.06	1589.22
279.28	1703.91
279.49	1759.21
279.71	1746.92
279.93	1646.57
280.14	1667.05
280.36	1593.32
280.57	1732.58
280.79	1757.16
281.00	1718.25
281.22	1685.48
281.43	1867.75
281.65	1671.14
281.86	1685.48
282.08	1697.77
282.29	1814.50
282.51	1603.56
282.73	1689.57
282.94	1607.66
283.16	1730.53
283.37	1763.30
283.59	1603.56
283.80	1742.82
284.02	1708.01
284.23	1742.82
284.45	1722.34
284.66	1669.09
284.88	1619.94
285.09	1697.77
285.31	1804.26
285.52	1742.82
285.74	1650.66
285.95	1742.82
286.17	1660.90
286.38	1742.82
286.60	1701.86
286.81	1732.58
287.03	1710.05
287.24	1658.85
287.46	1708.01
287.67	1656.81
287.89	1916.90
288.10	1728.49
288.32	1714.15
288.53	1796.07
288.75	1691.62
288.96	1732.58
289.18	1683.43
289.39	1624.04
289.61	1767.40
289.82	1837.03
290.04	1882.08
290.25	1638.38
290.47	1697.77
290.68	1710.05
290.90	1808.36
291.11	1660.90
291.33	1689.57
291.54	1669.09
291.76	1742.82
291.97	1673.19
292.18	1736.68
292.40	1658.85
292.61	1667.05
292.83	1869.80
293.04	1800.16
293.26	1722.34
293.47	1712.10
293.69	1669.09
293.90	1699.81
294.12	1787.88
294.33	1730.53
294.55	1734.63
294.76	1816.55
294.97	1757.16
295.19	1839.08
295.40	1693.67
295.62	1738.73
295.83	1697.77
296.05	1630.18
296.26	1724.39
296.48	1667.05
296.69	1648.61
296.90	1658.85
297.12	1744.87
297.33	1802.21
297.55	1769.44
297.76	1744.87
297.98	1748.97
298.19	1839.08
298.41	1718.25
298.62	1714.15
298.83	1806.31
299.05	1761.25
299.26	1656.81
299.48	1699.81
299.69	1720.29
299.90	1736.68
300.12	1617.90
300.33	1730.53
300.55	1728.49
300.76	1828.84
300.98	1593.32
301.19	1765.35
301.40	1724.39
301.62	1714.15
301.83	1722.34
302.05	1779.68
302.26	1716.20
302.47	1712.10
302.69	1693.67
302.90	1726.44
303.12	1591.27
303.33	1787.88
303.54	1853.41
303.76	1732.58
303.97	1710.05
304.19	1775.59
304.40	1574.89
304.61	1740.77
304.83	1855.46
305.04	1839.08
305.26	1656.81
305.47	1667.05
305.68	1710.05
305.90	1683.43
306.11	1798.12
306.33	1761.25
306.54	1722.34
306.75	1673.19
306.97	1687.53
307.18	1648.61
307.39	1634.28
307.61	1742.82
307.82	1763.30
308.04	1724.39
308.25	1683.43
308.46	1718.25
308.68	1679.33
308.89	1662.95
309.10	1710.05
309.32	1673.19
309.53	1699.81
309.74	1761.25
309.96	1681.38
310.17	1783.78
310.39	1722.34
310.60	1746.92
310.81	1691.62
311.03	1595.37
311.24	1716.20
311.45	1796.07
311.67	1787.88
311.88	1693.67
312.09	1742.82
312.31	1726.44
312.52	1714.15
312.73	1718.25
312.95	1607.66
313.16	1716.20
313.37	1806.31
313.59	1746.92
313.80	1773.54
314.01	1910.75
314.23	1746.92
314.44	1656.81
314.65	1730.53
314.87	1671.14
315.08	1722.34
315.29	1628.14
315.51	1720.29
315.72	1697.77
315.93	1798.12
316.15	1746.92
316.36	1699.81
316.57	1763.30
316.79	1746.92
317.00	1716.20
317.21	1734.63
317.43	1621.99
317.64	1738.73
317.85	1685.48
318.07	1626.09
318.28	1716.20
318.49	1865.70
318.70	1875.94
318.92	1812.45
319.13	1816.55
319.34	1904.61
319.56	1775.59
319.77	1865.70
319.98	1777.64
320.20	1802.21
320.41	1673.19
320.62	1781.73
320.83	1609.70
321.05	1869.80
321.26	1677.29
321.47	1689.57
321.69	1753.06
321.90	1548.26
322.11	1634.28
322.32	1755.11
322.54	1783.78
322.75	1662.95
322.96	1767.40
323.18	1585.13
323.39	1599.46
323.60	1669.09
323.81	1695.72
324.03	1705.96
324.24	1724.39
324.45	1730.53
324.66	1665.00
324.88	1808.36
325.09	1841.12
325.30	1708.01
325.52	1736.68
325.73	1734.63
325.94	1675.24
326.15	1615.85
326.37	1724.39
326.58	1783.78
326.79	1882.08
327.00	1644.52
327.22	1816.55
327.43	1675.24
327.64	1660.90
327.85	1847.27
328.07	1726.44
328.28	1800.16
328.49	1630.18
328.70	1771.49
328.92	1726.44
329.13	1812.45
329.34	1658.85
329.55	1849.32
329.76	1722.34
329.98	1681.38
330.19	1834.98
330.40	1734.63
330.61	1705.96
330.83	1748.97
331.04	1681.38
331.25	1695.72
331.46	1654.76
331.68	1648.61
331.89	1771.49
332.10	1689.57
332.31	1585.13
332.52	1732.58
332.74	1781.73
332.95	1552.36
333.16	1624.04
333.37	1728.49
333.58	1675.24
333.80	1763.30
334.01	1648.61
334.22	1693.67
334.43	1716.20
334.64	1759.21
334.86	1656.81
335.07	1677.29
335.28	1787.88
335.49	1638.38
335.70	1763.30
335.92	1832.93
336.13	1834.98
336.34	1751.01
336.55	1697.77
336.76	1681.38
336.98	1693.67
337.19	1681.38
337.40	1818.60
337.61	1834.98
337.82	1671.14
338.04	1742.82
338.25	1650.66
338.46	1626.09
338.67	1689.57
338.88	1710.05
339.09	1714.15
339.31	1755.11
339.52	1652.71
339.73	1656.81
339.94	1845.22
340.15	1783.78
340.36	1693.67
340.58	1681.38
340.79	1642.47
341.00	1740.77
341.21	1665.00
341.42	1847.27
341.63	1732.58
341.85	1726.44
342.06	1734.63
342.27	1613.80
342.48	1728.49
342.69	1615.85
342.90	1732.58
343.12	1732.58
343.33	1689.57
343.54	1771.49
343.75	1804.26
343.96	1671.14
344.17	1716.20
344.38	1662.95
344.60	1679.33
344.81	1724.39
345.02	1738.73
345.23	1824.74
345.44	1755.11
345.65	1697.77
345.86	1738.73
346.07	1757.16
346.29	1730.53
346.50	1722.34
346.71	1777.64
346.92	1716.20
347.13	1853.41
347.34	1662.95
347.55	1755.11
347.76	1755.11
347.98	1603.56
348.19	1689.57
348.40	1718.25
348.61	1734.63
348.82	1796.07
349.03	1708.01
349.24	1691.62
349.45	1877.99
349.66	1669.09
349.88	1660.90
350.09	1634.28
350.30	1783.78
350.51	1794.02
350.72	1695.72
350.93	1689.57
351.14	1634.28
351.35	1755.11
351.56	1759.21
351.77	1693.67
351.99	1738.73
352.20	1855.46
352.41	1871.84
352.62	1689.57
352.83	1683.43
353.04	1667.05
353.25	1765.35
353.46	1781.73
353.67	1736.68
353.88	1699.81
354.09	1710.05
354.30	1689.57
354.52	1697.77
354.73	1632.23
354.94	1742.82
355.15	1781.73
355.36	1826.79
355.57	1646.57
355.78	1744.87
355.99	1634.28
356.20	1675.24
356.41	1806.31
356.62	1779.68
356.83	1738.73
357.04	1847.27
357.25	1570.79
357.46	1736.68
357.68	1560.55
357.89	1617.90
358.10	1685.48
358.31	1705.96
358.52	1775.59
358.73	1660.90
358.94	1656.81
359.15	1644.52
359.36	1662.95
359.57	1740.77
359.78	1681.38
359.99	1691.62
360.20	1648.61
360.41	1769.44
360.62	1718.25
360.83	1742.82
361.04	1748.97
361.25	1740.77
361.46	1796.07
361.67	1701.86
361.88	1763.30
362.09	1767.40
362.30	1708.01
362.51	1689.57
362.72	1718.25
362.93	1748.97
363.14	1751.01
363.35	1732.58
363.56	1671.14
363.78	1755.11
363.99	1781.73
364.20	1646.57
364.41	1773.54
364.62	1818.60
364.83	1765.35
365.04	1669.09
365.25	1779.68
365.46	1877.99
365.67	1677.29
365.88	1591.27
366.09	1714.15
366.30	1732.58
366.51	1832.93
366.72	1658.85
366.93	1716.20
367.14	1673.19
367.35	1845.22
367.56	1648.61
367.77	1841.12
367.98	1658.85
368.18	1724.39
368.39	1757.16
368.60	1630.18
368.81	1794.02
369.02	1728.49
369.23	1710.05
369.44	1656.81
369.65	1742.82
369.86	1773.54
370.07	1769.44
370.28	1689.57
370.49	1791.97
370.70	1691.62
370.91	1689.57
371.12	1675.24
371.33	1824.74
371.54	1648.61
371.75	1826.79
371.96	1621.99
372.17	1732.58
372.38	1753.06
372.59	1775.59
372.80	1732.58
373.01	1710.05
373.22	1716.20
373.43	1724.39
373.64	1669.09
373.85	1841.12
374.06	1785.83
374.26	1738.73
374.47	1787.88
374.68	1841.12
374.89	1689.57
375.10	1650.66
375.31	1748.97
375.52	1714.15
375.73	1708.01
375.94	1712.10
376.15	1855.46
376.36	1609.70
376.57	1667.05
376.78	1701.86
376.99	1773.54
377.20	1781.73
377.40	1726.44
377.61	1871.84
377.82	1642.47
378.03	1796.07
378.24	1755.11
378.45	1722.34
378.66	1738.73
378.87	1597.42
379.08	1568.74
379.29	1722.34
379.50	1822.69
379.71	1624.04
379.91	1773.54
380.12	1693.67
380.33	1742.82
380.54	1773.54
380.75	1665.00
380.96	1773.54
381.17	1822.69
381.38	1769.44
381.59	1710.05
381.80	1705.96
382.00	1796.07
382.21	1742.82
382.42	1742.82
382.63	1837.03
382.84	1755.11
383.05	1783.78
383.26	1751.01
383.47	1767.40
383.68	1726.44
383.88	1753.06
384.09	1693.67
384.30	1830.88
384.51	1757.16
384.72	1724.39
384.93	1665.00
385.14	1722.34
385.35	1839.08
385.55	1730.53
385.76	1685.48
385.97	1785.83
386.18	1638.38
386.39	1644.52
386.60	1667.05
386.81	1714.15
387.02	1742.82
387.22	1646.57
387.43	1775.59
387.64	1738.73
387.85	1900.52
388.06	2222.05
388.27	4190.14
388.48	6791.06
388.68	8155.01
388.89	9592.69
389.10	9869.16
389.31	8449.92
389.52	7587.72
389.73	6559.64
389.93	6279.07
390.14	5719.98
390.35	5310.38
390.56	4501.44
390.77	3811.27
390.98	3008.47
391.18	2578.39
391.39	2090.98
391.60	1806.31
391.81	1834.98
392.02	1755.11
392.23	1888.23
392.43	1734.63
392.64	1769.44
392.85	1681.38
393.06	1828.84
393.27	1744.87
393.47	1605.61
393.68	1755.11
393.89	1675.24
394.10	1759.21
394.31	1697.77
394.52	1681.38
394.72	1767.40
394.93	1875.94
395.14	1683.43
395.35	1779.68
395.56	1673.19
395.76	1662.95
395.97	1787.88
396.18	1865.70
396.39	1853.41
396.60	2093.02
396.80	1873.89
397.01	1804.26
397.22	1869.80
397.43	1873.89
397.64	1736.68
397.84	1779.68
398.05	1857.51
398.26	1685.48
398.47	1824.74
398.67	1734.63
398.88	1724.39
399.09	1703.91
399.30	1687.53
399.51	1734.63
399.71	1654.76
399.92	1667.05
400.13	1652.71
400.34	1669.09
400.54	1730.53
400.75	1820.64
400.96	1718.25
401.17	1890.28
401.37	1808.36
401.58	1730.53
401.79	1832.93
402.00	1927.14
402.21	2041.82
402.41	1955.81
402.62	1986.53
402.83	2103.26
403.04	1931.23
403.24	2142.18
403.45	1828.84
403.66	1875.94
403.87	1886.18
404.07	1949.67
404.28	1951.71
404.49	1918.95
404.70	1771.49
404.90	1806.31
405.11	1771.49
405.32	1787.88
405.52	1640.42
405.73	1617.90
405.94	1714.15
406.15	1742.82
406.35	1757.16
406.56	1708.01
406.77	1746.92
406.98	1732.58
407.18	1669.09
407.39	1826.79
407.60	1699.81
407.80	1798.12
408.01	1679.33
408.22	1742.82
408.43	1671.14
408.63	1714.15
408.84	1789.92
409.05	1816.55
409.25	1724.39
409.46	1630.18
409.67	1767.40
409.88	1681.38
410.08	1691.62
410.29	1730.53
410.50	1767.40
410.70	1689.57
410.91	1595.37
411.12	1675.24
411.32	1767.40
411.53	1681.38
411.74	1802.21
411.95	1746.92
412.15	1830.88
412.36	1763.30
412.57	1775.59
412.77	1877.99
412.98	1789.92
413.19	1718.25
413.39	1781.73
413.60	1765.35
413.81	1812.45
414.01	1697.77
414.22	1742.82
414.43	1783.78
414.63	1687.53
414.84	1802.21
415.05	1767.40
415.25	1581.03
415.46	1708.01
415.67	1697.77
415.87	1767.40
416.08	1697.77
416.29	1708.01
416.49	1724.39
416.70	1703.91
416.91	1656.81
417.11	1740.77
417.32	1746.92
417.53	1740.77
417.73	1779.68
417.94	1673.19
418.15	1748.97
418.35	1609.70
418.56	1816.55
418.77	1871.84
418.97	1693.67
419.18	1740.77
419.38	1640.42
419.59	1734.63
419.80	1767.40
420.00	1705.96
420.21	1746.92
420.42	1808.36
420.62	1779.68
420.83	1669.09
421.04	1701.86
421.24	1677.29
421.45	1777.64
421.65	1767.40
421.86	1738.73
422.07	1759.21
422.27	1677.29
422.48	1732.58
422.69	1669.09
422.89	1685.48
423.10	1726.44
423.30	1628.14
423.51	1703.91
423.72	1726.44
423.92	1738.73
424.13	1576.94
424.33	1816.55
424.54	1746.92
424.75	1726.44
424.95	1783.78
425.16	1744.87
425.36	1662.95
425.57	1830.88
425.78	1726.44
425.98	1859.56
426.19	1705.96
426.39	1583.08
426.60	1710.05
426.81	1771.49
427.01	1744.87
427.22	1648.61
427.42	1564.65
427.63	1703.91
427.83	1728.49
428.04	1841.12
428.25	1812.45
428.45	1808.36
428.66	1748.97
428.86	1753.06
429.07	1705.96
429.28	1714.15
429.48	1710.05
429.69	1662.95
429.89	1757.16
430.10	1648.61
430.30	1748.97
430.51	1832.93
430.71	1607.66
430.92	1701.86
431.13	1712.10
431.33	1751.01
431.54	1697.77
431.74	1771.49
431.95	1802.21
432.15	1656.81
432.36	1710.05
432.56	1845.22
432.77	1863.65
432.98	1708.01
433.18	1691.62
433.39	1658.85
433.59	1675.24
433.80	1789.92
434.00	1837.03
434.21	1714.15
434.41	1656.81
434.62	1828.84
434.82	1736.68
435.03	1689.57
435.23	1734.63
435.44	1669.09
435.64	1716.20
435.85	1855.46
436.06	1816.55
436.26	1861.60
436.47	1722.34
436.67	1638.38
436.88	1726.44
437.08	1763.30
437.29	1855.46
437.49	1722.34
437.70	1771.49
437.90	1660.90
438.11	1824.74
438.31	1808.36
438.52	1931.23
438.72	1839.08
438.93	1894.37
439.13	1787.88
439.34	1877.99
439.54	1736.68
439.75	1832.93
439.95	1806.31
440.16	1718.25
440.36	1808.36
440.57	1757.16
440.77	1734.63
440.98	1781.73
441.18	1716.20
441.39	1757.16
441.59	1720.29
441.80	1935.33
442.00	1730.53
442.21	1853.41
442.41	1705.96
442.62	1775.59
442.82	1687.53
443.02	1669.09
443.23	1734.63
443.43	1812.45
443.64	1787.88
443.84	1722.34
444.05	1843.17
444.25	1820.64
444.46	1710.05
444.66	1712.10
444.87	1816.55
445.07	1679.33
445.28	1779.68
445.48	1845.22
445.69	1855.46
445.89	1910.75
446.09	1779.68
446.30	1998.82
446.50	2650.07
446.71	3622.86
446.91	4362.17
447.12	4874.17
447.32	4876.21
447.53	4298.69
447.73	3866.56
447.93	3647.43
448.14	3356.62
448.34	3200.98
448.55	2828.24
448.75	2840.53
448.96	2713.56
449.16	2406.36
449.36	2256.86
449.57	2129.89
449.77	1904.61
449.98	1755.11
450.18	1804.26
450.39	1892.32
450.59	1753.06
450.79	1769.44
451.00	1703.91
451.20	1820.64
451.41	1798.12
451.61	1701.86
451.81	1716.20
452.02	1730.53
452.22	1693.67
452.43	1685.48
452.63	1730.53
452.84	1716.20
453.04	1697.77
453.24	1783.78
453.45	1703.91
453.65	1705.96
453.86	1832.93
454.06	1761.25
454.26	1720.29
454.47	1722.34
454.67	1798.12
454.87	1701.86
455.08	1701.86
455.28	1857.51
455.49	1761.25
455.69	1742.82
455.89	1851.36
456.10	1843.17
456.30	1701.86
456.51	1712.10
456.71	1744.87
456.91	1761.25
457.12	1730.53
457.32	1718.25
457.52	1658.85
457.73	1783.78
457.93	1826.79
458.14	1675.24
458.34	1642.47
458.54	1681.38
458.75	1726.44
458.95	1767.40
459.15	1796.07
459.36	1779.68
459.56	1810.40
459.76	1882.08
459.97	1773.54
460.17	1738.73
460.37	1820.64
460.58	1683.43
460.78	1775.59
460.99	1767.40
461.19	1714.15
461.39	1689.57
461.60	1785.83
461.80	1781.73
462.00	1691.62
462.21	1783.78
462.41	1685.48
462.61	1617.90
462.82	1687.53
463.02	1755.11
463.22	1732.58
463.43	1834.98
463.63	1736.68
463.83	1855.46
464.04	1789.92
464.24	1796.07
464.44	1761.25
464.64	1787.88
464.85	1769.44
465.05	1808.36
465.25	1779.68
465.46	1630.18
465.66	1814.50
465.86	1820.64
466.07	1789.92
466.27	1738.73
466.47	1742.82
466.68	1646.57
466.88	1806.31
467.08	1771.49
467.29	1781.73
467.49	1740.77
467.69	1773.54
467.89	1728.49
468.10	1669.09
468.30	1740.77
468.50	1818.60
468.71	1828.84
468.91	1603.56
469.11	1765.35
469.31	1771.49
469.52	1675.24
469.72	1814.50
469.92	1949.67
470.13	1748.97
470.33	1742.82
470.53	1861.60
470.73	2179.04
470.94	2291.68
471.14	2275.29
471.34	2461.66
471.54	2480.09
471.75	2314.20
471.95	2181.09
472.15	2080.74
472.36	2099.17
472.56	2088.93
472.76	2115.55
472.96	2031.58
473.17	1957.86
473.37	1923.04
473.57	1816.55
473.77	1800.16
473.98	1824.74
474.18	1716.20
474.38	1923.04
474.58	1705.96
474.79	1740.77
474.99	1751.01
475.19	1865.70
475.39	1654.76
475.60	1824.74
475.80	1701.86
476.00	1740.77
476.20	1771.49
476.41	1746.92
476.61	1820.64
476.81	1783.78
477.01	1744.87
477.21	1886.18
477.42	1742.82
477.62	1677.29
477.82	1806.31
478.02	1775.59
478.23	1767.40
478.43	1679.33
478.63	1675.24
478.83	1771.49
479.03	1699.81
479.24	1816.55
479.44	1857.51
479.64	1665.00
479.84	1566.70
480.04	1673.19
480.25	1787.88
480.45	1685.48
480.65	1660.90
480.85	1839.08
481.06	1710.05
481.26	1728.49
481.46	1763.30
481.66	1759.21
481.86	1759.21
482.06	1697.77
482.27	1724.39
482.47	1742.82
482.67	1783.78
482.87	1726.44
483.07	1728.49
483.28	1808.36
483.48	1685.48
483.68	1681.38
483.88	1658.85
484.08	1650.66
484.29	1699.81
484.49	1697.77
484.69	1689.57
484.89	1882.08
485.09	1748.97
485.29	1751.01
485.50	1742.82
485.70	1751.01
485.90	1804.26
486.10	1785.83
486.30	1710.05
486.50	1771.49
486.71	1683.43
486.91	1839.08
487.11	1808.36
487.31	1662.95
487.51	1759.21
487.71	1691.62
487.91	1728.49
488.12	1654.76
488.32	1605.61
488.52	1656.81
488.72	1540.07
488.92	1742.82
489.12	1759.21
489.32	1777.64
489.53	1773.54
489.73	1675.24
489.93	1826.79
490.13	1734.63
490.33	1624.04
490.53	1783.78
490.73	1800.16
490.94	1638.38
491.14	1775.59
491.34	1837.03
491.54	2115.55
491.74	2480.09
491.94	2928.60
492.14	3053.52
492.34	3012.56
492.54	2799.57
492.75	2441.18
492.95	2473.95
493.15	2418.65
493.35	2316.25
493.55	2209.76
493.75	2187.23
493.95	2166.75
494.15	2035.68
494.35	1966.05
494.56	1863.65
494.76	1798.12
494.96	1832.93
495.16	1814.50
495.36	1755.11
495.56	1771.49
495.76	1763.30
495.96	1771.49
496.16	1720.29
496.36	1814.50
496.56	1759.21
496.77	1736.68
496.97	1714.15
497.17	1783.78
497.37	1746.92
497.57	1802.21
497.77	1783.78
497.97	1703.91
498.17	1738.73
498.37	1728.49
498.57	1730.53
498.77	1718.25
498.97	1794.02
499.17	1867.75
499.38	1777.64
499.58	1779.68
499.78	1785.83
499.98	1812.45
500.18	1789.92
500.38	1710.05
500.58	2039.78
500.78	2609.11
500.98	4472.76
501.18	5863.33
501.38	6832.02
501.58	7196.56
501.78	6682.52
501.98	5611.43
502.18	5005.24
502.38	4427.71
502.58	4159.42
502.78	3817.41
502.98	3641.29
503.18	3430.35
503.38	3143.63
503.59	2815.96
503.79	2779.09
503.99	2455.51
504.19	2271.20
504.39	2201.57
504.59	2164.70
504.79	2150.37
504.99	2115.55
505.19	1935.33
505.39	1894.37
505.59	1978.34
505.79	1902.56
505.99	1869.80
506.19	1826.79
506.39	1849.32
506.59	1757.16
506.79	1765.35
506.99	1839.08
507.19	1771.49
507.39	1789.92
507.59	1691.62
507.79	1724.39
507.99	1705.96
508.19	1724.39
508.39	1669.09
508.59	1789.92
508.79	1806.31
508.99	1746.92
509.19	1779.68
509.39	1796.07
509.59	1759.21
509.79	1658.85
509.99	1806.31
510.19	1734.63
510.39	1798.12
510.59	1765.35
510.79	1746.92
510.99	1785.83
511.19	1679.33
511.39	1822.69
511.59	1769.44
511.79	1820.64
511.99	1771.49
512.19	1837.03
512.38	1816.55
512.58	1669.09
512.78	1763.30
512.98	1763.30
513.18	1822.69
513.38	1652.71
513.58	1800.16
513.78	1806.31
513.98	1853.41
514.18	1732.58
514.38	1830.88
514.58	1738.73
514.78	1798.12
514.98	1640.42
515.18	1763.30
515.38	1656.81
515.58	1775.59
515.78	1669.09
515.98	1697.77
516.18	1785.83
516.38	1753.06
516.57	1701.86
516.77	1695.72
516.97	1775.59
517.17	1759.21
517.37	1628.14
517.57	1755.11
517.77	1726.44
517.97	1734.63
518.17	1791.97
518.37	1685.48
518.57	1687.53
518.77	1718.25
518.97	1759.21
519.16	1748.97
519.36	1759.21
519.56	1730.53
519.76	1714.15
519.96	1779.68
520.16	1787.88
520.36	1640.42
520.56	1830.88
520.76	1767.40
520.96	1728.49
521.16	1771.49
521.35	1841.12
521.55	1931.23
521.75	1771.49
521.95	1691.62
522.15	1748.97
522.35	1681.38
522.55	1677.29
522.75	1800.16
522.95	1753.06
523.14	1791.97
523.34	1724.39
523.54	1724.39
523.74	1802.21
523.94	1804.26
524.14	1683.43
524.34	1824.74
524.54	1787.88
524.73	1712.10
524.93	1728.49
525.13	1714.15
525.33	1673.19
525.53	1935.33
525.73	1789.92
525.93	1730.53
526.13	1701.86
526.32	1708.01
526.52	1740.77
526.72	1759.21
526.92	1732.58
527.12	1765.35
527.32	1675.24
527.52	1777.64
527.71	1775.59
527.91	1720.29
528.11	1746.92
528.31	1689.57
528.51	1695.72
528.71	1814.50
528.90	1765.35
529.10	1710.05
529.30	1818.60
529.50	1607.66
529.70	1775.59
529.90	1738.73
530.09	1796.07
530.29	1710.05
530.49	1705.96
530.69	1841.12
530.89	1796.07
531.09	1791.97
531.28	1802.21
531.48	1767.40
531.68	1679.33
531.88	1740.77
532.08	1744.87
532.28	1794.02
532.47	1751.01
532.67	1804.26
532.87	1781.73
533.07	1722.34
533.27	1730.53
533.46	1748.97
533.66	1753.06
533.86	1689.57
534.06	1703.91
534.26	1755.11
534.45	1732.58
534.65	1818.60
534.85	1767.40
535.05	1734.63
535.25	1781.73
535.44	1699.81
535.64	1771.49
535.84	1857.51
536.04	1656.81
536.24	1687.53
536.43	1669.09
536.63	1742.82
536.83	1689.57
537.03	1783.78
537.22	1738.73
537.42	1578.98
537.62	1720.29
537.82	1667.05
538.02	1843.17
538.21	1914.85
538.41	1855.46
538.61	1771.49
538.81	1648.61
539.00	1871.84
539.20	1685.48
539.40	1697.77
539.60	1753.06
539.79	1796.07
539.99	1720.29
540.19	1697.77
540.39	1689.57
540.58	1845.22
540.78	1853.41
540.98	1722.34
541.18	1767.40
541.37	1830.88
541.57	1660.90
541.77	1771.49
541.97	1697.77
542.16	1632.23
542.36	1761.25
542.56	1777.64
542.76	1814.50
542.95	1808.36
543.15	1767.40
543.35	1822.69
543.54	1628.14
543.74	1703.91
543.94	1785.83
544.14	1744.87
544.33	1748.97
544.53	1773.54
544.73	1730.53
544.93	1738.73
545.12	1712.10
545.32	1703.91
545.52	1722.34
545.71	1693.67
545.91	1681.38
546.11	1689.57
546.30	1732.58
546.50	1746.92
546.70	1787.88
546.90	1744.87
547.09	1638.38
547.29	1708.01
547.49	1722.34
547.68	1712.10
547.88	1730.53
548.08	1755.11
548.27	2166.75
548.47	1671.14
548.67	1734.63
548.87	1773.54
549.06	1800.16
549.26	1720.29
549.46	1839.08
549.65	1738.73
549.85	1771.49
550.05	1771.49
550.24	1624.04
550.44	1748.97
550.64	1820.64
550.83	1656.81
551.03	1890.28
551.23	1789.92
551.42	1800.16
551.62	1730.53
551.82	1769.44
552.01	1742.82
552.21	1810.40
552.41	1816.55
552.60	1804.26
552.80	1605.61
553.00	1781.73
553.19	1763.30
553.39	1808.36
553.59	1695.72
553.78	1769.44
553.98	1757.16
554.17	1695.72
554.37	1785.83
554.57	1837.03
554.76	1681.38
554.96	1699.81
555.16	1789.92
555.35	1787.88
555.55	1816.55
555.75	1744.87
555.94	1783.78
556.14	1644.52
556.33	1785.83
556.53	1767.40
556.73	1777.64
556.92	1794.02
557.12	1886.18
557.32	1812.45
557.51	1767.40
557.71	1783.78
557.90	1769.44
558.10	1796.07
558.30	1732.58
558.49	1712.10
558.69	1710.05
558.88	1796.07
559.08	1775.59
559.28	1748.97
559.47	1791.97
559.67	1857.51
559.86	1867.75
560.06	1855.46
560.26	1681.38
560.45	1791.97
560.65	1757.16
560.84	1824.74
561.04	1693.67
561.24	1765.35
561.43	1691.62
561.63	1851.36
561.82	1785.83
562.02	1751.01
562.22	1787.88
562.41	1720.29
562.61	1687.53
562.80	1726.44
563.00	1935.33
563.19	1804.26
563.39	1832.93
563.59	1777.64
563.78	1697.77
563.98	1638.38
564.17	1767.40
564.37	1642.47
564.56	1718.25
564.76	1726.44
564.96	1830.88
565.15	1742.82
565.35	1886.18
565.54	1757.16
565.74	1802.21
565.93	1779.68
566.13	1757.16
566.32	1820.64
566.52	1828.84
566.71	1718.25
566.91	1771.49
567.11	1757.16
567.30	1714.15
567.50	1771.49
567.69	1806.31
567.89	1701.86
568.08	1681.38
568.28	1761.25
568.47	1734.63
568.67	1691.62
568.86	1779.68
569.06	1773.54
569.25	1740.77
569.45	1642.47
569.64	1701.86
569.84	1697.77
570.04	1726.44
570.23	1714.15
570.43	1837.03
570.62	1751.01
570.82	1832.93
571.01	1687.53
571.21	1828.84
571.40	1703.91
571.60	1787.88
571.79	1800.16
571.99	1763.30
572.18	1734.63
572.38	1724.39
572.57	1726.44
572.77	1783.78
572.96	1884.13
573.16	1826.79
573.35	1751.01
573.55	1751.01
573.74	1802.21
573.94	1679.33
574.13	1759.21
574.33	1744.87
574.52	1814.50
574.71	1828.84
574.91	1767.40
575.10	1673.19
575.30	1695.72
575.49	1611.75
575.69	1720.29
575.88	1722.34
576.08	1796.07
576.27	1757.16
576.47	1804.26
576.66	1820.64
576.86	1822.69
577.05	1724.39
577.25	1800.16
577.44	1847.27
577.64	1652.71
577.83	1769.44
578.02	1712.10
578.22	1826.79
578.41	1937.38
578.61	1701.86
578.80	1716.20
579.00	1802.21
579.19	1783.78
579.39	1744.87
579.58	1794.02
579.77	1826.79
579.97	1826.79
580.16	1861.60
580.36	1839.08
580.55	1820.64
580.75	1812.45
580.94	1816.55
581.13	1855.46
581.33	1884.13
581.52	1736.68
581.72	1918.95
581.91	1904.61
582.11	1718.25
582.30	1806.31
582.49	1808.36
582.69	1841.12
582.88	1787.88
583.08	1796.07
583.27	1812.45
583.47	1812.45
583.66	1773.54
583.85	1665.00
584.05	1759.21
584.24	1767.40
584.44	1736.68
584.63	1877.99
584.82	1861.60
585.02	1834.98
585.21	1886.18
585.41	1857.51
585.60	1810.40
585.79	1931.23
585.99	1896.42
586.18	1875.94
586.37	2111.46
586.57	3393.48
586.76	9600.88
586.96	24266.38
587.15	34487.79
587.34	40263.07
587.54	42081.66
587.73	36298.20
587.93	26240.62
588.12	21229.24
588.31	18044.65
588.51	16260.87
588.70	15159.06
588.89	13934.38
589.09	12631.87
589.28	11085.65
589.47	9449.33
589.67	8034.18
589.86	6360.99
590.06	4935.60
590.25	3782.60
590.44	3071.95
590.64	2539.48
590.83	2211.81
591.02	2183.13
591.22	1970.15
591.41	1857.51
591.60	1701.86
591.80	1929.19
591.99	1728.49
592.18	1818.60
592.38	1902.56
592.57	1716.20
592.76	1769.44
592.96	1808.36
593.15	1730.53
593.34	1773.54
593.54	1802.21
593.73	1818.60
593.92	1812.45
594.12	1773.54
594.31	1693.67
594.50	1851.36
594.70	1877.99
594.89	1931.23
595.08	1720.29
595.28	1802.21
595.47	1863.65
595.66	1783.78
595.86	1708.01
596.05	1695.72
596.24	1677.29
596.43	1781.73
596.63	1861.60
596.82	1781.73
597.01	1746.92
597.21	1775.59
597.40	1753.06
597.59	1761.25
597.79	1685.48
597.98	1753.06
598.17	1787.88
598.36	1841.12
598.56	1789.92
598.75	1748.97
598.94	1744.87
599.14	1763.30
599.33	1763.30
599.52	1798.12
599.71	1724.39
599.91	1794.02
600.10	1763.30
600.29	1722.34
600.48	1781.73
600.68	1781.73
600.87	1732.58
601.06	1710.05
601.26	1779.68
601.45	1777.64
601.64	1697.77
601.83	1789.92
602.03	1728.49
602.22	1685.48
602.41	1759.21
602.60	1787.88
602.80	1832.93
602.99	1767.40
603.18	1775.59
603.37	1794.02
603.57	1837.03
603.76	1781.73
603.95	1800.16
604.14	1742.82
604.34	1681.38
604.53	1777.64
604.72	1734.63
604.91	1791.97
605.10	1843.17
605.30	1642.47
605.49	1880.04
605.68	1802.21
605.87	1785.83
606.07	1658.85
606.26	1822.69
606.45	1751.01
606.64	1755.11
606.84	1757.16
607.03	1775.59
607.22	1806.31
607.41	1742.82
607.60	1671.14
607.80	1812.45
607.99	1746.92
608.18	1779.68
608.37	1724.39
608.56	1710.05
608.76	1812.45
608.95	1837.03
609.14	1660.90
609.33	1806.31
609.52	1761.25
609.72	1783.78
609.91	1873.89
610.10	1726.44
610.29	1834.98
610.48	1787.88
610.68	1771.49
610.87	1728.49
611.06	1720.29
611.25	1761.25
611.44	1843.17
611.63	1710.05
611.83	1763.30
612.02	1644.52
612.21	1800.16
612.40	1619.94
612.59	1667.05
612.79	1712.10
612.98	1771.49
613.17	1818.60
613.36	1742.82
613.55	1812.45
613.74	1681.38
613.93	1734.63
614.13	1714.15
614.32	1738.73
614.51	1761.25
614.70	1808.36
614.89	1730.53
615.08	1748.97
615.28	2050.02
615.47	1679.33
615.66	1722.34
615.85	1791.97
616.04	1863.65
616.23	1708.01
616.42	1646.57
616.62	1808.36
616.81	1802.21
617.00	1726.44
617.19	1771.49
617.38	1652.71
617.57	1775.59
617.76	1783.78
617.95	1787.88
618.15	1722.34
618.34	1847.27
618.53	1656.81
618.72	1791.97
618.91	1824.74
619.10	1841.12
619.29	1710.05
619.48	1734.63
619.68	1722.34
619.87	1814.50
620.06	1624.04
620.25	1718.25
620.44	1654.76
620.63	1757.16
620.82	1744.87
621.01	1753.06
621.20	1767.40
621.39	1767.40
621.59	1802.21
621.78	1691.62
621.97	1740.77
622.16	1742.82
622.35	1718.25
622.54	1828.84
622.73	1783.78
622.92	1607.66
623.11	1826.79
623.30	1683.43
623.49	1738.73
623.68	1667.05
623.88	1771.49
624.07	1796.07
624.26	1669.09
624.45	1787.88
624.64	1667.05
624.83	1738.73
625.02	1705.96
625.21	1693.67
625.40	1775.59
625.59	1855.46
625.78	1716.20
625.97	1753.06
626.16	1804.26
626.35	1726.44
626.54	1751.01
626.74	1814.50
626.93	1687.53
627.12	1693.67
627.31	1808.36
627.50	1783.78
627.69	1691.62
627.88	1634.28
628.07	1701.86
628.26	1574.89
628.45	1724.39
628.64	1660.90
628.83	1652.71
629.02	1652.71
629.21	1818.60
629.40	1738.73
629.59	1677.29
629.78	1673.19
629.97	1744.87
630.16	1763.30
630.35	1662.95
630.54	1656.81
630.73	1603.56
630.92	1773.54
631.11	1662.95
631.30	1660.90
631.49	1781.73
631.68	1669.09
631.87	1763.30
632.06	1720.29
632.25	1824.74
632.44	1718.25
632.63	1742.82
632.82	1681.38
633.01	1673.19
633.20	1746.92
633.39	1697.77
633.58	1619.94
633.77	1679.33
633.96	1796.07
634.15	1769.44
634.34	1730.53
634.53	1740.77
634.72	1671.14
634.91	1705.96
635.10	1757.16
635.29	1853.41
635.48	1730.53
635.67	1695.72
635.86	1636.33
636.05	1832.93
636.24	1708.01
636.43	1693.67
636.62	1755.11
636.81	1550.31
637.00	1716.20
637.19	1748.97
637.38	1724.39
637.57	1679.33
637.76	1648.61
637.95	1714.15
638.14	1738.73
638.33	1763.30
638.52	1697.77
638.71	1693.67
638.89	1712.10
639.08	1834.98
639.27	1746.92
639.46	1746.92
639.65	1777.64
639.84	1763.30
640.03	1902.56
640.22	1697.77
640.41	1865.70
640.60	1677.29
640.79	1761.25
640.98	1738.73
641.17	1812.45
641.36	1746.92
641.55	1734.63
641.74	1624.04
641.92	1671.14
642.11	1710.05
642.30	1693.67
642.49	1640.42
642.68	1679.33
642.87	1759.21
643.06	1710.05
643.25	1689.57
643.44	1708.01
643.63	1712.10
643.82	1705.96
644.00	1656.81
644.19	1738.73
644.38	1691.62
644.57	1755.11
644.76	1701.86
644.95	1730.53
645.14	1781.73
645.33	1710.05
645.52	1689.57
645.71	1679.33
645.89	1665.00
646.08	1736.68
646.27	1716.20
646.46	1839.08
646.65	1642.47
646.84	1806.31
647.03	1744.87
647.22	1746.92
647.40	1701.86
647.59	1724.39
647.78	1619.94
647.97	1728.49
648.16	1654.76
648.35	1748.97
648.54	1787.88
648.73	1691.62
648.91	1796.07
649.10	1720.29
649.29	1722.34
649.48	1705.96
649.67	1705.96
649.86	1671.14
650.05	1712.10
650.23	1851.36
650.42	1648.61
650.61	1775.59
650.80	1679.33
650.99	1796.07
651.18	1738.73
651.36	1775.59
651.55	1734.63
651.74	1886.18
651.93	1748.97
652.12	1765.35
652.31	1814.50
652.49	1761.25
652.68	1646.57
652.87	1783.78
653.06	1765.35
653.25	1755.11
653.44	1761.25
653.62	1781.73
653.81	1718.25
654.00	1746.92
654.19	1746.92
654.38	1843.17
654.56	1736.68
654.75	1687.53
654.94	1744.87
655.13	1751.01
655.32	1703.91
655.51	1794.02
655.69	1658.85
655.88	1761.25
656.07	1687.53
656.26	1814.50
656.45	1718.25
656.63	1681.38
656.82	1787.88
657.01	1839.08
657.20	1681.38
657.38	1865.70
657.57	1654.76
657.76	1669.09
657.95	1771.49
658.14	1775.59
658.32	1763.30
658.51	1603.56
658.70	1742.82
658.89	1732.58
659.08	1646.57
659.26	1828.84
659.45	1724.39
659.64	1757.16
659.83	1624.04
660.01	1947.62
660.20	1794.02
660.39	1820.64
660.58	1658.85
660.76	1775.59
660.95	1662.95
661.14	1693.67
661.33	1677.29
661.51	1730.53
661.70	1767.40
661.89	1828.84
662.08	1779.68
662.26	1753.06
662.45	1712.10
662.64	1816.55
662.83	1826.79
663.01	1689.57
663.20	1738.73
663.39	1775.59
663.58	1755.11
663.76	1699.81
663.95	1755.11
664.14	1648.61
664.32	1662.95
664.51	1656.81
664.70	1701.86
664.89	1773.54
665.07	1640.42
665.26	1751.01
665.45	1720.29
665.64	1826.79
665.82	1728.49
666.01	1796.07
666.20	1665.00
666.38	1796.07
666.57	1851.36
666.76	2201.57
666.95	4562.87
667.13	10424.16
667.32	15042.33
667.51	17755.89
667.69	19220.19
667.88	17503.99
668.07	12416.83
668.25	9521.01
668.44	8189.83
668.63	7231.38
668.81	6862.74
669.00	6166.43
669.19	5726.12
669.38	4986.80
669.56	4601.79
669.75	3903.43
669.94	3467.21
670.12	2891.73
670.31	2502.62
670.50	2199.52
670.68	2000.87
670.87	1990.63
671.06	1851.36
671.24	1810.40
671.43	1806.31
671.62	1765.35
671.80	1712.10
671.99	1697.77
672.18	1728.49
672.36	1755.11
672.55	1712.10
672.74	1730.53
672.92	1689.57
673.11	1865.70
673.29	1689.57
673.48	1785.83
673.67	1761.25
673.85	1861.60
674.04	1765.35
674.23	1771.49
674.41	1859.56
674.60	1705.96
674.79	1597.42
674.97	1679.33
675.16	1781.73
675.34	1779.68
675.53	1724.39
675.72	1734.63
675.90	1834.98
676.09	1736.68
676.28	1703.91
676.46	1632.23
676.65	1781.73
676.83	1732.58
677.02	1771.49
677.21	1789.92
677.39	1718.25
677.58	1667.05
677.77	1708.01
677.95	1675.24
678.14	1691.62
678.32	1656.81
678.51	1710.05
678.70	1820.64
678.88	1736.68
679.07	1685.48
679.25	1753.06
679.44	1726.44
679.63	1601.51
679.81	1724.39
680.00	1839.08
680.18	1746.92
680.37	1804.26
680.55	1773.54
680.74	1634.28
680.93	1665.00
681.11	1796.07
681.30	1710.05
681.48	1841.12
681.67	1724.39
681.85	1665.00
682.04	1705.96
682.23	1796.07
682.41	1734.63
682.60	1718.25
682.78	1652.71
682.97	1656.81
683.15	1734.63
683.34	1753.06
683.53	1771.49
683.71	1660.90
683.90	1791.97
684.08	1783.78
684.27	1734.63
684.45	1787.88
684.64	1816.55
684.82	1748.97
685.01	1791.97
685.19	1703.91
685.38	1773.54
685.57	1773.54
685.75	1642.47
685.94	1722.34
686.12	1636.33
686.31	1724.39
686.49	1751.01
686.68	1609.70
686.86	1710.05
687.05	1673.19
687.23	1830.88
687.42	1681.38
687.60	1613.80
687.79	1787.88
687.97	1791.97
688.16	1828.84
688.34	1781.73
688.53	1640.42
688.71	1708.01
688.90	1832.93
689.08	1665.00
689.27	1611.75
689.45	1808.36
689.64	1765.35
689.82	1789.92
690.01	1730.53
690.19	1771.49
690.38	1701.86
690.56	1830.88
690.75	1697.77
690.93	1644.52
691.12	1687.53
691.30	1718.25
691.49	1658.85
691.67	1667.05
691.86	1787.88
692.04	1740.77
692.23	1648.61
692.41	1677.29
692.60	1773.54
692.78	1767.40
692.97	1654.76
693.15	1783.78
693.34	1808.36
693.52	1751.01
693.71	1683.43
693.89	1671.14
694.08	1689.57
694.26	1740.77
694.44	1759.21
694.63	1783.78
694.81	1755.11
695.00	1697.77
695.18	1808.36
695.37	1843.17
695.55	1722.34
695.74	1748.97
695.92	1685.48
696.10	1857.51
696.29	1660.90
696.47	1689.57
696.66	1685.48
696.84	1695.72
697.03	1662.95
697.21	1701.86
697.40	2418.65
697.58	1822.69
697.76	1681.38
697.95	1624.04
698.13	1658.85
698.32	1751.01
698.50	1716.20
698.68	1732.58
698.87	1681.38
699.05	1720.29
699.24	1775.59
699.42	1740.77
699.61	1791.97
699.79	1724.39
699.97	1775.59
700.16	1693.67
700.34	1685.48
700.53	1681.38
700.71	1787.88
700.89	1777.64
701.08	1759.21
701.26	1665.00
701.45	2111.46
701.63	1714.15
701.81	1734.63
702.00	1591.27
702.18	1673.19
702.37	1652.71
702.55	1748.97
702.73	1716.20
702.92	1611.75
703.10	1785.83
703.28	1763.30
703.47	1630.18
703.65	1826.79
703.84	1746.92
704.02	1726.44
704.20	1769.44
704.39	1742.82
704.57	1705.96
704.75	1837.03
704.94	1755.11
705.12	1765.35
705.30	1787.88
705.49	2260.96
705.67	4423.61
705.86	9258.87
706.04	12552.00
706.22	14522.15
706.41	15441.68
706.59	13702.96
706.77	9502.58
706.96	7204.75
707.14	6614.94
707.32	5918.63
707.51	5670.83
707.69	4870.07
707.87	4196.29
708.06	3485.64
708.24	2961.36
708.42	2410.46
708.61	2240.48
708.79	1910.75
708.97	1851.36
709.16	1773.54
709.34	1789.92
709.52	1679.33
709.71	1705.96
709.89	1773.54
710.07	1681.38
710.26	1742.82
710.44	1732.58
710.62	1820.64
710.80	1669.09
710.99	1695.72
711.17	1794.02
711.35	1705.96
711.54	1697.77
711.72	1808.36
711.90	1716.20
712.09	1781.73
712.27	1697.77
712.45	1730.53
712.63	1689.57
712.82	1730.53
713.00	1716.20
713.18	1781.73
713.37	1736.68
713.55	1744.87
713.73	1732.58
713.91	1775.59
714.10	1658.85
714.28	1757.16
714.46	1757.16
714.65	1748.97
714.83	1759.21
715.01	1724.39
715.19	1722.34
715.38	1669.09
715.56	1720.29
715.74	1703.91
715.92	1630.18
716.11	1722.34
716.29	1640.42
716.47	1660.90
716.65	1662.95
716.84	1583.08
717.02	1746.92
717.20	1687.53
717.38	1656.81
717.57	1718.25
717.75	1763.30
717.93	1724.39
718.11	1798.12
718.30	1671.14
718.48	1738.73
718.66	1820.64
718.84	1791.97
719.03	1794.02
719.21	1660.90
719.39	1757.16
719.57	1796.07
719.75	1775.59
719.94	1603.56
720.12	1644.52
720.30	1779.68
720.48	1642.47
720.67	1669.09
720.85	1603.56
721.03	1687.53
721.21	1640.42
721.39	1710.05
721.58	1712.10
721.76	1708.01
721.94	1759.21
722.12	1738.73
722.30	1738.73
722.49	1644.52
722.67	1712.10
722.85	1816.55
723.03	1644.52
723.21	1699.81
723.40	1783.78
723.58	1816.55
723.76	1718.25
723.94	1818.60
724.12	1714.15
724.30	1806.31
724.49	1804.26
724.67	1624.04
724.85	1851.36
725.03	1665.00
725.21	1753.06
725.40	1843.17
725.58	1626.09
725.76	1691.62
725.94	1765.35
726.12	1619.94
726.30	1693.67
726.49	1683.43
726.67	1748.97
726.85	1677.29
727.03	1849.32
727.21	2183.13
727.39	2936.79
727.57	3803.08
727.76	4274.11
727.94	4351.93
728.12	4306.88
728.30	3721.16
728.48	2934.74
728.66	2713.56
728.84	2574.30
729.03	2353.12
729.21	2185.18
729.39	2015.20
729.57	1849.32
729.75	1779.68
729.93	1812.45
730.11	1759.21
730.30	1679.33
730.48	1767.40
730.66	1837.03
730.84	1708.01
731.02	1695.72
731.20	1779.68
731.38	1730.53
731.56	1624.04
731.74	1652.71
731.93	1675.24
732.11	1802.21
732.29	1732.58
732.47	1781.73
732.65	1738.73
732.83	1816.55
733.01	1722.34
733.19	1689.57
733.37	1724.39
733.56	1761.25
733.74	1697.77
733.92	1777.64
734.10	1681.38
734.28	1791.97
734.46	1572.84
734.64	1703.91
734.82	1708.01
735.00	1675.24
735.18	1632.23
735.36	1728.49
735.54	1701.86
735.73	1667.05
735.91	1728.49
736.09	1757.16
736.27	1636.33
736.45	1783.78
736.63	1665.00
736.81	1703.91
736.99	1775.59
737.17	1746.92
737.35	1667.05
737.53	1759.21
737.71	1617.90
737.89	1740.77
738.07	1744.87
738.25	1710.05
738.43	1724.39
738.61	1691.62
738.80	1660.90
738.98	1665.00
739.16	1699.81
739.34	1615.85
739.52	1794.02
739.70	1660.90
739.88	1773.54
740.06	1814.50
740.24	1544.17
740.42	1777.64
740.60	1591.27
740.78	1705.96
740.96	1654.76
741.14	1703.91
741.32	1740.77
741.50	1589.22
741.68	1841.12
741.86	1787.88
742.04	1648.61
742.22	1761.25
742.40	1712.10
742.58	1681.38
742.76	1681.38
742.94	1746.92
743.12	1679.33
743.30	1648.61
743.48	1732.58
743.66	1728.49
743.84	1746.92
744.02	1681.38
744.20	1710.05
744.38	1665.00
744.56	1642.47
744.74	1714.15
744.92	1761.25
745.10	1830.88
745.28	1791.97
745.46	1787.88
745.64	1691.62
745.82	1742.82
746.00	1742.82
746.18	1695.72
746.36	1636.33
746.54	1771.49
746.72	1746.92
746.90	1638.38
747.08	1841.12
747.26	1669.09
747.44	1708.01
747.62	1804.26
747.80	1738.73
747.98	1785.83
748.15	1726.44
748.33	1816.55
748.51	1689.57
748.69	1765.35
748.87	1619.94
749.05	1662.95
749.23	1617.90
749.41	1689.57
749.59	1638.38
749.77	1826.79
749.95	1658.85
750.13	1730.53
750.31	1720.29
750.49	1662.95
750.67	1771.49
750.85	1794.02
751.03	1761.25
751.20	1845.22
751.38	1744.87
751.56	1699.81
751.74	1789.92
751.92	1699.81
752.10	1642.47
752.28	1806.31
752.46	1705.96
752.64	1652.71
752.82	1757.16
753.00	1724.39
753.18	1732.58
753.35	1675.24
753.53	1740.77
753.71	1650.66
753.89	1779.68
754.07	1701.86
754.25	1796.07
754.43	1761.25
754.61	1648.61
754.79	1710.05
754.97	1736.68
755.14	1759.21
755.32	1644.52
755.50	1742.82
755.68	1714.15
755.86	1716.20
756.04	1697.77
756.22	1570.79
756.40	1738.73
756.57	1810.40
756.75	1701.86
756.93	1769.44
757.11	1736.68
757.29	1619.94
757.47	1669.09
757.65	1640.42
757.82	1587.18
758.00	1626.09
758.18	1718.25
758.36	1683.43
758.54	1767.40
758.72	1599.46
758.90	1718.25
759.07	1693.67
759.25	1581.03
759.43	1734.63
759.61	1669.09
759.79	2269.15
759.97	1779.68
760.15	1683.43
760.32	1685.48
760.50	1738.73
760.68	1822.69
760.86	1675.24
761.04	1746.92
761.22	1746.92
761.39	1753.06
761.57	1746.92
761.75	1654.76
761.93	1736.68
762.11	1632.23
762.28	1734.63
762.46	1640.42
762.64	1779.68
762.82	1669.09
763.00	1708.01
763.18	1826.79
763.35	1628.14
763.53	1755.11
763.71	1757.16
763.89	1671.14
764.07	1796.07
764.24	1740.77
764.42	1828.84
764.60	1697.77
764.78	1742.82
764.96	1751.01
765.13	1710.05
765.31	1724.39
765.49	1832.93
765.67	1632.23
765.84	1619.94
766.02	1712.10
766.20	1611.75
766.38	1843.17
766.56	1777.64
766.73	1755.11
766.91	1746.92
767.09	1755.11
767.27	1699.81
767.44	1615.85
767.62	1710.05
767.80	1734.63
767.98	1712.10
768.15	1714.15
768.33	1734.63
768.51	1734.63
768.69	1765.35
768.87	1718.25
769.04	1763.30
769.22	1882.08
769.40	1869.80
769.58	1863.65
769.75	1648.61
769.93	1802.21
770.11	1718.25
770.28	1751.01
770.46	1753.06
770.64	1828.84
770.82	1765.35
770.99	1619.94
771.17	1751.01
771.35	1746.92
771.53	1740.77
771.70	1656.81
771.88	1791.97
772.06	1687.53
772.23	1691.62
772.41	1648.61
772.59	1673.19
772.77	1665.00
772.94	1736.68
773.12	1808.36
773.30	1720.29
773.47	1808.36
773.65	1615.85
773.83	1781.73
774.01	1617.90
774.18	1626.09
774.36	1677.29
774.54	1660.90
774.71	1712.10
774.89	1689.57
775.07	1617.90
775.24	1730.53
775.42	1671.14
775.60	1746.92
775.78	1703.91
775.95	1705.96
776.13	1650.66
776.31	1587.18
776.48	1718.25
776.66	1787.88
776.84	1736.68
777.01	1644.52
777.19	1630.18
777.37	1671.14
777.54	1732.58
777.72	1849.32
777.90	1697.77
778.07	1701.86
778.25	1880.04
778.43	1726.44
778.60	1638.38
778.78	1722.34
778.96	1738.73
779.13	1665.00
779.31	1753.06
779.49	1714.15
779.66	1621.99
779.84	1665.00
780.01	1720.29
780.19	1626.09
780.37	1746.92
780.54	1798.12
780.72	1714.15
780.90	1650.66
781.07	1656.81
781.25	1660.90
781.43	1783.78
781.60	1671.14
781.78	1769.44
781.95	1685.48
782.13	1648.61
782.31	1703.91
782.48	1621.99
782.66	1751.01
782.83	1789.92
783.01	1808.36
783.19	1728.49
783.36	1660.90
783.54	1732.58
783.72	1761.25
783.89	1679.33
784.07	1695.72
784.24	1804.26
784.42	1808.36
784.60	1646.57
784.77	1804.26
784.95	1564.65
785.12	1667.05
785.30	1767.40
785.47	1646.57
785.65	1634.28
785.83	1656.81
786.00	1642.47
786.18	1615.85
786.35	1624.04
786.53	1619.94
786.71	1742.82
786.88	1722.34
787.06	1748.97
787.23	1703.91
787.41	1595.37
787.58	1685.48
787.76	1714.15
787.94	1726.44
788.11	1718.25
788.29	1763.30
788.46	1722.34
788.64	1624.04
788.81	1691.62
788.99	1701.86
789.16	1621.99
789.34	1753.06
789.52	1658.85
789.69	1687.53
789.87	1603.56
790.04	1601.51
790.22	1660.90
790.39	1808.36
790.57	1728.49
790.74	1705.96
790.92	1798.12
791.09	1730.53
791.27	1613.80
791.44	1728.49
791.62	1693.67
791.79	1812.45
791.97	1708.01
792.15	1984.48
792.32	1716.20
792.50	1708.01
792.67	1781.73
792.85	1828.84
793.02	1767.40
793.20	1671.14
793.37	1642.47
793.55	1660.90
793.72	1662.95
793.90	1753.06
794.07	1697.77
794.25	1681.38
794.42	1685.48
794.60	1556.46
794.77	1777.64
794.95	1730.53
795.12	1798.12
795.30	1726.44
795.47	1677.29
795.65	1794.02
795.82	1724.39
796.00	1638.38
796.17	1665.00
796.34	1718.25
796.52	1761.25
796.69	1775.59
796.87	1744.87
797.04	1710.05
797.22	1816.55
797.39	1763.30
797.57	1783.78
797.74	1701.86
797.92	1738.73
798.09	1673.19
798.27	1804.26
798.44	1685.48
798.62	1660.90
798.79	1763.30
798.96	1667.05
799.14	1673.19
799.31	1822.69
799.49	1710.05
799.66	1769.44
799.84	1742.82
800.01	1613.80
800.19	1753.06
800.36	1681.38
800.53	1677.29
800.71	1748.97
800.88	1798.12
801.06	1720.29
801.23	1671.14
801.41	1687.53
801.58	1722.34
801.75	1589.22
801.93	1746.92
802.10	1748.97
802.28	1724.39
802.45	1705.96
802.63	1755.11
802.80	1779.68
802.97	1744.87
803.15	1697.77
803.32	1695.72
803.50	1636.33
803.67	1654.76
803.84	1660.90
804.02	1730.53
804.19	1718.25
804.37	1572.84
804.54	1675.24
804.71	1718.25
804.89	1705.96
805.06	1665.00
805.24	1714.15
805.41	1617.90
805.58	1710.05
805.76	1871.84
805.93	1685.48
806.10	1718.25
806.28	1794.02
806.45	1814.50
806.63	1699.81
806.80	1701.86
806.97	1746.92
807.15	1771.49
807.32	1763.30
807.49	1705.96
807.67	1708.01
807.84	1691.62
808.01	1626.09
808.19	1757.16
808.36	1837.03
808.54	1693.67
808.71	1640.42
808.88	1736.68
809.06	1730.53
809.23	1765.35
809.40	1632.23
809.58	1757.16
809.75	1710.05
809.92	1714.15
810.10	1880.04
810.27	1714.15
810.44	1832.93
810.62	1757.16
810.79	1748.97
810.96	1562.60
811.14	1753.06
811.31	1740.77
811.48	1767.40
811.66	1673.19
811.83	1689.57
812.00	1716.20
812.18	1796.07
812.35	1861.60
812.52	1710.05
812.69	1642.47
812.87	1693.67
813.04	1687.53
813.21	1648.61
813.39	1703.91
813.56	1662.95
813.73	1746.92
813.91	1599.46
814.08	1712.10
814.25	1699.81
814.42	1611.75
814.60	1722.34
814.77	1681.38
814.94	1646.57
815.12	1740.77
815.29	1812.45
815.46	1665.00
815.63	1697.77
815.81	1691.62
815.98	1636.33
816.15	1769.44
816.33	1734.63
816.50	1648.61
816.67	1689.57
816.84	1714.15
817.02	1689.57
817.19	1710.05
817.36	1705.96
817.53	1769.44
817.71	1753.06
817.88	1720.29
818.05	1701.86
818.22	1697.77
818.40	1863.65
818.57	1681.38
818.74	1746.92
818.91	1705.96
819.09	1748.97
819.26	1724.39
819.43	1714.15
819.60	1705.96
819.78	1794.02
819.95	1812.45
820.12	1632.23
820.29	1746.92
820.47	1775.59
820.64	1789.92
820.81	1638.38
820.98	1714.15
821.15	1675.24
821.33	1763.30
821.50	1665.00
821.67	1714.15
821.84	1724.39
822.02	1673.19
822.19	1728.49
822.36	1603.56
822.53	1691.62
822.70	1615.85
822.88	1705.96
823.05	1789.92
823.22	1660.90
823.39	1708.01
823.56	1734.63
823.74	1853.41
823.91	1644.52
824.08	1730.53
824.25	1566.70
824.42	1771.49
824.60	1660.90
824.77	1683.43
824.94	1722.34
825.11	1691.62
825.28	1581.03
825.45	1783.78
825.63	1742.82
825.80	1619.94
825.97	1720.29
826.14	1689.57
826.31	1605.61
826.48	1724.39
826.66	1697.77
826.83	1697.77
827.00	1708.01
827.17	1726.44
827.34	1781.73
827.51	1607.66
827.69	1751.01
827.86	1585.13
828.03	1705.96
828.20	1742.82
828.37	1613.80
828.54	1656.81
828.71	1613.80
828.89	1861.60
829.06	1722.34
829.23	1722.34
829.40	1685.48
829.57	1611.75
829.74	1722.34
829.91	1693.67
830.09	1685.48
830.26	1755.11
830.43	1812.45
830.60	1746.92
830.77	1726.44
830.94	1738.73
831.11	1757.16
831.28	1693.67
831.46	1812.45
831.63	1691.62
831.80	1783.78
831.97	1675.24
832.14	1650.66
832.31	1814.50
832.48	1746.92
832.65	1783.78
832.82	1734.63
832.99	1746.92
833.17	1677.29
833.34	1742.82
833.51	1746.92
833.68	1597.42
833.85	1687.53
834.02	1712.10
834.19	1626.09
834.36	1650.66
834.53	1679.33
834.70	1738.73
834.87	1767.40
835.04	1742.82
835.22	1611.75
835.39	1683.43
835.56	1662.95
835.73	1701.86
835.90	1708.01
836.07	1675.24
836.24	1738.73
836.41	1640.42
836.58	1738.73
836.75	1806.31
836.92	1724.39
837.09	1660.90
837.26	1683.43
837.43	1742.82
837.60	1767.40
837.77	1736.68
837.94	1787.88
838.12	1769.44
838.29	1705.96
838.46	1632.23
838.63	1660.90
838.80	1814.50
838.97	1771.49
839.14	1648.61
839.31	1751.01
839.48	1679.33
839.65	1665.00
839.82	1794.02
839.99	1746.92
840.16	1662.95
840.33	1675.24
840.50	1652.71
840.67	1658.85
840.84	1609.70
841.01	1755.11
841.18	1724.39
841.35	1636.33
841.52	1742.82
841.69	1863.65
841.86	1689.57
842.03	1718.25
842.20	1665.00
842.37	1708.01
842.54	1681.38
842.71	1697.77
842.88	1677.29
843.05	1763.30
843.22	1701.86
843.39	1761.25
843.56	1712.10
843.73	1781.73
843.90	1744.87
844.07	1644.52
844.24	1841.12
844.41	1769.44
844.58	1738.73
844.75	1705.96
844.92	1744.87
845.09	1693.67
845.26	1693.67
845.43	1730.53
845.60	1697.77
845.77	1787.88
845.94	1648.61
846.10	1767.40
846.27	1574.89
846.44	1667.05
846.61	1718.25
846.78	1812.45
846.95	1740.77
847.12	1621.99
847.29	1740.77
847.46	1669.09
847.63	1804.26
847.80	1660.90
847.97	1769.44
848.14	1843.17
848.31	1732.58
848.48	1646.57
848.65	1773.54
848.82	1583.08
848.98	1904.61
849.15	1730.53
849.32	1796.07
849.49	1718.25
849.66	1703.91
849.83	1660.90
850.00	1648.61
850.17	1748.97
850.34	1667.05
850.51	1634.28
850.68	1681.38
850.85	1816.55
851.01	1685.48
851.18	1728.49
851.35	1673.19
851.52	1720.29
851.69	1806.31
851.86	1701.86
852.03	1726.44
852.20	1712.10
852.37	1708.01
852.53	1697.77
852.70	1800.16
852.87	1769.44
853.04	1734.63
853.21	1705.96
853.38	1718.25
853.55	1732.58
853.72	1804.26
853.89	1658.85
854.05	1665.00
854.22	1636.33
854.39	1728.49
854.56	1759.21
854.73	1808.36
854.90	1726.44
855.07	1755.11
855.23	1675.24
855.40	1718.25
855.57	1697.77
855.74	1632.23
855.91	1925.09
856.08	1660.90
856.25	1626.09
856.41	1656.81
856.58	1638.38
856.75	1685.48
856.92	1679.33
857.09	1787.88
857.26	1636.33
857.42	1650.66
857.59	1746.92
857.76	1748.97
857.93	1714.15
858.10	1812.45
858.27	1699.81
858.43	1722.34
858.60	1681.38
858.77	1673.19
858.94	1755.11
859.11	1701.86
859.27	1644.52
859.44	1640.42
859.61	1843.17
859.78	1681.38
859.95	1701.86
860.12	1607.66
860.28	1816.55
860.45	1806.31
860.62	1710.05
860.79	1769.44
860.95	1726.44
861.12	1687.53
861.29	1755.11
861.46	1685.48
861.63	1693.67
861.79	1665.00
861.96	1691.62
862.13	1648.61
862.30	1800.16
862.47	1658.85
862.63	1617.90
862.80	1812.45
862.97	1779.68
863.14	1730.53
863.30	1703.91
863.47	1724.39
863.64	1734.63
863.81	1691.62
863.97	1611.75
864.14	1736.68
864.31	1650.66
864.48	1675.24
864.65	1671.14
864.81	1785.83
864.98	1726.44
865.15	1699.81
865.32	1828.84
865.48	1755.11
865.65	1771.49
865.82	1671.14
865.98	1736.68
866.15	1738.73
866.32	1665.00
866.49	1679.33
866.65	1689.57
866.82	1710.05
866.99	1701.86
867.16	1685.48
867.32	1673.19
867.49	1689.57
867.66	1738.73
867.83	1705.96
867.99	1630.18
868.16	1632.23
868.33	1581.03
868.49	1693.67
868.66	1712.10
868.83	1677.29
868.99	1671.14
869.16	1730.53
869.33	1800.16
869.50	1791.97
869.66	1691.62
869.83	1656.81
870.00	1626.09
870.16	1775.59
870.33	1660.90
870.50	1802.21
870.66	1822.69
870.83	1763.30
871.00	1742.82
871.17	1738.73
871.33	1781.73
871.50	1724.39
871.67	1658.85
871.83	1761.25
872.00	1816.55
872.17	1738.73
872.33	1902.56
872.50	1712.10
872.67	1697.77
872.83	1744.87
873.00	1701.86
873.17	1728.49
873.33	1830.88
873.50	1755.11
873.67	1636.33
873.83	1687.53
874.00	1720.29
874.16	1759.21
874.33	1724.39
874.50	1640.42
874.66	1722.34
874.83	1759.21
875.00	1804.26
875.16	1787.88
875.33	1783.78
875.50	1607.66
875.66	1681.38
875.83	1738.73
875.99	1751.01
876.16	1683.43
876.33	1632.23
876.49	1697.77
876.66	1761.25
876.83	1757.16
876.99	1720.29
877.16	1675.24
877.32	1673.19
877.49	1648.61
877.66	1681.38
877.82	1853.41
877.99	1773.54
878.15	1675.24
878.32	1722.34
878.49	1718.25
878.65	1658.85
878.82	1724.39
878.98	1621.99
879.15	1787.88
879.32	1767.40
879.48	1708.01
879.65	1691.62
879.81	1687.53
879.98	1621.99
880.15	1669.09
880.31	1748.97
880.48	1703.91
880.64	1837.03
880.81	1699.81
880.97	1826.79
881.14	1757.16
881.31	1652.71
881.47	1853.41
881.64	1701.86
881.80	1654.76
881.97	1718.25
882.13	1724.39
882.30	1673.19
882.47	1605.61
882.63	1718.25
882.80	1699.81
882.96	1595.37
883.13	1724.39
883.29	1705.96
883.46	1728.49
883.62	1759.21
883.79	1746.92
883.95	1781.73
884.12	1720.29
884.29	1744.87
884.45	1697.77
884.62	1722.34
884.78	1656.81
884.95	1787.88
885.11	1665.00
885.28	1675.24
885.44	1640.42
885.61	1736.68
885.77	1708.01
885.94	1765.35
886.10	1695.72
886.27	1740.77
886.43	1841.12
886.60	1771.49
886.76	1628.14
886.93	1644.52
887.09	1769.44
887.26	1628.14
887.42	1681.38
887.59	1773.54
887.75	1837.03
887.92	1796.07
888.08	1804.26
888.25	1785.83
888.41	1728.49
888.58	1724.39
888.74	1718.25
888.91	1736.68
>>>>>End Processed Spectral Data<<<<<
