SpectraSuite Data File
++++++++++++++++++++++++++++++++++++
Date: Mon Jun 06 13:27:17 CEST 2016
User: root
Dark Spectrum Present: No
Reference Spectrum Present: No
Number of Sampled Component Spectra: 1
Spectrometers: USB4C02835
Integration Time (usec): 100000 (USB4C02835)
Spectra Averaged: 1 (USB4C02835)
Boxcar Smoothing: 0 (USB4C02835)
Correct for Electrical Dark: No (USB4C02835)
Strobe/Lamp Enabled: No (USB4C02835)
Correct for Detector Non-linearity: No (USB4C02835)
Correct for Stray Light: No (USB4C02835)
Number of Pixels in Processed Spectrum: 3648
>>>>>Begin Processed Spectral Data<<<<<
177.47	1499.11
177.69	1499.11
177.91	1499.11
178.13	1435.63
178.36	1546.22
178.58	1677.29
178.80	1673.19
179.02	1656.81
179.24	1632.23
179.46	1685.48
179.68	1763.30
179.90	1714.15
180.13	1691.62
180.35	1687.53
180.57	1732.58
180.79	1785.83
181.01	1724.39
181.23	1787.88
181.45	1826.79
181.67	1710.05
181.90	1673.19
182.12	1642.47
182.34	1640.42
182.56	1714.15
182.78	1656.81
183.00	1710.05
183.22	1736.68
183.44	1703.91
183.66	1812.45
183.89	1759.21
184.11	1712.10
184.33	1753.06
184.55	1689.57
184.77	1738.73
184.99	1755.11
185.21	1722.34
185.43	1777.64
185.65	1654.76
185.87	1671.14
186.10	1771.49
186.32	1744.87
186.54	1798.12
186.76	1679.33
186.98	1746.92
187.20	1703.91
187.42	1636.33
187.64	1730.53
187.86	1734.63
188.08	1777.64
188.30	1656.81
188.52	1679.33
188.75	1822.69
188.97	1722.34
189.19	1642.47
189.41	1714.15
189.63	1738.73
189.85	1697.77
190.07	1675.24
190.29	1593.32
190.51	1716.20
190.73	1675.24
190.95	1746.92
191.17	1708.01
191.39	1572.84
191.61	1689.57
191.84	1705.96
192.06	1665.00
192.28	1650.66
192.50	1945.57
192.72	1748.97
192.94	1730.53
193.16	1734.63
193.38	1660.90
193.60	1634.28
193.82	1720.29
194.04	1781.73
194.26	1740.77
194.48	1656.81
194.70	1615.85
194.92	1636.33
195.14	1710.05
195.36	1699.81
195.58	1695.72
195.80	1669.09
196.02	1669.09
196.24	1712.10
196.46	1677.29
196.69	1689.57
196.91	1843.17
197.13	1755.11
197.35	1742.82
197.57	1728.49
197.79	1677.29
198.01	1644.52
198.23	1705.96
198.45	1617.90
198.67	1648.61
198.89	1697.77
199.11	1726.44
199.33	1648.61
199.55	1583.08
199.77	1689.57
199.99	1714.15
200.21	1685.48
200.43	1671.14
200.65	1667.05
200.87	1603.56
201.09	1687.53
201.31	1667.05
201.53	1708.01
201.75	1724.39
201.97	1640.42
202.19	1697.77
202.41	1714.15
202.63	1789.92
202.85	1638.38
203.07	1681.38
203.29	1691.62
203.51	1624.04
203.73	1695.72
203.95	1804.26
204.17	1722.34
204.39	1740.77
204.61	1683.43
204.83	1658.85
205.05	1712.10
205.27	1730.53
205.49	1867.75
205.71	1730.53
205.93	1656.81
206.15	1593.32
206.37	1708.01
206.59	1634.28
206.81	1640.42
207.03	1640.42
207.25	1650.66
207.47	1777.64
207.69	1705.96
207.91	1722.34
208.13	1755.11
208.34	1644.52
208.56	1593.32
208.78	1757.16
209.00	1720.29
209.22	1667.05
209.44	1740.77
209.66	1691.62
209.88	1652.71
210.10	1681.38
210.32	1656.81
210.54	1755.11
210.76	1595.37
210.98	1773.54
211.20	1609.70
211.42	1703.91
211.64	1779.68
211.86	1742.82
212.08	1787.88
212.30	1695.72
212.52	1652.71
212.74	1679.33
212.96	1636.33
213.17	1712.10
213.39	1677.29
213.61	1746.92
213.83	1673.19
214.05	1662.95
214.27	1716.20
214.49	1652.71
214.71	1751.01
214.93	1751.01
215.15	1740.77
215.37	1699.81
215.59	1638.38
215.81	1748.97
216.03	1783.78
216.24	1703.91
216.46	1624.04
216.68	1718.25
216.90	1648.61
217.12	1732.58
217.34	1671.14
217.56	1740.77
217.78	1826.79
218.00	1617.90
218.22	1658.85
218.44	1667.05
218.66	1693.67
218.87	1796.07
219.09	1576.94
219.31	1736.68
219.53	1720.29
219.75	1609.70
219.97	1701.86
220.19	1744.87
220.41	1691.62
220.63	1710.05
220.85	1767.40
221.06	1640.42
221.28	1761.25
221.50	1691.62
221.72	1628.14
221.94	1744.87
222.16	1697.77
222.38	1718.25
222.60	1705.96
222.82	1734.63
223.03	1716.20
223.25	1681.38
223.47	1736.68
223.69	1855.46
223.91	1800.16
224.13	1675.24
224.35	1671.14
224.57	1708.01
224.78	1738.73
225.00	1667.05
225.22	1671.14
225.44	1691.62
225.66	1683.43
225.88	1628.14
226.10	1667.05
226.32	1726.44
226.53	1710.05
226.75	1695.72
226.97	1673.19
227.19	1718.25
227.41	1642.47
227.63	1691.62
227.85	1568.74
228.06	1683.43
228.28	1689.57
228.50	1746.92
228.72	1626.09
228.94	1679.33
229.16	1544.17
229.37	1689.57
229.59	1550.31
229.81	1712.10
230.03	1675.24
230.25	1667.05
230.47	1662.95
230.69	1628.14
230.90	1734.63
231.12	1714.15
231.34	1722.34
231.56	1746.92
231.78	1665.00
232.00	1693.67
232.21	1681.38
232.43	1656.81
232.65	1576.94
232.87	1689.57
233.09	1708.01
233.30	1595.37
233.52	1710.05
233.74	1705.96
233.96	1570.79
234.18	1687.53
234.40	1697.77
234.61	1871.84
234.83	1603.56
235.05	1576.94
235.27	1814.50
235.49	1814.50
235.70	1705.96
235.92	1814.50
236.14	1679.33
236.36	1863.65
236.58	1636.33
236.79	1730.53
237.01	1697.77
237.23	1710.05
237.45	1757.16
237.67	1705.96
237.88	1677.29
238.10	1904.61
238.32	1566.70
238.54	1718.25
238.76	1624.04
238.97	1640.42
239.19	1669.09
239.41	1728.49
239.63	1748.97
239.85	1601.51
240.06	1783.78
240.28	1734.63
240.50	1726.44
240.72	1677.29
240.93	1783.78
241.15	1771.49
241.37	1695.72
241.59	1744.87
241.81	1660.90
242.02	1701.86
242.24	1718.25
242.46	1734.63
242.68	1689.57
242.89	1691.62
243.11	1773.54
243.33	1673.19
243.55	1740.77
243.76	1736.68
243.98	1636.33
244.20	1689.57
244.42	1714.15
244.64	1703.91
244.85	1605.61
245.07	1638.38
245.29	1724.39
245.51	1726.44
245.72	1726.44
245.94	1755.11
246.16	1677.29
246.38	1787.88
246.59	1611.75
246.81	1687.53
247.03	1615.85
247.24	1566.70
247.46	1681.38
247.68	1665.00
247.90	1746.92
248.11	1681.38
248.33	1732.58
248.55	1685.48
248.77	1669.09
248.98	1812.45
249.20	1769.44
249.42	1724.39
249.64	1722.34
249.85	1716.20
250.07	1671.14
250.29	1810.40
250.50	1695.72
250.72	1638.38
250.94	1720.29
251.16	1787.88
251.37	1789.92
251.59	1710.05
251.81	1673.19
252.02	1816.55
252.24	1634.28
252.46	1714.15
252.68	1671.14
252.89	1636.33
253.11	1605.61
253.33	1916.90
253.54	1753.06
253.76	1728.49
253.98	1785.83
254.20	1656.81
254.41	1630.18
254.63	1726.44
254.85	1695.72
255.06	1673.19
255.28	1691.62
255.50	1710.05
255.71	1689.57
255.93	1669.09
256.15	1740.77
256.36	1703.91
256.58	1728.49
256.80	1728.49
257.02	1738.73
257.23	1718.25
257.45	1699.81
257.67	1716.20
257.88	1673.19
258.10	1740.77
258.32	1763.30
258.53	1720.29
258.75	1798.12
258.97	1742.82
259.18	1710.05
259.40	1740.77
259.62	1763.30
259.83	1783.78
260.05	1718.25
260.27	2025.44
260.48	1757.16
260.70	1652.71
260.92	1689.57
261.13	1714.15
261.35	1751.01
261.57	1806.31
261.78	1656.81
262.00	1617.90
262.22	1730.53
262.43	1660.90
262.65	1644.52
262.86	1683.43
263.08	1814.50
263.30	1689.57
263.51	1619.94
263.73	1581.03
263.95	1744.87
264.16	1599.46
264.38	1667.05
264.60	1728.49
264.81	1755.11
265.03	1697.77
265.25	1691.62
265.46	1656.81
265.68	1802.21
265.89	1744.87
266.11	1562.60
266.33	1683.43
266.54	1712.10
266.76	1767.40
266.98	1701.86
267.19	1718.25
267.41	1722.34
267.62	1632.23
267.84	1607.66
268.06	1671.14
268.27	1685.48
268.49	1730.53
268.70	1761.25
268.92	1665.00
269.14	1658.85
269.35	1605.61
269.57	1615.85
269.79	1771.49
270.00	1617.90
270.22	1755.11
270.43	1646.57
270.65	1624.04
270.87	1679.33
271.08	1730.53
271.30	1703.91
271.51	1677.29
271.73	1710.05
271.95	1804.26
272.16	1695.72
272.38	1746.92
272.59	1685.48
272.81	1652.71
273.02	1654.76
273.24	1759.21
273.46	1812.45
273.67	1636.33
273.89	1593.32
274.10	1697.77
274.32	1789.92
274.54	1755.11
274.75	1683.43
274.97	1675.24
275.18	1757.16
275.40	1665.00
275.61	1662.95
275.83	1669.09
276.05	1589.22
276.26	1693.67
276.48	1757.16
276.69	1656.81
276.91	1615.85
277.12	1720.29
277.34	1716.20
277.55	1710.05
277.77	1724.39
277.99	1710.05
278.20	1718.25
278.42	1648.61
278.63	1632.23
278.85	1609.70
279.06	1658.85
279.28	1779.68
279.49	1705.96
279.71	1728.49
279.93	1689.57
280.14	1603.56
280.36	1624.04
280.57	1763.30
280.79	1843.17
281.00	1746.92
281.22	1628.14
281.43	1718.25
281.65	1597.42
281.86	1587.18
282.08	1697.77
282.29	1841.12
282.51	1638.38
282.73	1669.09
282.94	1576.94
283.16	1812.45
283.37	1865.70
283.59	1796.07
283.80	1779.68
284.02	1699.81
284.23	1787.88
284.45	1648.61
284.66	1619.94
284.88	1621.99
285.09	1740.77
285.31	1761.25
285.52	1716.20
285.74	1675.24
285.95	1761.25
286.17	1830.88
286.38	1681.38
286.60	1742.82
286.81	1617.90
287.03	1630.18
287.24	1679.33
287.46	1712.10
287.67	1746.92
287.89	1777.64
288.10	1724.39
288.32	1757.16
288.53	1746.92
288.75	1738.73
288.96	1738.73
289.18	1738.73
289.39	1687.53
289.61	1769.44
289.82	1837.03
290.04	1841.12
290.25	1642.47
290.47	1634.28
290.68	1703.91
290.90	1728.49
291.11	1581.03
291.33	1691.62
291.54	1632.23
291.76	1593.32
291.97	1693.67
292.18	1736.68
292.40	1624.04
292.61	1626.09
292.83	1873.89
293.04	1748.97
293.26	1660.90
293.47	1710.05
293.69	1632.23
293.90	1630.18
294.12	1730.53
294.33	1693.67
294.55	1767.40
294.76	1781.73
294.97	1722.34
295.19	1886.18
295.40	1652.71
295.62	1673.19
295.83	1769.44
296.05	1724.39
296.26	1665.00
296.48	1599.46
296.69	1630.18
296.90	1751.01
297.12	1753.06
297.33	1697.77
297.55	1691.62
297.76	1697.77
297.98	1767.40
298.19	1710.05
298.41	1740.77
298.62	1656.81
298.83	1859.56
299.05	1730.53
299.26	1654.76
299.48	1576.94
299.69	1695.72
299.90	1681.38
300.12	1624.04
300.33	1771.49
300.55	1705.96
300.76	1783.78
300.98	1650.66
301.19	1708.01
301.40	1646.57
301.62	1628.14
301.83	1734.63
302.05	1677.29
302.26	1726.44
302.47	1726.44
302.69	1624.04
302.90	1744.87
303.12	1574.89
303.33	1710.05
303.54	1884.13
303.76	1615.85
303.97	1714.15
304.19	1796.07
304.40	1701.86
304.61	1728.49
304.83	1753.06
305.04	1730.53
305.26	1742.82
305.47	1632.23
305.68	1746.92
305.90	1626.09
306.11	1767.40
306.33	1697.77
306.54	1681.38
306.75	1712.10
306.97	1628.14
307.18	1665.00
307.39	1605.61
307.61	1814.50
307.82	1675.24
308.04	1660.90
308.25	1640.42
308.46	1753.06
308.68	1695.72
308.89	1675.24
309.10	1740.77
309.32	1726.44
309.53	1642.47
309.74	1652.71
309.96	1640.42
310.17	1738.73
310.39	1634.28
310.60	1718.25
310.81	1683.43
311.03	1615.85
311.24	1761.25
311.45	1708.01
311.67	1863.65
311.88	1646.57
312.09	1642.47
312.31	1628.14
312.52	1671.14
312.73	1693.67
312.95	1617.90
313.16	1660.90
313.37	1781.73
313.59	1677.29
313.80	1773.54
314.01	1787.88
314.23	1703.91
314.44	1726.44
314.65	1669.09
314.87	1681.38
315.08	1685.48
315.29	1695.72
315.51	1671.14
315.72	1634.28
315.93	1794.02
316.15	1761.25
316.36	1695.72
316.57	1691.62
316.79	1710.05
317.00	1667.05
317.21	1746.92
317.43	1634.28
317.64	1726.44
317.85	1652.71
318.07	1683.43
318.28	1751.01
318.49	1775.59
318.70	1880.04
318.92	1839.08
319.13	1748.97
319.34	1832.93
319.56	1757.16
319.77	1757.16
319.98	1746.92
320.20	1751.01
320.41	1722.34
320.62	1781.73
320.83	1658.85
321.05	1748.97
321.26	1738.73
321.47	1681.38
321.69	1732.58
321.90	1644.52
322.11	1677.29
322.32	1710.05
322.54	1882.08
322.75	1667.05
322.96	1826.79
323.18	1576.94
323.39	1617.90
323.60	1658.85
323.81	1781.73
324.03	1656.81
324.24	1671.14
324.45	1734.63
324.66	1681.38
324.88	1761.25
325.09	1771.49
325.30	1624.04
325.52	1714.15
325.73	1742.82
325.94	1687.53
326.15	1662.95
326.37	1665.00
326.58	1710.05
326.79	1804.26
327.00	1689.57
327.22	1701.86
327.43	1677.29
327.64	1593.32
327.85	1767.40
328.07	1722.34
328.28	1796.07
328.49	1646.57
328.70	1660.90
328.92	1718.25
329.13	1724.39
329.34	1736.68
329.55	1814.50
329.76	1773.54
329.98	1689.57
330.19	1773.54
330.40	1716.20
330.61	1718.25
330.83	1646.57
331.04	1619.94
331.25	1685.48
331.46	1730.53
331.68	1644.52
331.89	1759.21
332.10	1630.18
332.31	1632.23
332.52	1722.34
332.74	1759.21
332.95	1615.85
333.16	1660.90
333.37	1718.25
333.58	1679.33
333.80	1619.94
334.01	1662.95
334.22	1570.79
334.43	1656.81
334.64	1669.09
334.86	1722.34
335.07	1621.99
335.28	1783.78
335.49	1679.33
335.70	1730.53
335.92	1783.78
336.13	1820.64
336.34	1669.09
336.55	1611.75
336.76	1693.67
336.98	1583.08
337.19	1732.58
337.40	1730.53
337.61	1837.03
337.82	1665.00
338.04	1695.72
338.25	1599.46
338.46	1644.52
338.67	1607.66
338.88	1640.42
339.09	1675.24
339.31	1656.81
339.52	1667.05
339.73	1640.42
339.94	1673.19
340.15	1705.96
340.36	1679.33
340.58	1710.05
340.79	1619.94
341.00	1689.57
341.21	1679.33
341.42	1812.45
341.63	1732.58
341.85	1753.06
342.06	1705.96
342.27	1724.39
342.48	1697.77
342.69	1589.22
342.90	1755.11
343.12	1746.92
343.33	1675.24
343.54	1718.25
343.75	1796.07
343.96	1677.29
344.17	1652.71
344.38	1693.67
344.60	1638.38
344.81	1597.42
345.02	1658.85
345.23	1761.25
345.44	1787.88
345.65	1699.81
345.86	1726.44
346.07	1685.48
346.29	1595.37
346.50	1718.25
346.71	1742.82
346.92	1767.40
347.13	1753.06
347.34	1669.09
347.55	1701.86
347.76	1765.35
347.98	1617.90
348.19	1689.57
348.40	1830.88
348.61	1617.90
348.82	1798.12
349.03	1726.44
349.24	1634.28
349.45	1837.03
349.66	1605.61
349.88	1773.54
350.09	1744.87
350.30	1746.92
350.51	1746.92
350.72	1724.39
350.93	1701.86
351.14	1710.05
351.35	1742.82
351.56	1734.63
351.77	1665.00
351.99	1619.94
352.20	1726.44
352.41	1802.21
352.62	1642.47
352.83	1677.29
353.04	1703.91
353.25	1660.90
353.46	1773.54
353.67	1826.79
353.88	1566.70
354.09	1699.81
354.30	1722.34
354.52	1759.21
354.73	1673.19
354.94	1687.53
355.15	1722.34
355.36	1787.88
355.57	1673.19
355.78	1757.16
355.99	1638.38
356.20	1730.53
356.41	1744.87
356.62	1740.77
356.83	1722.34
357.04	1757.16
357.25	1603.56
357.46	1660.90
357.68	1611.75
357.89	1665.00
358.10	1673.19
358.31	1722.34
358.52	1576.94
358.73	1675.24
358.94	1583.08
359.15	1726.44
359.36	1730.53
359.57	1705.96
359.78	1656.81
359.99	1738.73
360.20	1650.66
360.41	1638.38
360.62	1710.05
360.83	1732.58
361.04	1730.53
361.25	1746.92
361.46	1808.36
361.67	1718.25
361.88	1759.21
362.09	1656.81
362.30	1646.57
362.51	1710.05
362.72	1703.91
362.93	1753.06
363.14	1714.15
363.35	1771.49
363.56	1638.38
363.78	1701.86
363.99	1716.20
364.20	1660.90
364.41	1746.92
364.62	1804.26
364.83	1722.34
365.04	1613.80
365.25	1689.57
365.46	1787.88
365.67	1652.71
365.88	1636.33
366.09	1642.47
366.30	1660.90
366.51	1673.19
366.72	1644.52
366.93	1652.71
367.14	1691.62
367.35	1712.10
367.56	1677.29
367.77	1724.39
367.98	1669.09
368.18	1787.88
368.39	1722.34
368.60	1697.77
368.81	1699.81
369.02	1634.28
369.23	1671.14
369.44	1652.71
369.65	1597.42
369.86	1732.58
370.07	1656.81
370.28	1656.81
370.49	1699.81
370.70	1751.01
370.91	1720.29
371.12	1705.96
371.33	1748.97
371.54	1628.14
371.75	1845.22
371.96	1619.94
372.17	1744.87
372.38	1689.57
372.59	1757.16
372.80	1691.62
373.01	1683.43
373.22	1796.07
373.43	1652.71
373.64	1607.66
373.85	1726.44
374.06	1779.68
374.26	1736.68
374.47	1726.44
374.68	1798.12
374.89	1691.62
375.10	1607.66
375.31	1820.64
375.52	1753.06
375.73	1673.19
375.94	1665.00
376.15	1779.68
376.36	1712.10
376.57	1691.62
376.78	1710.05
376.99	1732.58
377.20	1763.30
377.40	1640.42
377.61	1791.97
377.82	1673.19
378.03	1847.27
378.24	1771.49
378.45	1654.76
378.66	1718.25
378.87	1587.18
379.08	1642.47
379.29	1703.91
379.50	1757.16
379.71	1669.09
379.91	1804.26
380.12	1642.47
380.33	1673.19
380.54	1771.49
380.75	1642.47
380.96	1740.77
381.17	1730.53
381.38	1683.43
381.59	1689.57
381.80	1693.67
382.00	1798.12
382.21	1716.20
382.42	1884.13
382.63	1875.94
382.84	1746.92
383.05	1720.29
383.26	1812.45
383.47	1748.97
383.68	1679.33
383.88	1691.62
384.09	1693.67
384.30	1791.97
384.51	1681.38
384.72	1626.09
384.93	1673.19
385.14	1593.32
385.35	1794.02
385.55	1683.43
385.76	1806.31
385.97	1767.40
386.18	1636.33
386.39	1716.20
386.60	1685.48
386.81	1695.72
387.02	1626.09
387.22	1591.27
387.43	1685.48
387.64	1802.21
387.85	1800.16
388.06	2199.52
388.27	4302.78
388.48	6789.02
388.68	8136.58
388.89	9518.96
389.10	9645.93
389.31	8605.56
389.52	7552.91
389.73	6723.48
389.93	6385.57
390.14	5750.70
390.35	5347.25
390.56	4659.13
390.77	3751.88
390.98	3037.14
391.18	2635.74
391.39	2064.35
391.60	1791.97
391.81	1830.88
392.02	1679.33
392.23	1849.32
392.43	1708.01
392.64	1796.07
392.85	1753.06
393.06	1757.16
393.27	1738.73
393.47	1603.56
393.68	1746.92
393.89	1734.63
394.10	1757.16
394.31	1710.05
394.52	1650.66
394.72	1748.97
394.93	1765.35
395.14	1665.00
395.35	1728.49
395.56	1632.23
395.76	1734.63
395.97	1708.01
396.18	1837.03
396.39	1865.70
396.60	2084.83
396.80	1900.52
397.01	1804.26
397.22	1714.15
397.43	1830.88
397.64	1697.77
397.84	1839.08
398.05	1873.89
398.26	1791.97
398.47	1832.93
398.67	1761.25
398.88	1740.77
399.09	1734.63
399.30	1732.58
399.51	1699.81
399.71	1673.19
399.92	1708.01
400.13	1783.78
400.34	1685.48
400.54	1673.19
400.75	1812.45
400.96	1705.96
401.17	1777.64
401.37	1748.97
401.58	1714.15
401.79	1675.24
402.00	1828.84
402.21	2033.63
402.41	1931.23
402.62	1972.19
402.83	1972.19
403.04	1943.52
403.24	2060.26
403.45	1816.55
403.66	1914.85
403.87	1914.85
404.07	1920.99
404.28	1886.18
404.49	1902.56
404.70	1791.97
404.90	1777.64
405.11	1783.78
405.32	1699.81
405.52	1673.19
405.73	1697.77
405.94	1632.23
406.15	1703.91
406.35	1845.22
406.56	1755.11
406.77	1697.77
406.98	1714.15
407.18	1703.91
407.39	1771.49
407.60	1630.18
407.80	1773.54
408.01	1693.67
408.22	1718.25
408.43	1646.57
408.63	1718.25
408.84	1687.53
409.05	1748.97
409.25	1650.66
409.46	1626.09
409.67	1710.05
409.88	1703.91
410.08	1671.14
410.29	1730.53
410.50	1751.01
410.70	1748.97
410.91	1665.00
411.12	1710.05
411.32	1656.81
411.53	1652.71
411.74	1828.84
411.95	1837.03
412.15	1701.86
412.36	1781.73
412.57	1830.88
412.77	1796.07
412.98	1736.68
413.19	1701.86
413.39	1734.63
413.60	1767.40
413.81	1759.21
414.01	1767.40
414.22	1771.49
414.43	1755.11
414.63	1677.29
414.84	1775.59
415.05	1724.39
415.25	1615.85
415.46	1734.63
415.67	1683.43
415.87	1724.39
416.08	1732.58
416.29	1677.29
416.49	1689.57
416.70	1734.63
416.91	1697.77
417.11	1671.14
417.32	1759.21
417.53	1687.53
417.73	1755.11
417.94	1644.52
418.15	1722.34
418.35	1818.60
418.56	1771.49
418.77	1900.52
418.97	1746.92
419.18	1671.14
419.38	1599.46
419.59	1656.81
419.80	1712.10
420.00	1695.72
420.21	1685.48
420.42	1822.69
420.62	1626.09
420.83	1656.81
421.04	1679.33
421.24	1689.57
421.45	1791.97
421.65	1699.81
421.86	1626.09
422.07	1832.93
422.27	1787.88
422.48	1693.67
422.69	1716.20
422.89	1738.73
423.10	1691.62
423.30	1599.46
423.51	1740.77
423.72	1689.57
423.92	1736.68
424.13	1630.18
424.33	1765.35
424.54	1804.26
424.75	1689.57
424.95	1794.02
425.16	1753.06
425.36	1699.81
425.57	1787.88
425.78	1767.40
425.98	1791.97
426.19	1712.10
426.39	1611.75
426.60	1632.23
426.81	1812.45
427.01	1699.81
427.22	1730.53
427.42	1578.98
427.63	1587.18
427.83	1736.68
428.04	1748.97
428.25	1798.12
428.45	1701.86
428.66	1718.25
428.86	1769.44
429.07	1671.14
429.28	1673.19
429.48	1654.76
429.69	1591.27
429.89	1701.86
430.10	1628.14
430.30	1693.67
430.51	1802.21
430.71	1695.72
430.92	1681.38
431.13	1630.18
431.33	1722.34
431.54	1673.19
431.74	1841.12
431.95	1806.31
432.15	1597.42
432.36	1816.55
432.56	1742.82
432.77	1812.45
432.98	1720.29
433.18	1742.82
433.39	1740.77
433.59	1697.77
433.80	1851.36
434.00	1841.12
434.21	1632.23
434.41	1722.34
434.62	1873.89
434.82	1628.14
435.03	1630.18
435.23	1746.92
435.44	1624.04
435.64	1767.40
435.85	1722.34
436.06	1789.92
436.26	1789.92
436.47	1662.95
436.67	1646.57
436.88	1712.10
437.08	1771.49
437.29	1837.03
437.49	1718.25
437.70	1753.06
437.90	1675.24
438.11	1877.99
438.31	1736.68
438.52	1818.60
438.72	1849.32
438.93	1914.85
439.13	1755.11
439.34	1832.93
439.54	1783.78
439.75	1771.49
439.95	1771.49
440.16	1656.81
440.36	1708.01
440.57	1718.25
440.77	1763.30
440.98	1753.06
441.18	1732.58
441.39	1626.09
441.59	1695.72
441.80	1812.45
442.00	1755.11
442.21	1808.36
442.41	1642.47
442.62	1779.68
442.82	1677.29
443.02	1740.77
443.23	1759.21
443.43	1751.01
443.64	1779.68
443.84	1626.09
444.05	1775.59
444.25	1671.14
444.46	1705.96
444.66	1736.68
444.87	1816.55
445.07	1607.66
445.28	1775.59
445.48	1755.11
445.69	1765.35
445.89	1920.99
446.09	1658.85
446.30	2029.54
446.50	2629.59
446.71	3659.72
446.91	4345.79
447.12	4704.18
447.32	4773.82
447.53	4337.60
447.73	3913.67
447.93	3497.93
448.14	3262.41
448.34	3157.97
448.55	2926.55
448.75	2805.72
448.96	2674.65
449.16	2369.50
449.36	2318.30
449.57	2093.02
449.77	1869.80
449.98	1820.64
450.18	1875.94
450.39	1769.44
450.59	1820.64
450.79	1726.44
451.00	1701.86
451.20	1744.87
451.41	1681.38
451.61	1714.15
451.81	1761.25
452.02	1732.58
452.22	1681.38
452.43	1683.43
452.63	1679.33
452.84	1767.40
453.04	1748.97
453.24	1708.01
453.45	1621.99
453.65	1718.25
453.86	1705.96
454.06	1761.25
454.26	1693.67
454.47	1712.10
454.67	1761.25
454.87	1763.30
455.08	1720.29
455.28	1800.16
455.49	1765.35
455.69	1638.38
455.89	1791.97
456.10	1810.40
456.30	1701.86
456.51	1804.26
456.71	1728.49
456.91	1796.07
457.12	1714.15
457.32	1824.74
457.52	1673.19
457.73	1732.58
457.93	1695.72
458.14	1658.85
458.34	1617.90
458.54	1617.90
458.75	1779.68
458.95	1740.77
459.15	1712.10
459.36	1720.29
459.56	1769.44
459.76	1884.13
459.97	1751.01
460.17	1685.48
460.37	1804.26
460.58	1703.91
460.78	1726.44
460.99	1714.15
461.19	1714.15
461.39	1667.05
461.60	1724.39
461.80	1705.96
462.00	1648.61
462.21	1724.39
462.41	1724.39
462.61	1636.33
462.82	1705.96
463.02	1787.88
463.22	1683.43
463.43	1732.58
463.63	1718.25
463.83	1785.83
464.04	1806.31
464.24	1740.77
464.44	1679.33
464.64	1740.77
464.85	1701.86
465.05	1800.16
465.25	1699.81
465.46	1607.66
465.66	1724.39
465.86	1763.30
466.07	1685.48
466.27	1660.90
466.47	1624.04
466.68	1613.80
466.88	1785.83
467.08	1724.39
467.29	1789.92
467.49	1685.48
467.69	1730.53
467.89	1746.92
468.10	1712.10
468.30	1800.16
468.50	1837.03
468.71	1701.86
468.91	1607.66
469.11	1810.40
469.31	1771.49
469.52	1708.01
469.72	1761.25
469.92	1806.31
470.13	1675.24
470.33	1736.68
470.53	1853.41
470.73	2082.78
470.94	2246.62
471.14	2332.64
471.34	2533.34
471.54	2467.80
471.75	2211.81
471.95	2072.54
472.15	2076.64
472.36	2045.92
472.56	2047.97
472.76	2011.11
472.96	1933.28
473.17	1976.29
473.37	1953.76
473.57	1767.40
473.77	1808.36
473.98	1767.40
474.18	1736.68
474.38	1865.70
474.58	1736.68
474.79	1650.66
474.99	1771.49
475.19	1675.24
475.39	1669.09
475.60	1830.88
475.80	1832.93
476.00	1679.33
476.20	1669.09
476.41	1671.14
476.61	1896.42
476.81	1771.49
477.01	1621.99
477.21	1820.64
477.42	1806.31
477.62	1703.91
477.82	1806.31
478.02	1677.29
478.23	1761.25
478.43	1708.01
478.63	1677.29
478.83	1767.40
479.03	1669.09
479.24	1779.68
479.44	1837.03
479.64	1654.76
479.84	1636.33
480.04	1699.81
480.25	1746.92
480.45	1679.33
480.65	1705.96
480.85	1785.83
481.06	1648.61
481.26	1673.19
481.46	1722.34
481.66	1644.52
481.86	1712.10
482.06	1787.88
482.27	1722.34
482.47	1716.20
482.67	1751.01
482.87	1669.09
483.07	1757.16
483.28	1677.29
483.48	1677.29
483.68	1677.29
483.88	1607.66
484.08	1617.90
484.29	1683.43
484.49	1718.25
484.69	1648.61
484.89	1738.73
485.09	1767.40
485.29	1789.92
485.50	1712.10
485.70	1683.43
485.90	1808.36
486.10	1699.81
486.30	1751.01
486.50	1806.31
486.71	1648.61
486.91	1777.64
487.11	1794.02
487.31	1648.61
487.51	1687.53
487.71	1642.47
487.91	1628.14
488.12	1640.42
488.32	1632.23
488.52	1630.18
488.72	1566.70
488.92	1673.19
489.12	1802.21
489.32	1687.53
489.53	1789.92
489.73	1679.33
489.93	1816.55
490.13	1632.23
490.33	1601.51
490.53	1718.25
490.73	1804.26
490.94	1685.48
491.14	1796.07
491.34	1767.40
491.54	2082.78
491.74	2521.05
491.94	2830.29
492.14	2947.03
492.34	2897.88
492.54	2709.46
492.75	2478.04
492.95	2422.75
493.15	2267.10
493.35	2279.39
493.55	2113.50
493.75	2058.21
493.95	2090.98
494.15	2029.54
494.35	1873.89
494.56	1791.97
494.76	1777.64
494.96	1781.73
495.16	1773.54
495.36	1675.24
495.56	1708.01
495.76	1746.92
495.96	1681.38
496.16	1667.05
496.36	1814.50
496.56	1765.35
496.77	1814.50
496.97	1748.97
497.17	1691.62
497.37	1648.61
497.57	1763.30
497.77	1734.63
497.97	1638.38
498.17	1628.14
498.37	1703.91
498.57	1703.91
498.77	1724.39
498.97	1798.12
499.17	1867.75
499.38	1722.34
499.58	1726.44
499.78	1710.05
499.98	1740.77
500.18	1667.05
500.38	1648.61
500.58	1931.23
500.78	2557.91
500.98	4507.58
501.18	5705.64
501.38	6678.43
501.58	6924.18
501.78	6608.80
501.98	5547.95
502.18	4972.47
502.38	4392.89
502.58	4110.27
502.78	3864.52
502.98	3545.03
503.18	3352.52
503.38	3168.21
503.59	2815.96
503.79	2746.33
503.99	2559.96
504.19	2201.57
504.39	2246.62
504.59	2170.85
504.79	2133.98
504.99	2029.54
505.19	1906.66
505.39	1908.71
505.59	1920.99
505.79	1914.85
505.99	1828.84
506.19	1806.31
506.39	1882.08
506.59	1712.10
506.79	1691.62
506.99	1843.17
507.19	1751.01
507.39	1718.25
507.59	1724.39
507.79	1685.48
507.99	1761.25
508.19	1720.29
508.39	1636.33
508.59	1783.78
508.79	1839.08
508.99	1861.60
509.19	1654.76
509.39	1697.77
509.59	1730.53
509.79	1697.77
509.99	1677.29
510.19	1798.12
510.39	1759.21
510.59	1714.15
510.79	1724.39
510.99	1667.05
511.19	1751.01
511.39	1806.31
511.59	1738.73
511.79	1781.73
511.99	1667.05
512.19	1732.58
512.38	1673.19
512.58	1701.86
512.78	1728.49
512.98	1800.16
513.18	1812.45
513.38	1650.66
513.58	1837.03
513.78	1646.57
513.98	1693.67
514.18	1691.62
514.38	1738.73
514.58	1734.63
514.78	1665.00
514.98	1665.00
515.18	1705.96
515.38	1695.72
515.58	1828.84
515.78	1736.68
515.98	1767.40
516.18	1732.58
516.38	1699.81
516.57	1699.81
516.77	1691.62
516.97	1730.53
517.17	1658.85
517.37	1646.57
517.57	1808.36
517.77	1738.73
517.97	1757.16
518.17	1796.07
518.37	1626.09
518.57	1640.42
518.77	1722.34
518.97	1652.71
519.16	1718.25
519.36	1802.21
519.56	1667.05
519.76	1681.38
519.96	1755.11
520.16	1810.40
520.36	1589.22
520.56	1781.73
520.76	1728.49
520.96	1667.05
521.16	1775.59
521.35	1742.82
521.55	1828.84
521.75	1662.95
521.95	1615.85
522.15	1619.94
522.35	1677.29
522.55	1648.61
522.75	1712.10
522.95	1777.64
523.14	1722.34
523.34	1742.82
523.54	1681.38
523.74	1712.10
523.94	1765.35
524.14	1640.42
524.34	1779.68
524.54	1796.07
524.73	1691.62
524.93	1742.82
525.13	1722.34
525.33	1630.18
525.53	1867.75
525.73	1746.92
525.93	1695.72
526.13	1652.71
526.32	1716.20
526.52	1863.65
526.72	1789.92
526.92	1662.95
527.12	1755.11
527.32	1615.85
527.52	1791.97
527.71	1716.20
527.91	1683.43
528.11	1755.11
528.31	1718.25
528.51	1689.57
528.71	1808.36
528.90	1718.25
529.10	1787.88
529.30	1837.03
529.50	1609.70
529.70	1798.12
529.90	1701.86
530.09	1724.39
530.29	1601.51
530.49	1695.72
530.69	1855.46
530.89	1738.73
531.09	1783.78
531.28	1734.63
531.48	1824.74
531.68	1748.97
531.88	1693.67
532.08	1787.88
532.28	1738.73
532.47	1800.16
532.67	1771.49
532.87	1716.20
533.07	1634.28
533.27	1789.92
533.46	1718.25
533.66	1765.35
533.86	1718.25
534.06	1736.68
534.26	1736.68
534.45	1689.57
534.65	1724.39
534.85	1736.68
535.05	1669.09
535.25	1683.43
535.44	1667.05
535.64	1771.49
535.84	1761.25
536.04	1685.48
536.24	1710.05
536.43	1703.91
536.63	1767.40
536.83	1671.14
537.03	1679.33
537.22	1626.09
537.42	1558.50
537.62	1644.52
537.82	1710.05
538.02	1769.44
538.21	1806.31
538.41	1873.89
538.61	1724.39
538.81	1630.18
539.00	1785.83
539.20	1613.80
539.40	1726.44
539.60	1714.15
539.79	1742.82
539.99	1746.92
540.19	1726.44
540.39	1757.16
540.58	1804.26
540.78	1810.40
540.98	1765.35
541.18	1767.40
541.37	1830.88
541.57	1705.96
541.77	1683.43
541.97	1671.14
542.16	1601.51
542.36	1720.29
542.56	1689.57
542.76	1814.50
542.95	1775.59
543.15	1701.86
543.35	1765.35
543.54	1703.91
543.74	1714.15
543.94	1738.73
544.14	1767.40
544.33	1787.88
544.53	1755.11
544.73	1679.33
544.93	1658.85
545.12	1648.61
545.32	1685.48
545.52	1716.20
545.71	1740.77
545.91	1701.86
546.11	1671.14
546.30	1728.49
546.50	1697.77
546.70	1734.63
546.90	1718.25
547.09	1603.56
547.29	1697.77
547.49	1693.67
547.68	1730.53
547.88	1718.25
548.08	1802.21
548.27	2244.57
548.47	1656.81
548.67	1738.73
548.87	1746.92
549.06	1701.86
549.26	1708.01
549.46	1757.16
549.65	1728.49
549.85	1724.39
550.05	1769.44
550.24	1595.37
550.44	1712.10
550.64	1669.09
550.83	1689.57
551.03	1806.31
551.23	1734.63
551.42	1806.31
551.62	1736.68
551.82	1738.73
552.01	1787.88
552.21	1748.97
552.41	1710.05
552.60	1861.60
552.80	1767.40
553.00	1738.73
553.19	1791.97
553.39	1814.50
553.59	1695.72
553.78	1783.78
553.98	1748.97
554.17	1644.52
554.37	1812.45
554.57	1753.06
554.76	1724.39
554.96	1669.09
555.16	1708.01
555.35	1742.82
555.55	1757.16
555.75	1759.21
555.94	1744.87
556.14	1624.04
556.33	1757.16
556.53	1710.05
556.73	1673.19
556.92	1798.12
557.12	1830.88
557.32	1828.84
557.51	1837.03
557.71	1757.16
557.90	1824.74
558.10	1787.88
558.30	1695.72
558.49	1771.49
558.69	1703.91
558.88	1771.49
559.08	1746.92
559.28	1732.58
559.47	1642.47
559.67	1814.50
559.86	1865.70
560.06	1734.63
560.26	1683.43
560.45	1800.16
560.65	1693.67
560.84	1832.93
561.04	1677.29
561.24	1800.16
561.43	1660.90
561.63	1798.12
561.82	1722.34
562.02	1728.49
562.22	1730.53
562.41	1736.68
562.61	1744.87
562.80	1646.57
563.00	1847.27
563.19	1697.77
563.39	1806.31
563.59	1767.40
563.78	1619.94
563.98	1609.70
564.17	1738.73
564.37	1669.09
564.56	1722.34
564.76	1562.60
564.96	1861.60
565.15	1726.44
565.35	1839.08
565.54	1697.77
565.74	1828.84
565.93	1722.34
566.13	1720.29
566.32	1748.97
566.52	1757.16
566.71	1820.64
566.91	1744.87
567.11	1689.57
567.30	1689.57
567.50	1843.17
567.69	1716.20
567.89	1773.54
568.08	1789.92
568.28	1779.68
568.47	1714.15
568.67	1779.68
568.86	1693.67
569.06	1812.45
569.25	1722.34
569.45	1781.73
569.64	1630.18
569.84	1736.68
570.04	1796.07
570.23	1736.68
570.43	1681.38
570.62	1701.86
570.82	1751.01
571.01	1656.81
571.21	1697.77
571.40	1662.95
571.60	1847.27
571.79	1738.73
571.99	1755.11
572.18	1699.81
572.38	1759.21
572.57	1689.57
572.77	1783.78
572.96	1880.04
573.16	1740.77
573.35	1783.78
573.55	1828.84
573.74	1808.36
573.94	1746.92
574.13	1658.85
574.33	1751.01
574.52	1806.31
574.71	1773.54
574.91	1761.25
575.10	1624.04
575.30	1685.48
575.49	1652.71
575.69	1691.62
575.88	1689.57
576.08	1746.92
576.27	1791.97
576.47	1767.40
576.66	1886.18
576.86	1773.54
577.05	1785.83
577.25	1763.30
577.44	1869.80
577.64	1722.34
577.83	1800.16
578.02	1705.96
578.22	1804.26
578.41	1820.64
578.61	1599.46
578.80	1646.57
579.00	1705.96
579.19	1712.10
579.39	1830.88
579.58	1779.68
579.77	1796.07
579.97	1820.64
580.16	1869.80
580.36	1769.44
580.55	1837.03
580.75	1824.74
580.94	1742.82
581.13	1875.94
581.33	1837.03
581.52	1693.67
581.72	1824.74
581.91	1812.45
582.11	1722.34
582.30	1861.60
582.49	1730.53
582.69	1748.97
582.88	1755.11
583.08	1769.44
583.27	1886.18
583.47	1734.63
583.66	1751.01
583.85	1800.16
584.05	1755.11
584.24	1812.45
584.44	1822.69
584.63	1826.79
584.82	1863.65
585.02	1861.60
585.21	1882.08
585.41	1822.69
585.60	1843.17
585.79	1935.33
585.99	1957.86
586.18	1886.18
586.37	2164.70
586.57	3416.01
586.76	9684.84
586.96	24215.18
587.15	34403.83
587.34	40150.43
587.54	42149.24
587.73	36787.66
587.93	26379.89
588.12	21522.10
588.31	18523.88
588.51	16473.86
588.70	15220.50
588.89	14128.94
589.09	12683.07
589.28	11077.46
589.47	9459.57
589.67	8126.34
589.86	6551.45
590.06	4949.94
590.25	3991.49
590.44	3215.31
590.64	2553.82
590.83	2254.81
591.02	2115.55
591.22	1941.47
591.41	1875.94
591.60	1826.79
591.80	1867.75
591.99	1804.26
592.18	1781.73
592.38	1845.22
592.57	1773.54
592.76	1771.49
592.96	1769.44
593.15	1830.88
593.34	1847.27
593.54	1726.44
593.73	1712.10
593.92	1736.68
594.12	1699.81
594.31	1757.16
594.50	1794.02
594.70	1759.21
594.89	1787.88
595.08	1675.24
595.28	1849.32
595.47	1918.95
595.66	1726.44
595.86	1673.19
596.05	1783.78
596.24	1683.43
596.43	1869.80
596.63	1830.88
596.82	1771.49
597.01	1789.92
597.21	1820.64
597.40	1787.88
597.59	1714.15
597.79	1783.78
597.98	1746.92
598.17	1718.25
598.36	1806.31
598.56	1742.82
598.75	1730.53
598.94	1783.78
599.14	1751.01
599.33	1705.96
599.52	1806.31
599.71	1767.40
599.91	1785.83
600.10	1794.02
600.29	1673.19
600.48	1681.38
600.68	1789.92
600.87	1693.67
601.06	1673.19
601.26	1777.64
601.45	1701.86
601.64	1714.15
601.83	1877.99
602.03	1703.91
602.22	1644.52
602.41	1865.70
602.60	1796.07
602.80	1849.32
602.99	1714.15
603.18	1734.63
603.37	1787.88
603.57	1810.40
603.76	1757.16
603.95	1755.11
604.14	1701.86
604.34	1705.96
604.53	1697.77
604.72	1746.92
604.91	1755.11
605.10	1746.92
605.30	1634.28
605.49	1830.88
605.68	1738.73
605.87	1800.16
606.07	1703.91
606.26	1705.96
606.45	1787.88
606.64	1775.59
606.84	1701.86
607.03	1679.33
607.22	1763.30
607.41	1632.23
607.60	1740.77
607.80	1714.15
607.99	1738.73
608.18	1773.54
608.37	1775.59
608.56	1695.72
608.76	1783.78
608.95	1812.45
609.14	1722.34
609.33	1779.68
609.52	1783.78
609.72	1765.35
609.91	1718.25
610.10	1724.39
610.29	1865.70
610.48	1728.49
610.68	1816.55
610.87	1732.58
611.06	1740.77
611.25	1705.96
611.44	1804.26
611.63	1636.33
611.83	1757.16
612.02	1660.90
612.21	1851.36
612.40	1611.75
612.59	1654.76
612.79	1628.14
612.98	1738.73
613.17	1802.21
613.36	1689.57
613.55	1820.64
613.74	1644.52
613.93	1669.09
614.13	1685.48
614.32	1689.57
614.51	1730.53
614.70	1759.21
614.89	1691.62
615.08	1781.73
615.28	2056.16
615.47	1630.18
615.66	1732.58
615.85	1748.97
616.04	1816.55
616.23	1726.44
616.42	1738.73
616.62	1751.01
616.81	1822.69
617.00	1660.90
617.19	1736.68
617.38	1648.61
617.57	1773.54
617.76	1751.01
617.95	1718.25
618.15	1837.03
618.34	1738.73
618.53	1693.67
618.72	1755.11
618.91	1724.39
619.10	1800.16
619.29	1718.25
619.48	1695.72
619.68	1726.44
619.87	1708.01
620.06	1630.18
620.25	1818.60
620.44	1722.34
620.63	1771.49
620.82	1710.05
621.01	1777.64
621.20	1716.20
621.39	1781.73
621.59	1714.15
621.78	1712.10
621.97	1718.25
622.16	1810.40
622.35	1761.25
622.54	1808.36
622.73	1783.78
622.92	1667.05
623.11	1753.06
623.30	1730.53
623.49	1722.34
623.68	1699.81
623.88	1667.05
624.07	1648.61
624.26	1767.40
624.45	1705.96
624.64	1701.86
624.83	1667.05
625.02	1701.86
625.21	1710.05
625.40	1722.34
625.59	1822.69
625.78	1761.25
625.97	1794.02
626.16	1771.49
626.35	1722.34
626.54	1767.40
626.74	1779.68
626.93	1640.42
627.12	1652.71
627.31	1720.29
627.50	1712.10
627.69	1804.26
627.88	1601.51
628.07	1697.77
628.26	1597.42
628.45	1648.61
628.64	1611.75
628.83	1660.90
629.02	1665.00
629.21	1767.40
629.40	1802.21
629.59	1640.42
629.78	1673.19
629.97	1730.53
630.16	1736.68
630.35	1665.00
630.54	1722.34
630.73	1716.20
630.92	1712.10
631.11	1665.00
631.30	1783.78
631.49	1759.21
631.68	1722.34
631.87	1722.34
632.06	1685.48
632.25	1818.60
632.44	1679.33
632.63	1687.53
632.82	1626.09
633.01	1665.00
633.20	1695.72
633.39	1730.53
633.58	1689.57
633.77	1695.72
633.96	1710.05
634.15	1742.82
634.34	1742.82
634.53	1779.68
634.72	1673.19
634.91	1640.42
635.10	1728.49
635.29	1681.38
635.48	1746.92
635.67	1734.63
635.86	1701.86
636.05	1697.77
636.24	1724.39
636.43	1712.10
636.62	1822.69
636.81	1617.90
637.00	1751.01
637.19	1740.77
637.38	1697.77
637.57	1697.77
637.76	1650.66
637.95	1734.63
638.14	1677.29
638.33	1675.24
638.52	1710.05
638.71	1677.29
638.89	1687.53
639.08	1775.59
639.27	1775.59
639.46	1746.92
639.65	1757.16
639.84	1705.96
640.03	1712.10
640.22	1699.81
640.41	1755.11
640.60	1665.00
640.79	1708.01
640.98	1712.10
641.17	1763.30
641.36	1751.01
641.55	1751.01
641.74	1683.43
641.92	1613.80
642.11	1656.81
642.30	1683.43
642.49	1703.91
642.68	1691.62
642.87	1724.39
643.06	1746.92
643.25	1599.46
643.44	1730.53
643.63	1742.82
643.82	1775.59
644.00	1726.44
644.19	1753.06
644.38	1617.90
644.57	1701.86
644.76	1671.14
644.95	1591.27
645.14	1740.77
645.33	1789.92
645.52	1712.10
645.71	1636.33
645.89	1632.23
646.08	1751.01
646.27	1695.72
646.46	1822.69
646.65	1632.23
646.84	1685.48
647.03	1667.05
647.22	1685.48
647.40	1708.01
647.59	1636.33
647.78	1609.70
647.97	1665.00
648.16	1720.29
648.35	1757.16
648.54	1779.68
648.73	1726.44
648.91	1673.19
649.10	1687.53
649.29	1753.06
649.48	1755.11
649.67	1751.01
649.86	1685.48
650.05	1656.81
650.23	1800.16
650.42	1697.77
650.61	1746.92
650.80	1734.63
650.99	1847.27
651.18	1759.21
651.36	1789.92
651.55	1712.10
651.74	1781.73
651.93	1765.35
652.12	1720.29
652.31	1710.05
652.49	1765.35
652.68	1669.09
652.87	1828.84
653.06	1724.39
653.25	1773.54
653.44	1726.44
653.62	1826.79
653.81	1624.04
654.00	1679.33
654.19	1746.92
654.38	1828.84
654.56	1767.40
654.75	1636.33
654.94	1728.49
655.13	1667.05
655.32	1703.91
655.51	1732.58
655.69	1669.09
655.88	1785.83
656.07	1665.00
656.26	1755.11
656.45	1710.05
656.63	1667.05
656.82	1701.86
657.01	1755.11
657.20	1671.14
657.38	1828.84
657.57	1660.90
657.76	1652.71
657.95	1734.63
658.14	1681.38
658.32	1693.67
658.51	1669.09
658.70	1763.30
658.89	1665.00
659.08	1757.16
659.26	1742.82
659.45	1660.90
659.64	1697.77
659.83	1665.00
660.01	1920.99
660.20	1662.95
660.39	1804.26
660.58	1597.42
660.76	1794.02
660.95	1705.96
661.14	1673.19
661.33	1652.71
661.51	1669.09
661.70	1693.67
661.89	1761.25
662.08	1740.77
662.26	1630.18
662.45	1638.38
662.64	1767.40
662.83	1736.68
663.01	1662.95
663.20	1673.19
663.39	1763.30
663.58	1687.53
663.76	1667.05
663.95	1724.39
664.14	1603.56
664.32	1781.73
664.51	1681.38
664.70	1628.14
664.89	1734.63
665.07	1634.28
665.26	1763.30
665.45	1736.68
665.64	1773.54
665.82	1738.73
666.01	1720.29
666.20	1677.29
666.38	1771.49
666.57	1804.26
666.76	2136.03
666.95	4478.91
667.13	10254.18
667.32	15353.62
667.51	17741.55
667.69	19134.17
667.88	17487.61
668.07	12216.13
668.25	9451.38
668.44	8042.37
668.63	7178.13
668.81	6823.83
669.00	6170.53
669.19	5709.74
669.38	5205.94
669.56	4513.72
669.75	3952.58
669.94	3481.55
670.12	3002.32
670.31	2531.29
670.50	2254.81
670.68	2084.83
670.87	1929.19
671.06	1923.04
671.24	1789.92
671.43	1810.40
671.62	1796.07
671.80	1673.19
671.99	1712.10
672.18	1779.68
672.36	1734.63
672.55	1779.68
672.74	1730.53
672.92	1640.42
673.11	1681.38
673.29	1689.57
673.48	1720.29
673.67	1726.44
673.85	1898.47
674.04	1671.14
674.23	1744.87
674.41	1869.80
674.60	1736.68
674.79	1585.13
674.97	1697.77
675.16	1693.67
675.34	1626.09
675.53	1642.47
675.72	1712.10
675.90	1787.88
676.09	1710.05
676.28	1714.15
676.46	1621.99
676.65	1726.44
676.83	1703.91
677.02	1679.33
677.21	1693.67
677.39	1677.29
677.58	1673.19
677.77	1669.09
677.95	1685.48
678.14	1640.42
678.32	1695.72
678.51	1675.24
678.70	1861.60
678.88	1740.77
679.07	1783.78
679.25	1785.83
679.44	1656.81
679.63	1599.46
679.81	1761.25
680.00	1791.97
680.18	1714.15
680.37	1820.64
680.55	1722.34
680.74	1605.61
680.93	1658.85
681.11	1716.20
681.30	1728.49
681.48	1771.49
681.67	1734.63
681.85	1718.25
682.04	1628.14
682.23	1710.05
682.41	1744.87
682.60	1656.81
682.78	1757.16
682.97	1667.05
683.15	1726.44
683.34	1708.01
683.53	1808.36
683.71	1574.89
683.90	1783.78
684.08	1722.34
684.27	1675.24
684.45	1677.29
684.64	1763.30
684.82	1740.77
685.01	1744.87
685.19	1646.57
685.38	1837.03
685.57	1724.39
685.75	1685.48
685.94	1685.48
686.12	1630.18
686.31	1757.16
686.49	1877.99
686.68	1626.09
686.86	1718.25
687.05	1646.57
687.23	1841.12
687.42	1695.72
687.60	1583.08
687.79	1773.54
687.97	1732.58
688.16	1744.87
688.34	1755.11
688.53	1628.14
688.71	1728.49
688.90	1814.50
689.08	1761.25
689.27	1640.42
689.45	1796.07
689.64	1728.49
689.82	1742.82
690.01	1755.11
690.19	1619.94
690.38	1718.25
690.56	1779.68
690.75	1601.51
690.93	1679.33
691.12	1609.70
691.30	1689.57
691.49	1724.39
691.67	1683.43
691.86	1802.21
692.04	1669.09
692.23	1759.21
692.41	1660.90
692.60	1816.55
692.78	1769.44
692.97	1685.48
693.15	1798.12
693.34	1814.50
693.52	1783.78
693.71	1681.38
693.89	1697.77
694.08	1605.61
694.26	1759.21
694.44	1716.20
694.63	1769.44
694.81	1634.28
695.00	1656.81
695.18	1746.92
695.37	1818.60
695.55	1685.48
695.74	1761.25
695.92	1615.85
696.10	1796.07
696.29	1574.89
696.47	1695.72
696.66	1636.33
696.84	1669.09
697.03	1763.30
697.21	1814.50
697.40	2248.67
697.58	1775.59
697.76	1699.81
697.95	1714.15
698.13	1615.85
698.32	1710.05
698.50	1783.78
698.68	1773.54
698.87	1744.87
699.05	1759.21
699.24	1732.58
699.42	1603.56
699.61	1679.33
699.79	1740.77
699.97	1671.14
700.16	1650.66
700.34	1630.18
700.53	1681.38
700.71	1746.92
700.89	1791.97
701.08	1650.66
701.26	1759.21
701.45	2084.83
701.63	1683.43
701.81	1671.14
702.00	1583.08
702.18	1724.39
702.37	1662.95
702.55	1677.29
702.73	1646.57
702.92	1703.91
703.10	1716.20
703.28	1726.44
703.47	1640.42
703.65	1824.74
703.84	1734.63
704.02	1646.57
704.20	1771.49
704.39	1656.81
704.57	1673.19
704.75	1787.88
704.94	1730.53
705.12	1722.34
705.30	1791.97
705.49	2168.80
705.67	4409.28
705.86	9275.25
706.04	12552.00
706.22	14516.00
706.41	15523.60
706.59	13903.66
706.77	9533.29
706.96	7368.59
707.14	6510.49
707.32	6074.28
707.51	5492.65
707.69	4892.60
707.87	4239.30
708.06	3516.36
708.24	2996.18
708.42	2369.50
708.61	2316.25
708.79	1941.47
708.97	1888.23
709.16	1845.22
709.34	1824.74
709.52	1648.61
709.71	1738.73
709.89	1808.36
710.07	1724.39
710.26	1705.96
710.44	1718.25
710.62	1712.10
710.80	1775.59
710.99	1796.07
711.17	1787.88
711.35	1734.63
711.54	1705.96
711.72	1753.06
711.90	1681.38
712.09	1665.00
712.27	1701.86
712.45	1720.29
712.63	1736.68
712.82	1730.53
713.00	1699.81
713.18	1681.38
713.37	1796.07
713.55	1746.92
713.73	1679.33
713.91	1746.92
714.10	1624.04
714.28	1681.38
714.46	1761.25
714.65	1710.05
714.83	1718.25
715.01	1746.92
715.19	1730.53
715.38	1654.76
715.56	1722.34
715.74	1720.29
715.92	1646.57
716.11	1779.68
716.29	1568.74
716.47	1669.09
716.65	1689.57
716.84	1658.85
717.02	1794.02
717.20	1599.46
717.38	1607.66
717.57	1705.96
717.75	1681.38
717.93	1677.29
718.11	1708.01
718.30	1636.33
718.48	1712.10
718.66	1748.97
718.84	1689.57
719.03	1818.60
719.21	1593.32
719.39	1757.16
719.57	1761.25
719.75	1705.96
719.94	1681.38
720.12	1701.86
720.30	1679.33
720.48	1736.68
720.67	1671.14
720.85	1665.00
721.03	1681.38
721.21	1656.81
721.39	1738.73
721.58	1701.86
721.76	1718.25
721.94	1787.88
722.12	1697.77
722.30	1816.55
722.49	1714.15
722.67	1699.81
722.85	1705.96
723.03	1497.07
723.21	1689.57
723.40	1753.06
723.58	1796.07
723.76	1636.33
723.94	1720.29
724.12	1730.53
724.30	1826.79
724.49	1683.43
724.67	1691.62
724.85	1769.44
725.03	1624.04
725.21	1748.97
725.40	1763.30
725.58	1675.24
725.76	1718.25
725.94	1687.53
726.12	1642.47
726.30	1685.48
726.49	1687.53
726.67	1693.67
726.85	1701.86
727.03	1820.64
727.21	2084.83
727.39	2961.36
727.57	3850.18
727.76	4343.74
727.94	4466.62
728.12	4349.89
728.30	3690.44
728.48	2981.84
728.66	2695.13
728.84	2519.00
729.03	2355.16
729.21	2152.42
729.39	2031.58
729.57	1828.84
729.75	1757.16
729.93	1830.88
730.11	1726.44
730.30	1681.38
730.48	1703.91
730.66	1812.45
730.84	1708.01
731.02	1816.55
731.20	1624.04
731.38	1744.87
731.56	1587.18
731.74	1595.37
731.93	1665.00
732.11	1845.22
732.29	1697.77
732.47	1751.01
732.65	1693.67
732.83	1718.25
733.01	1665.00
733.19	1658.85
733.37	1685.48
733.56	1710.05
733.74	1638.38
733.92	1775.59
734.10	1742.82
734.28	1681.38
734.46	1671.14
734.64	1714.15
734.82	1708.01
735.00	1613.80
735.18	1705.96
735.36	1660.90
735.54	1626.09
735.73	1685.48
735.91	1765.35
736.09	1759.21
736.27	1765.35
736.45	1746.92
736.63	1652.71
736.81	1697.77
736.99	1648.61
737.17	1781.73
737.35	1712.10
737.53	1728.49
737.71	1763.30
737.89	1765.35
738.07	1693.67
738.25	1660.90
738.43	1617.90
738.61	1695.72
738.80	1650.66
738.98	1677.29
739.16	1726.44
739.34	1681.38
739.52	1751.01
739.70	1673.19
739.88	1677.29
740.06	1767.40
740.24	1519.59
740.42	1734.63
740.60	1624.04
740.78	1634.28
740.96	1667.05
741.14	1667.05
741.32	1746.92
741.50	1677.29
741.68	1853.41
741.86	1703.91
742.04	1642.47
742.22	1708.01
742.40	1814.50
742.58	1748.97
742.76	1654.76
742.94	1701.86
743.12	1587.18
743.30	1714.15
743.48	1742.82
743.66	1675.24
743.84	1751.01
744.02	1675.24
744.20	1615.85
744.38	1703.91
744.56	1681.38
744.74	1767.40
744.92	1794.02
745.10	1816.55
745.28	1720.29
745.46	1851.36
745.64	1679.33
745.82	1765.35
746.00	1595.37
746.18	1683.43
746.36	1683.43
746.54	1710.05
746.72	1724.39
746.90	1624.04
747.08	1710.05
747.26	1640.42
747.44	1757.16
747.62	1730.53
747.80	1736.68
747.98	1796.07
748.15	1695.72
748.33	1822.69
748.51	1763.30
748.69	1708.01
748.87	1679.33
749.05	1648.61
749.23	1685.48
749.41	1767.40
749.59	1734.63
749.77	1724.39
749.95	1687.53
750.13	1581.03
750.31	1744.87
750.49	1669.09
750.67	1712.10
750.85	1787.88
751.03	1746.92
751.20	1777.64
751.38	1714.15
751.56	1681.38
751.74	1718.25
751.92	1665.00
752.10	1689.57
752.28	1779.68
752.46	1619.94
752.64	1650.66
752.82	1736.68
753.00	1791.97
753.18	1687.53
753.35	1660.90
753.53	1685.48
753.71	1599.46
753.89	1732.58
754.07	1681.38
754.25	1759.21
754.43	1716.20
754.61	1613.80
754.79	1710.05
754.97	1648.61
755.14	1849.32
755.32	1607.66
755.50	1671.14
755.68	1730.53
755.86	1611.75
756.04	1683.43
756.22	1552.36
756.40	1734.63
756.57	1830.88
756.75	1732.58
756.93	1744.87
757.11	1708.01
757.29	1677.29
757.47	1751.01
757.65	1599.46
757.82	1566.70
758.00	1648.61
758.18	1591.27
758.36	1685.48
758.54	1787.88
758.72	1648.61
758.90	1734.63
759.07	1726.44
759.25	1640.42
759.43	1744.87
759.61	1656.81
759.79	2160.61
759.97	1763.30
760.15	1705.96
760.32	1689.57
760.50	1677.29
760.68	1744.87
760.86	1675.24
761.04	1761.25
761.22	1789.92
761.39	1695.72
761.57	1783.78
761.75	1697.77
761.93	1671.14
762.11	1681.38
762.28	1654.76
762.46	1660.90
762.64	1730.53
762.82	1654.76
763.00	1689.57
763.18	1730.53
763.35	1683.43
763.53	1789.92
763.71	1642.47
763.89	1767.40
764.07	1722.34
764.24	1746.92
764.42	1841.12
764.60	1703.91
764.78	1658.85
764.96	1767.40
765.13	1738.73
765.31	1652.71
765.49	1785.83
765.67	1656.81
765.84	1675.24
766.02	1615.85
766.20	1632.23
766.38	1777.64
766.56	1689.57
766.73	1722.34
766.91	1603.56
767.09	1695.72
767.27	1734.63
767.44	1607.66
767.62	1705.96
767.80	1705.96
767.98	1648.61
768.15	1738.73
768.33	1728.49
768.51	1716.20
768.69	1697.77
768.87	1660.90
769.04	1720.29
769.22	1791.97
769.40	1798.12
769.58	1845.22
769.75	1724.39
769.93	1757.16
770.11	1673.19
770.28	1685.48
770.46	1787.88
770.64	1732.58
770.82	1716.20
770.99	1601.51
771.17	1722.34
771.35	1718.25
771.53	1777.64
771.70	1695.72
771.88	1708.01
772.06	1708.01
772.23	1681.38
772.41	1697.77
772.59	1712.10
772.77	1662.95
772.94	1644.52
773.12	1714.15
773.30	1671.14
773.47	1648.61
773.65	1679.33
773.83	1812.45
774.01	1660.90
774.18	1626.09
774.36	1734.63
774.54	1640.42
774.71	1736.68
774.89	1665.00
775.07	1656.81
775.24	1701.86
775.42	1681.38
775.60	1728.49
775.78	1703.91
775.95	1578.98
776.13	1638.38
776.31	1576.94
776.48	1722.34
776.66	1699.81
776.84	1628.14
777.01	1718.25
777.19	1687.53
777.37	1697.77
777.54	1734.63
777.72	1953.76
777.90	1716.20
778.07	1675.24
778.25	1808.36
778.43	1718.25
778.60	1650.66
778.78	1759.21
778.96	1712.10
779.13	1597.42
779.31	1683.43
779.49	1732.58
779.66	1720.29
779.84	1640.42
780.01	1736.68
780.19	1679.33
780.37	1730.53
780.54	1773.54
780.72	1630.18
780.90	1722.34
781.07	1734.63
781.25	1644.52
781.43	1763.30
781.60	1593.32
781.78	1800.16
781.95	1703.91
782.13	1669.09
782.31	1658.85
782.48	1587.18
782.66	1710.05
782.83	1781.73
783.01	1738.73
783.19	1710.05
783.36	1697.77
783.54	1671.14
783.72	1640.42
783.89	1640.42
784.07	1705.96
784.24	1720.29
784.42	1724.39
784.60	1716.20
784.77	1722.34
784.95	1578.98
785.12	1632.23
785.30	1642.47
785.47	1607.66
785.65	1613.80
785.83	1693.67
786.00	1699.81
786.18	1740.77
786.35	1630.18
786.53	1667.05
786.71	1736.68
786.88	1705.96
787.06	1712.10
787.23	1667.05
787.41	1624.04
787.58	1665.00
787.76	1683.43
787.94	1728.49
788.11	1714.15
788.29	1615.85
788.46	1652.71
788.64	1570.79
788.81	1703.91
788.99	1681.38
789.16	1687.53
789.34	1675.24
789.52	1589.22
789.69	1722.34
789.87	1611.75
790.04	1652.71
790.22	1712.10
790.39	1837.03
790.57	1681.38
790.74	1665.00
790.92	1660.90
791.09	1667.05
791.27	1734.63
791.44	1751.01
791.62	1621.99
791.79	1779.68
791.97	1648.61
792.15	1959.91
792.32	1656.81
792.50	1697.77
792.67	1695.72
792.85	1787.88
793.02	1761.25
793.20	1603.56
793.37	1736.68
793.55	1734.63
793.72	1611.75
793.90	1748.97
794.07	1632.23
794.25	1685.48
794.42	1683.43
794.60	1634.28
794.77	1689.57
794.95	1755.11
795.12	1794.02
795.30	1665.00
795.47	1611.75
795.65	1839.08
795.82	1767.40
796.00	1697.77
796.17	1683.43
796.34	1636.33
796.52	1695.72
796.69	1771.49
796.87	1634.28
797.04	1677.29
797.22	1640.42
797.39	1705.96
797.57	1640.42
797.74	1777.64
797.92	1695.72
798.09	1650.66
798.27	1748.97
798.44	1677.29
798.62	1660.90
798.79	1724.39
798.96	1746.92
799.14	1724.39
799.31	1843.17
799.49	1675.24
799.66	1689.57
799.84	1701.86
800.01	1658.85
800.19	1777.64
800.36	1601.51
800.53	1591.27
800.71	1796.07
800.88	1814.50
801.06	1679.33
801.23	1705.96
801.41	1652.71
801.58	1654.76
801.75	1640.42
801.93	1765.35
802.10	1748.97
802.28	1746.92
802.45	1667.05
802.63	1830.88
802.80	1751.01
802.97	1701.86
803.15	1724.39
803.32	1652.71
803.50	1607.66
803.67	1593.32
803.84	1599.46
804.02	1751.01
804.19	1681.38
804.37	1578.98
804.54	1603.56
804.71	1685.48
804.89	1691.62
805.06	1644.52
805.24	1634.28
805.41	1609.70
805.58	1697.77
805.76	1812.45
805.93	1753.06
806.10	1738.73
806.28	1785.83
806.45	1675.24
806.63	1800.16
806.80	1677.29
806.97	1716.20
807.15	1728.49
807.32	1757.16
807.49	1712.10
807.67	1619.94
807.84	1646.57
808.01	1615.85
808.19	1804.26
808.36	1820.64
808.54	1683.43
808.71	1626.09
808.88	1751.01
809.06	1726.44
809.23	1818.60
809.40	1632.23
809.58	1779.68
809.75	1740.77
809.92	1658.85
810.10	1832.93
810.27	1701.86
810.44	1677.29
810.62	1714.15
810.79	1740.77
810.96	1619.94
811.14	1656.81
811.31	1738.73
811.48	1773.54
811.66	1724.39
811.83	1789.92
812.00	1779.68
812.18	1755.11
812.35	1771.49
812.52	1693.67
812.69	1679.33
812.87	1648.61
813.04	1568.74
813.21	1644.52
813.39	1748.97
813.56	1652.71
813.73	1720.29
813.91	1638.38
814.08	1665.00
814.25	1726.44
814.42	1626.09
814.60	1636.33
814.77	1669.09
814.94	1746.92
815.12	1652.71
815.29	1763.30
815.46	1636.33
815.63	1732.58
815.81	1748.97
815.98	1619.94
816.15	1697.77
816.33	1736.68
816.50	1626.09
816.67	1667.05
816.84	1742.82
817.02	1724.39
817.19	1701.86
817.36	1675.24
817.53	1691.62
817.71	1685.48
817.88	1755.11
818.05	1734.63
818.22	1662.95
818.40	1787.88
818.57	1630.18
818.74	1687.53
818.91	1689.57
819.09	1765.35
819.26	1687.53
819.43	1644.52
819.60	1677.29
819.78	1736.68
819.95	1736.68
820.12	1621.99
820.29	1787.88
820.47	1748.97
820.64	1636.33
820.81	1650.66
820.98	1642.47
821.15	1607.66
821.33	1734.63
821.50	1679.33
821.67	1665.00
821.84	1642.47
822.02	1695.72
822.19	1724.39
822.36	1662.95
822.53	1767.40
822.70	1648.61
822.88	1642.47
823.05	1722.34
823.22	1646.57
823.39	1763.30
823.56	1724.39
823.74	1789.92
823.91	1650.66
824.08	1648.61
824.25	1632.23
824.42	1738.73
824.60	1628.14
824.77	1746.92
824.94	1718.25
825.11	1660.90
825.28	1665.00
825.45	1755.11
825.63	1675.24
825.80	1611.75
825.97	1845.22
826.14	1677.29
826.31	1638.38
826.48	1740.77
826.66	1644.52
826.83	1662.95
827.00	1689.57
827.17	1681.38
827.34	1599.46
827.51	1642.47
827.69	1730.53
827.86	1644.52
828.03	1722.34
828.20	1718.25
828.37	1619.94
828.54	1722.34
828.71	1730.53
828.89	1816.55
829.06	1744.87
829.23	1818.60
829.40	1626.09
829.57	1697.77
829.74	1718.25
829.91	1617.90
830.09	1658.85
830.26	1769.44
830.43	1748.97
830.60	1599.46
830.77	1638.38
830.94	1740.77
831.11	1730.53
831.28	1669.09
831.46	1789.92
831.63	1601.51
831.80	1740.77
831.97	1642.47
832.14	1593.32
832.31	1681.38
832.48	1693.67
832.65	1652.71
832.82	1759.21
832.99	1675.24
833.17	1718.25
833.34	1730.53
833.51	1724.39
833.68	1538.02
833.85	1695.72
834.02	1673.19
834.19	1609.70
834.36	1671.14
834.53	1638.38
834.70	1736.68
834.87	1685.48
835.04	1748.97
835.22	1583.08
835.39	1638.38
835.56	1585.13
835.73	1716.20
835.90	1789.92
836.07	1683.43
836.24	1753.06
836.41	1624.04
836.58	1669.09
836.75	1828.84
836.92	1769.44
837.09	1689.57
837.26	1763.30
837.43	1691.62
837.60	1785.83
837.77	1630.18
837.94	1703.91
838.12	1748.97
838.29	1650.66
838.46	1607.66
838.63	1603.56
838.80	1859.56
838.97	1695.72
839.14	1705.96
839.31	1718.25
839.48	1714.15
839.65	1638.38
839.82	1728.49
839.99	1710.05
840.16	1687.53
840.33	1720.29
840.50	1728.49
840.67	1734.63
840.84	1464.30
841.01	1697.77
841.18	1658.85
841.35	1714.15
841.52	1738.73
841.69	1802.21
841.86	1724.39
842.03	1665.00
842.20	1798.12
842.37	1728.49
842.54	1693.67
842.71	1681.38
842.88	1667.05
843.05	1748.97
843.22	1742.82
843.39	1775.59
843.56	1712.10
843.73	1757.16
843.90	1746.92
844.07	1751.01
844.24	1755.11
844.41	1785.83
844.58	1615.85
844.75	1677.29
844.92	1677.29
845.09	1742.82
845.26	1642.47
845.43	1718.25
845.60	1632.23
845.77	1753.06
845.94	1652.71
846.10	1748.97
846.27	1640.42
846.44	1658.85
846.61	1617.90
846.78	1697.77
846.95	1740.77
847.12	1722.34
847.29	1753.06
847.46	1644.52
847.63	1697.77
847.80	1568.74
847.97	1660.90
848.14	1818.60
848.31	1697.77
848.48	1648.61
848.65	1691.62
848.82	1728.49
848.98	1773.54
849.15	1751.01
849.32	1675.24
849.49	1656.81
849.66	1779.68
849.83	1609.70
850.00	1652.71
850.17	1769.44
850.34	1695.72
850.51	1650.66
850.68	1650.66
850.85	1851.36
851.01	1753.06
851.18	1742.82
851.35	1681.38
851.52	1658.85
851.69	1810.40
851.86	1609.70
852.03	1703.91
852.20	1705.96
852.37	1701.86
852.53	1589.22
852.70	1681.38
852.87	1708.01
853.04	1714.15
853.21	1701.86
853.38	1773.54
853.55	1697.77
853.72	1662.95
853.89	1601.51
854.05	1689.57
854.22	1736.68
854.39	1619.94
854.56	1677.29
854.73	1730.53
854.90	1734.63
855.07	1693.67
855.23	1593.32
855.40	1619.94
855.57	1658.85
855.74	1535.98
855.91	1918.95
856.08	1665.00
856.25	1669.09
856.41	1644.52
856.58	1665.00
856.75	1689.57
856.92	1638.38
857.09	1828.84
857.26	1621.99
857.42	1685.48
857.59	1738.73
857.76	1685.48
857.93	1718.25
858.10	1724.39
858.27	1650.66
858.43	1724.39
858.60	1693.67
858.77	1609.70
858.94	1611.75
859.11	1785.83
859.27	1630.18
859.44	1677.29
859.61	1738.73
859.78	1681.38
859.95	1691.62
860.12	1689.57
860.28	1845.22
860.45	1763.30
860.62	1712.10
860.79	1673.19
860.95	1724.39
861.12	1658.85
861.29	1652.71
861.46	1628.14
861.63	1767.40
861.79	1736.68
861.96	1644.52
862.13	1640.42
862.30	1755.11
862.47	1583.08
862.63	1640.42
862.80	1791.97
862.97	1693.67
863.14	1738.73
863.30	1730.53
863.47	1662.95
863.64	1818.60
863.81	1691.62
863.97	1675.24
864.14	1761.25
864.31	1642.47
864.48	1693.67
864.65	1736.68
864.81	1751.01
864.98	1640.42
865.15	1665.00
865.32	1763.30
865.48	1761.25
865.65	1886.18
865.82	1632.23
865.98	1687.53
866.15	1742.82
866.32	1718.25
866.49	1654.76
866.65	1740.77
866.82	1652.71
866.99	1626.09
867.16	1626.09
867.32	1679.33
867.49	1679.33
867.66	1738.73
867.83	1710.05
867.99	1669.09
868.16	1734.63
868.33	1630.18
868.49	1689.57
868.66	1722.34
868.83	1794.02
868.99	1656.81
869.16	1685.48
869.33	1693.67
869.50	1660.90
869.66	1710.05
869.83	1624.04
870.00	1540.07
870.16	1744.87
870.33	1689.57
870.50	1816.55
870.66	1662.95
870.83	1701.86
871.00	1677.29
871.17	1665.00
871.33	1767.40
871.50	1689.57
871.67	1621.99
871.83	1667.05
872.00	1820.64
872.17	1628.14
872.33	1718.25
872.50	1775.59
872.67	1714.15
872.83	1732.58
873.00	1742.82
873.17	1705.96
873.33	1609.70
873.50	1656.81
873.67	1720.29
873.83	1665.00
874.00	1695.72
874.16	1689.57
874.33	1662.95
874.50	1576.94
874.66	1718.25
874.83	1734.63
875.00	1759.21
875.16	1785.83
875.33	1789.92
875.50	1542.12
875.66	1597.42
875.83	1679.33
875.99	1787.88
876.16	1697.77
876.33	1595.37
876.49	1734.63
876.66	1748.97
876.83	1683.43
876.99	1560.55
877.16	1701.86
877.32	1605.61
877.49	1703.91
877.66	1710.05
877.82	1814.50
877.99	1621.99
878.15	1708.01
878.32	1681.38
878.49	1648.61
878.65	1685.48
878.82	1791.97
878.98	1677.29
879.15	1757.16
879.32	1675.24
879.48	1712.10
879.65	1695.72
879.81	1660.90
879.98	1665.00
880.15	1605.61
880.31	1738.73
880.48	1718.25
880.64	1757.16
880.81	1763.30
880.97	1759.21
881.14	1732.58
881.31	1640.42
881.47	1787.88
881.64	1660.90
881.80	1718.25
881.97	1703.91
882.13	1775.59
882.30	1677.29
882.47	1656.81
882.63	1644.52
882.80	1648.61
882.96	1632.23
883.13	1742.82
883.29	1761.25
883.46	1720.29
883.62	1699.81
883.79	1679.33
883.95	1800.16
884.12	1716.20
884.29	1769.44
884.45	1710.05
884.62	1673.19
884.78	1626.09
884.95	1742.82
885.11	1689.57
885.28	1734.63
885.44	1683.43
885.61	1699.81
885.77	1751.01
885.94	1665.00
886.10	1699.81
886.27	1757.16
886.43	1783.78
886.60	1751.01
886.76	1617.90
886.93	1665.00
887.09	1724.39
887.26	1574.89
887.42	1636.33
887.59	1710.05
887.75	1828.84
887.92	1746.92
888.08	1753.06
888.25	1751.01
888.41	1720.29
888.58	1665.00
888.74	1597.42
888.91	1619.94
>>>>>End Processed Spectral Data<<<<<
