SpectraSuite Data File
++++++++++++++++++++++++++++++++++++
Date: Mon Jun 06 15:52:17 CEST 2016
User: root
Dark Spectrum Present: No
Reference Spectrum Present: No
Number of Sampled Component Spectra: 1
Spectrometers: USB4C02835
Integration Time (usec): 100000 (USB4C02835)
Spectra Averaged: 1 (USB4C02835)
Boxcar Smoothing: 0 (USB4C02835)
Correct for Electrical Dark: No (USB4C02835)
Strobe/Lamp Enabled: No (USB4C02835)
Correct for Detector Non-linearity: No (USB4C02835)
Correct for Stray Light: No (USB4C02835)
Number of Pixels in Processed Spectrum: 3648
>>>>>Begin Processed Spectral Data<<<<<
177.47	1445.87
177.69	1445.87
177.91	1445.87
178.13	1466.35
178.36	1419.24
178.58	1583.08
178.80	1732.58
179.02	1689.57
179.24	1634.28
179.46	1710.05
179.68	1751.01
179.90	1734.63
180.13	1705.96
180.35	1617.90
180.57	1689.57
180.79	1755.11
181.01	1708.01
181.23	1697.77
181.45	1755.11
181.67	1765.35
181.90	1767.40
182.12	1691.62
182.34	1628.14
182.56	1771.49
182.78	1718.25
183.00	1699.81
183.22	1783.78
183.44	1638.38
183.66	1759.21
183.89	1832.93
184.11	1785.83
184.33	1716.20
184.55	1773.54
184.77	1755.11
184.99	1695.72
185.21	1671.14
185.43	1826.79
185.65	1697.77
185.87	1699.81
186.10	1851.36
186.32	1853.41
186.54	1665.00
186.76	1730.53
186.98	1761.25
187.20	1697.77
187.42	1677.29
187.64	1740.77
187.86	1705.96
188.08	1783.78
188.30	1742.82
188.52	1751.01
188.75	1744.87
188.97	1726.44
189.19	1626.09
189.41	1712.10
189.63	1765.35
189.85	1679.33
190.07	1650.66
190.29	1718.25
190.51	1703.91
190.73	1617.90
190.95	1755.11
191.17	1701.86
191.39	1675.24
191.61	1699.81
191.84	1732.58
192.06	1714.15
192.28	1621.99
192.50	1830.88
192.72	1755.11
192.94	1714.15
193.16	1746.92
193.38	1757.16
193.60	1689.57
193.82	1660.90
194.04	1830.88
194.26	1656.81
194.48	1677.29
194.70	1665.00
194.92	1660.90
195.14	1818.60
195.36	1628.14
195.58	1716.20
195.80	1746.92
196.02	1607.66
196.24	1761.25
196.46	1714.15
196.69	1703.91
196.91	1886.18
197.13	1708.01
197.35	1714.15
197.57	1814.50
197.79	1689.57
198.01	1781.73
198.23	1710.05
198.45	1726.44
198.67	1675.24
198.89	1753.06
199.11	1798.12
199.33	1628.14
199.55	1632.23
199.77	1617.90
199.99	1777.64
200.21	1687.53
200.43	1722.34
200.65	1640.42
200.87	1601.51
201.09	1710.05
201.31	1632.23
201.53	1806.31
201.75	1726.44
201.97	1710.05
202.19	1732.58
202.41	1722.34
202.63	1892.32
202.85	1796.07
203.07	1681.38
203.29	1691.62
203.51	1650.66
203.73	1681.38
203.95	1945.57
204.17	1701.86
204.39	1820.64
204.61	1705.96
204.83	1716.20
205.05	1738.73
205.27	1705.96
205.49	1857.51
205.71	1716.20
205.93	1660.90
206.15	1667.05
206.37	1783.78
206.59	1720.29
206.81	1665.00
207.03	1712.10
207.25	1669.09
207.47	1722.34
207.69	1771.49
207.91	1826.79
208.13	1812.45
208.34	1687.53
208.56	1671.14
208.78	1769.44
209.00	1695.72
209.22	1742.82
209.44	1662.95
209.66	1673.19
209.88	1771.49
210.10	1730.53
210.32	1665.00
210.54	1822.69
210.76	1667.05
210.98	1644.52
211.20	1578.98
211.42	1671.14
211.64	1730.53
211.86	1708.01
212.08	1714.15
212.30	1697.77
212.52	1724.39
212.74	1726.44
212.96	1716.20
213.17	1724.39
213.39	1806.31
213.61	1820.64
213.83	1689.57
214.05	1591.27
214.27	1738.73
214.49	1628.14
214.71	1652.71
214.93	1796.07
215.15	1640.42
215.37	1697.77
215.59	1621.99
215.81	1757.16
216.03	1679.33
216.24	1669.09
216.46	1734.63
216.68	1773.54
216.90	1660.90
217.12	1769.44
217.34	1677.29
217.56	1691.62
217.78	1824.74
218.00	1773.54
218.22	1771.49
218.44	1753.06
218.66	1654.76
218.87	1742.82
219.09	1722.34
219.31	1757.16
219.53	1671.14
219.75	1699.81
219.97	1685.48
220.19	1755.11
220.41	1701.86
220.63	1771.49
220.85	1701.86
221.06	1615.85
221.28	1722.34
221.50	1753.06
221.72	1779.68
221.94	1724.39
222.16	1759.21
222.38	1710.05
222.60	1673.19
222.82	1693.67
223.03	1742.82
223.25	1628.14
223.47	1720.29
223.69	1820.64
223.91	1699.81
224.13	1703.91
224.35	1734.63
224.57	1771.49
224.78	1744.87
225.00	1712.10
225.22	1687.53
225.44	1716.20
225.66	1802.21
225.88	1691.62
226.10	1732.58
226.32	1740.77
226.53	1763.30
226.75	1716.20
226.97	1716.20
227.19	1775.59
227.41	1658.85
227.63	1648.61
227.85	1656.81
228.06	1771.49
228.28	1775.59
228.50	1742.82
228.72	1720.29
228.94	1611.75
229.16	1699.81
229.37	1712.10
229.59	1726.44
229.81	1794.02
230.03	1648.61
230.25	1581.03
230.47	1667.05
230.69	1632.23
230.90	1697.77
231.12	1697.77
231.34	1783.78
231.56	1777.64
231.78	1578.98
232.00	1677.29
232.21	1697.77
232.43	1673.19
232.65	1644.52
232.87	1734.63
233.09	1687.53
233.30	1714.15
233.52	1734.63
233.74	1769.44
233.96	1693.67
234.18	1746.92
234.40	1703.91
234.61	1738.73
234.83	1585.13
235.05	1654.76
235.27	1841.12
235.49	1761.25
235.70	1742.82
235.92	1818.60
236.14	1744.87
236.36	1873.89
236.58	1648.61
236.79	1720.29
237.01	1710.05
237.23	1671.14
237.45	1783.78
237.67	1656.81
237.88	1806.31
238.10	1816.55
238.32	1681.38
238.54	1671.14
238.76	1779.68
238.97	1578.98
239.19	1673.19
239.41	1806.31
239.63	1804.26
239.85	1693.67
240.06	1712.10
240.28	1718.25
240.50	1761.25
240.72	1738.73
240.93	1671.14
241.15	1730.53
241.37	1710.05
241.59	1757.16
241.81	1689.57
242.02	1677.29
242.24	1738.73
242.46	1726.44
242.68	1744.87
242.89	1705.96
243.11	1744.87
243.33	1597.42
243.55	1701.86
243.76	1796.07
243.98	1654.76
244.20	1798.12
244.42	1691.62
244.64	1734.63
244.85	1617.90
245.07	1656.81
245.29	1777.64
245.51	1759.21
245.72	1763.30
245.94	1722.34
246.16	1744.87
246.38	1753.06
246.59	1695.72
246.81	1613.80
247.03	1722.34
247.24	1558.50
247.46	1710.05
247.68	1718.25
247.90	1662.95
248.11	1695.72
248.33	1769.44
248.55	1718.25
248.77	1796.07
248.98	1740.77
249.20	1839.08
249.42	1693.67
249.64	1722.34
249.85	1697.77
250.07	1691.62
250.29	1722.34
250.50	1738.73
250.72	1695.72
250.94	1812.45
251.16	1867.75
251.37	1648.61
251.59	1800.16
251.81	1751.01
252.02	1830.88
252.24	1650.66
252.46	1738.73
252.68	1689.57
252.89	1691.62
253.11	1718.25
253.33	1787.88
253.54	1791.97
253.76	1638.38
253.98	1757.16
254.20	1665.00
254.41	1648.61
254.63	1697.77
254.85	1650.66
255.06	1636.33
255.28	1759.21
255.50	1660.90
255.71	1572.84
255.93	1615.85
256.15	1626.09
256.36	1650.66
256.58	1665.00
256.80	1716.20
257.02	1697.77
257.23	1677.29
257.45	1716.20
257.67	1728.49
257.88	1703.91
258.10	1748.97
258.32	1665.00
258.53	1658.85
258.75	1847.27
258.97	1679.33
259.18	1734.63
259.40	1701.86
259.62	1769.44
259.83	1777.64
260.05	1761.25
260.27	1978.34
260.48	1820.64
260.70	1730.53
260.92	1703.91
261.13	1714.15
261.35	1667.05
261.57	1669.09
261.78	1662.95
262.00	1681.38
262.22	1738.73
262.43	1624.04
262.65	1714.15
262.86	1726.44
263.08	1810.40
263.30	1748.97
263.51	1630.18
263.73	1640.42
263.95	1746.92
264.16	1611.75
264.38	1636.33
264.60	1703.91
264.81	1644.52
265.03	1816.55
265.25	1820.64
265.46	1656.81
265.68	1787.88
265.89	1796.07
266.11	1705.96
266.33	1759.21
266.54	1781.73
266.76	1689.57
266.98	1757.16
267.19	1816.55
267.41	1810.40
267.62	1699.81
267.84	1675.24
268.06	1703.91
268.27	1773.54
268.49	1816.55
268.70	1720.29
268.92	1681.38
269.14	1710.05
269.35	1560.55
269.57	1617.90
269.79	1714.15
270.00	1685.48
270.22	1853.41
270.43	1753.06
270.65	1652.71
270.87	1775.59
271.08	1710.05
271.30	1814.50
271.51	1761.25
271.73	1718.25
271.95	1787.88
272.16	1746.92
272.38	1662.95
272.59	1751.01
272.81	1732.58
273.02	1730.53
273.24	1742.82
273.46	1783.78
273.67	1712.10
273.89	1710.05
274.10	1632.23
274.32	1814.50
274.54	1740.77
274.75	1724.39
274.97	1730.53
275.18	1761.25
275.40	1759.21
275.61	1687.53
275.83	1736.68
276.05	1667.05
276.26	1652.71
276.48	1689.57
276.69	1734.63
276.91	1718.25
277.12	1791.97
277.34	1718.25
277.55	1808.36
277.77	1697.77
277.99	1738.73
278.20	1673.19
278.42	1652.71
278.63	1675.24
278.85	1660.90
279.06	1693.67
279.28	1705.96
279.49	1771.49
279.71	1769.44
279.93	1662.95
280.14	1783.78
280.36	1695.72
280.57	1734.63
280.79	1720.29
281.00	1701.86
281.22	1716.20
281.43	1812.45
281.65	1560.55
281.86	1689.57
282.08	1736.68
282.29	1808.36
282.51	1769.44
282.73	1665.00
282.94	1595.37
283.16	1654.76
283.37	1814.50
283.59	1642.47
283.80	1722.34
284.02	1728.49
284.23	1728.49
284.45	1779.68
284.66	1683.43
284.88	1611.75
285.09	1746.92
285.31	1785.83
285.52	1691.62
285.74	1589.22
285.95	1779.68
286.17	1677.29
286.38	1740.77
286.60	1697.77
286.81	1728.49
287.03	1720.29
287.24	1724.39
287.46	1775.59
287.67	1650.66
287.89	1828.84
288.10	1732.58
288.32	1705.96
288.53	1789.92
288.75	1748.97
288.96	1708.01
289.18	1716.20
289.39	1703.91
289.61	1658.85
289.82	1791.97
290.04	1796.07
290.25	1658.85
290.47	1708.01
290.68	1695.72
290.90	1755.11
291.11	1646.57
291.33	1667.05
291.54	1701.86
291.76	1730.53
291.97	1658.85
292.18	1822.69
292.40	1693.67
292.61	1718.25
292.83	1812.45
293.04	1722.34
293.26	1734.63
293.47	1767.40
293.69	1642.47
293.90	1708.01
294.12	1849.32
294.33	1773.54
294.55	1693.67
294.76	1769.44
294.97	1834.98
295.19	1828.84
295.40	1673.19
295.62	1755.11
295.83	1746.92
296.05	1636.33
296.26	1845.22
296.48	1685.48
296.69	1751.01
296.90	1720.29
297.12	1812.45
297.33	1816.55
297.55	1761.25
297.76	1701.86
297.98	1818.60
298.19	1726.44
298.41	1732.58
298.62	1691.62
298.83	1779.68
299.05	1748.97
299.26	1695.72
299.48	1689.57
299.69	1789.92
299.90	1701.86
300.12	1642.47
300.33	1763.30
300.55	1730.53
300.76	1732.58
300.98	1710.05
301.19	1814.50
301.40	1646.57
301.62	1734.63
301.83	1712.10
302.05	1751.01
302.26	1710.05
302.47	1746.92
302.69	1658.85
302.90	1732.58
303.12	1638.38
303.33	1716.20
303.54	1834.98
303.76	1656.81
303.97	1632.23
304.19	1886.18
304.40	1636.33
304.61	1763.30
304.83	1855.46
305.04	1728.49
305.26	1781.73
305.47	1658.85
305.68	1660.90
305.90	1595.37
306.11	1699.81
306.33	1734.63
306.54	1654.76
306.75	1767.40
306.97	1652.71
307.18	1746.92
307.39	1697.77
307.61	1773.54
307.82	1687.53
308.04	1722.34
308.25	1701.86
308.46	1644.52
308.68	1708.01
308.89	1673.19
309.10	1759.21
309.32	1744.87
309.53	1751.01
309.74	1751.01
309.96	1710.05
310.17	1722.34
310.39	1710.05
310.60	1812.45
310.81	1691.62
311.03	1615.85
311.24	1826.79
311.45	1738.73
311.67	1742.82
311.88	1763.30
312.09	1619.94
312.31	1722.34
312.52	1728.49
312.73	1685.48
312.95	1650.66
313.16	1675.24
313.37	1814.50
313.59	1757.16
313.80	1763.30
314.01	1816.55
314.23	1757.16
314.44	1714.15
314.65	1632.23
314.87	1728.49
315.08	1687.53
315.29	1705.96
315.51	1615.85
315.72	1642.47
315.93	1875.94
316.15	1810.40
316.36	1695.72
316.57	1697.77
316.79	1777.64
317.00	1742.82
317.21	1742.82
317.43	1814.50
317.64	1748.97
317.85	1652.71
318.07	1681.38
318.28	1740.77
318.49	1828.84
318.70	1869.80
318.92	1920.99
319.13	1847.27
319.34	1918.95
319.56	1845.22
319.77	1853.41
319.98	1746.92
320.20	1800.16
320.41	1765.35
320.62	1699.81
320.83	1621.99
321.05	1931.23
321.26	1724.39
321.47	1654.76
321.69	1802.21
321.90	1730.53
322.11	1691.62
322.32	1744.87
322.54	1804.26
322.75	1724.39
322.96	1814.50
323.18	1675.24
323.39	1597.42
323.60	1705.96
323.81	1826.79
324.03	1650.66
324.24	1699.81
324.45	1662.95
324.66	1665.00
324.88	1796.07
325.09	1775.59
325.30	1722.34
325.52	1779.68
325.73	1751.01
325.94	1697.77
326.15	1656.81
326.37	1648.61
326.58	1761.25
326.79	1841.12
327.00	1714.15
327.22	1744.87
327.43	1722.34
327.64	1675.24
327.85	1695.72
328.07	1697.77
328.28	1767.40
328.49	1705.96
328.70	1736.68
328.92	1648.61
329.13	1724.39
329.34	1740.77
329.55	1837.03
329.76	1732.58
329.98	1677.29
330.19	1785.83
330.40	1720.29
330.61	1757.16
330.83	1738.73
331.04	1705.96
331.25	1724.39
331.46	1701.86
331.68	1615.85
331.89	1771.49
332.10	1675.24
332.31	1656.81
332.52	1683.43
332.74	1740.77
332.95	1615.85
333.16	1720.29
333.37	1757.16
333.58	1710.05
333.80	1718.25
334.01	1634.28
334.22	1738.73
334.43	1675.24
334.64	1677.29
334.86	1660.90
335.07	1669.09
335.28	1798.12
335.49	1658.85
335.70	1775.59
335.92	1767.40
336.13	1820.64
336.34	1742.82
336.55	1740.77
336.76	1779.68
336.98	1599.46
337.19	1744.87
337.40	1843.17
337.61	1882.08
337.82	1677.29
338.04	1781.73
338.25	1667.05
338.46	1761.25
338.67	1697.77
338.88	1736.68
339.09	1681.38
339.31	1669.09
339.52	1636.33
339.73	1609.70
339.94	1619.94
340.15	1720.29
340.36	1650.66
340.58	1665.00
340.79	1712.10
341.00	1689.57
341.21	1632.23
341.42	1785.83
341.63	1748.97
341.85	1798.12
342.06	1734.63
342.27	1673.19
342.48	1732.58
342.69	1681.38
342.90	1730.53
343.12	1746.92
343.33	1691.62
343.54	1742.82
343.75	1767.40
343.96	1716.20
344.17	1675.24
344.38	1644.52
344.60	1673.19
344.81	1587.18
345.02	1642.47
345.23	1748.97
345.44	1814.50
345.65	1712.10
345.86	1726.44
346.07	1734.63
346.29	1787.88
346.50	1728.49
346.71	1738.73
346.92	1818.60
347.13	1914.85
347.34	1624.04
347.55	1730.53
347.76	1742.82
347.98	1716.20
348.19	1662.95
348.40	1673.19
348.61	1710.05
348.82	1759.21
349.03	1767.40
349.24	1683.43
349.45	1794.02
349.66	1607.66
349.88	1773.54
350.09	1638.38
350.30	1757.16
350.51	1755.11
350.72	1771.49
350.93	1697.77
351.14	1755.11
351.35	1753.06
351.56	1757.16
351.77	1683.43
351.99	1753.06
352.20	1787.88
352.41	1722.34
352.62	1621.99
352.83	1714.15
353.04	1703.91
353.25	1736.68
353.46	1761.25
353.67	1716.20
353.88	1595.37
354.09	1705.96
354.30	1656.81
354.52	1701.86
354.73	1710.05
354.94	1728.49
355.15	1722.34
355.36	1865.70
355.57	1740.77
355.78	1714.15
355.99	1687.53
356.20	1683.43
356.41	1753.06
356.62	1783.78
356.83	1753.06
357.04	1769.44
357.25	1615.85
357.46	1775.59
357.68	1587.18
357.89	1687.53
358.10	1738.73
358.31	1648.61
358.52	1705.96
358.73	1687.53
358.94	1685.48
359.15	1642.47
359.36	1722.34
359.57	1789.92
359.78	1665.00
359.99	1726.44
360.20	1617.90
360.41	1648.61
360.62	1767.40
360.83	1769.44
361.04	1681.38
361.25	1705.96
361.46	1814.50
361.67	1779.68
361.88	1773.54
362.09	1771.49
362.30	1740.77
362.51	1712.10
362.72	1775.59
362.93	1789.92
363.14	1751.01
363.35	1757.16
363.56	1697.77
363.78	1785.83
363.99	1728.49
364.20	1636.33
364.41	1755.11
364.62	1734.63
364.83	1779.68
365.04	1671.14
365.25	1746.92
365.46	1789.92
365.67	1650.66
365.88	1726.44
366.09	1726.44
366.30	1673.19
366.51	1746.92
366.72	1650.66
366.93	1712.10
367.14	1742.82
367.35	1761.25
367.56	1718.25
367.77	1746.92
367.98	1665.00
368.18	1755.11
368.39	1697.77
368.60	1638.38
368.81	1789.92
369.02	1701.86
369.23	1693.67
369.44	1587.18
369.65	1677.29
369.86	1730.53
370.07	1751.01
370.28	1697.77
370.49	1677.29
370.70	1689.57
370.91	1591.27
371.12	1736.68
371.33	1716.20
371.54	1665.00
371.75	1834.98
371.96	1624.04
372.17	1742.82
372.38	1695.72
372.59	1810.40
372.80	1634.28
373.01	1673.19
373.22	1701.86
373.43	1701.86
373.64	1689.57
373.85	1802.21
374.06	1839.08
374.26	1755.11
374.47	1720.29
374.68	1730.53
374.89	1705.96
375.10	1740.77
375.31	1701.86
375.52	1722.34
375.73	1662.95
375.94	1634.28
376.15	1751.01
376.36	1728.49
376.57	1785.83
376.78	1646.57
376.99	1740.77
377.20	1781.73
377.40	1667.05
377.61	1746.92
377.82	1652.71
378.03	1779.68
378.24	1667.05
378.45	1720.29
378.66	1761.25
378.87	1605.61
379.08	1634.28
379.29	1722.34
379.50	1804.26
379.71	1708.01
379.91	1691.62
380.12	1638.38
380.33	1753.06
380.54	1734.63
380.75	1656.81
380.96	1687.53
381.17	1767.40
381.38	1720.29
381.59	1714.15
381.80	1779.68
382.00	1810.40
382.21	1759.21
382.42	1775.59
382.63	1853.41
382.84	1871.84
383.05	1859.56
383.26	1875.94
383.47	1658.85
383.68	1751.01
383.88	1767.40
384.09	1771.49
384.30	1855.46
384.51	1716.20
384.72	1683.43
384.93	1642.47
385.14	1654.76
385.35	1794.02
385.55	1671.14
385.76	1818.60
385.97	1671.14
386.18	1617.90
386.39	1718.25
386.60	1710.05
386.81	1767.40
387.02	1712.10
387.22	1640.42
387.43	1789.92
387.64	1839.08
387.85	1929.19
388.06	2176.99
388.27	4124.61
388.48	6526.88
388.68	8034.18
388.89	9324.40
389.10	9512.81
389.31	8275.84
389.52	7321.49
389.73	6424.48
389.93	6049.70
390.14	5654.44
390.35	5033.91
390.56	4483.00
390.77	3694.54
390.98	3069.91
391.18	2482.14
391.39	2113.50
391.60	1916.90
391.81	1892.32
392.02	1658.85
392.23	1822.69
392.43	1669.09
392.64	1791.97
392.85	1785.83
393.06	1820.64
393.27	1716.20
393.47	1665.00
393.68	1773.54
393.89	1753.06
394.10	1810.40
394.31	1660.90
394.52	1757.16
394.72	1636.33
394.93	1785.83
395.14	1665.00
395.35	1753.06
395.56	1681.38
395.76	1742.82
395.97	1830.88
396.18	1771.49
396.39	1759.21
396.60	2021.35
396.80	1912.80
397.01	1837.03
397.22	1812.45
397.43	1927.14
397.64	1720.29
397.84	1746.92
398.05	1820.64
398.26	1765.35
398.47	1771.49
398.67	1748.97
398.88	1683.43
399.09	1730.53
399.30	1722.34
399.51	1834.98
399.71	1658.85
399.92	1705.96
400.13	1726.44
400.34	1769.44
400.54	1722.34
400.75	1728.49
400.96	1714.15
401.17	1837.03
401.37	1726.44
401.58	1728.49
401.79	1744.87
402.00	1916.90
402.21	1964.00
402.41	1968.10
402.62	2021.35
402.83	2047.97
403.04	1982.43
403.24	2138.08
403.45	1855.46
403.66	1974.24
403.87	1910.75
404.07	1886.18
404.28	1927.14
404.49	1943.52
404.70	1781.73
404.90	1794.02
405.11	1744.87
405.32	1769.44
405.52	1669.09
405.73	1658.85
405.94	1669.09
406.15	1755.11
406.35	1761.25
406.56	1779.68
406.77	1716.20
406.98	1773.54
407.18	1624.04
407.39	1822.69
407.60	1683.43
407.80	1714.15
408.01	1726.44
408.22	1804.26
408.43	1662.95
408.63	1742.82
408.84	1718.25
409.05	1787.88
409.25	1679.33
409.46	1673.19
409.67	1669.09
409.88	1693.67
410.08	1748.97
410.29	1642.47
410.50	1718.25
410.70	1755.11
410.91	1687.53
411.12	1734.63
411.32	1648.61
411.53	1724.39
411.74	1781.73
411.95	1779.68
412.15	1800.16
412.36	1769.44
412.57	1759.21
412.77	1765.35
412.98	1824.74
413.19	1697.77
413.39	1691.62
413.60	1771.49
413.81	1714.15
414.01	1628.14
414.22	1716.20
414.43	1781.73
414.63	1726.44
414.84	1839.08
415.05	1732.58
415.25	1703.91
415.46	1705.96
415.67	1734.63
415.87	1783.78
416.08	1699.81
416.29	1771.49
416.49	1746.92
416.70	1708.01
416.91	1746.92
417.11	1699.81
417.32	1763.30
417.53	1779.68
417.73	1791.97
417.94	1724.39
418.15	1746.92
418.35	1767.40
418.56	1748.97
418.77	1869.80
418.97	1648.61
419.18	1665.00
419.38	1626.09
419.59	1716.20
419.80	1855.46
420.00	1660.90
420.21	1771.49
420.42	1794.02
420.62	1755.11
420.83	1724.39
421.04	1746.92
421.24	1712.10
421.45	1738.73
421.65	1728.49
421.86	1689.57
422.07	1845.22
422.27	1847.27
422.48	1783.78
422.69	1574.89
422.89	1693.67
423.10	1796.07
423.30	1609.70
423.51	1740.77
423.72	1632.23
423.92	1804.26
424.13	1677.29
424.33	1685.48
424.54	1757.16
424.75	1712.10
424.95	1806.31
425.16	1697.77
425.36	1742.82
425.57	1847.27
425.78	1787.88
425.98	1757.16
426.19	1665.00
426.39	1738.73
426.60	1765.35
426.81	1826.79
427.01	1691.62
427.22	1642.47
427.42	1640.42
427.63	1724.39
427.83	1810.40
428.04	1820.64
428.25	1798.12
428.45	1722.34
428.66	1759.21
428.86	1804.26
429.07	1740.77
429.28	1740.77
429.48	1773.54
429.69	1691.62
429.89	1746.92
430.10	1656.81
430.30	1800.16
430.51	1769.44
430.71	1724.39
430.92	1740.77
431.13	1609.70
431.33	1730.53
431.54	1701.86
431.74	1794.02
431.95	1849.32
432.15	1615.85
432.36	1748.97
432.56	1816.55
432.77	1794.02
432.98	1787.88
433.18	1677.29
433.39	1699.81
433.59	1665.00
433.80	1828.84
434.00	1912.80
434.21	1712.10
434.41	1691.62
434.62	1796.07
434.82	1705.96
435.03	1699.81
435.23	1718.25
435.44	1728.49
435.64	1755.11
435.85	1722.34
436.06	1767.40
436.26	1732.58
436.47	1796.07
436.67	1681.38
436.88	1806.31
437.08	1751.01
437.29	1794.02
437.49	1683.43
437.70	1837.03
437.90	1681.38
438.11	1890.28
438.31	1753.06
438.52	1857.51
438.72	1886.18
438.93	1863.65
439.13	1837.03
439.34	1830.88
439.54	1703.91
439.75	1798.12
439.95	1837.03
440.16	1691.62
440.36	1843.17
440.57	1751.01
440.77	1804.26
440.98	1769.44
441.18	1701.86
441.39	1693.67
441.59	1705.96
441.80	1824.74
442.00	1769.44
442.21	1751.01
442.41	1646.57
442.62	1755.11
442.82	1708.01
443.02	1718.25
443.23	1808.36
443.43	1720.29
443.64	1775.59
443.84	1687.53
444.05	1818.60
444.25	1734.63
444.46	1798.12
444.66	1761.25
444.87	1845.22
445.07	1679.33
445.28	1791.97
445.48	1847.27
445.69	1794.02
445.89	1884.13
446.09	1771.49
446.30	2074.59
446.50	2627.54
446.71	3680.20
446.91	4130.75
447.12	4714.42
447.32	4616.12
447.53	4282.30
447.73	3911.62
447.93	3520.46
448.14	3282.89
448.34	3127.25
448.55	2906.07
448.75	2781.14
448.96	2574.30
449.16	2326.49
449.36	2353.12
449.57	2080.74
449.77	1945.57
449.98	1746.92
450.18	1783.78
450.39	1824.74
450.59	1755.11
450.79	1665.00
451.00	1732.58
451.20	1791.97
451.41	1753.06
451.61	1882.08
451.81	1775.59
452.02	1761.25
452.22	1722.34
452.43	1695.72
452.63	1724.39
452.84	1748.97
453.04	1691.62
453.24	1791.97
453.45	1695.72
453.65	1791.97
453.86	1748.97
454.06	1783.78
454.26	1759.21
454.47	1724.39
454.67	1765.35
454.87	1808.36
455.08	1783.78
455.28	1902.56
455.49	1812.45
455.69	1656.81
455.89	1851.36
456.10	1847.27
456.30	1693.67
456.51	1759.21
456.71	1769.44
456.91	1736.68
457.12	1773.54
457.32	1806.31
457.52	1642.47
457.73	1728.49
457.93	1834.98
458.14	1740.77
458.34	1708.01
458.54	1796.07
458.75	1734.63
458.95	1853.41
459.15	1736.68
459.36	1798.12
459.56	1845.22
459.76	1869.80
459.97	1716.20
460.17	1820.64
460.37	1722.34
460.58	1742.82
460.78	1736.68
460.99	1763.30
461.19	1716.20
461.39	1708.01
461.60	1771.49
461.80	1742.82
462.00	1652.71
462.21	1748.97
462.41	1734.63
462.61	1687.53
462.82	1699.81
463.02	1775.59
463.22	1708.01
463.43	1769.44
463.63	1740.77
463.83	1812.45
464.04	1746.92
464.24	1748.97
464.44	1642.47
464.64	1759.21
464.85	1781.73
465.05	1697.77
465.25	1771.49
465.46	1746.92
465.66	1730.53
465.86	1765.35
466.07	1734.63
466.27	1800.16
466.47	1611.75
466.68	1705.96
466.88	1816.55
467.08	1654.76
467.29	1697.77
467.49	1767.40
467.69	1705.96
467.89	1771.49
468.10	1689.57
468.30	1683.43
468.50	1855.46
468.71	1787.88
468.91	1726.44
469.11	1863.65
469.31	1724.39
469.52	1648.61
469.72	1806.31
469.92	1834.98
470.13	1708.01
470.33	1693.67
470.53	1822.69
470.73	2004.96
470.94	2263.01
471.14	2287.58
471.34	2389.98
471.54	2394.08
471.75	2213.85
471.95	2140.13
472.15	1964.00
472.36	1984.48
472.56	2052.06
472.76	2093.02
472.96	1959.91
473.17	1923.04
473.37	1918.95
473.57	1800.16
473.77	1843.17
473.98	1826.79
474.18	1765.35
474.38	1916.90
474.58	1732.58
474.79	1667.05
474.99	1755.11
475.19	1824.74
475.39	1599.46
475.60	1753.06
475.80	1779.68
476.00	1699.81
476.20	1734.63
476.41	1705.96
476.61	1847.27
476.81	1830.88
477.01	1693.67
477.21	1839.08
477.42	1910.75
477.62	1697.77
477.82	1789.92
478.02	1685.48
478.23	1744.87
478.43	1646.57
478.63	1693.67
478.83	1744.87
479.03	1665.00
479.24	1806.31
479.44	1875.94
479.64	1671.14
479.84	1669.09
480.04	1755.11
480.25	1746.92
480.45	1767.40
480.65	1724.39
480.85	1865.70
481.06	1675.24
481.26	1751.01
481.46	1761.25
481.66	1712.10
481.86	1748.97
482.06	1769.44
482.27	1708.01
482.47	1730.53
482.67	1726.44
482.87	1714.15
483.07	1800.16
483.28	1794.02
483.48	1660.90
483.68	1722.34
483.88	1632.23
484.08	1667.05
484.29	1679.33
484.49	1660.90
484.69	1701.86
484.89	1796.07
485.09	1798.12
485.29	1777.64
485.50	1746.92
485.70	1748.97
485.90	1822.69
486.10	1679.33
486.30	1765.35
486.50	1826.79
486.71	1734.63
486.91	1699.81
487.11	1779.68
487.31	1628.14
487.51	1779.68
487.71	1683.43
487.91	1669.09
488.12	1673.19
488.32	1566.70
488.52	1708.01
488.72	1591.27
488.92	1757.16
489.12	1779.68
489.32	1732.58
489.53	1773.54
489.73	1619.94
489.93	1806.31
490.13	1718.25
490.33	1603.56
490.53	1748.97
490.73	1765.35
490.94	1683.43
491.14	1755.11
491.34	1941.47
491.54	2189.28
491.74	2521.05
491.94	2983.89
492.14	2981.84
492.34	2873.30
492.54	2758.61
492.75	2475.99
492.95	2461.66
493.15	2306.01
493.35	2306.01
493.55	2291.68
493.75	2060.26
493.95	2107.36
494.15	1976.29
494.35	1961.95
494.56	1884.13
494.76	1785.83
494.96	1859.56
495.16	1847.27
495.36	1714.15
495.56	1730.53
495.76	1755.11
495.96	1783.78
496.16	1697.77
496.36	1886.18
496.56	1697.77
496.77	1724.39
496.97	1761.25
497.17	1822.69
497.37	1699.81
497.57	1851.36
497.77	1699.81
497.97	1683.43
498.17	1716.20
498.37	1714.15
498.57	1757.16
498.77	1656.81
498.97	1882.08
499.17	1818.60
499.38	1763.30
499.58	1738.73
499.78	1757.16
499.98	1824.74
500.18	1699.81
500.38	1705.96
500.58	1945.57
500.78	2594.78
500.98	4491.20
501.18	5676.97
501.38	6477.73
501.58	6940.57
501.78	6277.02
501.98	5316.53
502.18	4736.95
502.38	4370.37
502.58	4155.33
502.78	3739.59
502.98	3555.27
503.18	3366.86
503.38	3164.11
503.59	2811.86
503.79	2707.41
503.99	2475.99
504.19	2306.01
504.39	2228.19
504.59	2205.66
504.79	2191.33
504.99	2086.88
505.19	1869.80
505.39	1906.66
505.59	1935.33
505.79	1972.19
505.99	1824.74
506.19	1751.01
506.39	1939.43
506.59	1773.54
506.79	1710.05
506.99	1791.97
507.19	1828.84
507.39	1808.36
507.59	1712.10
507.79	1771.49
507.99	1767.40
508.19	1708.01
508.39	1748.97
508.59	1775.59
508.79	1763.30
508.99	1837.03
509.19	1738.73
509.39	1773.54
509.59	1624.04
509.79	1759.21
509.99	1777.64
510.19	1832.93
510.39	1812.45
510.59	1656.81
510.79	1789.92
510.99	1695.72
511.19	1626.09
511.39	1828.84
511.59	1855.46
511.79	1845.22
511.99	1703.91
512.19	1808.36
512.38	1718.25
512.58	1779.68
512.78	1642.47
512.98	1761.25
513.18	1839.08
513.38	1673.19
513.58	1851.36
513.78	1757.16
513.98	1744.87
514.18	1763.30
514.38	1761.25
514.58	1767.40
514.78	1712.10
514.98	1757.16
515.18	1744.87
515.38	1687.53
515.58	1863.65
515.78	1695.72
515.98	1732.58
516.18	1771.49
516.38	1748.97
516.57	1677.29
516.77	1683.43
516.97	1767.40
517.17	1718.25
517.37	1687.53
517.57	1757.16
517.77	1697.77
517.97	1669.09
518.17	1789.92
518.37	1734.63
518.57	1695.72
518.77	1681.38
518.97	1738.73
519.16	1779.68
519.36	1847.27
519.56	1689.57
519.76	1742.82
519.96	1765.35
520.16	1841.12
520.36	1720.29
520.56	1845.22
520.76	1705.96
520.96	1705.96
521.16	1771.49
521.35	1751.01
521.55	1830.88
521.75	1724.39
521.95	1650.66
522.15	1724.39
522.35	1685.48
522.55	1755.11
522.75	1769.44
522.95	1746.92
523.14	1673.19
523.34	1769.44
523.54	1716.20
523.74	1773.54
523.94	1726.44
524.14	1630.18
524.34	1761.25
524.54	1867.75
524.73	1683.43
524.93	1810.40
525.13	1779.68
525.33	1677.29
525.53	1920.99
525.73	1753.06
525.93	1755.11
526.13	1681.38
526.32	1738.73
526.52	1775.59
526.72	1753.06
526.92	1744.87
527.12	1710.05
527.32	1748.97
527.52	1824.74
527.71	1771.49
527.91	1710.05
528.11	1728.49
528.31	1691.62
528.51	1755.11
528.71	1761.25
528.90	1738.73
529.10	1849.32
529.30	1834.98
529.50	1689.57
529.70	1740.77
529.90	1681.38
530.09	1710.05
530.29	1710.05
530.49	1681.38
530.69	1839.08
530.89	1714.15
531.09	1763.30
531.28	1712.10
531.48	1759.21
531.68	1671.14
531.88	1757.16
532.08	1791.97
532.28	1660.90
532.47	1738.73
532.67	1843.17
532.87	1763.30
533.07	1652.71
533.27	1834.98
533.46	1685.48
533.66	1736.68
533.86	1742.82
534.06	1710.05
534.26	1730.53
534.45	1746.92
534.65	1818.60
534.85	1742.82
535.05	1714.15
535.25	1787.88
535.44	1691.62
535.64	1812.45
535.84	1740.77
536.04	1650.66
536.24	1603.56
536.43	1689.57
536.63	1824.74
536.83	1701.86
537.03	1734.63
537.22	1695.72
537.42	1708.01
537.62	1730.53
537.82	1718.25
538.02	1832.93
538.21	1791.97
538.41	1976.29
538.61	1751.01
538.81	1824.74
539.00	1802.21
539.20	1705.96
539.40	1681.38
539.60	1738.73
539.79	1779.68
539.99	1705.96
540.19	1732.58
540.39	1734.63
540.58	1744.87
540.78	1771.49
540.98	1783.78
541.18	1757.16
541.37	1794.02
541.57	1722.34
541.77	1814.50
541.97	1646.57
542.16	1636.33
542.36	1671.14
542.56	1687.53
542.76	1898.47
542.95	1773.54
543.15	1791.97
543.35	1828.84
543.54	1701.86
543.74	1662.95
543.94	1900.52
544.14	1681.38
544.33	1742.82
544.53	1716.20
544.73	1699.81
544.93	1720.29
545.12	1705.96
545.32	1683.43
545.52	1673.19
545.71	1701.86
545.91	1751.01
546.11	1783.78
546.30	1716.20
546.50	1701.86
546.70	1806.31
546.90	1759.21
547.09	1699.81
547.29	1808.36
547.49	1794.02
547.68	1763.30
547.88	1761.25
548.08	1802.21
548.27	2220.00
548.47	1708.01
548.67	1710.05
548.87	1820.64
549.06	1765.35
549.26	1716.20
549.46	1703.91
549.65	1751.01
549.85	1767.40
550.05	1765.35
550.24	1748.97
550.44	1667.05
550.64	1724.39
550.83	1705.96
551.03	1814.50
551.23	1818.60
551.42	1834.98
551.62	1769.44
551.82	1765.35
552.01	1726.44
552.21	1779.68
552.41	1802.21
552.60	1777.64
552.80	1759.21
553.00	1648.61
553.19	1781.73
553.39	1894.37
553.59	1667.05
553.78	1791.97
553.98	1783.78
554.17	1628.14
554.37	1755.11
554.57	1736.68
554.76	1695.72
554.96	1703.91
555.16	1810.40
555.35	1714.15
555.55	1728.49
555.75	1746.92
555.94	1843.17
556.14	1652.71
556.33	1763.30
556.53	1751.01
556.73	1701.86
556.92	1802.21
557.12	1808.36
557.32	1894.37
557.51	1787.88
557.71	1742.82
557.90	1787.88
558.10	1865.70
558.30	1685.48
558.49	1720.29
558.69	1673.19
558.88	1828.84
559.08	1751.01
559.28	1667.05
559.47	1714.15
559.67	1843.17
559.86	1877.99
560.06	1804.26
560.26	1726.44
560.45	1796.07
560.65	1728.49
560.84	1853.41
561.04	1718.25
561.24	1757.16
561.43	1691.62
561.63	1875.94
561.82	1775.59
562.02	1787.88
562.22	1746.92
562.41	1671.14
562.61	1753.06
562.80	1640.42
563.00	1808.36
563.19	1816.55
563.39	1794.02
563.59	1781.73
563.78	1744.87
563.98	1673.19
564.17	1728.49
564.37	1630.18
564.56	1744.87
564.76	1693.67
564.96	1775.59
565.15	1695.72
565.35	1875.94
565.54	1763.30
565.74	1812.45
565.93	1728.49
566.13	1769.44
566.32	1771.49
566.52	1796.07
566.71	1705.96
566.91	1820.64
567.11	1779.68
567.30	1710.05
567.50	1796.07
567.69	1800.16
567.89	1777.64
568.08	1726.44
568.28	1755.11
568.47	1693.67
568.67	1779.68
568.86	1695.72
569.06	1800.16
569.25	1718.25
569.45	1652.71
569.64	1720.29
569.84	1794.02
570.04	1708.01
570.23	1744.87
570.43	1732.58
570.62	1732.58
570.82	1892.32
571.01	1740.77
571.21	1734.63
571.40	1734.63
571.60	1845.22
571.79	1742.82
571.99	1757.16
572.18	1697.77
572.38	1773.54
572.57	1759.21
572.77	1724.39
572.96	1892.32
573.16	1800.16
573.35	1705.96
573.55	1888.23
573.74	1851.36
573.94	1802.21
574.13	1753.06
574.33	1753.06
574.52	1837.03
574.71	1800.16
574.91	1779.68
575.10	1669.09
575.30	1683.43
575.49	1662.95
575.69	1714.15
575.88	1705.96
576.08	1685.48
576.27	1785.83
576.47	1755.11
576.66	1880.04
576.86	1796.07
577.05	1787.88
577.25	1832.93
577.44	1947.62
577.64	1736.68
577.83	1837.03
578.02	1736.68
578.22	1843.17
578.41	1877.99
578.61	1734.63
578.80	1621.99
579.00	1751.01
579.19	1748.97
579.39	1818.60
579.58	1806.31
579.77	1804.26
579.97	1822.69
580.16	1785.83
580.36	1814.50
580.55	1816.55
580.75	1753.06
580.94	1744.87
581.13	1851.36
581.33	1855.46
581.52	1781.73
581.72	1863.65
581.91	1830.88
582.11	1693.67
582.30	1837.03
582.49	1761.25
582.69	1900.52
582.88	1828.84
583.08	1800.16
583.27	1820.64
583.47	1765.35
583.66	1722.34
583.85	1724.39
584.05	1759.21
584.24	1796.07
584.44	1894.37
584.63	1875.94
584.82	1884.13
585.02	1839.08
585.21	1869.80
585.41	1875.94
585.60	1845.22
585.79	1914.85
585.99	1939.43
586.18	1880.04
586.37	2156.51
586.57	3264.46
586.76	9684.84
586.96	23277.21
587.15	32802.32
587.34	39019.95
587.54	40773.01
587.73	35210.73
587.93	25202.30
588.12	20696.77
588.31	17516.28
588.51	15812.37
588.70	14786.33
588.89	13600.56
589.09	12076.87
589.28	10540.90
589.47	9119.60
589.67	7643.02
589.86	6315.94
590.06	4730.81
590.25	3782.60
590.44	3082.19
590.64	2592.73
590.83	2220.00
591.02	2117.60
591.22	1966.05
591.41	1869.80
591.60	1783.78
591.80	1939.43
591.99	1712.10
592.18	1812.45
592.38	1843.17
592.57	1746.92
592.76	1806.31
592.96	1851.36
593.15	1806.31
593.34	1834.98
593.54	1755.11
593.73	1763.30
593.92	1787.88
594.12	1812.45
594.31	1763.30
594.50	1779.68
594.70	1789.92
594.89	1939.43
595.08	1705.96
595.28	1791.97
595.47	1941.47
595.66	1779.68
595.86	1738.73
596.05	1720.29
596.24	1742.82
596.43	1816.55
596.63	1791.97
596.82	1787.88
597.01	1734.63
597.21	1853.41
597.40	1740.77
597.59	1679.33
597.79	1761.25
597.98	1755.11
598.17	1722.34
598.36	1796.07
598.56	1783.78
598.75	1703.91
598.94	1759.21
599.14	1714.15
599.33	1757.16
599.52	1757.16
599.71	1742.82
599.91	1847.27
600.10	1767.40
600.29	1759.21
600.48	1839.08
600.68	1773.54
600.87	1730.53
601.06	1755.11
601.26	1757.16
601.45	1816.55
601.64	1761.25
601.83	1779.68
602.03	1695.72
602.22	1669.09
602.41	1746.92
602.60	1861.60
602.80	1726.44
602.99	1834.98
603.18	1619.94
603.37	1757.16
603.57	1726.44
603.76	1791.97
603.95	1777.64
604.14	1755.11
604.34	1714.15
604.53	1808.36
604.72	1742.82
604.91	1804.26
605.10	1755.11
605.30	1665.00
605.49	1882.08
605.68	1802.21
605.87	1744.87
606.07	1675.24
606.26	1769.44
606.45	1812.45
606.64	1679.33
606.84	1705.96
607.03	1765.35
607.22	1888.23
607.41	1632.23
607.60	1712.10
607.80	1806.31
607.99	1685.48
608.18	1773.54
608.37	1718.25
608.56	1640.42
608.76	1832.93
608.95	1806.31
609.14	1718.25
609.33	1826.79
609.52	1796.07
609.72	1736.68
609.91	1789.92
610.10	1748.97
610.29	1837.03
610.48	1785.83
610.68	1861.60
610.87	1781.73
611.06	1755.11
611.25	1824.74
611.44	1779.68
611.63	1736.68
611.83	1890.28
612.02	1699.81
612.21	1728.49
612.40	1658.85
612.59	1718.25
612.79	1767.40
612.98	1718.25
613.17	1822.69
613.36	1730.53
613.55	1853.41
613.74	1748.97
613.93	1726.44
614.13	1708.01
614.32	1834.98
614.51	1822.69
614.70	1658.85
614.89	1775.59
615.08	1779.68
615.28	1986.53
615.47	1701.86
615.66	1763.30
615.85	1757.16
616.04	1832.93
616.23	1746.92
616.42	1724.39
616.62	1755.11
616.81	1806.31
617.00	1763.30
617.19	1732.58
617.38	1775.59
617.57	1722.34
617.76	1751.01
617.95	1757.16
618.15	1708.01
618.34	1837.03
618.53	1642.47
618.72	1818.60
618.91	1789.92
619.10	1796.07
619.29	1728.49
619.48	1771.49
619.68	1712.10
619.87	1671.14
620.06	1660.90
620.25	1728.49
620.44	1751.01
620.63	1724.39
620.82	1728.49
621.01	1718.25
621.20	1716.20
621.39	1738.73
621.59	1712.10
621.78	1673.19
621.97	1759.21
622.16	1748.97
622.35	1730.53
622.54	1787.88
622.73	1808.36
622.92	1636.33
623.11	1763.30
623.30	1628.14
623.49	1800.16
623.68	1671.14
623.88	1789.92
624.07	1779.68
624.26	1777.64
624.45	1722.34
624.64	1687.53
624.83	1714.15
625.02	1748.97
625.21	1705.96
625.40	1798.12
625.59	1832.93
625.78	1808.36
625.97	1763.30
626.16	1820.64
626.35	1832.93
626.54	1757.16
626.74	1746.92
626.93	1671.14
627.12	1734.63
627.31	1757.16
627.50	1818.60
627.69	1748.97
627.88	1685.48
628.07	1632.23
628.26	1613.80
628.45	1626.09
628.64	1710.05
628.83	1681.38
629.02	1669.09
629.21	1781.73
629.40	1755.11
629.59	1753.06
629.78	1724.39
629.97	1687.53
630.16	1751.01
630.35	1695.72
630.54	1796.07
630.73	1736.68
630.92	1677.29
631.11	1685.48
631.30	1685.48
631.49	1802.21
631.68	1708.01
631.87	1791.97
632.06	1683.43
632.25	1859.56
632.44	1705.96
632.63	1806.31
632.82	1656.81
633.01	1683.43
633.20	1744.87
633.39	1650.66
633.58	1667.05
633.77	1787.88
633.96	1722.34
634.15	1753.06
634.34	1755.11
634.53	1724.39
634.72	1665.00
634.91	1732.58
635.10	1738.73
635.29	1810.40
635.48	1789.92
635.67	1697.77
635.86	1673.19
636.05	1888.23
636.24	1724.39
636.43	1781.73
636.62	1769.44
636.81	1587.18
637.00	1724.39
637.19	1755.11
637.38	1755.11
637.57	1665.00
637.76	1779.68
637.95	1759.21
638.14	1673.19
638.33	1755.11
638.52	1705.96
638.71	1736.68
638.89	1726.44
639.08	1896.42
639.27	1687.53
639.46	1710.05
639.65	1728.49
639.84	1783.78
640.03	1812.45
640.22	1728.49
640.41	1837.03
640.60	1654.76
640.79	1820.64
640.98	1710.05
641.17	1785.83
641.36	1734.63
641.55	1763.30
641.74	1728.49
641.92	1708.01
642.11	1603.56
642.30	1740.77
642.49	1742.82
642.68	1710.05
642.87	1746.92
643.06	1806.31
643.25	1759.21
643.44	1746.92
643.63	1665.00
643.82	1783.78
644.00	1626.09
644.19	1722.34
644.38	1681.38
644.57	1785.83
644.76	1781.73
644.95	1691.62
645.14	1665.00
645.33	1665.00
645.52	1677.29
645.71	1613.80
645.89	1726.44
646.08	1785.83
646.27	1693.67
646.46	1898.47
646.65	1662.95
646.84	1744.87
647.03	1757.16
647.22	1798.12
647.40	1740.77
647.59	1742.82
647.78	1621.99
647.97	1693.67
648.16	1685.48
648.35	1830.88
648.54	1673.19
648.73	1722.34
648.91	1845.22
649.10	1716.20
649.29	1736.68
649.48	1802.21
649.67	1751.01
649.86	1697.77
650.05	1708.01
650.23	1832.93
650.42	1726.44
650.61	1697.77
650.80	1761.25
650.99	1906.66
651.18	1705.96
651.36	1794.02
651.55	1697.77
651.74	1744.87
651.93	1726.44
652.12	1726.44
652.31	1669.09
652.49	1697.77
652.68	1673.19
652.87	1875.94
653.06	1791.97
653.25	1802.21
653.44	1718.25
653.62	1771.49
653.81	1693.67
654.00	1814.50
654.19	1794.02
654.38	1869.80
654.56	1812.45
654.75	1699.81
654.94	1718.25
655.13	1767.40
655.32	1705.96
655.51	1763.30
655.69	1710.05
655.88	1822.69
656.07	1710.05
656.26	1697.77
656.45	1738.73
656.63	1673.19
656.82	1732.58
657.01	1783.78
657.20	1675.24
657.38	1826.79
657.57	1667.05
657.76	1703.91
657.95	1751.01
658.14	1671.14
658.32	1703.91
658.51	1693.67
658.70	1728.49
658.89	1699.81
659.08	1710.05
659.26	1851.36
659.45	1662.95
659.64	1728.49
659.83	1677.29
660.01	1920.99
660.20	1759.21
660.39	1839.08
660.58	1632.23
660.76	1759.21
660.95	1617.90
661.14	1757.16
661.33	1734.63
661.51	1685.48
661.70	1724.39
661.89	1730.53
662.08	1689.57
662.26	1652.71
662.45	1722.34
662.64	1771.49
662.83	1773.54
663.01	1607.66
663.20	1738.73
663.39	1830.88
663.58	1689.57
663.76	1714.15
663.95	1798.12
664.14	1685.48
664.32	1630.18
664.51	1742.82
664.70	1615.85
664.89	1746.92
665.07	1675.24
665.26	1826.79
665.45	1576.94
665.64	1796.07
665.82	1740.77
666.01	1755.11
666.20	1693.67
666.38	1761.25
666.57	1796.07
666.76	2166.75
666.95	4425.66
667.13	10176.36
667.32	14655.26
667.51	17360.63
667.69	18423.53
667.88	17153.79
668.07	12003.14
668.25	9201.52
668.44	7751.56
668.63	6983.57
668.81	6840.22
669.00	6186.91
669.19	5648.30
669.38	5009.33
669.56	4374.46
669.75	3788.74
669.94	3270.61
670.12	2826.20
670.31	2586.58
670.50	2263.01
670.68	2078.69
670.87	1931.23
671.06	1818.60
671.24	1851.36
671.43	1794.02
671.62	1740.77
671.80	1681.38
671.99	1804.26
672.18	1714.15
672.36	1742.82
672.55	1794.02
672.74	1708.01
672.92	1681.38
673.11	1744.87
673.29	1703.91
673.48	1814.50
673.67	1734.63
673.85	1853.41
674.04	1607.66
674.23	1736.68
674.41	1814.50
674.60	1679.33
674.79	1605.61
674.97	1669.09
675.16	1767.40
675.34	1798.12
675.53	1646.57
675.72	1773.54
675.90	1820.64
676.09	1656.81
676.28	1665.00
676.46	1617.90
676.65	1753.06
676.83	1642.47
677.02	1734.63
677.21	1701.86
677.39	1789.92
677.58	1648.61
677.77	1662.95
677.95	1634.28
678.14	1730.53
678.32	1705.96
678.51	1699.81
678.70	1867.75
678.88	1624.04
679.07	1773.54
679.25	1658.85
679.44	1734.63
679.63	1568.74
679.81	1781.73
680.00	1744.87
680.18	1753.06
680.37	1742.82
680.55	1724.39
680.74	1708.01
680.93	1593.32
681.11	1810.40
681.30	1763.30
681.48	1677.29
681.67	1757.16
681.85	1708.01
682.04	1634.28
682.23	1726.44
682.41	1753.06
682.60	1701.86
682.78	1718.25
682.97	1624.04
683.15	1732.58
683.34	1658.85
683.53	1765.35
683.71	1671.14
683.90	1810.40
684.08	1796.07
684.27	1703.91
684.45	1822.69
684.64	1802.21
684.82	1681.38
685.01	1720.29
685.19	1763.30
685.38	1832.93
685.57	1714.15
685.75	1718.25
685.94	1736.68
686.12	1697.77
686.31	1730.53
686.49	1800.16
686.68	1658.85
686.86	1822.69
687.05	1693.67
687.23	1716.20
687.42	1675.24
687.60	1642.47
687.79	1773.54
687.97	1789.92
688.16	1759.21
688.34	1820.64
688.53	1660.90
688.71	1681.38
688.90	1851.36
689.08	1726.44
689.27	1601.51
689.45	1804.26
689.64	1701.86
689.82	1767.40
690.01	1701.86
690.19	1705.96
690.38	1679.33
690.56	1828.84
690.75	1671.14
690.93	1716.20
691.12	1658.85
691.30	1744.87
691.49	1683.43
691.67	1701.86
691.86	1828.84
692.04	1648.61
692.23	1695.72
692.41	1658.85
692.60	1822.69
692.78	1714.15
692.97	1712.10
693.15	1681.38
693.34	1810.40
693.52	1777.64
693.71	1667.05
693.89	1607.66
694.08	1662.95
694.26	1734.63
694.44	1734.63
694.63	1740.77
694.81	1630.18
695.00	1650.66
695.18	1783.78
695.37	1871.84
695.55	1794.02
695.74	1626.09
695.92	1603.56
696.10	1777.64
696.29	1660.90
696.47	1697.77
696.66	1644.52
696.84	1660.90
697.03	1710.05
697.21	1769.44
697.40	2269.15
697.58	1871.84
697.76	1673.19
697.95	1705.96
698.13	1675.24
698.32	1652.71
698.50	1722.34
698.68	1697.77
698.87	1718.25
699.05	1820.64
699.24	1740.77
699.42	1685.48
699.61	1724.39
699.79	1763.30
699.97	1712.10
700.16	1691.62
700.34	1755.11
700.53	1673.19
700.71	1820.64
700.89	1779.68
701.08	1650.66
701.26	1759.21
701.45	2170.85
701.63	1665.00
701.81	1699.81
702.00	1683.43
702.18	1607.66
702.37	1744.87
702.55	1705.96
702.73	1691.62
702.92	1669.09
703.10	1730.53
703.28	1863.65
703.47	1624.04
703.65	1822.69
703.84	1822.69
704.02	1691.62
704.20	1800.16
704.39	1599.46
704.57	1665.00
704.75	1740.77
704.94	1724.39
705.12	1703.91
705.30	1751.01
705.49	2258.91
705.67	4286.40
705.86	9152.37
706.04	12136.26
706.22	14149.42
706.41	14755.61
706.59	13330.23
706.77	9324.40
706.96	7190.42
707.14	6395.81
707.32	5791.66
707.51	5386.16
707.69	4724.66
707.87	4100.03
708.06	3430.35
708.24	2904.02
708.42	2396.12
708.61	2199.52
708.79	1906.66
708.97	1748.97
709.16	1863.65
709.34	1783.78
709.52	1703.91
709.71	1705.96
709.89	1796.07
710.07	1630.18
710.26	1648.61
710.44	1738.73
710.62	1820.64
710.80	1685.48
710.99	1736.68
711.17	1783.78
711.35	1718.25
711.54	1703.91
711.72	1761.25
711.90	1816.55
712.09	1712.10
712.27	1695.72
712.45	1779.68
712.63	1734.63
712.82	1718.25
713.00	1734.63
713.18	1787.88
713.37	1738.73
713.55	1742.82
713.73	1771.49
713.91	1783.78
714.10	1695.72
714.28	1730.53
714.46	1787.88
714.65	1757.16
714.83	1722.34
715.01	1787.88
715.19	1693.67
715.38	1667.05
715.56	1691.62
715.74	1736.68
715.92	1646.57
716.11	1832.93
716.29	1617.90
716.47	1671.14
716.65	1689.57
716.84	1656.81
717.02	1748.97
717.20	1585.13
717.38	1699.81
717.57	1765.35
717.75	1748.97
717.93	1677.29
718.11	1685.48
718.30	1648.61
718.48	1730.53
718.66	1744.87
718.84	1767.40
719.03	1755.11
719.21	1660.90
719.39	1822.69
719.57	1789.92
719.75	1738.73
719.94	1736.68
720.12	1691.62
720.30	1767.40
720.48	1808.36
720.67	1669.09
720.85	1640.42
721.03	1724.39
721.21	1751.01
721.39	1787.88
721.58	1744.87
721.76	1738.73
721.94	1753.06
722.12	1757.16
722.30	1705.96
722.49	1609.70
722.67	1697.77
722.85	1677.29
723.03	1681.38
723.21	1755.11
723.40	1738.73
723.58	1734.63
723.76	1687.53
723.94	1773.54
724.12	1740.77
724.30	1800.16
724.49	1779.68
724.67	1671.14
724.85	1826.79
725.03	1599.46
725.21	1855.46
725.40	1699.81
725.58	1636.33
725.76	1834.98
725.94	1716.20
726.12	1652.71
726.30	1675.24
726.49	1738.73
726.67	1710.05
726.85	1757.16
727.03	1767.40
727.21	2205.66
727.39	2942.93
727.57	3694.54
727.76	4038.59
727.94	4327.36
728.12	4276.16
728.30	3665.86
728.48	2936.79
728.66	2693.08
728.84	2475.99
729.03	2326.49
729.21	2205.66
729.39	2037.73
729.57	1796.07
729.75	1892.32
729.93	1843.17
730.11	1701.86
730.30	1695.72
730.48	1791.97
730.66	1783.78
730.84	1824.74
731.02	1767.40
731.20	1667.05
731.38	1767.40
731.56	1634.28
731.74	1665.00
731.93	1703.91
732.11	1755.11
732.29	1730.53
732.47	1722.34
732.65	1808.36
732.83	1740.77
733.01	1783.78
733.19	1693.67
733.37	1726.44
733.56	1681.38
733.74	1738.73
733.92	1812.45
734.10	1701.86
734.28	1781.73
734.46	1671.14
734.64	1738.73
734.82	1675.24
735.00	1665.00
735.18	1638.38
735.36	1746.92
735.54	1736.68
735.73	1746.92
735.91	1650.66
736.09	1734.63
736.27	1691.62
736.45	1734.63
736.63	1613.80
736.81	1744.87
736.99	1771.49
737.17	1820.64
737.35	1722.34
737.53	1671.14
737.71	1710.05
737.89	1818.60
738.07	1673.19
738.25	1673.19
738.43	1689.57
738.61	1712.10
738.80	1667.05
738.98	1783.78
739.16	1673.19
739.34	1656.81
739.52	1818.60
739.70	1650.66
739.88	1718.25
740.06	1794.02
740.24	1630.18
740.42	1781.73
740.60	1656.81
740.78	1775.59
740.96	1630.18
741.14	1705.96
741.32	1746.92
741.50	1630.18
741.68	1814.50
741.86	1828.84
742.04	1656.81
742.22	1716.20
742.40	1744.87
742.58	1701.86
742.76	1705.96
742.94	1806.31
743.12	1593.32
743.30	1765.35
743.48	1763.30
743.66	1708.01
743.84	1726.44
744.02	1662.95
744.20	1718.25
744.38	1697.77
744.56	1605.61
744.74	1849.32
744.92	1761.25
745.10	1843.17
745.28	1689.57
745.46	1820.64
745.64	1722.34
745.82	1759.21
746.00	1634.28
746.18	1789.92
746.36	1599.46
746.54	1695.72
746.72	1724.39
746.90	1595.37
747.08	1812.45
747.26	1650.66
747.44	1683.43
747.62	1671.14
747.80	1689.57
747.98	1755.11
748.15	1652.71
748.33	1830.88
748.51	1724.39
748.69	1718.25
748.87	1628.14
749.05	1724.39
749.23	1796.07
749.41	1736.68
749.59	1718.25
749.77	1761.25
749.95	1640.42
750.13	1675.24
750.31	1701.86
750.49	1748.97
750.67	1759.21
750.85	1777.64
751.03	1751.01
751.20	1935.33
751.38	1685.48
751.56	1636.33
751.74	1650.66
751.92	1738.73
752.10	1636.33
752.28	1728.49
752.46	1638.38
752.64	1701.86
752.82	1724.39
753.00	1816.55
753.18	1644.52
753.35	1712.10
753.53	1757.16
753.71	1673.19
753.89	1757.16
754.07	1783.78
754.25	1796.07
754.43	1744.87
754.61	1656.81
754.79	1687.53
754.97	1691.62
755.14	1775.59
755.32	1675.24
755.50	1693.67
755.68	1853.41
755.86	1683.43
756.04	1665.00
756.22	1724.39
756.40	1763.30
756.57	1875.94
756.75	1665.00
756.93	1742.82
757.11	1728.49
757.29	1665.00
757.47	1693.67
757.65	1550.31
757.82	1611.75
758.00	1638.38
758.18	1636.33
758.36	1693.67
758.54	1761.25
758.72	1591.27
758.90	1794.02
759.07	1767.40
759.25	1591.27
759.43	1779.68
759.61	1701.86
759.79	2138.08
759.97	1845.22
760.15	1681.38
760.32	1693.67
760.50	1685.48
760.68	1763.30
760.86	1597.42
761.04	1697.77
761.22	1800.16
761.39	1669.09
761.57	1734.63
761.75	1708.01
761.93	1751.01
762.11	1697.77
762.28	1644.52
762.46	1679.33
762.64	1810.40
762.82	1714.15
763.00	1734.63
763.18	1837.03
763.35	1617.90
763.53	1755.11
763.71	1683.43
763.89	1712.10
764.07	1677.29
764.24	1681.38
764.42	1773.54
764.60	1695.72
764.78	1705.96
764.96	1759.21
765.13	1763.30
765.31	1746.92
765.49	1720.29
765.67	1681.38
765.84	1626.09
766.02	1630.18
766.20	1617.90
766.38	1665.00
766.56	1777.64
766.73	1695.72
766.91	1699.81
767.09	1800.16
767.27	1679.33
767.44	1662.95
767.62	1730.53
767.80	1738.73
767.98	1662.95
768.15	1718.25
768.33	1681.38
768.51	1769.44
768.69	1738.73
768.87	1796.07
769.04	1742.82
769.22	1886.18
769.40	1779.68
769.58	1863.65
769.75	1677.29
769.93	1888.23
770.11	1693.67
770.28	1646.57
770.46	1761.25
770.64	1757.16
770.82	1755.11
770.99	1669.09
771.17	1705.96
771.35	1675.24
771.53	1658.85
771.70	1734.63
771.88	1683.43
772.06	1687.53
772.23	1677.29
772.41	1724.39
772.59	1665.00
772.77	1675.24
772.94	1714.15
773.12	1757.16
773.30	1701.86
773.47	1728.49
773.65	1660.90
773.83	1757.16
774.01	1734.63
774.18	1576.94
774.36	1689.57
774.54	1683.43
774.71	1728.49
774.89	1654.76
775.07	1673.19
775.24	1646.57
775.42	1665.00
775.60	1798.12
775.78	1705.96
775.95	1615.85
776.13	1607.66
776.31	1644.52
776.48	1722.34
776.66	1714.15
776.84	1705.96
777.01	1689.57
777.19	1693.67
777.37	1697.77
777.54	1736.68
777.72	1818.60
777.90	1701.86
778.07	1720.29
778.25	1982.43
778.43	1771.49
778.60	1673.19
778.78	1785.83
778.96	1763.30
779.13	1611.75
779.31	1822.69
779.49	1617.90
779.66	1736.68
779.84	1724.39
780.01	1689.57
780.19	1714.15
780.37	1744.87
780.54	1755.11
780.72	1683.43
780.90	1689.57
781.07	1675.24
781.25	1703.91
781.43	1759.21
781.60	1640.42
781.78	1738.73
781.95	1767.40
782.13	1642.47
782.31	1665.00
782.48	1613.80
782.66	1708.01
782.83	1808.36
783.01	1691.62
783.19	1751.01
783.36	1791.97
783.54	1699.81
783.72	1658.85
783.89	1755.11
784.07	1722.34
784.24	1724.39
784.42	1777.64
784.60	1681.38
784.77	1779.68
784.95	1574.89
785.12	1734.63
785.30	1742.82
785.47	1671.14
785.65	1746.92
785.83	1669.09
786.00	1658.85
786.18	1675.24
786.35	1689.57
786.53	1667.05
786.71	1751.01
786.88	1761.25
787.06	1712.10
787.23	1673.19
787.41	1665.00
787.58	1722.34
787.76	1681.38
787.94	1765.35
788.11	1701.86
788.29	1595.37
788.46	1665.00
788.64	1613.80
788.81	1685.48
788.99	1652.71
789.16	1705.96
789.34	1677.29
789.52	1642.47
789.69	1705.96
789.87	1609.70
790.04	1683.43
790.22	1738.73
790.39	1861.60
790.57	1621.99
790.74	1593.32
790.92	1773.54
791.09	1624.04
791.27	1687.53
791.44	1785.83
791.62	1755.11
791.79	1720.29
791.97	1744.87
792.15	1867.75
792.32	1765.35
792.50	1769.44
792.67	1882.08
792.85	1828.84
793.02	1705.96
793.20	1691.62
793.37	1585.13
793.55	1701.86
793.72	1689.57
793.90	1765.35
794.07	1626.09
794.25	1710.05
794.42	1710.05
794.60	1677.29
794.77	1697.77
794.95	1779.68
795.12	1779.68
795.30	1740.77
795.47	1578.98
795.65	1888.23
795.82	1753.06
796.00	1658.85
796.17	1730.53
796.34	1679.33
796.52	1710.05
796.69	1689.57
796.87	1724.39
797.04	1783.78
797.22	1757.16
797.39	1630.18
797.57	1769.44
797.74	1701.86
797.92	1775.59
798.09	1652.71
798.27	1767.40
798.44	1710.05
798.62	1658.85
798.79	1679.33
798.96	1724.39
799.14	1685.48
799.31	1923.04
799.49	1751.01
799.66	1695.72
799.84	1761.25
800.01	1611.75
800.19	1751.01
800.36	1572.84
800.53	1722.34
800.71	1675.24
800.88	1787.88
801.06	1640.42
801.23	1697.77
801.41	1660.90
801.58	1648.61
801.75	1648.61
801.93	1783.78
802.10	1814.50
802.28	1697.77
802.45	1656.81
802.63	1699.81
802.80	1724.39
802.97	1796.07
803.15	1697.77
803.32	1722.34
803.50	1730.53
803.67	1693.67
803.84	1689.57
804.02	1685.48
804.19	1697.77
804.37	1574.89
804.54	1648.61
804.71	1658.85
804.89	1728.49
805.06	1642.47
805.24	1621.99
805.41	1665.00
805.58	1669.09
805.76	1830.88
805.93	1757.16
806.10	1695.72
806.28	1763.30
806.45	1751.01
806.63	1724.39
806.80	1753.06
806.97	1697.77
807.15	1658.85
807.32	1763.30
807.49	1705.96
807.67	1603.56
807.84	1722.34
808.01	1599.46
808.19	1869.80
808.36	1814.50
808.54	1679.33
808.71	1685.48
808.88	1761.25
809.06	1751.01
809.23	1867.75
809.40	1691.62
809.58	1740.77
809.75	1675.24
809.92	1630.18
810.10	1871.84
810.27	1724.39
810.44	1724.39
810.62	1697.77
810.79	1724.39
810.96	1710.05
811.14	1710.05
811.31	1789.92
811.48	1816.55
811.66	1740.77
811.83	1812.45
812.00	1738.73
812.18	1708.01
812.35	1875.94
812.52	1597.42
812.69	1705.96
812.87	1775.59
813.04	1697.77
813.21	1777.64
813.39	1667.05
813.56	1665.00
813.73	1822.69
813.91	1636.33
814.08	1697.77
814.25	1691.62
814.42	1669.09
814.60	1683.43
814.77	1665.00
814.94	1738.73
815.12	1710.05
815.29	1767.40
815.46	1658.85
815.63	1765.35
815.81	1693.67
815.98	1660.90
816.15	1718.25
816.33	1742.82
816.50	1687.53
816.67	1728.49
816.84	1732.58
817.02	1626.09
817.19	1673.19
817.36	1765.35
817.53	1685.48
817.71	1652.71
817.88	1710.05
818.05	1738.73
818.22	1734.63
818.40	1800.16
818.57	1642.47
818.74	1748.97
818.91	1675.24
819.09	1728.49
819.26	1730.53
819.43	1662.95
819.60	1697.77
819.78	1691.62
819.95	1746.92
820.12	1665.00
820.29	1794.02
820.47	1705.96
820.64	1738.73
820.81	1621.99
820.98	1646.57
821.15	1607.66
821.33	1734.63
821.50	1632.23
821.67	1701.86
821.84	1693.67
822.02	1753.06
822.19	1703.91
822.36	1710.05
822.53	1648.61
822.70	1675.24
822.88	1648.61
823.05	1746.92
823.22	1654.76
823.39	1744.87
823.56	1677.29
823.74	1775.59
823.91	1632.23
824.08	1640.42
824.25	1671.14
824.42	1689.57
824.60	1669.09
824.77	1759.21
824.94	1689.57
825.11	1726.44
825.28	1683.43
825.45	1751.01
825.63	1777.64
825.80	1644.52
825.97	1697.77
826.14	1738.73
826.31	1587.18
826.48	1755.11
826.66	1697.77
826.83	1662.95
827.00	1775.59
827.17	1685.48
827.34	1748.97
827.51	1732.58
827.69	1726.44
827.86	1632.23
828.03	1671.14
828.20	1710.05
828.37	1656.81
828.54	1789.92
828.71	1685.48
828.89	1855.46
829.06	1785.83
829.23	1839.08
829.40	1673.19
829.57	1632.23
829.74	1703.91
829.91	1722.34
830.09	1615.85
830.26	1771.49
830.43	1783.78
830.60	1757.16
830.77	1720.29
830.94	1841.12
831.11	1714.15
831.28	1712.10
831.46	1794.02
831.63	1638.38
831.80	1787.88
831.97	1640.42
832.14	1669.09
832.31	1689.57
832.48	1689.57
832.65	1822.69
832.82	1800.16
832.99	1730.53
833.17	1650.66
833.34	1832.93
833.51	1681.38
833.68	1560.55
833.85	1777.64
834.02	1740.77
834.19	1662.95
834.36	1621.99
834.53	1673.19
834.70	1853.41
834.87	1828.84
835.04	1714.15
835.22	1693.67
835.39	1751.01
835.56	1593.32
835.73	1654.76
835.90	1771.49
836.07	1679.33
836.24	1765.35
836.41	1564.65
836.58	1624.04
836.75	1789.92
836.92	1708.01
837.09	1638.38
837.26	1703.91
837.43	1699.81
837.60	1654.76
837.77	1648.61
837.94	1744.87
838.12	1763.30
838.29	1689.57
838.46	1656.81
838.63	1636.33
838.80	1802.21
838.97	1742.82
839.14	1683.43
839.31	1775.59
839.48	1705.96
839.65	1617.90
839.82	1769.44
839.99	1771.49
840.16	1718.25
840.33	1662.95
840.50	1687.53
840.67	1681.38
840.84	1585.13
841.01	1701.86
841.18	1650.66
841.35	1683.43
841.52	1714.15
841.69	1818.60
841.86	1789.92
842.03	1789.92
842.20	1791.97
842.37	1677.29
842.54	1634.28
842.71	1748.97
842.88	1642.47
843.05	1808.36
843.22	1660.90
843.39	1742.82
843.56	1734.63
843.73	1679.33
843.90	1667.05
844.07	1734.63
844.24	1787.88
844.41	1689.57
844.58	1812.45
844.75	1726.44
844.92	1742.82
845.09	1722.34
845.26	1652.71
845.43	1689.57
845.60	1755.11
845.77	1796.07
845.94	1673.19
846.10	1830.88
846.27	1654.76
846.44	1613.80
846.61	1761.25
846.78	1818.60
846.95	1722.34
847.12	1652.71
847.29	1681.38
847.46	1640.42
847.63	1775.59
847.80	1683.43
847.97	1660.90
848.14	1794.02
848.31	1636.33
848.48	1658.85
848.65	1738.73
848.82	1638.38
848.98	1863.65
849.15	1689.57
849.32	1802.21
849.49	1796.07
849.66	1679.33
849.83	1691.62
850.00	1716.20
850.17	1755.11
850.34	1705.96
850.51	1611.75
850.68	1687.53
850.85	1826.79
851.01	1744.87
851.18	1787.88
851.35	1796.07
851.52	1667.05
851.69	1808.36
851.86	1677.29
852.03	1689.57
852.20	1818.60
852.37	1697.77
852.53	1656.81
852.70	1701.86
852.87	1724.39
853.04	1742.82
853.21	1650.66
853.38	1759.21
853.55	1736.68
853.72	1708.01
853.89	1626.09
854.05	1628.14
854.22	1722.34
854.39	1779.68
854.56	1773.54
854.73	1785.83
854.90	1613.80
855.07	1738.73
855.23	1697.77
855.40	1679.33
855.57	1675.24
855.74	1609.70
855.91	1906.66
856.08	1681.38
856.25	1605.61
856.41	1738.73
856.58	1708.01
856.75	1730.53
856.92	1689.57
857.09	1789.92
857.26	1587.18
857.42	1767.40
857.59	1738.73
857.76	1650.66
857.93	1708.01
858.10	1687.53
858.27	1658.85
858.43	1679.33
858.60	1621.99
858.77	1538.02
858.94	1683.43
859.11	1746.92
859.27	1705.96
859.44	1691.62
859.61	1753.06
859.78	1703.91
859.95	1679.33
860.12	1742.82
860.28	1822.69
860.45	1832.93
860.62	1710.05
860.79	1734.63
860.95	1689.57
861.12	1685.48
861.29	1632.23
861.46	1714.15
861.63	1734.63
861.79	1669.09
861.96	1685.48
862.13	1736.68
862.30	1742.82
862.47	1673.19
862.63	1695.72
862.80	1710.05
862.97	1871.84
863.14	1777.64
863.30	1673.19
863.47	1624.04
863.64	1742.82
863.81	1730.53
863.97	1718.25
864.14	1730.53
864.31	1683.43
864.48	1689.57
864.65	1699.81
864.81	1724.39
864.98	1705.96
865.15	1734.63
865.32	1740.77
865.48	1679.33
865.65	1814.50
865.82	1712.10
865.98	1660.90
866.15	1820.64
866.32	1691.62
866.49	1697.77
866.65	1773.54
866.82	1662.95
866.99	1751.01
867.16	1681.38
867.32	1669.09
867.49	1671.14
867.66	1689.57
867.83	1746.92
867.99	1658.85
868.16	1710.05
868.33	1677.29
868.49	1708.01
868.66	1669.09
868.83	1771.49
868.99	1720.29
869.16	1708.01
869.33	1775.59
869.50	1757.16
869.66	1759.21
869.83	1757.16
870.00	1652.71
870.16	1693.67
870.33	1705.96
870.50	1679.33
870.66	1732.58
870.83	1824.74
871.00	1746.92
871.17	1730.53
871.33	1712.10
871.50	1695.72
871.67	1718.25
871.83	1593.32
872.00	1791.97
872.17	1658.85
872.33	1814.50
872.50	1728.49
872.67	1587.18
872.83	1662.95
873.00	1705.96
873.17	1746.92
873.33	1806.31
873.50	1738.73
873.67	1662.95
873.83	1705.96
874.00	1755.11
874.16	1697.77
874.33	1744.87
874.50	1681.38
874.66	1849.32
874.83	1748.97
875.00	1726.44
875.16	1767.40
875.33	1720.29
875.50	1638.38
875.66	1660.90
875.83	1714.15
875.99	1710.05
876.16	1689.57
876.33	1648.61
876.49	1746.92
876.66	1765.35
876.83	1734.63
876.99	1617.90
877.16	1689.57
877.32	1642.47
877.49	1757.16
877.66	1761.25
877.82	1755.11
877.99	1742.82
878.15	1804.26
878.32	1730.53
878.49	1763.30
878.65	1722.34
878.82	1845.22
878.98	1771.49
879.15	1730.53
879.32	1808.36
879.48	1773.54
879.65	1665.00
879.81	1716.20
879.98	1744.87
880.15	1716.20
880.31	1689.57
880.48	1648.61
880.64	1822.69
880.81	1746.92
880.97	1822.69
881.14	1708.01
881.31	1724.39
881.47	1814.50
881.64	1724.39
881.80	1652.71
881.97	1767.40
882.13	1771.49
882.30	1683.43
882.47	1636.33
882.63	1705.96
882.80	1708.01
882.96	1732.58
883.13	1783.78
883.29	1755.11
883.46	1773.54
883.62	1796.07
883.79	1691.62
883.95	1734.63
884.12	1701.86
884.29	1691.62
884.45	1652.71
884.62	1736.68
884.78	1671.14
884.95	1761.25
885.11	1634.28
885.28	1748.97
885.44	1648.61
885.61	1732.58
885.77	1861.60
885.94	1775.59
886.10	1722.34
886.27	1771.49
886.43	1806.31
886.60	1779.68
886.76	1636.33
886.93	1673.19
887.09	1689.57
887.26	1638.38
887.42	1656.81
887.59	1804.26
887.75	1837.03
887.92	1734.63
888.08	1773.54
888.25	1832.93
888.41	1759.21
888.58	1744.87
888.74	1593.32
888.91	1617.90
>>>>>End Processed Spectral Data<<<<<
