SpectraSuite Data File
++++++++++++++++++++++++++++++++++++
Date: Mon Jun 06 13:22:37 CEST 2016
User: root
Dark Spectrum Present: No
Reference Spectrum Present: No
Number of Sampled Component Spectra: 1
Spectrometers: USB4C02835
Integration Time (usec): 100000 (USB4C02835)
Spectra Averaged: 1 (USB4C02835)
Boxcar Smoothing: 0 (USB4C02835)
Correct for Electrical Dark: No (USB4C02835)
Strobe/Lamp Enabled: No (USB4C02835)
Correct for Detector Non-linearity: No (USB4C02835)
Correct for Stray Light: No (USB4C02835)
Number of Pixels in Processed Spectrum: 3648
>>>>>Begin Processed Spectral Data<<<<<
177.47	1456.11
177.69	1456.11
177.91	1456.11
178.13	1476.59
178.36	1443.82
178.58	1568.74
178.80	1667.05
179.02	1665.00
179.24	1705.96
179.46	1722.34
179.68	1736.68
179.90	1665.00
180.13	1722.34
180.35	1632.23
180.57	1732.58
180.79	1714.15
181.01	1656.81
181.23	1744.87
181.45	1775.59
181.67	1683.43
181.90	1755.11
182.12	1689.57
182.34	1632.23
182.56	1806.31
182.78	1693.67
183.00	1679.33
183.22	1708.01
183.44	1689.57
183.66	1806.31
183.89	1732.58
184.11	1699.81
184.33	1771.49
184.55	1806.31
184.77	1679.33
184.99	1683.43
185.21	1742.82
185.43	1826.79
185.65	1628.14
185.87	1681.38
186.10	1824.74
186.32	1804.26
186.54	1798.12
186.76	1691.62
186.98	1738.73
187.20	1722.34
187.42	1771.49
187.64	1767.40
187.86	1685.48
188.08	1710.05
188.30	1656.81
188.52	1689.57
188.75	1796.07
188.97	1757.16
189.19	1656.81
189.41	1693.67
189.63	1716.20
189.85	1726.44
190.07	1665.00
190.29	1632.23
190.51	1634.28
190.73	1675.24
190.95	1728.49
191.17	1730.53
191.39	1656.81
191.61	1722.34
191.84	1689.57
192.06	1726.44
192.28	1699.81
192.50	1914.85
192.72	1742.82
192.94	1783.78
193.16	1771.49
193.38	1738.73
193.60	1607.66
193.82	1632.23
194.04	1765.35
194.26	1648.61
194.48	1673.19
194.70	1662.95
194.92	1654.76
195.14	1746.92
195.36	1621.99
195.58	1685.48
195.80	1753.06
196.02	1677.29
196.24	1693.67
196.46	1775.59
196.69	1636.33
196.91	1859.56
197.13	1685.48
197.35	1640.42
197.57	1814.50
197.79	1691.62
198.01	1730.53
198.23	1708.01
198.45	1691.62
198.67	1603.56
198.89	1677.29
199.11	1732.58
199.33	1677.29
199.55	1603.56
199.77	1726.44
199.99	1812.45
200.21	1685.48
200.43	1779.68
200.65	1568.74
200.87	1644.52
201.09	1740.77
201.31	1705.96
201.53	1785.83
201.75	1652.71
201.97	1691.62
202.19	1787.88
202.41	1710.05
202.63	1806.31
202.85	1699.81
203.07	1619.94
203.29	1689.57
203.51	1677.29
203.73	1736.68
203.95	1861.60
204.17	1691.62
204.39	1671.14
204.61	1687.53
204.83	1671.14
205.05	1753.06
205.27	1744.87
205.49	1828.84
205.71	1628.14
205.93	1662.95
206.15	1652.71
206.37	1736.68
206.59	1673.19
206.81	1650.66
207.03	1720.29
207.25	1693.67
207.47	1746.92
207.69	1710.05
207.91	1781.73
208.13	1834.98
208.34	1640.42
208.56	1638.38
208.78	1773.54
209.00	1705.96
209.22	1685.48
209.44	1656.81
209.66	1675.24
209.88	1722.34
210.10	1656.81
210.32	1656.81
210.54	1830.88
210.76	1740.77
210.98	1730.53
211.20	1591.27
211.42	1722.34
211.64	1773.54
211.86	1710.05
212.08	1734.63
212.30	1665.00
212.52	1751.01
212.74	1681.38
212.96	1705.96
213.17	1781.73
213.39	1724.39
213.61	1845.22
213.83	1699.81
214.05	1632.23
214.27	1708.01
214.49	1609.70
214.71	1685.48
214.93	1765.35
215.15	1675.24
215.37	1722.34
215.59	1665.00
215.81	1714.15
216.03	1748.97
216.24	1689.57
216.46	1660.90
216.68	1658.85
216.90	1771.49
217.12	1755.11
217.34	1751.01
217.56	1705.96
217.78	1738.73
218.00	1681.38
218.22	1675.24
218.44	1658.85
218.66	1751.01
218.87	1732.58
219.09	1626.09
219.31	1732.58
219.53	1667.05
219.75	1689.57
219.97	1669.09
220.19	1757.16
220.41	1658.85
220.63	1777.64
220.85	1667.05
221.06	1662.95
221.28	1710.05
221.50	1738.73
221.72	1718.25
221.94	1705.96
222.16	1691.62
222.38	1724.39
222.60	1695.72
222.82	1724.39
223.03	1722.34
223.25	1632.23
223.47	1828.84
223.69	1802.21
223.91	1744.87
224.13	1710.05
224.35	1683.43
224.57	1775.59
224.78	1748.97
225.00	1693.67
225.22	1675.24
225.44	1748.97
225.66	1765.35
225.88	1626.09
226.10	1845.22
226.32	1744.87
226.53	1679.33
226.75	1683.43
226.97	1712.10
227.19	1642.47
227.41	1701.86
227.63	1595.37
227.85	1605.61
228.06	1708.01
228.28	1687.53
228.50	1757.16
228.72	1648.61
228.94	1689.57
229.16	1693.67
229.37	1648.61
229.59	1636.33
229.81	1800.16
230.03	1708.01
230.25	1583.08
230.47	1634.28
230.69	1681.38
230.90	1742.82
231.12	1570.79
231.34	1646.57
231.56	1638.38
231.78	1667.05
232.00	1656.81
232.21	1726.44
232.43	1734.63
232.65	1568.74
232.87	1814.50
233.09	1652.71
233.30	1722.34
233.52	1738.73
233.74	1693.67
233.96	1693.67
234.18	1738.73
234.40	1716.20
234.61	1783.78
234.83	1712.10
235.05	1587.18
235.27	1828.84
235.49	1701.86
235.70	1689.57
235.92	1806.31
236.14	1753.06
236.36	1816.55
236.58	1626.09
236.79	1705.96
237.01	1638.38
237.23	1669.09
237.45	1800.16
237.67	1632.23
237.88	1669.09
238.10	1806.31
238.32	1679.33
238.54	1681.38
238.76	1724.39
238.97	1662.95
239.19	1708.01
239.41	1730.53
239.63	1748.97
239.85	1648.61
240.06	1693.67
240.28	1726.44
240.50	1697.77
240.72	1636.33
240.93	1777.64
241.15	1673.19
241.37	1578.98
241.59	1751.01
241.81	1726.44
242.02	1689.57
242.24	1759.21
242.46	1763.30
242.68	1650.66
242.89	1718.25
243.11	1765.35
243.33	1656.81
243.55	1716.20
243.76	1783.78
243.98	1708.01
244.20	1714.15
244.42	1656.81
244.64	1665.00
244.85	1660.90
245.07	1605.61
245.29	1710.05
245.51	1628.14
245.72	1697.77
245.94	1812.45
246.16	1753.06
246.38	1761.25
246.59	1632.23
246.81	1630.18
247.03	1650.66
247.24	1587.18
247.46	1693.67
247.68	1720.29
247.90	1703.91
248.11	1652.71
248.33	1785.83
248.55	1742.82
248.77	1685.48
248.98	1763.30
249.20	1796.07
249.42	1710.05
249.64	1728.49
249.85	1748.97
250.07	1640.42
250.29	1773.54
250.50	1712.10
250.72	1615.85
250.94	1712.10
251.16	1798.12
251.37	1683.43
251.59	1734.63
251.81	1732.58
252.02	1732.58
252.24	1693.67
252.46	1837.03
252.68	1714.15
252.89	1665.00
253.11	1574.89
253.33	1853.41
253.54	1796.07
253.76	1705.96
253.98	1624.04
254.20	1705.96
254.41	1638.38
254.63	1660.90
254.85	1624.04
255.06	1738.73
255.28	1740.77
255.50	1683.43
255.71	1665.00
255.93	1677.29
256.15	1660.90
256.36	1722.34
256.58	1673.19
256.80	1759.21
257.02	1691.62
257.23	1673.19
257.45	1650.66
257.67	1746.92
257.88	1634.28
258.10	1714.15
258.32	1714.15
258.53	1712.10
258.75	1841.12
258.97	1638.38
259.18	1771.49
259.40	1703.91
259.62	1832.93
259.83	1732.58
260.05	1769.44
260.27	1970.15
260.48	1746.92
260.70	1648.61
260.92	1630.18
261.13	1656.81
261.35	1796.07
261.57	1695.72
261.78	1605.61
262.00	1660.90
262.22	1722.34
262.43	1691.62
262.65	1701.86
262.86	1650.66
263.08	1804.26
263.30	1742.82
263.51	1607.66
263.73	1621.99
263.95	1812.45
264.16	1603.56
264.38	1722.34
264.60	1751.01
264.81	1777.64
265.03	1787.88
265.25	1665.00
265.46	1734.63
265.68	1701.86
265.89	1730.53
266.11	1648.61
266.33	1787.88
266.54	1791.97
266.76	1675.24
266.98	1767.40
267.19	1730.53
267.41	1751.01
267.62	1730.53
267.84	1636.33
268.06	1677.29
268.27	1669.09
268.49	1830.88
268.70	1759.21
268.92	1638.38
269.14	1611.75
269.35	1626.09
269.57	1689.57
269.79	1656.81
270.00	1656.81
270.22	1810.40
270.43	1665.00
270.65	1640.42
270.87	1681.38
271.08	1767.40
271.30	1763.30
271.51	1665.00
271.73	1765.35
271.95	1755.11
272.16	1648.61
272.38	1650.66
272.59	1701.86
272.81	1712.10
273.02	1787.88
273.24	1710.05
273.46	1736.68
273.67	1634.28
273.89	1693.67
274.10	1718.25
274.32	1781.73
274.54	1697.77
274.75	1738.73
274.97	1728.49
275.18	1765.35
275.40	1722.34
275.61	1732.58
275.83	1656.81
276.05	1621.99
276.26	1658.85
276.48	1798.12
276.69	1679.33
276.91	1716.20
277.12	1820.64
277.34	1732.58
277.55	1767.40
277.77	1673.19
277.99	1695.72
278.20	1621.99
278.42	1656.81
278.63	1660.90
278.85	1634.28
279.06	1566.70
279.28	1763.30
279.49	1738.73
279.71	1728.49
279.93	1685.48
280.14	1738.73
280.36	1648.61
280.57	1769.44
280.79	1757.16
281.00	1681.38
281.22	1669.09
281.43	1675.24
281.65	1583.08
281.86	1566.70
282.08	1716.20
282.29	1851.36
282.51	1593.32
282.73	1689.57
282.94	1630.18
283.16	1705.96
283.37	1894.37
283.59	1740.77
283.80	1697.77
284.02	1681.38
284.23	1644.52
284.45	1718.25
284.66	1636.33
284.88	1726.44
285.09	1712.10
285.31	1757.16
285.52	1783.78
285.74	1640.42
285.95	1722.34
286.17	1687.53
286.38	1714.15
286.60	1624.04
286.81	1753.06
287.03	1701.86
287.24	1714.15
287.46	1744.87
287.67	1675.24
287.89	1751.01
288.10	1642.47
288.32	1646.57
288.53	1800.16
288.75	1732.58
288.96	1734.63
289.18	1679.33
289.39	1697.77
289.61	1738.73
289.82	1853.41
290.04	1746.92
290.25	1636.33
290.47	1687.53
290.68	1685.48
290.90	1839.08
291.11	1613.80
291.33	1730.53
291.54	1609.70
291.76	1636.33
291.97	1705.96
292.18	1708.01
292.40	1650.66
292.61	1675.24
292.83	1800.16
293.04	1658.85
293.26	1728.49
293.47	1646.57
293.69	1685.48
293.90	1646.57
294.12	1689.57
294.33	1722.34
294.55	1658.85
294.76	1740.77
294.97	1738.73
295.19	1798.12
295.40	1683.43
295.62	1746.92
295.83	1720.29
296.05	1738.73
296.26	1730.53
296.48	1697.77
296.69	1660.90
296.90	1693.67
297.12	1695.72
297.33	1751.01
297.55	1718.25
297.76	1746.92
297.98	1669.09
298.19	1748.97
298.41	1691.62
298.62	1624.04
298.83	1808.36
299.05	1699.81
299.26	1642.47
299.48	1654.76
299.69	1753.06
299.90	1683.43
300.12	1615.85
300.33	1699.81
300.55	1601.51
300.76	1720.29
300.98	1654.76
301.19	1757.16
301.40	1638.38
301.62	1691.62
301.83	1703.91
302.05	1734.63
302.26	1726.44
302.47	1742.82
302.69	1658.85
302.90	1691.62
303.12	1583.08
303.33	1761.25
303.54	1742.82
303.76	1626.09
303.97	1728.49
304.19	1761.25
304.40	1609.70
304.61	1789.92
304.83	1826.79
305.04	1798.12
305.26	1724.39
305.47	1662.95
305.68	1681.38
305.90	1640.42
306.11	1751.01
306.33	1607.66
306.54	1621.99
306.75	1689.57
306.97	1644.52
307.18	1640.42
307.39	1609.70
307.61	1753.06
307.82	1712.10
308.04	1691.62
308.25	1654.76
308.46	1787.88
308.68	1691.62
308.89	1722.34
309.10	1712.10
309.32	1675.24
309.53	1685.48
309.74	1708.01
309.96	1718.25
310.17	1753.06
310.39	1718.25
310.60	1738.73
310.81	1656.81
311.03	1654.76
311.24	1734.63
311.45	1640.42
311.67	1826.79
311.88	1726.44
312.09	1648.61
312.31	1738.73
312.52	1697.77
312.73	1705.96
312.95	1599.46
313.16	1689.57
313.37	1769.44
313.59	1746.92
313.80	1726.44
314.01	1794.02
314.23	1705.96
314.44	1681.38
314.65	1644.52
314.87	1736.68
315.08	1621.99
315.29	1617.90
315.51	1642.47
315.72	1576.94
315.93	1824.74
316.15	1755.11
316.36	1701.86
316.57	1679.33
316.79	1785.83
317.00	1675.24
317.21	1730.53
317.43	1609.70
317.64	1718.25
317.85	1665.00
318.07	1646.57
318.28	1736.68
318.49	1834.98
318.70	1896.42
318.92	1751.01
319.13	1880.04
319.34	1857.51
319.56	1808.36
319.77	1791.97
319.98	1753.06
320.20	1814.50
320.41	1728.49
320.62	1689.57
320.83	1605.61
321.05	1837.03
321.26	1730.53
321.47	1675.24
321.69	1720.29
321.90	1660.90
322.11	1773.54
322.32	1679.33
322.54	1740.77
322.75	1621.99
322.96	1845.22
323.18	1644.52
323.39	1660.90
323.60	1646.57
323.81	1777.64
324.03	1693.67
324.24	1669.09
324.45	1675.24
324.66	1658.85
324.88	1716.20
325.09	1828.84
325.30	1779.68
325.52	1677.29
325.73	1724.39
325.94	1609.70
326.15	1615.85
326.37	1662.95
326.58	1628.14
326.79	1779.68
327.00	1611.75
327.22	1736.68
327.43	1673.19
327.64	1671.14
327.85	1712.10
328.07	1742.82
328.28	1779.68
328.49	1753.06
328.70	1630.18
328.92	1697.77
329.13	1679.33
329.34	1697.77
329.55	1789.92
329.76	1757.16
329.98	1658.85
330.19	1755.11
330.40	1767.40
330.61	1705.96
330.83	1718.25
331.04	1646.57
331.25	1718.25
331.46	1669.09
331.68	1665.00
331.89	1726.44
332.10	1669.09
332.31	1576.94
332.52	1693.67
332.74	1689.57
332.95	1628.14
333.16	1738.73
333.37	1763.30
333.58	1603.56
333.80	1753.06
334.01	1583.08
334.22	1636.33
334.43	1718.25
334.64	1689.57
334.86	1554.41
335.07	1648.61
335.28	1789.92
335.49	1552.36
335.70	1634.28
335.92	1761.25
336.13	1834.98
336.34	1650.66
336.55	1697.77
336.76	1626.09
336.98	1583.08
337.19	1687.53
337.40	1828.84
337.61	1845.22
337.82	1683.43
338.04	1728.49
338.25	1603.56
338.46	1751.01
338.67	1652.71
338.88	1648.61
339.09	1652.71
339.31	1699.81
339.52	1703.91
339.73	1662.95
339.94	1675.24
340.15	1691.62
340.36	1673.19
340.58	1757.16
340.79	1685.48
341.00	1714.15
341.21	1671.14
341.42	1796.07
341.63	1689.57
341.85	1753.06
342.06	1634.28
342.27	1695.72
342.48	1667.05
342.69	1619.94
342.90	1685.48
343.12	1744.87
343.33	1708.01
343.54	1714.15
343.75	1669.09
343.96	1708.01
344.17	1667.05
344.38	1720.29
344.60	1685.48
344.81	1689.57
345.02	1660.90
345.23	1794.02
345.44	1781.73
345.65	1755.11
345.86	1648.61
346.07	1681.38
346.29	1617.90
346.50	1753.06
346.71	1746.92
346.92	1783.78
347.13	1789.92
347.34	1703.91
347.55	1742.82
347.76	1726.44
347.98	1609.70
348.19	1669.09
348.40	1728.49
348.61	1677.29
348.82	1751.01
349.03	1697.77
349.24	1599.46
349.45	1800.16
349.66	1527.78
349.88	1660.90
350.09	1640.42
350.30	1796.07
350.51	1779.68
350.72	1683.43
350.93	1716.20
351.14	1687.53
351.35	1691.62
351.56	1648.61
351.77	1667.05
351.99	1681.38
352.20	1787.88
352.41	1744.87
352.62	1550.31
352.83	1660.90
353.04	1652.71
353.25	1646.57
353.46	1738.73
353.67	1761.25
353.88	1538.02
354.09	1673.19
354.30	1671.14
354.52	1699.81
354.73	1740.77
354.94	1617.90
355.15	1687.53
355.36	1751.01
355.57	1652.71
355.78	1728.49
355.99	1701.86
356.20	1685.48
356.41	1755.11
356.62	1710.05
356.83	1673.19
357.04	1761.25
357.25	1587.18
357.46	1710.05
357.68	1644.52
357.89	1613.80
358.10	1699.81
358.31	1693.67
358.52	1673.19
358.73	1624.04
358.94	1689.57
359.15	1677.29
359.36	1746.92
359.57	1755.11
359.78	1742.82
359.99	1771.49
360.20	1626.09
360.41	1695.72
360.62	1703.91
360.83	1697.77
361.04	1652.71
361.25	1726.44
361.46	1775.59
361.67	1726.44
361.88	1791.97
362.09	1765.35
362.30	1834.98
362.51	1697.77
362.72	1724.39
362.93	1783.78
363.14	1658.85
363.35	1691.62
363.56	1667.05
363.78	1755.11
363.99	1804.26
364.20	1718.25
364.41	1683.43
364.62	1734.63
364.83	1681.38
365.04	1732.58
365.25	1722.34
365.46	1853.41
365.67	1724.39
365.88	1705.96
366.09	1683.43
366.30	1708.01
366.51	1757.16
366.72	1599.46
366.93	1722.34
367.14	1705.96
367.35	1677.29
367.56	1689.57
367.77	1695.72
367.98	1718.25
368.18	1730.53
368.39	1763.30
368.60	1703.91
368.81	1726.44
369.02	1705.96
369.23	1648.61
369.44	1648.61
369.65	1738.73
369.86	1722.34
370.07	1738.73
370.28	1630.18
370.49	1812.45
370.70	1796.07
370.91	1716.20
371.12	1634.28
371.33	1740.77
371.54	1644.52
371.75	1796.07
371.96	1601.51
372.17	1689.57
372.38	1769.44
372.59	1705.96
372.80	1693.67
373.01	1675.24
373.22	1714.15
373.43	1697.77
373.64	1603.56
373.85	1751.01
374.06	1767.40
374.26	1736.68
374.47	1642.47
374.68	1791.97
374.89	1732.58
375.10	1703.91
375.31	1798.12
375.52	1705.96
375.73	1712.10
375.94	1624.04
376.15	1900.52
376.36	1632.23
376.57	1671.14
376.78	1660.90
376.99	1679.33
377.20	1708.01
377.40	1677.29
377.61	1834.98
377.82	1624.04
378.03	1787.88
378.24	1755.11
378.45	1714.15
378.66	1763.30
378.87	1619.94
379.08	1673.19
379.29	1730.53
379.50	1773.54
379.71	1652.71
379.91	1916.90
380.12	1683.43
380.33	1675.24
380.54	1683.43
380.75	1728.49
380.96	1755.11
381.17	1738.73
381.38	1779.68
381.59	1738.73
381.80	1708.01
382.00	1855.46
382.21	1695.72
382.42	1861.60
382.63	1787.88
382.84	1771.49
383.05	1789.92
383.26	1839.08
383.47	1699.81
383.68	1802.21
383.88	1689.57
384.09	1794.02
384.30	1826.79
384.51	1687.53
384.72	1581.03
384.93	1640.42
385.14	1794.02
385.35	1697.77
385.55	1656.81
385.76	1773.54
385.97	1669.09
386.18	1591.27
386.39	1617.90
386.60	1685.48
386.81	1744.87
387.02	1658.85
387.22	1658.85
387.43	1847.27
387.64	1771.49
387.85	1894.37
388.06	2217.95
388.27	4276.16
388.48	6956.95
388.68	8146.82
388.89	9480.05
389.10	9754.48
389.31	8603.52
389.52	7542.67
389.73	6637.47
389.93	6340.51
390.14	5775.27
390.35	5263.28
390.56	4487.10
390.77	3733.45
390.98	2955.22
391.18	2490.33
391.39	2047.97
391.60	1794.02
391.81	1804.26
392.02	1714.15
392.23	1853.41
392.43	1757.16
392.64	1808.36
392.85	1689.57
393.06	1800.16
393.27	1701.86
393.47	1644.52
393.68	1722.34
393.89	1665.00
394.10	1834.98
394.31	1646.57
394.52	1652.71
394.72	1656.81
394.93	1865.70
395.14	1640.42
395.35	1718.25
395.56	1587.18
395.76	1769.44
395.97	1755.11
396.18	1765.35
396.39	1818.60
396.60	1994.72
396.80	1843.17
397.01	1837.03
397.22	1753.06
397.43	1839.08
397.64	1748.97
397.84	1779.68
398.05	1804.26
398.26	1705.96
398.47	1800.16
398.67	1775.59
398.88	1722.34
399.09	1810.40
399.30	1650.66
399.51	1703.91
399.71	1656.81
399.92	1687.53
400.13	1730.53
400.34	1785.83
400.54	1673.19
400.75	1771.49
400.96	1697.77
401.17	1759.21
401.37	1732.58
401.58	1693.67
401.79	1681.38
402.00	1806.31
402.21	2011.11
402.41	1920.99
402.62	1982.43
402.83	1966.05
403.04	2004.96
403.24	2000.87
403.45	1841.12
403.66	1877.99
403.87	1933.28
404.07	1931.23
404.28	1898.47
404.49	1859.56
404.70	1787.88
404.90	1787.88
405.11	1689.57
405.32	1773.54
405.52	1648.61
405.73	1677.29
405.94	1683.43
406.15	1693.67
406.35	1763.30
406.56	1703.91
406.77	1722.34
406.98	1814.50
407.18	1656.81
407.39	1701.86
407.60	1669.09
407.80	1802.21
408.01	1714.15
408.22	1708.01
408.43	1636.33
408.63	1769.44
408.84	1787.88
409.05	1746.92
409.25	1667.05
409.46	1710.05
409.67	1656.81
409.88	1648.61
410.08	1820.64
410.29	1640.42
410.50	1724.39
410.70	1761.25
410.91	1650.66
411.12	1681.38
411.32	1671.14
411.53	1697.77
411.74	1767.40
411.95	1755.11
412.15	1781.73
412.36	1798.12
412.57	1818.60
412.77	1773.54
412.98	1732.58
413.19	1720.29
413.39	1714.15
413.60	1740.77
413.81	1724.39
414.01	1660.90
414.22	1708.01
414.43	1746.92
414.63	1638.38
414.84	1726.44
415.05	1665.00
415.25	1581.03
415.46	1755.11
415.67	1712.10
415.87	1689.57
416.08	1654.76
416.29	1669.09
416.49	1742.82
416.70	1669.09
416.91	1667.05
417.11	1681.38
417.32	1810.40
417.53	1759.21
417.73	1796.07
417.94	1654.76
418.15	1744.87
418.35	1757.16
418.56	1708.01
418.77	1802.21
418.97	1714.15
419.18	1681.38
419.38	1533.93
419.59	1628.14
419.80	1720.29
420.00	1652.71
420.21	1710.05
420.42	1748.97
420.62	1722.34
420.83	1710.05
421.04	1656.81
421.24	1683.43
421.45	1783.78
421.65	1763.30
421.86	1619.94
422.07	1742.82
422.27	1718.25
422.48	1599.46
422.69	1613.80
422.89	1736.68
423.10	1665.00
423.30	1681.38
423.51	1730.53
423.72	1640.42
423.92	1732.58
424.13	1665.00
424.33	1689.57
424.54	1820.64
424.75	1677.29
424.95	1744.87
425.16	1708.01
425.36	1718.25
425.57	1810.40
425.78	1722.34
425.98	1736.68
426.19	1695.72
426.39	1691.62
426.60	1738.73
426.81	1742.82
427.01	1751.01
427.22	1669.09
427.42	1615.85
427.63	1644.52
427.83	1746.92
428.04	1855.46
428.25	1791.97
428.45	1748.97
428.66	1736.68
428.86	1638.38
429.07	1648.61
429.28	1607.66
429.48	1667.05
429.69	1601.51
429.89	1720.29
430.10	1589.22
430.30	1710.05
430.51	1785.83
430.71	1662.95
430.92	1685.48
431.13	1732.58
431.33	1767.40
431.54	1718.25
431.74	1816.55
431.95	1855.46
432.15	1568.74
432.36	1736.68
432.56	1714.15
432.77	1791.97
432.98	1783.78
433.18	1771.49
433.39	1652.71
433.59	1738.73
433.80	1822.69
434.00	1841.12
434.21	1624.04
434.41	1638.38
434.62	1892.32
434.82	1642.47
435.03	1632.23
435.23	1683.43
435.44	1609.70
435.64	1738.73
435.85	1599.46
436.06	1759.21
436.26	1742.82
436.47	1669.09
436.67	1662.95
436.88	1746.92
437.08	1787.88
437.29	1794.02
437.49	1673.19
437.70	1781.73
437.90	1671.14
438.11	1867.75
438.31	1837.03
438.52	1880.04
438.72	1824.74
438.93	1916.90
439.13	1763.30
439.34	1853.41
439.54	1728.49
439.75	1794.02
439.95	1765.35
440.16	1812.45
440.36	1847.27
440.57	1787.88
440.77	1755.11
440.98	1712.10
441.18	1695.72
441.39	1691.62
441.59	1683.43
441.80	1712.10
442.00	1718.25
442.21	1804.26
442.41	1724.39
442.62	1724.39
442.82	1615.85
443.02	1734.63
443.23	1714.15
443.43	1730.53
443.64	1705.96
443.84	1644.52
444.05	1785.83
444.25	1730.53
444.46	1751.01
444.66	1728.49
444.87	1796.07
445.07	1636.33
445.28	1718.25
445.48	1794.02
445.69	1736.68
445.89	1832.93
446.09	1845.22
446.30	1933.28
446.50	2621.40
446.71	3575.75
446.91	4270.01
447.12	4716.47
447.32	4878.26
447.53	4327.36
447.73	3870.66
447.93	3573.71
448.14	3221.45
448.34	3209.17
448.55	2873.30
448.75	2822.10
448.96	2691.03
449.16	2553.82
449.36	2265.05
449.57	2060.26
449.77	1931.23
449.98	1705.96
450.18	1845.22
450.39	1814.50
450.59	1726.44
450.79	1726.44
451.00	1675.24
451.20	1748.97
451.41	1746.92
451.61	1744.87
451.81	1705.96
452.02	1740.77
452.22	1712.10
452.43	1619.94
452.63	1710.05
452.84	1667.05
453.04	1699.81
453.24	1755.11
453.45	1691.62
453.65	1746.92
453.86	1742.82
454.06	1726.44
454.26	1722.34
454.47	1613.80
454.67	1820.64
454.87	1736.68
455.08	1763.30
455.28	1837.03
455.49	1722.34
455.69	1683.43
455.89	1822.69
456.10	1753.06
456.30	1722.34
456.51	1748.97
456.71	1699.81
456.91	1757.16
457.12	1820.64
457.32	1742.82
457.52	1673.19
457.73	1724.39
457.93	1791.97
458.14	1699.81
458.34	1687.53
458.54	1712.10
458.75	1740.77
458.95	1738.73
459.15	1779.68
459.36	1699.81
459.56	1773.54
459.76	1964.00
459.97	1720.29
460.17	1769.44
460.37	1742.82
460.58	1667.05
460.78	1755.11
460.99	1703.91
461.19	1759.21
461.39	1759.21
461.60	1699.81
461.80	1787.88
462.00	1710.05
462.21	1732.58
462.41	1714.15
462.61	1742.82
462.82	1615.85
463.02	1710.05
463.22	1726.44
463.43	1810.40
463.63	1734.63
463.83	1832.93
464.04	1757.16
464.24	1695.72
464.44	1691.62
464.64	1705.96
464.85	1710.05
465.05	1785.83
465.25	1697.77
465.46	1726.44
465.66	1826.79
465.86	1744.87
466.07	1753.06
466.27	1703.91
466.47	1650.66
466.68	1560.55
466.88	1746.92
467.08	1832.93
467.29	1800.16
467.49	1742.82
467.69	1740.77
467.89	1832.93
468.10	1708.01
468.30	1679.33
468.50	1834.98
468.71	1806.31
468.91	1699.81
469.11	1853.41
469.31	1738.73
469.52	1652.71
469.72	1777.64
469.92	1783.78
470.13	1730.53
470.33	1681.38
470.53	1886.18
470.73	2113.50
470.94	2289.63
471.14	2281.44
471.34	2549.72
471.54	2318.30
471.75	2101.22
471.95	2088.93
472.15	2066.40
472.36	2099.17
472.56	2099.17
472.76	2033.63
472.96	1953.76
473.17	1974.24
473.37	1949.67
473.57	1767.40
473.77	1867.75
473.98	1726.44
474.18	1658.85
474.38	1886.18
474.58	1753.06
474.79	1699.81
474.99	1730.53
475.19	1791.97
475.39	1644.52
475.60	1746.92
475.80	1734.63
476.00	1761.25
476.20	1609.70
476.41	1781.73
476.61	1781.73
476.81	1712.10
477.01	1658.85
477.21	1771.49
477.42	1802.21
477.62	1669.09
477.82	1787.88
478.02	1746.92
478.23	1720.29
478.43	1660.90
478.63	1712.10
478.83	1703.91
479.03	1679.33
479.24	1802.21
479.44	1904.61
479.64	1726.44
479.84	1568.74
480.04	1658.85
480.25	1796.07
480.45	1652.71
480.65	1781.73
480.85	1894.37
481.06	1705.96
481.26	1761.25
481.46	1669.09
481.66	1744.87
481.86	1689.57
482.06	1779.68
482.27	1665.00
482.47	1708.01
482.67	1804.26
482.87	1687.53
483.07	1761.25
483.28	1613.80
483.48	1718.25
483.68	1675.24
483.88	1697.77
484.08	1615.85
484.29	1638.38
484.49	1665.00
484.69	1609.70
484.89	1806.31
485.09	1767.40
485.29	1820.64
485.50	1691.62
485.70	1685.48
485.90	1785.83
486.10	1652.71
486.30	1808.36
486.50	1810.40
486.71	1708.01
486.91	1857.51
487.11	1869.80
487.31	1650.66
487.51	1765.35
487.71	1646.57
487.91	1710.05
488.12	1650.66
488.32	1632.23
488.52	1720.29
488.72	1642.47
488.92	1714.15
489.12	1722.34
489.32	1802.21
489.53	1742.82
489.73	1605.61
489.93	1781.73
490.13	1718.25
490.33	1601.51
490.53	1798.12
490.73	1830.88
490.94	1683.43
491.14	1783.78
491.34	1834.98
491.54	2215.90
491.74	2512.86
491.94	2897.88
492.14	3100.62
492.34	3047.38
492.54	2684.89
492.75	2445.27
492.95	2441.18
493.15	2353.12
493.35	2222.05
493.55	2273.25
493.75	2136.03
493.95	2078.69
494.15	2027.49
494.35	1918.95
494.56	1894.37
494.76	1818.60
494.96	1777.64
495.16	1734.63
495.36	1728.49
495.56	1714.15
495.76	1695.72
495.96	1736.68
496.16	1699.81
496.36	1791.97
496.56	1650.66
496.77	1734.63
496.97	1720.29
497.17	1765.35
497.37	1726.44
497.57	1759.21
497.77	1697.77
497.97	1603.56
498.17	1658.85
498.37	1703.91
498.57	1730.53
498.77	1658.85
498.97	1830.88
499.17	1773.54
499.38	1695.72
499.58	1822.69
499.78	1767.40
499.98	1738.73
500.18	1751.01
500.38	1634.28
500.58	1966.05
500.78	2529.24
500.98	4564.92
501.18	5724.07
501.38	6809.50
501.58	7057.30
501.78	6698.91
501.98	5519.28
502.18	5029.81
502.38	4376.51
502.58	4202.43
502.78	3688.39
502.98	3661.77
503.18	3366.86
503.38	3223.50
503.59	2852.82
503.79	2688.98
503.99	2480.09
504.19	2320.35
504.39	2256.86
504.59	2103.26
504.79	2127.84
504.99	2054.11
505.19	1886.18
505.39	1896.42
505.59	1904.61
505.79	1916.90
505.99	1834.98
506.19	1828.84
506.39	1863.65
506.59	1771.49
506.79	1761.25
506.99	1861.60
507.19	1785.83
507.39	1746.92
507.59	1681.38
507.79	1681.38
507.99	1767.40
508.19	1789.92
508.39	1703.91
508.59	1781.73
508.79	1785.83
508.99	1769.44
509.19	1691.62
509.39	1728.49
509.59	1673.19
509.79	1673.19
509.99	1695.72
510.19	1718.25
510.39	1742.82
510.59	1746.92
510.79	1665.00
510.99	1681.38
511.19	1763.30
511.39	1810.40
511.59	1828.84
511.79	1851.36
511.99	1818.60
512.19	1783.78
512.38	1689.57
512.58	1712.10
512.78	1775.59
512.98	1851.36
513.18	1732.58
513.38	1626.09
513.58	1763.30
513.78	1644.52
513.98	1687.53
514.18	1714.15
514.38	1685.48
514.58	1718.25
514.78	1665.00
514.98	1632.23
515.18	1687.53
515.38	1644.52
515.58	1820.64
515.78	1691.62
515.98	1712.10
516.18	1738.73
516.38	1796.07
516.57	1701.86
516.77	1779.68
516.97	1855.46
517.17	1691.62
517.37	1609.70
517.57	1728.49
517.77	1730.53
517.97	1722.34
518.17	1748.97
518.37	1619.94
518.57	1705.96
518.77	1705.96
518.97	1761.25
519.16	1738.73
519.36	1814.50
519.56	1736.68
519.76	1675.24
519.96	1736.68
520.16	1804.26
520.36	1689.57
520.56	1771.49
520.76	1697.77
520.96	1578.98
521.16	1695.72
521.35	1753.06
521.55	1839.08
521.75	1804.26
521.95	1771.49
522.15	1740.77
522.35	1669.09
522.55	1724.39
522.75	1767.40
522.95	1669.09
523.14	1691.62
523.34	1746.92
523.54	1753.06
523.74	1728.49
523.94	1710.05
524.14	1632.23
524.34	1808.36
524.54	1777.64
524.73	1710.05
524.93	1791.97
525.13	1742.82
525.33	1634.28
525.53	1888.23
525.73	1746.92
525.93	1804.26
526.13	1681.38
526.32	1718.25
526.52	1779.68
526.72	1744.87
526.92	1691.62
527.12	1703.91
527.32	1624.04
527.52	1789.92
527.71	1742.82
527.91	1693.67
528.11	1683.43
528.31	1744.87
528.51	1595.37
528.71	1781.73
528.90	1705.96
529.10	1718.25
529.30	1787.88
529.50	1634.28
529.70	1650.66
529.90	1708.01
530.09	1775.59
530.29	1652.71
530.49	1667.05
530.69	1892.32
530.89	1769.44
531.09	1908.71
531.28	1742.82
531.48	1798.12
531.68	1751.01
531.88	1740.77
532.08	1769.44
532.28	1669.09
532.47	1763.30
532.67	1824.74
532.87	1726.44
533.07	1734.63
533.27	1767.40
533.46	1755.11
533.66	1699.81
533.86	1652.71
534.06	1779.68
534.26	1800.16
534.45	1683.43
534.65	1798.12
534.85	1753.06
535.05	1740.77
535.25	1847.27
535.44	1693.67
535.64	1751.01
535.84	1794.02
536.04	1726.44
536.24	1681.38
536.43	1705.96
536.63	1796.07
536.83	1675.24
537.03	1662.95
537.22	1667.05
537.42	1640.42
537.62	1800.16
537.82	1691.62
538.02	1789.92
538.21	1783.78
538.41	1882.08
538.61	1812.45
538.81	1691.62
539.00	1775.59
539.20	1693.67
539.40	1624.04
539.60	1726.44
539.79	1773.54
539.99	1710.05
540.19	1701.86
540.39	1710.05
540.58	1691.62
540.78	1789.92
540.98	1732.58
541.18	1843.17
541.37	1804.26
541.57	1689.57
541.77	1718.25
541.97	1695.72
542.16	1656.81
542.36	1740.77
542.56	1650.66
542.76	1822.69
542.95	1787.88
543.15	1757.16
543.35	1779.68
543.54	1644.52
543.74	1716.20
543.94	1845.22
544.14	1724.39
544.33	1740.77
544.53	1697.77
544.73	1687.53
544.93	1669.09
545.12	1734.63
545.32	1701.86
545.52	1669.09
545.71	1705.96
545.91	1650.66
546.11	1763.30
546.30	1697.77
546.50	1738.73
546.70	1785.83
546.90	1728.49
547.09	1642.47
547.29	1626.09
547.49	1800.16
547.68	1685.48
547.88	1734.63
548.08	1765.35
548.27	2207.71
548.47	1734.63
548.67	1697.77
548.87	1665.00
549.06	1697.77
549.26	1826.79
549.46	1726.44
549.65	1691.62
549.85	1777.64
550.05	1677.29
550.24	1632.23
550.44	1705.96
550.64	1783.78
550.83	1685.48
551.03	1832.93
551.23	1726.44
551.42	1837.03
551.62	1693.67
551.82	1710.05
552.01	1705.96
552.21	1859.56
552.41	1744.87
552.60	1767.40
552.80	1736.68
553.00	1738.73
553.19	1742.82
553.39	1804.26
553.59	1656.81
553.78	1777.64
553.98	1714.15
554.17	1695.72
554.37	1830.88
554.57	1841.12
554.76	1675.24
554.96	1732.58
555.16	1732.58
555.35	1730.53
555.55	1767.40
555.75	1626.09
555.94	1824.74
556.14	1652.71
556.33	1730.53
556.53	1742.82
556.73	1681.38
556.92	1703.91
557.12	1861.60
557.32	1822.69
557.51	1730.53
557.71	1783.78
557.90	1748.97
558.10	1787.88
558.30	1748.97
558.49	1693.67
558.69	1742.82
558.88	1767.40
559.08	1804.26
559.28	1720.29
559.47	1781.73
559.67	1779.68
559.86	1877.99
560.06	1671.14
560.26	1775.59
560.45	1800.16
560.65	1703.91
560.84	1742.82
561.04	1685.48
561.24	1748.97
561.43	1689.57
561.63	1855.46
561.82	1783.78
562.02	1789.92
562.22	1759.21
562.41	1638.38
562.61	1755.11
562.80	1658.85
563.00	1929.19
563.19	1759.21
563.39	1761.25
563.59	1769.44
563.78	1665.00
563.98	1642.47
564.17	1701.86
564.37	1648.61
564.56	1667.05
564.76	1759.21
564.96	1818.60
565.15	1708.01
565.35	1853.41
565.54	1675.24
565.74	1800.16
565.93	1712.10
566.13	1781.73
566.32	1775.59
566.52	1802.21
566.71	1748.97
566.91	1714.15
567.11	1738.73
567.30	1728.49
567.50	1777.64
567.69	1718.25
567.89	1748.97
568.08	1665.00
568.28	1734.63
568.47	1714.15
568.67	1720.29
568.86	1781.73
569.06	1742.82
569.25	1697.77
569.45	1708.01
569.64	1628.14
569.84	1669.09
570.04	1689.57
570.23	1755.11
570.43	1773.54
570.62	1738.73
570.82	1814.50
571.01	1673.19
571.21	1683.43
571.40	1695.72
571.60	1789.92
571.79	1701.86
571.99	1802.21
572.18	1675.24
572.38	1796.07
572.57	1746.92
572.77	1746.92
572.96	1814.50
573.16	1740.77
573.35	1697.77
573.55	1816.55
573.74	1828.84
573.94	1724.39
574.13	1724.39
574.33	1730.53
574.52	1763.30
574.71	1779.68
574.91	1812.45
575.10	1705.96
575.30	1693.67
575.49	1671.14
575.69	1794.02
575.88	1740.77
576.08	1734.63
576.27	1734.63
576.47	1763.30
576.66	1812.45
576.86	1816.55
577.05	1761.25
577.25	1728.49
577.44	1871.84
577.64	1820.64
577.83	1767.40
578.02	1785.83
578.22	1898.47
578.41	1849.32
578.61	1671.14
578.80	1710.05
579.00	1779.68
579.19	1761.25
579.39	1822.69
579.58	1771.49
579.77	1771.49
579.97	1812.45
580.16	1820.64
580.36	1853.41
580.55	1837.03
580.75	1800.16
580.94	1808.36
581.13	1886.18
581.33	1847.27
581.52	1728.49
581.72	1863.65
581.91	1822.69
582.11	1740.77
582.30	1779.68
582.49	1800.16
582.69	1814.50
582.88	1773.54
583.08	1746.92
583.27	1763.30
583.47	1771.49
583.66	1789.92
583.85	1665.00
584.05	1777.64
584.24	1734.63
584.44	1834.98
584.63	1781.73
584.82	1861.60
585.02	1787.88
585.21	1816.55
585.41	1730.53
585.60	1814.50
585.79	1923.04
585.99	1902.56
586.18	1871.84
586.37	2185.18
586.57	3409.87
586.76	9983.85
586.96	24239.76
587.15	34399.73
587.34	40392.09
587.54	41792.90
587.73	36748.75
587.93	26236.53
588.12	21530.30
588.31	18134.76
588.51	16377.61
588.70	15318.81
588.89	14079.79
589.09	12855.10
589.28	11048.79
589.47	9355.12
589.67	8023.94
589.86	6520.73
590.06	4896.69
590.25	3923.91
590.44	3114.96
590.64	2576.34
590.83	2258.91
591.02	2093.02
591.22	1951.71
591.41	1888.23
591.60	1812.45
591.80	1951.71
591.99	1775.59
592.18	1785.83
592.38	1796.07
592.57	1763.30
592.76	1800.16
592.96	1806.31
593.15	1783.78
593.34	1845.22
593.54	1769.44
593.73	1863.65
593.92	1736.68
594.12	1724.39
594.31	1730.53
594.50	1783.78
594.70	1734.63
594.89	1845.22
595.08	1681.38
595.28	1789.92
595.47	1957.86
595.66	1759.21
595.86	1615.85
596.05	1796.07
596.24	1755.11
596.43	1859.56
596.63	1767.40
596.82	1791.97
597.01	1783.78
597.21	1812.45
597.40	1794.02
597.59	1701.86
597.79	1748.97
597.98	1728.49
598.17	1742.82
598.36	1746.92
598.56	1771.49
598.75	1689.57
598.94	1734.63
599.14	1775.59
599.33	1740.77
599.52	1820.64
599.71	1746.92
599.91	1808.36
600.10	1759.21
600.29	1738.73
600.48	1818.60
600.68	1738.73
600.87	1744.87
601.06	1714.15
601.26	1742.82
601.45	1744.87
601.64	1771.49
601.83	1796.07
602.03	1716.20
602.22	1693.67
602.41	1837.03
602.60	1853.41
602.80	1785.83
602.99	1662.95
603.18	1689.57
603.37	1693.67
603.57	1628.14
603.76	1796.07
603.95	1837.03
604.14	1658.85
604.34	1681.38
604.53	1730.53
604.72	1791.97
604.91	1716.20
605.10	1734.63
605.30	1738.73
605.49	1877.99
605.68	1712.10
605.87	1748.97
606.07	1769.44
606.26	1791.97
606.45	1746.92
606.64	1806.31
606.84	1798.12
607.03	1716.20
607.22	1701.86
607.41	1701.86
607.60	1755.11
607.80	1865.70
607.99	1714.15
608.18	1734.63
608.37	1701.86
608.56	1673.19
608.76	1763.30
608.95	1806.31
609.14	1718.25
609.33	1757.16
609.52	1757.16
609.72	1726.44
609.91	1765.35
610.10	1746.92
610.29	1814.50
610.48	1794.02
610.68	1787.88
610.87	1757.16
611.06	1769.44
611.25	1718.25
611.44	1900.52
611.63	1751.01
611.83	1902.56
612.02	1669.09
612.21	1751.01
612.40	1611.75
612.59	1607.66
612.79	1681.38
612.98	1826.79
613.17	1824.74
613.36	1716.20
613.55	1753.06
613.74	1642.47
613.93	1650.66
614.13	1757.16
614.32	1687.53
614.51	1814.50
614.70	1726.44
614.89	1638.38
615.08	1761.25
615.28	2076.64
615.47	1673.19
615.66	1669.09
615.85	1714.15
616.04	1822.69
616.23	1705.96
616.42	1681.38
616.62	1751.01
616.81	1777.64
617.00	1744.87
617.19	1695.72
617.38	1710.05
617.57	1710.05
617.76	1757.16
617.95	1746.92
618.15	1757.16
618.34	1806.31
618.53	1667.05
618.72	1708.01
618.91	1841.12
619.10	1837.03
619.29	1662.95
619.48	1644.52
619.68	1652.71
619.87	1722.34
620.06	1640.42
620.25	1746.92
620.44	1673.19
620.63	1669.09
620.82	1677.29
621.01	1712.10
621.20	1791.97
621.39	1742.82
621.59	1730.53
621.78	1695.72
621.97	1701.86
622.16	1755.11
622.35	1808.36
622.54	1787.88
622.73	1730.53
622.92	1607.66
623.11	1783.78
623.30	1718.25
623.49	1722.34
623.68	1714.15
623.88	1837.03
624.07	1648.61
624.26	1755.11
624.45	1777.64
624.64	1673.19
624.83	1658.85
625.02	1703.91
625.21	1691.62
625.40	1796.07
625.59	1718.25
625.78	1662.95
625.97	1724.39
626.16	1728.49
626.35	1824.74
626.54	1751.01
626.74	1818.60
626.93	1689.57
627.12	1691.62
627.31	1740.77
627.50	1736.68
627.69	1712.10
627.88	1769.44
628.07	1742.82
628.26	1605.61
628.45	1624.04
628.64	1708.01
628.83	1705.96
629.02	1748.97
629.21	1753.06
629.40	1777.64
629.59	1642.47
629.78	1687.53
629.97	1771.49
630.16	1722.34
630.35	1722.34
630.54	1705.96
630.73	1716.20
630.92	1740.77
631.11	1656.81
631.30	1701.86
631.49	1691.62
631.68	1689.57
631.87	1775.59
632.06	1644.52
632.25	1837.03
632.44	1716.20
632.63	1652.71
632.82	1734.63
633.01	1646.57
633.20	1677.29
633.39	1609.70
633.58	1648.61
633.77	1681.38
633.96	1796.07
634.15	1767.40
634.34	1751.01
634.53	1687.53
634.72	1685.48
634.91	1660.90
635.10	1621.99
635.29	1789.92
635.48	1681.38
635.67	1748.97
635.86	1699.81
636.05	1841.12
636.24	1681.38
636.43	1728.49
636.62	1751.01
636.81	1613.80
637.00	1783.78
637.19	1724.39
637.38	1751.01
637.57	1642.47
637.76	1730.53
637.95	1765.35
638.14	1681.38
638.33	1755.11
638.52	1777.64
638.71	1662.95
638.89	1648.61
639.08	1761.25
639.27	1705.96
639.46	1697.77
639.65	1767.40
639.84	1714.15
640.03	1787.88
640.22	1730.53
640.41	1794.02
640.60	1638.38
640.79	1689.57
640.98	1669.09
641.17	1757.16
641.36	1683.43
641.55	1728.49
641.74	1656.81
641.92	1656.81
642.11	1644.52
642.30	1685.48
642.49	1763.30
642.68	1681.38
642.87	1677.29
643.06	1740.77
643.25	1615.85
643.44	1677.29
643.63	1724.39
643.82	1722.34
644.00	1673.19
644.19	1710.05
644.38	1632.23
644.57	1720.29
644.76	1769.44
644.95	1755.11
645.14	1621.99
645.33	1738.73
645.52	1636.33
645.71	1697.77
645.89	1701.86
646.08	1730.53
646.27	1662.95
646.46	1763.30
646.65	1615.85
646.84	1722.34
647.03	1783.78
647.22	1794.02
647.40	1726.44
647.59	1726.44
647.78	1654.76
647.97	1644.52
648.16	1669.09
648.35	1693.67
648.54	1748.97
648.73	1675.24
648.91	1794.02
649.10	1716.20
649.29	1662.95
649.48	1705.96
649.67	1705.96
649.86	1701.86
650.05	1683.43
650.23	1718.25
650.42	1699.81
650.61	1755.11
650.80	1724.39
650.99	1783.78
651.18	1675.24
651.36	1757.16
651.55	1671.14
651.74	1753.06
651.93	1640.42
652.12	1607.66
652.31	1689.57
652.49	1755.11
652.68	1753.06
652.87	1759.21
653.06	1673.19
653.25	1748.97
653.44	1742.82
653.62	1783.78
653.81	1705.96
654.00	1730.53
654.19	1755.11
654.38	1841.12
654.56	1753.06
654.75	1644.52
654.94	1722.34
655.13	1748.97
655.32	1679.33
655.51	1798.12
655.69	1646.57
655.88	1746.92
656.07	1679.33
656.26	1796.07
656.45	1656.81
656.63	1701.86
656.82	1697.77
657.01	1701.86
657.20	1630.18
657.38	1755.11
657.57	1753.06
657.76	1660.90
657.95	1757.16
658.14	1679.33
658.32	1730.53
658.51	1705.96
658.70	1689.57
658.89	1775.59
659.08	1755.11
659.26	1742.82
659.45	1640.42
659.64	1812.45
659.83	1630.18
660.01	1779.68
660.20	1673.19
660.39	1742.82
660.58	1570.79
660.76	1767.40
660.95	1648.61
661.14	1751.01
661.33	1558.50
661.51	1691.62
661.70	1720.29
661.89	1744.87
662.08	1804.26
662.26	1638.38
662.45	1679.33
662.64	1789.92
662.83	1718.25
663.01	1648.61
663.20	1591.27
663.39	1787.88
663.58	1724.39
663.76	1714.15
663.95	1798.12
664.14	1724.39
664.32	1673.19
664.51	1638.38
664.70	1601.51
664.89	1773.54
665.07	1660.90
665.26	1771.49
665.45	1656.81
665.64	1804.26
665.82	1769.44
666.01	1738.73
666.20	1714.15
666.38	1861.60
666.57	1724.39
666.76	2213.85
666.95	4599.74
667.13	10057.57
667.32	15079.19
667.51	17577.72
667.69	18976.48
667.88	17471.22
668.07	12349.25
668.25	9676.65
668.44	8087.43
668.63	7305.10
668.81	6815.64
669.00	6336.42
669.19	5576.62
669.38	5148.59
669.56	4454.33
669.75	3999.68
669.94	3438.54
670.12	2789.33
670.31	2506.71
670.50	2314.20
670.68	2113.50
670.87	1961.95
671.06	1845.22
671.24	1812.45
671.43	1798.12
671.62	1785.83
671.80	1724.39
671.99	1751.01
672.18	1767.40
672.36	1777.64
672.55	1767.40
672.74	1697.77
672.92	1701.86
673.11	1765.35
673.29	1681.38
673.48	1714.15
673.67	1693.67
673.85	1732.58
674.04	1728.49
674.23	1740.77
674.41	1804.26
674.60	1615.85
674.79	1654.76
674.97	1650.66
675.16	1820.64
675.34	1755.11
675.53	1660.90
675.72	1681.38
675.90	1726.44
676.09	1630.18
676.28	1755.11
676.46	1626.09
676.65	1744.87
676.83	1677.29
677.02	1687.53
677.21	1667.05
677.39	1708.01
677.58	1662.95
677.77	1660.90
677.95	1628.14
678.14	1654.76
678.32	1730.53
678.51	1628.14
678.70	1820.64
678.88	1648.61
679.07	1775.59
679.25	1691.62
679.44	1652.71
679.63	1646.57
679.81	1726.44
680.00	1730.53
680.18	1703.91
680.37	1824.74
680.55	1607.66
680.74	1642.47
680.93	1558.50
681.11	1753.06
681.30	1650.66
681.48	1806.31
681.67	1699.81
681.85	1640.42
682.04	1650.66
682.23	1808.36
682.41	1804.26
682.60	1675.24
682.78	1689.57
682.97	1624.04
683.15	1695.72
683.34	1724.39
683.53	1677.29
683.71	1628.14
683.90	1767.40
684.08	1769.44
684.27	1689.57
684.45	1660.90
684.64	1685.48
684.82	1683.43
685.01	1767.40
685.19	1644.52
685.38	1796.07
685.57	1621.99
685.75	1642.47
685.94	1615.85
686.12	1599.46
686.31	1644.52
686.49	1800.16
686.68	1601.51
686.86	1746.92
687.05	1705.96
687.23	1834.98
687.42	1697.77
687.60	1562.60
687.79	1781.73
687.97	1738.73
688.16	1732.58
688.34	1708.01
688.53	1550.31
688.71	1673.19
688.90	1746.92
689.08	1724.39
689.27	1583.08
689.45	1708.01
689.64	1685.48
689.82	1751.01
690.01	1708.01
690.19	1763.30
690.38	1763.30
690.56	1845.22
690.75	1665.00
690.93	1693.67
691.12	1652.71
691.30	1724.39
691.49	1640.42
691.67	1697.77
691.86	1789.92
692.04	1656.81
692.23	1611.75
692.41	1671.14
692.60	1845.22
692.78	1761.25
692.97	1703.91
693.15	1781.73
693.34	1867.75
693.52	1789.92
693.71	1732.58
693.89	1679.33
694.08	1593.32
694.26	1701.86
694.44	1728.49
694.63	1691.62
694.81	1658.85
695.00	1689.57
695.18	1779.68
695.37	1816.55
695.55	1695.72
695.74	1621.99
695.92	1644.52
696.10	1773.54
696.29	1617.90
696.47	1660.90
696.66	1689.57
696.84	1685.48
697.03	1789.92
697.21	1794.02
697.40	2236.38
697.58	1755.11
697.76	1667.05
697.95	1675.24
698.13	1640.42
698.32	1630.18
698.50	1726.44
698.68	1771.49
698.87	1763.30
699.05	1779.68
699.24	1687.53
699.42	1617.90
699.61	1628.14
699.79	1691.62
699.97	1789.92
700.16	1640.42
700.34	1642.47
700.53	1681.38
700.71	1759.21
700.89	1746.92
701.08	1683.43
701.26	1796.07
701.45	1990.63
701.63	1699.81
701.81	1693.67
702.00	1677.29
702.18	1673.19
702.37	1658.85
702.55	1738.73
702.73	1665.00
702.92	1658.85
703.10	1679.33
703.28	1693.67
703.47	1714.15
703.65	1791.97
703.84	1732.58
704.02	1683.43
704.20	1826.79
704.39	1660.90
704.57	1679.33
704.75	1794.02
704.94	1734.63
705.12	1667.05
705.30	1773.54
705.49	2250.72
705.67	4362.17
705.86	9492.34
706.04	12545.86
706.22	14298.92
706.41	15480.60
706.59	13811.50
706.77	9719.66
706.96	7301.01
707.14	6567.84
707.32	5930.92
707.51	5650.35
707.69	4857.78
707.87	4212.67
708.06	3497.93
708.24	2912.21
708.42	2449.37
708.61	2273.25
708.79	1961.95
708.97	1869.80
709.16	1875.94
709.34	1773.54
709.52	1755.11
709.71	1724.39
709.89	1789.92
710.07	1703.91
710.26	1736.68
710.44	1665.00
710.62	1800.16
710.80	1736.68
710.99	1716.20
711.17	1691.62
711.35	1699.81
711.54	1603.56
711.72	1824.74
711.90	1744.87
712.09	1763.30
712.27	1660.90
712.45	1677.29
712.63	1724.39
712.82	1689.57
713.00	1708.01
713.18	1701.86
713.37	1693.67
713.55	1753.06
713.73	1746.92
713.91	1728.49
714.10	1757.16
714.28	1693.67
714.46	1746.92
714.65	1728.49
714.83	1697.77
715.01	1779.68
715.19	1699.81
715.38	1697.77
715.56	1759.21
715.74	1714.15
715.92	1687.53
716.11	1804.26
716.29	1630.18
716.47	1724.39
716.65	1726.44
716.84	1632.23
717.02	1781.73
717.20	1611.75
717.38	1708.01
717.57	1734.63
717.75	1738.73
717.93	1667.05
718.11	1708.01
718.30	1619.94
718.48	1761.25
718.66	1765.35
718.84	1753.06
719.03	1675.24
719.21	1689.57
719.39	1834.98
719.57	1755.11
719.75	1777.64
719.94	1673.19
720.12	1705.96
720.30	1693.67
720.48	1742.82
720.67	1644.52
720.85	1662.95
721.03	1677.29
721.21	1675.24
721.39	1791.97
721.58	1636.33
721.76	1720.29
721.94	1732.58
722.12	1740.77
722.30	1748.97
722.49	1742.82
722.67	1701.86
722.85	1718.25
723.03	1687.53
723.21	1646.57
723.40	1763.30
723.58	1716.20
723.76	1673.19
723.94	1769.44
724.12	1751.01
724.30	1748.97
724.49	1667.05
724.67	1677.29
724.85	1769.44
725.03	1730.53
725.21	1769.44
725.40	1697.77
725.58	1660.90
725.76	1763.30
725.94	1726.44
726.12	1718.25
726.30	1728.49
726.49	1669.09
726.67	1689.57
726.85	1705.96
727.03	1812.45
727.21	2129.89
727.39	2871.25
727.57	3778.50
727.76	4169.66
727.94	4458.43
728.12	4380.61
728.30	3663.82
728.48	2877.40
728.66	2658.26
728.84	2559.96
729.03	2269.15
729.21	2275.29
729.39	1978.34
729.57	1771.49
729.75	1765.35
729.93	1888.23
730.11	1783.78
730.30	1691.62
730.48	1699.81
730.66	1824.74
730.84	1779.68
731.02	1755.11
731.20	1609.70
731.38	1730.53
731.56	1576.94
731.74	1634.28
731.93	1675.24
732.11	1757.16
732.29	1615.85
732.47	1763.30
732.65	1697.77
732.83	1806.31
733.01	1771.49
733.19	1603.56
733.37	1718.25
733.56	1740.77
733.74	1699.81
733.92	1681.38
734.10	1660.90
734.28	1654.76
734.46	1601.51
734.64	1667.05
734.82	1662.95
735.00	1714.15
735.18	1738.73
735.36	1708.01
735.54	1730.53
735.73	1673.19
735.91	1755.11
736.09	1767.40
736.27	1746.92
736.45	1767.40
736.63	1615.85
736.81	1615.85
736.99	1738.73
737.17	1810.40
737.35	1691.62
737.53	1716.20
737.71	1667.05
737.89	1796.07
738.07	1648.61
738.25	1708.01
738.43	1587.18
738.61	1722.34
738.80	1654.76
738.98	1648.61
739.16	1695.72
739.34	1640.42
739.52	1804.26
739.70	1673.19
739.88	1685.48
740.06	1837.03
740.24	1550.31
740.42	1677.29
740.60	1628.14
740.78	1619.94
740.96	1605.61
741.14	1681.38
741.32	1714.15
741.50	1650.66
741.68	1820.64
741.86	1757.16
742.04	1656.81
742.22	1675.24
742.40	1669.09
742.58	1660.90
742.76	1681.38
742.94	1738.73
743.12	1648.61
743.30	1712.10
743.48	1705.96
743.66	1683.43
743.84	1781.73
744.02	1609.70
744.20	1611.75
744.38	1644.52
744.56	1646.57
744.74	1802.21
744.92	1753.06
745.10	1734.63
745.28	1757.16
745.46	1785.83
745.64	1632.23
745.82	1681.38
746.00	1763.30
746.18	1720.29
746.36	1695.72
746.54	1701.86
746.72	1662.95
746.90	1642.47
747.08	1689.57
747.26	1728.49
747.44	1718.25
747.62	1761.25
747.80	1681.38
747.98	1753.06
748.15	1683.43
748.33	1748.97
748.51	1730.53
748.69	1761.25
748.87	1626.09
749.05	1654.76
749.23	1728.49
749.41	1673.19
749.59	1660.90
749.77	1781.73
749.95	1691.62
750.13	1730.53
750.31	1753.06
750.49	1759.21
750.67	1714.15
750.85	1771.49
751.03	1673.19
751.20	1736.68
751.38	1677.29
751.56	1673.19
751.74	1720.29
751.92	1673.19
752.10	1652.71
752.28	1746.92
752.46	1726.44
752.64	1675.24
752.82	1687.53
753.00	1761.25
753.18	1751.01
753.35	1576.94
753.53	1689.57
753.71	1673.19
753.89	1714.15
754.07	1681.38
754.25	1714.15
754.43	1705.96
754.61	1675.24
754.79	1812.45
754.97	1675.24
755.14	1734.63
755.32	1621.99
755.50	1673.19
755.68	1714.15
755.86	1581.03
756.04	1636.33
756.22	1617.90
756.40	1693.67
756.57	1781.73
756.75	1685.48
756.93	1689.57
757.11	1769.44
757.29	1583.08
757.47	1611.75
757.65	1636.33
757.82	1642.47
758.00	1673.19
758.18	1626.09
758.36	1652.71
758.54	1724.39
758.72	1574.89
758.90	1699.81
759.07	1685.48
759.25	1636.33
759.43	1710.05
759.61	1621.99
759.79	2242.53
759.97	1730.53
760.15	1687.53
760.32	1609.70
760.50	1708.01
760.68	1787.88
760.86	1650.66
761.04	1806.31
761.22	1730.53
761.39	1695.72
761.57	1771.49
761.75	1712.10
761.93	1751.01
762.11	1693.67
762.28	1738.73
762.46	1689.57
762.64	1712.10
762.82	1591.27
763.00	1742.82
763.18	1724.39
763.35	1587.18
763.53	1744.87
763.71	1716.20
763.89	1695.72
764.07	1720.29
764.24	1712.10
764.42	1779.68
764.60	1597.42
764.78	1677.29
764.96	1722.34
765.13	1738.73
765.31	1662.95
765.49	1722.34
765.67	1648.61
765.84	1679.33
766.02	1689.57
766.20	1523.69
766.38	1718.25
766.56	1695.72
766.73	1730.53
766.91	1615.85
767.09	1679.33
767.27	1748.97
767.44	1689.57
767.62	1763.30
767.80	1701.86
767.98	1679.33
768.15	1673.19
768.33	1669.09
768.51	1753.06
768.69	1720.29
768.87	1728.49
769.04	1718.25
769.22	1773.54
769.40	1769.44
769.58	1832.93
769.75	1689.57
769.93	1812.45
770.11	1626.09
770.28	1638.38
770.46	1746.92
770.64	1757.16
770.82	1648.61
770.99	1636.33
771.17	1812.45
771.35	1650.66
771.53	1658.85
771.70	1738.73
771.88	1783.78
772.06	1705.96
772.23	1736.68
772.41	1753.06
772.59	1712.10
772.77	1615.85
772.94	1695.72
773.12	1650.66
773.30	1685.48
773.47	1697.77
773.65	1658.85
773.83	1806.31
774.01	1697.77
774.18	1675.24
774.36	1701.86
774.54	1581.03
774.71	1673.19
774.89	1554.41
775.07	1615.85
775.24	1660.90
775.42	1701.86
775.60	1839.08
775.78	1658.85
775.95	1714.15
776.13	1634.28
776.31	1605.61
776.48	1685.48
776.66	1765.35
776.84	1626.09
777.01	1671.14
777.19	1601.51
777.37	1638.38
777.54	1771.49
777.72	1763.30
777.90	1728.49
778.07	1650.66
778.25	1798.12
778.43	1757.16
778.60	1638.38
778.78	1697.77
778.96	1761.25
779.13	1621.99
779.31	1744.87
779.49	1705.96
779.66	1671.14
779.84	1720.29
780.01	1818.60
780.19	1753.06
780.37	1662.95
780.54	1771.49
780.72	1644.52
780.90	1677.29
781.07	1673.19
781.25	1724.39
781.43	1746.92
781.60	1683.43
781.78	1755.11
781.95	1724.39
782.13	1716.20
782.31	1732.58
782.48	1554.41
782.66	1761.25
782.83	1783.78
783.01	1658.85
783.19	1724.39
783.36	1701.86
783.54	1624.04
783.72	1736.68
783.89	1648.61
784.07	1738.73
784.24	1734.63
784.42	1785.83
784.60	1660.90
784.77	1740.77
784.95	1615.85
785.12	1642.47
785.30	1722.34
785.47	1646.57
785.65	1652.71
785.83	1660.90
786.00	1652.71
786.18	1644.52
786.35	1652.71
786.53	1603.56
786.71	1751.01
786.88	1748.97
787.06	1761.25
787.23	1697.77
787.41	1650.66
787.58	1675.24
787.76	1679.33
787.94	1681.38
788.11	1703.91
788.29	1556.46
788.46	1603.56
788.64	1613.80
788.81	1632.23
788.99	1648.61
789.16	1683.43
789.34	1644.52
789.52	1656.81
789.69	1646.57
789.87	1597.42
790.04	1654.76
790.22	1681.38
790.39	1763.30
790.57	1599.46
790.74	1648.61
790.92	1718.25
791.09	1640.42
791.27	1755.11
791.44	1734.63
791.62	1744.87
791.79	1771.49
791.97	1716.20
792.15	1863.65
792.32	1812.45
792.50	1730.53
792.67	1773.54
792.85	1726.44
793.02	1617.90
793.20	1648.61
793.37	1665.00
793.55	1673.19
793.72	1679.33
793.90	1726.44
794.07	1644.52
794.25	1660.90
794.42	1671.14
794.60	1683.43
794.77	1681.38
794.95	1687.53
795.12	1779.68
795.30	1712.10
795.47	1619.94
795.65	1925.09
795.82	1722.34
796.00	1699.81
796.17	1681.38
796.34	1748.97
796.52	1732.58
796.69	1787.88
796.87	1744.87
797.04	1722.34
797.22	1697.77
797.39	1738.73
797.57	1677.29
797.74	1714.15
797.92	1751.01
798.09	1619.94
798.27	1845.22
798.44	1740.77
798.62	1605.61
798.79	1751.01
798.96	1712.10
799.14	1685.48
799.31	1839.08
799.49	1732.58
799.66	1658.85
799.84	1669.09
800.01	1597.42
800.19	1693.67
800.36	1615.85
800.53	1744.87
800.71	1705.96
800.88	1791.97
801.06	1642.47
801.23	1691.62
801.41	1689.57
801.58	1628.14
801.75	1718.25
801.93	1757.16
802.10	1714.15
802.28	1693.67
802.45	1689.57
802.63	1826.79
802.80	1796.07
802.97	1677.29
803.15	1701.86
803.32	1767.40
803.50	1609.70
803.67	1574.89
803.84	1677.29
804.02	1675.24
804.19	1632.23
804.37	1583.08
804.54	1699.81
804.71	1658.85
804.89	1658.85
805.06	1669.09
805.24	1603.56
805.41	1615.85
805.58	1662.95
805.76	1798.12
805.93	1673.19
806.10	1779.68
806.28	1738.73
806.45	1714.15
806.63	1714.15
806.80	1769.44
806.97	1701.86
807.15	1675.24
807.32	1650.66
807.49	1761.25
807.67	1646.57
807.84	1705.96
808.01	1665.00
808.19	1845.22
808.36	1738.73
808.54	1652.71
808.71	1560.55
808.88	1644.52
809.06	1753.06
809.23	1648.61
809.40	1630.18
809.58	1810.40
809.75	1667.05
809.92	1611.75
810.10	1828.84
810.27	1628.14
810.44	1718.25
810.62	1724.39
810.79	1695.72
810.96	1705.96
811.14	1665.00
811.31	1744.87
811.48	1705.96
811.66	1679.33
811.83	1726.44
812.00	1740.77
812.18	1794.02
812.35	1820.64
812.52	1691.62
812.69	1628.14
812.87	1705.96
813.04	1656.81
813.21	1691.62
813.39	1642.47
813.56	1642.47
813.73	1759.21
813.91	1570.79
814.08	1763.30
814.25	1761.25
814.42	1646.57
814.60	1701.86
814.77	1724.39
814.94	1714.15
815.12	1720.29
815.29	1796.07
815.46	1636.33
815.63	1751.01
815.81	1617.90
815.98	1578.98
816.15	1708.01
816.33	1685.48
816.50	1746.92
816.67	1630.18
816.84	1726.44
817.02	1673.19
817.19	1587.18
817.36	1673.19
817.53	1697.77
817.71	1656.81
817.88	1730.53
818.05	1671.14
818.22	1648.61
818.40	1837.03
818.57	1638.38
818.74	1720.29
818.91	1667.05
819.09	1693.67
819.26	1720.29
819.43	1662.95
819.60	1669.09
819.78	1742.82
819.95	1732.58
820.12	1611.75
820.29	1730.53
820.47	1789.92
820.64	1728.49
820.81	1642.47
820.98	1599.46
821.15	1595.37
821.33	1806.31
821.50	1648.61
821.67	1742.82
821.84	1673.19
822.02	1695.72
822.19	1830.88
822.36	1615.85
822.53	1658.85
822.70	1599.46
822.88	1798.12
823.05	1796.07
823.22	1644.52
823.39	1771.49
823.56	1738.73
823.74	1773.54
823.91	1570.79
824.08	1673.19
824.25	1654.76
824.42	1787.88
824.60	1658.85
824.77	1673.19
824.94	1665.00
825.11	1763.30
825.28	1654.76
825.45	1708.01
825.63	1763.30
825.80	1652.71
825.97	1650.66
826.14	1681.38
826.31	1640.42
826.48	1660.90
826.66	1634.28
826.83	1603.56
827.00	1746.92
827.17	1581.03
827.34	1685.48
827.51	1640.42
827.69	1660.90
827.86	1673.19
828.03	1755.11
828.20	1746.92
828.37	1701.86
828.54	1677.29
828.71	1722.34
828.89	1814.50
829.06	1697.77
829.23	1744.87
829.40	1662.95
829.57	1691.62
829.74	1738.73
829.91	1589.22
830.09	1650.66
830.26	1638.38
830.43	1787.88
830.60	1699.81
830.77	1742.82
830.94	1687.53
831.11	1773.54
831.28	1624.04
831.46	1753.06
831.63	1677.29
831.80	1665.00
831.97	1646.57
832.14	1703.91
832.31	1705.96
832.48	1681.38
832.65	1705.96
832.82	1740.77
832.99	1697.77
833.17	1675.24
833.34	1759.21
833.51	1699.81
833.68	1679.33
833.85	1744.87
834.02	1599.46
834.19	1630.18
834.36	1718.25
834.53	1681.38
834.70	1765.35
834.87	1779.68
835.04	1673.19
835.22	1703.91
835.39	1636.33
835.56	1589.22
835.73	1646.57
835.90	1765.35
836.07	1681.38
836.24	1763.30
836.41	1695.72
836.58	1675.24
836.75	1736.68
836.92	1640.42
837.09	1652.71
837.26	1834.98
837.43	1675.24
837.60	1716.20
837.77	1640.42
837.94	1716.20
838.12	1716.20
838.29	1687.53
838.46	1634.28
838.63	1673.19
838.80	1710.05
838.97	1751.01
839.14	1703.91
839.31	1660.90
839.48	1714.15
839.65	1665.00
839.82	1755.11
839.99	1701.86
840.16	1701.86
840.33	1695.72
840.50	1636.33
840.67	1683.43
840.84	1636.33
841.01	1718.25
841.18	1652.71
841.35	1710.05
841.52	1650.66
841.69	1796.07
841.86	1775.59
842.03	1689.57
842.20	1738.73
842.37	1673.19
842.54	1701.86
842.71	1734.63
842.88	1558.50
843.05	1720.29
843.22	1699.81
843.39	1765.35
843.56	1621.99
843.73	1593.32
843.90	1667.05
844.07	1746.92
844.24	1783.78
844.41	1714.15
844.58	1683.43
844.75	1621.99
844.92	1732.58
845.09	1609.70
845.26	1628.14
845.43	1732.58
845.60	1718.25
845.77	1757.16
845.94	1759.21
846.10	1734.63
846.27	1568.74
846.44	1705.96
846.61	1656.81
846.78	1738.73
846.95	1718.25
847.12	1628.14
847.29	1662.95
847.46	1632.23
847.63	1705.96
847.80	1611.75
847.97	1621.99
848.14	1826.79
848.31	1677.29
848.48	1650.66
848.65	1763.30
848.82	1644.52
848.98	1865.70
849.15	1742.82
849.32	1794.02
849.49	1708.01
849.66	1662.95
849.83	1724.39
850.00	1662.95
850.17	1675.24
850.34	1695.72
850.51	1665.00
850.68	1667.05
850.85	1765.35
851.01	1710.05
851.18	1705.96
851.35	1640.42
851.52	1695.72
851.69	1773.54
851.86	1619.94
852.03	1703.91
852.20	1759.21
852.37	1574.89
852.53	1568.74
852.70	1708.01
852.87	1746.92
853.04	1710.05
853.21	1611.75
853.38	1712.10
853.55	1740.77
853.72	1800.16
853.89	1546.22
854.05	1611.75
854.22	1628.14
854.39	1640.42
854.56	1761.25
854.73	1773.54
854.90	1632.23
855.07	1689.57
855.23	1675.24
855.40	1619.94
855.57	1658.85
855.74	1609.70
855.91	1826.79
856.08	1652.71
856.25	1572.84
856.41	1656.81
856.58	1675.24
856.75	1730.53
856.92	1654.76
857.09	1730.53
857.26	1564.65
857.42	1720.29
857.59	1730.53
857.76	1748.97
857.93	1632.23
858.10	1701.86
858.27	1607.66
858.43	1705.96
858.60	1687.53
858.77	1521.64
858.94	1607.66
859.11	1712.10
859.27	1527.78
859.44	1771.49
859.61	1767.40
859.78	1640.42
859.95	1630.18
860.12	1603.56
860.28	1800.16
860.45	1785.83
860.62	1779.68
860.79	1681.38
860.95	1665.00
861.12	1587.18
861.29	1677.29
861.46	1728.49
861.63	1705.96
861.79	1697.77
861.96	1681.38
862.13	1710.05
862.30	1757.16
862.47	1599.46
862.63	1685.48
862.80	1798.12
862.97	1800.16
863.14	1646.57
863.30	1716.20
863.47	1689.57
863.64	1806.31
863.81	1619.94
863.97	1710.05
864.14	1779.68
864.31	1779.68
864.48	1812.45
864.65	1675.24
864.81	1662.95
864.98	1677.29
865.15	1822.69
865.32	1718.25
865.48	1640.42
865.65	1748.97
865.82	1722.34
865.98	1728.49
866.15	1720.29
866.32	1742.82
866.49	1683.43
866.65	1796.07
866.82	1671.14
866.99	1757.16
867.16	1726.44
867.32	1660.90
867.49	1648.61
867.66	1650.66
867.83	1566.70
867.99	1642.47
868.16	1679.33
868.33	1578.98
868.49	1673.19
868.66	1656.81
868.83	1626.09
868.99	1728.49
869.16	1716.20
869.33	1798.12
869.50	1712.10
869.66	1667.05
869.83	1724.39
870.00	1689.57
870.16	1810.40
870.33	1687.53
870.50	1669.09
870.66	1726.44
870.83	1873.89
871.00	1662.95
871.17	1712.10
871.33	1775.59
871.50	1699.81
871.67	1638.38
871.83	1626.09
872.00	1818.60
872.17	1675.24
872.33	1845.22
872.50	1724.39
872.67	1644.52
872.83	1720.29
873.00	1701.86
873.17	1636.33
873.33	1781.73
873.50	1691.62
873.67	1652.71
873.83	1660.90
874.00	1726.44
874.16	1748.97
874.33	1708.01
874.50	1722.34
874.66	1677.29
874.83	1718.25
875.00	1775.59
875.16	1773.54
875.33	1759.21
875.50	1619.94
875.66	1699.81
875.83	1693.67
875.99	1708.01
876.16	1660.90
876.33	1538.02
876.49	1712.10
876.66	1748.97
876.83	1720.29
876.99	1630.18
877.16	1697.77
877.32	1648.61
877.49	1640.42
877.66	1722.34
877.82	1755.11
877.99	1771.49
878.15	1712.10
878.32	1685.48
878.49	1699.81
878.65	1712.10
878.82	1755.11
878.98	1687.53
879.15	1742.82
879.32	1693.67
879.48	1732.58
879.65	1673.19
879.81	1593.32
879.98	1673.19
880.15	1656.81
880.31	1742.82
880.48	1576.94
880.64	1802.21
880.81	1712.10
880.97	1875.94
881.14	1660.90
881.31	1675.24
881.47	1796.07
881.64	1677.29
881.80	1597.42
881.97	1787.88
882.13	1734.63
882.30	1710.05
882.47	1587.18
882.63	1642.47
882.80	1652.71
882.96	1693.67
883.13	1734.63
883.29	1656.81
883.46	1701.86
883.62	1830.88
883.79	1751.01
883.95	1781.73
884.12	1691.62
884.29	1722.34
884.45	1730.53
884.62	1708.01
884.78	1662.95
884.95	1763.30
885.11	1689.57
885.28	1701.86
885.44	1652.71
885.61	1718.25
885.77	1705.96
885.94	1691.62
886.10	1673.19
886.27	1763.30
886.43	1783.78
886.60	1789.92
886.76	1669.09
886.93	1724.39
887.09	1708.01
887.26	1611.75
887.42	1691.62
887.59	1734.63
887.75	1871.84
887.92	1757.16
888.08	1773.54
888.25	1849.32
888.41	1726.44
888.58	1687.53
888.74	1624.04
888.91	1722.34
>>>>>End Processed Spectral Data<<<<<
