SpectraSuite Data File
++++++++++++++++++++++++++++++++++++
Date: Mon Jun 06 14:58:57 CEST 2016
User: root
Dark Spectrum Present: No
Reference Spectrum Present: No
Number of Sampled Component Spectra: 1
Spectrometers: USB4C02835
Integration Time (usec): 100000 (USB4C02835)
Spectra Averaged: 1 (USB4C02835)
Boxcar Smoothing: 0 (USB4C02835)
Correct for Electrical Dark: No (USB4C02835)
Strobe/Lamp Enabled: No (USB4C02835)
Correct for Detector Non-linearity: No (USB4C02835)
Correct for Stray Light: No (USB4C02835)
Number of Pixels in Processed Spectrum: 3648
>>>>>Begin Processed Spectral Data<<<<<
177.47	1447.91
177.69	1447.91
177.91	1447.91
178.13	1468.39
178.36	1394.67
178.58	1619.94
178.80	1708.01
179.02	1529.83
179.24	1695.72
179.46	1667.05
179.68	1720.29
179.90	1716.20
180.13	1714.15
180.35	1677.29
180.57	1634.28
180.79	1759.21
181.01	1642.47
181.23	1693.67
181.45	1820.64
181.67	1734.63
181.90	1746.92
182.12	1679.33
182.34	1634.28
182.56	1812.45
182.78	1695.72
183.00	1705.96
183.22	1736.68
183.44	1581.03
183.66	1869.80
183.89	1716.20
184.11	1759.21
184.33	1683.43
184.55	1765.35
184.77	1722.34
184.99	1669.09
185.21	1603.56
185.43	1800.16
185.65	1705.96
185.87	1712.10
186.10	1820.64
186.32	1791.97
186.54	1759.21
186.76	1716.20
186.98	1718.25
187.20	1740.77
187.42	1730.53
187.64	1765.35
187.86	1751.01
188.08	1761.25
188.30	1699.81
188.52	1697.77
188.75	1712.10
188.97	1789.92
189.19	1669.09
189.41	1728.49
189.63	1654.76
189.85	1669.09
190.07	1619.94
190.29	1669.09
190.51	1689.57
190.73	1648.61
190.95	1773.54
191.17	1740.77
191.39	1617.90
191.61	1648.61
191.84	1640.42
192.06	1728.49
192.28	1654.76
192.50	1869.80
192.72	1693.67
192.94	1744.87
193.16	1785.83
193.38	1699.81
193.60	1587.18
193.82	1708.01
194.04	1767.40
194.26	1667.05
194.48	1730.53
194.70	1730.53
194.92	1652.71
195.14	1751.01
195.36	1695.72
195.58	1720.29
195.80	1675.24
196.02	1671.14
196.24	1677.29
196.46	1765.35
196.69	1646.57
196.91	1880.04
197.13	1675.24
197.35	1656.81
197.57	1783.78
197.79	1695.72
198.01	1783.78
198.23	1701.86
198.45	1710.05
198.67	1683.43
198.89	1744.87
199.11	1798.12
199.33	1716.20
199.55	1642.47
199.77	1632.23
199.99	1751.01
200.21	1656.81
200.43	1748.97
200.65	1558.50
200.87	1632.23
201.09	1681.38
201.31	1669.09
201.53	1701.86
201.75	1738.73
201.97	1765.35
202.19	1695.72
202.41	1763.30
202.63	1759.21
202.85	1753.06
203.07	1777.64
203.29	1705.96
203.51	1658.85
203.73	1699.81
203.95	1832.93
204.17	1677.29
204.39	1689.57
204.61	1687.53
204.83	1671.14
205.05	1710.05
205.27	1814.50
205.49	1877.99
205.71	1681.38
205.93	1585.13
206.15	1712.10
206.37	1650.66
206.59	1742.82
206.81	1591.27
207.03	1662.95
207.25	1708.01
207.47	1689.57
207.69	1759.21
207.91	1859.56
208.13	1785.83
208.34	1558.50
208.56	1646.57
208.78	1742.82
209.00	1685.48
209.22	1665.00
209.44	1708.01
209.66	1634.28
209.88	1710.05
210.10	1728.49
210.32	1730.53
210.54	1753.06
210.76	1677.29
210.98	1730.53
211.20	1609.70
211.42	1677.29
211.64	1834.98
211.86	1710.05
212.08	1787.88
212.30	1687.53
212.52	1628.14
212.74	1681.38
212.96	1677.29
213.17	1708.01
213.39	1759.21
213.61	1791.97
213.83	1650.66
214.05	1593.32
214.27	1773.54
214.49	1576.94
214.71	1669.09
214.93	1759.21
215.15	1685.48
215.37	1804.26
215.59	1634.28
215.81	1748.97
216.03	1699.81
216.24	1738.73
216.46	1683.43
216.68	1771.49
216.90	1728.49
217.12	1736.68
217.34	1787.88
217.56	1730.53
217.78	1826.79
218.00	1673.19
218.22	1708.01
218.44	1693.67
218.66	1705.96
218.87	1808.36
219.09	1640.42
219.31	1703.91
219.53	1710.05
219.75	1701.86
219.97	1687.53
220.19	1701.86
220.41	1767.40
220.63	1759.21
220.85	1677.29
221.06	1746.92
221.28	1722.34
221.50	1742.82
221.72	1710.05
221.94	1746.92
222.16	1669.09
222.38	1697.77
222.60	1738.73
222.82	1652.71
223.03	1652.71
223.25	1570.79
223.47	1748.97
223.69	1810.40
223.91	1710.05
224.13	1681.38
224.35	1656.81
224.57	1744.87
224.78	1736.68
225.00	1656.81
225.22	1689.57
225.44	1687.53
225.66	1791.97
225.88	1640.42
226.10	1742.82
226.32	1683.43
226.53	1810.40
226.75	1769.44
226.97	1650.66
227.19	1808.36
227.41	1667.05
227.63	1642.47
227.85	1701.86
228.06	1742.82
228.28	1648.61
228.50	1767.40
228.72	1605.61
228.94	1697.77
229.16	1763.30
229.37	1656.81
229.59	1628.14
229.81	1765.35
230.03	1650.66
230.25	1607.66
230.47	1638.38
230.69	1677.29
230.90	1728.49
231.12	1765.35
231.34	1705.96
231.56	1796.07
231.78	1691.62
232.00	1671.14
232.21	1710.05
232.43	1699.81
232.65	1605.61
232.87	1718.25
233.09	1619.94
233.30	1595.37
233.52	1724.39
233.74	1775.59
233.96	1691.62
234.18	1728.49
234.40	1740.77
234.61	1757.16
234.83	1652.71
235.05	1640.42
235.27	1822.69
235.49	1746.92
235.70	1724.39
235.92	1777.64
236.14	1640.42
236.36	1849.32
236.58	1607.66
236.79	1705.96
237.01	1665.00
237.23	1658.85
237.45	1783.78
237.67	1673.19
237.88	1675.24
238.10	1839.08
238.32	1650.66
238.54	1660.90
238.76	1685.48
238.97	1708.01
239.19	1626.09
239.41	1693.67
239.63	1759.21
239.85	1638.38
240.06	1703.91
240.28	1638.38
240.50	1656.81
240.72	1716.20
240.93	1736.68
241.15	1748.97
241.37	1710.05
241.59	1771.49
241.81	1724.39
242.02	1699.81
242.24	1712.10
242.46	1759.21
242.68	1617.90
242.89	1726.44
243.11	1773.54
243.33	1646.57
243.55	1816.55
243.76	1652.71
243.98	1736.68
244.20	1691.62
244.42	1687.53
244.64	1697.77
244.85	1630.18
245.07	1640.42
245.29	1738.73
245.51	1662.95
245.72	1720.29
245.94	1759.21
246.16	1689.57
246.38	1802.21
246.59	1662.95
246.81	1685.48
247.03	1712.10
247.24	1574.89
247.46	1597.42
247.68	1718.25
247.90	1751.01
248.11	1695.72
248.33	1777.64
248.55	1656.81
248.77	1691.62
248.98	1718.25
249.20	1863.65
249.42	1673.19
249.64	1646.57
249.85	1740.77
250.07	1691.62
250.29	1751.01
250.50	1734.63
250.72	1583.08
250.94	1693.67
251.16	1859.56
251.37	1757.16
251.59	1642.47
251.81	1759.21
252.02	1775.59
252.24	1654.76
252.46	1732.58
252.68	1716.20
252.89	1691.62
253.11	1660.90
253.33	1796.07
253.54	1757.16
253.76	1646.57
253.98	1673.19
254.20	1650.66
254.41	1662.95
254.63	1722.34
254.85	1738.73
255.06	1632.23
255.28	1734.63
255.50	1634.28
255.71	1656.81
255.93	1638.38
256.15	1726.44
256.36	1755.11
256.58	1671.14
256.80	1734.63
257.02	1683.43
257.23	1714.15
257.45	1665.00
257.67	1763.30
257.88	1687.53
258.10	1689.57
258.32	1640.42
258.53	1714.15
258.75	1753.06
258.97	1662.95
259.18	1716.20
259.40	1654.76
259.62	1855.46
259.83	1791.97
260.05	1710.05
260.27	2007.01
260.48	1718.25
260.70	1599.46
260.92	1699.81
261.13	1673.19
261.35	1677.29
261.57	1732.58
261.78	1626.09
262.00	1697.77
262.22	1675.24
262.43	1638.38
262.65	1689.57
262.86	1650.66
263.08	1808.36
263.30	1728.49
263.51	1572.84
263.73	1738.73
263.95	1757.16
264.16	1667.05
264.38	1660.90
264.60	1736.68
264.81	1679.33
265.03	1722.34
265.25	1689.57
265.46	1705.96
265.68	1714.15
265.89	1730.53
266.11	1626.09
266.33	1748.97
266.54	1728.49
266.76	1720.29
266.98	1701.86
267.19	1789.92
267.41	1767.40
267.62	1757.16
267.84	1640.42
268.06	1695.72
268.27	1740.77
268.49	1744.87
268.70	1714.15
268.92	1708.01
269.14	1617.90
269.35	1605.61
269.57	1734.63
269.79	1765.35
270.00	1648.61
270.22	1759.21
270.43	1736.68
270.65	1615.85
270.87	1671.14
271.08	1787.88
271.30	1816.55
271.51	1667.05
271.73	1779.68
271.95	1787.88
272.16	1789.92
272.38	1765.35
272.59	1669.09
272.81	1742.82
273.02	1660.90
273.24	1722.34
273.46	1722.34
273.67	1648.61
273.89	1677.29
274.10	1708.01
274.32	1800.16
274.54	1738.73
274.75	1761.25
274.97	1718.25
275.18	1656.81
275.40	1767.40
275.61	1662.95
275.83	1705.96
276.05	1669.09
276.26	1728.49
276.48	1734.63
276.69	1648.61
276.91	1708.01
277.12	1775.59
277.34	1748.97
277.55	1775.59
277.77	1730.53
277.99	1685.48
278.20	1546.22
278.42	1665.00
278.63	1660.90
278.85	1615.85
279.06	1640.42
279.28	1677.29
279.49	1697.77
279.71	1757.16
279.93	1701.86
280.14	1673.19
280.36	1681.38
280.57	1656.81
280.79	1734.63
281.00	1695.72
281.22	1613.80
281.43	1763.30
281.65	1607.66
281.86	1677.29
282.08	1755.11
282.29	1771.49
282.51	1648.61
282.73	1642.47
282.94	1605.61
283.16	1746.92
283.37	1839.08
283.59	1679.33
283.80	1691.62
284.02	1728.49
284.23	1714.15
284.45	1615.85
284.66	1644.52
284.88	1689.57
285.09	1757.16
285.31	1710.05
285.52	1708.01
285.74	1640.42
285.95	1787.88
286.17	1701.86
286.38	1775.59
286.60	1671.14
286.81	1695.72
287.03	1679.33
287.24	1640.42
287.46	1716.20
287.67	1722.34
287.89	1871.84
288.10	1681.38
288.32	1689.57
288.53	1871.84
288.75	1734.63
288.96	1759.21
289.18	1650.66
289.39	1701.86
289.61	1785.83
289.82	1851.36
290.04	1767.40
290.25	1599.46
290.47	1761.25
290.68	1718.25
290.90	1812.45
291.11	1640.42
291.33	1714.15
291.54	1638.38
291.76	1697.77
291.97	1665.00
292.18	1759.21
292.40	1738.73
292.61	1736.68
292.83	1886.18
293.04	1730.53
293.26	1785.83
293.47	1699.81
293.69	1658.85
293.90	1697.77
294.12	1818.60
294.33	1763.30
294.55	1656.81
294.76	1775.59
294.97	1800.16
295.19	1867.75
295.40	1697.77
295.62	1783.78
295.83	1691.62
296.05	1697.77
296.26	1781.73
296.48	1679.33
296.69	1720.29
296.90	1742.82
297.12	1746.92
297.33	1806.31
297.55	1765.35
297.76	1673.19
297.98	1755.11
298.19	1746.92
298.41	1660.90
298.62	1665.00
298.83	1755.11
299.05	1611.75
299.26	1726.44
299.48	1693.67
299.69	1800.16
299.90	1751.01
300.12	1640.42
300.33	1755.11
300.55	1744.87
300.76	1787.88
300.98	1689.57
301.19	1701.86
301.40	1667.05
301.62	1644.52
301.83	1730.53
302.05	1675.24
302.26	1716.20
302.47	1753.06
302.69	1712.10
302.90	1740.77
303.12	1540.07
303.33	1738.73
303.54	1787.88
303.76	1693.67
303.97	1724.39
304.19	1816.55
304.40	1656.81
304.61	1740.77
304.83	1789.92
305.04	1742.82
305.26	1730.53
305.47	1679.33
305.68	1720.29
305.90	1665.00
306.11	1740.77
306.33	1667.05
306.54	1730.53
306.75	1642.47
306.97	1656.81
307.18	1626.09
307.39	1665.00
307.61	1720.29
307.82	1714.15
308.04	1630.18
308.25	1693.67
308.46	1738.73
308.68	1753.06
308.89	1609.70
309.10	1806.31
309.32	1746.92
309.53	1687.53
309.74	1679.33
309.96	1675.24
310.17	1732.58
310.39	1705.96
310.60	1597.42
310.81	1748.97
311.03	1656.81
311.24	1730.53
311.45	1679.33
311.67	1808.36
311.88	1689.57
312.09	1681.38
312.31	1665.00
312.52	1628.14
312.73	1669.09
312.95	1601.51
313.16	1691.62
313.37	1728.49
313.59	1724.39
313.80	1806.31
314.01	1775.59
314.23	1726.44
314.44	1669.09
314.65	1716.20
314.87	1619.94
315.08	1648.61
315.29	1644.52
315.51	1712.10
315.72	1638.38
315.93	1718.25
316.15	1816.55
316.36	1685.48
316.57	1665.00
316.79	1777.64
317.00	1640.42
317.21	1761.25
317.43	1648.61
317.64	1669.09
317.85	1681.38
318.07	1599.46
318.28	1660.90
318.49	1796.07
318.70	1914.85
318.92	1849.32
319.13	1855.46
319.34	1914.85
319.56	1804.26
319.77	1724.39
319.98	1714.15
320.20	1789.92
320.41	1708.01
320.62	1738.73
320.83	1630.18
321.05	1834.98
321.26	1794.02
321.47	1619.94
321.69	1755.11
321.90	1642.47
322.11	1705.96
322.32	1695.72
322.54	1767.40
322.75	1671.14
322.96	1771.49
323.18	1605.61
323.39	1669.09
323.60	1679.33
323.81	1712.10
324.03	1669.09
324.24	1724.39
324.45	1742.82
324.66	1718.25
324.88	1779.68
325.09	1748.97
325.30	1708.01
325.52	1773.54
325.73	1779.68
325.94	1615.85
326.15	1615.85
326.37	1597.42
326.58	1726.44
326.79	1779.68
327.00	1687.53
327.22	1701.86
327.43	1646.57
327.64	1593.32
327.85	1738.73
328.07	1656.81
328.28	1808.36
328.49	1642.47
328.70	1640.42
328.92	1722.34
329.13	1728.49
329.34	1710.05
329.55	1742.82
329.76	1781.73
329.98	1681.38
330.19	1738.73
330.40	1726.44
330.61	1757.16
330.83	1732.58
331.04	1689.57
331.25	1714.15
331.46	1654.76
331.68	1628.14
331.89	1806.31
332.10	1675.24
332.31	1636.33
332.52	1675.24
332.74	1777.64
332.95	1607.66
333.16	1671.14
333.37	1701.86
333.58	1660.90
333.80	1726.44
334.01	1718.25
334.22	1638.38
334.43	1640.42
334.64	1687.53
334.86	1603.56
335.07	1626.09
335.28	1722.34
335.49	1642.47
335.70	1775.59
335.92	1726.44
336.13	1779.68
336.34	1718.25
336.55	1714.15
336.76	1677.29
336.98	1587.18
337.19	1693.67
337.40	1759.21
337.61	1845.22
337.82	1665.00
338.04	1718.25
338.25	1640.42
338.46	1667.05
338.67	1626.09
338.88	1650.66
339.09	1638.38
339.31	1628.14
339.52	1638.38
339.73	1695.72
339.94	1744.87
340.15	1746.92
340.36	1677.29
340.58	1681.38
340.79	1648.61
341.00	1683.43
341.21	1626.09
341.42	1832.93
341.63	1808.36
341.85	1757.16
342.06	1667.05
342.27	1656.81
342.48	1734.63
342.69	1576.94
342.90	1724.39
343.12	1677.29
343.33	1630.18
343.54	1777.64
343.75	1763.30
343.96	1701.86
344.17	1658.85
344.38	1640.42
344.60	1615.85
344.81	1642.47
345.02	1652.71
345.23	1767.40
345.44	1794.02
345.65	1662.95
345.86	1652.71
346.07	1736.68
346.29	1640.42
346.50	1675.24
346.71	1697.77
346.92	1761.25
347.13	1847.27
347.34	1681.38
347.55	1652.71
347.76	1740.77
347.98	1642.47
348.19	1665.00
348.40	1722.34
348.61	1681.38
348.82	1744.87
349.03	1777.64
349.24	1607.66
349.45	1865.70
349.66	1611.75
349.88	1642.47
350.09	1662.95
350.30	1738.73
350.51	1722.34
350.72	1740.77
350.93	1742.82
351.14	1648.61
351.35	1740.77
351.56	1660.90
351.77	1656.81
351.99	1691.62
352.20	1796.07
352.41	1738.73
352.62	1677.29
352.83	1714.15
353.04	1722.34
353.25	1662.95
353.46	1785.83
353.67	1683.43
353.88	1554.41
354.09	1669.09
354.30	1718.25
354.52	1722.34
354.73	1767.40
354.94	1714.15
355.15	1759.21
355.36	1787.88
355.57	1691.62
355.78	1740.77
355.99	1669.09
356.20	1644.52
356.41	1810.40
356.62	1753.06
356.83	1710.05
357.04	1779.68
357.25	1595.37
357.46	1712.10
357.68	1615.85
357.89	1640.42
358.10	1673.19
358.31	1697.77
358.52	1667.05
358.73	1671.14
358.94	1687.53
359.15	1712.10
359.36	1724.39
359.57	1757.16
359.78	1669.09
359.99	1783.78
360.20	1667.05
360.41	1679.33
360.62	1726.44
360.83	1730.53
361.04	1669.09
361.25	1677.29
361.46	1806.31
361.67	1759.21
361.88	1693.67
362.09	1773.54
362.30	1718.25
362.51	1644.52
362.72	1660.90
362.93	1742.82
363.14	1722.34
363.35	1736.68
363.56	1681.38
363.78	1734.63
363.99	1761.25
364.20	1699.81
364.41	1689.57
364.62	1812.45
364.83	1681.38
365.04	1701.86
365.25	1730.53
365.46	1794.02
365.67	1646.57
365.88	1595.37
366.09	1634.28
366.30	1732.58
366.51	1669.09
366.72	1648.61
366.93	1640.42
367.14	1767.40
367.35	1818.60
367.56	1724.39
367.77	1746.92
367.98	1726.44
368.18	1697.77
368.39	1753.06
368.60	1632.23
368.81	1798.12
369.02	1677.29
369.23	1728.49
369.44	1568.74
369.65	1640.42
369.86	1705.96
370.07	1748.97
370.28	1691.62
370.49	1689.57
370.70	1714.15
370.91	1626.09
371.12	1628.14
371.33	1798.12
371.54	1644.52
371.75	1800.16
371.96	1642.47
372.17	1744.87
372.38	1669.09
372.59	1669.09
372.80	1683.43
373.01	1716.20
373.22	1804.26
373.43	1785.83
373.64	1632.23
373.85	1759.21
374.06	1771.49
374.26	1726.44
374.47	1718.25
374.68	1771.49
374.89	1722.34
375.10	1654.76
375.31	1816.55
375.52	1755.11
375.73	1746.92
375.94	1644.52
376.15	1812.45
376.36	1564.65
376.57	1648.61
376.78	1708.01
376.99	1691.62
377.20	1746.92
377.40	1730.53
377.61	1845.22
377.82	1632.23
378.03	1771.49
378.24	1804.26
378.45	1644.52
378.66	1722.34
378.87	1640.42
379.08	1646.57
379.29	1705.96
379.50	1779.68
379.71	1718.25
379.91	1732.58
380.12	1673.19
380.33	1689.57
380.54	1689.57
380.75	1673.19
380.96	1791.97
381.17	1816.55
381.38	1669.09
381.59	1705.96
381.80	1710.05
382.00	1845.22
382.21	1794.02
382.42	1710.05
382.63	1828.84
382.84	1703.91
383.05	1755.11
383.26	1798.12
383.47	1763.30
383.68	1712.10
383.88	1701.86
384.09	1679.33
384.30	1832.93
384.51	1755.11
384.72	1607.66
384.93	1644.52
385.14	1665.00
385.35	1673.19
385.55	1718.25
385.76	1804.26
385.97	1697.77
386.18	1779.68
386.39	1697.77
386.60	1722.34
386.81	1691.62
387.02	1634.28
387.22	1685.48
387.43	1742.82
387.64	1828.84
387.85	1875.94
388.06	2172.89
388.27	4220.86
388.48	6664.09
388.68	8089.48
388.89	9275.25
389.10	9512.81
389.31	8208.26
389.52	7405.46
389.73	6514.59
389.93	6027.17
390.14	5785.51
390.35	5089.20
390.56	4396.99
390.77	3688.39
390.98	2957.27
391.18	2484.19
391.39	2181.09
391.60	1863.65
391.81	1814.50
392.02	1705.96
392.23	1820.64
392.43	1771.49
392.64	1736.68
392.85	1744.87
393.06	1818.60
393.27	1728.49
393.47	1765.35
393.68	1740.77
393.89	1763.30
394.10	1728.49
394.31	1611.75
394.52	1683.43
394.72	1691.62
394.93	1789.92
395.14	1634.28
395.35	1773.54
395.56	1681.38
395.76	1746.92
395.97	1716.20
396.18	1855.46
396.39	1771.49
396.60	1970.15
396.80	1865.70
397.01	1847.27
397.22	1781.73
397.43	1828.84
397.64	1697.77
397.84	1849.32
398.05	1855.46
398.26	1744.87
398.47	1785.83
398.67	1767.40
398.88	1783.78
399.09	1785.83
399.30	1753.06
399.51	1720.29
399.71	1613.80
399.92	1689.57
400.13	1826.79
400.34	1636.33
400.54	1703.91
400.75	1804.26
400.96	1798.12
401.17	1736.68
401.37	1626.09
401.58	1683.43
401.79	1714.15
402.00	1939.43
402.21	1998.82
402.41	1957.86
402.62	1974.24
402.83	2013.15
403.04	1994.72
403.24	2074.59
403.45	1740.77
403.66	1923.04
403.87	1880.04
404.07	1949.67
404.28	1898.47
404.49	1845.22
404.70	1822.69
404.90	1736.68
405.11	1722.34
405.32	1728.49
405.52	1640.42
405.73	1691.62
405.94	1675.24
406.15	1687.53
406.35	1746.92
406.56	1708.01
406.77	1759.21
406.98	1724.39
407.18	1644.52
407.39	1779.68
407.60	1675.24
407.80	1726.44
408.01	1705.96
408.22	1630.18
408.43	1552.36
408.63	1763.30
408.84	1718.25
409.05	1769.44
409.25	1650.66
409.46	1662.95
409.67	1677.29
409.88	1646.57
410.08	1779.68
410.29	1675.24
410.50	1787.88
410.70	1767.40
410.91	1638.38
411.12	1705.96
411.32	1648.61
411.53	1660.90
411.74	1759.21
411.95	1779.68
412.15	1751.01
412.36	1802.21
412.57	1705.96
412.77	1787.88
412.98	1691.62
413.19	1708.01
413.39	1720.29
413.60	1738.73
413.81	1802.21
414.01	1701.86
414.22	1748.97
414.43	1742.82
414.63	1712.10
414.84	1828.84
415.05	1662.95
415.25	1617.90
415.46	1802.21
415.67	1691.62
415.87	1732.58
416.08	1787.88
416.29	1695.72
416.49	1693.67
416.70	1656.81
416.91	1677.29
417.11	1757.16
417.32	1751.01
417.53	1712.10
417.73	1744.87
417.94	1718.25
418.15	1703.91
418.35	1718.25
418.56	1755.11
418.77	1810.40
418.97	1703.91
419.18	1738.73
419.38	1578.98
419.59	1726.44
419.80	1818.60
420.00	1673.19
420.21	1705.96
420.42	1767.40
420.62	1665.00
420.83	1669.09
421.04	1691.62
421.24	1708.01
421.45	1769.44
421.65	1710.05
421.86	1734.63
422.07	1667.05
422.27	1662.95
422.48	1640.42
422.69	1609.70
422.89	1703.91
423.10	1640.42
423.30	1648.61
423.51	1746.92
423.72	1751.01
423.92	1771.49
424.13	1613.80
424.33	1728.49
424.54	1814.50
424.75	1718.25
424.95	1746.92
425.16	1753.06
425.36	1705.96
425.57	1773.54
425.78	1781.73
425.98	1785.83
426.19	1621.99
426.39	1624.04
426.60	1681.38
426.81	1845.22
427.01	1771.49
427.22	1619.94
427.42	1607.66
427.63	1640.42
427.83	1753.06
428.04	1824.74
428.25	1812.45
428.45	1681.38
428.66	1691.62
428.86	1710.05
429.07	1753.06
429.28	1748.97
429.48	1646.57
429.69	1624.04
429.89	1757.16
430.10	1697.77
430.30	1730.53
430.51	1728.49
430.71	1675.24
430.92	1644.52
431.13	1693.67
431.33	1796.07
431.54	1720.29
431.74	1730.53
431.95	1847.27
432.15	1671.14
432.36	1685.48
432.56	1705.96
432.77	1818.60
432.98	1910.75
433.18	1800.16
433.39	1628.14
433.59	1648.61
433.80	1892.32
434.00	1830.88
434.21	1693.67
434.41	1755.11
434.62	1912.80
434.82	1669.09
435.03	1658.85
435.23	1775.59
435.44	1701.86
435.64	1695.72
435.85	1781.73
436.06	1798.12
436.26	1789.92
436.47	1714.15
436.67	1714.15
436.88	1652.71
437.08	1742.82
437.29	1787.88
437.49	1656.81
437.70	1800.16
437.90	1695.72
438.11	1845.22
438.31	1783.78
438.52	1834.98
438.72	1849.32
438.93	1904.61
439.13	1785.83
439.34	1794.02
439.54	1812.45
439.75	1818.60
439.95	1771.49
440.16	1687.53
440.36	1726.44
440.57	1783.78
440.77	1685.48
440.98	1712.10
441.18	1781.73
441.39	1646.57
441.59	1630.18
441.80	1910.75
442.00	1644.52
442.21	1812.45
442.41	1624.04
442.62	1800.16
442.82	1693.67
443.02	1730.53
443.23	1777.64
443.43	1677.29
443.64	1767.40
443.84	1720.29
444.05	1726.44
444.25	1673.19
444.46	1669.09
444.66	1724.39
444.87	1777.64
445.07	1609.70
445.28	1677.29
445.48	1773.54
445.69	1732.58
445.89	1894.37
446.09	1718.25
446.30	2062.30
446.50	2631.64
446.71	3684.30
446.91	4196.29
447.12	4710.33
447.32	4734.90
447.53	4304.83
447.73	3821.51
447.93	3502.03
448.14	3127.25
448.34	3184.59
448.55	2895.83
448.75	2770.90
448.96	2770.90
449.16	2344.92
449.36	2234.33
449.57	2129.89
449.77	1890.28
449.98	1785.83
450.18	1767.40
450.39	1828.84
450.59	1796.07
450.79	1794.02
451.00	1621.99
451.20	1789.92
451.41	1751.01
451.61	1798.12
451.81	1742.82
452.02	1755.11
452.22	1701.86
452.43	1773.54
452.63	1728.49
452.84	1669.09
453.04	1695.72
453.24	1744.87
453.45	1673.19
453.65	1755.11
453.86	1783.78
454.06	1779.68
454.26	1742.82
454.47	1669.09
454.67	1837.03
454.87	1810.40
455.08	1748.97
455.28	1738.73
455.49	1794.02
455.69	1755.11
455.89	1822.69
456.10	1751.01
456.30	1689.57
456.51	1751.01
456.71	1724.39
456.91	1771.49
457.12	1736.68
457.32	1732.58
457.52	1665.00
457.73	1820.64
457.93	1763.30
458.14	1714.15
458.34	1654.76
458.54	1744.87
458.75	1728.49
458.95	1730.53
459.15	1689.57
459.36	1669.09
459.56	1730.53
459.76	1912.80
459.97	1722.34
460.17	1724.39
460.37	1726.44
460.58	1787.88
460.78	1742.82
460.99	1720.29
461.19	1740.77
461.39	1701.86
461.60	1689.57
461.80	1849.32
462.00	1626.09
462.21	1705.96
462.41	1751.01
462.61	1755.11
462.82	1656.81
463.02	1779.68
463.22	1693.67
463.43	1718.25
463.63	1789.92
463.83	1753.06
464.04	1742.82
464.24	1751.01
464.44	1660.90
464.64	1699.81
464.85	1798.12
465.05	1746.92
465.25	1728.49
465.46	1697.77
465.66	1675.24
465.86	1759.21
466.07	1705.96
466.27	1757.16
466.47	1648.61
466.68	1648.61
466.88	1834.98
467.08	1789.92
467.29	1722.34
467.49	1873.89
467.69	1632.23
467.89	1748.97
468.10	1671.14
468.30	1693.67
468.50	1830.88
468.71	1785.83
468.91	1705.96
469.11	1796.07
469.31	1685.48
469.52	1710.05
469.72	1847.27
469.92	1812.45
470.13	1634.28
470.33	1691.62
470.53	1794.02
470.73	2002.91
470.94	2232.29
471.14	2344.92
471.34	2480.09
471.54	2342.88
471.75	2275.29
471.95	2154.46
472.15	2142.18
472.36	2023.39
472.56	2043.87
472.76	2015.20
472.96	1984.48
473.17	1978.34
473.37	1951.71
473.57	1818.60
473.77	1775.59
473.98	1755.11
474.18	1615.85
474.38	1853.41
474.58	1654.76
474.79	1701.86
474.99	1820.64
475.19	1804.26
475.39	1679.33
475.60	1724.39
475.80	1736.68
476.00	1714.15
476.20	1699.81
476.41	1679.33
476.61	1794.02
476.81	1732.58
477.01	1671.14
477.21	1894.37
477.42	1830.88
477.62	1710.05
477.82	1730.53
478.02	1705.96
478.23	1759.21
478.43	1656.81
478.63	1646.57
478.83	1685.48
479.03	1757.16
479.24	1767.40
479.44	1847.27
479.64	1656.81
479.84	1626.09
480.04	1638.38
480.25	1806.31
480.45	1681.38
480.65	1722.34
480.85	1759.21
481.06	1732.58
481.26	1675.24
481.46	1753.06
481.66	1722.34
481.86	1652.71
482.06	1812.45
482.27	1748.97
482.47	1681.38
482.67	1736.68
482.87	1644.52
483.07	1828.84
483.28	1667.05
483.48	1710.05
483.68	1712.10
483.88	1648.61
484.08	1619.94
484.29	1734.63
484.49	1697.77
484.69	1683.43
484.89	1783.78
485.09	1808.36
485.29	1855.46
485.50	1771.49
485.70	1669.09
485.90	1781.73
486.10	1753.06
486.30	1789.92
486.50	1765.35
486.71	1759.21
486.91	1773.54
487.11	1753.06
487.31	1619.94
487.51	1802.21
487.71	1642.47
487.91	1693.67
488.12	1669.09
488.32	1560.55
488.52	1611.75
488.72	1681.38
488.92	1685.48
489.12	1751.01
489.32	1759.21
489.53	1740.77
489.73	1626.09
489.93	1810.40
490.13	1691.62
490.33	1636.33
490.53	1712.10
490.73	1781.73
490.94	1634.28
491.14	1662.95
491.34	1884.13
491.54	2127.84
491.74	2475.99
491.94	2805.72
492.14	3006.42
492.34	2981.84
492.54	2703.32
492.75	2426.84
492.95	2420.70
493.15	2213.85
493.35	2263.01
493.55	2183.13
493.75	2123.74
493.95	2113.50
494.15	1957.86
494.35	1904.61
494.56	1857.51
494.76	1824.74
494.96	1853.41
495.16	1730.53
495.36	1697.77
495.56	1773.54
495.76	1701.86
495.96	1665.00
496.16	1673.19
496.36	1853.41
496.56	1687.53
496.77	1798.12
496.97	1740.77
497.17	1753.06
497.37	1660.90
497.57	1755.11
497.77	1744.87
497.97	1683.43
498.17	1789.92
498.37	1644.52
498.57	1781.73
498.77	1738.73
498.97	1771.49
499.17	1822.69
499.38	1710.05
499.58	1804.26
499.78	1800.16
499.98	1824.74
500.18	1693.67
500.38	1630.18
500.58	1896.42
500.78	2510.81
500.98	4421.56
501.18	5687.21
501.38	6530.97
501.58	6842.26
501.78	6485.92
501.98	5367.73
502.18	4863.93
502.38	4356.03
502.58	3946.44
502.78	3731.40
502.98	3635.14
503.18	3397.58
503.38	3131.34
503.59	2668.50
503.79	2613.21
503.99	2443.23
504.19	2283.49
504.39	2156.51
504.59	2181.09
504.79	2144.22
504.99	1976.29
505.19	1832.93
505.39	1902.56
505.59	1859.56
505.79	1845.22
505.99	1914.85
506.19	1794.02
506.39	1886.18
506.59	1769.44
506.79	1724.39
506.99	1855.46
507.19	1742.82
507.39	1773.54
507.59	1667.05
507.79	1675.24
507.99	1656.81
508.19	1759.21
508.39	1714.15
508.59	1763.30
508.79	1826.79
508.99	1849.32
509.19	1681.38
509.39	1802.21
509.59	1753.06
509.79	1705.96
509.99	1708.01
510.19	1787.88
510.39	1834.98
510.59	1734.63
510.79	1746.92
510.99	1687.53
511.19	1794.02
511.39	1824.74
511.59	1771.49
511.79	1849.32
511.99	1705.96
512.19	1785.83
512.38	1812.45
512.58	1710.05
512.78	1796.07
512.98	1812.45
513.18	1742.82
513.38	1665.00
513.58	1783.78
513.78	1777.64
513.98	1724.39
514.18	1654.76
514.38	1724.39
514.58	1767.40
514.78	1640.42
514.98	1693.67
515.18	1705.96
515.38	1693.67
515.58	1763.30
515.78	1703.91
515.98	1722.34
516.18	1732.58
516.38	1738.73
516.57	1654.76
516.77	1730.53
516.97	1773.54
517.17	1705.96
517.37	1679.33
517.57	1785.83
517.77	1720.29
517.97	1705.96
518.17	1787.88
518.37	1742.82
518.57	1691.62
518.77	1755.11
518.97	1755.11
519.16	1738.73
519.36	1744.87
519.56	1718.25
519.76	1722.34
519.96	1798.12
520.16	1800.16
520.36	1593.32
520.56	1742.82
520.76	1714.15
520.96	1730.53
521.16	1732.58
521.35	1820.64
521.55	1806.31
521.75	1734.63
521.95	1761.25
522.15	1734.63
522.35	1603.56
522.55	1603.56
522.75	1691.62
522.95	1701.86
523.14	1701.86
523.34	1814.50
523.54	1689.57
523.74	1767.40
523.94	1728.49
524.14	1628.14
524.34	1800.16
524.54	1859.56
524.73	1828.84
524.93	1779.68
525.13	1689.57
525.33	1656.81
525.53	1914.85
525.73	1785.83
525.93	1718.25
526.13	1708.01
526.32	1769.44
526.52	1710.05
526.72	1722.34
526.92	1720.29
527.12	1697.77
527.32	1677.29
527.52	1705.96
527.71	1724.39
527.91	1761.25
528.11	1705.96
528.31	1714.15
528.51	1724.39
528.71	1779.68
528.90	1759.21
529.10	1746.92
529.30	1814.50
529.50	1599.46
529.70	1689.57
529.90	1730.53
530.09	1650.66
530.29	1714.15
530.49	1708.01
530.69	1849.32
530.89	1787.88
531.09	1746.92
531.28	1671.14
531.48	1884.13
531.68	1714.15
531.88	1722.34
532.08	1763.30
532.28	1783.78
532.47	1834.98
532.67	1763.30
532.87	1665.00
533.07	1638.38
533.27	1742.82
533.46	1775.59
533.66	1746.92
533.86	1742.82
534.06	1716.20
534.26	1787.88
534.45	1718.25
534.65	1796.07
534.85	1701.86
535.05	1681.38
535.25	1851.36
535.44	1587.18
535.64	1804.26
535.84	1716.20
536.04	1730.53
536.24	1640.42
536.43	1757.16
536.63	1779.68
536.83	1736.68
537.03	1701.86
537.22	1685.48
537.42	1677.29
537.62	1710.05
537.82	1738.73
538.02	1830.88
538.21	1732.58
538.41	1918.95
538.61	1769.44
538.81	1730.53
539.00	1794.02
539.20	1599.46
539.40	1734.63
539.60	1763.30
539.79	1767.40
539.99	1728.49
540.19	1685.48
540.39	1738.73
540.58	1765.35
540.78	1763.30
540.98	1783.78
541.18	1808.36
541.37	1775.59
541.57	1779.68
541.77	1769.44
541.97	1710.05
542.16	1648.61
542.36	1722.34
542.56	1763.30
542.76	1843.17
542.95	1761.25
543.15	1734.63
543.35	1742.82
543.54	1636.33
543.74	1697.77
543.94	1777.64
544.14	1730.53
544.33	1810.40
544.53	1697.77
544.73	1724.39
544.93	1714.15
545.12	1712.10
545.32	1716.20
545.52	1771.49
545.71	1691.62
545.91	1697.77
546.11	1718.25
546.30	1697.77
546.50	1804.26
546.70	1783.78
546.90	1734.63
547.09	1617.90
547.29	1718.25
547.49	1783.78
547.68	1736.68
547.88	1724.39
548.08	1787.88
548.27	2176.99
548.47	1710.05
548.67	1665.00
548.87	1738.73
549.06	1734.63
549.26	1740.77
549.46	1724.39
549.65	1746.92
549.85	1736.68
550.05	1806.31
550.24	1624.04
550.44	1834.98
550.64	1730.53
550.83	1689.57
551.03	1777.64
551.23	1691.62
551.42	1806.31
551.62	1818.60
551.82	1779.68
552.01	1728.49
552.21	1871.84
552.41	1759.21
552.60	1855.46
552.80	1785.83
553.00	1640.42
553.19	1730.53
553.39	1785.83
553.59	1675.24
553.78	1730.53
553.98	1703.91
554.17	1695.72
554.37	1685.48
554.57	1763.30
554.76	1650.66
554.96	1671.14
555.16	1738.73
555.35	1734.63
555.55	1824.74
555.75	1761.25
555.94	1746.92
556.14	1638.38
556.33	1724.39
556.53	1660.90
556.73	1773.54
556.92	1658.85
557.12	1853.41
557.32	1806.31
557.51	1767.40
557.71	1722.34
557.90	1826.79
558.10	1679.33
558.30	1726.44
558.49	1796.07
558.69	1724.39
558.88	1718.25
559.08	1767.40
559.28	1748.97
559.47	1798.12
559.67	1847.27
559.86	1728.49
560.06	1710.05
560.26	1689.57
560.45	1718.25
560.65	1710.05
560.84	1822.69
561.04	1703.91
561.24	1845.22
561.43	1712.10
561.63	1832.93
561.82	1812.45
562.02	1728.49
562.22	1718.25
562.41	1701.86
562.61	1744.87
562.80	1665.00
563.00	1873.89
563.19	1693.67
563.39	1775.59
563.59	1712.10
563.78	1712.10
563.98	1638.38
564.17	1628.14
564.37	1619.94
564.56	1705.96
564.76	1683.43
564.96	1767.40
565.15	1689.57
565.35	1894.37
565.54	1675.24
565.74	1818.60
565.93	1736.68
566.13	1779.68
566.32	1802.21
566.52	1724.39
566.71	1714.15
566.91	1783.78
567.11	1705.96
567.30	1701.86
567.50	1742.82
567.69	1785.83
567.89	1683.43
568.08	1667.05
568.28	1759.21
568.47	1632.23
568.67	1787.88
568.86	1736.68
569.06	1732.58
569.25	1759.21
569.45	1630.18
569.64	1714.15
569.84	1767.40
570.04	1773.54
570.23	1697.77
570.43	1820.64
570.62	1834.98
570.82	1787.88
571.01	1703.91
571.21	1710.05
571.40	1656.81
571.60	1714.15
571.79	1789.92
571.99	1665.00
572.18	1642.47
572.38	1804.26
572.57	1683.43
572.77	1779.68
572.96	1877.99
573.16	1714.15
573.35	1814.50
573.55	1767.40
573.74	1826.79
573.94	1767.40
574.13	1687.53
574.33	1773.54
574.52	1789.92
574.71	1734.63
574.91	1726.44
575.10	1665.00
575.30	1720.29
575.49	1755.11
575.69	1740.77
575.88	1687.53
576.08	1712.10
576.27	1857.51
576.47	1753.06
576.66	1800.16
576.86	1875.94
577.05	1730.53
577.25	1779.68
577.44	1787.88
577.64	1718.25
577.83	1849.32
578.02	1779.68
578.22	1757.16
578.41	1830.88
578.61	1716.20
578.80	1677.29
579.00	1712.10
579.19	1769.44
579.39	1820.64
579.58	1748.97
579.77	1769.44
579.97	1849.32
580.16	1826.79
580.36	1845.22
580.55	1826.79
580.75	1765.35
580.94	1746.92
581.13	1865.70
581.33	1865.70
581.52	1779.68
581.72	1867.75
581.91	1837.03
582.11	1736.68
582.30	1806.31
582.49	1820.64
582.69	1861.60
582.88	1748.97
583.08	1822.69
583.27	1777.64
583.47	1699.81
583.66	1673.19
583.85	1716.20
584.05	1718.25
584.24	1718.25
584.44	1736.68
584.63	1771.49
584.82	1869.80
585.02	1826.79
585.21	1808.36
585.41	1845.22
585.60	1763.30
585.79	1980.39
585.99	1884.13
586.18	1875.94
586.37	2248.67
586.57	3313.61
586.76	9647.98
586.96	23662.23
587.15	33283.59
587.34	39034.28
587.54	40789.39
587.73	35503.59
587.93	25247.36
588.12	21032.64
588.31	17891.06
588.51	15615.76
588.70	14610.21
588.89	13692.72
589.09	12099.40
589.28	10690.40
589.47	9115.51
589.67	7831.43
589.86	6287.26
590.06	4792.25
590.25	3856.33
590.44	3088.34
590.64	2660.31
590.83	2209.76
591.02	2093.02
591.22	1916.90
591.41	1949.67
591.60	1832.93
591.80	1943.52
591.99	1773.54
592.18	1765.35
592.38	1873.89
592.57	1697.77
592.76	1753.06
592.96	1794.02
593.15	1748.97
593.34	1796.07
593.54	1787.88
593.73	1783.78
593.92	1806.31
594.12	1765.35
594.31	1781.73
594.50	1873.89
594.70	1779.68
594.89	1920.99
595.08	1691.62
595.28	1763.30
595.47	1798.12
595.66	1744.87
595.86	1710.05
596.05	1669.09
596.24	1724.39
596.43	1857.51
596.63	1800.16
596.82	1710.05
597.01	1738.73
597.21	1771.49
597.40	1722.34
597.59	1787.88
597.79	1753.06
597.98	1746.92
598.17	1751.01
598.36	1847.27
598.56	1779.68
598.75	1662.95
598.94	1748.97
599.14	1697.77
599.33	1673.19
599.52	1755.11
599.71	1761.25
599.91	1808.36
600.10	1761.25
600.29	1742.82
600.48	1779.68
600.68	1742.82
600.87	1753.06
601.06	1753.06
601.26	1808.36
601.45	1769.44
601.64	1718.25
601.83	1822.69
602.03	1683.43
602.22	1675.24
602.41	1822.69
602.60	1863.65
602.80	1867.75
602.99	1699.81
603.18	1697.77
603.37	1689.57
603.57	1724.39
603.76	1773.54
603.95	1834.98
604.14	1722.34
604.34	1695.72
604.53	1691.62
604.72	1683.43
604.91	1853.41
605.10	1728.49
605.30	1642.47
605.49	1857.51
605.68	1787.88
605.87	1810.40
606.07	1693.67
606.26	1679.33
606.45	1673.19
606.64	1755.11
606.84	1689.57
607.03	1697.77
607.22	1753.06
607.41	1730.53
607.60	1716.20
607.80	1789.92
607.99	1665.00
608.18	1730.53
608.37	1722.34
608.56	1730.53
608.76	1753.06
608.95	1910.75
609.14	1722.34
609.33	1748.97
609.52	1832.93
609.72	1712.10
609.91	1841.12
610.10	1708.01
610.29	1798.12
610.48	1730.53
610.68	1775.59
610.87	1757.16
611.06	1791.97
611.25	1777.64
611.44	1796.07
611.63	1722.34
611.83	1812.45
612.02	1589.22
612.21	1808.36
612.40	1671.14
612.59	1662.95
612.79	1726.44
612.98	1693.67
613.17	1806.31
613.36	1722.34
613.55	1798.12
613.74	1718.25
613.93	1634.28
614.13	1677.29
614.32	1738.73
614.51	1789.92
614.70	1632.23
614.89	1615.85
615.08	1742.82
615.28	2007.01
615.47	1667.05
615.66	1755.11
615.85	1751.01
616.04	1845.22
616.23	1705.96
616.42	1697.77
616.62	1669.09
616.81	1705.96
617.00	1755.11
617.19	1759.21
617.38	1646.57
617.57	1710.05
617.76	1787.88
617.95	1753.06
618.15	1722.34
618.34	1820.64
618.53	1677.29
618.72	1796.07
618.91	1767.40
619.10	1800.16
619.29	1671.14
619.48	1667.05
619.68	1683.43
619.87	1708.01
620.06	1628.14
620.25	1787.88
620.44	1851.36
620.63	1697.77
620.82	1736.68
621.01	1652.71
621.20	1683.43
621.39	1802.21
621.59	1794.02
621.78	1779.68
621.97	1701.86
622.16	1824.74
622.35	1751.01
622.54	1775.59
622.73	1783.78
622.92	1662.95
623.11	1710.05
623.30	1724.39
623.49	1746.92
623.68	1671.14
623.88	1830.88
624.07	1816.55
624.26	1687.53
624.45	1730.53
624.64	1632.23
624.83	1665.00
625.02	1712.10
625.21	1695.72
625.40	1773.54
625.59	1761.25
625.78	1775.59
625.97	1751.01
626.16	1787.88
626.35	1738.73
626.54	1753.06
626.74	1822.69
626.93	1710.05
627.12	1708.01
627.31	1695.72
627.50	1740.77
627.69	1791.97
627.88	1634.28
628.07	1712.10
628.26	1638.38
628.45	1693.67
628.64	1650.66
628.83	1769.44
629.02	1644.52
629.21	1771.49
629.40	1724.39
629.59	1656.81
629.78	1681.38
629.97	1708.01
630.16	1699.81
630.35	1771.49
630.54	1740.77
630.73	1673.19
630.92	1748.97
631.11	1689.57
631.30	1691.62
631.49	1781.73
631.68	1720.29
631.87	1705.96
632.06	1689.57
632.25	1865.70
632.44	1689.57
632.63	1689.57
632.82	1656.81
633.01	1599.46
633.20	1726.44
633.39	1638.38
633.58	1648.61
633.77	1681.38
633.96	1705.96
634.15	1761.25
634.34	1738.73
634.53	1669.09
634.72	1669.09
634.91	1665.00
635.10	1746.92
635.29	1708.01
635.48	1730.53
635.67	1640.42
635.86	1644.52
636.05	1748.97
636.24	1671.14
636.43	1652.71
636.62	1746.92
636.81	1609.70
637.00	1730.53
637.19	1779.68
637.38	1714.15
637.57	1720.29
637.76	1740.77
637.95	1779.68
638.14	1693.67
638.33	1644.52
638.52	1673.19
638.71	1714.15
638.89	1712.10
639.08	1841.12
639.27	1697.77
639.46	1681.38
639.65	1812.45
639.84	1660.90
640.03	1751.01
640.22	1621.99
640.41	1859.56
640.60	1660.90
640.79	1654.76
640.98	1673.19
641.17	1736.68
641.36	1773.54
641.55	1732.58
641.74	1669.09
641.92	1705.96
642.11	1679.33
642.30	1724.39
642.49	1628.14
642.68	1662.95
642.87	1648.61
643.06	1665.00
643.25	1751.01
643.44	1599.46
643.63	1669.09
643.82	1759.21
644.00	1669.09
644.19	1726.44
644.38	1626.09
644.57	1718.25
644.76	1673.19
644.95	1722.34
645.14	1746.92
645.33	1648.61
645.52	1736.68
645.71	1630.18
645.89	1689.57
646.08	1722.34
646.27	1640.42
646.46	1812.45
646.65	1691.62
646.84	1695.72
647.03	1695.72
647.22	1708.01
647.40	1753.06
647.59	1695.72
647.78	1632.23
647.97	1740.77
648.16	1691.62
648.35	1791.97
648.54	1732.58
648.73	1761.25
648.91	1798.12
649.10	1775.59
649.29	1593.32
649.48	1724.39
649.67	1699.81
649.86	1763.30
650.05	1730.53
650.23	1746.92
650.42	1662.95
650.61	1699.81
650.80	1736.68
650.99	1884.13
651.18	1757.16
651.36	1769.44
651.55	1714.15
651.74	1808.36
651.93	1662.95
652.12	1705.96
652.31	1761.25
652.49	1648.61
652.68	1681.38
652.87	1783.78
653.06	1708.01
653.25	1773.54
653.44	1654.76
653.62	1800.16
653.81	1685.48
654.00	1724.39
654.19	1779.68
654.38	1773.54
654.56	1742.82
654.75	1697.77
654.94	1767.40
655.13	1783.78
655.32	1636.33
655.51	1740.77
655.69	1621.99
655.88	1732.58
656.07	1681.38
656.26	1710.05
656.45	1654.76
656.63	1779.68
656.82	1705.96
657.01	1736.68
657.20	1701.86
657.38	1771.49
657.57	1726.44
657.76	1632.23
657.95	1734.63
658.14	1650.66
658.32	1718.25
658.51	1722.34
658.70	1667.05
658.89	1720.29
659.08	1687.53
659.26	1857.51
659.45	1624.04
659.64	1744.87
659.83	1656.81
660.01	1861.60
660.20	1705.96
660.39	1839.08
660.58	1593.32
660.76	1779.68
660.95	1673.19
661.14	1718.25
661.33	1628.14
661.51	1658.85
661.70	1695.72
661.89	1734.63
662.08	1714.15
662.26	1677.29
662.45	1656.81
662.64	1845.22
662.83	1738.73
663.01	1646.57
663.20	1683.43
663.39	1830.88
663.58	1712.10
663.76	1683.43
663.95	1814.50
664.14	1636.33
664.32	1689.57
664.51	1658.85
664.70	1644.52
664.89	1763.30
665.07	1648.61
665.26	1810.40
665.45	1724.39
665.64	1722.34
665.82	1708.01
666.01	1847.27
666.20	1789.92
666.38	1796.07
666.57	1841.12
666.76	2199.52
666.95	4306.88
667.13	9918.31
667.32	14950.17
667.51	17424.12
667.69	18503.40
667.88	17260.28
668.07	12132.17
668.25	9295.73
668.44	7876.49
668.63	7194.51
668.81	6664.09
669.00	6252.45
669.19	5531.56
669.38	5074.87
669.56	4597.69
669.75	3975.11
669.94	3321.81
670.12	2969.55
670.31	2598.87
670.50	2181.09
670.68	2105.31
670.87	1929.19
671.06	1820.64
671.24	1691.62
671.43	1822.69
671.62	1789.92
671.80	1632.23
671.99	1726.44
672.18	1742.82
672.36	1740.77
672.55	1724.39
672.74	1714.15
672.92	1781.73
673.11	1726.44
673.29	1667.05
673.48	1724.39
673.67	1726.44
673.85	1787.88
674.04	1601.51
674.23	1751.01
674.41	1843.17
674.60	1675.24
674.79	1632.23
674.97	1685.48
675.16	1730.53
675.34	1783.78
675.53	1730.53
675.72	1742.82
675.90	1775.59
676.09	1660.90
676.28	1695.72
676.46	1658.85
676.65	1771.49
676.83	1693.67
677.02	1689.57
677.21	1751.01
677.39	1753.06
677.58	1617.90
677.77	1652.71
677.95	1648.61
678.14	1755.11
678.32	1718.25
678.51	1724.39
678.70	1834.98
678.88	1755.11
679.07	1722.34
679.25	1658.85
679.44	1660.90
679.63	1712.10
679.81	1767.40
680.00	1734.63
680.18	1738.73
680.37	1699.81
680.55	1695.72
680.74	1652.71
680.93	1628.14
681.11	1687.53
681.30	1740.77
681.48	1691.62
681.67	1667.05
681.85	1765.35
682.04	1597.42
682.23	1767.40
682.41	1746.92
682.60	1632.23
682.78	1658.85
682.97	1685.48
683.15	1742.82
683.34	1599.46
683.53	1789.92
683.71	1662.95
683.90	1806.31
684.08	1759.21
684.27	1673.19
684.45	1712.10
684.64	1705.96
684.82	1751.01
685.01	1816.55
685.19	1708.01
685.38	1779.68
685.57	1687.53
685.75	1720.29
685.94	1671.14
686.12	1685.48
686.31	1646.57
686.49	1775.59
686.68	1562.60
686.86	1722.34
687.05	1630.18
687.23	1789.92
687.42	1728.49
687.60	1679.33
687.79	1738.73
687.97	1847.27
688.16	1773.54
688.34	1765.35
688.53	1652.71
688.71	1757.16
688.90	1718.25
689.08	1701.86
689.27	1593.32
689.45	1701.86
689.64	1697.77
689.82	1785.83
690.01	1722.34
690.19	1789.92
690.38	1677.29
690.56	1796.07
690.75	1679.33
690.93	1714.15
691.12	1650.66
691.30	1640.42
691.49	1636.33
691.67	1677.29
691.86	1837.03
692.04	1732.58
692.23	1638.38
692.41	1624.04
692.60	1742.82
692.78	1767.40
692.97	1630.18
693.15	1712.10
693.34	1779.68
693.52	1763.30
693.71	1718.25
693.89	1665.00
694.08	1601.51
694.26	1748.97
694.44	1716.20
694.63	1730.53
694.81	1605.61
695.00	1714.15
695.18	1716.20
695.37	1828.84
695.55	1712.10
695.74	1646.57
695.92	1609.70
696.10	1740.77
696.29	1597.42
696.47	1658.85
696.66	1656.81
696.84	1695.72
697.03	1611.75
697.21	1779.68
697.40	2271.20
697.58	1787.88
697.76	1689.57
697.95	1654.76
698.13	1654.76
698.32	1675.24
698.50	1636.33
698.68	1748.97
698.87	1560.55
699.05	1796.07
699.24	1648.61
699.42	1710.05
699.61	1775.59
699.79	1771.49
699.97	1718.25
700.16	1624.04
700.34	1611.75
700.53	1689.57
700.71	1839.08
700.89	1736.68
701.08	1693.67
701.26	1619.94
701.45	2131.94
701.63	1681.38
701.81	1732.58
702.00	1681.38
702.18	1636.33
702.37	1683.43
702.55	1746.92
702.73	1710.05
702.92	1650.66
703.10	1751.01
703.28	1703.91
703.47	1648.61
703.65	1839.08
703.84	1755.11
704.02	1695.72
704.20	1748.97
704.39	1759.21
704.57	1687.53
704.75	1781.73
704.94	1800.16
705.12	1718.25
705.30	1902.56
705.49	2234.33
705.67	4294.59
705.86	8957.82
706.04	12113.74
706.22	14221.10
706.41	14849.82
706.59	13274.93
706.77	9342.83
706.96	7190.42
707.14	6383.52
707.32	5732.26
707.51	5425.07
707.69	4759.48
707.87	4040.64
708.06	3366.86
708.24	2893.78
708.42	2402.27
708.61	2209.76
708.79	1865.70
708.97	1871.84
709.16	1806.31
709.34	1789.92
709.52	1710.05
709.71	1714.15
709.89	1730.53
710.07	1673.19
710.26	1658.85
710.44	1652.71
710.62	1796.07
710.80	1689.57
710.99	1767.40
711.17	1779.68
711.35	1675.24
711.54	1658.85
711.72	1777.64
711.90	1724.39
712.09	1712.10
712.27	1632.23
712.45	1722.34
712.63	1677.29
712.82	1689.57
713.00	1732.58
713.18	1787.88
713.37	1783.78
713.55	1763.30
713.73	1699.81
713.91	1843.17
714.10	1640.42
714.28	1658.85
714.46	1728.49
714.65	1722.34
714.83	1744.87
715.01	1703.91
715.19	1763.30
715.38	1669.09
715.56	1751.01
715.74	1658.85
715.92	1640.42
716.11	1800.16
716.29	1595.37
716.47	1660.90
716.65	1699.81
716.84	1650.66
717.02	1712.10
717.20	1693.67
717.38	1673.19
717.57	1697.77
717.75	1689.57
717.93	1652.71
718.11	1728.49
718.30	1634.28
718.48	1789.92
718.66	1789.92
718.84	1796.07
719.03	1736.68
719.21	1591.27
719.39	1787.88
719.57	1714.15
719.75	1705.96
719.94	1730.53
720.12	1775.59
720.30	1720.29
720.48	1736.68
720.67	1615.85
720.85	1654.76
721.03	1650.66
721.21	1705.96
721.39	1763.30
721.58	1693.67
721.76	1689.57
721.94	1708.01
722.12	1705.96
722.30	1800.16
722.49	1632.23
722.67	1748.97
722.85	1753.06
723.03	1646.57
723.21	1660.90
723.40	1687.53
723.58	1787.88
723.76	1746.92
723.94	1714.15
724.12	1683.43
724.30	1720.29
724.49	1755.11
724.67	1644.52
724.85	1746.92
725.03	1640.42
725.21	1751.01
725.40	1828.84
725.58	1677.29
725.76	1787.88
725.94	1730.53
726.12	1656.81
726.30	1699.81
726.49	1632.23
726.67	1687.53
726.85	1722.34
727.03	1771.49
727.21	2105.31
727.39	2852.82
727.57	3753.93
727.76	4050.88
727.94	4319.17
728.12	4163.52
728.30	3608.52
728.48	2930.64
728.66	2725.85
728.84	2461.66
729.03	2293.72
729.21	2209.76
729.39	1970.15
729.57	1802.21
729.75	1863.65
729.93	1951.71
730.11	1748.97
730.30	1673.19
730.48	1652.71
730.66	1753.06
730.84	1759.21
731.02	1703.91
731.20	1701.86
731.38	1656.81
731.56	1687.53
731.74	1646.57
731.93	1794.02
732.11	1611.75
732.29	1722.34
732.47	1714.15
732.65	1687.53
732.83	1814.50
733.01	1710.05
733.19	1671.14
733.37	1773.54
733.56	1703.91
733.74	1673.19
733.92	1777.64
734.10	1718.25
734.28	1708.01
734.46	1640.42
734.64	1699.81
734.82	1628.14
735.00	1716.20
735.18	1699.81
735.36	1724.39
735.54	1763.30
735.73	1724.39
735.91	1712.10
736.09	1738.73
736.27	1720.29
736.45	1726.44
736.63	1656.81
736.81	1679.33
736.99	1753.06
737.17	1818.60
737.35	1570.79
737.53	1714.15
737.71	1744.87
737.89	1781.73
738.07	1648.61
738.25	1699.81
738.43	1677.29
738.61	1771.49
738.80	1652.71
738.98	1681.38
739.16	1722.34
739.34	1662.95
739.52	1740.77
739.70	1716.20
739.88	1738.73
740.06	1761.25
740.24	1626.09
740.42	1710.05
740.60	1652.71
740.78	1630.18
740.96	1736.68
741.14	1761.25
741.32	1744.87
741.50	1566.70
741.68	1755.11
741.86	1761.25
742.04	1728.49
742.22	1740.77
742.40	1677.29
742.58	1728.49
742.76	1675.24
742.94	1730.53
743.12	1574.89
743.30	1724.39
743.48	1699.81
743.66	1638.38
743.84	1722.34
744.02	1646.57
744.20	1701.86
744.38	1675.24
744.56	1597.42
744.74	1818.60
744.92	1710.05
745.10	1771.49
745.28	1720.29
745.46	1779.68
745.64	1644.52
745.82	1658.85
746.00	1748.97
746.18	1701.86
746.36	1613.80
746.54	1695.72
746.72	1621.99
746.90	1601.51
747.08	1785.83
747.26	1730.53
747.44	1726.44
747.62	1736.68
747.80	1697.77
747.98	1634.28
748.15	1675.24
748.33	1855.46
748.51	1710.05
748.69	1730.53
748.87	1652.71
749.05	1740.77
749.23	1626.09
749.41	1755.11
749.59	1716.20
749.77	1798.12
749.95	1757.16
750.13	1585.13
750.31	1701.86
750.49	1697.77
750.67	1728.49
750.85	1763.30
751.03	1757.16
751.20	1812.45
751.38	1701.86
751.56	1652.71
751.74	1742.82
751.92	1646.57
752.10	1632.23
752.28	1732.58
752.46	1665.00
752.64	1658.85
752.82	1746.92
753.00	1687.53
753.18	1708.01
753.35	1662.95
753.53	1665.00
753.71	1599.46
753.89	1738.73
754.07	1677.29
754.25	1765.35
754.43	1681.38
754.61	1699.81
754.79	1689.57
754.97	1658.85
755.14	1734.63
755.32	1595.37
755.50	1718.25
755.68	1746.92
755.86	1691.62
756.04	1705.96
756.22	1550.31
756.40	1718.25
756.57	1775.59
756.75	1691.62
756.93	1642.47
757.11	1722.34
757.29	1617.90
757.47	1656.81
757.65	1658.85
757.82	1542.12
758.00	1658.85
758.18	1673.19
758.36	1617.90
758.54	1820.64
758.72	1681.38
758.90	1759.21
759.07	1699.81
759.25	1722.34
759.43	1708.01
759.61	1667.05
759.79	2211.81
759.97	1714.15
760.15	1646.57
760.32	1689.57
760.50	1734.63
760.68	1691.62
760.86	1669.09
761.04	1722.34
761.22	1773.54
761.39	1667.05
761.57	1732.58
761.75	1699.81
761.93	1732.58
762.11	1681.38
762.28	1794.02
762.46	1675.24
762.64	1806.31
762.82	1644.52
763.00	1665.00
763.18	1761.25
763.35	1689.57
763.53	1654.76
763.71	1720.29
763.89	1705.96
764.07	1759.21
764.24	1685.48
764.42	1720.29
764.60	1722.34
764.78	1771.49
764.96	1757.16
765.13	1718.25
765.31	1710.05
765.49	1738.73
765.67	1632.23
765.84	1656.81
766.02	1654.76
766.20	1578.98
766.38	1738.73
766.56	1722.34
766.73	1716.20
766.91	1722.34
767.09	1738.73
767.27	1681.38
767.44	1626.09
767.62	1755.11
767.80	1767.40
767.98	1642.47
768.15	1679.33
768.33	1722.34
768.51	1640.42
768.69	1701.86
768.87	1734.63
769.04	1683.43
769.22	1771.49
769.40	1771.49
769.58	1908.71
769.75	1619.94
769.93	1673.19
770.11	1617.90
770.28	1626.09
770.46	1748.97
770.64	1748.97
770.82	1705.96
770.99	1708.01
771.17	1759.21
771.35	1667.05
771.53	1689.57
771.70	1718.25
771.88	1763.30
772.06	1703.91
772.23	1630.18
772.41	1701.86
772.59	1701.86
772.77	1720.29
772.94	1701.86
773.12	1730.53
773.30	1728.49
773.47	1701.86
773.65	1626.09
773.83	1812.45
774.01	1640.42
774.18	1566.70
774.36	1675.24
774.54	1675.24
774.71	1718.25
774.89	1566.70
775.07	1626.09
775.24	1691.62
775.42	1624.04
775.60	1761.25
775.78	1701.86
775.95	1697.77
776.13	1638.38
776.31	1613.80
776.48	1701.86
776.66	1720.29
776.84	1755.11
777.01	1677.29
777.19	1683.43
777.37	1673.19
777.54	1669.09
777.72	1800.16
777.90	1677.29
778.07	1652.71
778.25	1869.80
778.43	1822.69
778.60	1695.72
778.78	1757.16
778.96	1720.29
779.13	1660.90
779.31	1843.17
779.49	1656.81
779.66	1654.76
779.84	1669.09
780.01	1705.96
780.19	1644.52
780.37	1705.96
780.54	1744.87
780.72	1701.86
780.90	1648.61
781.07	1710.05
781.25	1609.70
781.43	1767.40
781.60	1644.52
781.78	1751.01
781.95	1708.01
782.13	1660.90
782.31	1716.20
782.48	1552.36
782.66	1673.19
782.83	1767.40
783.01	1736.68
783.19	1755.11
783.36	1640.42
783.54	1642.47
783.72	1740.77
783.89	1714.15
784.07	1740.77
784.24	1730.53
784.42	1783.78
784.60	1787.88
784.77	1742.82
784.95	1576.94
785.12	1705.96
785.30	1777.64
785.47	1683.43
785.65	1708.01
785.83	1665.00
786.00	1636.33
786.18	1638.38
786.35	1685.48
786.53	1628.14
786.71	1718.25
786.88	1693.67
787.06	1738.73
787.23	1693.67
787.41	1671.14
787.58	1669.09
787.76	1716.20
787.94	1763.30
788.11	1722.34
788.29	1648.61
788.46	1703.91
788.64	1654.76
788.81	1617.90
788.99	1667.05
789.16	1642.47
789.34	1640.42
789.52	1583.08
789.69	1601.51
789.87	1587.18
790.04	1675.24
790.22	1783.78
790.39	1816.55
790.57	1730.53
790.74	1619.94
790.92	1693.67
791.09	1697.77
791.27	1779.68
791.44	1767.40
791.62	1732.58
791.79	1681.38
791.97	1669.09
792.15	1898.47
792.32	1691.62
792.50	1681.38
792.67	1828.84
792.85	1775.59
793.02	1714.15
793.20	1665.00
793.37	1638.38
793.55	1673.19
793.72	1621.99
793.90	1673.19
794.07	1648.61
794.25	1679.33
794.42	1746.92
794.60	1660.90
794.77	1728.49
794.95	1771.49
795.12	1705.96
795.30	1695.72
795.47	1658.85
795.65	1873.89
795.82	1652.71
796.00	1599.46
796.17	1738.73
796.34	1615.85
796.52	1710.05
796.69	1734.63
796.87	1722.34
797.04	1802.21
797.22	1728.49
797.39	1660.90
797.57	1685.48
797.74	1689.57
797.92	1730.53
798.09	1681.38
798.27	1769.44
798.44	1673.19
798.62	1667.05
798.79	1714.15
798.96	1759.21
799.14	1650.66
799.31	1742.82
799.49	1673.19
799.66	1648.61
799.84	1740.77
800.01	1621.99
800.19	1779.68
800.36	1626.09
800.53	1681.38
800.71	1746.92
800.88	1740.77
801.06	1695.72
801.23	1697.77
801.41	1712.10
801.58	1607.66
801.75	1665.00
801.93	1619.94
802.10	1724.39
802.28	1685.48
802.45	1660.90
802.63	1720.29
802.80	1761.25
802.97	1646.57
803.15	1712.10
803.32	1642.47
803.50	1638.38
803.67	1675.24
803.84	1734.63
804.02	1767.40
804.19	1736.68
804.37	1574.89
804.54	1621.99
804.71	1603.56
804.89	1722.34
805.06	1628.14
805.24	1656.81
805.41	1689.57
805.58	1646.57
805.76	1822.69
805.93	1746.92
806.10	1779.68
806.28	1755.11
806.45	1724.39
806.63	1746.92
806.80	1726.44
806.97	1708.01
807.15	1722.34
807.32	1730.53
807.49	1697.77
807.67	1691.62
807.84	1705.96
808.01	1716.20
808.19	1849.32
808.36	1738.73
808.54	1699.81
808.71	1634.28
808.88	1736.68
809.06	1679.33
809.23	1761.25
809.40	1644.52
809.58	1787.88
809.75	1716.20
809.92	1714.15
810.10	1804.26
810.27	1746.92
810.44	1738.73
810.62	1701.86
810.79	1703.91
810.96	1646.57
811.14	1656.81
811.31	1705.96
811.48	1714.15
811.66	1714.15
811.83	1828.84
812.00	1681.38
812.18	1765.35
812.35	1785.83
812.52	1611.75
812.69	1767.40
812.87	1658.85
813.04	1632.23
813.21	1689.57
813.39	1677.29
813.56	1652.71
813.73	1748.97
813.91	1691.62
814.08	1783.78
814.25	1646.57
814.42	1642.47
814.60	1732.58
814.77	1689.57
814.94	1677.29
815.12	1791.97
815.29	1771.49
815.46	1701.86
815.63	1693.67
815.81	1742.82
815.98	1652.71
816.15	1601.51
816.33	1607.66
816.50	1660.90
816.67	1665.00
816.84	1671.14
817.02	1669.09
817.19	1720.29
817.36	1691.62
817.53	1791.97
817.71	1648.61
817.88	1746.92
818.05	1736.68
818.22	1689.57
818.40	1841.12
818.57	1699.81
818.74	1726.44
818.91	1669.09
819.09	1691.62
819.26	1677.29
819.43	1699.81
819.60	1689.57
819.78	1748.97
819.95	1791.97
820.12	1681.38
820.29	1726.44
820.47	1816.55
820.64	1550.31
820.81	1665.00
820.98	1640.42
821.15	1699.81
821.33	1771.49
821.50	1652.71
821.67	1714.15
821.84	1677.29
822.02	1746.92
822.19	1751.01
822.36	1634.28
822.53	1642.47
822.70	1687.53
822.88	1656.81
823.05	1771.49
823.22	1695.72
823.39	1726.44
823.56	1734.63
823.74	1755.11
823.91	1652.71
824.08	1705.96
824.25	1613.80
824.42	1847.27
824.60	1710.05
824.77	1720.29
824.94	1683.43
825.11	1671.14
825.28	1593.32
825.45	1662.95
825.63	1673.19
825.80	1679.33
825.97	1730.53
826.14	1673.19
826.31	1605.61
826.48	1693.67
826.66	1607.66
826.83	1722.34
827.00	1599.46
827.17	1628.14
827.34	1689.57
827.51	1695.72
827.69	1667.05
827.86	1619.94
828.03	1607.66
828.20	1726.44
828.37	1665.00
828.54	1734.63
828.71	1589.22
828.89	1714.15
829.06	1742.82
829.23	1806.31
829.40	1630.18
829.57	1626.09
829.74	1718.25
829.91	1701.86
830.09	1665.00
830.26	1665.00
830.43	1732.58
830.60	1691.62
830.77	1734.63
830.94	1736.68
831.11	1701.86
831.28	1740.77
831.46	1834.98
831.63	1738.73
831.80	1734.63
831.97	1796.07
832.14	1734.63
832.31	1734.63
832.48	1683.43
832.65	1796.07
832.82	1722.34
832.99	1705.96
833.17	1685.48
833.34	1789.92
833.51	1677.29
833.68	1609.70
833.85	1744.87
834.02	1632.23
834.19	1589.22
834.36	1673.19
834.53	1726.44
834.70	1757.16
834.87	1710.05
835.04	1681.38
835.22	1599.46
835.39	1728.49
835.56	1601.51
835.73	1667.05
835.90	1783.78
836.07	1650.66
836.24	1789.92
836.41	1607.66
836.58	1599.46
836.75	1783.78
836.92	1794.02
837.09	1658.85
837.26	1759.21
837.43	1708.01
837.60	1755.11
837.77	1644.52
837.94	1755.11
838.12	1705.96
838.29	1701.86
838.46	1632.23
838.63	1636.33
838.80	1806.31
838.97	1767.40
839.14	1699.81
839.31	1624.04
839.48	1705.96
839.65	1677.29
839.82	1716.20
839.99	1701.86
840.16	1687.53
840.33	1617.90
840.50	1718.25
840.67	1621.99
840.84	1566.70
841.01	1708.01
841.18	1705.96
841.35	1701.86
841.52	1748.97
841.69	1742.82
841.86	1677.29
842.03	1695.72
842.20	1687.53
842.37	1716.20
842.54	1652.71
842.71	1697.77
842.88	1583.08
843.05	1767.40
843.22	1787.88
843.39	1669.09
843.56	1656.81
843.73	1669.09
843.90	1712.10
844.07	1708.01
844.24	1765.35
844.41	1763.30
844.58	1673.19
844.75	1687.53
844.92	1783.78
845.09	1650.66
845.26	1685.48
845.43	1783.78
845.60	1648.61
845.77	1806.31
845.94	1722.34
846.10	1744.87
846.27	1701.86
846.44	1636.33
846.61	1671.14
846.78	1736.68
846.95	1744.87
847.12	1667.05
847.29	1691.62
847.46	1705.96
847.63	1728.49
847.80	1642.47
847.97	1697.77
848.14	1820.64
848.31	1667.05
848.48	1615.85
848.65	1697.77
848.82	1673.19
848.98	1753.06
849.15	1771.49
849.32	1855.46
849.49	1775.59
849.66	1722.34
849.83	1695.72
850.00	1640.42
850.17	1787.88
850.34	1714.15
850.51	1669.09
850.68	1714.15
850.85	1714.15
851.01	1755.11
851.18	1722.34
851.35	1669.09
851.52	1701.86
851.69	1789.92
851.86	1656.81
852.03	1681.38
852.20	1802.21
852.37	1658.85
852.53	1624.04
852.70	1726.44
852.87	1730.53
853.04	1683.43
853.21	1822.69
853.38	1796.07
853.55	1728.49
853.72	1738.73
853.89	1673.19
854.05	1656.81
854.22	1693.67
854.39	1673.19
854.56	1767.40
854.73	1810.40
854.90	1570.79
855.07	1654.76
855.23	1630.18
855.40	1601.51
855.57	1628.14
855.74	1550.31
855.91	1912.80
856.08	1679.33
856.25	1646.57
856.41	1734.63
856.58	1658.85
856.75	1701.86
856.92	1679.33
857.09	1734.63
857.26	1740.77
857.42	1738.73
857.59	1787.88
857.76	1710.05
857.93	1738.73
858.10	1718.25
858.27	1617.90
858.43	1656.81
858.60	1689.57
858.77	1658.85
858.94	1671.14
859.11	1765.35
859.27	1650.66
859.44	1656.81
859.61	1841.12
859.78	1765.35
859.95	1644.52
860.12	1683.43
860.28	1742.82
860.45	1818.60
860.62	1632.23
860.79	1777.64
860.95	1755.11
861.12	1632.23
861.29	1591.27
861.46	1593.32
861.63	1675.24
861.79	1738.73
861.96	1638.38
862.13	1746.92
862.30	1665.00
862.47	1560.55
862.63	1683.43
862.80	1742.82
862.97	1773.54
863.14	1728.49
863.30	1701.86
863.47	1634.28
863.64	1710.05
863.81	1669.09
863.97	1705.96
864.14	1722.34
864.31	1658.85
864.48	1742.82
864.65	1654.76
864.81	1810.40
864.98	1771.49
865.15	1755.11
865.32	1746.92
865.48	1718.25
865.65	1791.97
865.82	1673.19
865.98	1710.05
866.15	1763.30
866.32	1652.71
866.49	1699.81
866.65	1708.01
866.82	1632.23
866.99	1681.38
867.16	1673.19
867.32	1648.61
867.49	1665.00
867.66	1624.04
867.83	1662.95
867.99	1689.57
868.16	1730.53
868.33	1638.38
868.49	1724.39
868.66	1646.57
868.83	1759.21
868.99	1710.05
869.16	1746.92
869.33	1757.16
869.50	1753.06
869.66	1632.23
869.83	1787.88
870.00	1583.08
870.16	1671.14
870.33	1632.23
870.50	1734.63
870.66	1789.92
870.83	1738.73
871.00	1687.53
871.17	1732.58
871.33	1755.11
871.50	1679.33
871.67	1634.28
871.83	1607.66
872.00	1734.63
872.17	1656.81
872.33	1767.40
872.50	1763.30
872.67	1683.43
872.83	1705.96
873.00	1652.71
873.17	1714.15
873.33	1718.25
873.50	1695.72
873.67	1609.70
873.83	1619.94
874.00	1638.38
874.16	1818.60
874.33	1689.57
874.50	1667.05
874.66	1656.81
874.83	1730.53
875.00	1722.34
875.16	1691.62
875.33	1697.77
875.50	1529.83
875.66	1697.77
875.83	1746.92
875.99	1701.86
876.16	1701.86
876.33	1665.00
876.49	1697.77
876.66	1728.49
876.83	1683.43
876.99	1708.01
877.16	1718.25
877.32	1705.96
877.49	1712.10
877.66	1689.57
877.82	1681.38
877.99	1677.29
878.15	1775.59
878.32	1714.15
878.49	1710.05
878.65	1644.52
878.82	1751.01
878.98	1699.81
879.15	1738.73
879.32	1787.88
879.48	1656.81
879.65	1689.57
879.81	1671.14
879.98	1652.71
880.15	1683.43
880.31	1742.82
880.48	1634.28
880.64	1779.68
880.81	1755.11
880.97	1791.97
881.14	1808.36
881.31	1689.57
881.47	1806.31
881.64	1640.42
881.80	1552.36
881.97	1660.90
882.13	1703.91
882.30	1660.90
882.47	1757.16
882.63	1726.44
882.80	1705.96
882.96	1638.38
883.13	1687.53
883.29	1732.58
883.46	1671.14
883.62	1800.16
883.79	1748.97
883.95	1695.72
884.12	1691.62
884.29	1744.87
884.45	1677.29
884.62	1787.88
884.78	1617.90
884.95	1775.59
885.11	1705.96
885.28	1718.25
885.44	1669.09
885.61	1689.57
885.77	1726.44
885.94	1765.35
886.10	1611.75
886.27	1679.33
886.43	1742.82
886.60	1765.35
886.76	1681.38
886.93	1701.86
887.09	1738.73
887.26	1574.89
887.42	1742.82
887.59	1689.57
887.75	1804.26
887.92	1777.64
888.08	1742.82
888.25	1812.45
888.41	1761.25
888.58	1724.39
888.74	1716.20
888.91	1632.23
>>>>>End Processed Spectral Data<<<<<
