SpectraSuite Data File
++++++++++++++++++++++++++++++++++++
Date: Mon Jun 06 17:20:37 CEST 2016
User: root
Dark Spectrum Present: No
Reference Spectrum Present: No
Number of Sampled Component Spectra: 1
Spectrometers: USB4C02835
Integration Time (usec): 100000 (USB4C02835)
Spectra Averaged: 1 (USB4C02835)
Boxcar Smoothing: 0 (USB4C02835)
Correct for Electrical Dark: No (USB4C02835)
Strobe/Lamp Enabled: No (USB4C02835)
Correct for Detector Non-linearity: No (USB4C02835)
Correct for Stray Light: No (USB4C02835)
Number of Pixels in Processed Spectrum: 3648
>>>>>Begin Processed Spectral Data<<<<<
177.47	1460.20
177.69	1460.20
177.91	1460.20
178.13	1445.87
178.36	1488.87
178.58	1626.09
178.80	1742.82
179.02	1665.00
179.24	1595.37
179.46	1665.00
179.68	1804.26
179.90	1658.85
180.13	1710.05
180.35	1650.66
180.57	1705.96
180.79	1761.25
181.01	1716.20
181.23	1710.05
181.45	1697.77
181.67	1742.82
181.90	1759.21
182.12	1669.09
182.34	1667.05
182.56	1742.82
182.78	1736.68
183.00	1701.86
183.22	1648.61
183.44	1615.85
183.66	1863.65
183.89	1740.77
184.11	1820.64
184.33	1742.82
184.55	1796.07
184.77	1671.14
184.99	1738.73
185.21	1673.19
185.43	1800.16
185.65	1642.47
185.87	1671.14
186.10	1884.13
186.32	1914.85
186.54	1677.29
186.76	1738.73
186.98	1738.73
187.20	1660.90
187.42	1681.38
187.64	1656.81
187.86	1722.34
188.08	1730.53
188.30	1699.81
188.52	1742.82
188.75	1742.82
188.97	1785.83
189.19	1628.14
189.41	1632.23
189.63	1761.25
189.85	1720.29
190.07	1673.19
190.29	1656.81
190.51	1742.82
190.73	1632.23
190.95	1744.87
191.17	1705.96
191.39	1636.33
191.61	1738.73
191.84	1722.34
192.06	1742.82
192.28	1658.85
192.50	1814.50
192.72	1798.12
192.94	1689.57
193.16	1818.60
193.38	1722.34
193.60	1693.67
193.82	1736.68
194.04	1812.45
194.26	1736.68
194.48	1742.82
194.70	1728.49
194.92	1671.14
195.14	1767.40
195.36	1695.72
195.58	1681.38
195.80	1683.43
196.02	1669.09
196.24	1665.00
196.46	1746.92
196.69	1656.81
196.91	1802.21
197.13	1744.87
197.35	1599.46
197.57	1761.25
197.79	1716.20
198.01	1677.29
198.23	1742.82
198.45	1740.77
198.67	1609.70
198.89	1718.25
199.11	1689.57
199.33	1671.14
199.55	1626.09
199.77	1654.76
199.99	1769.44
200.21	1687.53
200.43	1773.54
200.65	1716.20
200.87	1632.23
201.09	1720.29
201.31	1730.53
201.53	1789.92
201.75	1773.54
201.97	1703.91
202.19	1773.54
202.41	1765.35
202.63	1798.12
202.85	1730.53
203.07	1767.40
203.29	1689.57
203.51	1722.34
203.73	1642.47
203.95	1875.94
204.17	1705.96
204.39	1722.34
204.61	1781.73
204.83	1685.48
205.05	1837.03
205.27	1699.81
205.49	1863.65
205.71	1779.68
205.93	1699.81
206.15	1656.81
206.37	1667.05
206.59	1738.73
206.81	1654.76
207.03	1697.77
207.25	1660.90
207.47	1806.31
207.69	1675.24
207.91	1742.82
208.13	1791.97
208.34	1689.57
208.56	1605.61
208.78	1730.53
209.00	1673.19
209.22	1718.25
209.44	1693.67
209.66	1738.73
209.88	1693.67
210.10	1665.00
210.32	1691.62
210.54	1777.64
210.76	1712.10
210.98	1779.68
211.20	1564.65
211.42	1675.24
211.64	1832.93
211.86	1718.25
212.08	1763.30
212.30	1814.50
212.52	1708.01
212.74	1773.54
212.96	1742.82
213.17	1763.30
213.39	1740.77
213.61	1822.69
213.83	1728.49
214.05	1638.38
214.27	1712.10
214.49	1578.98
214.71	1667.05
214.93	1777.64
215.15	1644.52
215.37	1753.06
215.59	1624.04
215.81	1708.01
216.03	1751.01
216.24	1710.05
216.46	1695.72
216.68	1716.20
216.90	1736.68
217.12	1765.35
217.34	1722.34
217.56	1791.97
217.78	1779.68
218.00	1751.01
218.22	1748.97
218.44	1714.15
218.66	1746.92
218.87	1751.01
219.09	1685.48
219.31	1677.29
219.53	1748.97
219.75	1654.76
219.97	1685.48
220.19	1718.25
220.41	1703.91
220.63	1853.41
220.85	1728.49
221.06	1699.81
221.28	1699.81
221.50	1697.77
221.72	1697.77
221.94	1632.23
222.16	1705.96
222.38	1738.73
222.60	1755.11
222.82	1746.92
223.03	1726.44
223.25	1634.28
223.47	1808.36
223.69	1849.32
223.91	1773.54
224.13	1710.05
224.35	1701.86
224.57	1718.25
224.78	1742.82
225.00	1665.00
225.22	1787.88
225.44	1726.44
225.66	1746.92
225.88	1650.66
226.10	1843.17
226.32	1732.58
226.53	1740.77
226.75	1736.68
226.97	1742.82
227.19	1714.15
227.41	1646.57
227.63	1685.48
227.85	1626.09
228.06	1791.97
228.28	1662.95
228.50	1714.15
228.72	1689.57
228.94	1640.42
229.16	1597.42
229.37	1658.85
229.59	1675.24
229.81	1763.30
230.03	1738.73
230.25	1568.74
230.47	1644.52
230.69	1617.90
230.90	1761.25
231.12	1652.71
231.34	1767.40
231.56	1748.97
231.78	1669.09
232.00	1726.44
232.21	1685.48
232.43	1656.81
232.65	1599.46
232.87	1708.01
233.09	1701.86
233.30	1644.52
233.52	1710.05
233.74	1734.63
233.96	1689.57
234.18	1720.29
234.40	1646.57
234.61	1806.31
234.83	1640.42
235.05	1632.23
235.27	1834.98
235.49	1748.97
235.70	1681.38
235.92	1845.22
236.14	1783.78
236.36	1830.88
236.58	1632.23
236.79	1734.63
237.01	1755.11
237.23	1667.05
237.45	1734.63
237.67	1654.76
237.88	1624.04
238.10	1800.16
238.32	1705.96
238.54	1656.81
238.76	1646.57
238.97	1673.19
239.19	1656.81
239.41	1757.16
239.63	1814.50
239.85	1671.14
240.06	1671.14
240.28	1722.34
240.50	1732.58
240.72	1744.87
240.93	1718.25
241.15	1746.92
241.37	1732.58
241.59	1765.35
241.81	1763.30
242.02	1640.42
242.24	1730.53
242.46	1699.81
242.68	1683.43
242.89	1746.92
243.11	1744.87
243.33	1656.81
243.55	1646.57
243.76	1740.77
243.98	1636.33
244.20	1767.40
244.42	1763.30
244.64	1646.57
244.85	1650.66
245.07	1599.46
245.29	1800.16
245.51	1671.14
245.72	1755.11
245.94	1730.53
246.16	1716.20
246.38	1675.24
246.59	1624.04
246.81	1732.58
247.03	1757.16
247.24	1654.76
247.46	1669.09
247.68	1652.71
247.90	1740.77
248.11	1656.81
248.33	1728.49
248.55	1724.39
248.77	1789.92
248.98	1726.44
249.20	1828.84
249.42	1775.59
249.64	1785.83
249.85	1671.14
250.07	1669.09
250.29	1683.43
250.50	1724.39
250.72	1640.42
250.94	1728.49
251.16	1855.46
251.37	1791.97
251.59	1716.20
251.81	1718.25
252.02	1787.88
252.24	1703.91
252.46	1839.08
252.68	1722.34
252.89	1644.52
253.11	1552.36
253.33	1834.98
253.54	1822.69
253.76	1656.81
253.98	1814.50
254.20	1695.72
254.41	1578.98
254.63	1667.05
254.85	1601.51
255.06	1722.34
255.28	1726.44
255.50	1738.73
255.71	1632.23
255.93	1673.19
256.15	1650.66
256.36	1705.96
256.58	1630.18
256.80	1732.58
257.02	1705.96
257.23	1658.85
257.45	1681.38
257.67	1665.00
257.88	1675.24
258.10	1771.49
258.32	1697.77
258.53	1679.33
258.75	1824.74
258.97	1658.85
259.18	1742.82
259.40	1724.39
259.62	1863.65
259.83	1791.97
260.05	1759.21
260.27	2011.11
260.48	1765.35
260.70	1669.09
260.92	1730.53
261.13	1708.01
261.35	1730.53
261.57	1751.01
261.78	1611.75
262.00	1595.37
262.22	1720.29
262.43	1646.57
262.65	1605.61
262.86	1738.73
263.08	1826.79
263.30	1652.71
263.51	1685.48
263.73	1703.91
263.95	1783.78
264.16	1626.09
264.38	1654.76
264.60	1796.07
264.81	1722.34
265.03	1738.73
265.25	1857.51
265.46	1695.72
265.68	1783.78
265.89	1724.39
266.11	1644.52
266.33	1785.83
266.54	1730.53
266.76	1732.58
266.98	1742.82
267.19	1773.54
267.41	1775.59
267.62	1673.19
267.84	1621.99
268.06	1742.82
268.27	1779.68
268.49	1818.60
268.70	1775.59
268.92	1681.38
269.14	1685.48
269.35	1652.71
269.57	1687.53
269.79	1714.15
270.00	1673.19
270.22	1853.41
270.43	1714.15
270.65	1619.94
270.87	1689.57
271.08	1757.16
271.30	1728.49
271.51	1669.09
271.73	1779.68
271.95	1746.92
272.16	1841.12
272.38	1796.07
272.59	1697.77
272.81	1771.49
273.02	1640.42
273.24	1781.73
273.46	1746.92
273.67	1642.47
273.89	1652.71
274.10	1718.25
274.32	1791.97
274.54	1708.01
274.75	1751.01
274.97	1642.47
275.18	1775.59
275.40	1742.82
275.61	1775.59
275.83	1720.29
276.05	1644.52
276.26	1732.58
276.48	1746.92
276.69	1740.77
276.91	1718.25
277.12	1718.25
277.34	1783.78
277.55	1675.24
277.77	1742.82
277.99	1656.81
278.20	1587.18
278.42	1660.90
278.63	1689.57
278.85	1683.43
279.06	1736.68
279.28	1738.73
279.49	1769.44
279.71	1761.25
279.93	1757.16
280.14	1753.06
280.36	1677.29
280.57	1728.49
280.79	1755.11
281.00	1675.24
281.22	1638.38
281.43	1789.92
281.65	1599.46
281.86	1681.38
282.08	1695.72
282.29	1859.56
282.51	1701.86
282.73	1583.08
282.94	1677.29
283.16	1677.29
283.37	1812.45
283.59	1708.01
283.80	1767.40
284.02	1714.15
284.23	1800.16
284.45	1646.57
284.66	1679.33
284.88	1673.19
285.09	1732.58
285.31	1736.68
285.52	1681.38
285.74	1642.47
285.95	1779.68
286.17	1697.77
286.38	1791.97
286.60	1695.72
286.81	1740.77
287.03	1679.33
287.24	1769.44
287.46	1781.73
287.67	1748.97
287.89	1796.07
288.10	1667.05
288.32	1724.39
288.53	1714.15
288.75	1675.24
288.96	1812.45
289.18	1626.09
289.39	1714.15
289.61	1791.97
289.82	1834.98
290.04	1863.65
290.25	1630.18
290.47	1683.43
290.68	1660.90
290.90	1777.64
291.11	1630.18
291.33	1755.11
291.54	1609.70
291.76	1679.33
291.97	1671.14
292.18	1734.63
292.40	1683.43
292.61	1669.09
292.83	1802.21
293.04	1714.15
293.26	1789.92
293.47	1644.52
293.69	1673.19
293.90	1703.91
294.12	1761.25
294.33	1697.77
294.55	1716.20
294.76	1755.11
294.97	1785.83
295.19	1820.64
295.40	1701.86
295.62	1701.86
295.83	1740.77
296.05	1675.24
296.26	1781.73
296.48	1662.95
296.69	1701.86
296.90	1652.71
297.12	1710.05
297.33	1765.35
297.55	1716.20
297.76	1685.48
297.98	1775.59
298.19	1689.57
298.41	1710.05
298.62	1695.72
298.83	1791.97
299.05	1748.97
299.26	1722.34
299.48	1767.40
299.69	1767.40
299.90	1769.44
300.12	1689.57
300.33	1765.35
300.55	1726.44
300.76	1740.77
300.98	1746.92
301.19	1732.58
301.40	1652.71
301.62	1675.24
301.83	1683.43
302.05	1734.63
302.26	1710.05
302.47	1763.30
302.69	1615.85
302.90	1738.73
303.12	1624.04
303.33	1724.39
303.54	1775.59
303.76	1591.27
303.97	1665.00
304.19	1798.12
304.40	1681.38
304.61	1693.67
304.83	1867.75
305.04	1722.34
305.26	1718.25
305.47	1601.51
305.68	1716.20
305.90	1710.05
306.11	1812.45
306.33	1640.42
306.54	1734.63
306.75	1675.24
306.97	1609.70
307.18	1689.57
307.39	1669.09
307.61	1769.44
307.82	1779.68
308.04	1697.77
308.25	1708.01
308.46	1720.29
308.68	1789.92
308.89	1740.77
309.10	1837.03
309.32	1714.15
309.53	1626.09
309.74	1734.63
309.96	1718.25
310.17	1837.03
310.39	1613.80
310.60	1755.11
310.81	1710.05
311.03	1626.09
311.24	1718.25
311.45	1734.63
311.67	1802.21
311.88	1718.25
312.09	1677.29
312.31	1652.71
312.52	1802.21
312.73	1699.81
312.95	1562.60
313.16	1673.19
313.37	1820.64
313.59	1759.21
313.80	1753.06
314.01	1765.35
314.23	1691.62
314.44	1669.09
314.65	1609.70
314.87	1689.57
315.08	1632.23
315.29	1658.85
315.51	1617.90
315.72	1607.66
315.93	1896.42
316.15	1779.68
316.36	1634.28
316.57	1687.53
316.79	1769.44
317.00	1748.97
317.21	1673.19
317.43	1689.57
317.64	1718.25
317.85	1646.57
318.07	1665.00
318.28	1705.96
318.49	1783.78
318.70	1986.53
318.92	1830.88
319.13	1802.21
319.34	1804.26
319.56	1802.21
319.77	1722.34
319.98	1855.46
320.20	1771.49
320.41	1755.11
320.62	1779.68
320.83	1689.57
321.05	1830.88
321.26	1740.77
321.47	1759.21
321.69	1824.74
321.90	1611.75
322.11	1642.47
322.32	1636.33
322.54	1771.49
322.75	1628.14
322.96	1877.99
323.18	1705.96
323.39	1628.14
323.60	1669.09
323.81	1755.11
324.03	1783.78
324.24	1621.99
324.45	1714.15
324.66	1691.62
324.88	1783.78
325.09	1808.36
325.30	1689.57
325.52	1769.44
325.73	1767.40
325.94	1699.81
326.15	1679.33
326.37	1685.48
326.58	1783.78
326.79	1771.49
327.00	1636.33
327.22	1681.38
327.43	1658.85
327.64	1703.91
327.85	1722.34
328.07	1669.09
328.28	1802.21
328.49	1615.85
328.70	1679.33
328.92	1681.38
329.13	1705.96
329.34	1791.97
329.55	1875.94
329.76	1708.01
329.98	1681.38
330.19	1859.56
330.40	1714.15
330.61	1742.82
330.83	1675.24
331.04	1626.09
331.25	1624.04
331.46	1728.49
331.68	1560.55
331.89	1695.72
332.10	1642.47
332.31	1660.90
332.52	1703.91
332.74	1894.37
332.95	1669.09
333.16	1771.49
333.37	1746.92
333.58	1769.44
333.80	1654.76
334.01	1732.58
334.22	1738.73
334.43	1652.71
334.64	1734.63
334.86	1503.21
335.07	1662.95
335.28	1761.25
335.49	1632.23
335.70	1748.97
335.92	1789.92
336.13	1894.37
336.34	1779.68
336.55	1665.00
336.76	1642.47
336.98	1613.80
337.19	1660.90
337.40	1769.44
337.61	1865.70
337.82	1751.01
338.04	1767.40
338.25	1718.25
338.46	1701.86
338.67	1695.72
338.88	1681.38
339.09	1753.06
339.31	1681.38
339.52	1669.09
339.73	1656.81
339.94	1652.71
340.15	1769.44
340.36	1595.37
340.58	1720.29
340.79	1650.66
341.00	1726.44
341.21	1644.52
341.42	1808.36
341.63	1703.91
341.85	1761.25
342.06	1767.40
342.27	1705.96
342.48	1665.00
342.69	1650.66
342.90	1679.33
343.12	1710.05
343.33	1693.67
343.54	1769.44
343.75	1767.40
343.96	1710.05
344.17	1640.42
344.38	1646.57
344.60	1636.33
344.81	1708.01
345.02	1677.29
345.23	1818.60
345.44	1806.31
345.65	1748.97
345.86	1710.05
346.07	1652.71
346.29	1710.05
346.50	1783.78
346.71	1734.63
346.92	1787.88
347.13	1808.36
347.34	1646.57
347.55	1746.92
347.76	1736.68
347.98	1593.32
348.19	1685.48
348.40	1849.32
348.61	1724.39
348.82	1855.46
349.03	1796.07
349.24	1656.81
349.45	1837.03
349.66	1650.66
349.88	1714.15
350.09	1613.80
350.30	1757.16
350.51	1832.93
350.72	1693.67
350.93	1800.16
351.14	1701.86
351.35	1724.39
351.56	1648.61
351.77	1638.38
351.99	1816.55
352.20	1757.16
352.41	1824.74
352.62	1609.70
352.83	1796.07
353.04	1736.68
353.25	1759.21
353.46	1849.32
353.67	1740.77
353.88	1628.14
354.09	1722.34
354.30	1708.01
354.52	1810.40
354.73	1720.29
354.94	1689.57
355.15	1755.11
355.36	1783.78
355.57	1744.87
355.78	1728.49
355.99	1677.29
356.20	1710.05
356.41	1761.25
356.62	1701.86
356.83	1708.01
357.04	1839.08
357.25	1615.85
357.46	1667.05
357.68	1673.19
357.89	1644.52
358.10	1703.91
358.31	1701.86
358.52	1720.29
358.73	1646.57
358.94	1693.67
359.15	1732.58
359.36	1822.69
359.57	1636.33
359.78	1687.53
359.99	1771.49
360.20	1683.43
360.41	1740.77
360.62	1773.54
360.83	1742.82
361.04	1746.92
361.25	1791.97
361.46	1884.13
361.67	1781.73
361.88	1687.53
362.09	1751.01
362.30	1685.48
362.51	1712.10
362.72	1744.87
362.93	1775.59
363.14	1722.34
363.35	1746.92
363.56	1691.62
363.78	1763.30
363.99	1755.11
364.20	1662.95
364.41	1683.43
364.62	1853.41
364.83	1744.87
365.04	1718.25
365.25	1724.39
365.46	1791.97
365.67	1628.14
365.88	1722.34
366.09	1656.81
366.30	1648.61
366.51	1763.30
366.72	1619.94
366.93	1624.04
367.14	1767.40
367.35	1837.03
367.56	1773.54
367.77	1828.84
367.98	1669.09
368.18	1759.21
368.39	1744.87
368.60	1630.18
368.81	1751.01
369.02	1755.11
369.23	1697.77
369.44	1691.62
369.65	1634.28
369.86	1705.96
370.07	1810.40
370.28	1708.01
370.49	1779.68
370.70	1757.16
370.91	1619.94
371.12	1710.05
371.33	1785.83
371.54	1687.53
371.75	1781.73
371.96	1595.37
372.17	1724.39
372.38	1708.01
372.59	1718.25
372.80	1669.09
373.01	1679.33
373.22	1769.44
373.43	1753.06
373.64	1601.51
373.85	1736.68
374.06	1781.73
374.26	1781.73
374.47	1740.77
374.68	1812.45
374.89	1718.25
375.10	1669.09
375.31	1716.20
375.52	1769.44
375.73	1697.77
375.94	1650.66
376.15	1800.16
376.36	1689.57
376.57	1648.61
376.78	1748.97
376.99	1671.14
377.20	1769.44
377.40	1642.47
377.61	1855.46
377.82	1673.19
378.03	1703.91
378.24	1787.88
378.45	1753.06
378.66	1619.94
378.87	1568.74
379.08	1660.90
379.29	1724.39
379.50	1791.97
379.71	1658.85
379.91	1767.40
380.12	1732.58
380.33	1705.96
380.54	1710.05
380.75	1697.77
380.96	1705.96
381.17	1697.77
381.38	1701.86
381.59	1740.77
381.80	1763.30
382.00	1847.27
382.21	1810.40
382.42	1855.46
382.63	1877.99
382.84	1785.83
383.05	1775.59
383.26	1740.77
383.47	1755.11
383.68	1734.63
383.88	1703.91
384.09	1740.77
384.30	1892.32
384.51	1714.15
384.72	1638.38
384.93	1669.09
385.14	1742.82
385.35	1703.91
385.55	1626.09
385.76	1785.83
385.97	1759.21
386.18	1673.19
386.39	1703.91
386.60	1671.14
386.81	1744.87
387.02	1685.48
387.22	1693.67
387.43	1816.55
387.64	1751.01
387.85	1812.45
388.06	2203.61
388.27	4237.25
388.48	6682.52
388.68	8171.40
388.89	9607.02
389.10	9893.74
389.31	8710.01
389.52	7647.12
389.73	6633.37
389.93	6291.36
390.14	5879.72
390.35	5072.82
390.56	4597.69
390.77	3790.79
390.98	3055.57
391.18	2486.23
391.39	2039.78
391.60	1896.42
391.81	1808.36
392.02	1751.01
392.23	1882.08
392.43	1701.86
392.64	1800.16
392.85	1667.05
393.06	1865.70
393.27	1718.25
393.47	1757.16
393.68	1730.53
393.89	1718.25
394.10	1882.08
394.31	1767.40
394.52	1658.85
394.72	1662.95
394.93	1845.22
395.14	1695.72
395.35	1822.69
395.56	1677.29
395.76	1708.01
395.97	1767.40
396.18	1783.78
396.39	1869.80
396.60	1986.53
396.80	1935.33
397.01	1773.54
397.22	1834.98
397.43	1918.95
397.64	1660.90
397.84	1798.12
398.05	1875.94
398.26	1779.68
398.47	1837.03
398.67	1751.01
398.88	1714.15
399.09	1732.58
399.30	1697.77
399.51	1791.97
399.71	1679.33
399.92	1710.05
400.13	1712.10
400.34	1673.19
400.54	1662.95
400.75	1773.54
400.96	1738.73
401.17	1791.97
401.37	1726.44
401.58	1677.29
401.79	1794.02
402.00	1886.18
402.21	2033.63
402.41	1986.53
402.62	2033.63
402.83	2060.26
403.04	2054.11
403.24	2097.12
403.45	1863.65
403.66	1918.95
403.87	1826.79
404.07	1777.64
404.28	1941.47
404.49	1877.99
404.70	1716.20
404.90	1902.56
405.11	1753.06
405.32	1773.54
405.52	1652.71
405.73	1658.85
405.94	1681.38
406.15	1759.21
406.35	1830.88
406.56	1826.79
406.77	1820.64
406.98	1695.72
407.18	1673.19
407.39	1783.78
407.60	1740.77
407.80	1718.25
408.01	1685.48
408.22	1730.53
408.43	1718.25
408.63	1787.88
408.84	1798.12
409.05	1732.58
409.25	1744.87
409.46	1689.57
409.67	1652.71
409.88	1611.75
410.08	1718.25
410.29	1710.05
410.50	1646.57
410.70	1767.40
410.91	1681.38
411.12	1753.06
411.32	1732.58
411.53	1691.62
411.74	1787.88
411.95	1796.07
412.15	1777.64
412.36	1751.01
412.57	1759.21
412.77	1849.32
412.98	1732.58
413.19	1777.64
413.39	1689.57
413.60	1755.11
413.81	1832.93
414.01	1673.19
414.22	1742.82
414.43	1791.97
414.63	1808.36
414.84	1730.53
415.05	1738.73
415.25	1726.44
415.46	1744.87
415.67	1669.09
415.87	1746.92
416.08	1705.96
416.29	1738.73
416.49	1751.01
416.70	1687.53
416.91	1697.77
417.11	1636.33
417.32	1710.05
417.53	1763.30
417.73	1705.96
417.94	1667.05
418.15	1693.67
418.35	1681.38
418.56	1699.81
418.77	1820.64
418.97	1732.58
419.18	1740.77
419.38	1548.26
419.59	1675.24
419.80	1851.36
420.00	1697.77
420.21	1699.81
420.42	1843.17
420.62	1697.77
420.83	1685.48
421.04	1726.44
421.24	1660.90
421.45	1781.73
421.65	1742.82
421.86	1708.01
422.07	1789.92
422.27	1734.63
422.48	1753.06
422.69	1628.14
422.89	1656.81
423.10	1746.92
423.30	1644.52
423.51	1685.48
423.72	1724.39
423.92	1763.30
424.13	1681.38
424.33	1689.57
424.54	1769.44
424.75	1712.10
424.95	1777.64
425.16	1765.35
425.36	1732.58
425.57	1800.16
425.78	1697.77
425.98	1767.40
426.19	1665.00
426.39	1665.00
426.60	1738.73
426.81	1853.41
427.01	1787.88
427.22	1671.14
427.42	1597.42
427.63	1624.04
427.83	1773.54
428.04	1796.07
428.25	1832.93
428.45	1796.07
428.66	1753.06
428.86	1632.23
429.07	1724.39
429.28	1718.25
429.48	1746.92
429.69	1671.14
429.89	1703.91
430.10	1683.43
430.30	1802.21
430.51	1843.17
430.71	1650.66
430.92	1716.20
431.13	1691.62
431.33	1757.16
431.54	1816.55
431.74	1798.12
431.95	1781.73
432.15	1679.33
432.36	1710.05
432.56	1763.30
432.77	1775.59
432.98	1763.30
433.18	1728.49
433.39	1722.34
433.59	1714.15
433.80	1861.60
434.00	1824.74
434.21	1681.38
434.41	1726.44
434.62	1832.93
434.82	1681.38
435.03	1701.86
435.23	1755.11
435.44	1589.22
435.64	1738.73
435.85	1710.05
436.06	1826.79
436.26	1779.68
436.47	1714.15
436.67	1685.48
436.88	1689.57
437.08	1771.49
437.29	1787.88
437.49	1744.87
437.70	1820.64
437.90	1759.21
438.11	1804.26
438.31	1816.55
438.52	1802.21
438.72	1904.61
438.93	1880.04
439.13	1738.73
439.34	1857.51
439.54	1697.77
439.75	1828.84
439.95	1849.32
440.16	1675.24
440.36	1714.15
440.57	1794.02
440.77	1783.78
440.98	1789.92
441.18	1748.97
441.39	1753.06
441.59	1759.21
441.80	1853.41
442.00	1736.68
442.21	1785.83
442.41	1683.43
442.62	1798.12
442.82	1722.34
443.02	1730.53
443.23	1798.12
443.43	1681.38
443.64	1824.74
443.84	1710.05
444.05	1869.80
444.25	1773.54
444.46	1675.24
444.66	1763.30
444.87	1781.73
445.07	1640.42
445.28	1683.43
445.48	1794.02
445.69	1804.26
445.89	1886.18
446.09	1763.30
446.30	1941.47
446.50	2580.44
446.71	3758.02
446.91	4458.43
447.12	4687.80
447.32	4958.13
447.53	4368.32
447.73	3966.92
447.93	3493.83
448.14	3332.05
448.34	3203.02
448.55	3004.37
448.75	2867.16
448.96	2742.23
449.16	2502.62
449.36	2349.02
449.57	2004.96
449.77	1888.23
449.98	1806.31
450.18	1785.83
450.39	1828.84
450.59	1755.11
450.79	1822.69
451.00	1693.67
451.20	1767.40
451.41	1806.31
451.61	1621.99
451.81	1738.73
452.02	1732.58
452.22	1697.77
452.43	1624.04
452.63	1689.57
452.84	1695.72
453.04	1718.25
453.24	1761.25
453.45	1730.53
453.65	1646.57
453.86	1654.76
454.06	1751.01
454.26	1773.54
454.47	1677.29
454.67	1810.40
454.87	1728.49
455.08	1783.78
455.28	1855.46
455.49	1763.30
455.69	1652.71
455.89	1918.95
456.10	1843.17
456.30	1660.90
456.51	1800.16
456.71	1740.77
456.91	1798.12
457.12	1757.16
457.32	1740.77
457.52	1669.09
457.73	1779.68
457.93	1802.21
458.14	1714.15
458.34	1677.29
458.54	1720.29
458.75	1681.38
458.95	1828.84
459.15	1853.41
459.36	1791.97
459.56	1765.35
459.76	1877.99
459.97	1773.54
460.17	1671.14
460.37	1779.68
460.58	1705.96
460.78	1742.82
460.99	1714.15
461.19	1753.06
461.39	1742.82
461.60	1779.68
461.80	1757.16
462.00	1736.68
462.21	1683.43
462.41	1697.77
462.61	1675.24
462.82	1736.68
463.02	1787.88
463.22	1765.35
463.43	1845.22
463.63	1787.88
463.83	1892.32
464.04	1705.96
464.24	1705.96
464.44	1665.00
464.64	1748.97
464.85	1773.54
465.05	1779.68
465.25	1697.77
465.46	1744.87
465.66	1789.92
465.86	1820.64
466.07	1716.20
466.27	1816.55
466.47	1658.85
466.68	1695.72
466.88	1822.69
467.08	1722.34
467.29	1755.11
467.49	1761.25
467.69	1783.78
467.89	1810.40
468.10	1771.49
468.30	1740.77
468.50	1853.41
468.71	1730.53
468.91	1697.77
469.11	1824.74
469.31	1714.15
469.52	1712.10
469.72	1761.25
469.92	1820.64
470.13	1794.02
470.33	1771.49
470.53	1900.52
470.73	2111.46
470.94	2385.88
471.14	2287.58
471.34	2566.10
471.54	2432.99
471.75	2234.33
471.95	2189.28
472.15	2093.02
472.36	2037.73
472.56	2144.22
472.76	2023.39
472.96	2029.54
473.17	1918.95
473.37	1966.05
473.57	1755.11
473.77	1849.32
473.98	1710.05
474.18	1724.39
474.38	1912.80
474.58	1730.53
474.79	1687.53
474.99	1769.44
475.19	1759.21
475.39	1722.34
475.60	1730.53
475.80	1769.44
476.00	1736.68
476.20	1738.73
476.41	1767.40
476.61	1800.16
476.81	1810.40
477.01	1656.81
477.21	1847.27
477.42	1855.46
477.62	1708.01
477.82	1748.97
478.02	1679.33
478.23	1890.28
478.43	1673.19
478.63	1718.25
478.83	1714.15
479.03	1701.86
479.24	1824.74
479.44	1812.45
479.64	1744.87
479.84	1587.18
480.04	1761.25
480.25	1755.11
480.45	1691.62
480.65	1732.58
480.85	1855.46
481.06	1669.09
481.26	1755.11
481.46	1744.87
481.66	1798.12
481.86	1699.81
482.06	1814.50
482.27	1654.76
482.47	1671.14
482.67	1677.29
482.87	1675.24
483.07	1808.36
483.28	1634.28
483.48	1697.77
483.68	1720.29
483.88	1691.62
484.08	1605.61
484.29	1630.18
484.49	1667.05
484.69	1671.14
484.89	1804.26
485.09	1824.74
485.29	1742.82
485.50	1787.88
485.70	1603.56
485.90	1796.07
486.10	1736.68
486.30	1691.62
486.50	1785.83
486.71	1753.06
486.91	1816.55
487.11	1787.88
487.31	1677.29
487.51	1716.20
487.71	1650.66
487.91	1630.18
488.12	1757.16
488.32	1609.70
488.52	1716.20
488.72	1685.48
488.92	1773.54
489.12	1865.70
489.32	1751.01
489.53	1757.16
489.73	1660.90
489.93	1767.40
490.13	1658.85
490.33	1665.00
490.53	1732.58
490.73	1804.26
490.94	1667.05
491.14	1816.55
491.34	1871.84
491.54	2043.87
491.74	2504.67
491.94	2973.65
492.14	2973.65
492.34	3035.09
492.54	2672.60
492.75	2488.28
492.95	2455.51
493.15	2265.05
493.35	2365.40
493.55	2242.53
493.75	2080.74
493.95	2113.50
494.15	2029.54
494.35	1902.56
494.56	1927.14
494.76	1822.69
494.96	1859.56
495.16	1822.69
495.36	1738.73
495.56	1699.81
495.76	1804.26
495.96	1699.81
496.16	1730.53
496.36	1755.11
496.56	1695.72
496.77	1728.49
496.97	1740.77
497.17	1800.16
497.37	1718.25
497.57	1722.34
497.77	1804.26
497.97	1701.86
498.17	1736.68
498.37	1746.92
498.57	1732.58
498.77	1699.81
498.97	1794.02
499.17	1808.36
499.38	1689.57
499.58	1773.54
499.78	1705.96
499.98	1837.03
500.18	1794.02
500.38	1796.07
500.58	1923.04
500.78	2566.10
500.98	4523.96
501.18	5941.16
501.38	7016.34
501.58	7180.18
501.78	6817.69
501.98	5623.72
502.18	5042.10
502.38	4390.84
502.58	4042.69
502.78	3893.19
502.98	3731.40
503.18	3399.63
503.38	3164.11
503.59	2779.09
503.79	2736.09
503.99	2488.28
504.19	2314.20
504.39	2240.48
504.59	2211.81
504.79	2164.70
504.99	2060.26
505.19	1929.19
505.39	1931.23
505.59	2031.58
505.79	1877.99
505.99	1902.56
506.19	1800.16
506.39	1837.03
506.59	1736.68
506.79	1738.73
506.99	1783.78
507.19	1761.25
507.39	1820.64
507.59	1757.16
507.79	1669.09
507.99	1660.90
508.19	1728.49
508.39	1691.62
508.59	1742.82
508.79	1822.69
508.99	1912.80
509.19	1595.37
509.39	1712.10
509.59	1667.05
509.79	1708.01
509.99	1798.12
510.19	1847.27
510.39	1839.08
510.59	1843.17
510.79	1640.42
510.99	1734.63
511.19	1798.12
511.39	1826.79
511.59	1837.03
511.79	1853.41
511.99	1789.92
512.19	1816.55
512.38	1736.68
512.58	1697.77
512.78	1767.40
512.98	1804.26
513.18	1812.45
513.38	1654.76
513.58	1843.17
513.78	1636.33
513.98	1738.73
514.18	1636.33
514.38	1732.58
514.58	1728.49
514.78	1728.49
514.98	1679.33
515.18	1763.30
515.38	1736.68
515.58	1806.31
515.78	1736.68
515.98	1748.97
516.18	1757.16
516.38	1728.49
516.57	1689.57
516.77	1667.05
516.97	1777.64
517.17	1689.57
517.37	1603.56
517.57	1822.69
517.77	1824.74
517.97	1708.01
518.17	1816.55
518.37	1708.01
518.57	1677.29
518.77	1724.39
518.97	1791.97
519.16	1763.30
519.36	1773.54
519.56	1691.62
519.76	1775.59
519.96	1722.34
520.16	1857.51
520.36	1673.19
520.56	1800.16
520.76	1705.96
520.96	1796.07
521.16	1839.08
521.35	1826.79
521.55	1890.28
521.75	1738.73
521.95	1740.77
522.15	1806.31
522.35	1646.57
522.55	1693.67
522.75	1765.35
522.95	1734.63
523.14	1624.04
523.34	1740.77
523.54	1728.49
523.74	1877.99
523.94	1787.88
524.14	1730.53
524.34	1771.49
524.54	1845.22
524.73	1712.10
524.93	1730.53
525.13	1710.05
525.33	1730.53
525.53	1898.47
525.73	1740.77
525.93	1771.49
526.13	1652.71
526.32	1732.58
526.52	1789.92
526.72	1791.97
526.92	1742.82
527.12	1705.96
527.32	1705.96
527.52	1781.73
527.71	1761.25
527.91	1740.77
528.11	1726.44
528.31	1746.92
528.51	1646.57
528.71	1763.30
528.90	1736.68
529.10	1804.26
529.30	1808.36
529.50	1628.14
529.70	1718.25
529.90	1734.63
530.09	1773.54
530.29	1679.33
530.49	1624.04
530.69	1884.13
530.89	1796.07
531.09	1800.16
531.28	1695.72
531.48	1746.92
531.68	1775.59
531.88	1738.73
532.08	1855.46
532.28	1746.92
532.47	1814.50
532.67	1773.54
532.87	1785.83
533.07	1712.10
533.27	1824.74
533.46	1757.16
533.66	1710.05
533.86	1720.29
534.06	1730.53
534.26	1710.05
534.45	1744.87
534.65	1789.92
534.85	1859.56
535.05	1734.63
535.25	1775.59
535.44	1646.57
535.64	1781.73
535.84	1746.92
536.04	1753.06
536.24	1771.49
536.43	1738.73
536.63	1687.53
536.83	1755.11
537.03	1746.92
537.22	1685.48
537.42	1632.23
537.62	1722.34
537.82	1695.72
538.02	1796.07
538.21	1796.07
538.41	1904.61
538.61	1748.97
538.81	1714.15
539.00	1834.98
539.20	1652.71
539.40	1751.01
539.60	1738.73
539.79	1759.21
539.99	1699.81
540.19	1763.30
540.39	1763.30
540.58	1701.86
540.78	1789.92
540.98	1775.59
541.18	1761.25
541.37	1785.83
541.57	1757.16
541.77	1757.16
541.97	1673.19
542.16	1667.05
542.36	1738.73
542.56	1669.09
542.76	1841.12
542.95	1814.50
543.15	1802.21
543.35	1759.21
543.54	1685.48
543.74	1695.72
543.94	1761.25
544.14	1699.81
544.33	1822.69
544.53	1691.62
544.73	1777.64
544.93	1812.45
545.12	1742.82
545.32	1753.06
545.52	1705.96
545.71	1722.34
545.91	1736.68
546.11	1771.49
546.30	1644.52
546.50	1736.68
546.70	1812.45
546.90	1857.51
547.09	1714.15
547.29	1697.77
547.49	1716.20
547.68	1695.72
547.88	1767.40
548.08	1796.07
548.27	2166.75
548.47	1716.20
548.67	1773.54
548.87	1738.73
549.06	1734.63
549.26	1753.06
549.46	1802.21
549.65	1736.68
549.85	1742.82
550.05	1751.01
550.24	1753.06
550.44	1710.05
550.64	1808.36
550.83	1734.63
551.03	1787.88
551.23	1859.56
551.42	1877.99
551.62	1765.35
551.82	1726.44
552.01	1722.34
552.21	1759.21
552.41	1757.16
552.60	1851.36
552.80	1755.11
553.00	1646.57
553.19	1714.15
553.39	1865.70
553.59	1718.25
553.78	1798.12
553.98	1869.80
554.17	1722.34
554.37	1779.68
554.57	1808.36
554.76	1712.10
554.96	1691.62
555.16	1705.96
555.35	1808.36
555.55	1832.93
555.75	1822.69
555.94	1771.49
556.14	1624.04
556.33	1679.33
556.53	1726.44
556.73	1677.29
556.92	1861.60
557.12	1787.88
557.32	1857.51
557.51	1820.64
557.71	1808.36
557.90	1851.36
558.10	1796.07
558.30	1794.02
558.49	1726.44
558.69	1755.11
558.88	1759.21
559.08	1814.50
559.28	1796.07
559.47	1779.68
559.67	1757.16
559.86	1771.49
560.06	1703.91
560.26	1783.78
560.45	1789.92
560.65	1740.77
560.84	1759.21
561.04	1736.68
561.24	1826.79
561.43	1673.19
561.63	1843.17
561.82	1746.92
562.02	1728.49
562.22	1746.92
562.41	1689.57
562.61	1765.35
562.80	1732.58
563.00	1904.61
563.19	1820.64
563.39	1804.26
563.59	1763.30
563.78	1759.21
563.98	1665.00
564.17	1699.81
564.37	1656.81
564.56	1841.12
564.76	1677.29
564.96	1880.04
565.15	1816.55
565.35	1837.03
565.54	1701.86
565.74	1822.69
565.93	1710.05
566.13	1703.91
566.32	1769.44
566.52	1773.54
566.71	1794.02
566.91	1837.03
567.11	1691.62
567.30	1724.39
567.50	1767.40
567.69	1779.68
567.89	1716.20
568.08	1679.33
568.28	1828.84
568.47	1746.92
568.67	1759.21
568.86	1712.10
569.06	1791.97
569.25	1759.21
569.45	1673.19
569.64	1691.62
569.84	1748.97
570.04	1728.49
570.23	1740.77
570.43	1693.67
570.62	1865.70
570.82	1877.99
571.01	1673.19
571.21	1687.53
571.40	1779.68
571.60	1755.11
571.79	1693.67
571.99	1779.68
572.18	1716.20
572.38	1824.74
572.57	1654.76
572.77	1685.48
572.96	1894.37
573.16	1804.26
573.35	1722.34
573.55	1814.50
573.74	1759.21
573.94	1771.49
574.13	1828.84
574.33	1904.61
574.52	1855.46
574.71	1767.40
574.91	1759.21
575.10	1652.71
575.30	1751.01
575.49	1738.73
575.69	1683.43
575.88	1740.77
576.08	1677.29
576.27	1824.74
576.47	1740.77
576.66	1812.45
576.86	1798.12
577.05	1751.01
577.25	1761.25
577.44	1882.08
577.64	1669.09
577.83	1873.89
578.02	1746.92
578.22	1828.84
578.41	1771.49
578.61	1703.91
578.80	1714.15
579.00	1771.49
579.19	1689.57
579.39	1710.05
579.58	1814.50
579.77	1689.57
579.97	1873.89
580.16	1847.27
580.36	1796.07
580.55	1853.41
580.75	1812.45
580.94	1722.34
581.13	1865.70
581.33	1806.31
581.52	1685.48
581.72	1861.60
581.91	1888.23
582.11	1785.83
582.30	1820.64
582.49	1755.11
582.69	1806.31
582.88	1902.56
583.08	1806.31
583.27	1888.23
583.47	1808.36
583.66	1714.15
583.85	1687.53
584.05	1812.45
584.24	1857.51
584.44	1857.51
584.63	1775.59
584.82	1820.64
585.02	1900.52
585.21	1841.12
585.41	1843.17
585.60	1839.08
585.79	1947.62
585.99	1943.52
586.18	1910.75
586.37	2179.04
586.57	3368.91
586.76	9942.89
586.96	24432.27
587.15	34573.81
587.34	40158.62
587.54	42347.90
587.73	36687.31
587.93	26615.40
588.12	21710.52
588.31	18339.56
588.51	16516.87
588.70	15101.72
588.89	14173.99
589.09	12658.49
589.28	10960.73
589.47	9344.88
589.67	7876.49
589.86	6432.67
590.06	5029.81
590.25	3960.77
590.44	3092.43
590.64	2588.63
590.83	2346.97
591.02	2078.69
591.22	1951.71
591.41	1951.71
591.60	1810.40
591.80	1974.24
591.99	1740.77
592.18	1748.97
592.38	1796.07
592.57	1748.97
592.76	1787.88
592.96	1767.40
593.15	1759.21
593.34	1771.49
593.54	1759.21
593.73	1783.78
593.92	1781.73
594.12	1669.09
594.31	1787.88
594.50	1798.12
594.70	1828.84
594.89	1877.99
595.08	1716.20
595.28	1865.70
595.47	1927.14
595.66	1708.01
595.86	1669.09
596.05	1724.39
596.24	1724.39
596.43	1830.88
596.63	1808.36
596.82	1744.87
597.01	1775.59
597.21	1814.50
597.40	1742.82
597.59	1746.92
597.79	1787.88
597.98	1777.64
598.17	1800.16
598.36	1742.82
598.56	1732.58
598.75	1736.68
598.94	1748.97
599.14	1789.92
599.33	1718.25
599.52	1708.01
599.71	1783.78
599.91	1775.59
600.10	1765.35
600.29	1777.64
600.48	1794.02
600.68	1748.97
600.87	1734.63
601.06	1695.72
601.26	1837.03
601.45	1730.53
601.64	1730.53
601.83	1755.11
602.03	1705.96
602.22	1669.09
602.41	1783.78
602.60	1843.17
602.80	1828.84
602.99	1714.15
603.18	1652.71
603.37	1773.54
603.57	1751.01
603.76	1892.32
603.95	1845.22
604.14	1708.01
604.34	1640.42
604.53	1755.11
604.72	1740.77
604.91	1730.53
605.10	1812.45
605.30	1720.29
605.49	1853.41
605.68	1781.73
605.87	1781.73
606.07	1759.21
606.26	1677.29
606.45	1814.50
606.64	1726.44
606.84	1787.88
607.03	1705.96
607.22	1845.22
607.41	1683.43
607.60	1740.77
607.80	1804.26
607.99	1751.01
608.18	1822.69
608.37	1718.25
608.56	1650.66
608.76	1849.32
608.95	1816.55
609.14	1640.42
609.33	1755.11
609.52	1730.53
609.72	1728.49
609.91	1757.16
610.10	1728.49
610.29	1904.61
610.48	1804.26
610.68	1773.54
610.87	1722.34
611.06	1802.21
611.25	1681.38
611.44	1832.93
611.63	1755.11
611.83	1828.84
612.02	1757.16
612.21	1822.69
612.40	1677.29
612.59	1648.61
612.79	1722.34
612.98	1691.62
613.17	1867.75
613.36	1789.92
613.55	1841.12
613.74	1665.00
613.93	1785.83
614.13	1789.92
614.32	1832.93
614.51	1732.58
614.70	1722.34
614.89	1685.48
615.08	1800.16
615.28	2105.31
615.47	1646.57
615.66	1763.30
615.85	1734.63
616.04	1841.12
616.23	1736.68
616.42	1607.66
616.62	1841.12
616.81	1742.82
617.00	1722.34
617.19	1783.78
617.38	1693.67
617.57	1748.97
617.76	1724.39
617.95	1763.30
618.15	1716.20
618.34	1802.21
618.53	1677.29
618.72	1847.27
618.91	1824.74
619.10	1830.88
619.29	1794.02
619.48	1820.64
619.68	1632.23
619.87	1691.62
620.06	1701.86
620.25	1740.77
620.44	1718.25
620.63	1671.14
620.82	1751.01
621.01	1718.25
621.20	1697.77
621.39	1718.25
621.59	1791.97
621.78	1697.77
621.97	1736.68
622.16	1789.92
622.35	1673.19
622.54	1789.92
622.73	1849.32
622.92	1624.04
623.11	1812.45
623.30	1753.06
623.49	1820.64
623.68	1677.29
623.88	1806.31
624.07	1751.01
624.26	1654.76
624.45	1769.44
624.64	1755.11
624.83	1783.78
625.02	1755.11
625.21	1722.34
625.40	1787.88
625.59	1816.55
625.78	1712.10
625.97	1787.88
626.16	1789.92
626.35	1759.21
626.54	1685.48
626.74	1783.78
626.93	1689.57
627.12	1705.96
627.31	1683.43
627.50	1755.11
627.69	1781.73
627.88	1697.77
628.07	1695.72
628.26	1652.71
628.45	1685.48
628.64	1632.23
628.83	1693.67
629.02	1703.91
629.21	1857.51
629.40	1759.21
629.59	1691.62
629.78	1740.77
629.97	1714.15
630.16	1710.05
630.35	1718.25
630.54	1736.68
630.73	1710.05
630.92	1744.87
631.11	1607.66
631.30	1705.96
631.49	1841.12
631.68	1726.44
631.87	1740.77
632.06	1607.66
632.25	1900.52
632.44	1781.73
632.63	1726.44
632.82	1738.73
633.01	1613.80
633.20	1665.00
633.39	1642.47
633.58	1603.56
633.77	1656.81
633.96	1779.68
634.15	1800.16
634.34	1787.88
634.53	1677.29
634.72	1705.96
634.91	1632.23
635.10	1765.35
635.29	1804.26
635.48	1730.53
635.67	1658.85
635.86	1722.34
636.05	1767.40
636.24	1699.81
636.43	1759.21
636.62	1748.97
636.81	1628.14
637.00	1730.53
637.19	1699.81
637.38	1691.62
637.57	1728.49
637.76	1687.53
637.95	1708.01
638.14	1675.24
638.33	1646.57
638.52	1722.34
638.71	1632.23
638.89	1695.72
639.08	1814.50
639.27	1724.39
639.46	1734.63
639.65	1779.68
639.84	1656.81
640.03	1898.47
640.22	1746.92
640.41	1894.37
640.60	1732.58
640.79	1757.16
640.98	1671.14
641.17	1828.84
641.36	1791.97
641.55	1765.35
641.74	1703.91
641.92	1736.68
642.11	1671.14
642.30	1812.45
642.49	1662.95
642.68	1667.05
642.87	1656.81
643.06	1779.68
643.25	1818.60
643.44	1669.09
643.63	1722.34
643.82	1722.34
644.00	1677.29
644.19	1822.69
644.38	1685.48
644.57	1843.17
644.76	1816.55
644.95	1703.91
645.14	1882.08
645.33	1771.49
645.52	1742.82
645.71	1679.33
645.89	1681.38
646.08	1705.96
646.27	1712.10
646.46	1867.75
646.65	1679.33
646.84	1705.96
647.03	1619.94
647.22	1779.68
647.40	1775.59
647.59	1722.34
647.78	1583.08
647.97	1652.71
648.16	1683.43
648.35	1751.01
648.54	1779.68
648.73	1648.61
648.91	1730.53
649.10	1710.05
649.29	1771.49
649.48	1744.87
649.67	1665.00
649.86	1679.33
650.05	1689.57
650.23	1787.88
650.42	1630.18
650.61	1710.05
650.80	1761.25
650.99	1904.61
651.18	1783.78
651.36	1748.97
651.55	1759.21
651.74	1789.92
651.93	1662.95
652.12	1714.15
652.31	1656.81
652.49	1693.67
652.68	1767.40
652.87	1759.21
653.06	1687.53
653.25	1796.07
653.44	1683.43
653.62	1806.31
653.81	1763.30
654.00	1755.11
654.19	1820.64
654.38	1904.61
654.56	1802.21
654.75	1675.24
654.94	1722.34
655.13	1681.38
655.32	1734.63
655.51	1751.01
655.69	1701.86
655.88	1818.60
656.07	1775.59
656.26	1761.25
656.45	1734.63
656.63	1683.43
656.82	1767.40
657.01	1767.40
657.20	1656.81
657.38	1800.16
657.57	1742.82
657.76	1603.56
657.95	1701.86
658.14	1697.77
658.32	1714.15
658.51	1714.15
658.70	1832.93
658.89	1683.43
659.08	1755.11
659.26	1816.55
659.45	1714.15
659.64	1665.00
659.83	1712.10
660.01	1945.57
660.20	1689.57
660.39	1796.07
660.58	1630.18
660.76	1775.59
660.95	1619.94
661.14	1785.83
661.33	1660.90
661.51	1714.15
661.70	1724.39
661.89	1755.11
662.08	1732.58
662.26	1671.14
662.45	1738.73
662.64	1849.32
662.83	1742.82
663.01	1685.48
663.20	1667.05
663.39	1806.31
663.58	1658.85
663.76	1824.74
663.95	1800.16
664.14	1730.53
664.32	1705.96
664.51	1681.38
664.70	1617.90
664.89	1810.40
665.07	1626.09
665.26	1785.83
665.45	1646.57
665.64	1810.40
665.82	1765.35
666.01	1730.53
666.20	1748.97
666.38	1820.64
666.57	1830.88
666.76	2263.01
666.95	4573.11
667.13	10610.53
667.32	15363.86
667.51	18192.11
667.69	19384.02
667.88	17837.81
668.07	12324.68
668.25	9629.55
668.44	8271.75
668.63	7376.78
668.81	6764.44
669.00	6363.04
669.19	5744.55
669.38	5193.65
669.56	4540.35
669.75	3962.82
669.94	3573.71
670.12	2877.40
670.31	2535.39
670.50	2246.62
670.68	2076.64
670.87	1920.99
671.06	1810.40
671.24	1753.06
671.43	1875.94
671.62	1796.07
671.80	1671.14
671.99	1716.20
672.18	1769.44
672.36	1855.46
672.55	1736.68
672.74	1820.64
672.92	1712.10
673.11	1748.97
673.29	1667.05
673.48	1773.54
673.67	1652.71
673.85	1834.98
674.04	1673.19
674.23	1718.25
674.41	1759.21
674.60	1562.60
674.79	1581.03
674.97	1665.00
675.16	1791.97
675.34	1650.66
675.53	1691.62
675.72	1785.83
675.90	1730.53
676.09	1679.33
676.28	1669.09
676.46	1665.00
676.65	1773.54
676.83	1699.81
677.02	1693.67
677.21	1757.16
677.39	1677.29
677.58	1646.57
677.77	1644.52
677.95	1685.48
678.14	1660.90
678.32	1742.82
678.51	1740.77
678.70	1871.84
678.88	1650.66
679.07	1767.40
679.25	1701.86
679.44	1705.96
679.63	1665.00
679.81	1804.26
680.00	1724.39
680.18	1791.97
680.37	1808.36
680.55	1736.68
680.74	1665.00
680.93	1591.27
681.11	1710.05
681.30	1757.16
681.48	1718.25
681.67	1671.14
681.85	1742.82
682.04	1685.48
682.23	1724.39
682.41	1845.22
682.60	1658.85
682.78	1732.58
682.97	1714.15
683.15	1705.96
683.34	1728.49
683.53	1759.21
683.71	1703.91
683.90	1804.26
684.08	1757.16
684.27	1755.11
684.45	1796.07
684.64	1785.83
684.82	1662.95
685.01	1765.35
685.19	1689.57
685.38	1865.70
685.57	1783.78
685.75	1685.48
685.94	1693.67
686.12	1673.19
686.31	1621.99
686.49	1779.68
686.68	1626.09
686.86	1740.77
687.05	1689.57
687.23	1824.74
687.42	1665.00
687.60	1716.20
687.79	1736.68
687.97	1832.93
688.16	1839.08
688.34	1742.82
688.53	1601.51
688.71	1712.10
688.90	1757.16
689.08	1646.57
689.27	1638.38
689.45	1779.68
689.64	1767.40
689.82	1771.49
690.01	1761.25
690.19	1787.88
690.38	1720.29
690.56	1812.45
690.75	1736.68
690.93	1738.73
691.12	1695.72
691.30	1785.83
691.49	1714.15
691.67	1712.10
691.86	1822.69
692.04	1732.58
692.23	1634.28
692.41	1660.90
692.60	1875.94
692.78	1765.35
692.97	1720.29
693.15	1705.96
693.34	1832.93
693.52	1787.88
693.71	1738.73
693.89	1667.05
694.08	1642.47
694.26	1759.21
694.44	1800.16
694.63	1730.53
694.81	1671.14
695.00	1718.25
695.18	1783.78
695.37	1816.55
695.55	1734.63
695.74	1665.00
695.92	1703.91
696.10	1798.12
696.29	1683.43
696.47	1691.62
696.66	1701.86
696.84	1705.96
697.03	1636.33
697.21	1863.65
697.40	2265.05
697.58	1773.54
697.76	1673.19
697.95	1658.85
698.13	1689.57
698.32	1685.48
698.50	1742.82
698.68	1703.91
698.87	1695.72
699.05	1880.04
699.24	1806.31
699.42	1689.57
699.61	1710.05
699.79	1689.57
699.97	1759.21
700.16	1658.85
700.34	1705.96
700.53	1728.49
700.71	1826.79
700.89	1771.49
701.08	1677.29
701.26	1728.49
701.45	2133.98
701.63	1705.96
701.81	1689.57
702.00	1624.04
702.18	1601.51
702.37	1699.81
702.55	1789.92
702.73	1656.81
702.92	1654.76
703.10	1748.97
703.28	1650.66
703.47	1640.42
703.65	1718.25
703.84	1800.16
704.02	1638.38
704.20	1839.08
704.39	1732.58
704.57	1722.34
704.75	1785.83
704.94	1798.12
705.12	1775.59
705.30	1796.07
705.49	2283.49
705.67	4530.11
705.86	9607.02
706.04	12654.40
706.22	14589.73
706.41	15392.53
706.59	14036.78
706.77	9484.14
706.96	7370.64
707.14	6690.71
707.32	5998.50
707.51	5670.83
707.69	4951.99
707.87	4202.43
708.06	3590.09
708.24	2942.93
708.42	2453.47
708.61	2322.40
708.79	1920.99
708.97	1906.66
709.16	1748.97
709.34	1779.68
709.52	1722.34
709.71	1744.87
709.89	1753.06
710.07	1716.20
710.26	1665.00
710.44	1746.92
710.62	1769.44
710.80	1757.16
710.99	1791.97
711.17	1753.06
711.35	1751.01
711.54	1675.24
711.72	1802.21
711.90	1757.16
712.09	1759.21
712.27	1699.81
712.45	1814.50
712.63	1740.77
712.82	1712.10
713.00	1746.92
713.18	1806.31
713.37	1746.92
713.55	1777.64
713.73	1765.35
713.91	1802.21
714.10	1697.77
714.28	1634.28
714.46	1726.44
714.65	1732.58
714.83	1742.82
715.01	1710.05
715.19	1730.53
715.38	1636.33
715.56	1804.26
715.74	1703.91
715.92	1730.53
716.11	1771.49
716.29	1597.42
716.47	1705.96
716.65	1691.62
716.84	1650.66
717.02	1812.45
717.20	1644.52
717.38	1642.47
717.57	1634.28
717.75	1826.79
717.93	1744.87
718.11	1722.34
718.30	1585.13
718.48	1746.92
718.66	1820.64
718.84	1789.92
719.03	1648.61
719.21	1708.01
719.39	1808.36
719.57	1771.49
719.75	1771.49
719.94	1736.68
720.12	1728.49
720.30	1753.06
720.48	1769.44
720.67	1701.86
720.85	1683.43
721.03	1701.86
721.21	1650.66
721.39	1736.68
721.58	1689.57
721.76	1755.11
721.94	1736.68
722.12	1712.10
722.30	1800.16
722.49	1738.73
722.67	1742.82
722.85	1775.59
723.03	1673.19
723.21	1751.01
723.40	1806.31
723.58	1822.69
723.76	1755.11
723.94	1751.01
724.12	1767.40
724.30	1837.03
724.49	1738.73
724.67	1646.57
724.85	1716.20
725.03	1662.95
725.21	1812.45
725.40	1804.26
725.58	1632.23
725.76	1728.49
725.94	1703.91
726.12	1667.05
726.30	1732.58
726.49	1599.46
726.67	1599.46
726.85	1773.54
727.03	1777.64
727.21	2095.07
727.39	2904.02
727.57	3821.51
727.76	4370.37
727.94	4487.10
728.12	4278.21
728.30	3739.59
728.48	2908.12
728.66	2756.57
728.84	2529.24
729.03	2353.12
729.21	2127.84
729.39	1986.53
729.57	1828.84
729.75	1890.28
729.93	1894.37
730.11	1679.33
730.30	1695.72
730.48	1746.92
730.66	1861.60
730.84	1822.69
731.02	1701.86
731.20	1703.91
731.38	1648.61
731.56	1685.48
731.74	1628.14
731.93	1710.05
732.11	1687.53
732.29	1691.62
732.47	1796.07
732.65	1693.67
732.83	1779.68
733.01	1742.82
733.19	1611.75
733.37	1796.07
733.56	1746.92
733.74	1632.23
733.92	1828.84
734.10	1724.39
734.28	1732.58
734.46	1656.81
734.64	1675.24
734.82	1609.70
735.00	1619.94
735.18	1603.56
735.36	1699.81
735.54	1677.29
735.73	1738.73
735.91	1773.54
736.09	1769.44
736.27	1697.77
736.45	1722.34
736.63	1601.51
736.81	1716.20
736.99	1761.25
737.17	1798.12
737.35	1787.88
737.53	1718.25
737.71	1646.57
737.89	1771.49
738.07	1681.38
738.25	1679.33
738.43	1626.09
738.61	1658.85
738.80	1685.48
738.98	1683.43
739.16	1699.81
739.34	1681.38
739.52	1738.73
739.70	1755.11
739.88	1796.07
740.06	1763.30
740.24	1642.47
740.42	1687.53
740.60	1642.47
740.78	1726.44
740.96	1679.33
741.14	1658.85
741.32	1746.92
741.50	1654.76
741.68	1837.03
741.86	1763.30
742.04	1660.90
742.22	1701.86
742.40	1728.49
742.58	1755.11
742.76	1710.05
742.94	1720.29
743.12	1589.22
743.30	1714.15
743.48	1746.92
743.66	1697.77
743.84	1744.87
744.02	1697.77
744.20	1660.90
744.38	1632.23
744.56	1656.81
744.74	1726.44
744.92	1640.42
745.10	1742.82
745.28	1802.21
745.46	1818.60
745.64	1679.33
745.82	1775.59
746.00	1734.63
746.18	1728.49
746.36	1687.53
746.54	1724.39
746.72	1732.58
746.90	1636.33
747.08	1701.86
747.26	1683.43
747.44	1765.35
747.62	1746.92
747.80	1769.44
747.98	1830.88
748.15	1767.40
748.33	1820.64
748.51	1662.95
748.69	1703.91
748.87	1619.94
749.05	1677.29
749.23	1705.96
749.41	1730.53
749.59	1718.25
749.77	1681.38
749.95	1697.77
750.13	1660.90
750.31	1763.30
750.49	1701.86
750.67	1718.25
750.85	1740.77
751.03	1621.99
751.20	1855.46
751.38	1685.48
751.56	1728.49
751.74	1724.39
751.92	1710.05
752.10	1669.09
752.28	1826.79
752.46	1628.14
752.64	1665.00
752.82	1697.77
753.00	1718.25
753.18	1626.09
753.35	1759.21
753.53	1636.33
753.71	1691.62
753.89	1841.12
754.07	1642.47
754.25	1820.64
754.43	1701.86
754.61	1640.42
754.79	1746.92
754.97	1597.42
755.14	1806.31
755.32	1652.71
755.50	1691.62
755.68	1681.38
755.86	1642.47
756.04	1689.57
756.22	1621.99
756.40	1751.01
756.57	1767.40
756.75	1601.51
756.93	1804.26
757.11	1791.97
757.29	1714.15
757.47	1658.85
757.65	1624.04
757.82	1648.61
758.00	1705.96
758.18	1679.33
758.36	1621.99
758.54	1791.97
758.72	1587.18
758.90	1695.72
759.07	1773.54
759.25	1617.90
759.43	1771.49
759.61	1658.85
759.79	2142.18
759.97	1738.73
760.15	1658.85
760.32	1640.42
760.50	1679.33
760.68	1839.08
760.86	1656.81
761.04	1826.79
761.22	1742.82
761.39	1726.44
761.57	1761.25
761.75	1734.63
761.93	1669.09
762.11	1699.81
762.28	1720.29
762.46	1654.76
762.64	1755.11
762.82	1669.09
763.00	1724.39
763.18	1726.44
763.35	1669.09
763.53	1687.53
763.71	1652.71
763.89	1732.58
764.07	1761.25
764.24	1609.70
764.42	1740.77
764.60	1701.86
764.78	1705.96
764.96	1697.77
765.13	1738.73
765.31	1732.58
765.49	1714.15
765.67	1656.81
765.84	1685.48
766.02	1656.81
766.20	1722.34
766.38	1796.07
766.56	1787.88
766.73	1761.25
766.91	1716.20
767.09	1722.34
767.27	1785.83
767.44	1634.28
767.62	1765.35
767.80	1722.34
767.98	1742.82
768.15	1726.44
768.33	1763.30
768.51	1785.83
768.69	1814.50
768.87	1746.92
769.04	1665.00
769.22	1853.41
769.40	1771.49
769.58	1853.41
769.75	1619.94
769.93	1789.92
770.11	1685.48
770.28	1667.05
770.46	1714.15
770.64	1771.49
770.82	1640.42
770.99	1720.29
771.17	1681.38
771.35	1724.39
771.53	1687.53
771.70	1644.52
771.88	1751.01
772.06	1730.53
772.23	1683.43
772.41	1640.42
772.59	1744.87
772.77	1609.70
772.94	1667.05
773.12	1746.92
773.30	1742.82
773.47	1714.15
773.65	1665.00
773.83	1777.64
774.01	1779.68
774.18	1597.42
774.36	1658.85
774.54	1662.95
774.71	1697.77
774.89	1708.01
775.07	1619.94
775.24	1753.06
775.42	1732.58
775.60	1818.60
775.78	1689.57
775.95	1607.66
776.13	1669.09
776.31	1632.23
776.48	1669.09
776.66	1708.01
776.84	1728.49
777.01	1673.19
777.19	1675.24
777.37	1765.35
777.54	1708.01
777.72	1853.41
777.90	1771.49
778.07	1724.39
778.25	1847.27
778.43	1730.53
778.60	1732.58
778.78	1794.02
778.96	1800.16
779.13	1708.01
779.31	1796.07
779.49	1814.50
779.66	1669.09
779.84	1695.72
780.01	1718.25
780.19	1644.52
780.37	1724.39
780.54	1820.64
780.72	1681.38
780.90	1757.16
781.07	1714.15
781.25	1728.49
781.43	1763.30
781.60	1691.62
781.78	1785.83
781.95	1744.87
782.13	1665.00
782.31	1693.67
782.48	1593.32
782.66	1710.05
782.83	1787.88
783.01	1816.55
783.19	1781.73
783.36	1740.77
783.54	1703.91
783.72	1757.16
783.89	1708.01
784.07	1673.19
784.24	1720.29
784.42	1818.60
784.60	1765.35
784.77	1734.63
784.95	1570.79
785.12	1753.06
785.30	1736.68
785.47	1583.08
785.65	1691.62
785.83	1699.81
786.00	1626.09
786.18	1767.40
786.35	1652.71
786.53	1687.53
786.71	1771.49
786.88	1687.53
787.06	1744.87
787.23	1695.72
787.41	1619.94
787.58	1730.53
787.76	1652.71
787.94	1689.57
788.11	1658.85
788.29	1660.90
788.46	1667.05
788.64	1746.92
788.81	1556.46
788.99	1683.43
789.16	1626.09
789.34	1773.54
789.52	1660.90
789.69	1798.12
789.87	1583.08
790.04	1656.81
790.22	1689.57
790.39	1863.65
790.57	1671.14
790.74	1673.19
790.92	1826.79
791.09	1675.24
791.27	1746.92
791.44	1822.69
791.62	1691.62
791.79	1746.92
791.97	1656.81
792.15	1910.75
792.32	1665.00
792.50	1748.97
792.67	1767.40
792.85	1771.49
793.02	1726.44
793.20	1673.19
793.37	1681.38
793.55	1705.96
793.72	1687.53
793.90	1734.63
794.07	1615.85
794.25	1630.18
794.42	1677.29
794.60	1728.49
794.77	1705.96
794.95	1728.49
795.12	1826.79
795.30	1683.43
795.47	1609.70
795.65	1912.80
795.82	1726.44
796.00	1634.28
796.17	1685.48
796.34	1714.15
796.52	1738.73
796.69	1787.88
796.87	1720.29
797.04	1765.35
797.22	1783.78
797.39	1724.39
797.57	1759.21
797.74	1734.63
797.92	1734.63
798.09	1730.53
798.27	1720.29
798.44	1708.01
798.62	1683.43
798.79	1740.77
798.96	1765.35
799.14	1687.53
799.31	1841.12
799.49	1767.40
799.66	1728.49
799.84	1746.92
800.01	1712.10
800.19	1695.72
800.36	1630.18
800.53	1806.31
800.71	1738.73
800.88	1828.84
801.06	1621.99
801.23	1640.42
801.41	1695.72
801.58	1609.70
801.75	1646.57
801.93	1796.07
802.10	1800.16
802.28	1769.44
802.45	1673.19
802.63	1671.14
802.80	1810.40
802.97	1701.86
803.15	1701.86
803.32	1675.24
803.50	1685.48
803.67	1689.57
803.84	1650.66
804.02	1697.77
804.19	1738.73
804.37	1621.99
804.54	1689.57
804.71	1689.57
804.89	1679.33
805.06	1673.19
805.24	1656.81
805.41	1638.38
805.58	1656.81
805.76	1861.60
805.93	1712.10
806.10	1759.21
806.28	1791.97
806.45	1744.87
806.63	1783.78
806.80	1718.25
806.97	1732.58
807.15	1710.05
807.32	1755.11
807.49	1718.25
807.67	1701.86
807.84	1712.10
808.01	1662.95
808.19	1826.79
808.36	1785.83
808.54	1667.05
808.71	1689.57
808.88	1755.11
809.06	1736.68
809.23	1810.40
809.40	1648.61
809.58	1718.25
809.75	1677.29
809.92	1693.67
810.10	1892.32
810.27	1751.01
810.44	1716.20
810.62	1753.06
810.79	1800.16
810.96	1654.76
811.14	1609.70
811.31	1701.86
811.48	1742.82
811.66	1742.82
811.83	1689.57
812.00	1769.44
812.18	1740.77
812.35	1826.79
812.52	1689.57
812.69	1681.38
812.87	1677.29
813.04	1677.29
813.21	1730.53
813.39	1716.20
813.56	1703.91
813.73	1740.77
813.91	1613.80
814.08	1738.73
814.25	1701.86
814.42	1566.70
814.60	1697.77
814.77	1730.53
814.94	1732.58
815.12	1740.77
815.29	1777.64
815.46	1638.38
815.63	1755.11
815.81	1689.57
815.98	1755.11
816.15	1660.90
816.33	1761.25
816.50	1699.81
816.67	1705.96
816.84	1689.57
817.02	1714.15
817.19	1644.52
817.36	1734.63
817.53	1800.16
817.71	1650.66
817.88	1689.57
818.05	1583.08
818.22	1675.24
818.40	1863.65
818.57	1669.09
818.74	1705.96
818.91	1746.92
819.09	1646.57
819.26	1720.29
819.43	1658.85
819.60	1669.09
819.78	1767.40
819.95	1830.88
820.12	1628.14
820.29	1810.40
820.47	1755.11
820.64	1667.05
820.81	1615.85
820.98	1566.70
821.15	1724.39
821.33	1761.25
821.50	1634.28
821.67	1724.39
821.84	1679.33
822.02	1691.62
822.19	1769.44
822.36	1679.33
822.53	1640.42
822.70	1605.61
822.88	1697.77
823.05	1816.55
823.22	1724.39
823.39	1724.39
823.56	1689.57
823.74	1775.59
823.91	1665.00
824.08	1609.70
824.25	1701.86
824.42	1796.07
824.60	1617.90
824.77	1771.49
824.94	1646.57
825.11	1742.82
825.28	1660.90
825.45	1679.33
825.63	1695.72
825.80	1687.53
825.97	1771.49
826.14	1650.66
826.31	1628.14
826.48	1781.73
826.66	1679.33
826.83	1732.58
827.00	1712.10
827.17	1642.47
827.34	1763.30
827.51	1736.68
827.69	1675.24
827.86	1632.23
828.03	1726.44
828.20	1667.05
828.37	1654.76
828.54	1689.57
828.71	1662.95
828.89	1828.84
829.06	1712.10
829.23	1818.60
829.40	1630.18
829.57	1671.14
829.74	1738.73
829.91	1703.91
830.09	1691.62
830.26	1691.62
830.43	1769.44
830.60	1681.38
830.77	1748.97
830.94	1798.12
831.11	1720.29
831.28	1662.95
831.46	1783.78
831.63	1624.04
831.80	1826.79
831.97	1701.86
832.14	1728.49
832.31	1785.83
832.48	1708.01
832.65	1714.15
832.82	1701.86
832.99	1722.34
833.17	1648.61
833.34	1753.06
833.51	1796.07
833.68	1613.80
833.85	1787.88
834.02	1740.77
834.19	1705.96
834.36	1738.73
834.53	1726.44
834.70	1841.12
834.87	1730.53
835.04	1740.77
835.22	1681.38
835.39	1632.23
835.56	1644.52
835.73	1599.46
835.90	1712.10
836.07	1654.76
836.24	1689.57
836.41	1644.52
836.58	1630.18
836.75	1705.96
836.92	1726.44
837.09	1687.53
837.26	1755.11
837.43	1693.67
837.60	1751.01
837.77	1652.71
837.94	1740.77
838.12	1798.12
838.29	1673.19
838.46	1710.05
838.63	1621.99
838.80	1789.92
838.97	1724.39
839.14	1783.78
839.31	1716.20
839.48	1738.73
839.65	1648.61
839.82	1753.06
839.99	1751.01
840.16	1716.20
840.33	1671.14
840.50	1732.58
840.67	1605.61
840.84	1603.56
841.01	1728.49
841.18	1744.87
841.35	1699.81
841.52	1757.16
841.69	1855.46
841.86	1742.82
842.03	1710.05
842.20	1765.35
842.37	1695.72
842.54	1685.48
842.71	1675.24
842.88	1675.24
843.05	1808.36
843.22	1607.66
843.39	1728.49
843.56	1718.25
843.73	1658.85
843.90	1699.81
844.07	1732.58
844.24	1744.87
844.41	1681.38
844.58	1718.25
844.75	1708.01
844.92	1748.97
845.09	1751.01
845.26	1761.25
845.43	1771.49
845.60	1736.68
845.77	1705.96
845.94	1769.44
846.10	1714.15
846.27	1693.67
846.44	1621.99
846.61	1654.76
846.78	1724.39
846.95	1746.92
847.12	1667.05
847.29	1636.33
847.46	1689.57
847.63	1806.31
847.80	1724.39
847.97	1697.77
848.14	1839.08
848.31	1716.20
848.48	1628.14
848.65	1814.50
848.82	1648.61
848.98	1851.36
849.15	1712.10
849.32	1777.64
849.49	1773.54
849.66	1701.86
849.83	1724.39
850.00	1632.23
850.17	1781.73
850.34	1667.05
850.51	1662.95
850.68	1681.38
850.85	1791.97
851.01	1708.01
851.18	1683.43
851.35	1714.15
851.52	1802.21
851.69	1767.40
851.86	1638.38
852.03	1679.33
852.20	1697.77
852.37	1646.57
852.53	1650.66
852.70	1757.16
852.87	1656.81
853.04	1693.67
853.21	1767.40
853.38	1771.49
853.55	1812.45
853.72	1789.92
853.89	1757.16
854.05	1665.00
854.22	1685.48
854.39	1609.70
854.56	1767.40
854.73	1708.01
854.90	1708.01
855.07	1736.68
855.23	1675.24
855.40	1742.82
855.57	1691.62
855.74	1638.38
855.91	1814.50
856.08	1599.46
856.25	1718.25
856.41	1634.28
856.58	1683.43
856.75	1660.90
856.92	1658.85
857.09	1769.44
857.26	1615.85
857.42	1734.63
857.59	1701.86
857.76	1734.63
857.93	1714.15
858.10	1738.73
858.27	1695.72
858.43	1789.92
858.60	1716.20
858.77	1601.51
858.94	1677.29
859.11	1832.93
859.27	1726.44
859.44	1751.01
859.61	1824.74
859.78	1726.44
859.95	1753.06
860.12	1628.14
860.28	1816.55
860.45	1853.41
860.62	1675.24
860.79	1722.34
860.95	1689.57
861.12	1714.15
861.29	1626.09
861.46	1685.48
861.63	1662.95
861.79	1738.73
861.96	1640.42
862.13	1712.10
862.30	1720.29
862.47	1646.57
862.63	1658.85
862.80	1812.45
862.97	1775.59
863.14	1777.64
863.30	1710.05
863.47	1671.14
863.64	1744.87
863.81	1742.82
863.97	1767.40
864.14	1724.39
864.31	1734.63
864.48	1708.01
864.65	1665.00
864.81	1761.25
864.98	1714.15
865.15	1738.73
865.32	1794.02
865.48	1742.82
865.65	1863.65
865.82	1748.97
865.98	1791.97
866.15	1785.83
866.32	1763.30
866.49	1689.57
866.65	1736.68
866.82	1615.85
866.99	1650.66
867.16	1636.33
867.32	1718.25
867.49	1724.39
867.66	1738.73
867.83	1695.72
867.99	1705.96
868.16	1691.62
868.33	1669.09
868.49	1689.57
868.66	1650.66
868.83	1718.25
868.99	1722.34
869.16	1703.91
869.33	1732.58
869.50	1771.49
869.66	1714.15
869.83	1763.30
870.00	1619.94
870.16	1691.62
870.33	1755.11
870.50	1738.73
870.66	1693.67
870.83	1886.18
871.00	1740.77
871.17	1742.82
871.33	1736.68
871.50	1746.92
871.67	1779.68
871.83	1585.13
872.00	1802.21
872.17	1703.91
872.33	1855.46
872.50	1728.49
872.67	1710.05
872.83	1718.25
873.00	1714.15
873.17	1746.92
873.33	1744.87
873.50	1720.29
873.67	1718.25
873.83	1685.48
874.00	1675.24
874.16	1771.49
874.33	1642.47
874.50	1667.05
874.66	1779.68
874.83	1683.43
875.00	1740.77
875.16	1722.34
875.33	1824.74
875.50	1558.50
875.66	1656.81
875.83	1718.25
875.99	1748.97
876.16	1761.25
876.33	1728.49
876.49	1611.75
876.66	1759.21
876.83	1658.85
876.99	1587.18
877.16	1691.62
877.32	1783.78
877.49	1730.53
877.66	1673.19
877.82	1800.16
877.99	1699.81
878.15	1755.11
878.32	1677.29
878.49	1673.19
878.65	1669.09
878.82	1787.88
878.98	1751.01
879.15	1718.25
879.32	1789.92
879.48	1671.14
879.65	1665.00
879.81	1755.11
879.98	1656.81
880.15	1683.43
880.31	1740.77
880.48	1681.38
880.64	1759.21
880.81	1701.86
880.97	1806.31
881.14	1746.92
881.31	1667.05
881.47	1916.90
881.64	1652.71
881.80	1591.27
881.97	1654.76
882.13	1794.02
882.30	1626.09
882.47	1710.05
882.63	1773.54
882.80	1648.61
882.96	1656.81
883.13	1820.64
883.29	1695.72
883.46	1734.63
883.62	1806.31
883.79	1693.67
883.95	1689.57
884.12	1783.78
884.29	1798.12
884.45	1710.05
884.62	1771.49
884.78	1667.05
884.95	1847.27
885.11	1642.47
885.28	1738.73
885.44	1697.77
885.61	1716.20
885.77	1757.16
885.94	1658.85
886.10	1705.96
886.27	1763.30
886.43	1861.60
886.60	1841.12
886.76	1693.67
886.93	1656.81
887.09	1736.68
887.26	1630.18
887.42	1648.61
887.59	1738.73
887.75	1837.03
887.92	1777.64
888.08	1716.20
888.25	1783.78
888.41	1746.92
888.58	1757.16
888.74	1658.85
888.91	1740.77
>>>>>End Processed Spectral Data<<<<<
