SpectraSuite Data File
++++++++++++++++++++++++++++++++++++
Date: Mon Jun 06 16:33:37 CEST 2016
User: root
Dark Spectrum Present: No
Reference Spectrum Present: No
Number of Sampled Component Spectra: 1
Spectrometers: USB4C02835
Integration Time (usec): 100000 (USB4C02835)
Spectra Averaged: 1 (USB4C02835)
Boxcar Smoothing: 0 (USB4C02835)
Correct for Electrical Dark: No (USB4C02835)
Strobe/Lamp Enabled: No (USB4C02835)
Correct for Detector Non-linearity: No (USB4C02835)
Correct for Stray Light: No (USB4C02835)
Number of Pixels in Processed Spectrum: 3648
>>>>>Begin Processed Spectral Data<<<<<
177.47	1476.59
177.69	1476.59
177.91	1476.59
178.13	1433.58
178.36	1474.54
178.58	1691.62
178.80	1730.53
179.02	1724.39
179.24	1587.18
179.46	1716.20
179.68	1820.64
179.90	1732.58
180.13	1710.05
180.35	1646.57
180.57	1681.38
180.79	1810.40
181.01	1779.68
181.23	1783.78
181.45	1697.77
181.67	1791.97
181.90	1744.87
182.12	1667.05
182.34	1646.57
182.56	1642.47
182.78	1705.96
183.00	1753.06
183.22	1665.00
183.44	1566.70
183.66	1857.51
183.89	1794.02
184.11	1697.77
184.33	1751.01
184.55	1839.08
184.77	1771.49
184.99	1734.63
185.21	1722.34
185.43	1849.32
185.65	1712.10
185.87	1701.86
186.10	1804.26
186.32	1851.36
186.54	1673.19
186.76	1705.96
186.98	1669.09
187.20	1751.01
187.42	1632.23
187.64	1681.38
187.86	1751.01
188.08	1783.78
188.30	1720.29
188.52	1705.96
188.75	1783.78
188.97	1812.45
189.19	1705.96
189.41	1652.71
189.63	1732.58
189.85	1691.62
190.07	1669.09
190.29	1609.70
190.51	1787.88
190.73	1599.46
190.95	1708.01
191.17	1718.25
191.39	1685.48
191.61	1689.57
191.84	1714.15
192.06	1683.43
192.28	1574.89
192.50	1853.41
192.72	1724.39
192.94	1746.92
193.16	1738.73
193.38	1726.44
193.60	1578.98
193.82	1648.61
194.04	1757.16
194.26	1767.40
194.48	1726.44
194.70	1720.29
194.92	1652.71
195.14	1779.68
195.36	1677.29
195.58	1769.44
195.80	1675.24
196.02	1624.04
196.24	1646.57
196.46	1771.49
196.69	1665.00
196.91	1851.36
197.13	1632.23
197.35	1675.24
197.57	1822.69
197.79	1740.77
198.01	1701.86
198.23	1738.73
198.45	1761.25
198.67	1753.06
198.89	1726.44
199.11	1724.39
199.33	1701.86
199.55	1595.37
199.77	1712.10
199.99	1763.30
200.21	1652.71
200.43	1718.25
200.65	1585.13
200.87	1572.84
201.09	1716.20
201.31	1630.18
201.53	1738.73
201.75	1794.02
201.97	1650.66
202.19	1687.53
202.41	1716.20
202.63	1769.44
202.85	1781.73
203.07	1757.16
203.29	1687.53
203.51	1665.00
203.73	1660.90
203.95	1873.89
204.17	1703.91
204.39	1716.20
204.61	1662.95
204.83	1667.05
205.05	1740.77
205.27	1806.31
205.49	1812.45
205.71	1665.00
205.93	1691.62
206.15	1699.81
206.37	1595.37
206.59	1689.57
206.81	1679.33
207.03	1667.05
207.25	1685.48
207.47	1740.77
207.69	1810.40
207.91	1808.36
208.13	1796.07
208.34	1681.38
208.56	1628.14
208.78	1763.30
209.00	1677.29
209.22	1658.85
209.44	1716.20
209.66	1642.47
209.88	1728.49
210.10	1769.44
210.32	1736.68
210.54	1783.78
210.76	1748.97
210.98	1710.05
211.20	1644.52
211.42	1705.96
211.64	1734.63
211.86	1708.01
212.08	1720.29
212.30	1748.97
212.52	1685.48
212.74	1665.00
212.96	1742.82
213.17	1812.45
213.39	1673.19
213.61	1748.97
213.83	1740.77
214.05	1619.94
214.27	1818.60
214.49	1636.33
214.71	1683.43
214.93	1820.64
215.15	1669.09
215.37	1697.77
215.59	1595.37
215.81	1746.92
216.03	1742.82
216.24	1746.92
216.46	1685.48
216.68	1730.53
216.90	1759.21
217.12	1757.16
217.34	1720.29
217.56	1744.87
217.78	1742.82
218.00	1769.44
218.22	1708.01
218.44	1755.11
218.66	1761.25
218.87	1744.87
219.09	1648.61
219.31	1794.02
219.53	1716.20
219.75	1677.29
219.97	1689.57
220.19	1738.73
220.41	1693.67
220.63	1748.97
220.85	1751.01
221.06	1699.81
221.28	1826.79
221.50	1708.01
221.72	1703.91
221.94	1773.54
222.16	1734.63
222.38	1767.40
222.60	1734.63
222.82	1730.53
223.03	1695.72
223.25	1673.19
223.47	1767.40
223.69	1806.31
223.91	1802.21
224.13	1705.96
224.35	1685.48
224.57	1775.59
224.78	1736.68
225.00	1650.66
225.22	1677.29
225.44	1681.38
225.66	1748.97
225.88	1658.85
226.10	1775.59
226.32	1632.23
226.53	1806.31
226.75	1742.82
226.97	1697.77
227.19	1783.78
227.41	1705.96
227.63	1615.85
227.85	1609.70
228.06	1619.94
228.28	1748.97
228.50	1751.01
228.72	1718.25
228.94	1675.24
229.16	1630.18
229.37	1718.25
229.59	1671.14
229.81	1755.11
230.03	1693.67
230.25	1621.99
230.47	1648.61
230.69	1697.77
230.90	1775.59
231.12	1667.05
231.34	1724.39
231.56	1742.82
231.78	1617.90
232.00	1689.57
232.21	1693.67
232.43	1705.96
232.65	1550.31
232.87	1662.95
233.09	1619.94
233.30	1662.95
233.52	1763.30
233.74	1730.53
233.96	1779.68
234.18	1703.91
234.40	1728.49
234.61	1814.50
234.83	1576.94
235.05	1542.12
235.27	1851.36
235.49	1730.53
235.70	1701.86
235.92	1744.87
236.14	1712.10
236.36	1855.46
236.58	1701.86
236.79	1804.26
237.01	1601.51
237.23	1673.19
237.45	1832.93
237.67	1671.14
237.88	1751.01
238.10	1830.88
238.32	1611.75
238.54	1673.19
238.76	1675.24
238.97	1578.98
239.19	1671.14
239.41	1742.82
239.63	1798.12
239.85	1710.05
240.06	1710.05
240.28	1728.49
240.50	1783.78
240.72	1683.43
240.93	1634.28
241.15	1771.49
241.37	1724.39
241.59	1859.56
241.81	1767.40
242.02	1726.44
242.24	1722.34
242.46	1720.29
242.68	1595.37
242.89	1730.53
243.11	1783.78
243.33	1746.92
243.55	1748.97
243.76	1705.96
243.98	1691.62
244.20	1767.40
244.42	1679.33
244.64	1693.67
244.85	1640.42
245.07	1628.14
245.29	1781.73
245.51	1673.19
245.72	1671.14
245.94	1783.78
246.16	1736.68
246.38	1728.49
246.59	1665.00
246.81	1685.48
247.03	1652.71
247.24	1615.85
247.46	1619.94
247.68	1710.05
247.90	1665.00
248.11	1642.47
248.33	1787.88
248.55	1712.10
248.77	1703.91
248.98	1800.16
249.20	1804.26
249.42	1658.85
249.64	1769.44
249.85	1673.19
250.07	1683.43
250.29	1665.00
250.50	1783.78
250.72	1701.86
250.94	1712.10
251.16	1818.60
251.37	1789.92
251.59	1759.21
251.81	1705.96
252.02	1767.40
252.24	1697.77
252.46	1779.68
252.68	1720.29
252.89	1656.81
253.11	1638.38
253.33	1740.77
253.54	1771.49
253.76	1654.76
253.98	1607.66
254.20	1701.86
254.41	1660.90
254.63	1665.00
254.85	1603.56
255.06	1724.39
255.28	1718.25
255.50	1689.57
255.71	1642.47
255.93	1667.05
256.15	1687.53
256.36	1691.62
256.58	1679.33
256.80	1687.53
257.02	1658.85
257.23	1601.51
257.45	1708.01
257.67	1765.35
257.88	1624.04
258.10	1697.77
258.32	1724.39
258.53	1615.85
258.75	1738.73
258.97	1708.01
259.18	1738.73
259.40	1724.39
259.62	1826.79
259.83	1724.39
260.05	1775.59
260.27	2021.35
260.48	1775.59
260.70	1603.56
260.92	1753.06
261.13	1685.48
261.35	1716.20
261.57	1730.53
261.78	1640.42
262.00	1632.23
262.22	1740.77
262.43	1699.81
262.65	1681.38
262.86	1640.42
263.08	1892.32
263.30	1763.30
263.51	1638.38
263.73	1667.05
263.95	1718.25
264.16	1681.38
264.38	1646.57
264.60	1800.16
264.81	1662.95
265.03	1708.01
265.25	1652.71
265.46	1656.81
265.68	1869.80
265.89	1687.53
266.11	1617.90
266.33	1759.21
266.54	1832.93
266.76	1726.44
266.98	1773.54
267.19	1826.79
267.41	1814.50
267.62	1714.15
267.84	1669.09
268.06	1738.73
268.27	1650.66
268.49	1767.40
268.70	1738.73
268.92	1675.24
269.14	1665.00
269.35	1591.27
269.57	1658.85
269.79	1701.86
270.00	1679.33
270.22	1791.97
270.43	1736.68
270.65	1648.61
270.87	1640.42
271.08	1654.76
271.30	1748.97
271.51	1732.58
271.73	1738.73
271.95	1791.97
272.16	1652.71
272.38	1658.85
272.59	1630.18
272.81	1769.44
273.02	1726.44
273.24	1728.49
273.46	1804.26
273.67	1619.94
273.89	1665.00
274.10	1765.35
274.32	1787.88
274.54	1779.68
274.75	1763.30
274.97	1642.47
275.18	1759.21
275.40	1658.85
275.61	1751.01
275.83	1716.20
276.05	1628.14
276.26	1708.01
276.48	1759.21
276.69	1724.39
276.91	1640.42
277.12	1728.49
277.34	1763.30
277.55	1767.40
277.77	1726.44
277.99	1691.62
278.20	1689.57
278.42	1675.24
278.63	1712.10
278.85	1695.72
279.06	1619.94
279.28	1828.84
279.49	1767.40
279.71	1720.29
279.93	1708.01
280.14	1742.82
280.36	1695.72
280.57	1740.77
280.79	1783.78
281.00	1763.30
281.22	1710.05
281.43	1826.79
281.65	1595.37
281.86	1720.29
282.08	1740.77
282.29	1812.45
282.51	1599.46
282.73	1665.00
282.94	1621.99
283.16	1705.96
283.37	1832.93
283.59	1640.42
283.80	1673.19
284.02	1722.34
284.23	1697.77
284.45	1644.52
284.66	1669.09
284.88	1679.33
285.09	1687.53
285.31	1712.10
285.52	1695.72
285.74	1681.38
285.95	1834.98
286.17	1650.66
286.38	1781.73
286.60	1650.66
286.81	1691.62
287.03	1728.49
287.24	1699.81
287.46	1683.43
287.67	1787.88
287.89	1849.32
288.10	1644.52
288.32	1705.96
288.53	1816.55
288.75	1748.97
288.96	1726.44
289.18	1804.26
289.39	1677.29
289.61	1726.44
289.82	1810.40
290.04	1855.46
290.25	1656.81
290.47	1626.09
290.68	1662.95
290.90	1781.73
291.11	1566.70
291.33	1712.10
291.54	1644.52
291.76	1701.86
291.97	1783.78
292.18	1738.73
292.40	1679.33
292.61	1652.71
292.83	1843.17
293.04	1751.01
293.26	1744.87
293.47	1669.09
293.69	1710.05
293.90	1705.96
294.12	1783.78
294.33	1742.82
294.55	1710.05
294.76	1753.06
294.97	1767.40
295.19	1802.21
295.40	1710.05
295.62	1732.58
295.83	1740.77
296.05	1683.43
296.26	1783.78
296.48	1685.48
296.69	1656.81
296.90	1708.01
297.12	1691.62
297.33	1730.53
297.55	1689.57
297.76	1771.49
297.98	1728.49
298.19	1716.20
298.41	1734.63
298.62	1628.14
298.83	1744.87
299.05	1697.77
299.26	1738.73
299.48	1632.23
299.69	1757.16
299.90	1724.39
300.12	1701.86
300.33	1759.21
300.55	1726.44
300.76	1658.85
300.98	1642.47
301.19	1744.87
301.40	1769.44
301.62	1652.71
301.83	1714.15
302.05	1658.85
302.26	1710.05
302.47	1773.54
302.69	1685.48
302.90	1742.82
303.12	1578.98
303.33	1726.44
303.54	1841.12
303.76	1705.96
303.97	1744.87
304.19	1814.50
304.40	1728.49
304.61	1748.97
304.83	1808.36
305.04	1708.01
305.26	1716.20
305.47	1679.33
305.68	1785.83
305.90	1665.00
306.11	1800.16
306.33	1683.43
306.54	1775.59
306.75	1738.73
306.97	1671.14
307.18	1650.66
307.39	1665.00
307.61	1691.62
307.82	1767.40
308.04	1828.84
308.25	1669.09
308.46	1658.85
308.68	1673.19
308.89	1738.73
309.10	1759.21
309.32	1742.82
309.53	1736.68
309.74	1673.19
309.96	1710.05
310.17	1755.11
310.39	1671.14
310.60	1806.31
310.81	1724.39
311.03	1613.80
311.24	1796.07
311.45	1742.82
311.67	1863.65
311.88	1669.09
312.09	1640.42
312.31	1716.20
312.52	1671.14
312.73	1730.53
312.95	1695.72
313.16	1605.61
313.37	1804.26
313.59	1779.68
313.80	1724.39
314.01	1736.68
314.23	1667.05
314.44	1671.14
314.65	1613.80
314.87	1656.81
315.08	1669.09
315.29	1685.48
315.51	1632.23
315.72	1646.57
315.93	1763.30
316.15	1775.59
316.36	1660.90
316.57	1712.10
316.79	1767.40
317.00	1673.19
317.21	1734.63
317.43	1708.01
317.64	1671.14
317.85	1669.09
318.07	1665.00
318.28	1781.73
318.49	1837.03
318.70	1869.80
318.92	1853.41
319.13	1820.64
319.34	1816.55
319.56	1841.12
319.77	1861.60
319.98	1816.55
320.20	1789.92
320.41	1724.39
320.62	1724.39
320.83	1675.24
321.05	1791.97
321.26	1671.14
321.47	1753.06
321.69	1779.68
321.90	1644.52
322.11	1705.96
322.32	1714.15
322.54	1740.77
322.75	1626.09
322.96	1851.36
323.18	1605.61
323.39	1650.66
323.60	1650.66
323.81	1814.50
324.03	1697.77
324.24	1720.29
324.45	1705.96
324.66	1714.15
324.88	1646.57
325.09	1781.73
325.30	1748.97
325.52	1769.44
325.73	1699.81
325.94	1599.46
326.15	1632.23
326.37	1667.05
326.58	1648.61
326.79	1847.27
327.00	1695.72
327.22	1685.48
327.43	1658.85
327.64	1718.25
327.85	1775.59
328.07	1746.92
328.28	1820.64
328.49	1736.68
328.70	1673.19
328.92	1701.86
329.13	1736.68
329.34	1796.07
329.55	1875.94
329.76	1699.81
329.98	1671.14
330.19	1796.07
330.40	1718.25
330.61	1697.77
330.83	1714.15
331.04	1730.53
331.25	1736.68
331.46	1677.29
331.68	1615.85
331.89	1787.88
332.10	1746.92
332.31	1619.94
332.52	1728.49
332.74	1773.54
332.95	1669.09
333.16	1662.95
333.37	1787.88
333.58	1755.11
333.80	1675.24
334.01	1636.33
334.22	1740.77
334.43	1714.15
334.64	1675.24
334.86	1581.03
335.07	1642.47
335.28	1724.39
335.49	1714.15
335.70	1748.97
335.92	1779.68
336.13	1804.26
336.34	1728.49
336.55	1748.97
336.76	1701.86
336.98	1599.46
337.19	1753.06
337.40	1779.68
337.61	1812.45
337.82	1581.03
338.04	1751.01
338.25	1560.55
338.46	1703.91
338.67	1642.47
338.88	1673.19
339.09	1722.34
339.31	1714.15
339.52	1652.71
339.73	1597.42
339.94	1687.53
340.15	1791.97
340.36	1660.90
340.58	1677.29
340.79	1601.51
341.00	1767.40
341.21	1636.33
341.42	1767.40
341.63	1644.52
341.85	1714.15
342.06	1710.05
342.27	1701.86
342.48	1818.60
342.69	1652.71
342.90	1781.73
343.12	1738.73
343.33	1660.90
343.54	1746.92
343.75	1814.50
343.96	1755.11
344.17	1638.38
344.38	1671.14
344.60	1660.90
344.81	1654.76
345.02	1658.85
345.23	1757.16
345.44	1832.93
345.65	1759.21
345.86	1708.01
346.07	1640.42
346.29	1654.76
346.50	1798.12
346.71	1746.92
346.92	1798.12
347.13	1884.13
347.34	1671.14
347.55	1671.14
347.76	1705.96
347.98	1611.75
348.19	1732.58
348.40	1753.06
348.61	1691.62
348.82	1802.21
349.03	1652.71
349.24	1611.75
349.45	1748.97
349.66	1648.61
349.88	1714.15
350.09	1652.71
350.30	1808.36
350.51	1802.21
350.72	1699.81
350.93	1714.15
351.14	1751.01
351.35	1804.26
351.56	1712.10
351.77	1734.63
351.99	1691.62
352.20	1841.12
352.41	1781.73
352.62	1599.46
352.83	1685.48
353.04	1701.86
353.25	1736.68
353.46	1791.97
353.67	1824.74
353.88	1578.98
354.09	1613.80
354.30	1691.62
354.52	1759.21
354.73	1705.96
354.94	1636.33
355.15	1695.72
355.36	1744.87
355.57	1697.77
355.78	1779.68
355.99	1644.52
356.20	1665.00
356.41	1763.30
356.62	1740.77
356.83	1748.97
357.04	1812.45
357.25	1640.42
357.46	1677.29
357.68	1660.90
357.89	1710.05
358.10	1751.01
358.31	1791.97
358.52	1730.53
358.73	1599.46
358.94	1660.90
359.15	1650.66
359.36	1791.97
359.57	1738.73
359.78	1648.61
359.99	1798.12
360.20	1687.53
360.41	1710.05
360.62	1796.07
360.83	1746.92
361.04	1771.49
361.25	1703.91
361.46	1859.56
361.67	1734.63
361.88	1783.78
362.09	1779.68
362.30	1755.11
362.51	1755.11
362.72	1693.67
362.93	1804.26
363.14	1708.01
363.35	1703.91
363.56	1742.82
363.78	1808.36
363.99	1812.45
364.20	1681.38
364.41	1763.30
364.62	1765.35
364.83	1718.25
365.04	1691.62
365.25	1742.82
365.46	1800.16
365.67	1681.38
365.88	1714.15
366.09	1681.38
366.30	1753.06
366.51	1665.00
366.72	1685.48
366.93	1677.29
367.14	1726.44
367.35	1781.73
367.56	1755.11
367.77	1757.16
367.98	1687.53
368.18	1761.25
368.39	1771.49
368.60	1593.32
368.81	1755.11
369.02	1775.59
369.23	1703.91
369.44	1632.23
369.65	1691.62
369.86	1736.68
370.07	1738.73
370.28	1626.09
370.49	1701.86
370.70	1738.73
370.91	1726.44
371.12	1662.95
371.33	1740.77
371.54	1699.81
371.75	1777.64
371.96	1609.70
372.17	1734.63
372.38	1736.68
372.59	1708.01
372.80	1679.33
373.01	1689.57
373.22	1757.16
373.43	1728.49
373.64	1624.04
373.85	1828.84
374.06	1773.54
374.26	1705.96
374.47	1712.10
374.68	1849.32
374.89	1691.62
375.10	1675.24
375.31	1734.63
375.52	1742.82
375.73	1726.44
375.94	1689.57
376.15	1789.92
376.36	1671.14
376.57	1665.00
376.78	1685.48
376.99	1748.97
377.20	1769.44
377.40	1683.43
377.61	1771.49
377.82	1701.86
378.03	1796.07
378.24	1738.73
378.45	1683.43
378.66	1730.53
378.87	1642.47
379.08	1732.58
379.29	1681.38
379.50	1773.54
379.71	1689.57
379.91	1755.11
380.12	1677.29
380.33	1718.25
380.54	1656.81
380.75	1638.38
380.96	1714.15
381.17	1789.92
381.38	1642.47
381.59	1769.44
381.80	1689.57
382.00	1849.32
382.21	1732.58
382.42	1875.94
382.63	1853.41
382.84	1740.77
383.05	1773.54
383.26	1843.17
383.47	1726.44
383.68	1767.40
383.88	1839.08
384.09	1683.43
384.30	1863.65
384.51	1734.63
384.72	1710.05
384.93	1574.89
385.14	1720.29
385.35	1828.84
385.55	1656.81
385.76	1867.75
385.97	1673.19
386.18	1675.24
386.39	1652.71
386.60	1734.63
386.81	1777.64
387.02	1650.66
387.22	1662.95
387.43	1781.73
387.64	1849.32
387.85	1908.71
388.06	2250.72
388.27	4368.32
388.48	6848.41
388.68	8324.99
388.89	9815.91
389.10	9994.09
389.31	8552.32
389.52	7595.92
389.73	6743.96
389.93	6299.55
390.14	5805.99
390.35	5177.26
390.56	4638.65
390.77	3862.47
390.98	3016.66
391.18	2469.85
391.39	2160.61
391.60	1730.53
391.81	1904.61
392.02	1697.77
392.23	1816.55
392.43	1746.92
392.64	1867.75
392.85	1665.00
393.06	1800.16
393.27	1806.31
393.47	1660.90
393.68	1740.77
393.89	1644.52
394.10	1847.27
394.31	1691.62
394.52	1681.38
394.72	1712.10
394.93	1751.01
395.14	1687.53
395.35	1712.10
395.56	1628.14
395.76	1798.12
395.97	1808.36
396.18	1806.31
396.39	1812.45
396.60	2056.16
396.80	1894.37
397.01	1746.92
397.22	1812.45
397.43	1914.85
397.64	1718.25
397.84	1830.88
398.05	1859.56
398.26	1740.77
398.47	1800.16
398.67	1837.03
398.88	1775.59
399.09	1759.21
399.30	1679.33
399.51	1722.34
399.71	1703.91
399.92	1634.28
400.13	1753.06
400.34	1703.91
400.54	1718.25
400.75	1834.98
400.96	1673.19
401.17	1861.60
401.37	1675.24
401.58	1714.15
401.79	1769.44
402.00	1867.75
402.21	2002.91
402.41	1970.15
402.62	1961.95
402.83	2066.40
403.04	2041.82
403.24	2035.68
403.45	1931.23
403.66	1953.76
403.87	1859.56
404.07	1877.99
404.28	1951.71
404.49	1912.80
404.70	1837.03
404.90	1751.01
405.11	1789.92
405.32	1736.68
405.52	1669.09
405.73	1609.70
405.94	1593.32
406.15	1699.81
406.35	1787.88
406.56	1787.88
406.77	1705.96
406.98	1755.11
407.18	1679.33
407.39	1763.30
407.60	1712.10
407.80	1708.01
408.01	1656.81
408.22	1609.70
408.43	1710.05
408.63	1736.68
408.84	1710.05
409.05	1796.07
409.25	1677.29
409.46	1677.29
409.67	1665.00
409.88	1675.24
410.08	1748.97
410.29	1660.90
410.50	1699.81
410.70	1695.72
410.91	1712.10
411.12	1740.77
411.32	1708.01
411.53	1628.14
411.74	1751.01
411.95	1808.36
412.15	1746.92
412.36	1820.64
412.57	1738.73
412.77	1765.35
412.98	1697.77
413.19	1775.59
413.39	1751.01
413.60	1701.86
413.81	1828.84
414.01	1708.01
414.22	1734.63
414.43	1812.45
414.63	1667.05
414.84	1779.68
415.05	1718.25
415.25	1656.81
415.46	1728.49
415.67	1718.25
415.87	1648.61
416.08	1689.57
416.29	1679.33
416.49	1787.88
416.70	1724.39
416.91	1705.96
417.11	1675.24
417.32	1796.07
417.53	1824.74
417.73	1742.82
417.94	1660.90
418.15	1751.01
418.35	1722.34
418.56	1716.20
418.77	1861.60
418.97	1728.49
419.18	1703.91
419.38	1495.02
419.59	1738.73
419.80	1767.40
420.00	1681.38
420.21	1695.72
420.42	1779.68
420.62	1695.72
420.83	1665.00
421.04	1773.54
421.24	1705.96
421.45	1681.38
421.65	1785.83
421.86	1689.57
422.07	1716.20
422.27	1771.49
422.48	1730.53
422.69	1689.57
422.89	1687.53
423.10	1738.73
423.30	1691.62
423.51	1681.38
423.72	1734.63
423.92	1783.78
424.13	1644.52
424.33	1703.91
424.54	1753.06
424.75	1710.05
424.95	1826.79
425.16	1765.35
425.36	1728.49
425.57	1773.54
425.78	1765.35
425.98	1740.77
426.19	1667.05
426.39	1720.29
426.60	1714.15
426.81	1826.79
427.01	1759.21
427.22	1669.09
427.42	1675.24
427.63	1691.62
427.83	1740.77
428.04	1783.78
428.25	1820.64
428.45	1783.78
428.66	1789.92
428.86	1656.81
429.07	1646.57
429.28	1652.71
429.48	1738.73
429.69	1712.10
429.89	1716.20
430.10	1673.19
430.30	1794.02
430.51	1789.92
430.71	1679.33
430.92	1679.33
431.13	1669.09
431.33	1708.01
431.54	1759.21
431.74	1820.64
431.95	1853.41
432.15	1755.11
432.36	1783.78
432.56	1755.11
432.77	1908.71
432.98	1826.79
433.18	1755.11
433.39	1699.81
433.59	1738.73
433.80	1927.14
434.00	1920.99
434.21	1763.30
434.41	1673.19
434.62	1845.22
434.82	1652.71
435.03	1689.57
435.23	1761.25
435.44	1513.45
435.64	1714.15
435.85	1781.73
436.06	1820.64
436.26	1767.40
436.47	1718.25
436.67	1689.57
436.88	1679.33
437.08	1855.46
437.29	1806.31
437.49	1722.34
437.70	1783.78
437.90	1712.10
438.11	1865.70
438.31	1765.35
438.52	1832.93
438.72	1857.51
438.93	1949.67
439.13	1820.64
439.34	1855.46
439.54	1732.58
439.75	1775.59
439.95	1736.68
440.16	1677.29
440.36	1761.25
440.57	1681.38
440.77	1746.92
440.98	1691.62
441.18	1763.30
441.39	1652.71
441.59	1699.81
441.80	1839.08
442.00	1681.38
442.21	1783.78
442.41	1671.14
442.62	1726.44
442.82	1681.38
443.02	1710.05
443.23	1728.49
443.43	1746.92
443.64	1787.88
443.84	1701.86
444.05	1867.75
444.25	1753.06
444.46	1716.20
444.66	1771.49
444.87	1789.92
445.07	1656.81
445.28	1787.88
445.48	1791.97
445.69	1783.78
445.89	1877.99
446.09	1734.63
446.30	1957.86
446.50	2684.89
446.71	3882.95
446.91	4386.75
447.12	4681.66
447.32	4773.82
447.53	4308.93
447.73	3876.80
447.93	3538.89
448.14	3438.54
448.34	3229.65
448.55	2920.40
448.75	2799.57
448.96	2688.98
449.16	2426.84
449.36	2205.66
449.57	2086.88
449.77	1906.66
449.98	1802.21
450.18	1804.26
450.39	1773.54
450.59	1841.12
450.79	1732.58
451.00	1740.77
451.20	1808.36
451.41	1710.05
451.61	1726.44
451.81	1769.44
452.02	1734.63
452.22	1687.53
452.43	1703.91
452.63	1691.62
452.84	1726.44
453.04	1738.73
453.24	1773.54
453.45	1722.34
453.65	1710.05
453.86	1740.77
454.06	1767.40
454.26	1755.11
454.47	1636.33
454.67	1796.07
454.87	1738.73
455.08	1720.29
455.28	1906.66
455.49	1794.02
455.69	1703.91
455.89	1855.46
456.10	1837.03
456.30	1791.97
456.51	1783.78
456.71	1791.97
456.91	1796.07
457.12	1705.96
457.32	1720.29
457.52	1650.66
457.73	1710.05
457.93	1828.84
458.14	1724.39
458.34	1671.14
458.54	1712.10
458.75	1634.28
458.95	1796.07
459.15	1732.58
459.36	1791.97
459.56	1800.16
459.76	1832.93
459.97	1767.40
460.17	1742.82
460.37	1810.40
460.58	1669.09
460.78	1738.73
460.99	1671.14
461.19	1742.82
461.39	1718.25
461.60	1718.25
461.80	1796.07
462.00	1765.35
462.21	1736.68
462.41	1656.81
462.61	1718.25
462.82	1638.38
463.02	1722.34
463.22	1781.73
463.43	1812.45
463.63	1693.67
463.83	1753.06
464.04	1800.16
464.24	1730.53
464.44	1712.10
464.64	1724.39
464.85	1796.07
465.05	1832.93
465.25	1724.39
465.46	1681.38
465.66	1767.40
465.86	1732.58
466.07	1728.49
466.27	1753.06
466.47	1648.61
466.68	1656.81
466.88	1855.46
467.08	1785.83
467.29	1779.68
467.49	1759.21
467.69	1746.92
467.89	1742.82
468.10	1697.77
468.30	1757.16
468.50	1914.85
468.71	1767.40
468.91	1652.71
469.11	1832.93
469.31	1763.30
469.52	1665.00
469.72	1828.84
469.92	1894.37
470.13	1740.77
470.33	1705.96
470.53	1820.64
470.73	2101.22
470.94	2299.87
471.14	2357.21
471.34	2471.90
471.54	2492.38
471.75	2269.15
471.95	2185.18
472.15	2095.07
472.36	2193.37
472.56	2080.74
472.76	2105.31
472.96	1943.52
473.17	1908.71
473.37	1939.43
473.57	1814.50
473.77	1800.16
473.98	1800.16
474.18	1642.47
474.38	1898.47
474.58	1738.73
474.79	1693.67
474.99	1724.39
475.19	1806.31
475.39	1621.99
475.60	1777.64
475.80	1779.68
476.00	1671.14
476.20	1691.62
476.41	1703.91
476.61	1791.97
476.81	1810.40
477.01	1638.38
477.21	1828.84
477.42	1773.54
477.62	1740.77
477.82	1781.73
478.02	1785.83
478.23	1738.73
478.43	1683.43
478.63	1781.73
478.83	1736.68
479.03	1718.25
479.24	1808.36
479.44	1841.12
479.64	1701.86
479.84	1630.18
480.04	1687.53
480.25	1812.45
480.45	1738.73
480.65	1724.39
480.85	1769.44
481.06	1638.38
481.26	1687.53
481.46	1708.01
481.66	1763.30
481.86	1802.21
482.06	1771.49
482.27	1693.67
482.47	1759.21
482.67	1652.71
482.87	1716.20
483.07	1810.40
483.28	1652.71
483.48	1705.96
483.68	1794.02
483.88	1736.68
484.08	1660.90
484.29	1626.09
484.49	1705.96
484.69	1607.66
484.89	1732.58
485.09	1732.58
485.29	1753.06
485.50	1755.11
485.70	1667.05
485.90	1849.32
486.10	1714.15
486.30	1785.83
486.50	1732.58
486.71	1734.63
486.91	1794.02
487.11	1812.45
487.31	1619.94
487.51	1726.44
487.71	1736.68
487.91	1669.09
488.12	1656.81
488.32	1632.23
488.52	1626.09
488.72	1753.06
488.92	1789.92
489.12	1875.94
489.32	1765.35
489.53	1787.88
489.73	1626.09
489.93	1806.31
490.13	1785.83
490.33	1613.80
490.53	1705.96
490.73	1744.87
490.94	1687.53
491.14	1734.63
491.34	1880.04
491.54	2154.46
491.74	2582.49
491.94	2959.31
492.14	3059.67
492.34	2940.88
492.54	2785.24
492.75	2469.85
492.95	2502.62
493.15	2342.88
493.35	2353.12
493.55	2183.13
493.75	2131.94
493.95	2150.37
494.15	2035.68
494.35	1916.90
494.56	1828.84
494.76	1861.60
494.96	1822.69
495.16	1855.46
495.36	1734.63
495.56	1685.48
495.76	1746.92
495.96	1636.33
496.16	1654.76
496.36	1814.50
496.56	1734.63
496.77	1802.21
496.97	1648.61
497.17	1777.64
497.37	1712.10
497.57	1783.78
497.77	1738.73
497.97	1689.57
498.17	1703.91
498.37	1662.95
498.57	1744.87
498.77	1693.67
498.97	1714.15
499.17	1820.64
499.38	1734.63
499.58	1781.73
499.78	1806.31
499.98	1765.35
500.18	1748.97
500.38	1746.92
500.58	1863.65
500.78	2564.06
500.98	4603.83
501.18	5883.81
501.38	6774.68
501.58	7288.72
501.78	6682.52
501.98	5609.39
502.18	4925.36
502.38	4427.71
502.58	4073.41
502.78	3764.17
502.98	3637.19
503.18	3520.46
503.38	3168.21
503.59	2895.83
503.79	2721.75
503.99	2510.81
504.19	2357.21
504.39	2254.81
504.59	2199.52
504.79	2105.31
504.99	2084.83
505.19	1929.19
505.39	1927.14
505.59	1984.48
505.79	1918.95
505.99	1814.50
506.19	1814.50
506.39	1863.65
506.59	1779.68
506.79	1812.45
506.99	1802.21
507.19	1832.93
507.39	1757.16
507.59	1697.77
507.79	1675.24
507.99	1761.25
508.19	1722.34
508.39	1701.86
508.59	1687.53
508.79	1800.16
508.99	1900.52
509.19	1701.86
509.39	1796.07
509.59	1652.71
509.79	1683.43
509.99	1824.74
510.19	1832.93
510.39	1787.88
510.59	1736.68
510.79	1673.19
510.99	1720.29
511.19	1777.64
511.39	1894.37
511.59	1851.36
511.79	1900.52
511.99	1724.39
512.19	1832.93
512.38	1744.87
512.58	1767.40
512.78	1753.06
512.98	1777.64
513.18	1810.40
513.38	1734.63
513.58	1779.68
513.78	1730.53
513.98	1742.82
514.18	1632.23
514.38	1755.11
514.58	1820.64
514.78	1761.25
514.98	1761.25
515.18	1734.63
515.38	1708.01
515.58	1810.40
515.78	1669.09
515.98	1779.68
516.18	1855.46
516.38	1740.77
516.57	1667.05
516.77	1708.01
516.97	1812.45
517.17	1724.39
517.37	1671.14
517.57	1812.45
517.77	1740.77
517.97	1755.11
518.17	1779.68
518.37	1822.69
518.57	1632.23
518.77	1744.87
518.97	1736.68
519.16	1728.49
519.36	1841.12
519.56	1744.87
519.76	1730.53
519.96	1826.79
520.16	1820.64
520.36	1683.43
520.56	1900.52
520.76	1714.15
520.96	1742.82
521.16	1787.88
521.35	1865.70
521.55	1791.97
521.75	1791.97
521.95	1783.78
522.15	1736.68
522.35	1648.61
522.55	1728.49
522.75	1812.45
522.95	1738.73
523.14	1669.09
523.34	1769.44
523.54	1771.49
523.74	1841.12
523.94	1779.68
524.14	1638.38
524.34	1716.20
524.54	1945.57
524.73	1779.68
524.93	1783.78
525.13	1767.40
525.33	1650.66
525.53	1892.32
525.73	1757.16
525.93	1814.50
526.13	1763.30
526.32	1726.44
526.52	1867.75
526.72	1816.55
526.92	1722.34
527.12	1798.12
527.32	1638.38
527.52	1822.69
527.71	1773.54
527.91	1759.21
528.11	1671.14
528.31	1800.16
528.51	1710.05
528.71	1839.08
528.90	1783.78
529.10	1843.17
529.30	1779.68
529.50	1642.47
529.70	1773.54
529.90	1722.34
530.09	1789.92
530.29	1679.33
530.49	1671.14
530.69	1828.84
530.89	1765.35
531.09	1732.58
531.28	1714.15
531.48	1812.45
531.68	1746.92
531.88	1785.83
532.08	1761.25
532.28	1714.15
532.47	1847.27
532.67	1808.36
532.87	1738.73
533.07	1613.80
533.27	1798.12
533.46	1771.49
533.66	1718.25
533.86	1722.34
534.06	1710.05
534.26	1714.15
534.45	1660.90
534.65	1804.26
534.85	1871.84
535.05	1658.85
535.25	1722.34
535.44	1607.66
535.64	1787.88
535.84	1671.14
536.04	1832.93
536.24	1738.73
536.43	1708.01
536.63	1804.26
536.83	1746.92
537.03	1740.77
537.22	1662.95
537.42	1654.76
537.62	1751.01
537.82	1740.77
538.02	1847.27
538.21	1779.68
538.41	1951.71
538.61	1716.20
538.81	1767.40
539.00	1789.92
539.20	1710.05
539.40	1691.62
539.60	1740.77
539.79	1769.44
539.99	1689.57
540.19	1708.01
540.39	1761.25
540.58	1757.16
540.78	1802.21
540.98	1771.49
541.18	1771.49
541.37	1703.91
541.57	1742.82
541.77	1757.16
541.97	1677.29
542.16	1636.33
542.36	1751.01
542.56	1832.93
542.76	1910.75
542.95	1734.63
543.15	1806.31
543.35	1789.92
543.54	1701.86
543.74	1755.11
543.94	1820.64
544.14	1738.73
544.33	1755.11
544.53	1759.21
544.73	1765.35
544.93	1648.61
545.12	1789.92
545.32	1742.82
545.52	1720.29
545.71	1648.61
545.91	1712.10
546.11	1705.96
546.30	1693.67
546.50	1810.40
546.70	1798.12
546.90	1800.16
547.09	1650.66
547.29	1808.36
547.49	1763.30
547.68	1763.30
547.88	1748.97
548.08	1791.97
548.27	2174.94
548.47	1691.62
548.67	1693.67
548.87	1765.35
549.06	1744.87
549.26	1812.45
549.46	1775.59
549.65	1703.91
549.85	1794.02
550.05	1755.11
550.24	1701.86
550.44	1744.87
550.64	1808.36
550.83	1794.02
551.03	1787.88
551.23	1814.50
551.42	1818.60
551.62	1714.15
551.82	1730.53
552.01	1665.00
552.21	1873.89
552.41	1783.78
552.60	1783.78
552.80	1742.82
553.00	1699.81
553.19	1816.55
553.39	1800.16
553.59	1722.34
553.78	1714.15
553.98	1759.21
554.17	1662.95
554.37	1828.84
554.57	1769.44
554.76	1681.38
554.96	1656.81
555.16	1812.45
555.35	1837.03
555.55	1832.93
555.75	1660.90
555.94	1824.74
556.14	1638.38
556.33	1767.40
556.53	1730.53
556.73	1787.88
556.92	1800.16
557.12	1740.77
557.32	1779.68
557.51	1837.03
557.71	1730.53
557.90	1832.93
558.10	1781.73
558.30	1699.81
558.49	1759.21
558.69	1746.92
558.88	1789.92
559.08	1656.81
559.28	1734.63
559.47	1746.92
559.67	1794.02
559.86	1845.22
560.06	1720.29
560.26	1716.20
560.45	1763.30
560.65	1732.58
560.84	1789.92
561.04	1699.81
561.24	1771.49
561.43	1691.62
561.63	1820.64
561.82	1785.83
562.02	1791.97
562.22	1720.29
562.41	1699.81
562.61	1828.84
562.80	1687.53
563.00	1898.47
563.19	1763.30
563.39	1665.00
563.59	1769.44
563.78	1705.96
563.98	1615.85
564.17	1718.25
564.37	1685.48
564.56	1816.55
564.76	1701.86
564.96	1763.30
565.15	1822.69
565.35	1785.83
565.54	1767.40
565.74	1818.60
565.93	1800.16
566.13	1781.73
566.32	1816.55
566.52	1755.11
566.71	1767.40
566.91	1757.16
567.11	1685.48
567.30	1783.78
567.50	1767.40
567.69	1767.40
567.89	1728.49
568.08	1716.20
568.28	1783.78
568.47	1644.52
568.67	1757.16
568.86	1705.96
569.06	1783.78
569.25	1708.01
569.45	1679.33
569.64	1757.16
569.84	1703.91
570.04	1710.05
570.23	1759.21
570.43	1720.29
570.62	1751.01
570.82	1783.78
571.01	1656.81
571.21	1755.11
571.40	1746.92
571.60	1787.88
571.79	1875.94
571.99	1712.10
572.18	1699.81
572.38	1769.44
572.57	1701.86
572.77	1796.07
572.96	1863.65
573.16	1728.49
573.35	1679.33
573.55	1918.95
573.74	1804.26
573.94	1769.44
574.13	1705.96
574.33	1777.64
574.52	1857.51
574.71	1679.33
574.91	1820.64
575.10	1681.38
575.30	1677.29
575.49	1599.46
575.69	1652.71
575.88	1812.45
576.08	1734.63
576.27	1753.06
576.47	1738.73
576.66	1843.17
576.86	1804.26
577.05	1757.16
577.25	1779.68
577.44	1906.66
577.64	1742.82
577.83	1753.06
578.02	1759.21
578.22	1857.51
578.41	1867.75
578.61	1761.25
578.80	1638.38
579.00	1783.78
579.19	1755.11
579.39	1779.68
579.58	1748.97
579.77	1771.49
579.97	1845.22
580.16	1937.38
580.36	1814.50
580.55	1771.49
580.75	1787.88
580.94	1710.05
581.13	1767.40
581.33	1853.41
581.52	1734.63
581.72	1877.99
581.91	1841.12
582.11	1789.92
582.30	1755.11
582.49	1806.31
582.69	1832.93
582.88	1877.99
583.08	1759.21
583.27	1740.77
583.47	1767.40
583.66	1681.38
583.85	1691.62
584.05	1724.39
584.24	1785.83
584.44	1787.88
584.63	1796.07
584.82	1832.93
585.02	1773.54
585.21	1853.41
585.41	1873.89
585.60	1820.64
585.79	1920.99
585.99	1953.76
586.18	1908.71
586.37	2191.33
586.57	3383.24
586.76	9949.03
586.96	24829.57
587.15	34655.73
587.34	40635.80
587.54	42513.78
587.73	36959.69
587.93	26766.95
588.12	21661.37
588.31	18538.21
588.51	16338.69
588.70	15392.53
588.89	14221.10
589.09	12744.51
589.28	11233.11
589.47	9496.43
589.67	7886.73
589.86	6404.00
590.06	4894.65
590.25	3946.44
590.44	3082.19
590.64	2617.30
590.83	2215.90
591.02	2095.07
591.22	1986.53
591.41	1886.18
591.60	1832.93
591.80	1902.56
591.99	1742.82
592.18	1832.93
592.38	1820.64
592.57	1718.25
592.76	1794.02
592.96	1771.49
593.15	1865.70
593.34	1837.03
593.54	1820.64
593.73	1751.01
593.92	1701.86
594.12	1771.49
594.31	1849.32
594.50	1748.97
594.70	1791.97
594.89	1953.76
595.08	1693.67
595.28	1830.88
595.47	1918.95
595.66	1773.54
595.86	1804.26
596.05	1804.26
596.24	1646.57
596.43	1814.50
596.63	1892.32
596.82	1728.49
597.01	1736.68
597.21	1789.92
597.40	1810.40
597.59	1779.68
597.79	1740.77
597.98	1753.06
598.17	1771.49
598.36	1732.58
598.56	1816.55
598.75	1757.16
598.94	1734.63
599.14	1787.88
599.33	1705.96
599.52	1820.64
599.71	1785.83
599.91	1839.08
600.10	1765.35
600.29	1789.92
600.48	1791.97
600.68	1751.01
600.87	1714.15
601.06	1703.91
601.26	1832.93
601.45	1880.04
601.64	1746.92
601.83	1812.45
602.03	1693.67
602.22	1697.77
602.41	1873.89
602.60	1873.89
602.80	1789.92
602.99	1808.36
603.18	1712.10
603.37	1826.79
603.57	1794.02
603.76	1730.53
603.95	1806.31
604.14	1722.34
604.34	1683.43
604.53	1722.34
604.72	1730.53
604.91	1818.60
605.10	1767.40
605.30	1644.52
605.49	1904.61
605.68	1730.53
605.87	1775.59
606.07	1798.12
606.26	1744.87
606.45	1728.49
606.64	1705.96
606.84	1712.10
607.03	1740.77
607.22	1779.68
607.41	1652.71
607.60	1691.62
607.80	1755.11
607.99	1701.86
608.18	1779.68
608.37	1681.38
608.56	1724.39
608.76	1789.92
608.95	1843.17
609.14	1771.49
609.33	1796.07
609.52	1861.60
609.72	1800.16
609.91	1742.82
610.10	1714.15
610.29	1859.56
610.48	1810.40
610.68	1748.97
610.87	1761.25
611.06	1775.59
611.25	1757.16
611.44	1796.07
611.63	1771.49
611.83	1822.69
612.02	1595.37
612.21	1789.92
612.40	1642.47
612.59	1701.86
612.79	1726.44
612.98	1761.25
613.17	1699.81
613.36	1697.77
613.55	1826.79
613.74	1675.24
613.93	1724.39
614.13	1705.96
614.32	1691.62
614.51	1730.53
614.70	1742.82
614.89	1677.29
615.08	1830.88
615.28	2111.46
615.47	1689.57
615.66	1685.48
615.85	1767.40
616.04	1855.46
616.23	1701.86
616.42	1708.01
616.62	1740.77
616.81	1681.38
617.00	1738.73
617.19	1812.45
617.38	1716.20
617.57	1763.30
617.76	1748.97
617.95	1695.72
618.15	1839.08
618.34	1871.84
618.53	1675.24
618.72	1767.40
618.91	1820.64
619.10	1859.56
619.29	1636.33
619.48	1697.77
619.68	1753.06
619.87	1742.82
620.06	1640.42
620.25	1732.58
620.44	1736.68
620.63	1769.44
620.82	1761.25
621.01	1783.78
621.20	1783.78
621.39	1794.02
621.59	1746.92
621.78	1781.73
621.97	1701.86
622.16	1755.11
622.35	1777.64
622.54	1804.26
622.73	1798.12
622.92	1714.15
623.11	1783.78
623.30	1667.05
623.49	1796.07
623.68	1662.95
623.88	1839.08
624.07	1728.49
624.26	1705.96
624.45	1744.87
624.64	1689.57
624.83	1781.73
625.02	1806.31
625.21	1761.25
625.40	1771.49
625.59	1800.16
625.78	1712.10
625.97	1757.16
626.16	1791.97
626.35	1763.30
626.54	1734.63
626.74	1837.03
626.93	1675.24
627.12	1781.73
627.31	1656.81
627.50	1718.25
627.69	1746.92
627.88	1671.14
628.07	1689.57
628.26	1691.62
628.45	1697.77
628.64	1671.14
628.83	1759.21
629.02	1673.19
629.21	1728.49
629.40	1755.11
629.59	1669.09
629.78	1712.10
629.97	1740.77
630.16	1703.91
630.35	1685.48
630.54	1705.96
630.73	1677.29
630.92	1675.24
631.11	1726.44
631.30	1742.82
631.49	1785.83
631.68	1697.77
631.87	1820.64
632.06	1642.47
632.25	1871.84
632.44	1705.96
632.63	1714.15
632.82	1691.62
633.01	1681.38
633.20	1732.58
633.39	1685.48
633.58	1665.00
633.77	1738.73
633.96	1689.57
634.15	1753.06
634.34	1681.38
634.53	1716.20
634.72	1753.06
634.91	1628.14
635.10	1662.95
635.29	1769.44
635.48	1806.31
635.67	1703.91
635.86	1718.25
636.05	1880.04
636.24	1708.01
636.43	1728.49
636.62	1800.16
636.81	1644.52
637.00	1703.91
637.19	1746.92
637.38	1767.40
637.57	1628.14
637.76	1671.14
637.95	1738.73
638.14	1634.28
638.33	1673.19
638.52	1802.21
638.71	1564.65
638.89	1681.38
639.08	1861.60
639.27	1751.01
639.46	1660.90
639.65	1839.08
639.84	1748.97
640.03	1812.45
640.22	1728.49
640.41	1845.22
640.60	1617.90
640.79	1695.72
640.98	1683.43
641.17	1738.73
641.36	1771.49
641.55	1722.34
641.74	1708.01
641.92	1746.92
642.11	1667.05
642.30	1740.77
642.49	1665.00
642.68	1722.34
642.87	1820.64
643.06	1818.60
643.25	1722.34
643.44	1703.91
643.63	1791.97
643.82	1755.11
644.00	1726.44
644.19	1708.01
644.38	1718.25
644.57	1708.01
644.76	1656.81
644.95	1740.77
645.14	1718.25
645.33	1767.40
645.52	1775.59
645.71	1648.61
645.89	1648.61
646.08	1738.73
646.27	1677.29
646.46	1830.88
646.65	1660.90
646.84	1722.34
647.03	1640.42
647.22	1791.97
647.40	1662.95
647.59	1736.68
647.78	1644.52
647.97	1595.37
648.16	1642.47
648.35	1863.65
648.54	1755.11
648.73	1804.26
648.91	1814.50
649.10	1744.87
649.29	1679.33
649.48	1724.39
649.67	1763.30
649.86	1693.67
650.05	1677.29
650.23	1740.77
650.42	1593.32
650.61	1724.39
650.80	1755.11
650.99	1841.12
651.18	1718.25
651.36	1738.73
651.55	1730.53
651.74	1765.35
651.93	1724.39
652.12	1730.53
652.31	1736.68
652.49	1767.40
652.68	1687.53
652.87	1761.25
653.06	1701.86
653.25	1775.59
653.44	1714.15
653.62	1779.68
653.81	1751.01
654.00	1742.82
654.19	1761.25
654.38	1837.03
654.56	1697.77
654.75	1738.73
654.94	1757.16
655.13	1708.01
655.32	1742.82
655.51	1732.58
655.69	1683.43
655.88	1763.30
656.07	1644.52
656.26	1787.88
656.45	1658.85
656.63	1755.11
656.82	1736.68
657.01	1843.17
657.20	1761.25
657.38	1781.73
657.57	1673.19
657.76	1683.43
657.95	1755.11
658.14	1689.57
658.32	1785.83
658.51	1691.62
658.70	1742.82
658.89	1763.30
659.08	1744.87
659.26	1771.49
659.45	1683.43
659.64	1794.02
659.83	1669.09
660.01	1910.75
660.20	1677.29
660.39	1841.12
660.58	1605.61
660.76	1744.87
660.95	1705.96
661.14	1742.82
661.33	1599.46
661.51	1662.95
661.70	1728.49
661.89	1773.54
662.08	1718.25
662.26	1632.23
662.45	1583.08
662.64	1834.98
662.83	1804.26
663.01	1734.63
663.20	1695.72
663.39	1810.40
663.58	1718.25
663.76	1746.92
663.95	1781.73
664.14	1677.29
664.32	1667.05
664.51	1689.57
664.70	1605.61
664.89	1771.49
665.07	1617.90
665.26	1789.92
665.45	1701.86
665.64	1791.97
665.82	1683.43
666.01	1830.88
666.20	1765.35
666.38	1763.30
666.57	1828.84
666.76	2199.52
666.95	4669.37
667.13	10739.55
667.32	15580.95
667.51	17991.41
667.69	19353.30
667.88	17807.09
668.07	12443.46
668.25	9633.64
668.44	8181.64
668.63	7468.94
668.81	6862.74
669.00	6293.41
669.19	5793.70
669.38	5124.02
669.56	4530.11
669.75	4077.51
669.94	3536.84
670.12	2846.68
670.31	2541.53
670.50	2248.67
670.68	2052.06
670.87	1959.91
671.06	1843.17
671.24	1781.73
671.43	1904.61
671.62	1787.88
671.80	1822.69
671.99	1812.45
672.18	1685.48
672.36	1783.78
672.55	1834.98
672.74	1701.86
672.92	1720.29
673.11	1697.77
673.29	1679.33
673.48	1804.26
673.67	1705.96
673.85	1783.78
674.04	1648.61
674.23	1748.97
674.41	1880.04
674.60	1712.10
674.79	1656.81
674.97	1665.00
675.16	1748.97
675.34	1785.83
675.53	1720.29
675.72	1759.21
675.90	1804.26
676.09	1675.24
676.28	1656.81
676.46	1699.81
676.65	1767.40
676.83	1740.77
677.02	1714.15
677.21	1734.63
677.39	1714.15
677.58	1716.20
677.77	1728.49
677.95	1681.38
678.14	1720.29
678.32	1665.00
678.51	1687.53
678.70	1843.17
678.88	1726.44
679.07	1699.81
679.25	1761.25
679.44	1730.53
679.63	1636.33
679.81	1730.53
680.00	1716.20
680.18	1759.21
680.37	1853.41
680.55	1679.33
680.74	1638.38
680.93	1652.71
681.11	1761.25
681.30	1705.96
681.48	1775.59
681.67	1701.86
681.85	1701.86
682.04	1751.01
682.23	1806.31
682.41	1730.53
682.60	1742.82
682.78	1693.67
682.97	1644.52
683.15	1738.73
683.34	1742.82
683.53	1771.49
683.71	1601.51
683.90	1820.64
684.08	1783.78
684.27	1730.53
684.45	1734.63
684.64	1724.39
684.82	1757.16
685.01	1724.39
685.19	1732.58
685.38	1828.84
685.57	1720.29
685.75	1636.33
685.94	1681.38
686.12	1617.90
686.31	1699.81
686.49	1824.74
686.68	1634.28
686.86	1789.92
687.05	1730.53
687.23	1783.78
687.42	1755.11
687.60	1708.01
687.79	1765.35
687.97	1771.49
688.16	1742.82
688.34	1730.53
688.53	1671.14
688.71	1718.25
688.90	1742.82
689.08	1753.06
689.27	1638.38
689.45	1763.30
689.64	1802.21
689.82	1738.73
690.01	1705.96
690.19	1730.53
690.38	1699.81
690.56	1841.12
690.75	1662.95
690.93	1705.96
691.12	1677.29
691.30	1691.62
691.49	1746.92
691.67	1693.67
691.86	1761.25
692.04	1699.81
692.23	1673.19
692.41	1638.38
692.60	1898.47
692.78	1767.40
692.97	1605.61
693.15	1697.77
693.34	1841.12
693.52	1804.26
693.71	1679.33
693.89	1757.16
694.08	1742.82
694.26	1763.30
694.44	1722.34
694.63	1724.39
694.81	1693.67
695.00	1648.61
695.18	1771.49
695.37	1806.31
695.55	1777.64
695.74	1701.86
695.92	1621.99
696.10	1771.49
696.29	1669.09
696.47	1691.62
696.66	1675.24
696.84	1632.23
697.03	1691.62
697.21	1869.80
697.40	2277.34
697.58	1818.60
697.76	1689.57
697.95	1681.38
698.13	1562.60
698.32	1714.15
698.50	1734.63
698.68	1763.30
698.87	1677.29
699.05	1826.79
699.24	1658.85
699.42	1683.43
699.61	1697.77
699.79	1679.33
699.97	1695.72
700.16	1654.76
700.34	1671.14
700.53	1665.00
700.71	1796.07
700.89	1812.45
701.08	1728.49
701.26	1742.82
701.45	2144.22
701.63	1724.39
701.81	1724.39
702.00	1675.24
702.18	1755.11
702.37	1740.77
702.55	1742.82
702.73	1683.43
702.92	1601.51
703.10	1734.63
703.28	1744.87
703.47	1693.67
703.65	1798.12
703.84	1767.40
704.02	1748.97
704.20	1763.30
704.39	1710.05
704.57	1710.05
704.75	1839.08
704.94	1724.39
705.12	1714.15
705.30	1804.26
705.49	2279.39
705.67	4509.63
705.86	9351.03
706.04	12760.89
706.22	14620.45
706.41	15439.64
706.59	13891.37
706.77	9670.51
706.96	7470.99
707.14	6637.47
707.32	6002.60
707.51	5484.46
707.69	4937.65
707.87	4263.87
708.06	3540.94
708.24	2944.98
708.42	2449.37
708.61	2258.91
708.79	1957.86
708.97	1845.22
709.16	1841.12
709.34	1683.43
709.52	1720.29
709.71	1669.09
709.89	1732.58
710.07	1722.34
710.26	1720.29
710.44	1755.11
710.62	1705.96
710.80	1697.77
710.99	1869.80
711.17	1716.20
711.35	1697.77
711.54	1673.19
711.72	1800.16
711.90	1736.68
712.09	1691.62
712.27	1716.20
712.45	1802.21
712.63	1681.38
712.82	1748.97
713.00	1783.78
713.18	1701.86
713.37	1714.15
713.55	1783.78
713.73	1771.49
713.91	1757.16
714.10	1644.52
714.28	1726.44
714.46	1730.53
714.65	1644.52
714.83	1751.01
715.01	1814.50
715.19	1712.10
715.38	1701.86
715.56	1777.64
715.74	1665.00
715.92	1681.38
716.11	1789.92
716.29	1685.48
716.47	1697.77
716.65	1695.72
716.84	1581.03
717.02	1798.12
717.20	1624.04
717.38	1730.53
717.57	1759.21
717.75	1746.92
717.93	1693.67
718.11	1810.40
718.30	1656.81
718.48	1757.16
718.66	1710.05
718.84	1783.78
719.03	1736.68
719.21	1634.28
719.39	1759.21
719.57	1730.53
719.75	1804.26
719.94	1689.57
720.12	1697.77
720.30	1730.53
720.48	1798.12
720.67	1738.73
720.85	1624.04
721.03	1662.95
721.21	1601.51
721.39	1830.88
721.58	1771.49
721.76	1736.68
721.94	1742.82
722.12	1716.20
722.30	1800.16
722.49	1734.63
722.67	1746.92
722.85	1654.76
723.03	1656.81
723.21	1728.49
723.40	1781.73
723.58	1748.97
723.76	1648.61
723.94	1748.97
724.12	1783.78
724.30	1796.07
724.49	1701.86
724.67	1673.19
724.85	1781.73
725.03	1613.80
725.21	1712.10
725.40	1777.64
725.58	1603.56
725.76	1708.01
725.94	1730.53
726.12	1648.61
726.30	1671.14
726.49	1763.30
726.67	1740.77
726.85	1630.18
727.03	1730.53
727.21	2207.71
727.39	2934.74
727.57	3899.33
727.76	4255.68
727.94	4452.28
728.12	4437.95
728.30	3848.13
728.48	2914.26
728.66	2795.48
728.84	2551.77
729.03	2279.39
729.21	2197.47
729.39	1951.71
729.57	1808.36
729.75	1837.03
729.93	1804.26
730.11	1767.40
730.30	1642.47
730.48	1681.38
730.66	1798.12
730.84	1744.87
731.02	1685.48
731.20	1705.96
731.38	1693.67
731.56	1775.59
731.74	1675.24
731.93	1679.33
732.11	1732.58
732.29	1671.14
732.47	1722.34
732.65	1681.38
732.83	1798.12
733.01	1738.73
733.19	1699.81
733.37	1746.92
733.56	1785.83
733.74	1708.01
733.92	1818.60
734.10	1667.05
734.28	1744.87
734.46	1634.28
734.64	1689.57
734.82	1710.05
735.00	1722.34
735.18	1652.71
735.36	1716.20
735.54	1693.67
735.73	1744.87
735.91	1796.07
736.09	1738.73
736.27	1783.78
736.45	1699.81
736.63	1642.47
736.81	1744.87
736.99	1732.58
737.17	1779.68
737.35	1728.49
737.53	1681.38
737.71	1740.77
737.89	1777.64
738.07	1712.10
738.25	1574.89
738.43	1693.67
738.61	1689.57
738.80	1677.29
738.98	1669.09
739.16	1613.80
739.34	1599.46
739.52	1744.87
739.70	1699.81
739.88	1787.88
740.06	1720.29
740.24	1681.38
740.42	1748.97
740.60	1591.27
740.78	1619.94
740.96	1652.71
741.14	1703.91
741.32	1714.15
741.50	1595.37
741.68	1861.60
741.86	1810.40
742.04	1665.00
742.22	1675.24
742.40	1712.10
742.58	1720.29
742.76	1679.33
742.94	1777.64
743.12	1660.90
743.30	1667.05
743.48	1773.54
743.66	1673.19
743.84	1658.85
744.02	1710.05
744.20	1767.40
744.38	1628.14
744.56	1638.38
744.74	1828.84
744.92	1718.25
745.10	1726.44
745.28	1724.39
745.46	1767.40
745.64	1722.34
745.82	1761.25
746.00	1730.53
746.18	1728.49
746.36	1708.01
746.54	1734.63
746.72	1601.51
746.90	1671.14
747.08	1822.69
747.26	1613.80
747.44	1671.14
747.62	1775.59
747.80	1714.15
747.98	1814.50
748.15	1652.71
748.33	1767.40
748.51	1740.77
748.69	1802.21
748.87	1652.71
749.05	1660.90
749.23	1781.73
749.41	1746.92
749.59	1640.42
749.77	1730.53
749.95	1734.63
750.13	1675.24
750.31	1714.15
750.49	1699.81
750.67	1730.53
750.85	1759.21
751.03	1681.38
751.20	1871.84
751.38	1683.43
751.56	1712.10
751.74	1712.10
751.92	1671.14
752.10	1601.51
752.28	1755.11
752.46	1685.48
752.64	1673.19
752.82	1624.04
753.00	1798.12
753.18	1654.76
753.35	1636.33
753.53	1691.62
753.71	1685.48
753.89	1683.43
754.07	1736.68
754.25	1744.87
754.43	1730.53
754.61	1595.37
754.79	1773.54
754.97	1642.47
755.14	1771.49
755.32	1585.13
755.50	1732.58
755.68	1660.90
755.86	1613.80
756.04	1681.38
756.22	1581.03
756.40	1693.67
756.57	1810.40
756.75	1679.33
756.93	1783.78
757.11	1806.31
757.29	1615.85
757.47	1607.66
757.65	1615.85
757.82	1615.85
758.00	1652.71
758.18	1681.38
758.36	1683.43
758.54	1800.16
758.72	1572.84
758.90	1746.92
759.07	1712.10
759.25	1665.00
759.43	1775.59
759.61	1683.43
759.79	2265.05
759.97	1812.45
760.15	1669.09
760.32	1673.19
760.50	1740.77
760.68	1841.12
760.86	1621.99
761.04	1832.93
761.22	1718.25
761.39	1720.29
761.57	1658.85
761.75	1656.81
761.93	1734.63
762.11	1683.43
762.28	1675.24
762.46	1654.76
762.64	1843.17
762.82	1656.81
763.00	1701.86
763.18	1751.01
763.35	1617.90
763.53	1800.16
763.71	1746.92
763.89	1683.43
764.07	1685.48
764.24	1718.25
764.42	1730.53
764.60	1675.24
764.78	1652.71
764.96	1742.82
765.13	1753.06
765.31	1726.44
765.49	1734.63
765.67	1648.61
765.84	1679.33
766.02	1669.09
766.20	1574.89
766.38	1724.39
766.56	1794.02
766.73	1802.21
766.91	1617.90
767.09	1712.10
767.27	1759.21
767.44	1673.19
767.62	1699.81
767.80	1685.48
767.98	1753.06
768.15	1689.57
768.33	1736.68
768.51	1771.49
768.69	1732.58
768.87	1730.53
769.04	1730.53
769.22	1822.69
769.40	1771.49
769.58	1832.93
769.75	1693.67
769.93	1820.64
770.11	1705.96
770.28	1632.23
770.46	1767.40
770.64	1759.21
770.82	1656.81
770.99	1654.76
771.17	1712.10
771.35	1644.52
771.53	1718.25
771.70	1726.44
771.88	1769.44
772.06	1654.76
772.23	1714.15
772.41	1681.38
772.59	1644.52
772.77	1703.91
772.94	1626.09
773.12	1837.03
773.30	1589.22
773.47	1757.16
773.65	1615.85
773.83	1812.45
774.01	1736.68
774.18	1619.94
774.36	1710.05
774.54	1667.05
774.71	1728.49
774.89	1640.42
775.07	1714.15
775.24	1691.62
775.42	1677.29
775.60	1810.40
775.78	1640.42
775.95	1695.72
776.13	1677.29
776.31	1570.79
776.48	1705.96
776.66	1877.99
776.84	1751.01
777.01	1658.85
777.19	1652.71
777.37	1716.20
777.54	1779.68
777.72	1847.27
777.90	1734.63
778.07	1673.19
778.25	1910.75
778.43	1773.54
778.60	1716.20
778.78	1693.67
778.96	1734.63
779.13	1646.57
779.31	1742.82
779.49	1722.34
779.66	1611.75
779.84	1722.34
780.01	1665.00
780.19	1607.66
780.37	1734.63
780.54	1687.53
780.72	1697.77
780.90	1599.46
781.07	1789.92
781.25	1634.28
781.43	1789.92
781.60	1718.25
781.78	1728.49
781.95	1689.57
782.13	1640.42
782.31	1736.68
782.48	1597.42
782.66	1748.97
782.83	1816.55
783.01	1718.25
783.19	1705.96
783.36	1703.91
783.54	1669.09
783.72	1816.55
783.89	1591.27
784.07	1787.88
784.24	1734.63
784.42	1826.79
784.60	1738.73
784.77	1767.40
784.95	1609.70
785.12	1667.05
785.30	1740.77
785.47	1671.14
785.65	1591.27
785.83	1675.24
786.00	1619.94
786.18	1703.91
786.35	1660.90
786.53	1642.47
786.71	1755.11
786.88	1796.07
787.06	1738.73
787.23	1787.88
787.41	1605.61
787.58	1781.73
787.76	1658.85
787.94	1734.63
788.11	1673.19
788.29	1626.09
788.46	1665.00
788.64	1595.37
788.81	1705.96
788.99	1619.94
789.16	1652.71
789.34	1718.25
789.52	1701.86
789.69	1724.39
789.87	1609.70
790.04	1761.25
790.22	1650.66
790.39	1771.49
790.57	1681.38
790.74	1642.47
790.92	1703.91
791.09	1615.85
791.27	1652.71
791.44	1802.21
791.62	1673.19
791.79	1810.40
791.97	1695.72
792.15	1886.18
792.32	1798.12
792.50	1777.64
792.67	1781.73
792.85	1730.53
793.02	1724.39
793.20	1738.73
793.37	1705.96
793.55	1699.81
793.72	1708.01
793.90	1816.55
794.07	1759.21
794.25	1724.39
794.42	1742.82
794.60	1673.19
794.77	1724.39
794.95	1640.42
795.12	1783.78
795.30	1673.19
795.47	1642.47
795.65	1894.37
795.82	1789.92
796.00	1652.71
796.17	1658.85
796.34	1740.77
796.52	1714.15
796.69	1748.97
796.87	1746.92
797.04	1687.53
797.22	1785.83
797.39	1789.92
797.57	1714.15
797.74	1701.86
797.92	1716.20
798.09	1644.52
798.27	1800.16
798.44	1699.81
798.62	1650.66
798.79	1761.25
798.96	1703.91
799.14	1722.34
799.31	1849.32
799.49	1660.90
799.66	1718.25
799.84	1789.92
800.01	1662.95
800.19	1720.29
800.36	1646.57
800.53	1677.29
800.71	1740.77
800.88	1802.21
801.06	1662.95
801.23	1615.85
801.41	1699.81
801.58	1673.19
801.75	1658.85
801.93	1677.29
802.10	1730.53
802.28	1732.58
802.45	1665.00
802.63	1746.92
802.80	1751.01
802.97	1730.53
803.15	1732.58
803.32	1701.86
803.50	1589.22
803.67	1673.19
803.84	1703.91
804.02	1708.01
804.19	1730.53
804.37	1601.51
804.54	1681.38
804.71	1695.72
804.89	1667.05
805.06	1669.09
805.24	1646.57
805.41	1667.05
805.58	1665.00
805.76	1834.98
805.93	1691.62
806.10	1765.35
806.28	1769.44
806.45	1646.57
806.63	1710.05
806.80	1724.39
806.97	1718.25
807.15	1722.34
807.32	1675.24
807.49	1730.53
807.67	1640.42
807.84	1669.09
808.01	1646.57
808.19	1828.84
808.36	1818.60
808.54	1691.62
808.71	1681.38
808.88	1701.86
809.06	1738.73
809.23	1802.21
809.40	1656.81
809.58	1773.54
809.75	1748.97
809.92	1687.53
810.10	1771.49
810.27	1681.38
810.44	1791.97
810.62	1757.16
810.79	1730.53
810.96	1724.39
811.14	1691.62
811.31	1751.01
811.48	1689.57
811.66	1771.49
811.83	1802.21
812.00	1656.81
812.18	1734.63
812.35	1824.74
812.52	1740.77
812.69	1718.25
812.87	1722.34
813.04	1640.42
813.21	1728.49
813.39	1751.01
813.56	1642.47
813.73	1744.87
813.91	1689.57
814.08	1728.49
814.25	1703.91
814.42	1705.96
814.60	1710.05
814.77	1665.00
814.94	1679.33
815.12	1763.30
815.29	1787.88
815.46	1681.38
815.63	1675.24
815.81	1681.38
815.98	1673.19
816.15	1705.96
816.33	1669.09
816.50	1722.34
816.67	1742.82
816.84	1669.09
817.02	1677.29
817.19	1693.67
817.36	1755.11
817.53	1722.34
817.71	1703.91
817.88	1748.97
818.05	1621.99
818.22	1701.86
818.40	1839.08
818.57	1753.06
818.74	1785.83
818.91	1658.85
819.09	1746.92
819.26	1648.61
819.43	1642.47
819.60	1640.42
819.78	1769.44
819.95	1734.63
820.12	1691.62
820.29	1771.49
820.47	1810.40
820.64	1732.58
820.81	1648.61
820.98	1689.57
821.15	1626.09
821.33	1732.58
821.50	1589.22
821.67	1751.01
821.84	1771.49
822.02	1683.43
822.19	1841.12
822.36	1693.67
822.53	1660.90
822.70	1687.53
822.88	1685.48
823.05	1843.17
823.22	1763.30
823.39	1736.68
823.56	1742.82
823.74	1839.08
823.91	1591.27
824.08	1648.61
824.25	1630.18
824.42	1777.64
824.60	1648.61
824.77	1730.53
824.94	1755.11
825.11	1732.58
825.28	1617.90
825.45	1769.44
825.63	1732.58
825.80	1679.33
825.97	1665.00
826.14	1705.96
826.31	1650.66
826.48	1767.40
826.66	1660.90
826.83	1761.25
827.00	1744.87
827.17	1656.81
827.34	1652.71
827.51	1607.66
827.69	1624.04
827.86	1656.81
828.03	1654.76
828.20	1691.62
828.37	1644.52
828.54	1636.33
828.71	1683.43
828.89	1744.87
829.06	1734.63
829.23	1812.45
829.40	1710.05
829.57	1630.18
829.74	1744.87
829.91	1716.20
830.09	1718.25
830.26	1701.86
830.43	1738.73
830.60	1708.01
830.77	1810.40
830.94	1834.98
831.11	1767.40
831.28	1679.33
831.46	1771.49
831.63	1693.67
831.80	1775.59
831.97	1693.67
832.14	1628.14
832.31	1658.85
832.48	1712.10
832.65	1753.06
832.82	1791.97
832.99	1626.09
833.17	1624.04
833.34	1742.82
833.51	1679.33
833.68	1619.94
833.85	1714.15
834.02	1675.24
834.19	1673.19
834.36	1636.33
834.53	1732.58
834.70	1769.44
834.87	1787.88
835.04	1695.72
835.22	1673.19
835.39	1718.25
835.56	1595.37
835.73	1667.05
835.90	1761.25
836.07	1654.76
836.24	1740.77
836.41	1695.72
836.58	1701.86
836.75	1796.07
836.92	1730.53
837.09	1656.81
837.26	1779.68
837.43	1771.49
837.60	1714.15
837.77	1658.85
837.94	1763.30
838.12	1794.02
838.29	1683.43
838.46	1619.94
838.63	1619.94
838.80	1736.68
838.97	1746.92
839.14	1753.06
839.31	1808.36
839.48	1761.25
839.65	1642.47
839.82	1722.34
839.99	1683.43
840.16	1679.33
840.33	1734.63
840.50	1744.87
840.67	1705.96
840.84	1611.75
841.01	1716.20
841.18	1675.24
841.35	1759.21
841.52	1732.58
841.69	1824.74
841.86	1716.20
842.03	1636.33
842.20	1716.20
842.37	1642.47
842.54	1683.43
842.71	1705.96
842.88	1603.56
843.05	1753.06
843.22	1697.77
843.39	1763.30
843.56	1617.90
843.73	1665.00
843.90	1781.73
844.07	1724.39
844.24	1746.92
844.41	1730.53
844.58	1642.47
844.75	1732.58
844.92	1724.39
845.09	1722.34
845.26	1658.85
845.43	1609.70
845.60	1724.39
845.77	1769.44
845.94	1652.71
846.10	1660.90
846.27	1626.09
846.44	1652.71
846.61	1675.24
846.78	1726.44
846.95	1748.97
847.12	1732.58
847.29	1714.15
847.46	1738.73
847.63	1804.26
847.80	1724.39
847.97	1650.66
848.14	1751.01
848.31	1740.77
848.48	1632.23
848.65	1740.77
848.82	1730.53
848.98	1828.84
849.15	1705.96
849.32	1761.25
849.49	1748.97
849.66	1732.58
849.83	1689.57
850.00	1658.85
850.17	1789.92
850.34	1693.67
850.51	1671.14
850.68	1658.85
850.85	1861.60
851.01	1744.87
851.18	1740.77
851.35	1697.77
851.52	1701.86
851.69	1808.36
851.86	1671.14
852.03	1802.21
852.20	1689.57
852.37	1626.09
852.53	1621.99
852.70	1718.25
852.87	1691.62
853.04	1785.83
853.21	1697.77
853.38	1740.77
853.55	1738.73
853.72	1736.68
853.89	1658.85
854.05	1648.61
854.22	1685.48
854.39	1644.52
854.56	1675.24
854.73	1816.55
854.90	1742.82
855.07	1656.81
855.23	1656.81
855.40	1683.43
855.57	1722.34
855.74	1624.04
855.91	1933.28
856.08	1656.81
856.25	1624.04
856.41	1665.00
856.58	1693.67
856.75	1638.38
856.92	1601.51
857.09	1796.07
857.26	1626.09
857.42	1638.38
857.59	1742.82
857.76	1779.68
857.93	1736.68
858.10	1767.40
858.27	1671.14
858.43	1634.28
858.60	1642.47
858.77	1605.61
858.94	1685.48
859.11	1740.77
859.27	1669.09
859.44	1652.71
859.61	1808.36
859.78	1755.11
859.95	1665.00
860.12	1624.04
860.28	1824.74
860.45	1800.16
860.62	1775.59
860.79	1740.77
860.95	1779.68
861.12	1632.23
861.29	1609.70
861.46	1593.32
861.63	1683.43
861.79	1665.00
861.96	1662.95
862.13	1650.66
862.30	1802.21
862.47	1632.23
862.63	1642.47
862.80	1748.97
862.97	1757.16
863.14	1781.73
863.30	1675.24
863.47	1720.29
863.64	1816.55
863.81	1699.81
863.97	1615.85
864.14	1714.15
864.31	1693.67
864.48	1806.31
864.65	1667.05
864.81	1740.77
864.98	1701.86
865.15	1708.01
865.32	1755.11
865.48	1705.96
865.65	1800.16
865.82	1701.86
865.98	1669.09
866.15	1783.78
866.32	1652.71
866.49	1712.10
866.65	1808.36
866.82	1611.75
866.99	1732.58
867.16	1605.61
867.32	1652.71
867.49	1714.15
867.66	1687.53
867.83	1685.48
867.99	1660.90
868.16	1656.81
868.33	1564.65
868.49	1744.87
868.66	1626.09
868.83	1722.34
868.99	1701.86
869.16	1677.29
869.33	1732.58
869.50	1716.20
869.66	1689.57
869.83	1619.94
870.00	1609.70
870.16	1796.07
870.33	1748.97
870.50	1671.14
870.66	1646.57
870.83	1828.84
871.00	1732.58
871.17	1718.25
871.33	1769.44
871.50	1673.19
871.67	1718.25
871.83	1603.56
872.00	1765.35
872.17	1624.04
872.33	1767.40
872.50	1796.07
872.67	1644.52
872.83	1619.94
873.00	1654.76
873.17	1662.95
873.33	1796.07
873.50	1761.25
873.67	1665.00
873.83	1667.05
874.00	1724.39
874.16	1740.77
874.33	1791.97
874.50	1593.32
874.66	1689.57
874.83	1691.62
875.00	1738.73
875.16	1789.92
875.33	1726.44
875.50	1560.55
875.66	1630.18
875.83	1671.14
875.99	1753.06
876.16	1656.81
876.33	1640.42
876.49	1701.86
876.66	1773.54
876.83	1738.73
876.99	1595.37
877.16	1740.77
877.32	1710.05
877.49	1621.99
877.66	1744.87
877.82	1765.35
877.99	1767.40
878.15	1748.97
878.32	1669.09
878.49	1701.86
878.65	1650.66
878.82	1843.17
878.98	1751.01
879.15	1779.68
879.32	1802.21
879.48	1738.73
879.65	1712.10
879.81	1617.90
879.98	1619.94
880.15	1716.20
880.31	1775.59
880.48	1691.62
880.64	1847.27
880.81	1771.49
880.97	1726.44
881.14	1816.55
881.31	1665.00
881.47	1812.45
881.64	1660.90
881.80	1677.29
881.97	1716.20
882.13	1765.35
882.30	1636.33
882.47	1724.39
882.63	1581.03
882.80	1671.14
882.96	1695.72
883.13	1771.49
883.29	1673.19
883.46	1685.48
883.62	1769.44
883.79	1722.34
883.95	1794.02
884.12	1669.09
884.29	1705.96
884.45	1742.82
884.62	1755.11
884.78	1615.85
884.95	1798.12
885.11	1665.00
885.28	1710.05
885.44	1644.52
885.61	1697.77
885.77	1730.53
885.94	1722.34
886.10	1767.40
886.27	1710.05
886.43	1781.73
886.60	1734.63
886.76	1677.29
886.93	1714.15
887.09	1742.82
887.26	1609.70
887.42	1681.38
887.59	1802.21
887.75	1816.55
887.92	1796.07
888.08	1746.92
888.25	1859.56
888.41	1720.29
888.58	1773.54
888.74	1583.08
888.91	1685.48
>>>>>End Processed Spectral Data<<<<<
