SpectraSuite Data File
++++++++++++++++++++++++++++++++++++
Date: Mon Jun 06 16:09:57 CEST 2016
User: root
Dark Spectrum Present: No
Reference Spectrum Present: No
Number of Sampled Component Spectra: 1
Spectrometers: USB4C02835
Integration Time (usec): 100000 (USB4C02835)
Spectra Averaged: 1 (USB4C02835)
Boxcar Smoothing: 0 (USB4C02835)
Correct for Electrical Dark: No (USB4C02835)
Strobe/Lamp Enabled: No (USB4C02835)
Correct for Detector Non-linearity: No (USB4C02835)
Correct for Stray Light: No (USB4C02835)
Number of Pixels in Processed Spectrum: 3648
>>>>>Begin Processed Spectral Data<<<<<
177.47	1517.54
177.69	1517.54
177.91	1517.54
178.13	1482.73
178.36	1497.07
178.58	1742.82
178.80	1724.39
179.02	1662.95
179.24	1671.14
179.46	1718.25
179.68	1708.01
179.90	1722.34
180.13	1689.57
180.35	1617.90
180.57	1671.14
180.79	1810.40
181.01	1660.90
181.23	1763.30
181.45	1767.40
181.67	1787.88
181.90	1769.44
182.12	1609.70
182.34	1640.42
182.56	1769.44
182.78	1705.96
183.00	1802.21
183.22	1765.35
183.44	1595.37
183.66	1814.50
183.89	1775.59
184.11	1783.78
184.33	1773.54
184.55	1779.68
184.77	1714.15
184.99	1794.02
185.21	1718.25
185.43	1877.99
185.65	1679.33
185.87	1677.29
186.10	1841.12
186.32	1966.05
186.54	1714.15
186.76	1791.97
186.98	1759.21
187.20	1777.64
187.42	1734.63
187.64	1646.57
187.86	1771.49
188.08	1783.78
188.30	1681.38
188.52	1718.25
188.75	1714.15
188.97	1824.74
189.19	1574.89
189.41	1773.54
189.63	1726.44
189.85	1687.53
190.07	1634.28
190.29	1665.00
190.51	1865.70
190.73	1611.75
190.95	1738.73
191.17	1679.33
191.39	1552.36
191.61	1728.49
191.84	1736.68
192.06	1767.40
192.28	1566.70
192.50	1882.08
192.72	1722.34
192.94	1779.68
193.16	1775.59
193.38	1751.01
193.60	1634.28
193.82	1673.19
194.04	1742.82
194.26	1775.59
194.48	1699.81
194.70	1677.29
194.92	1677.29
195.14	1789.92
195.36	1673.19
195.58	1742.82
195.80	1660.90
196.02	1718.25
196.24	1718.25
196.46	1777.64
196.69	1654.76
196.91	1867.75
197.13	1710.05
197.35	1742.82
197.57	1701.86
197.79	1761.25
198.01	1681.38
198.23	1816.55
198.45	1687.53
198.67	1646.57
198.89	1673.19
199.11	1708.01
199.33	1710.05
199.55	1630.18
199.77	1574.89
199.99	1785.83
200.21	1662.95
200.43	1710.05
200.65	1636.33
200.87	1601.51
201.09	1689.57
201.31	1748.97
201.53	1757.16
201.75	1746.92
201.97	1683.43
202.19	1687.53
202.41	1693.67
202.63	1888.23
202.85	1656.81
203.07	1787.88
203.29	1679.33
203.51	1677.29
203.73	1695.72
203.95	1904.61
204.17	1716.20
204.39	1697.77
204.61	1701.86
204.83	1658.85
205.05	1765.35
205.27	1789.92
205.49	1843.17
205.71	1724.39
205.93	1621.99
206.15	1718.25
206.37	1677.29
206.59	1673.19
206.81	1681.38
207.03	1705.96
207.25	1611.75
207.47	1755.11
207.69	1755.11
207.91	1859.56
208.13	1789.92
208.34	1640.42
208.56	1722.34
208.78	1798.12
209.00	1703.91
209.22	1660.90
209.44	1716.20
209.66	1728.49
209.88	1710.05
210.10	1675.24
210.32	1648.61
210.54	1763.30
210.76	1726.44
210.98	1730.53
211.20	1599.46
211.42	1722.34
211.64	1757.16
211.86	1699.81
212.08	1703.91
212.30	1701.86
212.52	1662.95
212.74	1763.30
212.96	1708.01
213.17	1742.82
213.39	1767.40
213.61	1763.30
213.83	1738.73
214.05	1636.33
214.27	1794.02
214.49	1660.90
214.71	1718.25
214.93	1814.50
215.15	1673.19
215.37	1716.20
215.59	1691.62
215.81	1748.97
216.03	1794.02
216.24	1712.10
216.46	1626.09
216.68	1677.29
216.90	1738.73
217.12	1812.45
217.34	1724.39
217.56	1648.61
217.78	1757.16
218.00	1865.70
218.22	1720.29
218.44	1732.58
218.66	1740.77
218.87	1718.25
219.09	1757.16
219.31	1742.82
219.53	1789.92
219.75	1673.19
219.97	1740.77
220.19	1708.01
220.41	1718.25
220.63	1679.33
220.85	1703.91
221.06	1734.63
221.28	1828.84
221.50	1746.92
221.72	1712.10
221.94	1714.15
222.16	1642.47
222.38	1708.01
222.60	1734.63
222.82	1718.25
223.03	1738.73
223.25	1699.81
223.47	1800.16
223.69	1865.70
223.91	1720.29
224.13	1710.05
224.35	1693.67
224.57	1681.38
224.78	1765.35
225.00	1724.39
225.22	1679.33
225.44	1722.34
225.66	1767.40
225.88	1705.96
226.10	1726.44
226.32	1712.10
226.53	1794.02
226.75	1683.43
226.97	1677.29
227.19	1716.20
227.41	1691.62
227.63	1665.00
227.85	1662.95
228.06	1734.63
228.28	1740.77
228.50	1804.26
228.72	1650.66
228.94	1693.67
229.16	1654.76
229.37	1695.72
229.59	1632.23
229.81	1851.36
230.03	1656.81
230.25	1665.00
230.47	1644.52
230.69	1642.47
230.90	1740.77
231.12	1689.57
231.34	1714.15
231.56	1812.45
231.78	1673.19
232.00	1763.30
232.21	1757.16
232.43	1677.29
232.65	1636.33
232.87	1759.21
233.09	1689.57
233.30	1673.19
233.52	1722.34
233.74	1681.38
233.96	1642.47
234.18	1751.01
234.40	1701.86
234.61	1867.75
234.83	1644.52
235.05	1636.33
235.27	1837.03
235.49	1796.07
235.70	1818.60
235.92	1773.54
236.14	1685.48
236.36	1822.69
236.58	1628.14
236.79	1697.77
237.01	1652.71
237.23	1716.20
237.45	1779.68
237.67	1722.34
237.88	1757.16
238.10	1877.99
238.32	1665.00
238.54	1685.48
238.76	1689.57
238.97	1607.66
239.19	1611.75
239.41	1736.68
239.63	1738.73
239.85	1697.77
240.06	1695.72
240.28	1701.86
240.50	1742.82
240.72	1742.82
240.93	1697.77
241.15	1730.53
241.37	1724.39
241.59	1818.60
241.81	1697.77
242.02	1656.81
242.24	1777.64
242.46	1734.63
242.68	1714.15
242.89	1724.39
243.11	1748.97
243.33	1691.62
243.55	1667.05
243.76	1712.10
243.98	1677.29
244.20	1703.91
244.42	1730.53
244.64	1732.58
244.85	1726.44
245.07	1609.70
245.29	1732.58
245.51	1728.49
245.72	1673.19
245.94	1765.35
246.16	1724.39
246.38	1740.77
246.59	1601.51
246.81	1574.89
247.03	1667.05
247.24	1554.41
247.46	1683.43
247.68	1730.53
247.90	1652.71
248.11	1722.34
248.33	1804.26
248.55	1675.24
248.77	1720.29
248.98	1785.83
249.20	1759.21
249.42	1703.91
249.64	1757.16
249.85	1724.39
250.07	1644.52
250.29	1677.29
250.50	1751.01
250.72	1685.48
250.94	1783.78
251.16	1808.36
251.37	1757.16
251.59	1732.58
251.81	1767.40
252.02	1816.55
252.24	1693.67
252.46	1886.18
252.68	1710.05
252.89	1615.85
253.11	1648.61
253.33	1783.78
253.54	1722.34
253.76	1675.24
253.98	1650.66
254.20	1660.90
254.41	1773.54
254.63	1779.68
254.85	1691.62
255.06	1683.43
255.28	1740.77
255.50	1763.30
255.71	1644.52
255.93	1712.10
256.15	1683.43
256.36	1738.73
256.58	1636.33
256.80	1740.77
257.02	1763.30
257.23	1708.01
257.45	1748.97
257.67	1738.73
257.88	1640.42
258.10	1783.78
258.32	1671.14
258.53	1753.06
258.75	1794.02
258.97	1603.56
259.18	1703.91
259.40	1732.58
259.62	1785.83
259.83	1886.18
260.05	1681.38
260.27	1947.62
260.48	1703.91
260.70	1650.66
260.92	1677.29
261.13	1777.64
261.35	1759.21
261.57	1701.86
261.78	1640.42
262.00	1667.05
262.22	1734.63
262.43	1691.62
262.65	1712.10
262.86	1703.91
263.08	1873.89
263.30	1681.38
263.51	1599.46
263.73	1591.27
263.95	1748.97
264.16	1626.09
264.38	1630.18
264.60	1791.97
264.81	1705.96
265.03	1822.69
265.25	1806.31
265.46	1656.81
265.68	1812.45
265.89	1708.01
266.11	1660.90
266.33	1748.97
266.54	1822.69
266.76	1757.16
266.98	1685.48
267.19	1791.97
267.41	1761.25
267.62	1705.96
267.84	1583.08
268.06	1802.21
268.27	1740.77
268.49	1789.92
268.70	1751.01
268.92	1703.91
269.14	1722.34
269.35	1701.86
269.57	1669.09
269.79	1708.01
270.00	1613.80
270.22	1896.42
270.43	1656.81
270.65	1603.56
270.87	1710.05
271.08	1662.95
271.30	1808.36
271.51	1660.90
271.73	1689.57
271.95	1779.68
272.16	1728.49
272.38	1685.48
272.59	1660.90
272.81	1685.48
273.02	1742.82
273.24	1746.92
273.46	1794.02
273.67	1693.67
273.89	1693.67
274.10	1730.53
274.32	1724.39
274.54	1703.91
274.75	1736.68
274.97	1697.77
275.18	1744.87
275.40	1738.73
275.61	1699.81
275.83	1712.10
276.05	1634.28
276.26	1697.77
276.48	1726.44
276.69	1583.08
276.91	1732.58
277.12	1808.36
277.34	1720.29
277.55	1673.19
277.77	1746.92
277.99	1648.61
278.20	1691.62
278.42	1632.23
278.63	1640.42
278.85	1624.04
279.06	1689.57
279.28	1779.68
279.49	1669.09
279.71	1785.83
279.93	1712.10
280.14	1695.72
280.36	1689.57
280.57	1759.21
280.79	1781.73
281.00	1673.19
281.22	1714.15
281.43	1818.60
281.65	1632.23
281.86	1576.94
282.08	1785.83
282.29	1804.26
282.51	1589.22
282.73	1652.71
282.94	1675.24
283.16	1757.16
283.37	1814.50
283.59	1738.73
283.80	1712.10
284.02	1658.85
284.23	1724.39
284.45	1656.81
284.66	1736.68
284.88	1728.49
285.09	1710.05
285.31	1755.11
285.52	1722.34
285.74	1550.31
285.95	1779.68
286.17	1738.73
286.38	1726.44
286.60	1677.29
286.81	1632.23
287.03	1695.72
287.24	1708.01
287.46	1738.73
287.67	1732.58
287.89	1798.12
288.10	1761.25
288.32	1755.11
288.53	1769.44
288.75	1757.16
288.96	1767.40
289.18	1732.58
289.39	1712.10
289.61	1705.96
289.82	1824.74
290.04	1800.16
290.25	1714.15
290.47	1724.39
290.68	1685.48
290.90	1767.40
291.11	1632.23
291.33	1720.29
291.54	1718.25
291.76	1687.53
291.97	1724.39
292.18	1699.81
292.40	1681.38
292.61	1648.61
292.83	1806.31
293.04	1755.11
293.26	1777.64
293.47	1648.61
293.69	1718.25
293.90	1642.47
294.12	1777.64
294.33	1673.19
294.55	1751.01
294.76	1730.53
294.97	1794.02
295.19	1849.32
295.40	1662.95
295.62	1773.54
295.83	1816.55
296.05	1693.67
296.26	1703.91
296.48	1685.48
296.69	1734.63
296.90	1787.88
297.12	1746.92
297.33	1800.16
297.55	1712.10
297.76	1779.68
297.98	1773.54
298.19	1753.06
298.41	1716.20
298.62	1705.96
298.83	1783.78
299.05	1673.19
299.26	1681.38
299.48	1685.48
299.69	1773.54
299.90	1703.91
300.12	1638.38
300.33	1755.11
300.55	1689.57
300.76	1736.68
300.98	1710.05
301.19	1794.02
301.40	1660.90
301.62	1718.25
301.83	1787.88
302.05	1673.19
302.26	1660.90
302.47	1705.96
302.69	1662.95
302.90	1699.81
303.12	1607.66
303.33	1763.30
303.54	1796.07
303.76	1703.91
303.97	1740.77
304.19	1757.16
304.40	1726.44
304.61	1701.86
304.83	1755.11
305.04	1804.26
305.26	1742.82
305.47	1662.95
305.68	1738.73
305.90	1640.42
306.11	1753.06
306.33	1716.20
306.54	1660.90
306.75	1699.81
306.97	1648.61
307.18	1683.43
307.39	1722.34
307.61	1755.11
307.82	1695.72
308.04	1693.67
308.25	1630.18
308.46	1624.04
308.68	1718.25
308.89	1732.58
309.10	1701.86
309.32	1751.01
309.53	1681.38
309.74	1736.68
309.96	1738.73
310.17	1761.25
310.39	1695.72
310.60	1720.29
310.81	1767.40
311.03	1662.95
311.24	1808.36
311.45	1660.90
311.67	1800.16
311.88	1779.68
312.09	1681.38
312.31	1640.42
312.52	1798.12
312.73	1689.57
312.95	1646.57
313.16	1689.57
313.37	1724.39
313.59	1808.36
313.80	1802.21
314.01	1808.36
314.23	1642.47
314.44	1660.90
314.65	1636.33
314.87	1693.67
315.08	1675.24
315.29	1730.53
315.51	1681.38
315.72	1658.85
315.93	1820.64
316.15	1826.79
316.36	1710.05
316.57	1722.34
316.79	1763.30
317.00	1746.92
317.21	1738.73
317.43	1632.23
317.64	1669.09
317.85	1708.01
318.07	1789.92
318.28	1767.40
318.49	1818.60
318.70	1961.95
318.92	1779.68
319.13	1832.93
319.34	1822.69
319.56	1804.26
319.77	1730.53
319.98	1773.54
320.20	1832.93
320.41	1691.62
320.62	1695.72
320.83	1662.95
321.05	1880.04
321.26	1695.72
321.47	1681.38
321.69	1824.74
321.90	1730.53
322.11	1738.73
322.32	1742.82
322.54	1759.21
322.75	1722.34
322.96	1781.73
323.18	1568.74
323.39	1648.61
323.60	1759.21
323.81	1830.88
324.03	1673.19
324.24	1714.15
324.45	1775.59
324.66	1671.14
324.88	1773.54
325.09	1785.83
325.30	1683.43
325.52	1724.39
325.73	1687.53
325.94	1755.11
326.15	1683.43
326.37	1685.48
326.58	1732.58
326.79	1773.54
327.00	1632.23
327.22	1665.00
327.43	1697.77
327.64	1665.00
327.85	1685.48
328.07	1724.39
328.28	1830.88
328.49	1675.24
328.70	1708.01
328.92	1665.00
329.13	1646.57
329.34	1705.96
329.55	1826.79
329.76	1763.30
329.98	1722.34
330.19	1699.81
330.40	1716.20
330.61	1683.43
330.83	1662.95
331.04	1708.01
331.25	1757.16
331.46	1697.77
331.68	1583.08
331.89	1771.49
332.10	1679.33
332.31	1691.62
332.52	1728.49
332.74	1751.01
332.95	1617.90
333.16	1740.77
333.37	1746.92
333.58	1632.23
333.80	1722.34
334.01	1607.66
334.22	1669.09
334.43	1644.52
334.64	1650.66
334.86	1667.05
335.07	1697.77
335.28	1751.01
335.49	1601.51
335.70	1730.53
335.92	1763.30
336.13	1800.16
336.34	1773.54
336.55	1820.64
336.76	1718.25
336.98	1675.24
337.19	1728.49
337.40	1775.59
337.61	1920.99
337.82	1687.53
338.04	1712.10
338.25	1632.23
338.46	1660.90
338.67	1716.20
338.88	1640.42
339.09	1638.38
339.31	1724.39
339.52	1605.61
339.73	1746.92
339.94	1605.61
340.15	1800.16
340.36	1673.19
340.58	1712.10
340.79	1673.19
341.00	1701.86
341.21	1613.80
341.42	1867.75
341.63	1701.86
341.85	1738.73
342.06	1640.42
342.27	1681.38
342.48	1732.58
342.69	1712.10
342.90	1656.81
343.12	1779.68
343.33	1712.10
343.54	1630.18
343.75	1832.93
343.96	1695.72
344.17	1691.62
344.38	1683.43
344.60	1685.48
344.81	1722.34
345.02	1673.19
345.23	1843.17
345.44	1777.64
345.65	1716.20
345.86	1765.35
346.07	1665.00
346.29	1677.29
346.50	1736.68
346.71	1710.05
346.92	1845.22
347.13	1894.37
347.34	1652.71
347.55	1689.57
347.76	1673.19
347.98	1652.71
348.19	1759.21
348.40	1783.78
348.61	1646.57
348.82	1816.55
349.03	1820.64
349.24	1667.05
349.45	1761.25
349.66	1552.36
349.88	1703.91
350.09	1718.25
350.30	1767.40
350.51	1798.12
350.72	1679.33
350.93	1845.22
351.14	1648.61
351.35	1810.40
351.56	1665.00
351.77	1748.97
351.99	1761.25
352.20	1855.46
352.41	1742.82
352.62	1658.85
352.83	1714.15
353.04	1712.10
353.25	1738.73
353.46	1802.21
353.67	1757.16
353.88	1636.33
354.09	1777.64
354.30	1648.61
354.52	1791.97
354.73	1722.34
354.94	1730.53
355.15	1720.29
355.36	1755.11
355.57	1710.05
355.78	1751.01
355.99	1646.57
356.20	1736.68
356.41	1673.19
356.62	1714.15
356.83	1775.59
357.04	1753.06
357.25	1675.24
357.46	1705.96
357.68	1652.71
357.89	1585.13
358.10	1730.53
358.31	1687.53
358.52	1695.72
358.73	1648.61
358.94	1712.10
359.15	1701.86
359.36	1767.40
359.57	1697.77
359.78	1757.16
359.99	1712.10
360.20	1693.67
360.41	1804.26
360.62	1798.12
360.83	1697.77
361.04	1681.38
361.25	1742.82
361.46	1902.56
361.67	1738.73
361.88	1753.06
362.09	1773.54
362.30	1656.81
362.51	1650.66
362.72	1687.53
362.93	1748.97
363.14	1771.49
363.35	1640.42
363.56	1634.28
363.78	1755.11
363.99	1755.11
364.20	1646.57
364.41	1722.34
364.62	1730.53
364.83	1675.24
365.04	1722.34
365.25	1679.33
365.46	1740.77
365.67	1667.05
365.88	1681.38
366.09	1755.11
366.30	1697.77
366.51	1656.81
366.72	1679.33
366.93	1705.96
367.14	1605.61
367.35	1802.21
367.56	1714.15
367.77	1783.78
367.98	1705.96
368.18	1736.68
368.39	1757.16
368.60	1562.60
368.81	1808.36
369.02	1787.88
369.23	1656.81
369.44	1630.18
369.65	1681.38
369.86	1701.86
370.07	1771.49
370.28	1689.57
370.49	1785.83
370.70	1708.01
370.91	1640.42
371.12	1658.85
371.33	1822.69
371.54	1720.29
371.75	1871.84
371.96	1650.66
372.17	1705.96
372.38	1669.09
372.59	1800.16
372.80	1732.58
373.01	1667.05
373.22	1738.73
373.43	1705.96
373.64	1669.09
373.85	1775.59
374.06	1824.74
374.26	1785.83
374.47	1669.09
374.68	1789.92
374.89	1705.96
375.10	1722.34
375.31	1834.98
375.52	1718.25
375.73	1693.67
375.94	1675.24
376.15	1812.45
376.36	1730.53
376.57	1630.18
376.78	1716.20
376.99	1736.68
377.20	1738.73
377.40	1611.75
377.61	1806.31
377.82	1628.14
378.03	1853.41
378.24	1822.69
378.45	1665.00
378.66	1769.44
378.87	1697.77
379.08	1662.95
379.29	1624.04
379.50	1763.30
379.71	1656.81
379.91	1796.07
380.12	1740.77
380.33	1734.63
380.54	1722.34
380.75	1746.92
380.96	1677.29
381.17	1839.08
381.38	1675.24
381.59	1761.25
381.80	1712.10
382.00	1873.89
382.21	1740.77
382.42	1804.26
382.63	1855.46
382.84	1812.45
383.05	1751.01
383.26	1757.16
383.47	1753.06
383.68	1777.64
383.88	1769.44
384.09	1697.77
384.30	1910.75
384.51	1765.35
384.72	1744.87
384.93	1734.63
385.14	1740.77
385.35	1837.03
385.55	1654.76
385.76	1779.68
385.97	1697.77
386.18	1648.61
386.39	1724.39
386.60	1689.57
386.81	1714.15
387.02	1638.38
387.22	1654.76
387.43	1769.44
387.64	1773.54
387.85	1898.47
388.06	2113.50
388.27	4280.25
388.48	6635.42
388.68	8103.81
388.89	9574.25
389.10	9817.96
389.31	8624.00
389.52	7505.81
389.73	6569.88
389.93	6096.80
390.14	5816.23
390.35	5138.35
390.56	4566.97
390.77	3872.71
390.98	3141.58
391.18	2504.67
391.39	2076.64
391.60	1849.32
391.81	1855.46
392.02	1714.15
392.23	1867.75
392.43	1818.60
392.64	1783.78
392.85	1748.97
393.06	1802.21
393.27	1781.73
393.47	1732.58
393.68	1777.64
393.89	1714.15
394.10	1763.30
394.31	1701.86
394.52	1710.05
394.72	1714.15
394.93	1839.08
395.14	1669.09
395.35	1714.15
395.56	1677.29
395.76	1691.62
395.97	1748.97
396.18	1791.97
396.39	1810.40
396.60	2093.02
396.80	1908.71
397.01	1824.74
397.22	1882.08
397.43	1849.32
397.64	1728.49
397.84	1814.50
398.05	1865.70
398.26	1748.97
398.47	1787.88
398.67	1724.39
398.88	1826.79
399.09	1781.73
399.30	1703.91
399.51	1755.11
399.71	1615.85
399.92	1695.72
400.13	1789.92
400.34	1755.11
400.54	1714.15
400.75	1839.08
400.96	1757.16
401.17	1781.73
401.37	1728.49
401.58	1748.97
401.79	1761.25
402.00	1871.84
402.21	1970.15
402.41	2017.25
402.62	1996.77
402.83	2029.54
403.04	2019.30
403.24	2103.26
403.45	1894.37
403.66	1896.42
403.87	1898.47
404.07	1869.80
404.28	1943.52
404.49	1886.18
404.70	1755.11
404.90	1871.84
405.11	1720.29
405.32	1822.69
405.52	1693.67
405.73	1665.00
405.94	1722.34
406.15	1699.81
406.35	1755.11
406.56	1705.96
406.77	1710.05
406.98	1830.88
407.18	1656.81
407.39	1853.41
407.60	1779.68
407.80	1800.16
408.01	1748.97
408.22	1718.25
408.43	1587.18
408.63	1761.25
408.84	1761.25
409.05	1789.92
409.25	1671.14
409.46	1722.34
409.67	1726.44
409.88	1746.92
410.08	1789.92
410.29	1687.53
410.50	1822.69
410.70	1804.26
410.91	1630.18
411.12	1718.25
411.32	1679.33
411.53	1673.19
411.74	1869.80
411.95	1757.16
412.15	1728.49
412.36	1710.05
412.57	1751.01
412.77	1837.03
412.98	1689.57
413.19	1767.40
413.39	1769.44
413.60	1849.32
413.81	1837.03
414.01	1636.33
414.22	1718.25
414.43	1777.64
414.63	1714.15
414.84	1820.64
415.05	1693.67
415.25	1734.63
415.46	1871.84
415.67	1656.81
415.87	1710.05
416.08	1642.47
416.29	1697.77
416.49	1785.83
416.70	1671.14
416.91	1697.77
417.11	1710.05
417.32	1837.03
417.53	1796.07
417.73	1714.15
417.94	1791.97
418.15	1738.73
418.35	1738.73
418.56	1675.24
418.77	1877.99
418.97	1726.44
419.18	1771.49
419.38	1576.94
419.59	1708.01
419.80	1787.88
420.00	1689.57
420.21	1789.92
420.42	1738.73
420.62	1669.09
420.83	1615.85
421.04	1748.97
421.24	1693.67
421.45	1716.20
421.65	1777.64
421.86	1718.25
422.07	1755.11
422.27	1789.92
422.48	1746.92
422.69	1656.81
422.89	1683.43
423.10	1761.25
423.30	1656.81
423.51	1665.00
423.72	1718.25
423.92	1783.78
424.13	1660.90
424.33	1724.39
424.54	1689.57
424.75	1746.92
424.95	1791.97
425.16	1708.01
425.36	1693.67
425.57	1771.49
425.78	1751.01
425.98	1730.53
426.19	1751.01
426.39	1665.00
426.60	1796.07
426.81	1785.83
427.01	1751.01
427.22	1697.77
427.42	1574.89
427.63	1665.00
427.83	1775.59
428.04	1822.69
428.25	1742.82
428.45	1859.56
428.66	1742.82
428.86	1679.33
429.07	1794.02
429.28	1759.21
429.48	1681.38
429.69	1699.81
429.89	1746.92
430.10	1685.48
430.30	1710.05
430.51	1783.78
430.71	1677.29
430.92	1720.29
431.13	1740.77
431.33	1759.21
431.54	1767.40
431.74	1828.84
431.95	1834.98
432.15	1634.28
432.36	1697.77
432.56	1708.01
432.77	1896.42
432.98	1763.30
433.18	1753.06
433.39	1742.82
433.59	1728.49
433.80	1816.55
434.00	1851.36
434.21	1753.06
434.41	1734.63
434.62	1845.22
434.82	1632.23
435.03	1656.81
435.23	1820.64
435.44	1703.91
435.64	1677.29
435.85	1738.73
436.06	1763.30
436.26	1708.01
436.47	1714.15
436.67	1671.14
436.88	1658.85
437.08	1738.73
437.29	1798.12
437.49	1824.74
437.70	1808.36
437.90	1740.77
438.11	1822.69
438.31	1871.84
438.52	1851.36
438.72	1769.44
438.93	1992.67
439.13	1791.97
439.34	1861.60
439.54	1785.83
439.75	1800.16
439.95	1855.46
440.16	1724.39
440.36	1806.31
440.57	1808.36
440.77	1751.01
440.98	1818.60
441.18	1734.63
441.39	1730.53
441.59	1693.67
441.80	1818.60
442.00	1804.26
442.21	1875.94
442.41	1644.52
442.62	1816.55
442.82	1656.81
443.02	1714.15
443.23	1726.44
443.43	1748.97
443.64	1738.73
443.84	1695.72
444.05	1787.88
444.25	1777.64
444.46	1712.10
444.66	1767.40
444.87	1820.64
445.07	1708.01
445.28	1673.19
445.48	1718.25
445.69	1769.44
445.89	1886.18
446.09	1773.54
446.30	2060.26
446.50	2598.87
446.71	3815.37
446.91	4349.89
447.12	4804.53
447.32	4693.94
447.53	4327.36
447.73	3833.80
447.93	3487.69
448.14	3313.61
448.34	3266.51
448.55	2893.78
448.75	2809.81
448.96	2742.23
449.16	2490.33
449.36	2263.01
449.57	2082.78
449.77	1888.23
449.98	1818.60
450.18	1798.12
450.39	1875.94
450.59	1820.64
450.79	1746.92
451.00	1677.29
451.20	1796.07
451.41	1755.11
451.61	1748.97
451.81	1730.53
452.02	1677.29
452.22	1701.86
452.43	1783.78
452.63	1701.86
452.84	1787.88
453.04	1720.29
453.24	1720.29
453.45	1714.15
453.65	1800.16
453.86	1822.69
454.06	1771.49
454.26	1699.81
454.47	1697.77
454.67	1748.97
454.87	1765.35
455.08	1738.73
455.28	1841.12
455.49	1785.83
455.69	1652.71
455.89	1918.95
456.10	1828.84
456.30	1697.77
456.51	1777.64
456.71	1779.68
456.91	1748.97
457.12	1722.34
457.32	1689.57
457.52	1730.53
457.73	1738.73
457.93	1855.46
458.14	1769.44
458.34	1744.87
458.54	1677.29
458.75	1720.29
458.95	1730.53
459.15	1796.07
459.36	1759.21
459.56	1742.82
459.76	1869.80
459.97	1769.44
460.17	1783.78
460.37	1697.77
460.58	1757.16
460.78	1757.16
460.99	1765.35
461.19	1791.97
461.39	1722.34
461.60	1757.16
461.80	1740.77
462.00	1681.38
462.21	1632.23
462.41	1619.94
462.61	1669.09
462.82	1585.13
463.02	1738.73
463.22	1724.39
463.43	1816.55
463.63	1716.20
463.83	1871.84
464.04	1740.77
464.24	1677.29
464.44	1716.20
464.64	1716.20
464.85	1769.44
465.05	1804.26
465.25	1726.44
465.46	1658.85
465.66	1775.59
465.86	1787.88
466.07	1714.15
466.27	1710.05
466.47	1669.09
466.68	1726.44
466.88	1796.07
467.08	1767.40
467.29	1763.30
467.49	1746.92
467.69	1693.67
467.89	1765.35
468.10	1656.81
468.30	1705.96
468.50	1839.08
468.71	1734.63
468.91	1638.38
469.11	1857.51
469.31	1775.59
469.52	1683.43
469.72	1877.99
469.92	1865.70
470.13	1798.12
470.33	1767.40
470.53	1820.64
470.73	2082.78
470.94	2371.55
471.14	2306.01
471.34	2512.86
471.54	2422.75
471.75	2203.61
471.95	2113.50
472.15	2099.17
472.36	2189.28
472.56	2093.02
472.76	2160.61
472.96	2025.44
473.17	1968.10
473.37	1953.76
473.57	1781.73
473.77	1863.65
473.98	1767.40
474.18	1718.25
474.38	1877.99
474.58	1691.62
474.79	1693.67
474.99	1800.16
475.19	1759.21
475.39	1660.90
475.60	1736.68
475.80	1767.40
476.00	1732.58
476.20	1685.48
476.41	1734.63
476.61	1810.40
476.81	1779.68
477.01	1691.62
477.21	1855.46
477.42	1765.35
477.62	1632.23
477.82	1777.64
478.02	1689.57
478.23	1757.16
478.43	1740.77
478.63	1685.48
478.83	1767.40
479.03	1728.49
479.24	1787.88
479.44	1875.94
479.64	1632.23
479.84	1638.38
480.04	1738.73
480.25	1796.07
480.45	1683.43
480.65	1718.25
480.85	1837.03
481.06	1798.12
481.26	1757.16
481.46	1814.50
481.66	1740.77
481.86	1751.01
482.06	1824.74
482.27	1703.91
482.47	1693.67
482.67	1755.11
482.87	1714.15
483.07	1816.55
483.28	1634.28
483.48	1738.73
483.68	1794.02
483.88	1753.06
484.08	1595.37
484.29	1671.14
484.49	1748.97
484.69	1683.43
484.89	1859.56
485.09	1828.84
485.29	1693.67
485.50	1775.59
485.70	1722.34
485.90	1814.50
486.10	1771.49
486.30	1773.54
486.50	1769.44
486.71	1736.68
486.91	1695.72
487.11	1869.80
487.31	1640.42
487.51	1777.64
487.71	1669.09
487.91	1609.70
488.12	1708.01
488.32	1609.70
488.52	1708.01
488.72	1619.94
488.92	1775.59
489.12	1845.22
489.32	1751.01
489.53	1787.88
489.73	1638.38
489.93	1796.07
490.13	1730.53
490.33	1615.85
490.53	1777.64
490.73	1742.82
490.94	1677.29
491.14	1738.73
491.34	1824.74
491.54	2090.98
491.74	2570.20
491.94	2893.78
492.14	3117.01
492.34	3049.43
492.54	2756.57
492.75	2557.91
492.95	2467.80
493.15	2275.29
493.35	2353.12
493.55	2328.54
493.75	2121.70
493.95	2133.98
494.15	1943.52
494.35	1947.62
494.56	1845.22
494.76	1787.88
494.96	1794.02
495.16	1796.07
495.36	1804.26
495.56	1771.49
495.76	1726.44
495.96	1744.87
496.16	1777.64
496.36	1804.26
496.56	1736.68
496.77	1802.21
496.97	1746.92
497.17	1830.88
497.37	1693.67
497.57	1740.77
497.77	1740.77
497.97	1624.04
498.17	1734.63
498.37	1722.34
498.57	1748.97
498.77	1718.25
498.97	1892.32
499.17	1804.26
499.38	1716.20
499.58	1775.59
499.78	1783.78
499.98	1763.30
500.18	1665.00
500.38	1697.77
500.58	1910.75
500.78	2572.25
500.98	4415.42
501.18	5738.41
501.38	6612.89
501.58	7294.86
501.78	6662.04
501.98	5500.84
502.18	5085.11
502.38	4448.19
502.58	4083.65
502.78	3770.31
502.98	3600.33
503.18	3387.34
503.38	3100.62
503.59	2897.88
503.79	2652.12
503.99	2568.15
504.19	2336.73
504.39	2158.56
504.59	2213.85
504.79	2168.80
504.99	2037.73
505.19	1970.15
505.39	1980.39
505.59	1982.43
505.79	1945.57
505.99	1869.80
506.19	1857.51
506.39	1796.07
506.59	1736.68
506.79	1779.68
506.99	1869.80
507.19	1796.07
507.39	1705.96
507.59	1673.19
507.79	1691.62
507.99	1751.01
508.19	1732.58
508.39	1708.01
508.59	1763.30
508.79	1798.12
508.99	1824.74
509.19	1654.76
509.39	1712.10
509.59	1744.87
509.79	1662.95
509.99	1830.88
510.19	1794.02
510.39	1757.16
510.59	1697.77
510.79	1775.59
510.99	1607.66
511.19	1787.88
511.39	1839.08
511.59	1800.16
511.79	1869.80
511.99	1796.07
512.19	1814.50
512.38	1843.17
512.58	1787.88
512.78	1748.97
512.98	1839.08
513.18	1806.31
513.38	1613.80
513.58	1787.88
513.78	1712.10
513.98	1710.05
514.18	1687.53
514.38	1734.63
514.58	1730.53
514.78	1648.61
514.98	1732.58
515.18	1767.40
515.38	1628.14
515.58	1794.02
515.78	1724.39
515.98	1755.11
516.18	1722.34
516.38	1742.82
516.57	1763.30
516.77	1718.25
516.97	1703.91
517.17	1615.85
517.37	1658.85
517.57	1787.88
517.77	1693.67
517.97	1744.87
518.17	1828.84
518.37	1705.96
518.57	1658.85
518.77	1751.01
518.97	1738.73
519.16	1748.97
519.36	1820.64
519.56	1718.25
519.76	1736.68
519.96	1755.11
520.16	1796.07
520.36	1679.33
520.56	1824.74
520.76	1650.66
520.96	1673.19
521.16	1826.79
521.35	1812.45
521.55	1755.11
521.75	1732.58
521.95	1734.63
522.15	1656.81
522.35	1708.01
522.55	1710.05
522.75	1759.21
522.95	1699.81
523.14	1658.85
523.34	1796.07
523.54	1701.86
523.74	1775.59
523.94	1806.31
524.14	1720.29
524.34	1837.03
524.54	1787.88
524.73	1673.19
524.93	1775.59
525.13	1701.86
525.33	1658.85
525.53	1935.33
525.73	1714.15
525.93	1689.57
526.13	1685.48
526.32	1779.68
526.52	1761.25
526.72	1763.30
526.92	1783.78
527.12	1738.73
527.32	1632.23
527.52	1812.45
527.71	1806.31
527.91	1812.45
528.11	1732.58
528.31	1734.63
528.51	1726.44
528.71	1787.88
528.90	1726.44
529.10	1828.84
529.30	1886.18
529.50	1689.57
529.70	1751.01
529.90	1734.63
530.09	1751.01
530.29	1710.05
530.49	1646.57
530.69	1884.13
530.89	1763.30
531.09	1791.97
531.28	1669.09
531.48	1791.97
531.68	1767.40
531.88	1767.40
532.08	1841.12
532.28	1693.67
532.47	1767.40
532.67	1861.60
532.87	1748.97
533.07	1685.48
533.27	1783.78
533.46	1746.92
533.66	1761.25
533.86	1722.34
534.06	1716.20
534.26	1787.88
534.45	1751.01
534.65	1869.80
534.85	1802.21
535.05	1736.68
535.25	1728.49
535.44	1712.10
535.64	1783.78
535.84	1740.77
536.04	1640.42
536.24	1673.19
536.43	1677.29
536.63	1785.83
536.83	1798.12
537.03	1699.81
537.22	1673.19
537.42	1705.96
537.62	1757.16
537.82	1726.44
538.02	1837.03
538.21	1845.22
538.41	1918.95
538.61	1763.30
538.81	1761.25
539.00	1818.60
539.20	1744.87
539.40	1687.53
539.60	1802.21
539.79	1761.25
539.99	1697.77
540.19	1587.18
540.39	1720.29
540.58	1730.53
540.78	1857.51
540.98	1757.16
541.18	1796.07
541.37	1722.34
541.57	1775.59
541.77	1734.63
541.97	1728.49
542.16	1714.15
542.36	1697.77
542.56	1814.50
542.76	1906.66
542.95	1839.08
543.15	1716.20
543.35	1796.07
543.54	1693.67
543.74	1656.81
543.94	1918.95
544.14	1740.77
544.33	1722.34
544.53	1765.35
544.73	1777.64
544.93	1708.01
545.12	1736.68
545.32	1796.07
545.52	1714.15
545.71	1724.39
545.91	1689.57
546.11	1730.53
546.30	1677.29
546.50	1730.53
546.70	1767.40
546.90	1773.54
547.09	1669.09
547.29	1705.96
547.49	1742.82
547.68	1785.83
547.88	1630.18
548.08	1738.73
548.27	2205.66
548.47	1710.05
548.67	1765.35
548.87	1814.50
549.06	1765.35
549.26	1783.78
549.46	1724.39
549.65	1675.24
549.85	1714.15
550.05	1810.40
550.24	1718.25
550.44	1744.87
550.64	1775.59
550.83	1804.26
551.03	1826.79
551.23	1789.92
551.42	1773.54
551.62	1753.06
551.82	1769.44
552.01	1701.86
552.21	1871.84
552.41	1818.60
552.60	1751.01
552.80	1771.49
553.00	1660.90
553.19	1701.86
553.39	1785.83
553.59	1681.38
553.78	1767.40
553.98	1789.92
554.17	1712.10
554.37	1730.53
554.57	1837.03
554.76	1628.14
554.96	1734.63
555.16	1785.83
555.35	1722.34
555.55	1771.49
555.75	1785.83
555.94	1804.26
556.14	1714.15
556.33	1765.35
556.53	1777.64
556.73	1667.05
556.92	1796.07
557.12	1759.21
557.32	1818.60
557.51	1834.98
557.71	1814.50
557.90	1839.08
558.10	1826.79
558.30	1693.67
558.49	1703.91
558.69	1748.97
558.88	1751.01
559.08	1738.73
559.28	1796.07
559.47	1804.26
559.67	1859.56
559.86	1910.75
560.06	1763.30
560.26	1757.16
560.45	1785.83
560.65	1699.81
560.84	1826.79
561.04	1697.77
561.24	1796.07
561.43	1650.66
561.63	1802.21
561.82	1755.11
562.02	1783.78
562.22	1710.05
562.41	1650.66
562.61	1746.92
562.80	1732.58
563.00	1880.04
563.19	1775.59
563.39	1740.77
563.59	1869.80
563.78	1687.53
563.98	1681.38
564.17	1765.35
564.37	1595.37
564.56	1722.34
564.76	1677.29
564.96	1775.59
565.15	1724.39
565.35	1923.04
565.54	1738.73
565.74	1798.12
565.93	1783.78
566.13	1708.01
566.32	1816.55
566.52	1761.25
566.71	1761.25
566.91	1796.07
567.11	1730.53
567.30	1777.64
567.50	1777.64
567.69	1769.44
567.89	1785.83
568.08	1722.34
568.28	1804.26
568.47	1757.16
568.67	1794.02
568.86	1628.14
569.06	1738.73
569.25	1744.87
569.45	1640.42
569.64	1708.01
569.84	1726.44
570.04	1779.68
570.23	1759.21
570.43	1771.49
570.62	1744.87
570.82	1877.99
571.01	1669.09
571.21	1714.15
571.40	1646.57
571.60	1791.97
571.79	1810.40
571.99	1732.58
572.18	1804.26
572.38	1759.21
572.57	1771.49
572.77	1746.92
572.96	1855.46
573.16	1720.29
573.35	1783.78
573.55	1849.32
573.74	1736.68
573.94	1753.06
574.13	1742.82
574.33	1753.06
574.52	1839.08
574.71	1746.92
574.91	1724.39
575.10	1728.49
575.30	1720.29
575.49	1781.73
575.69	1667.05
575.88	1814.50
576.08	1753.06
576.27	1798.12
576.47	1714.15
576.66	1773.54
576.86	1832.93
577.05	1679.33
577.25	1812.45
577.44	1880.04
577.64	1705.96
577.83	1824.74
578.02	1755.11
578.22	1875.94
578.41	1877.99
578.61	1701.86
578.80	1681.38
579.00	1779.68
579.19	1767.40
579.39	1771.49
579.58	1789.92
579.77	1761.25
579.97	1847.27
580.16	1777.64
580.36	1900.52
580.55	1832.93
580.75	1767.40
580.94	1828.84
581.13	1863.65
581.33	1984.48
581.52	1798.12
581.72	1824.74
581.91	1812.45
582.11	1699.81
582.30	1873.89
582.49	1820.64
582.69	1800.16
582.88	1724.39
583.08	1685.48
583.27	1837.03
583.47	1783.78
583.66	1738.73
583.85	1722.34
584.05	1787.88
584.24	1826.79
584.44	1834.98
584.63	1822.69
584.82	1771.49
585.02	1787.88
585.21	1830.88
585.41	1841.12
585.60	1781.73
585.79	1912.80
585.99	1943.52
586.18	1863.65
586.37	2189.28
586.57	3332.05
586.76	9955.18
586.96	24561.29
587.15	34487.79
587.34	40340.89
587.54	42134.91
587.73	36398.55
587.93	25960.05
588.12	21249.72
588.31	18052.84
588.51	15873.81
588.70	15249.18
588.89	13879.08
589.09	12515.14
589.28	10968.92
589.47	9453.42
589.67	7907.21
589.86	6367.13
590.06	4855.73
590.25	3770.31
590.44	3190.74
590.64	2660.31
590.83	2232.29
591.02	2109.41
591.22	1949.67
591.41	1871.84
591.60	1830.88
591.80	1949.67
591.99	1779.68
592.18	1728.49
592.38	1861.60
592.57	1880.04
592.76	1775.59
592.96	1828.84
593.15	1789.92
593.34	1839.08
593.54	1732.58
593.73	1789.92
593.92	1847.27
594.12	1789.92
594.31	1765.35
594.50	1929.19
594.70	1781.73
594.89	1890.28
595.08	1640.42
595.28	1779.68
595.47	1994.72
595.66	1777.64
595.86	1613.80
596.05	1746.92
596.24	1738.73
596.43	1845.22
596.63	1849.32
596.82	1738.73
597.01	1783.78
597.21	1863.65
597.40	1783.78
597.59	1765.35
597.79	1783.78
597.98	1787.88
598.17	1775.59
598.36	1783.78
598.56	1767.40
598.75	1738.73
598.94	1716.20
599.14	1748.97
599.33	1656.81
599.52	1806.31
599.71	1822.69
599.91	1734.63
600.10	1724.39
600.29	1705.96
600.48	1812.45
600.68	1779.68
600.87	1787.88
601.06	1746.92
601.26	1748.97
601.45	1748.97
601.64	1755.11
601.83	1787.88
602.03	1734.63
602.22	1683.43
602.41	1775.59
602.60	1918.95
602.80	1798.12
602.99	1789.92
603.18	1757.16
603.37	1773.54
603.57	1802.21
603.76	1740.77
603.95	1863.65
604.14	1677.29
604.34	1703.91
604.53	1755.11
604.72	1757.16
604.91	1763.30
605.10	1689.57
605.30	1642.47
605.49	1888.23
605.68	1783.78
605.87	1832.93
606.07	1773.54
606.26	1689.57
606.45	1685.48
606.64	1785.83
606.84	1789.92
607.03	1736.68
607.22	1800.16
607.41	1714.15
607.60	1751.01
607.80	1814.50
607.99	1710.05
608.18	1755.11
608.37	1759.21
608.56	1753.06
608.76	1771.49
608.95	1771.49
609.14	1689.57
609.33	1871.84
609.52	1839.08
609.72	1767.40
609.91	1806.31
610.10	1726.44
610.29	1791.97
610.48	1673.19
610.68	1822.69
610.87	1773.54
611.06	1722.34
611.25	1712.10
611.44	1773.54
611.63	1759.21
611.83	1755.11
612.02	1652.71
612.21	1779.68
612.40	1632.23
612.59	1691.62
612.79	1681.38
612.98	1732.58
613.17	1767.40
613.36	1724.39
613.55	1841.12
613.74	1808.36
613.93	1658.85
614.13	1798.12
614.32	1738.73
614.51	1802.21
614.70	1642.47
614.89	1683.43
615.08	1775.59
615.28	2052.06
615.47	1621.99
615.66	1726.44
615.85	1734.63
616.04	1816.55
616.23	1804.26
616.42	1757.16
616.62	1724.39
616.81	1775.59
617.00	1802.21
617.19	1794.02
617.38	1695.72
617.57	1781.73
617.76	1783.78
617.95	1748.97
618.15	1769.44
618.34	1767.40
618.53	1669.09
618.72	1736.68
618.91	1777.64
619.10	1802.21
619.29	1769.44
619.48	1742.82
619.68	1681.38
619.87	1714.15
620.06	1685.48
620.25	1806.31
620.44	1693.67
620.63	1730.53
620.82	1726.44
621.01	1759.21
621.20	1730.53
621.39	1732.58
621.59	1705.96
621.78	1736.68
621.97	1755.11
622.16	1771.49
622.35	1734.63
622.54	1757.16
622.73	1722.34
622.92	1667.05
623.11	1783.78
623.30	1753.06
623.49	1783.78
623.68	1693.67
623.88	1804.26
624.07	1685.48
624.26	1732.58
624.45	1667.05
624.64	1693.67
624.83	1744.87
625.02	1753.06
625.21	1730.53
625.40	1763.30
625.59	1763.30
625.78	1722.34
625.97	1783.78
626.16	1789.92
626.35	1812.45
626.54	1740.77
626.74	1738.73
626.93	1705.96
627.12	1738.73
627.31	1828.84
627.50	1785.83
627.69	1742.82
627.88	1679.33
628.07	1755.11
628.26	1640.42
628.45	1652.71
628.64	1781.73
628.83	1804.26
629.02	1642.47
629.21	1767.40
629.40	1847.27
629.59	1742.82
629.78	1763.30
629.97	1785.83
630.16	1712.10
630.35	1697.77
630.54	1746.92
630.73	1726.44
630.92	1798.12
631.11	1703.91
631.30	1773.54
631.49	1693.67
631.68	1757.16
631.87	1701.86
632.06	1730.53
632.25	1849.32
632.44	1779.68
632.63	1697.77
632.82	1732.58
633.01	1583.08
633.20	1765.35
633.39	1656.81
633.58	1636.33
633.77	1718.25
633.96	1726.44
634.15	1751.01
634.34	1738.73
634.53	1751.01
634.72	1755.11
634.91	1671.14
635.10	1777.64
635.29	1771.49
635.48	1724.39
635.67	1673.19
635.86	1708.01
636.05	1845.22
636.24	1771.49
636.43	1757.16
636.62	1716.20
636.81	1624.04
637.00	1763.30
637.19	1712.10
637.38	1697.77
637.57	1656.81
637.76	1699.81
637.95	1748.97
638.14	1730.53
638.33	1693.67
638.52	1724.39
638.71	1665.00
638.89	1656.81
639.08	1888.23
639.27	1730.53
639.46	1697.77
639.65	1798.12
639.84	1667.05
640.03	1810.40
640.22	1685.48
640.41	1804.26
640.60	1734.63
640.79	1658.85
640.98	1732.58
641.17	1812.45
641.36	1794.02
641.55	1701.86
641.74	1693.67
641.92	1693.67
642.11	1636.33
642.30	1724.39
642.49	1693.67
642.68	1740.77
642.87	1689.57
643.06	1746.92
643.25	1724.39
643.44	1673.19
643.63	1638.38
643.82	1757.16
644.00	1712.10
644.19	1673.19
644.38	1708.01
644.57	1730.53
644.76	1767.40
644.95	1691.62
645.14	1796.07
645.33	1703.91
645.52	1816.55
645.71	1685.48
645.89	1701.86
646.08	1724.39
646.27	1701.86
646.46	1830.88
646.65	1746.92
646.84	1779.68
647.03	1648.61
647.22	1755.11
647.40	1742.82
647.59	1658.85
647.78	1742.82
647.97	1681.38
648.16	1632.23
648.35	1851.36
648.54	1753.06
648.73	1751.01
648.91	1820.64
649.10	1671.14
649.29	1665.00
649.48	1767.40
649.67	1777.64
649.86	1636.33
650.05	1689.57
650.23	1896.42
650.42	1681.38
650.61	1773.54
650.80	1732.58
650.99	1802.21
651.18	1716.20
651.36	1783.78
651.55	1703.91
651.74	1775.59
651.93	1677.29
652.12	1728.49
652.31	1701.86
652.49	1693.67
652.68	1744.87
652.87	1814.50
653.06	1789.92
653.25	1837.03
653.44	1771.49
653.62	1755.11
653.81	1644.52
654.00	1730.53
654.19	1705.96
654.38	1853.41
654.56	1765.35
654.75	1716.20
654.94	1722.34
655.13	1722.34
655.32	1734.63
655.51	1812.45
655.69	1642.47
655.88	1796.07
656.07	1679.33
656.26	1812.45
656.45	1701.86
656.63	1685.48
656.82	1722.34
657.01	1738.73
657.20	1701.86
657.38	1781.73
657.57	1714.15
657.76	1638.38
657.95	1816.55
658.14	1732.58
658.32	1751.01
658.51	1665.00
658.70	1673.19
658.89	1755.11
659.08	1771.49
659.26	1845.22
659.45	1679.33
659.64	1712.10
659.83	1658.85
660.01	1847.27
660.20	1804.26
660.39	1822.69
660.58	1646.57
660.76	1837.03
660.95	1665.00
661.14	1769.44
661.33	1669.09
661.51	1703.91
661.70	1736.68
661.89	1783.78
662.08	1685.48
662.26	1708.01
662.45	1748.97
662.64	1826.79
662.83	1734.63
663.01	1599.46
663.20	1701.86
663.39	1828.84
663.58	1728.49
663.76	1665.00
663.95	1769.44
664.14	1705.96
664.32	1703.91
664.51	1675.24
664.70	1679.33
664.89	1806.31
665.07	1728.49
665.26	1816.55
665.45	1660.90
665.64	1761.25
665.82	1779.68
666.01	1794.02
666.20	1687.53
666.38	1763.30
666.57	1857.51
666.76	2220.00
666.95	4614.07
667.13	10346.34
667.32	15300.37
667.51	17919.73
667.69	18886.37
667.88	17618.68
668.07	12285.76
668.25	9496.43
668.44	8157.06
668.63	7341.97
668.81	6885.27
669.00	6315.94
669.19	5597.10
669.38	5060.53
669.56	4589.50
669.75	3995.59
669.94	3407.82
670.12	2912.21
670.31	2449.37
670.50	2228.19
670.68	2088.93
670.87	1929.19
671.06	1787.88
671.24	1785.83
671.43	1865.70
671.62	1681.38
671.80	1751.01
671.99	1802.21
672.18	1724.39
672.36	1781.73
672.55	1726.44
672.74	1691.62
672.92	1712.10
673.11	1722.34
673.29	1671.14
673.48	1796.07
673.67	1693.67
673.85	1902.56
674.04	1689.57
674.23	1765.35
674.41	1798.12
674.60	1658.85
674.79	1640.42
674.97	1691.62
675.16	1732.58
675.34	1765.35
675.53	1656.81
675.72	1767.40
675.90	1871.84
676.09	1669.09
676.28	1769.44
676.46	1677.29
676.65	1708.01
676.83	1671.14
677.02	1746.92
677.21	1742.82
677.39	1695.72
677.58	1681.38
677.77	1634.28
677.95	1726.44
678.14	1767.40
678.32	1697.77
678.51	1681.38
678.70	1834.98
678.88	1712.10
679.07	1771.49
679.25	1724.39
679.44	1751.01
679.63	1718.25
679.81	1636.33
680.00	1759.21
680.18	1816.55
680.37	1869.80
680.55	1748.97
680.74	1675.24
680.93	1660.90
681.11	1714.15
681.30	1783.78
681.48	1800.16
681.67	1740.77
681.85	1710.05
682.04	1654.76
682.23	1822.69
682.41	1746.92
682.60	1662.95
682.78	1759.21
682.97	1675.24
683.15	1773.54
683.34	1777.64
683.53	1814.50
683.71	1687.53
683.90	1902.56
684.08	1822.69
684.27	1734.63
684.45	1722.34
684.64	1812.45
684.82	1722.34
685.01	1796.07
685.19	1785.83
685.38	1816.55
685.57	1677.29
685.75	1726.44
685.94	1689.57
686.12	1687.53
686.31	1726.44
686.49	1863.65
686.68	1621.99
686.86	1740.77
687.05	1744.87
687.23	1847.27
687.42	1685.48
687.60	1615.85
687.79	1730.53
687.97	1894.37
688.16	1773.54
688.34	1779.68
688.53	1613.80
688.71	1744.87
688.90	1830.88
689.08	1681.38
689.27	1630.18
689.45	1787.88
689.64	1812.45
689.82	1767.40
690.01	1656.81
690.19	1740.77
690.38	1744.87
690.56	1759.21
690.75	1738.73
690.93	1724.39
691.12	1626.09
691.30	1693.67
691.49	1650.66
691.67	1765.35
691.86	1910.75
692.04	1689.57
692.23	1710.05
692.41	1763.30
692.60	1832.93
692.78	1804.26
692.97	1683.43
693.15	1718.25
693.34	1822.69
693.52	1755.11
693.71	1722.34
693.89	1724.39
694.08	1619.94
694.26	1730.53
694.44	1783.78
694.63	1740.77
694.81	1671.14
695.00	1613.80
695.18	1740.77
695.37	1794.02
695.55	1728.49
695.74	1665.00
695.92	1691.62
696.10	1730.53
696.29	1675.24
696.47	1650.66
696.66	1632.23
696.84	1660.90
697.03	1724.39
697.21	1841.12
697.40	2303.96
697.58	1693.67
697.76	1677.29
697.95	1720.29
698.13	1675.24
698.32	1687.53
698.50	1769.44
698.68	1767.40
698.87	1734.63
699.05	1851.36
699.24	1710.05
699.42	1689.57
699.61	1675.24
699.79	1771.49
699.97	1791.97
700.16	1665.00
700.34	1632.23
700.53	1673.19
700.71	1845.22
700.89	1800.16
701.08	1654.76
701.26	1718.25
701.45	2127.84
701.63	1695.72
701.81	1687.53
702.00	1648.61
702.18	1763.30
702.37	1636.33
702.55	1775.59
702.73	1740.77
702.92	1638.38
703.10	1830.88
703.28	1667.05
703.47	1699.81
703.65	1710.05
703.84	1814.50
704.02	1624.04
704.20	1777.64
704.39	1734.63
704.57	1708.01
704.75	1722.34
704.94	1724.39
705.12	1673.19
705.30	1822.69
705.49	2267.10
705.67	4319.17
705.86	9414.51
706.04	12488.51
706.22	14341.93
706.41	15226.65
706.59	13465.39
706.77	9666.41
706.96	7171.99
707.14	6442.91
707.32	5828.52
707.51	5586.86
707.69	5017.52
707.87	4104.13
708.06	3555.27
708.24	2983.89
708.42	2389.98
708.61	2277.34
708.79	1974.24
708.97	1894.37
709.16	1800.16
709.34	1779.68
709.52	1806.31
709.71	1748.97
709.89	1767.40
710.07	1724.39
710.26	1697.77
710.44	1751.01
710.62	1828.84
710.80	1765.35
710.99	1781.73
711.17	1808.36
711.35	1681.38
711.54	1728.49
711.72	1865.70
711.90	1740.77
712.09	1771.49
712.27	1607.66
712.45	1751.01
712.63	1650.66
712.82	1740.77
713.00	1695.72
713.18	1677.29
713.37	1757.16
713.55	1767.40
713.73	1759.21
713.91	1738.73
714.10	1681.38
714.28	1671.14
714.46	1755.11
714.65	1710.05
714.83	1757.16
715.01	1759.21
715.19	1767.40
715.38	1714.15
715.56	1742.82
715.74	1705.96
715.92	1642.47
716.11	1781.73
716.29	1673.19
716.47	1677.29
716.65	1701.86
716.84	1660.90
717.02	1779.68
717.20	1660.90
717.38	1724.39
717.57	1751.01
717.75	1732.58
717.93	1671.14
718.11	1683.43
718.30	1724.39
718.48	1769.44
718.66	1796.07
718.84	1751.01
719.03	1777.64
719.21	1691.62
719.39	1781.73
719.57	1730.53
719.75	1769.44
719.94	1710.05
720.12	1722.34
720.30	1697.77
720.48	1759.21
720.67	1712.10
720.85	1626.09
721.03	1613.80
721.21	1679.33
721.39	1794.02
721.58	1701.86
721.76	1714.15
721.94	1802.21
722.12	1630.18
722.30	1798.12
722.49	1728.49
722.67	1697.77
722.85	1748.97
723.03	1656.81
723.21	1712.10
723.40	1779.68
723.58	1710.05
723.76	1697.77
723.94	1742.82
724.12	1673.19
724.30	1818.60
724.49	1765.35
724.67	1716.20
724.85	1781.73
725.03	1617.90
725.21	1701.86
725.40	1716.20
725.58	1644.52
725.76	1771.49
725.94	1683.43
726.12	1652.71
726.30	1671.14
726.49	1722.34
726.67	1662.95
726.85	1742.82
727.03	1794.02
727.21	2258.91
727.39	2981.84
727.57	3831.75
727.76	4192.19
727.94	4470.72
728.12	4284.35
728.30	3637.19
728.48	3090.38
728.66	2770.90
728.84	2619.35
729.03	2303.96
729.21	2170.85
729.39	2007.01
729.57	1832.93
729.75	1785.83
729.93	1826.79
730.11	1738.73
730.30	1665.00
730.48	1697.77
730.66	1832.93
730.84	1837.03
731.02	1677.29
731.20	1679.33
731.38	1681.38
731.56	1578.98
731.74	1617.90
731.93	1775.59
732.11	1763.30
732.29	1662.95
732.47	1736.68
732.65	1753.06
732.83	1759.21
733.01	1720.29
733.19	1685.48
733.37	1681.38
733.56	1751.01
733.74	1744.87
733.92	1771.49
734.10	1736.68
734.28	1740.77
734.46	1615.85
734.64	1720.29
734.82	1724.39
735.00	1624.04
735.18	1677.29
735.36	1677.29
735.54	1708.01
735.73	1742.82
735.91	1740.77
736.09	1804.26
736.27	1761.25
736.45	1740.77
736.63	1624.04
736.81	1658.85
736.99	1841.12
737.17	1785.83
737.35	1642.47
737.53	1763.30
737.71	1730.53
737.89	1759.21
738.07	1634.28
738.25	1703.91
738.43	1628.14
738.61	1693.67
738.80	1632.23
738.98	1648.61
739.16	1656.81
739.34	1660.90
739.52	1710.05
739.70	1679.33
739.88	1810.40
740.06	1701.86
740.24	1585.13
740.42	1820.64
740.60	1642.47
740.78	1628.14
740.96	1652.71
741.14	1703.91
741.32	1660.90
741.50	1689.57
741.68	1853.41
741.86	1712.10
742.04	1718.25
742.22	1583.08
742.40	1775.59
742.58	1769.44
742.76	1708.01
742.94	1679.33
743.12	1574.89
743.30	1638.38
743.48	1728.49
743.66	1693.67
743.84	1730.53
744.02	1695.72
744.20	1714.15
744.38	1673.19
744.56	1615.85
744.74	1804.26
744.92	1777.64
745.10	1808.36
745.28	1779.68
745.46	1882.08
745.64	1628.14
745.82	1771.49
746.00	1746.92
746.18	1675.24
746.36	1732.58
746.54	1703.91
746.72	1671.14
746.90	1638.38
747.08	1724.39
747.26	1734.63
747.44	1751.01
747.62	1777.64
747.80	1728.49
747.98	1771.49
748.15	1644.52
748.33	1861.60
748.51	1771.49
748.69	1775.59
748.87	1671.14
749.05	1761.25
749.23	1806.31
749.41	1781.73
749.59	1767.40
749.77	1867.75
749.95	1683.43
750.13	1724.39
750.31	1757.16
750.49	1775.59
750.67	1767.40
750.85	1820.64
751.03	1794.02
751.20	1861.60
751.38	1738.73
751.56	1693.67
751.74	1660.90
751.92	1683.43
752.10	1624.04
752.28	1779.68
752.46	1673.19
752.64	1628.14
752.82	1734.63
753.00	1759.21
753.18	1644.52
753.35	1685.48
753.53	1675.24
753.71	1673.19
753.89	1771.49
754.07	1673.19
754.25	1724.39
754.43	1718.25
754.61	1669.09
754.79	1796.07
754.97	1714.15
755.14	1818.60
755.32	1636.33
755.50	1673.19
755.68	1691.62
755.86	1650.66
756.04	1738.73
756.22	1646.57
756.40	1763.30
756.57	1791.97
756.75	1697.77
756.93	1832.93
757.11	1798.12
757.29	1693.67
757.47	1617.90
757.65	1581.03
757.82	1525.74
758.00	1644.52
758.18	1742.82
758.36	1671.14
758.54	1738.73
758.72	1656.81
758.90	1761.25
759.07	1671.14
759.25	1632.23
759.43	1734.63
759.61	1640.42
759.79	2244.57
759.97	1759.21
760.15	1697.77
760.32	1705.96
760.50	1708.01
760.68	1828.84
760.86	1669.09
761.04	1759.21
761.22	1796.07
761.39	1738.73
761.57	1714.15
761.75	1613.80
761.93	1697.77
762.11	1722.34
762.28	1677.29
762.46	1693.67
762.64	1781.73
762.82	1621.99
763.00	1703.91
763.18	1781.73
763.35	1718.25
763.53	1826.79
763.71	1699.81
763.89	1708.01
764.07	1738.73
764.24	1712.10
764.42	1785.83
764.60	1783.78
764.78	1732.58
764.96	1767.40
765.13	1751.01
765.31	1701.86
765.49	1740.77
765.67	1644.52
765.84	1734.63
766.02	1679.33
766.20	1675.24
766.38	1722.34
766.56	1726.44
766.73	1791.97
766.91	1691.62
767.09	1748.97
767.27	1759.21
767.44	1679.33
767.62	1800.16
767.80	1675.24
767.98	1736.68
768.15	1681.38
768.33	1744.87
768.51	1746.92
768.69	1753.06
768.87	1728.49
769.04	1734.63
769.22	1794.02
769.40	1787.88
769.58	1841.12
769.75	1714.15
769.93	1738.73
770.11	1718.25
770.28	1644.52
770.46	1689.57
770.64	1775.59
770.82	1748.97
770.99	1701.86
771.17	1722.34
771.35	1748.97
771.53	1767.40
771.70	1679.33
771.88	1802.21
772.06	1673.19
772.23	1660.90
772.41	1673.19
772.59	1732.58
772.77	1638.38
772.94	1726.44
773.12	1751.01
773.30	1726.44
773.47	1679.33
773.65	1638.38
773.83	1857.51
774.01	1703.91
774.18	1693.67
774.36	1742.82
774.54	1630.18
774.71	1730.53
774.89	1634.28
775.07	1673.19
775.24	1656.81
775.42	1697.77
775.60	1794.02
775.78	1626.09
775.95	1685.48
776.13	1683.43
776.31	1556.46
776.48	1728.49
776.66	1779.68
776.84	1726.44
777.01	1714.15
777.19	1685.48
777.37	1677.29
777.54	1734.63
777.72	1810.40
777.90	1712.10
778.07	1699.81
778.25	1898.47
778.43	1814.50
778.60	1722.34
778.78	1722.34
778.96	1802.21
779.13	1689.57
779.31	1773.54
779.49	1689.57
779.66	1796.07
779.84	1763.30
780.01	1736.68
780.19	1675.24
780.37	1775.59
780.54	1818.60
780.72	1732.58
780.90	1720.29
781.07	1660.90
781.25	1689.57
781.43	1736.68
781.60	1677.29
781.78	1769.44
781.95	1779.68
782.13	1734.63
782.31	1697.77
782.48	1679.33
782.66	1728.49
782.83	1857.51
783.01	1787.88
783.19	1736.68
783.36	1726.44
783.54	1708.01
783.72	1820.64
783.89	1738.73
784.07	1710.05
784.24	1748.97
784.42	1730.53
784.60	1736.68
784.77	1726.44
784.95	1624.04
785.12	1718.25
785.30	1726.44
785.47	1667.05
785.65	1644.52
785.83	1691.62
786.00	1669.09
786.18	1714.15
786.35	1718.25
786.53	1609.70
786.71	1812.45
786.88	1732.58
787.06	1771.49
787.23	1689.57
787.41	1689.57
787.58	1710.05
787.76	1648.61
787.94	1691.62
788.11	1736.68
788.29	1705.96
788.46	1683.43
788.64	1669.09
788.81	1757.16
788.99	1693.67
789.16	1619.94
789.34	1685.48
789.52	1589.22
789.69	1595.37
789.87	1652.71
790.04	1705.96
790.22	1685.48
790.39	1773.54
790.57	1628.14
790.74	1677.29
790.92	1814.50
791.09	1628.14
791.27	1669.09
791.44	1675.24
791.62	1751.01
791.79	1740.77
791.97	1714.15
792.15	1837.03
792.32	1732.58
792.50	1763.30
792.67	1789.92
792.85	1796.07
793.02	1695.72
793.20	1644.52
793.37	1593.32
793.55	1679.33
793.72	1624.04
793.90	1822.69
794.07	1714.15
794.25	1660.90
794.42	1740.77
794.60	1738.73
794.77	1693.67
794.95	1710.05
795.12	1769.44
795.30	1712.10
795.47	1601.51
795.65	1800.16
795.82	1667.05
796.00	1708.01
796.17	1650.66
796.34	1748.97
796.52	1675.24
796.69	1765.35
796.87	1746.92
797.04	1703.91
797.22	1787.88
797.39	1699.81
797.57	1718.25
797.74	1781.73
797.92	1701.86
798.09	1740.77
798.27	1806.31
798.44	1705.96
798.62	1595.37
798.79	1724.39
798.96	1771.49
799.14	1654.76
799.31	1814.50
799.49	1681.38
799.66	1628.14
799.84	1701.86
800.01	1689.57
800.19	1820.64
800.36	1640.42
800.53	1695.72
800.71	1671.14
800.88	1771.49
801.06	1724.39
801.23	1599.46
801.41	1630.18
801.58	1744.87
801.75	1609.70
801.93	1746.92
802.10	1734.63
802.28	1718.25
802.45	1673.19
802.63	1732.58
802.80	1880.04
802.97	1621.99
803.15	1683.43
803.32	1648.61
803.50	1671.14
803.67	1652.71
803.84	1607.66
804.02	1744.87
804.19	1642.47
804.37	1636.33
804.54	1714.15
804.71	1736.68
804.89	1658.85
805.06	1691.62
805.24	1685.48
805.41	1685.48
805.58	1677.29
805.76	1828.84
805.93	1656.81
806.10	1875.94
806.28	1712.10
806.45	1755.11
806.63	1708.01
806.80	1701.86
806.97	1822.69
807.15	1722.34
807.32	1712.10
807.49	1724.39
807.67	1775.59
807.84	1765.35
808.01	1632.23
808.19	1886.18
808.36	1853.41
808.54	1673.19
808.71	1671.14
808.88	1697.77
809.06	1738.73
809.23	1779.68
809.40	1662.95
809.58	1746.92
809.75	1755.11
809.92	1746.92
810.10	1824.74
810.27	1697.77
810.44	1746.92
810.62	1722.34
810.79	1701.86
810.96	1665.00
811.14	1636.33
811.31	1759.21
811.48	1716.20
811.66	1722.34
811.83	1693.67
812.00	1708.01
812.18	1759.21
812.35	1853.41
812.52	1728.49
812.69	1703.91
812.87	1589.22
813.04	1665.00
813.21	1685.48
813.39	1705.96
813.56	1642.47
813.73	1738.73
813.91	1673.19
814.08	1675.24
814.25	1742.82
814.42	1609.70
814.60	1732.58
814.77	1740.77
814.94	1697.77
815.12	1740.77
815.29	1832.93
815.46	1644.52
815.63	1767.40
815.81	1724.39
815.98	1665.00
816.15	1703.91
816.33	1710.05
816.50	1710.05
816.67	1679.33
816.84	1718.25
817.02	1683.43
817.19	1722.34
817.36	1646.57
817.53	1800.16
817.71	1724.39
817.88	1740.77
818.05	1654.76
818.22	1658.85
818.40	1818.60
818.57	1751.01
818.74	1746.92
818.91	1753.06
819.09	1679.33
819.26	1806.31
819.43	1742.82
819.60	1689.57
819.78	1734.63
819.95	1794.02
820.12	1613.80
820.29	1853.41
820.47	1705.96
820.64	1699.81
820.81	1658.85
820.98	1708.01
821.15	1701.86
821.33	1751.01
821.50	1619.94
821.67	1771.49
821.84	1642.47
822.02	1687.53
822.19	1798.12
822.36	1708.01
822.53	1662.95
822.70	1693.67
822.88	1710.05
823.05	1806.31
823.22	1708.01
823.39	1736.68
823.56	1648.61
823.74	1794.02
823.91	1669.09
824.08	1779.68
824.25	1607.66
824.42	1781.73
824.60	1644.52
824.77	1675.24
824.94	1746.92
825.11	1769.44
825.28	1605.61
825.45	1722.34
825.63	1777.64
825.80	1632.23
825.97	1794.02
826.14	1724.39
826.31	1656.81
826.48	1712.10
826.66	1677.29
826.83	1669.09
827.00	1734.63
827.17	1640.42
827.34	1748.97
827.51	1679.33
827.69	1636.33
827.86	1710.05
828.03	1718.25
828.20	1658.85
828.37	1681.38
828.54	1791.97
828.71	1669.09
828.89	1814.50
829.06	1673.19
829.23	1771.49
829.40	1681.38
829.57	1609.70
829.74	1761.25
829.91	1691.62
830.09	1624.04
830.26	1691.62
830.43	1796.07
830.60	1656.81
830.77	1783.78
830.94	1697.77
831.11	1769.44
831.28	1652.71
831.46	1757.16
831.63	1689.57
831.80	1771.49
831.97	1665.00
832.14	1755.11
832.31	1746.92
832.48	1755.11
832.65	1693.67
832.82	1734.63
832.99	1806.31
833.17	1660.90
833.34	1794.02
833.51	1736.68
833.68	1628.14
833.85	1789.92
834.02	1683.43
834.19	1642.47
834.36	1689.57
834.53	1763.30
834.70	1791.97
834.87	1882.08
835.04	1636.33
835.22	1648.61
835.39	1693.67
835.56	1605.61
835.73	1658.85
835.90	1761.25
836.07	1732.58
836.24	1701.86
836.41	1607.66
836.58	1665.00
836.75	1779.68
836.92	1757.16
837.09	1675.24
837.26	1740.77
837.43	1755.11
837.60	1720.29
837.77	1705.96
837.94	1712.10
838.12	1861.60
838.29	1761.25
838.46	1626.09
838.63	1644.52
838.80	1724.39
838.97	1746.92
839.14	1718.25
839.31	1796.07
839.48	1783.78
839.65	1652.71
839.82	1783.78
839.99	1769.44
840.16	1761.25
840.33	1679.33
840.50	1658.85
840.67	1675.24
840.84	1603.56
841.01	1716.20
841.18	1742.82
841.35	1693.67
841.52	1738.73
841.69	1775.59
841.86	1740.77
842.03	1771.49
842.20	1798.12
842.37	1683.43
842.54	1740.77
842.71	1669.09
842.88	1574.89
843.05	1744.87
843.22	1650.66
843.39	1812.45
843.56	1648.61
843.73	1617.90
843.90	1755.11
844.07	1699.81
844.24	1710.05
844.41	1761.25
844.58	1683.43
844.75	1705.96
844.92	1832.93
845.09	1642.47
845.26	1671.14
845.43	1728.49
845.60	1720.29
845.77	1736.68
845.94	1740.77
846.10	1693.67
846.27	1656.81
846.44	1660.90
846.61	1591.27
846.78	1734.63
846.95	1767.40
847.12	1771.49
847.29	1656.81
847.46	1685.48
847.63	1765.35
847.80	1646.57
847.97	1677.29
848.14	1845.22
848.31	1710.05
848.48	1648.61
848.65	1712.10
848.82	1736.68
848.98	1812.45
849.15	1779.68
849.32	1755.11
849.49	1855.46
849.66	1767.40
849.83	1705.96
850.00	1597.42
850.17	1697.77
850.34	1726.44
850.51	1621.99
850.68	1724.39
850.85	1845.22
851.01	1753.06
851.18	1683.43
851.35	1720.29
851.52	1816.55
851.69	1798.12
851.86	1605.61
852.03	1658.85
852.20	1718.25
852.37	1689.57
852.53	1621.99
852.70	1722.34
852.87	1710.05
853.04	1779.68
853.21	1751.01
853.38	1765.35
853.55	1781.73
853.72	1796.07
853.89	1718.25
854.05	1691.62
854.22	1779.68
854.39	1667.05
854.56	1728.49
854.73	1771.49
854.90	1675.24
855.07	1757.16
855.23	1736.68
855.40	1679.33
855.57	1644.52
855.74	1630.18
855.91	1837.03
856.08	1726.44
856.25	1540.07
856.41	1726.44
856.58	1710.05
856.75	1812.45
856.92	1677.29
857.09	1724.39
857.26	1628.14
857.42	1662.95
857.59	1714.15
857.76	1699.81
857.93	1765.35
858.10	1697.77
858.27	1605.61
858.43	1734.63
858.60	1564.65
858.77	1583.08
858.94	1671.14
859.11	1757.16
859.27	1734.63
859.44	1720.29
859.61	1837.03
859.78	1705.96
859.95	1744.87
860.12	1632.23
860.28	1808.36
860.45	1794.02
860.62	1675.24
860.79	1734.63
860.95	1656.81
861.12	1660.90
861.29	1685.48
861.46	1695.72
861.63	1701.86
861.79	1705.96
861.96	1660.90
862.13	1646.57
862.30	1757.16
862.47	1724.39
862.63	1669.09
862.80	1753.06
862.97	1693.67
863.14	1755.11
863.30	1810.40
863.47	1646.57
863.64	1802.21
863.81	1693.67
863.97	1642.47
864.14	1705.96
864.31	1665.00
864.48	1722.34
864.65	1669.09
864.81	1783.78
864.98	1712.10
865.15	1720.29
865.32	1710.05
865.48	1763.30
865.65	1751.01
865.82	1718.25
865.98	1718.25
866.15	1806.31
866.32	1687.53
866.49	1759.21
866.65	1779.68
866.82	1693.67
866.99	1617.90
867.16	1675.24
867.32	1691.62
867.49	1675.24
867.66	1660.90
867.83	1593.32
867.99	1529.83
868.16	1619.94
868.33	1628.14
868.49	1734.63
868.66	1728.49
868.83	1789.92
868.99	1689.57
869.16	1757.16
869.33	1779.68
869.50	1812.45
869.66	1732.58
869.83	1765.35
870.00	1710.05
870.16	1705.96
870.33	1607.66
870.50	1822.69
870.66	1683.43
870.83	1785.83
871.00	1689.57
871.17	1767.40
871.33	1697.77
871.50	1759.21
871.67	1751.01
871.83	1605.61
872.00	1810.40
872.17	1681.38
872.33	1794.02
872.50	1779.68
872.67	1617.90
872.83	1642.47
873.00	1677.29
873.17	1718.25
873.33	1765.35
873.50	1751.01
873.67	1628.14
873.83	1648.61
874.00	1728.49
874.16	1730.53
874.33	1689.57
874.50	1667.05
874.66	1695.72
874.83	1759.21
875.00	1779.68
875.16	1697.77
875.33	1726.44
875.50	1531.88
875.66	1755.11
875.83	1724.39
875.99	1712.10
876.16	1705.96
876.33	1652.71
876.49	1609.70
876.66	1736.68
876.83	1691.62
876.99	1697.77
877.16	1681.38
877.32	1701.86
877.49	1683.43
877.66	1738.73
877.82	1757.16
877.99	1820.64
878.15	1763.30
878.32	1687.53
878.49	1757.16
878.65	1703.91
878.82	1779.68
878.98	1630.18
879.15	1763.30
879.32	1675.24
879.48	1783.78
879.65	1708.01
879.81	1722.34
879.98	1656.81
880.15	1683.43
880.31	1775.59
880.48	1697.77
880.64	1787.88
880.81	1724.39
880.97	1845.22
881.14	1675.24
881.31	1617.90
881.47	1841.12
881.64	1710.05
881.80	1642.47
881.97	1646.57
882.13	1837.03
882.30	1589.22
882.47	1718.25
882.63	1679.33
882.80	1642.47
882.96	1722.34
883.13	1781.73
883.29	1685.48
883.46	1781.73
883.62	1847.27
883.79	1685.48
883.95	1769.44
884.12	1697.77
884.29	1746.92
884.45	1757.16
884.62	1761.25
884.78	1677.29
884.95	1830.88
885.11	1705.96
885.28	1748.97
885.44	1654.76
885.61	1714.15
885.77	1781.73
885.94	1660.90
886.10	1701.86
886.27	1732.58
886.43	1757.16
886.60	1777.64
886.76	1665.00
886.93	1716.20
887.09	1714.15
887.26	1652.71
887.42	1796.07
887.59	1681.38
887.75	1783.78
887.92	1734.63
888.08	1710.05
888.25	1873.89
888.41	1826.79
888.58	1757.16
888.74	1667.05
888.91	1708.01
>>>>>End Processed Spectral Data<<<<<
