SpectraSuite Data File
++++++++++++++++++++++++++++++++++++
Date: Mon Jun 06 15:32:37 CEST 2016
User: root
Dark Spectrum Present: No
Reference Spectrum Present: No
Number of Sampled Component Spectra: 1
Spectrometers: USB4C02835
Integration Time (usec): 100000 (USB4C02835)
Spectra Averaged: 1 (USB4C02835)
Boxcar Smoothing: 0 (USB4C02835)
Correct for Electrical Dark: No (USB4C02835)
Strobe/Lamp Enabled: No (USB4C02835)
Correct for Detector Non-linearity: No (USB4C02835)
Correct for Stray Light: No (USB4C02835)
Number of Pixels in Processed Spectrum: 3648
>>>>>Begin Processed Spectral Data<<<<<
177.47	1415.15
177.69	1415.15
177.91	1415.15
178.13	1449.96
178.36	1423.34
178.58	1708.01
178.80	1787.88
179.02	1650.66
179.24	1705.96
179.46	1710.05
179.68	1736.68
179.90	1744.87
180.13	1720.29
180.35	1652.71
180.57	1673.19
180.79	1660.90
181.01	1734.63
181.23	1761.25
181.45	1748.97
181.67	1759.21
181.90	1787.88
182.12	1708.01
182.34	1615.85
182.56	1746.92
182.78	1710.05
183.00	1726.44
183.22	1779.68
183.44	1609.70
183.66	1841.12
183.89	1785.83
184.11	1763.30
184.33	1773.54
184.55	1787.88
184.77	1771.49
184.99	1744.87
185.21	1712.10
185.43	1869.80
185.65	1777.64
185.87	1751.01
186.10	1841.12
186.32	1861.60
186.54	1722.34
186.76	1714.15
186.98	1712.10
187.20	1681.38
187.42	1730.53
187.64	1724.39
187.86	1798.12
188.08	1746.92
188.30	1716.20
188.52	1691.62
188.75	1859.56
188.97	1877.99
189.19	1693.67
189.41	1734.63
189.63	1726.44
189.85	1687.53
190.07	1619.94
190.29	1640.42
190.51	1722.34
190.73	1691.62
190.95	1732.58
191.17	1751.01
191.39	1632.23
191.61	1730.53
191.84	1683.43
192.06	1685.48
192.28	1656.81
192.50	1869.80
192.72	1705.96
192.94	1693.67
193.16	1785.83
193.38	1785.83
193.60	1634.28
193.82	1724.39
194.04	1802.21
194.26	1726.44
194.48	1710.05
194.70	1640.42
194.92	1685.48
195.14	1771.49
195.36	1662.95
195.58	1781.73
195.80	1701.86
196.02	1634.28
196.24	1730.53
196.46	1697.77
196.69	1642.47
196.91	1822.69
197.13	1658.85
197.35	1665.00
197.57	1773.54
197.79	1689.57
198.01	1753.06
198.23	1734.63
198.45	1761.25
198.67	1662.95
198.89	1693.67
199.11	1621.99
199.33	1652.71
199.55	1615.85
199.77	1769.44
199.99	1746.92
200.21	1720.29
200.43	1691.62
200.65	1705.96
200.87	1560.55
201.09	1642.47
201.31	1732.58
201.53	1794.02
201.75	1718.25
201.97	1703.91
202.19	1699.81
202.41	1722.34
202.63	1929.19
202.85	1775.59
203.07	1763.30
203.29	1691.62
203.51	1638.38
203.73	1587.18
203.95	1828.84
204.17	1665.00
204.39	1755.11
204.61	1753.06
204.83	1722.34
205.05	1728.49
205.27	1777.64
205.49	1818.60
205.71	1710.05
205.93	1640.42
206.15	1650.66
206.37	1695.72
206.59	1685.48
206.81	1617.90
207.03	1656.81
207.25	1601.51
207.47	1804.26
207.69	1685.48
207.91	1822.69
208.13	1744.87
208.34	1685.48
208.56	1662.95
208.78	1755.11
209.00	1628.14
209.22	1763.30
209.44	1714.15
209.66	1693.67
209.88	1726.44
210.10	1677.29
210.32	1699.81
210.54	1767.40
210.76	1705.96
210.98	1677.29
211.20	1628.14
211.42	1734.63
211.64	1736.68
211.86	1777.64
212.08	1816.55
212.30	1697.77
212.52	1677.29
212.74	1761.25
212.96	1705.96
213.17	1773.54
213.39	1806.31
213.61	1773.54
213.83	1648.61
214.05	1671.14
214.27	1818.60
214.49	1640.42
214.71	1679.33
214.93	1828.84
215.15	1701.86
215.37	1773.54
215.59	1712.10
215.81	1714.15
216.03	1816.55
216.24	1669.09
216.46	1771.49
216.68	1732.58
216.90	1724.39
217.12	1787.88
217.34	1730.53
217.56	1728.49
217.78	1800.16
218.00	1753.06
218.22	1677.29
218.44	1841.12
218.66	1673.19
218.87	1738.73
219.09	1712.10
219.31	1730.53
219.53	1742.82
219.75	1761.25
219.97	1667.05
220.19	1691.62
220.41	1738.73
220.63	1757.16
220.85	1724.39
221.06	1751.01
221.28	1787.88
221.50	1740.77
221.72	1701.86
221.94	1660.90
222.16	1652.71
222.38	1773.54
222.60	1720.29
222.82	1724.39
223.03	1740.77
223.25	1654.76
223.47	1847.27
223.69	1871.84
223.91	1693.67
224.13	1693.67
224.35	1720.29
224.57	1808.36
224.78	1763.30
225.00	1615.85
225.22	1722.34
225.44	1654.76
225.66	1794.02
225.88	1652.71
226.10	1810.40
226.32	1765.35
226.53	1789.92
226.75	1677.29
226.97	1710.05
227.19	1701.86
227.41	1757.16
227.63	1728.49
227.85	1533.93
228.06	1773.54
228.28	1689.57
228.50	1730.53
228.72	1693.67
228.94	1679.33
229.16	1595.37
229.37	1652.71
229.59	1669.09
229.81	1816.55
230.03	1646.57
230.25	1617.90
230.47	1634.28
230.69	1665.00
230.90	1742.82
231.12	1691.62
231.34	1734.63
231.56	1759.21
231.78	1697.77
232.00	1708.01
232.21	1697.77
232.43	1691.62
232.65	1642.47
232.87	1755.11
233.09	1671.14
233.30	1757.16
233.52	1728.49
233.74	1677.29
233.96	1703.91
234.18	1722.34
234.40	1701.86
234.61	1816.55
234.83	1638.38
235.05	1689.57
235.27	1884.13
235.49	1763.30
235.70	1759.21
235.92	1771.49
236.14	1683.43
236.36	1832.93
236.58	1677.29
236.79	1767.40
237.01	1771.49
237.23	1681.38
237.45	1820.64
237.67	1685.48
237.88	1703.91
238.10	1800.16
238.32	1677.29
238.54	1714.15
238.76	1683.43
238.97	1714.15
239.19	1660.90
239.41	1738.73
239.63	1820.64
239.85	1787.88
240.06	1775.59
240.28	1652.71
240.50	1837.03
240.72	1763.30
240.93	1712.10
241.15	1718.25
241.37	1804.26
241.59	1732.58
241.81	1660.90
242.02	1652.71
242.24	1654.76
242.46	1718.25
242.68	1708.01
242.89	1740.77
243.11	1669.09
243.33	1640.42
243.55	1714.15
243.76	1839.08
243.98	1697.77
244.20	1736.68
244.42	1791.97
244.64	1693.67
244.85	1673.19
245.07	1718.25
245.29	1759.21
245.51	1685.48
245.72	1845.22
245.94	1822.69
246.16	1683.43
246.38	1771.49
246.59	1660.90
246.81	1646.57
247.03	1687.53
247.24	1656.81
247.46	1691.62
247.68	1796.07
247.90	1804.26
248.11	1693.67
248.33	1767.40
248.55	1687.53
248.77	1705.96
248.98	1753.06
249.20	1824.74
249.42	1757.16
249.64	1789.92
249.85	1621.99
250.07	1701.86
250.29	1834.98
250.50	1859.56
250.72	1644.52
250.94	1722.34
251.16	1834.98
251.37	1796.07
251.59	1730.53
251.81	1781.73
252.02	1798.12
252.24	1697.77
252.46	1796.07
252.68	1638.38
252.89	1689.57
253.11	1648.61
253.33	1798.12
253.54	1822.69
253.76	1662.95
253.98	1701.86
254.20	1730.53
254.41	1597.42
254.63	1714.15
254.85	1662.95
255.06	1718.25
255.28	1677.29
255.50	1710.05
255.71	1724.39
255.93	1673.19
256.15	1722.34
256.36	1658.85
256.58	1681.38
256.80	1806.31
257.02	1646.57
257.23	1724.39
257.45	1775.59
257.67	1738.73
257.88	1699.81
258.10	1712.10
258.32	1665.00
258.53	1697.77
258.75	1869.80
258.97	1619.94
259.18	1656.81
259.40	1665.00
259.62	1822.69
259.83	1791.97
260.05	1722.34
260.27	1990.63
260.48	1777.64
260.70	1648.61
260.92	1738.73
261.13	1730.53
261.35	1708.01
261.57	1746.92
261.78	1624.04
262.00	1601.51
262.22	1714.15
262.43	1693.67
262.65	1701.86
262.86	1716.20
263.08	1884.13
263.30	1712.10
263.51	1605.61
263.73	1648.61
263.95	1767.40
264.16	1583.08
264.38	1677.29
264.60	1775.59
264.81	1722.34
265.03	1816.55
265.25	1771.49
265.46	1671.14
265.68	1738.73
265.89	1796.07
266.11	1621.99
266.33	1804.26
266.54	1708.01
266.76	1779.68
266.98	1802.21
267.19	1714.15
267.41	1751.01
267.62	1767.40
267.84	1636.33
268.06	1781.73
268.27	1722.34
268.49	1820.64
268.70	1816.55
268.92	1669.09
269.14	1701.86
269.35	1638.38
269.57	1673.19
269.79	1765.35
270.00	1667.05
270.22	1816.55
270.43	1656.81
270.65	1648.61
270.87	1695.72
271.08	1810.40
271.30	1724.39
271.51	1734.63
271.73	1787.88
271.95	1765.35
272.16	1626.09
272.38	1738.73
272.59	1689.57
272.81	1771.49
273.02	1742.82
273.24	1710.05
273.46	1814.50
273.67	1705.96
273.89	1626.09
274.10	1640.42
274.32	1791.97
274.54	1796.07
274.75	1710.05
274.97	1757.16
275.18	1701.86
275.40	1763.30
275.61	1712.10
275.83	1685.48
276.05	1734.63
276.26	1718.25
276.48	1671.14
276.69	1638.38
276.91	1652.71
277.12	1818.60
277.34	1796.07
277.55	1775.59
277.77	1722.34
277.99	1679.33
278.20	1662.95
278.42	1675.24
278.63	1626.09
278.85	1705.96
279.06	1687.53
279.28	1791.97
279.49	1619.94
279.71	1708.01
279.93	1796.07
280.14	1630.18
280.36	1669.09
280.57	1757.16
280.79	1787.88
281.00	1611.75
281.22	1665.00
281.43	1767.40
281.65	1609.70
281.86	1673.19
282.08	1841.12
282.29	1804.26
282.51	1617.90
282.73	1695.72
282.94	1656.81
283.16	1759.21
283.37	1812.45
283.59	1748.97
283.80	1834.98
284.02	1712.10
284.23	1748.97
284.45	1685.48
284.66	1701.86
284.88	1708.01
285.09	1769.44
285.31	1791.97
285.52	1810.40
285.74	1591.27
285.95	1718.25
286.17	1763.30
286.38	1771.49
286.60	1599.46
286.81	1650.66
287.03	1716.20
287.24	1714.15
287.46	1773.54
287.67	1714.15
287.89	1841.12
288.10	1710.05
288.32	1787.88
288.53	1806.31
288.75	1701.86
288.96	1746.92
289.18	1685.48
289.39	1687.53
289.61	1732.58
289.82	1865.70
290.04	1757.16
290.25	1644.52
290.47	1675.24
290.68	1701.86
290.90	1804.26
291.11	1587.18
291.33	1738.73
291.54	1611.75
291.76	1730.53
291.97	1671.14
292.18	1751.01
292.40	1705.96
292.61	1656.81
292.83	1894.37
293.04	1775.59
293.26	1632.23
293.47	1738.73
293.69	1648.61
293.90	1689.57
294.12	1763.30
294.33	1742.82
294.55	1687.53
294.76	1769.44
294.97	1810.40
295.19	1877.99
295.40	1646.57
295.62	1730.53
295.83	1753.06
296.05	1638.38
296.26	1746.92
296.48	1660.90
296.69	1740.77
296.90	1697.77
297.12	1759.21
297.33	1746.92
297.55	1716.20
297.76	1742.82
297.98	1773.54
298.19	1667.05
298.41	1701.86
298.62	1699.81
298.83	1777.64
299.05	1716.20
299.26	1730.53
299.48	1746.92
299.69	1730.53
299.90	1705.96
300.12	1714.15
300.33	1736.68
300.55	1701.86
300.76	1730.53
300.98	1642.47
301.19	1759.21
301.40	1699.81
301.62	1619.94
301.83	1710.05
302.05	1703.91
302.26	1757.16
302.47	1716.20
302.69	1660.90
302.90	1732.58
303.12	1703.91
303.33	1763.30
303.54	1861.60
303.76	1726.44
303.97	1685.48
304.19	1845.22
304.40	1681.38
304.61	1736.68
304.83	1892.32
305.04	1804.26
305.26	1667.05
305.47	1689.57
305.68	1689.57
305.90	1628.14
306.11	1761.25
306.33	1722.34
306.54	1667.05
306.75	1794.02
306.97	1693.67
307.18	1697.77
307.39	1689.57
307.61	1763.30
307.82	1679.33
308.04	1783.78
308.25	1691.62
308.46	1701.86
308.68	1681.38
308.89	1742.82
309.10	1732.58
309.32	1722.34
309.53	1697.77
309.74	1656.81
309.96	1701.86
310.17	1789.92
310.39	1718.25
310.60	1714.15
310.81	1691.62
311.03	1621.99
311.24	1783.78
311.45	1716.20
311.67	1812.45
311.88	1685.48
312.09	1701.86
312.31	1640.42
312.52	1677.29
312.73	1638.38
312.95	1611.75
313.16	1705.96
313.37	1746.92
313.59	1732.58
313.80	1785.83
314.01	1798.12
314.23	1710.05
314.44	1658.85
314.65	1681.38
314.87	1611.75
315.08	1648.61
315.29	1650.66
315.51	1642.47
315.72	1601.51
315.93	1865.70
316.15	1722.34
316.36	1689.57
316.57	1681.38
316.79	1691.62
317.00	1695.72
317.21	1820.64
317.43	1644.52
317.64	1720.29
317.85	1634.28
318.07	1644.52
318.28	1808.36
318.49	1841.12
318.70	1927.14
318.92	1798.12
319.13	1904.61
319.34	1902.56
319.56	1818.60
319.77	1824.74
319.98	1773.54
320.20	1814.50
320.41	1757.16
320.62	1701.86
320.83	1650.66
321.05	1849.32
321.26	1761.25
321.47	1705.96
321.69	1787.88
321.90	1619.94
322.11	1632.23
322.32	1701.86
322.54	1796.07
322.75	1652.71
322.96	1849.32
323.18	1630.18
323.39	1574.89
323.60	1650.66
323.81	1775.59
324.03	1695.72
324.24	1722.34
324.45	1728.49
324.66	1673.19
324.88	1808.36
325.09	1800.16
325.30	1685.48
325.52	1708.01
325.73	1677.29
325.94	1617.90
326.15	1562.60
326.37	1718.25
326.58	1726.44
326.79	1738.73
327.00	1716.20
327.22	1724.39
327.43	1697.77
327.64	1626.09
327.85	1746.92
328.07	1783.78
328.28	1794.02
328.49	1722.34
328.70	1669.09
328.92	1703.91
329.13	1742.82
329.34	1769.44
329.55	1824.74
329.76	1759.21
329.98	1701.86
330.19	1796.07
330.40	1730.53
330.61	1705.96
330.83	1769.44
331.04	1720.29
331.25	1677.29
331.46	1603.56
331.68	1673.19
331.89	1738.73
332.10	1710.05
332.31	1621.99
332.52	1736.68
332.74	1812.45
332.95	1662.95
333.16	1744.87
333.37	1740.77
333.58	1677.29
333.80	1699.81
334.01	1611.75
334.22	1671.14
334.43	1673.19
334.64	1710.05
334.86	1644.52
335.07	1630.18
335.28	1812.45
335.49	1644.52
335.70	1765.35
335.92	1759.21
336.13	1775.59
336.34	1726.44
336.55	1773.54
336.76	1748.97
336.98	1681.38
337.19	1712.10
337.40	1738.73
337.61	1834.98
337.82	1734.63
338.04	1730.53
338.25	1644.52
338.46	1673.19
338.67	1724.39
338.88	1599.46
339.09	1679.33
339.31	1650.66
339.52	1576.94
339.73	1656.81
339.94	1734.63
340.15	1755.11
340.36	1619.94
340.58	1705.96
340.79	1718.25
341.00	1742.82
341.21	1677.29
341.42	1753.06
341.63	1710.05
341.85	1734.63
342.06	1777.64
342.27	1724.39
342.48	1812.45
342.69	1611.75
342.90	1730.53
343.12	1742.82
343.33	1769.44
343.54	1812.45
343.75	1783.78
343.96	1767.40
344.17	1640.42
344.38	1789.92
344.60	1619.94
344.81	1673.19
345.02	1783.78
345.23	1755.11
345.44	1740.77
345.65	1781.73
345.86	1789.92
346.07	1775.59
346.29	1748.97
346.50	1779.68
346.71	1779.68
346.92	1718.25
347.13	1886.18
347.34	1708.01
347.55	1708.01
347.76	1624.04
347.98	1615.85
348.19	1699.81
348.40	1806.31
348.61	1648.61
348.82	1843.17
349.03	1794.02
349.24	1628.14
349.45	1832.93
349.66	1531.88
349.88	1773.54
350.09	1746.92
350.30	1783.78
350.51	1837.03
350.72	1746.92
350.93	1746.92
351.14	1675.24
351.35	1744.87
351.56	1769.44
351.77	1669.09
351.99	1783.78
352.20	1740.77
352.41	1753.06
352.62	1595.37
352.83	1701.86
353.04	1685.48
353.25	1687.53
353.46	1796.07
353.67	1734.63
353.88	1611.75
354.09	1656.81
354.30	1773.54
354.52	1701.86
354.73	1742.82
354.94	1699.81
355.15	1734.63
355.36	1800.16
355.57	1746.92
355.78	1691.62
355.99	1654.76
356.20	1697.77
356.41	1804.26
356.62	1708.01
356.83	1794.02
357.04	1798.12
357.25	1578.98
357.46	1675.24
357.68	1640.42
357.89	1615.85
358.10	1787.88
358.31	1697.77
358.52	1726.44
358.73	1720.29
358.94	1699.81
359.15	1660.90
359.36	1781.73
359.57	1681.38
359.78	1687.53
359.99	1699.81
360.20	1640.42
360.41	1599.46
360.62	1785.83
360.83	1787.88
361.04	1673.19
361.25	1761.25
361.46	1759.21
361.67	1722.34
361.88	1746.92
362.09	1812.45
362.30	1742.82
362.51	1624.04
362.72	1769.44
362.93	1744.87
363.14	1781.73
363.35	1701.86
363.56	1583.08
363.78	1708.01
363.99	1785.83
364.20	1681.38
364.41	1761.25
364.62	1791.97
364.83	1798.12
365.04	1679.33
365.25	1699.81
365.46	1849.32
365.67	1665.00
365.88	1671.14
366.09	1669.09
366.30	1708.01
366.51	1761.25
366.72	1658.85
366.93	1681.38
367.14	1736.68
367.35	1808.36
367.56	1699.81
367.77	1765.35
367.98	1703.91
368.18	1710.05
368.39	1757.16
368.60	1689.57
368.81	1746.92
369.02	1658.85
369.23	1658.85
369.44	1669.09
369.65	1685.48
369.86	1759.21
370.07	1796.07
370.28	1656.81
370.49	1652.71
370.70	1748.97
370.91	1640.42
371.12	1665.00
371.33	1751.01
371.54	1734.63
371.75	1789.92
371.96	1585.13
372.17	1742.82
372.38	1718.25
372.59	1783.78
372.80	1693.67
373.01	1714.15
373.22	1732.58
373.43	1808.36
373.64	1624.04
373.85	1814.50
374.06	1787.88
374.26	1748.97
374.47	1767.40
374.68	1800.16
374.89	1787.88
375.10	1730.53
375.31	1740.77
375.52	1642.47
375.73	1685.48
375.94	1650.66
376.15	1794.02
376.36	1716.20
376.57	1693.67
376.78	1685.48
376.99	1722.34
377.20	1843.17
377.40	1742.82
377.61	1796.07
377.82	1685.48
378.03	1857.51
378.24	1742.82
378.45	1675.24
378.66	1781.73
378.87	1628.14
379.08	1671.14
379.29	1681.38
379.50	1828.84
379.71	1665.00
379.91	1753.06
380.12	1679.33
380.33	1783.78
380.54	1740.77
380.75	1691.62
380.96	1761.25
381.17	1791.97
381.38	1775.59
381.59	1759.21
381.80	1693.67
382.00	1783.78
382.21	1853.41
382.42	1830.88
382.63	1888.23
382.84	1736.68
383.05	1886.18
383.26	1808.36
383.47	1681.38
383.68	1755.11
383.88	1802.21
384.09	1726.44
384.30	1855.46
384.51	1732.58
384.72	1744.87
384.93	1693.67
385.14	1732.58
385.35	1775.59
385.55	1726.44
385.76	1726.44
385.97	1681.38
386.18	1714.15
386.39	1714.15
386.60	1693.67
386.81	1753.06
387.02	1689.57
387.22	1640.42
387.43	1765.35
387.64	1808.36
387.85	1855.46
388.06	2152.42
388.27	4265.92
388.48	6903.70
388.68	7980.93
388.89	9623.41
389.10	9809.77
389.31	8380.29
389.52	7675.79
389.73	6713.24
389.93	6143.91
390.14	5805.99
390.35	5115.83
390.56	4607.93
390.77	3796.93
390.98	3098.58
391.18	2594.78
391.39	2172.89
391.60	1798.12
391.81	1853.41
392.02	1673.19
392.23	1837.03
392.43	1761.25
392.64	1796.07
392.85	1779.68
393.06	1810.40
393.27	1689.57
393.47	1662.95
393.68	1724.39
393.89	1662.95
394.10	1767.40
394.31	1681.38
394.52	1693.67
394.72	1662.95
394.93	1873.89
395.14	1677.29
395.35	1714.15
395.56	1687.53
395.76	1773.54
395.97	1806.31
396.18	1806.31
396.39	1853.41
396.60	2002.91
396.80	1931.23
397.01	1894.37
397.22	1849.32
397.43	1796.07
397.64	1755.11
397.84	1736.68
398.05	1880.04
398.26	1804.26
398.47	1832.93
398.67	1857.51
398.88	1732.58
399.09	1716.20
399.30	1730.53
399.51	1708.01
399.71	1652.71
399.92	1685.48
400.13	1761.25
400.34	1671.14
400.54	1736.68
400.75	1767.40
400.96	1751.01
401.17	1765.35
401.37	1724.39
401.58	1681.38
401.79	1722.34
402.00	1945.57
402.21	1970.15
402.41	1964.00
402.62	1949.67
402.83	2002.91
403.04	2019.30
403.24	2009.06
403.45	1906.66
403.66	1939.43
403.87	1918.95
404.07	1886.18
404.28	1894.37
404.49	1918.95
404.70	1710.05
404.90	1779.68
405.11	1722.34
405.32	1744.87
405.52	1716.20
405.73	1660.90
405.94	1626.09
406.15	1767.40
406.35	1755.11
406.56	1742.82
406.77	1675.24
406.98	1773.54
407.18	1656.81
407.39	1685.48
407.60	1751.01
407.80	1740.77
408.01	1714.15
408.22	1775.59
408.43	1665.00
408.63	1734.63
408.84	1736.68
409.05	1753.06
409.25	1619.94
409.46	1644.52
409.67	1734.63
409.88	1779.68
410.08	1714.15
410.29	1724.39
410.50	1808.36
410.70	1746.92
410.91	1703.91
411.12	1787.88
411.32	1714.15
411.53	1603.56
411.74	1820.64
411.95	1757.16
412.15	1783.78
412.36	1849.32
412.57	1800.16
412.77	1796.07
412.98	1814.50
413.19	1703.91
413.39	1757.16
413.60	1791.97
413.81	1804.26
414.01	1658.85
414.22	1775.59
414.43	1716.20
414.63	1687.53
414.84	1814.50
415.05	1785.83
415.25	1630.18
415.46	1798.12
415.67	1748.97
415.87	1771.49
416.08	1695.72
416.29	1787.88
416.49	1693.67
416.70	1726.44
416.91	1681.38
417.11	1712.10
417.32	1730.53
417.53	1738.73
417.73	1740.77
417.94	1679.33
418.15	1746.92
418.35	1755.11
418.56	1746.92
418.77	1867.75
418.97	1757.16
419.18	1761.25
419.38	1607.66
419.59	1708.01
419.80	1777.64
420.00	1650.66
420.21	1748.97
420.42	1736.68
420.62	1703.91
420.83	1718.25
421.04	1755.11
421.24	1683.43
421.45	1714.15
421.65	1744.87
421.86	1712.10
422.07	1730.53
422.27	1662.95
422.48	1738.73
422.69	1697.77
422.89	1734.63
423.10	1705.96
423.30	1591.27
423.51	1734.63
423.72	1685.48
423.92	1720.29
424.13	1617.90
424.33	1796.07
424.54	1730.53
424.75	1755.11
424.95	1824.74
425.16	1755.11
425.36	1720.29
425.57	1839.08
425.78	1767.40
425.98	1722.34
426.19	1701.86
426.39	1695.72
426.60	1771.49
426.81	1802.21
427.01	1744.87
427.22	1656.81
427.42	1562.60
427.63	1609.70
427.83	1738.73
428.04	1812.45
428.25	1789.92
428.45	1781.73
428.66	1783.78
428.86	1671.14
429.07	1699.81
429.28	1671.14
429.48	1769.44
429.69	1679.33
429.89	1755.11
430.10	1613.80
430.30	1703.91
430.51	1742.82
430.71	1751.01
430.92	1712.10
431.13	1732.58
431.33	1685.48
431.54	1742.82
431.74	1802.21
431.95	1820.64
432.15	1583.08
432.36	1791.97
432.56	1775.59
432.77	1845.22
432.98	1820.64
433.18	1794.02
433.39	1728.49
433.59	1714.15
433.80	1775.59
434.00	1890.28
434.21	1714.15
434.41	1665.00
434.62	1839.08
434.82	1695.72
435.03	1601.51
435.23	1746.92
435.44	1681.38
435.64	1748.97
435.85	1722.34
436.06	1837.03
436.26	1769.44
436.47	1710.05
436.67	1673.19
436.88	1636.33
437.08	1748.97
437.29	1820.64
437.49	1699.81
437.70	1746.92
437.90	1716.20
438.11	1904.61
438.31	1818.60
438.52	1865.70
438.72	1906.66
438.93	1927.14
439.13	1787.88
439.34	1828.84
439.54	1734.63
439.75	1787.88
439.95	1798.12
440.16	1734.63
440.36	1759.21
440.57	1773.54
440.77	1689.57
440.98	1720.29
441.18	1718.25
441.39	1705.96
441.59	1724.39
441.80	1849.32
442.00	1693.67
442.21	1875.94
442.41	1714.15
442.62	1728.49
442.82	1714.15
443.02	1685.48
443.23	1689.57
443.43	1767.40
443.64	1785.83
443.84	1699.81
444.05	1763.30
444.25	1738.73
444.46	1701.86
444.66	1703.91
444.87	1861.60
445.07	1710.05
445.28	1689.57
445.48	1777.64
445.69	1757.16
445.89	1990.63
446.09	1744.87
446.30	1998.82
446.50	2621.40
446.71	3663.82
446.91	4118.47
447.12	4712.38
447.32	4812.73
447.53	4317.12
447.73	3841.99
447.93	3424.20
448.14	3330.00
448.34	3227.60
448.55	2901.97
448.75	2871.25
448.96	2715.61
449.16	2510.81
449.36	2265.05
449.57	2070.50
449.77	1837.03
449.98	1791.97
450.18	1806.31
450.39	1859.56
450.59	1814.50
450.79	1728.49
451.00	1763.30
451.20	1791.97
451.41	1738.73
451.61	1865.70
451.81	1763.30
452.02	1714.15
452.22	1769.44
452.43	1796.07
452.63	1763.30
452.84	1812.45
453.04	1705.96
453.24	1800.16
453.45	1621.99
453.65	1703.91
453.86	1658.85
454.06	1757.16
454.26	1777.64
454.47	1671.14
454.67	1789.92
454.87	1730.53
455.08	1787.88
455.28	1812.45
455.49	1798.12
455.69	1730.53
455.89	1839.08
456.10	1738.73
456.30	1687.53
456.51	1714.15
456.71	1771.49
456.91	1722.34
457.12	1720.29
457.32	1789.92
457.52	1658.85
457.73	1771.49
457.93	1748.97
458.14	1800.16
458.34	1720.29
458.54	1722.34
458.75	1730.53
458.95	1791.97
459.15	1779.68
459.36	1816.55
459.56	1796.07
459.76	1837.03
459.97	1806.31
460.17	1800.16
460.37	1791.97
460.58	1794.02
460.78	1763.30
460.99	1791.97
461.19	1732.58
461.39	1730.53
461.60	1740.77
461.80	1853.41
462.00	1705.96
462.21	1730.53
462.41	1624.04
462.61	1695.72
462.82	1652.71
463.02	1808.36
463.22	1736.68
463.43	1824.74
463.63	1648.61
463.83	1742.82
464.04	1738.73
464.24	1759.21
464.44	1691.62
464.64	1775.59
464.85	1738.73
465.05	1787.88
465.25	1681.38
465.46	1765.35
465.66	1779.68
465.86	1755.11
466.07	1726.44
466.27	1755.11
466.47	1705.96
466.68	1687.53
466.88	1886.18
467.08	1751.01
467.29	1847.27
467.49	1728.49
467.69	1683.43
467.89	1740.77
468.10	1630.18
468.30	1730.53
468.50	1744.87
468.71	1834.98
468.91	1628.14
469.11	1822.69
469.31	1714.15
469.52	1693.67
469.72	1855.46
469.92	1863.65
470.13	1779.68
470.33	1705.96
470.53	1820.64
470.73	2121.70
470.94	2256.86
471.14	2346.97
471.34	2533.34
471.54	2396.12
471.75	2220.00
471.95	2111.46
472.15	2078.69
472.36	2123.74
472.56	2140.13
472.76	2078.69
472.96	1968.10
473.17	1941.47
473.37	1826.79
473.57	1722.34
473.77	1796.07
473.98	1789.92
474.18	1648.61
474.38	1957.86
474.58	1761.25
474.79	1699.81
474.99	1781.73
475.19	1804.26
475.39	1685.48
475.60	1763.30
475.80	1744.87
476.00	1740.77
476.20	1718.25
476.41	1753.06
476.61	1859.56
476.81	1890.28
477.01	1619.94
477.21	1900.52
477.42	1746.92
477.62	1654.76
477.82	1746.92
478.02	1751.01
478.23	1738.73
478.43	1693.67
478.63	1765.35
478.83	1751.01
479.03	1757.16
479.24	1777.64
479.44	1832.93
479.64	1726.44
479.84	1624.04
480.04	1808.36
480.25	1751.01
480.45	1662.95
480.65	1757.16
480.85	1775.59
481.06	1757.16
481.26	1746.92
481.46	1712.10
481.66	1722.34
481.86	1595.37
482.06	1841.12
482.27	1648.61
482.47	1755.11
482.67	1789.92
482.87	1783.78
483.07	1726.44
483.28	1687.53
483.48	1787.88
483.68	1740.77
483.88	1679.33
484.08	1648.61
484.29	1679.33
484.49	1761.25
484.69	1587.18
484.89	1728.49
485.09	1818.60
485.29	1740.77
485.50	1775.59
485.70	1662.95
485.90	1882.08
486.10	1761.25
486.30	1730.53
486.50	1738.73
486.71	1738.73
486.91	1726.44
487.11	1802.21
487.31	1632.23
487.51	1732.58
487.71	1701.86
487.91	1626.09
488.12	1746.92
488.32	1578.98
488.52	1689.57
488.72	1624.04
488.92	1726.44
489.12	1849.32
489.32	1757.16
489.53	1765.35
489.73	1599.46
489.93	1789.92
490.13	1763.30
490.33	1619.94
490.53	1697.77
490.73	1802.21
490.94	1654.76
491.14	1771.49
491.34	1806.31
491.54	2107.36
491.74	2625.50
491.94	3028.95
492.14	2979.79
492.34	3041.23
492.54	2791.38
492.75	2508.76
492.95	2441.18
493.15	2308.06
493.35	2353.12
493.55	2183.13
493.75	2093.02
493.95	2095.07
494.15	2052.06
494.35	1918.95
494.56	1875.94
494.76	1804.26
494.96	1785.83
495.16	1888.23
495.36	1808.36
495.56	1730.53
495.76	1691.62
495.96	1755.11
496.16	1699.81
496.36	1863.65
496.56	1740.77
496.77	1757.16
496.97	1710.05
497.17	1863.65
497.37	1673.19
497.57	1714.15
497.77	1761.25
497.97	1662.95
498.17	1714.15
498.37	1796.07
498.57	1703.91
498.77	1730.53
498.97	1798.12
499.17	1824.74
499.38	1787.88
499.58	1771.49
499.78	1769.44
499.98	1863.65
500.18	1820.64
500.38	1656.81
500.58	1914.85
500.78	2570.20
500.98	4440.00
501.18	5838.76
501.38	6641.56
501.58	6936.47
501.78	6639.51
501.98	5488.56
502.18	4990.90
502.38	4464.57
502.58	4149.18
502.78	3803.08
502.98	3635.14
503.18	3401.68
503.38	3133.39
503.59	2799.57
503.79	2695.13
503.99	2492.38
504.19	2310.11
504.39	2269.15
504.59	2189.28
504.79	2160.61
504.99	2093.02
505.19	1904.61
505.39	1875.94
505.59	1920.99
505.79	1845.22
505.99	1875.94
506.19	1841.12
506.39	1841.12
506.59	1804.26
506.79	1748.97
506.99	1753.06
507.19	1818.60
507.39	1794.02
507.59	1685.48
507.79	1669.09
507.99	1679.33
508.19	1826.79
508.39	1712.10
508.59	1736.68
508.79	1806.31
508.99	1841.12
509.19	1738.73
509.39	1796.07
509.59	1689.57
509.79	1701.86
509.99	1775.59
510.19	1828.84
510.39	1785.83
510.59	1679.33
510.79	1689.57
510.99	1693.67
511.19	1722.34
511.39	1824.74
511.59	1751.01
511.79	1791.97
511.99	1748.97
512.19	1853.41
512.38	1871.84
512.58	1697.77
512.78	1775.59
512.98	1777.64
513.18	1935.33
513.38	1667.05
513.58	1849.32
513.78	1705.96
513.98	1777.64
514.18	1783.78
514.38	1714.15
514.58	1714.15
514.78	1732.58
514.98	1738.73
515.18	1714.15
515.38	1652.71
515.58	1804.26
515.78	1718.25
515.98	1740.77
516.18	1748.97
516.38	1691.62
516.57	1767.40
516.77	1722.34
516.97	1775.59
517.17	1724.39
517.37	1658.85
517.57	1751.01
517.77	1763.30
517.97	1740.77
518.17	1742.82
518.37	1753.06
518.57	1742.82
518.77	1757.16
518.97	1740.77
519.16	1822.69
519.36	1824.74
519.56	1726.44
519.76	1732.58
519.96	1587.18
520.16	1828.84
520.36	1693.67
520.56	1847.27
520.76	1705.96
520.96	1785.83
521.16	1785.83
521.35	1845.22
521.55	1886.18
521.75	1732.58
521.95	1726.44
522.15	1771.49
522.35	1691.62
522.55	1767.40
522.75	1781.73
522.95	1677.29
523.14	1714.15
523.34	1789.92
523.54	1648.61
523.74	1828.84
523.94	1728.49
524.14	1677.29
524.34	1785.83
524.54	1855.46
524.73	1771.49
524.93	1746.92
525.13	1738.73
525.33	1710.05
525.53	1947.62
525.73	1751.01
525.93	1771.49
526.13	1705.96
526.32	1841.12
526.52	1667.05
526.72	1730.53
526.92	1712.10
527.12	1712.10
527.32	1675.24
527.52	1787.88
527.71	1800.16
527.91	1798.12
528.11	1689.57
528.31	1671.14
528.51	1648.61
528.71	1714.15
528.90	1789.92
529.10	1820.64
529.30	1712.10
529.50	1675.24
529.70	1679.33
529.90	1734.63
530.09	1699.81
530.29	1624.04
530.49	1677.29
530.69	1880.04
530.89	1726.44
531.09	1718.25
531.28	1787.88
531.48	1826.79
531.68	1845.22
531.88	1740.77
532.08	1783.78
532.28	1689.57
532.47	1740.77
532.67	1771.49
532.87	1728.49
533.07	1681.38
533.27	1714.15
533.46	1751.01
533.66	1722.34
533.86	1705.96
534.06	1695.72
534.26	1740.77
534.45	1691.62
534.65	1839.08
534.85	1800.16
535.05	1718.25
535.25	1806.31
535.44	1658.85
535.64	1708.01
535.84	1746.92
536.04	1751.01
536.24	1673.19
536.43	1689.57
536.63	1863.65
536.83	1843.17
537.03	1787.88
537.22	1658.85
537.42	1673.19
537.62	1789.92
537.82	1695.72
538.02	1746.92
538.21	1832.93
538.41	1875.94
538.61	1755.11
538.81	1763.30
539.00	1830.88
539.20	1716.20
539.40	1777.64
539.60	1775.59
539.79	1738.73
539.99	1662.95
540.19	1628.14
540.39	1779.68
540.58	1714.15
540.78	1757.16
540.98	1701.86
541.18	1800.16
541.37	1748.97
541.57	1734.63
541.77	1722.34
541.97	1716.20
542.16	1640.42
542.36	1738.73
542.56	1687.53
542.76	1912.80
542.95	1738.73
543.15	1738.73
543.35	1841.12
543.54	1697.77
543.74	1716.20
543.94	1900.52
544.14	1732.58
544.33	1820.64
544.53	1773.54
544.73	1755.11
544.93	1767.40
545.12	1755.11
545.32	1732.58
545.52	1714.15
545.71	1791.97
545.91	1705.96
546.11	1738.73
546.30	1693.67
546.50	1761.25
546.70	1794.02
546.90	1669.09
547.09	1632.23
547.29	1718.25
547.49	1824.74
547.68	1763.30
547.88	1767.40
548.08	1802.21
548.27	2181.09
548.47	1697.77
548.67	1720.29
548.87	1759.21
549.06	1697.77
549.26	1785.83
549.46	1855.46
549.65	1722.34
549.85	1730.53
550.05	1787.88
550.24	1791.97
550.44	1796.07
550.64	1718.25
550.83	1826.79
551.03	1783.78
551.23	1789.92
551.42	1714.15
551.62	1724.39
551.82	1746.92
552.01	1753.06
552.21	1863.65
552.41	1851.36
552.60	1861.60
552.80	1730.53
553.00	1701.86
553.19	1722.34
553.39	1849.32
553.59	1675.24
553.78	1736.68
553.98	1722.34
554.17	1689.57
554.37	1708.01
554.57	1742.82
554.76	1720.29
554.96	1701.86
555.16	1843.17
555.35	1748.97
555.55	1769.44
555.75	1781.73
555.94	1794.02
556.14	1703.91
556.33	1810.40
556.53	1701.86
556.73	1763.30
556.92	1775.59
557.12	1841.12
557.32	1855.46
557.51	1796.07
557.71	1832.93
557.90	1834.98
558.10	1828.84
558.30	1787.88
558.49	1763.30
558.69	1669.09
558.88	1705.96
559.08	1763.30
559.28	1763.30
559.47	1734.63
559.67	1724.39
559.86	1834.98
560.06	1791.97
560.26	1773.54
560.45	1757.16
560.65	1691.62
560.84	1732.58
561.04	1689.57
561.24	1806.31
561.43	1624.04
561.63	1841.12
561.82	1736.68
562.02	1855.46
562.22	1732.58
562.41	1761.25
562.61	1763.30
562.80	1728.49
563.00	1882.08
563.19	1783.78
563.39	1832.93
563.59	1761.25
563.78	1687.53
563.98	1650.66
564.17	1722.34
564.37	1712.10
564.56	1746.92
564.76	1634.28
564.96	1851.36
565.15	1761.25
565.35	1853.41
565.54	1677.29
565.74	1757.16
565.93	1761.25
566.13	1828.84
566.32	1822.69
566.52	1828.84
566.71	1697.77
566.91	1783.78
567.11	1718.25
567.30	1722.34
567.50	1820.64
567.69	1740.77
567.89	1789.92
568.08	1732.58
568.28	1761.25
568.47	1665.00
568.67	1703.91
568.86	1759.21
569.06	1808.36
569.25	1705.96
569.45	1728.49
569.64	1644.52
569.84	1736.68
570.04	1771.49
570.23	1742.82
570.43	1689.57
570.62	1775.59
570.82	1898.47
571.01	1677.29
571.21	1722.34
571.40	1675.24
571.60	1808.36
571.79	1779.68
571.99	1763.30
572.18	1693.67
572.38	1738.73
572.57	1656.81
572.77	1800.16
572.96	1984.48
573.16	1703.91
573.35	1765.35
573.55	1877.99
573.74	1886.18
573.94	1681.38
574.13	1798.12
574.33	1738.73
574.52	1798.12
574.71	1716.20
574.91	1796.07
575.10	1777.64
575.30	1710.05
575.49	1654.76
575.69	1812.45
575.88	1732.58
576.08	1802.21
576.27	1699.81
576.47	1781.73
576.66	1830.88
576.86	1812.45
577.05	1769.44
577.25	1791.97
577.44	1845.22
577.64	1777.64
577.83	1853.41
578.02	1746.92
578.22	1742.82
578.41	1882.08
578.61	1779.68
578.80	1701.86
579.00	1828.84
579.19	1734.63
579.39	1765.35
579.58	1804.26
579.77	1861.60
579.97	1855.46
580.16	1820.64
580.36	1759.21
580.55	1828.84
580.75	1796.07
580.94	1724.39
581.13	1902.56
581.33	1867.75
581.52	1746.92
581.72	1871.84
581.91	1839.08
582.11	1773.54
582.30	1794.02
582.49	1767.40
582.69	1824.74
582.88	1738.73
583.08	1767.40
583.27	1810.40
583.47	1740.77
583.66	1681.38
583.85	1705.96
584.05	1820.64
584.24	1791.97
584.44	1861.60
584.63	1861.60
584.82	1785.83
585.02	1834.98
585.21	1820.64
585.41	1781.73
585.60	1822.69
585.79	1947.62
585.99	1943.52
586.18	1873.89
586.37	2174.94
586.57	3401.68
586.76	9946.98
586.96	24766.09
587.15	34074.10
587.34	40082.84
587.54	41923.97
587.73	36048.35
587.93	25890.42
588.12	21167.80
588.31	18102.00
588.51	16402.18
588.70	15159.06
588.89	13954.86
589.09	12566.34
589.28	10878.81
589.47	9238.39
589.67	7931.78
589.86	6375.33
590.06	4868.02
590.25	3958.72
590.44	3030.99
590.64	2611.16
590.83	2322.40
591.02	2090.98
591.22	1953.76
591.41	1898.47
591.60	1832.93
591.80	1978.34
591.99	1861.60
592.18	1781.73
592.38	1830.88
592.57	1814.50
592.76	1779.68
592.96	1814.50
593.15	1785.83
593.34	1857.51
593.54	1785.83
593.73	1777.64
593.92	1892.32
594.12	1761.25
594.31	1742.82
594.50	1882.08
594.70	1789.92
594.89	1839.08
595.08	1718.25
595.28	1861.60
595.47	1939.43
595.66	1787.88
595.86	1667.05
596.05	1724.39
596.24	1646.57
596.43	1886.18
596.63	1757.16
596.82	1753.06
597.01	1759.21
597.21	1855.46
597.40	1775.59
597.59	1693.67
597.79	1765.35
597.98	1734.63
598.17	1804.26
598.36	1734.63
598.56	1751.01
598.75	1789.92
598.94	1746.92
599.14	1789.92
599.33	1746.92
599.52	1783.78
599.71	1800.16
599.91	1761.25
600.10	1779.68
600.29	1759.21
600.48	1781.73
600.68	1734.63
600.87	1777.64
601.06	1708.01
601.26	1773.54
601.45	1816.55
601.64	1775.59
601.83	1769.44
602.03	1691.62
602.22	1718.25
602.41	1847.27
602.60	1863.65
602.80	1841.12
602.99	1837.03
603.18	1708.01
603.37	1751.01
603.57	1714.15
603.76	1787.88
603.95	1843.17
604.14	1703.91
604.34	1761.25
604.53	1722.34
604.72	1732.58
604.91	1816.55
605.10	1798.12
605.30	1738.73
605.49	1853.41
605.68	1779.68
605.87	1834.98
606.07	1732.58
606.26	1720.29
606.45	1765.35
606.64	1738.73
606.84	1777.64
607.03	1726.44
607.22	1695.72
607.41	1632.23
607.60	1681.38
607.80	1843.17
607.99	1806.31
608.18	1787.88
608.37	1710.05
608.56	1722.34
608.76	1781.73
608.95	1775.59
609.14	1619.94
609.33	1787.88
609.52	1730.53
609.72	1679.33
609.91	1777.64
610.10	1734.63
610.29	1867.75
610.48	1775.59
610.68	1779.68
610.87	1746.92
611.06	1798.12
611.25	1683.43
611.44	1765.35
611.63	1757.16
611.83	1832.93
612.02	1665.00
612.21	1877.99
612.40	1697.77
612.59	1630.18
612.79	1695.72
612.98	1753.06
613.17	1869.80
613.36	1736.68
613.55	1787.88
613.74	1730.53
613.93	1693.67
614.13	1740.77
614.32	1757.16
614.51	1705.96
614.70	1652.71
614.89	1718.25
615.08	1714.15
615.28	2082.78
615.47	1662.95
615.66	1738.73
615.85	1693.67
616.04	1828.84
616.23	1755.11
616.42	1767.40
616.62	1794.02
616.81	1675.24
617.00	1789.92
617.19	1779.68
617.38	1779.68
617.57	1693.67
617.76	1783.78
617.95	1781.73
618.15	1818.60
618.34	1875.94
618.53	1640.42
618.72	1798.12
618.91	1804.26
619.10	1794.02
619.29	1691.62
619.48	1796.07
619.68	1693.67
619.87	1759.21
620.06	1699.81
620.25	1779.68
620.44	1695.72
620.63	1685.48
620.82	1734.63
621.01	1669.09
621.20	1742.82
621.39	1748.97
621.59	1724.39
621.78	1757.16
621.97	1791.97
622.16	1796.07
622.35	1712.10
622.54	1763.30
622.73	1759.21
622.92	1679.33
623.11	1783.78
623.30	1746.92
623.49	1763.30
623.68	1697.77
623.88	1777.64
624.07	1699.81
624.26	1730.53
624.45	1691.62
624.64	1763.30
624.83	1716.20
625.02	1779.68
625.21	1800.16
625.40	1785.83
625.59	1822.69
625.78	1726.44
625.97	1751.01
626.16	1744.87
626.35	1742.82
626.54	1732.58
626.74	1806.31
626.93	1755.11
627.12	1697.77
627.31	1738.73
627.50	1791.97
627.69	1787.88
627.88	1789.92
628.07	1660.90
628.26	1697.77
628.45	1644.52
628.64	1628.14
628.83	1695.72
629.02	1705.96
629.21	1767.40
629.40	1675.24
629.59	1718.25
629.78	1751.01
629.97	1742.82
630.16	1697.77
630.35	1665.00
630.54	1742.82
630.73	1718.25
630.92	1708.01
631.11	1740.77
631.30	1669.09
631.49	1705.96
631.68	1697.77
631.87	1691.62
632.06	1654.76
632.25	1843.17
632.44	1753.06
632.63	1767.40
632.82	1710.05
633.01	1677.29
633.20	1693.67
633.39	1705.96
633.58	1652.71
633.77	1716.20
633.96	1822.69
634.15	1779.68
634.34	1765.35
634.53	1812.45
634.72	1665.00
634.91	1576.94
635.10	1744.87
635.29	1771.49
635.48	1703.91
635.67	1619.94
635.86	1705.96
636.05	1853.41
636.24	1740.77
636.43	1757.16
636.62	1765.35
636.81	1609.70
637.00	1800.16
637.19	1798.12
637.38	1755.11
637.57	1640.42
637.76	1769.44
637.95	1683.43
638.14	1710.05
638.33	1687.53
638.52	1746.92
638.71	1636.33
638.89	1660.90
639.08	1847.27
639.27	1675.24
639.46	1810.40
639.65	1853.41
639.84	1748.97
640.03	1834.98
640.22	1734.63
640.41	1781.73
640.60	1673.19
640.79	1705.96
640.98	1714.15
641.17	1800.16
641.36	1783.78
641.55	1802.21
641.74	1671.14
641.92	1701.86
642.11	1771.49
642.30	1730.53
642.49	1691.62
642.68	1705.96
642.87	1724.39
643.06	1689.57
643.25	1716.20
643.44	1662.95
643.63	1652.71
643.82	1724.39
644.00	1693.67
644.19	1734.63
644.38	1693.67
644.57	1789.92
644.76	1781.73
644.95	1798.12
645.14	1759.21
645.33	1648.61
645.52	1757.16
645.71	1624.04
645.89	1753.06
646.08	1751.01
646.27	1720.29
646.46	1826.79
646.65	1716.20
646.84	1748.97
647.03	1677.29
647.22	1787.88
647.40	1734.63
647.59	1656.81
647.78	1652.71
647.97	1751.01
648.16	1671.14
648.35	1863.65
648.54	1796.07
648.73	1769.44
648.91	1748.97
649.10	1728.49
649.29	1654.76
649.48	1763.30
649.67	1693.67
649.86	1722.34
650.05	1679.33
650.23	1703.91
650.42	1685.48
650.61	1775.59
650.80	1718.25
650.99	1882.08
651.18	1839.08
651.36	1791.97
651.55	1675.24
651.74	1757.16
651.93	1677.29
652.12	1724.39
652.31	1730.53
652.49	1677.29
652.68	1662.95
652.87	1851.36
653.06	1765.35
653.25	1773.54
653.44	1765.35
653.62	1761.25
653.81	1675.24
654.00	1673.19
654.19	1791.97
654.38	1886.18
654.56	1720.29
654.75	1693.67
654.94	1794.02
655.13	1730.53
655.32	1703.91
655.51	1773.54
655.69	1734.63
655.88	1810.40
656.07	1718.25
656.26	1886.18
656.45	1740.77
656.63	1697.77
656.82	1761.25
657.01	1732.58
657.20	1660.90
657.38	1841.12
657.57	1732.58
657.76	1691.62
657.95	1767.40
658.14	1705.96
658.32	1738.73
658.51	1669.09
658.70	1638.38
658.89	1746.92
659.08	1679.33
659.26	1880.04
659.45	1734.63
659.64	1710.05
659.83	1712.10
660.01	1877.99
660.20	1712.10
660.39	1789.92
660.58	1671.14
660.76	1818.60
660.95	1640.42
661.14	1691.62
661.33	1615.85
661.51	1646.57
661.70	1705.96
661.89	1710.05
662.08	1718.25
662.26	1630.18
662.45	1697.77
662.64	1849.32
662.83	1763.30
663.01	1681.38
663.20	1693.67
663.39	1726.44
663.58	1724.39
663.76	1691.62
663.95	1720.29
664.14	1730.53
664.32	1681.38
664.51	1640.42
664.70	1650.66
664.89	1705.96
665.07	1628.14
665.26	1787.88
665.45	1646.57
665.64	1759.21
665.82	1789.92
666.01	1708.01
666.20	1720.29
666.38	1814.50
666.57	1726.44
666.76	2164.70
666.95	4607.93
667.13	10479.46
667.32	15003.42
667.51	17872.62
667.69	19019.49
667.88	17497.84
668.07	12121.93
668.25	9422.70
668.44	7948.17
668.63	7194.51
668.81	6844.31
669.00	6334.37
669.19	5695.40
669.38	5042.10
669.56	4411.32
669.75	3868.61
669.94	3354.57
670.12	2967.51
670.31	2521.05
670.50	2277.34
670.68	2017.25
670.87	1906.66
671.06	1841.12
671.24	1746.92
671.43	1820.64
671.62	1785.83
671.80	1697.77
671.99	1779.68
672.18	1791.97
672.36	1712.10
672.55	1708.01
672.74	1683.43
672.92	1726.44
673.11	1779.68
673.29	1650.66
673.48	1843.17
673.67	1681.38
673.85	1789.92
674.04	1730.53
674.23	1789.92
674.41	1808.36
674.60	1636.33
674.79	1646.57
674.97	1703.91
675.16	1794.02
675.34	1734.63
675.53	1728.49
675.72	1824.74
675.90	1847.27
676.09	1730.53
676.28	1810.40
676.46	1689.57
676.65	1742.82
676.83	1667.05
677.02	1732.58
677.21	1742.82
677.39	1810.40
677.58	1708.01
677.77	1746.92
677.95	1701.86
678.14	1712.10
678.32	1658.85
678.51	1681.38
678.70	1892.32
678.88	1712.10
679.07	1732.58
679.25	1837.03
679.44	1689.57
679.63	1607.66
679.81	1681.38
680.00	1742.82
680.18	1697.77
680.37	1763.30
680.55	1708.01
680.74	1593.32
680.93	1621.99
681.11	1744.87
681.30	1697.77
681.48	1710.05
681.67	1726.44
681.85	1732.58
682.04	1673.19
682.23	1798.12
682.41	1718.25
682.60	1681.38
682.78	1714.15
682.97	1632.23
683.15	1789.92
683.34	1734.63
683.53	1851.36
683.71	1665.00
683.90	1800.16
684.08	1853.41
684.27	1710.05
684.45	1751.01
684.64	1837.03
684.82	1712.10
685.01	1767.40
685.19	1718.25
685.38	1849.32
685.57	1753.06
685.75	1654.76
685.94	1685.48
686.12	1677.29
686.31	1705.96
686.49	1822.69
686.68	1578.98
686.86	1730.53
687.05	1726.44
687.23	1787.88
687.42	1695.72
687.60	1626.09
687.79	1773.54
687.97	1771.49
688.16	1789.92
688.34	1822.69
688.53	1673.19
688.71	1834.98
688.90	1867.75
689.08	1767.40
689.27	1601.51
689.45	1779.68
689.64	1720.29
689.82	1720.29
690.01	1816.55
690.19	1761.25
690.38	1759.21
690.56	1761.25
690.75	1693.67
690.93	1687.53
691.12	1607.66
691.30	1697.77
691.49	1640.42
691.67	1697.77
691.86	1783.78
692.04	1722.34
692.23	1703.91
692.41	1757.16
692.60	1877.99
692.78	1804.26
692.97	1767.40
693.15	1755.11
693.34	1787.88
693.52	1798.12
693.71	1630.18
693.89	1691.62
694.08	1617.90
694.26	1714.15
694.44	1779.68
694.63	1691.62
694.81	1658.85
695.00	1640.42
695.18	1798.12
695.37	1828.84
695.55	1746.92
695.74	1695.72
695.92	1640.42
696.10	1710.05
696.29	1621.99
696.47	1642.47
696.66	1665.00
696.84	1677.29
697.03	1726.44
697.21	1796.07
697.40	2295.77
697.58	1814.50
697.76	1685.48
697.95	1675.24
698.13	1648.61
698.32	1683.43
698.50	1722.34
698.68	1783.78
698.87	1753.06
699.05	1808.36
699.24	1697.77
699.42	1658.85
699.61	1681.38
699.79	1714.15
699.97	1794.02
700.16	1611.75
700.34	1619.94
700.53	1673.19
700.71	1806.31
700.89	1742.82
701.08	1634.28
701.26	1714.15
701.45	2187.23
701.63	1677.29
701.81	1650.66
702.00	1681.38
702.18	1710.05
702.37	1695.72
702.55	1773.54
702.73	1763.30
702.92	1699.81
703.10	1744.87
703.28	1662.95
703.47	1667.05
703.65	1705.96
703.84	1863.65
704.02	1697.77
704.20	1822.69
704.39	1607.66
704.57	1693.67
704.75	1759.21
704.94	1855.46
705.12	1722.34
705.30	1859.56
705.49	2263.01
705.67	4415.42
705.86	9420.66
706.04	12453.70
706.22	14450.47
706.41	15304.47
706.59	13575.98
706.77	9578.35
706.96	7360.40
707.14	6586.27
707.32	5932.97
707.51	5435.31
707.69	4851.64
707.87	4241.34
708.06	3606.47
708.24	2953.17
708.42	2457.56
708.61	2207.71
708.79	1941.47
708.97	1869.80
709.16	1808.36
709.34	1789.92
709.52	1744.87
709.71	1755.11
709.89	1757.16
710.07	1687.53
710.26	1665.00
710.44	1724.39
710.62	1671.14
710.80	1687.53
710.99	1755.11
711.17	1746.92
711.35	1603.56
711.54	1722.34
711.72	1781.73
711.90	1740.77
712.09	1634.28
712.27	1621.99
712.45	1691.62
712.63	1738.73
712.82	1660.90
713.00	1705.96
713.18	1779.68
713.37	1783.78
713.55	1718.25
713.73	1753.06
713.91	1724.39
714.10	1636.33
714.28	1648.61
714.46	1751.01
714.65	1775.59
714.83	1712.10
715.01	1763.30
715.19	1705.96
715.38	1677.29
715.56	1763.30
715.74	1638.38
715.92	1691.62
716.11	1779.68
716.29	1644.52
716.47	1732.58
716.65	1730.53
716.84	1638.38
717.02	1806.31
717.20	1710.05
717.38	1691.62
717.57	1742.82
717.75	1726.44
717.93	1656.81
718.11	1789.92
718.30	1669.09
718.48	1699.81
718.66	1820.64
718.84	1763.30
719.03	1718.25
719.21	1628.14
719.39	1873.89
719.57	1732.58
719.75	1746.92
719.94	1697.77
720.12	1675.24
720.30	1779.68
720.48	1802.21
720.67	1665.00
720.85	1634.28
721.03	1634.28
721.21	1703.91
721.39	1787.88
721.58	1765.35
721.76	1718.25
721.94	1726.44
722.12	1683.43
722.30	1787.88
722.49	1714.15
722.67	1740.77
722.85	1740.77
723.03	1640.42
723.21	1662.95
723.40	1798.12
723.58	1746.92
723.76	1732.58
723.94	1839.08
724.12	1742.82
724.30	1779.68
724.49	1828.84
724.67	1683.43
724.85	1886.18
725.03	1746.92
725.21	1689.57
725.40	1816.55
725.58	1716.20
725.76	1771.49
725.94	1732.58
726.12	1652.71
726.30	1681.38
726.49	1779.68
726.67	1712.10
726.85	1681.38
727.03	1695.72
727.21	2179.04
727.39	2873.30
727.57	3833.80
727.76	4120.51
727.94	4419.52
728.12	4337.60
728.30	3684.30
728.48	2936.79
728.66	2781.14
728.84	2568.15
729.03	2246.62
729.21	2166.75
729.39	1918.95
729.57	1820.64
729.75	1789.92
729.93	1753.06
730.11	1730.53
730.30	1710.05
730.48	1665.00
730.66	1753.06
730.84	1779.68
731.02	1677.29
731.20	1728.49
731.38	1673.19
731.56	1691.62
731.74	1681.38
731.93	1730.53
732.11	1718.25
732.29	1689.57
732.47	1830.88
732.65	1695.72
732.83	1849.32
733.01	1730.53
733.19	1712.10
733.37	1740.77
733.56	1708.01
733.74	1708.01
733.92	1767.40
734.10	1722.34
734.28	1787.88
734.46	1609.70
734.64	1689.57
734.82	1787.88
735.00	1755.11
735.18	1716.20
735.36	1683.43
735.54	1724.39
735.73	1722.34
735.91	1699.81
736.09	1777.64
736.27	1763.30
736.45	1693.67
736.63	1642.47
736.81	1644.52
736.99	1773.54
737.17	1787.88
737.35	1718.25
737.53	1660.90
737.71	1673.19
737.89	1812.45
738.07	1714.15
738.25	1765.35
738.43	1636.33
738.61	1701.86
738.80	1689.57
738.98	1619.94
739.16	1658.85
739.34	1685.48
739.52	1798.12
739.70	1675.24
739.88	1800.16
740.06	1755.11
740.24	1697.77
740.42	1720.29
740.60	1679.33
740.78	1665.00
740.96	1562.60
741.14	1714.15
741.32	1755.11
741.50	1589.22
741.68	1794.02
741.86	1808.36
742.04	1662.95
742.22	1712.10
742.40	1708.01
742.58	1722.34
742.76	1638.38
742.94	1804.26
743.12	1652.71
743.30	1736.68
743.48	1722.34
743.66	1681.38
743.84	1669.09
744.02	1712.10
744.20	1675.24
744.38	1679.33
744.56	1662.95
744.74	1853.41
744.92	1718.25
745.10	1761.25
745.28	1765.35
745.46	1908.71
745.64	1740.77
745.82	1800.16
746.00	1767.40
746.18	1740.77
746.36	1718.25
746.54	1791.97
746.72	1654.76
746.90	1701.86
747.08	1781.73
747.26	1658.85
747.44	1763.30
747.62	1734.63
747.80	1746.92
747.98	1851.36
748.15	1730.53
748.33	1791.97
748.51	1800.16
748.69	1816.55
748.87	1581.03
749.05	1619.94
749.23	1744.87
749.41	1726.44
749.59	1722.34
749.77	1763.30
749.95	1730.53
750.13	1755.11
750.31	1665.00
750.49	1677.29
750.67	1689.57
750.85	1804.26
751.03	1730.53
751.20	1898.47
751.38	1701.86
751.56	1755.11
751.74	1751.01
751.92	1677.29
752.10	1650.66
752.28	1722.34
752.46	1652.71
752.64	1740.77
752.82	1708.01
753.00	1763.30
753.18	1677.29
753.35	1744.87
753.53	1724.39
753.71	1681.38
753.89	1744.87
754.07	1759.21
754.25	1710.05
754.43	1812.45
754.61	1626.09
754.79	1802.21
754.97	1683.43
755.14	1841.12
755.32	1656.81
755.50	1683.43
755.68	1812.45
755.86	1617.90
756.04	1730.53
756.22	1650.66
756.40	1794.02
756.57	1882.08
756.75	1650.66
756.93	1847.27
757.11	1726.44
757.29	1726.44
757.47	1681.38
757.65	1634.28
757.82	1630.18
758.00	1724.39
758.18	1683.43
758.36	1673.19
758.54	1742.82
758.72	1652.71
758.90	1691.62
759.07	1783.78
759.25	1642.47
759.43	1751.01
759.61	1607.66
759.79	2236.38
759.97	1716.20
760.15	1734.63
760.32	1783.78
760.50	1718.25
760.68	1746.92
760.86	1705.96
761.04	1791.97
761.22	1730.53
761.39	1712.10
761.57	1783.78
761.75	1724.39
761.93	1763.30
762.11	1677.29
762.28	1740.77
762.46	1628.14
762.64	1777.64
762.82	1656.81
763.00	1671.14
763.18	1834.98
763.35	1654.76
763.53	1742.82
763.71	1724.39
763.89	1789.92
764.07	1742.82
764.24	1665.00
764.42	1693.67
764.60	1646.57
764.78	1740.77
764.96	1765.35
765.13	1775.59
765.31	1781.73
765.49	1773.54
765.67	1648.61
765.84	1771.49
766.02	1646.57
766.20	1572.84
766.38	1742.82
766.56	1796.07
766.73	1837.03
766.91	1759.21
767.09	1703.91
767.27	1753.06
767.44	1617.90
767.62	1677.29
767.80	1742.82
767.98	1669.09
768.15	1722.34
768.33	1734.63
768.51	1763.30
768.69	1796.07
768.87	1761.25
769.04	1691.62
769.22	1812.45
769.40	1808.36
769.58	1804.26
769.75	1796.07
769.93	1769.44
770.11	1726.44
770.28	1662.95
770.46	1779.68
770.64	1714.15
770.82	1679.33
770.99	1646.57
771.17	1755.11
771.35	1693.67
771.53	1744.87
771.70	1691.62
771.88	1796.07
772.06	1685.48
772.23	1677.29
772.41	1818.60
772.59	1667.05
772.77	1693.67
772.94	1746.92
773.12	1796.07
773.30	1650.66
773.47	1765.35
773.65	1683.43
773.83	1812.45
774.01	1630.18
774.18	1581.03
774.36	1714.15
774.54	1669.09
774.71	1726.44
774.89	1632.23
775.07	1679.33
775.24	1665.00
775.42	1687.53
775.60	1888.23
775.78	1640.42
775.95	1621.99
776.13	1630.18
776.31	1603.56
776.48	1757.16
776.66	1744.87
776.84	1789.92
777.01	1714.15
777.19	1603.56
777.37	1689.57
777.54	1730.53
777.72	1830.88
777.90	1685.48
778.07	1746.92
778.25	1873.89
778.43	1744.87
778.60	1673.19
778.78	1753.06
778.96	1812.45
779.13	1669.09
779.31	1769.44
779.49	1732.58
779.66	1712.10
779.84	1658.85
780.01	1757.16
780.19	1652.71
780.37	1755.11
780.54	1773.54
780.72	1693.67
780.90	1714.15
781.07	1656.81
781.25	1648.61
781.43	1765.35
781.60	1708.01
781.78	1804.26
781.95	1722.34
782.13	1642.47
782.31	1730.53
782.48	1521.64
782.66	1619.94
782.83	1804.26
783.01	1734.63
783.19	1791.97
783.36	1699.81
783.54	1683.43
783.72	1746.92
783.89	1654.76
784.07	1730.53
784.24	1716.20
784.42	1808.36
784.60	1755.11
784.77	1714.15
784.95	1593.32
785.12	1599.46
785.30	1736.68
785.47	1595.37
785.65	1609.70
785.83	1755.11
786.00	1705.96
786.18	1701.86
786.35	1722.34
786.53	1611.75
786.71	1755.11
786.88	1748.97
787.06	1693.67
787.23	1738.73
787.41	1613.80
787.58	1714.15
787.76	1603.56
787.94	1763.30
788.11	1746.92
788.29	1728.49
788.46	1640.42
788.64	1642.47
788.81	1687.53
788.99	1671.14
789.16	1644.52
789.34	1751.01
789.52	1685.48
789.69	1705.96
789.87	1607.66
790.04	1771.49
790.22	1722.34
790.39	1855.46
790.57	1656.81
790.74	1730.53
790.92	1783.78
791.09	1640.42
791.27	1728.49
791.44	1822.69
791.62	1720.29
791.79	1697.77
791.97	1724.39
792.15	1896.42
792.32	1708.01
792.50	1808.36
792.67	1734.63
792.85	1738.73
793.02	1726.44
793.20	1638.38
793.37	1667.05
793.55	1712.10
793.72	1740.77
793.90	1783.78
794.07	1675.24
794.25	1710.05
794.42	1710.05
794.60	1722.34
794.77	1697.77
794.95	1783.78
795.12	1730.53
795.30	1665.00
795.47	1550.31
795.65	1853.41
795.82	1689.57
796.00	1624.04
796.17	1687.53
796.34	1697.77
796.52	1705.96
796.69	1802.21
796.87	1765.35
797.04	1730.53
797.22	1767.40
797.39	1767.40
797.57	1740.77
797.74	1769.44
797.92	1751.01
798.09	1642.47
798.27	1775.59
798.44	1783.78
798.62	1722.34
798.79	1751.01
798.96	1708.01
799.14	1697.77
799.31	1880.04
799.49	1812.45
799.66	1712.10
799.84	1714.15
800.01	1540.07
800.19	1697.77
800.36	1656.81
800.53	1730.53
800.71	1816.55
800.88	1781.73
801.06	1681.38
801.23	1710.05
801.41	1675.24
801.58	1652.71
801.75	1687.53
801.93	1753.06
802.10	1763.30
802.28	1718.25
802.45	1732.58
802.63	1751.01
802.80	1708.01
802.97	1611.75
803.15	1597.42
803.32	1701.86
803.50	1626.09
803.67	1662.95
803.84	1601.51
804.02	1771.49
804.19	1705.96
804.37	1599.46
804.54	1644.52
804.71	1701.86
804.89	1650.66
805.06	1703.91
805.24	1632.23
805.41	1632.23
805.58	1617.90
805.76	1794.02
805.93	1687.53
806.10	1755.11
806.28	1748.97
806.45	1804.26
806.63	1748.97
806.80	1818.60
806.97	1744.87
807.15	1689.57
807.32	1693.67
807.49	1718.25
807.67	1734.63
807.84	1755.11
808.01	1658.85
808.19	1812.45
808.36	1847.27
808.54	1734.63
808.71	1714.15
808.88	1689.57
809.06	1687.53
809.23	1787.88
809.40	1671.14
809.58	1732.58
809.75	1724.39
809.92	1613.80
810.10	1830.88
810.27	1708.01
810.44	1730.53
810.62	1699.81
810.79	1636.33
810.96	1669.09
811.14	1642.47
811.31	1667.05
811.48	1738.73
811.66	1720.29
811.83	1796.07
812.00	1724.39
812.18	1730.53
812.35	1816.55
812.52	1697.77
812.69	1646.57
812.87	1724.39
813.04	1624.04
813.21	1701.86
813.39	1685.48
813.56	1665.00
813.73	1720.29
813.91	1712.10
814.08	1726.44
814.25	1720.29
814.42	1681.38
814.60	1654.76
814.77	1751.01
814.94	1738.73
815.12	1779.68
815.29	1783.78
815.46	1687.53
815.63	1732.58
815.81	1710.05
815.98	1726.44
816.15	1685.48
816.33	1769.44
816.50	1734.63
816.67	1654.76
816.84	1710.05
817.02	1673.19
817.19	1669.09
817.36	1677.29
817.53	1759.21
817.71	1730.53
817.88	1751.01
818.05	1646.57
818.22	1705.96
818.40	1861.60
818.57	1753.06
818.74	1769.44
818.91	1744.87
819.09	1759.21
819.26	1705.96
819.43	1689.57
819.60	1687.53
819.78	1800.16
819.95	1787.88
820.12	1626.09
820.29	1798.12
820.47	1769.44
820.64	1644.52
820.81	1673.19
820.98	1652.71
821.15	1632.23
821.33	1775.59
821.50	1630.18
821.67	1689.57
821.84	1669.09
822.02	1751.01
822.19	1783.78
822.36	1708.01
822.53	1660.90
822.70	1591.27
822.88	1630.18
823.05	1826.79
823.22	1718.25
823.39	1748.97
823.56	1697.77
823.74	1781.73
823.91	1630.18
824.08	1658.85
824.25	1591.27
824.42	1804.26
824.60	1669.09
824.77	1730.53
824.94	1652.71
825.11	1726.44
825.28	1654.76
825.45	1689.57
825.63	1656.81
825.80	1615.85
825.97	1724.39
826.14	1736.68
826.31	1632.23
826.48	1714.15
826.66	1624.04
826.83	1662.95
827.00	1757.16
827.17	1658.85
827.34	1671.14
827.51	1656.81
827.69	1724.39
827.86	1572.84
828.03	1757.16
828.20	1751.01
828.37	1722.34
828.54	1783.78
828.71	1697.77
828.89	1812.45
829.06	1675.24
829.23	1847.27
829.40	1705.96
829.57	1589.22
829.74	1744.87
829.91	1724.39
830.09	1671.14
830.26	1673.19
830.43	1783.78
830.60	1712.10
830.77	1804.26
830.94	1751.01
831.11	1765.35
831.28	1687.53
831.46	1791.97
831.63	1642.47
831.80	1759.21
831.97	1665.00
832.14	1650.66
832.31	1810.40
832.48	1753.06
832.65	1708.01
832.82	1783.78
832.99	1773.54
833.17	1605.61
833.34	1765.35
833.51	1789.92
833.68	1605.61
833.85	1861.60
834.02	1591.27
834.19	1701.86
834.36	1687.53
834.53	1701.86
834.70	1734.63
834.87	1763.30
835.04	1730.53
835.22	1658.85
835.39	1699.81
835.56	1726.44
835.73	1724.39
835.90	1720.29
836.07	1640.42
836.24	1751.01
836.41	1699.81
836.58	1593.32
836.75	1783.78
836.92	1640.42
837.09	1693.67
837.26	1753.06
837.43	1736.68
837.60	1669.09
837.77	1638.38
837.94	1738.73
838.12	1822.69
838.29	1806.31
838.46	1628.14
838.63	1652.71
838.80	1773.54
838.97	1759.21
839.14	1722.34
839.31	1617.90
839.48	1714.15
839.65	1654.76
839.82	1744.87
839.99	1701.86
840.16	1675.24
840.33	1710.05
840.50	1732.58
840.67	1708.01
840.84	1644.52
841.01	1681.38
841.18	1585.13
841.35	1648.61
841.52	1714.15
841.69	1841.12
841.86	1755.11
842.03	1705.96
842.20	1718.25
842.37	1701.86
842.54	1726.44
842.71	1748.97
842.88	1638.38
843.05	1791.97
843.22	1710.05
843.39	1716.20
843.56	1701.86
843.73	1722.34
843.90	1761.25
844.07	1689.57
844.24	1800.16
844.41	1691.62
844.58	1675.24
844.75	1683.43
844.92	1789.92
845.09	1734.63
845.26	1720.29
845.43	1753.06
845.60	1753.06
845.77	1763.30
845.94	1697.77
846.10	1787.88
846.27	1654.76
846.44	1615.85
846.61	1595.37
846.78	1724.39
846.95	1824.74
847.12	1656.81
847.29	1669.09
847.46	1673.19
847.63	1783.78
847.80	1675.24
847.97	1687.53
848.14	1904.61
848.31	1751.01
848.48	1562.60
848.65	1652.71
848.82	1658.85
848.98	1814.50
849.15	1759.21
849.32	1826.79
849.49	1732.58
849.66	1697.77
849.83	1753.06
850.00	1677.29
850.17	1732.58
850.34	1755.11
850.51	1679.33
850.68	1544.17
850.85	1861.60
851.01	1724.39
851.18	1689.57
851.35	1652.71
851.52	1722.34
851.69	1755.11
851.86	1697.77
852.03	1730.53
852.20	1796.07
852.37	1744.87
852.53	1634.28
852.70	1697.77
852.87	1660.90
853.04	1785.83
853.21	1746.92
853.38	1773.54
853.55	1834.98
853.72	1738.73
853.89	1710.05
854.05	1652.71
854.22	1740.77
854.39	1683.43
854.56	1757.16
854.73	1769.44
854.90	1642.47
855.07	1656.81
855.23	1738.73
855.40	1755.11
855.57	1691.62
855.74	1558.50
855.91	1920.99
856.08	1669.09
856.25	1697.77
856.41	1685.48
856.58	1720.29
856.75	1691.62
856.92	1693.67
857.09	1783.78
857.26	1593.32
857.42	1740.77
857.59	1724.39
857.76	1712.10
857.93	1683.43
858.10	1773.54
858.27	1660.90
858.43	1708.01
858.60	1751.01
858.77	1621.99
858.94	1714.15
859.11	1718.25
859.27	1654.76
859.44	1703.91
859.61	1787.88
859.78	1738.73
859.95	1685.48
860.12	1738.73
860.28	1773.54
860.45	1830.88
860.62	1613.80
860.79	1769.44
860.95	1738.73
861.12	1656.81
861.29	1757.16
861.46	1611.75
861.63	1679.33
861.79	1742.82
861.96	1665.00
862.13	1757.16
862.30	1720.29
862.47	1673.19
862.63	1665.00
862.80	1710.05
862.97	1744.87
863.14	1673.19
863.30	1718.25
863.47	1638.38
863.64	1804.26
863.81	1732.58
863.97	1644.52
864.14	1705.96
864.31	1675.24
864.48	1755.11
864.65	1689.57
864.81	1783.78
864.98	1742.82
865.15	1757.16
865.32	1753.06
865.48	1783.78
865.65	1779.68
865.82	1667.05
865.98	1724.39
866.15	1861.60
866.32	1665.00
866.49	1697.77
866.65	1777.64
866.82	1599.46
866.99	1759.21
867.16	1630.18
867.32	1675.24
867.49	1703.91
867.66	1691.62
867.83	1746.92
867.99	1705.96
868.16	1671.14
868.33	1650.66
868.49	1681.38
868.66	1648.61
868.83	1718.25
868.99	1746.92
869.16	1710.05
869.33	1746.92
869.50	1687.53
869.66	1679.33
869.83	1740.77
870.00	1669.09
870.16	1736.68
870.33	1671.14
870.50	1767.40
870.66	1685.48
870.83	1847.27
871.00	1734.63
871.17	1726.44
871.33	1689.57
871.50	1665.00
871.67	1712.10
871.83	1685.48
872.00	1937.38
872.17	1740.77
872.33	1769.44
872.50	1769.44
872.67	1753.06
872.83	1753.06
873.00	1722.34
873.17	1763.30
873.33	1753.06
873.50	1773.54
873.67	1662.95
873.83	1679.33
874.00	1683.43
874.16	1746.92
874.33	1773.54
874.50	1669.09
874.66	1734.63
874.83	1730.53
875.00	1734.63
875.16	1794.02
875.33	1794.02
875.50	1650.66
875.66	1671.14
875.83	1722.34
875.99	1757.16
876.16	1679.33
876.33	1609.70
876.49	1746.92
876.66	1654.76
876.83	1710.05
876.99	1708.01
877.16	1640.42
877.32	1677.29
877.49	1695.72
877.66	1613.80
877.82	1783.78
877.99	1765.35
878.15	1748.97
878.32	1652.71
878.49	1736.68
878.65	1691.62
878.82	1787.88
878.98	1714.15
879.15	1800.16
879.32	1685.48
879.48	1710.05
879.65	1630.18
879.81	1650.66
879.98	1617.90
880.15	1736.68
880.31	1785.83
880.48	1650.66
880.64	1742.82
880.81	1730.53
880.97	1828.84
881.14	1785.83
881.31	1640.42
881.47	1832.93
881.64	1640.42
881.80	1648.61
881.97	1734.63
882.13	1816.55
882.30	1624.04
882.47	1689.57
882.63	1613.80
882.80	1716.20
882.96	1714.15
883.13	1718.25
883.29	1650.66
883.46	1654.76
883.62	1763.30
883.79	1712.10
883.95	1736.68
884.12	1748.97
884.29	1677.29
884.45	1771.49
884.62	1705.96
884.78	1710.05
884.95	1871.84
885.11	1671.14
885.28	1728.49
885.44	1738.73
885.61	1738.73
885.77	1781.73
885.94	1779.68
886.10	1705.96
886.27	1714.15
886.43	1794.02
886.60	1699.81
886.76	1675.24
886.93	1679.33
887.09	1665.00
887.26	1554.41
887.42	1779.68
887.59	1781.73
887.75	1820.64
887.92	1781.73
888.08	1767.40
888.25	1763.30
888.41	1771.49
888.58	1705.96
888.74	1648.61
888.91	1722.34
>>>>>End Processed Spectral Data<<<<<
