SpectraSuite Data File
++++++++++++++++++++++++++++++++++++
Date: Mon Jun 06 13:03:17 CEST 2016
User: root
Dark Spectrum Present: No
Reference Spectrum Present: No
Number of Sampled Component Spectra: 1
Spectrometers: USB4C02835
Integration Time (usec): 100000 (USB4C02835)
Spectra Averaged: 1 (USB4C02835)
Boxcar Smoothing: 0 (USB4C02835)
Correct for Electrical Dark: No (USB4C02835)
Strobe/Lamp Enabled: No (USB4C02835)
Correct for Detector Non-linearity: No (USB4C02835)
Correct for Stray Light: No (USB4C02835)
Number of Pixels in Processed Spectrum: 3648
>>>>>Begin Processed Spectral Data<<<<<
177.47	1492.97
177.69	1492.97
177.91	1492.97
178.13	1488.87
178.36	1447.91
178.58	1611.75
178.80	1648.61
179.02	1603.56
179.24	1697.77
179.46	1617.90
179.68	1742.82
179.90	1683.43
180.13	1724.39
180.35	1650.66
180.57	1724.39
180.79	1685.48
181.01	1751.01
181.23	1740.77
181.45	1738.73
181.67	1722.34
181.90	1701.86
182.12	1685.48
182.34	1624.04
182.56	1751.01
182.78	1734.63
183.00	1665.00
183.22	1691.62
183.44	1595.37
183.66	1839.08
183.89	1841.12
184.11	1640.42
184.33	1802.21
184.55	1744.87
184.77	1714.15
184.99	1783.78
185.21	1601.51
185.43	1843.17
185.65	1748.97
185.87	1722.34
186.10	1841.12
186.32	1812.45
186.54	1675.24
186.76	1640.42
186.98	1660.90
187.20	1681.38
187.42	1660.90
187.64	1761.25
187.86	1759.21
188.08	1755.11
188.30	1660.90
188.52	1744.87
188.75	1751.01
188.97	1771.49
189.19	1703.91
189.41	1730.53
189.63	1654.76
189.85	1632.23
190.07	1605.61
190.29	1613.80
190.51	1648.61
190.73	1669.09
190.95	1773.54
191.17	1662.95
191.39	1667.05
191.61	1683.43
191.84	1640.42
192.06	1722.34
192.28	1650.66
192.50	1857.51
192.72	1789.92
192.94	1773.54
193.16	1853.41
193.38	1697.77
193.60	1654.76
193.82	1642.47
194.04	1826.79
194.26	1662.95
194.48	1751.01
194.70	1705.96
194.92	1634.28
195.14	1734.63
195.36	1705.96
195.58	1667.05
195.80	1636.33
196.02	1693.67
196.24	1679.33
196.46	1746.92
196.69	1650.66
196.91	1839.08
197.13	1701.86
197.35	1621.99
197.57	1791.97
197.79	1714.15
198.01	1724.39
198.23	1789.92
198.45	1691.62
198.67	1607.66
198.89	1636.33
199.11	1671.14
199.33	1591.27
199.55	1607.66
199.77	1708.01
199.99	1705.96
200.21	1705.96
200.43	1730.53
200.65	1652.71
200.87	1556.46
201.09	1693.67
201.31	1683.43
201.53	1759.21
201.75	1738.73
201.97	1718.25
202.19	1675.24
202.41	1824.74
202.63	1798.12
202.85	1769.44
203.07	1783.78
203.29	1644.52
203.51	1671.14
203.73	1599.46
203.95	1851.36
204.17	1722.34
204.39	1648.61
204.61	1626.09
204.83	1640.42
205.05	1714.15
205.27	1767.40
205.49	1808.36
205.71	1648.61
205.93	1619.94
206.15	1730.53
206.37	1642.47
206.59	1724.39
206.81	1617.90
207.03	1630.18
207.25	1669.09
207.47	1734.63
207.69	1626.09
207.91	1755.11
208.13	1759.21
208.34	1632.23
208.56	1658.85
208.78	1681.38
209.00	1658.85
209.22	1658.85
209.44	1677.29
209.66	1683.43
209.88	1683.43
210.10	1720.29
210.32	1671.14
210.54	1720.29
210.76	1681.38
210.98	1742.82
211.20	1644.52
211.42	1669.09
211.64	1775.59
211.86	1705.96
212.08	1763.30
212.30	1656.81
212.52	1669.09
212.74	1734.63
212.96	1705.96
213.17	1732.58
213.39	1675.24
213.61	1808.36
213.83	1708.01
214.05	1642.47
214.27	1785.83
214.49	1662.95
214.71	1605.61
214.93	1697.77
215.15	1730.53
215.37	1699.81
215.59	1591.27
215.81	1765.35
216.03	1763.30
216.24	1665.00
216.46	1638.38
216.68	1753.06
216.90	1744.87
217.12	1748.97
217.34	1697.77
217.56	1607.66
217.78	1712.10
218.00	1728.49
218.22	1732.58
218.44	1658.85
218.66	1665.00
218.87	1847.27
219.09	1636.33
219.31	1746.92
219.53	1685.48
219.75	1560.55
219.97	1648.61
220.19	1736.68
220.41	1703.91
220.63	1740.77
220.85	1722.34
221.06	1621.99
221.28	1800.16
221.50	1740.77
221.72	1654.76
221.94	1738.73
222.16	1638.38
222.38	1697.77
222.60	1710.05
222.82	1669.09
223.03	1734.63
223.25	1642.47
223.47	1701.86
223.69	1839.08
223.91	1720.29
224.13	1755.11
224.35	1683.43
224.57	1726.44
224.78	1689.57
225.00	1701.86
225.22	1640.42
225.44	1695.72
225.66	1740.77
225.88	1697.77
226.10	1716.20
226.32	1728.49
226.53	1765.35
226.75	1646.57
226.97	1736.68
227.19	1697.77
227.41	1691.62
227.63	1644.52
227.85	1564.65
228.06	1736.68
228.28	1777.64
228.50	1748.97
228.72	1679.33
228.94	1673.19
229.16	1689.57
229.37	1656.81
229.59	1652.71
229.81	1746.92
230.03	1667.05
230.25	1648.61
230.47	1646.57
230.69	1607.66
230.90	1720.29
231.12	1658.85
231.34	1689.57
231.56	1787.88
231.78	1677.29
232.00	1724.39
232.21	1691.62
232.43	1636.33
232.65	1576.94
232.87	1724.39
233.09	1644.52
233.30	1619.94
233.52	1714.15
233.74	1726.44
233.96	1578.98
234.18	1710.05
234.40	1660.90
234.61	1777.64
234.83	1652.71
235.05	1644.52
235.27	1804.26
235.49	1796.07
235.70	1689.57
235.92	1810.40
236.14	1712.10
236.36	1849.32
236.58	1652.71
236.79	1773.54
237.01	1710.05
237.23	1679.33
237.45	1837.03
237.67	1685.48
237.88	1708.01
238.10	1812.45
238.32	1626.09
238.54	1769.44
238.76	1703.91
238.97	1632.23
239.19	1615.85
239.41	1740.77
239.63	1716.20
239.85	1679.33
240.06	1708.01
240.28	1677.29
240.50	1708.01
240.72	1697.77
240.93	1708.01
241.15	1724.39
241.37	1695.72
241.59	1777.64
241.81	1734.63
242.02	1718.25
242.24	1771.49
242.46	1763.30
242.68	1640.42
242.89	1701.86
243.11	1806.31
243.33	1703.91
243.55	1767.40
243.76	1726.44
243.98	1708.01
244.20	1687.53
244.42	1699.81
244.64	1654.76
244.85	1681.38
245.07	1660.90
245.29	1800.16
245.51	1691.62
245.72	1683.43
245.94	1751.01
246.16	1748.97
246.38	1753.06
246.59	1652.71
246.81	1611.75
247.03	1718.25
247.24	1687.53
247.46	1675.24
247.68	1716.20
247.90	1636.33
248.11	1742.82
248.33	1718.25
248.55	1746.92
248.77	1638.38
248.98	1640.42
249.20	1761.25
249.42	1665.00
249.64	1746.92
249.85	1644.52
250.07	1712.10
250.29	1755.11
250.50	1781.73
250.72	1648.61
250.94	1710.05
251.16	1816.55
251.37	1783.78
251.59	1697.77
251.81	1738.73
252.02	1681.38
252.24	1687.53
252.46	1785.83
252.68	1695.72
252.89	1595.37
253.11	1591.27
253.33	1783.78
253.54	1742.82
253.76	1611.75
253.98	1693.67
254.20	1607.66
254.41	1679.33
254.63	1667.05
254.85	1583.08
255.06	1646.57
255.28	1744.87
255.50	1691.62
255.71	1646.57
255.93	1695.72
256.15	1716.20
256.36	1761.25
256.58	1722.34
256.80	1665.00
257.02	1677.29
257.23	1765.35
257.45	1720.29
257.67	1753.06
257.88	1691.62
258.10	1699.81
258.32	1720.29
258.53	1599.46
258.75	1820.64
258.97	1650.66
259.18	1636.33
259.40	1767.40
259.62	1822.69
259.83	1716.20
260.05	1732.58
260.27	1953.76
260.48	1726.44
260.70	1619.94
260.92	1685.48
261.13	1675.24
261.35	1677.29
261.57	1644.52
261.78	1638.38
262.00	1617.90
262.22	1757.16
262.43	1601.51
262.65	1718.25
262.86	1685.48
263.08	1847.27
263.30	1667.05
263.51	1628.14
263.73	1732.58
263.95	1855.46
264.16	1636.33
264.38	1691.62
264.60	1763.30
264.81	1628.14
265.03	1765.35
265.25	1830.88
265.46	1673.19
265.68	1738.73
265.89	1714.15
266.11	1619.94
266.33	1740.77
266.54	1718.25
266.76	1798.12
266.98	1771.49
267.19	1777.64
267.41	1740.77
267.62	1695.72
267.84	1652.71
268.06	1697.77
268.27	1687.53
268.49	1728.49
268.70	1761.25
268.92	1691.62
269.14	1669.09
269.35	1609.70
269.57	1656.81
269.79	1746.92
270.00	1665.00
270.22	1769.44
270.43	1697.77
270.65	1621.99
270.87	1748.97
271.08	1804.26
271.30	1763.30
271.51	1714.15
271.73	1703.91
271.95	1740.77
272.16	1736.68
272.38	1693.67
272.59	1638.38
272.81	1728.49
273.02	1701.86
273.24	1669.09
273.46	1769.44
273.67	1660.90
273.89	1726.44
274.10	1773.54
274.32	1755.11
274.54	1849.32
274.75	1761.25
274.97	1701.86
275.18	1714.15
275.40	1753.06
275.61	1671.14
275.83	1667.05
276.05	1673.19
276.26	1679.33
276.48	1648.61
276.69	1619.94
276.91	1669.09
277.12	1863.65
277.34	1796.07
277.55	1759.21
277.77	1685.48
277.99	1585.13
278.20	1691.62
278.42	1632.23
278.63	1665.00
278.85	1658.85
279.06	1687.53
279.28	1708.01
279.49	1724.39
279.71	1722.34
279.93	1656.81
280.14	1734.63
280.36	1662.95
280.57	1748.97
280.79	1708.01
281.00	1679.33
281.22	1677.29
281.43	1740.77
281.65	1552.36
281.86	1673.19
282.08	1742.82
282.29	1798.12
282.51	1568.74
282.73	1677.29
282.94	1656.81
283.16	1800.16
283.37	1810.40
283.59	1714.15
283.80	1775.59
284.02	1697.77
284.23	1730.53
284.45	1716.20
284.66	1626.09
284.88	1705.96
285.09	1689.57
285.31	1695.72
285.52	1748.97
285.74	1578.98
285.95	1796.07
286.17	1705.96
286.38	1738.73
286.60	1669.09
286.81	1660.90
287.03	1695.72
287.24	1720.29
287.46	1697.77
287.67	1769.44
287.89	1865.70
288.10	1728.49
288.32	1732.58
288.53	1777.64
288.75	1648.61
288.96	1730.53
289.18	1658.85
289.39	1724.39
289.61	1757.16
289.82	1837.03
290.04	1851.36
290.25	1605.61
290.47	1671.14
290.68	1755.11
290.90	1718.25
291.11	1591.27
291.33	1767.40
291.54	1558.50
291.76	1685.48
291.97	1714.15
292.18	1751.01
292.40	1757.16
292.61	1634.28
292.83	1761.25
293.04	1781.73
293.26	1783.78
293.47	1693.67
293.69	1621.99
293.90	1742.82
294.12	1730.53
294.33	1714.15
294.55	1634.28
294.76	1734.63
294.97	1761.25
295.19	1882.08
295.40	1734.63
295.62	1771.49
295.83	1730.53
296.05	1632.23
296.26	1779.68
296.48	1681.38
296.69	1665.00
296.90	1742.82
297.12	1720.29
297.33	1808.36
297.55	1652.71
297.76	1755.11
297.98	1800.16
298.19	1687.53
298.41	1646.57
298.62	1615.85
298.83	1744.87
299.05	1742.82
299.26	1681.38
299.48	1697.77
299.69	1740.77
299.90	1744.87
300.12	1675.24
300.33	1705.96
300.55	1679.33
300.76	1718.25
300.98	1650.66
301.19	1740.77
301.40	1648.61
301.62	1724.39
301.83	1644.52
302.05	1689.57
302.26	1662.95
302.47	1687.53
302.69	1777.64
302.90	1669.09
303.12	1523.69
303.33	1691.62
303.54	1810.40
303.76	1675.24
303.97	1732.58
304.19	1845.22
304.40	1716.20
304.61	1716.20
304.83	1841.12
305.04	1751.01
305.26	1769.44
305.47	1742.82
305.68	1683.43
305.90	1599.46
306.11	1701.86
306.33	1677.29
306.54	1621.99
306.75	1714.15
306.97	1621.99
307.18	1679.33
307.39	1652.71
307.61	1738.73
307.82	1714.15
308.04	1746.92
308.25	1605.61
308.46	1689.57
308.68	1779.68
308.89	1728.49
309.10	1744.87
309.32	1656.81
309.53	1746.92
309.74	1740.77
309.96	1671.14
310.17	1744.87
310.39	1587.18
310.60	1751.01
310.81	1724.39
311.03	1685.48
311.24	1744.87
311.45	1755.11
311.67	1789.92
311.88	1742.82
312.09	1626.09
312.31	1644.52
312.52	1712.10
312.73	1654.76
312.95	1677.29
313.16	1662.95
313.37	1826.79
313.59	1673.19
313.80	1683.43
314.01	1849.32
314.23	1658.85
314.44	1626.09
314.65	1685.48
314.87	1685.48
315.08	1673.19
315.29	1638.38
315.51	1585.13
315.72	1632.23
315.93	1781.73
316.15	1695.72
316.36	1675.24
316.57	1683.43
316.79	1654.76
317.00	1742.82
317.21	1714.15
317.43	1658.85
317.64	1685.48
317.85	1611.75
318.07	1671.14
318.28	1640.42
318.49	1726.44
318.70	1908.71
318.92	1796.07
319.13	1832.93
319.34	1787.88
319.56	1724.39
319.77	1843.17
319.98	1800.16
320.20	1730.53
320.41	1708.01
320.62	1800.16
320.83	1648.61
321.05	1918.95
321.26	1753.06
321.47	1722.34
321.69	1763.30
321.90	1613.80
322.11	1607.66
322.32	1742.82
322.54	1828.84
322.75	1650.66
322.96	1871.84
323.18	1624.04
323.39	1626.09
323.60	1632.23
323.81	1787.88
324.03	1652.71
324.24	1689.57
324.45	1697.77
324.66	1652.71
324.88	1832.93
325.09	1751.01
325.30	1755.11
325.52	1681.38
325.73	1738.73
325.94	1685.48
326.15	1595.37
326.37	1673.19
326.58	1751.01
326.79	1796.07
327.00	1632.23
327.22	1687.53
327.43	1742.82
327.64	1738.73
327.85	1697.77
328.07	1640.42
328.28	1767.40
328.49	1718.25
328.70	1724.39
328.92	1642.47
329.13	1714.15
329.34	1675.24
329.55	1834.98
329.76	1822.69
329.98	1689.57
330.19	1736.68
330.40	1755.11
330.61	1773.54
330.83	1722.34
331.04	1671.14
331.25	1710.05
331.46	1624.04
331.68	1570.79
331.89	1824.74
332.10	1724.39
332.31	1626.09
332.52	1728.49
332.74	1777.64
332.95	1595.37
333.16	1652.71
333.37	1759.21
333.58	1662.95
333.80	1736.68
334.01	1669.09
334.22	1652.71
334.43	1615.85
334.64	1607.66
334.86	1650.66
335.07	1683.43
335.28	1775.59
335.49	1560.55
335.70	1763.30
335.92	1837.03
336.13	1771.49
336.34	1687.53
336.55	1712.10
336.76	1791.97
336.98	1585.13
337.19	1691.62
337.40	1779.68
337.61	1800.16
337.82	1681.38
338.04	1791.97
338.25	1626.09
338.46	1751.01
338.67	1683.43
338.88	1644.52
339.09	1634.28
339.31	1705.96
339.52	1644.52
339.73	1671.14
339.94	1677.29
340.15	1718.25
340.36	1679.33
340.58	1734.63
340.79	1587.18
341.00	1783.78
341.21	1583.08
341.42	1732.58
341.63	1689.57
341.85	1685.48
342.06	1673.19
342.27	1632.23
342.48	1697.77
342.69	1624.04
342.90	1701.86
343.12	1714.15
343.33	1710.05
343.54	1755.11
343.75	1773.54
343.96	1699.81
344.17	1681.38
344.38	1687.53
344.60	1599.46
344.81	1718.25
345.02	1658.85
345.23	1767.40
345.44	1779.68
345.65	1732.58
345.86	1783.78
346.07	1687.53
346.29	1662.95
346.50	1779.68
346.71	1751.01
346.92	1789.92
347.13	1742.82
347.34	1679.33
347.55	1677.29
347.76	1712.10
347.98	1613.80
348.19	1662.95
348.40	1802.21
348.61	1736.68
348.82	1771.49
349.03	1746.92
349.24	1667.05
349.45	1822.69
349.66	1595.37
349.88	1662.95
350.09	1626.09
350.30	1779.68
350.51	1708.01
350.72	1681.38
350.93	1691.62
351.14	1628.14
351.35	1710.05
351.56	1767.40
351.77	1785.83
351.99	1705.96
352.20	1775.59
352.41	1763.30
352.62	1544.17
352.83	1703.91
353.04	1628.14
353.25	1630.18
353.46	1724.39
353.67	1689.57
353.88	1486.83
354.09	1687.53
354.30	1730.53
354.52	1710.05
354.73	1714.15
354.94	1726.44
355.15	1697.77
355.36	1814.50
355.57	1703.91
355.78	1714.15
355.99	1642.47
356.20	1708.01
356.41	1763.30
356.62	1814.50
356.83	1685.48
357.04	1740.77
357.25	1642.47
357.46	1705.96
357.68	1652.71
357.89	1628.14
358.10	1769.44
358.31	1601.51
358.52	1689.57
358.73	1589.22
358.94	1691.62
359.15	1671.14
359.36	1830.88
359.57	1665.00
359.78	1755.11
359.99	1683.43
360.20	1642.47
360.41	1740.77
360.62	1777.64
360.83	1685.48
361.04	1714.15
361.25	1712.10
361.46	1787.88
361.67	1742.82
361.88	1779.68
362.09	1841.12
362.30	1712.10
362.51	1673.19
362.72	1751.01
362.93	1720.29
363.14	1791.97
363.35	1742.82
363.56	1642.47
363.78	1808.36
363.99	1722.34
364.20	1654.76
364.41	1671.14
364.62	1845.22
364.83	1734.63
365.04	1685.48
365.25	1667.05
365.46	1834.98
365.67	1673.19
365.88	1595.37
366.09	1665.00
366.30	1712.10
366.51	1763.30
366.72	1640.42
366.93	1742.82
367.14	1751.01
367.35	1804.26
367.56	1716.20
367.77	1814.50
367.98	1701.86
368.18	1693.67
368.39	1771.49
368.60	1611.75
368.81	1728.49
369.02	1712.10
369.23	1734.63
369.44	1619.94
369.65	1626.09
369.86	1791.97
370.07	1718.25
370.28	1634.28
370.49	1734.63
370.70	1785.83
370.91	1691.62
371.12	1617.90
371.33	1726.44
371.54	1630.18
371.75	1794.02
371.96	1628.14
372.17	1626.09
372.38	1662.95
372.59	1703.91
372.80	1669.09
373.01	1656.81
373.22	1767.40
373.43	1685.48
373.64	1648.61
373.85	1726.44
374.06	1718.25
374.26	1642.47
374.47	1675.24
374.68	1810.40
374.89	1771.49
375.10	1691.62
375.31	1708.01
375.52	1742.82
375.73	1759.21
375.94	1615.85
376.15	1777.64
376.36	1601.51
376.57	1701.86
376.78	1722.34
376.99	1648.61
377.20	1787.88
377.40	1675.24
377.61	1712.10
377.82	1595.37
378.03	1820.64
378.24	1734.63
378.45	1587.18
378.66	1714.15
378.87	1634.28
379.08	1667.05
379.29	1699.81
379.50	1716.20
379.71	1708.01
379.91	1746.92
380.12	1701.86
380.33	1710.05
380.54	1689.57
380.75	1730.53
380.96	1615.85
381.17	1828.84
381.38	1689.57
381.59	1705.96
381.80	1728.49
382.00	1918.95
382.21	1789.92
382.42	1804.26
382.63	1789.92
382.84	1724.39
383.05	1708.01
383.26	1812.45
383.47	1724.39
383.68	1740.77
383.88	1728.49
384.09	1763.30
384.30	1826.79
384.51	1730.53
384.72	1689.57
384.93	1636.33
385.14	1681.38
385.35	1636.33
385.55	1605.61
385.76	1761.25
385.97	1675.24
386.18	1697.77
386.39	1716.20
386.60	1665.00
386.81	1732.58
387.02	1667.05
387.22	1677.29
387.43	1732.58
387.64	1771.49
387.85	1931.23
388.06	2185.18
388.27	4157.38
388.48	6703.00
388.68	8195.97
388.89	9719.66
389.10	9756.52
389.31	8443.78
389.52	7671.69
389.73	6743.96
389.93	6205.35
390.14	5773.22
390.35	5171.12
390.56	4532.15
390.77	3860.42
390.98	3059.67
391.18	2519.00
391.39	2136.03
391.60	1888.23
391.81	1857.51
392.02	1683.43
392.23	1814.50
392.43	1710.05
392.64	1789.92
392.85	1812.45
393.06	1783.78
393.27	1736.68
393.47	1697.77
393.68	1689.57
393.89	1695.72
394.10	1767.40
394.31	1744.87
394.52	1718.25
394.72	1669.09
394.93	1806.31
395.14	1685.48
395.35	1748.97
395.56	1685.48
395.76	1748.97
395.97	1763.30
396.18	1816.55
396.39	1869.80
396.60	2031.58
396.80	1865.70
397.01	1892.32
397.22	1720.29
397.43	1871.84
397.64	1748.97
397.84	1802.21
398.05	1890.28
398.26	1662.95
398.47	1753.06
398.67	1781.73
398.88	1757.16
399.09	1722.34
399.30	1712.10
399.51	1689.57
399.71	1685.48
399.92	1708.01
400.13	1687.53
400.34	1591.27
400.54	1744.87
400.75	1828.84
400.96	1718.25
401.17	1869.80
401.37	1722.34
401.58	1708.01
401.79	1763.30
402.00	1849.32
402.21	2031.58
402.41	1910.75
402.62	1927.14
402.83	2031.58
403.04	2041.82
403.24	2004.96
403.45	1853.41
403.66	1980.39
403.87	1859.56
404.07	1867.75
404.28	1884.13
404.49	1787.88
404.70	1781.73
404.90	1734.63
405.11	1660.90
405.32	1697.77
405.52	1691.62
405.73	1656.81
405.94	1581.03
406.15	1671.14
406.35	1708.01
406.56	1740.77
406.77	1763.30
406.98	1746.92
407.18	1677.29
407.39	1834.98
407.60	1675.24
407.80	1734.63
408.01	1660.90
408.22	1728.49
408.43	1763.30
408.63	1738.73
408.84	1710.05
409.05	1804.26
409.25	1658.85
409.46	1619.94
409.67	1644.52
409.88	1636.33
410.08	1732.58
410.29	1697.77
410.50	1724.39
410.70	1746.92
410.91	1613.80
411.12	1722.34
411.32	1693.67
411.53	1675.24
411.74	1701.86
411.95	1783.78
412.15	1738.73
412.36	1785.83
412.57	1669.09
412.77	1783.78
412.98	1738.73
413.19	1695.72
413.39	1791.97
413.60	1748.97
413.81	1781.73
414.01	1691.62
414.22	1779.68
414.43	1718.25
414.63	1665.00
414.84	1742.82
415.05	1806.31
415.25	1605.61
415.46	1675.24
415.67	1621.99
415.87	1744.87
416.08	1722.34
416.29	1720.29
416.49	1734.63
416.70	1619.94
416.91	1697.77
417.11	1720.29
417.32	1800.16
417.53	1771.49
417.73	1763.30
417.94	1705.96
418.15	1722.34
418.35	1716.20
418.56	1640.42
418.77	1857.51
418.97	1693.67
419.18	1683.43
419.38	1634.28
419.59	1732.58
419.80	1847.27
420.00	1677.29
420.21	1783.78
420.42	1763.30
420.62	1746.92
420.83	1691.62
421.04	1714.15
421.24	1697.77
421.45	1757.16
421.65	1710.05
421.86	1689.57
422.07	1781.73
422.27	1736.68
422.48	1746.92
422.69	1701.86
422.89	1677.29
423.10	1724.39
423.30	1673.19
423.51	1644.52
423.72	1724.39
423.92	1759.21
424.13	1677.29
424.33	1720.29
424.54	1779.68
424.75	1691.62
424.95	1783.78
425.16	1798.12
425.36	1648.61
425.57	1812.45
425.78	1722.34
425.98	1732.58
426.19	1665.00
426.39	1691.62
426.60	1783.78
426.81	1794.02
427.01	1673.19
427.22	1642.47
427.42	1642.47
427.63	1734.63
427.83	1705.96
428.04	1751.01
428.25	1761.25
428.45	1753.06
428.66	1775.59
428.86	1724.39
429.07	1656.81
429.28	1796.07
429.48	1708.01
429.69	1746.92
429.89	1710.05
430.10	1597.42
430.30	1757.16
430.51	1789.92
430.71	1679.33
430.92	1720.29
431.13	1656.81
431.33	1736.68
431.54	1791.97
431.74	1861.60
431.95	1806.31
432.15	1667.05
432.36	1687.53
432.56	1703.91
432.77	1826.79
432.98	1839.08
433.18	1730.53
433.39	1718.25
433.59	1652.71
433.80	1832.93
434.00	1859.56
434.21	1693.67
434.41	1738.73
434.62	1822.69
434.82	1675.24
435.03	1591.27
435.23	1697.77
435.44	1685.48
435.64	1767.40
435.85	1732.58
436.06	1763.30
436.26	1693.67
436.47	1742.82
436.67	1703.91
436.88	1697.77
437.08	1730.53
437.29	1828.84
437.49	1693.67
437.70	1755.11
437.90	1634.28
438.11	1839.08
438.31	1779.68
438.52	1843.17
438.72	1763.30
438.93	1882.08
439.13	1748.97
439.34	1767.40
439.54	1761.25
439.75	1757.16
439.95	1810.40
440.16	1673.19
440.36	1697.77
440.57	1777.64
440.77	1728.49
440.98	1738.73
441.18	1705.96
441.39	1720.29
441.59	1724.39
441.80	1794.02
442.00	1740.77
442.21	1869.80
442.41	1644.52
442.62	1804.26
442.82	1703.91
443.02	1783.78
443.23	1740.77
443.43	1767.40
443.64	1730.53
443.84	1726.44
444.05	1812.45
444.25	1736.68
444.46	1720.29
444.66	1769.44
444.87	1830.88
445.07	1607.66
445.28	1708.01
445.48	1886.18
445.69	1779.68
445.89	1843.17
446.09	1757.16
446.30	2043.87
446.50	2512.86
446.71	3579.85
446.91	4302.78
447.12	4710.33
447.32	4792.25
447.53	4306.88
447.73	3909.57
447.93	3542.99
448.14	3336.14
448.34	3108.82
448.55	2891.73
448.75	2838.48
448.96	2764.76
449.16	2385.88
449.36	2228.19
449.57	2074.59
449.77	1890.28
449.98	1703.91
450.18	1771.49
450.39	1812.45
450.59	1740.77
450.79	1796.07
451.00	1667.05
451.20	1802.21
451.41	1736.68
451.61	1791.97
451.81	1804.26
452.02	1724.39
452.22	1722.34
452.43	1746.92
452.63	1648.61
452.84	1730.53
453.04	1708.01
453.24	1783.78
453.45	1732.58
453.65	1646.57
453.86	1769.44
454.06	1755.11
454.26	1759.21
454.47	1691.62
454.67	1904.61
454.87	1757.16
455.08	1748.97
455.28	1767.40
455.49	1789.92
455.69	1722.34
455.89	1851.36
456.10	1783.78
456.30	1669.09
456.51	1722.34
456.71	1777.64
456.91	1765.35
457.12	1658.85
457.32	1683.43
457.52	1675.24
457.73	1757.16
457.93	1783.78
458.14	1732.58
458.34	1564.65
458.54	1748.97
458.75	1693.67
458.95	1798.12
459.15	1691.62
459.36	1673.19
459.56	1755.11
459.76	1933.28
459.97	1667.05
460.17	1791.97
460.37	1757.16
460.58	1730.53
460.78	1775.59
460.99	1744.87
461.19	1794.02
461.39	1710.05
461.60	1736.68
461.80	1728.49
462.00	1669.09
462.21	1738.73
462.41	1656.81
462.61	1693.67
462.82	1644.52
463.02	1673.19
463.22	1695.72
463.43	1742.82
463.63	1689.57
463.83	1763.30
464.04	1681.38
464.24	1685.48
464.44	1665.00
464.64	1689.57
464.85	1722.34
465.05	1705.96
465.25	1814.50
465.46	1794.02
465.66	1804.26
465.86	1755.11
466.07	1730.53
466.27	1722.34
466.47	1642.47
466.68	1679.33
466.88	1830.88
467.08	1740.77
467.29	1783.78
467.49	1763.30
467.69	1781.73
467.89	1742.82
468.10	1662.95
468.30	1695.72
468.50	1787.88
468.71	1730.53
468.91	1685.48
469.11	1890.28
469.31	1806.31
469.52	1681.38
469.72	1820.64
469.92	1824.74
470.13	1714.15
470.33	1685.48
470.53	1767.40
470.73	2121.70
470.94	2316.25
471.14	2322.40
471.34	2492.38
471.54	2412.51
471.75	2220.00
471.95	2150.37
472.15	2031.58
472.36	2127.84
472.56	2109.41
472.76	2090.98
472.96	1941.47
473.17	1966.05
473.37	1914.85
473.57	1777.64
473.77	1808.36
473.98	1773.54
474.18	1720.29
474.38	1894.37
474.58	1640.42
474.79	1648.61
474.99	1701.86
475.19	1787.88
475.39	1632.23
475.60	1763.30
475.80	1699.81
476.00	1742.82
476.20	1767.40
476.41	1730.53
476.61	1800.16
476.81	1740.77
477.01	1691.62
477.21	1810.40
477.42	1751.01
477.62	1626.09
477.82	1759.21
478.02	1710.05
478.23	1726.44
478.43	1603.56
478.63	1718.25
478.83	1609.70
479.03	1660.90
479.24	1804.26
479.44	1796.07
479.64	1695.72
479.84	1650.66
480.04	1634.28
480.25	1718.25
480.45	1718.25
480.65	1763.30
480.85	1753.06
481.06	1671.14
481.26	1640.42
481.46	1773.54
481.66	1710.05
481.86	1601.51
482.06	1722.34
482.27	1718.25
482.47	1767.40
482.67	1691.62
482.87	1646.57
483.07	1826.79
483.28	1636.33
483.48	1701.86
483.68	1685.48
483.88	1712.10
484.08	1593.32
484.29	1656.81
484.49	1767.40
484.69	1681.38
484.89	1767.40
485.09	1759.21
485.29	1712.10
485.50	1656.81
485.70	1619.94
485.90	1781.73
486.10	1767.40
486.30	1705.96
486.50	1828.84
486.71	1777.64
486.91	1761.25
487.11	1794.02
487.31	1638.38
487.51	1736.68
487.71	1693.67
487.91	1615.85
488.12	1624.04
488.32	1671.14
488.52	1644.52
488.72	1652.71
488.92	1751.01
489.12	1751.01
489.32	1812.45
489.53	1650.66
489.73	1585.13
489.93	1724.39
490.13	1673.19
490.33	1699.81
490.53	1800.16
490.73	1796.07
490.94	1665.00
491.14	1804.26
491.34	1837.03
491.54	2131.94
491.74	2557.91
491.94	2916.31
492.14	3047.38
492.34	2887.64
492.54	2666.46
492.75	2547.67
492.95	2455.51
493.15	2252.77
493.35	2269.15
493.55	2279.39
493.75	2144.22
493.95	2125.79
494.15	1968.10
494.35	1947.62
494.56	1923.04
494.76	1783.78
494.96	1771.49
495.16	1738.73
495.36	1736.68
495.56	1730.53
495.76	1726.44
495.96	1753.06
496.16	1695.72
496.36	1779.68
496.56	1791.97
496.77	1740.77
496.97	1742.82
497.17	1849.32
497.37	1658.85
497.57	1824.74
497.77	1683.43
497.97	1650.66
498.17	1759.21
498.37	1681.38
498.57	1796.07
498.77	1673.19
498.97	1757.16
499.17	1789.92
499.38	1650.66
499.58	1730.53
499.78	1796.07
499.98	1740.77
500.18	1630.18
500.38	1671.14
500.58	1992.67
500.78	2613.21
500.98	4491.20
501.18	5808.04
501.38	6764.44
501.58	7104.40
501.78	6639.51
501.98	5560.24
502.18	5009.33
502.38	4317.12
502.58	4286.40
502.78	3801.03
502.98	3678.15
503.18	3356.62
503.38	3092.43
503.59	2756.57
503.79	2672.60
503.99	2439.13
504.19	2220.00
504.39	2176.99
504.59	2191.33
504.79	2080.74
504.99	2037.73
505.19	1959.91
505.39	1841.12
505.59	1984.48
505.79	1957.86
505.99	1755.11
506.19	1837.03
506.39	1855.46
506.59	1761.25
506.79	1818.60
506.99	1800.16
507.19	1763.30
507.39	1738.73
507.59	1697.77
507.79	1695.72
507.99	1712.10
508.19	1740.77
508.39	1636.33
508.59	1722.34
508.79	1781.73
508.99	1884.13
509.19	1632.23
509.39	1855.46
509.59	1748.97
509.79	1630.18
509.99	1718.25
510.19	1791.97
510.39	1771.49
510.59	1660.90
510.79	1708.01
510.99	1648.61
511.19	1783.78
511.39	1755.11
511.59	1757.16
511.79	1832.93
511.99	1771.49
512.19	1845.22
512.38	1705.96
512.58	1619.94
512.78	1736.68
512.98	1744.87
513.18	1787.88
513.38	1630.18
513.58	1832.93
513.78	1789.92
513.98	1769.44
514.18	1701.86
514.38	1689.57
514.58	1732.58
514.78	1701.86
514.98	1722.34
515.18	1751.01
515.38	1669.09
515.58	1861.60
515.78	1636.33
515.98	1787.88
516.18	1736.68
516.38	1738.73
516.57	1665.00
516.77	1691.62
516.97	1703.91
517.17	1740.77
517.37	1619.94
517.57	1740.77
517.77	1728.49
517.97	1740.77
518.17	1705.96
518.37	1730.53
518.57	1703.91
518.77	1720.29
518.97	1785.83
519.16	1726.44
519.36	1773.54
519.56	1710.05
519.76	1781.73
519.96	1683.43
520.16	1814.50
520.36	1716.20
520.56	1800.16
520.76	1626.09
520.96	1691.62
521.16	1689.57
521.35	1798.12
521.55	1820.64
521.75	1742.82
521.95	1738.73
522.15	1708.01
522.35	1740.77
522.55	1677.29
522.75	1800.16
522.95	1708.01
523.14	1673.19
523.34	1710.05
523.54	1738.73
523.74	1794.02
523.94	1779.68
524.14	1593.32
524.34	1818.60
524.54	1738.73
524.73	1681.38
524.93	1714.15
525.13	1765.35
525.33	1638.38
525.53	1865.70
525.73	1759.21
525.93	1751.01
526.13	1714.15
526.32	1748.97
526.52	1785.83
526.72	1769.44
526.92	1798.12
527.12	1685.48
527.32	1615.85
527.52	1732.58
527.71	1673.19
527.91	1703.91
528.11	1656.81
528.31	1685.48
528.51	1671.14
528.71	1767.40
528.90	1775.59
529.10	1689.57
529.30	1853.41
529.50	1562.60
529.70	1759.21
529.90	1710.05
530.09	1738.73
530.29	1660.90
530.49	1714.15
530.69	1847.27
530.89	1658.85
531.09	1808.36
531.28	1671.14
531.48	1877.99
531.68	1769.44
531.88	1669.09
532.08	1732.58
532.28	1701.86
532.47	1775.59
532.67	1826.79
532.87	1816.55
533.07	1714.15
533.27	1753.06
533.46	1746.92
533.66	1769.44
533.86	1660.90
534.06	1742.82
534.26	1740.77
534.45	1757.16
534.65	1771.49
534.85	1746.92
535.05	1660.90
535.25	1746.92
535.44	1626.09
535.64	1691.62
535.84	1734.63
536.04	1732.58
536.24	1740.77
536.43	1671.14
536.63	1775.59
536.83	1728.49
537.03	1734.63
537.22	1593.32
537.42	1591.27
537.62	1757.16
537.82	1714.15
538.02	1808.36
538.21	1771.49
538.41	1918.95
538.61	1802.21
538.81	1779.68
539.00	1808.36
539.20	1693.67
539.40	1751.01
539.60	1710.05
539.79	1814.50
539.99	1726.44
540.19	1720.29
540.39	1775.59
540.58	1632.23
540.78	1796.07
540.98	1736.68
541.18	1791.97
541.37	1734.63
541.57	1708.01
541.77	1843.17
541.97	1667.05
542.16	1677.29
542.36	1748.97
542.56	1695.72
542.76	1841.12
542.95	1714.15
543.15	1800.16
543.35	1703.91
543.54	1708.01
543.74	1705.96
543.94	1781.73
544.14	1767.40
544.33	1787.88
544.53	1736.68
544.73	1712.10
544.93	1697.77
545.12	1751.01
545.32	1734.63
545.52	1714.15
545.71	1712.10
545.91	1693.67
546.11	1773.54
546.30	1652.71
546.50	1738.73
546.70	1767.40
546.90	1806.31
547.09	1669.09
547.29	1677.29
547.49	1806.31
547.68	1726.44
547.88	1699.81
548.08	1742.82
548.27	2211.81
548.47	1701.86
548.67	1720.29
548.87	1751.01
549.06	1744.87
549.26	1751.01
549.46	1748.97
549.65	1703.91
549.85	1710.05
550.05	1748.97
550.24	1722.34
550.44	1681.38
550.64	1701.86
550.83	1710.05
551.03	1843.17
551.23	1775.59
551.42	1769.44
551.62	1761.25
551.82	1654.76
552.01	1660.90
552.21	1812.45
552.41	1687.53
552.60	1724.39
552.80	1761.25
553.00	1671.14
553.19	1753.06
553.39	1804.26
553.59	1656.81
553.78	1775.59
553.98	1783.78
554.17	1693.67
554.37	1699.81
554.57	1808.36
554.76	1665.00
554.96	1765.35
555.16	1669.09
555.35	1632.23
555.55	1728.49
555.75	1728.49
555.94	1822.69
556.14	1675.24
556.33	1810.40
556.53	1742.82
556.73	1804.26
556.92	1734.63
557.12	1871.84
557.32	1804.26
557.51	1871.84
557.71	1773.54
557.90	1763.30
558.10	1804.26
558.30	1710.05
558.49	1673.19
558.69	1683.43
558.88	1767.40
559.08	1748.97
559.28	1740.77
559.47	1689.57
559.67	1751.01
559.86	1847.27
560.06	1748.97
560.26	1681.38
560.45	1794.02
560.65	1712.10
560.84	1845.22
561.04	1726.44
561.24	1757.16
561.43	1718.25
561.63	1705.96
561.82	1818.60
562.02	1794.02
562.22	1658.85
562.41	1746.92
562.61	1724.39
562.80	1677.29
563.00	1867.75
563.19	1714.15
563.39	1667.05
563.59	1812.45
563.78	1681.38
563.98	1650.66
564.17	1736.68
564.37	1654.76
564.56	1726.44
564.76	1701.86
564.96	1794.02
565.15	1796.07
565.35	1869.80
565.54	1642.47
565.74	1724.39
565.93	1724.39
566.13	1712.10
566.32	1783.78
566.52	1740.77
566.71	1705.96
566.91	1732.58
567.11	1730.53
567.30	1642.47
567.50	1703.91
567.69	1751.01
567.89	1847.27
568.08	1687.53
568.28	1787.88
568.47	1642.47
568.67	1751.01
568.86	1687.53
569.06	1791.97
569.25	1695.72
569.45	1695.72
569.64	1685.48
569.84	1685.48
570.04	1736.68
570.23	1701.86
570.43	1724.39
570.62	1722.34
570.82	1855.46
571.01	1660.90
571.21	1671.14
571.40	1634.28
571.60	1804.26
571.79	1730.53
571.99	1730.53
572.18	1718.25
572.38	1658.85
572.57	1722.34
572.77	1714.15
572.96	1812.45
573.16	1779.68
573.35	1708.01
573.55	1773.54
573.74	1742.82
573.94	1761.25
574.13	1710.05
574.33	1830.88
574.52	1800.16
574.71	1810.40
574.91	1738.73
575.10	1708.01
575.30	1765.35
575.49	1765.35
575.69	1718.25
575.88	1742.82
576.08	1738.73
576.27	1775.59
576.47	1720.29
576.66	1826.79
576.86	1775.59
577.05	1824.74
577.25	1724.39
577.44	1787.88
577.64	1710.05
577.83	1791.97
578.02	1769.44
578.22	1796.07
578.41	1828.84
578.61	1771.49
578.80	1710.05
579.00	1738.73
579.19	1746.92
579.39	1796.07
579.58	1785.83
579.77	1761.25
579.97	1847.27
580.16	1841.12
580.36	1812.45
580.55	1816.55
580.75	1755.11
580.94	1742.82
581.13	1751.01
581.33	1791.97
581.52	1779.68
581.72	1828.84
581.91	1847.27
582.11	1708.01
582.30	1736.68
582.49	1738.73
582.69	1857.51
582.88	1753.06
583.08	1730.53
583.27	1845.22
583.47	1755.11
583.66	1767.40
583.85	1681.38
584.05	1720.29
584.24	1740.77
584.44	1769.44
584.63	1789.92
584.82	1828.84
585.02	1804.26
585.21	1794.02
585.41	1888.23
585.60	1837.03
585.79	1849.32
585.99	1937.38
586.18	1867.75
586.37	2246.62
586.57	3258.32
586.76	9770.86
586.96	24260.24
587.15	34301.43
587.34	40234.39
587.54	42112.38
587.73	36480.47
587.93	26160.75
588.12	21765.81
588.31	18310.89
588.51	16387.85
588.70	15142.68
588.89	13987.63
589.09	12607.30
589.28	10932.06
589.47	9465.71
589.67	7962.50
589.86	6365.09
590.06	5015.48
590.25	4018.11
590.44	3035.09
590.64	2570.20
590.83	2164.70
591.02	2158.56
591.22	1882.08
591.41	1929.19
591.60	1888.23
591.80	1916.90
591.99	1804.26
592.18	1865.70
592.38	1865.70
592.57	1806.31
592.76	1771.49
592.96	1791.97
593.15	1740.77
593.34	1857.51
593.54	1742.82
593.73	1806.31
593.92	1789.92
594.12	1787.88
594.31	1753.06
594.50	1847.27
594.70	1736.68
594.89	1931.23
595.08	1751.01
595.28	1820.64
595.47	1865.70
595.66	1755.11
595.86	1683.43
596.05	1714.15
596.24	1681.38
596.43	1820.64
596.63	1732.58
596.82	1775.59
597.01	1710.05
597.21	1834.98
597.40	1738.73
597.59	1742.82
597.79	1732.58
597.98	1769.44
598.17	1789.92
598.36	1708.01
598.56	1720.29
598.75	1728.49
598.94	1708.01
599.14	1746.92
599.33	1726.44
599.52	1796.07
599.71	1761.25
599.91	1677.29
600.10	1771.49
600.29	1761.25
600.48	1761.25
600.68	1751.01
600.87	1726.44
601.06	1628.14
601.26	1718.25
601.45	1693.67
601.64	1689.57
601.83	1775.59
602.03	1740.77
602.22	1644.52
602.41	1882.08
602.60	1834.98
602.80	1730.53
602.99	1802.21
603.18	1738.73
603.37	1742.82
603.57	1746.92
603.76	1820.64
603.95	1720.29
604.14	1695.72
604.34	1742.82
604.53	1716.20
604.72	1701.86
604.91	1755.11
605.10	1802.21
605.30	1757.16
605.49	1877.99
605.68	1791.97
605.87	1732.58
606.07	1697.77
606.26	1724.39
606.45	1755.11
606.64	1789.92
606.84	1691.62
607.03	1720.29
607.22	1816.55
607.41	1710.05
607.60	1669.09
607.80	1761.25
607.99	1730.53
608.18	1701.86
608.37	1779.68
608.56	1669.09
608.76	1769.44
608.95	1800.16
609.14	1740.77
609.33	1871.84
609.52	1726.44
609.72	1681.38
609.91	1810.40
610.10	1789.92
610.29	1775.59
610.48	1740.77
610.68	1787.88
610.87	1654.76
611.06	1804.26
611.25	1726.44
611.44	1861.60
611.63	1685.48
611.83	1757.16
612.02	1677.29
612.21	1744.87
612.40	1656.81
612.59	1755.11
612.79	1658.85
612.98	1771.49
613.17	1863.65
613.36	1771.49
613.55	1843.17
613.74	1660.90
613.93	1693.67
614.13	1779.68
614.32	1736.68
614.51	1736.68
614.70	1712.10
614.89	1751.01
615.08	1767.40
615.28	2095.07
615.47	1595.37
615.66	1677.29
615.85	1685.48
616.04	1888.23
616.23	1791.97
616.42	1632.23
616.62	1740.77
616.81	1740.77
617.00	1722.34
617.19	1826.79
617.38	1740.77
617.57	1746.92
617.76	1718.25
617.95	1783.78
618.15	1734.63
618.34	1791.97
618.53	1673.19
618.72	1806.31
618.91	1791.97
619.10	1818.60
619.29	1689.57
619.48	1728.49
619.68	1742.82
619.87	1722.34
620.06	1697.77
620.25	1757.16
620.44	1697.77
620.63	1716.20
620.82	1748.97
621.01	1699.81
621.20	1710.05
621.39	1763.30
621.59	1718.25
621.78	1681.38
621.97	1718.25
622.16	1820.64
622.35	1746.92
622.54	1783.78
622.73	1771.49
622.92	1695.72
623.11	1812.45
623.30	1656.81
623.49	1699.81
623.68	1640.42
623.88	1730.53
624.07	1755.11
624.26	1669.09
624.45	1771.49
624.64	1654.76
624.83	1708.01
625.02	1648.61
625.21	1665.00
625.40	1775.59
625.59	1873.89
625.78	1742.82
625.97	1716.20
626.16	1806.31
626.35	1720.29
626.54	1748.97
626.74	1853.41
626.93	1650.66
627.12	1746.92
627.31	1806.31
627.50	1847.27
627.69	1847.27
627.88	1710.05
628.07	1722.34
628.26	1642.47
628.45	1683.43
628.64	1683.43
628.83	1693.67
629.02	1675.24
629.21	1677.29
629.40	1775.59
629.59	1689.57
629.78	1748.97
629.97	1697.77
630.16	1714.15
630.35	1710.05
630.54	1736.68
630.73	1671.14
630.92	1705.96
631.11	1691.62
631.30	1755.11
631.49	1732.58
631.68	1681.38
631.87	1726.44
632.06	1607.66
632.25	1839.08
632.44	1714.15
632.63	1722.34
632.82	1703.91
633.01	1650.66
633.20	1724.39
633.39	1642.47
633.58	1642.47
633.77	1738.73
633.96	1693.67
634.15	1716.20
634.34	1779.68
634.53	1708.01
634.72	1722.34
634.91	1738.73
635.10	1742.82
635.29	1703.91
635.48	1738.73
635.67	1660.90
635.86	1675.24
636.05	1818.60
636.24	1667.05
636.43	1738.73
636.62	1773.54
636.81	1624.04
637.00	1724.39
637.19	1732.58
637.38	1738.73
637.57	1730.53
637.76	1685.48
637.95	1691.62
638.14	1675.24
638.33	1699.81
638.52	1726.44
638.71	1693.67
638.89	1609.70
639.08	1847.27
639.27	1734.63
639.46	1724.39
639.65	1804.26
639.84	1699.81
640.03	1777.64
640.22	1703.91
640.41	1779.68
640.60	1605.61
640.79	1748.97
640.98	1650.66
641.17	1722.34
641.36	1701.86
641.55	1730.53
641.74	1665.00
641.92	1617.90
642.11	1662.95
642.30	1742.82
642.49	1675.24
642.68	1617.90
642.87	1751.01
643.06	1783.78
643.25	1697.77
643.44	1654.76
643.63	1779.68
643.82	1751.01
644.00	1693.67
644.19	1720.29
644.38	1718.25
644.57	1714.15
644.76	1732.58
644.95	1730.53
645.14	1720.29
645.33	1640.42
645.52	1712.10
645.71	1638.38
645.89	1695.72
646.08	1703.91
646.27	1667.05
646.46	1857.51
646.65	1564.65
646.84	1769.44
647.03	1685.48
647.22	1785.83
647.40	1669.09
647.59	1691.62
647.78	1697.77
647.97	1701.86
648.16	1658.85
648.35	1841.12
648.54	1763.30
648.73	1718.25
648.91	1718.25
649.10	1673.19
649.29	1697.77
649.48	1718.25
649.67	1726.44
649.86	1662.95
650.05	1722.34
650.23	1759.21
650.42	1701.86
650.61	1724.39
650.80	1705.96
650.99	1732.58
651.18	1781.73
651.36	1880.04
651.55	1697.77
651.74	1759.21
651.93	1665.00
652.12	1732.58
652.31	1755.11
652.49	1771.49
652.68	1656.81
652.87	1763.30
653.06	1658.85
653.25	1871.84
653.44	1718.25
653.62	1783.78
653.81	1689.57
654.00	1675.24
654.19	1796.07
654.38	1890.28
654.56	1746.92
654.75	1724.39
654.94	1701.86
655.13	1730.53
655.32	1714.15
655.51	1777.64
655.69	1740.77
655.88	1697.77
656.07	1722.34
656.26	1734.63
656.45	1693.67
656.63	1703.91
656.82	1679.33
657.01	1837.03
657.20	1648.61
657.38	1763.30
657.57	1691.62
657.76	1619.94
657.95	1820.64
658.14	1687.53
658.32	1701.86
658.51	1716.20
658.70	1810.40
658.89	1722.34
659.08	1697.77
659.26	1783.78
659.45	1615.85
659.64	1730.53
659.83	1656.81
660.01	1986.53
660.20	1687.53
660.39	1810.40
660.58	1693.67
660.76	1759.21
660.95	1554.41
661.14	1755.11
661.33	1634.28
661.51	1683.43
661.70	1722.34
661.89	1796.07
662.08	1718.25
662.26	1638.38
662.45	1660.90
662.64	1748.97
662.83	1765.35
663.01	1708.01
663.20	1677.29
663.39	1830.88
663.58	1738.73
663.76	1691.62
663.95	1738.73
664.14	1695.72
664.32	1699.81
664.51	1673.19
664.70	1585.13
664.89	1736.68
665.07	1576.94
665.26	1791.97
665.45	1658.85
665.64	1722.34
665.82	1730.53
666.01	1775.59
666.20	1806.31
666.38	1847.27
666.57	1873.89
666.76	2174.94
666.95	4472.76
667.13	10317.67
667.32	15216.41
667.51	17827.57
667.69	18722.53
667.88	17458.93
668.07	12427.07
668.25	9590.64
668.44	8005.51
668.63	7198.61
668.81	6780.82
669.00	6258.59
669.19	5754.79
669.38	5146.55
669.56	4599.74
669.75	4005.83
669.94	3428.30
670.12	2869.20
670.31	2525.15
670.50	2271.20
670.68	2070.50
670.87	1839.08
671.06	1832.93
671.24	1804.26
671.43	1863.65
671.62	1796.07
671.80	1712.10
671.99	1722.34
672.18	1677.29
672.36	1796.07
672.55	1783.78
672.74	1740.77
672.92	1691.62
673.11	1730.53
673.29	1658.85
673.48	1746.92
673.67	1714.15
673.85	1818.60
674.04	1720.29
674.23	1624.04
674.41	1824.74
674.60	1628.14
674.79	1540.07
674.97	1636.33
675.16	1783.78
675.34	1763.30
675.53	1644.52
675.72	1732.58
675.90	1734.63
676.09	1705.96
676.28	1693.67
676.46	1615.85
676.65	1767.40
676.83	1669.09
677.02	1763.30
677.21	1708.01
677.39	1732.58
677.58	1718.25
677.77	1736.68
677.95	1656.81
678.14	1714.15
678.32	1708.01
678.51	1728.49
678.70	1798.12
678.88	1669.09
679.07	1753.06
679.25	1687.53
679.44	1705.96
679.63	1603.56
679.81	1697.77
680.00	1691.62
680.18	1675.24
680.37	1779.68
680.55	1669.09
680.74	1644.52
680.93	1699.81
681.11	1769.44
681.30	1691.62
681.48	1697.77
681.67	1759.21
681.85	1763.30
682.04	1681.38
682.23	1771.49
682.41	1681.38
682.60	1732.58
682.78	1687.53
682.97	1558.50
683.15	1744.87
683.34	1740.77
683.53	1781.73
683.71	1695.72
683.90	1875.94
684.08	1791.97
684.27	1705.96
684.45	1718.25
684.64	1841.12
684.82	1591.27
685.01	1656.81
685.19	1689.57
685.38	1697.77
685.57	1726.44
685.75	1722.34
685.94	1705.96
686.12	1619.94
686.31	1695.72
686.49	1769.44
686.68	1540.07
686.86	1656.81
687.05	1675.24
687.23	1791.97
687.42	1646.57
687.60	1689.57
687.79	1789.92
687.97	1755.11
688.16	1751.01
688.34	1773.54
688.53	1589.22
688.71	1742.82
688.90	1783.78
689.08	1708.01
689.27	1685.48
689.45	1619.94
689.64	1718.25
689.82	1681.38
690.01	1734.63
690.19	1714.15
690.38	1740.77
690.56	1757.16
690.75	1615.85
690.93	1671.14
691.12	1683.43
691.30	1757.16
691.49	1665.00
691.67	1708.01
691.86	1761.25
692.04	1693.67
692.23	1687.53
692.41	1736.68
692.60	1847.27
692.78	1746.92
692.97	1673.19
693.15	1740.77
693.34	1820.64
693.52	1742.82
693.71	1697.77
693.89	1656.81
694.08	1687.53
694.26	1787.88
694.44	1673.19
694.63	1675.24
694.81	1587.18
695.00	1648.61
695.18	1779.68
695.37	1791.97
695.55	1705.96
695.74	1693.67
695.92	1697.77
696.10	1779.68
696.29	1654.76
696.47	1703.91
696.66	1574.89
696.84	1705.96
697.03	1693.67
697.21	1873.89
697.40	2312.16
697.58	1796.07
697.76	1624.04
697.95	1667.05
698.13	1605.61
698.32	1708.01
698.50	1644.52
698.68	1763.30
698.87	1740.77
699.05	1720.29
699.24	1808.36
699.42	1607.66
699.61	1748.97
699.79	1726.44
699.97	1740.77
700.16	1693.67
700.34	1597.42
700.53	1724.39
700.71	1796.07
700.89	1771.49
701.08	1619.94
701.26	1681.38
701.45	2070.50
701.63	1558.50
701.81	1671.14
702.00	1648.61
702.18	1746.92
702.37	1615.85
702.55	1759.21
702.73	1675.24
702.92	1638.38
703.10	1742.82
703.28	1724.39
703.47	1662.95
703.65	1763.30
703.84	1740.77
704.02	1646.57
704.20	1816.55
704.39	1669.09
704.57	1732.58
704.75	1734.63
704.94	1751.01
705.12	1771.49
705.30	1726.44
705.49	2242.53
705.67	4450.24
705.86	9379.70
706.04	12670.78
706.22	14546.72
706.41	15222.55
706.59	13602.61
706.77	9535.34
706.96	7284.62
707.14	6653.85
707.32	5904.29
707.51	5672.87
707.69	4933.56
707.87	4204.48
708.06	3516.36
708.24	2951.12
708.42	2455.51
708.61	2246.62
708.79	1943.52
708.97	1845.22
709.16	1802.21
709.34	1718.25
709.52	1767.40
709.71	1728.49
709.89	1767.40
710.07	1746.92
710.26	1708.01
710.44	1763.30
710.62	1765.35
710.80	1701.86
710.99	1742.82
711.17	1738.73
711.35	1650.66
711.54	1673.19
711.72	1740.77
711.90	1789.92
712.09	1708.01
712.27	1683.43
712.45	1705.96
712.63	1705.96
712.82	1765.35
713.00	1716.20
713.18	1742.82
713.37	1785.83
713.55	1789.92
713.73	1769.44
713.91	1744.87
714.10	1673.19
714.28	1726.44
714.46	1783.78
714.65	1726.44
714.83	1708.01
715.01	1701.86
715.19	1695.72
715.38	1644.52
715.56	1744.87
715.74	1626.09
715.92	1636.33
716.11	1748.97
716.29	1581.03
716.47	1695.72
716.65	1626.09
716.84	1648.61
717.02	1763.30
717.20	1630.18
717.38	1636.33
717.57	1677.29
717.75	1738.73
717.93	1630.18
718.11	1722.34
718.30	1621.99
718.48	1732.58
718.66	1714.15
718.84	1705.96
719.03	1697.77
719.21	1581.03
719.39	1882.08
719.57	1714.15
719.75	1734.63
719.94	1624.04
720.12	1687.53
720.30	1728.49
720.48	1775.59
720.67	1642.47
720.85	1685.48
721.03	1685.48
721.21	1718.25
721.39	1736.68
721.58	1740.77
721.76	1621.99
721.94	1718.25
722.12	1732.58
722.30	1716.20
722.49	1650.66
722.67	1730.53
722.85	1800.16
723.03	1636.33
723.21	1673.19
723.40	1746.92
723.58	1734.63
723.76	1652.71
723.94	1703.91
724.12	1683.43
724.30	1785.83
724.49	1775.59
724.67	1681.38
724.85	1732.58
725.03	1624.04
725.21	1703.91
725.40	1761.25
725.58	1660.90
725.76	1839.08
725.94	1722.34
726.12	1654.76
726.30	1701.86
726.49	1695.72
726.67	1701.86
726.85	1691.62
727.03	1783.78
727.21	2207.71
727.39	2777.05
727.57	3846.09
727.76	4167.62
727.94	4292.54
728.12	4374.46
728.30	3688.39
728.48	2887.64
728.66	2672.60
728.84	2482.14
729.03	2322.40
729.21	2105.31
729.39	2002.91
729.57	1853.41
729.75	1865.70
729.93	1820.64
730.11	1679.33
730.30	1695.72
730.48	1746.92
730.66	1779.68
730.84	1736.68
731.02	1763.30
731.20	1679.33
731.38	1673.19
731.56	1650.66
731.74	1681.38
731.93	1763.30
732.11	1695.72
732.29	1638.38
732.47	1751.01
732.65	1683.43
732.83	1728.49
733.01	1781.73
733.19	1617.90
733.37	1681.38
733.56	1726.44
733.74	1730.53
733.92	1734.63
734.10	1648.61
734.28	1671.14
734.46	1621.99
734.64	1648.61
734.82	1669.09
735.00	1677.29
735.18	1708.01
735.36	1718.25
735.54	1640.42
735.73	1714.15
735.91	1773.54
736.09	1730.53
736.27	1683.43
736.45	1710.05
736.63	1585.13
736.81	1689.57
736.99	1732.58
737.17	1716.20
737.35	1718.25
737.53	1765.35
737.71	1679.33
737.89	1806.31
738.07	1652.71
738.25	1685.48
738.43	1611.75
738.61	1673.19
738.80	1642.47
738.98	1646.57
739.16	1642.47
739.34	1677.29
739.52	1789.92
739.70	1718.25
739.88	1681.38
740.06	1765.35
740.24	1544.17
740.42	1783.78
740.60	1650.66
740.78	1722.34
740.96	1640.42
741.14	1703.91
741.32	1728.49
741.50	1648.61
741.68	1869.80
741.86	1804.26
742.04	1650.66
742.22	1609.70
742.40	1730.53
742.58	1628.14
742.76	1660.90
742.94	1755.11
743.12	1638.38
743.30	1687.53
743.48	1734.63
743.66	1681.38
743.84	1718.25
744.02	1746.92
744.20	1656.81
744.38	1662.95
744.56	1689.57
744.74	1853.41
744.92	1781.73
745.10	1724.39
745.28	1738.73
745.46	1734.63
745.64	1634.28
745.82	1783.78
746.00	1689.57
746.18	1699.81
746.36	1687.53
746.54	1765.35
746.72	1736.68
746.90	1685.48
747.08	1748.97
747.26	1638.38
747.44	1687.53
747.62	1794.02
747.80	1701.86
747.98	1767.40
748.15	1777.64
748.33	1773.54
748.51	1689.57
748.69	1740.77
748.87	1722.34
749.05	1697.77
749.23	1705.96
749.41	1679.33
749.59	1675.24
749.77	1724.39
749.95	1648.61
750.13	1675.24
750.31	1716.20
750.49	1660.90
750.67	1779.68
750.85	1796.07
751.03	1681.38
751.20	1861.60
751.38	1714.15
751.56	1705.96
751.74	1757.16
751.92	1648.61
752.10	1593.32
752.28	1730.53
752.46	1621.99
752.64	1673.19
752.82	1701.86
753.00	1775.59
753.18	1662.95
753.35	1720.29
753.53	1599.46
753.71	1658.85
753.89	1744.87
754.07	1712.10
754.25	1751.01
754.43	1728.49
754.61	1630.18
754.79	1710.05
754.97	1767.40
755.14	1804.26
755.32	1644.52
755.50	1742.82
755.68	1742.82
755.86	1667.05
756.04	1648.61
756.22	1554.41
756.40	1724.39
756.57	1855.46
756.75	1628.14
756.93	1787.88
757.11	1767.40
757.29	1697.77
757.47	1693.67
757.65	1617.90
757.82	1601.51
758.00	1667.05
758.18	1718.25
758.36	1642.47
758.54	1837.03
758.72	1634.28
758.90	1660.90
759.07	1693.67
759.25	1615.85
759.43	1685.48
759.61	1646.57
759.79	2160.61
759.97	1714.15
760.15	1628.14
760.32	1712.10
760.50	1710.05
760.68	1824.74
760.86	1628.14
761.04	1812.45
761.22	1722.34
761.39	1757.16
761.57	1755.11
761.75	1689.57
761.93	1689.57
762.11	1705.96
762.28	1718.25
762.46	1699.81
762.64	1798.12
762.82	1624.04
763.00	1742.82
763.18	1716.20
763.35	1626.09
763.53	1689.57
763.71	1662.95
763.89	1662.95
764.07	1742.82
764.24	1687.53
764.42	1751.01
764.60	1621.99
764.78	1712.10
764.96	1753.06
765.13	1759.21
765.31	1701.86
765.49	1742.82
765.67	1728.49
765.84	1658.85
766.02	1703.91
766.20	1542.12
766.38	1646.57
766.56	1722.34
766.73	1695.72
766.91	1705.96
767.09	1685.48
767.27	1804.26
767.44	1632.23
767.62	1765.35
767.80	1720.29
767.98	1720.29
768.15	1685.48
768.33	1771.49
768.51	1714.15
768.69	1667.05
768.87	1648.61
769.04	1714.15
769.22	1789.92
769.40	1837.03
769.58	1800.16
769.75	1701.86
769.93	1712.10
770.11	1636.33
770.28	1724.39
770.46	1689.57
770.64	1748.97
770.82	1673.19
770.99	1687.53
771.17	1734.63
771.35	1708.01
771.53	1662.95
771.70	1693.67
771.88	1722.34
772.06	1671.14
772.23	1660.90
772.41	1695.72
772.59	1638.38
772.77	1681.38
772.94	1814.50
773.12	1740.77
773.30	1667.05
773.47	1767.40
773.65	1630.18
773.83	1732.58
774.01	1650.66
774.18	1621.99
774.36	1701.86
774.54	1650.66
774.71	1769.44
774.89	1626.09
775.07	1587.18
775.24	1660.90
775.42	1662.95
775.60	1765.35
775.78	1708.01
775.95	1628.14
776.13	1591.27
776.31	1589.22
776.48	1693.67
776.66	1798.12
776.84	1583.08
777.01	1667.05
777.19	1621.99
777.37	1695.72
777.54	1740.77
777.72	1828.84
777.90	1691.62
778.07	1609.70
778.25	1808.36
778.43	1804.26
778.60	1650.66
778.78	1787.88
778.96	1789.92
779.13	1624.04
779.31	1787.88
779.49	1705.96
779.66	1710.05
779.84	1619.94
780.01	1765.35
780.19	1652.71
780.37	1804.26
780.54	1714.15
780.72	1705.96
780.90	1624.04
781.07	1660.90
781.25	1632.23
781.43	1875.94
781.60	1640.42
781.78	1734.63
781.95	1824.74
782.13	1673.19
782.31	1753.06
782.48	1630.18
782.66	1669.09
782.83	1826.79
783.01	1728.49
783.19	1699.81
783.36	1671.14
783.54	1619.94
783.72	1771.49
783.89	1671.14
784.07	1667.05
784.24	1708.01
784.42	1722.34
784.60	1677.29
784.77	1781.73
784.95	1589.22
785.12	1628.14
785.30	1714.15
785.47	1673.19
785.65	1687.53
785.83	1660.90
786.00	1624.04
786.18	1691.62
786.35	1615.85
786.53	1691.62
786.71	1789.92
786.88	1673.19
787.06	1714.15
787.23	1671.14
787.41	1607.66
787.58	1722.34
787.76	1636.33
787.94	1771.49
788.11	1742.82
788.29	1665.00
788.46	1699.81
788.64	1632.23
788.81	1634.28
788.99	1624.04
789.16	1658.85
789.34	1828.84
789.52	1669.09
789.69	1669.09
789.87	1640.42
790.04	1710.05
790.22	1679.33
790.39	1859.56
790.57	1691.62
790.74	1658.85
790.92	1703.91
791.09	1619.94
791.27	1593.32
791.44	1748.97
791.62	1638.38
791.79	1714.15
791.97	1734.63
792.15	1906.66
792.32	1716.20
792.50	1789.92
792.67	1822.69
792.85	1824.74
793.02	1720.29
793.20	1734.63
793.37	1578.98
793.55	1693.67
793.72	1669.09
793.90	1681.38
794.07	1632.23
794.25	1642.47
794.42	1665.00
794.60	1681.38
794.77	1703.91
794.95	1689.57
795.12	1740.77
795.30	1624.04
795.47	1523.69
795.65	1837.03
795.82	1787.88
796.00	1677.29
796.17	1644.52
796.34	1656.81
796.52	1683.43
796.69	1808.36
796.87	1765.35
797.04	1724.39
797.22	1757.16
797.39	1679.33
797.57	1726.44
797.74	1679.33
797.92	1712.10
798.09	1650.66
798.27	1656.81
798.44	1685.48
798.62	1599.46
798.79	1751.01
798.96	1748.97
799.14	1693.67
799.31	1857.51
799.49	1718.25
799.66	1658.85
799.84	1710.05
800.01	1605.61
800.19	1677.29
800.36	1628.14
800.53	1662.95
800.71	1691.62
800.88	1816.55
801.06	1656.81
801.23	1615.85
801.41	1619.94
801.58	1681.38
801.75	1660.90
801.93	1710.05
802.10	1714.15
802.28	1685.48
802.45	1736.68
802.63	1759.21
802.80	1830.88
802.97	1673.19
803.15	1736.68
803.32	1632.23
803.50	1632.23
803.67	1656.81
803.84	1609.70
804.02	1742.82
804.19	1724.39
804.37	1603.56
804.54	1654.76
804.71	1683.43
804.89	1638.38
805.06	1646.57
805.24	1728.49
805.41	1658.85
805.58	1630.18
805.76	1810.40
805.93	1728.49
806.10	1773.54
806.28	1755.11
806.45	1677.29
806.63	1662.95
806.80	1730.53
806.97	1691.62
807.15	1771.49
807.32	1673.19
807.49	1701.86
807.67	1589.22
807.84	1632.23
808.01	1607.66
808.19	1787.88
808.36	1818.60
808.54	1677.29
808.71	1660.90
808.88	1660.90
809.06	1757.16
809.23	1767.40
809.40	1644.52
809.58	1734.63
809.75	1712.10
809.92	1558.50
810.10	1736.68
810.27	1665.00
810.44	1667.05
810.62	1728.49
810.79	1693.67
810.96	1718.25
811.14	1660.90
811.31	1800.16
811.48	1720.29
811.66	1732.58
811.83	1724.39
812.00	1712.10
812.18	1669.09
812.35	1779.68
812.52	1708.01
812.69	1662.95
812.87	1722.34
813.04	1624.04
813.21	1638.38
813.39	1681.38
813.56	1607.66
813.73	1767.40
813.91	1576.94
814.08	1710.05
814.25	1738.73
814.42	1650.66
814.60	1654.76
814.77	1720.29
814.94	1675.24
815.12	1662.95
815.29	1759.21
815.46	1724.39
815.63	1703.91
815.81	1638.38
815.98	1697.77
816.15	1728.49
816.33	1771.49
816.50	1644.52
816.67	1701.86
816.84	1716.20
817.02	1656.81
817.19	1621.99
817.36	1658.85
817.53	1697.77
817.71	1617.90
817.88	1751.01
818.05	1726.44
818.22	1607.66
818.40	1777.64
818.57	1710.05
818.74	1701.86
818.91	1744.87
819.09	1673.19
819.26	1730.53
819.43	1523.69
819.60	1687.53
819.78	1763.30
819.95	1796.07
820.12	1636.33
820.29	1808.36
820.47	1781.73
820.64	1632.23
820.81	1587.18
820.98	1697.77
821.15	1613.80
821.33	1751.01
821.50	1615.85
821.67	1779.68
821.84	1648.61
822.02	1675.24
822.19	1728.49
822.36	1689.57
822.53	1691.62
822.70	1722.34
822.88	1724.39
823.05	1765.35
823.22	1681.38
823.39	1742.82
823.56	1716.20
823.74	1730.53
823.91	1578.98
824.08	1644.52
824.25	1693.67
824.42	1812.45
824.60	1630.18
824.77	1665.00
824.94	1656.81
825.11	1736.68
825.28	1650.66
825.45	1697.77
825.63	1697.77
825.80	1656.81
825.97	1708.01
826.14	1751.01
826.31	1603.56
826.48	1771.49
826.66	1642.47
826.83	1652.71
827.00	1728.49
827.17	1648.61
827.34	1685.48
827.51	1665.00
827.69	1671.14
827.86	1621.99
828.03	1673.19
828.20	1722.34
828.37	1662.95
828.54	1734.63
828.71	1693.67
828.89	1794.02
829.06	1691.62
829.23	1767.40
829.40	1665.00
829.57	1626.09
829.74	1796.07
829.91	1662.95
830.09	1671.14
830.26	1712.10
830.43	1796.07
830.60	1740.77
830.77	1683.43
830.94	1736.68
831.11	1755.11
831.28	1746.92
831.46	1720.29
831.63	1646.57
831.80	1718.25
831.97	1669.09
832.14	1712.10
832.31	1740.77
832.48	1689.57
832.65	1773.54
832.82	1730.53
832.99	1656.81
833.17	1665.00
833.34	1779.68
833.51	1783.78
833.68	1599.46
833.85	1730.53
834.02	1648.61
834.19	1632.23
834.36	1712.10
834.53	1677.29
834.70	1808.36
834.87	1699.81
835.04	1681.38
835.22	1619.94
835.39	1732.58
835.56	1646.57
835.73	1701.86
835.90	1738.73
836.07	1640.42
836.24	1802.21
836.41	1609.70
836.58	1673.19
836.75	1701.86
836.92	1732.58
837.09	1683.43
837.26	1708.01
837.43	1638.38
837.60	1785.83
837.77	1712.10
837.94	1701.86
838.12	1710.05
838.29	1673.19
838.46	1708.01
838.63	1613.80
838.80	1658.85
838.97	1759.21
839.14	1771.49
839.31	1685.48
839.48	1732.58
839.65	1665.00
839.82	1808.36
839.99	1732.58
840.16	1794.02
840.33	1636.33
840.50	1714.15
840.67	1720.29
840.84	1562.60
841.01	1671.14
841.18	1665.00
841.35	1712.10
841.52	1757.16
841.69	1816.55
841.86	1685.48
842.03	1685.48
842.20	1732.58
842.37	1714.15
842.54	1699.81
842.71	1693.67
842.88	1708.01
843.05	1748.97
843.22	1689.57
843.39	1767.40
843.56	1652.71
843.73	1714.15
843.90	1714.15
844.07	1691.62
844.24	1773.54
844.41	1734.63
844.58	1695.72
844.75	1689.57
844.92	1759.21
845.09	1720.29
845.26	1679.33
845.43	1720.29
845.60	1722.34
845.77	1734.63
845.94	1679.33
846.10	1751.01
846.27	1619.94
846.44	1691.62
846.61	1654.76
846.78	1722.34
846.95	1773.54
847.12	1683.43
847.29	1710.05
847.46	1646.57
847.63	1691.62
847.80	1648.61
847.97	1611.75
848.14	1798.12
848.31	1726.44
848.48	1583.08
848.65	1697.77
848.82	1605.61
848.98	1808.36
849.15	1699.81
849.32	1757.16
849.49	1834.98
849.66	1626.09
849.83	1724.39
850.00	1632.23
850.17	1726.44
850.34	1765.35
850.51	1587.18
850.68	1665.00
850.85	1800.16
851.01	1722.34
851.18	1712.10
851.35	1685.48
851.52	1712.10
851.69	1744.87
851.86	1673.19
852.03	1705.96
852.20	1746.92
852.37	1679.33
852.53	1665.00
852.70	1703.91
852.87	1587.18
853.04	1675.24
853.21	1763.30
853.38	1785.83
853.55	1806.31
853.72	1777.64
853.89	1679.33
854.05	1605.61
854.22	1665.00
854.39	1712.10
854.56	1658.85
854.73	1787.88
854.90	1667.05
855.07	1677.29
855.23	1724.39
855.40	1681.38
855.57	1677.29
855.74	1617.90
855.91	1896.42
856.08	1650.66
856.25	1650.66
856.41	1640.42
856.58	1662.95
856.75	1525.74
856.92	1591.27
857.09	1705.96
857.26	1566.70
857.42	1658.85
857.59	1767.40
857.76	1665.00
857.93	1701.86
858.10	1716.20
858.27	1638.38
858.43	1730.53
858.60	1693.67
858.77	1701.86
858.94	1638.38
859.11	1767.40
859.27	1689.57
859.44	1746.92
859.61	1767.40
859.78	1755.11
859.95	1712.10
860.12	1636.33
860.28	1775.59
860.45	1759.21
860.62	1693.67
860.79	1619.94
860.95	1675.24
861.12	1675.24
861.29	1644.52
861.46	1712.10
861.63	1671.14
861.79	1714.15
861.96	1609.70
862.13	1804.26
862.30	1787.88
862.47	1624.04
862.63	1652.71
862.80	1730.53
862.97	1683.43
863.14	1687.53
863.30	1763.30
863.47	1587.18
863.64	1804.26
863.81	1710.05
863.97	1587.18
864.14	1671.14
864.31	1648.61
864.48	1724.39
864.65	1677.29
864.81	1734.63
864.98	1658.85
865.15	1763.30
865.32	1744.87
865.48	1796.07
865.65	1757.16
865.82	1576.94
865.98	1732.58
866.15	1794.02
866.32	1679.33
866.49	1650.66
866.65	1730.53
866.82	1708.01
866.99	1710.05
867.16	1660.90
867.32	1679.33
867.49	1701.86
867.66	1687.53
867.83	1683.43
867.99	1650.66
868.16	1705.96
868.33	1654.76
868.49	1683.43
868.66	1710.05
868.83	1755.11
868.99	1697.77
869.16	1634.28
869.33	1740.77
869.50	1779.68
869.66	1701.86
869.83	1708.01
870.00	1607.66
870.16	1730.53
870.33	1683.43
870.50	1703.91
870.66	1667.05
870.83	1849.32
871.00	1732.58
871.17	1636.33
871.33	1738.73
871.50	1705.96
871.67	1626.09
871.83	1687.53
872.00	1847.27
872.17	1648.61
872.33	1730.53
872.50	1802.21
872.67	1669.09
872.83	1615.85
873.00	1785.83
873.17	1654.76
873.33	1671.14
873.50	1701.86
873.67	1646.57
873.83	1652.71
874.00	1669.09
874.16	1689.57
874.33	1699.81
874.50	1669.09
874.66	1716.20
874.83	1687.53
875.00	1742.82
875.16	1667.05
875.33	1691.62
875.50	1527.78
875.66	1669.09
875.83	1742.82
875.99	1738.73
876.16	1691.62
876.33	1628.14
876.49	1718.25
876.66	1712.10
876.83	1705.96
876.99	1636.33
877.16	1695.72
877.32	1712.10
877.49	1650.66
877.66	1781.73
877.82	1736.68
877.99	1665.00
878.15	1736.68
878.32	1722.34
878.49	1712.10
878.65	1708.01
878.82	1791.97
878.98	1624.04
879.15	1791.97
879.32	1755.11
879.48	1708.01
879.65	1619.94
879.81	1665.00
879.98	1753.06
880.15	1638.38
880.31	1808.36
880.48	1609.70
880.64	1789.92
880.81	1751.01
880.97	1779.68
881.14	1687.53
881.31	1615.85
881.47	1798.12
881.64	1705.96
881.80	1640.42
881.97	1718.25
882.13	1718.25
882.30	1574.89
882.47	1562.60
882.63	1650.66
882.80	1619.94
882.96	1632.23
883.13	1699.81
883.29	1685.48
883.46	1665.00
883.62	1771.49
883.79	1697.77
883.95	1783.78
884.12	1628.14
884.29	1732.58
884.45	1626.09
884.62	1755.11
884.78	1587.18
884.95	1736.68
885.11	1613.80
885.28	1828.84
885.44	1724.39
885.61	1724.39
885.77	1800.16
885.94	1714.15
886.10	1656.81
886.27	1658.85
886.43	1712.10
886.60	1687.53
886.76	1722.34
886.93	1646.57
887.09	1730.53
887.26	1593.32
887.42	1705.96
887.59	1759.21
887.75	1773.54
887.92	1746.92
888.08	1714.15
888.25	1767.40
888.41	1767.40
888.58	1576.94
888.74	1638.38
888.91	1665.00
>>>>>End Processed Spectral Data<<<<<
