SpectraSuite Data File
++++++++++++++++++++++++++++++++++++
Date: Mon Jun 06 12:38:37 CEST 2016
User: root
Dark Spectrum Present: No
Reference Spectrum Present: No
Number of Sampled Component Spectra: 1
Spectrometers: USB4C02835
Integration Time (usec): 100000 (USB4C02835)
Spectra Averaged: 1 (USB4C02835)
Boxcar Smoothing: 0 (USB4C02835)
Correct for Electrical Dark: No (USB4C02835)
Strobe/Lamp Enabled: No (USB4C02835)
Correct for Detector Non-linearity: No (USB4C02835)
Correct for Stray Light: No (USB4C02835)
Number of Pixels in Processed Spectrum: 3648
>>>>>Begin Processed Spectral Data<<<<<
177.47	1492.97
177.69	1492.97
177.91	1492.97
178.13	1452.01
178.36	1439.72
178.58	1679.33
178.80	1654.76
179.02	1683.43
179.24	1550.31
179.46	1710.05
179.68	1767.40
179.90	1724.39
180.13	1742.82
180.35	1640.42
180.57	1638.38
180.79	1777.64
181.01	1710.05
181.23	1814.50
181.45	1804.26
181.67	1730.53
181.90	1755.11
182.12	1658.85
182.34	1691.62
182.56	1673.19
182.78	1755.11
183.00	1726.44
183.22	1763.30
183.44	1572.84
183.66	1804.26
183.89	1757.16
184.11	1712.10
184.33	1802.21
184.55	1814.50
184.77	1742.82
184.99	1779.68
185.21	1689.57
185.43	1832.93
185.65	1681.38
185.87	1740.77
186.10	1892.32
186.32	1847.27
186.54	1689.57
186.76	1755.11
186.98	1746.92
187.20	1695.72
187.42	1689.57
187.64	1665.00
187.86	1728.49
188.08	1765.35
188.30	1687.53
188.52	1701.86
188.75	1781.73
188.97	1767.40
189.19	1646.57
189.41	1675.24
189.63	1673.19
189.85	1726.44
190.07	1646.57
190.29	1562.60
190.51	1669.09
190.73	1605.61
190.95	1728.49
191.17	1697.77
191.39	1605.61
191.61	1703.91
191.84	1708.01
192.06	1667.05
192.28	1540.07
192.50	1820.64
192.72	1685.48
192.94	1726.44
193.16	1697.77
193.38	1710.05
193.60	1619.94
193.82	1740.77
194.04	1783.78
194.26	1710.05
194.48	1650.66
194.70	1681.38
194.92	1673.19
195.14	1755.11
195.36	1560.55
195.58	1681.38
195.80	1640.42
196.02	1605.61
196.24	1642.47
196.46	1710.05
196.69	1650.66
196.91	1853.41
197.13	1658.85
197.35	1697.77
197.57	1726.44
197.79	1755.11
198.01	1701.86
198.23	1665.00
198.45	1722.34
198.67	1632.23
198.89	1705.96
199.11	1744.87
199.33	1662.95
199.55	1562.60
199.77	1765.35
199.99	1804.26
200.21	1675.24
200.43	1701.86
200.65	1624.04
200.87	1605.61
201.09	1708.01
201.31	1718.25
201.53	1742.82
201.75	1716.20
201.97	1734.63
202.19	1701.86
202.41	1697.77
202.63	1796.07
202.85	1687.53
203.07	1710.05
203.29	1597.42
203.51	1624.04
203.73	1665.00
203.95	1806.31
204.17	1701.86
204.39	1771.49
204.61	1769.44
204.83	1675.24
205.05	1777.64
205.27	1826.79
205.49	1810.40
205.71	1679.33
205.93	1591.27
206.15	1708.01
206.37	1687.53
206.59	1669.09
206.81	1632.23
207.03	1591.27
207.25	1710.05
207.47	1798.12
207.69	1656.81
207.91	1861.60
208.13	1755.11
208.34	1677.29
208.56	1656.81
208.78	1718.25
209.00	1597.42
209.22	1687.53
209.44	1675.24
209.66	1599.46
209.88	1687.53
210.10	1755.11
210.32	1708.01
210.54	1761.25
210.76	1740.77
210.98	1705.96
211.20	1511.40
211.42	1714.15
211.64	1763.30
211.86	1695.72
212.08	1667.05
212.30	1630.18
212.52	1708.01
212.74	1736.68
212.96	1640.42
213.17	1763.30
213.39	1699.81
213.61	1779.68
213.83	1779.68
214.05	1705.96
214.27	1767.40
214.49	1681.38
214.71	1683.43
214.93	1722.34
215.15	1744.87
215.37	1701.86
215.59	1581.03
215.81	1724.39
216.03	1773.54
216.24	1738.73
216.46	1679.33
216.68	1689.57
216.90	1710.05
217.12	1761.25
217.34	1701.86
217.56	1812.45
217.78	1763.30
218.00	1667.05
218.22	1677.29
218.44	1724.39
218.66	1724.39
218.87	1873.89
219.09	1697.77
219.31	1812.45
219.53	1730.53
219.75	1730.53
219.97	1718.25
220.19	1689.57
220.41	1742.82
220.63	1751.01
220.85	1769.44
221.06	1611.75
221.28	1834.98
221.50	1736.68
221.72	1708.01
221.94	1665.00
222.16	1701.86
222.38	1757.16
222.60	1804.26
222.82	1566.70
223.03	1693.67
223.25	1679.33
223.47	1800.16
223.69	1880.04
223.91	1753.06
224.13	1714.15
224.35	1630.18
224.57	1751.01
224.78	1798.12
225.00	1675.24
225.22	1710.05
225.44	1662.95
225.66	1742.82
225.88	1701.86
226.10	1697.77
226.32	1669.09
226.53	1804.26
226.75	1615.85
226.97	1562.60
227.19	1636.33
227.41	1675.24
227.63	1765.35
227.85	1642.47
228.06	1617.90
228.28	1667.05
228.50	1757.16
228.72	1591.27
228.94	1640.42
229.16	1640.42
229.37	1665.00
229.59	1673.19
229.81	1832.93
230.03	1652.71
230.25	1748.97
230.47	1650.66
230.69	1630.18
230.90	1798.12
231.12	1617.90
231.34	1691.62
231.56	1824.74
231.78	1701.86
232.00	1726.44
232.21	1728.49
232.43	1613.80
232.65	1615.85
232.87	1683.43
233.09	1671.14
233.30	1675.24
233.52	1736.68
233.74	1648.61
233.96	1726.44
234.18	1644.52
234.40	1720.29
234.61	1886.18
234.83	1634.28
235.05	1591.27
235.27	1804.26
235.49	1773.54
235.70	1701.86
235.92	1757.16
236.14	1746.92
236.36	1806.31
236.58	1583.08
236.79	1685.48
237.01	1740.77
237.23	1658.85
237.45	1779.68
237.67	1685.48
237.88	1708.01
238.10	1783.78
238.32	1736.68
238.54	1662.95
238.76	1671.14
238.97	1677.29
239.19	1626.09
239.41	1732.58
239.63	1763.30
239.85	1714.15
240.06	1724.39
240.28	1718.25
240.50	1763.30
240.72	1634.28
240.93	1658.85
241.15	1767.40
241.37	1710.05
241.59	1767.40
241.81	1697.77
242.02	1726.44
242.24	1689.57
242.46	1654.76
242.68	1587.18
242.89	1701.86
243.11	1722.34
243.33	1732.58
243.55	1775.59
243.76	1665.00
243.98	1675.24
244.20	1632.23
244.42	1708.01
244.64	1701.86
244.85	1679.33
245.07	1650.66
245.29	1722.34
245.51	1734.63
245.72	1615.85
245.94	1798.12
246.16	1738.73
246.38	1685.48
246.59	1669.09
246.81	1726.44
247.03	1691.62
247.24	1605.61
247.46	1665.00
247.68	1675.24
247.90	1667.05
248.11	1628.14
248.33	1693.67
248.55	1630.18
248.77	1701.86
248.98	1755.11
249.20	1751.01
249.42	1689.57
249.64	1734.63
249.85	1697.77
250.07	1673.19
250.29	1716.20
250.50	1767.40
250.72	1591.27
250.94	1693.67
251.16	1888.23
251.37	1746.92
251.59	1732.58
251.81	1794.02
252.02	1738.73
252.24	1665.00
252.46	1773.54
252.68	1621.99
252.89	1628.14
253.11	1613.80
253.33	1818.60
253.54	1771.49
253.76	1640.42
253.98	1714.15
254.20	1705.96
254.41	1636.33
254.63	1624.04
254.85	1697.77
255.06	1714.15
255.28	1714.15
255.50	1677.29
255.71	1632.23
255.93	1621.99
256.15	1738.73
256.36	1730.53
256.58	1708.01
256.80	1714.15
257.02	1665.00
257.23	1777.64
257.45	1640.42
257.67	1669.09
257.88	1710.05
258.10	1757.16
258.32	1753.06
258.53	1710.05
258.75	1744.87
258.97	1689.57
259.18	1654.76
259.40	1718.25
259.62	1802.21
259.83	1757.16
260.05	1812.45
260.27	2002.91
260.48	1734.63
260.70	1632.23
260.92	1667.05
261.13	1800.16
261.35	1671.14
261.57	1751.01
261.78	1587.18
262.00	1615.85
262.22	1669.09
262.43	1609.70
262.65	1701.86
262.86	1697.77
263.08	1837.03
263.30	1669.09
263.51	1574.89
263.73	1634.28
263.95	1701.86
264.16	1681.38
264.38	1665.00
264.60	1701.86
264.81	1730.53
265.03	1716.20
265.25	1675.24
265.46	1673.19
265.68	1800.16
265.89	1732.58
266.11	1607.66
266.33	1757.16
266.54	1826.79
266.76	1742.82
266.98	1722.34
267.19	1777.64
267.41	1720.29
267.62	1734.63
267.84	1626.09
268.06	1742.82
268.27	1701.86
268.49	1736.68
268.70	1703.91
268.92	1738.73
269.14	1671.14
269.35	1671.14
269.57	1693.67
269.79	1716.20
270.00	1689.57
270.22	1806.31
270.43	1624.04
270.65	1540.07
270.87	1630.18
271.08	1669.09
271.30	1736.68
271.51	1708.01
271.73	1775.59
271.95	1802.21
272.16	1691.62
272.38	1720.29
272.59	1689.57
272.81	1681.38
273.02	1724.39
273.24	1689.57
273.46	1761.25
273.67	1644.52
273.89	1611.75
274.10	1673.19
274.32	1691.62
274.54	1783.78
274.75	1687.53
274.97	1642.47
275.18	1798.12
275.40	1671.14
275.61	1654.76
275.83	1705.96
276.05	1615.85
276.26	1613.80
276.48	1775.59
276.69	1652.71
276.91	1609.70
277.12	1734.63
277.34	1761.25
277.55	1736.68
277.77	1701.86
277.99	1734.63
278.20	1566.70
278.42	1572.84
278.63	1628.14
278.85	1656.81
279.06	1599.46
279.28	1595.37
279.49	1781.73
279.71	1683.43
279.93	1798.12
280.14	1703.91
280.36	1738.73
280.57	1800.16
280.79	1787.88
281.00	1658.85
281.22	1654.76
281.43	1742.82
281.65	1615.85
281.86	1652.71
282.08	1746.92
282.29	1736.68
282.51	1609.70
282.73	1601.51
282.94	1654.76
283.16	1699.81
283.37	1869.80
283.59	1726.44
283.80	1736.68
284.02	1667.05
284.23	1695.72
284.45	1734.63
284.66	1660.90
284.88	1677.29
285.09	1746.92
285.31	1728.49
285.52	1757.16
285.74	1624.04
285.95	1712.10
286.17	1710.05
286.38	1693.67
286.60	1605.61
286.81	1683.43
287.03	1687.53
287.24	1744.87
287.46	1712.10
287.67	1656.81
287.89	1771.49
288.10	1669.09
288.32	1662.95
288.53	1714.15
288.75	1662.95
288.96	1759.21
289.18	1673.19
289.39	1656.81
289.61	1789.92
289.82	1767.40
290.04	1746.92
290.25	1605.61
290.47	1714.15
290.68	1732.58
290.90	1730.53
291.11	1652.71
291.33	1738.73
291.54	1638.38
291.76	1648.61
291.97	1726.44
292.18	1761.25
292.40	1708.01
292.61	1714.15
292.83	1783.78
293.04	1724.39
293.26	1761.25
293.47	1726.44
293.69	1613.80
293.90	1679.33
294.12	1712.10
294.33	1691.62
294.55	1658.85
294.76	1724.39
294.97	1755.11
295.19	1857.51
295.40	1656.81
295.62	1691.62
295.83	1785.83
296.05	1656.81
296.26	1824.74
296.48	1695.72
296.69	1728.49
296.90	1732.58
297.12	1761.25
297.33	1779.68
297.55	1726.44
297.76	1681.38
297.98	1728.49
298.19	1738.73
298.41	1746.92
298.62	1617.90
298.83	1718.25
299.05	1718.25
299.26	1695.72
299.48	1695.72
299.69	1697.77
299.90	1687.53
300.12	1636.33
300.33	1703.91
300.55	1734.63
300.76	1689.57
300.98	1677.29
301.19	1722.34
301.40	1798.12
301.62	1662.95
301.83	1689.57
302.05	1744.87
302.26	1662.95
302.47	1701.86
302.69	1652.71
302.90	1656.81
303.12	1673.19
303.33	1675.24
303.54	1812.45
303.76	1689.57
303.97	1732.58
304.19	1804.26
304.40	1613.80
304.61	1667.05
304.83	1738.73
305.04	1814.50
305.26	1705.96
305.47	1751.01
305.68	1710.05
305.90	1617.90
306.11	1789.92
306.33	1677.29
306.54	1724.39
306.75	1652.71
306.97	1601.51
307.18	1681.38
307.39	1644.52
307.61	1746.92
307.82	1708.01
308.04	1742.82
308.25	1628.14
308.46	1748.97
308.68	1755.11
308.89	1726.44
309.10	1705.96
309.32	1759.21
309.53	1703.91
309.74	1660.90
309.96	1607.66
310.17	1658.85
310.39	1619.94
310.60	1718.25
310.81	1671.14
311.03	1632.23
311.24	1632.23
311.45	1705.96
311.67	1834.98
311.88	1660.90
312.09	1746.92
312.31	1662.95
312.52	1630.18
312.73	1708.01
312.95	1691.62
313.16	1548.26
313.37	1794.02
313.59	1742.82
313.80	1740.77
314.01	1796.07
314.23	1650.66
314.44	1628.14
314.65	1589.22
314.87	1681.38
315.08	1638.38
315.29	1757.16
315.51	1718.25
315.72	1583.08
315.93	1804.26
316.15	1742.82
316.36	1658.85
316.57	1761.25
316.79	1755.11
317.00	1671.14
317.21	1773.54
317.43	1685.48
317.64	1701.86
317.85	1679.33
318.07	1609.70
318.28	1734.63
318.49	1828.84
318.70	1964.00
318.92	1845.22
319.13	1822.69
319.34	1847.27
319.56	1736.68
319.77	1839.08
319.98	1830.88
320.20	1742.82
320.41	1767.40
320.62	1761.25
320.83	1640.42
321.05	1775.59
321.26	1624.04
321.47	1714.15
321.69	1796.07
321.90	1642.47
322.11	1708.01
322.32	1732.58
322.54	1726.44
322.75	1693.67
322.96	1746.92
323.18	1665.00
323.39	1570.79
323.60	1675.24
323.81	1689.57
324.03	1656.81
324.24	1689.57
324.45	1757.16
324.66	1669.09
324.88	1724.39
325.09	1757.16
325.30	1738.73
325.52	1755.11
325.73	1730.53
325.94	1714.15
326.15	1681.38
326.37	1650.66
326.58	1701.86
326.79	1757.16
327.00	1595.37
327.22	1691.62
327.43	1689.57
327.64	1630.18
327.85	1697.77
328.07	1689.57
328.28	1755.11
328.49	1656.81
328.70	1724.39
328.92	1681.38
329.13	1681.38
329.34	1771.49
329.55	1837.03
329.76	1765.35
329.98	1730.53
330.19	1802.21
330.40	1607.66
330.61	1601.51
330.83	1789.92
331.04	1619.94
331.25	1693.67
331.46	1675.24
331.68	1601.51
331.89	1777.64
332.10	1667.05
332.31	1593.32
332.52	1685.48
332.74	1753.06
332.95	1636.33
333.16	1695.72
333.37	1718.25
333.58	1818.60
333.80	1697.77
334.01	1574.89
334.22	1675.24
334.43	1619.94
334.64	1705.96
334.86	1597.42
335.07	1642.47
335.28	1718.25
335.49	1621.99
335.70	1673.19
335.92	1779.68
336.13	1824.74
336.34	1789.92
336.55	1775.59
336.76	1699.81
336.98	1527.78
337.19	1699.81
337.40	1849.32
337.61	1880.04
337.82	1656.81
338.04	1771.49
338.25	1646.57
338.46	1718.25
338.67	1779.68
338.88	1722.34
339.09	1640.42
339.31	1617.90
339.52	1730.53
339.73	1556.46
339.94	1685.48
340.15	1718.25
340.36	1714.15
340.58	1705.96
340.79	1648.61
341.00	1697.77
341.21	1648.61
341.42	1841.12
341.63	1685.48
341.85	1712.10
342.06	1728.49
342.27	1675.24
342.48	1753.06
342.69	1611.75
342.90	1714.15
343.12	1716.20
343.33	1628.14
343.54	1652.71
343.75	1757.16
343.96	1632.23
344.17	1609.70
344.38	1667.05
344.60	1679.33
344.81	1720.29
345.02	1642.47
345.23	1767.40
345.44	1734.63
345.65	1767.40
345.86	1753.06
346.07	1697.77
346.29	1699.81
346.50	1738.73
346.71	1705.96
346.92	1748.97
347.13	1830.88
347.34	1681.38
347.55	1681.38
347.76	1691.62
347.98	1576.94
348.19	1644.52
348.40	1824.74
348.61	1673.19
348.82	1730.53
349.03	1671.14
349.24	1689.57
349.45	1867.75
349.66	1597.42
349.88	1755.11
350.09	1665.00
350.30	1751.01
350.51	1816.55
350.72	1714.15
350.93	1732.58
351.14	1769.44
351.35	1730.53
351.56	1736.68
351.77	1681.38
351.99	1683.43
352.20	1781.73
352.41	1775.59
352.62	1652.71
352.83	1683.43
353.04	1662.95
353.25	1744.87
353.46	1802.21
353.67	1746.92
353.88	1570.79
354.09	1720.29
354.30	1642.47
354.52	1665.00
354.73	1699.81
354.94	1646.57
355.15	1769.44
355.36	1773.54
355.57	1619.94
355.78	1736.68
355.99	1648.61
356.20	1669.09
356.41	1699.81
356.62	1759.21
356.83	1804.26
357.04	1810.40
357.25	1593.32
357.46	1632.23
357.68	1572.84
357.89	1730.53
358.10	1644.52
358.31	1722.34
358.52	1644.52
358.73	1611.75
358.94	1660.90
359.15	1619.94
359.36	1732.58
359.57	1685.48
359.78	1667.05
359.99	1738.73
360.20	1701.86
360.41	1710.05
360.62	1714.15
360.83	1730.53
361.04	1677.29
361.25	1724.39
361.46	1783.78
361.67	1695.72
361.88	1708.01
362.09	1726.44
362.30	1726.44
362.51	1607.66
362.72	1744.87
362.93	1724.39
363.14	1746.92
363.35	1759.21
363.56	1675.24
363.78	1722.34
363.99	1777.64
364.20	1658.85
364.41	1771.49
364.62	1832.93
364.83	1722.34
365.04	1703.91
365.25	1693.67
365.46	1843.17
365.67	1531.88
365.88	1640.42
366.09	1708.01
366.30	1703.91
366.51	1755.11
366.72	1636.33
366.93	1714.15
367.14	1701.86
367.35	1789.92
367.56	1726.44
367.77	1742.82
367.98	1681.38
368.18	1697.77
368.39	1746.92
368.60	1669.09
368.81	1681.38
369.02	1710.05
369.23	1775.59
369.44	1603.56
369.65	1646.57
369.86	1738.73
370.07	1806.31
370.28	1640.42
370.49	1746.92
370.70	1751.01
370.91	1695.72
371.12	1624.04
371.33	1736.68
371.54	1638.38
371.75	1802.21
371.96	1611.75
372.17	1681.38
372.38	1699.81
372.59	1757.16
372.80	1703.91
373.01	1718.25
373.22	1695.72
373.43	1767.40
373.64	1640.42
373.85	1757.16
374.06	1783.78
374.26	1681.38
374.47	1628.14
374.68	1783.78
374.89	1761.25
375.10	1660.90
375.31	1759.21
375.52	1685.48
375.73	1671.14
375.94	1619.94
376.15	1689.57
376.36	1673.19
376.57	1679.33
376.78	1677.29
376.99	1773.54
377.20	1800.16
377.40	1669.09
377.61	1748.97
377.82	1667.05
378.03	1806.31
378.24	1744.87
378.45	1679.33
378.66	1718.25
378.87	1603.56
379.08	1611.75
379.29	1685.48
379.50	1710.05
379.71	1701.86
379.91	1763.30
380.12	1722.34
380.33	1759.21
380.54	1685.48
380.75	1652.71
380.96	1667.05
381.17	1669.09
381.38	1693.67
381.59	1681.38
381.80	1714.15
382.00	1751.01
382.21	1789.92
382.42	1828.84
382.63	2009.06
382.84	1699.81
383.05	1771.49
383.26	1777.64
383.47	1734.63
383.68	1744.87
383.88	1689.57
384.09	1681.38
384.30	1877.99
384.51	1834.98
384.72	1718.25
384.93	1589.22
385.14	1681.38
385.35	1761.25
385.55	1658.85
385.76	1816.55
385.97	1732.58
386.18	1644.52
386.39	1650.66
386.60	1703.91
386.81	1679.33
387.02	1685.48
387.22	1665.00
387.43	1744.87
387.64	1755.11
387.85	1896.42
388.06	2170.85
388.27	4181.95
388.48	6836.12
388.68	8251.27
388.89	9729.90
389.10	9873.26
389.31	8535.93
389.52	7716.75
389.73	6975.38
389.93	6274.98
390.14	5922.73
390.35	5261.23
390.56	4659.13
390.77	3758.02
390.98	3022.80
391.18	2443.23
391.39	2082.78
391.60	1822.69
391.81	1748.97
392.02	1732.58
392.23	1839.08
392.43	1775.59
392.64	1730.53
392.85	1677.29
393.06	1861.60
393.27	1685.48
393.47	1646.57
393.68	1798.12
393.89	1652.71
394.10	1798.12
394.31	1611.75
394.52	1687.53
394.72	1701.86
394.93	1869.80
395.14	1624.04
395.35	1753.06
395.56	1634.28
395.76	1791.97
395.97	1828.84
396.18	1757.16
396.39	1822.69
396.60	1918.95
396.80	1857.51
397.01	1814.50
397.22	1828.84
397.43	1800.16
397.64	1728.49
397.84	1853.41
398.05	1869.80
398.26	1722.34
398.47	1767.40
398.67	1802.21
398.88	1730.53
399.09	1806.31
399.30	1683.43
399.51	1691.62
399.71	1628.14
399.92	1720.29
400.13	1673.19
400.34	1716.20
400.54	1705.96
400.75	1773.54
400.96	1775.59
401.17	1847.27
401.37	1712.10
401.58	1648.61
401.79	1697.77
402.00	1841.12
402.21	1992.67
402.41	1947.62
402.62	1914.85
402.83	2035.68
403.04	2013.15
403.24	2070.50
403.45	1816.55
403.66	1943.52
403.87	1855.46
404.07	1951.71
404.28	1904.61
404.49	1861.60
404.70	1734.63
404.90	1771.49
405.11	1771.49
405.32	1732.58
405.52	1736.68
405.73	1615.85
405.94	1642.47
406.15	1619.94
406.35	1736.68
406.56	1718.25
406.77	1765.35
406.98	1697.77
407.18	1654.76
407.39	1789.92
407.60	1699.81
407.80	1703.91
408.01	1730.53
408.22	1742.82
408.43	1695.72
408.63	1738.73
408.84	1710.05
409.05	1708.01
409.25	1578.98
409.46	1652.71
409.67	1628.14
409.88	1691.62
410.08	1669.09
410.29	1683.43
410.50	1689.57
410.70	1742.82
410.91	1603.56
411.12	1667.05
411.32	1630.18
411.53	1705.96
411.74	1759.21
411.95	1787.88
412.15	1683.43
412.36	1808.36
412.57	1773.54
412.77	1804.26
412.98	1755.11
413.19	1726.44
413.39	1722.34
413.60	1748.97
413.81	1853.41
414.01	1720.29
414.22	1716.20
414.43	1697.77
414.63	1730.53
414.84	1744.87
415.05	1665.00
415.25	1601.51
415.46	1753.06
415.67	1687.53
415.87	1656.81
416.08	1759.21
416.29	1650.66
416.49	1789.92
416.70	1685.48
416.91	1660.90
417.11	1744.87
417.32	1705.96
417.53	1796.07
417.73	1701.86
417.94	1701.86
418.15	1742.82
418.35	1652.71
418.56	1718.25
418.77	1816.55
418.97	1665.00
419.18	1671.14
419.38	1574.89
419.59	1665.00
419.80	1822.69
420.00	1687.53
420.21	1701.86
420.42	1796.07
420.62	1679.33
420.83	1595.37
421.04	1755.11
421.24	1605.61
421.45	1732.58
421.65	1748.97
421.86	1628.14
422.07	1759.21
422.27	1710.05
422.48	1669.09
422.69	1683.43
422.89	1742.82
423.10	1626.09
423.30	1675.24
423.51	1755.11
423.72	1714.15
423.92	1820.64
424.13	1656.81
424.33	1654.76
424.54	1691.62
424.75	1726.44
424.95	1740.77
425.16	1726.44
425.36	1742.82
425.57	1837.03
425.78	1787.88
425.98	1734.63
426.19	1705.96
426.39	1624.04
426.60	1734.63
426.81	1841.12
427.01	1681.38
427.22	1681.38
427.42	1595.37
427.63	1609.70
427.83	1789.92
428.04	1822.69
428.25	1726.44
428.45	1757.16
428.66	1783.78
428.86	1708.01
429.07	1677.29
429.28	1775.59
429.48	1624.04
429.69	1619.94
429.89	1832.93
430.10	1740.77
430.30	1781.73
430.51	1730.53
430.71	1601.51
430.92	1703.91
431.13	1640.42
431.33	1691.62
431.54	1800.16
431.74	1777.64
431.95	1843.17
432.15	1689.57
432.36	1703.91
432.56	1679.33
432.77	1804.26
432.98	1859.56
433.18	1693.67
433.39	1683.43
433.59	1734.63
433.80	1808.36
434.00	1769.44
434.21	1669.09
434.41	1632.23
434.62	1884.13
434.82	1644.52
435.03	1671.14
435.23	1681.38
435.44	1509.35
435.64	1783.78
435.85	1689.57
436.06	1787.88
436.26	1738.73
436.47	1720.29
436.67	1714.15
436.88	1695.72
437.08	1703.91
437.29	1871.84
437.49	1761.25
437.70	1810.40
437.90	1710.05
438.11	1886.18
438.31	1744.87
438.52	1861.60
438.72	1871.84
438.93	1892.32
439.13	1699.81
439.34	1798.12
439.54	1753.06
439.75	1794.02
439.95	1691.62
440.16	1744.87
440.36	1710.05
440.57	1679.33
440.77	1708.01
440.98	1767.40
441.18	1689.57
441.39	1644.52
441.59	1751.01
441.80	1808.36
442.00	1683.43
442.21	1744.87
442.41	1701.86
442.62	1832.93
442.82	1728.49
443.02	1777.64
443.23	1677.29
443.43	1675.24
443.64	1740.77
443.84	1677.29
444.05	1808.36
444.25	1767.40
444.46	1732.58
444.66	1693.67
444.87	1832.93
445.07	1667.05
445.28	1724.39
445.48	1863.65
445.69	1789.92
445.89	1875.94
446.09	1746.92
446.30	2004.96
446.50	2621.40
446.71	3751.88
446.91	4362.17
447.12	4757.43
447.32	4679.61
447.53	4370.37
447.73	3792.84
447.93	3547.08
448.14	3358.67
448.34	3196.88
448.55	2924.50
448.75	2729.94
448.96	2678.74
449.16	2336.73
449.36	2267.10
449.57	2052.06
449.77	1927.14
449.98	1738.73
450.18	1804.26
450.39	1839.08
450.59	1808.36
450.79	1660.90
451.00	1740.77
451.20	1804.26
451.41	1763.30
451.61	1753.06
451.81	1746.92
452.02	1638.38
452.22	1699.81
452.43	1757.16
452.63	1675.24
452.84	1726.44
453.04	1744.87
453.24	1697.77
453.45	1675.24
453.65	1769.44
453.86	1679.33
454.06	1714.15
454.26	1744.87
454.47	1662.95
454.67	1800.16
454.87	1699.81
455.08	1673.19
455.28	1865.70
455.49	1687.53
455.69	1736.68
455.89	1808.36
456.10	1806.31
456.30	1701.86
456.51	1734.63
456.71	1699.81
456.91	1681.38
457.12	1742.82
457.32	1722.34
457.52	1679.33
457.73	1773.54
457.93	1640.42
458.14	1652.71
458.34	1662.95
458.54	1636.33
458.75	1748.97
458.95	1710.05
459.15	1724.39
459.36	1695.72
459.56	1751.01
459.76	1849.32
459.97	1677.29
460.17	1665.00
460.37	1810.40
460.58	1722.34
460.78	1683.43
460.99	1746.92
461.19	1808.36
461.39	1665.00
461.60	1697.77
461.80	1767.40
462.00	1714.15
462.21	1763.30
462.41	1732.58
462.61	1726.44
462.82	1685.48
463.02	1742.82
463.22	1705.96
463.43	1791.97
463.63	1753.06
463.83	1812.45
464.04	1714.15
464.24	1783.78
464.44	1658.85
464.64	1798.12
464.85	1720.29
465.05	1720.29
465.25	1755.11
465.46	1699.81
465.66	1675.24
465.86	1777.64
466.07	1769.44
466.27	1755.11
466.47	1642.47
466.68	1658.85
466.88	1812.45
467.08	1751.01
467.29	1708.01
467.49	1701.86
467.69	1699.81
467.89	1732.58
468.10	1746.92
468.30	1683.43
468.50	1877.99
468.71	1775.59
468.91	1597.42
469.11	1837.03
469.31	1669.09
469.52	1710.05
469.72	1820.64
469.92	1859.56
470.13	1781.73
470.33	1773.54
470.53	1814.50
470.73	2136.03
470.94	2322.40
471.14	2342.88
471.34	2475.99
471.54	2465.75
471.75	2162.66
471.95	2207.71
472.15	2125.79
472.36	2133.98
472.56	1951.71
472.76	2039.78
472.96	1929.19
473.17	1951.71
473.37	1837.03
473.57	1753.06
473.77	1849.32
473.98	1779.68
474.18	1681.38
474.38	1937.38
474.58	1742.82
474.79	1681.38
474.99	1802.21
475.19	1814.50
475.39	1628.14
475.60	1718.25
475.80	1732.58
476.00	1834.98
476.20	1648.61
476.41	1738.73
476.61	1884.13
476.81	1779.68
477.01	1712.10
477.21	1890.28
477.42	1853.41
477.62	1665.00
477.82	1701.86
478.02	1634.28
478.23	1757.16
478.43	1648.61
478.63	1683.43
478.83	1722.34
479.03	1665.00
479.24	1767.40
479.44	1810.40
479.64	1572.84
479.84	1609.70
480.04	1675.24
480.25	1665.00
480.45	1718.25
480.65	1740.77
480.85	1853.41
481.06	1783.78
481.26	1669.09
481.46	1773.54
481.66	1787.88
481.86	1648.61
482.06	1710.05
482.27	1697.77
482.47	1617.90
482.67	1796.07
482.87	1683.43
483.07	1845.22
483.28	1683.43
483.48	1638.38
483.68	1763.30
483.88	1685.48
484.08	1581.03
484.29	1626.09
484.49	1689.57
484.69	1685.48
484.89	1804.26
485.09	1759.21
485.29	1734.63
485.50	1757.16
485.70	1652.71
485.90	1724.39
486.10	1695.72
486.30	1781.73
486.50	1767.40
486.71	1867.75
486.91	1783.78
487.11	1783.78
487.31	1560.55
487.51	1675.24
487.71	1607.66
487.91	1603.56
488.12	1695.72
488.32	1572.84
488.52	1693.67
488.72	1662.95
488.92	1767.40
489.12	1746.92
489.32	1716.20
489.53	1744.87
489.73	1642.47
489.93	1832.93
490.13	1630.18
490.33	1648.61
490.53	1703.91
490.73	1779.68
490.94	1583.08
491.14	1771.49
491.34	1771.49
491.54	2074.59
491.74	2553.82
491.94	2856.92
492.14	2957.27
492.34	3117.01
492.54	2748.37
492.75	2504.67
492.95	2461.66
493.15	2328.54
493.35	2295.77
493.55	2398.17
493.75	2095.07
493.95	2170.85
494.15	2009.06
494.35	1890.28
494.56	1843.17
494.76	1796.07
494.96	1753.06
495.16	1791.97
495.36	1705.96
495.56	1863.65
495.76	1740.77
495.96	1730.53
496.16	1681.38
496.36	1871.84
496.56	1724.39
496.77	1722.34
496.97	1658.85
497.17	1802.21
497.37	1628.14
497.57	1726.44
497.77	1755.11
497.97	1685.48
498.17	1710.05
498.37	1730.53
498.57	1759.21
498.77	1658.85
498.97	1763.30
499.17	1892.32
499.38	1708.01
499.58	1714.15
499.78	1785.83
499.98	1705.96
500.18	1748.97
500.38	1662.95
500.58	1923.04
500.78	2586.58
500.98	4511.68
501.18	5928.87
501.38	6793.11
501.58	7022.48
501.78	6719.39
501.98	5416.88
502.18	4935.60
502.38	4274.11
502.58	4120.51
502.78	3798.98
502.98	3680.20
503.18	3442.64
503.38	3162.06
503.59	2781.14
503.79	2703.32
503.99	2529.24
504.19	2193.37
504.39	2193.37
504.59	2119.65
504.79	2105.31
504.99	2066.40
505.19	1904.61
505.39	1871.84
505.59	1937.38
505.79	1982.43
505.99	2004.96
506.19	1785.83
506.39	1845.22
506.59	1753.06
506.79	1740.77
506.99	1812.45
507.19	1746.92
507.39	1726.44
507.59	1697.77
507.79	1746.92
507.99	1681.38
508.19	1693.67
508.39	1710.05
508.59	1787.88
508.79	1796.07
508.99	1781.73
509.19	1632.23
509.39	1730.53
509.59	1705.96
509.79	1705.96
509.99	1765.35
510.19	1800.16
510.39	1742.82
510.59	1681.38
510.79	1699.81
510.99	1642.47
511.19	1738.73
511.39	1834.98
511.59	1818.60
511.79	1841.12
511.99	1718.25
512.19	1777.64
512.38	1724.39
512.58	1744.87
512.78	1728.49
512.98	1806.31
513.18	1755.11
513.38	1708.01
513.58	1779.68
513.78	1701.86
513.98	1675.24
514.18	1675.24
514.38	1746.92
514.58	1744.87
514.78	1587.18
514.98	1648.61
515.18	1691.62
515.38	1687.53
515.58	1816.55
515.78	1712.10
515.98	1732.58
516.18	1759.21
516.38	1695.72
516.57	1720.29
516.77	1638.38
516.97	1796.07
517.17	1679.33
517.37	1574.89
517.57	1736.68
517.77	1722.34
517.97	1671.14
518.17	1791.97
518.37	1638.38
518.57	1658.85
518.77	1708.01
518.97	1726.44
519.16	1757.16
519.36	1828.84
519.56	1751.01
519.76	1734.63
519.96	1683.43
520.16	1898.47
520.36	1685.48
520.56	1748.97
520.76	1658.85
520.96	1738.73
521.16	1718.25
521.35	1761.25
521.55	1804.26
521.75	1697.77
521.95	1662.95
522.15	1718.25
522.35	1687.53
522.55	1624.04
522.75	1806.31
522.95	1675.24
523.14	1769.44
523.34	1748.97
523.54	1701.86
523.74	1705.96
523.94	1775.59
524.14	1638.38
524.34	1710.05
524.54	1794.02
524.73	1667.05
524.93	1744.87
525.13	1740.77
525.33	1718.25
525.53	1927.14
525.73	1800.16
525.93	1667.05
526.13	1775.59
526.32	1746.92
526.52	1779.68
526.72	1740.77
526.92	1693.67
527.12	1730.53
527.32	1716.20
527.52	1701.86
527.71	1804.26
527.91	1710.05
528.11	1712.10
528.31	1732.58
528.51	1732.58
528.71	1812.45
528.90	1767.40
529.10	1769.44
529.30	1708.01
529.50	1617.90
529.70	1701.86
529.90	1742.82
530.09	1662.95
530.29	1669.09
530.49	1712.10
530.69	1871.84
530.89	1687.53
531.09	1763.30
531.28	1665.00
531.48	1892.32
531.68	1777.64
531.88	1675.24
532.08	1783.78
532.28	1730.53
532.47	1785.83
532.67	1794.02
532.87	1757.16
533.07	1726.44
533.27	1802.21
533.46	1822.69
533.66	1763.30
533.86	1722.34
534.06	1722.34
534.26	1742.82
534.45	1773.54
534.65	1730.53
534.85	1667.05
535.05	1693.67
535.25	1787.88
535.44	1640.42
535.64	1751.01
535.84	1728.49
536.04	1759.21
536.24	1619.94
536.43	1710.05
536.63	1701.86
536.83	1718.25
537.03	1667.05
537.22	1669.09
537.42	1648.61
537.62	1714.15
537.82	1722.34
538.02	1789.92
538.21	1808.36
538.41	1894.37
538.61	1822.69
538.81	1794.02
539.00	1755.11
539.20	1699.81
539.40	1708.01
539.60	1753.06
539.79	1744.87
539.99	1755.11
540.19	1638.38
540.39	1683.43
540.58	1775.59
540.78	1789.92
540.98	1763.30
541.18	1697.77
541.37	1718.25
541.57	1646.57
541.77	1718.25
541.97	1748.97
542.16	1656.81
542.36	1751.01
542.56	1705.96
542.76	1834.98
542.95	1748.97
543.15	1791.97
543.35	1771.49
543.54	1652.71
543.74	1685.48
543.94	1814.50
544.14	1693.67
544.33	1744.87
544.53	1724.39
544.73	1673.19
544.93	1726.44
545.12	1705.96
545.32	1751.01
545.52	1757.16
545.71	1728.49
545.91	1662.95
546.11	1734.63
546.30	1656.81
546.50	1703.91
546.70	1730.53
546.90	1744.87
547.09	1730.53
547.29	1687.53
547.49	1748.97
547.68	1753.06
547.88	1703.91
548.08	1695.72
548.27	2164.70
548.47	1732.58
548.67	1681.38
548.87	1787.88
549.06	1658.85
549.26	1697.77
549.46	1777.64
549.65	1617.90
549.85	1802.21
550.05	1781.73
550.24	1593.32
550.44	1673.19
550.64	1767.40
550.83	1728.49
551.03	1824.74
551.23	1757.16
551.42	1757.16
551.62	1710.05
551.82	1724.39
552.01	1716.20
552.21	1740.77
552.41	1812.45
552.60	1808.36
552.80	1677.29
553.00	1759.21
553.19	1691.62
553.39	1779.68
553.59	1748.97
553.78	1689.57
553.98	1738.73
554.17	1646.57
554.37	1759.21
554.57	1699.81
554.76	1642.47
554.96	1705.96
555.16	1681.38
555.35	1697.77
555.55	1720.29
555.75	1771.49
555.94	1697.77
556.14	1650.66
556.33	1732.58
556.53	1716.20
556.73	1675.24
556.92	1746.92
557.12	1814.50
557.32	1814.50
557.51	1802.21
557.71	1796.07
557.90	1810.40
558.10	1859.56
558.30	1644.52
558.49	1726.44
558.69	1716.20
558.88	1701.86
559.08	1693.67
559.28	1675.24
559.47	1722.34
559.67	1800.16
559.86	1800.16
560.06	1771.49
560.26	1683.43
560.45	1763.30
560.65	1783.78
560.84	1810.40
561.04	1691.62
561.24	1697.77
561.43	1746.92
561.63	1771.49
561.82	1722.34
562.02	1724.39
562.22	1695.72
562.41	1640.42
562.61	1660.90
562.80	1662.95
563.00	1863.65
563.19	1769.44
563.39	1800.16
563.59	1734.63
563.78	1669.09
563.98	1652.71
564.17	1675.24
564.37	1648.61
564.56	1730.53
564.76	1697.77
564.96	1822.69
565.15	1732.58
565.35	1865.70
565.54	1671.14
565.74	1689.57
565.93	1742.82
566.13	1787.88
566.32	1755.11
566.52	1771.49
566.71	1726.44
566.91	1800.16
567.11	1742.82
567.30	1646.57
567.50	1814.50
567.69	1783.78
567.89	1763.30
568.08	1673.19
568.28	1675.24
568.47	1640.42
568.67	1771.49
568.86	1712.10
569.06	1712.10
569.25	1810.40
569.45	1642.47
569.64	1796.07
569.84	1673.19
570.04	1763.30
570.23	1734.63
570.43	1822.69
570.62	1779.68
570.82	1849.32
571.01	1689.57
571.21	1712.10
571.40	1644.52
571.60	1783.78
571.79	1742.82
571.99	1761.25
572.18	1693.67
572.38	1726.44
572.57	1724.39
572.77	1740.77
572.96	1886.18
573.16	1779.68
573.35	1753.06
573.55	1740.77
573.74	1724.39
573.94	1730.53
574.13	1804.26
574.33	1708.01
574.52	1826.79
574.71	1718.25
574.91	1683.43
575.10	1718.25
575.30	1722.34
575.49	1662.95
575.69	1775.59
575.88	1724.39
576.08	1726.44
576.27	1779.68
576.47	1730.53
576.66	1722.34
576.86	1800.16
577.05	1736.68
577.25	1724.39
577.44	1865.70
577.64	1673.19
577.83	1755.11
578.02	1726.44
578.22	1806.31
578.41	1873.89
578.61	1783.78
578.80	1681.38
579.00	1783.78
579.19	1726.44
579.39	1783.78
579.58	1798.12
579.77	1837.03
579.97	1718.25
580.16	1855.46
580.36	1781.73
580.55	1757.16
580.75	1724.39
580.94	1888.23
581.13	1902.56
581.33	1837.03
581.52	1660.90
581.72	1839.08
581.91	1796.07
582.11	1665.00
582.30	1839.08
582.49	1753.06
582.69	1871.84
582.88	1798.12
583.08	1699.81
583.27	1751.01
583.47	1736.68
583.66	1732.58
583.85	1650.66
584.05	1742.82
584.24	1767.40
584.44	1734.63
584.63	1808.36
584.82	1841.12
585.02	1794.02
585.21	1849.32
585.41	1783.78
585.60	1771.49
585.79	1955.81
585.99	1929.19
586.18	1857.51
586.37	2258.91
586.57	3454.92
586.76	9998.18
586.96	24848.00
587.15	34620.91
587.34	40873.36
587.54	42843.51
587.73	36828.62
587.93	26715.75
588.12	21812.92
588.31	18374.38
588.51	16709.38
588.70	15351.57
588.89	14192.42
589.09	12533.57
589.28	11079.51
589.47	9418.61
589.67	8001.41
589.86	6487.96
590.06	5095.35
590.25	3858.37
590.44	3198.93
590.64	2611.16
590.83	2246.62
591.02	2144.22
591.22	1931.23
591.41	1927.14
591.60	1804.26
591.80	1955.81
591.99	1730.53
592.18	1884.13
592.38	1779.68
592.57	1722.34
592.76	1773.54
592.96	1828.84
593.15	1832.93
593.34	1802.21
593.54	1712.10
593.73	1804.26
593.92	1861.60
594.12	1716.20
594.31	1802.21
594.50	1744.87
594.70	1773.54
594.89	1865.70
595.08	1675.24
595.28	1775.59
595.47	1937.38
595.66	1695.72
595.86	1634.28
596.05	1660.90
596.24	1665.00
596.43	1779.68
596.63	1853.41
596.82	1753.06
597.01	1820.64
597.21	1849.32
597.40	1730.53
597.59	1712.10
597.79	1669.09
597.98	1722.34
598.17	1785.83
598.36	1794.02
598.56	1746.92
598.75	1697.77
598.94	1732.58
599.14	1804.26
599.33	1683.43
599.52	1781.73
599.71	1753.06
599.91	1880.04
600.10	1732.58
600.29	1751.01
600.48	1787.88
600.68	1710.05
600.87	1734.63
601.06	1722.34
601.26	1763.30
601.45	1730.53
601.64	1738.73
601.83	1771.49
602.03	1636.33
602.22	1601.51
602.41	1839.08
602.60	1861.60
602.80	1759.21
602.99	1708.01
603.18	1746.92
603.37	1718.25
603.57	1732.58
603.76	1775.59
603.95	1855.46
604.14	1687.53
604.34	1697.77
604.53	1708.01
604.72	1722.34
604.91	1746.92
605.10	1734.63
605.30	1652.71
605.49	1847.27
605.68	1800.16
605.87	1720.29
606.07	1640.42
606.26	1759.21
606.45	1773.54
606.64	1751.01
606.84	1716.20
607.03	1722.34
607.22	1763.30
607.41	1755.11
607.60	1742.82
607.80	1705.96
607.99	1671.14
608.18	1730.53
608.37	1773.54
608.56	1648.61
608.76	1718.25
608.95	1865.70
609.14	1755.11
609.33	1736.68
609.52	1742.82
609.72	1710.05
609.91	1789.92
610.10	1822.69
610.29	1791.97
610.48	1679.33
610.68	1744.87
610.87	1697.77
611.06	1783.78
611.25	1703.91
611.44	1755.11
611.63	1658.85
611.83	1781.73
612.02	1570.79
612.21	1779.68
612.40	1669.09
612.59	1677.29
612.79	1691.62
612.98	1683.43
613.17	1828.84
613.36	1697.77
613.55	1861.60
613.74	1656.81
613.93	1753.06
614.13	1740.77
614.32	1732.58
614.51	1746.92
614.70	1642.47
614.89	1697.77
615.08	1771.49
615.28	2078.69
615.47	1697.77
615.66	1718.25
615.85	1693.67
616.04	1785.83
616.23	1652.71
616.42	1708.01
616.62	1718.25
616.81	1716.20
617.00	1748.97
617.19	1714.15
617.38	1673.19
617.57	1669.09
617.76	1753.06
617.95	1667.05
618.15	1708.01
618.34	1714.15
618.53	1697.77
618.72	1738.73
618.91	1794.02
619.10	1806.31
619.29	1712.10
619.48	1751.01
619.68	1681.38
619.87	1662.95
620.06	1671.14
620.25	1718.25
620.44	1665.00
620.63	1746.92
620.82	1714.15
621.01	1720.29
621.20	1712.10
621.39	1703.91
621.59	1683.43
621.78	1738.73
621.97	1607.66
622.16	1753.06
622.35	1757.16
622.54	1837.03
622.73	1808.36
622.92	1578.98
623.11	1755.11
623.30	1675.24
623.49	1714.15
623.68	1732.58
623.88	1785.83
624.07	1722.34
624.26	1703.91
624.45	1726.44
624.64	1701.86
624.83	1673.19
625.02	1693.67
625.21	1671.14
625.40	1738.73
625.59	1757.16
625.78	1683.43
625.97	1787.88
626.16	1769.44
626.35	1728.49
626.54	1722.34
626.74	1736.68
626.93	1652.71
627.12	1683.43
627.31	1744.87
627.50	1765.35
627.69	1734.63
627.88	1687.53
628.07	1716.20
628.26	1660.90
628.45	1665.00
628.64	1619.94
628.83	1689.57
629.02	1701.86
629.21	1773.54
629.40	1705.96
629.59	1685.48
629.78	1751.01
629.97	1720.29
630.16	1724.39
630.35	1697.77
630.54	1724.39
630.73	1673.19
630.92	1712.10
631.11	1660.90
631.30	1759.21
631.49	1802.21
631.68	1699.81
631.87	1724.39
632.06	1609.70
632.25	1869.80
632.44	1742.82
632.63	1642.47
632.82	1652.71
633.01	1669.09
633.20	1673.19
633.39	1738.73
633.58	1658.85
633.77	1718.25
633.96	1761.25
634.15	1767.40
634.34	1708.01
634.53	1734.63
634.72	1621.99
634.91	1660.90
635.10	1744.87
635.29	1810.40
635.48	1624.04
635.67	1683.43
635.86	1652.71
636.05	1738.73
636.24	1630.18
636.43	1703.91
636.62	1695.72
636.81	1662.95
637.00	1665.00
637.19	1810.40
637.38	1712.10
637.57	1769.44
637.76	1671.14
637.95	1730.53
638.14	1726.44
638.33	1730.53
638.52	1712.10
638.71	1613.80
638.89	1650.66
639.08	1828.84
639.27	1720.29
639.46	1628.14
639.65	1751.01
639.84	1697.77
640.03	1820.64
640.22	1763.30
640.41	1798.12
640.60	1746.92
640.79	1728.49
640.98	1677.29
641.17	1767.40
641.36	1716.20
641.55	1740.77
641.74	1671.14
641.92	1683.43
642.11	1697.77
642.30	1751.01
642.49	1665.00
642.68	1693.67
642.87	1804.26
643.06	1808.36
643.25	1712.10
643.44	1755.11
643.63	1738.73
643.82	1771.49
644.00	1619.94
644.19	1716.20
644.38	1593.32
644.57	1714.15
644.76	1701.86
644.95	1712.10
645.14	1730.53
645.33	1757.16
645.52	1697.77
645.71	1613.80
645.89	1624.04
646.08	1619.94
646.27	1708.01
646.46	1728.49
646.65	1681.38
646.84	1671.14
647.03	1683.43
647.22	1847.27
647.40	1744.87
647.59	1705.96
647.78	1638.38
647.97	1652.71
648.16	1652.71
648.35	1726.44
648.54	1888.23
648.73	1703.91
648.91	1800.16
649.10	1624.04
649.29	1615.85
649.48	1730.53
649.67	1660.90
649.86	1748.97
650.05	1669.09
650.23	1755.11
650.42	1669.09
650.61	1751.01
650.80	1693.67
650.99	1851.36
651.18	1757.16
651.36	1828.84
651.55	1716.20
651.74	1783.78
651.93	1720.29
652.12	1673.19
652.31	1654.76
652.49	1720.29
652.68	1765.35
652.87	1796.07
653.06	1771.49
653.25	1853.41
653.44	1705.96
653.62	1757.16
653.81	1701.86
654.00	1730.53
654.19	1761.25
654.38	1877.99
654.56	1734.63
654.75	1773.54
654.94	1667.05
655.13	1665.00
655.32	1665.00
655.51	1800.16
655.69	1759.21
655.88	1748.97
656.07	1669.09
656.26	1765.35
656.45	1576.94
656.63	1691.62
656.82	1710.05
657.01	1804.26
657.20	1742.82
657.38	1761.25
657.57	1675.24
657.76	1691.62
657.95	1734.63
658.14	1732.58
658.32	1638.38
658.51	1632.23
658.70	1640.42
658.89	1667.05
659.08	1761.25
659.26	1703.91
659.45	1648.61
659.64	1712.10
659.83	1665.00
660.01	1920.99
660.20	1681.38
660.39	1877.99
660.58	1574.89
660.76	1720.29
660.95	1619.94
661.14	1683.43
661.33	1671.14
661.51	1619.94
661.70	1693.67
661.89	1724.39
662.08	1730.53
662.26	1677.29
662.45	1654.76
662.64	1826.79
662.83	1769.44
663.01	1599.46
663.20	1708.01
663.39	1765.35
663.58	1685.48
663.76	1722.34
663.95	1746.92
664.14	1642.47
664.32	1763.30
664.51	1595.37
664.70	1677.29
664.89	1794.02
665.07	1646.57
665.26	1804.26
665.45	1695.72
665.64	1796.07
665.82	1638.38
666.01	1763.30
666.20	1742.82
666.38	1779.68
666.57	1849.32
666.76	2269.15
666.95	4464.57
667.13	10442.59
667.32	15456.02
667.51	17997.55
667.69	19218.14
667.88	17606.39
668.07	12367.68
668.25	9504.62
668.44	8112.00
668.63	7358.35
668.81	6829.98
669.00	6313.89
669.19	5601.19
669.38	5089.20
669.56	4530.11
669.75	3913.67
669.94	3516.36
670.12	2998.23
670.31	2537.43
670.50	2308.06
670.68	2076.64
670.87	1951.71
671.06	1744.87
671.24	1785.83
671.43	1800.16
671.62	1763.30
671.80	1742.82
671.99	1748.97
672.18	1726.44
672.36	1740.77
672.55	1662.95
672.74	1705.96
672.92	1630.18
673.11	1695.72
673.29	1656.81
673.48	1798.12
673.67	1708.01
673.85	1775.59
674.04	1724.39
674.23	1658.85
674.41	1791.97
674.60	1669.09
674.79	1642.47
674.97	1720.29
675.16	1677.29
675.34	1824.74
675.53	1648.61
675.72	1759.21
675.90	1761.25
676.09	1681.38
676.28	1683.43
676.46	1662.95
676.65	1724.39
676.83	1624.04
677.02	1685.48
677.21	1691.62
677.39	1759.21
677.58	1624.04
677.77	1701.86
677.95	1693.67
678.14	1763.30
678.32	1703.91
678.51	1718.25
678.70	1818.60
678.88	1755.11
679.07	1712.10
679.25	1695.72
679.44	1714.15
679.63	1660.90
679.81	1765.35
680.00	1720.29
680.18	1755.11
680.37	1843.17
680.55	1724.39
680.74	1681.38
680.93	1615.85
681.11	1650.66
681.30	1753.06
681.48	1761.25
681.67	1679.33
681.85	1759.21
682.04	1695.72
682.23	1742.82
682.41	1695.72
682.60	1632.23
682.78	1703.91
682.97	1615.85
683.15	1736.68
683.34	1759.21
683.53	1787.88
683.71	1619.94
683.90	1787.88
684.08	1759.21
684.27	1740.77
684.45	1746.92
684.64	1724.39
684.82	1734.63
685.01	1751.01
685.19	1736.68
685.38	1806.31
685.57	1716.20
685.75	1730.53
685.94	1761.25
686.12	1656.81
686.31	1671.14
686.49	1849.32
686.68	1535.98
686.86	1736.68
687.05	1650.66
687.23	1794.02
687.42	1660.90
687.60	1669.09
687.79	1806.31
687.97	1765.35
688.16	1834.98
688.34	1759.21
688.53	1621.99
688.71	1742.82
688.90	1822.69
689.08	1697.77
689.27	1652.71
689.45	1734.63
689.64	1761.25
689.82	1746.92
690.01	1689.57
690.19	1734.63
690.38	1746.92
690.56	1730.53
690.75	1710.05
690.93	1628.14
691.12	1671.14
691.30	1720.29
691.49	1753.06
691.67	1714.15
691.86	1820.64
692.04	1626.09
692.23	1714.15
692.41	1654.76
692.60	1759.21
692.78	1693.67
692.97	1642.47
693.15	1648.61
693.34	1755.11
693.52	1781.73
693.71	1695.72
693.89	1693.67
694.08	1660.90
694.26	1755.11
694.44	1746.92
694.63	1744.87
694.81	1640.42
695.00	1695.72
695.18	1722.34
695.37	1796.07
695.55	1716.20
695.74	1673.19
695.92	1601.51
696.10	1779.68
696.29	1558.50
696.47	1730.53
696.66	1628.14
696.84	1685.48
697.03	1703.91
697.21	1849.32
697.40	2232.29
697.58	1800.16
697.76	1724.39
697.95	1656.81
698.13	1640.42
698.32	1738.73
698.50	1683.43
698.68	1738.73
698.87	1658.85
699.05	1759.21
699.24	1728.49
699.42	1628.14
699.61	1726.44
699.79	1705.96
699.97	1675.24
700.16	1632.23
700.34	1611.75
700.53	1769.44
700.71	1740.77
700.89	1740.77
701.08	1705.96
701.26	1714.15
701.45	2080.74
701.63	1652.71
701.81	1595.37
702.00	1699.81
702.18	1701.86
702.37	1675.24
702.55	1693.67
702.73	1665.00
702.92	1636.33
703.10	1691.62
703.28	1681.38
703.47	1697.77
703.65	1701.86
703.84	1779.68
704.02	1693.67
704.20	1730.53
704.39	1671.14
704.57	1658.85
704.75	1734.63
704.94	1785.83
705.12	1720.29
705.30	1757.16
705.49	2238.43
705.67	4386.75
705.86	9504.62
706.04	12607.30
706.22	14669.60
706.41	15558.42
706.59	14163.75
706.77	9723.76
706.96	7395.22
707.14	6510.49
707.32	6092.71
707.51	5621.67
707.69	4898.74
707.87	4308.93
708.06	3547.08
708.24	2873.30
708.42	2459.61
708.61	2238.43
708.79	1968.10
708.97	1851.36
709.16	1810.40
709.34	1826.79
709.52	1697.77
709.71	1820.64
709.89	1877.99
710.07	1626.09
710.26	1593.32
710.44	1759.21
710.62	1845.22
710.80	1673.19
710.99	1757.16
711.17	1769.44
711.35	1720.29
711.54	1677.29
711.72	1806.31
711.90	1697.77
712.09	1662.95
712.27	1724.39
712.45	1710.05
712.63	1697.77
712.82	1697.77
713.00	1781.73
713.18	1755.11
713.37	1773.54
713.55	1808.36
713.73	1699.81
713.91	1759.21
714.10	1656.81
714.28	1740.77
714.46	1736.68
714.65	1701.86
714.83	1697.77
715.01	1708.01
715.19	1748.97
715.38	1617.90
715.56	1800.16
715.74	1685.48
715.92	1675.24
716.11	1757.16
716.29	1654.76
716.47	1699.81
716.65	1710.05
716.84	1630.18
717.02	1773.54
717.20	1697.77
717.38	1591.27
717.57	1726.44
717.75	1675.24
717.93	1685.48
718.11	1746.92
718.30	1660.90
718.48	1710.05
718.66	1689.57
718.84	1759.21
719.03	1662.95
719.21	1599.46
719.39	1767.40
719.57	1732.58
719.75	1683.43
719.94	1679.33
720.12	1718.25
720.30	1681.38
720.48	1685.48
720.67	1695.72
720.85	1687.53
721.03	1605.61
721.21	1660.90
721.39	1798.12
721.58	1722.34
721.76	1746.92
721.94	1695.72
722.12	1699.81
722.30	1738.73
722.49	1679.33
722.67	1685.48
722.85	1724.39
723.03	1597.42
723.21	1667.05
723.40	1734.63
723.58	1691.62
723.76	1701.86
723.94	1732.58
724.12	1722.34
724.30	1824.74
724.49	1708.01
724.67	1595.37
724.85	1837.03
725.03	1683.43
725.21	1765.35
725.40	1748.97
725.58	1562.60
725.76	1734.63
725.94	1806.31
726.12	1554.41
726.30	1677.29
726.49	1697.77
726.67	1671.14
726.85	1777.64
727.03	1789.92
727.21	2181.09
727.39	2893.78
727.57	3841.99
727.76	4163.52
727.94	4544.44
728.12	4474.81
728.30	3647.43
728.48	2992.08
728.66	2838.48
728.84	2568.15
729.03	2283.49
729.21	2076.64
729.39	1984.48
729.57	1822.69
729.75	1910.75
729.93	1820.64
730.11	1689.57
730.30	1738.73
730.48	1685.48
730.66	1802.21
730.84	1771.49
731.02	1675.24
731.20	1681.38
731.38	1718.25
731.56	1634.28
731.74	1644.52
731.93	1718.25
732.11	1708.01
732.29	1656.81
732.47	1736.68
732.65	1712.10
732.83	1710.05
733.01	1748.97
733.19	1687.53
733.37	1726.44
733.56	1681.38
733.74	1712.10
733.92	1830.88
734.10	1660.90
734.28	1673.19
734.46	1597.42
734.64	1701.86
734.82	1667.05
735.00	1671.14
735.18	1650.66
735.36	1671.14
735.54	1638.38
735.73	1771.49
735.91	1789.92
736.09	1642.47
736.27	1662.95
736.45	1718.25
736.63	1538.02
736.81	1703.91
736.99	1734.63
737.17	1722.34
737.35	1691.62
737.53	1783.78
737.71	1701.86
737.89	1800.16
738.07	1673.19
738.25	1650.66
738.43	1669.09
738.61	1728.49
738.80	1640.42
738.98	1617.90
739.16	1626.09
739.34	1728.49
739.52	1755.11
739.70	1701.86
739.88	1826.79
740.06	1814.50
740.24	1656.81
740.42	1683.43
740.60	1648.61
740.78	1669.09
740.96	1531.88
741.14	1619.94
741.32	1730.53
741.50	1648.61
741.68	1767.40
741.86	1775.59
742.04	1638.38
742.22	1683.43
742.40	1691.62
742.58	1783.78
742.76	1658.85
742.94	1712.10
743.12	1675.24
743.30	1689.57
743.48	1685.48
743.66	1634.28
743.84	1753.06
744.02	1714.15
744.20	1708.01
744.38	1632.23
744.56	1681.38
744.74	1814.50
744.92	1718.25
745.10	1800.16
745.28	1781.73
745.46	1794.02
745.64	1701.86
745.82	1708.01
746.00	1724.39
746.18	1728.49
746.36	1615.85
746.54	1689.57
746.72	1773.54
746.90	1587.18
747.08	1822.69
747.26	1648.61
747.44	1779.68
747.62	1763.30
747.80	1667.05
747.98	1718.25
748.15	1728.49
748.33	1746.92
748.51	1730.53
748.69	1777.64
748.87	1646.57
749.05	1751.01
749.23	1710.05
749.41	1671.14
749.59	1650.66
749.77	1777.64
749.95	1716.20
750.13	1705.96
750.31	1728.49
750.49	1665.00
750.67	1693.67
750.85	1826.79
751.03	1740.77
751.20	1796.07
751.38	1783.78
751.56	1728.49
751.74	1677.29
751.92	1677.29
752.10	1642.47
752.28	1816.55
752.46	1632.23
752.64	1712.10
752.82	1734.63
753.00	1820.64
753.18	1675.24
753.35	1679.33
753.53	1748.97
753.71	1640.42
753.89	1785.83
754.07	1662.95
754.25	1826.79
754.43	1730.53
754.61	1621.99
754.79	1789.92
754.97	1687.53
755.14	1765.35
755.32	1638.38
755.50	1679.33
755.68	1751.01
755.86	1718.25
756.04	1669.09
756.22	1595.37
756.40	1767.40
756.57	1834.98
756.75	1613.80
756.93	1753.06
757.11	1757.16
757.29	1708.01
757.47	1660.90
757.65	1597.42
757.82	1544.17
758.00	1722.34
758.18	1689.57
758.36	1699.81
758.54	1806.31
758.72	1603.56
758.90	1748.97
759.07	1669.09
759.25	1632.23
759.43	1738.73
759.61	1570.79
759.79	2183.13
759.97	1787.88
760.15	1660.90
760.32	1718.25
760.50	1703.91
760.68	1759.21
760.86	1615.85
761.04	1722.34
761.22	1681.38
761.39	1679.33
761.57	1705.96
761.75	1656.81
761.93	1710.05
762.11	1667.05
762.28	1820.64
762.46	1601.51
762.64	1751.01
762.82	1650.66
763.00	1728.49
763.18	1849.32
763.35	1726.44
763.53	1716.20
763.71	1638.38
763.89	1708.01
764.07	1705.96
764.24	1658.85
764.42	1730.53
764.60	1665.00
764.78	1708.01
764.96	1718.25
765.13	1714.15
765.31	1681.38
765.49	1810.40
765.67	1628.14
765.84	1665.00
766.02	1662.95
766.20	1581.03
766.38	1701.86
766.56	1654.76
766.73	1753.06
766.91	1726.44
767.09	1708.01
767.27	1726.44
767.44	1675.24
767.62	1705.96
767.80	1701.86
767.98	1640.42
768.15	1689.57
768.33	1765.35
768.51	1718.25
768.69	1710.05
768.87	1693.67
769.04	1705.96
769.22	1781.73
769.40	1779.68
769.58	1832.93
769.75	1685.48
769.93	1753.06
770.11	1630.18
770.28	1646.57
770.46	1644.52
770.64	1693.67
770.82	1630.18
770.99	1730.53
771.17	1687.53
771.35	1595.37
771.53	1685.48
771.70	1591.27
771.88	1701.86
772.06	1724.39
772.23	1687.53
772.41	1800.16
772.59	1685.48
772.77	1644.52
772.94	1732.58
773.12	1705.96
773.30	1693.67
773.47	1697.77
773.65	1669.09
773.83	1863.65
774.01	1648.61
774.18	1626.09
774.36	1677.29
774.54	1624.04
774.71	1769.44
774.89	1683.43
775.07	1570.79
775.24	1697.77
775.42	1677.29
775.60	1779.68
775.78	1636.33
775.95	1673.19
776.13	1628.14
776.31	1576.94
776.48	1650.66
776.66	1732.58
776.84	1685.48
777.01	1714.15
777.19	1576.94
777.37	1650.66
777.54	1712.10
777.72	1761.25
777.90	1687.53
778.07	1662.95
778.25	1931.23
778.43	1751.01
778.60	1632.23
778.78	1748.97
778.96	1742.82
779.13	1708.01
779.31	1703.91
779.49	1722.34
779.66	1699.81
779.84	1693.67
780.01	1675.24
780.19	1726.44
780.37	1832.93
780.54	1708.01
780.72	1730.53
780.90	1740.77
781.07	1593.32
781.25	1654.76
781.43	1755.11
781.60	1667.05
781.78	1716.20
781.95	1689.57
782.13	1621.99
782.31	1689.57
782.48	1626.09
782.66	1732.58
782.83	1779.68
783.01	1751.01
783.19	1775.59
783.36	1726.44
783.54	1595.37
783.72	1779.68
783.89	1683.43
784.07	1802.21
784.24	1724.39
784.42	1763.30
784.60	1718.25
784.77	1726.44
784.95	1599.46
785.12	1656.81
785.30	1771.49
785.47	1673.19
785.65	1628.14
785.83	1652.71
786.00	1681.38
786.18	1804.26
786.35	1687.53
786.53	1632.23
786.71	1669.09
786.88	1765.35
787.06	1703.91
787.23	1738.73
787.41	1691.62
787.58	1646.57
787.76	1675.24
787.94	1671.14
788.11	1730.53
788.29	1603.56
788.46	1599.46
788.64	1685.48
788.81	1613.80
788.99	1640.42
789.16	1685.48
789.34	1638.38
789.52	1640.42
789.69	1753.06
789.87	1585.13
790.04	1607.66
790.22	1673.19
790.39	1822.69
790.57	1720.29
790.74	1738.73
790.92	1699.81
791.09	1658.85
791.27	1714.15
791.44	1843.17
791.62	1689.57
791.79	1742.82
791.97	1632.23
792.15	1861.60
792.32	1800.16
792.50	1791.97
792.67	1728.49
792.85	1853.41
793.02	1718.25
793.20	1640.42
793.37	1636.33
793.55	1748.97
793.72	1617.90
793.90	1705.96
794.07	1705.96
794.25	1671.14
794.42	1763.30
794.60	1734.63
794.77	1701.86
794.95	1765.35
795.12	1755.11
795.30	1677.29
795.47	1548.26
795.65	1904.61
795.82	1699.81
796.00	1619.94
796.17	1757.16
796.34	1691.62
796.52	1740.77
796.69	1777.64
796.87	1734.63
797.04	1738.73
797.22	1738.73
797.39	1714.15
797.57	1685.48
797.74	1701.86
797.92	1755.11
798.09	1705.96
798.27	1683.43
798.44	1705.96
798.62	1701.86
798.79	1665.00
798.96	1681.38
799.14	1753.06
799.31	1800.16
799.49	1650.66
799.66	1656.81
799.84	1710.05
800.01	1609.70
800.19	1685.48
800.36	1611.75
800.53	1667.05
800.71	1683.43
800.88	1777.64
801.06	1665.00
801.23	1689.57
801.41	1697.77
801.58	1720.29
801.75	1722.34
801.93	1675.24
802.10	1789.92
802.28	1648.61
802.45	1679.33
802.63	1771.49
802.80	1761.25
802.97	1724.39
803.15	1708.01
803.32	1632.23
803.50	1656.81
803.67	1644.52
803.84	1558.50
804.02	1669.09
804.19	1646.57
804.37	1533.93
804.54	1581.03
804.71	1744.87
804.89	1687.53
805.06	1658.85
805.24	1617.90
805.41	1634.28
805.58	1705.96
805.76	1820.64
805.93	1759.21
806.10	1861.60
806.28	1687.53
806.45	1699.81
806.63	1607.66
806.80	1767.40
806.97	1671.14
807.15	1710.05
807.32	1724.39
807.49	1699.81
807.67	1607.66
807.84	1822.69
808.01	1648.61
808.19	1837.03
808.36	1757.16
808.54	1644.52
808.71	1734.63
808.88	1681.38
809.06	1693.67
809.23	1783.78
809.40	1650.66
809.58	1730.53
809.75	1679.33
809.92	1693.67
810.10	1783.78
810.27	1697.77
810.44	1638.38
810.62	1697.77
810.79	1716.20
810.96	1665.00
811.14	1640.42
811.31	1712.10
811.48	1751.01
811.66	1705.96
811.83	1777.64
812.00	1675.24
812.18	1740.77
812.35	1802.21
812.52	1701.86
812.69	1763.30
812.87	1740.77
813.04	1650.66
813.21	1636.33
813.39	1708.01
813.56	1619.94
813.73	1738.73
813.91	1669.09
814.08	1751.01
814.25	1613.80
814.42	1509.35
814.60	1677.29
814.77	1701.86
814.94	1697.77
815.12	1599.46
815.29	1796.07
815.46	1665.00
815.63	1703.91
815.81	1740.77
815.98	1736.68
816.15	1703.91
816.33	1701.86
816.50	1732.58
816.67	1703.91
816.84	1595.37
817.02	1611.75
817.19	1673.19
817.36	1644.52
817.53	1626.09
817.71	1585.13
817.88	1679.33
818.05	1675.24
818.22	1667.05
818.40	1812.45
818.57	1626.09
818.74	1732.58
818.91	1775.59
819.09	1687.53
819.26	1722.34
819.43	1691.62
819.60	1644.52
819.78	1720.29
819.95	1771.49
820.12	1626.09
820.29	1742.82
820.47	1689.57
820.64	1617.90
820.81	1640.42
820.98	1693.67
821.15	1624.04
821.33	1718.25
821.50	1613.80
821.67	1697.77
821.84	1673.19
822.02	1734.63
822.19	1761.25
822.36	1728.49
822.53	1705.96
822.70	1656.81
822.88	1705.96
823.05	1751.01
823.22	1650.66
823.39	1691.62
823.56	1681.38
823.74	1798.12
823.91	1671.14
824.08	1607.66
824.25	1628.14
824.42	1722.34
824.60	1669.09
824.77	1736.68
824.94	1646.57
825.11	1796.07
825.28	1583.08
825.45	1683.43
825.63	1724.39
825.80	1632.23
825.97	1681.38
826.14	1675.24
826.31	1583.08
826.48	1787.88
826.66	1607.66
826.83	1671.14
827.00	1761.25
827.17	1650.66
827.34	1679.33
827.51	1712.10
827.69	1691.62
827.86	1646.57
828.03	1701.86
828.20	1667.05
828.37	1656.81
828.54	1757.16
828.71	1626.09
828.89	1695.72
829.06	1695.72
829.23	1656.81
829.40	1712.10
829.57	1632.23
829.74	1701.86
829.91	1646.57
830.09	1699.81
830.26	1755.11
830.43	1732.58
830.60	1656.81
830.77	1804.26
830.94	1740.77
831.11	1703.91
831.28	1734.63
831.46	1761.25
831.63	1687.53
831.80	1732.58
831.97	1654.76
832.14	1685.48
832.31	1691.62
832.48	1703.91
832.65	1761.25
832.82	1677.29
832.99	1746.92
833.17	1583.08
833.34	1798.12
833.51	1742.82
833.68	1597.42
833.85	1761.25
834.02	1638.38
834.19	1705.96
834.36	1667.05
834.53	1720.29
834.70	1701.86
834.87	1763.30
835.04	1724.39
835.22	1708.01
835.39	1751.01
835.56	1581.03
835.73	1634.28
835.90	1769.44
836.07	1710.05
836.24	1681.38
836.41	1650.66
836.58	1611.75
836.75	1716.20
836.92	1705.96
837.09	1662.95
837.26	1710.05
837.43	1701.86
837.60	1722.34
837.77	1660.90
837.94	1732.58
838.12	1767.40
838.29	1763.30
838.46	1521.64
838.63	1583.08
838.80	1800.16
838.97	1734.63
839.14	1736.68
839.31	1701.86
839.48	1714.15
839.65	1654.76
839.82	1736.68
839.99	1667.05
840.16	1654.76
840.33	1736.68
840.50	1744.87
840.67	1656.81
840.84	1540.07
841.01	1687.53
841.18	1669.09
841.35	1753.06
841.52	1787.88
841.69	1847.27
841.86	1757.16
842.03	1730.53
842.20	1695.72
842.37	1685.48
842.54	1718.25
842.71	1652.71
842.88	1621.99
843.05	1712.10
843.22	1701.86
843.39	1710.05
843.56	1648.61
843.73	1738.73
843.90	1701.86
844.07	1708.01
844.24	1732.58
844.41	1722.34
844.58	1734.63
844.75	1679.33
844.92	1714.15
845.09	1701.86
845.26	1658.85
845.43	1722.34
845.60	1673.19
845.77	1826.79
845.94	1732.58
846.10	1712.10
846.27	1589.22
846.44	1654.76
846.61	1634.28
846.78	1648.61
846.95	1841.12
847.12	1724.39
847.29	1595.37
847.46	1587.18
847.63	1748.97
847.80	1669.09
847.97	1697.77
848.14	1806.31
848.31	1650.66
848.48	1648.61
848.65	1681.38
848.82	1570.79
848.98	1771.49
849.15	1648.61
849.32	1791.97
849.49	1794.02
849.66	1673.19
849.83	1671.14
850.00	1593.32
850.17	1687.53
850.34	1685.48
850.51	1662.95
850.68	1693.67
850.85	1806.31
851.01	1685.48
851.18	1703.91
851.35	1642.47
851.52	1720.29
851.69	1830.88
851.86	1636.33
852.03	1665.00
852.20	1769.44
852.37	1665.00
852.53	1642.47
852.70	1681.38
852.87	1748.97
853.04	1697.77
853.21	1685.48
853.38	1798.12
853.55	1740.77
853.72	1755.11
853.89	1648.61
854.05	1708.01
854.22	1675.24
854.39	1675.24
854.56	1791.97
854.73	1783.78
854.90	1630.18
855.07	1660.90
855.23	1665.00
855.40	1669.09
855.57	1808.36
855.74	1628.14
855.91	1820.64
856.08	1658.85
856.25	1603.56
856.41	1728.49
856.58	1654.76
856.75	1705.96
856.92	1679.33
857.09	1746.92
857.26	1589.22
857.42	1675.24
857.59	1687.53
857.76	1677.29
857.93	1697.77
858.10	1734.63
858.27	1583.08
858.43	1705.96
858.60	1615.85
858.77	1605.61
858.94	1710.05
859.11	1689.57
859.27	1656.81
859.44	1658.85
859.61	1798.12
859.78	1673.19
859.95	1716.20
860.12	1609.70
860.28	1779.68
860.45	1724.39
860.62	1640.42
860.79	1779.68
860.95	1708.01
861.12	1640.42
861.29	1619.94
861.46	1589.22
861.63	1695.72
861.79	1679.33
861.96	1660.90
862.13	1667.05
862.30	1789.92
862.47	1617.90
862.63	1675.24
862.80	1820.64
862.97	1765.35
863.14	1712.10
863.30	1773.54
863.47	1669.09
863.64	1802.21
863.81	1714.15
863.97	1642.47
864.14	1714.15
864.31	1640.42
864.48	1675.24
864.65	1748.97
864.81	1703.91
864.98	1708.01
865.15	1607.66
865.32	1751.01
865.48	1820.64
865.65	1734.63
865.82	1730.53
865.98	1695.72
866.15	1753.06
866.32	1624.04
866.49	1748.97
866.65	1734.63
866.82	1632.23
866.99	1658.85
867.16	1640.42
867.32	1722.34
867.49	1673.19
867.66	1734.63
867.83	1681.38
867.99	1619.94
868.16	1677.29
868.33	1607.66
868.49	1732.58
868.66	1689.57
868.83	1726.44
868.99	1646.57
869.16	1673.19
869.33	1787.88
869.50	1724.39
869.66	1806.31
869.83	1681.38
870.00	1636.33
870.16	1697.77
870.33	1644.52
870.50	1771.49
870.66	1677.29
870.83	1796.07
871.00	1730.53
871.17	1720.29
871.33	1703.91
871.50	1714.15
871.67	1642.47
871.83	1576.94
872.00	1769.44
872.17	1705.96
872.33	1773.54
872.50	1753.06
872.67	1638.38
872.83	1691.62
873.00	1753.06
873.17	1728.49
873.33	1724.39
873.50	1718.25
873.67	1665.00
873.83	1714.15
874.00	1615.85
874.16	1673.19
874.33	1720.29
874.50	1628.14
874.66	1755.11
874.83	1708.01
875.00	1689.57
875.16	1800.16
875.33	1802.21
875.50	1597.42
875.66	1652.71
875.83	1689.57
875.99	1767.40
876.16	1685.48
876.33	1611.75
876.49	1714.15
876.66	1798.12
876.83	1705.96
876.99	1708.01
877.16	1691.62
877.32	1677.29
877.49	1640.42
877.66	1691.62
877.82	1796.07
877.99	1681.38
878.15	1775.59
878.32	1703.91
878.49	1759.21
878.65	1740.77
878.82	1708.01
878.98	1691.62
879.15	1685.48
879.32	1738.73
879.48	1708.01
879.65	1697.77
879.81	1632.23
879.98	1726.44
880.15	1675.24
880.31	1673.19
880.48	1648.61
880.64	1730.53
880.81	1652.71
880.97	1798.12
881.14	1794.02
881.31	1656.81
881.47	1820.64
881.64	1646.57
881.80	1638.38
881.97	1697.77
882.13	1755.11
882.30	1673.19
882.47	1705.96
882.63	1628.14
882.80	1667.05
882.96	1718.25
883.13	1738.73
883.29	1720.29
883.46	1708.01
883.62	1775.59
883.79	1728.49
883.95	1791.97
884.12	1730.53
884.29	1734.63
884.45	1718.25
884.62	1800.16
884.78	1642.47
884.95	1757.16
885.11	1636.33
885.28	1701.86
885.44	1691.62
885.61	1730.53
885.77	1748.97
885.94	1697.77
886.10	1671.14
886.27	1714.15
886.43	1812.45
886.60	1789.92
886.76	1628.14
886.93	1685.48
887.09	1701.86
887.26	1609.70
887.42	1736.68
887.59	1742.82
887.75	1804.26
887.92	1779.68
888.08	1759.21
888.25	1640.42
888.41	1671.14
888.58	1681.38
888.74	1693.67
888.91	1712.10
>>>>>End Processed Spectral Data<<<<<
