SpectraSuite Data File
++++++++++++++++++++++++++++++++++++
Date: Mon Jun 06 14:00:37 CEST 2016
User: root
Dark Spectrum Present: No
Reference Spectrum Present: No
Number of Sampled Component Spectra: 1
Spectrometers: USB4C02835
Integration Time (usec): 100000 (USB4C02835)
Spectra Averaged: 1 (USB4C02835)
Boxcar Smoothing: 0 (USB4C02835)
Correct for Electrical Dark: No (USB4C02835)
Strobe/Lamp Enabled: No (USB4C02835)
Correct for Detector Non-linearity: No (USB4C02835)
Correct for Stray Light: No (USB4C02835)
Number of Pixels in Processed Spectrum: 3648
>>>>>Begin Processed Spectral Data<<<<<
177.47	1468.39
177.69	1468.39
177.91	1468.39
178.13	1458.15
178.36	1480.68
178.58	1677.29
178.80	1685.48
179.02	1595.37
179.24	1646.57
179.46	1722.34
179.68	1742.82
179.90	1669.09
180.13	1656.81
180.35	1619.94
180.57	1675.24
180.79	1777.64
181.01	1642.47
181.23	1726.44
181.45	1744.87
181.67	1777.64
181.90	1667.05
182.12	1751.01
182.34	1617.90
182.56	1628.14
182.78	1755.11
183.00	1691.62
183.22	1775.59
183.44	1646.57
183.66	1824.74
183.89	1849.32
184.11	1669.09
184.33	1679.33
184.55	1714.15
184.77	1644.52
184.99	1697.77
185.21	1638.38
185.43	1794.02
185.65	1691.62
185.87	1665.00
186.10	1808.36
186.32	1808.36
186.54	1679.33
186.76	1705.96
186.98	1697.77
187.20	1722.34
187.42	1708.01
187.64	1742.82
187.86	1724.39
188.08	1742.82
188.30	1667.05
188.52	1710.05
188.75	1753.06
188.97	1681.38
189.19	1677.29
189.41	1740.77
189.63	1669.09
189.85	1736.68
190.07	1665.00
190.29	1675.24
190.51	1769.44
190.73	1599.46
190.95	1761.25
191.17	1656.81
191.39	1660.90
191.61	1591.27
191.84	1689.57
192.06	1710.05
192.28	1527.78
192.50	1863.65
192.72	1738.73
192.94	1697.77
193.16	1810.40
193.38	1673.19
193.60	1712.10
193.82	1669.09
194.04	1822.69
194.26	1742.82
194.48	1656.81
194.70	1677.29
194.92	1687.53
195.14	1781.73
195.36	1669.09
195.58	1675.24
195.80	1761.25
196.02	1681.38
196.24	1730.53
196.46	1763.30
196.69	1689.57
196.91	1888.23
197.13	1615.85
197.35	1708.01
197.57	1851.36
197.79	1746.92
198.01	1705.96
198.23	1736.68
198.45	1650.66
198.67	1656.81
198.89	1757.16
199.11	1738.73
199.33	1712.10
199.55	1630.18
199.77	1701.86
199.99	1718.25
200.21	1693.67
200.43	1669.09
200.65	1576.94
200.87	1624.04
201.09	1716.20
201.31	1675.24
201.53	1689.57
201.75	1757.16
201.97	1726.44
202.19	1656.81
202.41	1726.44
202.63	1785.83
202.85	1789.92
203.07	1675.24
203.29	1636.33
203.51	1624.04
203.73	1636.33
203.95	1902.56
204.17	1742.82
204.39	1775.59
204.61	1720.29
204.83	1650.66
205.05	1757.16
205.27	1810.40
205.49	1732.58
205.71	1716.20
205.93	1662.95
206.15	1746.92
206.37	1714.15
206.59	1732.58
206.81	1628.14
207.03	1665.00
207.25	1599.46
207.47	1714.15
207.69	1652.71
207.91	1724.39
208.13	1740.77
208.34	1722.34
208.56	1601.51
208.78	1785.83
209.00	1705.96
209.22	1705.96
209.44	1675.24
209.66	1644.52
209.88	1775.59
210.10	1730.53
210.32	1714.15
210.54	1849.32
210.76	1718.25
210.98	1714.15
211.20	1685.48
211.42	1759.21
211.64	1755.11
211.86	1695.72
212.08	1697.77
212.30	1669.09
212.52	1710.05
212.74	1720.29
212.96	1728.49
213.17	1724.39
213.39	1726.44
213.61	1796.07
213.83	1816.55
214.05	1671.14
214.27	1744.87
214.49	1658.85
214.71	1636.33
214.93	1765.35
215.15	1693.67
215.37	1671.14
215.59	1699.81
215.81	1722.34
216.03	1744.87
216.24	1796.07
216.46	1632.23
216.68	1736.68
216.90	1775.59
217.12	1773.54
217.34	1740.77
217.56	1648.61
217.78	1734.63
218.00	1675.24
218.22	1687.53
218.44	1671.14
218.66	1697.77
218.87	1884.13
219.09	1701.86
219.31	1687.53
219.53	1654.76
219.75	1636.33
219.97	1724.39
220.19	1722.34
220.41	1708.01
220.63	1806.31
220.85	1712.10
221.06	1591.27
221.28	1777.64
221.50	1734.63
221.72	1726.44
221.94	1728.49
222.16	1624.04
222.38	1763.30
222.60	1720.29
222.82	1746.92
223.03	1669.09
223.25	1638.38
223.47	1796.07
223.69	1869.80
223.91	1761.25
224.13	1722.34
224.35	1652.71
224.57	1787.88
224.78	1722.34
225.00	1679.33
225.22	1736.68
225.44	1654.76
225.66	1751.01
225.88	1701.86
226.10	1841.12
226.32	1673.19
226.53	1783.78
226.75	1730.53
226.97	1667.05
227.19	1783.78
227.41	1656.81
227.63	1660.90
227.85	1632.23
228.06	1701.86
228.28	1671.14
228.50	1767.40
228.72	1624.04
228.94	1636.33
229.16	1626.09
229.37	1599.46
229.59	1621.99
229.81	1771.49
230.03	1660.90
230.25	1746.92
230.47	1673.19
230.69	1642.47
230.90	1759.21
231.12	1726.44
231.34	1675.24
231.56	1816.55
231.78	1621.99
232.00	1667.05
232.21	1632.23
232.43	1658.85
232.65	1578.98
232.87	1667.05
233.09	1650.66
233.30	1673.19
233.52	1691.62
233.74	1615.85
233.96	1673.19
234.18	1673.19
234.40	1648.61
234.61	1763.30
234.83	1640.42
235.05	1689.57
235.27	1839.08
235.49	1726.44
235.70	1708.01
235.92	1820.64
236.14	1695.72
236.36	1818.60
236.58	1679.33
236.79	1703.91
237.01	1734.63
237.23	1634.28
237.45	1818.60
237.67	1648.61
237.88	1757.16
238.10	1853.41
238.32	1642.47
238.54	1697.77
238.76	1656.81
238.97	1697.77
239.19	1634.28
239.41	1751.01
239.63	1814.50
239.85	1685.48
240.06	1722.34
240.28	1615.85
240.50	1779.68
240.72	1726.44
240.93	1742.82
241.15	1699.81
241.37	1828.84
241.59	1818.60
241.81	1714.15
242.02	1675.24
242.24	1691.62
242.46	1742.82
242.68	1632.23
242.89	1693.67
243.11	1726.44
243.33	1699.81
243.55	1693.67
243.76	1714.15
243.98	1671.14
244.20	1722.34
244.42	1701.86
244.64	1667.05
244.85	1718.25
245.07	1619.94
245.29	1703.91
245.51	1720.29
245.72	1708.01
245.94	1775.59
246.16	1710.05
246.38	1773.54
246.59	1689.57
246.81	1685.48
247.03	1642.47
247.24	1562.60
247.46	1687.53
247.68	1708.01
247.90	1693.67
248.11	1654.76
248.33	1669.09
248.55	1656.81
248.77	1691.62
248.98	1751.01
249.20	1816.55
249.42	1718.25
249.64	1689.57
249.85	1673.19
250.07	1691.62
250.29	1705.96
250.50	1748.97
250.72	1570.79
250.94	1675.24
251.16	1796.07
251.37	1796.07
251.59	1746.92
251.81	1785.83
252.02	1751.01
252.24	1654.76
252.46	1693.67
252.68	1658.85
252.89	1642.47
253.11	1677.29
253.33	1841.12
253.54	1771.49
253.76	1656.81
253.98	1683.43
254.20	1699.81
254.41	1636.33
254.63	1630.18
254.85	1587.18
255.06	1751.01
255.28	1722.34
255.50	1683.43
255.71	1617.90
255.93	1603.56
256.15	1640.42
256.36	1738.73
256.58	1640.42
256.80	1789.92
257.02	1656.81
257.23	1648.61
257.45	1669.09
257.67	1718.25
257.88	1691.62
258.10	1755.11
258.32	1757.16
258.53	1712.10
258.75	1800.16
258.97	1585.13
259.18	1710.05
259.40	1665.00
259.62	1837.03
259.83	1724.39
260.05	1800.16
260.27	1959.91
260.48	1738.73
260.70	1595.37
260.92	1673.19
261.13	1615.85
261.35	1693.67
261.57	1734.63
261.78	1566.70
262.00	1685.48
262.22	1746.92
262.43	1660.90
262.65	1722.34
262.86	1691.62
263.08	1810.40
263.30	1667.05
263.51	1619.94
263.73	1728.49
263.95	1712.10
264.16	1644.52
264.38	1685.48
264.60	1642.47
264.81	1681.38
265.03	1759.21
265.25	1804.26
265.46	1689.57
265.68	1800.16
265.89	1796.07
266.11	1642.47
266.33	1742.82
266.54	1775.59
266.76	1769.44
266.98	1765.35
267.19	1708.01
267.41	1734.63
267.62	1681.38
267.84	1628.14
268.06	1765.35
268.27	1691.62
268.49	1816.55
268.70	1726.44
268.92	1746.92
269.14	1697.77
269.35	1630.18
269.57	1607.66
269.79	1726.44
270.00	1742.82
270.22	1816.55
270.43	1697.77
270.65	1626.09
270.87	1681.38
271.08	1738.73
271.30	1748.97
271.51	1722.34
271.73	1734.63
271.95	1755.11
272.16	1724.39
272.38	1697.77
272.59	1722.34
272.81	1658.85
273.02	1746.92
273.24	1751.01
273.46	1687.53
273.67	1624.04
273.89	1671.14
274.10	1681.38
274.32	1757.16
274.54	1734.63
274.75	1716.20
274.97	1675.24
275.18	1710.05
275.40	1740.77
275.61	1701.86
275.83	1763.30
276.05	1656.81
276.26	1677.29
276.48	1734.63
276.69	1722.34
276.91	1673.19
277.12	1718.25
277.34	1701.86
277.55	1665.00
277.77	1665.00
277.99	1597.42
278.20	1660.90
278.42	1652.71
278.63	1630.18
278.85	1726.44
279.06	1669.09
279.28	1693.67
279.49	1730.53
279.71	1736.68
279.93	1681.38
280.14	1689.57
280.36	1652.71
280.57	1708.01
280.79	1837.03
281.00	1722.34
281.22	1710.05
281.43	1724.39
281.65	1609.70
281.86	1662.95
282.08	1710.05
282.29	1818.60
282.51	1656.81
282.73	1630.18
282.94	1560.55
283.16	1730.53
283.37	1810.40
283.59	1730.53
283.80	1671.14
284.02	1699.81
284.23	1703.91
284.45	1636.33
284.66	1628.14
284.88	1712.10
285.09	1718.25
285.31	1767.40
285.52	1730.53
285.74	1665.00
285.95	1681.38
286.17	1703.91
286.38	1777.64
286.60	1697.77
286.81	1646.57
287.03	1689.57
287.24	1665.00
287.46	1767.40
287.67	1714.15
287.89	1771.49
288.10	1597.42
288.32	1777.64
288.53	1787.88
288.75	1720.29
288.96	1699.81
289.18	1677.29
289.39	1683.43
289.61	1665.00
289.82	1759.21
290.04	1804.26
290.25	1636.33
290.47	1689.57
290.68	1701.86
290.90	1775.59
291.11	1656.81
291.33	1734.63
291.54	1656.81
291.76	1658.85
291.97	1730.53
292.18	1683.43
292.40	1677.29
292.61	1632.23
292.83	1837.03
293.04	1742.82
293.26	1638.38
293.47	1705.96
293.69	1640.42
293.90	1673.19
294.12	1791.97
294.33	1681.38
294.55	1621.99
294.76	1740.77
294.97	1802.21
295.19	1812.45
295.40	1691.62
295.62	1728.49
295.83	1775.59
296.05	1691.62
296.26	1781.73
296.48	1703.91
296.69	1705.96
296.90	1759.21
297.12	1763.30
297.33	1675.24
297.55	1779.68
297.76	1746.92
297.98	1759.21
298.19	1662.95
298.41	1710.05
298.62	1548.26
298.83	1751.01
299.05	1665.00
299.26	1669.09
299.48	1724.39
299.69	1783.78
299.90	1662.95
300.12	1636.33
300.33	1738.73
300.55	1722.34
300.76	1669.09
300.98	1671.14
301.19	1722.34
301.40	1699.81
301.62	1697.77
301.83	1755.11
302.05	1652.71
302.26	1660.90
302.47	1697.77
302.69	1621.99
302.90	1771.49
303.12	1689.57
303.33	1742.82
303.54	1806.31
303.76	1669.09
303.97	1714.15
304.19	1744.87
304.40	1665.00
304.61	1714.15
304.83	1886.18
305.04	1738.73
305.26	1755.11
305.47	1654.76
305.68	1654.76
305.90	1665.00
306.11	1726.44
306.33	1687.53
306.54	1656.81
306.75	1718.25
306.97	1593.32
307.18	1685.48
307.39	1742.82
307.61	1716.20
307.82	1665.00
308.04	1689.57
308.25	1591.27
308.46	1755.11
308.68	1730.53
308.89	1683.43
309.10	1708.01
309.32	1730.53
309.53	1691.62
309.74	1718.25
309.96	1683.43
310.17	1796.07
310.39	1669.09
310.60	1705.96
310.81	1740.77
311.03	1673.19
311.24	1726.44
311.45	1628.14
311.67	1826.79
311.88	1679.33
312.09	1642.47
312.31	1632.23
312.52	1683.43
312.73	1689.57
312.95	1658.85
313.16	1660.90
313.37	1767.40
313.59	1767.40
313.80	1724.39
314.01	1796.07
314.23	1675.24
314.44	1675.24
314.65	1662.95
314.87	1710.05
315.08	1685.48
315.29	1662.95
315.51	1677.29
315.72	1568.74
315.93	1828.84
316.15	1796.07
316.36	1720.29
316.57	1667.05
316.79	1732.58
317.00	1697.77
317.21	1726.44
317.43	1691.62
317.64	1755.11
317.85	1669.09
318.07	1656.81
318.28	1732.58
318.49	1824.74
318.70	1923.04
318.92	1816.55
319.13	1791.97
319.34	1742.82
319.56	1789.92
319.77	1785.83
319.98	1810.40
320.20	1779.68
320.41	1742.82
320.62	1775.59
320.83	1644.52
321.05	1904.61
321.26	1740.77
321.47	1660.90
321.69	1714.15
321.90	1640.42
322.11	1646.57
322.32	1708.01
322.54	1773.54
322.75	1626.09
322.96	1884.13
323.18	1652.71
323.39	1560.55
323.60	1744.87
323.81	1781.73
324.03	1695.72
324.24	1746.92
324.45	1732.58
324.66	1669.09
324.88	1740.77
325.09	1779.68
325.30	1609.70
325.52	1763.30
325.73	1783.78
325.94	1611.75
326.15	1656.81
326.37	1703.91
326.58	1689.57
326.79	1791.97
327.00	1718.25
327.22	1742.82
327.43	1701.86
327.64	1632.23
327.85	1763.30
328.07	1697.77
328.28	1837.03
328.49	1658.85
328.70	1632.23
328.92	1660.90
329.13	1636.33
329.34	1648.61
329.55	1781.73
329.76	1773.54
329.98	1724.39
330.19	1716.20
330.40	1726.44
330.61	1679.33
330.83	1722.34
331.04	1652.71
331.25	1710.05
331.46	1751.01
331.68	1677.29
331.89	1740.77
332.10	1751.01
332.31	1640.42
332.52	1734.63
332.74	1779.68
332.95	1632.23
333.16	1677.29
333.37	1740.77
333.58	1654.76
333.80	1708.01
334.01	1601.51
334.22	1593.32
334.43	1615.85
334.64	1675.24
334.86	1710.05
335.07	1665.00
335.28	1865.70
335.49	1591.27
335.70	1787.88
335.92	1751.01
336.13	1810.40
336.34	1765.35
336.55	1736.68
336.76	1724.39
336.98	1603.56
337.19	1675.24
337.40	1802.21
337.61	1818.60
337.82	1720.29
338.04	1712.10
338.25	1558.50
338.46	1701.86
338.67	1759.21
338.88	1621.99
339.09	1574.89
339.31	1724.39
339.52	1703.91
339.73	1636.33
339.94	1699.81
340.15	1767.40
340.36	1667.05
340.58	1685.48
340.79	1632.23
341.00	1730.53
341.21	1703.91
341.42	1759.21
341.63	1691.62
341.85	1763.30
342.06	1703.91
342.27	1617.90
342.48	1683.43
342.69	1695.72
342.90	1769.44
343.12	1757.16
343.33	1628.14
343.54	1761.25
343.75	1712.10
343.96	1710.05
344.17	1685.48
344.38	1636.33
344.60	1644.52
344.81	1673.19
345.02	1644.52
345.23	1691.62
345.44	1693.67
345.65	1746.92
345.86	1632.23
346.07	1701.86
346.29	1697.77
346.50	1732.58
346.71	1730.53
346.92	1726.44
347.13	1845.22
347.34	1632.23
347.55	1656.81
347.76	1757.16
347.98	1626.09
348.19	1714.15
348.40	1787.88
348.61	1695.72
348.82	1789.92
349.03	1722.34
349.24	1726.44
349.45	1761.25
349.66	1628.14
349.88	1683.43
350.09	1685.48
350.30	1814.50
350.51	1710.05
350.72	1681.38
350.93	1824.74
351.14	1652.71
351.35	1773.54
351.56	1685.48
351.77	1603.56
351.99	1726.44
352.20	1794.02
352.41	1783.78
352.62	1607.66
352.83	1634.28
353.04	1652.71
353.25	1652.71
353.46	1732.58
353.67	1705.96
353.88	1624.04
354.09	1669.09
354.30	1740.77
354.52	1679.33
354.73	1732.58
354.94	1697.77
355.15	1732.58
355.36	1734.63
355.57	1628.14
355.78	1710.05
355.99	1710.05
356.20	1689.57
356.41	1787.88
356.62	1767.40
356.83	1656.81
357.04	1810.40
357.25	1611.75
357.46	1599.46
357.68	1574.89
357.89	1638.38
358.10	1669.09
358.31	1746.92
358.52	1751.01
358.73	1685.48
358.94	1644.52
359.15	1654.76
359.36	1767.40
359.57	1716.20
359.78	1691.62
359.99	1753.06
360.20	1607.66
360.41	1621.99
360.62	1587.18
360.83	1779.68
361.04	1779.68
361.25	1687.53
361.46	1814.50
361.67	1794.02
361.88	1720.29
362.09	1796.07
362.30	1746.92
362.51	1679.33
362.72	1742.82
362.93	1761.25
363.14	1806.31
363.35	1697.77
363.56	1607.66
363.78	1681.38
363.99	1789.92
364.20	1658.85
364.41	1726.44
364.62	1798.12
364.83	1742.82
365.04	1662.95
365.25	1746.92
365.46	1765.35
365.67	1685.48
365.88	1562.60
366.09	1685.48
366.30	1714.15
366.51	1708.01
366.72	1652.71
366.93	1675.24
367.14	1726.44
367.35	1781.73
367.56	1679.33
367.77	1855.46
367.98	1603.56
368.18	1726.44
368.39	1740.77
368.60	1656.81
368.81	1787.88
369.02	1695.72
369.23	1718.25
369.44	1599.46
369.65	1593.32
369.86	1738.73
370.07	1769.44
370.28	1626.09
370.49	1781.73
370.70	1769.44
370.91	1644.52
371.12	1621.99
371.33	1726.44
371.54	1685.48
371.75	1826.79
371.96	1533.93
372.17	1697.77
372.38	1701.86
372.59	1703.91
372.80	1667.05
373.01	1644.52
373.22	1697.77
373.43	1703.91
373.64	1626.09
373.85	1730.53
374.06	1732.58
374.26	1722.34
374.47	1712.10
374.68	1748.97
374.89	1748.97
375.10	1703.91
375.31	1714.15
375.52	1712.10
375.73	1787.88
375.94	1595.37
376.15	1869.80
376.36	1746.92
376.57	1628.14
376.78	1746.92
376.99	1748.97
377.20	1794.02
377.40	1621.99
377.61	1775.59
377.82	1699.81
378.03	1757.16
378.24	1708.01
378.45	1640.42
378.66	1746.92
378.87	1665.00
379.08	1640.42
379.29	1710.05
379.50	1722.34
379.71	1708.01
379.91	1789.92
380.12	1671.14
380.33	1765.35
380.54	1681.38
380.75	1677.29
380.96	1685.48
381.17	1671.14
381.38	1755.11
381.59	1763.30
381.80	1636.33
382.00	1814.50
382.21	1751.01
382.42	1777.64
382.63	1800.16
382.84	1781.73
383.05	1763.30
383.26	1937.38
383.47	1736.68
383.68	1658.85
383.88	1761.25
384.09	1665.00
384.30	1884.13
384.51	1732.58
384.72	1640.42
384.93	1673.19
385.14	1687.53
385.35	1818.60
385.55	1652.71
385.76	1724.39
385.97	1658.85
386.18	1601.51
386.39	1630.18
386.60	1630.18
386.81	1650.66
387.02	1673.19
387.22	1673.19
387.43	1751.01
387.64	1828.84
387.85	1767.40
388.06	2224.09
388.27	4294.59
388.48	6795.16
388.68	8257.41
388.89	9693.04
389.10	9832.30
389.31	8472.45
389.52	7448.46
389.73	6666.14
389.93	6262.69
390.14	5851.05
390.35	5285.81
390.56	4577.21
390.77	3782.60
390.98	2959.31
391.18	2588.63
391.39	2136.03
391.60	1875.94
391.81	1822.69
392.02	1720.29
392.23	1935.33
392.43	1712.10
392.64	1834.98
392.85	1662.95
393.06	1785.83
393.27	1730.53
393.47	1667.05
393.68	1708.01
393.89	1730.53
394.10	1740.77
394.31	1671.14
394.52	1617.90
394.72	1695.72
394.93	1791.97
395.14	1656.81
395.35	1669.09
395.56	1681.38
395.76	1656.81
395.97	1736.68
396.18	1865.70
396.39	1916.90
396.60	2015.20
396.80	1898.47
397.01	1939.43
397.22	1808.36
397.43	1916.90
397.64	1662.95
397.84	1755.11
398.05	1804.26
398.26	1742.82
398.47	1714.15
398.67	1769.44
398.88	1673.19
399.09	1685.48
399.30	1699.81
399.51	1783.78
399.71	1605.61
399.92	1679.33
400.13	1708.01
400.34	1701.86
400.54	1716.20
400.75	1765.35
400.96	1681.38
401.17	1746.92
401.37	1705.96
401.58	1712.10
401.79	1730.53
402.00	1845.22
402.21	1974.24
402.41	1937.38
402.62	1996.77
402.83	2123.74
403.04	2041.82
403.24	2078.69
403.45	1796.07
403.66	1888.23
403.87	1837.03
404.07	1886.18
404.28	1886.18
404.49	1955.81
404.70	1781.73
404.90	1748.97
405.11	1642.47
405.32	1785.83
405.52	1669.09
405.73	1718.25
405.94	1683.43
406.15	1732.58
406.35	1773.54
406.56	1759.21
406.77	1716.20
406.98	1794.02
407.18	1617.90
407.39	1834.98
407.60	1650.66
407.80	1753.06
408.01	1667.05
408.22	1734.63
408.43	1632.23
408.63	1708.01
408.84	1738.73
409.05	1779.68
409.25	1650.66
409.46	1671.14
409.67	1642.47
409.88	1640.42
410.08	1685.48
410.29	1705.96
410.50	1679.33
410.70	1681.38
410.91	1669.09
411.12	1697.77
411.32	1794.02
411.53	1673.19
411.74	1859.56
411.95	1812.45
412.15	1775.59
412.36	1847.27
412.57	1771.49
412.77	1796.07
412.98	1699.81
413.19	1685.48
413.39	1748.97
413.60	1769.44
413.81	1857.51
414.01	1648.61
414.22	1738.73
414.43	1687.53
414.63	1636.33
414.84	1701.86
415.05	1648.61
415.25	1632.23
415.46	1751.01
415.67	1710.05
415.87	1789.92
416.08	1728.49
416.29	1667.05
416.49	1798.12
416.70	1679.33
416.91	1718.25
417.11	1722.34
417.32	1712.10
417.53	1728.49
417.73	1730.53
417.94	1687.53
418.15	1687.53
418.35	1712.10
418.56	1705.96
418.77	1773.54
418.97	1683.43
419.18	1648.61
419.38	1550.31
419.59	1654.76
419.80	1830.88
420.00	1658.85
420.21	1785.83
420.42	1798.12
420.62	1691.62
420.83	1673.19
421.04	1677.29
421.24	1701.86
421.45	1820.64
421.65	1763.30
421.86	1665.00
422.07	1722.34
422.27	1662.95
422.48	1736.68
422.69	1671.14
422.89	1718.25
423.10	1671.14
423.30	1662.95
423.51	1775.59
423.72	1669.09
423.92	1761.25
424.13	1646.57
424.33	1714.15
424.54	1742.82
424.75	1763.30
424.95	1685.48
425.16	1740.77
425.36	1712.10
425.57	1689.57
425.78	1794.02
425.98	1744.87
426.19	1654.76
426.39	1687.53
426.60	1765.35
426.81	1822.69
427.01	1697.77
427.22	1576.94
427.42	1632.23
427.63	1634.28
427.83	1773.54
428.04	1779.68
428.25	1771.49
428.45	1757.16
428.66	1708.01
428.86	1669.09
429.07	1746.92
429.28	1714.15
429.48	1613.80
429.69	1701.86
429.89	1720.29
430.10	1583.08
430.30	1662.95
430.51	1800.16
430.71	1726.44
430.92	1681.38
431.13	1763.30
431.33	1763.30
431.54	1757.16
431.74	1791.97
431.95	1873.89
432.15	1703.91
432.36	1751.01
432.56	1697.77
432.77	1828.84
432.98	1820.64
433.18	1751.01
433.39	1642.47
433.59	1689.57
433.80	1843.17
434.00	1796.07
434.21	1734.63
434.41	1699.81
434.62	1824.74
434.82	1691.62
435.03	1681.38
435.23	1769.44
435.44	1632.23
435.64	1714.15
435.85	1722.34
436.06	1722.34
436.26	1783.78
436.47	1738.73
436.67	1763.30
436.88	1701.86
437.08	1669.09
437.29	1779.68
437.49	1699.81
437.70	1828.84
437.90	1693.67
438.11	1920.99
438.31	1712.10
438.52	1857.51
438.72	1812.45
438.93	1953.76
439.13	1808.36
439.34	1806.31
439.54	1742.82
439.75	1859.56
439.95	1871.84
440.16	1658.85
440.36	1755.11
440.57	1699.81
440.77	1753.06
440.98	1734.63
441.18	1732.58
441.39	1648.61
441.59	1607.66
441.80	1814.50
442.00	1687.53
442.21	1808.36
442.41	1621.99
442.62	1746.92
442.82	1740.77
443.02	1744.87
443.23	1751.01
443.43	1669.09
443.64	1822.69
443.84	1650.66
444.05	1736.68
444.25	1712.10
444.46	1640.42
444.66	1759.21
444.87	1759.21
445.07	1675.24
445.28	1742.82
445.48	1716.20
445.69	1755.11
445.89	1894.37
446.09	1757.16
446.30	1974.24
446.50	2662.36
446.71	3647.43
446.91	4249.54
447.12	4712.38
447.32	4749.24
447.53	4294.59
447.73	3887.04
447.93	3592.14
448.14	3297.23
448.34	3198.93
448.55	2965.46
448.75	2873.30
448.96	2701.27
449.16	2469.85
449.36	2338.78
449.57	2107.36
449.77	1904.61
449.98	1779.68
450.18	1837.03
450.39	1828.84
450.59	1798.12
450.79	1744.87
451.00	1626.09
451.20	1724.39
451.41	1783.78
451.61	1800.16
451.81	1724.39
452.02	1665.00
452.22	1693.67
452.43	1703.91
452.63	1677.29
452.84	1703.91
453.04	1714.15
453.24	1697.77
453.45	1695.72
453.65	1734.63
453.86	1769.44
454.06	1738.73
454.26	1757.16
454.47	1744.87
454.67	1898.47
454.87	1808.36
455.08	1761.25
455.28	1783.78
455.49	1718.25
455.69	1769.44
455.89	1871.84
456.10	1851.36
456.30	1783.78
456.51	1716.20
456.71	1779.68
456.91	1789.92
457.12	1759.21
457.32	1767.40
457.52	1632.23
457.73	1796.07
457.93	1802.21
458.14	1683.43
458.34	1716.20
458.54	1693.67
458.75	1697.77
458.95	1775.59
459.15	1718.25
459.36	1744.87
459.56	1738.73
459.76	1892.32
459.97	1773.54
460.17	1722.34
460.37	1822.69
460.58	1712.10
460.78	1734.63
460.99	1685.48
461.19	1771.49
461.39	1662.95
461.60	1669.09
461.80	1761.25
462.00	1710.05
462.21	1681.38
462.41	1650.66
462.61	1691.62
462.82	1587.18
463.02	1712.10
463.22	1759.21
463.43	1755.11
463.63	1744.87
463.83	1867.75
464.04	1718.25
464.24	1703.91
464.44	1665.00
464.64	1660.90
464.85	1769.44
465.05	1869.80
465.25	1648.61
465.46	1705.96
465.66	1773.54
465.86	1761.25
466.07	1785.83
466.27	1734.63
466.47	1607.66
466.68	1607.66
466.88	1779.68
467.08	1744.87
467.29	1718.25
467.49	1783.78
467.69	1791.97
467.89	1718.25
468.10	1732.58
468.30	1773.54
468.50	1736.68
468.71	1785.83
468.91	1574.89
469.11	1832.93
469.31	1650.66
469.52	1662.95
469.72	1830.88
469.92	1806.31
470.13	1648.61
470.33	1714.15
470.53	1824.74
470.73	2125.79
470.94	2326.49
471.14	2318.30
471.34	2543.58
471.54	2322.40
471.75	2232.29
471.95	2088.93
472.15	2131.94
472.36	2093.02
472.56	2125.79
472.76	2033.63
472.96	2019.30
473.17	1914.85
473.37	1978.34
473.57	1828.84
473.77	1779.68
473.98	1732.58
474.18	1671.14
474.38	1900.52
474.58	1683.43
474.79	1695.72
474.99	1716.20
475.19	1851.36
475.39	1675.24
475.60	1701.86
475.80	1769.44
476.00	1742.82
476.20	1679.33
476.41	1679.33
476.61	1779.68
476.81	1855.46
477.01	1671.14
477.21	1853.41
477.42	1759.21
477.62	1667.05
477.82	1708.01
478.02	1677.29
478.23	1701.86
478.43	1626.09
478.63	1617.90
478.83	1712.10
479.03	1691.62
479.24	1800.16
479.44	1863.65
479.64	1583.08
479.84	1562.60
480.04	1712.10
480.25	1796.07
480.45	1683.43
480.65	1730.53
480.85	1777.64
481.06	1658.85
481.26	1798.12
481.46	1755.11
481.66	1665.00
481.86	1753.06
482.06	1748.97
482.27	1744.87
482.47	1693.67
482.67	1773.54
482.87	1660.90
483.07	1828.84
483.28	1671.14
483.48	1656.81
483.68	1714.15
483.88	1597.42
484.08	1566.70
484.29	1683.43
484.49	1810.40
484.69	1648.61
484.89	1806.31
485.09	1812.45
485.29	1726.44
485.50	1771.49
485.70	1669.09
485.90	1779.68
486.10	1761.25
486.30	1751.01
486.50	1720.29
486.71	1662.95
486.91	1796.07
487.11	1693.67
487.31	1699.81
487.51	1767.40
487.71	1658.85
487.91	1699.81
488.12	1658.85
488.32	1589.22
488.52	1734.63
488.72	1574.89
488.92	1677.29
489.12	1685.48
489.32	1751.01
489.53	1777.64
489.73	1591.27
489.93	1802.21
490.13	1753.06
490.33	1656.81
490.53	1701.86
490.73	1773.54
490.94	1609.70
491.14	1757.16
491.34	1828.84
491.54	2158.56
491.74	2596.82
491.94	3026.90
492.14	3131.34
492.34	2985.94
492.54	2738.13
492.75	2496.47
492.95	2449.37
493.15	2373.60
493.35	2197.47
493.55	2213.85
493.75	2170.85
493.95	2179.04
494.15	2000.87
494.35	1849.32
494.56	1847.27
494.76	1794.02
494.96	1800.16
495.16	1734.63
495.36	1746.92
495.56	1726.44
495.76	1691.62
495.96	1718.25
496.16	1654.76
496.36	1814.50
496.56	1748.97
496.77	1791.97
496.97	1683.43
497.17	1785.83
497.37	1626.09
497.57	1718.25
497.77	1689.57
497.97	1701.86
498.17	1724.39
498.37	1783.78
498.57	1732.58
498.77	1691.62
498.97	1777.64
499.17	1824.74
499.38	1685.48
499.58	1685.48
499.78	1779.68
499.98	1726.44
500.18	1753.06
500.38	1746.92
500.58	1861.60
500.78	2672.60
500.98	4620.22
501.18	5830.57
501.38	6662.04
501.58	7124.88
501.78	6676.38
501.98	5506.99
502.18	5119.92
502.38	4440.00
502.58	4042.69
502.78	3893.19
502.98	3622.86
503.18	3510.22
503.38	3135.44
503.59	2881.49
503.79	2693.08
503.99	2549.72
504.19	2265.05
504.39	2222.05
504.59	2230.24
504.79	2117.60
504.99	2090.98
505.19	1923.04
505.39	1931.23
505.59	1933.28
505.79	1865.70
505.99	1814.50
506.19	1785.83
506.39	1970.15
506.59	1669.09
506.79	1748.97
506.99	1806.31
507.19	1824.74
507.39	1726.44
507.59	1636.33
507.79	1742.82
507.99	1646.57
508.19	1734.63
508.39	1736.68
508.59	1675.24
508.79	1796.07
508.99	1763.30
509.19	1673.19
509.39	1794.02
509.59	1720.29
509.79	1683.43
509.99	1751.01
510.19	1679.33
510.39	1755.11
510.59	1665.00
510.79	1689.57
510.99	1624.04
511.19	1773.54
511.39	1787.88
511.59	1699.81
511.79	1824.74
511.99	1763.30
512.19	1851.36
512.38	1787.88
512.58	1703.91
512.78	1693.67
512.98	1779.68
513.18	1855.46
513.38	1685.48
513.58	1824.74
513.78	1648.61
513.98	1720.29
514.18	1675.24
514.38	1705.96
514.58	1718.25
514.78	1660.90
514.98	1701.86
515.18	1683.43
515.38	1683.43
515.58	1839.08
515.78	1755.11
515.98	1802.21
516.18	1701.86
516.38	1834.98
516.57	1654.76
516.77	1736.68
516.97	1730.53
517.17	1742.82
517.37	1644.52
517.57	1761.25
517.77	1669.09
517.97	1695.72
518.17	1781.73
518.37	1716.20
518.57	1705.96
518.77	1746.92
518.97	1689.57
519.16	1705.96
519.36	1765.35
519.56	1673.19
519.76	1763.30
519.96	1753.06
520.16	1769.44
520.36	1699.81
520.56	1853.41
520.76	1808.36
520.96	1732.58
521.16	1753.06
521.35	1843.17
521.55	1773.54
521.75	1703.91
521.95	1658.85
522.15	1773.54
522.35	1619.94
522.55	1589.22
522.75	1755.11
522.95	1677.29
523.14	1660.90
523.34	1800.16
523.54	1744.87
523.74	1830.88
523.94	1722.34
524.14	1581.03
524.34	1734.63
524.54	1802.21
524.73	1771.49
524.93	1712.10
525.13	1714.15
525.33	1679.33
525.53	1853.41
525.73	1732.58
525.93	1759.21
526.13	1660.90
526.32	1781.73
526.52	1810.40
526.72	1765.35
526.92	1669.09
527.12	1751.01
527.32	1642.47
527.52	1812.45
527.71	1724.39
527.91	1683.43
528.11	1697.77
528.31	1742.82
528.51	1740.77
528.71	1808.36
528.90	1720.29
529.10	1732.58
529.30	1863.65
529.50	1605.61
529.70	1710.05
529.90	1675.24
530.09	1724.39
530.29	1697.77
530.49	1712.10
530.69	1916.90
530.89	1634.28
531.09	1759.21
531.28	1761.25
531.48	1853.41
531.68	1734.63
531.88	1681.38
532.08	1798.12
532.28	1759.21
532.47	1779.68
532.67	1781.73
532.87	1716.20
533.07	1667.05
533.27	1726.44
533.46	1802.21
533.66	1716.20
533.86	1763.30
534.06	1695.72
534.26	1789.92
534.45	1746.92
534.65	1849.32
534.85	1732.58
535.05	1636.33
535.25	1779.68
535.44	1656.81
535.64	1736.68
535.84	1755.11
536.04	1773.54
536.24	1667.05
536.43	1673.19
536.63	1757.16
536.83	1662.95
537.03	1728.49
537.22	1624.04
537.42	1617.90
537.62	1748.97
537.82	1687.53
538.02	1783.78
538.21	1769.44
538.41	1929.19
538.61	1685.48
538.81	1794.02
539.00	1773.54
539.20	1650.66
539.40	1638.38
539.60	1753.06
539.79	1736.68
539.99	1822.69
540.19	1755.11
540.39	1681.38
540.58	1748.97
540.78	1804.26
540.98	1812.45
541.18	1787.88
541.37	1767.40
541.57	1726.44
541.77	1759.21
541.97	1755.11
542.16	1665.00
542.36	1716.20
542.56	1693.67
542.76	1828.84
542.95	1748.97
543.15	1691.62
543.35	1751.01
543.54	1689.57
543.74	1736.68
543.94	1769.44
544.14	1722.34
544.33	1814.50
544.53	1691.62
544.73	1722.34
544.93	1683.43
545.12	1710.05
545.32	1708.01
545.52	1701.86
545.71	1640.42
545.91	1689.57
546.11	1822.69
546.30	1642.47
546.50	1705.96
546.70	1802.21
546.90	1718.25
547.09	1646.57
547.29	1800.16
547.49	1800.16
547.68	1742.82
547.88	1710.05
548.08	1716.20
548.27	2119.65
548.47	1650.66
548.67	1726.44
548.87	1771.49
549.06	1697.77
549.26	1720.29
549.46	1806.31
549.65	1669.09
549.85	1744.87
550.05	1802.21
550.24	1648.61
550.44	1757.16
550.64	1755.11
550.83	1740.77
551.03	1722.34
551.23	1736.68
551.42	1771.49
551.62	1769.44
551.82	1769.44
552.01	1738.73
552.21	1869.80
552.41	1650.66
552.60	1755.11
552.80	1728.49
553.00	1658.85
553.19	1669.09
553.39	1820.64
553.59	1662.95
553.78	1705.96
553.98	1794.02
554.17	1660.90
554.37	1665.00
554.57	1828.84
554.76	1697.77
554.96	1742.82
555.16	1781.73
555.35	1722.34
555.55	1744.87
555.75	1800.16
555.94	1853.41
556.14	1673.19
556.33	1826.79
556.53	1720.29
556.73	1763.30
556.92	1763.30
557.12	1802.21
557.32	1781.73
557.51	1763.30
557.71	1769.44
557.90	1789.92
558.10	1861.60
558.30	1794.02
558.49	1740.77
558.69	1722.34
558.88	1724.39
559.08	1677.29
559.28	1701.86
559.47	1714.15
559.67	1738.73
559.86	1853.41
560.06	1724.39
560.26	1748.97
560.45	1765.35
560.65	1779.68
560.84	1832.93
561.04	1667.05
561.24	1783.78
561.43	1730.53
561.63	1779.68
561.82	1730.53
562.02	1789.92
562.22	1669.09
562.41	1679.33
562.61	1689.57
562.80	1751.01
563.00	1847.27
563.19	1806.31
563.39	1779.68
563.59	1724.39
563.78	1646.57
563.98	1609.70
564.17	1716.20
564.37	1611.75
564.56	1736.68
564.76	1699.81
564.96	1822.69
565.15	1652.71
565.35	1804.26
565.54	1769.44
565.74	1777.64
565.93	1722.34
566.13	1726.44
566.32	1796.07
566.52	1779.68
566.71	1781.73
566.91	1728.49
567.11	1734.63
567.30	1630.18
567.50	1818.60
567.69	1763.30
567.89	1701.86
568.08	1695.72
568.28	1769.44
568.47	1722.34
568.67	1757.16
568.86	1646.57
569.06	1746.92
569.25	1761.25
569.45	1669.09
569.64	1710.05
569.84	1710.05
570.04	1775.59
570.23	1650.66
570.43	1671.14
570.62	1699.81
570.82	1794.02
571.01	1638.38
571.21	1732.58
571.40	1728.49
571.60	1818.60
571.79	1824.74
571.99	1785.83
572.18	1679.33
572.38	1804.26
572.57	1683.43
572.77	1720.29
572.96	1892.32
573.16	1695.72
573.35	1626.09
573.55	1822.69
573.74	1800.16
573.94	1724.39
574.13	1658.85
574.33	1789.92
574.52	1777.64
574.71	1738.73
574.91	1769.44
575.10	1640.42
575.30	1728.49
575.49	1693.67
575.69	1677.29
575.88	1851.36
576.08	1689.57
576.27	1722.34
576.47	1753.06
576.66	1847.27
576.86	1796.07
577.05	1697.77
577.25	1703.91
577.44	1894.37
577.64	1716.20
577.83	1810.40
578.02	1650.66
578.22	1914.85
578.41	1812.45
578.61	1718.25
578.80	1662.95
579.00	1763.30
579.19	1689.57
579.39	1757.16
579.58	1804.26
579.77	1712.10
579.97	1857.51
580.16	1767.40
580.36	1796.07
580.55	1824.74
580.75	1775.59
580.94	1744.87
581.13	1847.27
581.33	1855.46
581.52	1720.29
581.72	1789.92
581.91	1898.47
582.11	1789.92
582.30	1861.60
582.49	1837.03
582.69	1918.95
582.88	1779.68
583.08	1837.03
583.27	1763.30
583.47	1705.96
583.66	1695.72
583.85	1695.72
584.05	1779.68
584.24	1779.68
584.44	1708.01
584.63	1847.27
584.82	1765.35
585.02	1832.93
585.21	1841.12
585.41	1869.80
585.60	1765.35
585.79	1865.70
585.99	1923.04
586.18	1855.46
586.37	2209.76
586.57	3377.10
586.76	9903.98
586.96	24850.05
587.15	34295.28
587.34	40666.52
587.54	41866.63
587.73	36683.22
587.93	26451.56
588.12	21647.03
588.31	18474.73
588.51	16264.97
588.70	15111.96
588.89	14180.14
589.09	12498.75
589.28	11290.45
589.47	9375.60
589.67	7960.45
589.86	6473.63
590.06	4931.51
590.25	3995.59
590.44	3164.11
590.64	2602.97
590.83	2306.01
591.02	2146.27
591.22	1980.39
591.41	1867.75
591.60	1814.50
591.80	1908.71
591.99	1689.57
592.18	1732.58
592.38	1871.84
592.57	1767.40
592.76	1722.34
592.96	1800.16
593.15	1753.06
593.34	1839.08
593.54	1746.92
593.73	1701.86
593.92	1794.02
594.12	1761.25
594.31	1705.96
594.50	1783.78
594.70	1787.88
594.89	1902.56
595.08	1742.82
595.28	1804.26
595.47	1935.33
595.66	1794.02
595.86	1697.77
596.05	1650.66
596.24	1705.96
596.43	1757.16
596.63	1832.93
596.82	1763.30
597.01	1775.59
597.21	1787.88
597.40	1699.81
597.59	1759.21
597.79	1791.97
597.98	1724.39
598.17	1779.68
598.36	1722.34
598.56	1804.26
598.75	1761.25
598.94	1712.10
599.14	1771.49
599.33	1699.81
599.52	1736.68
599.71	1763.30
599.91	1775.59
600.10	1744.87
600.29	1779.68
600.48	1767.40
600.68	1802.21
600.87	1734.63
601.06	1710.05
601.26	1744.87
601.45	1804.26
601.64	1746.92
601.83	1804.26
602.03	1705.96
602.22	1691.62
602.41	1787.88
602.60	1863.65
602.80	1775.59
602.99	1777.64
603.18	1662.95
603.37	1624.04
603.57	1798.12
603.76	1794.02
603.95	1808.36
604.14	1714.15
604.34	1665.00
604.53	1730.53
604.72	1771.49
604.91	1781.73
605.10	1757.16
605.30	1716.20
605.49	1798.12
605.68	1751.01
605.87	1798.12
606.07	1724.39
606.26	1800.16
606.45	1734.63
606.64	1701.86
606.84	1724.39
607.03	1722.34
607.22	1679.33
607.41	1628.14
607.60	1710.05
607.80	1722.34
607.99	1759.21
608.18	1763.30
608.37	1732.58
608.56	1636.33
608.76	1746.92
608.95	1812.45
609.14	1724.39
609.33	1746.92
609.52	1761.25
609.72	1744.87
609.91	1759.21
610.10	1753.06
610.29	1800.16
610.48	1781.73
610.68	1781.73
610.87	1712.10
611.06	1779.68
611.25	1738.73
611.44	1867.75
611.63	1714.15
611.83	1751.01
612.02	1667.05
612.21	1777.64
612.40	1585.13
612.59	1646.57
612.79	1658.85
612.98	1748.97
613.17	1812.45
613.36	1697.77
613.55	1789.92
613.74	1667.05
613.93	1767.40
614.13	1699.81
614.32	1779.68
614.51	1755.11
614.70	1751.01
614.89	1710.05
615.08	1794.02
615.28	2084.83
615.47	1650.66
615.66	1691.62
615.85	1665.00
616.04	1832.93
616.23	1687.53
616.42	1796.07
616.62	1796.07
616.81	1673.19
617.00	1746.92
617.19	1716.20
617.38	1718.25
617.57	1751.01
617.76	1710.05
617.95	1769.44
618.15	1710.05
618.34	1812.45
618.53	1644.52
618.72	1763.30
618.91	1816.55
619.10	1834.98
619.29	1726.44
619.48	1691.62
619.68	1722.34
619.87	1703.91
620.06	1652.71
620.25	1710.05
620.44	1791.97
620.63	1771.49
620.82	1705.96
621.01	1769.44
621.20	1734.63
621.39	1806.31
621.59	1673.19
621.78	1683.43
621.97	1744.87
622.16	1738.73
622.35	1763.30
622.54	1802.21
622.73	1802.21
622.92	1609.70
623.11	1730.53
623.30	1621.99
623.49	1800.16
623.68	1718.25
623.88	1818.60
624.07	1736.68
624.26	1755.11
624.45	1667.05
624.64	1703.91
624.83	1654.76
625.02	1708.01
625.21	1755.11
625.40	1763.30
625.59	1736.68
625.78	1738.73
625.97	1800.16
626.16	1732.58
626.35	1724.39
626.54	1693.67
626.74	1822.69
626.93	1740.77
627.12	1757.16
627.31	1818.60
627.50	1779.68
627.69	1730.53
627.88	1648.61
628.07	1705.96
628.26	1638.38
628.45	1736.68
628.64	1675.24
628.83	1701.86
629.02	1730.53
629.21	1796.07
629.40	1775.59
629.59	1708.01
629.78	1685.48
629.97	1689.57
630.16	1730.53
630.35	1703.91
630.54	1765.35
630.73	1656.81
630.92	1757.16
631.11	1746.92
631.30	1798.12
631.49	1732.58
631.68	1697.77
631.87	1783.78
632.06	1673.19
632.25	1828.84
632.44	1669.09
632.63	1759.21
632.82	1605.61
633.01	1630.18
633.20	1677.29
633.39	1718.25
633.58	1583.08
633.77	1742.82
633.96	1734.63
634.15	1759.21
634.34	1701.86
634.53	1767.40
634.72	1720.29
634.91	1652.71
635.10	1685.48
635.29	1804.26
635.48	1726.44
635.67	1730.53
635.86	1630.18
636.05	1781.73
636.24	1695.72
636.43	1724.39
636.62	1691.62
636.81	1609.70
637.00	1646.57
637.19	1775.59
637.38	1695.72
637.57	1615.85
637.76	1748.97
637.95	1734.63
638.14	1667.05
638.33	1748.97
638.52	1695.72
638.71	1667.05
638.89	1689.57
639.08	1796.07
639.27	1751.01
639.46	1570.79
639.65	1777.64
639.84	1681.38
640.03	1773.54
640.22	1660.90
640.41	1873.89
640.60	1705.96
640.79	1732.58
640.98	1693.67
641.17	1724.39
641.36	1714.15
641.55	1701.86
641.74	1603.56
641.92	1685.48
642.11	1607.66
642.30	1714.15
642.49	1621.99
642.68	1683.43
642.87	1689.57
643.06	1689.57
643.25	1646.57
643.44	1689.57
643.63	1671.14
643.82	1763.30
644.00	1654.76
644.19	1652.71
644.38	1613.80
644.57	1763.30
644.76	1746.92
644.95	1716.20
645.14	1783.78
645.33	1665.00
645.52	1732.58
645.71	1730.53
645.89	1640.42
646.08	1699.81
646.27	1695.72
646.46	1818.60
646.65	1619.94
646.84	1710.05
647.03	1621.99
647.22	1779.68
647.40	1642.47
647.59	1724.39
647.78	1605.61
647.97	1632.23
648.16	1681.38
648.35	1863.65
648.54	1808.36
648.73	1681.38
648.91	1832.93
649.10	1746.92
649.29	1720.29
649.48	1697.77
649.67	1628.14
649.86	1691.62
650.05	1671.14
650.23	1779.68
650.42	1660.90
650.61	1834.98
650.80	1732.58
650.99	1839.08
651.18	1753.06
651.36	1755.11
651.55	1591.27
651.74	1746.92
651.93	1658.85
652.12	1726.44
652.31	1648.61
652.49	1716.20
652.68	1665.00
652.87	1742.82
653.06	1705.96
653.25	1851.36
653.44	1718.25
653.62	1810.40
653.81	1652.71
654.00	1689.57
654.19	1744.87
654.38	1900.52
654.56	1777.64
654.75	1730.53
654.94	1753.06
655.13	1732.58
655.32	1826.79
655.51	1796.07
655.69	1695.72
655.88	1757.16
656.07	1714.15
656.26	1751.01
656.45	1689.57
656.63	1753.06
656.82	1710.05
657.01	1746.92
657.20	1689.57
657.38	1810.40
657.57	1644.52
657.76	1615.85
657.95	1753.06
658.14	1675.24
658.32	1685.48
658.51	1673.19
658.70	1701.86
658.89	1697.77
659.08	1734.63
659.26	1740.77
659.45	1648.61
659.64	1757.16
659.83	1642.47
660.01	1894.37
660.20	1716.20
660.39	1791.97
660.58	1558.50
660.76	1771.49
660.95	1736.68
661.14	1796.07
661.33	1585.13
661.51	1640.42
661.70	1730.53
661.89	1746.92
662.08	1757.16
662.26	1656.81
662.45	1701.86
662.64	1837.03
662.83	1708.01
663.01	1638.38
663.20	1660.90
663.39	1755.11
663.58	1677.29
663.76	1697.77
663.95	1787.88
664.14	1695.72
664.32	1761.25
664.51	1630.18
664.70	1695.72
664.89	1734.63
665.07	1675.24
665.26	1855.46
665.45	1699.81
665.64	1789.92
665.82	1714.15
666.01	1820.64
666.20	1763.30
666.38	1791.97
666.57	1834.98
666.76	2191.33
666.95	4560.83
667.13	10202.98
667.32	15187.74
667.51	17802.99
667.69	18847.46
667.88	17577.72
668.07	12271.43
668.25	9705.32
668.44	8079.24
668.63	7393.17
668.81	6856.60
669.00	6287.26
669.19	5588.91
669.38	5025.72
669.56	4515.77
669.75	3909.57
669.94	3434.44
670.12	2848.72
670.31	2537.43
670.50	2363.36
670.68	2105.31
670.87	1851.36
671.06	1767.40
671.24	1820.64
671.43	1882.08
671.62	1689.57
671.80	1681.38
671.99	1640.42
672.18	1705.96
672.36	1837.03
672.55	1685.48
672.74	1675.24
672.92	1720.29
673.11	1703.91
673.29	1726.44
673.48	1806.31
673.67	1722.34
673.85	1773.54
674.04	1673.19
674.23	1734.63
674.41	1812.45
674.60	1607.66
674.79	1644.52
674.97	1675.24
675.16	1683.43
675.34	1757.16
675.53	1636.33
675.72	1767.40
675.90	1697.77
676.09	1697.77
676.28	1703.91
676.46	1685.48
676.65	1726.44
676.83	1712.10
677.02	1744.87
677.21	1796.07
677.39	1732.58
677.58	1619.94
677.77	1642.47
677.95	1730.53
678.14	1726.44
678.32	1695.72
678.51	1685.48
678.70	1841.12
678.88	1652.71
679.07	1724.39
679.25	1656.81
679.44	1583.08
679.63	1619.94
679.81	1683.43
680.00	1763.30
680.18	1724.39
680.37	1785.83
680.55	1732.58
680.74	1605.61
680.93	1648.61
681.11	1697.77
681.30	1785.83
681.48	1748.97
681.67	1642.47
681.85	1671.14
682.04	1648.61
682.23	1765.35
682.41	1710.05
682.60	1675.24
682.78	1585.13
682.97	1681.38
683.15	1751.01
683.34	1710.05
683.53	1808.36
683.71	1638.38
683.90	1820.64
684.08	1734.63
684.27	1632.23
684.45	1732.58
684.64	1703.91
684.82	1714.15
685.01	1683.43
685.19	1726.44
685.38	1798.12
685.57	1640.42
685.75	1679.33
685.94	1656.81
686.12	1685.48
686.31	1736.68
686.49	1869.80
686.68	1626.09
686.86	1718.25
687.05	1720.29
687.23	1841.12
687.42	1687.53
687.60	1630.18
687.79	1796.07
687.97	1744.87
688.16	1675.24
688.34	1779.68
688.53	1605.61
688.71	1699.81
688.90	1732.58
689.08	1665.00
689.27	1552.36
689.45	1787.88
689.64	1687.53
689.82	1759.21
690.01	1763.30
690.19	1648.61
690.38	1777.64
690.56	1800.16
690.75	1720.29
690.93	1689.57
691.12	1703.91
691.30	1654.76
691.49	1687.53
691.67	1665.00
691.86	1798.12
692.04	1726.44
692.23	1599.46
692.41	1669.09
692.60	1847.27
692.78	1787.88
692.97	1730.53
693.15	1722.34
693.34	1765.35
693.52	1738.73
693.71	1665.00
693.89	1718.25
694.08	1613.80
694.26	1679.33
694.44	1718.25
694.63	1714.15
694.81	1630.18
695.00	1681.38
695.18	1748.97
695.37	1873.89
695.55	1734.63
695.74	1665.00
695.92	1652.71
696.10	1755.11
696.29	1591.27
696.47	1662.95
696.66	1681.38
696.84	1656.81
697.03	1691.62
697.21	1781.73
697.40	2314.20
697.58	1783.78
697.76	1693.67
697.95	1685.48
698.13	1648.61
698.32	1728.49
698.50	1671.14
698.68	1771.49
698.87	1724.39
699.05	1806.31
699.24	1757.16
699.42	1636.33
699.61	1714.15
699.79	1722.34
699.97	1691.62
700.16	1628.14
700.34	1673.19
700.53	1703.91
700.71	1785.83
700.89	1769.44
701.08	1755.11
701.26	1755.11
701.45	2062.30
701.63	1699.81
701.81	1669.09
702.00	1648.61
702.18	1675.24
702.37	1665.00
702.55	1673.19
702.73	1675.24
702.92	1656.81
703.10	1798.12
703.28	1669.09
703.47	1660.90
703.65	1726.44
703.84	1742.82
704.02	1656.81
704.20	1791.97
704.39	1667.05
704.57	1714.15
704.75	1763.30
704.94	1789.92
705.12	1761.25
705.30	1789.92
705.49	2230.24
705.67	4468.67
705.86	9684.84
706.04	12707.65
706.22	14386.98
706.41	15296.28
706.59	13846.32
706.77	9627.50
706.96	7470.99
707.14	6606.75
707.32	5955.49
707.51	5523.37
707.69	4820.92
707.87	4081.60
708.06	3420.11
708.24	2910.16
708.42	2406.36
708.61	2260.96
708.79	1920.99
708.97	1890.28
709.16	1841.12
709.34	1798.12
709.52	1701.86
709.71	1693.67
709.89	1791.97
710.07	1697.77
710.26	1728.49
710.44	1740.77
710.62	1769.44
710.80	1683.43
710.99	1656.81
711.17	1785.83
711.35	1697.77
711.54	1675.24
711.72	1775.59
711.90	1718.25
712.09	1689.57
712.27	1734.63
712.45	1730.53
712.63	1689.57
712.82	1808.36
713.00	1660.90
713.18	1767.40
713.37	1744.87
713.55	1767.40
713.73	1775.59
713.91	1669.09
714.10	1736.68
714.28	1667.05
714.46	1812.45
714.65	1644.52
714.83	1736.68
715.01	1703.91
715.19	1630.18
715.38	1619.94
715.56	1685.48
715.74	1607.66
715.92	1667.05
716.11	1841.12
716.29	1615.85
716.47	1740.77
716.65	1652.71
716.84	1619.94
717.02	1714.15
717.20	1636.33
717.38	1667.05
717.57	1722.34
717.75	1769.44
717.93	1667.05
718.11	1665.00
718.30	1613.80
718.48	1724.39
718.66	1718.25
718.84	1822.69
719.03	1746.92
719.21	1640.42
719.39	1845.22
719.57	1730.53
719.75	1851.36
719.94	1689.57
720.12	1738.73
720.30	1708.01
720.48	1759.21
720.67	1699.81
720.85	1609.70
721.03	1685.48
721.21	1671.14
721.39	1767.40
721.58	1724.39
721.76	1705.96
721.94	1730.53
722.12	1691.62
722.30	1791.97
722.49	1693.67
722.67	1767.40
722.85	1736.68
723.03	1628.14
723.21	1722.34
723.40	1736.68
723.58	1744.87
723.76	1665.00
723.94	1691.62
724.12	1718.25
724.30	1710.05
724.49	1726.44
724.67	1609.70
724.85	1820.64
725.03	1662.95
725.21	1763.30
725.40	1808.36
725.58	1667.05
725.76	1751.01
725.94	1677.29
726.12	1662.95
726.30	1791.97
726.49	1626.09
726.67	1662.95
726.85	1718.25
727.03	1814.50
727.21	2121.70
727.39	2912.21
727.57	3747.78
727.76	4108.23
727.94	4470.72
728.12	4360.13
728.30	3692.49
728.48	2992.08
728.66	2834.39
728.84	2559.96
729.03	2283.49
729.21	2201.57
729.39	1945.57
729.57	1861.60
729.75	1808.36
729.93	1834.98
730.11	1710.05
730.30	1697.77
730.48	1720.29
730.66	1810.40
730.84	1697.77
731.02	1701.86
731.20	1705.96
731.38	1681.38
731.56	1574.89
731.74	1621.99
731.93	1726.44
732.11	1705.96
732.29	1691.62
732.47	1783.78
732.65	1714.15
732.83	1783.78
733.01	1697.77
733.19	1708.01
733.37	1798.12
733.56	1669.09
733.74	1660.90
733.92	1849.32
734.10	1595.37
734.28	1734.63
734.46	1693.67
734.64	1720.29
734.82	1667.05
735.00	1660.90
735.18	1611.75
735.36	1695.72
735.54	1652.71
735.73	1671.14
735.91	1783.78
736.09	1812.45
736.27	1673.19
736.45	1751.01
736.63	1558.50
736.81	1751.01
736.99	1742.82
737.17	1779.68
737.35	1673.19
737.53	1699.81
737.71	1677.29
737.89	1763.30
738.07	1624.04
738.25	1724.39
738.43	1595.37
738.61	1650.66
738.80	1615.85
738.98	1626.09
739.16	1703.91
739.34	1621.99
739.52	1761.25
739.70	1746.92
739.88	1697.77
740.06	1812.45
740.24	1591.27
740.42	1843.17
740.60	1607.66
740.78	1742.82
740.96	1581.03
741.14	1714.15
741.32	1695.72
741.50	1673.19
741.68	1810.40
741.86	1830.88
742.04	1665.00
742.22	1636.33
742.40	1660.90
742.58	1783.78
742.76	1716.20
742.94	1712.10
743.12	1615.85
743.30	1724.39
743.48	1714.15
743.66	1699.81
743.84	1732.58
744.02	1687.53
744.20	1671.14
744.38	1626.09
744.56	1632.23
744.74	1828.84
744.92	1648.61
745.10	1794.02
745.28	1716.20
745.46	1886.18
745.64	1626.09
745.82	1804.26
746.00	1722.34
746.18	1724.39
746.36	1667.05
746.54	1648.61
746.72	1734.63
746.90	1697.77
747.08	1746.92
747.26	1677.29
747.44	1665.00
747.62	1640.42
747.80	1710.05
747.98	1736.68
748.15	1705.96
748.33	1785.83
748.51	1660.90
748.69	1787.88
748.87	1683.43
749.05	1632.23
749.23	1673.19
749.41	1691.62
749.59	1617.90
749.77	1730.53
749.95	1681.38
750.13	1642.47
750.31	1740.77
750.49	1673.19
750.67	1779.68
750.85	1787.88
751.03	1712.10
751.20	1789.92
751.38	1609.70
751.56	1773.54
751.74	1697.77
751.92	1681.38
752.10	1599.46
752.28	1806.31
752.46	1626.09
752.64	1718.25
752.82	1699.81
753.00	1712.10
753.18	1714.15
753.35	1699.81
753.53	1712.10
753.71	1695.72
753.89	1775.59
754.07	1722.34
754.25	1757.16
754.43	1742.82
754.61	1560.55
754.79	1765.35
754.97	1658.85
755.14	1765.35
755.32	1595.37
755.50	1726.44
755.68	1712.10
755.86	1673.19
756.04	1687.53
756.22	1624.04
756.40	1746.92
756.57	1845.22
756.75	1632.23
756.93	1794.02
757.11	1773.54
757.29	1656.81
757.47	1658.85
757.65	1607.66
757.82	1542.12
758.00	1662.95
758.18	1697.77
758.36	1669.09
758.54	1769.44
758.72	1611.75
758.90	1826.79
759.07	1730.53
759.25	1673.19
759.43	1753.06
759.61	1564.65
759.79	2234.33
759.97	1738.73
760.15	1638.38
760.32	1679.33
760.50	1701.86
760.68	1773.54
760.86	1652.71
761.04	1812.45
761.22	1722.34
761.39	1759.21
761.57	1744.87
761.75	1714.15
761.93	1734.63
762.11	1689.57
762.28	1685.48
762.46	1642.47
762.64	1697.77
762.82	1576.94
763.00	1683.43
763.18	1789.92
763.35	1665.00
763.53	1771.49
763.71	1687.53
763.89	1691.62
764.07	1693.67
764.24	1738.73
764.42	1722.34
764.60	1615.85
764.78	1732.58
764.96	1751.01
765.13	1779.68
765.31	1710.05
765.49	1738.73
765.67	1681.38
765.84	1656.81
766.02	1685.48
766.20	1624.04
766.38	1730.53
766.56	1775.59
766.73	1826.79
766.91	1730.53
767.09	1720.29
767.27	1744.87
767.44	1667.05
767.62	1765.35
767.80	1736.68
767.98	1738.73
768.15	1685.48
768.33	1761.25
768.51	1783.78
768.69	1726.44
768.87	1744.87
769.04	1728.49
769.22	1789.92
769.40	1767.40
769.58	1865.70
769.75	1687.53
769.93	1785.83
770.11	1746.92
770.28	1673.19
770.46	1763.30
770.64	1669.09
770.82	1697.77
770.99	1650.66
771.17	1738.73
771.35	1705.96
771.53	1753.06
771.70	1689.57
771.88	1755.11
772.06	1677.29
772.23	1640.42
772.41	1779.68
772.59	1689.57
772.77	1642.47
772.94	1701.86
773.12	1783.78
773.30	1677.29
773.47	1710.05
773.65	1642.47
773.83	1761.25
774.01	1656.81
774.18	1550.31
774.36	1679.33
774.54	1621.99
774.71	1665.00
774.89	1652.71
775.07	1636.33
775.24	1722.34
775.42	1654.76
775.60	1847.27
775.78	1699.81
775.95	1699.81
776.13	1636.33
776.31	1550.31
776.48	1665.00
776.66	1789.92
776.84	1671.14
777.01	1599.46
777.19	1621.99
777.37	1705.96
777.54	1851.36
777.72	1787.88
777.90	1726.44
778.07	1673.19
778.25	1886.18
778.43	1828.84
778.60	1621.99
778.78	1740.77
778.96	1763.30
779.13	1673.19
779.31	1685.48
779.49	1650.66
779.66	1691.62
779.84	1689.57
780.01	1724.39
780.19	1640.42
780.37	1761.25
780.54	1775.59
780.72	1665.00
780.90	1781.73
781.07	1675.24
781.25	1732.58
781.43	1644.52
781.60	1736.68
781.78	1775.59
781.95	1683.43
782.13	1656.81
782.31	1701.86
782.48	1572.84
782.66	1693.67
782.83	1816.55
783.01	1736.68
783.19	1708.01
783.36	1693.67
783.54	1632.23
783.72	1736.68
783.89	1736.68
784.07	1701.86
784.24	1636.33
784.42	1791.97
784.60	1748.97
784.77	1714.15
784.95	1673.19
785.12	1685.48
785.30	1703.91
785.47	1609.70
785.65	1669.09
785.83	1701.86
786.00	1667.05
786.18	1779.68
786.35	1609.70
786.53	1624.04
786.71	1779.68
786.88	1787.88
787.06	1703.91
787.23	1697.77
787.41	1636.33
787.58	1626.09
787.76	1705.96
787.94	1724.39
788.11	1720.29
788.29	1701.86
788.46	1673.19
788.64	1644.52
788.81	1665.00
788.99	1656.81
789.16	1636.33
789.34	1781.73
789.52	1718.25
789.69	1681.38
789.87	1634.28
790.04	1712.10
790.22	1773.54
790.39	1773.54
790.57	1628.14
790.74	1613.80
790.92	1738.73
791.09	1638.38
791.27	1660.90
791.44	1822.69
791.62	1675.24
791.79	1800.16
791.97	1722.34
792.15	1867.75
792.32	1695.72
792.50	1746.92
792.67	1761.25
792.85	1849.32
793.02	1665.00
793.20	1765.35
793.37	1538.02
793.55	1673.19
793.72	1628.14
793.90	1697.77
794.07	1671.14
794.25	1646.57
794.42	1697.77
794.60	1710.05
794.77	1716.20
794.95	1763.30
795.12	1843.17
795.30	1691.62
795.47	1601.51
795.65	1794.02
795.82	1685.48
796.00	1644.52
796.17	1726.44
796.34	1732.58
796.52	1714.15
796.69	1691.62
796.87	1624.04
797.04	1689.57
797.22	1730.53
797.39	1640.42
797.57	1742.82
797.74	1759.21
797.92	1718.25
798.09	1626.09
798.27	1734.63
798.44	1771.49
798.62	1677.29
798.79	1697.77
798.96	1714.15
799.14	1701.86
799.31	1808.36
799.49	1748.97
799.66	1683.43
799.84	1667.05
800.01	1578.98
800.19	1685.48
800.36	1558.50
800.53	1748.97
800.71	1642.47
800.88	1757.16
801.06	1681.38
801.23	1593.32
801.41	1748.97
801.58	1640.42
801.75	1630.18
801.93	1705.96
802.10	1789.92
802.28	1656.81
802.45	1654.76
802.63	1787.88
802.80	1757.16
802.97	1687.53
803.15	1708.01
803.32	1656.81
803.50	1626.09
803.67	1654.76
803.84	1673.19
804.02	1609.70
804.19	1738.73
804.37	1583.08
804.54	1646.57
804.71	1656.81
804.89	1683.43
805.06	1685.48
805.24	1611.75
805.41	1626.09
805.58	1683.43
805.76	1736.68
805.93	1699.81
806.10	1804.26
806.28	1769.44
806.45	1697.77
806.63	1775.59
806.80	1763.30
806.97	1800.16
807.15	1755.11
807.32	1650.66
807.49	1656.81
807.67	1628.14
807.84	1695.72
808.01	1595.37
808.19	1851.36
808.36	1820.64
808.54	1656.81
808.71	1650.66
808.88	1701.86
809.06	1773.54
809.23	1777.64
809.40	1595.37
809.58	1734.63
809.75	1716.20
809.92	1624.04
810.10	1837.03
810.27	1632.23
810.44	1705.96
810.62	1757.16
810.79	1665.00
810.96	1710.05
811.14	1701.86
811.31	1685.48
811.48	1658.85
811.66	1665.00
811.83	1775.59
812.00	1740.77
812.18	1720.29
812.35	1738.73
812.52	1712.10
812.69	1679.33
812.87	1677.29
813.04	1675.24
813.21	1718.25
813.39	1636.33
813.56	1642.47
813.73	1783.78
813.91	1576.94
814.08	1740.77
814.25	1652.71
814.42	1677.29
814.60	1650.66
814.77	1716.20
814.94	1683.43
815.12	1724.39
815.29	1753.06
815.46	1693.67
815.63	1673.19
815.81	1691.62
815.98	1646.57
816.15	1656.81
816.33	1720.29
816.50	1636.33
816.67	1687.53
816.84	1730.53
817.02	1624.04
817.19	1665.00
817.36	1689.57
817.53	1763.30
817.71	1650.66
817.88	1685.48
818.05	1675.24
818.22	1597.42
818.40	1828.84
818.57	1683.43
818.74	1742.82
818.91	1691.62
819.09	1812.45
819.26	1761.25
819.43	1761.25
819.60	1748.97
819.78	1644.52
819.95	1789.92
820.12	1658.85
820.29	1667.05
820.47	1746.92
820.64	1714.15
820.81	1630.18
820.98	1667.05
821.15	1691.62
821.33	1708.01
821.50	1568.74
821.67	1757.16
821.84	1740.77
822.02	1751.01
822.19	1742.82
822.36	1667.05
822.53	1689.57
822.70	1640.42
822.88	1656.81
823.05	1746.92
823.22	1722.34
823.39	1693.67
823.56	1712.10
823.74	1796.07
823.91	1773.54
824.08	1685.48
824.25	1630.18
824.42	1849.32
824.60	1591.27
824.77	1722.34
824.94	1683.43
825.11	1710.05
825.28	1552.36
825.45	1665.00
825.63	1685.48
825.80	1722.34
825.97	1705.96
826.14	1677.29
826.31	1611.75
826.48	1693.67
826.66	1617.90
826.83	1626.09
827.00	1677.29
827.17	1636.33
827.34	1644.52
827.51	1722.34
827.69	1722.34
827.86	1660.90
828.03	1697.77
828.20	1755.11
828.37	1703.91
828.54	1753.06
828.71	1642.47
828.89	1816.55
829.06	1695.72
829.23	1755.11
829.40	1658.85
829.57	1632.23
829.74	1748.97
829.91	1613.80
830.09	1722.34
830.26	1654.76
830.43	1783.78
830.60	1701.86
830.77	1753.06
830.94	1716.20
831.11	1720.29
831.28	1667.05
831.46	1705.96
831.63	1611.75
831.80	1742.82
831.97	1681.38
832.14	1665.00
832.31	1714.15
832.48	1644.52
832.65	1845.22
832.82	1662.95
832.99	1685.48
833.17	1632.23
833.34	1812.45
833.51	1746.92
833.68	1570.79
833.85	1787.88
834.02	1652.71
834.19	1677.29
834.36	1564.65
834.53	1730.53
834.70	1755.11
834.87	1699.81
835.04	1783.78
835.22	1665.00
835.39	1677.29
835.56	1669.09
835.73	1691.62
835.90	1787.88
836.07	1636.33
836.24	1699.81
836.41	1591.27
836.58	1687.53
836.75	1763.30
836.92	1757.16
837.09	1640.42
837.26	1775.59
837.43	1656.81
837.60	1667.05
837.77	1621.99
837.94	1738.73
838.12	1781.73
838.29	1775.59
838.46	1583.08
838.63	1628.14
838.80	1830.88
838.97	1822.69
839.14	1687.53
839.31	1691.62
839.48	1728.49
839.65	1712.10
839.82	1773.54
839.99	1656.81
840.16	1779.68
840.33	1669.09
840.50	1736.68
840.67	1562.60
840.84	1558.50
841.01	1716.20
841.18	1691.62
841.35	1714.15
841.52	1787.88
841.69	1796.07
841.86	1701.86
842.03	1644.52
842.20	1818.60
842.37	1689.57
842.54	1718.25
842.71	1667.05
842.88	1689.57
843.05	1804.26
843.22	1630.18
843.39	1728.49
843.56	1675.24
843.73	1617.90
843.90	1724.39
844.07	1720.29
844.24	1728.49
844.41	1646.57
844.58	1736.68
844.75	1621.99
844.92	1718.25
845.09	1646.57
845.26	1626.09
845.43	1722.34
845.60	1746.92
845.77	1742.82
845.94	1734.63
846.10	1781.73
846.27	1626.09
846.44	1617.90
846.61	1677.29
846.78	1689.57
846.95	1796.07
847.12	1603.56
847.29	1722.34
847.46	1626.09
847.63	1724.39
847.80	1562.60
847.97	1748.97
848.14	1806.31
848.31	1615.85
848.48	1572.84
848.65	1691.62
848.82	1673.19
848.98	1843.17
849.15	1763.30
849.32	1765.35
849.49	1722.34
849.66	1718.25
849.83	1710.05
850.00	1626.09
850.17	1779.68
850.34	1701.86
850.51	1779.68
850.68	1601.51
850.85	1804.26
851.01	1722.34
851.18	1697.77
851.35	1689.57
851.52	1644.52
851.69	1783.78
851.86	1619.94
852.03	1746.92
852.20	1783.78
852.37	1705.96
852.53	1628.14
852.70	1628.14
852.87	1712.10
853.04	1755.11
853.21	1710.05
853.38	1816.55
853.55	1705.96
853.72	1820.64
853.89	1673.19
854.05	1634.28
854.22	1718.25
854.39	1658.85
854.56	1730.53
854.73	1796.07
854.90	1681.38
855.07	1720.29
855.23	1685.48
855.40	1691.62
855.57	1665.00
855.74	1583.08
855.91	1804.26
856.08	1650.66
856.25	1683.43
856.41	1701.86
856.58	1738.73
856.75	1693.67
856.92	1628.14
857.09	1800.16
857.26	1646.57
857.42	1621.99
857.59	1701.86
857.76	1693.67
857.93	1677.29
858.10	1708.01
858.27	1593.32
858.43	1626.09
858.60	1710.05
858.77	1644.52
858.94	1712.10
859.11	1712.10
859.27	1767.40
859.44	1691.62
859.61	1738.73
859.78	1753.06
859.95	1705.96
860.12	1710.05
860.28	1791.97
860.45	1808.36
860.62	1640.42
860.79	1673.19
860.95	1781.73
861.12	1746.92
861.29	1638.38
861.46	1630.18
861.63	1685.48
861.79	1634.28
861.96	1658.85
862.13	1697.77
862.30	1800.16
862.47	1656.81
862.63	1683.43
862.80	1697.77
862.97	1683.43
863.14	1714.15
863.30	1763.30
863.47	1585.13
863.64	1734.63
863.81	1697.77
863.97	1613.80
864.14	1755.11
864.31	1636.33
864.48	1720.29
864.65	1611.75
864.81	1765.35
864.98	1806.31
865.15	1748.97
865.32	1710.05
865.48	1718.25
865.65	1761.25
865.82	1689.57
865.98	1761.25
866.15	1681.38
866.32	1746.92
866.49	1691.62
866.65	1755.11
866.82	1685.48
866.99	1636.33
867.16	1634.28
867.32	1687.53
867.49	1630.18
867.66	1613.80
867.83	1617.90
867.99	1667.05
868.16	1652.71
868.33	1595.37
868.49	1669.09
868.66	1654.76
868.83	1828.84
868.99	1714.15
869.16	1722.34
869.33	1777.64
869.50	1730.53
869.66	1681.38
869.83	1660.90
870.00	1665.00
870.16	1726.44
870.33	1693.67
870.50	1734.63
870.66	1603.56
870.83	1789.92
871.00	1691.62
871.17	1742.82
871.33	1701.86
871.50	1722.34
871.67	1630.18
871.83	1591.27
872.00	1787.88
872.17	1708.01
872.33	1763.30
872.50	1796.07
872.67	1636.33
872.83	1740.77
873.00	1714.15
873.17	1734.63
873.33	1748.97
873.50	1693.67
873.67	1695.72
873.83	1632.23
874.00	1669.09
874.16	1783.78
874.33	1669.09
874.50	1697.77
874.66	1722.34
874.83	1691.62
875.00	1800.16
875.16	1746.92
875.33	1767.40
875.50	1574.89
875.66	1626.09
875.83	1695.72
875.99	1740.77
876.16	1679.33
876.33	1628.14
876.49	1730.53
876.66	1718.25
876.83	1665.00
876.99	1585.13
877.16	1675.24
877.32	1701.86
877.49	1697.77
877.66	1728.49
877.82	1783.78
877.99	1767.40
878.15	1765.35
878.32	1716.20
878.49	1722.34
878.65	1671.14
878.82	1667.05
878.98	1671.14
879.15	1730.53
879.32	1810.40
879.48	1738.73
879.65	1693.67
879.81	1710.05
879.98	1669.09
880.15	1703.91
880.31	1783.78
880.48	1654.76
880.64	1755.11
880.81	1679.33
880.97	1837.03
881.14	1765.35
881.31	1685.48
881.47	1822.69
881.64	1705.96
881.80	1656.81
881.97	1683.43
882.13	1783.78
882.30	1656.81
882.47	1669.09
882.63	1673.19
882.80	1621.99
882.96	1636.33
883.13	1708.01
883.29	1679.33
883.46	1775.59
883.62	1834.98
883.79	1691.62
883.95	1685.48
884.12	1701.86
884.29	1716.20
884.45	1665.00
884.62	1767.40
884.78	1675.24
884.95	1705.96
885.11	1667.05
885.28	1726.44
885.44	1619.94
885.61	1634.28
885.77	1751.01
885.94	1712.10
886.10	1705.96
886.27	1626.09
886.43	1804.26
886.60	1726.44
886.76	1669.09
886.93	1718.25
887.09	1740.77
887.26	1597.42
887.42	1673.19
887.59	1759.21
887.75	1759.21
887.92	1742.82
888.08	1787.88
888.25	1757.16
888.41	1781.73
888.58	1679.33
888.74	1677.29
888.91	1591.27
>>>>>End Processed Spectral Data<<<<<
