SpectraSuite Data File
++++++++++++++++++++++++++++++++++++
Date: Mon Jun 06 17:38:17 CEST 2016
User: root
Dark Spectrum Present: No
Reference Spectrum Present: No
Number of Sampled Component Spectra: 1
Spectrometers: USB4C02835
Integration Time (usec): 100000 (USB4C02835)
Spectra Averaged: 1 (USB4C02835)
Boxcar Smoothing: 0 (USB4C02835)
Correct for Electrical Dark: No (USB4C02835)
Strobe/Lamp Enabled: No (USB4C02835)
Correct for Detector Non-linearity: No (USB4C02835)
Correct for Stray Light: No (USB4C02835)
Number of Pixels in Processed Spectrum: 3648
>>>>>Begin Processed Spectral Data<<<<<
177.47	1492.97
177.69	1492.97
177.91	1492.97
178.13	1513.45
178.36	1513.45
178.58	1642.47
178.80	1726.44
179.02	1648.61
179.24	1710.05
179.46	1755.11
179.68	1828.84
179.90	1746.92
180.13	1718.25
180.35	1665.00
180.57	1695.72
180.79	1746.92
181.01	1753.06
181.23	1742.82
181.45	1791.97
181.67	1736.68
181.90	1798.12
182.12	1630.18
182.34	1591.27
182.56	1773.54
182.78	1800.16
183.00	1673.19
183.22	1751.01
183.44	1646.57
183.66	1806.31
183.89	1691.62
184.11	1787.88
184.33	1742.82
184.55	1812.45
184.77	1746.92
184.99	1681.38
185.21	1779.68
185.43	1849.32
185.65	1675.24
185.87	1691.62
186.10	1812.45
186.32	1880.04
186.54	1775.59
186.76	1691.62
186.98	1855.46
187.20	1642.47
187.42	1679.33
187.64	1705.96
187.86	1705.96
188.08	1806.31
188.30	1619.94
188.52	1652.71
188.75	1728.49
188.97	1765.35
189.19	1665.00
189.41	1697.77
189.63	1736.68
189.85	1693.67
190.07	1708.01
190.29	1675.24
190.51	1732.58
190.73	1646.57
190.95	1724.39
191.17	1744.87
191.39	1665.00
191.61	1724.39
191.84	1708.01
192.06	1683.43
192.28	1665.00
192.50	1880.04
192.72	1767.40
192.94	1701.86
193.16	1865.70
193.38	1734.63
193.60	1638.38
193.82	1693.67
194.04	1839.08
194.26	1748.97
194.48	1705.96
194.70	1755.11
194.92	1689.57
195.14	1738.73
195.36	1705.96
195.58	1816.55
195.80	1687.53
196.02	1726.44
196.24	1751.01
196.46	1740.77
196.69	1654.76
196.91	1888.23
197.13	1712.10
197.35	1796.07
197.57	1748.97
197.79	1761.25
198.01	1796.07
198.23	1708.01
198.45	1736.68
198.67	1667.05
198.89	1726.44
199.11	1708.01
199.33	1683.43
199.55	1597.42
199.77	1675.24
199.99	1841.12
200.21	1742.82
200.43	1673.19
200.65	1662.95
200.87	1587.18
201.09	1595.37
201.31	1732.58
201.53	1781.73
201.75	1794.02
201.97	1699.81
202.19	1724.39
202.41	1691.62
202.63	1787.88
202.85	1765.35
203.07	1744.87
203.29	1599.46
203.51	1658.85
203.73	1677.29
203.95	1863.65
204.17	1703.91
204.39	1730.53
204.61	1697.77
204.83	1761.25
205.05	1728.49
205.27	1775.59
205.49	1763.30
205.71	1757.16
205.93	1646.57
206.15	1691.62
206.37	1679.33
206.59	1738.73
206.81	1642.47
207.03	1615.85
207.25	1648.61
207.47	1832.93
207.69	1769.44
207.91	1787.88
208.13	1812.45
208.34	1732.58
208.56	1679.33
208.78	1675.24
209.00	1626.09
209.22	1689.57
209.44	1718.25
209.66	1732.58
209.88	1759.21
210.10	1746.92
210.32	1662.95
210.54	1705.96
210.76	1660.90
210.98	1781.73
211.20	1566.70
211.42	1765.35
211.64	1802.21
211.86	1736.68
212.08	1681.38
212.30	1759.21
212.52	1708.01
212.74	1705.96
212.96	1761.25
213.17	1798.12
213.39	1802.21
213.61	1814.50
213.83	1796.07
214.05	1665.00
214.27	1744.87
214.49	1718.25
214.71	1685.48
214.93	1802.21
215.15	1685.48
215.37	1705.96
215.59	1624.04
215.81	1769.44
216.03	1904.61
216.24	1753.06
216.46	1701.86
216.68	1716.20
216.90	1720.29
217.12	1769.44
217.34	1767.40
217.56	1722.34
217.78	1820.64
218.00	1644.52
218.22	1705.96
218.44	1742.82
218.66	1701.86
218.87	1888.23
219.09	1775.59
219.31	1755.11
219.53	1681.38
219.75	1738.73
219.97	1771.49
220.19	1744.87
220.41	1724.39
220.63	1826.79
220.85	1804.26
221.06	1734.63
221.28	1755.11
221.50	1744.87
221.72	1677.29
221.94	1675.24
222.16	1685.48
222.38	1777.64
222.60	1804.26
222.82	1648.61
223.03	1697.77
223.25	1679.33
223.47	1812.45
223.69	1929.19
223.91	1748.97
224.13	1771.49
224.35	1695.72
224.57	1775.59
224.78	1699.81
225.00	1673.19
225.22	1677.29
225.44	1695.72
225.66	1681.38
225.88	1714.15
226.10	1722.34
226.32	1640.42
226.53	1791.97
226.75	1714.15
226.97	1755.11
227.19	1695.72
227.41	1628.14
227.63	1683.43
227.85	1605.61
228.06	1734.63
228.28	1714.15
228.50	1736.68
228.72	1660.90
228.94	1693.67
229.16	1611.75
229.37	1732.58
229.59	1681.38
229.81	1845.22
230.03	1720.29
230.25	1595.37
230.47	1660.90
230.69	1632.23
230.90	1746.92
231.12	1673.19
231.34	1716.20
231.56	1755.11
231.78	1621.99
232.00	1812.45
232.21	1669.09
232.43	1695.72
232.65	1595.37
232.87	1695.72
233.09	1634.28
233.30	1650.66
233.52	1759.21
233.74	1665.00
233.96	1640.42
234.18	1644.52
234.40	1708.01
234.61	1832.93
234.83	1607.66
235.05	1636.33
235.27	1802.21
235.49	1841.12
235.70	1697.77
235.92	1834.98
236.14	1751.01
236.36	1869.80
236.58	1640.42
236.79	1796.07
237.01	1728.49
237.23	1667.05
237.45	1816.55
237.67	1673.19
237.88	1783.78
238.10	1839.08
238.32	1701.86
238.54	1732.58
238.76	1732.58
238.97	1552.36
239.19	1603.56
239.41	1757.16
239.63	1775.59
239.85	1705.96
240.06	1714.15
240.28	1732.58
240.50	1798.12
240.72	1714.15
240.93	1683.43
241.15	1837.03
241.37	1669.09
241.59	1832.93
241.81	1712.10
242.02	1728.49
242.24	1714.15
242.46	1796.07
242.68	1732.58
242.89	1699.81
243.11	1738.73
243.33	1744.87
243.55	1654.76
243.76	1728.49
243.98	1767.40
244.20	1636.33
244.42	1746.92
244.64	1679.33
244.85	1716.20
245.07	1693.67
245.29	1787.88
245.51	1695.72
245.72	1667.05
245.94	1789.92
246.16	1693.67
246.38	1710.05
246.59	1607.66
246.81	1673.19
247.03	1708.01
247.24	1665.00
247.46	1656.81
247.68	1779.68
247.90	1673.19
248.11	1742.82
248.33	1746.92
248.55	1665.00
248.77	1746.92
248.98	1837.03
249.20	1843.17
249.42	1699.81
249.64	1748.97
249.85	1677.29
250.07	1701.86
250.29	1775.59
250.50	1767.40
250.72	1691.62
250.94	1724.39
251.16	1806.31
251.37	1730.53
251.59	1757.16
251.81	1730.53
252.02	1837.03
252.24	1695.72
252.46	1783.78
252.68	1660.90
252.89	1642.47
253.11	1642.47
253.33	1898.47
253.54	1824.74
253.76	1656.81
253.98	1781.73
254.20	1687.53
254.41	1677.29
254.63	1720.29
254.85	1570.79
255.06	1742.82
255.28	1771.49
255.50	1712.10
255.71	1716.20
255.93	1724.39
256.15	1705.96
256.36	1871.84
256.58	1665.00
256.80	1791.97
257.02	1703.91
257.23	1736.68
257.45	1732.58
257.67	1769.44
257.88	1636.33
258.10	1689.57
258.32	1757.16
258.53	1685.48
258.75	1783.78
258.97	1738.73
259.18	1667.05
259.40	1722.34
259.62	1808.36
259.83	1839.08
260.05	1724.39
260.27	1986.53
260.48	1755.11
260.70	1675.24
260.92	1724.39
261.13	1730.53
261.35	1738.73
261.57	1683.43
261.78	1673.19
262.00	1705.96
262.22	1775.59
262.43	1652.71
262.65	1724.39
262.86	1753.06
263.08	1869.80
263.30	1734.63
263.51	1671.14
263.73	1628.14
263.95	1789.92
264.16	1746.92
264.38	1626.09
264.60	1697.77
264.81	1753.06
265.03	1808.36
265.25	1777.64
265.46	1734.63
265.68	1789.92
265.89	1853.41
266.11	1632.23
266.33	1775.59
266.54	1828.84
266.76	1658.85
266.98	1757.16
267.19	1775.59
267.41	1763.30
267.62	1677.29
267.84	1656.81
268.06	1759.21
268.27	1728.49
268.49	1757.16
268.70	1740.77
268.92	1669.09
269.14	1714.15
269.35	1693.67
269.57	1634.28
269.79	1773.54
270.00	1640.42
270.22	1712.10
270.43	1642.47
270.65	1603.56
270.87	1785.83
271.08	1847.27
271.30	1755.11
271.51	1746.92
271.73	1744.87
271.95	1828.84
272.16	1796.07
272.38	1722.34
272.59	1728.49
272.81	1783.78
273.02	1687.53
273.24	1710.05
273.46	1714.15
273.67	1708.01
273.89	1624.04
274.10	1662.95
274.32	1796.07
274.54	1687.53
274.75	1665.00
274.97	1738.73
275.18	1824.74
275.40	1751.01
275.61	1710.05
275.83	1738.73
276.05	1576.94
276.26	1683.43
276.48	1742.82
276.69	1634.28
276.91	1660.90
277.12	1822.69
277.34	1832.93
277.55	1810.40
277.77	1751.01
277.99	1722.34
278.20	1683.43
278.42	1611.75
278.63	1656.81
278.85	1673.19
279.06	1710.05
279.28	1705.96
279.49	1779.68
279.71	1802.21
279.93	1736.68
280.14	1708.01
280.36	1679.33
280.57	1748.97
280.79	1779.68
281.00	1640.42
281.22	1644.52
281.43	1718.25
281.65	1693.67
281.86	1619.94
282.08	1775.59
282.29	1804.26
282.51	1673.19
282.73	1675.24
282.94	1687.53
283.16	1748.97
283.37	1738.73
283.59	1697.77
283.80	1789.92
284.02	1763.30
284.23	1804.26
284.45	1642.47
284.66	1675.24
284.88	1761.25
285.09	1781.73
285.31	1667.05
285.52	1738.73
285.74	1656.81
285.95	1677.29
286.17	1789.92
286.38	1798.12
286.60	1703.91
286.81	1699.81
287.03	1798.12
287.24	1673.19
287.46	1703.91
287.67	1677.29
287.89	1818.60
288.10	1718.25
288.32	1757.16
288.53	1783.78
288.75	1716.20
288.96	1849.32
289.18	1673.19
289.39	1714.15
289.61	1787.88
289.82	1896.42
290.04	1871.84
290.25	1656.81
290.47	1789.92
290.68	1697.77
290.90	1796.07
291.11	1722.34
291.33	1812.45
291.54	1677.29
291.76	1642.47
291.97	1681.38
292.18	1722.34
292.40	1677.29
292.61	1677.29
292.83	1892.32
293.04	1746.92
293.26	1740.77
293.47	1685.48
293.69	1689.57
293.90	1722.34
294.12	1791.97
294.33	1753.06
294.55	1681.38
294.76	1732.58
294.97	1882.08
295.19	1826.79
295.40	1677.29
295.62	1730.53
295.83	1787.88
296.05	1648.61
296.26	1771.49
296.48	1648.61
296.69	1740.77
296.90	1675.24
297.12	1785.83
297.33	1785.83
297.55	1695.72
297.76	1736.68
297.98	1769.44
298.19	1781.73
298.41	1763.30
298.62	1689.57
298.83	1748.97
299.05	1800.16
299.26	1742.82
299.48	1710.05
299.69	1822.69
299.90	1722.34
300.12	1636.33
300.33	1753.06
300.55	1697.77
300.76	1789.92
300.98	1691.62
301.19	1779.68
301.40	1701.86
301.62	1767.40
301.83	1742.82
302.05	1677.29
302.26	1746.92
302.47	1738.73
302.69	1689.57
302.90	1658.85
303.12	1591.27
303.33	1740.77
303.54	1812.45
303.76	1763.30
303.97	1804.26
304.19	1753.06
304.40	1673.19
304.61	1673.19
304.83	1849.32
305.04	1736.68
305.26	1716.20
305.47	1652.71
305.68	1683.43
305.90	1603.56
306.11	1785.83
306.33	1738.73
306.54	1673.19
306.75	1603.56
306.97	1716.20
307.18	1679.33
307.39	1738.73
307.61	1742.82
307.82	1724.39
308.04	1732.58
308.25	1656.81
308.46	1734.63
308.68	1681.38
308.89	1714.15
309.10	1718.25
309.32	1730.53
309.53	1640.42
309.74	1769.44
309.96	1705.96
310.17	1861.60
310.39	1654.76
310.60	1689.57
310.81	1724.39
311.03	1677.29
311.24	1718.25
311.45	1708.01
311.67	1867.75
311.88	1695.72
312.09	1738.73
312.31	1701.86
312.52	1634.28
312.73	1701.86
312.95	1681.38
313.16	1699.81
313.37	1796.07
313.59	1726.44
313.80	1757.16
314.01	1785.83
314.23	1683.43
314.44	1656.81
314.65	1640.42
314.87	1681.38
315.08	1728.49
315.29	1632.23
315.51	1705.96
315.72	1695.72
315.93	1763.30
316.15	1720.29
316.36	1665.00
316.57	1607.66
316.79	1748.97
317.00	1699.81
317.21	1718.25
317.43	1714.15
317.64	1779.68
317.85	1722.34
318.07	1708.01
318.28	1748.97
318.49	1787.88
318.70	1871.84
318.92	1798.12
319.13	1808.36
319.34	1902.56
319.56	1828.84
319.77	1767.40
319.98	1769.44
320.20	1791.97
320.41	1771.49
320.62	1820.64
320.83	1662.95
321.05	1898.47
321.26	1781.73
321.47	1660.90
321.69	1779.68
321.90	1654.76
322.11	1660.90
322.32	1746.92
322.54	1863.65
322.75	1738.73
322.96	1857.51
323.18	1705.96
323.39	1667.05
323.60	1621.99
323.81	1826.79
324.03	1693.67
324.24	1675.24
324.45	1722.34
324.66	1763.30
324.88	1794.02
325.09	1804.26
325.30	1673.19
325.52	1757.16
325.73	1736.68
325.94	1665.00
326.15	1718.25
326.37	1665.00
326.58	1726.44
326.79	1789.92
327.00	1724.39
327.22	1714.15
327.43	1722.34
327.64	1667.05
327.85	1773.54
328.07	1744.87
328.28	1853.41
328.49	1644.52
328.70	1675.24
328.92	1650.66
329.13	1718.25
329.34	1695.72
329.55	1791.97
329.76	1798.12
329.98	1738.73
330.19	1783.78
330.40	1736.68
330.61	1716.20
330.83	1742.82
331.04	1624.04
331.25	1734.63
331.46	1681.38
331.68	1689.57
331.89	1789.92
332.10	1748.97
332.31	1589.22
332.52	1677.29
332.74	1800.16
332.95	1613.80
333.16	1689.57
333.37	1820.64
333.58	1734.63
333.80	1703.91
334.01	1642.47
334.22	1710.05
334.43	1695.72
334.64	1710.05
334.86	1640.42
335.07	1640.42
335.28	1875.94
335.49	1632.23
335.70	1796.07
335.92	1726.44
336.13	1777.64
336.34	1740.77
336.55	1724.39
336.76	1755.11
336.98	1599.46
337.19	1691.62
337.40	1812.45
337.61	1789.92
337.82	1640.42
338.04	1830.88
338.25	1609.70
338.46	1646.57
338.67	1613.80
338.88	1660.90
339.09	1703.91
339.31	1748.97
339.52	1691.62
339.73	1703.91
339.94	1703.91
340.15	1828.84
340.36	1621.99
340.58	1802.21
340.79	1660.90
341.00	1751.01
341.21	1640.42
341.42	1806.31
341.63	1632.23
341.85	1802.21
342.06	1669.09
342.27	1683.43
342.48	1742.82
342.69	1554.41
342.90	1796.07
343.12	1726.44
343.33	1726.44
343.54	1798.12
343.75	1828.84
343.96	1722.34
344.17	1626.09
344.38	1718.25
344.60	1640.42
344.81	1648.61
345.02	1681.38
345.23	1787.88
345.44	1742.82
345.65	1738.73
345.86	1740.77
346.07	1667.05
346.29	1740.77
346.50	1734.63
346.71	1753.06
346.92	1763.30
347.13	1884.13
347.34	1740.77
347.55	1726.44
347.76	1775.59
347.98	1591.27
348.19	1751.01
348.40	1845.22
348.61	1705.96
348.82	1771.49
349.03	1783.78
349.24	1638.38
349.45	1800.16
349.66	1593.32
349.88	1765.35
350.09	1656.81
350.30	1773.54
350.51	1794.02
350.72	1746.92
350.93	1587.18
351.14	1650.66
351.35	1738.73
351.56	1671.14
351.77	1695.72
351.99	1755.11
352.20	1859.56
352.41	1781.73
352.62	1609.70
352.83	1687.53
353.04	1751.01
353.25	1714.15
353.46	1751.01
353.67	1751.01
353.88	1613.80
354.09	1753.06
354.30	1724.39
354.52	1763.30
354.73	1753.06
354.94	1632.23
355.15	1757.16
355.36	1820.64
355.57	1601.51
355.78	1689.57
355.99	1675.24
356.20	1751.01
356.41	1753.06
356.62	1652.71
356.83	1796.07
357.04	1824.74
357.25	1648.61
357.46	1718.25
357.68	1671.14
357.89	1716.20
358.10	1755.11
358.31	1724.39
358.52	1685.48
358.73	1675.24
358.94	1662.95
359.15	1685.48
359.36	1798.12
359.57	1669.09
359.78	1744.87
359.99	1744.87
360.20	1581.03
360.41	1730.53
360.62	1779.68
360.83	1708.01
361.04	1695.72
361.25	1654.76
361.46	1826.79
361.67	1855.46
361.88	1773.54
362.09	1806.31
362.30	1701.86
362.51	1687.53
362.72	1746.92
362.93	1783.78
363.14	1746.92
363.35	1777.64
363.56	1660.90
363.78	1759.21
363.99	1796.07
364.20	1716.20
364.41	1742.82
364.62	1826.79
364.83	1730.53
365.04	1828.84
365.25	1732.58
365.46	1804.26
365.67	1714.15
365.88	1691.62
366.09	1693.67
366.30	1724.39
366.51	1703.91
366.72	1744.87
366.93	1693.67
367.14	1724.39
367.35	1787.88
367.56	1679.33
367.77	1798.12
367.98	1826.79
368.18	1765.35
368.39	1808.36
368.60	1691.62
368.81	1773.54
369.02	1751.01
369.23	1615.85
369.44	1665.00
369.65	1710.05
369.86	1757.16
370.07	1765.35
370.28	1628.14
370.49	1736.68
370.70	1740.77
370.91	1603.56
371.12	1636.33
371.33	1757.16
371.54	1730.53
371.75	1822.69
371.96	1644.52
372.17	1669.09
372.38	1652.71
372.59	1767.40
372.80	1738.73
373.01	1687.53
373.22	1714.15
373.43	1748.97
373.64	1601.51
373.85	1826.79
374.06	1804.26
374.26	1755.11
374.47	1697.77
374.68	1847.27
374.89	1757.16
375.10	1718.25
375.31	1757.16
375.52	1720.29
375.73	1744.87
375.94	1642.47
376.15	1789.92
376.36	1667.05
376.57	1697.77
376.78	1626.09
376.99	1744.87
377.20	1839.08
377.40	1716.20
377.61	1841.12
377.82	1654.76
378.03	1800.16
378.24	1724.39
378.45	1679.33
378.66	1724.39
378.87	1597.42
379.08	1613.80
379.29	1630.18
379.50	1816.55
379.71	1685.48
379.91	1708.01
380.12	1740.77
380.33	1755.11
380.54	1773.54
380.75	1656.81
380.96	1656.81
381.17	1853.41
381.38	1720.29
381.59	1765.35
381.80	1791.97
382.00	1882.08
382.21	1712.10
382.42	1789.92
382.63	1937.38
382.84	1742.82
383.05	1765.35
383.26	1773.54
383.47	1820.64
383.68	1775.59
383.88	1730.53
384.09	1804.26
384.30	1800.16
384.51	1832.93
384.72	1695.72
384.93	1689.57
385.14	1736.68
385.35	1742.82
385.55	1685.48
385.76	1722.34
385.97	1705.96
386.18	1697.77
386.39	1642.47
386.60	1730.53
386.81	1732.58
387.02	1675.24
387.22	1665.00
387.43	1736.68
387.64	1802.21
387.85	1910.75
388.06	2156.51
388.27	4097.99
388.48	6563.74
388.68	8206.21
388.89	9410.42
389.10	9715.56
389.31	8748.92
389.52	7350.16
389.73	6705.05
389.93	6109.09
390.14	5791.66
390.35	5093.30
390.56	4593.59
390.77	3737.54
390.98	2992.08
391.18	2492.38
391.39	2078.69
391.60	1800.16
391.81	1818.60
392.02	1800.16
392.23	1869.80
392.43	1751.01
392.64	1871.84
392.85	1669.09
393.06	1826.79
393.27	1738.73
393.47	1699.81
393.68	1765.35
393.89	1730.53
394.10	1736.68
394.31	1699.81
394.52	1660.90
394.72	1708.01
394.93	1837.03
395.14	1673.19
395.35	1849.32
395.56	1660.90
395.76	1732.58
395.97	1814.50
396.18	1890.28
396.39	1796.07
396.60	2011.11
396.80	1871.84
397.01	1865.70
397.22	1900.52
397.43	1816.55
397.64	1730.53
397.84	1724.39
398.05	1794.02
398.26	1796.07
398.47	1753.06
398.67	1892.32
398.88	1763.30
399.09	1738.73
399.30	1732.58
399.51	1763.30
399.71	1683.43
399.92	1705.96
400.13	1763.30
400.34	1730.53
400.54	1714.15
400.75	1812.45
400.96	1701.86
401.17	1865.70
401.37	1796.07
401.58	1746.92
401.79	1710.05
402.00	1861.60
402.21	2043.87
402.41	1939.43
402.62	1966.05
402.83	2013.15
403.04	2058.21
403.24	2111.46
403.45	1898.47
403.66	1914.85
403.87	1834.98
404.07	1929.19
404.28	1877.99
404.49	1882.08
404.70	1798.12
404.90	1824.74
405.11	1775.59
405.32	1783.78
405.52	1740.77
405.73	1619.94
405.94	1595.37
406.15	1708.01
406.35	1785.83
406.56	1759.21
406.77	1724.39
406.98	1742.82
407.18	1667.05
407.39	1882.08
407.60	1732.58
407.80	1763.30
408.01	1638.38
408.22	1673.19
408.43	1675.24
408.63	1693.67
408.84	1832.93
409.05	1775.59
409.25	1708.01
409.46	1685.48
409.67	1705.96
409.88	1714.15
410.08	1671.14
410.29	1652.71
410.50	1746.92
410.70	1789.92
410.91	1681.38
411.12	1697.77
411.32	1699.81
411.53	1753.06
411.74	1834.98
411.95	1804.26
412.15	1755.11
412.36	1865.70
412.57	1798.12
412.77	1769.44
412.98	1673.19
413.19	1660.90
413.39	1728.49
413.60	1798.12
413.81	1880.04
414.01	1710.05
414.22	1847.27
414.43	1800.16
414.63	1724.39
414.84	1779.68
415.05	1742.82
415.25	1675.24
415.46	1771.49
415.67	1732.58
415.87	1753.06
416.08	1736.68
416.29	1609.70
416.49	1744.87
416.70	1716.20
416.91	1697.77
417.11	1673.19
417.32	1701.86
417.53	1728.49
417.73	1720.29
417.94	1638.38
418.15	1738.73
418.35	1781.73
418.56	1834.98
418.77	1904.61
418.97	1744.87
419.18	1771.49
419.38	1624.04
419.59	1740.77
419.80	1771.49
420.00	1708.01
420.21	1742.82
420.42	1837.03
420.62	1773.54
420.83	1703.91
421.04	1695.72
421.24	1759.21
421.45	1730.53
421.65	1703.91
421.86	1769.44
422.07	1791.97
422.27	1716.20
422.48	1703.91
422.69	1699.81
422.89	1771.49
423.10	1705.96
423.30	1671.14
423.51	1837.03
423.72	1751.01
423.92	1757.16
424.13	1697.77
424.33	1722.34
424.54	1720.29
424.75	1687.53
424.95	1843.17
425.16	1796.07
425.36	1755.11
425.57	1744.87
425.78	1734.63
425.98	1703.91
426.19	1718.25
426.39	1615.85
426.60	1726.44
426.81	1789.92
427.01	1751.01
427.22	1642.47
427.42	1660.90
427.63	1652.71
427.83	1738.73
428.04	1904.61
428.25	1804.26
428.45	1830.88
428.66	1773.54
428.86	1658.85
429.07	1710.05
429.28	1714.15
429.48	1683.43
429.69	1683.43
429.89	1794.02
430.10	1660.90
430.30	1683.43
430.51	1738.73
430.71	1753.06
430.92	1652.71
431.13	1689.57
431.33	1751.01
431.54	1720.29
431.74	1837.03
431.95	1843.17
432.15	1638.38
432.36	1728.49
432.56	1728.49
432.77	1812.45
432.98	1796.07
433.18	1712.10
433.39	1742.82
433.59	1726.44
433.80	1812.45
434.00	1808.36
434.21	1718.25
434.41	1671.14
434.62	1888.23
434.82	1652.71
435.03	1732.58
435.23	1734.63
435.44	1603.56
435.64	1701.86
435.85	1779.68
436.06	1755.11
436.26	1767.40
436.47	1609.70
436.67	1693.67
436.88	1722.34
437.08	1738.73
437.29	1847.27
437.49	1800.16
437.70	1787.88
437.90	1779.68
438.11	1863.65
438.31	1845.22
438.52	1865.70
438.72	1867.75
438.93	1959.91
439.13	1845.22
439.34	1904.61
439.54	1787.88
439.75	1779.68
439.95	1798.12
440.16	1695.72
440.36	1787.88
440.57	1775.59
440.77	1839.08
440.98	1781.73
441.18	1787.88
441.39	1689.57
441.59	1710.05
441.80	1802.21
442.00	1787.88
442.21	1798.12
442.41	1630.18
442.62	1812.45
442.82	1673.19
443.02	1751.01
443.23	1763.30
443.43	1714.15
443.64	1697.77
443.84	1685.48
444.05	1814.50
444.25	1812.45
444.46	1720.29
444.66	1742.82
444.87	1802.21
445.07	1628.14
445.28	1697.77
445.48	1796.07
445.69	1806.31
445.89	1880.04
446.09	1806.31
446.30	1955.81
446.50	2607.06
446.71	3751.88
446.91	4245.44
447.12	4814.77
447.32	4771.77
447.53	4376.51
447.73	3790.79
447.93	3504.07
448.14	3350.48
448.34	3254.22
448.55	2877.40
448.75	2826.20
448.96	2678.74
449.16	2340.83
449.36	2205.66
449.57	1947.62
449.77	1857.51
449.98	1726.44
450.18	1818.60
450.39	1824.74
450.59	1812.45
450.79	1693.67
451.00	1724.39
451.20	1814.50
451.41	1759.21
451.61	1781.73
451.81	1742.82
452.02	1667.05
452.22	1722.34
452.43	1746.92
452.63	1697.77
452.84	1683.43
453.04	1687.53
453.24	1830.88
453.45	1740.77
453.65	1785.83
453.86	1732.58
454.06	1775.59
454.26	1818.60
454.47	1744.87
454.67	1824.74
454.87	1732.58
455.08	1714.15
455.28	1900.52
455.49	1695.72
455.69	1654.76
455.89	1877.99
456.10	1822.69
456.30	1783.78
456.51	1798.12
456.71	1732.58
456.91	1718.25
457.12	1822.69
457.32	1679.33
457.52	1722.34
457.73	1783.78
457.93	1773.54
458.14	1794.02
458.34	1609.70
458.54	1718.25
458.75	1691.62
458.95	1808.36
459.15	1699.81
459.36	1755.11
459.56	1824.74
459.76	1871.84
459.97	1771.49
460.17	1701.86
460.37	1845.22
460.58	1732.58
460.78	1763.30
460.99	1679.33
461.19	1806.31
461.39	1607.66
461.60	1769.44
461.80	1796.07
462.00	1662.95
462.21	1771.49
462.41	1648.61
462.61	1665.00
462.82	1669.09
463.02	1753.06
463.22	1757.16
463.43	1796.07
463.63	1816.55
463.83	1820.64
464.04	1794.02
464.24	1695.72
464.44	1691.62
464.64	1722.34
464.85	1796.07
465.05	1742.82
465.25	1814.50
465.46	1689.57
465.66	1693.67
465.86	1773.54
466.07	1822.69
466.27	1746.92
466.47	1607.66
466.68	1673.19
466.88	1783.78
467.08	1718.25
467.29	1808.36
467.49	1726.44
467.69	1691.62
467.89	1718.25
468.10	1789.92
468.30	1791.97
468.50	1837.03
468.71	1730.53
468.91	1609.70
469.11	1865.70
469.31	1619.94
469.52	1705.96
469.72	1763.30
469.92	1923.04
470.13	1722.34
470.33	1753.06
470.53	1794.02
470.73	2117.60
470.94	2349.02
471.14	2367.45
471.34	2523.10
471.54	2478.04
471.75	2303.96
471.95	2082.78
472.15	2017.25
472.36	2168.80
472.56	2082.78
472.76	2117.60
472.96	1937.38
473.17	1990.63
473.37	1892.32
473.57	1814.50
473.77	1796.07
473.98	1716.20
474.18	1689.57
474.38	1947.62
474.58	1796.07
474.79	1748.97
474.99	1828.84
475.19	1820.64
475.39	1630.18
475.60	1742.82
475.80	1738.73
476.00	1794.02
476.20	1724.39
476.41	1771.49
476.61	1855.46
476.81	1763.30
477.01	1718.25
477.21	1910.75
477.42	1796.07
477.62	1703.91
477.82	1783.78
478.02	1685.48
478.23	1753.06
478.43	1677.29
478.63	1759.21
478.83	1765.35
479.03	1734.63
479.24	1814.50
479.44	1869.80
479.64	1683.43
479.84	1591.27
480.04	1681.38
480.25	1839.08
480.45	1675.24
480.65	1646.57
480.85	1816.55
481.06	1701.86
481.26	1742.82
481.46	1697.77
481.66	1767.40
481.86	1730.53
482.06	1845.22
482.27	1703.91
482.47	1683.43
482.67	1834.98
482.87	1726.44
483.07	1798.12
483.28	1763.30
483.48	1673.19
483.68	1722.34
483.88	1699.81
484.08	1675.24
484.29	1638.38
484.49	1744.87
484.69	1652.71
484.89	1769.44
485.09	1710.05
485.29	1806.31
485.50	1798.12
485.70	1755.11
485.90	1781.73
486.10	1769.44
486.30	1834.98
486.50	1841.12
486.71	1791.97
486.91	1789.92
487.11	1822.69
487.31	1611.75
487.51	1818.60
487.71	1669.09
487.91	1718.25
488.12	1730.53
488.32	1628.14
488.52	1712.10
488.72	1665.00
488.92	1738.73
489.12	1849.32
489.32	1814.50
489.53	1779.68
489.73	1740.77
489.93	1794.02
490.13	1652.71
490.33	1703.91
490.53	1765.35
490.73	1740.77
490.94	1648.61
491.14	1791.97
491.34	1841.12
491.54	2197.47
491.74	2707.41
491.94	2869.20
492.14	3039.19
492.34	3014.61
492.54	2764.76
492.75	2514.91
492.95	2521.05
493.15	2330.59
493.35	2287.58
493.55	2191.33
493.75	2197.47
493.95	2248.67
494.15	1951.71
494.35	1886.18
494.56	1898.47
494.76	1775.59
494.96	1796.07
495.16	1779.68
495.36	1736.68
495.56	1757.16
495.76	1781.73
495.96	1763.30
496.16	1699.81
496.36	1843.17
496.56	1773.54
496.77	1763.30
496.97	1681.38
497.17	1824.74
497.37	1701.86
497.57	1785.83
497.77	1726.44
497.97	1654.76
498.17	1763.30
498.37	1724.39
498.57	1779.68
498.77	1755.11
498.97	1816.55
499.17	1837.03
499.38	1705.96
499.58	1810.40
499.78	1794.02
499.98	1888.23
500.18	1720.29
500.38	1644.52
500.58	1941.47
500.78	2562.01
500.98	4433.85
501.18	5756.84
501.38	6743.96
501.58	7059.35
501.78	6633.37
501.98	5513.13
502.18	4857.78
502.38	4384.70
502.58	4100.03
502.78	3788.74
502.98	3667.91
503.18	3370.96
503.38	3166.16
503.59	2881.49
503.79	2680.79
503.99	2480.09
504.19	2295.77
504.39	2168.80
504.59	2162.66
504.79	2086.88
504.99	2103.26
505.19	1970.15
505.39	1916.90
505.59	2015.20
505.79	1949.67
505.99	1853.41
506.19	1841.12
506.39	1888.23
506.59	1691.62
506.79	1779.68
506.99	1871.84
507.19	1820.64
507.39	1806.31
507.59	1675.24
507.79	1710.05
507.99	1718.25
508.19	1847.27
508.39	1738.73
508.59	1773.54
508.79	1849.32
508.99	1843.17
509.19	1757.16
509.39	1742.82
509.59	1695.72
509.79	1665.00
509.99	1771.49
510.19	1824.74
510.39	1873.89
510.59	1759.21
510.79	1787.88
510.99	1665.00
511.19	1808.36
511.39	1900.52
511.59	1759.21
511.79	1841.12
511.99	1787.88
512.19	1880.04
512.38	1720.29
512.58	1740.77
512.78	1818.60
512.98	1791.97
513.18	1808.36
513.38	1681.38
513.58	1777.64
513.78	1679.33
513.98	1714.15
514.18	1832.93
514.38	1673.19
514.58	1810.40
514.78	1734.63
514.98	1720.29
515.18	1767.40
515.38	1619.94
515.58	1837.03
515.78	1695.72
515.98	1759.21
516.18	1746.92
516.38	1779.68
516.57	1781.73
516.77	1716.20
516.97	1832.93
517.17	1765.35
517.37	1660.90
517.57	1777.64
517.77	1767.40
517.97	1687.53
518.17	1773.54
518.37	1691.62
518.57	1710.05
518.77	1701.86
518.97	1791.97
519.16	1757.16
519.36	1886.18
519.56	1789.92
519.76	1714.15
519.96	1720.29
520.16	1845.22
520.36	1718.25
520.56	1816.55
520.76	1716.20
520.96	1757.16
521.16	1814.50
521.35	1857.51
521.55	1814.50
521.75	1804.26
521.95	1732.58
522.15	1703.91
522.35	1660.90
522.55	1697.77
522.75	1775.59
522.95	1804.26
523.14	1697.77
523.34	1744.87
523.54	1742.82
523.74	1748.97
523.94	1798.12
524.14	1683.43
524.34	1683.43
524.54	1871.84
524.73	1722.34
524.93	1742.82
525.13	1783.78
525.33	1685.48
525.53	1900.52
525.73	1781.73
525.93	1751.01
526.13	1763.30
526.32	1759.21
526.52	1892.32
526.72	1822.69
526.92	1716.20
527.12	1826.79
527.32	1705.96
527.52	1742.82
527.71	1812.45
527.91	1697.77
528.11	1755.11
528.31	1765.35
528.51	1669.09
528.71	1798.12
528.90	1859.56
529.10	1775.59
529.30	1839.08
529.50	1587.18
529.70	1798.12
529.90	1779.68
530.09	1767.40
530.29	1667.05
530.49	1656.81
530.69	1900.52
530.89	1779.68
531.09	1812.45
531.28	1660.90
531.48	1820.64
531.68	1761.25
531.88	1787.88
532.08	1798.12
532.28	1767.40
532.47	1810.40
532.67	1847.27
532.87	1730.53
533.07	1734.63
533.27	1759.21
533.46	1775.59
533.66	1740.77
533.86	1742.82
534.06	1712.10
534.26	1746.92
534.45	1710.05
534.65	1804.26
534.85	1769.44
535.05	1716.20
535.25	1771.49
535.44	1787.88
535.64	1816.55
535.84	1779.68
536.04	1736.68
536.24	1705.96
536.43	1642.47
536.63	1830.88
536.83	1658.85
537.03	1738.73
537.22	1632.23
537.42	1699.81
537.62	1751.01
537.82	1724.39
538.02	1804.26
538.21	1927.14
538.41	1910.75
538.61	1765.35
538.81	1734.63
539.00	1718.25
539.20	1644.52
539.40	1726.44
539.60	1669.09
539.79	1861.60
539.99	1703.91
540.19	1628.14
540.39	1746.92
540.58	1718.25
540.78	1804.26
540.98	1669.09
541.18	1822.69
541.37	1845.22
541.57	1689.57
541.77	1726.44
541.97	1767.40
542.16	1646.57
542.36	1804.26
542.56	1802.21
542.76	1861.60
542.95	1859.56
543.15	1763.30
543.35	1800.16
543.54	1615.85
543.74	1714.15
543.94	1818.60
544.14	1708.01
544.33	1824.74
544.53	1787.88
544.73	1720.29
544.93	1789.92
545.12	1744.87
545.32	1726.44
545.52	1726.44
545.71	1652.71
545.91	1730.53
546.11	1755.11
546.30	1693.67
546.50	1789.92
546.70	1791.97
546.90	1820.64
547.09	1681.38
547.29	1718.25
547.49	1859.56
547.68	1763.30
547.88	1773.54
548.08	1828.84
548.27	2215.90
548.47	1726.44
548.67	1757.16
548.87	1697.77
549.06	1777.64
549.26	1783.78
549.46	1755.11
549.65	1736.68
549.85	1765.35
550.05	1716.20
550.24	1667.05
550.44	1716.20
550.64	1738.73
550.83	1796.07
551.03	1826.79
551.23	1798.12
551.42	1755.11
551.62	1775.59
551.82	1837.03
552.01	1763.30
552.21	1796.07
552.41	1767.40
552.60	1849.32
552.80	1726.44
553.00	1716.20
553.19	1783.78
553.39	1794.02
553.59	1646.57
553.78	1812.45
553.98	1781.73
554.17	1671.14
554.37	1824.74
554.57	1800.16
554.76	1675.24
554.96	1771.49
555.16	1757.16
555.35	1824.74
555.55	1822.69
555.75	1718.25
555.94	1839.08
556.14	1581.03
556.33	1851.36
556.53	1759.21
556.73	1765.35
556.92	1759.21
557.12	1880.04
557.32	1822.69
557.51	1789.92
557.71	1697.77
557.90	1855.46
558.10	1798.12
558.30	1648.61
558.49	1701.86
558.69	1730.53
558.88	1796.07
559.08	1744.87
559.28	1763.30
559.47	1763.30
559.67	1816.55
559.86	1900.52
560.06	1787.88
560.26	1742.82
560.45	1818.60
560.65	1798.12
560.84	1806.31
561.04	1757.16
561.24	1822.69
561.43	1691.62
561.63	1771.49
561.82	1828.84
562.02	1839.08
562.22	1748.97
562.41	1628.14
562.61	1802.21
562.80	1714.15
563.00	1857.51
563.19	1730.53
563.39	1789.92
563.59	1796.07
563.78	1697.77
563.98	1705.96
564.17	1744.87
564.37	1720.29
564.56	1710.05
564.76	1708.01
564.96	1925.09
565.15	1781.73
565.35	1908.71
565.54	1703.91
565.74	1777.64
565.93	1751.01
566.13	1738.73
566.32	1808.36
566.52	1789.92
566.71	1757.16
566.91	1751.01
567.11	1771.49
567.30	1724.39
567.50	1763.30
567.69	1796.07
567.89	1771.49
568.08	1769.44
568.28	1812.45
568.47	1714.15
568.67	1785.83
568.86	1701.86
569.06	1789.92
569.25	1673.19
569.45	1677.29
569.64	1728.49
569.84	1775.59
570.04	1730.53
570.23	1751.01
570.43	1787.88
570.62	1734.63
570.82	1863.65
571.01	1654.76
571.21	1720.29
571.40	1716.20
571.60	1726.44
571.79	1757.16
571.99	1794.02
572.18	1673.19
572.38	1748.97
572.57	1701.86
572.77	1791.97
572.96	1918.95
573.16	1812.45
573.35	1777.64
573.55	1808.36
573.74	1767.40
573.94	1822.69
574.13	1679.33
574.33	1775.59
574.52	1779.68
574.71	1761.25
574.91	1759.21
575.10	1685.48
575.30	1697.77
575.49	1720.29
575.69	1730.53
575.88	1701.86
576.08	1730.53
576.27	1820.64
576.47	1660.90
576.66	1867.75
576.86	1849.32
577.05	1871.84
577.25	1789.92
577.44	1820.64
577.64	1744.87
577.83	1789.92
578.02	1736.68
578.22	1869.80
578.41	1865.70
578.61	1783.78
578.80	1724.39
579.00	1718.25
579.19	1748.97
579.39	1839.08
579.58	1912.80
579.77	1759.21
579.97	1808.36
580.16	1851.36
580.36	1814.50
580.55	1748.97
580.75	1818.60
580.94	1757.16
581.13	1898.47
581.33	1857.51
581.52	1753.06
581.72	1806.31
581.91	1900.52
582.11	1753.06
582.30	1845.22
582.49	1765.35
582.69	1822.69
582.88	1773.54
583.08	1830.88
583.27	1812.45
583.47	1705.96
583.66	1660.90
583.85	1701.86
584.05	1710.05
584.24	1847.27
584.44	1871.84
584.63	1873.89
584.82	1914.85
585.02	1851.36
585.21	1832.93
585.41	1857.51
585.60	1900.52
585.79	1937.38
585.99	1925.09
586.18	1910.75
586.37	2205.66
586.57	3366.86
586.76	9746.28
586.96	24020.63
587.15	33701.37
587.34	39589.28
587.54	41430.41
587.73	36085.21
587.93	25749.11
588.12	20995.78
588.31	17958.64
588.51	16162.57
588.70	14788.38
588.89	13717.29
589.09	12357.44
589.28	10803.04
589.47	9367.41
589.67	7860.10
589.86	6317.98
590.06	4765.62
590.25	3878.85
590.44	3084.24
590.64	2598.87
590.83	2267.10
591.02	2111.46
591.22	1951.71
591.41	1892.32
591.60	1802.21
591.80	2002.91
591.99	1697.77
592.18	1814.50
592.38	1859.56
592.57	1796.07
592.76	1808.36
592.96	1732.58
593.15	1779.68
593.34	1810.40
593.54	1724.39
593.73	1779.68
593.92	1789.92
594.12	1812.45
594.31	1802.21
594.50	1847.27
594.70	1843.17
594.89	1935.33
595.08	1736.68
595.28	1861.60
595.47	1935.33
595.66	1765.35
595.86	1701.86
596.05	1779.68
596.24	1789.92
596.43	1886.18
596.63	1832.93
596.82	1769.44
597.01	1802.21
597.21	1873.89
597.40	1757.16
597.59	1783.78
597.79	1824.74
597.98	1757.16
598.17	1847.27
598.36	1751.01
598.56	1826.79
598.75	1757.16
598.94	1816.55
599.14	1783.78
599.33	1695.72
599.52	1812.45
599.71	1755.11
599.91	1837.03
600.10	1777.64
600.29	1767.40
600.48	1791.97
600.68	1773.54
600.87	1683.43
601.06	1765.35
601.26	1787.88
601.45	1705.96
601.64	1722.34
601.83	1855.46
602.03	1730.53
602.22	1712.10
602.41	1779.68
602.60	1822.69
602.80	1886.18
602.99	1755.11
603.18	1730.53
603.37	1779.68
603.57	1781.73
603.76	1796.07
603.95	1779.68
604.14	1789.92
604.34	1708.01
604.53	1751.01
604.72	1722.34
604.91	1751.01
605.10	1755.11
605.30	1648.61
605.49	1855.46
605.68	1748.97
605.87	1779.68
606.07	1673.19
606.26	1726.44
606.45	1812.45
606.64	1744.87
606.84	1689.57
607.03	1675.24
607.22	1837.03
607.41	1673.19
607.60	1695.72
607.80	1824.74
607.99	1742.82
608.18	1763.30
608.37	1742.82
608.56	1773.54
608.76	1775.59
608.95	1789.92
609.14	1734.63
609.33	1773.54
609.52	1822.69
609.72	1882.08
609.91	1781.73
610.10	1759.21
610.29	1845.22
610.48	1746.92
610.68	1742.82
610.87	1710.05
611.06	1738.73
611.25	1812.45
611.44	1798.12
611.63	1734.63
611.83	1834.98
612.02	1738.73
612.21	1726.44
612.40	1628.14
612.59	1705.96
612.79	1636.33
612.98	1832.93
613.17	1796.07
613.36	1724.39
613.55	1834.98
613.74	1693.67
613.93	1710.05
614.13	1751.01
614.32	1691.62
614.51	1777.64
614.70	1763.30
614.89	1679.33
615.08	1761.25
615.28	2058.21
615.47	1646.57
615.66	1699.81
615.85	1775.59
616.04	1755.11
616.23	1720.29
616.42	1828.84
616.62	1736.68
616.81	1828.84
617.00	1724.39
617.19	1759.21
617.38	1726.44
617.57	1816.55
617.76	1810.40
617.95	1804.26
618.15	1759.21
618.34	1791.97
618.53	1667.05
618.72	1837.03
618.91	1828.84
619.10	1818.60
619.29	1771.49
619.48	1746.92
619.68	1603.56
619.87	1726.44
620.06	1660.90
620.25	1818.60
620.44	1732.58
620.63	1728.49
620.82	1730.53
621.01	1751.01
621.20	1695.72
621.39	1755.11
621.59	1765.35
621.78	1798.12
621.97	1767.40
622.16	1796.07
622.35	1736.68
622.54	1832.93
622.73	1820.64
622.92	1624.04
623.11	1703.91
623.30	1732.58
623.49	1742.82
623.68	1771.49
623.88	1828.84
624.07	1740.77
624.26	1730.53
624.45	1708.01
624.64	1761.25
624.83	1710.05
625.02	1722.34
625.21	1697.77
625.40	1699.81
625.59	1759.21
625.78	1728.49
625.97	1789.92
626.16	1716.20
626.35	1746.92
626.54	1724.39
626.74	1798.12
626.93	1763.30
627.12	1710.05
627.31	1804.26
627.50	1783.78
627.69	1763.30
627.88	1730.53
628.07	1722.34
628.26	1650.66
628.45	1734.63
628.64	1718.25
628.83	1744.87
629.02	1693.67
629.21	1791.97
629.40	1832.93
629.59	1691.62
629.78	1714.15
629.97	1753.06
630.16	1742.82
630.35	1746.92
630.54	1808.36
630.73	1730.53
630.92	1740.77
631.11	1669.09
631.30	1785.83
631.49	1767.40
631.68	1703.91
631.87	1773.54
632.06	1708.01
632.25	1824.74
632.44	1660.90
632.63	1730.53
632.82	1689.57
633.01	1738.73
633.20	1726.44
633.39	1708.01
633.58	1578.98
633.77	1791.97
633.96	1796.07
634.15	1705.96
634.34	1800.16
634.53	1775.59
634.72	1681.38
634.91	1632.23
635.10	1740.77
635.29	1789.92
635.48	1662.95
635.67	1689.57
635.86	1615.85
636.05	1779.68
636.24	1765.35
636.43	1742.82
636.62	1769.44
636.81	1583.08
637.00	1757.16
637.19	1808.36
637.38	1753.06
637.57	1746.92
637.76	1730.53
637.95	1677.29
638.14	1708.01
638.33	1722.34
638.52	1746.92
638.71	1714.15
638.89	1677.29
639.08	1871.84
639.27	1761.25
639.46	1693.67
639.65	1740.77
639.84	1757.16
640.03	1716.20
640.22	1695.72
640.41	1861.60
640.60	1615.85
640.79	1705.96
640.98	1722.34
641.17	1812.45
641.36	1742.82
641.55	1787.88
641.74	1732.58
641.92	1673.19
642.11	1771.49
642.30	1740.77
642.49	1691.62
642.68	1714.15
642.87	1724.39
643.06	1742.82
643.25	1683.43
643.44	1683.43
643.63	1703.91
643.82	1769.44
644.00	1669.09
644.19	1791.97
644.38	1763.30
644.57	1755.11
644.76	1767.40
644.95	1785.83
645.14	1777.64
645.33	1726.44
645.52	1689.57
645.71	1648.61
645.89	1746.92
646.08	1757.16
646.27	1665.00
646.46	1822.69
646.65	1632.23
646.84	1697.77
647.03	1593.32
647.22	1796.07
647.40	1740.77
647.59	1728.49
647.78	1619.94
647.97	1708.01
648.16	1746.92
648.35	1777.64
648.54	1773.54
648.73	1660.90
648.91	1687.53
649.10	1705.96
649.29	1677.29
649.48	1794.02
649.67	1722.34
649.86	1669.09
650.05	1665.00
650.23	1828.84
650.42	1642.47
650.61	1765.35
650.80	1767.40
650.99	1877.99
651.18	1853.41
651.36	1767.40
651.55	1689.57
651.74	1738.73
651.93	1665.00
652.12	1714.15
652.31	1714.15
652.49	1720.29
652.68	1740.77
652.87	1740.77
653.06	1787.88
653.25	1808.36
653.44	1677.29
653.62	1767.40
653.81	1742.82
654.00	1755.11
654.19	1789.92
654.38	1794.02
654.56	1763.30
654.75	1714.15
654.94	1746.92
655.13	1763.30
655.32	1767.40
655.51	1783.78
655.69	1687.53
655.88	1814.50
656.07	1617.90
656.26	1779.68
656.45	1603.56
656.63	1724.39
656.82	1744.87
657.01	1779.68
657.20	1753.06
657.38	1806.31
657.57	1671.14
657.76	1697.77
657.95	1812.45
658.14	1693.67
658.32	1734.63
658.51	1699.81
658.70	1742.82
658.89	1767.40
659.08	1734.63
659.26	1798.12
659.45	1642.47
659.64	1843.17
659.83	1738.73
660.01	1923.04
660.20	1800.16
660.39	1779.68
660.58	1638.38
660.76	1806.31
660.95	1691.62
661.14	1708.01
661.33	1642.47
661.51	1683.43
661.70	1748.97
661.89	1777.64
662.08	1722.34
662.26	1695.72
662.45	1734.63
662.64	1845.22
662.83	1781.73
663.01	1716.20
663.20	1753.06
663.39	1728.49
663.58	1714.15
663.76	1740.77
663.95	1863.65
664.14	1685.48
664.32	1662.95
664.51	1728.49
664.70	1648.61
664.89	1849.32
665.07	1656.81
665.26	1775.59
665.45	1683.43
665.64	1791.97
665.82	1718.25
666.01	1820.64
666.20	1671.14
666.38	1732.58
666.57	1806.31
666.76	2183.13
666.95	4636.60
667.13	10364.77
667.32	15032.09
667.51	17946.35
667.69	18855.65
667.88	17389.30
668.07	11976.52
668.25	9324.40
668.44	7970.69
668.63	7425.93
668.81	6676.38
669.00	6229.92
669.19	5672.87
669.38	5042.10
669.56	4454.33
669.75	3997.64
669.94	3370.96
670.12	2809.81
670.31	2502.62
670.50	2228.19
670.68	2050.02
670.87	1990.63
671.06	1865.70
671.24	1853.41
671.43	1742.82
671.62	1785.83
671.80	1703.91
671.99	1808.36
672.18	1763.30
672.36	1767.40
672.55	1759.21
672.74	1705.96
672.92	1697.77
673.11	1773.54
673.29	1693.67
673.48	1738.73
673.67	1689.57
673.85	1791.97
674.04	1726.44
674.23	1763.30
674.41	1773.54
674.60	1675.24
674.79	1703.91
674.97	1652.71
675.16	1726.44
675.34	1775.59
675.53	1652.71
675.72	1732.58
675.90	1804.26
676.09	1675.24
676.28	1722.34
676.46	1708.01
676.65	1748.97
676.83	1736.68
677.02	1761.25
677.21	1705.96
677.39	1689.57
677.58	1665.00
677.77	1748.97
677.95	1701.86
678.14	1759.21
678.32	1650.66
678.51	1783.78
678.70	1834.98
678.88	1671.14
679.07	1767.40
679.25	1697.77
679.44	1636.33
679.63	1679.33
679.81	1763.30
680.00	1877.99
680.18	1714.15
680.37	1746.92
680.55	1724.39
680.74	1609.70
680.93	1609.70
681.11	1708.01
681.30	1755.11
681.48	1757.16
681.67	1751.01
681.85	1767.40
682.04	1673.19
682.23	1789.92
682.41	1728.49
682.60	1693.67
682.78	1675.24
682.97	1697.77
683.15	1708.01
683.34	1736.68
683.53	1857.51
683.71	1667.05
683.90	1822.69
684.08	1796.07
684.27	1755.11
684.45	1810.40
684.64	1873.89
684.82	1699.81
685.01	1697.77
685.19	1773.54
685.38	1839.08
685.57	1738.73
685.75	1701.86
685.94	1675.24
686.12	1634.28
686.31	1734.63
686.49	1845.22
686.68	1640.42
686.86	1769.44
687.05	1722.34
687.23	1751.01
687.42	1683.43
687.60	1593.32
687.79	1728.49
687.97	1771.49
688.16	1855.46
688.34	1798.12
688.53	1626.09
688.71	1738.73
688.90	1779.68
689.08	1722.34
689.27	1617.90
689.45	1865.70
689.64	1773.54
689.82	1722.34
690.01	1720.29
690.19	1693.67
690.38	1726.44
690.56	1818.60
690.75	1667.05
690.93	1615.85
691.12	1720.29
691.30	1779.68
691.49	1708.01
691.67	1738.73
691.86	1841.12
692.04	1681.38
692.23	1656.81
692.41	1724.39
692.60	1894.37
692.78	1783.78
692.97	1716.20
693.15	1726.44
693.34	1783.78
693.52	1816.55
693.71	1703.91
693.89	1685.48
694.08	1677.29
694.26	1787.88
694.44	1724.39
694.63	1730.53
694.81	1648.61
695.00	1667.05
695.18	1832.93
695.37	1877.99
695.55	1681.38
695.74	1671.14
695.92	1726.44
696.10	1783.78
696.29	1560.55
696.47	1673.19
696.66	1652.71
696.84	1699.81
697.03	1742.82
697.21	1769.44
697.40	2387.93
697.58	1810.40
697.76	1695.72
697.95	1638.38
698.13	1632.23
698.32	1642.47
698.50	1699.81
698.68	1732.58
698.87	1673.19
699.05	1816.55
699.24	1769.44
699.42	1771.49
699.61	1677.29
699.79	1675.24
699.97	1759.21
700.16	1640.42
700.34	1687.53
700.53	1728.49
700.71	1816.55
700.89	1765.35
701.08	1648.61
701.26	1734.63
701.45	2174.94
701.63	1628.14
701.81	1763.30
702.00	1685.48
702.18	1742.82
702.37	1708.01
702.55	1761.25
702.73	1724.39
702.92	1609.70
703.10	1759.21
703.28	1730.53
703.47	1683.43
703.65	1761.25
703.84	1781.73
704.02	1722.34
704.20	1820.64
704.39	1673.19
704.57	1740.77
704.75	1751.01
704.94	1712.10
705.12	1757.16
705.30	1882.08
705.49	2283.49
705.67	4497.34
705.86	9512.81
706.04	12476.23
706.22	14176.04
706.41	15025.95
706.59	13498.16
706.77	9312.11
706.96	7202.71
707.14	6432.67
707.32	5832.62
707.51	5525.42
707.69	4822.97
707.87	4241.34
708.06	3418.06
708.24	2967.51
708.42	2412.51
708.61	2324.44
708.79	1957.86
708.97	1892.32
709.16	1888.23
709.34	1814.50
709.52	1693.67
709.71	1697.77
709.89	1837.03
710.07	1701.86
710.26	1693.67
710.44	1697.77
710.62	1781.73
710.80	1701.86
710.99	1816.55
711.17	1798.12
711.35	1675.24
711.54	1667.05
711.72	1857.51
711.90	1755.11
712.09	1697.77
712.27	1710.05
712.45	1705.96
712.63	1759.21
712.82	1722.34
713.00	1687.53
713.18	1751.01
713.37	1808.36
713.55	1824.74
713.73	1847.27
713.91	1738.73
714.10	1654.76
714.28	1724.39
714.46	1734.63
714.65	1656.81
714.83	1689.57
715.01	1775.59
715.19	1718.25
715.38	1736.68
715.56	1789.92
715.74	1675.24
715.92	1705.96
716.11	1794.02
716.29	1591.27
716.47	1677.29
716.65	1679.33
716.84	1642.47
717.02	1767.40
717.20	1701.86
717.38	1742.82
717.57	1714.15
717.75	1732.58
717.93	1679.33
718.11	1728.49
718.30	1630.18
718.48	1777.64
718.66	1814.50
718.84	1806.31
719.03	1748.97
719.21	1767.40
719.39	1812.45
719.57	1804.26
719.75	1830.88
719.94	1644.52
720.12	1687.53
720.30	1730.53
720.48	1740.77
720.67	1730.53
720.85	1673.19
721.03	1730.53
721.21	1660.90
721.39	1779.68
721.58	1783.78
721.76	1697.77
721.94	1785.83
722.12	1783.78
722.30	1808.36
722.49	1671.14
722.67	1796.07
722.85	1732.58
723.03	1675.24
723.21	1720.29
723.40	1761.25
723.58	1724.39
723.76	1777.64
723.94	1742.82
724.12	1800.16
724.30	1746.92
724.49	1796.07
724.67	1710.05
724.85	1851.36
725.03	1675.24
725.21	1769.44
725.40	1771.49
725.58	1746.92
725.76	1767.40
725.94	1800.16
726.12	1628.14
726.30	1656.81
726.49	1732.58
726.67	1699.81
726.85	1720.29
727.03	1779.68
727.21	2222.05
727.39	2934.74
727.57	3866.56
727.76	4126.66
727.94	4399.04
728.12	4290.49
728.30	3657.67
728.48	2977.75
728.66	2664.41
728.84	2496.47
729.03	2265.05
729.21	2170.85
729.39	2103.26
729.57	1810.40
729.75	1806.31
729.93	1839.08
730.11	1685.48
730.30	1712.10
730.48	1705.96
730.66	1800.16
730.84	1777.64
731.02	1640.42
731.20	1701.86
731.38	1712.10
731.56	1634.28
731.74	1681.38
731.93	1728.49
732.11	1708.01
732.29	1691.62
732.47	1791.97
732.65	1730.53
732.83	1851.36
733.01	1669.09
733.19	1603.56
733.37	1757.16
733.56	1744.87
733.74	1677.29
733.92	1820.64
734.10	1744.87
734.28	1839.08
734.46	1662.95
734.64	1734.63
734.82	1738.73
735.00	1640.42
735.18	1689.57
735.36	1746.92
735.54	1613.80
735.73	1751.01
735.91	1708.01
736.09	1744.87
736.27	1720.29
736.45	1703.91
736.63	1665.00
736.81	1759.21
736.99	1767.40
737.17	1785.83
737.35	1683.43
737.53	1722.34
737.71	1712.10
737.89	1824.74
738.07	1714.15
738.25	1665.00
738.43	1656.81
738.61	1695.72
738.80	1587.18
738.98	1642.47
739.16	1667.05
739.34	1613.80
739.52	1832.93
739.70	1662.95
739.88	1769.44
740.06	1810.40
740.24	1626.09
740.42	1783.78
740.60	1712.10
740.78	1753.06
740.96	1638.38
741.14	1697.77
741.32	1796.07
741.50	1611.75
741.68	1851.36
741.86	1794.02
742.04	1599.46
742.22	1628.14
742.40	1787.88
742.58	1748.97
742.76	1699.81
742.94	1740.77
743.12	1675.24
743.30	1681.38
743.48	1771.49
743.66	1771.49
743.84	1687.53
744.02	1759.21
744.20	1669.09
744.38	1665.00
744.56	1699.81
744.74	1886.18
744.92	1724.39
745.10	1796.07
745.28	1783.78
745.46	1800.16
745.64	1742.82
745.82	1783.78
746.00	1744.87
746.18	1714.15
746.36	1648.61
746.54	1757.16
746.72	1708.01
746.90	1705.96
747.08	1777.64
747.26	1742.82
747.44	1691.62
747.62	1806.31
747.80	1806.31
747.98	1755.11
748.15	1705.96
748.33	1746.92
748.51	1691.62
748.69	1855.46
748.87	1689.57
749.05	1771.49
749.23	1689.57
749.41	1693.67
749.59	1701.86
749.77	1802.21
749.95	1753.06
750.13	1673.19
750.31	1781.73
750.49	1730.53
750.67	1767.40
750.85	1839.08
751.03	1734.63
751.20	1845.22
751.38	1787.88
751.56	1730.53
751.74	1681.38
751.92	1699.81
752.10	1687.53
752.28	1761.25
752.46	1746.92
752.64	1644.52
752.82	1648.61
753.00	1757.16
753.18	1679.33
753.35	1636.33
753.53	1724.39
753.71	1609.70
753.89	1763.30
754.07	1703.91
754.25	1777.64
754.43	1656.81
754.61	1673.19
754.79	1736.68
754.97	1642.47
755.14	1736.68
755.32	1693.67
755.50	1724.39
755.68	1677.29
755.86	1671.14
756.04	1644.52
756.22	1611.75
756.40	1767.40
756.57	1861.60
756.75	1687.53
756.93	1812.45
757.11	1822.69
757.29	1697.77
757.47	1691.62
757.65	1632.23
757.82	1578.98
758.00	1712.10
758.18	1722.34
758.36	1685.48
758.54	1869.80
758.72	1665.00
758.90	1808.36
759.07	1771.49
759.25	1640.42
759.43	1744.87
759.61	1628.14
759.79	2172.89
759.97	1730.53
760.15	1660.90
760.32	1730.53
760.50	1748.97
760.68	1894.37
760.86	1722.34
761.04	1830.88
761.22	1808.36
761.39	1691.62
761.57	1789.92
761.75	1724.39
761.93	1746.92
762.11	1757.16
762.28	1742.82
762.46	1685.48
762.64	1806.31
762.82	1589.22
763.00	1769.44
763.18	1845.22
763.35	1720.29
763.53	1720.29
763.71	1681.38
763.89	1791.97
764.07	1730.53
764.24	1761.25
764.42	1818.60
764.60	1744.87
764.78	1755.11
764.96	1689.57
765.13	1785.83
765.31	1746.92
765.49	1765.35
765.67	1624.04
765.84	1720.29
766.02	1609.70
766.20	1681.38
766.38	1748.97
766.56	1740.77
766.73	1746.92
766.91	1701.86
767.09	1710.05
767.27	1769.44
767.44	1656.81
767.62	1781.73
767.80	1724.39
767.98	1679.33
768.15	1746.92
768.33	1740.77
768.51	1755.11
768.69	1722.34
768.87	1734.63
769.04	1705.96
769.22	1802.21
769.40	1742.82
769.58	1959.91
769.75	1687.53
769.93	1765.35
770.11	1718.25
770.28	1712.10
770.46	1744.87
770.64	1734.63
770.82	1693.67
770.99	1687.53
771.17	1763.30
771.35	1681.38
771.53	1685.48
771.70	1746.92
771.88	1695.72
772.06	1734.63
772.23	1644.52
772.41	1732.58
772.59	1626.09
772.77	1720.29
772.94	1779.68
773.12	1722.34
773.30	1669.09
773.47	1650.66
773.65	1630.18
773.83	1816.55
774.01	1710.05
774.18	1611.75
774.36	1734.63
774.54	1658.85
774.71	1763.30
774.89	1621.99
775.07	1656.81
775.24	1624.04
775.42	1671.14
775.60	1806.31
775.78	1716.20
775.95	1703.91
776.13	1658.85
776.31	1615.85
776.48	1718.25
776.66	1734.63
776.84	1726.44
777.01	1728.49
777.19	1673.19
777.37	1736.68
777.54	1716.20
777.72	1839.08
777.90	1748.97
778.07	1683.43
778.25	1957.86
778.43	1781.73
778.60	1638.38
778.78	1744.87
778.96	1796.07
779.13	1685.48
779.31	1765.35
779.49	1699.81
779.66	1722.34
779.84	1691.62
780.01	1796.07
780.19	1685.48
780.37	1785.83
780.54	1789.92
780.72	1640.42
780.90	1712.10
781.07	1742.82
781.25	1660.90
781.43	1755.11
781.60	1689.57
781.78	1837.03
781.95	1796.07
782.13	1732.58
782.31	1693.67
782.48	1626.09
782.66	1755.11
782.83	1816.55
783.01	1726.44
783.19	1794.02
783.36	1740.77
783.54	1673.19
783.72	1787.88
783.89	1710.05
784.07	1775.59
784.24	1703.91
784.42	1808.36
784.60	1759.21
784.77	1781.73
784.95	1687.53
785.12	1718.25
785.30	1693.67
785.47	1722.34
785.65	1650.66
785.83	1705.96
786.00	1693.67
786.18	1683.43
786.35	1732.58
786.53	1665.00
786.71	1738.73
786.88	1732.58
787.06	1679.33
787.23	1710.05
787.41	1669.09
787.58	1740.77
787.76	1695.72
787.94	1763.30
788.11	1714.15
788.29	1601.51
788.46	1644.52
788.64	1617.90
788.81	1710.05
788.99	1667.05
789.16	1705.96
789.34	1742.82
789.52	1679.33
789.69	1771.49
789.87	1574.89
790.04	1730.53
790.22	1755.11
790.39	1859.56
790.57	1701.86
790.74	1566.70
790.92	1767.40
791.09	1574.89
791.27	1714.15
791.44	1746.92
791.62	1732.58
791.79	1812.45
791.97	1738.73
792.15	1914.85
792.32	1769.44
792.50	1814.50
792.67	1746.92
792.85	1757.16
793.02	1736.68
793.20	1763.30
793.37	1615.85
793.55	1751.01
793.72	1705.96
793.90	1734.63
794.07	1650.66
794.25	1681.38
794.42	1728.49
794.60	1708.01
794.77	1724.39
794.95	1742.82
795.12	1714.15
795.30	1714.15
795.47	1718.25
795.65	1910.75
795.82	1734.63
796.00	1603.56
796.17	1656.81
796.34	1673.19
796.52	1685.48
796.69	1753.06
796.87	1767.40
797.04	1746.92
797.22	1789.92
797.39	1699.81
797.57	1738.73
797.74	1681.38
797.92	1738.73
798.09	1677.29
798.27	1794.02
798.44	1738.73
798.62	1646.57
798.79	1796.07
798.96	1742.82
799.14	1693.67
799.31	1918.95
799.49	1683.43
799.66	1677.29
799.84	1771.49
800.01	1634.28
800.19	1751.01
800.36	1642.47
800.53	1769.44
800.71	1753.06
800.88	1875.94
801.06	1679.33
801.23	1718.25
801.41	1755.11
801.58	1722.34
801.75	1624.04
801.93	1755.11
802.10	1691.62
802.28	1732.58
802.45	1748.97
802.63	1789.92
802.80	1845.22
802.97	1691.62
803.15	1714.15
803.32	1689.57
803.50	1673.19
803.67	1675.24
803.84	1613.80
804.02	1765.35
804.19	1701.86
804.37	1558.50
804.54	1632.23
804.71	1685.48
804.89	1720.29
805.06	1626.09
805.24	1720.29
805.41	1671.14
805.58	1716.20
805.76	1863.65
805.93	1699.81
806.10	1845.22
806.28	1759.21
806.45	1757.16
806.63	1687.53
806.80	1779.68
806.97	1738.73
807.15	1665.00
807.32	1693.67
807.49	1693.67
807.67	1648.61
807.84	1794.02
808.01	1619.94
808.19	1900.52
808.36	1912.80
808.54	1669.09
808.71	1638.38
808.88	1658.85
809.06	1769.44
809.23	1789.92
809.40	1667.05
809.58	1734.63
809.75	1654.76
809.92	1683.43
810.10	1894.37
810.27	1685.48
810.44	1767.40
810.62	1726.44
810.79	1759.21
810.96	1755.11
811.14	1644.52
811.31	1738.73
811.48	1783.78
811.66	1716.20
811.83	1818.60
812.00	1755.11
812.18	1769.44
812.35	1777.64
812.52	1710.05
812.69	1722.34
812.87	1630.18
813.04	1697.77
813.21	1761.25
813.39	1705.96
813.56	1701.86
813.73	1722.34
813.91	1746.92
814.08	1724.39
814.25	1693.67
814.42	1611.75
814.60	1718.25
814.77	1718.25
814.94	1630.18
815.12	1689.57
815.29	1789.92
815.46	1681.38
815.63	1779.68
815.81	1671.14
815.98	1642.47
816.15	1755.11
816.33	1744.87
816.50	1714.15
816.67	1804.26
816.84	1796.07
817.02	1591.27
817.19	1677.29
817.36	1683.43
817.53	1675.24
817.71	1718.25
817.88	1789.92
818.05	1775.59
818.22	1712.10
818.40	1808.36
818.57	1646.57
818.74	1697.77
818.91	1736.68
819.09	1687.53
819.26	1810.40
819.43	1611.75
819.60	1673.19
819.78	1755.11
819.95	1767.40
820.12	1673.19
820.29	1779.68
820.47	1837.03
820.64	1656.81
820.81	1667.05
820.98	1724.39
821.15	1708.01
821.33	1820.64
821.50	1601.51
821.67	1769.44
821.84	1617.90
822.02	1726.44
822.19	1763.30
822.36	1722.34
822.53	1665.00
822.70	1685.48
822.88	1806.31
823.05	1810.40
823.22	1652.71
823.39	1767.40
823.56	1724.39
823.74	1812.45
823.91	1689.57
824.08	1687.53
824.25	1671.14
824.42	1753.06
824.60	1646.57
824.77	1789.92
824.94	1753.06
825.11	1732.58
825.28	1675.24
825.45	1703.91
825.63	1714.15
825.80	1654.76
825.97	1751.01
826.14	1656.81
826.31	1566.70
826.48	1710.05
826.66	1693.67
826.83	1669.09
827.00	1738.73
827.17	1640.42
827.34	1669.09
827.51	1677.29
827.69	1689.57
827.86	1712.10
828.03	1722.34
828.20	1697.77
828.37	1705.96
828.54	1765.35
828.71	1761.25
828.89	1796.07
829.06	1759.21
829.23	1810.40
829.40	1636.33
829.57	1665.00
829.74	1789.92
829.91	1675.24
830.09	1728.49
830.26	1783.78
830.43	1787.88
830.60	1673.19
830.77	1828.84
830.94	1798.12
831.11	1736.68
831.28	1740.77
831.46	1789.92
831.63	1763.30
831.80	1757.16
831.97	1693.67
832.14	1652.71
832.31	1789.92
832.48	1691.62
832.65	1832.93
832.82	1736.68
832.99	1671.14
833.17	1677.29
833.34	1802.21
833.51	1855.46
833.68	1572.84
833.85	1744.87
834.02	1646.57
834.19	1701.86
834.36	1699.81
834.53	1687.53
834.70	1755.11
834.87	1816.55
835.04	1730.53
835.22	1630.18
835.39	1689.57
835.56	1583.08
835.73	1658.85
835.90	1763.30
836.07	1671.14
836.24	1814.50
836.41	1708.01
836.58	1671.14
836.75	1742.82
836.92	1781.73
837.09	1701.86
837.26	1656.81
837.43	1746.92
837.60	1771.49
837.77	1589.22
837.94	1746.92
838.12	1822.69
838.29	1705.96
838.46	1712.10
838.63	1642.47
838.80	1755.11
838.97	1828.84
839.14	1769.44
839.31	1742.82
839.48	1671.14
839.65	1679.33
839.82	1824.74
839.99	1665.00
840.16	1726.44
840.33	1738.73
840.50	1753.06
840.67	1679.33
840.84	1595.37
841.01	1791.97
841.18	1665.00
841.35	1652.71
841.52	1828.84
841.69	1769.44
841.86	1746.92
842.03	1742.82
842.20	1773.54
842.37	1648.61
842.54	1771.49
842.71	1671.14
842.88	1667.05
843.05	1724.39
843.22	1685.48
843.39	1728.49
843.56	1693.67
843.73	1701.86
843.90	1787.88
844.07	1773.54
844.24	1748.97
844.41	1761.25
844.58	1691.62
844.75	1681.38
844.92	1736.68
845.09	1685.48
845.26	1697.77
845.43	1820.64
845.60	1673.19
845.77	1810.40
845.94	1777.64
846.10	1818.60
846.27	1716.20
846.44	1636.33
846.61	1738.73
846.78	1710.05
846.95	1748.97
847.12	1648.61
847.29	1681.38
847.46	1728.49
847.63	1773.54
847.80	1617.90
847.97	1691.62
848.14	1890.28
848.31	1779.68
848.48	1611.75
848.65	1771.49
848.82	1615.85
848.98	1812.45
849.15	1732.58
849.32	1816.55
849.49	1783.78
849.66	1736.68
849.83	1654.76
850.00	1665.00
850.17	1834.98
850.34	1710.05
850.51	1710.05
850.68	1740.77
850.85	1816.55
851.01	1634.28
851.18	1685.48
851.35	1718.25
851.52	1785.83
851.69	1845.22
851.86	1689.57
852.03	1734.63
852.20	1712.10
852.37	1757.16
852.53	1642.47
852.70	1730.53
852.87	1720.29
853.04	1763.30
853.21	1697.77
853.38	1736.68
853.55	1832.93
853.72	1834.98
853.89	1636.33
854.05	1714.15
854.22	1763.30
854.39	1722.34
854.56	1730.53
854.73	1701.86
854.90	1757.16
855.07	1642.47
855.23	1660.90
855.40	1654.76
855.57	1669.09
855.74	1669.09
855.91	1867.75
856.08	1640.42
856.25	1572.84
856.41	1650.66
856.58	1755.11
856.75	1808.36
856.92	1689.57
857.09	1748.97
857.26	1621.99
857.42	1685.48
857.59	1757.16
857.76	1695.72
857.93	1703.91
858.10	1736.68
858.27	1675.24
858.43	1689.57
858.60	1710.05
858.77	1624.04
858.94	1734.63
859.11	1701.86
859.27	1673.19
859.44	1814.50
859.61	1789.92
859.78	1724.39
859.95	1701.86
860.12	1699.81
860.28	1800.16
860.45	1832.93
860.62	1708.01
860.79	1716.20
860.95	1746.92
861.12	1677.29
861.29	1701.86
861.46	1691.62
861.63	1603.56
861.79	1716.20
861.96	1685.48
862.13	1691.62
862.30	1798.12
862.47	1665.00
862.63	1665.00
862.80	1746.92
862.97	1775.59
863.14	1769.44
863.30	1779.68
863.47	1718.25
863.64	1726.44
863.81	1781.73
863.97	1658.85
864.14	1673.19
864.31	1701.86
864.48	1751.01
864.65	1683.43
864.81	1728.49
864.98	1812.45
865.15	1689.57
865.32	1814.50
865.48	1773.54
865.65	1812.45
865.82	1726.44
865.98	1789.92
866.15	1746.92
866.32	1712.10
866.49	1697.77
866.65	1775.59
866.82	1689.57
866.99	1720.29
867.16	1708.01
867.32	1658.85
867.49	1648.61
867.66	1783.78
867.83	1665.00
867.99	1650.66
868.16	1665.00
868.33	1617.90
868.49	1722.34
868.66	1716.20
868.83	1738.73
868.99	1789.92
869.16	1701.86
869.33	1785.83
869.50	1732.58
869.66	1761.25
869.83	1671.14
870.00	1654.76
870.16	1796.07
870.33	1734.63
870.50	1742.82
870.66	1761.25
870.83	1863.65
871.00	1767.40
871.17	1769.44
871.33	1746.92
871.50	1734.63
871.67	1646.57
871.83	1632.23
872.00	1832.93
872.17	1650.66
872.33	1738.73
872.50	1808.36
872.67	1697.77
872.83	1726.44
873.00	1794.02
873.17	1814.50
873.33	1789.92
873.50	1718.25
873.67	1697.77
873.83	1695.72
874.00	1746.92
874.16	1800.16
874.33	1751.01
874.50	1761.25
874.66	1769.44
874.83	1689.57
875.00	1816.55
875.16	1744.87
875.33	1785.83
875.50	1632.23
875.66	1634.28
875.83	1705.96
875.99	1800.16
876.16	1722.34
876.33	1693.67
876.49	1705.96
876.66	1728.49
876.83	1689.57
876.99	1679.33
877.16	1693.67
877.32	1695.72
877.49	1685.48
877.66	1759.21
877.82	1783.78
877.99	1710.05
878.15	1855.46
878.32	1724.39
878.49	1728.49
878.65	1720.29
878.82	1789.92
878.98	1691.62
879.15	1746.92
879.32	1742.82
879.48	1718.25
879.65	1703.91
879.81	1738.73
879.98	1738.73
880.15	1689.57
880.31	1736.68
880.48	1652.71
880.64	1773.54
880.81	1710.05
880.97	1755.11
881.14	1785.83
881.31	1646.57
881.47	1843.17
881.64	1738.73
881.80	1648.61
881.97	1759.21
882.13	1796.07
882.30	1665.00
882.47	1654.76
882.63	1708.01
882.80	1751.01
882.96	1697.77
883.13	1775.59
883.29	1712.10
883.46	1734.63
883.62	1851.36
883.79	1708.01
883.95	1677.29
884.12	1699.81
884.29	1777.64
884.45	1742.82
884.62	1800.16
884.78	1720.29
884.95	1837.03
885.11	1691.62
885.28	1718.25
885.44	1597.42
885.61	1728.49
885.77	1753.06
885.94	1812.45
886.10	1693.67
886.27	1744.87
886.43	1761.25
886.60	1800.16
886.76	1583.08
886.93	1699.81
887.09	1697.77
887.26	1636.33
887.42	1677.29
887.59	1787.88
887.75	1822.69
887.92	1734.63
888.08	1751.01
888.25	1775.59
888.41	1734.63
888.58	1775.59
888.74	1740.77
888.91	1654.76
>>>>>End Processed Spectral Data<<<<<
