SpectraSuite Data File
++++++++++++++++++++++++++++++++++++
Date: Mon Jun 06 17:14:17 CEST 2016
User: root
Dark Spectrum Present: No
Reference Spectrum Present: No
Number of Sampled Component Spectra: 1
Spectrometers: USB4C02835
Integration Time (usec): 100000 (USB4C02835)
Spectra Averaged: 1 (USB4C02835)
Boxcar Smoothing: 0 (USB4C02835)
Correct for Electrical Dark: No (USB4C02835)
Strobe/Lamp Enabled: No (USB4C02835)
Correct for Detector Non-linearity: No (USB4C02835)
Correct for Stray Light: No (USB4C02835)
Number of Pixels in Processed Spectrum: 3648
>>>>>Begin Processed Spectral Data<<<<<
177.47	1484.78
177.69	1484.78
177.91	1484.78
178.13	1488.87
178.36	1456.11
178.58	1652.71
178.80	1714.15
179.02	1640.42
179.24	1708.01
179.46	1738.73
179.68	1732.58
179.90	1701.86
180.13	1736.68
180.35	1636.33
180.57	1630.18
180.79	1751.01
181.01	1705.96
181.23	1759.21
181.45	1767.40
181.67	1763.30
181.90	1746.92
182.12	1701.86
182.34	1562.60
182.56	1699.81
182.78	1751.01
183.00	1693.67
183.22	1738.73
183.44	1603.56
183.66	1822.69
183.89	1818.60
184.11	1669.09
184.33	1730.53
184.55	1767.40
184.77	1689.57
184.99	1791.97
185.21	1669.09
185.43	1847.27
185.65	1667.05
185.87	1744.87
186.10	1834.98
186.32	1886.18
186.54	1732.58
186.76	1761.25
186.98	1689.57
187.20	1722.34
187.42	1626.09
187.64	1695.72
187.86	1726.44
188.08	1771.49
188.30	1654.76
188.52	1689.57
188.75	1810.40
188.97	1757.16
189.19	1734.63
189.41	1683.43
189.63	1710.05
189.85	1650.66
190.07	1636.33
190.29	1677.29
190.51	1734.63
190.73	1634.28
190.95	1802.21
191.17	1730.53
191.39	1587.18
191.61	1679.33
191.84	1728.49
192.06	1732.58
192.28	1695.72
192.50	1982.43
192.72	1722.34
192.94	1730.53
193.16	1691.62
193.38	1648.61
193.60	1617.90
193.82	1761.25
194.04	1736.68
194.26	1695.72
194.48	1718.25
194.70	1691.62
194.92	1718.25
195.14	1798.12
195.36	1652.71
195.58	1703.91
195.80	1644.52
196.02	1687.53
196.24	1736.68
196.46	1718.25
196.69	1662.95
196.91	1908.71
197.13	1689.57
197.35	1728.49
197.57	1669.09
197.79	1730.53
198.01	1697.77
198.23	1806.31
198.45	1757.16
198.67	1640.42
198.89	1705.96
199.11	1718.25
199.33	1642.47
199.55	1564.65
199.77	1703.91
199.99	1755.11
200.21	1576.94
200.43	1697.77
200.65	1617.90
200.87	1558.50
201.09	1662.95
201.31	1658.85
201.53	1763.30
201.75	1779.68
201.97	1744.87
202.19	1724.39
202.41	1755.11
202.63	1845.22
202.85	1695.72
203.07	1703.91
203.29	1685.48
203.51	1732.58
203.73	1746.92
203.95	1820.64
204.17	1673.19
204.39	1679.33
204.61	1714.15
204.83	1697.77
205.05	1771.49
205.27	1810.40
205.49	1796.07
205.71	1613.80
205.93	1642.47
206.15	1652.71
206.37	1783.78
206.59	1796.07
206.81	1646.57
207.03	1738.73
207.25	1613.80
207.47	1718.25
207.69	1701.86
207.91	1763.30
208.13	1753.06
208.34	1683.43
208.56	1689.57
208.78	1769.44
209.00	1753.06
209.22	1763.30
209.44	1683.43
209.66	1632.23
209.88	1779.68
210.10	1662.95
210.32	1734.63
210.54	1804.26
210.76	1775.59
210.98	1806.31
211.20	1564.65
211.42	1701.86
211.64	1810.40
211.86	1765.35
212.08	1777.64
212.30	1740.77
212.52	1718.25
212.74	1693.67
212.96	1759.21
213.17	1744.87
213.39	1738.73
213.61	1724.39
213.83	1748.97
214.05	1636.33
214.27	1681.38
214.49	1681.38
214.71	1650.66
214.93	1787.88
215.15	1681.38
215.37	1736.68
215.59	1640.42
215.81	1718.25
216.03	1746.92
216.24	1742.82
216.46	1695.72
216.68	1701.86
216.90	1763.30
217.12	1742.82
217.34	1636.33
217.56	1722.34
217.78	1847.27
218.00	1787.88
218.22	1630.18
218.44	1679.33
218.66	1724.39
218.87	1767.40
219.09	1669.09
219.31	1732.58
219.53	1720.29
219.75	1648.61
219.97	1677.29
220.19	1746.92
220.41	1673.19
220.63	1814.50
220.85	1724.39
221.06	1675.24
221.28	1767.40
221.50	1673.19
221.72	1654.76
221.94	1732.58
222.16	1679.33
222.38	1789.92
222.60	1687.53
222.82	1783.78
223.03	1775.59
223.25	1712.10
223.47	1693.67
223.69	1806.31
223.91	1738.73
224.13	1681.38
224.35	1646.57
224.57	1765.35
224.78	1724.39
225.00	1712.10
225.22	1722.34
225.44	1765.35
225.66	1773.54
225.88	1662.95
226.10	1787.88
226.32	1716.20
226.53	1804.26
226.75	1681.38
226.97	1744.87
227.19	1697.77
227.41	1591.27
227.63	1714.15
227.85	1650.66
228.06	1761.25
228.28	1771.49
228.50	1757.16
228.72	1615.85
228.94	1691.62
229.16	1648.61
229.37	1689.57
229.59	1634.28
229.81	1771.49
230.03	1634.28
230.25	1646.57
230.47	1615.85
230.69	1703.91
230.90	1753.06
231.12	1624.04
231.34	1730.53
231.56	1742.82
231.78	1689.57
232.00	1730.53
232.21	1744.87
232.43	1667.05
232.65	1611.75
232.87	1689.57
233.09	1624.04
233.30	1681.38
233.52	1755.11
233.74	1728.49
233.96	1757.16
234.18	1701.86
234.40	1673.19
234.61	1826.79
234.83	1673.19
235.05	1599.46
235.27	1882.08
235.49	1845.22
235.70	1734.63
235.92	1771.49
236.14	1662.95
236.36	1886.18
236.58	1611.75
236.79	1779.68
237.01	1732.58
237.23	1744.87
237.45	1853.41
237.67	1665.00
237.88	1679.33
238.10	1845.22
238.32	1703.91
238.54	1710.05
238.76	1650.66
238.97	1683.43
239.19	1634.28
239.41	1781.73
239.63	1701.86
239.85	1648.61
240.06	1691.62
240.28	1646.57
240.50	1683.43
240.72	1675.24
240.93	1703.91
241.15	1765.35
241.37	1677.29
241.59	1824.74
241.81	1693.67
242.02	1658.85
242.24	1726.44
242.46	1757.16
242.68	1640.42
242.89	1730.53
243.11	1771.49
243.33	1611.75
243.55	1714.15
243.76	1634.28
243.98	1693.67
244.20	1683.43
244.42	1665.00
244.64	1728.49
244.85	1775.59
245.07	1613.80
245.29	1679.33
245.51	1689.57
245.72	1669.09
245.94	1820.64
246.16	1722.34
246.38	1720.29
246.59	1714.15
246.81	1662.95
247.03	1726.44
247.24	1626.09
247.46	1679.33
247.68	1701.86
247.90	1699.81
248.11	1708.01
248.33	1748.97
248.55	1665.00
248.77	1687.53
248.98	1781.73
249.20	1755.11
249.42	1728.49
249.64	1734.63
249.85	1791.97
250.07	1703.91
250.29	1710.05
250.50	1822.69
250.72	1636.33
250.94	1710.05
251.16	1787.88
251.37	1701.86
251.59	1791.97
251.81	1751.01
252.02	1783.78
252.24	1650.66
252.46	1753.06
252.68	1660.90
252.89	1748.97
253.11	1568.74
253.33	1732.58
253.54	1779.68
253.76	1601.51
253.98	1691.62
254.20	1683.43
254.41	1665.00
254.63	1722.34
254.85	1679.33
255.06	1703.91
255.28	1710.05
255.50	1695.72
255.71	1701.86
255.93	1613.80
256.15	1703.91
256.36	1751.01
256.58	1638.38
256.80	1730.53
257.02	1695.72
257.23	1740.77
257.45	1734.63
257.67	1746.92
257.88	1669.09
258.10	1751.01
258.32	1693.67
258.53	1708.01
258.75	1763.30
258.97	1667.05
259.18	1742.82
259.40	1687.53
259.62	1787.88
259.83	1761.25
260.05	1722.34
260.27	1828.84
260.48	1828.84
260.70	1716.20
260.92	1656.81
261.13	1716.20
261.35	1757.16
261.57	1710.05
261.78	1632.23
262.00	1593.32
262.22	1746.92
262.43	1691.62
262.65	1718.25
262.86	1701.86
263.08	1841.12
263.30	1753.06
263.51	1705.96
263.73	1687.53
263.95	1712.10
264.16	1689.57
264.38	1599.46
264.60	1642.47
264.81	1640.42
265.03	1826.79
265.25	1757.16
265.46	1703.91
265.68	1779.68
265.89	1685.48
266.11	1638.38
266.33	1773.54
266.54	1742.82
266.76	1755.11
266.98	1728.49
267.19	1849.32
267.41	1796.07
267.62	1705.96
267.84	1656.81
268.06	1757.16
268.27	1740.77
268.49	1843.17
268.70	1757.16
268.92	1695.72
269.14	1636.33
269.35	1638.38
269.57	1697.77
269.79	1763.30
270.00	1687.53
270.22	1824.74
270.43	1667.05
270.65	1693.67
270.87	1714.15
271.08	1779.68
271.30	1724.39
271.51	1675.24
271.73	1761.25
271.95	1808.36
272.16	1718.25
272.38	1722.34
272.59	1720.29
272.81	1730.53
273.02	1755.11
273.24	1714.15
273.46	1779.68
273.67	1681.38
273.89	1667.05
274.10	1628.14
274.32	1822.69
274.54	1718.25
274.75	1796.07
274.97	1658.85
275.18	1744.87
275.40	1691.62
275.61	1759.21
275.83	1761.25
276.05	1714.15
276.26	1767.40
276.48	1757.16
276.69	1763.30
276.91	1650.66
277.12	1789.92
277.34	1748.97
277.55	1738.73
277.77	1660.90
277.99	1683.43
278.20	1667.05
278.42	1660.90
278.63	1658.85
278.85	1691.62
279.06	1626.09
279.28	1771.49
279.49	1734.63
279.71	1824.74
279.93	1722.34
280.14	1648.61
280.36	1699.81
280.57	1785.83
280.79	1740.77
281.00	1669.09
281.22	1685.48
281.43	1818.60
281.65	1624.04
281.86	1738.73
282.08	1763.30
282.29	1720.29
282.51	1656.81
282.73	1617.90
282.94	1640.42
283.16	1728.49
283.37	1873.89
283.59	1742.82
283.80	1814.50
284.02	1665.00
284.23	1712.10
284.45	1685.48
284.66	1736.68
284.88	1673.19
285.09	1720.29
285.31	1757.16
285.52	1691.62
285.74	1640.42
285.95	1730.53
286.17	1734.63
286.38	1748.97
286.60	1621.99
286.81	1751.01
287.03	1779.68
287.24	1720.29
287.46	1732.58
287.67	1693.67
287.89	1837.03
288.10	1753.06
288.32	1718.25
288.53	1818.60
288.75	1714.15
288.96	1742.82
289.18	1712.10
289.39	1648.61
289.61	1806.31
289.82	1865.70
290.04	1843.17
290.25	1591.27
290.47	1736.68
290.68	1755.11
290.90	1828.84
291.11	1660.90
291.33	1789.92
291.54	1591.27
291.76	1656.81
291.97	1650.66
292.18	1769.44
292.40	1701.86
292.61	1665.00
292.83	1871.84
293.04	1728.49
293.26	1644.52
293.47	1679.33
293.69	1679.33
293.90	1677.29
294.12	1808.36
294.33	1675.24
294.55	1648.61
294.76	1775.59
294.97	1806.31
295.19	1800.16
295.40	1665.00
295.62	1732.58
295.83	1755.11
296.05	1642.47
296.26	1761.25
296.48	1658.85
296.69	1714.15
296.90	1710.05
297.12	1804.26
297.33	1804.26
297.55	1712.10
297.76	1685.48
297.98	1763.30
298.19	1748.97
298.41	1650.66
298.62	1685.48
298.83	1753.06
299.05	1710.05
299.26	1613.80
299.48	1730.53
299.69	1791.97
299.90	1705.96
300.12	1724.39
300.33	1697.77
300.55	1746.92
300.76	1765.35
300.98	1603.56
301.19	1701.86
301.40	1669.09
301.62	1671.14
301.83	1740.77
302.05	1683.43
302.26	1769.44
302.47	1724.39
302.69	1697.77
302.90	1693.67
303.12	1540.07
303.33	1755.11
303.54	1810.40
303.76	1689.57
303.97	1708.01
304.19	1812.45
304.40	1650.66
304.61	1734.63
304.83	1798.12
305.04	1828.84
305.26	1720.29
305.47	1667.05
305.68	1724.39
305.90	1714.15
306.11	1755.11
306.33	1642.47
306.54	1650.66
306.75	1656.81
306.97	1554.41
307.18	1628.14
307.39	1693.67
307.61	1757.16
307.82	1687.53
308.04	1646.57
308.25	1728.49
308.46	1738.73
308.68	1695.72
308.89	1732.58
309.10	1734.63
309.32	1791.97
309.53	1660.90
309.74	1771.49
309.96	1681.38
310.17	1771.49
310.39	1730.53
310.60	1689.57
310.81	1847.27
311.03	1677.29
311.24	1779.68
311.45	1683.43
311.67	1859.56
311.88	1781.73
312.09	1673.19
312.31	1640.42
312.52	1685.48
312.73	1701.86
312.95	1665.00
313.16	1669.09
313.37	1814.50
313.59	1769.44
313.80	1746.92
314.01	1812.45
314.23	1693.67
314.44	1607.66
314.65	1673.19
314.87	1683.43
315.08	1660.90
315.29	1777.64
315.51	1638.38
315.72	1603.56
315.93	1853.41
316.15	1751.01
316.36	1646.57
316.57	1736.68
316.79	1759.21
317.00	1646.57
317.21	1753.06
317.43	1675.24
317.64	1636.33
317.85	1667.05
318.07	1665.00
318.28	1701.86
318.49	1800.16
318.70	1888.23
318.92	1814.50
319.13	1798.12
319.34	1861.60
319.56	1834.98
319.77	1757.16
319.98	1832.93
320.20	1812.45
320.41	1789.92
320.62	1753.06
320.83	1646.57
321.05	1839.08
321.26	1736.68
321.47	1787.88
321.69	1703.91
321.90	1691.62
322.11	1689.57
322.32	1687.53
322.54	1841.12
322.75	1695.72
322.96	1853.41
323.18	1662.95
323.39	1642.47
323.60	1669.09
323.81	1705.96
324.03	1675.24
324.24	1621.99
324.45	1652.71
324.66	1675.24
324.88	1738.73
325.09	1765.35
325.30	1742.82
325.52	1755.11
325.73	1744.87
325.94	1628.14
326.15	1681.38
326.37	1671.14
326.58	1763.30
326.79	1935.33
327.00	1634.28
327.22	1697.77
327.43	1648.61
327.64	1705.96
327.85	1742.82
328.07	1714.15
328.28	1761.25
328.49	1701.86
328.70	1656.81
328.92	1710.05
329.13	1673.19
329.34	1753.06
329.55	1767.40
329.76	1812.45
329.98	1775.59
330.19	1732.58
330.40	1650.66
330.61	1724.39
330.83	1726.44
331.04	1648.61
331.25	1724.39
331.46	1746.92
331.68	1632.23
331.89	1716.20
332.10	1640.42
332.31	1593.32
332.52	1685.48
332.74	1828.84
332.95	1568.74
333.16	1679.33
333.37	1806.31
333.58	1648.61
333.80	1830.88
334.01	1642.47
334.22	1648.61
334.43	1683.43
334.64	1660.90
334.86	1581.03
335.07	1667.05
335.28	1761.25
335.49	1603.56
335.70	1755.11
335.92	1834.98
336.13	1765.35
336.34	1771.49
336.55	1697.77
336.76	1703.91
336.98	1603.56
337.19	1712.10
337.40	1787.88
337.61	1892.32
337.82	1615.85
338.04	1769.44
338.25	1660.90
338.46	1646.57
338.67	1689.57
338.88	1669.09
339.09	1652.71
339.31	1683.43
339.52	1699.81
339.73	1662.95
339.94	1681.38
340.15	1730.53
340.36	1699.81
340.58	1681.38
340.79	1710.05
341.00	1767.40
341.21	1703.91
341.42	1820.64
341.63	1738.73
341.85	1648.61
342.06	1658.85
342.27	1708.01
342.48	1787.88
342.69	1599.46
342.90	1708.01
343.12	1730.53
343.33	1699.81
343.54	1728.49
343.75	1783.78
343.96	1751.01
344.17	1650.66
344.38	1722.34
344.60	1675.24
344.81	1617.90
345.02	1636.33
345.23	1734.63
345.44	1828.84
345.65	1798.12
345.86	1746.92
346.07	1673.19
346.29	1697.77
346.50	1693.67
346.71	1779.68
346.92	1785.83
347.13	1755.11
347.34	1615.85
347.55	1697.77
347.76	1781.73
347.98	1646.57
348.19	1613.80
348.40	1761.25
348.61	1683.43
348.82	1742.82
349.03	1767.40
349.24	1693.67
349.45	1779.68
349.66	1589.22
349.88	1718.25
350.09	1693.67
350.30	1785.83
350.51	1824.74
350.72	1722.34
350.93	1734.63
351.14	1730.53
351.35	1728.49
351.56	1763.30
351.77	1699.81
351.99	1789.92
352.20	1804.26
352.41	1804.26
352.62	1656.81
352.83	1705.96
353.04	1781.73
353.25	1681.38
353.46	1757.16
353.67	1800.16
353.88	1601.51
354.09	1748.97
354.30	1718.25
354.52	1767.40
354.73	1718.25
354.94	1677.29
355.15	1703.91
355.36	1841.12
355.57	1628.14
355.78	1812.45
355.99	1683.43
356.20	1675.24
356.41	1777.64
356.62	1732.58
356.83	1656.81
357.04	1773.54
357.25	1566.70
357.46	1681.38
357.68	1550.31
357.89	1728.49
358.10	1708.01
358.31	1781.73
358.52	1730.53
358.73	1656.81
358.94	1624.04
359.15	1665.00
359.36	1798.12
359.57	1726.44
359.78	1708.01
359.99	1861.60
360.20	1660.90
360.41	1718.25
360.62	1699.81
360.83	1763.30
361.04	1728.49
361.25	1732.58
361.46	1800.16
361.67	1755.11
361.88	1785.83
362.09	1763.30
362.30	1738.73
362.51	1720.29
362.72	1763.30
362.93	1769.44
363.14	1724.39
363.35	1722.34
363.56	1621.99
363.78	1742.82
363.99	1665.00
364.20	1646.57
364.41	1724.39
364.62	1800.16
364.83	1755.11
365.04	1728.49
365.25	1640.42
365.46	1845.22
365.67	1640.42
365.88	1611.75
366.09	1712.10
366.30	1824.74
366.51	1751.01
366.72	1722.34
366.93	1746.92
367.14	1695.72
367.35	1822.69
367.56	1753.06
367.77	1734.63
367.98	1656.81
368.18	1746.92
368.39	1763.30
368.60	1638.38
368.81	1771.49
369.02	1722.34
369.23	1632.23
369.44	1634.28
369.65	1615.85
369.86	1757.16
370.07	1869.80
370.28	1708.01
370.49	1763.30
370.70	1800.16
370.91	1693.67
371.12	1624.04
371.33	1804.26
371.54	1699.81
371.75	1744.87
371.96	1611.75
372.17	1738.73
372.38	1738.73
372.59	1816.55
372.80	1685.48
373.01	1671.14
373.22	1728.49
373.43	1650.66
373.64	1667.05
373.85	1751.01
374.06	1826.79
374.26	1710.05
374.47	1736.68
374.68	1800.16
374.89	1767.40
375.10	1746.92
375.31	1757.16
375.52	1726.44
375.73	1718.25
375.94	1691.62
376.15	1798.12
376.36	1691.62
376.57	1693.67
376.78	1609.70
376.99	1689.57
377.20	1791.97
377.40	1734.63
377.61	1857.51
377.82	1736.68
378.03	1785.83
378.24	1744.87
378.45	1775.59
378.66	1775.59
378.87	1593.32
379.08	1550.31
379.29	1615.85
379.50	1794.02
379.71	1722.34
379.91	1806.31
380.12	1685.48
380.33	1701.86
380.54	1665.00
380.75	1708.01
380.96	1693.67
381.17	1773.54
381.38	1732.58
381.59	1808.36
381.80	1742.82
382.00	1888.23
382.21	1736.68
382.42	1755.11
382.63	1935.33
382.84	1736.68
383.05	1816.55
383.26	1894.37
383.47	1773.54
383.68	1818.60
383.88	1703.91
384.09	1783.78
384.30	1787.88
384.51	1738.73
384.72	1691.62
384.93	1677.29
385.14	1701.86
385.35	1812.45
385.55	1591.27
385.76	1814.50
385.97	1685.48
386.18	1738.73
386.39	1652.71
386.60	1613.80
386.81	1710.05
387.02	1740.77
387.22	1714.15
387.43	1755.11
387.64	1791.97
387.85	1912.80
388.06	2136.03
388.27	4245.44
388.48	6801.30
388.68	8120.20
388.89	9492.34
389.10	9639.79
389.31	8550.27
389.52	7509.90
389.73	6655.90
389.93	6104.99
390.14	5805.99
390.35	5261.23
390.56	4528.06
390.77	3725.26
390.98	2987.99
391.18	2586.58
391.39	2066.40
391.60	1884.13
391.81	1783.78
392.02	1748.97
392.23	1834.98
392.43	1718.25
392.64	1845.22
392.85	1632.23
393.06	1845.22
393.27	1738.73
393.47	1744.87
393.68	1757.16
393.89	1728.49
394.10	1775.59
394.31	1697.77
394.52	1677.29
394.72	1759.21
394.93	1808.36
395.14	1734.63
395.35	1734.63
395.56	1671.14
395.76	1724.39
395.97	1753.06
396.18	1804.26
396.39	1935.33
396.60	1998.82
396.80	1880.04
397.01	1824.74
397.22	1767.40
397.43	1781.73
397.64	1751.01
397.84	1845.22
398.05	1875.94
398.26	1810.40
398.47	1789.92
398.67	1769.44
398.88	1687.53
399.09	1802.21
399.30	1728.49
399.51	1753.06
399.71	1644.52
399.92	1746.92
400.13	1789.92
400.34	1689.57
400.54	1675.24
400.75	1802.21
400.96	1773.54
401.17	1755.11
401.37	1669.09
401.58	1669.09
401.79	1771.49
402.00	1906.66
402.21	1968.10
402.41	1990.63
402.62	1914.85
402.83	2031.58
403.04	2068.45
403.24	2123.74
403.45	1869.80
403.66	1900.52
403.87	1916.90
404.07	1925.09
404.28	1943.52
404.49	1939.43
404.70	1787.88
404.90	1804.26
405.11	1759.21
405.32	1748.97
405.52	1718.25
405.73	1626.09
405.94	1662.95
406.15	1701.86
406.35	1781.73
406.56	1753.06
406.77	1697.77
406.98	1740.77
407.18	1640.42
407.39	1794.02
407.60	1791.97
407.80	1714.15
408.01	1712.10
408.22	1837.03
408.43	1724.39
408.63	1662.95
408.84	1765.35
409.05	1763.30
409.25	1691.62
409.46	1755.11
409.67	1593.32
409.88	1656.81
410.08	1722.34
410.29	1683.43
410.50	1787.88
410.70	1689.57
410.91	1662.95
411.12	1746.92
411.32	1710.05
411.53	1722.34
411.74	1785.83
411.95	1916.90
412.15	1746.92
412.36	1740.77
412.57	1755.11
412.77	1675.24
412.98	1808.36
413.19	1703.91
413.39	1726.44
413.60	1775.59
413.81	1816.55
414.01	1689.57
414.22	1720.29
414.43	1724.39
414.63	1718.25
414.84	1785.83
415.05	1789.92
415.25	1660.90
415.46	1798.12
415.67	1714.15
415.87	1695.72
416.08	1677.29
416.29	1685.48
416.49	1730.53
416.70	1763.30
416.91	1714.15
417.11	1708.01
417.32	1734.63
417.53	1841.12
417.73	1746.92
417.94	1634.28
418.15	1787.88
418.35	1738.73
418.56	1667.05
418.77	1755.11
418.97	1634.28
419.18	1761.25
419.38	1583.08
419.59	1701.86
419.80	1779.68
420.00	1683.43
420.21	1689.57
420.42	1738.73
420.62	1765.35
420.83	1597.42
421.04	1718.25
421.24	1665.00
421.45	1791.97
421.65	1761.25
421.86	1656.81
422.07	1773.54
422.27	1742.82
422.48	1746.92
422.69	1662.95
422.89	1761.25
423.10	1634.28
423.30	1685.48
423.51	1687.53
423.72	1746.92
423.92	1794.02
424.13	1626.09
424.33	1718.25
424.54	1845.22
424.75	1771.49
424.95	1765.35
425.16	1710.05
425.36	1656.81
425.57	1808.36
425.78	1802.21
425.98	1763.30
426.19	1683.43
426.39	1703.91
426.60	1759.21
426.81	1751.01
427.01	1640.42
427.22	1648.61
427.42	1583.08
427.63	1656.81
427.83	1834.98
428.04	1742.82
428.25	1730.53
428.45	1734.63
428.66	1824.74
428.86	1748.97
429.07	1710.05
429.28	1736.68
429.48	1724.39
429.69	1662.95
429.89	1781.73
430.10	1628.14
430.30	1658.85
430.51	1837.03
430.71	1679.33
430.92	1751.01
431.13	1648.61
431.33	1724.39
431.54	1673.19
431.74	1824.74
431.95	1814.50
432.15	1632.23
432.36	1742.82
432.56	1708.01
432.77	1871.84
432.98	1859.56
433.18	1798.12
433.39	1683.43
433.59	1697.77
433.80	1863.65
434.00	1849.32
434.21	1699.81
434.41	1683.43
434.62	1869.80
434.82	1640.42
435.03	1671.14
435.23	1755.11
435.44	1675.24
435.64	1718.25
435.85	1665.00
436.06	1744.87
436.26	1773.54
436.47	1718.25
436.67	1677.29
436.88	1738.73
437.08	1789.92
437.29	1806.31
437.49	1724.39
437.70	1759.21
437.90	1748.97
438.11	1886.18
438.31	1738.73
438.52	1851.36
438.72	1816.55
438.93	2004.96
439.13	1761.25
439.34	1845.22
439.54	1808.36
439.75	1857.51
439.95	1796.07
440.16	1779.68
440.36	1771.49
440.57	1753.06
440.77	1703.91
440.98	1712.10
441.18	1775.59
441.39	1669.09
441.59	1607.66
441.80	1906.66
442.00	1642.47
442.21	1818.60
442.41	1691.62
442.62	1742.82
442.82	1636.33
443.02	1693.67
443.23	1701.86
443.43	1759.21
443.64	1800.16
443.84	1689.57
444.05	1753.06
444.25	1798.12
444.46	1681.38
444.66	1677.29
444.87	1808.36
445.07	1703.91
445.28	1734.63
445.48	1773.54
445.69	1863.65
445.89	1875.94
446.09	1740.77
446.30	2004.96
446.50	2697.17
446.71	3696.58
446.91	4321.21
447.12	4747.19
447.32	5025.72
447.53	4388.80
447.73	3819.46
447.93	3456.97
448.14	3338.19
448.34	3149.78
448.55	2848.72
448.75	2768.85
448.96	2656.22
449.16	2430.94
449.36	2277.34
449.57	2060.26
449.77	1943.52
449.98	1851.36
450.18	1775.59
450.39	1816.55
450.59	1859.56
450.79	1791.97
451.00	1654.76
451.20	1818.60
451.41	1712.10
451.61	1773.54
451.81	1646.57
452.02	1712.10
452.22	1585.13
452.43	1802.21
452.63	1728.49
452.84	1701.86
453.04	1691.62
453.24	1767.40
453.45	1636.33
453.65	1726.44
453.86	1761.25
454.06	1705.96
454.26	1689.57
454.47	1671.14
454.67	1810.40
454.87	1730.53
455.08	1771.49
455.28	1845.22
455.49	1730.53
455.69	1671.14
455.89	1832.93
456.10	1794.02
456.30	1722.34
456.51	1785.83
456.71	1748.97
456.91	1767.40
457.12	1753.06
457.32	1726.44
457.52	1734.63
457.73	1740.77
457.93	1779.68
458.14	1710.05
458.34	1648.61
458.54	1726.44
458.75	1769.44
458.95	1767.40
459.15	1681.38
459.36	1767.40
459.56	1820.64
459.76	1886.18
459.97	1609.70
460.17	1708.01
460.37	1810.40
460.58	1734.63
460.78	1767.40
460.99	1671.14
461.19	1763.30
461.39	1693.67
461.60	1746.92
461.80	1779.68
462.00	1669.09
462.21	1687.53
462.41	1638.38
462.61	1685.48
462.82	1591.27
463.02	1716.20
463.22	1701.86
463.43	1800.16
463.63	1708.01
463.83	1857.51
464.04	1748.97
464.24	1796.07
464.44	1677.29
464.64	1746.92
464.85	1728.49
465.05	1808.36
465.25	1796.07
465.46	1665.00
465.66	1744.87
465.86	1732.58
466.07	1828.84
466.27	1730.53
466.47	1656.81
466.68	1619.94
466.88	1775.59
467.08	1734.63
467.29	1787.88
467.49	1708.01
467.69	1677.29
467.89	1730.53
468.10	1730.53
468.30	1757.16
468.50	1886.18
468.71	1746.92
468.91	1665.00
469.11	1857.51
469.31	1738.73
469.52	1677.29
469.72	1779.68
469.92	1867.75
470.13	1714.15
470.33	1800.16
470.53	1791.97
470.73	2074.59
470.94	2281.44
471.14	2428.89
471.34	2471.90
471.54	2410.46
471.75	2224.09
471.95	2129.89
472.15	1994.72
472.36	2133.98
472.56	2090.98
472.76	2023.39
472.96	2000.87
473.17	1964.00
473.37	1857.51
473.57	1832.93
473.77	1877.99
473.98	1724.39
474.18	1683.43
474.38	1877.99
474.58	1705.96
474.79	1634.28
474.99	1740.77
475.19	1755.11
475.39	1703.91
475.60	1656.81
475.80	1726.44
476.00	1804.26
476.20	1724.39
476.41	1746.92
476.61	1892.32
476.81	1753.06
477.01	1712.10
477.21	1822.69
477.42	1830.88
477.62	1665.00
477.82	1763.30
478.02	1742.82
478.23	1726.44
478.43	1658.85
478.63	1724.39
478.83	1699.81
479.03	1724.39
479.24	1699.81
479.44	1796.07
479.64	1669.09
479.84	1644.52
480.04	1662.95
480.25	1791.97
480.45	1718.25
480.65	1746.92
480.85	1841.12
481.06	1673.19
481.26	1746.92
481.46	1714.15
481.66	1783.78
481.86	1669.09
482.06	1824.74
482.27	1746.92
482.47	1705.96
482.67	1720.29
482.87	1673.19
483.07	1738.73
483.28	1722.34
483.48	1675.24
483.68	1773.54
483.88	1644.52
484.08	1667.05
484.29	1724.39
484.49	1748.97
484.69	1687.53
484.89	1830.88
485.09	1845.22
485.29	1804.26
485.50	1732.58
485.70	1798.12
485.90	1779.68
486.10	1714.15
486.30	1759.21
486.50	1708.01
486.71	1746.92
486.91	1757.16
487.11	1769.44
487.31	1652.71
487.51	1765.35
487.71	1644.52
487.91	1652.71
488.12	1601.51
488.32	1615.85
488.52	1669.09
488.72	1525.74
488.92	1751.01
489.12	1757.16
489.32	1822.69
489.53	1753.06
489.73	1638.38
489.93	1859.56
490.13	1775.59
490.33	1615.85
490.53	1677.29
490.73	1779.68
490.94	1654.76
491.14	1863.65
491.34	1863.65
491.54	2064.35
491.74	2592.73
491.94	2863.06
492.14	3000.27
492.34	2965.46
492.54	2777.05
492.75	2535.39
492.95	2412.51
493.15	2301.92
493.35	2308.06
493.55	2148.32
493.75	2158.56
493.95	2140.13
494.15	1984.48
494.35	1906.66
494.56	1812.45
494.76	1779.68
494.96	1804.26
495.16	1910.75
495.36	1767.40
495.56	1742.82
495.76	1777.64
495.96	1816.55
496.16	1675.24
496.36	1806.31
496.56	1740.77
496.77	1767.40
496.97	1656.81
497.17	1742.82
497.37	1669.09
497.57	1734.63
497.77	1705.96
497.97	1667.05
498.17	1705.96
498.37	1736.68
498.57	1746.92
498.77	1669.09
498.97	1757.16
499.17	1906.66
499.38	1720.29
499.58	1738.73
499.78	1796.07
499.98	1804.26
500.18	1722.34
500.38	1683.43
500.58	2009.06
500.78	2621.40
500.98	4546.49
501.18	5924.77
501.38	6610.84
501.58	7264.15
501.78	6670.23
501.98	5613.48
502.18	4927.41
502.38	4337.60
502.58	4261.82
502.78	3803.08
502.98	3643.34
503.18	3409.87
503.38	3225.55
503.59	2834.39
503.79	2680.79
503.99	2484.19
504.19	2328.54
504.39	2095.07
504.59	2220.00
504.79	2062.30
504.99	2064.35
505.19	1974.24
505.39	1918.95
505.59	1964.00
505.79	1851.36
505.99	1798.12
506.19	1802.21
506.39	1812.45
506.59	1738.73
506.79	1689.57
506.99	1820.64
507.19	1755.11
507.39	1705.96
507.59	1695.72
507.79	1681.38
507.99	1683.43
508.19	1753.06
508.39	1740.77
508.59	1744.87
508.79	1751.01
508.99	1789.92
509.19	1687.53
509.39	1787.88
509.59	1701.86
509.79	1697.77
509.99	1730.53
510.19	1832.93
510.39	1755.11
510.59	1662.95
510.79	1685.48
510.99	1613.80
511.19	1687.53
511.39	1785.83
511.59	1738.73
511.79	1820.64
511.99	1705.96
512.19	1769.44
512.38	1765.35
512.58	1638.38
512.78	1656.81
512.98	1789.92
513.18	1826.79
513.38	1607.66
513.58	1724.39
513.78	1697.77
513.98	1736.68
514.18	1728.49
514.38	1634.28
514.58	1689.57
514.78	1677.29
514.98	1703.91
515.18	1697.77
515.38	1667.05
515.58	1810.40
515.78	1740.77
515.98	1767.40
516.18	1648.61
516.38	1738.73
516.57	1693.67
516.77	1722.34
516.97	1732.58
517.17	1712.10
517.37	1693.67
517.57	1814.50
517.77	1767.40
517.97	1738.73
518.17	1816.55
518.37	1720.29
518.57	1761.25
518.77	1748.97
518.97	1738.73
519.16	1818.60
519.36	1800.16
519.56	1656.81
519.76	1771.49
519.96	1763.30
520.16	1794.02
520.36	1705.96
520.56	1785.83
520.76	1726.44
520.96	1716.20
521.16	1712.10
521.35	1814.50
521.55	1826.79
521.75	1730.53
521.95	1665.00
522.15	1669.09
522.35	1640.42
522.55	1763.30
522.75	1791.97
522.95	1662.95
523.14	1701.86
523.34	1693.67
523.54	1675.24
523.74	1832.93
523.94	1738.73
524.14	1705.96
524.34	1796.07
524.54	1841.12
524.73	1726.44
524.93	1689.57
525.13	1791.97
525.33	1652.71
525.53	1839.08
525.73	1783.78
525.93	1701.86
526.13	1736.68
526.32	1763.30
526.52	1861.60
526.72	1816.55
526.92	1783.78
527.12	1658.85
527.32	1646.57
527.52	1824.74
527.71	1753.06
527.91	1738.73
528.11	1736.68
528.31	1785.83
528.51	1677.29
528.71	1759.21
528.90	1753.06
529.10	1775.59
529.30	1779.68
529.50	1607.66
529.70	1816.55
529.90	1697.77
530.09	1773.54
530.29	1691.62
530.49	1624.04
530.69	1886.18
530.89	1714.15
531.09	1783.78
531.28	1728.49
531.48	1779.68
531.68	1744.87
531.88	1736.68
532.08	1794.02
532.28	1736.68
532.47	1726.44
532.67	1746.92
532.87	1834.98
533.07	1703.91
533.27	1763.30
533.46	1783.78
533.66	1748.97
533.86	1701.86
534.06	1681.38
534.26	1785.83
534.45	1675.24
534.65	1794.02
534.85	1806.31
535.05	1755.11
535.25	1845.22
535.44	1640.42
535.64	1806.31
535.84	1742.82
536.04	1724.39
536.24	1773.54
536.43	1675.24
536.63	1742.82
536.83	1773.54
537.03	1708.01
537.22	1640.42
537.42	1617.90
537.62	1812.45
537.82	1667.05
538.02	1771.49
538.21	1800.16
538.41	1847.27
538.61	1779.68
538.81	1796.07
539.00	1791.97
539.20	1687.53
539.40	1724.39
539.60	1837.03
539.79	1736.68
539.99	1746.92
540.19	1716.20
540.39	1710.05
540.58	1724.39
540.78	1820.64
540.98	1685.48
541.18	1753.06
541.37	1783.78
541.57	1818.60
541.77	1746.92
541.97	1644.52
542.16	1722.34
542.36	1732.58
542.56	1828.84
542.76	1906.66
542.95	1744.87
543.15	1810.40
543.35	1796.07
543.54	1660.90
543.74	1710.05
543.94	1849.32
544.14	1699.81
544.33	1771.49
544.53	1767.40
544.73	1671.14
544.93	1716.20
545.12	1648.61
545.32	1753.06
545.52	1759.21
545.71	1703.91
545.91	1685.48
546.11	1748.97
546.30	1701.86
546.50	1730.53
546.70	1753.06
546.90	1818.60
547.09	1665.00
547.29	1734.63
547.49	1751.01
547.68	1759.21
547.88	1773.54
548.08	1738.73
548.27	2154.46
548.47	1744.87
548.67	1648.61
548.87	1755.11
549.06	1683.43
549.26	1730.53
549.46	1812.45
549.65	1701.86
549.85	1708.01
550.05	1779.68
550.24	1683.43
550.44	1796.07
550.64	1779.68
550.83	1744.87
551.03	1800.16
551.23	1779.68
551.42	1730.53
551.62	1716.20
551.82	1798.12
552.01	1755.11
552.21	1808.36
552.41	1802.21
552.60	1755.11
552.80	1712.10
553.00	1675.24
553.19	1742.82
553.39	1767.40
553.59	1746.92
553.78	1759.21
553.98	1763.30
554.17	1669.09
554.37	1757.16
554.57	1800.16
554.76	1773.54
554.96	1675.24
555.16	1791.97
555.35	1804.26
555.55	1828.84
555.75	1732.58
555.94	1802.21
556.14	1681.38
556.33	1710.05
556.53	1755.11
556.73	1783.78
556.92	1816.55
557.12	1802.21
557.32	1896.42
557.51	1845.22
557.71	1789.92
557.90	1849.32
558.10	1742.82
558.30	1851.36
558.49	1814.50
558.69	1751.01
558.88	1800.16
559.08	1869.80
559.28	1763.30
559.47	1779.68
559.67	1796.07
559.86	1865.70
560.06	1742.82
560.26	1744.87
560.45	1794.02
560.65	1681.38
560.84	1894.37
561.04	1705.96
561.24	1771.49
561.43	1759.21
561.63	1861.60
561.82	1837.03
562.02	1796.07
562.22	1681.38
562.41	1695.72
562.61	1796.07
562.80	1640.42
563.00	1832.93
563.19	1761.25
563.39	1767.40
563.59	1789.92
563.78	1683.43
563.98	1652.71
564.17	1732.58
564.37	1613.80
564.56	1794.02
564.76	1679.33
564.96	1806.31
565.15	1769.44
565.35	1896.42
565.54	1753.06
565.74	1748.97
565.93	1759.21
566.13	1853.41
566.32	1716.20
566.52	1769.44
566.71	1708.01
566.91	1806.31
567.11	1744.87
567.30	1687.53
567.50	1777.64
567.69	1724.39
567.89	1755.11
568.08	1710.05
568.28	1753.06
568.47	1699.81
568.67	1767.40
568.86	1681.38
569.06	1787.88
569.25	1734.63
569.45	1740.77
569.64	1689.57
569.84	1732.58
570.04	1791.97
570.23	1767.40
570.43	1775.59
570.62	1763.30
570.82	1855.46
571.01	1714.15
571.21	1746.92
571.40	1675.24
571.60	1845.22
571.79	1732.58
571.99	1728.49
572.18	1769.44
572.38	1755.11
572.57	1755.11
572.77	1841.12
572.96	1863.65
573.16	1697.77
573.35	1765.35
573.55	1783.78
573.74	1746.92
573.94	1845.22
574.13	1732.58
574.33	1779.68
574.52	1787.88
574.71	1693.67
574.91	1820.64
575.10	1632.23
575.30	1662.95
575.49	1675.24
575.69	1744.87
575.88	1816.55
576.08	1722.34
576.27	1742.82
576.47	1763.30
576.66	1779.68
576.86	1843.17
577.05	1798.12
577.25	1751.01
577.44	1798.12
577.64	1738.73
577.83	1812.45
578.02	1720.29
578.22	1818.60
578.41	1859.56
578.61	1798.12
578.80	1669.09
579.00	1812.45
579.19	1748.97
579.39	1826.79
579.58	1812.45
579.77	1746.92
579.97	1884.13
580.16	1828.84
580.36	1826.79
580.55	1837.03
580.75	1714.15
580.94	1742.82
581.13	1748.97
581.33	1820.64
581.52	1751.01
581.72	1820.64
581.91	1867.75
582.11	1736.68
582.30	1814.50
582.49	1798.12
582.69	1769.44
582.88	1791.97
583.08	1759.21
583.27	1781.73
583.47	1791.97
583.66	1722.34
583.85	1656.81
584.05	1755.11
584.24	1757.16
584.44	1818.60
584.63	1822.69
584.82	1800.16
585.02	1757.16
585.21	1806.31
585.41	1808.36
585.60	1890.28
585.79	1918.95
585.99	1902.56
586.18	1953.76
586.37	2146.27
586.57	3332.05
586.76	9717.61
586.96	24057.49
587.15	33771.00
587.34	39859.62
587.54	41651.59
587.73	36214.23
587.93	26132.08
588.12	21231.29
588.31	18155.24
588.51	16000.78
588.70	15036.19
588.89	14018.35
589.09	12564.29
589.28	10811.23
589.47	9457.52
589.67	7823.24
589.86	6236.06
590.06	4878.26
590.25	3798.98
590.44	3110.86
590.64	2605.02
590.83	2346.97
591.02	2191.33
591.22	1984.48
591.41	1904.61
591.60	1796.07
591.80	1914.85
591.99	1808.36
592.18	1771.49
592.38	1861.60
592.57	1843.17
592.76	1828.84
592.96	1810.40
593.15	1736.68
593.34	1841.12
593.54	1794.02
593.73	1765.35
593.92	1730.53
594.12	1738.73
594.31	1718.25
594.50	1808.36
594.70	1798.12
594.89	1914.85
595.08	1650.66
595.28	1738.73
595.47	1916.90
595.66	1830.88
595.86	1722.34
596.05	1675.24
596.24	1660.90
596.43	1806.31
596.63	1791.97
596.82	1746.92
597.01	1716.20
597.21	1857.51
597.40	1861.60
597.59	1734.63
597.79	1744.87
597.98	1810.40
598.17	1820.64
598.36	1802.21
598.56	1834.98
598.75	1609.70
598.94	1716.20
599.14	1665.00
599.33	1701.86
599.52	1773.54
599.71	1779.68
599.91	1857.51
600.10	1779.68
600.29	1804.26
600.48	1781.73
600.68	1767.40
600.87	1697.77
601.06	1740.77
601.26	1775.59
601.45	1802.21
601.64	1787.88
601.83	1808.36
602.03	1701.86
602.22	1624.04
602.41	1693.67
602.60	1769.44
602.80	1753.06
602.99	1830.88
603.18	1712.10
603.37	1724.39
603.57	1736.68
603.76	1857.51
603.95	1847.27
604.14	1763.30
604.34	1783.78
604.53	1695.72
604.72	1775.59
604.91	1808.36
605.10	1787.88
605.30	1632.23
605.49	1824.74
605.68	1771.49
605.87	1771.49
606.07	1689.57
606.26	1738.73
606.45	1710.05
606.64	1777.64
606.84	1724.39
607.03	1650.66
607.22	1730.53
607.41	1701.86
607.60	1681.38
607.80	1839.08
607.99	1738.73
608.18	1734.63
608.37	1720.29
608.56	1746.92
608.76	1787.88
608.95	1765.35
609.14	1783.78
609.33	1785.83
609.52	1804.26
609.72	1699.81
609.91	1769.44
610.10	1699.81
610.29	1791.97
610.48	1738.73
610.68	1783.78
610.87	1718.25
611.06	1718.25
611.25	1761.25
611.44	1845.22
611.63	1679.33
611.83	1849.32
612.02	1683.43
612.21	1787.88
612.40	1656.81
612.59	1656.81
612.79	1683.43
612.98	1714.15
613.17	1912.80
613.36	1722.34
613.55	1830.88
613.74	1636.33
613.93	1650.66
614.13	1748.97
614.32	1771.49
614.51	1761.25
614.70	1708.01
614.89	1736.68
615.08	1736.68
615.28	2121.70
615.47	1650.66
615.66	1755.11
615.85	1689.57
616.04	1796.07
616.23	1753.06
616.42	1736.68
616.62	1740.77
616.81	1763.30
617.00	1720.29
617.19	1773.54
617.38	1740.77
617.57	1753.06
617.76	1738.73
617.95	1804.26
618.15	1767.40
618.34	1759.21
618.53	1730.53
618.72	1787.88
618.91	1888.23
619.10	1804.26
619.29	1732.58
619.48	1744.87
619.68	1693.67
619.87	1621.99
620.06	1701.86
620.25	1681.38
620.44	1689.57
620.63	1746.92
620.82	1789.92
621.01	1732.58
621.20	1697.77
621.39	1746.92
621.59	1734.63
621.78	1691.62
621.97	1705.96
622.16	1763.30
622.35	1732.58
622.54	1800.16
622.73	1753.06
622.92	1634.28
623.11	1728.49
623.30	1697.77
623.49	1787.88
623.68	1769.44
623.88	1777.64
624.07	1720.29
624.26	1796.07
624.45	1736.68
624.64	1644.52
624.83	1796.07
625.02	1740.77
625.21	1714.15
625.40	1689.57
625.59	1865.70
625.78	1765.35
625.97	1779.68
626.16	1822.69
626.35	1751.01
626.54	1693.67
626.74	1818.60
626.93	1714.15
627.12	1710.05
627.31	1669.09
627.50	1689.57
627.69	1757.16
627.88	1609.70
628.07	1691.62
628.26	1679.33
628.45	1726.44
628.64	1732.58
628.83	1742.82
629.02	1628.14
629.21	1742.82
629.40	1746.92
629.59	1671.14
629.78	1771.49
629.97	1757.16
630.16	1765.35
630.35	1697.77
630.54	1740.77
630.73	1720.29
630.92	1714.15
631.11	1714.15
631.30	1705.96
631.49	1763.30
631.68	1759.21
631.87	1730.53
632.06	1656.81
632.25	1812.45
632.44	1691.62
632.63	1726.44
632.82	1650.66
633.01	1683.43
633.20	1783.78
633.39	1648.61
633.58	1742.82
633.77	1708.01
633.96	1753.06
634.15	1712.10
634.34	1697.77
634.53	1732.58
634.72	1699.81
634.91	1591.27
635.10	1763.30
635.29	1769.44
635.48	1722.34
635.67	1714.15
635.86	1658.85
636.05	1820.64
636.24	1742.82
636.43	1763.30
636.62	1785.83
636.81	1591.27
637.00	1714.15
637.19	1724.39
637.38	1732.58
637.57	1687.53
637.76	1775.59
637.95	1718.25
638.14	1773.54
638.33	1669.09
638.52	1753.06
638.71	1638.38
638.89	1632.23
639.08	1865.70
639.27	1767.40
639.46	1699.81
639.65	1769.44
639.84	1787.88
640.03	1751.01
640.22	1708.01
640.41	1837.03
640.60	1726.44
640.79	1748.97
640.98	1626.09
641.17	1742.82
641.36	1734.63
641.55	1724.39
641.74	1654.76
641.92	1679.33
642.11	1701.86
642.30	1720.29
642.49	1703.91
642.68	1609.70
642.87	1765.35
643.06	1697.77
643.25	1712.10
643.44	1636.33
643.63	1726.44
643.82	1785.83
644.00	1740.77
644.19	1751.01
644.38	1701.86
644.57	1785.83
644.76	1738.73
644.95	1742.82
645.14	1785.83
645.33	1701.86
645.52	1777.64
645.71	1669.09
645.89	1646.57
646.08	1775.59
646.27	1777.64
646.46	1804.26
646.65	1644.52
646.84	1728.49
647.03	1746.92
647.22	1722.34
647.40	1693.67
647.59	1710.05
647.78	1652.71
647.97	1660.90
648.16	1662.95
648.35	1769.44
648.54	1744.87
648.73	1714.15
648.91	1771.49
649.10	1630.18
649.29	1691.62
649.48	1781.73
649.67	1765.35
649.86	1751.01
650.05	1669.09
650.23	1634.28
650.42	1785.83
650.61	1755.11
650.80	1808.36
650.99	1900.52
651.18	1742.82
651.36	1744.87
651.55	1728.49
651.74	1785.83
651.93	1689.57
652.12	1724.39
652.31	1765.35
652.49	1708.01
652.68	1652.71
652.87	1781.73
653.06	1705.96
653.25	1859.56
653.44	1714.15
653.62	1845.22
653.81	1691.62
654.00	1761.25
654.19	1695.72
654.38	1822.69
654.56	1644.52
654.75	1648.61
654.94	1742.82
655.13	1755.11
655.32	1730.53
655.51	1834.98
655.69	1703.91
655.88	1765.35
656.07	1757.16
656.26	1705.96
656.45	1669.09
656.63	1787.88
656.82	1757.16
657.01	1714.15
657.20	1677.29
657.38	1783.78
657.57	1699.81
657.76	1619.94
657.95	1822.69
658.14	1693.67
658.32	1736.68
658.51	1679.33
658.70	1769.44
658.89	1755.11
659.08	1789.92
659.26	1751.01
659.45	1589.22
659.64	1757.16
659.83	1675.24
660.01	1898.47
660.20	1705.96
660.39	1775.59
660.58	1583.08
660.76	1785.83
660.95	1617.90
661.14	1781.73
661.33	1667.05
661.51	1763.30
661.70	1775.59
661.89	1783.78
662.08	1671.14
662.26	1695.72
662.45	1687.53
662.64	1783.78
662.83	1716.20
663.01	1624.04
663.20	1736.68
663.39	1802.21
663.58	1687.53
663.76	1701.86
663.95	1783.78
664.14	1699.81
664.32	1742.82
664.51	1710.05
664.70	1703.91
664.89	1767.40
665.07	1634.28
665.26	1832.93
665.45	1685.48
665.64	1734.63
665.82	1679.33
666.01	1744.87
666.20	1718.25
666.38	1791.97
666.57	1824.74
666.76	2142.18
666.95	4370.37
667.13	10325.86
667.32	15468.31
667.51	17782.51
667.69	18964.19
667.88	17762.03
668.07	12162.89
668.25	9553.77
668.44	8208.26
668.63	7325.58
668.81	6694.81
669.00	6244.26
669.19	5785.51
669.38	5009.33
669.56	4509.63
669.75	3958.72
669.94	3532.75
670.12	2934.74
670.31	2502.62
670.50	2328.54
670.68	2052.06
670.87	1968.10
671.06	1820.64
671.24	1773.54
671.43	1775.59
671.62	1802.21
671.80	1740.77
671.99	1742.82
672.18	1736.68
672.36	1763.30
672.55	1791.97
672.74	1763.30
672.92	1705.96
673.11	1740.77
673.29	1701.86
673.48	1796.07
673.67	1658.85
673.85	1841.12
674.04	1667.05
674.23	1785.83
674.41	1763.30
674.60	1611.75
674.79	1626.09
674.97	1722.34
675.16	1765.35
675.34	1843.17
675.53	1736.68
675.72	1734.63
675.90	1742.82
676.09	1710.05
676.28	1665.00
676.46	1714.15
676.65	1785.83
676.83	1703.91
677.02	1722.34
677.21	1789.92
677.39	1734.63
677.58	1718.25
677.77	1689.57
677.95	1714.15
678.14	1679.33
678.32	1675.24
678.51	1662.95
678.70	1964.00
678.88	1624.04
679.07	1812.45
679.25	1816.55
679.44	1689.57
679.63	1662.95
679.81	1757.16
680.00	1781.73
680.18	1757.16
680.37	1783.78
680.55	1718.25
680.74	1611.75
680.93	1642.47
681.11	1720.29
681.30	1732.58
681.48	1705.96
681.67	1613.80
681.85	1751.01
682.04	1656.81
682.23	1755.11
682.41	1716.20
682.60	1697.77
682.78	1681.38
682.97	1695.72
683.15	1767.40
683.34	1787.88
683.53	1755.11
683.71	1648.61
683.90	1837.03
684.08	1791.97
684.27	1685.48
684.45	1738.73
684.64	1728.49
684.82	1701.86
685.01	1771.49
685.19	1816.55
685.38	1806.31
685.57	1773.54
685.75	1722.34
685.94	1697.77
686.12	1658.85
686.31	1652.71
686.49	1853.41
686.68	1607.66
686.86	1787.88
687.05	1683.43
687.23	1794.02
687.42	1681.38
687.60	1683.43
687.79	1718.25
687.97	1791.97
688.16	1857.51
688.34	1806.31
688.53	1626.09
688.71	1751.01
688.90	1710.05
689.08	1693.67
689.27	1675.24
689.45	1779.68
689.64	1753.06
689.82	1705.96
690.01	1775.59
690.19	1742.82
690.38	1771.49
690.56	1783.78
690.75	1669.09
690.93	1695.72
691.12	1648.61
691.30	1753.06
691.49	1640.42
691.67	1771.49
691.86	1830.88
692.04	1681.38
692.23	1646.57
692.41	1607.66
692.60	1839.08
692.78	1763.30
692.97	1703.91
693.15	1742.82
693.34	1753.06
693.52	1728.49
693.71	1673.19
693.89	1607.66
694.08	1587.18
694.26	1767.40
694.44	1691.62
694.63	1794.02
694.81	1665.00
695.00	1665.00
695.18	1740.77
695.37	1857.51
695.55	1712.10
695.74	1701.86
695.92	1642.47
696.10	1796.07
696.29	1667.05
696.47	1699.81
696.66	1642.47
696.84	1634.28
697.03	1689.57
697.21	1837.03
697.40	2344.92
697.58	1783.78
697.76	1716.20
697.95	1699.81
698.13	1648.61
698.32	1665.00
698.50	1656.81
698.68	1816.55
698.87	1658.85
699.05	1810.40
699.24	1757.16
699.42	1720.29
699.61	1785.83
699.79	1732.58
699.97	1765.35
700.16	1693.67
700.34	1685.48
700.53	1732.58
700.71	1814.50
700.89	1798.12
701.08	1742.82
701.26	1708.01
701.45	2160.61
701.63	1660.90
701.81	1736.68
702.00	1615.85
702.18	1755.11
702.37	1738.73
702.55	1794.02
702.73	1689.57
702.92	1642.47
703.10	1785.83
703.28	1794.02
703.47	1595.37
703.65	1767.40
703.84	1810.40
704.02	1665.00
704.20	1804.26
704.39	1656.81
704.57	1695.72
704.75	1777.64
704.94	1771.49
705.12	1714.15
705.30	1789.92
705.49	2213.85
705.67	4433.85
705.86	9262.96
706.04	12564.29
706.22	14284.58
706.41	15025.95
706.59	13633.33
706.77	9404.27
706.96	7305.10
707.14	6584.22
707.32	5816.23
707.51	5476.27
707.69	4806.58
707.87	4194.24
708.06	3506.12
708.24	2975.70
708.42	2392.03
708.61	2275.29
708.79	1851.36
708.97	1888.23
709.16	1861.60
709.34	1845.22
709.52	1775.59
709.71	1751.01
709.89	1789.92
710.07	1730.53
710.26	1687.53
710.44	1669.09
710.62	1785.83
710.80	1753.06
710.99	1751.01
711.17	1724.39
711.35	1701.86
711.54	1708.01
711.72	1748.97
711.90	1751.01
712.09	1757.16
712.27	1662.95
712.45	1728.49
712.63	1724.39
712.82	1763.30
713.00	1767.40
713.18	1791.97
713.37	1773.54
713.55	1787.88
713.73	1679.33
713.91	1708.01
714.10	1691.62
714.28	1816.55
714.46	1738.73
714.65	1767.40
714.83	1818.60
715.01	1718.25
715.19	1714.15
715.38	1658.85
715.56	1771.49
715.74	1603.56
715.92	1708.01
716.11	1798.12
716.29	1615.85
716.47	1708.01
716.65	1732.58
716.84	1695.72
717.02	1765.35
717.20	1683.43
717.38	1691.62
717.57	1736.68
717.75	1759.21
717.93	1624.04
718.11	1730.53
718.30	1683.43
718.48	1734.63
718.66	1781.73
718.84	1722.34
719.03	1660.90
719.21	1675.24
719.39	1920.99
719.57	1667.05
719.75	1824.74
719.94	1705.96
720.12	1783.78
720.30	1708.01
720.48	1718.25
720.67	1673.19
720.85	1636.33
721.03	1728.49
721.21	1697.77
721.39	1777.64
721.58	1757.16
721.76	1710.05
721.94	1742.82
722.12	1736.68
722.30	1738.73
722.49	1763.30
722.67	1751.01
722.85	1822.69
723.03	1613.80
723.21	1669.09
723.40	1683.43
723.58	1826.79
723.76	1697.77
723.94	1722.34
724.12	1710.05
724.30	1830.88
724.49	1769.44
724.67	1634.28
724.85	1755.11
725.03	1587.18
725.21	1718.25
725.40	1800.16
725.58	1613.80
725.76	1791.97
725.94	1812.45
726.12	1658.85
726.30	1681.38
726.49	1722.34
726.67	1710.05
726.85	1822.69
727.03	1830.88
727.21	2164.70
727.39	2967.51
727.57	3901.38
727.76	4130.75
727.94	4478.91
728.12	4294.59
728.30	3674.06
728.48	2961.36
728.66	2756.57
728.84	2590.68
729.03	2340.83
729.21	2107.36
729.39	2021.35
729.57	1777.64
729.75	1804.26
729.93	1865.70
730.11	1718.25
730.30	1675.24
730.48	1755.11
730.66	1826.79
730.84	1730.53
731.02	1677.29
731.20	1722.34
731.38	1705.96
731.56	1660.90
731.74	1630.18
731.93	1695.72
732.11	1734.63
732.29	1687.53
732.47	1751.01
732.65	1648.61
732.83	1744.87
733.01	1722.34
733.19	1669.09
733.37	1736.68
733.56	1751.01
733.74	1695.72
733.92	1808.36
734.10	1671.14
734.28	1734.63
734.46	1681.38
734.64	1734.63
734.82	1730.53
735.00	1656.81
735.18	1675.24
735.36	1685.48
735.54	1642.47
735.73	1808.36
735.91	1703.91
736.09	1724.39
736.27	1671.14
736.45	1789.92
736.63	1650.66
736.81	1667.05
736.99	1769.44
737.17	1800.16
737.35	1724.39
737.53	1730.53
737.71	1648.61
737.89	1796.07
738.07	1748.97
738.25	1687.53
738.43	1650.66
738.61	1693.67
738.80	1634.28
738.98	1671.14
739.16	1718.25
739.34	1681.38
739.52	1808.36
739.70	1687.53
739.88	1738.73
740.06	1796.07
740.24	1552.36
740.42	1798.12
740.60	1611.75
740.78	1665.00
740.96	1662.95
741.14	1710.05
741.32	1646.57
741.50	1673.19
741.68	1869.80
741.86	1822.69
742.04	1617.90
742.22	1740.77
742.40	1730.53
742.58	1785.83
742.76	1689.57
742.94	1773.54
743.12	1609.70
743.30	1697.77
743.48	1779.68
743.66	1642.47
743.84	1755.11
744.02	1712.10
744.20	1720.29
744.38	1671.14
744.56	1634.28
744.74	1742.82
744.92	1697.77
745.10	1810.40
745.28	1777.64
745.46	1877.99
745.64	1695.72
745.82	1787.88
746.00	1689.57
746.18	1667.05
746.36	1679.33
746.54	1746.92
746.72	1773.54
746.90	1677.29
747.08	1783.78
747.26	1722.34
747.44	1800.16
747.62	1626.09
747.80	1701.86
747.98	1828.84
748.15	1687.53
748.33	1843.17
748.51	1683.43
748.69	1734.63
748.87	1613.80
749.05	1705.96
749.23	1630.18
749.41	1810.40
749.59	1697.77
749.77	1712.10
749.95	1665.00
750.13	1675.24
750.31	1877.99
750.49	1689.57
750.67	1746.92
750.85	1773.54
751.03	1796.07
751.20	1845.22
751.38	1640.42
751.56	1691.62
751.74	1732.58
751.92	1701.86
752.10	1677.29
752.28	1722.34
752.46	1689.57
752.64	1732.58
752.82	1687.53
753.00	1761.25
753.18	1658.85
753.35	1761.25
753.53	1703.91
753.71	1703.91
753.89	1753.06
754.07	1660.90
754.25	1789.92
754.43	1695.72
754.61	1673.19
754.79	1746.92
754.97	1677.29
755.14	1802.21
755.32	1714.15
755.50	1685.48
755.68	1794.02
755.86	1644.52
756.04	1693.67
756.22	1691.62
756.40	1720.29
756.57	1783.78
756.75	1705.96
756.93	1789.92
757.11	1705.96
757.29	1691.62
757.47	1591.27
757.65	1554.41
757.82	1593.32
758.00	1712.10
758.18	1626.09
758.36	1652.71
758.54	1755.11
758.72	1665.00
758.90	1748.97
759.07	1767.40
759.25	1656.81
759.43	1787.88
759.61	1665.00
759.79	2226.14
759.97	1763.30
760.15	1615.85
760.32	1658.85
760.50	1787.88
760.68	1814.50
760.86	1697.77
761.04	1810.40
761.22	1724.39
761.39	1738.73
761.57	1771.49
761.75	1730.53
761.93	1660.90
762.11	1722.34
762.28	1714.15
762.46	1665.00
762.64	1740.77
762.82	1677.29
763.00	1617.90
763.18	1722.34
763.35	1658.85
763.53	1738.73
763.71	1697.77
763.89	1734.63
764.07	1767.40
764.24	1710.05
764.42	1751.01
764.60	1742.82
764.78	1695.72
764.96	1761.25
765.13	1742.82
765.31	1728.49
765.49	1746.92
765.67	1652.71
765.84	1624.04
766.02	1650.66
766.20	1665.00
766.38	1705.96
766.56	1779.68
766.73	1714.15
766.91	1726.44
767.09	1656.81
767.27	1748.97
767.44	1660.90
767.62	1714.15
767.80	1796.07
767.98	1673.19
768.15	1720.29
768.33	1761.25
768.51	1773.54
768.69	1763.30
768.87	1724.39
769.04	1712.10
769.22	1806.31
769.40	1804.26
769.58	1869.80
769.75	1693.67
769.93	1791.97
770.11	1712.10
770.28	1679.33
770.46	1734.63
770.64	1800.16
770.82	1667.05
770.99	1736.68
771.17	1687.53
771.35	1757.16
771.53	1669.09
771.70	1710.05
771.88	1738.73
772.06	1740.77
772.23	1710.05
772.41	1775.59
772.59	1611.75
772.77	1626.09
772.94	1736.68
773.12	1751.01
773.30	1650.66
773.47	1697.77
773.65	1621.99
773.83	1777.64
774.01	1742.82
774.18	1656.81
774.36	1658.85
774.54	1640.42
774.71	1742.82
774.89	1710.05
775.07	1654.76
775.24	1705.96
775.42	1740.77
775.60	1845.22
775.78	1703.91
775.95	1687.53
776.13	1648.61
776.31	1562.60
776.48	1699.81
776.66	1746.92
776.84	1703.91
777.01	1632.23
777.19	1703.91
777.37	1650.66
777.54	1718.25
777.72	1830.88
777.90	1763.30
778.07	1679.33
778.25	1918.95
778.43	1755.11
778.60	1658.85
778.78	1802.21
778.96	1744.87
779.13	1597.42
779.31	1726.44
779.49	1626.09
779.66	1759.21
779.84	1710.05
780.01	1742.82
780.19	1648.61
780.37	1705.96
780.54	1785.83
780.72	1638.38
780.90	1654.76
781.07	1716.20
781.25	1636.33
781.43	1771.49
781.60	1689.57
781.78	1783.78
781.95	1746.92
782.13	1724.39
782.31	1732.58
782.48	1589.22
782.66	1722.34
782.83	1818.60
783.01	1714.15
783.19	1740.77
783.36	1722.34
783.54	1689.57
783.72	1765.35
783.89	1693.67
784.07	1695.72
784.24	1710.05
784.42	1728.49
784.60	1748.97
784.77	1705.96
784.95	1630.18
785.12	1687.53
785.30	1671.14
785.47	1718.25
785.65	1693.67
785.83	1708.01
786.00	1718.25
786.18	1705.96
786.35	1654.76
786.53	1699.81
786.71	1714.15
786.88	1734.63
787.06	1730.53
787.23	1658.85
787.41	1677.29
787.58	1654.76
787.76	1701.86
787.94	1689.57
788.11	1669.09
788.29	1634.28
788.46	1699.81
788.64	1693.67
788.81	1644.52
788.99	1654.76
789.16	1679.33
789.34	1724.39
789.52	1636.33
789.69	1636.33
789.87	1628.14
790.04	1617.90
790.22	1787.88
790.39	1804.26
790.57	1652.71
790.74	1665.00
790.92	1673.19
791.09	1630.18
791.27	1777.64
791.44	1789.92
791.62	1658.85
791.79	1806.31
791.97	1810.40
792.15	1894.37
792.32	1824.74
792.50	1832.93
792.67	1697.77
792.85	1841.12
793.02	1703.91
793.20	1677.29
793.37	1605.61
793.55	1732.58
793.72	1619.94
793.90	1759.21
794.07	1710.05
794.25	1640.42
794.42	1654.76
794.60	1689.57
794.77	1789.92
794.95	1681.38
795.12	1746.92
795.30	1708.01
795.47	1628.14
795.65	1873.89
795.82	1755.11
796.00	1642.47
796.17	1740.77
796.34	1701.86
796.52	1742.82
796.69	1705.96
796.87	1789.92
797.04	1710.05
797.22	1810.40
797.39	1724.39
797.57	1751.01
797.74	1744.87
797.92	1724.39
798.09	1607.66
798.27	1826.79
798.44	1755.11
798.62	1736.68
798.79	1714.15
798.96	1767.40
799.14	1718.25
799.31	1837.03
799.49	1662.95
799.66	1656.81
799.84	1757.16
800.01	1673.19
800.19	1765.35
800.36	1583.08
800.53	1740.77
800.71	1708.01
800.88	1832.93
801.06	1587.18
801.23	1695.72
801.41	1701.86
801.58	1757.16
801.75	1701.86
801.93	1755.11
802.10	1738.73
802.28	1722.34
802.45	1634.28
802.63	1753.06
802.80	1779.68
802.97	1783.78
803.15	1740.77
803.32	1740.77
803.50	1656.81
803.67	1638.38
803.84	1693.67
804.02	1705.96
804.19	1697.77
804.37	1591.27
804.54	1585.13
804.71	1722.34
804.89	1724.39
805.06	1615.85
805.24	1705.96
805.41	1722.34
805.58	1718.25
805.76	1777.64
805.93	1720.29
806.10	1798.12
806.28	1796.07
806.45	1714.15
806.63	1732.58
806.80	1751.01
806.97	1742.82
807.15	1716.20
807.32	1755.11
807.49	1699.81
807.67	1605.61
807.84	1783.78
808.01	1648.61
808.19	1814.50
808.36	1851.36
808.54	1624.04
808.71	1640.42
808.88	1759.21
809.06	1728.49
809.23	1785.83
809.40	1705.96
809.58	1742.82
809.75	1705.96
809.92	1658.85
810.10	1867.75
810.27	1652.71
810.44	1621.99
810.62	1822.69
810.79	1671.14
810.96	1693.67
811.14	1650.66
811.31	1748.97
811.48	1726.44
811.66	1689.57
811.83	1767.40
812.00	1748.97
812.18	1685.48
812.35	1847.27
812.52	1710.05
812.69	1701.86
812.87	1767.40
813.04	1654.76
813.21	1689.57
813.39	1609.70
813.56	1611.75
813.73	1722.34
813.91	1630.18
814.08	1761.25
814.25	1738.73
814.42	1656.81
814.60	1718.25
814.77	1753.06
814.94	1710.05
815.12	1757.16
815.29	1775.59
815.46	1554.41
815.63	1724.39
815.81	1681.38
815.98	1603.56
816.15	1751.01
816.33	1662.95
816.50	1609.70
816.67	1656.81
816.84	1689.57
817.02	1617.90
817.19	1658.85
817.36	1718.25
817.53	1812.45
817.71	1693.67
817.88	1732.58
818.05	1742.82
818.22	1693.67
818.40	1820.64
818.57	1656.81
818.74	1636.33
818.91	1681.38
819.09	1777.64
819.26	1785.83
819.43	1685.48
819.60	1681.38
819.78	1675.24
819.95	1798.12
820.12	1675.24
820.29	1806.31
820.47	1769.44
820.64	1697.77
820.81	1650.66
820.98	1634.28
821.15	1736.68
821.33	1791.97
821.50	1599.46
821.67	1699.81
821.84	1677.29
822.02	1751.01
822.19	1843.17
822.36	1636.33
822.53	1714.15
822.70	1656.81
822.88	1724.39
823.05	1798.12
823.22	1665.00
823.39	1689.57
823.56	1701.86
823.74	1843.17
823.91	1630.18
824.08	1624.04
824.25	1691.62
824.42	1859.56
824.60	1619.94
824.77	1759.21
824.94	1652.71
825.11	1736.68
825.28	1626.09
825.45	1759.21
825.63	1796.07
825.80	1654.76
825.97	1765.35
826.14	1744.87
826.31	1683.43
826.48	1773.54
826.66	1646.57
826.83	1730.53
827.00	1755.11
827.17	1720.29
827.34	1648.61
827.51	1636.33
827.69	1642.47
827.86	1613.80
828.03	1617.90
828.20	1740.77
828.37	1654.76
828.54	1796.07
828.71	1695.72
828.89	1787.88
829.06	1658.85
829.23	1740.77
829.40	1693.67
829.57	1628.14
829.74	1699.81
829.91	1753.06
830.09	1667.05
830.26	1789.92
830.43	1877.99
830.60	1703.91
830.77	1769.44
830.94	1746.92
831.11	1794.02
831.28	1714.15
831.46	1773.54
831.63	1673.19
831.80	1767.40
831.97	1677.29
832.14	1787.88
832.31	1742.82
832.48	1708.01
832.65	1837.03
832.82	1718.25
832.99	1757.16
833.17	1681.38
833.34	1800.16
833.51	1808.36
833.68	1566.70
833.85	1767.40
834.02	1656.81
834.19	1683.43
834.36	1681.38
834.53	1687.53
834.70	1800.16
834.87	1755.11
835.04	1728.49
835.22	1624.04
835.39	1748.97
835.56	1636.33
835.73	1689.57
835.90	1800.16
836.07	1638.38
836.24	1769.44
836.41	1593.32
836.58	1669.09
836.75	1812.45
836.92	1738.73
837.09	1648.61
837.26	1785.83
837.43	1716.20
837.60	1800.16
837.77	1665.00
837.94	1693.67
838.12	1757.16
838.29	1746.92
838.46	1689.57
838.63	1615.85
838.80	1765.35
838.97	1765.35
839.14	1736.68
839.31	1654.76
839.48	1746.92
839.65	1673.19
839.82	1740.77
839.99	1759.21
840.16	1755.11
840.33	1648.61
840.50	1734.63
840.67	1761.25
840.84	1574.89
841.01	1742.82
841.18	1656.81
841.35	1683.43
841.52	1777.64
841.69	1779.68
841.86	1771.49
842.03	1728.49
842.20	1785.83
842.37	1644.52
842.54	1634.28
842.71	1767.40
842.88	1587.18
843.05	1791.97
843.22	1669.09
843.39	1691.62
843.56	1679.33
843.73	1773.54
843.90	1665.00
844.07	1660.90
844.24	1710.05
844.41	1736.68
844.58	1726.44
844.75	1712.10
844.92	1759.21
845.09	1751.01
845.26	1673.19
845.43	1744.87
845.60	1716.20
845.77	1804.26
845.94	1628.14
846.10	1710.05
846.27	1673.19
846.44	1669.09
846.61	1742.82
846.78	1738.73
846.95	1814.50
847.12	1695.72
847.29	1755.11
847.46	1619.94
847.63	1800.16
847.80	1636.33
847.97	1714.15
848.14	1822.69
848.31	1738.73
848.48	1632.23
848.65	1679.33
848.82	1691.62
848.98	1798.12
849.15	1687.53
849.32	1726.44
849.49	1759.21
849.66	1697.77
849.83	1644.52
850.00	1644.52
850.17	1699.81
850.34	1683.43
850.51	1701.86
850.68	1677.29
850.85	1794.02
851.01	1789.92
851.18	1701.86
851.35	1761.25
851.52	1726.44
851.69	1789.92
851.86	1656.81
852.03	1693.67
852.20	1804.26
852.37	1693.67
852.53	1611.75
852.70	1681.38
852.87	1712.10
853.04	1769.44
853.21	1714.15
853.38	1769.44
853.55	1710.05
853.72	1808.36
853.89	1624.04
854.05	1628.14
854.22	1740.77
854.39	1675.24
854.56	1798.12
854.73	1751.01
854.90	1695.72
855.07	1656.81
855.23	1648.61
855.40	1640.42
855.57	1742.82
855.74	1554.41
855.91	1890.28
856.08	1689.57
856.25	1615.85
856.41	1726.44
856.58	1648.61
856.75	1656.81
856.92	1630.18
857.09	1697.77
857.26	1591.27
857.42	1720.29
857.59	1761.25
857.76	1691.62
857.93	1728.49
858.10	1751.01
858.27	1640.42
858.43	1708.01
858.60	1718.25
858.77	1615.85
858.94	1753.06
859.11	1726.44
859.27	1681.38
859.44	1703.91
859.61	1845.22
859.78	1755.11
859.95	1724.39
860.12	1656.81
860.28	1843.17
860.45	1785.83
860.62	1615.85
860.79	1724.39
860.95	1796.07
861.12	1667.05
861.29	1712.10
861.46	1626.09
861.63	1708.01
861.79	1767.40
861.96	1691.62
862.13	1689.57
862.30	1791.97
862.47	1673.19
862.63	1607.66
862.80	1761.25
862.97	1806.31
863.14	1705.96
863.30	1732.58
863.47	1648.61
863.64	1738.73
863.81	1673.19
863.97	1693.67
864.14	1683.43
864.31	1730.53
864.48	1755.11
864.65	1689.57
864.81	1679.33
864.98	1687.53
865.15	1763.30
865.32	1810.40
865.48	1828.84
865.65	1804.26
865.82	1669.09
865.98	1755.11
866.15	1812.45
866.32	1691.62
866.49	1687.53
866.65	1757.16
866.82	1656.81
866.99	1720.29
867.16	1722.34
867.32	1687.53
867.49	1759.21
867.66	1683.43
867.83	1732.58
867.99	1648.61
868.16	1724.39
868.33	1656.81
868.49	1738.73
868.66	1654.76
868.83	1773.54
868.99	1654.76
869.16	1685.48
869.33	1806.31
869.50	1701.86
869.66	1648.61
869.83	1738.73
870.00	1638.38
870.16	1742.82
870.33	1693.67
870.50	1789.92
870.66	1755.11
870.83	1759.21
871.00	1697.77
871.17	1705.96
871.33	1718.25
871.50	1730.53
871.67	1634.28
871.83	1755.11
872.00	1791.97
872.17	1671.14
872.33	1791.97
872.50	1730.53
872.67	1691.62
872.83	1691.62
873.00	1757.16
873.17	1681.38
873.33	1732.58
873.50	1722.34
873.67	1634.28
873.83	1652.71
874.00	1732.58
874.16	1763.30
874.33	1710.05
874.50	1628.14
874.66	1755.11
874.83	1718.25
875.00	1759.21
875.16	1718.25
875.33	1701.86
875.50	1615.85
875.66	1724.39
875.83	1736.68
875.99	1732.58
876.16	1693.67
876.33	1685.48
876.49	1656.81
876.66	1746.92
876.83	1746.92
876.99	1624.04
877.16	1638.38
877.32	1703.91
877.49	1681.38
877.66	1746.92
877.82	1812.45
877.99	1763.30
878.15	1746.92
878.32	1746.92
878.49	1699.81
878.65	1675.24
878.82	1791.97
878.98	1757.16
879.15	1740.77
879.32	1740.77
879.48	1759.21
879.65	1681.38
879.81	1648.61
879.98	1699.81
880.15	1681.38
880.31	1701.86
880.48	1644.52
880.64	1728.49
880.81	1732.58
880.97	1869.80
881.14	1765.35
881.31	1662.95
881.47	1767.40
881.64	1701.86
881.80	1658.85
881.97	1716.20
882.13	1730.53
882.30	1607.66
882.47	1689.57
882.63	1583.08
882.80	1726.44
882.96	1767.40
883.13	1865.70
883.29	1691.62
883.46	1675.24
883.62	1886.18
883.79	1759.21
883.95	1763.30
884.12	1730.53
884.29	1759.21
884.45	1685.48
884.62	1753.06
884.78	1671.14
884.95	1789.92
885.11	1697.77
885.28	1720.29
885.44	1658.85
885.61	1740.77
885.77	1759.21
885.94	1777.64
886.10	1712.10
886.27	1650.66
886.43	1830.88
886.60	1705.96
886.76	1695.72
886.93	1656.81
887.09	1763.30
887.26	1624.04
887.42	1640.42
887.59	1746.92
887.75	1814.50
887.92	1787.88
888.08	1734.63
888.25	1818.60
888.41	1722.34
888.58	1619.94
888.74	1632.23
888.91	1677.29
>>>>>End Processed Spectral Data<<<<<
