SpectraSuite Data File
++++++++++++++++++++++++++++++++++++
Date: Mon Jun 06 13:17:37 CEST 2016
User: root
Dark Spectrum Present: No
Reference Spectrum Present: No
Number of Sampled Component Spectra: 1
Spectrometers: USB4C02835
Integration Time (usec): 100000 (USB4C02835)
Spectra Averaged: 1 (USB4C02835)
Boxcar Smoothing: 0 (USB4C02835)
Correct for Electrical Dark: No (USB4C02835)
Strobe/Lamp Enabled: No (USB4C02835)
Correct for Detector Non-linearity: No (USB4C02835)
Correct for Stray Light: No (USB4C02835)
Number of Pixels in Processed Spectrum: 3648
>>>>>Begin Processed Spectral Data<<<<<
177.47	1497.07
177.69	1497.07
177.91	1497.07
178.13	1482.73
178.36	1464.30
178.58	1619.94
178.80	1714.15
179.02	1605.61
179.24	1617.90
179.46	1650.66
179.68	1834.98
179.90	1650.66
180.13	1783.78
180.35	1675.24
180.57	1687.53
180.79	1683.43
181.01	1636.33
181.23	1738.73
181.45	1726.44
181.67	1724.39
181.90	1722.34
182.12	1720.29
182.34	1642.47
182.56	1736.68
182.78	1755.11
183.00	1720.29
183.22	1675.24
183.44	1558.50
183.66	1812.45
183.89	1736.68
184.11	1660.90
184.33	1771.49
184.55	1748.97
184.77	1755.11
184.99	1742.82
185.21	1689.57
185.43	1937.38
185.65	1734.63
185.87	1722.34
186.10	1880.04
186.32	1841.12
186.54	1660.90
186.76	1744.87
186.98	1710.05
187.20	1632.23
187.42	1679.33
187.64	1689.57
187.86	1783.78
188.08	1816.55
188.30	1699.81
188.52	1708.01
188.75	1701.86
188.97	1767.40
189.19	1644.52
189.41	1703.91
189.63	1662.95
189.85	1648.61
190.07	1636.33
190.29	1656.81
190.51	1691.62
190.73	1613.80
190.95	1759.21
191.17	1716.20
191.39	1662.95
191.61	1638.38
191.84	1564.65
192.06	1654.76
192.28	1570.79
192.50	1900.52
192.72	1703.91
192.94	1693.67
193.16	1834.98
193.38	1724.39
193.60	1697.77
193.82	1673.19
194.04	1806.31
194.26	1718.25
194.48	1693.67
194.70	1656.81
194.92	1662.95
195.14	1771.49
195.36	1632.23
195.58	1681.38
195.80	1705.96
196.02	1562.60
196.24	1671.14
196.46	1800.16
196.69	1652.71
196.91	1765.35
197.13	1800.16
197.35	1656.81
197.57	1779.68
197.79	1718.25
198.01	1675.24
198.23	1755.11
198.45	1738.73
198.67	1683.43
198.89	1687.53
199.11	1714.15
199.33	1687.53
199.55	1587.18
199.77	1695.72
199.99	1767.40
200.21	1662.95
200.43	1740.77
200.65	1636.33
200.87	1576.94
201.09	1673.19
201.31	1746.92
201.53	1728.49
201.75	1638.38
201.97	1732.58
202.19	1693.67
202.41	1746.92
202.63	1806.31
202.85	1761.25
203.07	1671.14
203.29	1615.85
203.51	1671.14
203.73	1677.29
203.95	1896.42
204.17	1701.86
204.39	1634.28
204.61	1671.14
204.83	1693.67
205.05	1734.63
205.27	1724.39
205.49	1832.93
205.71	1800.16
205.93	1603.56
206.15	1611.75
206.37	1681.38
206.59	1730.53
206.81	1656.81
207.03	1621.99
207.25	1660.90
207.47	1734.63
207.69	1697.77
207.91	1800.16
208.13	1738.73
208.34	1669.09
208.56	1634.28
208.78	1701.86
209.00	1581.03
209.22	1675.24
209.44	1716.20
209.66	1611.75
209.88	1710.05
210.10	1654.76
210.32	1693.67
210.54	1751.01
210.76	1669.09
210.98	1652.71
211.20	1646.57
211.42	1681.38
211.64	1796.07
211.86	1751.01
212.08	1742.82
212.30	1748.97
212.52	1695.72
212.74	1712.10
212.96	1740.77
213.17	1753.06
213.39	1740.77
213.61	1757.16
213.83	1720.29
214.05	1617.90
214.27	1759.21
214.49	1601.51
214.71	1683.43
214.93	1757.16
215.15	1689.57
215.37	1773.54
215.59	1587.18
215.81	1679.33
216.03	1783.78
216.24	1779.68
216.46	1705.96
216.68	1648.61
216.90	1748.97
217.12	1738.73
217.34	1763.30
217.56	1751.01
217.78	1724.39
218.00	1708.01
218.22	1632.23
218.44	1763.30
218.66	1718.25
218.87	1751.01
219.09	1640.42
219.31	1701.86
219.53	1697.77
219.75	1671.14
219.97	1697.77
220.19	1693.67
220.41	1697.77
220.63	1771.49
220.85	1710.05
221.06	1597.42
221.28	1761.25
221.50	1714.15
221.72	1771.49
221.94	1740.77
222.16	1677.29
222.38	1748.97
222.60	1794.02
222.82	1693.67
223.03	1724.39
223.25	1710.05
223.47	1759.21
223.69	1910.75
223.91	1757.16
224.13	1691.62
224.35	1726.44
224.57	1814.50
224.78	1689.57
225.00	1648.61
225.22	1644.52
225.44	1695.72
225.66	1730.53
225.88	1632.23
226.10	1742.82
226.32	1722.34
226.53	1744.87
226.75	1728.49
226.97	1646.57
227.19	1681.38
227.41	1636.33
227.63	1609.70
227.85	1644.52
228.06	1763.30
228.28	1691.62
228.50	1724.39
228.72	1638.38
228.94	1689.57
229.16	1710.05
229.37	1611.75
229.59	1650.66
229.81	1761.25
230.03	1634.28
230.25	1636.33
230.47	1644.52
230.69	1599.46
230.90	1744.87
231.12	1595.37
231.34	1679.33
231.56	1755.11
231.78	1638.38
232.00	1619.94
232.21	1695.72
232.43	1693.67
232.65	1560.55
232.87	1685.48
233.09	1656.81
233.30	1716.20
233.52	1812.45
233.74	1679.33
233.96	1675.24
234.18	1730.53
234.40	1732.58
234.61	1834.98
234.83	1609.70
235.05	1601.51
235.27	1882.08
235.49	1730.53
235.70	1683.43
235.92	1841.12
236.14	1712.10
236.36	1796.07
236.58	1599.46
236.79	1669.09
237.01	1667.05
237.23	1693.67
237.45	1789.92
237.67	1656.81
237.88	1697.77
238.10	1734.63
238.32	1603.56
238.54	1675.24
238.76	1714.15
238.97	1685.48
239.19	1697.77
239.41	1765.35
239.63	1763.30
239.85	1652.71
240.06	1654.76
240.28	1751.01
240.50	1671.14
240.72	1691.62
240.93	1689.57
241.15	1771.49
241.37	1693.67
241.59	1804.26
241.81	1748.97
242.02	1677.29
242.24	1710.05
242.46	1732.58
242.68	1714.15
242.89	1718.25
243.11	1753.06
243.33	1718.25
243.55	1800.16
243.76	1699.81
243.98	1708.01
244.20	1751.01
244.42	1677.29
244.64	1726.44
244.85	1626.09
245.07	1619.94
245.29	1753.06
245.51	1726.44
245.72	1662.95
245.94	1785.83
246.16	1671.14
246.38	1652.71
246.59	1654.76
246.81	1599.46
247.03	1671.14
247.24	1650.66
247.46	1615.85
247.68	1730.53
247.90	1687.53
248.11	1687.53
248.33	1736.68
248.55	1656.81
248.77	1728.49
248.98	1738.73
249.20	1753.06
249.42	1722.34
249.64	1742.82
249.85	1699.81
250.07	1634.28
250.29	1728.49
250.50	1779.68
250.72	1628.14
250.94	1800.16
251.16	1673.19
251.37	1695.72
251.59	1730.53
251.81	1705.96
252.02	1699.81
252.24	1628.14
252.46	1837.03
252.68	1613.80
252.89	1619.94
253.11	1693.67
253.33	1763.30
253.54	1742.82
253.76	1642.47
253.98	1714.15
254.20	1669.09
254.41	1611.75
254.63	1718.25
254.85	1658.85
255.06	1648.61
255.28	1718.25
255.50	1703.91
255.71	1605.61
255.93	1617.90
256.15	1748.97
256.36	1734.63
256.58	1638.38
256.80	1730.53
257.02	1759.21
257.23	1722.34
257.45	1693.67
257.67	1681.38
257.88	1621.99
258.10	1736.68
258.32	1714.15
258.53	1689.57
258.75	1736.68
258.97	1615.85
259.18	1660.90
259.40	1716.20
259.62	1847.27
259.83	1791.97
260.05	1769.44
260.27	1953.76
260.48	1720.29
260.70	1669.09
260.92	1685.48
261.13	1699.81
261.35	1728.49
261.57	1703.91
261.78	1656.81
262.00	1642.47
262.22	1755.11
262.43	1624.04
262.65	1712.10
262.86	1697.77
263.08	1808.36
263.30	1705.96
263.51	1595.37
263.73	1640.42
263.95	1796.07
264.16	1669.09
264.38	1665.00
264.60	1763.30
264.81	1728.49
265.03	1759.21
265.25	1753.06
265.46	1603.56
265.68	1722.34
265.89	1722.34
266.11	1564.65
266.33	1689.57
266.54	1769.44
266.76	1771.49
266.98	1695.72
267.19	1738.73
267.41	1783.78
267.62	1746.92
267.84	1628.14
268.06	1773.54
268.27	1681.38
268.49	1753.06
268.70	1812.45
268.92	1685.48
269.14	1621.99
269.35	1644.52
269.57	1669.09
269.79	1734.63
270.00	1665.00
270.22	1757.16
270.43	1636.33
270.65	1597.42
270.87	1691.62
271.08	1732.58
271.30	1759.21
271.51	1689.57
271.73	1789.92
271.95	1787.88
272.16	1660.90
272.38	1693.67
272.59	1714.15
272.81	1675.24
273.02	1726.44
273.24	1748.97
273.46	1630.18
273.67	1658.85
273.89	1656.81
274.10	1705.96
274.32	1746.92
274.54	1724.39
274.75	1679.33
274.97	1714.15
275.18	1763.30
275.40	1689.57
275.61	1738.73
275.83	1714.15
276.05	1667.05
276.26	1687.53
276.48	1656.81
276.69	1742.82
276.91	1652.71
277.12	1847.27
277.34	1710.05
277.55	1748.97
277.77	1683.43
277.99	1617.90
278.20	1615.85
278.42	1609.70
278.63	1558.50
278.85	1675.24
279.06	1646.57
279.28	1724.39
279.49	1771.49
279.71	1679.33
279.93	1796.07
280.14	1650.66
280.36	1603.56
280.57	1693.67
280.79	1804.26
281.00	1667.05
281.22	1675.24
281.43	1761.25
281.65	1624.04
281.86	1630.18
282.08	1826.79
282.29	1753.06
282.51	1652.71
282.73	1601.51
282.94	1603.56
283.16	1753.06
283.37	1740.77
283.59	1755.11
283.80	1687.53
284.02	1722.34
284.23	1732.58
284.45	1744.87
284.66	1667.05
284.88	1660.90
285.09	1691.62
285.31	1759.21
285.52	1796.07
285.74	1619.94
285.95	1753.06
286.17	1738.73
286.38	1730.53
286.60	1650.66
286.81	1703.91
287.03	1683.43
287.24	1667.05
287.46	1738.73
287.67	1652.71
287.89	1759.21
288.10	1689.57
288.32	1753.06
288.53	1800.16
288.75	1685.48
288.96	1738.73
289.18	1716.20
289.39	1726.44
289.61	1746.92
289.82	1791.97
290.04	1718.25
290.25	1742.82
290.47	1722.34
290.68	1691.62
290.90	1730.53
291.11	1591.27
291.33	1732.58
291.54	1671.14
291.76	1648.61
291.97	1734.63
292.18	1710.05
292.40	1691.62
292.61	1673.19
292.83	1814.50
293.04	1787.88
293.26	1763.30
293.47	1705.96
293.69	1640.42
293.90	1744.87
294.12	1703.91
294.33	1683.43
294.55	1636.33
294.76	1777.64
294.97	1798.12
295.19	1804.26
295.40	1679.33
295.62	1679.33
295.83	1734.63
296.05	1640.42
296.26	1771.49
296.48	1624.04
296.69	1728.49
296.90	1609.70
297.12	1718.25
297.33	1771.49
297.55	1691.62
297.76	1665.00
297.98	1703.91
298.19	1634.28
298.41	1714.15
298.62	1742.82
298.83	1724.39
299.05	1732.58
299.26	1673.19
299.48	1726.44
299.69	1767.40
299.90	1742.82
300.12	1654.76
300.33	1675.24
300.55	1734.63
300.76	1755.11
300.98	1621.99
301.19	1689.57
301.40	1763.30
301.62	1703.91
301.83	1716.20
302.05	1689.57
302.26	1726.44
302.47	1757.16
302.69	1687.53
302.90	1697.77
303.12	1595.37
303.33	1722.34
303.54	1820.64
303.76	1599.46
303.97	1730.53
304.19	1814.50
304.40	1658.85
304.61	1708.01
304.83	1773.54
305.04	1705.96
305.26	1701.86
305.47	1624.04
305.68	1660.90
305.90	1718.25
306.11	1701.86
306.33	1683.43
306.54	1638.38
306.75	1617.90
306.97	1648.61
307.18	1683.43
307.39	1621.99
307.61	1695.72
307.82	1681.38
308.04	1732.58
308.25	1609.70
308.46	1728.49
308.68	1724.39
308.89	1691.62
309.10	1857.51
309.32	1669.09
309.53	1662.95
309.74	1767.40
309.96	1718.25
310.17	1785.83
310.39	1640.42
310.60	1736.68
310.81	1806.31
311.03	1619.94
311.24	1765.35
311.45	1654.76
311.67	1777.64
311.88	1796.07
312.09	1675.24
312.31	1662.95
312.52	1652.71
312.73	1652.71
312.95	1630.18
313.16	1736.68
313.37	1771.49
313.59	1761.25
313.80	1759.21
314.01	1798.12
314.23	1613.80
314.44	1675.24
314.65	1669.09
314.87	1634.28
315.08	1691.62
315.29	1673.19
315.51	1535.98
315.72	1595.37
315.93	1828.84
316.15	1787.88
316.36	1710.05
316.57	1720.29
316.79	1720.29
317.00	1712.10
317.21	1736.68
317.43	1644.52
317.64	1673.19
317.85	1708.01
318.07	1681.38
318.28	1763.30
318.49	1812.45
318.70	1937.38
318.92	1757.16
319.13	1763.30
319.34	1847.27
319.56	1812.45
319.77	1775.59
319.98	1775.59
320.20	1748.97
320.41	1716.20
320.62	1691.62
320.83	1679.33
321.05	1783.78
321.26	1730.53
321.47	1675.24
321.69	1656.81
321.90	1570.79
322.11	1673.19
322.32	1789.92
322.54	1796.07
322.75	1673.19
322.96	1830.88
323.18	1642.47
323.39	1542.12
323.60	1701.86
323.81	1763.30
324.03	1748.97
324.24	1697.77
324.45	1693.67
324.66	1703.91
324.88	1777.64
325.09	1712.10
325.30	1724.39
325.52	1697.77
325.73	1730.53
325.94	1708.01
326.15	1599.46
326.37	1718.25
326.58	1716.20
326.79	1796.07
327.00	1646.57
327.22	1728.49
327.43	1701.86
327.64	1636.33
327.85	1734.63
328.07	1753.06
328.28	1820.64
328.49	1630.18
328.70	1691.62
328.92	1697.77
329.13	1619.94
329.34	1753.06
329.55	1832.93
329.76	1779.68
329.98	1675.24
330.19	1796.07
330.40	1675.24
330.61	1689.57
330.83	1775.59
331.04	1697.77
331.25	1681.38
331.46	1648.61
331.68	1701.86
331.89	1732.58
332.10	1712.10
332.31	1648.61
332.52	1658.85
332.74	1738.73
332.95	1613.80
333.16	1781.73
333.37	1748.97
333.58	1718.25
333.80	1730.53
334.01	1562.60
334.22	1736.68
334.43	1695.72
334.64	1712.10
334.86	1615.85
335.07	1734.63
335.28	1812.45
335.49	1576.94
335.70	1753.06
335.92	1808.36
336.13	1806.31
336.34	1769.44
336.55	1691.62
336.76	1716.20
336.98	1685.48
337.19	1718.25
337.40	1816.55
337.61	1810.40
337.82	1710.05
338.04	1757.16
338.25	1634.28
338.46	1708.01
338.67	1658.85
338.88	1642.47
339.09	1619.94
339.31	1701.86
339.52	1673.19
339.73	1619.94
339.94	1730.53
340.15	1742.82
340.36	1722.34
340.58	1705.96
340.79	1722.34
341.00	1738.73
341.21	1710.05
341.42	1859.56
341.63	1699.81
341.85	1826.79
342.06	1640.42
342.27	1636.33
342.48	1730.53
342.69	1656.81
342.90	1804.26
343.12	1699.81
343.33	1695.72
343.54	1748.97
343.75	1814.50
343.96	1730.53
344.17	1642.47
344.38	1662.95
344.60	1658.85
344.81	1708.01
345.02	1748.97
345.23	1705.96
345.44	1730.53
345.65	1789.92
345.86	1796.07
346.07	1665.00
346.29	1650.66
346.50	1716.20
346.71	1789.92
346.92	1718.25
347.13	1806.31
347.34	1624.04
347.55	1658.85
347.76	1763.30
347.98	1669.09
348.19	1621.99
348.40	1728.49
348.61	1644.52
348.82	1787.88
349.03	1853.41
349.24	1662.95
349.45	1873.89
349.66	1652.71
349.88	1687.53
350.09	1662.95
350.30	1796.07
350.51	1755.11
350.72	1693.67
350.93	1677.29
351.14	1599.46
351.35	1736.68
351.56	1679.33
351.77	1724.39
351.99	1722.34
352.20	1877.99
352.41	1685.48
352.62	1603.56
352.83	1708.01
353.04	1691.62
353.25	1658.85
353.46	1738.73
353.67	1845.22
353.88	1619.94
354.09	1675.24
354.30	1681.38
354.52	1759.21
354.73	1660.90
354.94	1712.10
355.15	1679.33
355.36	1771.49
355.57	1710.05
355.78	1640.42
355.99	1646.57
356.20	1726.44
356.41	1771.49
356.62	1744.87
356.83	1701.86
357.04	1839.08
357.25	1560.55
357.46	1634.28
357.68	1632.23
357.89	1626.09
358.10	1693.67
358.31	1665.00
358.52	1689.57
358.73	1697.77
358.94	1662.95
359.15	1699.81
359.36	1685.48
359.57	1679.33
359.78	1624.04
359.99	1697.77
360.20	1617.90
360.41	1626.09
360.62	1734.63
360.83	1757.16
361.04	1705.96
361.25	1738.73
361.46	1771.49
361.67	1777.64
361.88	1705.96
362.09	1789.92
362.30	1746.92
362.51	1703.91
362.72	1646.57
362.93	1720.29
363.14	1771.49
363.35	1701.86
363.56	1683.43
363.78	1753.06
363.99	1744.87
364.20	1701.86
364.41	1732.58
364.62	1777.64
364.83	1685.48
365.04	1660.90
365.25	1630.18
365.46	1755.11
365.67	1617.90
365.88	1673.19
366.09	1636.33
366.30	1667.05
366.51	1738.73
366.72	1644.52
366.93	1697.77
367.14	1699.81
367.35	1716.20
367.56	1736.68
367.77	1751.01
367.98	1640.42
368.18	1730.53
368.39	1710.05
368.60	1667.05
368.81	1810.40
369.02	1658.85
369.23	1701.86
369.44	1669.09
369.65	1761.25
369.86	1665.00
370.07	1669.09
370.28	1734.63
370.49	1705.96
370.70	1669.09
370.91	1632.23
371.12	1705.96
371.33	1724.39
371.54	1617.90
371.75	1800.16
371.96	1556.46
372.17	1714.15
372.38	1722.34
372.59	1767.40
372.80	1638.38
373.01	1697.77
373.22	1669.09
373.43	1681.38
373.64	1650.66
373.85	1773.54
374.06	1751.01
374.26	1714.15
374.47	1748.97
374.68	1763.30
374.89	1775.59
375.10	1634.28
375.31	1730.53
375.52	1722.34
375.73	1755.11
375.94	1716.20
376.15	1804.26
376.36	1656.81
376.57	1634.28
376.78	1724.39
376.99	1656.81
377.20	1699.81
377.40	1714.15
377.61	1730.53
377.82	1591.27
378.03	1730.53
378.24	1736.68
378.45	1632.23
378.66	1738.73
378.87	1617.90
379.08	1681.38
379.29	1658.85
379.50	1798.12
379.71	1665.00
379.91	1716.20
380.12	1640.42
380.33	1730.53
380.54	1693.67
380.75	1748.97
380.96	1714.15
381.17	1697.77
381.38	1703.91
381.59	1740.77
381.80	1757.16
382.00	1800.16
382.21	1681.38
382.42	1857.51
382.63	1877.99
382.84	1742.82
383.05	1732.58
383.26	1816.55
383.47	1730.53
383.68	1695.72
383.88	1720.29
384.09	1757.16
384.30	1839.08
384.51	1705.96
384.72	1716.20
384.93	1716.20
385.14	1734.63
385.35	1789.92
385.55	1660.90
385.76	1705.96
385.97	1730.53
386.18	1648.61
386.39	1726.44
386.60	1726.44
386.81	1722.34
387.02	1617.90
387.22	1644.52
387.43	1740.77
387.64	1724.39
387.85	1816.55
388.06	2242.53
388.27	4284.35
388.48	6856.60
388.68	8310.66
388.89	9592.69
389.10	9897.83
389.31	8705.92
389.52	7473.04
389.73	6762.39
389.93	6291.36
390.14	5908.39
390.35	5281.71
390.56	4591.55
390.77	3753.93
390.98	3030.99
391.18	2549.72
391.39	2056.16
391.60	1857.51
391.81	1877.99
392.02	1673.19
392.23	1898.47
392.43	1685.48
392.64	1798.12
392.85	1771.49
393.06	1796.07
393.27	1673.19
393.47	1689.57
393.68	1677.29
393.89	1673.19
394.10	1789.92
394.31	1691.62
394.52	1708.01
394.72	1652.71
394.93	1763.30
395.14	1638.38
395.35	1714.15
395.56	1632.23
395.76	1757.16
395.97	1822.69
396.18	1740.77
396.39	1925.09
396.60	2019.30
396.80	1865.70
397.01	1800.16
397.22	1861.60
397.43	1832.93
397.64	1716.20
397.84	1796.07
398.05	1849.32
398.26	1753.06
398.47	1767.40
398.67	1800.16
398.88	1767.40
399.09	1665.00
399.30	1665.00
399.51	1753.06
399.71	1607.66
399.92	1654.76
400.13	1728.49
400.34	1671.14
400.54	1710.05
400.75	1783.78
400.96	1744.87
401.17	1839.08
401.37	1728.49
401.58	1662.95
401.79	1697.77
402.00	1775.59
402.21	2013.15
402.41	2007.01
402.62	1902.56
402.83	2009.06
403.04	1990.63
403.24	2095.07
403.45	1839.08
403.66	1898.47
403.87	1912.80
404.07	1855.46
404.28	1867.75
404.49	1861.60
404.70	1830.88
404.90	1708.01
405.11	1693.67
405.32	1806.31
405.52	1656.81
405.73	1730.53
405.94	1660.90
406.15	1703.91
406.35	1746.92
406.56	1783.78
406.77	1714.15
406.98	1783.78
407.18	1642.47
407.39	1748.97
407.60	1634.28
407.80	1751.01
408.01	1626.09
408.22	1656.81
408.43	1671.14
408.63	1751.01
408.84	1736.68
409.05	1783.78
409.25	1716.20
409.46	1650.66
409.67	1570.79
409.88	1675.24
410.08	1753.06
410.29	1689.57
410.50	1759.21
410.70	1689.57
410.91	1675.24
411.12	1687.53
411.32	1710.05
411.53	1638.38
411.74	1845.22
411.95	1820.64
412.15	1769.44
412.36	1783.78
412.57	1800.16
412.77	1779.68
412.98	1738.73
413.19	1703.91
413.39	1771.49
413.60	1685.48
413.81	1861.60
414.01	1578.98
414.22	1669.09
414.43	1691.62
414.63	1644.52
414.84	1751.01
415.05	1712.10
415.25	1566.70
415.46	1722.34
415.67	1632.23
415.87	1751.01
416.08	1658.85
416.29	1685.48
416.49	1791.97
416.70	1677.29
416.91	1689.57
417.11	1695.72
417.32	1787.88
417.53	1851.36
417.73	1693.67
417.94	1744.87
418.15	1689.57
418.35	1683.43
418.56	1705.96
418.77	1853.41
418.97	1734.63
419.18	1685.48
419.38	1568.74
419.59	1693.67
419.80	1732.58
420.00	1691.62
420.21	1718.25
420.42	1753.06
420.62	1673.19
420.83	1658.85
421.04	1724.39
421.24	1710.05
421.45	1789.92
421.65	1746.92
421.86	1658.85
422.07	1638.38
422.27	1687.53
422.48	1726.44
422.69	1634.28
422.89	1720.29
423.10	1615.85
423.30	1646.57
423.51	1734.63
423.72	1779.68
423.92	1722.34
424.13	1654.76
424.33	1791.97
424.54	1761.25
424.75	1714.15
424.95	1820.64
425.16	1771.49
425.36	1728.49
425.57	1804.26
425.78	1697.77
425.98	1751.01
426.19	1742.82
426.39	1640.42
426.60	1650.66
426.81	1751.01
427.01	1685.48
427.22	1656.81
427.42	1581.03
427.63	1640.42
427.83	1773.54
428.04	1796.07
428.25	1828.84
428.45	1828.84
428.66	1718.25
428.86	1730.53
429.07	1746.92
429.28	1740.77
429.48	1683.43
429.69	1640.42
429.89	1638.38
430.10	1689.57
430.30	1724.39
430.51	1818.60
430.71	1755.11
430.92	1716.20
431.13	1738.73
431.33	1755.11
431.54	1650.66
431.74	1816.55
431.95	1757.16
432.15	1654.76
432.36	1734.63
432.56	1683.43
432.77	1755.11
432.98	1802.21
433.18	1699.81
433.39	1683.43
433.59	1701.86
433.80	1804.26
434.00	1806.31
434.21	1656.81
434.41	1681.38
434.62	1884.13
434.82	1681.38
435.03	1628.14
435.23	1769.44
435.44	1591.27
435.64	1728.49
435.85	1734.63
436.06	1791.97
436.26	1751.01
436.47	1636.33
436.67	1708.01
436.88	1658.85
437.08	1755.11
437.29	1824.74
437.49	1662.95
437.70	1736.68
437.90	1691.62
438.11	1873.89
438.31	1794.02
438.52	1828.84
438.72	1806.31
438.93	1861.60
439.13	1734.63
439.34	1773.54
439.54	1767.40
439.75	1748.97
439.95	1785.83
440.16	1712.10
440.36	1703.91
440.57	1806.31
440.77	1660.90
440.98	1742.82
441.18	1796.07
441.39	1703.91
441.59	1640.42
441.80	1796.07
442.00	1740.77
442.21	1796.07
442.41	1624.04
442.62	1730.53
442.82	1677.29
443.02	1703.91
443.23	1783.78
443.43	1734.63
443.64	1802.21
443.84	1646.57
444.05	1859.56
444.25	1800.16
444.46	1660.90
444.66	1705.96
444.87	1771.49
445.07	1695.72
445.28	1689.57
445.48	1820.64
445.69	1751.01
445.89	1863.65
446.09	1789.92
446.30	2054.11
446.50	2572.25
446.71	3710.92
446.91	4306.88
447.12	4786.10
447.32	4810.68
447.53	4339.65
447.73	3844.04
447.93	3583.95
448.14	3239.89
448.34	3196.88
448.55	3039.19
448.75	2852.82
448.96	2678.74
449.16	2387.93
449.36	2342.88
449.57	2002.91
449.77	1943.52
449.98	1787.88
450.18	1738.73
450.39	1837.03
450.59	1744.87
450.79	1751.01
451.00	1669.09
451.20	1753.06
451.41	1687.53
451.61	1787.88
451.81	1740.77
452.02	1681.38
452.22	1718.25
452.43	1632.23
452.63	1679.33
452.84	1689.57
453.04	1791.97
453.24	1673.19
453.45	1667.05
453.65	1738.73
453.86	1738.73
454.06	1710.05
454.26	1691.62
454.47	1716.20
454.67	1779.68
454.87	1695.72
455.08	1697.77
455.28	1816.55
455.49	1746.92
455.69	1695.72
455.89	1816.55
456.10	1761.25
456.30	1755.11
456.51	1746.92
456.71	1765.35
456.91	1798.12
457.12	1689.57
457.32	1785.83
457.52	1644.52
457.73	1736.68
457.93	1759.21
458.14	1767.40
458.34	1732.58
458.54	1673.19
458.75	1697.77
458.95	1822.69
459.15	1718.25
459.36	1802.21
459.56	1736.68
459.76	1837.03
459.97	1746.92
460.17	1720.29
460.37	1826.79
460.58	1693.67
460.78	1716.20
460.99	1697.77
461.19	1781.73
461.39	1740.77
461.60	1744.87
461.80	1746.92
462.00	1740.77
462.21	1820.64
462.41	1691.62
462.61	1662.95
462.82	1642.47
463.02	1761.25
463.22	1738.73
463.43	1712.10
463.63	1726.44
463.83	1732.58
464.04	1724.39
464.24	1710.05
464.44	1617.90
464.64	1771.49
464.85	1746.92
465.05	1753.06
465.25	1695.72
465.46	1644.52
465.66	1736.68
465.86	1767.40
466.07	1730.53
466.27	1736.68
466.47	1472.49
466.68	1646.57
466.88	1845.22
467.08	1730.53
467.29	1789.92
467.49	1773.54
467.69	1736.68
467.89	1744.87
468.10	1710.05
468.30	1693.67
468.50	1865.70
468.71	1791.97
468.91	1640.42
469.11	1746.92
469.31	1744.87
469.52	1646.57
469.72	1808.36
469.92	1867.75
470.13	1798.12
470.33	1755.11
470.53	1773.54
470.73	2043.87
470.94	2263.01
471.14	2318.30
471.34	2549.72
471.54	2340.83
471.75	2203.61
471.95	2152.42
472.15	2088.93
472.36	2111.46
472.56	2064.35
472.76	1980.39
472.96	2033.63
473.17	1964.00
473.37	1888.23
473.57	1886.18
473.77	1888.23
473.98	1775.59
474.18	1669.09
474.38	1882.08
474.58	1695.72
474.79	1705.96
474.99	1726.44
475.19	1828.84
475.39	1716.20
475.60	1699.81
475.80	1816.55
476.00	1708.01
476.20	1734.63
476.41	1767.40
476.61	1765.35
476.81	1834.98
477.01	1697.77
477.21	1877.99
477.42	1812.45
477.62	1640.42
477.82	1791.97
478.02	1724.39
478.23	1701.86
478.43	1607.66
478.63	1783.78
478.83	1755.11
479.03	1669.09
479.24	1769.44
479.44	1812.45
479.64	1638.38
479.84	1650.66
480.04	1699.81
480.25	1757.16
480.45	1640.42
480.65	1705.96
480.85	1755.11
481.06	1693.67
481.26	1796.07
481.46	1767.40
481.66	1697.77
481.86	1693.67
482.06	1738.73
482.27	1730.53
482.47	1636.33
482.67	1736.68
482.87	1693.67
483.07	1834.98
483.28	1720.29
483.48	1640.42
483.68	1742.82
483.88	1640.42
484.08	1603.56
484.29	1693.67
484.49	1710.05
484.69	1726.44
484.89	1751.01
485.09	1800.16
485.29	1771.49
485.50	1740.77
485.70	1675.24
485.90	1753.06
486.10	1742.82
486.30	1708.01
486.50	1773.54
486.71	1746.92
486.91	1701.86
487.11	1808.36
487.31	1714.15
487.51	1710.05
487.71	1728.49
487.91	1695.72
488.12	1675.24
488.32	1624.04
488.52	1730.53
488.72	1558.50
488.92	1736.68
489.12	1773.54
489.32	1773.54
489.53	1722.34
489.73	1628.14
489.93	1701.86
490.13	1654.76
490.33	1667.05
490.53	1722.34
490.73	1853.41
490.94	1613.80
491.14	1773.54
491.34	1832.93
491.54	2115.55
491.74	2551.77
491.94	2865.11
492.14	3106.77
492.34	3020.75
492.54	2734.04
492.75	2410.46
492.95	2404.32
493.15	2279.39
493.35	2234.33
493.55	2240.48
493.75	2043.87
493.95	2164.70
494.15	2000.87
494.35	1937.38
494.56	1824.74
494.76	1736.68
494.96	1845.22
495.16	1804.26
495.36	1738.73
495.56	1687.53
495.76	1742.82
495.96	1783.78
496.16	1712.10
496.36	1818.60
496.56	1722.34
496.77	1691.62
496.97	1773.54
497.17	1873.89
497.37	1593.32
497.57	1722.34
497.77	1794.02
497.97	1691.62
498.17	1708.01
498.37	1683.43
498.57	1736.68
498.77	1726.44
498.97	1761.25
499.17	1779.68
499.38	1671.14
499.58	1693.67
499.78	1773.54
499.98	1779.68
500.18	1673.19
500.38	1759.21
500.58	1886.18
500.78	2602.97
500.98	4599.74
501.18	5746.60
501.38	6666.14
501.58	7167.89
501.78	6612.89
501.98	5568.43
502.18	5021.62
502.38	4413.37
502.58	4151.23
502.78	3760.07
502.98	3631.05
503.18	3459.02
503.38	3250.13
503.59	2889.68
503.79	2629.59
503.99	2453.47
504.19	2330.59
504.39	2160.61
504.59	2176.99
504.79	2140.13
504.99	2033.63
505.19	1914.85
505.39	1898.47
505.59	1929.19
505.79	1871.84
505.99	1808.36
506.19	1796.07
506.39	1787.88
506.59	1722.34
506.79	1771.49
506.99	1814.50
507.19	1740.77
507.39	1828.84
507.59	1720.29
507.79	1722.34
507.99	1697.77
508.19	1748.97
508.39	1691.62
508.59	1654.76
508.79	1812.45
508.99	1843.17
509.19	1726.44
509.39	1751.01
509.59	1685.48
509.79	1697.77
509.99	1798.12
510.19	1771.49
510.39	1804.26
510.59	1738.73
510.79	1777.64
510.99	1699.81
511.19	1744.87
511.39	1830.88
511.59	1783.78
511.79	1810.40
511.99	1765.35
512.19	1773.54
512.38	1697.77
512.58	1732.58
512.78	1705.96
512.98	1832.93
513.18	1808.36
513.38	1662.95
513.58	1861.60
513.78	1677.29
513.98	1767.40
514.18	1794.02
514.38	1742.82
514.58	1712.10
514.78	1705.96
514.98	1662.95
515.18	1705.96
515.38	1603.56
515.58	1812.45
515.78	1693.67
515.98	1728.49
516.18	1746.92
516.38	1787.88
516.57	1658.85
516.77	1693.67
516.97	1785.83
517.17	1708.01
517.37	1628.14
517.57	1796.07
517.77	1673.19
517.97	1599.46
518.17	1742.82
518.37	1714.15
518.57	1691.62
518.77	1714.15
518.97	1675.24
519.16	1722.34
519.36	1783.78
519.56	1669.09
519.76	1669.09
519.96	1755.11
520.16	1849.32
520.36	1708.01
520.56	1775.59
520.76	1646.57
520.96	1740.77
521.16	1779.68
521.35	1738.73
521.55	1843.17
521.75	1716.20
521.95	1742.82
522.15	1671.14
522.35	1648.61
522.55	1644.52
522.75	1773.54
522.95	1730.53
523.14	1742.82
523.34	1789.92
523.54	1806.31
523.74	1802.21
523.94	1781.73
524.14	1646.57
524.34	1708.01
524.54	1837.03
524.73	1751.01
524.93	1746.92
525.13	1703.91
525.33	1611.75
525.53	1814.50
525.73	1826.79
525.93	1730.53
526.13	1685.48
526.32	1761.25
526.52	1843.17
526.72	1734.63
526.92	1773.54
527.12	1767.40
527.32	1691.62
527.52	1716.20
527.71	1746.92
527.91	1726.44
528.11	1703.91
528.31	1710.05
528.51	1667.05
528.71	1738.73
528.90	1822.69
529.10	1800.16
529.30	1808.36
529.50	1658.85
529.70	1703.91
529.90	1720.29
530.09	1722.34
530.29	1652.71
530.49	1683.43
530.69	1880.04
530.89	1722.34
531.09	1845.22
531.28	1683.43
531.48	1779.68
531.68	1742.82
531.88	1757.16
532.08	1742.82
532.28	1705.96
532.47	1714.15
532.67	1759.21
532.87	1751.01
533.07	1728.49
533.27	1777.64
533.46	1669.09
533.66	1753.06
533.86	1658.85
534.06	1714.15
534.26	1748.97
534.45	1683.43
534.65	1771.49
534.85	1724.39
535.05	1648.61
535.25	1757.16
535.44	1712.10
535.64	1689.57
535.84	1638.38
536.04	1761.25
536.24	1648.61
536.43	1695.72
536.63	1783.78
536.83	1667.05
537.03	1685.48
537.22	1599.46
537.42	1585.13
537.62	1744.87
537.82	1683.43
538.02	1800.16
538.21	1738.73
538.41	1871.84
538.61	1746.92
538.81	1718.25
539.00	1822.69
539.20	1699.81
539.40	1697.77
539.60	1810.40
539.79	1808.36
539.99	1726.44
540.19	1585.13
540.39	1681.38
540.58	1773.54
540.78	1798.12
540.98	1771.49
541.18	1714.15
541.37	1773.54
541.57	1771.49
541.77	1802.21
541.97	1689.57
542.16	1685.48
542.36	1771.49
542.56	1748.97
542.76	1812.45
542.95	1787.88
543.15	1828.84
543.35	1769.44
543.54	1673.19
543.74	1738.73
543.94	1734.63
544.14	1714.15
544.33	1722.34
544.53	1722.34
544.73	1800.16
544.93	1689.57
545.12	1703.91
545.32	1660.90
545.52	1695.72
545.71	1687.53
545.91	1652.71
546.11	1740.77
546.30	1734.63
546.50	1775.59
546.70	1765.35
546.90	1804.26
547.09	1652.71
547.29	1853.41
547.49	1826.79
547.68	1722.34
547.88	1710.05
548.08	1873.89
548.27	2086.88
548.47	1722.34
548.67	1705.96
548.87	1812.45
549.06	1722.34
549.26	1812.45
549.46	1773.54
549.65	1683.43
549.85	1654.76
550.05	1759.21
550.24	1648.61
550.44	1662.95
550.64	1740.77
550.83	1708.01
551.03	1851.36
551.23	1779.68
551.42	1708.01
551.62	1671.14
551.82	1751.01
552.01	1744.87
552.21	1814.50
552.41	1748.97
552.60	1812.45
552.80	1714.15
553.00	1685.48
553.19	1761.25
553.39	1804.26
553.59	1697.77
553.78	1632.23
553.98	1767.40
554.17	1751.01
554.37	1781.73
554.57	1771.49
554.76	1615.85
554.96	1693.67
555.16	1705.96
555.35	1650.66
555.55	1814.50
555.75	1720.29
555.94	1777.64
556.14	1632.23
556.33	1863.65
556.53	1771.49
556.73	1710.05
556.92	1787.88
557.12	1798.12
557.32	1824.74
557.51	1867.75
557.71	1773.54
557.90	1847.27
558.10	1757.16
558.30	1699.81
558.49	1665.00
558.69	1751.01
558.88	1755.11
559.08	1699.81
559.28	1697.77
559.47	1724.39
559.67	1757.16
559.86	1845.22
560.06	1703.91
560.26	1757.16
560.45	1781.73
560.65	1677.29
560.84	1789.92
561.04	1712.10
561.24	1720.29
561.43	1724.39
561.63	1769.44
561.82	1687.53
562.02	1767.40
562.22	1714.15
562.41	1654.76
562.61	1716.20
562.80	1656.81
563.00	1943.52
563.19	1673.19
563.39	1658.85
563.59	1685.48
563.78	1685.48
563.98	1679.33
564.17	1740.77
564.37	1683.43
564.56	1689.57
564.76	1611.75
564.96	1798.12
565.15	1769.44
565.35	1914.85
565.54	1789.92
565.74	1775.59
565.93	1796.07
566.13	1710.05
566.32	1777.64
566.52	1763.30
566.71	1757.16
566.91	1736.68
567.11	1773.54
567.30	1710.05
567.50	1767.40
567.69	1781.73
567.89	1724.39
568.08	1667.05
568.28	1767.40
568.47	1603.56
568.67	1767.40
568.86	1740.77
569.06	1742.82
569.25	1759.21
569.45	1705.96
569.64	1644.52
569.84	1755.11
570.04	1728.49
570.23	1751.01
570.43	1683.43
570.62	1771.49
570.82	1826.79
571.01	1687.53
571.21	1699.81
571.40	1748.97
571.60	1775.59
571.79	1798.12
571.99	1683.43
572.18	1708.01
572.38	1736.68
572.57	1753.06
572.77	1822.69
572.96	1912.80
573.16	1777.64
573.35	1685.48
573.55	1806.31
573.74	1716.20
573.94	1667.05
574.13	1697.77
574.33	1812.45
574.52	1746.92
574.71	1783.78
574.91	1765.35
575.10	1691.62
575.30	1685.48
575.49	1691.62
575.69	1718.25
575.88	1710.05
576.08	1726.44
576.27	1843.17
576.47	1755.11
576.66	1812.45
576.86	1886.18
577.05	1718.25
577.25	1757.16
577.44	1886.18
577.64	1665.00
577.83	1685.48
578.02	1775.59
578.22	1822.69
578.41	1855.46
578.61	1691.62
578.80	1636.33
579.00	1828.84
579.19	1767.40
579.39	1857.51
579.58	1849.32
579.77	1701.86
579.97	1820.64
580.16	1847.27
580.36	1791.97
580.55	1783.78
580.75	1800.16
580.94	1712.10
581.13	1841.12
581.33	1894.37
581.52	1728.49
581.72	1880.04
581.91	1839.08
582.11	1728.49
582.30	1800.16
582.49	1765.35
582.69	1851.36
582.88	1771.49
583.08	1777.64
583.27	1826.79
583.47	1708.01
583.66	1710.05
583.85	1621.99
584.05	1757.16
584.24	1773.54
584.44	1806.31
584.63	1755.11
584.82	1908.71
585.02	1822.69
585.21	1851.36
585.41	1877.99
585.60	1834.98
585.79	1873.89
585.99	1884.13
586.18	1816.55
586.37	2207.71
586.57	3401.68
586.76	9781.10
586.96	24608.39
587.15	34487.79
587.34	40566.16
587.54	42243.45
587.73	36885.97
587.93	26711.66
588.12	21388.99
588.31	18274.03
588.51	16410.37
588.70	15292.18
588.89	14321.45
589.09	12584.77
589.28	11077.46
589.47	9578.35
589.67	8087.43
589.86	6428.57
590.06	4997.04
590.25	3887.04
590.44	3211.22
590.64	2611.16
590.83	2281.44
591.02	2107.36
591.22	2021.35
591.41	1814.50
591.60	1789.92
591.80	1886.18
591.99	1728.49
592.18	1763.30
592.38	1787.88
592.57	1757.16
592.76	1775.59
592.96	1734.63
593.15	1771.49
593.34	1820.64
593.54	1755.11
593.73	1734.63
593.92	1765.35
594.12	1748.97
594.31	1763.30
594.50	1839.08
594.70	1759.21
594.89	1873.89
595.08	1630.18
595.28	1783.78
595.47	1869.80
595.66	1751.01
595.86	1691.62
596.05	1755.11
596.24	1703.91
596.43	1759.21
596.63	1763.30
596.82	1832.93
597.01	1763.30
597.21	1855.46
597.40	1820.64
597.59	1767.40
597.79	1646.57
597.98	1763.30
598.17	1699.81
598.36	1765.35
598.56	1820.64
598.75	1753.06
598.94	1796.07
599.14	1769.44
599.33	1742.82
599.52	1771.49
599.71	1728.49
599.91	1808.36
600.10	1791.97
600.29	1724.39
600.48	1761.25
600.68	1751.01
600.87	1736.68
601.06	1681.38
601.26	1808.36
601.45	1771.49
601.64	1660.90
601.83	1847.27
602.03	1775.59
602.22	1673.19
602.41	1726.44
602.60	1902.56
602.80	1853.41
602.99	1828.84
603.18	1732.58
603.37	1751.01
603.57	1699.81
603.76	1767.40
603.95	1824.74
604.14	1730.53
604.34	1710.05
604.53	1697.77
604.72	1738.73
604.91	1820.64
605.10	1771.49
605.30	1662.95
605.49	1859.56
605.68	1742.82
605.87	1785.83
606.07	1675.24
606.26	1740.77
606.45	1751.01
606.64	1744.87
606.84	1669.09
607.03	1759.21
607.22	1746.92
607.41	1693.67
607.60	1677.29
607.80	1765.35
607.99	1726.44
608.18	1775.59
608.37	1751.01
608.56	1669.09
608.76	1812.45
608.95	1828.84
609.14	1757.16
609.33	1771.49
609.52	1789.92
609.72	1675.24
609.91	1779.68
610.10	1769.44
610.29	1808.36
610.48	1695.72
610.68	1765.35
610.87	1712.10
611.06	1767.40
611.25	1777.64
611.44	1785.83
611.63	1669.09
611.83	1748.97
612.02	1681.38
612.21	1806.31
612.40	1611.75
612.59	1660.90
612.79	1691.62
612.98	1712.10
613.17	1787.88
613.36	1804.26
613.55	1808.36
613.74	1665.00
613.93	1652.71
614.13	1697.77
614.32	1767.40
614.51	1732.58
614.70	1771.49
614.89	1769.44
615.08	1724.39
615.28	2052.06
615.47	1585.13
615.66	1730.53
615.85	1724.39
616.04	1796.07
616.23	1699.81
616.42	1726.44
616.62	1640.42
616.81	1757.16
617.00	1671.14
617.19	1759.21
617.38	1697.77
617.57	1794.02
617.76	1753.06
617.95	1779.68
618.15	1746.92
618.34	1789.92
618.53	1673.19
618.72	1779.68
618.91	1771.49
619.10	1794.02
619.29	1703.91
619.48	1665.00
619.68	1660.90
619.87	1714.15
620.06	1617.90
620.25	1777.64
620.44	1669.09
620.63	1675.24
620.82	1726.44
621.01	1779.68
621.20	1648.61
621.39	1740.77
621.59	1746.92
621.78	1714.15
621.97	1783.78
622.16	1728.49
622.35	1812.45
622.54	1789.92
622.73	1820.64
622.92	1634.28
623.11	1751.01
623.30	1705.96
623.49	1703.91
623.68	1693.67
623.88	1814.50
624.07	1759.21
624.26	1679.33
624.45	1730.53
624.64	1642.47
624.83	1705.96
625.02	1685.48
625.21	1642.47
625.40	1708.01
625.59	1787.88
625.78	1757.16
625.97	1826.79
626.16	1755.11
626.35	1746.92
626.54	1746.92
626.74	1787.88
626.93	1656.81
627.12	1744.87
627.31	1804.26
627.50	1773.54
627.69	1746.92
627.88	1755.11
628.07	1777.64
628.26	1650.66
628.45	1583.08
628.64	1640.42
628.83	1712.10
629.02	1689.57
629.21	1767.40
629.40	1683.43
629.59	1681.38
629.78	1683.43
629.97	1785.83
630.16	1699.81
630.35	1646.57
630.54	1683.43
630.73	1656.81
630.92	1765.35
631.11	1683.43
631.30	1763.30
631.49	1703.91
631.68	1714.15
631.87	1783.78
632.06	1644.52
632.25	1783.78
632.44	1798.12
632.63	1691.62
632.82	1730.53
633.01	1753.06
633.20	1738.73
633.39	1683.43
633.58	1554.41
633.77	1728.49
633.96	1775.59
634.15	1742.82
634.34	1765.35
634.53	1732.58
634.72	1665.00
634.91	1632.23
635.10	1728.49
635.29	1783.78
635.48	1693.67
635.67	1689.57
635.86	1689.57
636.05	1791.97
636.24	1742.82
636.43	1691.62
636.62	1671.14
636.81	1638.38
637.00	1716.20
637.19	1730.53
637.38	1695.72
637.57	1748.97
637.76	1665.00
637.95	1675.24
638.14	1687.53
638.33	1636.33
638.52	1683.43
638.71	1646.57
638.89	1652.71
639.08	1845.22
639.27	1726.44
639.46	1757.16
639.65	1789.92
639.84	1761.25
640.03	1736.68
640.22	1757.16
640.41	1839.08
640.60	1613.80
640.79	1705.96
640.98	1720.29
641.17	1738.73
641.36	1705.96
641.55	1720.29
641.74	1665.00
641.92	1673.19
642.11	1689.57
642.30	1755.11
642.49	1703.91
642.68	1648.61
642.87	1705.96
643.06	1714.15
643.25	1624.04
643.44	1656.81
643.63	1714.15
643.82	1763.30
644.00	1746.92
644.19	1714.15
644.38	1679.33
644.57	1654.76
644.76	1695.72
644.95	1689.57
645.14	1742.82
645.33	1705.96
645.52	1697.77
645.71	1658.85
645.89	1734.63
646.08	1701.86
646.27	1708.01
646.46	1865.70
646.65	1634.28
646.84	1695.72
647.03	1748.97
647.22	1763.30
647.40	1712.10
647.59	1712.10
647.78	1660.90
647.97	1675.24
648.16	1695.72
648.35	1794.02
648.54	1744.87
648.73	1683.43
648.91	1677.29
649.10	1734.63
649.29	1703.91
649.48	1617.90
649.67	1771.49
649.86	1644.52
650.05	1628.14
650.23	1708.01
650.42	1662.95
650.61	1751.01
650.80	1695.72
650.99	1908.71
651.18	1826.79
651.36	1765.35
651.55	1675.24
651.74	1734.63
651.93	1753.06
652.12	1662.95
652.31	1658.85
652.49	1718.25
652.68	1695.72
652.87	1798.12
653.06	1681.38
653.25	1785.83
653.44	1728.49
653.62	1839.08
653.81	1693.67
654.00	1691.62
654.19	1746.92
654.38	1845.22
654.56	1734.63
654.75	1775.59
654.94	1710.05
655.13	1667.05
655.32	1710.05
655.51	1853.41
655.69	1716.20
655.88	1738.73
656.07	1597.42
656.26	1708.01
656.45	1648.61
656.63	1734.63
656.82	1724.39
657.01	1730.53
657.20	1665.00
657.38	1837.03
657.57	1691.62
657.76	1626.09
657.95	1736.68
658.14	1722.34
658.32	1683.43
658.51	1642.47
658.70	1730.53
658.89	1685.48
659.08	1728.49
659.26	1773.54
659.45	1619.94
659.64	1705.96
659.83	1697.77
660.01	1923.04
660.20	1753.06
660.39	1732.58
660.58	1656.81
660.76	1763.30
660.95	1646.57
661.14	1761.25
661.33	1578.98
661.51	1718.25
661.70	1675.24
661.89	1783.78
662.08	1769.44
662.26	1585.13
662.45	1640.42
662.64	1841.12
662.83	1806.31
663.01	1609.70
663.20	1691.62
663.39	1824.74
663.58	1662.95
663.76	1691.62
663.95	1746.92
664.14	1767.40
664.32	1665.00
664.51	1736.68
664.70	1581.03
664.89	1767.40
665.07	1609.70
665.26	1759.21
665.45	1662.95
665.64	1742.82
665.82	1712.10
666.01	1808.36
666.20	1660.90
666.38	1775.59
666.57	1802.21
666.76	2125.79
666.95	4462.52
667.13	10338.15
667.32	15380.25
667.51	17680.11
667.69	18972.38
667.88	17759.98
668.07	12308.29
668.25	9531.25
668.44	8175.49
668.63	7450.51
668.81	6866.84
669.00	6313.89
669.19	5683.11
669.38	5144.50
669.56	4356.03
669.75	4024.26
669.94	3465.16
670.12	2914.26
670.31	2519.00
670.50	2224.09
670.68	2076.64
670.87	1845.22
671.06	1847.27
671.24	1765.35
671.43	1865.70
671.62	1777.64
671.80	1675.24
671.99	1626.09
672.18	1849.32
672.36	1855.46
672.55	1789.92
672.74	1773.54
672.92	1683.43
673.11	1798.12
673.29	1640.42
673.48	1697.77
673.67	1742.82
673.85	1728.49
674.04	1628.14
674.23	1689.57
674.41	1791.97
674.60	1675.24
674.79	1556.46
674.97	1722.34
675.16	1785.83
675.34	1773.54
675.53	1638.38
675.72	1804.26
675.90	1781.73
676.09	1724.39
676.28	1808.36
676.46	1687.53
676.65	1714.15
676.83	1679.33
677.02	1624.04
677.21	1724.39
677.39	1779.68
677.58	1667.05
677.77	1697.77
677.95	1632.23
678.14	1759.21
678.32	1660.90
678.51	1701.86
678.70	1853.41
678.88	1669.09
679.07	1767.40
679.25	1691.62
679.44	1634.28
679.63	1626.09
679.81	1697.77
680.00	1837.03
680.18	1767.40
680.37	1773.54
680.55	1710.05
680.74	1652.71
680.93	1660.90
681.11	1675.24
681.30	1740.77
681.48	1763.30
681.67	1712.10
681.85	1691.62
682.04	1628.14
682.23	1740.77
682.41	1767.40
682.60	1703.91
682.78	1650.66
682.97	1607.66
683.15	1689.57
683.34	1787.88
683.53	1818.60
683.71	1595.37
683.90	1718.25
684.08	1761.25
684.27	1671.14
684.45	1738.73
684.64	1751.01
684.82	1685.48
685.01	1738.73
685.19	1720.29
685.38	1796.07
685.57	1675.24
685.75	1675.24
685.94	1697.77
686.12	1681.38
686.31	1650.66
686.49	1746.92
686.68	1587.18
686.86	1771.49
687.05	1640.42
687.23	1787.88
687.42	1708.01
687.60	1634.28
687.79	1703.91
687.97	1814.50
688.16	1746.92
688.34	1740.77
688.53	1607.66
688.71	1697.77
688.90	1761.25
689.08	1716.20
689.27	1599.46
689.45	1728.49
689.64	1757.16
689.82	1753.06
690.01	1763.30
690.19	1730.53
690.38	1701.86
690.56	1728.49
690.75	1701.86
690.93	1726.44
691.12	1751.01
691.30	1802.21
691.49	1648.61
691.67	1701.86
691.86	1808.36
692.04	1675.24
692.23	1636.33
692.41	1705.96
692.60	1857.51
692.78	1783.78
692.97	1703.91
693.15	1765.35
693.34	1794.02
693.52	1671.14
693.71	1599.46
693.89	1685.48
694.08	1558.50
694.26	1767.40
694.44	1724.39
694.63	1740.77
694.81	1658.85
695.00	1644.52
695.18	1794.02
695.37	1789.92
695.55	1681.38
695.74	1746.92
695.92	1642.47
696.10	1714.15
696.29	1624.04
696.47	1611.75
696.66	1691.62
696.84	1693.67
697.03	1660.90
697.21	1837.03
697.40	2312.16
697.58	1787.88
697.76	1624.04
697.95	1681.38
698.13	1665.00
698.32	1675.24
698.50	1746.92
698.68	1744.87
698.87	1722.34
699.05	1757.16
699.24	1669.09
699.42	1646.57
699.61	1648.61
699.79	1650.66
699.97	1730.53
700.16	1640.42
700.34	1656.81
700.53	1693.67
700.71	1763.30
700.89	1734.63
701.08	1730.53
701.26	1781.73
701.45	2111.46
701.63	1697.77
701.81	1667.05
702.00	1675.24
702.18	1660.90
702.37	1638.38
702.55	1720.29
702.73	1759.21
702.92	1679.33
703.10	1716.20
703.28	1718.25
703.47	1640.42
703.65	1845.22
703.84	1687.53
704.02	1738.73
704.20	1773.54
704.39	1671.14
704.57	1708.01
704.75	1691.62
704.94	1796.07
705.12	1656.81
705.30	1830.88
705.49	2189.28
705.67	4339.65
705.86	9404.27
706.04	12484.42
706.22	14466.85
706.41	15388.44
706.59	13899.56
706.77	9740.14
706.96	7387.02
707.14	6662.04
707.32	6012.84
707.51	5611.43
707.69	4939.70
707.87	4196.29
708.06	3590.09
708.24	2854.87
708.42	2519.00
708.61	2242.53
708.79	1871.84
708.97	1937.38
709.16	1810.40
709.34	1748.97
709.52	1693.67
709.71	1685.48
709.89	1794.02
710.07	1701.86
710.26	1691.62
710.44	1738.73
710.62	1755.11
710.80	1728.49
710.99	1767.40
711.17	1734.63
711.35	1595.37
711.54	1658.85
711.72	1796.07
711.90	1732.58
712.09	1720.29
712.27	1685.48
712.45	1689.57
712.63	1673.19
712.82	1691.62
713.00	1740.77
713.18	1789.92
713.37	1736.68
713.55	1812.45
713.73	1685.48
713.91	1785.83
714.10	1693.67
714.28	1714.15
714.46	1751.01
714.65	1714.15
714.83	1699.81
715.01	1685.48
715.19	1701.86
715.38	1636.33
715.56	1757.16
715.74	1695.72
715.92	1621.99
716.11	1714.15
716.29	1630.18
716.47	1736.68
716.65	1675.24
716.84	1615.85
717.02	1701.86
717.20	1650.66
717.38	1646.57
717.57	1740.77
717.75	1705.96
717.93	1689.57
718.11	1785.83
718.30	1630.18
718.48	1734.63
718.66	1755.11
718.84	1746.92
719.03	1730.53
719.21	1667.05
719.39	1820.64
719.57	1742.82
719.75	1734.63
719.94	1660.90
720.12	1748.97
720.30	1724.39
720.48	1755.11
720.67	1681.38
720.85	1568.74
721.03	1689.57
721.21	1675.24
721.39	1785.83
721.58	1718.25
721.76	1708.01
721.94	1648.61
722.12	1726.44
722.30	1740.77
722.49	1662.95
722.67	1720.29
722.85	1746.92
723.03	1615.85
723.21	1667.05
723.40	1755.11
723.58	1699.81
723.76	1738.73
723.94	1667.05
724.12	1718.25
724.30	1781.73
724.49	1771.49
724.67	1632.23
724.85	1814.50
725.03	1578.98
725.21	1734.63
725.40	1806.31
725.58	1734.63
725.76	1826.79
725.94	1759.21
726.12	1656.81
726.30	1693.67
726.49	1753.06
726.67	1648.61
726.85	1726.44
727.03	1748.97
727.21	2117.60
727.39	2920.40
727.57	3809.22
727.76	4153.28
727.94	4335.55
728.12	4442.04
728.30	3739.59
728.48	2990.03
728.66	2791.38
728.84	2539.48
729.03	2371.55
729.21	2107.36
729.39	2007.01
729.57	1820.64
729.75	1812.45
729.93	1933.28
730.11	1714.15
730.30	1703.91
730.48	1708.01
730.66	1726.44
730.84	1748.97
731.02	1701.86
731.20	1628.14
731.38	1744.87
731.56	1576.94
731.74	1564.65
731.93	1699.81
732.11	1728.49
732.29	1705.96
732.47	1746.92
732.65	1724.39
732.83	1738.73
733.01	1654.76
733.19	1679.33
733.37	1673.19
733.56	1748.97
733.74	1656.81
733.92	1826.79
734.10	1699.81
734.28	1687.53
734.46	1597.42
734.64	1685.48
734.82	1681.38
735.00	1626.09
735.18	1701.86
735.36	1675.24
735.54	1683.43
735.73	1769.44
735.91	1722.34
736.09	1767.40
736.27	1730.53
736.45	1699.81
736.63	1628.14
736.81	1734.63
736.99	1687.53
737.17	1775.59
737.35	1658.85
737.53	1669.09
737.71	1710.05
737.89	1753.06
738.07	1693.67
738.25	1646.57
738.43	1662.95
738.61	1654.76
738.80	1701.86
738.98	1538.02
739.16	1726.44
739.34	1607.66
739.52	1771.49
739.70	1710.05
739.88	1771.49
740.06	1804.26
740.24	1662.95
740.42	1759.21
740.60	1671.14
740.78	1748.97
740.96	1607.66
741.14	1683.43
741.32	1658.85
741.50	1619.94
741.68	1855.46
741.86	1708.01
742.04	1613.80
742.22	1689.57
742.40	1740.77
742.58	1697.77
742.76	1669.09
742.94	1718.25
743.12	1583.08
743.30	1628.14
743.48	1724.39
743.66	1654.76
743.84	1722.34
744.02	1681.38
744.20	1699.81
744.38	1669.09
744.56	1693.67
744.74	1796.07
744.92	1746.92
745.10	1785.83
745.28	1710.05
745.46	1791.97
745.64	1681.38
745.82	1738.73
746.00	1748.97
746.18	1671.14
746.36	1742.82
746.54	1800.16
746.72	1753.06
746.90	1705.96
747.08	1818.60
747.26	1685.48
747.44	1761.25
747.62	1779.68
747.80	1714.15
747.98	1759.21
748.15	1624.04
748.33	1791.97
748.51	1769.44
748.69	1738.73
748.87	1650.66
749.05	1697.77
749.23	1691.62
749.41	1775.59
749.59	1689.57
749.77	1783.78
749.95	1658.85
750.13	1687.53
750.31	1689.57
750.49	1621.99
750.67	1710.05
750.85	1806.31
751.03	1740.77
751.20	1814.50
751.38	1667.05
751.56	1681.38
751.74	1742.82
751.92	1736.68
752.10	1658.85
752.28	1751.01
752.46	1685.48
752.64	1765.35
752.82	1648.61
753.00	1761.25
753.18	1757.16
753.35	1757.16
753.53	1687.53
753.71	1746.92
753.89	1648.61
754.07	1722.34
754.25	1720.29
754.43	1742.82
754.61	1566.70
754.79	1744.87
754.97	1634.28
755.14	1798.12
755.32	1634.28
755.50	1724.39
755.68	1832.93
755.86	1593.32
756.04	1595.37
756.22	1626.09
756.40	1757.16
756.57	1791.97
756.75	1646.57
756.93	1779.68
757.11	1708.01
757.29	1662.95
757.47	1613.80
757.65	1558.50
757.82	1589.22
758.00	1644.52
758.18	1697.77
758.36	1642.47
758.54	1783.78
758.72	1652.71
758.90	1755.11
759.07	1689.57
759.25	1601.51
759.43	1667.05
759.61	1671.14
759.79	2193.37
759.97	1683.43
760.15	1677.29
760.32	1685.48
760.50	1689.57
760.68	1730.53
760.86	1601.51
761.04	1765.35
761.22	1722.34
761.39	1726.44
761.57	1662.95
761.75	1742.82
761.93	1681.38
762.11	1656.81
762.28	1714.15
762.46	1648.61
762.64	1742.82
762.82	1660.90
763.00	1683.43
763.18	1789.92
763.35	1619.94
763.53	1755.11
763.71	1773.54
763.89	1697.77
764.07	1769.44
764.24	1660.90
764.42	1746.92
764.60	1718.25
764.78	1742.82
764.96	1722.34
765.13	1798.12
765.31	1697.77
765.49	1775.59
765.67	1701.86
765.84	1687.53
766.02	1740.77
766.20	1585.13
766.38	1691.62
766.56	1734.63
766.73	1730.53
766.91	1626.09
767.09	1757.16
767.27	1771.49
767.44	1593.32
767.62	1705.96
767.80	1781.73
767.98	1658.85
768.15	1628.14
768.33	1753.06
768.51	1740.77
768.69	1689.57
768.87	1689.57
769.04	1652.71
769.22	1853.41
769.40	1751.01
769.58	1837.03
769.75	1730.53
769.93	1783.78
770.11	1701.86
770.28	1632.23
770.46	1751.01
770.64	1705.96
770.82	1744.87
770.99	1681.38
771.17	1744.87
771.35	1640.42
771.53	1689.57
771.70	1705.96
771.88	1673.19
772.06	1669.09
772.23	1714.15
772.41	1691.62
772.59	1691.62
772.77	1583.08
772.94	1640.42
773.12	1701.86
773.30	1671.14
773.47	1736.68
773.65	1667.05
773.83	1804.26
774.01	1708.01
774.18	1613.80
774.36	1697.77
774.54	1611.75
774.71	1669.09
774.89	1558.50
775.07	1660.90
775.24	1593.32
775.42	1603.56
775.60	1771.49
775.78	1599.46
775.95	1644.52
776.13	1621.99
776.31	1558.50
776.48	1634.28
776.66	1730.53
776.84	1640.42
777.01	1677.29
777.19	1632.23
777.37	1634.28
777.54	1767.40
777.72	1845.22
777.90	1685.48
778.07	1681.38
778.25	1896.42
778.43	1773.54
778.60	1689.57
778.78	1705.96
778.96	1718.25
779.13	1626.09
779.31	1773.54
779.49	1681.38
779.66	1697.77
779.84	1628.14
780.01	1638.38
780.19	1652.71
780.37	1718.25
780.54	1677.29
780.72	1671.14
780.90	1701.86
781.07	1701.86
781.25	1708.01
781.43	1781.73
781.60	1744.87
781.78	1777.64
781.95	1757.16
782.13	1656.81
782.31	1699.81
782.48	1558.50
782.66	1642.47
782.83	1761.25
783.01	1701.86
783.19	1726.44
783.36	1697.77
783.54	1644.52
783.72	1773.54
783.89	1671.14
784.07	1650.66
784.24	1775.59
784.42	1806.31
784.60	1658.85
784.77	1726.44
784.95	1589.22
785.12	1697.77
785.30	1695.72
785.47	1630.18
785.65	1658.85
785.83	1685.48
786.00	1574.89
786.18	1714.15
786.35	1615.85
786.53	1656.81
786.71	1785.83
786.88	1726.44
787.06	1720.29
787.23	1628.14
787.41	1642.47
787.58	1699.81
787.76	1652.71
787.94	1748.97
788.11	1701.86
788.29	1683.43
788.46	1648.61
788.64	1595.37
788.81	1628.14
788.99	1701.86
789.16	1646.57
789.34	1667.05
789.52	1572.84
789.69	1726.44
789.87	1572.84
790.04	1630.18
790.22	1689.57
790.39	1824.74
790.57	1624.04
790.74	1730.53
790.92	1757.16
791.09	1640.42
791.27	1660.90
791.44	1796.07
791.62	1632.23
791.79	1744.87
791.97	1689.57
792.15	1886.18
792.32	1683.43
792.50	1730.53
792.67	1785.83
792.85	1789.92
793.02	1753.06
793.20	1677.29
793.37	1660.90
793.55	1734.63
793.72	1581.03
793.90	1728.49
794.07	1660.90
794.25	1691.62
794.42	1660.90
794.60	1695.72
794.77	1677.29
794.95	1765.35
795.12	1724.39
795.30	1667.05
795.47	1597.42
795.65	1888.23
795.82	1746.92
796.00	1624.04
796.17	1703.91
796.34	1624.04
796.52	1662.95
796.69	1779.68
796.87	1732.58
797.04	1740.77
797.22	1714.15
797.39	1669.09
797.57	1665.00
797.74	1759.21
797.92	1791.97
798.09	1652.71
798.27	1746.92
798.44	1712.10
798.62	1654.76
798.79	1716.20
798.96	1683.43
799.14	1587.18
799.31	1824.74
799.49	1675.24
799.66	1738.73
799.84	1675.24
800.01	1652.71
800.19	1695.72
800.36	1599.46
800.53	1697.77
800.71	1646.57
800.88	1820.64
801.06	1720.29
801.23	1687.53
801.41	1667.05
801.58	1677.29
801.75	1605.61
801.93	1685.48
802.10	1800.16
802.28	1697.77
802.45	1660.90
802.63	1738.73
802.80	1783.78
802.97	1691.62
803.15	1658.85
803.32	1691.62
803.50	1658.85
803.67	1658.85
803.84	1628.14
804.02	1759.21
804.19	1689.57
804.37	1591.27
804.54	1621.99
804.71	1714.15
804.89	1689.57
805.06	1675.24
805.24	1656.81
805.41	1742.82
805.58	1585.13
805.76	1826.79
805.93	1716.20
806.10	1824.74
806.28	1718.25
806.45	1640.42
806.63	1726.44
806.80	1685.48
806.97	1814.50
807.15	1808.36
807.32	1630.18
807.49	1720.29
807.67	1650.66
807.84	1697.77
808.01	1564.65
808.19	1837.03
808.36	1820.64
808.54	1763.30
808.71	1738.73
808.88	1660.90
809.06	1777.64
809.23	1761.25
809.40	1652.71
809.58	1775.59
809.75	1658.85
809.92	1638.38
810.10	1890.28
810.27	1689.57
810.44	1693.67
810.62	1691.62
810.79	1683.43
810.96	1691.62
811.14	1665.00
811.31	1714.15
811.48	1769.44
811.66	1695.72
811.83	1712.10
812.00	1757.16
812.18	1722.34
812.35	1775.59
812.52	1683.43
812.69	1615.85
812.87	1726.44
813.04	1675.24
813.21	1689.57
813.39	1667.05
813.56	1648.61
813.73	1800.16
813.91	1603.56
814.08	1658.85
814.25	1755.11
814.42	1658.85
814.60	1626.09
814.77	1714.15
814.94	1697.77
815.12	1607.66
815.29	1810.40
815.46	1628.14
815.63	1705.96
815.81	1640.42
815.98	1671.14
816.15	1718.25
816.33	1732.58
816.50	1689.57
816.67	1648.61
816.84	1732.58
817.02	1619.94
817.19	1656.81
817.36	1740.77
817.53	1693.67
817.71	1613.80
817.88	1726.44
818.05	1718.25
818.22	1697.77
818.40	1804.26
818.57	1640.42
818.74	1683.43
818.91	1738.73
819.09	1769.44
819.26	1689.57
819.43	1652.71
819.60	1626.09
819.78	1753.06
819.95	1798.12
820.12	1660.90
820.29	1746.92
820.47	1763.30
820.64	1689.57
820.81	1667.05
820.98	1624.04
821.15	1617.90
821.33	1767.40
821.50	1609.70
821.67	1683.43
821.84	1650.66
822.02	1738.73
822.19	1796.07
822.36	1716.20
822.53	1640.42
822.70	1642.47
822.88	1681.38
823.05	1763.30
823.22	1650.66
823.39	1775.59
823.56	1724.39
823.74	1832.93
823.91	1650.66
824.08	1636.33
824.25	1689.57
824.42	1714.15
824.60	1638.38
824.77	1757.16
824.94	1669.09
825.11	1710.05
825.28	1593.32
825.45	1701.86
825.63	1701.86
825.80	1658.85
825.97	1714.15
826.14	1656.81
826.31	1650.66
826.48	1689.57
826.66	1667.05
826.83	1701.86
827.00	1701.86
827.17	1708.01
827.34	1714.15
827.51	1665.00
827.69	1646.57
827.86	1572.84
828.03	1691.62
828.20	1656.81
828.37	1654.76
828.54	1652.71
828.71	1669.09
828.89	1753.06
829.06	1685.48
829.23	1773.54
829.40	1654.76
829.57	1650.66
829.74	1734.63
829.91	1685.48
830.09	1718.25
830.26	1701.86
830.43	1738.73
830.60	1671.14
830.77	1720.29
830.94	1767.40
831.11	1658.85
831.28	1562.60
831.46	1730.53
831.63	1644.52
831.80	1701.86
831.97	1708.01
832.14	1755.11
832.31	1716.20
832.48	1703.91
832.65	1765.35
832.82	1753.06
832.99	1732.58
833.17	1632.23
833.34	1773.54
833.51	1703.91
833.68	1587.18
833.85	1767.40
834.02	1695.72
834.19	1599.46
834.36	1570.79
834.53	1638.38
834.70	1761.25
834.87	1710.05
835.04	1689.57
835.22	1619.94
835.39	1693.67
835.56	1632.23
835.73	1677.29
835.90	1716.20
836.07	1695.72
836.24	1816.55
836.41	1589.22
836.58	1644.52
836.75	1714.15
836.92	1722.34
837.09	1611.75
837.26	1665.00
837.43	1671.14
837.60	1689.57
837.77	1636.33
837.94	1714.15
838.12	1804.26
838.29	1763.30
838.46	1751.01
838.63	1607.66
838.80	1865.70
838.97	1712.10
839.14	1681.38
839.31	1632.23
839.48	1628.14
839.65	1642.47
839.82	1781.73
839.99	1697.77
840.16	1775.59
840.33	1730.53
840.50	1693.67
840.67	1685.48
840.84	1634.28
841.01	1605.61
841.18	1658.85
841.35	1632.23
841.52	1771.49
841.69	1730.53
841.86	1771.49
842.03	1607.66
842.20	1828.84
842.37	1685.48
842.54	1724.39
842.71	1691.62
842.88	1628.14
843.05	1716.20
843.22	1675.24
843.39	1742.82
843.56	1687.53
843.73	1757.16
843.90	1708.01
844.07	1695.72
844.24	1732.58
844.41	1732.58
844.58	1685.48
844.75	1703.91
844.92	1718.25
845.09	1681.38
845.26	1714.15
845.43	1791.97
845.60	1685.48
845.77	1734.63
845.94	1669.09
846.10	1765.35
846.27	1601.51
846.44	1654.76
846.61	1667.05
846.78	1789.92
846.95	1712.10
847.12	1681.38
847.29	1712.10
847.46	1607.66
847.63	1718.25
847.80	1671.14
847.97	1738.73
848.14	1779.68
848.31	1576.94
848.48	1621.99
848.65	1697.77
848.82	1599.46
848.98	1886.18
849.15	1781.73
849.32	1830.88
849.49	1714.15
849.66	1728.49
849.83	1681.38
850.00	1691.62
850.17	1654.76
850.34	1740.77
850.51	1718.25
850.68	1677.29
850.85	1794.02
851.01	1722.34
851.18	1748.97
851.35	1669.09
851.52	1740.77
851.69	1730.53
851.86	1677.29
852.03	1685.48
852.20	1746.92
852.37	1699.81
852.53	1624.04
852.70	1728.49
852.87	1677.29
853.04	1691.62
853.21	1667.05
853.38	1656.81
853.55	1808.36
853.72	1820.64
853.89	1558.50
854.05	1648.61
854.22	1650.66
854.39	1605.61
854.56	1755.11
854.73	1779.68
854.90	1591.27
855.07	1642.47
855.23	1718.25
855.40	1765.35
855.57	1703.91
855.74	1642.47
855.91	1851.36
856.08	1671.14
856.25	1665.00
856.41	1681.38
856.58	1703.91
856.75	1667.05
856.92	1603.56
857.09	1751.01
857.26	1640.42
857.42	1662.95
857.59	1687.53
857.76	1673.19
857.93	1734.63
858.10	1705.96
858.27	1677.29
858.43	1650.66
858.60	1658.85
858.77	1613.80
858.94	1679.33
859.11	1722.34
859.27	1621.99
859.44	1763.30
859.61	1869.80
859.78	1759.21
859.95	1624.04
860.12	1652.71
860.28	1791.97
860.45	1777.64
860.62	1605.61
860.79	1697.77
860.95	1677.29
861.12	1621.99
861.29	1751.01
861.46	1701.86
861.63	1679.33
861.79	1714.15
861.96	1658.85
862.13	1615.85
862.30	1757.16
862.47	1658.85
862.63	1581.03
862.80	1757.16
862.97	1708.01
863.14	1683.43
863.30	1720.29
863.47	1691.62
863.64	1822.69
863.81	1683.43
863.97	1603.56
864.14	1777.64
864.31	1613.80
864.48	1751.01
864.65	1578.98
864.81	1714.15
864.98	1726.44
865.15	1763.30
865.32	1662.95
865.48	1800.16
865.65	1771.49
865.82	1595.37
865.98	1697.77
866.15	1742.82
866.32	1720.29
866.49	1642.47
866.65	1716.20
866.82	1665.00
866.99	1695.72
867.16	1660.90
867.32	1638.38
867.49	1650.66
867.66	1755.11
867.83	1693.67
867.99	1665.00
868.16	1624.04
868.33	1650.66
868.49	1640.42
868.66	1644.52
868.83	1806.31
868.99	1740.77
869.16	1724.39
869.33	1796.07
869.50	1748.97
869.66	1697.77
869.83	1705.96
870.00	1687.53
870.16	1708.01
870.33	1697.77
870.50	1789.92
870.66	1789.92
870.83	1851.36
871.00	1689.57
871.17	1804.26
871.33	1720.29
871.50	1683.43
871.67	1703.91
871.83	1650.66
872.00	1791.97
872.17	1693.67
872.33	1763.30
872.50	1697.77
872.67	1687.53
872.83	1685.48
873.00	1660.90
873.17	1738.73
873.33	1767.40
873.50	1685.48
873.67	1648.61
873.83	1660.90
874.00	1564.65
874.16	1710.05
874.33	1730.53
874.50	1626.09
874.66	1722.34
874.83	1697.77
875.00	1767.40
875.16	1746.92
875.33	1693.67
875.50	1570.79
875.66	1617.90
875.83	1636.33
875.99	1705.96
876.16	1697.77
876.33	1603.56
876.49	1677.29
876.66	1761.25
876.83	1710.05
876.99	1712.10
877.16	1648.61
877.32	1714.15
877.49	1652.71
877.66	1636.33
877.82	1759.21
877.99	1718.25
878.15	1734.63
878.32	1687.53
878.49	1736.68
878.65	1714.15
878.82	1791.97
878.98	1636.33
879.15	1714.15
879.32	1724.39
879.48	1677.29
879.65	1621.99
879.81	1695.72
879.98	1662.95
880.15	1701.86
880.31	1726.44
880.48	1640.42
880.64	1888.23
880.81	1783.78
880.97	1789.92
881.14	1783.78
881.31	1617.90
881.47	1738.73
881.64	1597.42
881.80	1609.70
881.97	1712.10
882.13	1748.97
882.30	1624.04
882.47	1665.00
882.63	1578.98
882.80	1673.19
882.96	1689.57
883.13	1714.15
883.29	1744.87
883.46	1634.28
883.62	1771.49
883.79	1748.97
883.95	1736.68
884.12	1669.09
884.29	1820.64
884.45	1658.85
884.62	1708.01
884.78	1683.43
884.95	1783.78
885.11	1613.80
885.28	1646.57
885.44	1624.04
885.61	1718.25
885.77	1828.84
885.94	1720.29
886.10	1650.66
886.27	1705.96
886.43	1787.88
886.60	1722.34
886.76	1642.47
886.93	1685.48
887.09	1779.68
887.26	1677.29
887.42	1718.25
887.59	1728.49
887.75	1875.94
887.92	1714.15
888.08	1779.68
888.25	1746.92
888.41	1728.49
888.58	1695.72
888.74	1658.85
888.91	1619.94
>>>>>End Processed Spectral Data<<<<<
