SpectraSuite Data File
++++++++++++++++++++++++++++++++++++
Date: Mon Jun 06 16:31:17 CEST 2016
User: root
Dark Spectrum Present: No
Reference Spectrum Present: No
Number of Sampled Component Spectra: 1
Spectrometers: USB4C02835
Integration Time (usec): 100000 (USB4C02835)
Spectra Averaged: 1 (USB4C02835)
Boxcar Smoothing: 0 (USB4C02835)
Correct for Electrical Dark: No (USB4C02835)
Strobe/Lamp Enabled: No (USB4C02835)
Correct for Detector Non-linearity: No (USB4C02835)
Correct for Stray Light: No (USB4C02835)
Number of Pixels in Processed Spectrum: 3648
>>>>>Begin Processed Spectral Data<<<<<
177.47	1546.22
177.69	1546.22
177.91	1546.22
178.13	1374.19
178.36	1468.39
178.58	1695.72
178.80	1724.39
179.02	1710.05
179.24	1669.09
179.46	1724.39
179.68	1771.49
179.90	1699.81
180.13	1681.38
180.35	1650.66
180.57	1744.87
180.79	1753.06
181.01	1703.91
181.23	1732.58
181.45	1814.50
181.67	1742.82
181.90	1720.29
182.12	1697.77
182.34	1681.38
182.56	1785.83
182.78	1732.58
183.00	1658.85
183.22	1740.77
183.44	1640.42
183.66	1871.84
183.89	1746.92
184.11	1718.25
184.33	1718.25
184.55	1718.25
184.77	1718.25
184.99	1621.99
185.21	1683.43
185.43	1785.83
185.65	1652.71
185.87	1648.61
186.10	1818.60
186.32	1849.32
186.54	1679.33
186.76	1726.44
186.98	1787.88
187.20	1662.95
187.42	1695.72
187.64	1697.77
187.86	1761.25
188.08	1738.73
188.30	1681.38
188.52	1705.96
188.75	1714.15
188.97	1834.98
189.19	1728.49
189.41	1687.53
189.63	1662.95
189.85	1732.58
190.07	1687.53
190.29	1671.14
190.51	1763.30
190.73	1628.14
190.95	1800.16
191.17	1726.44
191.39	1548.26
191.61	1638.38
191.84	1673.19
192.06	1798.12
192.28	1585.13
192.50	1933.28
192.72	1734.63
192.94	1660.90
193.16	1740.77
193.38	1722.34
193.60	1677.29
193.82	1771.49
194.04	1726.44
194.26	1693.67
194.48	1728.49
194.70	1640.42
194.92	1757.16
195.14	1705.96
195.36	1724.39
195.58	1830.88
195.80	1634.28
196.02	1646.57
196.24	1685.48
196.46	1730.53
196.69	1638.38
196.91	1896.42
197.13	1730.53
197.35	1730.53
197.57	1834.98
197.79	1744.87
198.01	1673.19
198.23	1751.01
198.45	1746.92
198.67	1642.47
198.89	1740.77
199.11	1699.81
199.33	1722.34
199.55	1630.18
199.77	1714.15
199.99	1794.02
200.21	1615.85
200.43	1751.01
200.65	1650.66
200.87	1546.22
201.09	1728.49
201.31	1703.91
201.53	1755.11
201.75	1673.19
201.97	1724.39
202.19	1738.73
202.41	1726.44
202.63	1824.74
202.85	1685.48
203.07	1751.01
203.29	1677.29
203.51	1703.91
203.73	1646.57
203.95	1945.57
204.17	1718.25
204.39	1677.29
204.61	1646.57
204.83	1601.51
205.05	1675.24
205.27	1818.60
205.49	1839.08
205.71	1763.30
205.93	1695.72
206.15	1675.24
206.37	1703.91
206.59	1693.67
206.81	1652.71
207.03	1603.56
207.25	1675.24
207.47	1810.40
207.69	1744.87
207.91	1798.12
208.13	1775.59
208.34	1603.56
208.56	1740.77
208.78	1740.77
209.00	1636.33
209.22	1712.10
209.44	1728.49
209.66	1687.53
209.88	1681.38
210.10	1746.92
210.32	1712.10
210.54	1724.39
210.76	1656.81
210.98	1722.34
211.20	1619.94
211.42	1697.77
211.64	1851.36
211.86	1695.72
212.08	1851.36
212.30	1675.24
212.52	1705.96
212.74	1761.25
212.96	1787.88
213.17	1767.40
213.39	1826.79
213.61	1763.30
213.83	1773.54
214.05	1638.38
214.27	1779.68
214.49	1687.53
214.71	1712.10
214.93	1851.36
215.15	1662.95
215.37	1804.26
215.59	1695.72
215.81	1751.01
216.03	1708.01
216.24	1714.15
216.46	1677.29
216.68	1746.92
216.90	1808.36
217.12	1691.62
217.34	1755.11
217.56	1728.49
217.78	1708.01
218.00	1779.68
218.22	1746.92
218.44	1648.61
218.66	1755.11
218.87	1781.73
219.09	1660.90
219.31	1689.57
219.53	1689.57
219.75	1660.90
219.97	1681.38
220.19	1695.72
220.41	1689.57
220.63	1771.49
220.85	1787.88
221.06	1734.63
221.28	1708.01
221.50	1751.01
221.72	1777.64
221.94	1738.73
222.16	1638.38
222.38	1740.77
222.60	1755.11
222.82	1705.96
223.03	1763.30
223.25	1640.42
223.47	1808.36
223.69	1765.35
223.91	1740.77
224.13	1765.35
224.35	1652.71
224.57	1734.63
224.78	1716.20
225.00	1673.19
225.22	1708.01
225.44	1789.92
225.66	1744.87
225.88	1669.09
226.10	1806.31
226.32	1742.82
226.53	1798.12
226.75	1732.58
226.97	1689.57
227.19	1705.96
227.41	1628.14
227.63	1671.14
227.85	1693.67
228.06	1693.67
228.28	1734.63
228.50	1753.06
228.72	1689.57
228.94	1683.43
229.16	1673.19
229.37	1650.66
229.59	1658.85
229.81	1773.54
230.03	1648.61
230.25	1638.38
230.47	1648.61
230.69	1660.90
230.90	1665.00
231.12	1669.09
231.34	1734.63
231.56	1662.95
231.78	1642.47
232.00	1687.53
232.21	1687.53
232.43	1652.71
232.65	1617.90
232.87	1714.15
233.09	1679.33
233.30	1716.20
233.52	1824.74
233.74	1794.02
233.96	1748.97
234.18	1755.11
234.40	1689.57
234.61	1804.26
234.83	1562.60
235.05	1630.18
235.27	1847.27
235.49	1869.80
235.70	1658.85
235.92	1796.07
236.14	1718.25
236.36	1882.08
236.58	1576.94
236.79	1701.86
237.01	1658.85
237.23	1724.39
237.45	1892.32
237.67	1697.77
237.88	1726.44
238.10	1804.26
238.32	1765.35
238.54	1787.88
238.76	1710.05
238.97	1630.18
239.19	1650.66
239.41	1695.72
239.63	1777.64
239.85	1617.90
240.06	1724.39
240.28	1638.38
240.50	1812.45
240.72	1679.33
240.93	1703.91
241.15	1763.30
241.37	1734.63
241.59	1705.96
241.81	1691.62
242.02	1720.29
242.24	1724.39
242.46	1755.11
242.68	1613.80
242.89	1689.57
243.11	1794.02
243.33	1685.48
243.55	1748.97
243.76	1699.81
243.98	1656.81
244.20	1673.19
244.42	1660.90
244.64	1726.44
244.85	1697.77
245.07	1654.76
245.29	1759.21
245.51	1671.14
245.72	1736.68
245.94	1685.48
246.16	1724.39
246.38	1673.19
246.59	1685.48
246.81	1605.61
247.03	1718.25
247.24	1626.09
247.46	1660.90
247.68	1714.15
247.90	1693.67
248.11	1681.38
248.33	1769.44
248.55	1748.97
248.77	1757.16
248.98	1785.83
249.20	1751.01
249.42	1695.72
249.64	1736.68
249.85	1669.09
250.07	1705.96
250.29	1689.57
250.50	1730.53
250.72	1648.61
250.94	1691.62
251.16	1787.88
251.37	1757.16
251.59	1681.38
251.81	1658.85
252.02	1828.84
252.24	1681.38
252.46	1892.32
252.68	1763.30
252.89	1769.44
253.11	1667.05
253.33	1832.93
253.54	1791.97
253.76	1689.57
253.98	1744.87
254.20	1722.34
254.41	1677.29
254.63	1736.68
254.85	1628.14
255.06	1634.28
255.28	1687.53
255.50	1607.66
255.71	1699.81
255.93	1640.42
256.15	1730.53
256.36	1716.20
256.58	1652.71
256.80	1730.53
257.02	1685.48
257.23	1699.81
257.45	1705.96
257.67	1742.82
257.88	1640.42
258.10	1681.38
258.32	1714.15
258.53	1716.20
258.75	1763.30
258.97	1644.52
259.18	1781.73
259.40	1722.34
259.62	1863.65
259.83	1828.84
260.05	1724.39
260.27	2013.15
260.48	1671.14
260.70	1640.42
260.92	1730.53
261.13	1767.40
261.35	1722.34
261.57	1748.97
261.78	1634.28
262.00	1656.81
262.22	1632.23
262.43	1697.77
262.65	1642.47
262.86	1767.40
263.08	1806.31
263.30	1748.97
263.51	1589.22
263.73	1648.61
263.95	1767.40
264.16	1628.14
264.38	1708.01
264.60	1716.20
264.81	1738.73
265.03	1779.68
265.25	1755.11
265.46	1738.73
265.68	1814.50
265.89	1781.73
266.11	1597.42
266.33	1781.73
266.54	1814.50
266.76	1689.57
266.98	1773.54
267.19	1763.30
267.41	1724.39
267.62	1703.91
267.84	1583.08
268.06	1755.11
268.27	1726.44
268.49	1773.54
268.70	1744.87
268.92	1624.04
269.14	1658.85
269.35	1605.61
269.57	1683.43
269.79	1755.11
270.00	1646.57
270.22	1806.31
270.43	1660.90
270.65	1605.61
270.87	1730.53
271.08	1775.59
271.30	1705.96
271.51	1775.59
271.73	1724.39
271.95	1863.65
272.16	1736.68
272.38	1724.39
272.59	1679.33
272.81	1748.97
273.02	1722.34
273.24	1681.38
273.46	1716.20
273.67	1621.99
273.89	1658.85
274.10	1703.91
274.32	1787.88
274.54	1755.11
274.75	1746.92
274.97	1697.77
275.18	1791.97
275.40	1746.92
275.61	1611.75
275.83	1742.82
276.05	1632.23
276.26	1763.30
276.48	1783.78
276.69	1710.05
276.91	1658.85
277.12	1740.77
277.34	1718.25
277.55	1779.68
277.77	1683.43
277.99	1732.58
278.20	1634.28
278.42	1617.90
278.63	1654.76
278.85	1685.48
279.06	1685.48
279.28	1785.83
279.49	1789.92
279.71	1734.63
279.93	1781.73
280.14	1714.15
280.36	1603.56
280.57	1732.58
280.79	1767.40
281.00	1669.09
281.22	1574.89
281.43	1765.35
281.65	1605.61
281.86	1609.70
282.08	1705.96
282.29	1867.75
282.51	1564.65
282.73	1681.38
282.94	1581.03
283.16	1673.19
283.37	1820.64
283.59	1673.19
283.80	1791.97
284.02	1710.05
284.23	1628.14
284.45	1662.95
284.66	1667.05
284.88	1675.24
285.09	1730.53
285.31	1701.86
285.52	1695.72
285.74	1634.28
285.95	1732.58
286.17	1640.42
286.38	1775.59
286.60	1662.95
286.81	1656.81
287.03	1673.19
287.24	1761.25
287.46	1689.57
287.67	1738.73
287.89	1873.89
288.10	1710.05
288.32	1728.49
288.53	1791.97
288.75	1773.54
288.96	1787.88
289.18	1652.71
289.39	1746.92
289.61	1771.49
289.82	1812.45
290.04	1814.50
290.25	1619.94
290.47	1738.73
290.68	1619.94
290.90	1783.78
291.11	1642.47
291.33	1755.11
291.54	1665.00
291.76	1656.81
291.97	1658.85
292.18	1763.30
292.40	1712.10
292.61	1705.96
292.83	1869.80
293.04	1818.60
293.26	1701.86
293.47	1697.77
293.69	1703.91
293.90	1669.09
294.12	1832.93
294.33	1732.58
294.55	1708.01
294.76	1812.45
294.97	1783.78
295.19	1873.89
295.40	1751.01
295.62	1714.15
295.83	1814.50
296.05	1615.85
296.26	1794.02
296.48	1763.30
296.69	1734.63
296.90	1648.61
297.12	1671.14
297.33	1708.01
297.55	1755.11
297.76	1751.01
297.98	1761.25
298.19	1683.43
298.41	1665.00
298.62	1624.04
298.83	1837.03
299.05	1689.57
299.26	1656.81
299.48	1697.77
299.69	1740.77
299.90	1697.77
300.12	1654.76
300.33	1755.11
300.55	1800.16
300.76	1816.55
300.98	1652.71
301.19	1748.97
301.40	1677.29
301.62	1624.04
301.83	1730.53
302.05	1718.25
302.26	1703.91
302.47	1763.30
302.69	1714.15
302.90	1693.67
303.12	1593.32
303.33	1763.30
303.54	1785.83
303.76	1695.72
303.97	1759.21
304.19	1880.04
304.40	1665.00
304.61	1724.39
304.83	1859.56
305.04	1785.83
305.26	1763.30
305.47	1621.99
305.68	1699.81
305.90	1679.33
306.11	1759.21
306.33	1681.38
306.54	1656.81
306.75	1642.47
306.97	1650.66
307.18	1654.76
307.39	1652.71
307.61	1742.82
307.82	1730.53
308.04	1722.34
308.25	1687.53
308.46	1796.07
308.68	1761.25
308.89	1658.85
309.10	1771.49
309.32	1734.63
309.53	1755.11
309.74	1703.91
309.96	1691.62
310.17	1742.82
310.39	1708.01
310.60	1806.31
310.81	1773.54
311.03	1605.61
311.24	1761.25
311.45	1705.96
311.67	1832.93
311.88	1783.78
312.09	1660.90
312.31	1691.62
312.52	1742.82
312.73	1697.77
312.95	1636.33
313.16	1652.71
313.37	1710.05
313.59	1761.25
313.80	1687.53
314.01	1853.41
314.23	1697.77
314.44	1628.14
314.65	1652.71
314.87	1617.90
315.08	1681.38
315.29	1726.44
315.51	1603.56
315.72	1615.85
315.93	1755.11
316.15	1808.36
316.36	1708.01
316.57	1669.09
316.79	1779.68
317.00	1652.71
317.21	1771.49
317.43	1603.56
317.64	1714.15
317.85	1652.71
318.07	1712.10
318.28	1718.25
318.49	1847.27
318.70	1886.18
318.92	1736.68
319.13	1830.88
319.34	1742.82
319.56	1763.30
319.77	1722.34
319.98	1755.11
320.20	1806.31
320.41	1703.91
320.62	1787.88
320.83	1708.01
321.05	1865.70
321.26	1658.85
321.47	1822.69
321.69	1716.20
321.90	1632.23
322.11	1687.53
322.32	1726.44
322.54	1763.30
322.75	1636.33
322.96	1748.97
323.18	1630.18
323.39	1605.61
323.60	1636.33
323.81	1781.73
324.03	1748.97
324.24	1716.20
324.45	1705.96
324.66	1658.85
324.88	1777.64
325.09	1814.50
325.30	1708.01
325.52	1751.01
325.73	1775.59
325.94	1732.58
326.15	1628.14
326.37	1726.44
326.58	1810.40
326.79	1714.15
327.00	1658.85
327.22	1773.54
327.43	1695.72
327.64	1673.19
327.85	1650.66
328.07	1759.21
328.28	1861.60
328.49	1665.00
328.70	1742.82
328.92	1669.09
329.13	1720.29
329.34	1773.54
329.55	1875.94
329.76	1757.16
329.98	1699.81
330.19	1767.40
330.40	1730.53
330.61	1771.49
330.83	1675.24
331.04	1628.14
331.25	1656.81
331.46	1634.28
331.68	1714.15
331.89	1777.64
332.10	1738.73
332.31	1621.99
332.52	1703.91
332.74	1744.87
332.95	1648.61
333.16	1732.58
333.37	1771.49
333.58	1679.33
333.80	1710.05
334.01	1628.14
334.22	1708.01
334.43	1691.62
334.64	1677.29
334.86	1716.20
335.07	1609.70
335.28	1759.21
335.49	1652.71
335.70	1845.22
335.92	1640.42
336.13	1908.71
336.34	1765.35
336.55	1714.15
336.76	1746.92
336.98	1667.05
337.19	1703.91
337.40	1777.64
337.61	1871.84
337.82	1695.72
338.04	1734.63
338.25	1593.32
338.46	1677.29
338.67	1757.16
338.88	1621.99
339.09	1658.85
339.31	1740.77
339.52	1658.85
339.73	1656.81
339.94	1767.40
340.15	1742.82
340.36	1660.90
340.58	1687.53
340.79	1636.33
341.00	1746.92
341.21	1624.04
341.42	1779.68
341.63	1685.48
341.85	1806.31
342.06	1703.91
342.27	1714.15
342.48	1763.30
342.69	1607.66
342.90	1703.91
343.12	1714.15
343.33	1742.82
343.54	1787.88
343.75	1761.25
343.96	1748.97
344.17	1714.15
344.38	1718.25
344.60	1626.09
344.81	1638.38
345.02	1650.66
345.23	1810.40
345.44	1865.70
345.65	1730.53
345.86	1746.92
346.07	1716.20
346.29	1738.73
346.50	1673.19
346.71	1734.63
346.92	1716.20
347.13	1877.99
347.34	1748.97
347.55	1740.77
347.76	1736.68
347.98	1632.23
348.19	1705.96
348.40	1847.27
348.61	1730.53
348.82	1753.06
349.03	1714.15
349.24	1642.47
349.45	1853.41
349.66	1632.23
349.88	1746.92
350.09	1730.53
350.30	1767.40
350.51	1771.49
350.72	1759.21
350.93	1710.05
351.14	1685.48
351.35	1761.25
351.56	1771.49
351.77	1648.61
351.99	1679.33
352.20	1812.45
352.41	1812.45
352.62	1564.65
352.83	1697.77
353.04	1716.20
353.25	1740.77
353.46	1789.92
353.67	1806.31
353.88	1624.04
354.09	1679.33
354.30	1781.73
354.52	1857.51
354.73	1615.85
354.94	1683.43
355.15	1718.25
355.36	1820.64
355.57	1693.67
355.78	1736.68
355.99	1667.05
356.20	1648.61
356.41	1669.09
356.62	1779.68
356.83	1652.71
357.04	1724.39
357.25	1583.08
357.46	1640.42
357.68	1642.47
357.89	1665.00
358.10	1712.10
358.31	1710.05
358.52	1730.53
358.73	1697.77
358.94	1595.37
359.15	1687.53
359.36	1687.53
359.57	1761.25
359.78	1701.86
359.99	1789.92
360.20	1535.98
360.41	1714.15
360.62	1685.48
360.83	1677.29
361.04	1751.01
361.25	1740.77
361.46	1810.40
361.67	1716.20
361.88	1718.25
362.09	1779.68
362.30	1757.16
362.51	1667.05
362.72	1718.25
362.93	1767.40
363.14	1769.44
363.35	1689.57
363.56	1693.67
363.78	1781.73
363.99	1777.64
364.20	1671.14
364.41	1701.86
364.62	1818.60
364.83	1800.16
365.04	1767.40
365.25	1783.78
365.46	1820.64
365.67	1615.85
365.88	1638.38
366.09	1703.91
366.30	1671.14
366.51	1796.07
366.72	1628.14
366.93	1636.33
367.14	1669.09
367.35	1828.84
367.56	1677.29
367.77	1849.32
367.98	1675.24
368.18	1648.61
368.39	1691.62
368.60	1615.85
368.81	1691.62
369.02	1751.01
369.23	1724.39
369.44	1615.85
369.65	1701.86
369.86	1710.05
370.07	1818.60
370.28	1681.38
370.49	1724.39
370.70	1798.12
370.91	1665.00
371.12	1638.38
371.33	1736.68
371.54	1665.00
371.75	1859.56
371.96	1609.70
372.17	1730.53
372.38	1693.67
372.59	1771.49
372.80	1640.42
373.01	1716.20
373.22	1755.11
373.43	1763.30
373.64	1628.14
373.85	1839.08
374.06	1765.35
374.26	1779.68
374.47	1720.29
374.68	1816.55
374.89	1669.09
375.10	1665.00
375.31	1785.83
375.52	1773.54
375.73	1761.25
375.94	1617.90
376.15	1761.25
376.36	1724.39
376.57	1710.05
376.78	1673.19
376.99	1724.39
377.20	1812.45
377.40	1683.43
377.61	1832.93
377.82	1613.80
378.03	1744.87
378.24	1763.30
378.45	1679.33
378.66	1689.57
378.87	1615.85
379.08	1644.52
379.29	1671.14
379.50	1751.01
379.71	1728.49
379.91	1785.83
380.12	1683.43
380.33	1779.68
380.54	1632.23
380.75	1689.57
380.96	1685.48
381.17	1736.68
381.38	1685.48
381.59	1787.88
381.80	1720.29
382.00	1796.07
382.21	1796.07
382.42	1839.08
382.63	1837.03
382.84	1763.30
383.05	1779.68
383.26	1828.84
383.47	1757.16
383.68	1705.96
383.88	1796.07
384.09	1714.15
384.30	1734.63
384.51	1767.40
384.72	1656.81
384.93	1658.85
385.14	1710.05
385.35	1804.26
385.55	1695.72
385.76	1765.35
385.97	1669.09
386.18	1683.43
386.39	1642.47
386.60	1695.72
386.81	1722.34
387.02	1720.29
387.22	1617.90
387.43	1734.63
387.64	1837.03
387.85	1888.23
388.06	2195.42
388.27	4300.73
388.48	6733.72
388.68	8214.40
388.89	9471.86
389.10	9598.83
389.31	8456.06
389.52	7456.65
389.73	6700.95
389.93	6199.20
390.14	5642.15
390.35	5091.25
390.56	4429.76
390.77	3712.97
390.98	3092.43
391.18	2500.57
391.39	2111.46
391.60	1886.18
391.81	1783.78
392.02	1710.05
392.23	1880.04
392.43	1736.68
392.64	1845.22
392.85	1755.11
393.06	1914.85
393.27	1712.10
393.47	1691.62
393.68	1693.67
393.89	1712.10
394.10	1804.26
394.31	1699.81
394.52	1671.14
394.72	1687.53
394.93	1804.26
395.14	1662.95
395.35	1740.77
395.56	1648.61
395.76	1787.88
395.97	1808.36
396.18	1877.99
396.39	1816.55
396.60	1968.10
396.80	1914.85
397.01	1751.01
397.22	1912.80
397.43	1855.46
397.64	1726.44
397.84	1859.56
398.05	1880.04
398.26	1757.16
398.47	1783.78
398.67	1746.92
398.88	1787.88
399.09	1779.68
399.30	1775.59
399.51	1708.01
399.71	1724.39
399.92	1763.30
400.13	1730.53
400.34	1753.06
400.54	1689.57
400.75	1808.36
400.96	1771.49
401.17	1812.45
401.37	1765.35
401.58	1746.92
401.79	1683.43
402.00	1953.76
402.21	2007.01
402.41	1927.14
402.62	1974.24
402.83	2082.78
403.04	2021.35
403.24	2082.78
403.45	1857.51
403.66	1861.60
403.87	1841.12
404.07	1832.93
404.28	1943.52
404.49	1880.04
404.70	1767.40
404.90	1802.21
405.11	1699.81
405.32	1771.49
405.52	1619.94
405.73	1691.62
405.94	1675.24
406.15	1646.57
406.35	1734.63
406.56	1781.73
406.77	1761.25
406.98	1798.12
407.18	1638.38
407.39	1828.84
407.60	1722.34
407.80	1730.53
408.01	1712.10
408.22	1718.25
408.43	1679.33
408.63	1796.07
408.84	1720.29
409.05	1791.97
409.25	1660.90
409.46	1710.05
409.67	1652.71
409.88	1646.57
410.08	1695.72
410.29	1722.34
410.50	1757.16
410.70	1765.35
410.91	1697.77
411.12	1691.62
411.32	1755.11
411.53	1718.25
411.74	1775.59
411.95	1791.97
412.15	1822.69
412.36	1802.21
412.57	1789.92
412.77	1812.45
412.98	1722.34
413.19	1714.15
413.39	1789.92
413.60	1757.16
413.81	1755.11
414.01	1652.71
414.22	1765.35
414.43	1726.44
414.63	1675.24
414.84	1787.88
415.05	1755.11
415.25	1685.48
415.46	1781.73
415.67	1683.43
415.87	1785.83
416.08	1751.01
416.29	1771.49
416.49	1759.21
416.70	1730.53
416.91	1710.05
417.11	1751.01
417.32	1728.49
417.53	1796.07
417.73	1679.33
417.94	1691.62
418.15	1742.82
418.35	1703.91
418.56	1714.15
418.77	1863.65
418.97	1773.54
419.18	1665.00
419.38	1626.09
419.59	1718.25
419.80	1759.21
420.00	1726.44
420.21	1722.34
420.42	1781.73
420.62	1722.34
420.83	1710.05
421.04	1701.86
421.24	1595.37
421.45	1751.01
421.65	1783.78
421.86	1669.09
422.07	1718.25
422.27	1748.97
422.48	1648.61
422.69	1673.19
422.89	1705.96
423.10	1714.15
423.30	1599.46
423.51	1828.84
423.72	1748.97
423.92	1775.59
424.13	1648.61
424.33	1798.12
424.54	1724.39
424.75	1736.68
424.95	1771.49
425.16	1777.64
425.36	1701.86
425.57	1775.59
425.78	1675.24
425.98	1771.49
426.19	1701.86
426.39	1734.63
426.60	1671.14
426.81	1765.35
427.01	1740.77
427.22	1689.57
427.42	1613.80
427.63	1640.42
427.83	1794.02
428.04	1804.26
428.25	1849.32
428.45	1841.12
428.66	1740.77
428.86	1662.95
429.07	1683.43
429.28	1716.20
429.48	1665.00
429.69	1763.30
429.89	1722.34
430.10	1652.71
430.30	1722.34
430.51	1771.49
430.71	1648.61
430.92	1703.91
431.13	1716.20
431.33	1794.02
431.54	1703.91
431.74	1818.60
431.95	1791.97
432.15	1640.42
432.36	1691.62
432.56	1755.11
432.77	1822.69
432.98	1861.60
433.18	1613.80
433.39	1673.19
433.59	1751.01
433.80	1734.63
434.00	1900.52
434.21	1677.29
434.41	1714.15
434.62	1871.84
434.82	1654.76
435.03	1671.14
435.23	1740.77
435.44	1626.09
435.64	1710.05
435.85	1746.92
436.06	1796.07
436.26	1777.64
436.47	1722.34
436.67	1689.57
436.88	1699.81
437.08	1751.01
437.29	1794.02
437.49	1783.78
437.70	1816.55
437.90	1621.99
438.11	1904.61
438.31	1742.82
438.52	1902.56
438.72	1832.93
438.93	1890.28
439.13	1806.31
439.34	1828.84
439.54	1742.82
439.75	1834.98
439.95	1757.16
440.16	1732.58
440.36	1773.54
440.57	1736.68
440.77	1751.01
440.98	1755.11
441.18	1802.21
441.39	1712.10
441.59	1708.01
441.80	1826.79
442.00	1777.64
442.21	1789.92
442.41	1669.09
442.62	1759.21
442.82	1681.38
443.02	1714.15
443.23	1718.25
443.43	1765.35
443.64	1828.84
443.84	1671.14
444.05	1845.22
444.25	1736.68
444.46	1714.15
444.66	1675.24
444.87	1785.83
445.07	1685.48
445.28	1769.44
445.48	1810.40
445.69	1802.21
445.89	1816.55
446.09	1861.60
446.30	2000.87
446.50	2707.41
446.71	3723.21
446.91	4304.83
447.12	4695.99
447.32	4806.58
447.53	4333.50
447.73	3772.36
447.93	3493.83
448.14	3305.42
448.34	3241.93
448.55	2938.84
448.75	2836.44
448.96	2576.34
449.16	2396.12
449.36	2224.09
449.57	2070.50
449.77	1908.71
449.98	1794.02
450.18	1894.37
450.39	1785.83
450.59	1787.88
450.79	1763.30
451.00	1693.67
451.20	1855.46
451.41	1740.77
451.61	1800.16
451.81	1697.77
452.02	1667.05
452.22	1771.49
452.43	1724.39
452.63	1763.30
452.84	1693.67
453.04	1759.21
453.24	1800.16
453.45	1703.91
453.65	1738.73
453.86	1738.73
454.06	1726.44
454.26	1716.20
454.47	1669.09
454.67	1816.55
454.87	1722.34
455.08	1691.62
455.28	1843.17
455.49	1859.56
455.69	1708.01
455.89	1857.51
456.10	1787.88
456.30	1730.53
456.51	1794.02
456.71	1777.64
456.91	1767.40
457.12	1783.78
457.32	1777.64
457.52	1660.90
457.73	1796.07
457.93	1759.21
458.14	1703.91
458.34	1642.47
458.54	1660.90
458.75	1705.96
458.95	1789.92
459.15	1656.81
459.36	1789.92
459.56	1773.54
459.76	1912.80
459.97	1712.10
460.17	1767.40
460.37	1763.30
460.58	1712.10
460.78	1724.39
460.99	1679.33
461.19	1703.91
461.39	1796.07
461.60	1773.54
461.80	1726.44
462.00	1669.09
462.21	1701.86
462.41	1732.58
462.61	1755.11
462.82	1703.91
463.02	1759.21
463.22	1791.97
463.43	1814.50
463.63	1667.05
463.83	1767.40
464.04	1751.01
464.24	1716.20
464.44	1693.67
464.64	1726.44
464.85	1779.68
465.05	1779.68
465.25	1740.77
465.46	1683.43
465.66	1718.25
465.86	1732.58
466.07	1748.97
466.27	1753.06
466.47	1720.29
466.68	1710.05
466.88	1789.92
467.08	1763.30
467.29	1863.65
467.49	1718.25
467.69	1714.15
467.89	1816.55
468.10	1722.34
468.30	1701.86
468.50	1808.36
468.71	1728.49
468.91	1685.48
469.11	1791.97
469.31	1781.73
469.52	1728.49
469.72	1896.42
469.92	1882.08
470.13	1802.21
470.33	1751.01
470.53	1810.40
470.73	2115.55
470.94	2353.12
471.14	2351.07
471.34	2516.95
471.54	2404.32
471.75	2265.05
471.95	2117.60
472.15	2099.17
472.36	2117.60
472.56	2041.82
472.76	2084.83
472.96	1961.95
473.17	2021.35
473.37	2025.44
473.57	1800.16
473.77	1763.30
473.98	1759.21
474.18	1646.57
474.38	1959.91
474.58	1744.87
474.79	1789.92
474.99	1789.92
475.19	1769.44
475.39	1671.14
475.60	1789.92
475.80	1773.54
476.00	1779.68
476.20	1732.58
476.41	1691.62
476.61	1738.73
476.81	1884.13
477.01	1720.29
477.21	1816.55
477.42	1767.40
477.62	1724.39
477.82	1814.50
478.02	1687.53
478.23	1798.12
478.43	1673.19
478.63	1701.86
478.83	1755.11
479.03	1632.23
479.24	1814.50
479.44	1886.18
479.64	1683.43
479.84	1697.77
480.04	1757.16
480.25	1697.77
480.45	1660.90
480.65	1669.09
480.85	1841.12
481.06	1726.44
481.26	1734.63
481.46	1773.54
481.66	1744.87
481.86	1675.24
482.06	1779.68
482.27	1642.47
482.47	1785.83
482.67	1710.05
482.87	1716.20
483.07	1818.60
483.28	1636.33
483.48	1685.48
483.68	1689.57
483.88	1699.81
484.08	1574.89
484.29	1685.48
484.49	1726.44
484.69	1671.14
484.89	1773.54
485.09	1769.44
485.29	1712.10
485.50	1730.53
485.70	1607.66
485.90	1787.88
486.10	1767.40
486.30	1726.44
486.50	1834.98
486.71	1806.31
486.91	1812.45
487.11	1839.08
487.31	1650.66
487.51	1765.35
487.71	1697.77
487.91	1662.95
488.12	1667.05
488.32	1658.85
488.52	1718.25
488.72	1660.90
488.92	1755.11
489.12	1755.11
489.32	1802.21
489.53	1767.40
489.73	1683.43
489.93	1814.50
490.13	1685.48
490.33	1697.77
490.53	1751.01
490.73	1783.78
490.94	1677.29
491.14	1769.44
491.34	1890.28
491.54	2119.65
491.74	2500.57
491.94	2754.52
492.14	3028.95
492.34	2967.51
492.54	2707.41
492.75	2389.98
492.95	2418.65
493.15	2330.59
493.35	2242.53
493.55	2211.81
493.75	2121.70
493.95	2129.89
494.15	2033.63
494.35	1927.14
494.56	1898.47
494.76	1783.78
494.96	1753.06
495.16	1834.98
495.36	1789.92
495.56	1755.11
495.76	1783.78
495.96	1708.01
496.16	1673.19
496.36	1755.11
496.56	1771.49
496.77	1724.39
496.97	1677.29
497.17	1830.88
497.37	1710.05
497.57	1814.50
497.77	1789.92
497.97	1675.24
498.17	1759.21
498.37	1796.07
498.57	1820.64
498.77	1673.19
498.97	1759.21
499.17	1894.37
499.38	1691.62
499.58	1736.68
499.78	1818.60
499.98	1871.84
500.18	1757.16
500.38	1781.73
500.58	1923.04
500.78	2500.57
500.98	4601.79
501.18	5726.12
501.38	6666.14
501.58	7124.88
501.78	6459.29
501.98	5427.12
502.18	4906.93
502.38	4296.64
502.58	4048.83
502.78	3823.56
502.98	3794.89
503.18	3575.75
503.38	3110.86
503.59	2856.92
503.79	2695.13
503.99	2430.94
504.19	2355.16
504.39	2189.28
504.59	2176.99
504.79	2164.70
504.99	2095.07
505.19	1953.76
505.39	1859.56
505.59	1976.29
505.79	1828.84
505.99	1863.65
506.19	1791.97
506.39	1877.99
506.59	1738.73
506.79	1771.49
506.99	1787.88
507.19	1728.49
507.39	1720.29
507.59	1748.97
507.79	1781.73
507.99	1714.15
508.19	1763.30
508.39	1691.62
508.59	1708.01
508.79	1841.12
508.99	1828.84
509.19	1724.39
509.39	1802.21
509.59	1724.39
509.79	1673.19
509.99	1789.92
510.19	1757.16
510.39	1746.92
510.59	1691.62
510.79	1667.05
510.99	1738.73
511.19	1853.41
511.39	1847.27
511.59	1822.69
511.79	1826.79
511.99	1689.57
512.19	1890.28
512.38	1697.77
512.58	1773.54
512.78	1724.39
512.98	1730.53
513.18	1789.92
513.38	1677.29
513.58	1820.64
513.78	1763.30
513.98	1724.39
514.18	1748.97
514.38	1730.53
514.58	1748.97
514.78	1699.81
514.98	1724.39
515.18	1697.77
515.38	1693.67
515.58	1814.50
515.78	1665.00
515.98	1718.25
516.18	1777.64
516.38	1755.11
516.57	1685.48
516.77	1740.77
516.97	1691.62
517.17	1777.64
517.37	1636.33
517.57	1783.78
517.77	1712.10
517.97	1736.68
518.17	1757.16
518.37	1679.33
518.57	1693.67
518.77	1710.05
518.97	1773.54
519.16	1847.27
519.36	1808.36
519.56	1759.21
519.76	1685.48
519.96	1726.44
520.16	1822.69
520.36	1626.09
520.56	1789.92
520.76	1677.29
520.96	1722.34
521.16	1783.78
521.35	1794.02
521.55	1816.55
521.75	1834.98
521.95	1724.39
522.15	1708.01
522.35	1665.00
522.55	1705.96
522.75	1804.26
522.95	1699.81
523.14	1658.85
523.34	1810.40
523.54	1724.39
523.74	1751.01
523.94	1720.29
524.14	1687.53
524.34	1732.58
524.54	1773.54
524.73	1673.19
524.93	1828.84
525.13	1773.54
525.33	1673.19
525.53	1904.61
525.73	1769.44
525.93	1740.77
526.13	1712.10
526.32	1728.49
526.52	1789.92
526.72	1791.97
526.92	1773.54
527.12	1763.30
527.32	1652.71
527.52	1695.72
527.71	1826.79
527.91	1734.63
528.11	1761.25
528.31	1755.11
528.51	1732.58
528.71	1773.54
528.90	1755.11
529.10	1796.07
529.30	1820.64
529.50	1685.48
529.70	1757.16
529.90	1730.53
530.09	1748.97
530.29	1681.38
530.49	1736.68
530.69	1888.23
530.89	1746.92
531.09	1787.88
531.28	1710.05
531.48	1816.55
531.68	1773.54
531.88	1748.97
532.08	1810.40
532.28	1757.16
532.47	1806.31
532.67	1740.77
532.87	1722.34
533.07	1673.19
533.27	1832.93
533.46	1718.25
533.66	1775.59
533.86	1738.73
534.06	1662.95
534.26	1771.49
534.45	1767.40
534.65	1886.18
534.85	1738.73
535.05	1742.82
535.25	1734.63
535.44	1665.00
535.64	1755.11
535.84	1718.25
536.04	1730.53
536.24	1681.38
536.43	1708.01
536.63	1832.93
536.83	1685.48
537.03	1734.63
537.22	1669.09
537.42	1722.34
537.62	1763.30
537.82	1720.29
538.02	1789.92
538.21	1744.87
538.41	1933.28
538.61	1812.45
538.81	1765.35
539.00	1761.25
539.20	1638.38
539.40	1740.77
539.60	1755.11
539.79	1783.78
539.99	1748.97
540.19	1728.49
540.39	1708.01
540.58	1644.52
540.78	1759.21
540.98	1716.20
541.18	1755.11
541.37	1773.54
541.57	1691.62
541.77	1794.02
541.97	1742.82
542.16	1697.77
542.36	1708.01
542.56	1787.88
542.76	1781.73
542.95	1820.64
543.15	1773.54
543.35	1806.31
543.54	1658.85
543.74	1757.16
543.94	1855.46
544.14	1724.39
544.33	1757.16
544.53	1785.83
544.73	1843.17
544.93	1716.20
545.12	1736.68
545.32	1714.15
545.52	1810.40
545.71	1763.30
545.91	1665.00
546.11	1767.40
546.30	1679.33
546.50	1718.25
546.70	1746.92
546.90	1802.21
547.09	1642.47
547.29	1751.01
547.49	1722.34
547.68	1734.63
547.88	1691.62
548.08	1753.06
548.27	2146.27
548.47	1779.68
548.67	1726.44
548.87	1796.07
549.06	1775.59
549.26	1695.72
549.46	1777.64
549.65	1673.19
549.85	1753.06
550.05	1716.20
550.24	1720.29
550.44	1785.83
550.64	1804.26
550.83	1816.55
551.03	1796.07
551.23	1742.82
551.42	1832.93
551.62	1744.87
551.82	1757.16
552.01	1773.54
552.21	1849.32
552.41	1798.12
552.60	1880.04
552.80	1730.53
553.00	1771.49
553.19	1757.16
553.39	1861.60
553.59	1660.90
553.78	1816.55
553.98	1787.88
554.17	1576.94
554.37	1685.48
554.57	1781.73
554.76	1714.15
554.96	1781.73
555.16	1769.44
555.35	1746.92
555.55	1748.97
555.75	1812.45
555.94	1734.63
556.14	1609.70
556.33	1757.16
556.53	1775.59
556.73	1855.46
556.92	1791.97
557.12	1871.84
557.32	1869.80
557.51	1814.50
557.71	1837.03
557.90	1802.21
558.10	1798.12
558.30	1765.35
558.49	1734.63
558.69	1769.44
558.88	1771.49
559.08	1744.87
559.28	1781.73
559.47	1771.49
559.67	1742.82
559.86	1853.41
560.06	1734.63
560.26	1746.92
560.45	1691.62
560.65	1691.62
560.84	1783.78
561.04	1683.43
561.24	1705.96
561.43	1712.10
561.63	1884.13
561.82	1800.16
562.02	1724.39
562.22	1654.76
562.41	1761.25
562.61	1708.01
562.80	1705.96
563.00	1880.04
563.19	1763.30
563.39	1710.05
563.59	1763.30
563.78	1751.01
563.98	1642.47
564.17	1714.15
564.37	1660.90
564.56	1765.35
564.76	1634.28
564.96	1796.07
565.15	1714.15
565.35	1853.41
565.54	1742.82
565.74	1814.50
565.93	1769.44
566.13	1748.97
566.32	1763.30
566.52	1718.25
566.71	1718.25
566.91	1824.74
567.11	1732.58
567.30	1675.24
567.50	1773.54
567.69	1689.57
567.89	1677.29
568.08	1673.19
568.28	1826.79
568.47	1763.30
568.67	1740.77
568.86	1714.15
569.06	1767.40
569.25	1708.01
569.45	1673.19
569.64	1789.92
569.84	1804.26
570.04	1746.92
570.23	1736.68
570.43	1685.48
570.62	1767.40
570.82	1845.22
571.01	1685.48
571.21	1683.43
571.40	1732.58
571.60	1765.35
571.79	1779.68
571.99	1791.97
572.18	1755.11
572.38	1677.29
572.57	1691.62
572.77	1802.21
572.96	1896.42
573.16	1767.40
573.35	1710.05
573.55	1837.03
573.74	1853.41
573.94	1728.49
574.13	1714.15
574.33	1744.87
574.52	1761.25
574.71	1789.92
574.91	1757.16
575.10	1667.05
575.30	1699.81
575.49	1648.61
575.69	1712.10
575.88	1697.77
576.08	1722.34
576.27	1810.40
576.47	1701.86
576.66	1873.89
576.86	1834.98
577.05	1771.49
577.25	1832.93
577.44	1886.18
577.64	1705.96
577.83	1826.79
578.02	1804.26
578.22	1923.04
578.41	1820.64
578.61	1734.63
578.80	1679.33
579.00	1748.97
579.19	1761.25
579.39	1851.36
579.58	1818.60
579.77	1763.30
579.97	1755.11
580.16	1828.84
580.36	1722.34
580.55	1873.89
580.75	1787.88
580.94	1804.26
581.13	1798.12
581.33	1853.41
581.52	1746.92
581.72	1867.75
581.91	1898.47
582.11	1728.49
582.30	1794.02
582.49	1771.49
582.69	1902.56
582.88	1826.79
583.08	1826.79
583.27	1841.12
583.47	1791.97
583.66	1677.29
583.85	1679.33
584.05	1736.68
584.24	1822.69
584.44	1845.22
584.63	1779.68
584.82	1859.56
585.02	1853.41
585.21	1810.40
585.41	1847.27
585.60	1865.70
585.79	1892.32
585.99	1935.33
586.18	1869.80
586.37	2160.61
586.57	3387.34
586.76	9695.08
586.96	24260.24
587.15	33836.54
587.34	39857.57
587.54	41289.10
587.73	36099.55
587.93	26087.03
588.12	21372.60
588.31	18024.17
588.51	16049.93
588.70	15206.17
588.89	14018.35
589.09	12603.20
589.28	11016.02
589.47	9490.29
589.67	7784.33
589.86	6315.94
590.06	4970.42
590.25	3954.63
590.44	3104.72
590.64	2572.25
590.83	2285.53
591.02	2043.87
591.22	1988.58
591.41	1882.08
591.60	1791.97
591.80	2004.96
591.99	1767.40
592.18	1781.73
592.38	1855.46
592.57	1767.40
592.76	1789.92
592.96	1759.21
593.15	1714.15
593.34	1785.83
593.54	1726.44
593.73	1812.45
593.92	1714.15
594.12	1818.60
594.31	1791.97
594.50	1810.40
594.70	1804.26
594.89	1875.94
595.08	1679.33
595.28	1796.07
595.47	1904.61
595.66	1791.97
595.86	1742.82
596.05	1726.44
596.24	1771.49
596.43	1816.55
596.63	1847.27
596.82	1746.92
597.01	1800.16
597.21	1877.99
597.40	1804.26
597.59	1652.71
597.79	1708.01
597.98	1771.49
598.17	1742.82
598.36	1759.21
598.56	1730.53
598.75	1677.29
598.94	1771.49
599.14	1701.86
599.33	1665.00
599.52	1769.44
599.71	1779.68
599.91	1755.11
600.10	1773.54
600.29	1763.30
600.48	1785.83
600.68	1757.16
600.87	1656.81
601.06	1716.20
601.26	1773.54
601.45	1712.10
601.64	1710.05
601.83	1804.26
602.03	1736.68
602.22	1730.53
602.41	1828.84
602.60	1857.51
602.80	1832.93
602.99	1701.86
603.18	1697.77
603.37	1777.64
603.57	1732.58
603.76	1738.73
603.95	1757.16
604.14	1685.48
604.34	1660.90
604.53	1751.01
604.72	1703.91
604.91	1834.98
605.10	1785.83
605.30	1677.29
605.49	1810.40
605.68	1734.63
605.87	1701.86
606.07	1605.61
606.26	1699.81
606.45	1724.39
606.64	1724.39
606.84	1757.16
607.03	1695.72
607.22	1822.69
607.41	1685.48
607.60	1675.24
607.80	1849.32
607.99	1738.73
608.18	1861.60
608.37	1718.25
608.56	1644.52
608.76	1773.54
608.95	1806.31
609.14	1761.25
609.33	1804.26
609.52	1783.78
609.72	1732.58
609.91	1779.68
610.10	1716.20
610.29	1855.46
610.48	1824.74
610.68	1791.97
610.87	1712.10
611.06	1748.97
611.25	1722.34
611.44	1841.12
611.63	1722.34
611.83	1822.69
612.02	1683.43
612.21	1800.16
612.40	1642.47
612.59	1654.76
612.79	1722.34
612.98	1722.34
613.17	1890.28
613.36	1781.73
613.55	1841.12
613.74	1708.01
613.93	1742.82
614.13	1740.77
614.32	1730.53
614.51	1705.96
614.70	1736.68
614.89	1816.55
615.08	1738.73
615.28	1996.77
615.47	1673.19
615.66	1763.30
615.85	1802.21
616.04	1849.32
616.23	1701.86
616.42	1738.73
616.62	1734.63
616.81	1734.63
617.00	1744.87
617.19	1697.77
617.38	1697.77
617.57	1765.35
617.76	1742.82
617.95	1828.84
618.15	1736.68
618.34	1824.74
618.53	1667.05
618.72	1839.08
618.91	1789.92
619.10	1798.12
619.29	1701.86
619.48	1697.77
619.68	1677.29
619.87	1763.30
620.06	1724.39
620.25	1785.83
620.44	1646.57
620.63	1742.82
620.82	1712.10
621.01	1705.96
621.20	1693.67
621.39	1765.35
621.59	1738.73
621.78	1730.53
621.97	1779.68
622.16	1767.40
622.35	1796.07
622.54	1726.44
622.73	1742.82
622.92	1667.05
623.11	1738.73
623.30	1708.01
623.49	1804.26
623.68	1675.24
623.88	1808.36
624.07	1640.42
624.26	1748.97
624.45	1734.63
624.64	1746.92
624.83	1773.54
625.02	1673.19
625.21	1673.19
625.40	1644.52
625.59	1871.84
625.78	1695.72
625.97	1861.60
626.16	1781.73
626.35	1730.53
626.54	1708.01
626.74	1736.68
626.93	1726.44
627.12	1708.01
627.31	1816.55
627.50	1703.91
627.69	1785.83
627.88	1738.73
628.07	1806.31
628.26	1531.88
628.45	1720.29
628.64	1681.38
628.83	1695.72
629.02	1710.05
629.21	1771.49
629.40	1767.40
629.59	1746.92
629.78	1724.39
629.97	1701.86
630.16	1789.92
630.35	1701.86
630.54	1722.34
630.73	1658.85
630.92	1742.82
631.11	1689.57
631.30	1777.64
631.49	1765.35
631.68	1734.63
631.87	1699.81
632.06	1742.82
632.25	1865.70
632.44	1787.88
632.63	1804.26
632.82	1708.01
633.01	1648.61
633.20	1718.25
633.39	1691.62
633.58	1617.90
633.77	1783.78
633.96	1746.92
634.15	1728.49
634.34	1816.55
634.53	1746.92
634.72	1714.15
634.91	1589.22
635.10	1771.49
635.29	1814.50
635.48	1734.63
635.67	1685.48
635.86	1714.15
636.05	1755.11
636.24	1806.31
636.43	1730.53
636.62	1671.14
636.81	1556.46
637.00	1728.49
637.19	1781.73
637.38	1773.54
637.57	1662.95
637.76	1710.05
637.95	1708.01
638.14	1699.81
638.33	1644.52
638.52	1779.68
638.71	1615.85
638.89	1667.05
639.08	1939.43
639.27	1732.58
639.46	1683.43
639.65	1785.83
639.84	1775.59
640.03	1730.53
640.22	1689.57
640.41	1789.92
640.60	1744.87
640.79	1697.77
640.98	1720.29
641.17	1794.02
641.36	1697.77
641.55	1683.43
641.74	1642.47
641.92	1613.80
642.11	1693.67
642.30	1720.29
642.49	1726.44
642.68	1603.56
642.87	1777.64
643.06	1761.25
643.25	1726.44
643.44	1708.01
643.63	1673.19
643.82	1699.81
644.00	1695.72
644.19	1705.96
644.38	1634.28
644.57	1814.50
644.76	1761.25
644.95	1677.29
645.14	1728.49
645.33	1689.57
645.52	1787.88
645.71	1628.14
645.89	1675.24
646.08	1742.82
646.27	1654.76
646.46	1767.40
646.65	1638.38
646.84	1710.05
647.03	1648.61
647.22	1789.92
647.40	1714.15
647.59	1679.33
647.78	1630.18
647.97	1671.14
648.16	1671.14
648.35	1779.68
648.54	1802.21
648.73	1718.25
648.91	1806.31
649.10	1595.37
649.29	1646.57
649.48	1730.53
649.67	1791.97
649.86	1648.61
650.05	1703.91
650.23	1736.68
650.42	1716.20
650.61	1691.62
650.80	1746.92
650.99	1832.93
651.18	1798.12
651.36	1775.59
651.55	1705.96
651.74	1824.74
651.93	1712.10
652.12	1714.15
652.31	1656.81
652.49	1710.05
652.68	1644.52
652.87	1783.78
653.06	1658.85
653.25	1812.45
653.44	1742.82
653.62	1757.16
653.81	1732.58
654.00	1738.73
654.19	1779.68
654.38	1855.46
654.56	1718.25
654.75	1716.20
654.94	1796.07
655.13	1714.15
655.32	1669.09
655.51	1789.92
655.69	1667.05
655.88	1748.97
656.07	1660.90
656.26	1769.44
656.45	1660.90
656.63	1722.34
656.82	1742.82
657.01	1820.64
657.20	1763.30
657.38	1867.75
657.57	1689.57
657.76	1660.90
657.95	1777.64
658.14	1667.05
658.32	1710.05
658.51	1638.38
658.70	1726.44
658.89	1771.49
659.08	1757.16
659.26	1806.31
659.45	1650.66
659.64	1753.06
659.83	1701.86
660.01	2002.91
660.20	1726.44
660.39	1818.60
660.58	1560.55
660.76	1765.35
660.95	1701.86
661.14	1746.92
661.33	1742.82
661.51	1718.25
661.70	1658.85
661.89	1734.63
662.08	1748.97
662.26	1652.71
662.45	1660.90
662.64	1787.88
662.83	1779.68
663.01	1665.00
663.20	1751.01
663.39	1753.06
663.58	1705.96
663.76	1691.62
663.95	1816.55
664.14	1634.28
664.32	1710.05
664.51	1712.10
664.70	1611.75
664.89	1714.15
665.07	1648.61
665.26	1791.97
665.45	1652.71
665.64	1732.58
665.82	1740.77
666.01	1722.34
666.20	1665.00
666.38	1837.03
666.57	1732.58
666.76	2150.37
666.95	4534.20
667.13	10102.63
667.32	14935.84
667.51	17686.26
667.69	18839.26
667.88	17641.20
668.07	12089.16
668.25	9654.12
668.44	7968.65
668.63	7237.52
668.81	6821.78
669.00	6270.88
669.19	5685.16
669.38	5156.79
669.56	4579.26
669.75	4007.87
669.94	3393.48
670.12	2901.97
670.31	2443.23
670.50	2283.49
670.68	2148.32
670.87	1859.56
671.06	1816.55
671.24	1812.45
671.43	1869.80
671.62	1759.21
671.80	1759.21
671.99	1783.78
672.18	1742.82
672.36	1732.58
672.55	1742.82
672.74	1738.73
672.92	1763.30
673.11	1771.49
673.29	1607.66
673.48	1785.83
673.67	1718.25
673.85	1771.49
674.04	1695.72
674.23	1732.58
674.41	1791.97
674.60	1673.19
674.79	1742.82
674.97	1746.92
675.16	1736.68
675.34	1783.78
675.53	1697.77
675.72	1763.30
675.90	1769.44
676.09	1689.57
676.28	1742.82
676.46	1650.66
676.65	1808.36
676.83	1675.24
677.02	1748.97
677.21	1746.92
677.39	1748.97
677.58	1691.62
677.77	1648.61
677.95	1701.86
678.14	1703.91
678.32	1714.15
678.51	1669.09
678.70	1832.93
678.88	1742.82
679.07	1753.06
679.25	1712.10
679.44	1708.01
679.63	1597.42
679.81	1732.58
680.00	1777.64
680.18	1748.97
680.37	1816.55
680.55	1720.29
680.74	1660.90
680.93	1632.23
681.11	1712.10
681.30	1650.66
681.48	1708.01
681.67	1761.25
681.85	1685.48
682.04	1617.90
682.23	1759.21
682.41	1736.68
682.60	1662.95
682.78	1785.83
682.97	1619.94
683.15	1708.01
683.34	1787.88
683.53	1834.98
683.71	1587.18
683.90	1816.55
684.08	1826.79
684.27	1687.53
684.45	1775.59
684.64	1775.59
684.82	1712.10
685.01	1730.53
685.19	1718.25
685.38	1755.11
685.57	1722.34
685.75	1644.52
685.94	1742.82
686.12	1626.09
686.31	1742.82
686.49	1742.82
686.68	1626.09
686.86	1714.15
687.05	1683.43
687.23	1763.30
687.42	1705.96
687.60	1646.57
687.79	1744.87
687.97	1785.83
688.16	1808.36
688.34	1808.36
688.53	1607.66
688.71	1712.10
688.90	1798.12
689.08	1640.42
689.27	1658.85
689.45	1812.45
689.64	1687.53
689.82	1669.09
690.01	1783.78
690.19	1732.58
690.38	1728.49
690.56	1751.01
690.75	1724.39
690.93	1701.86
691.12	1652.71
691.30	1798.12
691.49	1654.76
691.67	1689.57
691.86	1789.92
692.04	1667.05
692.23	1644.52
692.41	1679.33
692.60	1849.32
692.78	1794.02
692.97	1710.05
693.15	1787.88
693.34	1781.73
693.52	1740.77
693.71	1703.91
693.89	1691.62
694.08	1658.85
694.26	1791.97
694.44	1773.54
694.63	1724.39
694.81	1642.47
695.00	1689.57
695.18	1837.03
695.37	1888.23
695.55	1689.57
695.74	1726.44
695.92	1693.67
696.10	1761.25
696.29	1591.27
696.47	1738.73
696.66	1636.33
696.84	1681.38
697.03	1724.39
697.21	1865.70
697.40	2297.82
697.58	1783.78
697.76	1753.06
697.95	1669.09
698.13	1677.29
698.32	1703.91
698.50	1794.02
698.68	1689.57
698.87	1769.44
699.05	1781.73
699.24	1630.18
699.42	1658.85
699.61	1781.73
699.79	1798.12
699.97	1748.97
700.16	1705.96
700.34	1650.66
700.53	1689.57
700.71	1880.04
700.89	1812.45
701.08	1746.92
701.26	1701.86
701.45	2152.42
701.63	1624.04
701.81	1615.85
702.00	1791.97
702.18	1710.05
702.37	1593.32
702.55	1781.73
702.73	1634.28
702.92	1744.87
703.10	1730.53
703.28	1748.97
703.47	1673.19
703.65	1736.68
703.84	1722.34
704.02	1648.61
704.20	1787.88
704.39	1701.86
704.57	1599.46
704.75	1732.58
704.94	1769.44
705.12	1732.58
705.30	1804.26
705.49	2269.15
705.67	4356.03
705.86	9185.14
706.04	12320.58
706.22	14149.42
706.41	15132.44
706.59	13680.43
706.77	9424.75
706.96	7231.38
707.14	6444.96
707.32	5894.05
707.51	5556.14
707.69	4870.07
707.87	4130.75
708.06	3456.97
708.24	3033.04
708.42	2439.13
708.61	2281.44
708.79	1863.65
708.97	1845.22
709.16	1843.17
709.34	1869.80
709.52	1648.61
709.71	1791.97
709.89	1759.21
710.07	1691.62
710.26	1724.39
710.44	1763.30
710.62	1685.48
710.80	1736.68
710.99	1734.63
711.17	1755.11
711.35	1693.67
711.54	1724.39
711.72	1818.60
711.90	1802.21
712.09	1742.82
712.27	1693.67
712.45	1746.92
712.63	1714.15
712.82	1697.77
713.00	1765.35
713.18	1779.68
713.37	1800.16
713.55	1757.16
713.73	1677.29
713.91	1744.87
714.10	1683.43
714.28	1767.40
714.46	1767.40
714.65	1722.34
714.83	1697.77
715.01	1783.78
715.19	1677.29
715.38	1740.77
715.56	1705.96
715.74	1722.34
715.92	1687.53
716.11	1771.49
716.29	1648.61
716.47	1703.91
716.65	1636.33
716.84	1638.38
717.02	1763.30
717.20	1568.74
717.38	1638.38
717.57	1705.96
717.75	1726.44
717.93	1724.39
718.11	1609.70
718.30	1652.71
718.48	1767.40
718.66	1839.08
718.84	1736.68
719.03	1742.82
719.21	1642.47
719.39	1810.40
719.57	1677.29
719.75	1789.92
719.94	1646.57
720.12	1693.67
720.30	1710.05
720.48	1773.54
720.67	1669.09
720.85	1667.05
721.03	1669.09
721.21	1701.86
721.39	1812.45
721.58	1689.57
721.76	1744.87
721.94	1724.39
722.12	1791.97
722.30	1787.88
722.49	1724.39
722.67	1705.96
722.85	1748.97
723.03	1689.57
723.21	1619.94
723.40	1667.05
723.58	1781.73
723.76	1660.90
723.94	1759.21
724.12	1781.73
724.30	1843.17
724.49	1800.16
724.67	1669.09
724.85	1791.97
725.03	1679.33
725.21	1767.40
725.40	1773.54
725.58	1685.48
725.76	1804.26
725.94	1777.64
726.12	1660.90
726.30	1748.97
726.49	1710.05
726.67	1693.67
726.85	1759.21
727.03	1724.39
727.21	2191.33
727.39	2908.12
727.57	3698.63
727.76	4149.18
727.94	4284.35
728.12	4300.73
728.30	3669.96
728.48	2985.94
728.66	2697.17
728.84	2566.10
729.03	2289.63
729.21	2133.98
729.39	1937.38
729.57	1832.93
729.75	1857.51
729.93	1834.98
730.11	1726.44
730.30	1677.29
730.48	1763.30
730.66	1781.73
730.84	1806.31
731.02	1767.40
731.20	1640.42
731.38	1783.78
731.56	1683.43
731.74	1630.18
731.93	1660.90
732.11	1718.25
732.29	1611.75
732.47	1757.16
732.65	1783.78
732.83	1810.40
733.01	1716.20
733.19	1693.67
733.37	1695.72
733.56	1753.06
733.74	1708.01
733.92	1753.06
734.10	1644.52
734.28	1724.39
734.46	1619.94
734.64	1714.15
734.82	1605.61
735.00	1673.19
735.18	1615.85
735.36	1800.16
735.54	1726.44
735.73	1699.81
735.91	1757.16
736.09	1708.01
736.27	1710.05
736.45	1759.21
736.63	1671.14
736.81	1767.40
736.99	1855.46
737.17	1761.25
737.35	1726.44
737.53	1687.53
737.71	1632.23
737.89	1787.88
738.07	1568.74
738.25	1705.96
738.43	1613.80
738.61	1673.19
738.80	1691.62
738.98	1601.51
739.16	1716.20
739.34	1636.33
739.52	1787.88
739.70	1720.29
739.88	1712.10
740.06	1800.16
740.24	1619.94
740.42	1751.01
740.60	1693.67
740.78	1736.68
740.96	1609.70
741.14	1578.98
741.32	1724.39
741.50	1632.23
741.68	1724.39
741.86	1779.68
742.04	1642.47
742.22	1691.62
742.40	1742.82
742.58	1658.85
742.76	1644.52
742.94	1773.54
743.12	1646.57
743.30	1726.44
743.48	1769.44
743.66	1615.85
743.84	1714.15
744.02	1699.81
744.20	1701.86
744.38	1642.47
744.56	1701.86
744.74	1841.12
744.92	1755.11
745.10	1820.64
745.28	1697.77
745.46	1738.73
745.64	1746.92
745.82	1744.87
746.00	1716.20
746.18	1759.21
746.36	1669.09
746.54	1669.09
746.72	1751.01
746.90	1624.04
747.08	1753.06
747.26	1673.19
747.44	1730.53
747.62	1773.54
747.80	1734.63
747.98	1781.73
748.15	1703.91
748.33	1779.68
748.51	1728.49
748.69	1744.87
748.87	1632.23
749.05	1734.63
749.23	1724.39
749.41	1796.07
749.59	1751.01
749.77	1781.73
749.95	1724.39
750.13	1687.53
750.31	1726.44
750.49	1658.85
750.67	1740.77
750.85	1806.31
751.03	1673.19
751.20	1732.58
751.38	1669.09
751.56	1703.91
751.74	1687.53
751.92	1708.01
752.10	1607.66
752.28	1755.11
752.46	1634.28
752.64	1759.21
752.82	1714.15
753.00	1779.68
753.18	1679.33
753.35	1667.05
753.53	1691.62
753.71	1679.33
753.89	1781.73
754.07	1716.20
754.25	1769.44
754.43	1732.58
754.61	1652.71
754.79	1759.21
754.97	1665.00
755.14	1751.01
755.32	1695.72
755.50	1753.06
755.68	1697.77
755.86	1669.09
756.04	1681.38
756.22	1605.61
756.40	1820.64
756.57	1779.68
756.75	1726.44
756.93	1724.39
757.11	1662.95
757.29	1683.43
757.47	1662.95
757.65	1656.81
757.82	1583.08
758.00	1615.85
758.18	1654.76
758.36	1603.56
758.54	1779.68
758.72	1576.94
758.90	1845.22
759.07	1763.30
759.25	1634.28
759.43	1738.73
759.61	1652.71
759.79	2215.90
759.97	1753.06
760.15	1654.76
760.32	1708.01
760.50	1722.34
760.68	1845.22
760.86	1640.42
761.04	1839.08
761.22	1675.24
761.39	1683.43
761.57	1736.68
761.75	1689.57
761.93	1822.69
762.11	1677.29
762.28	1773.54
762.46	1648.61
762.64	1708.01
762.82	1619.94
763.00	1812.45
763.18	1810.40
763.35	1665.00
763.53	1775.59
763.71	1753.06
763.89	1708.01
764.07	1722.34
764.24	1648.61
764.42	1794.02
764.60	1675.24
764.78	1800.16
764.96	1763.30
765.13	1748.97
765.31	1726.44
765.49	1759.21
765.67	1751.01
765.84	1695.72
766.02	1693.67
766.20	1578.98
766.38	1734.63
766.56	1740.77
766.73	1734.63
766.91	1794.02
767.09	1746.92
767.27	1789.92
767.44	1677.29
767.62	1710.05
767.80	1722.34
767.98	1730.53
768.15	1673.19
768.33	1736.68
768.51	1757.16
768.69	1802.21
768.87	1798.12
769.04	1730.53
769.22	1845.22
769.40	1767.40
769.58	1863.65
769.75	1691.62
769.93	1726.44
770.11	1763.30
770.28	1724.39
770.46	1808.36
770.64	1736.68
770.82	1767.40
770.99	1689.57
771.17	1726.44
771.35	1705.96
771.53	1671.14
771.70	1677.29
771.88	1722.34
772.06	1712.10
772.23	1701.86
772.41	1662.95
772.59	1693.67
772.77	1685.48
772.94	1736.68
773.12	1804.26
773.30	1695.72
773.47	1757.16
773.65	1671.14
773.83	1837.03
774.01	1775.59
774.18	1581.03
774.36	1724.39
774.54	1589.22
774.71	1730.53
774.89	1585.13
775.07	1632.23
775.24	1667.05
775.42	1708.01
775.60	1728.49
775.78	1669.09
775.95	1648.61
776.13	1619.94
776.31	1538.02
776.48	1693.67
776.66	1775.59
776.84	1726.44
777.01	1662.95
777.19	1681.38
777.37	1667.05
777.54	1787.88
777.72	1841.12
777.90	1703.91
778.07	1642.47
778.25	1849.32
778.43	1785.83
778.60	1677.29
778.78	1703.91
778.96	1755.11
779.13	1599.46
779.31	1730.53
779.49	1685.48
779.66	1787.88
779.84	1597.42
780.01	1716.20
780.19	1644.52
780.37	1771.49
780.54	1755.11
780.72	1660.90
780.90	1648.61
781.07	1632.23
781.25	1675.24
781.43	1779.68
781.60	1642.47
781.78	1787.88
781.95	1695.72
782.13	1689.57
782.31	1691.62
782.48	1611.75
782.66	1777.64
782.83	1777.64
783.01	1796.07
783.19	1705.96
783.36	1695.72
783.54	1679.33
783.72	1789.92
783.89	1648.61
784.07	1763.30
784.24	1740.77
784.42	1789.92
784.60	1685.48
784.77	1683.43
784.95	1615.85
785.12	1712.10
785.30	1671.14
785.47	1697.77
785.65	1638.38
785.83	1710.05
786.00	1689.57
786.18	1734.63
786.35	1648.61
786.53	1615.85
786.71	1777.64
786.88	1769.44
787.06	1734.63
787.23	1732.58
787.41	1683.43
787.58	1744.87
787.76	1615.85
787.94	1730.53
788.11	1699.81
788.29	1591.27
788.46	1658.85
788.64	1617.90
788.81	1667.05
788.99	1648.61
789.16	1630.18
789.34	1691.62
789.52	1695.72
789.69	1769.44
789.87	1552.36
790.04	1665.00
790.22	1761.25
790.39	1816.55
790.57	1624.04
790.74	1656.81
790.92	1710.05
791.09	1634.28
791.27	1615.85
791.44	1785.83
791.62	1712.10
791.79	1675.24
791.97	1714.15
792.15	1845.22
792.32	1718.25
792.50	1761.25
792.67	1832.93
792.85	1705.96
793.02	1703.91
793.20	1757.16
793.37	1615.85
793.55	1722.34
793.72	1634.28
793.90	1701.86
794.07	1683.43
794.25	1652.71
794.42	1765.35
794.60	1732.58
794.77	1726.44
794.95	1751.01
795.12	1767.40
795.30	1748.97
795.47	1677.29
795.65	1877.99
795.82	1779.68
796.00	1695.72
796.17	1730.53
796.34	1677.29
796.52	1685.48
796.69	1714.15
796.87	1769.44
797.04	1708.01
797.22	1689.57
797.39	1660.90
797.57	1677.29
797.74	1787.88
797.92	1662.95
798.09	1662.95
798.27	1777.64
798.44	1755.11
798.62	1609.70
798.79	1730.53
798.96	1738.73
799.14	1759.21
799.31	1806.31
799.49	1687.53
799.66	1607.66
799.84	1699.81
800.01	1644.52
800.19	1734.63
800.36	1742.82
800.53	1652.71
800.71	1748.97
800.88	1791.97
801.06	1617.90
801.23	1757.16
801.41	1681.38
801.58	1699.81
801.75	1660.90
801.93	1726.44
802.10	1769.44
802.28	1683.43
802.45	1714.15
802.63	1746.92
802.80	1798.12
802.97	1710.05
803.15	1769.44
803.32	1665.00
803.50	1697.77
803.67	1624.04
803.84	1589.22
804.02	1763.30
804.19	1665.00
804.37	1523.69
804.54	1646.57
804.71	1734.63
804.89	1689.57
805.06	1658.85
805.24	1679.33
805.41	1593.32
805.58	1742.82
805.76	1812.45
805.93	1697.77
806.10	1816.55
806.28	1775.59
806.45	1701.86
806.63	1730.53
806.80	1730.53
806.97	1671.14
807.15	1718.25
807.32	1662.95
807.49	1730.53
807.67	1732.58
807.84	1730.53
808.01	1646.57
808.19	1812.45
808.36	1783.78
808.54	1705.96
808.71	1630.18
808.88	1718.25
809.06	1730.53
809.23	1712.10
809.40	1665.00
809.58	1804.26
809.75	1722.34
809.92	1677.29
810.10	1886.18
810.27	1744.87
810.44	1734.63
810.62	1787.88
810.79	1742.82
810.96	1638.38
811.14	1599.46
811.31	1681.38
811.48	1673.19
811.66	1746.92
811.83	1726.44
812.00	1818.60
812.18	1779.68
812.35	1869.80
812.52	1738.73
812.69	1730.53
812.87	1677.29
813.04	1748.97
813.21	1746.92
813.39	1695.72
813.56	1650.66
813.73	1822.69
813.91	1558.50
814.08	1804.26
814.25	1681.38
814.42	1562.60
814.60	1693.67
814.77	1689.57
814.94	1710.05
815.12	1710.05
815.29	1753.06
815.46	1720.29
815.63	1683.43
815.81	1751.01
815.98	1740.77
816.15	1576.94
816.33	1751.01
816.50	1738.73
816.67	1718.25
816.84	1630.18
817.02	1617.90
817.19	1720.29
817.36	1714.15
817.53	1791.97
817.71	1691.62
817.88	1763.30
818.05	1763.30
818.22	1640.42
818.40	1867.75
818.57	1755.11
818.74	1693.67
818.91	1734.63
819.09	1759.21
819.26	1759.21
819.43	1662.95
819.60	1615.85
819.78	1714.15
819.95	1828.84
820.12	1660.90
820.29	1771.49
820.47	1839.08
820.64	1736.68
820.81	1599.46
820.98	1562.60
821.15	1681.38
821.33	1722.34
821.50	1646.57
821.67	1753.06
821.84	1621.99
822.02	1716.20
822.19	1734.63
822.36	1710.05
822.53	1665.00
822.70	1681.38
822.88	1681.38
823.05	1791.97
823.22	1691.62
823.39	1769.44
823.56	1710.05
823.74	1751.01
823.91	1691.62
824.08	1605.61
824.25	1626.09
824.42	1824.74
824.60	1673.19
824.77	1705.96
824.94	1705.96
825.11	1673.19
825.28	1681.38
825.45	1722.34
825.63	1757.16
825.80	1654.76
825.97	1724.39
826.14	1705.96
826.31	1605.61
826.48	1718.25
826.66	1628.14
826.83	1701.86
827.00	1687.53
827.17	1667.05
827.34	1746.92
827.51	1703.91
827.69	1710.05
827.86	1624.04
828.03	1753.06
828.20	1710.05
828.37	1681.38
828.54	1775.59
828.71	1718.25
828.89	1746.92
829.06	1662.95
829.23	1781.73
829.40	1642.47
829.57	1712.10
829.74	1742.82
829.91	1685.48
830.09	1687.53
830.26	1748.97
830.43	1693.67
830.60	1658.85
830.77	1693.67
830.94	1773.54
831.11	1763.30
831.28	1726.44
831.46	1779.68
831.63	1638.38
831.80	1757.16
831.97	1734.63
832.14	1601.51
832.31	1759.21
832.48	1714.15
832.65	1800.16
832.82	1705.96
832.99	1677.29
833.17	1714.15
833.34	1714.15
833.51	1734.63
833.68	1611.75
833.85	1806.31
834.02	1712.10
834.19	1687.53
834.36	1599.46
834.53	1718.25
834.70	1810.40
834.87	1777.64
835.04	1720.29
835.22	1667.05
835.39	1656.81
835.56	1636.33
835.73	1650.66
835.90	1759.21
836.07	1607.66
836.24	1773.54
836.41	1642.47
836.58	1722.34
836.75	1791.97
836.92	1710.05
837.09	1650.66
837.26	1759.21
837.43	1765.35
837.60	1695.72
837.77	1679.33
837.94	1773.54
838.12	1791.97
838.29	1714.15
838.46	1607.66
838.63	1701.86
838.80	1705.96
838.97	1730.53
839.14	1708.01
839.31	1712.10
839.48	1775.59
839.65	1660.90
839.82	1712.10
839.99	1714.15
840.16	1665.00
840.33	1644.52
840.50	1716.20
840.67	1675.24
840.84	1550.31
841.01	1828.84
841.18	1652.71
841.35	1673.19
841.52	1785.83
841.69	1832.93
841.86	1740.77
842.03	1673.19
842.20	1740.77
842.37	1669.09
842.54	1714.15
842.71	1695.72
842.88	1628.14
843.05	1746.92
843.22	1683.43
843.39	1683.43
843.56	1783.78
843.73	1642.47
843.90	1669.09
844.07	1732.58
844.24	1751.01
844.41	1796.07
844.58	1685.48
844.75	1673.19
844.92	1738.73
845.09	1701.86
845.26	1638.38
845.43	1714.15
845.60	1734.63
845.77	1783.78
845.94	1667.05
846.10	1798.12
846.27	1634.28
846.44	1728.49
846.61	1693.67
846.78	1757.16
846.95	1783.78
847.12	1673.19
847.29	1646.57
847.46	1720.29
847.63	1810.40
847.80	1701.86
847.97	1767.40
848.14	1904.61
848.31	1705.96
848.48	1624.04
848.65	1748.97
848.82	1689.57
848.98	1777.64
849.15	1728.49
849.32	1722.34
849.49	1742.82
849.66	1638.38
849.83	1679.33
850.00	1712.10
850.17	1697.77
850.34	1699.81
850.51	1718.25
850.68	1675.24
850.85	1812.45
851.01	1789.92
851.18	1783.78
851.35	1669.09
851.52	1693.67
851.69	1808.36
851.86	1646.57
852.03	1652.71
852.20	1755.11
852.37	1730.53
852.53	1609.70
852.70	1617.90
852.87	1755.11
853.04	1789.92
853.21	1794.02
853.38	1816.55
853.55	1773.54
853.72	1734.63
853.89	1640.42
854.05	1726.44
854.22	1708.01
854.39	1701.86
854.56	1763.30
854.73	1769.44
854.90	1652.71
855.07	1716.20
855.23	1689.57
855.40	1621.99
855.57	1671.14
855.74	1675.24
855.91	1869.80
856.08	1568.74
856.25	1603.56
856.41	1687.53
856.58	1761.25
856.75	1681.38
856.92	1683.43
857.09	1744.87
857.26	1619.94
857.42	1759.21
857.59	1744.87
857.76	1708.01
857.93	1705.96
858.10	1673.19
858.27	1673.19
858.43	1701.86
858.60	1685.48
858.77	1578.98
858.94	1654.76
859.11	1658.85
859.27	1660.90
859.44	1689.57
859.61	1804.26
859.78	1746.92
859.95	1779.68
860.12	1638.38
860.28	1767.40
860.45	1834.98
860.62	1769.44
860.79	1718.25
860.95	1687.53
861.12	1675.24
861.29	1685.48
861.46	1566.70
861.63	1697.77
861.79	1738.73
861.96	1681.38
862.13	1691.62
862.30	1773.54
862.47	1748.97
862.63	1613.80
862.80	1794.02
862.97	1697.77
863.14	1753.06
863.30	1720.29
863.47	1636.33
863.64	1820.64
863.81	1673.19
863.97	1687.53
864.14	1673.19
864.31	1693.67
864.48	1691.62
864.65	1751.01
864.81	1748.97
864.98	1699.81
865.15	1789.92
865.32	1697.77
865.48	1806.31
865.65	1787.88
865.82	1705.96
865.98	1783.78
866.15	1697.77
866.32	1740.77
866.49	1724.39
866.65	1771.49
866.82	1683.43
866.99	1730.53
867.16	1665.00
867.32	1621.99
867.49	1675.24
867.66	1603.56
867.83	1740.77
867.99	1587.18
868.16	1734.63
868.33	1681.38
868.49	1744.87
868.66	1730.53
868.83	1738.73
868.99	1724.39
869.16	1593.32
869.33	1730.53
869.50	1796.07
869.66	1771.49
869.83	1714.15
870.00	1617.90
870.16	1771.49
870.33	1716.20
870.50	1787.88
870.66	1701.86
870.83	1873.89
871.00	1753.06
871.17	1787.88
871.33	1740.77
871.50	1742.82
871.67	1621.99
871.83	1673.19
872.00	1771.49
872.17	1714.15
872.33	1767.40
872.50	1763.30
872.67	1677.29
872.83	1716.20
873.00	1726.44
873.17	1703.91
873.33	1775.59
873.50	1746.92
873.67	1671.14
873.83	1697.77
874.00	1650.66
874.16	1732.58
874.33	1691.62
874.50	1630.18
874.66	1810.40
874.83	1695.72
875.00	1787.88
875.16	1804.26
875.33	1771.49
875.50	1595.37
875.66	1640.42
875.83	1658.85
875.99	1693.67
876.16	1705.96
876.33	1669.09
876.49	1648.61
876.66	1748.97
876.83	1751.01
876.99	1646.57
877.16	1695.72
877.32	1697.77
877.49	1732.58
877.66	1697.77
877.82	1806.31
877.99	1675.24
878.15	1724.39
878.32	1695.72
878.49	1734.63
878.65	1701.86
878.82	1757.16
878.98	1640.42
879.15	1787.88
879.32	1689.57
879.48	1740.77
879.65	1671.14
879.81	1615.85
879.98	1660.90
880.15	1699.81
880.31	1689.57
880.48	1665.00
880.64	1800.16
880.81	1845.22
880.97	1771.49
881.14	1744.87
881.31	1611.75
881.47	1875.94
881.64	1691.62
881.80	1560.55
881.97	1753.06
882.13	1771.49
882.30	1667.05
882.47	1703.91
882.63	1662.95
882.80	1662.95
882.96	1687.53
883.13	1746.92
883.29	1677.29
883.46	1716.20
883.62	1775.59
883.79	1697.77
883.95	1818.60
884.12	1705.96
884.29	1703.91
884.45	1751.01
884.62	1746.92
884.78	1644.52
884.95	1796.07
885.11	1599.46
885.28	1714.15
885.44	1665.00
885.61	1822.69
885.77	1710.05
885.94	1718.25
886.10	1673.19
886.27	1636.33
886.43	1820.64
886.60	1736.68
886.76	1697.77
886.93	1777.64
887.09	1738.73
887.26	1675.24
887.42	1740.77
887.59	1781.73
887.75	1847.27
887.92	1826.79
888.08	1765.35
888.25	1742.82
888.41	1738.73
888.58	1669.09
888.74	1673.19
888.91	1703.91
>>>>>End Processed Spectral Data<<<<<
