SpectraSuite Data File
++++++++++++++++++++++++++++++++++++
Date: Mon Jun 06 14:39:37 CEST 2016
User: root
Dark Spectrum Present: No
Reference Spectrum Present: No
Number of Sampled Component Spectra: 1
Spectrometers: USB4C02835
Integration Time (usec): 100000 (USB4C02835)
Spectra Averaged: 1 (USB4C02835)
Boxcar Smoothing: 0 (USB4C02835)
Correct for Electrical Dark: No (USB4C02835)
Strobe/Lamp Enabled: No (USB4C02835)
Correct for Detector Non-linearity: No (USB4C02835)
Correct for Stray Light: No (USB4C02835)
Number of Pixels in Processed Spectrum: 3648
>>>>>Begin Processed Spectral Data<<<<<
177.47	1447.91
177.69	1447.91
177.91	1447.91
178.13	1507.30
178.36	1437.67
178.58	1611.75
178.80	1736.68
179.02	1560.55
179.24	1638.38
179.46	1710.05
179.68	1738.73
179.90	1642.47
180.13	1736.68
180.35	1695.72
180.57	1656.81
180.79	1728.49
181.01	1755.11
181.23	1720.29
181.45	1783.78
181.67	1822.69
181.90	1718.25
182.12	1669.09
182.34	1654.76
182.56	1757.16
182.78	1669.09
183.00	1632.23
183.22	1724.39
183.44	1597.42
183.66	1826.79
183.89	1695.72
184.11	1681.38
184.33	1732.58
184.55	1791.97
184.77	1740.77
184.99	1724.39
185.21	1697.77
185.43	1843.17
185.65	1652.71
185.87	1714.15
186.10	1849.32
186.32	1839.08
186.54	1665.00
186.76	1771.49
186.98	1738.73
187.20	1638.38
187.42	1726.44
187.64	1722.34
187.86	1724.39
188.08	1773.54
188.30	1624.04
188.52	1720.29
188.75	1791.97
188.97	1677.29
189.19	1689.57
189.41	1730.53
189.63	1742.82
189.85	1708.01
190.07	1705.96
190.29	1535.98
190.51	1734.63
190.73	1703.91
190.95	1759.21
191.17	1724.39
191.39	1646.57
191.61	1708.01
191.84	1638.38
192.06	1722.34
192.28	1605.61
192.50	1935.33
192.72	1794.02
192.94	1716.20
193.16	1781.73
193.38	1656.81
193.60	1656.81
193.82	1685.48
194.04	1732.58
194.26	1783.78
194.48	1720.29
194.70	1681.38
194.92	1677.29
195.14	1697.77
195.36	1677.29
195.58	1830.88
195.80	1675.24
196.02	1617.90
196.24	1720.29
196.46	1755.11
196.69	1650.66
196.91	1804.26
197.13	1589.22
197.35	1705.96
197.57	1794.02
197.79	1714.15
198.01	1712.10
198.23	1740.77
198.45	1775.59
198.67	1648.61
198.89	1652.71
199.11	1708.01
199.33	1648.61
199.55	1642.47
199.77	1699.81
199.99	1757.16
200.21	1658.85
200.43	1730.53
200.65	1578.98
200.87	1658.85
201.09	1648.61
201.31	1789.92
201.53	1726.44
201.75	1615.85
201.97	1714.15
202.19	1695.72
202.41	1746.92
202.63	1748.97
202.85	1744.87
203.07	1658.85
203.29	1689.57
203.51	1658.85
203.73	1681.38
203.95	1853.41
204.17	1728.49
204.39	1689.57
204.61	1658.85
204.83	1755.11
205.05	1728.49
205.27	1693.67
205.49	1824.74
205.71	1699.81
205.93	1636.33
206.15	1652.71
206.37	1742.82
206.59	1710.05
206.81	1689.57
207.03	1601.51
207.25	1658.85
207.47	1695.72
207.69	1607.66
207.91	1802.21
208.13	1761.25
208.34	1609.70
208.56	1669.09
208.78	1755.11
209.00	1679.33
209.22	1609.70
209.44	1662.95
209.66	1714.15
209.88	1724.39
210.10	1720.29
210.32	1705.96
210.54	1818.60
210.76	1677.29
210.98	1810.40
211.20	1611.75
211.42	1691.62
211.64	1781.73
211.86	1732.58
212.08	1710.05
212.30	1800.16
212.52	1730.53
212.74	1773.54
212.96	1665.00
213.17	1755.11
213.39	1693.67
213.61	1779.68
213.83	1675.24
214.05	1560.55
214.27	1775.59
214.49	1761.25
214.71	1581.03
214.93	1806.31
215.15	1656.81
215.37	1708.01
215.59	1638.38
215.81	1751.01
216.03	1800.16
216.24	1714.15
216.46	1748.97
216.68	1687.53
216.90	1763.30
217.12	1779.68
217.34	1720.29
217.56	1767.40
217.78	1730.53
218.00	1767.40
218.22	1744.87
218.44	1738.73
218.66	1662.95
218.87	1802.21
219.09	1656.81
219.31	1669.09
219.53	1779.68
219.75	1753.06
219.97	1714.15
220.19	1689.57
220.41	1708.01
220.63	1687.53
220.85	1761.25
221.06	1644.52
221.28	1779.68
221.50	1740.77
221.72	1714.15
221.94	1759.21
222.16	1683.43
222.38	1798.12
222.60	1708.01
222.82	1703.91
223.03	1783.78
223.25	1673.19
223.47	1748.97
223.69	1814.50
223.91	1687.53
224.13	1716.20
224.35	1652.71
224.57	1722.34
224.78	1742.82
225.00	1644.52
225.22	1722.34
225.44	1708.01
225.66	1779.68
225.88	1652.71
226.10	1718.25
226.32	1679.33
226.53	1759.21
226.75	1712.10
226.97	1710.05
227.19	1755.11
227.41	1658.85
227.63	1642.47
227.85	1628.14
228.06	1701.86
228.28	1638.38
228.50	1697.77
228.72	1656.81
228.94	1669.09
229.16	1531.88
229.37	1714.15
229.59	1710.05
229.81	1761.25
230.03	1636.33
230.25	1619.94
230.47	1576.94
230.69	1587.18
230.90	1802.21
231.12	1644.52
231.34	1648.61
231.56	1755.11
231.78	1595.37
232.00	1761.25
232.21	1695.72
232.43	1667.05
232.65	1581.03
232.87	1751.01
233.09	1687.53
233.30	1662.95
233.52	1691.62
233.74	1773.54
233.96	1646.57
234.18	1712.10
234.40	1671.14
234.61	1865.70
234.83	1564.65
235.05	1644.52
235.27	1816.55
235.49	1746.92
235.70	1718.25
235.92	1828.84
236.14	1705.96
236.36	1853.41
236.58	1621.99
236.79	1632.23
237.01	1712.10
237.23	1652.71
237.45	1806.31
237.67	1634.28
237.88	1710.05
238.10	1849.32
238.32	1683.43
238.54	1656.81
238.76	1662.95
238.97	1751.01
239.19	1671.14
239.41	1708.01
239.63	1761.25
239.85	1681.38
240.06	1740.77
240.28	1638.38
240.50	1751.01
240.72	1701.86
240.93	1705.96
241.15	1681.38
241.37	1681.38
241.59	1773.54
241.81	1648.61
242.02	1636.33
242.24	1697.77
242.46	1726.44
242.68	1687.53
242.89	1775.59
243.11	1699.81
243.33	1691.62
243.55	1789.92
243.76	1714.15
243.98	1673.19
244.20	1751.01
244.42	1742.82
244.64	1695.72
244.85	1679.33
245.07	1660.90
245.29	1712.10
245.51	1693.67
245.72	1697.77
245.94	1853.41
246.16	1748.97
246.38	1755.11
246.59	1724.39
246.81	1603.56
247.03	1626.09
247.24	1599.46
247.46	1673.19
247.68	1675.24
247.90	1718.25
248.11	1683.43
248.33	1687.53
248.55	1751.01
248.77	1710.05
248.98	1816.55
249.20	1798.12
249.42	1716.20
249.64	1744.87
249.85	1779.68
250.07	1648.61
250.29	1656.81
250.50	1775.59
250.72	1642.47
250.94	1671.14
251.16	1890.28
251.37	1751.01
251.59	1736.68
251.81	1728.49
252.02	1839.08
252.24	1626.09
252.46	1763.30
252.68	1644.52
252.89	1621.99
253.11	1626.09
253.33	1816.55
253.54	1794.02
253.76	1628.14
253.98	1718.25
254.20	1701.86
254.41	1705.96
254.63	1767.40
254.85	1660.90
255.06	1691.62
255.28	1763.30
255.50	1761.25
255.71	1683.43
255.93	1673.19
256.15	1652.71
256.36	1824.74
256.58	1605.61
256.80	1722.34
257.02	1673.19
257.23	1705.96
257.45	1757.16
257.67	1724.39
257.88	1671.14
258.10	1689.57
258.32	1720.29
258.53	1761.25
258.75	1826.79
258.97	1665.00
259.18	1626.09
259.40	1720.29
259.62	1839.08
259.83	1726.44
260.05	1730.53
260.27	1943.52
260.48	1796.07
260.70	1615.85
260.92	1683.43
261.13	1681.38
261.35	1757.16
261.57	1665.00
261.78	1656.81
262.00	1648.61
262.22	1736.68
262.43	1660.90
262.65	1695.72
262.86	1683.43
263.08	1826.79
263.30	1710.05
263.51	1550.31
263.73	1705.96
263.95	1769.44
264.16	1628.14
264.38	1685.48
264.60	1732.58
264.81	1628.14
265.03	1777.64
265.25	1757.16
265.46	1689.57
265.68	1775.59
265.89	1740.77
266.11	1591.27
266.33	1742.82
266.54	1834.98
266.76	1695.72
266.98	1757.16
267.19	1816.55
267.41	1779.68
267.62	1742.82
267.84	1648.61
268.06	1724.39
268.27	1712.10
268.49	1675.24
268.70	1800.16
268.92	1689.57
269.14	1603.56
269.35	1626.09
269.57	1644.52
269.79	1705.96
270.00	1611.75
270.22	1759.21
270.43	1644.52
270.65	1628.14
270.87	1667.05
271.08	1806.31
271.30	1781.73
271.51	1673.19
271.73	1851.36
271.95	1701.86
272.16	1671.14
272.38	1671.14
272.59	1665.00
272.81	1697.77
273.02	1701.86
273.24	1794.02
273.46	1728.49
273.67	1578.98
273.89	1734.63
274.10	1619.94
274.32	1773.54
274.54	1730.53
274.75	1660.90
274.97	1624.04
275.18	1718.25
275.40	1748.97
275.61	1658.85
275.83	1705.96
276.05	1599.46
276.26	1710.05
276.48	1734.63
276.69	1675.24
276.91	1714.15
277.12	1779.68
277.34	1767.40
277.55	1751.01
277.77	1681.38
277.99	1673.19
278.20	1656.81
278.42	1691.62
278.63	1619.94
278.85	1689.57
279.06	1699.81
279.28	1687.53
279.49	1804.26
279.71	1697.77
279.93	1720.29
280.14	1742.82
280.36	1628.14
280.57	1806.31
280.79	1783.78
281.00	1687.53
281.22	1624.04
281.43	1771.49
281.65	1583.08
281.86	1689.57
282.08	1667.05
282.29	1671.14
282.51	1605.61
282.73	1634.28
282.94	1619.94
283.16	1777.64
283.37	1742.82
283.59	1734.63
283.80	1652.71
284.02	1714.15
284.23	1658.85
284.45	1650.66
284.66	1595.37
284.88	1691.62
285.09	1716.20
285.31	1744.87
285.52	1748.97
285.74	1601.51
285.95	1701.86
286.17	1769.44
286.38	1755.11
286.60	1683.43
286.81	1705.96
287.03	1738.73
287.24	1701.86
287.46	1718.25
287.67	1697.77
287.89	1783.78
288.10	1695.72
288.32	1748.97
288.53	1720.29
288.75	1738.73
288.96	1808.36
289.18	1650.66
289.39	1671.14
289.61	1730.53
289.82	1748.97
290.04	1763.30
290.25	1607.66
290.47	1740.77
290.68	1656.81
290.90	1796.07
291.11	1660.90
291.33	1703.91
291.54	1718.25
291.76	1693.67
291.97	1673.19
292.18	1732.58
292.40	1576.94
292.61	1646.57
292.83	1812.45
293.04	1781.73
293.26	1718.25
293.47	1726.44
293.69	1724.39
293.90	1740.77
294.12	1781.73
294.33	1675.24
294.55	1757.16
294.76	1712.10
294.97	1736.68
295.19	1855.46
295.40	1724.39
295.62	1763.30
295.83	1828.84
296.05	1638.38
296.26	1753.06
296.48	1660.90
296.69	1716.20
296.90	1683.43
297.12	1716.20
297.33	1820.64
297.55	1734.63
297.76	1728.49
297.98	1746.92
298.19	1705.96
298.41	1683.43
298.62	1669.09
298.83	1832.93
299.05	1677.29
299.26	1681.38
299.48	1683.43
299.69	1710.05
299.90	1761.25
300.12	1626.09
300.33	1779.68
300.55	1693.67
300.76	1759.21
300.98	1648.61
301.19	1849.32
301.40	1636.33
301.62	1695.72
301.83	1685.48
302.05	1712.10
302.26	1683.43
302.47	1789.92
302.69	1660.90
302.90	1734.63
303.12	1615.85
303.33	1724.39
303.54	1802.21
303.76	1730.53
303.97	1755.11
304.19	1888.23
304.40	1609.70
304.61	1765.35
304.83	1828.84
305.04	1738.73
305.26	1714.15
305.47	1650.66
305.68	1689.57
305.90	1636.33
306.11	1769.44
306.33	1732.58
306.54	1679.33
306.75	1654.76
306.97	1671.14
307.18	1669.09
307.39	1648.61
307.61	1730.53
307.82	1621.99
308.04	1705.96
308.25	1589.22
308.46	1699.81
308.68	1703.91
308.89	1712.10
309.10	1802.21
309.32	1765.35
309.53	1693.67
309.74	1734.63
309.96	1689.57
310.17	1753.06
310.39	1671.14
310.60	1685.48
310.81	1656.81
311.03	1632.23
311.24	1695.72
311.45	1773.54
311.67	1748.97
311.88	1759.21
312.09	1726.44
312.31	1673.19
312.52	1712.10
312.73	1753.06
312.95	1693.67
313.16	1675.24
313.37	1746.92
313.59	1708.01
313.80	1683.43
314.01	1763.30
314.23	1660.90
314.44	1683.43
314.65	1632.23
314.87	1648.61
315.08	1714.15
315.29	1615.85
315.51	1755.11
315.72	1570.79
315.93	1785.83
316.15	1755.11
316.36	1685.48
316.57	1763.30
316.79	1755.11
317.00	1791.97
317.21	1761.25
317.43	1648.61
317.64	1701.86
317.85	1658.85
318.07	1634.28
318.28	1603.56
318.49	1824.74
318.70	1953.76
318.92	1847.27
319.13	1796.07
319.34	1818.60
319.56	1796.07
319.77	1761.25
319.98	1744.87
320.20	1798.12
320.41	1773.54
320.62	1677.29
320.83	1695.72
321.05	1802.21
321.26	1660.90
321.47	1673.19
321.69	1781.73
321.90	1626.09
322.11	1687.53
322.32	1691.62
322.54	1837.03
322.75	1648.61
322.96	1832.93
323.18	1644.52
323.39	1646.57
323.60	1648.61
323.81	1761.25
324.03	1656.81
324.24	1746.92
324.45	1667.05
324.66	1728.49
324.88	1816.55
325.09	1765.35
325.30	1660.90
325.52	1722.34
325.73	1720.29
325.94	1648.61
326.15	1642.47
326.37	1683.43
326.58	1773.54
326.79	1787.88
327.00	1646.57
327.22	1748.97
327.43	1667.05
327.64	1589.22
327.85	1734.63
328.07	1595.37
328.28	1783.78
328.49	1660.90
328.70	1640.42
328.92	1665.00
329.13	1701.86
329.34	1740.77
329.55	1808.36
329.76	1681.38
329.98	1652.71
330.19	1751.01
330.40	1679.33
330.61	1581.03
330.83	1714.15
331.04	1689.57
331.25	1681.38
331.46	1669.09
331.68	1660.90
331.89	1712.10
332.10	1730.53
332.31	1576.94
332.52	1650.66
332.74	1781.73
332.95	1640.42
333.16	1689.57
333.37	1671.14
333.58	1734.63
333.80	1691.62
334.01	1632.23
334.22	1742.82
334.43	1689.57
334.64	1681.38
334.86	1607.66
335.07	1685.48
335.28	1767.40
335.49	1605.61
335.70	1726.44
335.92	1726.44
336.13	1771.49
336.34	1722.34
336.55	1736.68
336.76	1701.86
336.98	1554.41
337.19	1779.68
337.40	1769.44
337.61	1890.28
337.82	1701.86
338.04	1677.29
338.25	1642.47
338.46	1658.85
338.67	1671.14
338.88	1708.01
339.09	1595.37
339.31	1626.09
339.52	1658.85
339.73	1705.96
339.94	1718.25
340.15	1728.49
340.36	1583.08
340.58	1742.82
340.79	1658.85
341.00	1820.64
341.21	1685.48
341.42	1828.84
341.63	1773.54
341.85	1804.26
342.06	1777.64
342.27	1650.66
342.48	1722.34
342.69	1638.38
342.90	1763.30
343.12	1683.43
343.33	1656.81
343.54	1759.21
343.75	1767.40
343.96	1708.01
344.17	1714.15
344.38	1689.57
344.60	1695.72
344.81	1642.47
345.02	1705.96
345.23	1710.05
345.44	1851.36
345.65	1691.62
345.86	1722.34
346.07	1724.39
346.29	1697.77
346.50	1755.11
346.71	1738.73
346.92	1806.31
347.13	1845.22
347.34	1681.38
347.55	1748.97
347.76	1748.97
347.98	1654.76
348.19	1660.90
348.40	1730.53
348.61	1683.43
348.82	1789.92
349.03	1746.92
349.24	1644.52
349.45	1781.73
349.66	1581.03
349.88	1578.98
350.09	1710.05
350.30	1746.92
350.51	1794.02
350.72	1714.15
350.93	1726.44
351.14	1755.11
351.35	1746.92
351.56	1779.68
351.77	1638.38
351.99	1718.25
352.20	1822.69
352.41	1785.83
352.62	1558.50
352.83	1712.10
353.04	1669.09
353.25	1675.24
353.46	1746.92
353.67	1724.39
353.88	1628.14
354.09	1693.67
354.30	1671.14
354.52	1767.40
354.73	1589.22
354.94	1703.91
355.15	1648.61
355.36	1851.36
355.57	1644.52
355.78	1716.20
355.99	1685.48
356.20	1775.59
356.41	1806.31
356.62	1734.63
356.83	1673.19
357.04	1751.01
357.25	1503.21
357.46	1683.43
357.68	1699.81
357.89	1603.56
358.10	1736.68
358.31	1701.86
358.52	1718.25
358.73	1617.90
358.94	1613.80
359.15	1705.96
359.36	1763.30
359.57	1716.20
359.78	1708.01
359.99	1771.49
360.20	1783.78
360.41	1689.57
360.62	1730.53
360.83	1665.00
361.04	1728.49
361.25	1796.07
361.46	1865.70
361.67	1802.21
361.88	1712.10
362.09	1699.81
362.30	1714.15
362.51	1632.23
362.72	1679.33
362.93	1767.40
363.14	1726.44
363.35	1728.49
363.56	1683.43
363.78	1724.39
363.99	1744.87
364.20	1689.57
364.41	1726.44
364.62	1681.38
364.83	1699.81
365.04	1667.05
365.25	1734.63
365.46	1748.97
365.67	1697.77
365.88	1724.39
366.09	1660.90
366.30	1662.95
366.51	1669.09
366.72	1607.66
366.93	1671.14
367.14	1646.57
367.35	1798.12
367.56	1624.04
367.77	1849.32
367.98	1718.25
368.18	1734.63
368.39	1714.15
368.60	1697.77
368.81	1658.85
369.02	1722.34
369.23	1605.61
369.44	1615.85
369.65	1703.91
369.86	1730.53
370.07	1683.43
370.28	1646.57
370.49	1757.16
370.70	1761.25
370.91	1628.14
371.12	1660.90
371.33	1746.92
371.54	1673.19
371.75	1818.60
371.96	1601.51
372.17	1687.53
372.38	1738.73
372.59	1746.92
372.80	1665.00
373.01	1640.42
373.22	1724.39
373.43	1695.72
373.64	1628.14
373.85	1791.97
374.06	1765.35
374.26	1722.34
374.47	1718.25
374.68	1841.12
374.89	1667.05
375.10	1683.43
375.31	1802.21
375.52	1640.42
375.73	1712.10
375.94	1685.48
376.15	1730.53
376.36	1644.52
376.57	1675.24
376.78	1648.61
376.99	1701.86
377.20	1775.59
377.40	1638.38
377.61	1849.32
377.82	1665.00
378.03	1757.16
378.24	1773.54
378.45	1742.82
378.66	1759.21
378.87	1603.56
379.08	1644.52
379.29	1648.61
379.50	1796.07
379.71	1640.42
379.91	1724.39
380.12	1722.34
380.33	1681.38
380.54	1705.96
380.75	1705.96
380.96	1658.85
381.17	1816.55
381.38	1695.72
381.59	1763.30
381.80	1693.67
382.00	1789.92
382.21	1785.83
382.42	1845.22
382.63	1861.60
382.84	1746.92
383.05	1697.77
383.26	1834.98
383.47	1751.01
383.68	1787.88
383.88	1767.40
384.09	1740.77
384.30	1806.31
384.51	1736.68
384.72	1712.10
384.93	1640.42
385.14	1734.63
385.35	1808.36
385.55	1626.09
385.76	1769.44
385.97	1652.71
386.18	1636.33
386.39	1636.33
386.60	1705.96
386.81	1634.28
387.02	1685.48
387.22	1640.42
387.43	1708.01
387.64	1769.44
387.85	1845.22
388.06	2213.85
388.27	4347.84
388.48	6795.16
388.68	8298.37
388.89	9922.41
389.10	9865.07
389.31	8617.85
389.52	7843.72
389.73	6807.45
389.93	6352.80
390.14	5918.63
390.35	5277.62
390.56	4583.35
390.77	3772.36
390.98	3164.11
391.18	2543.58
391.39	2107.36
391.60	1826.79
391.81	1857.51
392.02	1738.73
392.23	1857.51
392.43	1753.06
392.64	1794.02
392.85	1767.40
393.06	1812.45
393.27	1712.10
393.47	1652.71
393.68	1789.92
393.89	1679.33
394.10	1873.89
394.31	1718.25
394.52	1648.61
394.72	1652.71
394.93	1753.06
395.14	1656.81
395.35	1757.16
395.56	1660.90
395.76	1773.54
395.97	1705.96
396.18	1755.11
396.39	1814.50
396.60	2031.58
396.80	1912.80
397.01	1896.42
397.22	1820.64
397.43	1861.60
397.64	1726.44
397.84	1771.49
398.05	1828.84
398.26	1722.34
398.47	1738.73
398.67	1755.11
398.88	1796.07
399.09	1718.25
399.30	1687.53
399.51	1748.97
399.71	1710.05
399.92	1689.57
400.13	1710.05
400.34	1673.19
400.54	1636.33
400.75	1757.16
400.96	1779.68
401.17	1867.75
401.37	1751.01
401.58	1689.57
401.79	1699.81
402.00	1837.03
402.21	1964.00
402.41	1894.37
402.62	2011.11
402.83	2062.30
403.04	2029.54
403.24	2050.02
403.45	1855.46
403.66	1902.56
403.87	1904.61
404.07	1961.95
404.28	1918.95
404.49	1910.75
404.70	1787.88
404.90	1769.44
405.11	1705.96
405.32	1755.11
405.52	1708.01
405.73	1679.33
405.94	1638.38
406.15	1695.72
406.35	1726.44
406.56	1701.86
406.77	1701.86
406.98	1751.01
407.18	1671.14
407.39	1851.36
407.60	1658.85
407.80	1751.01
408.01	1691.62
408.22	1687.53
408.43	1650.66
408.63	1800.16
408.84	1777.64
409.05	1796.07
409.25	1660.90
409.46	1654.76
409.67	1765.35
409.88	1607.66
410.08	1689.57
410.29	1710.05
410.50	1736.68
410.70	1779.68
410.91	1593.32
411.12	1701.86
411.32	1681.38
411.53	1714.15
411.74	1814.50
411.95	1798.12
412.15	1812.45
412.36	1812.45
412.57	1763.30
412.77	1812.45
412.98	1632.23
413.19	1617.90
413.39	1789.92
413.60	1671.14
413.81	1787.88
414.01	1667.05
414.22	1787.88
414.43	1791.97
414.63	1632.23
414.84	1728.49
415.05	1740.77
415.25	1718.25
415.46	1734.63
415.67	1740.77
415.87	1660.90
416.08	1691.62
416.29	1689.57
416.49	1796.07
416.70	1708.01
416.91	1753.06
417.11	1693.67
417.32	1746.92
417.53	1787.88
417.73	1712.10
417.94	1656.81
418.15	1771.49
418.35	1628.14
418.56	1640.42
418.77	1738.73
418.97	1730.53
419.18	1693.67
419.38	1570.79
419.59	1697.77
419.80	1794.02
420.00	1681.38
420.21	1802.21
420.42	1744.87
420.62	1652.71
420.83	1628.14
421.04	1718.25
421.24	1665.00
421.45	1771.49
421.65	1677.29
421.86	1716.20
422.07	1701.86
422.27	1697.77
422.48	1679.33
422.69	1693.67
422.89	1636.33
423.10	1662.95
423.30	1583.08
423.51	1669.09
423.72	1753.06
423.92	1720.29
424.13	1646.57
424.33	1656.81
424.54	1722.34
424.75	1687.53
424.95	1902.56
425.16	1718.25
425.36	1738.73
425.57	1853.41
425.78	1767.40
425.98	1710.05
426.19	1658.85
426.39	1712.10
426.60	1644.52
426.81	1757.16
427.01	1722.34
427.22	1603.56
427.42	1662.95
427.63	1705.96
427.83	1697.77
428.04	1734.63
428.25	1705.96
428.45	1802.21
428.66	1777.64
428.86	1646.57
429.07	1708.01
429.28	1667.05
429.48	1705.96
429.69	1744.87
429.89	1691.62
430.10	1734.63
430.30	1738.73
430.51	1751.01
430.71	1669.09
430.92	1724.39
431.13	1642.47
431.33	1730.53
431.54	1804.26
431.74	1820.64
431.95	1800.16
432.15	1718.25
432.36	1675.24
432.56	1796.07
432.77	1771.49
432.98	1734.63
433.18	1818.60
433.39	1667.05
433.59	1681.38
433.80	1757.16
434.00	1869.80
434.21	1728.49
434.41	1728.49
434.62	1789.92
434.82	1619.94
435.03	1667.05
435.23	1718.25
435.44	1669.09
435.64	1757.16
435.85	1742.82
436.06	1783.78
436.26	1800.16
436.47	1667.05
436.67	1738.73
436.88	1765.35
437.08	1742.82
437.29	1765.35
437.49	1685.48
437.70	1746.92
437.90	1734.63
438.11	1877.99
438.31	1691.62
438.52	1847.27
438.72	1869.80
438.93	1779.68
439.13	1734.63
439.34	1787.88
439.54	1714.15
439.75	1875.94
439.95	1785.83
440.16	1665.00
440.36	1748.97
440.57	1738.73
440.77	1726.44
440.98	1685.48
441.18	1740.77
441.39	1705.96
441.59	1662.95
441.80	1794.02
442.00	1837.03
442.21	1806.31
442.41	1726.44
442.62	1820.64
442.82	1658.85
443.02	1652.71
443.23	1751.01
443.43	1650.66
443.64	1767.40
443.84	1718.25
444.05	1820.64
444.25	1738.73
444.46	1716.20
444.66	1703.91
444.87	1763.30
445.07	1652.71
445.28	1628.14
445.48	1812.45
445.69	1791.97
445.89	1906.66
446.09	1828.84
446.30	1984.48
446.50	2705.37
446.71	3778.50
446.91	4280.25
447.12	4835.25
447.32	4736.95
447.53	4349.89
447.73	3852.23
447.93	3663.82
448.14	3346.38
448.34	3225.55
448.55	2963.41
448.75	2850.77
448.96	2740.18
449.16	2510.81
449.36	2252.77
449.57	2019.30
449.77	1783.78
449.98	1748.97
450.18	1843.17
450.39	1820.64
450.59	1705.96
450.79	1791.97
451.00	1658.85
451.20	1814.50
451.41	1689.57
451.61	1806.31
451.81	1693.67
452.02	1683.43
452.22	1718.25
452.43	1718.25
452.63	1624.04
452.84	1693.67
453.04	1654.76
453.24	1779.68
453.45	1621.99
453.65	1734.63
453.86	1675.24
454.06	1693.67
454.26	1755.11
454.47	1669.09
454.67	1804.26
454.87	1714.15
455.08	1718.25
455.28	1857.51
455.49	1761.25
455.69	1677.29
455.89	1896.42
456.10	1759.21
456.30	1748.97
456.51	1771.49
456.71	1705.96
456.91	1755.11
457.12	1693.67
457.32	1728.49
457.52	1705.96
457.73	1826.79
457.93	1800.16
458.14	1710.05
458.34	1636.33
458.54	1699.81
458.75	1783.78
458.95	1798.12
459.15	1722.34
459.36	1814.50
459.56	1791.97
459.76	1779.68
459.97	1757.16
460.17	1816.55
460.37	1775.59
460.58	1591.27
460.78	1728.49
460.99	1712.10
461.19	1654.76
461.39	1687.53
461.60	1759.21
461.80	1742.82
462.00	1689.57
462.21	1677.29
462.41	1689.57
462.61	1611.75
462.82	1638.38
463.02	1787.88
463.22	1683.43
463.43	1800.16
463.63	1769.44
463.83	1697.77
464.04	1716.20
464.24	1736.68
464.44	1689.57
464.64	1697.77
464.85	1710.05
465.05	1757.16
465.25	1751.01
465.46	1658.85
465.66	1753.06
465.86	1777.64
466.07	1714.15
466.27	1738.73
466.47	1665.00
466.68	1597.42
466.88	1765.35
467.08	1761.25
467.29	1710.05
467.49	1779.68
467.69	1701.86
467.89	1708.01
468.10	1677.29
468.30	1728.49
468.50	1796.07
468.71	1771.49
468.91	1665.00
469.11	1783.78
469.31	1695.72
469.52	1722.34
469.72	1794.02
469.92	1865.70
470.13	1742.82
470.33	1708.01
470.53	1742.82
470.73	2045.92
470.94	2308.06
471.14	2349.02
471.34	2473.95
471.54	2486.23
471.75	2185.18
471.95	2193.37
472.15	2131.94
472.36	2078.69
472.56	2029.54
472.76	2070.50
472.96	1974.24
473.17	2017.25
473.37	1933.28
473.57	1826.79
473.77	1824.74
473.98	1796.07
474.18	1681.38
474.38	1832.93
474.58	1665.00
474.79	1697.77
474.99	1783.78
475.19	1796.07
475.39	1677.29
475.60	1699.81
475.80	1679.33
476.00	1751.01
476.20	1671.14
476.41	1759.21
476.61	1804.26
476.81	1761.25
477.01	1662.95
477.21	1884.13
477.42	1736.68
477.62	1648.61
477.82	1759.21
478.02	1763.30
478.23	1716.20
478.43	1644.52
478.63	1693.67
478.83	1681.38
479.03	1648.61
479.24	1720.29
479.44	1826.79
479.64	1656.81
479.84	1595.37
480.04	1740.77
480.25	1730.53
480.45	1720.29
480.65	1662.95
480.85	1832.93
481.06	1658.85
481.26	1689.57
481.46	1783.78
481.66	1714.15
481.86	1722.34
482.06	1738.73
482.27	1673.19
482.47	1728.49
482.67	1859.56
482.87	1638.38
483.07	1730.53
483.28	1662.95
483.48	1677.29
483.68	1687.53
483.88	1640.42
484.08	1617.90
484.29	1697.77
484.49	1738.73
484.69	1669.09
484.89	1783.78
485.09	1730.53
485.29	1738.73
485.50	1697.77
485.70	1728.49
485.90	1853.41
486.10	1685.48
486.30	1832.93
486.50	1761.25
486.71	1728.49
486.91	1744.87
487.11	1832.93
487.31	1701.86
487.51	1708.01
487.71	1689.57
487.91	1626.09
488.12	1619.94
488.32	1632.23
488.52	1738.73
488.72	1578.98
488.92	1710.05
489.12	1771.49
489.32	1767.40
489.53	1740.77
489.73	1617.90
489.93	1789.92
490.13	1656.81
490.33	1624.04
490.53	1755.11
490.73	1755.11
490.94	1615.85
491.14	1685.48
491.34	1824.74
491.54	2170.85
491.74	2553.82
491.94	2889.68
492.14	2947.03
492.34	3076.05
492.54	2717.65
492.75	2598.87
492.95	2484.19
493.15	2365.40
493.35	2344.92
493.55	2254.81
493.75	2164.70
493.95	2119.65
494.15	2080.74
494.35	1939.43
494.56	1812.45
494.76	1832.93
494.96	1800.16
495.16	1746.92
495.36	1759.21
495.56	1771.49
495.76	1710.05
495.96	1679.33
496.16	1679.33
496.36	1841.12
496.56	1716.20
496.77	1759.21
496.97	1677.29
497.17	1849.32
497.37	1609.70
497.57	1796.07
497.77	1722.34
497.97	1687.53
498.17	1755.11
498.37	1687.53
498.57	1751.01
498.77	1734.63
498.97	1845.22
499.17	1828.84
499.38	1728.49
499.58	1755.11
499.78	1773.54
499.98	1828.84
500.18	1720.29
500.38	1691.62
500.58	1961.95
500.78	2574.30
500.98	4624.31
501.18	5998.50
501.38	6791.06
501.58	7165.84
501.78	6795.16
501.98	5619.63
502.18	5052.34
502.38	4399.04
502.58	4181.95
502.78	3893.19
502.98	3749.83
503.18	3467.21
503.38	3262.41
503.59	2742.23
503.79	2605.02
503.99	2553.82
504.19	2275.29
504.39	2136.03
504.59	2152.42
504.79	2090.98
504.99	2056.16
505.19	1890.28
505.39	1867.75
505.59	1986.53
505.79	1861.60
505.99	1777.64
506.19	1816.55
506.39	1853.41
506.59	1771.49
506.79	1783.78
506.99	1855.46
507.19	1794.02
507.39	1746.92
507.59	1640.42
507.79	1695.72
507.99	1687.53
508.19	1708.01
508.39	1693.67
508.59	1673.19
508.79	1763.30
508.99	1861.60
509.19	1675.24
509.39	1769.44
509.59	1697.77
509.79	1671.14
509.99	1734.63
510.19	1912.80
510.39	1800.16
510.59	1718.25
510.79	1746.92
510.99	1660.90
511.19	1705.96
511.39	1869.80
511.59	1796.07
511.79	1787.88
511.99	1777.64
512.19	1834.98
512.38	1732.58
512.58	1759.21
512.78	1744.87
512.98	1759.21
513.18	1794.02
513.38	1652.71
513.58	1751.01
513.78	1708.01
513.98	1755.11
514.18	1738.73
514.38	1755.11
514.58	1687.53
514.78	1705.96
514.98	1628.14
515.18	1667.05
515.38	1656.81
515.58	1763.30
515.78	1677.29
515.98	1779.68
516.18	1830.88
516.38	1769.44
516.57	1720.29
516.77	1755.11
516.97	1765.35
517.17	1601.51
517.37	1634.28
517.57	1810.40
517.77	1746.92
517.97	1718.25
518.17	1812.45
518.37	1693.67
518.57	1703.91
518.77	1736.68
518.97	1720.29
519.16	1708.01
519.36	1794.02
519.56	1687.53
519.76	1665.00
519.96	1726.44
520.16	1841.12
520.36	1761.25
520.56	1767.40
520.76	1693.67
520.96	1708.01
521.16	1724.39
521.35	1783.78
521.55	1845.22
521.75	1710.05
521.95	1716.20
522.15	1593.32
522.35	1667.05
522.55	1740.77
522.75	1800.16
522.95	1742.82
523.14	1585.13
523.34	1798.12
523.54	1658.85
523.74	1757.16
523.94	1767.40
524.14	1607.66
524.34	1769.44
524.54	1841.12
524.73	1722.34
524.93	1820.64
525.13	1845.22
525.33	1742.82
525.53	1810.40
525.73	1705.96
525.93	1724.39
526.13	1691.62
526.32	1740.77
526.52	1732.58
526.72	1785.83
526.92	1697.77
527.12	1734.63
527.32	1552.36
527.52	1757.16
527.71	1802.21
527.91	1691.62
528.11	1644.52
528.31	1755.11
528.51	1685.48
528.71	1748.97
528.90	1714.15
529.10	1734.63
529.30	1767.40
529.50	1601.51
529.70	1714.15
529.90	1728.49
530.09	1763.30
530.29	1681.38
530.49	1716.20
530.69	1882.08
530.89	1742.82
531.09	1759.21
531.28	1699.81
531.48	1832.93
531.68	1730.53
531.88	1755.11
532.08	1759.21
532.28	1781.73
532.47	1769.44
532.67	1820.64
532.87	1677.29
533.07	1626.09
533.27	1873.89
533.46	1722.34
533.66	1798.12
533.86	1765.35
534.06	1646.57
534.26	1751.01
534.45	1703.91
534.65	1738.73
534.85	1732.58
535.05	1658.85
535.25	1757.16
535.44	1689.57
535.64	1755.11
535.84	1751.01
536.04	1783.78
536.24	1654.76
536.43	1667.05
536.63	1708.01
536.83	1767.40
537.03	1822.69
537.22	1699.81
537.42	1558.50
537.62	1753.06
537.82	1730.53
538.02	1742.82
538.21	1812.45
538.41	1890.28
538.61	1783.78
538.81	1720.29
539.00	1767.40
539.20	1660.90
539.40	1742.82
539.60	1753.06
539.79	1714.15
539.99	1744.87
540.19	1689.57
540.39	1705.96
540.58	1773.54
540.78	1820.64
540.98	1677.29
541.18	1791.97
541.37	1804.26
541.57	1738.73
541.77	1722.34
541.97	1705.96
542.16	1748.97
542.36	1705.96
542.56	1718.25
542.76	1859.56
542.95	1806.31
543.15	1802.21
543.35	1800.16
543.54	1714.15
543.74	1699.81
543.94	1742.82
544.14	1728.49
544.33	1794.02
544.53	1683.43
544.73	1703.91
544.93	1726.44
545.12	1763.30
545.32	1767.40
545.52	1699.81
545.71	1632.23
545.91	1681.38
546.11	1734.63
546.30	1665.00
546.50	1693.67
546.70	1753.06
546.90	1806.31
547.09	1660.90
547.29	1724.39
547.49	1695.72
547.68	1742.82
547.88	1746.92
548.08	1757.16
548.27	2105.31
548.47	1677.29
548.67	1640.42
548.87	1740.77
549.06	1648.61
549.26	1738.73
549.46	1681.38
549.65	1765.35
549.85	1705.96
550.05	1839.08
550.24	1705.96
550.44	1763.30
550.64	1720.29
550.83	1744.87
551.03	1789.92
551.23	1722.34
551.42	1812.45
551.62	1787.88
551.82	1699.81
552.01	1726.44
552.21	1830.88
552.41	1722.34
552.60	1849.32
552.80	1759.21
553.00	1710.05
553.19	1773.54
553.39	1875.94
553.59	1667.05
553.78	1755.11
553.98	1771.49
554.17	1658.85
554.37	1769.44
554.57	1796.07
554.76	1710.05
554.96	1642.47
555.16	1718.25
555.35	1718.25
555.55	1802.21
555.75	1730.53
555.94	1714.15
556.14	1615.85
556.33	1710.05
556.53	1660.90
556.73	1763.30
556.92	1738.73
557.12	1845.22
557.32	1816.55
557.51	1804.26
557.71	1771.49
557.90	1857.51
558.10	1751.01
558.30	1673.19
558.49	1726.44
558.69	1642.47
558.88	1800.16
559.08	1738.73
559.28	1740.77
559.47	1771.49
559.67	1767.40
559.86	1882.08
560.06	1759.21
560.26	1757.16
560.45	1816.55
560.65	1732.58
560.84	1849.32
561.04	1691.62
561.24	1863.65
561.43	1662.95
561.63	1828.84
561.82	1746.92
562.02	1755.11
562.22	1800.16
562.41	1693.67
562.61	1703.91
562.80	1710.05
563.00	1808.36
563.19	1812.45
563.39	1789.92
563.59	1810.40
563.78	1632.23
563.98	1593.32
564.17	1716.20
564.37	1693.67
564.56	1705.96
564.76	1693.67
564.96	1781.73
565.15	1724.39
565.35	1839.08
565.54	1656.81
565.74	1785.83
565.93	1755.11
566.13	1681.38
566.32	1751.01
566.52	1777.64
566.71	1732.58
566.91	1810.40
567.11	1699.81
567.30	1658.85
567.50	1759.21
567.69	1714.15
567.89	1726.44
568.08	1712.10
568.28	1708.01
568.47	1658.85
568.67	1791.97
568.86	1710.05
569.06	1720.29
569.25	1742.82
569.45	1660.90
569.64	1632.23
569.84	1669.09
570.04	1796.07
570.23	1716.20
570.43	1718.25
570.62	1794.02
570.82	1855.46
571.01	1665.00
571.21	1673.19
571.40	1640.42
571.60	1738.73
571.79	1718.25
571.99	1734.63
572.18	1652.71
572.38	1767.40
572.57	1710.05
572.77	1765.35
572.96	1888.23
573.16	1738.73
573.35	1691.62
573.55	1798.12
573.74	1753.06
573.94	1781.73
574.13	1703.91
574.33	1769.44
574.52	1708.01
574.71	1724.39
574.91	1724.39
575.10	1665.00
575.30	1742.82
575.49	1730.53
575.69	1722.34
575.88	1714.15
576.08	1722.34
576.27	1761.25
576.47	1718.25
576.66	1787.88
576.86	1775.59
577.05	1812.45
577.25	1843.17
577.44	1923.04
577.64	1697.77
577.83	1771.49
578.02	1751.01
578.22	1828.84
578.41	1863.65
578.61	1720.29
578.80	1621.99
579.00	1738.73
579.19	1738.73
579.39	1877.99
579.58	1849.32
579.77	1761.25
579.97	1812.45
580.16	1787.88
580.36	1804.26
580.55	1855.46
580.75	1777.64
580.94	1787.88
581.13	1890.28
581.33	1847.27
581.52	1665.00
581.72	1810.40
581.91	1873.89
582.11	1746.92
582.30	1746.92
582.49	1783.78
582.69	1824.74
582.88	1816.55
583.08	1796.07
583.27	1771.49
583.47	1742.82
583.66	1624.04
583.85	1738.73
584.05	1732.58
584.24	1742.82
584.44	1748.97
584.63	1810.40
584.82	1886.18
585.02	1832.93
585.21	1894.37
585.41	1724.39
585.60	1800.16
585.79	1957.86
585.99	1886.18
586.18	1798.12
586.37	2152.42
586.57	3569.61
586.76	9985.90
586.96	25347.71
587.15	34825.71
587.34	41035.15
587.54	43335.02
587.73	37365.19
587.93	26871.40
588.12	22210.22
588.31	18560.74
588.51	16668.42
588.70	15525.65
588.89	14542.63
589.09	12846.91
589.28	11224.92
589.47	9611.12
589.67	8021.89
589.86	6537.12
590.06	4876.21
590.25	3985.35
590.44	3137.49
590.64	2598.87
590.83	2160.61
591.02	2072.54
591.22	1998.82
591.41	1996.77
591.60	1898.47
591.80	1961.95
591.99	1755.11
592.18	1718.25
592.38	1841.12
592.57	1781.73
592.76	1853.41
592.96	1710.05
593.15	1753.06
593.34	1826.79
593.54	1751.01
593.73	1802.21
593.92	1730.53
594.12	1802.21
594.31	1767.40
594.50	1783.78
594.70	1769.44
594.89	1871.84
595.08	1624.04
595.28	1734.63
595.47	1867.75
595.66	1771.49
595.86	1611.75
596.05	1765.35
596.24	1736.68
596.43	1859.56
596.63	1880.04
596.82	1789.92
597.01	1746.92
597.21	1806.31
597.40	1759.21
597.59	1689.57
597.79	1724.39
597.98	1787.88
598.17	1763.30
598.36	1718.25
598.56	1679.33
598.75	1669.09
598.94	1802.21
599.14	1763.30
599.33	1683.43
599.52	1814.50
599.71	1771.49
599.91	1777.64
600.10	1681.38
600.29	1806.31
600.48	1775.59
600.68	1732.58
600.87	1759.21
601.06	1769.44
601.26	1699.81
601.45	1857.51
601.64	1714.15
601.83	1755.11
602.03	1728.49
602.22	1740.77
602.41	1810.40
602.60	1886.18
602.80	1736.68
602.99	1748.97
603.18	1730.53
603.37	1691.62
603.57	1761.25
603.76	1796.07
603.95	1783.78
604.14	1710.05
604.34	1644.52
604.53	1724.39
604.72	1759.21
604.91	1699.81
605.10	1769.44
605.30	1757.16
605.49	1873.89
605.68	1767.40
605.87	1662.95
606.07	1699.81
606.26	1742.82
606.45	1798.12
606.64	1800.16
606.84	1642.47
607.03	1705.96
607.22	1773.54
607.41	1689.57
607.60	1693.67
607.80	1843.17
607.99	1757.16
608.18	1693.67
608.37	1765.35
608.56	1730.53
608.76	1796.07
608.95	1818.60
609.14	1763.30
609.33	1759.21
609.52	1724.39
609.72	1740.77
609.91	1837.03
610.10	1669.09
610.29	1841.12
610.48	1755.11
610.68	1810.40
610.87	1777.64
611.06	1751.01
611.25	1746.92
611.44	1884.13
611.63	1730.53
611.83	1757.16
612.02	1701.86
612.21	1804.26
612.40	1624.04
612.59	1699.81
612.79	1753.06
612.98	1765.35
613.17	1832.93
613.36	1767.40
613.55	1806.31
613.74	1695.72
613.93	1720.29
614.13	1640.42
614.32	1816.55
614.51	1697.77
614.70	1722.34
614.89	1720.29
615.08	1736.68
615.28	2101.22
615.47	1671.14
615.66	1740.77
615.85	1712.10
616.04	1869.80
616.23	1798.12
616.42	1748.97
616.62	1703.91
616.81	1705.96
617.00	1769.44
617.19	1775.59
617.38	1574.89
617.57	1744.87
617.76	1789.92
617.95	1667.05
618.15	1742.82
618.34	1796.07
618.53	1662.95
618.72	1705.96
618.91	1861.60
619.10	1701.86
619.29	1787.88
619.48	1720.29
619.68	1751.01
619.87	1742.82
620.06	1619.94
620.25	1761.25
620.44	1734.63
620.63	1769.44
620.82	1695.72
621.01	1681.38
621.20	1685.48
621.39	1736.68
621.59	1789.92
621.78	1697.77
621.97	1665.00
622.16	1652.71
622.35	1802.21
622.54	1839.08
622.73	1744.87
622.92	1607.66
623.11	1740.77
623.30	1742.82
623.49	1734.63
623.68	1615.85
623.88	1820.64
624.07	1734.63
624.26	1693.67
624.45	1689.57
624.64	1689.57
624.83	1738.73
625.02	1787.88
625.21	1724.39
625.40	1771.49
625.59	1849.32
625.78	1779.68
625.97	1855.46
626.16	1773.54
626.35	1710.05
626.54	1812.45
626.74	1787.88
626.93	1691.62
627.12	1771.49
627.31	1794.02
627.50	1697.77
627.69	1753.06
627.88	1736.68
628.07	1691.62
628.26	1615.85
628.45	1669.09
628.64	1757.16
628.83	1691.62
629.02	1656.81
629.21	1697.77
629.40	1734.63
629.59	1683.43
629.78	1732.58
629.97	1732.58
630.16	1746.92
630.35	1728.49
630.54	1697.77
630.73	1716.20
630.92	1650.66
631.11	1660.90
631.30	1660.90
631.49	1785.83
631.68	1742.82
631.87	1728.49
632.06	1646.57
632.25	1861.60
632.44	1699.81
632.63	1806.31
632.82	1650.66
633.01	1636.33
633.20	1761.25
633.39	1648.61
633.58	1697.77
633.77	1771.49
633.96	1718.25
634.15	1718.25
634.34	1730.53
634.53	1722.34
634.72	1699.81
634.91	1617.90
635.10	1679.33
635.29	1779.68
635.48	1705.96
635.67	1652.71
635.86	1615.85
636.05	1697.77
636.24	1681.38
636.43	1845.22
636.62	1726.44
636.81	1597.42
637.00	1718.25
637.19	1771.49
637.38	1753.06
637.57	1671.14
637.76	1726.44
637.95	1787.88
638.14	1646.57
638.33	1675.24
638.52	1677.29
638.71	1671.14
638.89	1695.72
639.08	1814.50
639.27	1710.05
639.46	1697.77
639.65	1771.49
639.84	1779.68
640.03	1804.26
640.22	1642.47
640.41	1824.74
640.60	1746.92
640.79	1742.82
640.98	1734.63
641.17	1718.25
641.36	1728.49
641.55	1757.16
641.74	1634.28
641.92	1701.86
642.11	1660.90
642.30	1642.47
642.49	1619.94
642.68	1685.48
642.87	1800.16
643.06	1734.63
643.25	1724.39
643.44	1665.00
643.63	1826.79
643.82	1765.35
644.00	1648.61
644.19	1714.15
644.38	1626.09
644.57	1816.55
644.76	1654.76
644.95	1730.53
645.14	1738.73
645.33	1716.20
645.52	1781.73
645.71	1599.46
645.89	1646.57
646.08	1761.25
646.27	1734.63
646.46	1830.88
646.65	1667.05
646.84	1705.96
647.03	1697.77
647.22	1730.53
647.40	1783.78
647.59	1779.68
647.78	1673.19
647.97	1712.10
648.16	1648.61
648.35	1773.54
648.54	1765.35
648.73	1691.62
648.91	1771.49
649.10	1708.01
649.29	1701.86
649.48	1718.25
649.67	1753.06
649.86	1669.09
650.05	1705.96
650.23	1751.01
650.42	1638.38
650.61	1673.19
650.80	1824.74
650.99	1806.31
651.18	1779.68
651.36	1769.44
651.55	1732.58
651.74	1812.45
651.93	1671.14
652.12	1703.91
652.31	1771.49
652.49	1652.71
652.68	1718.25
652.87	1720.29
653.06	1712.10
653.25	1822.69
653.44	1660.90
653.62	1775.59
653.81	1746.92
654.00	1697.77
654.19	1785.83
654.38	1832.93
654.56	1693.67
654.75	1699.81
654.94	1636.33
655.13	1712.10
655.32	1695.72
655.51	1753.06
655.69	1703.91
655.88	1783.78
656.07	1687.53
656.26	1714.15
656.45	1634.28
656.63	1691.62
656.82	1714.15
657.01	1783.78
657.20	1619.94
657.38	1757.16
657.57	1697.77
657.76	1632.23
657.95	1783.78
658.14	1597.42
658.32	1697.77
658.51	1611.75
658.70	1716.20
658.89	1759.21
659.08	1681.38
659.26	1875.94
659.45	1619.94
659.64	1726.44
659.83	1683.43
660.01	1982.43
660.20	1673.19
660.39	1796.07
660.58	1662.95
660.76	1726.44
660.95	1732.58
661.14	1689.57
661.33	1665.00
661.51	1662.95
661.70	1691.62
661.89	1656.81
662.08	1687.53
662.26	1652.71
662.45	1617.90
662.64	1785.83
662.83	1734.63
663.01	1677.29
663.20	1734.63
663.39	1701.86
663.58	1662.95
663.76	1708.01
663.95	1767.40
664.14	1712.10
664.32	1640.42
664.51	1724.39
664.70	1566.70
664.89	1757.16
665.07	1626.09
665.26	1781.73
665.45	1632.23
665.64	1791.97
665.82	1689.57
666.01	1705.96
666.20	1695.72
666.38	1849.32
666.57	1832.93
666.76	2158.56
666.95	4644.79
667.13	10442.59
667.32	15318.81
667.51	18173.67
667.69	19478.23
667.88	17960.69
668.07	12619.58
668.25	9641.84
668.44	8316.80
668.63	7468.94
668.81	7067.54
669.00	6408.09
669.19	5803.94
669.38	5146.55
669.56	4675.51
669.75	4075.46
669.94	3469.26
670.12	2914.26
670.31	2490.33
670.50	2342.88
670.68	2025.44
670.87	1894.37
671.06	1806.31
671.24	1695.72
671.43	1857.51
671.62	1759.21
671.80	1675.24
671.99	1796.07
672.18	1705.96
672.36	1744.87
672.55	1767.40
672.74	1665.00
672.92	1779.68
673.11	1742.82
673.29	1667.05
673.48	1753.06
673.67	1703.91
673.85	1791.97
674.04	1677.29
674.23	1738.73
674.41	1818.60
674.60	1638.38
674.79	1552.36
674.97	1689.57
675.16	1748.97
675.34	1699.81
675.53	1611.75
675.72	1765.35
675.90	1800.16
676.09	1689.57
676.28	1658.85
676.46	1634.28
676.65	1728.49
676.83	1626.09
677.02	1769.44
677.21	1658.85
677.39	1755.11
677.58	1656.81
677.77	1687.53
677.95	1703.91
678.14	1775.59
678.32	1753.06
678.51	1738.73
678.70	1773.54
678.88	1689.57
679.07	1744.87
679.25	1675.24
679.44	1673.19
679.63	1679.33
679.81	1732.58
680.00	1814.50
680.18	1746.92
680.37	1734.63
680.55	1658.85
680.74	1632.23
680.93	1611.75
681.11	1650.66
681.30	1742.82
681.48	1724.39
681.67	1736.68
681.85	1726.44
682.04	1611.75
682.23	1703.91
682.41	1710.05
682.60	1640.42
682.78	1746.92
682.97	1650.66
683.15	1679.33
683.34	1734.63
683.53	1689.57
683.71	1677.29
683.90	1810.40
684.08	1746.92
684.27	1730.53
684.45	1710.05
684.64	1871.84
684.82	1662.95
685.01	1718.25
685.19	1712.10
685.38	1845.22
685.57	1640.42
685.75	1595.37
685.94	1738.73
686.12	1681.38
686.31	1697.77
686.49	1740.77
686.68	1636.33
686.86	1724.39
687.05	1748.97
687.23	1783.78
687.42	1613.80
687.60	1615.85
687.79	1734.63
687.97	1775.59
688.16	1695.72
688.34	1779.68
688.53	1660.90
688.71	1765.35
688.90	1751.01
689.08	1695.72
689.27	1566.70
689.45	1720.29
689.64	1794.02
689.82	1718.25
690.01	1689.57
690.19	1718.25
690.38	1787.88
690.56	1714.15
690.75	1652.71
690.93	1665.00
691.12	1683.43
691.30	1673.19
691.49	1665.00
691.67	1714.15
691.86	1785.83
692.04	1640.42
692.23	1689.57
692.41	1683.43
692.60	1859.56
692.78	1769.44
692.97	1687.53
693.15	1748.97
693.34	1740.77
693.52	1773.54
693.71	1638.38
693.89	1669.09
694.08	1658.85
694.26	1734.63
694.44	1748.97
694.63	1851.36
694.81	1685.48
695.00	1712.10
695.18	1773.54
695.37	1812.45
695.55	1775.59
695.74	1632.23
695.92	1587.18
696.10	1712.10
696.29	1615.85
696.47	1726.44
696.66	1697.77
696.84	1617.90
697.03	1667.05
697.21	1683.43
697.40	2289.63
697.58	1810.40
697.76	1630.18
697.95	1648.61
698.13	1615.85
698.32	1697.77
698.50	1720.29
698.68	1789.92
698.87	1669.09
699.05	1796.07
699.24	1718.25
699.42	1755.11
699.61	1689.57
699.79	1677.29
699.97	1791.97
700.16	1591.27
700.34	1527.78
700.53	1673.19
700.71	1761.25
700.89	1693.67
701.08	1687.53
701.26	1730.53
701.45	2084.83
701.63	1714.15
701.81	1640.42
702.00	1656.81
702.18	1718.25
702.37	1601.51
702.55	1628.14
702.73	1705.96
702.92	1683.43
703.10	1775.59
703.28	1746.92
703.47	1599.46
703.65	1779.68
703.84	1751.01
704.02	1656.81
704.20	1812.45
704.39	1673.19
704.57	1669.09
704.75	1783.78
704.94	1712.10
705.12	1652.71
705.30	1791.97
705.49	2271.20
705.67	4427.71
705.86	9613.17
706.04	12660.54
706.22	14733.09
706.41	15656.72
706.59	14184.23
706.77	9688.94
706.96	7468.94
707.14	6883.22
707.32	5996.45
707.51	5656.49
707.69	5085.11
707.87	4292.54
708.06	3518.41
708.24	2977.75
708.42	2441.18
708.61	2295.77
708.79	1927.14
708.97	1912.80
709.16	1789.92
709.34	1820.64
709.52	1660.90
709.71	1726.44
709.89	1730.53
710.07	1708.01
710.26	1710.05
710.44	1722.34
710.62	1802.21
710.80	1732.58
710.99	1730.53
711.17	1693.67
711.35	1726.44
711.54	1665.00
711.72	1806.31
711.90	1826.79
712.09	1820.64
712.27	1683.43
712.45	1775.59
712.63	1675.24
712.82	1751.01
713.00	1726.44
713.18	1701.86
713.37	1722.34
713.55	1796.07
713.73	1722.34
713.91	1718.25
714.10	1751.01
714.28	1665.00
714.46	1724.39
714.65	1687.53
714.83	1742.82
715.01	1658.85
715.19	1695.72
715.38	1683.43
715.56	1679.33
715.74	1636.33
715.92	1685.48
716.11	1738.73
716.29	1728.49
716.47	1718.25
716.65	1726.44
716.84	1558.50
717.02	1744.87
717.20	1675.24
717.38	1734.63
717.57	1765.35
717.75	1699.81
717.93	1601.51
718.11	1634.28
718.30	1601.51
718.48	1675.24
718.66	1718.25
718.84	1767.40
719.03	1681.38
719.21	1681.38
719.39	1837.03
719.57	1761.25
719.75	1771.49
719.94	1724.39
720.12	1689.57
720.30	1753.06
720.48	1755.11
720.67	1705.96
720.85	1646.57
721.03	1755.11
721.21	1613.80
721.39	1775.59
721.58	1667.05
721.76	1748.97
721.94	1738.73
722.12	1671.14
722.30	1794.02
722.49	1634.28
722.67	1769.44
722.85	1763.30
723.03	1630.18
723.21	1626.09
723.40	1675.24
723.58	1703.91
723.76	1748.97
723.94	1744.87
724.12	1685.48
724.30	1794.02
724.49	1771.49
724.67	1562.60
724.85	1697.77
725.03	1685.48
725.21	1705.96
725.40	1753.06
725.58	1705.96
725.76	1759.21
725.94	1775.59
726.12	1662.95
726.30	1757.16
726.49	1683.43
726.67	1746.92
726.85	1701.86
727.03	1730.53
727.21	2158.56
727.39	2928.60
727.57	3805.13
727.76	4202.43
727.94	4558.78
728.12	4454.33
728.30	3684.30
728.48	3033.04
728.66	2734.04
728.84	2578.39
729.03	2295.77
729.21	2119.65
729.39	1992.67
729.57	1839.08
729.75	1763.30
729.93	1834.98
730.11	1671.14
730.30	1691.62
730.48	1726.44
730.66	1816.55
730.84	1732.58
731.02	1687.53
731.20	1701.86
731.38	1724.39
731.56	1513.45
731.74	1679.33
731.93	1632.23
732.11	1724.39
732.29	1665.00
732.47	1777.64
732.65	1705.96
732.83	1771.49
733.01	1718.25
733.19	1720.29
733.37	1728.49
733.56	1744.87
733.74	1648.61
733.92	1886.18
734.10	1757.16
734.28	1775.59
734.46	1562.60
734.64	1716.20
734.82	1718.25
735.00	1660.90
735.18	1679.33
735.36	1683.43
735.54	1708.01
735.73	1763.30
735.91	1693.67
736.09	1757.16
736.27	1632.23
736.45	1748.97
736.63	1605.61
736.81	1656.81
736.99	1718.25
737.17	1787.88
737.35	1638.38
737.53	1740.77
737.71	1662.95
737.89	1746.92
738.07	1587.18
738.25	1609.70
738.43	1578.98
738.61	1656.81
738.80	1619.94
738.98	1652.71
739.16	1656.81
739.34	1685.48
739.52	1822.69
739.70	1624.04
739.88	1732.58
740.06	1779.68
740.24	1572.84
740.42	1703.91
740.60	1624.04
740.78	1744.87
740.96	1648.61
741.14	1687.53
741.32	1714.15
741.50	1624.04
741.68	1920.99
741.86	1808.36
742.04	1716.20
742.22	1644.52
742.40	1773.54
742.58	1697.77
742.76	1650.66
742.94	1691.62
743.12	1611.75
743.30	1665.00
743.48	1744.87
743.66	1644.52
743.84	1765.35
744.02	1671.14
744.20	1714.15
744.38	1650.66
744.56	1720.29
744.74	1785.83
744.92	1708.01
745.10	1820.64
745.28	1767.40
745.46	1775.59
745.64	1640.42
745.82	1703.91
746.00	1712.10
746.18	1665.00
746.36	1597.42
746.54	1724.39
746.72	1753.06
746.90	1650.66
747.08	1767.40
747.26	1630.18
747.44	1746.92
747.62	1738.73
747.80	1681.38
747.98	1775.59
748.15	1683.43
748.33	1847.27
748.51	1673.19
748.69	1730.53
748.87	1669.09
749.05	1650.66
749.23	1718.25
749.41	1740.77
749.59	1681.38
749.77	1812.45
749.95	1689.57
750.13	1714.15
750.31	1785.83
750.49	1691.62
750.67	1658.85
750.85	1785.83
751.03	1755.11
751.20	1695.72
751.38	1763.30
751.56	1718.25
751.74	1703.91
751.92	1646.57
752.10	1697.77
752.28	1783.78
752.46	1667.05
752.64	1724.39
752.82	1718.25
753.00	1820.64
753.18	1673.19
753.35	1697.77
753.53	1718.25
753.71	1748.97
753.89	1701.86
754.07	1685.48
754.25	1755.11
754.43	1675.24
754.61	1595.37
754.79	1708.01
754.97	1697.77
755.14	1763.30
755.32	1632.23
755.50	1736.68
755.68	1746.92
755.86	1640.42
756.04	1675.24
756.22	1626.09
756.40	1724.39
756.57	1810.40
756.75	1638.38
756.93	1726.44
757.11	1736.68
757.29	1638.38
757.47	1683.43
757.65	1599.46
757.82	1533.93
758.00	1671.14
758.18	1691.62
758.36	1617.90
758.54	1765.35
758.72	1628.14
758.90	1771.49
759.07	1650.66
759.25	1613.80
759.43	1775.59
759.61	1742.82
759.79	2228.19
759.97	1730.53
760.15	1681.38
760.32	1632.23
760.50	1662.95
760.68	1771.49
760.86	1628.14
761.04	1765.35
761.22	1818.60
761.39	1669.09
761.57	1695.72
761.75	1665.00
761.93	1732.58
762.11	1609.70
762.28	1708.01
762.46	1710.05
762.64	1724.39
762.82	1587.18
763.00	1681.38
763.18	1820.64
763.35	1681.38
763.53	1697.77
763.71	1769.44
763.89	1679.33
764.07	1685.48
764.24	1730.53
764.42	1734.63
764.60	1701.86
764.78	1753.06
764.96	1720.29
765.13	1687.53
765.31	1687.53
765.49	1812.45
765.67	1640.42
765.84	1626.09
766.02	1677.29
766.20	1671.14
766.38	1740.77
766.56	1730.53
766.73	1720.29
766.91	1687.53
767.09	1746.92
767.27	1742.82
767.44	1634.28
767.62	1718.25
767.80	1691.62
767.98	1597.42
768.15	1734.63
768.33	1705.96
768.51	1697.77
768.69	1816.55
768.87	1689.57
769.04	1785.83
769.22	1918.95
769.40	1820.64
769.58	1857.51
769.75	1630.18
769.93	1757.16
770.11	1724.39
770.28	1687.53
770.46	1615.85
770.64	1744.87
770.82	1689.57
770.99	1642.47
771.17	1742.82
771.35	1761.25
771.53	1738.73
771.70	1691.62
771.88	1730.53
772.06	1689.57
772.23	1662.95
772.41	1720.29
772.59	1716.20
772.77	1667.05
772.94	1697.77
773.12	1755.11
773.30	1665.00
773.47	1697.77
773.65	1656.81
773.83	1771.49
774.01	1708.01
774.18	1644.52
774.36	1701.86
774.54	1675.24
774.71	1679.33
774.89	1585.13
775.07	1679.33
775.24	1693.67
775.42	1656.81
775.60	1794.02
775.78	1640.42
775.95	1660.90
776.13	1646.57
776.31	1585.13
776.48	1636.33
776.66	1705.96
776.84	1705.96
777.01	1738.73
777.19	1599.46
777.37	1642.47
777.54	1738.73
777.72	1816.55
777.90	1673.19
778.07	1665.00
778.25	1988.58
778.43	1755.11
778.60	1746.92
778.78	1722.34
778.96	1769.44
779.13	1658.85
779.31	1806.31
779.49	1685.48
779.66	1714.15
779.84	1763.30
780.01	1685.48
780.19	1683.43
780.37	1767.40
780.54	1726.44
780.72	1667.05
780.90	1705.96
781.07	1695.72
781.25	1644.52
781.43	1761.25
781.60	1769.44
781.78	1759.21
781.95	1685.48
782.13	1699.81
782.31	1738.73
782.48	1646.57
782.66	1736.68
782.83	1736.68
783.01	1757.16
783.19	1755.11
783.36	1640.42
783.54	1701.86
783.72	1712.10
783.89	1710.05
784.07	1720.29
784.24	1712.10
784.42	1763.30
784.60	1724.39
784.77	1660.90
784.95	1619.94
785.12	1712.10
785.30	1624.04
785.47	1685.48
785.65	1689.57
785.83	1718.25
786.00	1689.57
786.18	1724.39
786.35	1654.76
786.53	1640.42
786.71	1748.97
786.88	1638.38
787.06	1681.38
787.23	1722.34
787.41	1619.94
787.58	1662.95
787.76	1609.70
787.94	1621.99
788.11	1695.72
788.29	1581.03
788.46	1652.71
788.64	1593.32
788.81	1671.14
788.99	1656.81
789.16	1638.38
789.34	1703.91
789.52	1667.05
789.69	1665.00
789.87	1626.09
790.04	1644.52
790.22	1681.38
790.39	1734.63
790.57	1640.42
790.74	1632.23
790.92	1771.49
791.09	1628.14
791.27	1716.20
791.44	1800.16
791.62	1617.90
791.79	1810.40
791.97	1712.10
792.15	1804.26
792.32	1714.15
792.50	1689.57
792.67	1697.77
792.85	1740.77
793.02	1751.01
793.20	1732.58
793.37	1585.13
793.55	1708.01
793.72	1673.19
793.90	1738.73
794.07	1687.53
794.25	1660.90
794.42	1689.57
794.60	1679.33
794.77	1742.82
794.95	1722.34
795.12	1832.93
795.30	1722.34
795.47	1568.74
795.65	1855.46
795.82	1736.68
796.00	1687.53
796.17	1765.35
796.34	1687.53
796.52	1718.25
796.69	1763.30
796.87	1712.10
797.04	1718.25
797.22	1755.11
797.39	1738.73
797.57	1748.97
797.74	1710.05
797.92	1650.66
798.09	1595.37
798.27	1763.30
798.44	1716.20
798.62	1626.09
798.79	1761.25
798.96	1767.40
799.14	1671.14
799.31	1880.04
799.49	1738.73
799.66	1693.67
799.84	1726.44
800.01	1681.38
800.19	1701.86
800.36	1652.71
800.53	1658.85
800.71	1679.33
800.88	1763.30
801.06	1689.57
801.23	1632.23
801.41	1712.10
801.58	1699.81
801.75	1646.57
801.93	1701.86
802.10	1771.49
802.28	1693.67
802.45	1630.18
802.63	1712.10
802.80	1734.63
802.97	1703.91
803.15	1677.29
803.32	1671.14
803.50	1726.44
803.67	1652.71
803.84	1609.70
804.02	1710.05
804.19	1671.14
804.37	1509.35
804.54	1689.57
804.71	1689.57
804.89	1726.44
805.06	1681.38
805.24	1630.18
805.41	1681.38
805.58	1630.18
805.76	1834.98
805.93	1718.25
806.10	1822.69
806.28	1736.68
806.45	1658.85
806.63	1740.77
806.80	1638.38
806.97	1730.53
807.15	1673.19
807.32	1777.64
807.49	1685.48
807.67	1648.61
807.84	1699.81
808.01	1597.42
808.19	1851.36
808.36	1771.49
808.54	1626.09
808.71	1634.28
808.88	1794.02
809.06	1794.02
809.23	1712.10
809.40	1718.25
809.58	1710.05
809.75	1677.29
809.92	1601.51
810.10	1820.64
810.27	1660.90
810.44	1783.78
810.62	1724.39
810.79	1748.97
810.96	1701.86
811.14	1683.43
811.31	1718.25
811.48	1791.97
811.66	1779.68
811.83	1705.96
812.00	1708.01
812.18	1718.25
812.35	1845.22
812.52	1665.00
812.69	1701.86
812.87	1648.61
813.04	1552.36
813.21	1785.83
813.39	1665.00
813.56	1701.86
813.73	1724.39
813.91	1558.50
814.08	1687.53
814.25	1728.49
814.42	1667.05
814.60	1671.14
814.77	1730.53
814.94	1693.67
815.12	1673.19
815.29	1810.40
815.46	1615.85
815.63	1710.05
815.81	1634.28
815.98	1710.05
816.15	1708.01
816.33	1779.68
816.50	1689.57
816.67	1621.99
816.84	1675.24
817.02	1591.27
817.19	1583.08
817.36	1697.77
817.53	1697.77
817.71	1701.86
817.88	1751.01
818.05	1730.53
818.22	1679.33
818.40	1757.16
818.57	1615.85
818.74	1728.49
818.91	1730.53
819.09	1712.10
819.26	1714.15
819.43	1705.96
819.60	1640.42
819.78	1685.48
819.95	1806.31
820.12	1632.23
820.29	1757.16
820.47	1720.29
820.64	1652.71
820.81	1656.81
820.98	1656.81
821.15	1785.83
821.33	1744.87
821.50	1617.90
821.67	1683.43
821.84	1615.85
822.02	1785.83
822.19	1734.63
822.36	1583.08
822.53	1583.08
822.70	1705.96
822.88	1675.24
823.05	1714.15
823.22	1703.91
823.39	1703.91
823.56	1734.63
823.74	1847.27
823.91	1673.19
824.08	1568.74
824.25	1705.96
824.42	1785.83
824.60	1652.71
824.77	1708.01
824.94	1718.25
825.11	1779.68
825.28	1556.46
825.45	1726.44
825.63	1673.19
825.80	1642.47
825.97	1626.09
826.14	1732.58
826.31	1611.75
826.48	1728.49
826.66	1734.63
826.83	1630.18
827.00	1734.63
827.17	1648.61
827.34	1632.23
827.51	1736.68
827.69	1718.25
827.86	1587.18
828.03	1632.23
828.20	1681.38
828.37	1644.52
828.54	1730.53
828.71	1603.56
828.89	1800.16
829.06	1673.19
829.23	1820.64
829.40	1658.85
829.57	1738.73
829.74	1712.10
829.91	1714.15
830.09	1695.72
830.26	1773.54
830.43	1746.92
830.60	1675.24
830.77	1687.53
830.94	1716.20
831.11	1728.49
831.28	1595.37
831.46	1804.26
831.63	1705.96
831.80	1722.34
831.97	1615.85
832.14	1650.66
832.31	1679.33
832.48	1640.42
832.65	1722.34
832.82	1677.29
832.99	1730.53
833.17	1607.66
833.34	1812.45
833.51	1687.53
833.68	1628.14
833.85	1693.67
834.02	1658.85
834.19	1734.63
834.36	1626.09
834.53	1728.49
834.70	1720.29
834.87	1660.90
835.04	1665.00
835.22	1652.71
835.39	1660.90
835.56	1626.09
835.73	1697.77
835.90	1767.40
836.07	1652.71
836.24	1798.12
836.41	1714.15
836.58	1669.09
836.75	1699.81
836.92	1699.81
837.09	1679.33
837.26	1761.25
837.43	1746.92
837.60	1714.15
837.77	1609.70
837.94	1769.44
838.12	1761.25
838.29	1722.34
838.46	1595.37
838.63	1611.75
838.80	1753.06
838.97	1742.82
839.14	1757.16
839.31	1656.81
839.48	1726.44
839.65	1656.81
839.82	1757.16
839.99	1701.86
840.16	1693.67
840.33	1669.09
840.50	1718.25
840.67	1689.57
840.84	1621.99
841.01	1726.44
841.18	1714.15
841.35	1673.19
841.52	1787.88
841.69	1816.55
841.86	1687.53
842.03	1679.33
842.20	1695.72
842.37	1712.10
842.54	1662.95
842.71	1744.87
842.88	1626.09
843.05	1740.77
843.22	1689.57
843.39	1779.68
843.56	1660.90
843.73	1697.77
843.90	1701.86
844.07	1675.24
844.24	1699.81
844.41	1771.49
844.58	1742.82
844.75	1656.81
844.92	1755.11
845.09	1746.92
845.26	1665.00
845.43	1755.11
845.60	1734.63
845.77	1751.01
845.94	1699.81
846.10	1761.25
846.27	1607.66
846.44	1613.80
846.61	1615.85
846.78	1722.34
846.95	1751.01
847.12	1720.29
847.29	1669.09
847.46	1581.03
847.63	1771.49
847.80	1632.23
847.97	1671.14
848.14	1757.16
848.31	1693.67
848.48	1695.72
848.65	1669.09
848.82	1669.09
848.98	1806.31
849.15	1826.79
849.32	1755.11
849.49	1701.86
849.66	1681.38
849.83	1683.43
850.00	1656.81
850.17	1740.77
850.34	1722.34
850.51	1685.48
850.68	1718.25
850.85	1753.06
851.01	1665.00
851.18	1761.25
851.35	1656.81
851.52	1736.68
851.69	1775.59
851.86	1583.08
852.03	1699.81
852.20	1777.64
852.37	1624.04
852.53	1619.94
852.70	1679.33
852.87	1744.87
853.04	1777.64
853.21	1673.19
853.38	1701.86
853.55	1767.40
853.72	1746.92
853.89	1654.76
854.05	1611.75
854.22	1638.38
854.39	1632.23
854.56	1761.25
854.73	1769.44
854.90	1662.95
855.07	1695.72
855.23	1677.29
855.40	1683.43
855.57	1658.85
855.74	1619.94
855.91	1822.69
856.08	1665.00
856.25	1636.33
856.41	1714.15
856.58	1734.63
856.75	1654.76
856.92	1630.18
857.09	1751.01
857.26	1675.24
857.42	1689.57
857.59	1787.88
857.76	1705.96
857.93	1705.96
858.10	1775.59
858.27	1687.53
858.43	1710.05
858.60	1681.38
858.77	1615.85
858.94	1730.53
859.11	1753.06
859.27	1734.63
859.44	1640.42
859.61	1818.60
859.78	1740.77
859.95	1677.29
860.12	1656.81
860.28	1800.16
860.45	1888.23
860.62	1583.08
860.79	1785.83
860.95	1615.85
861.12	1640.42
861.29	1646.57
861.46	1665.00
861.63	1667.05
861.79	1648.61
861.96	1675.24
862.13	1626.09
862.30	1740.77
862.47	1669.09
862.63	1673.19
862.80	1773.54
862.97	1728.49
863.14	1783.78
863.30	1761.25
863.47	1640.42
863.64	1744.87
863.81	1675.24
863.97	1720.29
864.14	1693.67
864.31	1675.24
864.48	1740.77
864.65	1720.29
864.81	1716.20
864.98	1703.91
865.15	1716.20
865.32	1710.05
865.48	1787.88
865.65	1767.40
865.82	1650.66
865.98	1691.62
866.15	1753.06
866.32	1765.35
866.49	1617.90
866.65	1759.21
866.82	1648.61
866.99	1718.25
867.16	1732.58
867.32	1650.66
867.49	1669.09
867.66	1609.70
867.83	1621.99
867.99	1634.28
868.16	1673.19
868.33	1626.09
868.49	1687.53
868.66	1716.20
868.83	1687.53
868.99	1724.39
869.16	1705.96
869.33	1746.92
869.50	1710.05
869.66	1759.21
869.83	1701.86
870.00	1611.75
870.16	1689.57
870.33	1619.94
870.50	1755.11
870.66	1669.09
870.83	1791.97
871.00	1732.58
871.17	1777.64
871.33	1689.57
871.50	1675.24
871.67	1697.77
871.83	1535.98
872.00	1796.07
872.17	1648.61
872.33	1781.73
872.50	1781.73
872.67	1648.61
872.83	1691.62
873.00	1673.19
873.17	1652.71
873.33	1640.42
873.50	1771.49
873.67	1607.66
873.83	1656.81
874.00	1716.20
874.16	1728.49
874.33	1658.85
874.50	1632.23
874.66	1710.05
874.83	1730.53
875.00	1759.21
875.16	1683.43
875.33	1734.63
875.50	1585.13
875.66	1677.29
875.83	1738.73
875.99	1759.21
876.16	1720.29
876.33	1652.71
876.49	1669.09
876.66	1665.00
876.83	1701.86
876.99	1560.55
877.16	1695.72
877.32	1730.53
877.49	1677.29
877.66	1693.67
877.82	1767.40
877.99	1710.05
878.15	1818.60
878.32	1724.39
878.49	1740.77
878.65	1667.05
878.82	1822.69
878.98	1644.52
879.15	1787.88
879.32	1667.05
879.48	1734.63
879.65	1681.38
879.81	1640.42
879.98	1642.47
880.15	1665.00
880.31	1693.67
880.48	1648.61
880.64	1796.07
880.81	1720.29
880.97	1785.83
881.14	1761.25
881.31	1617.90
881.47	1753.06
881.64	1671.14
881.80	1720.29
881.97	1720.29
882.13	1771.49
882.30	1597.42
882.47	1671.14
882.63	1638.38
882.80	1617.90
882.96	1656.81
883.13	1771.49
883.29	1697.77
883.46	1765.35
883.62	1851.36
883.79	1716.20
883.95	1744.87
884.12	1667.05
884.29	1769.44
884.45	1732.58
884.62	1695.72
884.78	1648.61
884.95	1734.63
885.11	1634.28
885.28	1714.15
885.44	1644.52
885.61	1761.25
885.77	1685.48
885.94	1689.57
886.10	1650.66
886.27	1730.53
886.43	1740.77
886.60	1736.68
886.76	1628.14
886.93	1660.90
887.09	1665.00
887.26	1644.52
887.42	1705.96
887.59	1761.25
887.75	1812.45
887.92	1732.58
888.08	1748.97
888.25	1685.48
888.41	1730.53
888.58	1710.05
888.74	1636.33
888.91	1681.38
>>>>>End Processed Spectral Data<<<<<
