SpectraSuite Data File
++++++++++++++++++++++++++++++++++++
Date: Mon Jun 06 14:56:17 CEST 2016
User: root
Dark Spectrum Present: No
Reference Spectrum Present: No
Number of Sampled Component Spectra: 1
Spectrometers: USB4C02835
Integration Time (usec): 100000 (USB4C02835)
Spectra Averaged: 1 (USB4C02835)
Boxcar Smoothing: 0 (USB4C02835)
Correct for Electrical Dark: No (USB4C02835)
Strobe/Lamp Enabled: No (USB4C02835)
Correct for Detector Non-linearity: No (USB4C02835)
Correct for Stray Light: No (USB4C02835)
Number of Pixels in Processed Spectrum: 3648
>>>>>Begin Processed Spectral Data<<<<<
177.47	1452.01
177.69	1452.01
177.91	1452.01
178.13	1492.97
178.36	1392.62
178.58	1605.61
178.80	1656.81
179.02	1621.99
179.24	1695.72
179.46	1705.96
179.68	1712.10
179.90	1687.53
180.13	1712.10
180.35	1710.05
180.57	1689.57
180.79	1697.77
181.01	1671.14
181.23	1746.92
181.45	1761.25
181.67	1718.25
181.90	1734.63
182.12	1687.53
182.34	1640.42
182.56	1716.20
182.78	1722.34
183.00	1697.77
183.22	1671.14
183.44	1558.50
183.66	1820.64
183.89	1781.73
184.11	1689.57
184.33	1742.82
184.55	1712.10
184.77	1742.82
184.99	1675.24
185.21	1685.48
185.43	1830.88
185.65	1673.19
185.87	1720.29
186.10	1791.97
186.32	1787.88
186.54	1703.91
186.76	1746.92
186.98	1783.78
187.20	1744.87
187.42	1722.34
187.64	1640.42
187.86	1736.68
188.08	1708.01
188.30	1654.76
188.52	1753.06
188.75	1775.59
188.97	1732.58
189.19	1687.53
189.41	1757.16
189.63	1732.58
189.85	1667.05
190.07	1656.81
190.29	1693.67
190.51	1757.16
190.73	1630.18
190.95	1781.73
191.17	1681.38
191.39	1619.94
191.61	1677.29
191.84	1701.86
192.06	1748.97
192.28	1587.18
192.50	1814.50
192.72	1742.82
192.94	1765.35
193.16	1751.01
193.38	1771.49
193.60	1695.72
193.82	1693.67
194.04	1728.49
194.26	1710.05
194.48	1671.14
194.70	1652.71
194.92	1773.54
195.14	1689.57
195.36	1601.51
195.58	1665.00
195.80	1671.14
196.02	1691.62
196.24	1593.32
196.46	1771.49
196.69	1634.28
196.91	1765.35
197.13	1701.86
197.35	1675.24
197.57	1740.77
197.79	1755.11
198.01	1654.76
198.23	1732.58
198.45	1740.77
198.67	1650.66
198.89	1634.28
199.11	1773.54
199.33	1642.47
199.55	1560.55
199.77	1689.57
199.99	1767.40
200.21	1697.77
200.43	1720.29
200.65	1652.71
200.87	1517.54
201.09	1681.38
201.31	1689.57
201.53	1796.07
201.75	1693.67
201.97	1722.34
202.19	1701.86
202.41	1701.86
202.63	1791.97
202.85	1757.16
203.07	1718.25
203.29	1740.77
203.51	1585.13
203.73	1714.15
203.95	1822.69
204.17	1712.10
204.39	1685.48
204.61	1755.11
204.83	1703.91
205.05	1789.92
205.27	1767.40
205.49	1867.75
205.71	1683.43
205.93	1650.66
206.15	1751.01
206.37	1722.34
206.59	1705.96
206.81	1574.89
207.03	1556.46
207.25	1632.23
207.47	1681.38
207.69	1632.23
207.91	1783.78
208.13	1857.51
208.34	1613.80
208.56	1665.00
208.78	1751.01
209.00	1757.16
209.22	1656.81
209.44	1677.29
209.66	1667.05
209.88	1740.77
210.10	1658.85
210.32	1712.10
210.54	1798.12
210.76	1613.80
210.98	1814.50
211.20	1566.70
211.42	1638.38
211.64	1843.17
211.86	1724.39
212.08	1722.34
212.30	1687.53
212.52	1660.90
212.74	1685.48
212.96	1689.57
213.17	1730.53
213.39	1834.98
213.61	1816.55
213.83	1669.09
214.05	1673.19
214.27	1775.59
214.49	1548.26
214.71	1669.09
214.93	1781.73
215.15	1632.23
215.37	1738.73
215.59	1619.94
215.81	1710.05
216.03	1730.53
216.24	1699.81
216.46	1660.90
216.68	1726.44
216.90	1689.57
217.12	1732.58
217.34	1710.05
217.56	1751.01
217.78	1767.40
218.00	1660.90
218.22	1699.81
218.44	1705.96
218.66	1720.29
218.87	1853.41
219.09	1701.86
219.31	1738.73
219.53	1812.45
219.75	1630.18
219.97	1691.62
220.19	1753.06
220.41	1675.24
220.63	1710.05
220.85	1681.38
221.06	1699.81
221.28	1714.15
221.50	1687.53
221.72	1748.97
221.94	1705.96
222.16	1703.91
222.38	1712.10
222.60	1728.49
222.82	1650.66
223.03	1736.68
223.25	1560.55
223.47	1753.06
223.69	1751.01
223.91	1642.47
224.13	1681.38
224.35	1658.85
224.57	1798.12
224.78	1697.77
225.00	1691.62
225.22	1636.33
225.44	1701.86
225.66	1716.20
225.88	1665.00
226.10	1736.68
226.32	1722.34
226.53	1759.21
226.75	1642.47
226.97	1685.48
227.19	1705.96
227.41	1681.38
227.63	1722.34
227.85	1660.90
228.06	1724.39
228.28	1697.77
228.50	1710.05
228.72	1665.00
228.94	1679.33
229.16	1617.90
229.37	1644.52
229.59	1658.85
229.81	1757.16
230.03	1683.43
230.25	1566.70
230.47	1679.33
230.69	1585.13
230.90	1759.21
231.12	1601.51
231.34	1660.90
231.56	1763.30
231.78	1673.19
232.00	1697.77
232.21	1699.81
232.43	1658.85
232.65	1595.37
232.87	1734.63
233.09	1665.00
233.30	1660.90
233.52	1718.25
233.74	1681.38
233.96	1724.39
234.18	1748.97
234.40	1648.61
234.61	1837.03
234.83	1597.42
235.05	1665.00
235.27	1796.07
235.49	1734.63
235.70	1726.44
235.92	1837.03
236.14	1628.14
236.36	1812.45
236.58	1619.94
236.79	1705.96
237.01	1748.97
237.23	1718.25
237.45	1820.64
237.67	1615.85
237.88	1773.54
238.10	1765.35
238.32	1662.95
238.54	1681.38
238.76	1621.99
238.97	1693.67
239.19	1697.77
239.41	1820.64
239.63	1787.88
239.85	1667.05
240.06	1683.43
240.28	1722.34
240.50	1652.71
240.72	1767.40
240.93	1734.63
241.15	1798.12
241.37	1669.09
241.59	1804.26
241.81	1673.19
242.02	1730.53
242.24	1757.16
242.46	1689.57
242.68	1603.56
242.89	1822.69
243.11	1785.83
243.33	1730.53
243.55	1720.29
243.76	1708.01
243.98	1710.05
244.20	1728.49
244.42	1722.34
244.64	1714.15
244.85	1638.38
245.07	1626.09
245.29	1736.68
245.51	1677.29
245.72	1650.66
245.94	1753.06
246.16	1671.14
246.38	1761.25
246.59	1646.57
246.81	1671.14
247.03	1708.01
247.24	1570.79
247.46	1730.53
247.68	1603.56
247.90	1740.77
248.11	1771.49
248.33	1710.05
248.55	1722.34
248.77	1763.30
248.98	1728.49
249.20	1730.53
249.42	1708.01
249.64	1759.21
249.85	1722.34
250.07	1660.90
250.29	1724.39
250.50	1755.11
250.72	1628.14
250.94	1712.10
251.16	1830.88
251.37	1738.73
251.59	1810.40
251.81	1699.81
252.02	1755.11
252.24	1701.86
252.46	1769.44
252.68	1689.57
252.89	1589.22
253.11	1619.94
253.33	1730.53
253.54	1814.50
253.76	1638.38
253.98	1705.96
254.20	1634.28
254.41	1619.94
254.63	1716.20
254.85	1646.57
255.06	1693.67
255.28	1712.10
255.50	1763.30
255.71	1718.25
255.93	1685.48
256.15	1742.82
256.36	1695.72
256.58	1701.86
256.80	1722.34
257.02	1746.92
257.23	1746.92
257.45	1619.94
257.67	1818.60
257.88	1624.04
258.10	1775.59
258.32	1675.24
258.53	1734.63
258.75	1802.21
258.97	1681.38
259.18	1667.05
259.40	1728.49
259.62	1779.68
259.83	1714.15
260.05	1767.40
260.27	1953.76
260.48	1746.92
260.70	1689.57
260.92	1675.24
261.13	1722.34
261.35	1644.52
261.57	1726.44
261.78	1611.75
262.00	1611.75
262.22	1703.91
262.43	1679.33
262.65	1650.66
262.86	1681.38
263.08	1765.35
263.30	1736.68
263.51	1583.08
263.73	1654.76
263.95	1742.82
264.16	1626.09
264.38	1734.63
264.60	1740.77
264.81	1650.66
265.03	1699.81
265.25	1781.73
265.46	1728.49
265.68	1832.93
265.89	1765.35
266.11	1642.47
266.33	1748.97
266.54	1806.31
266.76	1783.78
266.98	1740.77
267.19	1787.88
267.41	1724.39
267.62	1789.92
267.84	1681.38
268.06	1740.77
268.27	1642.47
268.49	1781.73
268.70	1718.25
268.92	1710.05
269.14	1677.29
269.35	1652.71
269.57	1703.91
269.79	1816.55
270.00	1632.23
270.22	1800.16
270.43	1675.24
270.65	1615.85
270.87	1738.73
271.08	1691.62
271.30	1718.25
271.51	1685.48
271.73	1728.49
271.95	1730.53
272.16	1714.15
272.38	1740.77
272.59	1708.01
272.81	1667.05
273.02	1705.96
273.24	1730.53
273.46	1757.16
273.67	1683.43
273.89	1673.19
274.10	1695.72
274.32	1763.30
274.54	1718.25
274.75	1697.77
274.97	1644.52
275.18	1722.34
275.40	1708.01
275.61	1708.01
275.83	1644.52
276.05	1652.71
276.26	1638.38
276.48	1775.59
276.69	1693.67
276.91	1583.08
277.12	1708.01
277.34	1765.35
277.55	1779.68
277.77	1730.53
277.99	1660.90
278.20	1609.70
278.42	1574.89
278.63	1576.94
278.85	1658.85
279.06	1601.51
279.28	1785.83
279.49	1748.97
279.71	1787.88
279.93	1726.44
280.14	1660.90
280.36	1611.75
280.57	1718.25
280.79	1800.16
281.00	1718.25
281.22	1705.96
281.43	1755.11
281.65	1566.70
281.86	1601.51
282.08	1767.40
282.29	1802.21
282.51	1615.85
282.73	1681.38
282.94	1636.33
283.16	1732.58
283.37	1777.64
283.59	1652.71
283.80	1665.00
284.02	1685.48
284.23	1714.15
284.45	1624.04
284.66	1636.33
284.88	1654.76
285.09	1675.24
285.31	1765.35
285.52	1767.40
285.74	1554.41
285.95	1753.06
286.17	1705.96
286.38	1738.73
286.60	1638.38
286.81	1669.09
287.03	1693.67
287.24	1701.86
287.46	1771.49
287.67	1734.63
287.89	1820.64
288.10	1658.85
288.32	1689.57
288.53	1804.26
288.75	1714.15
288.96	1693.67
289.18	1611.75
289.39	1695.72
289.61	1828.84
289.82	1814.50
290.04	1779.68
290.25	1714.15
290.47	1667.05
290.68	1734.63
290.90	1681.38
291.11	1644.52
291.33	1783.78
291.54	1665.00
291.76	1658.85
291.97	1652.71
292.18	1783.78
292.40	1626.09
292.61	1660.90
292.83	1751.01
293.04	1675.24
293.26	1740.77
293.47	1683.43
293.69	1665.00
293.90	1732.58
294.12	1769.44
294.33	1599.46
294.55	1697.77
294.76	1796.07
294.97	1798.12
295.19	1755.11
295.40	1648.61
295.62	1773.54
295.83	1691.62
296.05	1667.05
296.26	1677.29
296.48	1675.24
296.69	1765.35
296.90	1681.38
297.12	1787.88
297.33	1757.16
297.55	1712.10
297.76	1701.86
297.98	1779.68
298.19	1665.00
298.41	1740.77
298.62	1640.42
298.83	1816.55
299.05	1781.73
299.26	1626.09
299.48	1759.21
299.69	1722.34
299.90	1697.77
300.12	1687.53
300.33	1730.53
300.55	1648.61
300.76	1738.73
300.98	1570.79
301.19	1714.15
301.40	1589.22
301.62	1724.39
301.83	1777.64
302.05	1791.97
302.26	1685.48
302.47	1759.21
302.69	1607.66
302.90	1636.33
303.12	1615.85
303.33	1779.68
303.54	1828.84
303.76	1708.01
303.97	1767.40
304.19	1757.16
304.40	1626.09
304.61	1783.78
304.83	1773.54
305.04	1748.97
305.26	1765.35
305.47	1599.46
305.68	1714.15
305.90	1609.70
306.11	1759.21
306.33	1701.86
306.54	1693.67
306.75	1701.86
306.97	1636.33
307.18	1611.75
307.39	1722.34
307.61	1675.24
307.82	1609.70
308.04	1769.44
308.25	1675.24
308.46	1732.58
308.68	1705.96
308.89	1652.71
309.10	1826.79
309.32	1736.68
309.53	1646.57
309.74	1755.11
309.96	1652.71
310.17	1771.49
310.39	1679.33
310.60	1730.53
310.81	1617.90
311.03	1654.76
311.24	1712.10
311.45	1687.53
311.67	1794.02
311.88	1728.49
312.09	1646.57
312.31	1667.05
312.52	1714.15
312.73	1718.25
312.95	1619.94
313.16	1644.52
313.37	1769.44
313.59	1759.21
313.80	1697.77
314.01	1732.58
314.23	1701.86
314.44	1671.14
314.65	1652.71
314.87	1667.05
315.08	1726.44
315.29	1693.67
315.51	1714.15
315.72	1685.48
315.93	1751.01
316.15	1738.73
316.36	1636.33
316.57	1726.44
316.79	1722.34
317.00	1720.29
317.21	1742.82
317.43	1705.96
317.64	1691.62
317.85	1644.52
318.07	1669.09
318.28	1718.25
318.49	1730.53
318.70	1859.56
318.92	1738.73
319.13	1826.79
319.34	1853.41
319.56	1796.07
319.77	1755.11
319.98	1800.16
320.20	1748.97
320.41	1785.83
320.62	1791.97
320.83	1708.01
321.05	1785.83
321.26	1712.10
321.47	1669.09
321.69	1791.97
321.90	1564.65
322.11	1705.96
322.32	1656.81
322.54	1740.77
322.75	1673.19
322.96	1800.16
323.18	1626.09
323.39	1722.34
323.60	1648.61
323.81	1746.92
324.03	1683.43
324.24	1701.86
324.45	1785.83
324.66	1665.00
324.88	1748.97
325.09	1847.27
325.30	1757.16
325.52	1710.05
325.73	1714.15
325.94	1581.03
326.15	1697.77
326.37	1662.95
326.58	1785.83
326.79	1773.54
327.00	1646.57
327.22	1693.67
327.43	1681.38
327.64	1583.08
327.85	1740.77
328.07	1734.63
328.28	1837.03
328.49	1734.63
328.70	1687.53
328.92	1691.62
329.13	1701.86
329.34	1740.77
329.55	1798.12
329.76	1753.06
329.98	1724.39
330.19	1796.07
330.40	1710.05
330.61	1767.40
330.83	1755.11
331.04	1726.44
331.25	1699.81
331.46	1656.81
331.68	1615.85
331.89	1808.36
332.10	1726.44
332.31	1675.24
332.52	1742.82
332.74	1767.40
332.95	1615.85
333.16	1617.90
333.37	1716.20
333.58	1650.66
333.80	1763.30
334.01	1578.98
334.22	1665.00
334.43	1685.48
334.64	1630.18
334.86	1695.72
335.07	1658.85
335.28	1804.26
335.49	1669.09
335.70	1728.49
335.92	1738.73
336.13	1769.44
336.34	1669.09
336.55	1701.86
336.76	1746.92
336.98	1611.75
337.19	1634.28
337.40	1800.16
337.61	1796.07
337.82	1687.53
338.04	1761.25
338.25	1576.94
338.46	1677.29
338.67	1640.42
338.88	1611.75
339.09	1703.91
339.31	1705.96
339.52	1662.95
339.73	1621.99
339.94	1744.87
340.15	1771.49
340.36	1699.81
340.58	1675.24
340.79	1624.04
341.00	1746.92
341.21	1630.18
341.42	1771.49
341.63	1701.86
341.85	1667.05
342.06	1789.92
342.27	1632.23
342.48	1787.88
342.69	1714.15
342.90	1726.44
343.12	1693.67
343.33	1656.81
343.54	1785.83
343.75	1781.73
343.96	1654.76
344.17	1705.96
344.38	1634.28
344.60	1677.29
344.81	1656.81
345.02	1730.53
345.23	1773.54
345.44	1777.64
345.65	1734.63
345.86	1738.73
346.07	1705.96
346.29	1669.09
346.50	1689.57
346.71	1730.53
346.92	1785.83
347.13	1806.31
347.34	1744.87
347.55	1636.33
347.76	1802.21
347.98	1591.27
348.19	1712.10
348.40	1791.97
348.61	1636.33
348.82	1818.60
349.03	1773.54
349.24	1687.53
349.45	1773.54
349.66	1576.94
349.88	1730.53
350.09	1673.19
350.30	1767.40
350.51	1787.88
350.72	1695.72
350.93	1712.10
351.14	1636.33
351.35	1703.91
351.56	1716.20
351.77	1755.11
351.99	1718.25
352.20	1798.12
352.41	1736.68
352.62	1607.66
352.83	1669.09
353.04	1710.05
353.25	1691.62
353.46	1755.11
353.67	1816.55
353.88	1656.81
354.09	1603.56
354.30	1662.95
354.52	1789.92
354.73	1734.63
354.94	1671.14
355.15	1771.49
355.36	1849.32
355.57	1720.29
355.78	1738.73
355.99	1556.46
356.20	1693.67
356.41	1742.82
356.62	1697.77
356.83	1759.21
357.04	1738.73
357.25	1591.27
357.46	1650.66
357.68	1591.27
357.89	1718.25
358.10	1693.67
358.31	1681.38
358.52	1615.85
358.73	1642.47
358.94	1693.67
359.15	1640.42
359.36	1753.06
359.57	1673.19
359.78	1703.91
359.99	1742.82
360.20	1673.19
360.41	1636.33
360.62	1757.16
360.83	1728.49
361.04	1675.24
361.25	1716.20
361.46	1753.06
361.67	1718.25
361.88	1738.73
362.09	1742.82
362.30	1701.86
362.51	1679.33
362.72	1740.77
362.93	1751.01
363.14	1763.30
363.35	1677.29
363.56	1650.66
363.78	1802.21
363.99	1730.53
364.20	1632.23
364.41	1677.29
364.62	1736.68
364.83	1693.67
365.04	1669.09
365.25	1740.77
365.46	1820.64
365.67	1689.57
365.88	1644.52
366.09	1642.47
366.30	1621.99
366.51	1732.58
366.72	1638.38
366.93	1738.73
367.14	1673.19
367.35	1734.63
367.56	1703.91
367.77	1818.60
367.98	1761.25
368.18	1765.35
368.39	1730.53
368.60	1642.47
368.81	1800.16
369.02	1673.19
369.23	1677.29
369.44	1562.60
369.65	1689.57
369.86	1769.44
370.07	1708.01
370.28	1644.52
370.49	1681.38
370.70	1804.26
370.91	1624.04
371.12	1601.51
371.33	1767.40
371.54	1685.48
371.75	1808.36
371.96	1587.18
372.17	1665.00
372.38	1699.81
372.59	1699.81
372.80	1683.43
373.01	1669.09
373.22	1724.39
373.43	1738.73
373.64	1630.18
373.85	1722.34
374.06	1830.88
374.26	1789.92
374.47	1683.43
374.68	1794.02
374.89	1681.38
375.10	1665.00
375.31	1843.17
375.52	1673.19
375.73	1667.05
375.94	1597.42
376.15	1769.44
376.36	1652.71
376.57	1624.04
376.78	1716.20
376.99	1712.10
377.20	1834.98
377.40	1685.48
377.61	1730.53
377.82	1603.56
378.03	1810.40
378.24	1673.19
378.45	1683.43
378.66	1685.48
378.87	1685.48
379.08	1652.71
379.29	1718.25
379.50	1834.98
379.71	1714.15
379.91	1716.20
380.12	1703.91
380.33	1656.81
380.54	1681.38
380.75	1679.33
380.96	1732.58
381.17	1730.53
381.38	1738.73
381.59	1673.19
381.80	1632.23
382.00	1882.08
382.21	1767.40
382.42	1845.22
382.63	1841.12
382.84	1726.44
383.05	1742.82
383.26	1794.02
383.47	1685.48
383.68	1726.44
383.88	1759.21
384.09	1757.16
384.30	1810.40
384.51	1689.57
384.72	1669.09
384.93	1638.38
385.14	1671.14
385.35	1775.59
385.55	1662.95
385.76	1806.31
385.97	1632.23
386.18	1656.81
386.39	1650.66
386.60	1630.18
386.81	1748.97
387.02	1679.33
387.22	1619.94
387.43	1746.92
387.64	1751.01
387.85	1869.80
388.06	2160.61
388.27	4198.34
388.48	6520.73
388.68	7907.21
388.89	9283.44
389.10	9641.84
389.31	8419.20
389.52	7415.69
389.73	6619.04
389.93	6127.52
390.14	5666.73
390.35	5087.15
390.56	4609.98
390.77	3721.16
390.98	2934.74
391.18	2486.23
391.39	2078.69
391.60	1888.23
391.81	1771.49
392.02	1785.83
392.23	1853.41
392.43	1732.58
392.64	1771.49
392.85	1675.24
393.06	1726.44
393.27	1785.83
393.47	1691.62
393.68	1787.88
393.89	1681.38
394.10	1740.77
394.31	1630.18
394.52	1638.38
394.72	1675.24
394.93	1839.08
395.14	1638.38
395.35	1746.92
395.56	1638.38
395.76	1650.66
395.97	1742.82
396.18	1882.08
396.39	1763.30
396.60	1964.00
396.80	1882.08
397.01	1814.50
397.22	1775.59
397.43	1914.85
397.64	1753.06
397.84	1789.92
398.05	1847.27
398.26	1714.15
398.47	1748.97
398.67	1775.59
398.88	1751.01
399.09	1791.97
399.30	1699.81
399.51	1697.77
399.71	1626.09
399.92	1718.25
400.13	1757.16
400.34	1703.91
400.54	1687.53
400.75	1757.16
400.96	1728.49
401.17	1863.65
401.37	1742.82
401.58	1751.01
401.79	1710.05
402.00	1839.08
402.21	2000.87
402.41	1884.13
402.62	1966.05
402.83	1986.53
403.04	2002.91
403.24	1984.48
403.45	1718.25
403.66	1941.47
403.87	1859.56
404.07	1857.51
404.28	1830.88
404.49	1851.36
404.70	1757.16
404.90	1755.11
405.11	1705.96
405.32	1763.30
405.52	1681.38
405.73	1665.00
405.94	1603.56
406.15	1644.52
406.35	1759.21
406.56	1665.00
406.77	1773.54
406.98	1624.04
407.18	1644.52
407.39	1779.68
407.60	1660.90
407.80	1759.21
408.01	1654.76
408.22	1667.05
408.43	1683.43
408.63	1718.25
408.84	1761.25
409.05	1775.59
409.25	1687.53
409.46	1626.09
409.67	1708.01
409.88	1628.14
410.08	1701.86
410.29	1695.72
410.50	1695.72
410.70	1724.39
410.91	1640.42
411.12	1720.29
411.32	1718.25
411.53	1630.18
411.74	1724.39
411.95	1701.86
412.15	1677.29
412.36	1781.73
412.57	1781.73
412.77	1851.36
412.98	1734.63
413.19	1724.39
413.39	1746.92
413.60	1789.92
413.81	1812.45
414.01	1662.95
414.22	1722.34
414.43	1769.44
414.63	1662.95
414.84	1791.97
415.05	1781.73
415.25	1642.47
415.46	1748.97
415.67	1662.95
415.87	1738.73
416.08	1603.56
416.29	1634.28
416.49	1746.92
416.70	1665.00
416.91	1632.23
417.11	1648.61
417.32	1796.07
417.53	1738.73
417.73	1757.16
417.94	1728.49
418.15	1691.62
418.35	1765.35
418.56	1689.57
418.77	1767.40
418.97	1675.24
419.18	1712.10
419.38	1605.61
419.59	1728.49
419.80	1886.18
420.00	1732.58
420.21	1689.57
420.42	1748.97
420.62	1746.92
420.83	1779.68
421.04	1718.25
421.24	1697.77
421.45	1732.58
421.65	1771.49
421.86	1697.77
422.07	1716.20
422.27	1732.58
422.48	1644.52
422.69	1746.92
422.89	1693.67
423.10	1710.05
423.30	1683.43
423.51	1746.92
423.72	1634.28
423.92	1701.86
424.13	1611.75
424.33	1708.01
424.54	1740.77
424.75	1710.05
424.95	1712.10
425.16	1771.49
425.36	1695.72
425.57	1777.64
425.78	1755.11
425.98	1746.92
426.19	1744.87
426.39	1660.90
426.60	1763.30
426.81	1732.58
427.01	1701.86
427.22	1642.47
427.42	1593.32
427.63	1673.19
427.83	1767.40
428.04	1755.11
428.25	1796.07
428.45	1800.16
428.66	1746.92
428.86	1753.06
429.07	1677.29
429.28	1771.49
429.48	1621.99
429.69	1673.19
429.89	1767.40
430.10	1624.04
430.30	1726.44
430.51	1798.12
430.71	1576.94
430.92	1691.62
431.13	1648.61
431.33	1791.97
431.54	1722.34
431.74	1853.41
431.95	1824.74
432.15	1673.19
432.36	1718.25
432.56	1800.16
432.77	1777.64
432.98	1812.45
433.18	1722.34
433.39	1724.39
433.59	1714.15
433.80	1789.92
434.00	1839.08
434.21	1701.86
434.41	1669.09
434.62	1855.46
434.82	1708.01
435.03	1665.00
435.23	1763.30
435.44	1601.51
435.64	1720.29
435.85	1744.87
436.06	1789.92
436.26	1761.25
436.47	1662.95
436.67	1697.77
436.88	1736.68
437.08	1804.26
437.29	1794.02
437.49	1708.01
437.70	1798.12
437.90	1640.42
438.11	1847.27
438.31	1816.55
438.52	1849.32
438.72	1822.69
438.93	1920.99
439.13	1755.11
439.34	1804.26
439.54	1755.11
439.75	1814.50
439.95	1761.25
440.16	1691.62
440.36	1787.88
440.57	1726.44
440.77	1757.16
440.98	1716.20
441.18	1777.64
441.39	1714.15
441.59	1624.04
441.80	1861.60
442.00	1742.82
442.21	1755.11
442.41	1615.85
442.62	1787.88
442.82	1736.68
443.02	1730.53
443.23	1736.68
443.43	1724.39
443.64	1759.21
443.84	1646.57
444.05	1753.06
444.25	1677.29
444.46	1683.43
444.66	1705.96
444.87	1832.93
445.07	1626.09
445.28	1722.34
445.48	1791.97
445.69	1791.97
445.89	1824.74
446.09	1789.92
446.30	1927.14
446.50	2650.07
446.71	3643.34
446.91	4194.24
447.12	4769.72
447.32	4804.53
447.53	4243.39
447.73	3792.84
447.93	3577.80
448.14	3180.50
448.34	3106.77
448.55	2789.33
448.75	2731.99
448.96	2695.13
449.16	2455.51
449.36	2289.63
449.57	2023.39
449.77	1898.47
449.98	1834.98
450.18	1845.22
450.39	1888.23
450.59	1818.60
450.79	1753.06
451.00	1681.38
451.20	1822.69
451.41	1693.67
451.61	1734.63
451.81	1671.14
452.02	1685.48
452.22	1662.95
452.43	1648.61
452.63	1675.24
452.84	1671.14
453.04	1716.20
453.24	1796.07
453.45	1728.49
453.65	1724.39
453.86	1734.63
454.06	1697.77
454.26	1812.45
454.47	1683.43
454.67	1867.75
454.87	1705.96
455.08	1693.67
455.28	1873.89
455.49	1810.40
455.69	1675.24
455.89	1820.64
456.10	1783.78
456.30	1730.53
456.51	1884.13
456.71	1779.68
456.91	1740.77
457.12	1691.62
457.32	1787.88
457.52	1732.58
457.73	1726.44
457.93	1808.36
458.14	1734.63
458.34	1646.57
458.54	1730.53
458.75	1656.81
458.95	1789.92
459.15	1763.30
459.36	1724.39
459.56	1753.06
459.76	1826.79
459.97	1763.30
460.17	1673.19
460.37	1869.80
460.58	1689.57
460.78	1767.40
460.99	1781.73
461.19	1763.30
461.39	1683.43
461.60	1667.05
461.80	1804.26
462.00	1587.18
462.21	1718.25
462.41	1699.81
462.61	1720.29
462.82	1638.38
463.02	1716.20
463.22	1746.92
463.43	1820.64
463.63	1660.90
463.83	1845.22
464.04	1818.60
464.24	1695.72
464.44	1677.29
464.64	1759.21
464.85	1718.25
465.05	1861.60
465.25	1718.25
465.46	1730.53
465.66	1646.57
465.86	1757.16
466.07	1824.74
466.27	1724.39
466.47	1689.57
466.68	1667.05
466.88	1855.46
467.08	1687.53
467.29	1785.83
467.49	1783.78
467.69	1708.01
467.89	1785.83
468.10	1658.85
468.30	1751.01
468.50	1751.01
468.71	1767.40
468.91	1609.70
469.11	1794.02
469.31	1751.01
469.52	1570.79
469.72	1841.12
469.92	1814.50
470.13	1644.52
470.33	1765.35
470.53	1849.32
470.73	2090.98
470.94	2240.48
471.14	2308.06
471.34	2512.86
471.54	2338.78
471.75	2238.43
471.95	2160.61
472.15	2011.11
472.36	2064.35
472.56	2074.59
472.76	2039.78
472.96	1990.63
473.17	2027.49
473.37	1927.14
473.57	1771.49
473.77	1822.69
473.98	1746.92
474.18	1675.24
474.38	1861.60
474.58	1730.53
474.79	1705.96
474.99	1779.68
475.19	1771.49
475.39	1667.05
475.60	1757.16
475.80	1732.58
476.00	1798.12
476.20	1763.30
476.41	1773.54
476.61	1828.84
476.81	1820.64
477.01	1708.01
477.21	1937.38
477.42	1837.03
477.62	1654.76
477.82	1726.44
478.02	1660.90
478.23	1720.29
478.43	1720.29
478.63	1705.96
478.83	1701.86
479.03	1738.73
479.24	1839.08
479.44	1802.21
479.64	1708.01
479.84	1566.70
480.04	1716.20
480.25	1785.83
480.45	1677.29
480.65	1695.72
480.85	1734.63
481.06	1691.62
481.26	1798.12
481.46	1748.97
481.66	1656.81
481.86	1730.53
482.06	1773.54
482.27	1648.61
482.47	1695.72
482.67	1740.77
482.87	1667.05
483.07	1902.56
483.28	1640.42
483.48	1691.62
483.68	1656.81
483.88	1654.76
484.08	1699.81
484.29	1654.76
484.49	1732.58
484.69	1593.32
484.89	1781.73
485.09	1767.40
485.29	1769.44
485.50	1744.87
485.70	1652.71
485.90	1806.31
486.10	1767.40
486.30	1751.01
486.50	1761.25
486.71	1755.11
486.91	1757.16
487.11	1837.03
487.31	1646.57
487.51	1689.57
487.71	1693.67
487.91	1626.09
488.12	1689.57
488.32	1626.09
488.52	1751.01
488.72	1621.99
488.92	1748.97
489.12	1837.03
489.32	1673.19
489.53	1746.92
489.73	1562.60
489.93	1767.40
490.13	1712.10
490.33	1646.57
490.53	1705.96
490.73	1816.55
490.94	1624.04
491.14	1757.16
491.34	1914.85
491.54	2041.82
491.74	2473.95
491.94	2848.72
492.14	3078.10
492.34	2848.72
492.54	2736.09
492.75	2418.65
492.95	2369.50
493.15	2301.92
493.35	2308.06
493.55	2193.37
493.75	2056.16
493.95	2099.17
494.15	2023.39
494.35	1863.65
494.56	1894.37
494.76	1763.30
494.96	1834.98
495.16	1783.78
495.36	1759.21
495.56	1773.54
495.76	1802.21
495.96	1685.48
496.16	1636.33
496.36	1871.84
496.56	1714.15
496.77	1705.96
496.97	1701.86
497.17	1751.01
497.37	1609.70
497.57	1763.30
497.77	1726.44
497.97	1738.73
498.17	1767.40
498.37	1726.44
498.57	1783.78
498.77	1695.72
498.97	1669.09
499.17	1804.26
499.38	1695.72
499.58	1789.92
499.78	1794.02
499.98	1775.59
500.18	1714.15
500.38	1753.06
500.58	1884.13
500.78	2445.27
500.98	4437.95
501.18	5619.63
501.38	6590.36
501.58	6817.69
501.78	6459.29
501.98	5398.45
502.18	4827.06
502.38	4278.21
502.58	4169.66
502.78	3680.20
502.98	3641.29
503.18	3276.75
503.38	3094.48
503.59	2783.19
503.79	2594.78
503.99	2504.67
504.19	2279.39
504.39	2183.13
504.59	2115.55
504.79	2088.93
504.99	2078.69
505.19	1855.46
505.39	1775.59
505.59	1959.91
505.79	1943.52
505.99	1843.17
506.19	1783.78
506.39	1871.84
506.59	1763.30
506.79	1673.19
506.99	1839.08
507.19	1791.97
507.39	1765.35
507.59	1687.53
507.79	1660.90
507.99	1705.96
508.19	1687.53
508.39	1728.49
508.59	1689.57
508.79	1830.88
508.99	1877.99
509.19	1634.28
509.39	1740.77
509.59	1767.40
509.79	1736.68
509.99	1738.73
510.19	1800.16
510.39	1820.64
510.59	1759.21
510.79	1703.91
510.99	1648.61
511.19	1804.26
511.39	1828.84
511.59	1769.44
511.79	1771.49
511.99	1769.44
512.19	1814.50
512.38	1794.02
512.58	1767.40
512.78	1673.19
512.98	1783.78
513.18	1841.12
513.38	1697.77
513.58	1732.58
513.78	1689.57
513.98	1734.63
514.18	1718.25
514.38	1738.73
514.58	1712.10
514.78	1724.39
514.98	1724.39
515.18	1705.96
515.38	1677.29
515.58	1894.37
515.78	1685.48
515.98	1787.88
516.18	1777.64
516.38	1751.01
516.57	1718.25
516.77	1714.15
516.97	1685.48
517.17	1701.86
517.37	1599.46
517.57	1753.06
517.77	1652.71
517.97	1621.99
518.17	1765.35
518.37	1751.01
518.57	1728.49
518.77	1689.57
518.97	1665.00
519.16	1763.30
519.36	1794.02
519.56	1689.57
519.76	1722.34
519.96	1724.39
520.16	1859.56
520.36	1691.62
520.56	1810.40
520.76	1767.40
520.96	1693.67
521.16	1781.73
521.35	1814.50
521.55	1841.12
521.75	1718.25
521.95	1691.62
522.15	1712.10
522.35	1638.38
522.55	1658.85
522.75	1791.97
522.95	1695.72
523.14	1687.53
523.34	1677.29
523.54	1681.38
523.74	1775.59
523.94	1753.06
524.14	1675.24
524.34	1746.92
524.54	1769.44
524.73	1765.35
524.93	1732.58
525.13	1691.62
525.33	1626.09
525.53	1890.28
525.73	1726.44
525.93	1720.29
526.13	1693.67
526.32	1673.19
526.52	1753.06
526.72	1763.30
526.92	1744.87
527.12	1773.54
527.32	1658.85
527.52	1621.99
527.71	1757.16
527.91	1699.81
528.11	1701.86
528.31	1699.81
528.51	1621.99
528.71	1830.88
528.90	1656.81
529.10	1812.45
529.30	1785.83
529.50	1552.36
529.70	1775.59
529.90	1708.01
530.09	1765.35
530.29	1665.00
530.49	1665.00
530.69	1841.12
530.89	1685.48
531.09	1755.11
531.28	1751.01
531.48	1755.11
531.68	1777.64
531.88	1751.01
532.08	1804.26
532.28	1728.49
532.47	1767.40
532.67	1785.83
532.87	1816.55
533.07	1695.72
533.27	1726.44
533.46	1728.49
533.66	1699.81
533.86	1822.69
534.06	1718.25
534.26	1732.58
534.45	1695.72
534.65	1732.58
534.85	1667.05
535.05	1705.96
535.25	1763.30
535.44	1626.09
535.64	1837.03
535.84	1787.88
536.04	1703.91
536.24	1724.39
536.43	1681.38
536.63	1783.78
536.83	1724.39
537.03	1675.24
537.22	1636.33
537.42	1591.27
537.62	1714.15
537.82	1607.66
538.02	1761.25
538.21	1775.59
538.41	1906.66
538.61	1789.92
538.81	1662.95
539.00	1812.45
539.20	1636.33
539.40	1753.06
539.60	1718.25
539.79	1751.01
539.99	1783.78
540.19	1716.20
540.39	1753.06
540.58	1779.68
540.78	1834.98
540.98	1755.11
541.18	1787.88
541.37	1783.78
541.57	1761.25
541.77	1728.49
541.97	1753.06
542.16	1669.09
542.36	1662.95
542.56	1730.53
542.76	1757.16
542.95	1722.34
543.15	1703.91
543.35	1777.64
543.54	1671.14
543.74	1722.34
543.94	1812.45
544.14	1746.92
544.33	1785.83
544.53	1798.12
544.73	1603.56
544.93	1693.67
545.12	1701.86
545.32	1714.15
545.52	1751.01
545.71	1689.57
545.91	1693.67
546.11	1662.95
546.30	1775.59
546.50	1740.77
546.70	1767.40
546.90	1691.62
547.09	1603.56
547.29	1742.82
547.49	1746.92
547.68	1746.92
547.88	1789.92
548.08	1757.16
548.27	2172.89
548.47	1705.96
548.67	1681.38
548.87	1714.15
549.06	1734.63
549.26	1710.05
549.46	1716.20
549.65	1783.78
549.85	1679.33
550.05	1771.49
550.24	1714.15
550.44	1769.44
550.64	1689.57
550.83	1736.68
551.03	1796.07
551.23	1849.32
551.42	1718.25
551.62	1787.88
551.82	1734.63
552.01	1654.76
552.21	1845.22
552.41	1705.96
552.60	1816.55
552.80	1683.43
553.00	1626.09
553.19	1710.05
553.39	1789.92
553.59	1701.86
553.78	1746.92
553.98	1763.30
554.17	1685.48
554.37	1765.35
554.57	1742.82
554.76	1660.90
554.96	1667.05
555.16	1767.40
555.35	1777.64
555.55	1705.96
555.75	1736.68
555.94	1789.92
556.14	1667.05
556.33	1812.45
556.53	1640.42
556.73	1845.22
556.92	1720.29
557.12	1843.17
557.32	1814.50
557.51	1789.92
557.71	1804.26
557.90	1796.07
558.10	1861.60
558.30	1589.22
558.49	1751.01
558.69	1695.72
558.88	1810.40
559.08	1730.53
559.28	1763.30
559.47	1691.62
559.67	1671.14
559.86	1757.16
560.06	1765.35
560.26	1634.28
560.45	1705.96
560.65	1689.57
560.84	1755.11
561.04	1722.34
561.24	1701.86
561.43	1771.49
561.63	1794.02
561.82	1839.08
562.02	1798.12
562.22	1722.34
562.41	1665.00
562.61	1720.29
562.80	1677.29
563.00	1918.95
563.19	1689.57
563.39	1757.16
563.59	1722.34
563.78	1718.25
563.98	1621.99
564.17	1697.77
564.37	1646.57
564.56	1722.34
564.76	1746.92
564.96	1769.44
565.15	1771.49
565.35	1847.27
565.54	1685.48
565.74	1779.68
565.93	1740.77
566.13	1665.00
566.32	1841.12
566.52	1771.49
566.71	1740.77
566.91	1783.78
567.11	1777.64
567.30	1634.28
567.50	1755.11
567.69	1759.21
567.89	1716.20
568.08	1773.54
568.28	1791.97
568.47	1771.49
568.67	1755.11
568.86	1701.86
569.06	1744.87
569.25	1701.86
569.45	1681.38
569.64	1714.15
569.84	1726.44
570.04	1767.40
570.23	1636.33
570.43	1734.63
570.62	1781.73
570.82	1841.12
571.01	1662.95
571.21	1724.39
571.40	1716.20
571.60	1744.87
571.79	1730.53
571.99	1748.97
572.18	1681.38
572.38	1800.16
572.57	1683.43
572.77	1757.16
572.96	1888.23
573.16	1755.11
573.35	1699.81
573.55	1845.22
573.74	1787.88
573.94	1677.29
574.13	1671.14
574.33	1697.77
574.52	1748.97
574.71	1699.81
574.91	1712.10
575.10	1667.05
575.30	1781.73
575.49	1753.06
575.69	1724.39
575.88	1755.11
576.08	1689.57
576.27	1820.64
576.47	1673.19
576.66	1853.41
576.86	1794.02
577.05	1751.01
577.25	1808.36
577.44	1759.21
577.64	1738.73
577.83	1783.78
578.02	1701.86
578.22	1767.40
578.41	1830.88
578.61	1714.15
578.80	1642.47
579.00	1730.53
579.19	1722.34
579.39	1884.13
579.58	1759.21
579.77	1771.49
579.97	1798.12
580.16	1824.74
580.36	1834.98
580.55	1740.77
580.75	1820.64
580.94	1804.26
581.13	1806.31
581.33	1796.07
581.52	1714.15
581.72	1791.97
581.91	1796.07
582.11	1716.20
582.30	1834.98
582.49	1794.02
582.69	1816.55
582.88	1787.88
583.08	1767.40
583.27	1804.26
583.47	1759.21
583.66	1722.34
583.85	1703.91
584.05	1744.87
584.24	1744.87
584.44	1746.92
584.63	1810.40
584.82	1830.88
585.02	1875.94
585.21	1755.11
585.41	1812.45
585.60	1863.65
585.79	1955.81
585.99	1826.79
586.18	1904.61
586.37	2166.75
586.57	3211.22
586.76	9772.91
586.96	23789.20
587.15	33652.22
587.34	39607.72
587.54	41053.58
587.73	35347.94
587.93	25538.17
588.12	20991.68
588.31	17475.32
588.51	15857.42
588.70	14763.81
588.89	14034.73
589.09	12158.79
589.28	10731.36
589.47	9207.67
589.67	7862.15
589.86	6342.56
590.06	4837.30
590.25	3835.85
590.44	3143.63
590.64	2502.62
590.83	2226.14
591.02	2062.30
591.22	1884.13
591.41	1828.84
591.60	1794.02
591.80	1920.99
591.99	1783.78
592.18	1855.46
592.38	1869.80
592.57	1742.82
592.76	1775.59
592.96	1773.54
593.15	1767.40
593.34	1789.92
593.54	1804.26
593.73	1791.97
593.92	1816.55
594.12	1804.26
594.31	1736.68
594.50	1808.36
594.70	1794.02
594.89	1857.51
595.08	1677.29
595.28	1798.12
595.47	1908.71
595.66	1791.97
595.86	1775.59
596.05	1763.30
596.24	1634.28
596.43	1832.93
596.63	1832.93
596.82	1701.86
597.01	1763.30
597.21	1837.03
597.40	1726.44
597.59	1828.84
597.79	1779.68
597.98	1718.25
598.17	1765.35
598.36	1740.77
598.56	1755.11
598.75	1755.11
598.94	1851.36
599.14	1771.49
599.33	1730.53
599.52	1789.92
599.71	1777.64
599.91	1810.40
600.10	1810.40
600.29	1708.01
600.48	1718.25
600.68	1834.98
600.87	1728.49
601.06	1710.05
601.26	1730.53
601.45	1759.21
601.64	1730.53
601.83	1871.84
602.03	1681.38
602.22	1654.76
602.41	1802.21
602.60	1890.28
602.80	1775.59
602.99	1665.00
603.18	1613.80
603.37	1785.83
603.57	1746.92
603.76	1781.73
603.95	1726.44
604.14	1705.96
604.34	1697.77
604.53	1738.73
604.72	1755.11
604.91	1753.06
605.10	1687.53
605.30	1669.09
605.49	1744.87
605.68	1798.12
605.87	1708.01
606.07	1761.25
606.26	1708.01
606.45	1763.30
606.64	1705.96
606.84	1730.53
607.03	1718.25
607.22	1757.16
607.41	1679.33
607.60	1726.44
607.80	1730.53
607.99	1634.28
608.18	1720.29
608.37	1593.32
608.56	1701.86
608.76	1804.26
608.95	1791.97
609.14	1751.01
609.33	1779.68
609.52	1828.84
609.72	1787.88
609.91	1783.78
610.10	1685.48
610.29	1857.51
610.48	1712.10
610.68	1767.40
610.87	1689.57
611.06	1757.16
611.25	1800.16
611.44	1781.73
611.63	1761.25
611.83	1779.68
612.02	1578.98
612.21	1746.92
612.40	1603.56
612.59	1697.77
612.79	1683.43
612.98	1683.43
613.17	1851.36
613.36	1802.21
613.55	1746.92
613.74	1742.82
613.93	1685.48
614.13	1671.14
614.32	1777.64
614.51	1705.96
614.70	1769.44
614.89	1691.62
615.08	1798.12
615.28	2078.69
615.47	1665.00
615.66	1701.86
615.85	1726.44
616.04	1808.36
616.23	1701.86
616.42	1714.15
616.62	1753.06
616.81	1791.97
617.00	1683.43
617.19	1820.64
617.38	1648.61
617.57	1767.40
617.76	1662.95
617.95	1759.21
618.15	1755.11
618.34	1791.97
618.53	1669.09
618.72	1804.26
618.91	1834.98
619.10	1810.40
619.29	1728.49
619.48	1734.63
619.68	1646.57
619.87	1710.05
620.06	1660.90
620.25	1785.83
620.44	1728.49
620.63	1634.28
620.82	1753.06
621.01	1740.77
621.20	1703.91
621.39	1746.92
621.59	1650.66
621.78	1718.25
621.97	1624.04
622.16	1714.15
622.35	1695.72
622.54	1742.82
622.73	1751.01
622.92	1695.72
623.11	1775.59
623.30	1652.71
623.49	1757.16
623.68	1675.24
623.88	1791.97
624.07	1675.24
624.26	1775.59
624.45	1722.34
624.64	1632.23
624.83	1689.57
625.02	1675.24
625.21	1734.63
625.40	1658.85
625.59	1765.35
625.78	1724.39
625.97	1763.30
626.16	1806.31
626.35	1714.15
626.54	1708.01
626.74	1724.39
626.93	1791.97
627.12	1619.94
627.31	1783.78
627.50	1773.54
627.69	1783.78
627.88	1701.86
628.07	1738.73
628.26	1677.29
628.45	1681.38
628.64	1660.90
628.83	1785.83
629.02	1697.77
629.21	1794.02
629.40	1722.34
629.59	1751.01
629.78	1601.51
629.97	1683.43
630.16	1701.86
630.35	1748.97
630.54	1656.81
630.73	1628.14
630.92	1804.26
631.11	1605.61
631.30	1732.58
631.49	1683.43
631.68	1701.86
631.87	1794.02
632.06	1689.57
632.25	1884.13
632.44	1705.96
632.63	1693.67
632.82	1722.34
633.01	1720.29
633.20	1652.71
633.39	1652.71
633.58	1529.83
633.77	1744.87
633.96	1714.15
634.15	1744.87
634.34	1763.30
634.53	1789.92
634.72	1689.57
634.91	1640.42
635.10	1824.74
635.29	1814.50
635.48	1751.01
635.67	1658.85
635.86	1656.81
636.05	1746.92
636.24	1740.77
636.43	1708.01
636.62	1734.63
636.81	1529.83
637.00	1708.01
637.19	1804.26
637.38	1699.81
637.57	1619.94
637.76	1689.57
637.95	1736.68
638.14	1658.85
638.33	1718.25
638.52	1763.30
638.71	1601.51
638.89	1636.33
639.08	1808.36
639.27	1796.07
639.46	1691.62
639.65	1738.73
639.84	1755.11
640.03	1826.79
640.22	1673.19
640.41	1826.79
640.60	1650.66
640.79	1710.05
640.98	1804.26
641.17	1701.86
641.36	1708.01
641.55	1701.86
641.74	1701.86
641.92	1689.57
642.11	1607.66
642.30	1714.15
642.49	1742.82
642.68	1732.58
642.87	1759.21
643.06	1732.58
643.25	1628.14
643.44	1675.24
643.63	1767.40
643.82	1710.05
644.00	1722.34
644.19	1757.16
644.38	1619.94
644.57	1765.35
644.76	1724.39
644.95	1732.58
645.14	1740.77
645.33	1685.48
645.52	1785.83
645.71	1601.51
645.89	1689.57
646.08	1667.05
646.27	1714.15
646.46	1853.41
646.65	1517.54
646.84	1703.91
647.03	1687.53
647.22	1779.68
647.40	1742.82
647.59	1662.95
647.78	1601.51
647.97	1597.42
648.16	1636.33
648.35	1767.40
648.54	1693.67
648.73	1701.86
648.91	1787.88
649.10	1748.97
649.29	1585.13
649.48	1710.05
649.67	1822.69
649.86	1759.21
650.05	1640.42
650.23	1828.84
650.42	1619.94
650.61	1708.01
650.80	1753.06
650.99	1859.56
651.18	1814.50
651.36	1751.01
651.55	1683.43
651.74	1757.16
651.93	1611.75
652.12	1656.81
652.31	1693.67
652.49	1720.29
652.68	1742.82
652.87	1714.15
653.06	1751.01
653.25	1751.01
653.44	1675.24
653.62	1738.73
653.81	1597.42
654.00	1642.47
654.19	1687.53
654.38	1839.08
654.56	1775.59
654.75	1632.23
654.94	1738.73
655.13	1726.44
655.32	1748.97
655.51	1763.30
655.69	1667.05
655.88	1724.39
656.07	1689.57
656.26	1755.11
656.45	1654.76
656.63	1746.92
656.82	1724.39
657.01	1816.55
657.20	1607.66
657.38	1742.82
657.57	1646.57
657.76	1669.09
657.95	1787.88
658.14	1595.37
658.32	1767.40
658.51	1734.63
658.70	1730.53
658.89	1759.21
659.08	1800.16
659.26	1726.44
659.45	1595.37
659.64	1703.91
659.83	1638.38
660.01	1920.99
660.20	1771.49
660.39	1804.26
660.58	1640.42
660.76	1765.35
660.95	1642.47
661.14	1722.34
661.33	1650.66
661.51	1697.77
661.70	1697.77
661.89	1732.58
662.08	1673.19
662.26	1624.04
662.45	1669.09
662.64	1789.92
662.83	1808.36
663.01	1665.00
663.20	1652.71
663.39	1785.83
663.58	1712.10
663.76	1689.57
663.95	1662.95
664.14	1634.28
664.32	1710.05
664.51	1660.90
664.70	1683.43
664.89	1701.86
665.07	1708.01
665.26	1675.24
665.45	1601.51
665.64	1763.30
665.82	1710.05
666.01	1820.64
666.20	1669.09
666.38	1822.69
666.57	1775.59
666.76	2086.88
666.95	4392.89
667.13	10014.57
667.32	14685.98
667.51	17264.38
667.69	18478.82
667.88	17131.26
668.07	12056.39
668.25	9453.42
668.44	7839.62
668.63	7147.41
668.81	6717.34
669.00	6250.40
669.19	5461.93
669.38	4786.10
669.56	4474.81
669.75	3962.82
669.94	3389.39
670.12	2861.01
670.31	2512.86
670.50	2248.67
670.68	2127.84
670.87	1828.84
671.06	1736.68
671.24	1777.64
671.43	1847.27
671.62	1757.16
671.80	1771.49
671.99	1755.11
672.18	1751.01
672.36	1773.54
672.55	1693.67
672.74	1753.06
672.92	1689.57
673.11	1767.40
673.29	1722.34
673.48	1705.96
673.67	1722.34
673.85	1734.63
674.04	1751.01
674.23	1628.14
674.41	1841.12
674.60	1640.42
674.79	1607.66
674.97	1724.39
675.16	1701.86
675.34	1777.64
675.53	1658.85
675.72	1728.49
675.90	1755.11
676.09	1738.73
676.28	1736.68
676.46	1624.04
676.65	1712.10
676.83	1673.19
677.02	1714.15
677.21	1667.05
677.39	1742.82
677.58	1728.49
677.77	1753.06
677.95	1636.33
678.14	1765.35
678.32	1638.38
678.51	1642.47
678.70	1761.25
678.88	1699.81
679.07	1773.54
679.25	1658.85
679.44	1697.77
679.63	1583.08
679.81	1724.39
680.00	1824.74
680.18	1759.21
680.37	1714.15
680.55	1738.73
680.74	1638.38
680.93	1591.27
681.11	1703.91
681.30	1746.92
681.48	1781.73
681.67	1693.67
681.85	1751.01
682.04	1675.24
682.23	1742.82
682.41	1777.64
682.60	1652.71
682.78	1785.83
682.97	1685.48
683.15	1716.20
683.34	1683.43
683.53	1802.21
683.71	1605.61
683.90	1845.22
684.08	1798.12
684.27	1650.66
684.45	1669.09
684.64	1834.98
684.82	1724.39
685.01	1779.68
685.19	1785.83
685.38	1800.16
685.57	1714.15
685.75	1613.80
685.94	1615.85
686.12	1701.86
686.31	1624.04
686.49	1820.64
686.68	1589.22
686.86	1712.10
687.05	1697.77
687.23	1759.21
687.42	1607.66
687.60	1677.29
687.79	1712.10
687.97	1751.01
688.16	1777.64
688.34	1722.34
688.53	1609.70
688.71	1693.67
688.90	1763.30
689.08	1699.81
689.27	1626.09
689.45	1734.63
689.64	1718.25
689.82	1746.92
690.01	1669.09
690.19	1685.48
690.38	1769.44
690.56	1796.07
690.75	1720.29
690.93	1669.09
691.12	1650.66
691.30	1789.92
691.49	1646.57
691.67	1667.05
691.86	1826.79
692.04	1669.09
692.23	1691.62
692.41	1763.30
692.60	1843.17
692.78	1765.35
692.97	1779.68
693.15	1751.01
693.34	1820.64
693.52	1695.72
693.71	1652.71
693.89	1705.96
694.08	1585.13
694.26	1796.07
694.44	1722.34
694.63	1685.48
694.81	1693.67
695.00	1691.62
695.18	1777.64
695.37	1847.27
695.55	1755.11
695.74	1689.57
695.92	1669.09
696.10	1789.92
696.29	1636.33
696.47	1740.77
696.66	1710.05
696.84	1675.24
697.03	1769.44
697.21	1859.56
697.40	2308.06
697.58	1763.30
697.76	1634.28
697.95	1714.15
698.13	1675.24
698.32	1605.61
698.50	1742.82
698.68	1800.16
698.87	1689.57
699.05	1728.49
699.24	1621.99
699.42	1697.77
699.61	1720.29
699.79	1757.16
699.97	1642.47
700.16	1667.05
700.34	1662.95
700.53	1701.86
700.71	1814.50
700.89	1759.21
701.08	1695.72
701.26	1781.73
701.45	2131.94
701.63	1632.23
701.81	1689.57
702.00	1595.37
702.18	1734.63
702.37	1640.42
702.55	1683.43
702.73	1695.72
702.92	1644.52
703.10	1800.16
703.28	1787.88
703.47	1603.56
703.65	1847.27
703.84	1779.68
704.02	1728.49
704.20	1783.78
704.39	1603.56
704.57	1683.43
704.75	1789.92
704.94	1748.97
705.12	1656.81
705.30	1744.87
705.49	2295.77
705.67	4210.62
705.86	9168.76
706.04	12246.85
706.22	14047.02
706.41	15181.59
706.59	13557.55
706.77	9449.33
706.96	7118.74
707.14	6449.05
707.32	5818.28
707.51	5414.83
707.69	4841.40
707.87	4097.99
708.06	3389.39
708.24	2904.02
708.42	2373.60
708.61	2193.37
708.79	1898.47
708.97	1826.79
709.16	1734.63
709.34	1751.01
709.52	1726.44
709.71	1736.68
709.89	1746.92
710.07	1748.97
710.26	1683.43
710.44	1689.57
710.62	1751.01
710.80	1722.34
710.99	1877.99
711.17	1769.44
711.35	1703.91
711.54	1667.05
711.72	1757.16
711.90	1730.53
712.09	1722.34
712.27	1718.25
712.45	1775.59
712.63	1699.81
712.82	1714.15
713.00	1665.00
713.18	1765.35
713.37	1708.01
713.55	1804.26
713.73	1734.63
713.91	1767.40
714.10	1701.86
714.28	1705.96
714.46	1822.69
714.65	1744.87
714.83	1775.59
715.01	1634.28
715.19	1732.58
715.38	1677.29
715.56	1724.39
715.74	1609.70
715.92	1673.19
716.11	1896.42
716.29	1597.42
716.47	1716.20
716.65	1697.77
716.84	1646.57
717.02	1810.40
717.20	1626.09
717.38	1665.00
717.57	1763.30
717.75	1697.77
717.93	1693.67
718.11	1783.78
718.30	1607.66
718.48	1658.85
718.66	1730.53
718.84	1773.54
719.03	1763.30
719.21	1708.01
719.39	1726.44
719.57	1673.19
719.75	1689.57
719.94	1638.38
720.12	1724.39
720.30	1710.05
720.48	1730.53
720.67	1697.77
720.85	1705.96
721.03	1607.66
721.21	1746.92
721.39	1742.82
721.58	1697.77
721.76	1656.81
721.94	1732.58
722.12	1685.48
722.30	1814.50
722.49	1716.20
722.67	1681.38
722.85	1757.16
723.03	1665.00
723.21	1691.62
723.40	1642.47
723.58	1714.15
723.76	1652.71
723.94	1877.99
724.12	1796.07
724.30	1714.15
724.49	1738.73
724.67	1675.24
724.85	1775.59
725.03	1609.70
725.21	1724.39
725.40	1751.01
725.58	1660.90
725.76	1853.41
725.94	1726.44
726.12	1701.86
726.30	1708.01
726.49	1673.19
726.67	1626.09
726.85	1779.68
727.03	1667.05
727.21	2133.98
727.39	2863.06
727.57	3850.18
727.76	4114.37
727.94	4368.32
728.12	4300.73
728.30	3639.24
728.48	2926.55
728.66	2711.51
728.84	2615.26
729.03	2258.91
729.21	2193.37
729.39	1953.76
729.57	1859.56
729.75	1898.47
729.93	1781.73
730.11	1726.44
730.30	1734.63
730.48	1677.29
730.66	1841.12
730.84	1759.21
731.02	1675.24
731.20	1615.85
731.38	1748.97
731.56	1642.47
731.74	1691.62
731.93	1691.62
732.11	1665.00
732.29	1691.62
732.47	1646.57
732.65	1746.92
732.83	1748.97
733.01	1734.63
733.19	1687.53
733.37	1685.48
733.56	1736.68
733.74	1708.01
733.92	1724.39
734.10	1652.71
734.28	1757.16
734.46	1601.51
734.64	1634.28
734.82	1693.67
735.00	1640.42
735.18	1615.85
735.36	1681.38
735.54	1679.33
735.73	1730.53
735.91	1742.82
736.09	1736.68
736.27	1732.58
736.45	1746.92
736.63	1654.76
736.81	1630.18
736.99	1794.02
737.17	1837.03
737.35	1685.48
737.53	1755.11
737.71	1640.42
737.89	1767.40
738.07	1720.29
738.25	1609.70
738.43	1724.39
738.61	1648.61
738.80	1681.38
738.98	1642.47
739.16	1710.05
739.34	1656.81
739.52	1802.21
739.70	1699.81
739.88	1761.25
740.06	1728.49
740.24	1605.61
740.42	1710.05
740.60	1656.81
740.78	1701.86
740.96	1591.27
741.14	1648.61
741.32	1660.90
741.50	1660.90
741.68	1744.87
741.86	1730.53
742.04	1658.85
742.22	1660.90
742.40	1689.57
742.58	1714.15
742.76	1716.20
742.94	1742.82
743.12	1658.85
743.30	1644.52
743.48	1697.77
743.66	1576.94
743.84	1705.96
744.02	1726.44
744.20	1708.01
744.38	1632.23
744.56	1593.32
744.74	1806.31
744.92	1837.03
745.10	1734.63
745.28	1775.59
745.46	1769.44
745.64	1691.62
745.82	1796.07
746.00	1757.16
746.18	1767.40
746.36	1708.01
746.54	1726.44
746.72	1697.77
746.90	1673.19
747.08	1732.58
747.26	1667.05
747.44	1701.86
747.62	1734.63
747.80	1705.96
747.98	1748.97
748.15	1652.71
748.33	1757.16
748.51	1693.67
748.69	1748.97
748.87	1671.14
749.05	1716.20
749.23	1705.96
749.41	1685.48
749.59	1626.09
749.77	1744.87
749.95	1665.00
750.13	1658.85
750.31	1738.73
750.49	1689.57
750.67	1738.73
750.85	1689.57
751.03	1718.25
751.20	1818.60
751.38	1712.10
751.56	1691.62
751.74	1689.57
751.92	1802.21
752.10	1681.38
752.28	1728.49
752.46	1621.99
752.64	1697.77
752.82	1697.77
753.00	1822.69
753.18	1632.23
753.35	1685.48
753.53	1654.76
753.71	1621.99
753.89	1738.73
754.07	1697.77
754.25	1746.92
754.43	1730.53
754.61	1640.42
754.79	1765.35
754.97	1677.29
755.14	1818.60
755.32	1628.14
755.50	1710.05
755.68	1689.57
755.86	1619.94
756.04	1699.81
756.22	1652.71
756.40	1775.59
756.57	1877.99
756.75	1720.29
756.93	1751.01
757.11	1708.01
757.29	1665.00
757.47	1599.46
757.65	1601.51
757.82	1574.89
758.00	1658.85
758.18	1683.43
758.36	1693.67
758.54	1730.53
758.72	1667.05
758.90	1796.07
759.07	1736.68
759.25	1669.09
759.43	1703.91
759.61	1660.90
759.79	2117.60
759.97	1734.63
760.15	1675.24
760.32	1675.24
760.50	1759.21
760.68	1806.31
760.86	1599.46
761.04	1748.97
761.22	1769.44
761.39	1720.29
761.57	1703.91
761.75	1716.20
761.93	1693.67
762.11	1718.25
762.28	1738.73
762.46	1648.61
762.64	1755.11
762.82	1599.46
763.00	1683.43
763.18	1753.06
763.35	1597.42
763.53	1730.53
763.71	1689.57
763.89	1716.20
764.07	1746.92
764.24	1759.21
764.42	1701.86
764.60	1734.63
764.78	1746.92
764.96	1769.44
765.13	1779.68
765.31	1693.67
765.49	1824.74
765.67	1624.04
765.84	1617.90
766.02	1703.91
766.20	1669.09
766.38	1654.76
766.56	1738.73
766.73	1716.20
766.91	1705.96
767.09	1720.29
767.27	1673.19
767.44	1701.86
767.62	1685.48
767.80	1738.73
767.98	1732.58
768.15	1724.39
768.33	1757.16
768.51	1722.34
768.69	1767.40
768.87	1724.39
769.04	1689.57
769.22	1861.60
769.40	1775.59
769.58	1824.74
769.75	1728.49
769.93	1748.97
770.11	1669.09
770.28	1671.14
770.46	1757.16
770.64	1748.97
770.82	1687.53
770.99	1699.81
771.17	1757.16
771.35	1681.38
771.53	1683.43
771.70	1705.96
771.88	1703.91
772.06	1705.96
772.23	1701.86
772.41	1675.24
772.59	1677.29
772.77	1660.90
772.94	1652.71
773.12	1791.97
773.30	1703.91
773.47	1642.47
773.65	1632.23
773.83	1728.49
774.01	1658.85
774.18	1583.08
774.36	1771.49
774.54	1589.22
774.71	1728.49
774.89	1619.94
775.07	1691.62
775.24	1628.14
775.42	1667.05
775.60	1728.49
775.78	1710.05
775.95	1669.09
776.13	1607.66
776.31	1570.79
776.48	1689.57
776.66	1685.48
776.84	1679.33
777.01	1650.66
777.19	1636.33
777.37	1724.39
777.54	1714.15
777.72	1755.11
777.90	1685.48
778.07	1716.20
778.25	1824.74
778.43	1761.25
778.60	1728.49
778.78	1726.44
778.96	1665.00
779.13	1689.57
779.31	1697.77
779.49	1615.85
779.66	1673.19
779.84	1708.01
780.01	1714.15
780.19	1665.00
780.37	1718.25
780.54	1667.05
780.72	1667.05
780.90	1705.96
781.07	1654.76
781.25	1665.00
781.43	1769.44
781.60	1759.21
781.78	1757.16
781.95	1673.19
782.13	1587.18
782.31	1675.24
782.48	1599.46
782.66	1697.77
782.83	1822.69
783.01	1724.39
783.19	1650.66
783.36	1699.81
783.54	1578.98
783.72	1857.51
783.89	1638.38
784.07	1710.05
784.24	1728.49
784.42	1777.64
784.60	1716.20
784.77	1681.38
784.95	1613.80
785.12	1654.76
785.30	1712.10
785.47	1601.51
785.65	1628.14
785.83	1697.77
786.00	1697.77
786.18	1744.87
786.35	1636.33
786.53	1722.34
786.71	1736.68
786.88	1757.16
787.06	1722.34
787.23	1701.86
787.41	1679.33
787.58	1722.34
787.76	1658.85
787.94	1626.09
788.11	1734.63
788.29	1564.65
788.46	1626.09
788.64	1601.51
788.81	1628.14
788.99	1607.66
789.16	1644.52
789.34	1621.99
789.52	1695.72
789.69	1679.33
789.87	1517.54
790.04	1665.00
790.22	1642.47
790.39	1871.84
790.57	1593.32
790.74	1578.98
790.92	1718.25
791.09	1673.19
791.27	1652.71
791.44	1769.44
791.62	1705.96
791.79	1748.97
791.97	1615.85
792.15	1859.56
792.32	1658.85
792.50	1718.25
792.67	1759.21
792.85	1769.44
793.02	1689.57
793.20	1669.09
793.37	1675.24
793.55	1646.57
793.72	1642.47
793.90	1787.88
794.07	1669.09
794.25	1675.24
794.42	1761.25
794.60	1650.66
794.77	1683.43
794.95	1714.15
795.12	1734.63
795.30	1652.71
795.47	1636.33
795.65	1826.79
795.82	1722.34
796.00	1705.96
796.17	1701.86
796.34	1648.61
796.52	1810.40
796.69	1757.16
796.87	1738.73
797.04	1705.96
797.22	1759.21
797.39	1730.53
797.57	1761.25
797.74	1644.52
797.92	1671.14
798.09	1677.29
798.27	1726.44
798.44	1699.81
798.62	1621.99
798.79	1642.47
798.96	1794.02
799.14	1675.24
799.31	1880.04
799.49	1648.61
799.66	1691.62
799.84	1773.54
800.01	1642.47
800.19	1652.71
800.36	1611.75
800.53	1703.91
800.71	1726.44
800.88	1847.27
801.06	1689.57
801.23	1687.53
801.41	1671.14
801.58	1644.52
801.75	1669.09
801.93	1710.05
802.10	1785.83
802.28	1650.66
802.45	1736.68
802.63	1679.33
802.80	1794.02
802.97	1675.24
803.15	1744.87
803.32	1703.91
803.50	1652.71
803.67	1640.42
803.84	1648.61
804.02	1708.01
804.19	1689.57
804.37	1552.36
804.54	1640.42
804.71	1673.19
804.89	1714.15
805.06	1607.66
805.24	1681.38
805.41	1634.28
805.58	1628.14
805.76	1804.26
805.93	1656.81
806.10	1736.68
806.28	1771.49
806.45	1687.53
806.63	1726.44
806.80	1742.82
806.97	1732.58
807.15	1685.48
807.32	1708.01
807.49	1736.68
807.67	1679.33
807.84	1771.49
808.01	1587.18
808.19	1771.49
808.36	1843.17
808.54	1669.09
808.71	1675.24
808.88	1744.87
809.06	1736.68
809.23	1753.06
809.40	1681.38
809.58	1773.54
809.75	1597.42
809.92	1662.95
810.10	1853.41
810.27	1736.68
810.44	1732.58
810.62	1751.01
810.79	1683.43
810.96	1714.15
811.14	1636.33
811.31	1771.49
811.48	1763.30
811.66	1660.90
811.83	1755.11
812.00	1724.39
812.18	1687.53
812.35	1789.92
812.52	1716.20
812.69	1716.20
812.87	1595.37
813.04	1652.71
813.21	1761.25
813.39	1642.47
813.56	1626.09
813.73	1785.83
813.91	1574.89
814.08	1701.86
814.25	1693.67
814.42	1562.60
814.60	1621.99
814.77	1710.05
814.94	1693.67
815.12	1755.11
815.29	1755.11
815.46	1718.25
815.63	1710.05
815.81	1681.38
815.98	1578.98
816.15	1742.82
816.33	1765.35
816.50	1689.57
816.67	1658.85
816.84	1656.81
817.02	1687.53
817.19	1665.00
817.36	1697.77
817.53	1710.05
817.71	1728.49
817.88	1812.45
818.05	1722.34
818.22	1654.76
818.40	1705.96
818.57	1705.96
818.74	1748.97
818.91	1718.25
819.09	1699.81
819.26	1759.21
819.43	1691.62
819.60	1671.14
819.78	1691.62
819.95	1769.44
820.12	1650.66
820.29	1820.64
820.47	1783.78
820.64	1718.25
820.81	1652.71
820.98	1658.85
821.15	1665.00
821.33	1712.10
821.50	1591.27
821.67	1691.62
821.84	1650.66
822.02	1740.77
822.19	1744.87
822.36	1697.77
822.53	1722.34
822.70	1642.47
822.88	1681.38
823.05	1837.03
823.22	1667.05
823.39	1687.53
823.56	1697.77
823.74	1783.78
823.91	1646.57
824.08	1699.81
824.25	1675.24
824.42	1789.92
824.60	1701.86
824.77	1665.00
824.94	1671.14
825.11	1736.68
825.28	1599.46
825.45	1697.77
825.63	1722.34
825.80	1687.53
825.97	1740.77
826.14	1695.72
826.31	1538.02
826.48	1705.96
826.66	1673.19
826.83	1642.47
827.00	1738.73
827.17	1638.38
827.34	1669.09
827.51	1726.44
827.69	1624.04
827.86	1599.46
828.03	1603.56
828.20	1703.91
828.37	1617.90
828.54	1613.80
828.71	1665.00
828.89	1785.83
829.06	1785.83
829.23	1732.58
829.40	1677.29
829.57	1685.48
829.74	1738.73
829.91	1755.11
830.09	1689.57
830.26	1716.20
830.43	1824.74
830.60	1734.63
830.77	1736.68
830.94	1783.78
831.11	1716.20
831.28	1667.05
831.46	1828.84
831.63	1683.43
831.80	1695.72
831.97	1685.48
832.14	1667.05
832.31	1673.19
832.48	1712.10
832.65	1681.38
832.82	1693.67
832.99	1648.61
833.17	1617.90
833.34	1775.59
833.51	1697.77
833.68	1597.42
833.85	1718.25
834.02	1660.90
834.19	1671.14
834.36	1591.27
834.53	1681.38
834.70	1734.63
834.87	1710.05
835.04	1665.00
835.22	1630.18
835.39	1648.61
835.56	1640.42
835.73	1621.99
835.90	1775.59
836.07	1601.51
836.24	1753.06
836.41	1609.70
836.58	1632.23
836.75	1794.02
836.92	1771.49
837.09	1701.86
837.26	1781.73
837.43	1705.96
837.60	1689.57
837.77	1644.52
837.94	1716.20
838.12	1726.44
838.29	1714.15
838.46	1621.99
838.63	1603.56
838.80	1826.79
838.97	1722.34
839.14	1730.53
839.31	1630.18
839.48	1656.81
839.65	1740.77
839.82	1757.16
839.99	1621.99
840.16	1697.77
840.33	1660.90
840.50	1693.67
840.67	1558.50
840.84	1542.12
841.01	1722.34
841.18	1617.90
841.35	1687.53
841.52	1742.82
841.69	1820.64
841.86	1755.11
842.03	1714.15
842.20	1767.40
842.37	1775.59
842.54	1646.57
842.71	1677.29
842.88	1642.47
843.05	1769.44
843.22	1675.24
843.39	1705.96
843.56	1722.34
843.73	1626.09
843.90	1746.92
844.07	1665.00
844.24	1761.25
844.41	1685.48
844.58	1665.00
844.75	1710.05
844.92	1708.01
845.09	1705.96
845.26	1626.09
845.43	1746.92
845.60	1742.82
845.77	1679.33
845.94	1667.05
846.10	1734.63
846.27	1552.36
846.44	1667.05
846.61	1638.38
846.78	1703.91
846.95	1753.06
847.12	1660.90
847.29	1673.19
847.46	1642.47
847.63	1757.16
847.80	1632.23
847.97	1697.77
848.14	1777.64
848.31	1748.97
848.48	1701.86
848.65	1777.64
848.82	1660.90
848.98	1861.60
849.15	1695.72
849.32	1808.36
849.49	1822.69
849.66	1730.53
849.83	1718.25
850.00	1644.52
850.17	1708.01
850.34	1675.24
850.51	1576.94
850.68	1609.70
850.85	1748.97
851.01	1740.77
851.18	1738.73
851.35	1710.05
851.52	1783.78
851.69	1802.21
851.86	1638.38
852.03	1667.05
852.20	1671.14
852.37	1658.85
852.53	1634.28
852.70	1712.10
852.87	1701.86
853.04	1820.64
853.21	1648.61
853.38	1832.93
853.55	1748.97
853.72	1755.11
853.89	1603.56
854.05	1660.90
854.22	1718.25
854.39	1679.33
854.56	1718.25
854.73	1804.26
854.90	1669.09
855.07	1693.67
855.23	1646.57
855.40	1665.00
855.57	1679.33
855.74	1585.13
855.91	1859.56
856.08	1662.95
856.25	1619.94
856.41	1644.52
856.58	1632.23
856.75	1689.57
856.92	1675.24
857.09	1746.92
857.26	1585.13
857.42	1732.58
857.59	1777.64
857.76	1617.90
857.93	1744.87
858.10	1722.34
858.27	1697.77
858.43	1667.05
858.60	1640.42
858.77	1603.56
858.94	1669.09
859.11	1748.97
859.27	1712.10
859.44	1652.71
859.61	1804.26
859.78	1683.43
859.95	1697.77
860.12	1677.29
860.28	1767.40
860.45	1771.49
860.62	1701.86
860.79	1669.09
860.95	1626.09
861.12	1724.39
861.29	1652.71
861.46	1644.52
861.63	1628.14
861.79	1757.16
861.96	1636.33
862.13	1673.19
862.30	1816.55
862.47	1667.05
862.63	1693.67
862.80	1736.68
862.97	1734.63
863.14	1712.10
863.30	1710.05
863.47	1654.76
863.64	1800.16
863.81	1714.15
863.97	1695.72
864.14	1820.64
864.31	1605.61
864.48	1720.29
864.65	1710.05
864.81	1761.25
864.98	1671.14
865.15	1722.34
865.32	1669.09
865.48	1716.20
865.65	1738.73
865.82	1611.75
865.98	1781.73
866.15	1828.84
866.32	1699.81
866.49	1642.47
866.65	1763.30
866.82	1648.61
866.99	1683.43
867.16	1665.00
867.32	1703.91
867.49	1644.52
867.66	1697.77
867.83	1640.42
867.99	1587.18
868.16	1718.25
868.33	1646.57
868.49	1693.67
868.66	1677.29
868.83	1697.77
868.99	1748.97
869.16	1734.63
869.33	1724.39
869.50	1765.35
869.66	1744.87
869.83	1699.81
870.00	1665.00
870.16	1755.11
870.33	1677.29
870.50	1787.88
870.66	1738.73
870.83	1798.12
871.00	1722.34
871.17	1722.34
871.33	1738.73
871.50	1615.85
871.67	1746.92
871.83	1640.42
872.00	1697.77
872.17	1722.34
872.33	1728.49
872.50	1804.26
872.67	1570.79
872.83	1699.81
873.00	1703.91
873.17	1705.96
873.33	1697.77
873.50	1732.58
873.67	1615.85
873.83	1675.24
874.00	1685.48
874.16	1759.21
874.33	1724.39
874.50	1640.42
874.66	1648.61
874.83	1689.57
875.00	1763.30
875.16	1763.30
875.33	1808.36
875.50	1652.71
875.66	1673.19
875.83	1656.81
875.99	1689.57
876.16	1677.29
876.33	1667.05
876.49	1705.96
876.66	1712.10
876.83	1703.91
876.99	1550.31
877.16	1714.15
877.32	1703.91
877.49	1587.18
877.66	1701.86
877.82	1834.98
877.99	1683.43
878.15	1791.97
878.32	1759.21
878.49	1652.71
878.65	1677.29
878.82	1826.79
878.98	1630.18
879.15	1734.63
879.32	1759.21
879.48	1740.77
879.65	1687.53
879.81	1730.53
879.98	1703.91
880.15	1640.42
880.31	1705.96
880.48	1656.81
880.64	1740.77
880.81	1787.88
880.97	1761.25
881.14	1726.44
881.31	1591.27
881.47	1757.16
881.64	1673.19
881.80	1587.18
881.97	1687.53
882.13	1699.81
882.30	1656.81
882.47	1611.75
882.63	1681.38
882.80	1683.43
882.96	1695.72
883.13	1720.29
883.29	1675.24
883.46	1806.31
883.62	1771.49
883.79	1738.73
883.95	1744.87
884.12	1679.33
884.29	1697.77
884.45	1683.43
884.62	1765.35
884.78	1730.53
884.95	1816.55
885.11	1648.61
885.28	1710.05
885.44	1683.43
885.61	1638.38
885.77	1714.15
885.94	1634.28
886.10	1652.71
886.27	1693.67
886.43	1806.31
886.60	1710.05
886.76	1701.86
886.93	1662.95
887.09	1714.15
887.26	1634.28
887.42	1648.61
887.59	1742.82
887.75	1818.60
887.92	1687.53
888.08	1714.15
888.25	1767.40
888.41	1763.30
888.58	1667.05
888.74	1732.58
888.91	1646.57
>>>>>End Processed Spectral Data<<<<<
