SpectraSuite Data File
++++++++++++++++++++++++++++++++++++
Date: Mon Jun 06 14:15:17 CEST 2016
User: root
Dark Spectrum Present: No
Reference Spectrum Present: No
Number of Sampled Component Spectra: 1
Spectrometers: USB4C02835
Integration Time (usec): 100000 (USB4C02835)
Spectra Averaged: 1 (USB4C02835)
Boxcar Smoothing: 0 (USB4C02835)
Correct for Electrical Dark: No (USB4C02835)
Strobe/Lamp Enabled: No (USB4C02835)
Correct for Detector Non-linearity: No (USB4C02835)
Correct for Stray Light: No (USB4C02835)
Number of Pixels in Processed Spectrum: 3648
>>>>>Begin Processed Spectral Data<<<<<
177.47	1462.25
177.69	1462.25
177.91	1462.25
178.13	1431.53
178.36	1464.30
178.58	1609.70
178.80	1820.64
179.02	1605.61
179.24	1634.28
179.46	1726.44
179.68	1787.88
179.90	1691.62
180.13	1726.44
180.35	1669.09
180.57	1650.66
180.79	1677.29
181.01	1665.00
181.23	1746.92
181.45	1726.44
181.67	1714.15
181.90	1740.77
182.12	1699.81
182.34	1601.51
182.56	1734.63
182.78	1646.57
183.00	1648.61
183.22	1726.44
183.44	1572.84
183.66	1744.87
183.89	1812.45
184.11	1683.43
184.33	1775.59
184.55	1800.16
184.77	1656.81
184.99	1716.20
185.21	1638.38
185.43	1849.32
185.65	1667.05
185.87	1683.43
186.10	1783.78
186.32	1861.60
186.54	1746.92
186.76	1673.19
186.98	1691.62
187.20	1675.24
187.42	1669.09
187.64	1789.92
187.86	1685.48
188.08	1777.64
188.30	1638.38
188.52	1814.50
188.75	1738.73
188.97	1761.25
189.19	1722.34
189.41	1587.18
189.63	1705.96
189.85	1687.53
190.07	1607.66
190.29	1574.89
190.51	1757.16
190.73	1656.81
190.95	1751.01
191.17	1646.57
191.39	1638.38
191.61	1630.18
191.84	1685.48
192.06	1748.97
192.28	1679.33
192.50	1826.79
192.72	1777.64
192.94	1644.52
193.16	1800.16
193.38	1699.81
193.60	1671.14
193.82	1673.19
194.04	1705.96
194.26	1667.05
194.48	1701.86
194.70	1669.09
194.92	1679.33
195.14	1740.77
195.36	1689.57
195.58	1658.85
195.80	1691.62
196.02	1665.00
196.24	1677.29
196.46	1736.68
196.69	1656.81
196.91	1730.53
197.13	1660.90
197.35	1634.28
197.57	1787.88
197.79	1763.30
198.01	1689.57
198.23	1675.24
198.45	1773.54
198.67	1591.27
198.89	1742.82
199.11	1716.20
199.33	1734.63
199.55	1644.52
199.77	1591.27
199.99	1755.11
200.21	1660.90
200.43	1748.97
200.65	1556.46
200.87	1564.65
201.09	1669.09
201.31	1656.81
201.53	1742.82
201.75	1736.68
201.97	1785.83
202.19	1685.48
202.41	1738.73
202.63	1796.07
202.85	1720.29
203.07	1734.63
203.29	1667.05
203.51	1632.23
203.73	1630.18
203.95	1812.45
204.17	1652.71
204.39	1671.14
204.61	1712.10
204.83	1738.73
205.05	1712.10
205.27	1763.30
205.49	1746.92
205.71	1734.63
205.93	1611.75
206.15	1583.08
206.37	1757.16
206.59	1658.85
206.81	1646.57
207.03	1652.71
207.25	1673.19
207.47	1759.21
207.69	1705.96
207.91	1814.50
208.13	1726.44
208.34	1591.27
208.56	1642.47
208.78	1740.77
209.00	1705.96
209.22	1726.44
209.44	1693.67
209.66	1714.15
209.88	1712.10
210.10	1687.53
210.32	1730.53
210.54	1804.26
210.76	1716.20
210.98	1689.57
211.20	1599.46
211.42	1667.05
211.64	1714.15
211.86	1781.73
212.08	1730.53
212.30	1679.33
212.52	1636.33
212.74	1718.25
212.96	1705.96
213.17	1751.01
213.39	1714.15
213.61	1804.26
213.83	1718.25
214.05	1665.00
214.27	1746.92
214.49	1646.57
214.71	1634.28
214.93	1791.97
215.15	1714.15
215.37	1789.92
215.59	1626.09
215.81	1671.14
216.03	1765.35
216.24	1744.87
216.46	1683.43
216.68	1667.05
216.90	1701.86
217.12	1728.49
217.34	1740.77
217.56	1771.49
217.78	1759.21
218.00	1720.29
218.22	1648.61
218.44	1703.91
218.66	1722.34
218.87	1828.84
219.09	1730.53
219.31	1681.38
219.53	1615.85
219.75	1681.38
219.97	1650.66
220.19	1746.92
220.41	1724.39
220.63	1732.58
220.85	1757.16
221.06	1646.57
221.28	1761.25
221.50	1726.44
221.72	1640.42
221.94	1677.29
222.16	1662.95
222.38	1802.21
222.60	1753.06
222.82	1716.20
223.03	1726.44
223.25	1673.19
223.47	1738.73
223.69	1845.22
223.91	1697.77
224.13	1720.29
224.35	1697.77
224.57	1738.73
224.78	1771.49
225.00	1679.33
225.22	1687.53
225.44	1720.29
225.66	1783.78
225.88	1736.68
226.10	1736.68
226.32	1679.33
226.53	1728.49
226.75	1648.61
226.97	1677.29
227.19	1679.33
227.41	1619.94
227.63	1589.22
227.85	1652.71
228.06	1667.05
228.28	1738.73
228.50	1681.38
228.72	1656.81
228.94	1634.28
229.16	1585.13
229.37	1642.47
229.59	1624.04
229.81	1757.16
230.03	1728.49
230.25	1607.66
230.47	1642.47
230.69	1679.33
230.90	1705.96
231.12	1650.66
231.34	1738.73
231.56	1822.69
231.78	1617.90
232.00	1740.77
232.21	1703.91
232.43	1632.23
232.65	1576.94
232.87	1638.38
233.09	1574.89
233.30	1615.85
233.52	1757.16
233.74	1646.57
233.96	1689.57
234.18	1746.92
234.40	1658.85
234.61	1785.83
234.83	1562.60
235.05	1578.98
235.27	1873.89
235.49	1761.25
235.70	1736.68
235.92	1763.30
236.14	1751.01
236.36	1832.93
236.58	1613.80
236.79	1718.25
237.01	1726.44
237.23	1681.38
237.45	1761.25
237.67	1533.93
237.88	1642.47
238.10	1820.64
238.32	1609.70
238.54	1748.97
238.76	1640.42
238.97	1689.57
239.19	1726.44
239.41	1677.29
239.63	1662.95
239.85	1708.01
240.06	1695.72
240.28	1642.47
240.50	1763.30
240.72	1677.29
240.93	1751.01
241.15	1775.59
241.37	1759.21
241.59	1775.59
241.81	1685.48
242.02	1632.23
242.24	1671.14
242.46	1697.77
242.68	1632.23
242.89	1734.63
243.11	1738.73
243.33	1691.62
243.55	1734.63
243.76	1773.54
243.98	1740.77
244.20	1708.01
244.42	1775.59
244.64	1652.71
244.85	1591.27
245.07	1644.52
245.29	1808.36
245.51	1673.19
245.72	1679.33
245.94	1724.39
246.16	1712.10
246.38	1785.83
246.59	1619.94
246.81	1683.43
247.03	1712.10
247.24	1615.85
247.46	1652.71
247.68	1738.73
247.90	1708.01
248.11	1605.61
248.33	1728.49
248.55	1687.53
248.77	1734.63
248.98	1767.40
249.20	1818.60
249.42	1748.97
249.64	1734.63
249.85	1675.24
250.07	1685.48
250.29	1759.21
250.50	1744.87
250.72	1632.23
250.94	1751.01
251.16	1802.21
251.37	1751.01
251.59	1742.82
251.81	1699.81
252.02	1728.49
252.24	1673.19
252.46	1798.12
252.68	1691.62
252.89	1669.09
253.11	1689.57
253.33	1820.64
253.54	1783.78
253.76	1640.42
253.98	1644.52
254.20	1804.26
254.41	1675.24
254.63	1705.96
254.85	1665.00
255.06	1665.00
255.28	1701.86
255.50	1660.90
255.71	1558.50
255.93	1656.81
256.15	1687.53
256.36	1753.06
256.58	1697.77
256.80	1714.15
257.02	1685.48
257.23	1632.23
257.45	1695.72
257.67	1787.88
257.88	1603.56
258.10	1728.49
258.32	1705.96
258.53	1734.63
258.75	1785.83
258.97	1658.85
259.18	1740.77
259.40	1751.01
259.62	1734.63
259.83	1818.60
260.05	1771.49
260.27	1918.95
260.48	1726.44
260.70	1679.33
260.92	1724.39
261.13	1701.86
261.35	1697.77
261.57	1742.82
261.78	1597.42
262.00	1630.18
262.22	1599.46
262.43	1638.38
262.65	1677.29
262.86	1732.58
263.08	1865.70
263.30	1681.38
263.51	1601.51
263.73	1681.38
263.95	1767.40
264.16	1626.09
264.38	1656.81
264.60	1771.49
264.81	1673.19
265.03	1742.82
265.25	1732.58
265.46	1636.33
265.68	1826.79
265.89	1738.73
266.11	1673.19
266.33	1734.63
266.54	1738.73
266.76	1693.67
266.98	1687.53
267.19	1775.59
267.41	1744.87
267.62	1710.05
267.84	1564.65
268.06	1691.62
268.27	1785.83
268.49	1712.10
268.70	1802.21
268.92	1744.87
269.14	1644.52
269.35	1636.33
269.57	1710.05
269.79	1773.54
270.00	1611.75
270.22	1732.58
270.43	1705.96
270.65	1535.98
270.87	1730.53
271.08	1767.40
271.30	1751.01
271.51	1771.49
271.73	1722.34
271.95	1771.49
272.16	1767.40
272.38	1699.81
272.59	1685.48
272.81	1730.53
273.02	1710.05
273.24	1716.20
273.46	1796.07
273.67	1658.85
273.89	1738.73
274.10	1685.48
274.32	1763.30
274.54	1685.48
274.75	1794.02
274.97	1712.10
275.18	1722.34
275.40	1742.82
275.61	1669.09
275.83	1767.40
276.05	1673.19
276.26	1667.05
276.48	1701.86
276.69	1705.96
276.91	1724.39
277.12	1783.78
277.34	1718.25
277.55	1718.25
277.77	1705.96
277.99	1746.92
278.20	1681.38
278.42	1601.51
278.63	1677.29
278.85	1585.13
279.06	1599.46
279.28	1665.00
279.49	1675.24
279.71	1693.67
279.93	1716.20
280.14	1675.24
280.36	1679.33
280.57	1708.01
280.79	1753.06
281.00	1554.41
281.22	1701.86
281.43	1751.01
281.65	1669.09
281.86	1619.94
282.08	1689.57
282.29	1808.36
282.51	1652.71
282.73	1642.47
282.94	1667.05
283.16	1748.97
283.37	1742.82
283.59	1722.34
283.80	1722.34
284.02	1693.67
284.23	1710.05
284.45	1697.77
284.66	1646.57
284.88	1646.57
285.09	1757.16
285.31	1687.53
285.52	1703.91
285.74	1599.46
285.95	1712.10
286.17	1767.40
286.38	1783.78
286.60	1671.14
286.81	1624.04
287.03	1667.05
287.24	1685.48
287.46	1783.78
287.67	1669.09
287.89	1812.45
288.10	1685.48
288.32	1755.11
288.53	1753.06
288.75	1648.61
288.96	1726.44
289.18	1646.57
289.39	1695.72
289.61	1746.92
289.82	1808.36
290.04	1828.84
290.25	1671.14
290.47	1724.39
290.68	1642.47
290.90	1748.97
291.11	1568.74
291.33	1732.58
291.54	1656.81
291.76	1697.77
291.97	1730.53
292.18	1738.73
292.40	1634.28
292.61	1699.81
292.83	1820.64
293.04	1648.61
293.26	1662.95
293.47	1718.25
293.69	1646.57
293.90	1763.30
294.12	1755.11
294.33	1718.25
294.55	1697.77
294.76	1757.16
294.97	1757.16
295.19	1798.12
295.40	1712.10
295.62	1759.21
295.83	1748.97
296.05	1634.28
296.26	1740.77
296.48	1722.34
296.69	1644.52
296.90	1710.05
297.12	1767.40
297.33	1691.62
297.55	1665.00
297.76	1697.77
297.98	1736.68
298.19	1695.72
298.41	1785.83
298.62	1662.95
298.83	1787.88
299.05	1714.15
299.26	1679.33
299.48	1624.04
299.69	1716.20
299.90	1763.30
300.12	1646.57
300.33	1734.63
300.55	1728.49
300.76	1720.29
300.98	1650.66
301.19	1783.78
301.40	1654.76
301.62	1753.06
301.83	1712.10
302.05	1781.73
302.26	1726.44
302.47	1759.21
302.69	1662.95
302.90	1755.11
303.12	1624.04
303.33	1699.81
303.54	1847.27
303.76	1607.66
303.97	1720.29
304.19	1802.21
304.40	1656.81
304.61	1714.15
304.83	1789.92
305.04	1798.12
305.26	1724.39
305.47	1626.09
305.68	1609.70
305.90	1634.28
306.11	1755.11
306.33	1665.00
306.54	1642.47
306.75	1652.71
306.97	1617.90
307.18	1601.51
307.39	1648.61
307.61	1765.35
307.82	1617.90
308.04	1726.44
308.25	1742.82
308.46	1708.01
308.68	1693.67
308.89	1724.39
309.10	1730.53
309.32	1761.25
309.53	1638.38
309.74	1779.68
309.96	1634.28
310.17	1742.82
310.39	1648.61
310.60	1685.48
310.81	1636.33
311.03	1554.41
311.24	1761.25
311.45	1652.71
311.67	1779.68
311.88	1710.05
312.09	1660.90
312.31	1701.86
312.52	1675.24
312.73	1615.85
312.95	1564.65
313.16	1705.96
313.37	1789.92
313.59	1732.58
313.80	1685.48
314.01	1748.97
314.23	1609.70
314.44	1677.29
314.65	1677.29
314.87	1642.47
315.08	1671.14
315.29	1734.63
315.51	1628.14
315.72	1652.71
315.93	1769.44
316.15	1771.49
316.36	1697.77
316.57	1640.42
316.79	1710.05
317.00	1652.71
317.21	1759.21
317.43	1615.85
317.64	1679.33
317.85	1658.85
318.07	1722.34
318.28	1685.48
318.49	1873.89
318.70	1933.28
318.92	1828.84
319.13	1832.93
319.34	1828.84
319.56	1798.12
319.77	1761.25
319.98	1802.21
320.20	1785.83
320.41	1777.64
320.62	1732.58
320.83	1611.75
321.05	1877.99
321.26	1624.04
321.47	1689.57
321.69	1757.16
321.90	1652.71
322.11	1677.29
322.32	1683.43
322.54	1826.79
322.75	1644.52
322.96	1816.55
323.18	1660.90
323.39	1644.52
323.60	1570.79
323.81	1701.86
324.03	1685.48
324.24	1697.77
324.45	1677.29
324.66	1650.66
324.88	1796.07
325.09	1808.36
325.30	1691.62
325.52	1746.92
325.73	1726.44
325.94	1665.00
326.15	1597.42
326.37	1652.71
326.58	1794.02
326.79	1791.97
327.00	1673.19
327.22	1679.33
327.43	1708.01
327.64	1660.90
327.85	1808.36
328.07	1642.47
328.28	1718.25
328.49	1665.00
328.70	1714.15
328.92	1699.81
329.13	1621.99
329.34	1779.68
329.55	1812.45
329.76	1730.53
329.98	1744.87
330.19	1802.21
330.40	1605.61
330.61	1748.97
330.83	1740.77
331.04	1619.94
331.25	1636.33
331.46	1624.04
331.68	1656.81
331.89	1765.35
332.10	1691.62
332.31	1724.39
332.52	1767.40
332.74	1716.20
332.95	1572.84
333.16	1722.34
333.37	1730.53
333.58	1703.91
333.80	1736.68
334.01	1656.81
334.22	1642.47
334.43	1736.68
334.64	1708.01
334.86	1652.71
335.07	1554.41
335.28	1789.92
335.49	1675.24
335.70	1757.16
335.92	1796.07
336.13	1865.70
336.34	1693.67
336.55	1701.86
336.76	1746.92
336.98	1552.36
337.19	1742.82
337.40	1751.01
337.61	1845.22
337.82	1718.25
338.04	1798.12
338.25	1603.56
338.46	1595.37
338.67	1677.29
338.88	1673.19
339.09	1658.85
339.31	1722.34
339.52	1695.72
339.73	1615.85
339.94	1671.14
340.15	1689.57
340.36	1697.77
340.58	1689.57
340.79	1677.29
341.00	1804.26
341.21	1632.23
341.42	1832.93
341.63	1681.38
341.85	1742.82
342.06	1740.77
342.27	1697.77
342.48	1720.29
342.69	1615.85
342.90	1730.53
343.12	1697.77
343.33	1710.05
343.54	1755.11
343.75	1888.23
343.96	1669.09
344.17	1708.01
344.38	1730.53
344.60	1589.22
344.81	1740.77
345.02	1650.66
345.23	1734.63
345.44	1761.25
345.65	1820.64
345.86	1751.01
346.07	1671.14
346.29	1648.61
346.50	1730.53
346.71	1804.26
346.92	1759.21
347.13	1765.35
347.34	1689.57
347.55	1705.96
347.76	1755.11
347.98	1669.09
348.19	1630.18
348.40	1720.29
348.61	1705.96
348.82	1757.16
349.03	1730.53
349.24	1656.81
349.45	1826.79
349.66	1476.59
349.88	1642.47
350.09	1615.85
350.30	1738.73
350.51	1763.30
350.72	1695.72
350.93	1726.44
351.14	1697.77
351.35	1705.96
351.56	1728.49
351.77	1689.57
351.99	1708.01
352.20	1873.89
352.41	1771.49
352.62	1638.38
352.83	1712.10
353.04	1660.90
353.25	1662.95
353.46	1787.88
353.67	1800.16
353.88	1523.69
354.09	1708.01
354.30	1718.25
354.52	1644.52
354.73	1685.48
354.94	1708.01
355.15	1691.62
355.36	1748.97
355.57	1757.16
355.78	1691.62
355.99	1630.18
356.20	1730.53
356.41	1769.44
356.62	1771.49
356.83	1740.77
357.04	1806.31
357.25	1617.90
357.46	1726.44
357.68	1626.09
357.89	1607.66
358.10	1699.81
358.31	1691.62
358.52	1630.18
358.73	1712.10
358.94	1642.47
359.15	1728.49
359.36	1812.45
359.57	1748.97
359.78	1714.15
359.99	1751.01
360.20	1671.14
360.41	1619.94
360.62	1763.30
360.83	1658.85
361.04	1656.81
361.25	1650.66
361.46	1791.97
361.67	1724.39
361.88	1730.53
362.09	1697.77
362.30	1681.38
362.51	1628.14
362.72	1705.96
362.93	1685.48
363.14	1732.58
363.35	1726.44
363.56	1705.96
363.78	1753.06
363.99	1677.29
364.20	1667.05
364.41	1738.73
364.62	1808.36
364.83	1730.53
365.04	1677.29
365.25	1671.14
365.46	1699.81
365.67	1703.91
365.88	1607.66
366.09	1640.42
366.30	1652.71
366.51	1695.72
366.72	1626.09
366.93	1769.44
367.14	1681.38
367.35	1675.24
367.56	1708.01
367.77	1759.21
367.98	1642.47
368.18	1724.39
368.39	1669.09
368.60	1644.52
368.81	1777.64
369.02	1722.34
369.23	1665.00
369.44	1562.60
369.65	1599.46
369.86	1656.81
370.07	1761.25
370.28	1677.29
370.49	1730.53
370.70	1744.87
370.91	1662.95
371.12	1599.46
371.33	1781.73
371.54	1677.29
371.75	1800.16
371.96	1654.76
372.17	1697.77
372.38	1642.47
372.59	1740.77
372.80	1699.81
373.01	1724.39
373.22	1716.20
373.43	1722.34
373.64	1589.22
373.85	1757.16
374.06	1705.96
374.26	1677.29
374.47	1814.50
374.68	1777.64
374.89	1744.87
375.10	1650.66
375.31	1722.34
375.52	1775.59
375.73	1734.63
375.94	1703.91
376.15	1804.26
376.36	1648.61
376.57	1632.23
376.78	1710.05
376.99	1734.63
377.20	1791.97
377.40	1650.66
377.61	1812.45
377.82	1634.28
378.03	1763.30
378.24	1693.67
378.45	1689.57
378.66	1744.87
378.87	1626.09
379.08	1640.42
379.29	1646.57
379.50	1683.43
379.71	1644.52
379.91	1804.26
380.12	1640.42
380.33	1714.15
380.54	1693.67
380.75	1585.13
380.96	1683.43
381.17	1689.57
381.38	1796.07
381.59	1681.38
381.80	1796.07
382.00	1902.56
382.21	1810.40
382.42	1820.64
382.63	1855.46
382.84	1796.07
383.05	1718.25
383.26	1814.50
383.47	1783.78
383.68	1714.15
383.88	1732.58
384.09	1730.53
384.30	1841.12
384.51	1708.01
384.72	1632.23
384.93	1638.38
385.14	1648.61
385.35	1738.73
385.55	1632.23
385.76	1761.25
385.97	1671.14
386.18	1740.77
386.39	1603.56
386.60	1697.77
386.81	1734.63
387.02	1597.42
387.22	1605.61
387.43	1781.73
387.64	1628.14
387.85	1947.62
388.06	2201.57
388.27	4263.87
388.48	6719.39
388.68	8275.84
388.89	9637.74
389.10	9953.13
389.31	8492.93
389.52	7706.51
389.73	6627.23
389.93	6219.68
390.14	5844.90
390.35	5142.45
390.56	4652.98
390.77	3825.61
390.98	3094.48
391.18	2502.62
391.39	2082.78
391.60	1961.95
391.81	1773.54
392.02	1746.92
392.23	1781.73
392.43	1703.91
392.64	1871.84
392.85	1757.16
393.06	1855.46
393.27	1722.34
393.47	1646.57
393.68	1681.38
393.89	1685.48
394.10	1714.15
394.31	1671.14
394.52	1671.14
394.72	1740.77
394.93	1728.49
395.14	1656.81
395.35	1777.64
395.56	1681.38
395.76	1791.97
395.97	1738.73
396.18	1789.92
396.39	1869.80
396.60	2002.91
396.80	1877.99
397.01	1916.90
397.22	1857.51
397.43	1804.26
397.64	1683.43
397.84	1738.73
398.05	1900.52
398.26	1787.88
398.47	1789.92
398.67	1722.34
398.88	1693.67
399.09	1812.45
399.30	1722.34
399.51	1755.11
399.71	1732.58
399.92	1699.81
400.13	1777.64
400.34	1650.66
400.54	1722.34
400.75	1830.88
400.96	1716.20
401.17	1804.26
401.37	1697.77
401.58	1671.14
401.79	1681.38
402.00	1781.73
402.21	2019.30
402.41	1877.99
402.62	1859.56
402.83	2021.35
403.04	1951.71
403.24	2119.65
403.45	1810.40
403.66	1912.80
403.87	1890.28
404.07	1937.38
404.28	1986.53
404.49	1845.22
404.70	1806.31
404.90	1695.72
405.11	1732.58
405.32	1779.68
405.52	1703.91
405.73	1763.30
405.94	1650.66
406.15	1769.44
406.35	1804.26
406.56	1818.60
406.77	1722.34
406.98	1740.77
407.18	1667.05
407.39	1820.64
407.60	1701.86
407.80	1824.74
408.01	1624.04
408.22	1767.40
408.43	1705.96
408.63	1722.34
408.84	1738.73
409.05	1736.68
409.25	1644.52
409.46	1648.61
409.67	1699.81
409.88	1671.14
410.08	1677.29
410.29	1667.05
410.50	1722.34
410.70	1742.82
410.91	1699.81
411.12	1763.30
411.32	1730.53
411.53	1724.39
411.74	1810.40
411.95	1816.55
412.15	1738.73
412.36	1755.11
412.57	1710.05
412.77	1810.40
412.98	1665.00
413.19	1675.24
413.39	1718.25
413.60	1632.23
413.81	1722.34
414.01	1634.28
414.22	1742.82
414.43	1718.25
414.63	1695.72
414.84	1757.16
415.05	1716.20
415.25	1660.90
415.46	1714.15
415.67	1619.94
415.87	1710.05
416.08	1722.34
416.29	1607.66
416.49	1798.12
416.70	1648.61
416.91	1683.43
417.11	1662.95
417.32	1673.19
417.53	1718.25
417.73	1773.54
417.94	1730.53
418.15	1654.76
418.35	1751.01
418.56	1771.49
418.77	1804.26
418.97	1693.67
419.18	1683.43
419.38	1581.03
419.59	1738.73
419.80	1771.49
420.00	1626.09
420.21	1714.15
420.42	1816.55
420.62	1675.24
420.83	1640.42
421.04	1630.18
421.24	1621.99
421.45	1839.08
421.65	1753.06
421.86	1689.57
422.07	1765.35
422.27	1767.40
422.48	1642.47
422.69	1634.28
422.89	1665.00
423.10	1691.62
423.30	1626.09
423.51	1679.33
423.72	1611.75
423.92	1705.96
424.13	1593.32
424.33	1742.82
424.54	1734.63
424.75	1642.47
424.95	1742.82
425.16	1738.73
425.36	1697.77
425.57	1675.24
425.78	1714.15
425.98	1763.30
426.19	1656.81
426.39	1646.57
426.60	1658.85
426.81	1753.06
427.01	1726.44
427.22	1681.38
427.42	1603.56
427.63	1677.29
427.83	1771.49
428.04	1697.77
428.25	1787.88
428.45	1822.69
428.66	1771.49
428.86	1742.82
429.07	1660.90
429.28	1677.29
429.48	1654.76
429.69	1640.42
429.89	1716.20
430.10	1644.52
430.30	1738.73
430.51	1718.25
430.71	1652.71
430.92	1691.62
431.13	1685.48
431.33	1773.54
431.54	1771.49
431.74	1718.25
431.95	1779.68
432.15	1628.14
432.36	1724.39
432.56	1746.92
432.77	1865.70
432.98	1808.36
433.18	1722.34
433.39	1646.57
433.59	1632.23
433.80	1738.73
434.00	1849.32
434.21	1763.30
434.41	1681.38
434.62	1855.46
434.82	1583.08
435.03	1677.29
435.23	1718.25
435.44	1591.27
435.64	1685.48
435.85	1740.77
436.06	1734.63
436.26	1710.05
436.47	1710.05
436.67	1677.29
436.88	1730.53
437.08	1806.31
437.29	1763.30
437.49	1718.25
437.70	1665.00
437.90	1753.06
438.11	1875.94
438.31	1734.63
438.52	1796.07
438.72	1880.04
438.93	1884.13
439.13	1751.01
439.34	1818.60
439.54	1757.16
439.75	1759.21
439.95	1742.82
440.16	1767.40
440.36	1742.82
440.57	1787.88
440.77	1855.46
440.98	1785.83
441.18	1714.15
441.39	1595.37
441.59	1621.99
441.80	1900.52
442.00	1693.67
442.21	1761.25
442.41	1673.19
442.62	1779.68
442.82	1646.57
443.02	1705.96
443.23	1701.86
443.43	1759.21
443.64	1859.56
443.84	1640.42
444.05	1834.98
444.25	1751.01
444.46	1617.90
444.66	1761.25
444.87	1845.22
445.07	1650.66
445.28	1701.86
445.48	1804.26
445.69	1740.77
445.89	1832.93
446.09	1738.73
446.30	1968.10
446.50	2809.81
446.71	3653.58
446.91	4394.94
447.12	4675.51
447.32	4845.49
447.53	4284.35
447.73	4005.83
447.93	3653.58
448.14	3356.62
448.34	3213.26
448.55	2885.59
448.75	2861.01
448.96	2727.89
449.16	2404.32
449.36	2271.20
449.57	2074.59
449.77	1867.75
449.98	1777.64
450.18	1873.89
450.39	1853.41
450.59	1796.07
450.79	1773.54
451.00	1677.29
451.20	1812.45
451.41	1685.48
451.61	1734.63
451.81	1773.54
452.02	1689.57
452.22	1656.81
452.43	1662.95
452.63	1658.85
452.84	1744.87
453.04	1724.39
453.24	1728.49
453.45	1751.01
453.65	1763.30
453.86	1781.73
454.06	1812.45
454.26	1755.11
454.47	1677.29
454.67	1802.21
454.87	1826.79
455.08	1726.44
455.28	1837.03
455.49	1757.16
455.69	1697.77
455.89	1826.79
456.10	1800.16
456.30	1695.72
456.51	1732.58
456.71	1806.31
456.91	1705.96
457.12	1773.54
457.32	1742.82
457.52	1705.96
457.73	1867.75
457.93	1740.77
458.14	1716.20
458.34	1626.09
458.54	1779.68
458.75	1759.21
458.95	1757.16
459.15	1769.44
459.36	1763.30
459.56	1822.69
459.76	1859.56
459.97	1746.92
460.17	1779.68
460.37	1765.35
460.58	1744.87
460.78	1646.57
460.99	1726.44
461.19	1656.81
461.39	1667.05
461.60	1714.15
461.80	1804.26
462.00	1632.23
462.21	1738.73
462.41	1669.09
462.61	1705.96
462.82	1665.00
463.02	1802.21
463.22	1728.49
463.43	1839.08
463.63	1738.73
463.83	1742.82
464.04	1740.77
464.24	1716.20
464.44	1708.01
464.64	1757.16
464.85	1755.11
465.05	1740.77
465.25	1714.15
465.46	1624.04
465.66	1732.58
465.86	1814.50
466.07	1683.43
466.27	1634.28
466.47	1636.33
466.68	1687.53
466.88	1808.36
467.08	1773.54
467.29	1748.97
467.49	1816.55
467.69	1705.96
467.89	1812.45
468.10	1587.18
468.30	1830.88
468.50	1806.31
468.71	1708.01
468.91	1658.85
469.11	1828.84
469.31	1757.16
469.52	1665.00
469.72	1783.78
469.92	1798.12
470.13	1740.77
470.33	1632.23
470.53	1796.07
470.73	2095.07
470.94	2344.92
471.14	2338.78
471.34	2531.29
471.54	2500.57
471.75	2189.28
471.95	2127.84
472.15	2066.40
472.36	2064.35
472.56	2101.22
472.76	2023.39
472.96	1984.48
473.17	1929.19
473.37	1875.94
473.57	1759.21
473.77	1877.99
473.98	1779.68
474.18	1671.14
474.38	1957.86
474.58	1705.96
474.79	1718.25
474.99	1708.01
475.19	1779.68
475.39	1642.47
475.60	1671.14
475.80	1714.15
476.00	1716.20
476.20	1730.53
476.41	1724.39
476.61	1884.13
476.81	1818.60
477.01	1722.34
477.21	1898.47
477.42	1837.03
477.62	1689.57
477.82	1730.53
478.02	1712.10
478.23	1656.81
478.43	1685.48
478.63	1640.42
478.83	1726.44
479.03	1615.85
479.24	1767.40
479.44	1880.04
479.64	1660.90
479.84	1660.90
480.04	1607.66
480.25	1701.86
480.45	1667.05
480.65	1761.25
480.85	1763.30
481.06	1699.81
481.26	1634.28
481.46	1681.38
481.66	1714.15
481.86	1667.05
482.06	1787.88
482.27	1630.18
482.47	1689.57
482.67	1740.77
482.87	1714.15
483.07	1734.63
483.28	1667.05
483.48	1697.77
483.68	1689.57
483.88	1619.94
484.08	1587.18
484.29	1652.71
484.49	1789.92
484.69	1660.90
484.89	1773.54
485.09	1746.92
485.29	1763.30
485.50	1839.08
485.70	1703.91
485.90	1775.59
486.10	1703.91
486.30	1679.33
486.50	1789.92
486.71	1671.14
486.91	1734.63
487.11	1785.83
487.31	1703.91
487.51	1683.43
487.71	1665.00
487.91	1681.38
488.12	1634.28
488.32	1560.55
488.52	1638.38
488.72	1673.19
488.92	1791.97
489.12	1767.40
489.32	1744.87
489.53	1779.68
489.73	1634.28
489.93	1810.40
490.13	1714.15
490.33	1708.01
490.53	1705.96
490.73	1820.64
490.94	1607.66
491.14	1789.92
491.34	1867.75
491.54	2156.51
491.74	2541.53
491.94	2863.06
492.14	3094.48
492.34	2971.60
492.54	2742.23
492.75	2357.21
492.95	2418.65
493.15	2314.20
493.35	2281.44
493.55	2205.66
493.75	2152.42
493.95	2080.74
494.15	2035.68
494.35	1927.14
494.56	1806.31
494.76	1804.26
494.96	1814.50
495.16	1755.11
495.36	1794.02
495.56	1771.49
495.76	1812.45
495.96	1714.15
496.16	1632.23
496.36	1875.94
496.56	1705.96
496.77	1732.58
496.97	1658.85
497.17	1810.40
497.37	1642.47
497.57	1755.11
497.77	1736.68
497.97	1697.77
498.17	1802.21
498.37	1634.28
498.57	1746.92
498.77	1701.86
498.97	1796.07
499.17	1812.45
499.38	1740.77
499.58	1791.97
499.78	1767.40
499.98	1820.64
500.18	1748.97
500.38	1673.19
500.58	1927.14
500.78	2549.72
500.98	4466.62
501.18	5943.21
501.38	6858.65
501.58	7137.17
501.78	6817.69
501.98	5474.22
502.18	4995.00
502.38	4542.39
502.58	4159.42
502.78	3692.49
502.98	3706.82
503.18	3477.45
503.38	3090.38
503.59	2897.88
503.79	2691.03
503.99	2590.68
504.19	2230.24
504.39	2176.99
504.59	2209.76
504.79	2242.53
504.99	2029.54
505.19	1978.34
505.39	1824.74
505.59	1920.99
505.79	1972.19
505.99	1865.70
506.19	1761.25
506.39	1896.42
506.59	1806.31
506.79	1763.30
506.99	1818.60
507.19	1738.73
507.39	1781.73
507.59	1650.66
507.79	1669.09
507.99	1695.72
508.19	1738.73
508.39	1665.00
508.59	1693.67
508.79	1806.31
508.99	1767.40
509.19	1732.58
509.39	1818.60
509.59	1726.44
509.79	1632.23
509.99	1748.97
510.19	1771.49
510.39	1800.16
510.59	1798.12
510.79	1699.81
510.99	1724.39
511.19	1773.54
511.39	1843.17
511.59	1894.37
511.79	1783.78
511.99	1718.25
512.19	1820.64
512.38	1695.72
512.58	1642.47
512.78	1755.11
512.98	1777.64
513.18	1863.65
513.38	1628.14
513.58	1662.95
513.78	1644.52
513.98	1771.49
514.18	1738.73
514.38	1710.05
514.58	1755.11
514.78	1744.87
514.98	1681.38
515.18	1603.56
515.38	1697.77
515.58	1888.23
515.78	1746.92
515.98	1693.67
516.18	1705.96
516.38	1710.05
516.57	1714.15
516.77	1742.82
516.97	1773.54
517.17	1710.05
517.37	1632.23
517.57	1814.50
517.77	1765.35
517.97	1689.57
518.17	1806.31
518.37	1693.67
518.57	1591.27
518.77	1722.34
518.97	1718.25
519.16	1806.31
519.36	1816.55
519.56	1693.67
519.76	1748.97
519.96	1740.77
520.16	1796.07
520.36	1636.33
520.56	1810.40
520.76	1632.23
520.96	1714.15
521.16	1781.73
521.35	1744.87
521.55	1859.56
521.75	1697.77
521.95	1703.91
522.15	1677.29
522.35	1607.66
522.55	1685.48
522.75	1812.45
522.95	1740.77
523.14	1718.25
523.34	1720.29
523.54	1667.05
523.74	1873.89
523.94	1718.25
524.14	1685.48
524.34	1777.64
524.54	1742.82
524.73	1806.31
524.93	1703.91
525.13	1665.00
525.33	1581.03
525.53	1869.80
525.73	1839.08
525.93	1779.68
526.13	1632.23
526.32	1746.92
526.52	1794.02
526.72	1730.53
526.92	1689.57
527.12	1644.52
527.32	1632.23
527.52	1718.25
527.71	1796.07
527.91	1746.92
528.11	1701.86
528.31	1736.68
528.51	1724.39
528.71	1734.63
528.90	1746.92
529.10	1791.97
529.30	1816.55
529.50	1624.04
529.70	1673.19
529.90	1662.95
530.09	1728.49
530.29	1650.66
530.49	1632.23
530.69	1869.80
530.89	1671.14
531.09	1726.44
531.28	1785.83
531.48	1839.08
531.68	1724.39
531.88	1730.53
532.08	1796.07
532.28	1656.81
532.47	1783.78
532.67	1796.07
532.87	1775.59
533.07	1677.29
533.27	1775.59
533.46	1734.63
533.66	1724.39
533.86	1791.97
534.06	1755.11
534.26	1783.78
534.45	1712.10
534.65	1777.64
534.85	1730.53
535.05	1652.71
535.25	1851.36
535.44	1601.51
535.64	1765.35
535.84	1652.71
536.04	1736.68
536.24	1669.09
536.43	1636.33
536.63	1779.68
536.83	1722.34
537.03	1734.63
537.22	1613.80
537.42	1621.99
537.62	1757.16
537.82	1751.01
538.02	1859.56
538.21	1808.36
538.41	1929.19
538.61	1781.73
538.81	1755.11
539.00	1789.92
539.20	1615.85
539.40	1673.19
539.60	1796.07
539.79	1744.87
539.99	1658.85
540.19	1687.53
540.39	1703.91
540.58	1705.96
540.78	1714.15
540.98	1718.25
541.18	1783.78
541.37	1794.02
541.57	1697.77
541.77	1753.06
541.97	1665.00
542.16	1740.77
542.36	1755.11
542.56	1738.73
542.76	1845.22
542.95	1656.81
543.15	1724.39
543.35	1761.25
543.54	1689.57
543.74	1669.09
543.94	1787.88
544.14	1722.34
544.33	1746.92
544.53	1671.14
544.73	1660.90
544.93	1736.68
545.12	1708.01
545.32	1693.67
545.52	1658.85
545.71	1681.38
545.91	1671.14
546.11	1726.44
546.30	1654.76
546.50	1718.25
546.70	1730.53
546.90	1787.88
547.09	1689.57
547.29	1771.49
547.49	1751.01
547.68	1669.09
547.88	1675.24
548.08	1783.78
548.27	2144.22
548.47	1746.92
548.67	1665.00
548.87	1755.11
549.06	1677.29
549.26	1806.31
549.46	1802.21
549.65	1705.96
549.85	1744.87
550.05	1701.86
550.24	1675.24
550.44	1783.78
550.64	1720.29
550.83	1683.43
551.03	1849.32
551.23	1681.38
551.42	1796.07
551.62	1722.34
551.82	1734.63
552.01	1748.97
552.21	1882.08
552.41	1689.57
552.60	1755.11
552.80	1765.35
553.00	1693.67
553.19	1748.97
553.39	1771.49
553.59	1640.42
553.78	1783.78
553.98	1683.43
554.17	1685.48
554.37	1705.96
554.57	1775.59
554.76	1626.09
554.96	1673.19
555.16	1701.86
555.35	1722.34
555.55	1712.10
555.75	1724.39
555.94	1794.02
556.14	1648.61
556.33	1732.58
556.53	1789.92
556.73	1734.63
556.92	1763.30
557.12	1798.12
557.32	1834.98
557.51	1814.50
557.71	1761.25
557.90	1845.22
558.10	1894.37
558.30	1740.77
558.49	1701.86
558.69	1697.77
558.88	1691.62
559.08	1705.96
559.28	1705.96
559.47	1757.16
559.67	1757.16
559.86	1832.93
560.06	1697.77
560.26	1724.39
560.45	1703.91
560.65	1820.64
560.84	1855.46
561.04	1748.97
561.24	1746.92
561.43	1597.42
561.63	1839.08
561.82	1822.69
562.02	1800.16
562.22	1703.91
562.41	1734.63
562.61	1759.21
562.80	1791.97
563.00	1896.42
563.19	1755.11
563.39	1802.21
563.59	1808.36
563.78	1724.39
563.98	1546.22
564.17	1658.85
564.37	1656.81
564.56	1748.97
564.76	1765.35
564.96	1781.73
565.15	1859.56
565.35	1894.37
565.54	1699.81
565.74	1753.06
565.93	1761.25
566.13	1804.26
566.32	1705.96
566.52	1769.44
566.71	1685.48
566.91	1812.45
567.11	1636.33
567.30	1701.86
567.50	1654.76
567.69	1783.78
567.89	1679.33
568.08	1708.01
568.28	1728.49
568.47	1748.97
568.67	1669.09
568.86	1769.44
569.06	1789.92
569.25	1652.71
569.45	1742.82
569.64	1693.67
569.84	1710.05
570.04	1751.01
570.23	1699.81
570.43	1757.16
570.62	1767.40
570.82	1857.51
571.01	1710.05
571.21	1730.53
571.40	1734.63
571.60	1763.30
571.79	1787.88
571.99	1806.31
572.18	1611.75
572.38	1720.29
572.57	1705.96
572.77	1763.30
572.96	1959.91
573.16	1710.05
573.35	1710.05
573.55	1888.23
573.74	1705.96
573.94	1753.06
574.13	1787.88
574.33	1814.50
574.52	1800.16
574.71	1697.77
574.91	1791.97
575.10	1667.05
575.30	1716.20
575.49	1656.81
575.69	1693.67
575.88	1761.25
576.08	1728.49
576.27	1816.55
576.47	1697.77
576.66	1814.50
576.86	1857.51
577.05	1714.15
577.25	1677.29
577.44	1871.84
577.64	1701.86
577.83	1908.71
578.02	1710.05
578.22	1781.73
578.41	1824.74
578.61	1708.01
578.80	1679.33
579.00	1769.44
579.19	1800.16
579.39	1736.68
579.58	1837.03
579.77	1712.10
579.97	1841.12
580.16	1853.41
580.36	1820.64
580.55	1763.30
580.75	1753.06
580.94	1810.40
581.13	1847.27
581.33	1861.60
581.52	1708.01
581.72	1843.17
581.91	1896.42
582.11	1771.49
582.30	1763.30
582.49	1763.30
582.69	1873.89
582.88	1869.80
583.08	1767.40
583.27	1839.08
583.47	1720.29
583.66	1732.58
583.85	1695.72
584.05	1757.16
584.24	1734.63
584.44	1699.81
584.63	1783.78
584.82	1865.70
585.02	1871.84
585.21	1865.70
585.41	1822.69
585.60	1826.79
585.79	1935.33
585.99	1906.66
586.18	1886.18
586.37	2238.43
586.57	3448.78
586.76	10049.38
586.96	24686.22
587.15	34751.98
587.34	40603.03
587.54	42462.58
587.73	36761.04
587.93	26355.31
588.12	21436.09
588.31	18228.97
588.51	16363.27
588.70	15222.55
588.89	14133.03
589.09	12646.21
589.28	11097.94
589.47	9715.56
589.67	8150.92
589.86	6502.30
590.06	4851.64
590.25	4026.31
590.44	3110.86
590.64	2568.15
590.83	2234.33
591.02	2064.35
591.22	1916.90
591.41	1912.80
591.60	1781.73
591.80	1896.42
591.99	1703.91
592.18	1771.49
592.38	1871.84
592.57	1722.34
592.76	1791.97
592.96	1816.55
593.15	1763.30
593.34	1902.56
593.54	1701.86
593.73	1822.69
593.92	1757.16
594.12	1726.44
594.31	1650.66
594.50	1816.55
594.70	1775.59
594.89	1834.98
595.08	1738.73
595.28	1837.03
595.47	1884.13
595.66	1830.88
595.86	1656.81
596.05	1679.33
596.24	1740.77
596.43	1828.84
596.63	1808.36
596.82	1677.29
597.01	1779.68
597.21	1863.65
597.40	1839.08
597.59	1673.19
597.79	1751.01
597.98	1673.19
598.17	1816.55
598.36	1720.29
598.56	1710.05
598.75	1755.11
598.94	1767.40
599.14	1810.40
599.33	1683.43
599.52	1798.12
599.71	1703.91
599.91	1773.54
600.10	1761.25
600.29	1728.49
600.48	1781.73
600.68	1812.45
600.87	1673.19
601.06	1738.73
601.26	1691.62
601.45	1716.20
601.64	1673.19
601.83	1812.45
602.03	1720.29
602.22	1646.57
602.41	1789.92
602.60	1871.84
602.80	1660.90
602.99	1699.81
603.18	1708.01
603.37	1703.91
603.57	1748.97
603.76	1765.35
603.95	1724.39
604.14	1751.01
604.34	1746.92
604.53	1708.01
604.72	1734.63
604.91	1691.62
605.10	1791.97
605.30	1751.01
605.49	1931.23
605.68	1763.30
605.87	1724.39
606.07	1658.85
606.26	1736.68
606.45	1783.78
606.64	1685.48
606.84	1773.54
607.03	1699.81
607.22	1767.40
607.41	1576.94
607.60	1705.96
607.80	1787.88
607.99	1732.58
608.18	1701.86
608.37	1689.57
608.56	1607.66
608.76	1804.26
608.95	1742.82
609.14	1697.77
609.33	1742.82
609.52	1759.21
609.72	1691.62
609.91	1783.78
610.10	1783.78
610.29	1783.78
610.48	1726.44
610.68	1859.56
610.87	1699.81
611.06	1769.44
611.25	1716.20
611.44	1794.02
611.63	1714.15
611.83	1755.11
612.02	1677.29
612.21	1773.54
612.40	1683.43
612.59	1630.18
612.79	1648.61
612.98	1697.77
613.17	1818.60
613.36	1708.01
613.55	1802.21
613.74	1730.53
613.93	1656.81
614.13	1738.73
614.32	1781.73
614.51	1755.11
614.70	1667.05
614.89	1677.29
615.08	1712.10
615.28	2070.50
615.47	1742.82
615.66	1687.53
615.85	1718.25
616.04	1808.36
616.23	1699.81
616.42	1673.19
616.62	1744.87
616.81	1693.67
617.00	1775.59
617.19	1773.54
617.38	1708.01
617.57	1689.57
617.76	1697.77
617.95	1798.12
618.15	1773.54
618.34	1787.88
618.53	1669.09
618.72	1736.68
618.91	1746.92
619.10	1783.78
619.29	1806.31
619.48	1738.73
619.68	1755.11
619.87	1681.38
620.06	1572.84
620.25	1712.10
620.44	1675.24
620.63	1740.77
620.82	1753.06
621.01	1771.49
621.20	1796.07
621.39	1687.53
621.59	1742.82
621.78	1746.92
621.97	1685.48
622.16	1796.07
622.35	1671.14
622.54	1834.98
622.73	1828.84
622.92	1665.00
623.11	1732.58
623.30	1714.15
623.49	1789.92
623.68	1658.85
623.88	1763.30
624.07	1726.44
624.26	1683.43
624.45	1732.58
624.64	1714.15
624.83	1710.05
625.02	1767.40
625.21	1703.91
625.40	1761.25
625.59	1726.44
625.78	1667.05
625.97	1787.88
626.16	1787.88
626.35	1806.31
626.54	1681.38
626.74	1781.73
626.93	1714.15
627.12	1697.77
627.31	1812.45
627.50	1699.81
627.69	1804.26
627.88	1665.00
628.07	1726.44
628.26	1613.80
628.45	1759.21
628.64	1724.39
628.83	1710.05
629.02	1665.00
629.21	1724.39
629.40	1722.34
629.59	1638.38
629.78	1615.85
629.97	1669.09
630.16	1679.33
630.35	1685.48
630.54	1736.68
630.73	1671.14
630.92	1724.39
631.11	1656.81
631.30	1699.81
631.49	1789.92
631.68	1640.42
631.87	1701.86
632.06	1650.66
632.25	1806.31
632.44	1722.34
632.63	1769.44
632.82	1730.53
633.01	1632.23
633.20	1712.10
633.39	1677.29
633.58	1638.38
633.77	1787.88
633.96	1759.21
634.15	1753.06
634.34	1789.92
634.53	1701.86
634.72	1611.75
634.91	1650.66
635.10	1808.36
635.29	1751.01
635.48	1722.34
635.67	1685.48
635.86	1613.80
636.05	1777.64
636.24	1708.01
636.43	1763.30
636.62	1746.92
636.81	1601.51
637.00	1724.39
637.19	1671.14
637.38	1722.34
637.57	1730.53
637.76	1722.34
637.95	1669.09
638.14	1710.05
638.33	1732.58
638.52	1757.16
638.71	1650.66
638.89	1630.18
639.08	1806.31
639.27	1826.79
639.46	1714.15
639.65	1785.83
639.84	1751.01
640.03	1728.49
640.22	1705.96
640.41	1812.45
640.60	1673.19
640.79	1705.96
640.98	1681.38
641.17	1771.49
641.36	1746.92
641.55	1730.53
641.74	1650.66
641.92	1611.75
642.11	1638.38
642.30	1705.96
642.49	1689.57
642.68	1660.90
642.87	1714.15
643.06	1775.59
643.25	1650.66
643.44	1628.14
643.63	1755.11
643.82	1796.07
644.00	1673.19
644.19	1679.33
644.38	1617.90
644.57	1759.21
644.76	1699.81
644.95	1658.85
645.14	1710.05
645.33	1687.53
645.52	1673.19
645.71	1638.38
645.89	1619.94
646.08	1720.29
646.27	1675.24
646.46	1806.31
646.65	1552.36
646.84	1763.30
647.03	1662.95
647.22	1742.82
647.40	1718.25
647.59	1701.86
647.78	1697.77
647.97	1650.66
648.16	1673.19
648.35	1787.88
648.54	1783.78
648.73	1669.09
648.91	1818.60
649.10	1789.92
649.29	1658.85
649.48	1714.15
649.67	1820.64
649.86	1665.00
650.05	1642.47
650.23	1822.69
650.42	1708.01
650.61	1677.29
650.80	1746.92
650.99	1832.93
651.18	1802.21
651.36	1806.31
651.55	1759.21
651.74	1771.49
651.93	1714.15
652.12	1636.33
652.31	1734.63
652.49	1699.81
652.68	1724.39
652.87	1761.25
653.06	1744.87
653.25	1826.79
653.44	1673.19
653.62	1767.40
653.81	1613.80
654.00	1714.15
654.19	1757.16
654.38	1787.88
654.56	1714.15
654.75	1720.29
654.94	1722.34
655.13	1669.09
655.32	1714.15
655.51	1783.78
655.69	1685.48
655.88	1748.97
656.07	1685.48
656.26	1820.64
656.45	1611.75
656.63	1734.63
656.82	1703.91
657.01	1798.12
657.20	1693.67
657.38	1767.40
657.57	1679.33
657.76	1660.90
657.95	1755.11
658.14	1726.44
658.32	1665.00
658.51	1718.25
658.70	1693.67
658.89	1656.81
659.08	1742.82
659.26	1826.79
659.45	1652.71
659.64	1665.00
659.83	1685.48
660.01	1890.28
660.20	1736.68
660.39	1847.27
660.58	1648.61
660.76	1767.40
660.95	1699.81
661.14	1775.59
661.33	1712.10
661.51	1648.61
661.70	1597.42
661.89	1771.49
662.08	1697.77
662.26	1660.90
662.45	1652.71
662.64	1781.73
662.83	1744.87
663.01	1583.08
663.20	1648.61
663.39	1748.97
663.58	1669.09
663.76	1708.01
663.95	1767.40
664.14	1667.05
664.32	1640.42
664.51	1679.33
664.70	1628.14
664.89	1775.59
665.07	1671.14
665.26	1757.16
665.45	1646.57
665.64	1794.02
665.82	1730.53
666.01	1742.82
666.20	1705.96
666.38	1769.44
666.57	1814.50
666.76	2289.63
666.95	4523.96
667.13	10315.62
667.32	15341.33
667.51	18192.11
667.69	19273.43
667.88	17774.32
668.07	12552.00
668.25	9592.69
668.44	8247.17
668.63	7382.93
668.81	6911.89
669.00	6399.90
669.19	5851.05
669.38	5195.70
669.56	4581.31
669.75	3973.06
669.94	3499.98
670.12	2922.45
670.31	2488.28
670.50	2250.72
670.68	2004.96
670.87	1957.86
671.06	1896.42
671.24	1812.45
671.43	1826.79
671.62	1810.40
671.80	1697.77
671.99	1736.68
672.18	1673.19
672.36	1710.05
672.55	1720.29
672.74	1732.58
672.92	1730.53
673.11	1699.81
673.29	1593.32
673.48	1789.92
673.67	1744.87
673.85	1810.40
674.04	1722.34
674.23	1732.58
674.41	1787.88
674.60	1695.72
674.79	1658.85
674.97	1710.05
675.16	1781.73
675.34	1851.36
675.53	1656.81
675.72	1763.30
675.90	1759.21
676.09	1681.38
676.28	1683.43
676.46	1652.71
676.65	1810.40
676.83	1576.94
677.02	1730.53
677.21	1755.11
677.39	1742.82
677.58	1718.25
677.77	1652.71
677.95	1714.15
678.14	1724.39
678.32	1683.43
678.51	1658.85
678.70	1818.60
678.88	1699.81
679.07	1732.58
679.25	1712.10
679.44	1632.23
679.63	1599.46
679.81	1730.53
680.00	1812.45
680.18	1755.11
680.37	1781.73
680.55	1785.83
680.74	1669.09
680.93	1665.00
681.11	1724.39
681.30	1677.29
681.48	1781.73
681.67	1685.48
681.85	1761.25
682.04	1644.52
682.23	1730.53
682.41	1691.62
682.60	1636.33
682.78	1605.61
682.97	1722.34
683.15	1675.24
683.34	1691.62
683.53	1748.97
683.71	1671.14
683.90	1828.84
684.08	1857.51
684.27	1669.09
684.45	1742.82
684.64	1730.53
684.82	1701.86
685.01	1736.68
685.19	1712.10
685.38	1791.97
685.57	1730.53
685.75	1753.06
685.94	1662.95
686.12	1724.39
686.31	1703.91
686.49	1773.54
686.68	1605.61
686.86	1783.78
687.05	1638.38
687.23	1746.92
687.42	1669.09
687.60	1607.66
687.79	1796.07
687.97	1787.88
688.16	1777.64
688.34	1812.45
688.53	1656.81
688.71	1765.35
688.90	1736.68
689.08	1654.76
689.27	1626.09
689.45	1767.40
689.64	1771.49
689.82	1732.58
690.01	1703.91
690.19	1708.01
690.38	1718.25
690.56	1771.49
690.75	1599.46
690.93	1669.09
691.12	1679.33
691.30	1646.57
691.49	1722.34
691.67	1683.43
691.86	1806.31
692.04	1685.48
692.23	1595.37
692.41	1685.48
692.60	1853.41
692.78	1773.54
692.97	1681.38
693.15	1832.93
693.34	1851.36
693.52	1818.60
693.71	1677.29
693.89	1654.76
694.08	1583.08
694.26	1746.92
694.44	1701.86
694.63	1681.38
694.81	1640.42
695.00	1640.42
695.18	1677.29
695.37	1845.22
695.55	1697.77
695.74	1697.77
695.92	1640.42
696.10	1763.30
696.29	1613.80
696.47	1697.77
696.66	1591.27
696.84	1644.52
697.03	1755.11
697.21	1757.16
697.40	2328.54
697.58	1789.92
697.76	1660.90
697.95	1699.81
698.13	1652.71
698.32	1744.87
698.50	1714.15
698.68	1693.67
698.87	1775.59
699.05	1882.08
699.24	1718.25
699.42	1673.19
699.61	1740.77
699.79	1632.23
699.97	1658.85
700.16	1685.48
700.34	1671.14
700.53	1755.11
700.71	1767.40
700.89	1753.06
701.08	1652.71
701.26	1771.49
701.45	2099.17
701.63	1624.04
701.81	1667.05
702.00	1636.33
702.18	1759.21
702.37	1640.42
702.55	1748.97
702.73	1730.53
702.92	1703.91
703.10	1808.36
703.28	1718.25
703.47	1597.42
703.65	1808.36
703.84	1755.11
704.02	1660.90
704.20	1734.63
704.39	1681.38
704.57	1677.29
704.75	1746.92
704.94	1654.76
705.12	1748.97
705.30	1714.15
705.49	2263.01
705.67	4394.94
705.86	9328.50
706.04	12605.25
706.22	14315.30
706.41	15677.20
706.59	14090.02
706.77	9717.61
706.96	7391.12
707.14	6524.83
707.32	5930.92
707.51	5650.35
707.69	4931.51
707.87	4368.32
708.06	3526.60
708.24	2895.83
708.42	2482.14
708.61	2330.59
708.79	1828.84
708.97	1908.71
709.16	1869.80
709.34	1794.02
709.52	1742.82
709.71	1665.00
709.89	1693.67
710.07	1685.48
710.26	1685.48
710.44	1787.88
710.62	1746.92
710.80	1597.42
710.99	1753.06
711.17	1818.60
711.35	1703.91
711.54	1681.38
711.72	1708.01
711.90	1771.49
712.09	1685.48
712.27	1665.00
712.45	1734.63
712.63	1679.33
712.82	1705.96
713.00	1759.21
713.18	1787.88
713.37	1679.33
713.55	1738.73
713.73	1718.25
713.91	1699.81
714.10	1689.57
714.28	1695.72
714.46	1714.15
714.65	1751.01
714.83	1689.57
715.01	1769.44
715.19	1640.42
715.38	1650.66
715.56	1691.62
715.74	1714.15
715.92	1621.99
716.11	1789.92
716.29	1603.56
716.47	1779.68
716.65	1744.87
716.84	1589.22
717.02	1712.10
717.20	1611.75
717.38	1705.96
717.57	1748.97
717.75	1714.15
717.93	1671.14
718.11	1765.35
718.30	1638.38
718.48	1697.77
718.66	1777.64
718.84	1757.16
719.03	1740.77
719.21	1695.72
719.39	1822.69
719.57	1642.47
719.75	1834.98
719.94	1638.38
720.12	1652.71
720.30	1744.87
720.48	1787.88
720.67	1718.25
720.85	1644.52
721.03	1660.90
721.21	1574.89
721.39	1773.54
721.58	1738.73
721.76	1662.95
721.94	1755.11
722.12	1689.57
722.30	1785.83
722.49	1720.29
722.67	1740.77
722.85	1710.05
723.03	1556.46
723.21	1654.76
723.40	1667.05
723.58	1728.49
723.76	1718.25
723.94	1800.16
724.12	1773.54
724.30	1796.07
724.49	1689.57
724.67	1621.99
724.85	1716.20
725.03	1675.24
725.21	1783.78
725.40	1742.82
725.58	1656.81
725.76	1800.16
725.94	1683.43
726.12	1730.53
726.30	1667.05
726.49	1691.62
726.67	1665.00
726.85	1751.01
727.03	1832.93
727.21	2172.89
727.39	2901.97
727.57	3798.98
727.76	4247.49
727.94	4573.11
728.12	4466.62
728.30	3700.68
728.48	3024.85
728.66	2721.75
728.84	2508.76
729.03	2328.54
729.21	2156.51
729.39	1998.82
729.57	1886.18
729.75	1824.74
729.93	1818.60
730.11	1656.81
730.30	1710.05
730.48	1775.59
730.66	1771.49
730.84	1820.64
731.02	1732.58
731.20	1611.75
731.38	1677.29
731.56	1689.57
731.74	1695.72
731.93	1679.33
732.11	1720.29
732.29	1675.24
732.47	1677.29
732.65	1734.63
732.83	1716.20
733.01	1740.77
733.19	1607.66
733.37	1712.10
733.56	1824.74
733.74	1701.86
733.92	1800.16
734.10	1667.05
734.28	1751.01
734.46	1648.61
734.64	1687.53
734.82	1701.86
735.00	1654.76
735.18	1740.77
735.36	1738.73
735.54	1714.15
735.73	1777.64
735.91	1712.10
736.09	1783.78
736.27	1722.34
736.45	1810.40
736.63	1652.71
736.81	1677.29
736.99	1744.87
737.17	1791.97
737.35	1732.58
737.53	1695.72
737.71	1681.38
737.89	1779.68
738.07	1730.53
738.25	1673.19
738.43	1640.42
738.61	1646.57
738.80	1615.85
738.98	1656.81
739.16	1624.04
739.34	1673.19
739.52	1824.74
739.70	1673.19
739.88	1722.34
740.06	1753.06
740.24	1585.13
740.42	1765.35
740.60	1640.42
740.78	1763.30
740.96	1662.95
741.14	1712.10
741.32	1722.34
741.50	1656.81
741.68	1869.80
741.86	1798.12
742.04	1679.33
742.22	1675.24
742.40	1763.30
742.58	1722.34
742.76	1656.81
742.94	1830.88
743.12	1658.85
743.30	1654.76
743.48	1675.24
743.66	1628.14
743.84	1763.30
744.02	1660.90
744.20	1681.38
744.38	1658.85
744.56	1703.91
744.74	1777.64
744.92	1718.25
745.10	1808.36
745.28	1732.58
745.46	1796.07
745.64	1652.71
745.82	1744.87
746.00	1687.53
746.18	1708.01
746.36	1632.23
746.54	1710.05
746.72	1705.96
746.90	1660.90
747.08	1820.64
747.26	1646.57
747.44	1779.68
747.62	1751.01
747.80	1640.42
747.98	1740.77
748.15	1695.72
748.33	1785.83
748.51	1685.48
748.69	1714.15
748.87	1615.85
749.05	1726.44
749.23	1708.01
749.41	1742.82
749.59	1636.33
749.77	1636.33
749.95	1607.66
750.13	1705.96
750.31	1705.96
750.49	1667.05
750.67	1796.07
750.85	1855.46
751.03	1753.06
751.20	1830.88
751.38	1724.39
751.56	1685.48
751.74	1773.54
751.92	1687.53
752.10	1675.24
752.28	1722.34
752.46	1687.53
752.64	1697.77
752.82	1689.57
753.00	1789.92
753.18	1728.49
753.35	1689.57
753.53	1644.52
753.71	1677.29
753.89	1781.73
754.07	1626.09
754.25	1746.92
754.43	1767.40
754.61	1609.70
754.79	1708.01
754.97	1656.81
755.14	1748.97
755.32	1685.48
755.50	1718.25
755.68	1714.15
755.86	1619.94
756.04	1689.57
756.22	1640.42
756.40	1724.39
756.57	1779.68
756.75	1712.10
756.93	1648.61
757.11	1789.92
757.29	1585.13
757.47	1617.90
757.65	1630.18
757.82	1658.85
758.00	1705.96
758.18	1755.11
758.36	1656.81
758.54	1718.25
758.72	1662.95
758.90	1755.11
759.07	1683.43
759.25	1748.97
759.43	1640.42
759.61	1644.52
759.79	2226.14
759.97	1724.39
760.15	1587.18
760.32	1724.39
760.50	1720.29
760.68	1773.54
760.86	1646.57
761.04	1736.68
761.22	1697.77
761.39	1689.57
761.57	1728.49
761.75	1732.58
761.93	1714.15
762.11	1662.95
762.28	1673.19
762.46	1617.90
762.64	1769.44
762.82	1662.95
763.00	1708.01
763.18	1787.88
763.35	1636.33
763.53	1693.67
763.71	1751.01
763.89	1757.16
764.07	1679.33
764.24	1730.53
764.42	1724.39
764.60	1734.63
764.78	1630.18
764.96	1746.92
765.13	1775.59
765.31	1703.91
765.49	1738.73
765.67	1617.90
765.84	1603.56
766.02	1636.33
766.20	1591.27
766.38	1667.05
766.56	1740.77
766.73	1748.97
766.91	1718.25
767.09	1667.05
767.27	1691.62
767.44	1656.81
767.62	1738.73
767.80	1738.73
767.98	1685.48
768.15	1744.87
768.33	1736.68
768.51	1814.50
768.69	1716.20
768.87	1624.04
769.04	1669.09
769.22	1796.07
769.40	1892.32
769.58	1943.52
769.75	1669.09
769.93	1724.39
770.11	1658.85
770.28	1650.66
770.46	1765.35
770.64	1665.00
770.82	1742.82
770.99	1712.10
771.17	1755.11
771.35	1658.85
771.53	1710.05
771.70	1675.24
771.88	1767.40
772.06	1675.24
772.23	1673.19
772.41	1669.09
772.59	1675.24
772.77	1552.36
772.94	1665.00
773.12	1714.15
773.30	1705.96
773.47	1660.90
773.65	1714.15
773.83	1847.27
774.01	1705.96
774.18	1634.28
774.36	1685.48
774.54	1683.43
774.71	1730.53
774.89	1640.42
775.07	1583.08
775.24	1681.38
775.42	1695.72
775.60	1806.31
775.78	1671.14
775.95	1656.81
776.13	1638.38
776.31	1568.74
776.48	1714.15
776.66	1769.44
776.84	1656.81
777.01	1685.48
777.19	1669.09
777.37	1667.05
777.54	1724.39
777.72	1824.74
777.90	1710.05
778.07	1732.58
778.25	1843.17
778.43	1834.98
778.60	1675.24
778.78	1697.77
778.96	1769.44
779.13	1634.28
779.31	1828.84
779.49	1714.15
779.66	1710.05
779.84	1687.53
780.01	1681.38
780.19	1607.66
780.37	1757.16
780.54	1775.59
780.72	1685.48
780.90	1746.92
781.07	1701.86
781.25	1675.24
781.43	1724.39
781.60	1687.53
781.78	1767.40
781.95	1740.77
782.13	1613.80
782.31	1683.43
782.48	1566.70
782.66	1736.68
782.83	1882.08
783.01	1734.63
783.19	1710.05
783.36	1714.15
783.54	1671.14
783.72	1794.02
783.89	1699.81
784.07	1730.53
784.24	1669.09
784.42	1853.41
784.60	1777.64
784.77	1748.97
784.95	1609.70
785.12	1638.38
785.30	1677.29
785.47	1685.48
785.65	1671.14
785.83	1554.41
786.00	1673.19
786.18	1685.48
786.35	1619.94
786.53	1636.33
786.71	1740.77
786.88	1742.82
787.06	1689.57
787.23	1667.05
787.41	1630.18
787.58	1714.15
787.76	1617.90
787.94	1691.62
788.11	1632.23
788.29	1689.57
788.46	1683.43
788.64	1642.47
788.81	1695.72
788.99	1726.44
789.16	1634.28
789.34	1642.47
789.52	1603.56
789.69	1720.29
789.87	1583.08
790.04	1701.86
790.22	1613.80
790.39	1820.64
790.57	1572.84
790.74	1656.81
790.92	1783.78
791.09	1603.56
791.27	1714.15
791.44	1759.21
791.62	1679.33
791.79	1736.68
791.97	1667.05
792.15	1859.56
792.32	1744.87
792.50	1736.68
792.67	1794.02
792.85	1800.16
793.02	1728.49
793.20	1710.05
793.37	1660.90
793.55	1630.18
793.72	1648.61
793.90	1722.34
794.07	1611.75
794.25	1689.57
794.42	1730.53
794.60	1703.91
794.77	1677.29
794.95	1718.25
795.12	1751.01
795.30	1740.77
795.47	1511.40
795.65	1939.43
795.82	1732.58
796.00	1562.60
796.17	1724.39
796.34	1656.81
796.52	1679.33
796.69	1726.44
796.87	1789.92
797.04	1595.37
797.22	1722.34
797.39	1685.48
797.57	1763.30
797.74	1687.53
797.92	1703.91
798.09	1701.86
798.27	1794.02
798.44	1777.64
798.62	1716.20
798.79	1748.97
798.96	1656.81
799.14	1669.09
799.31	1847.27
799.49	1716.20
799.66	1718.25
799.84	1734.63
800.01	1599.46
800.19	1738.73
800.36	1621.99
800.53	1716.20
800.71	1728.49
800.88	1777.64
801.06	1646.57
801.23	1652.71
801.41	1675.24
801.58	1665.00
801.75	1583.08
801.93	1679.33
802.10	1710.05
802.28	1685.48
802.45	1669.09
802.63	1783.78
802.80	1787.88
802.97	1732.58
803.15	1693.67
803.32	1705.96
803.50	1669.09
803.67	1632.23
803.84	1621.99
804.02	1669.09
804.19	1660.90
804.37	1605.61
804.54	1638.38
804.71	1759.21
804.89	1701.86
805.06	1716.20
805.24	1609.70
805.41	1642.47
805.58	1648.61
805.76	1847.27
805.93	1714.15
806.10	1832.93
806.28	1708.01
806.45	1736.68
806.63	1736.68
806.80	1689.57
806.97	1687.53
807.15	1708.01
807.32	1738.73
807.49	1755.11
807.67	1675.24
807.84	1703.91
808.01	1675.24
808.19	1771.49
808.36	1857.51
808.54	1671.14
808.71	1646.57
808.88	1710.05
809.06	1677.29
809.23	1767.40
809.40	1685.48
809.58	1771.49
809.75	1675.24
809.92	1683.43
810.10	1787.88
810.27	1697.77
810.44	1701.86
810.62	1763.30
810.79	1759.21
810.96	1660.90
811.14	1662.95
811.31	1695.72
811.48	1716.20
811.66	1714.15
811.83	1662.95
812.00	1679.33
812.18	1738.73
812.35	1810.40
812.52	1708.01
812.69	1701.86
812.87	1673.19
813.04	1624.04
813.21	1642.47
813.39	1679.33
813.56	1587.18
813.73	1837.03
813.91	1615.85
814.08	1671.14
814.25	1703.91
814.42	1585.13
814.60	1648.61
814.77	1648.61
814.94	1656.81
815.12	1789.92
815.29	1839.08
815.46	1691.62
815.63	1646.57
815.81	1675.24
815.98	1681.38
816.15	1708.01
816.33	1738.73
816.50	1708.01
816.67	1724.39
816.84	1685.48
817.02	1658.85
817.19	1679.33
817.36	1673.19
817.53	1705.96
817.71	1634.28
817.88	1789.92
818.05	1689.57
818.22	1646.57
818.40	1771.49
818.57	1703.91
818.74	1665.00
818.91	1652.71
819.09	1669.09
819.26	1779.68
819.43	1654.76
819.60	1800.16
819.78	1783.78
819.95	1787.88
820.12	1667.05
820.29	1771.49
820.47	1800.16
820.64	1695.72
820.81	1603.56
820.98	1632.23
821.15	1652.71
821.33	1796.07
821.50	1578.98
821.67	1656.81
821.84	1617.90
822.02	1734.63
822.19	1759.21
822.36	1667.05
822.53	1742.82
822.70	1568.74
822.88	1644.52
823.05	1701.86
823.22	1722.34
823.39	1738.73
823.56	1724.39
823.74	1767.40
823.91	1617.90
824.08	1667.05
824.25	1660.90
824.42	1814.50
824.60	1640.42
824.77	1796.07
824.94	1644.52
825.11	1794.02
825.28	1671.14
825.45	1710.05
825.63	1687.53
825.80	1484.78
825.97	1722.34
826.14	1691.62
826.31	1621.99
826.48	1759.21
826.66	1683.43
826.83	1689.57
827.00	1732.58
827.17	1634.28
827.34	1644.52
827.51	1665.00
827.69	1693.67
827.86	1589.22
828.03	1708.01
828.20	1730.53
828.37	1705.96
828.54	1673.19
828.71	1673.19
828.89	1767.40
829.06	1662.95
829.23	1730.53
829.40	1630.18
829.57	1597.42
829.74	1738.73
829.91	1630.18
830.09	1656.81
830.26	1718.25
830.43	1791.97
830.60	1689.57
830.77	1781.73
830.94	1740.77
831.11	1730.53
831.28	1681.38
831.46	1738.73
831.63	1697.77
831.80	1777.64
831.97	1669.09
832.14	1630.18
832.31	1757.16
832.48	1683.43
832.65	1765.35
832.82	1603.56
832.99	1742.82
833.17	1591.27
833.34	1806.31
833.51	1687.53
833.68	1574.89
833.85	1753.06
834.02	1632.23
834.19	1574.89
834.36	1601.51
834.53	1720.29
834.70	1705.96
834.87	1728.49
835.04	1785.83
835.22	1603.56
835.39	1703.91
835.56	1654.76
835.73	1751.01
835.90	1660.90
836.07	1681.38
836.24	1708.01
836.41	1695.72
836.58	1599.46
836.75	1689.57
836.92	1652.71
837.09	1714.15
837.26	1759.21
837.43	1783.78
837.60	1689.57
837.77	1689.57
837.94	1726.44
838.12	1708.01
838.29	1662.95
838.46	1652.71
838.63	1589.22
838.80	1791.97
838.97	1755.11
839.14	1732.58
839.31	1607.66
839.48	1755.11
839.65	1665.00
839.82	1808.36
839.99	1757.16
840.16	1705.96
840.33	1634.28
840.50	1710.05
840.67	1669.09
840.84	1640.42
841.01	1712.10
841.18	1703.91
841.35	1636.33
841.52	1679.33
841.69	1787.88
841.86	1718.25
842.03	1632.23
842.20	1783.78
842.37	1669.09
842.54	1646.57
842.71	1701.86
842.88	1628.14
843.05	1697.77
843.22	1673.19
843.39	1714.15
843.56	1689.57
843.73	1697.77
843.90	1675.24
844.07	1720.29
844.24	1736.68
844.41	1728.49
844.58	1650.66
844.75	1736.68
844.92	1673.19
845.09	1650.66
845.26	1632.23
845.43	1724.39
845.60	1648.61
845.77	1681.38
845.94	1763.30
846.10	1761.25
846.27	1589.22
846.44	1644.52
846.61	1585.13
846.78	1789.92
846.95	1755.11
847.12	1685.48
847.29	1658.85
847.46	1665.00
847.63	1742.82
847.80	1646.57
847.97	1724.39
848.14	1785.83
848.31	1701.86
848.48	1638.38
848.65	1755.11
848.82	1718.25
848.98	1918.95
849.15	1681.38
849.32	1798.12
849.49	1660.90
849.66	1613.80
849.83	1667.05
850.00	1646.57
850.17	1738.73
850.34	1636.33
850.51	1646.57
850.68	1695.72
850.85	1834.98
851.01	1683.43
851.18	1665.00
851.35	1671.14
851.52	1697.77
851.69	1775.59
851.86	1581.03
852.03	1705.96
852.20	1722.34
852.37	1656.81
852.53	1667.05
852.70	1673.19
852.87	1624.04
853.04	1734.63
853.21	1640.42
853.38	1640.42
853.55	1783.78
853.72	1734.63
853.89	1656.81
854.05	1675.24
854.22	1710.05
854.39	1675.24
854.56	1732.58
854.73	1783.78
854.90	1705.96
855.07	1673.19
855.23	1656.81
855.40	1685.48
855.57	1650.66
855.74	1566.70
855.91	1877.99
856.08	1705.96
856.25	1665.00
856.41	1675.24
856.58	1712.10
856.75	1710.05
856.92	1642.47
857.09	1673.19
857.26	1613.80
857.42	1656.81
857.59	1665.00
857.76	1675.24
857.93	1611.75
858.10	1783.78
858.27	1667.05
858.43	1812.45
858.60	1689.57
858.77	1581.03
858.94	1634.28
859.11	1779.68
859.27	1675.24
859.44	1683.43
859.61	1783.78
859.78	1771.49
859.95	1644.52
860.12	1681.38
860.28	1826.79
860.45	1785.83
860.62	1740.77
860.79	1705.96
860.95	1654.76
861.12	1685.48
861.29	1710.05
861.46	1593.32
861.63	1732.58
861.79	1675.24
861.96	1619.94
862.13	1667.05
862.30	1742.82
862.47	1697.77
862.63	1658.85
862.80	1757.16
862.97	1746.92
863.14	1652.71
863.30	1705.96
863.47	1642.47
863.64	1722.34
863.81	1746.92
863.97	1603.56
864.14	1757.16
864.31	1703.91
864.48	1703.91
864.65	1691.62
864.81	1800.16
864.98	1736.68
865.15	1746.92
865.32	1734.63
865.48	1781.73
865.65	1787.88
865.82	1667.05
865.98	1665.00
866.15	1783.78
866.32	1687.53
866.49	1632.23
866.65	1843.17
866.82	1734.63
866.99	1703.91
867.16	1636.33
867.32	1669.09
867.49	1714.15
867.66	1689.57
867.83	1642.47
867.99	1673.19
868.16	1665.00
868.33	1691.62
868.49	1705.96
868.66	1714.15
868.83	1841.12
868.99	1757.16
869.16	1689.57
869.33	1728.49
869.50	1742.82
869.66	1716.20
869.83	1681.38
870.00	1648.61
870.16	1683.43
870.33	1718.25
870.50	1724.39
870.66	1712.10
870.83	1830.88
871.00	1728.49
871.17	1656.81
871.33	1710.05
871.50	1669.09
871.67	1611.75
871.83	1652.71
872.00	1785.83
872.17	1667.05
872.33	1724.39
872.50	1722.34
872.67	1687.53
872.83	1673.19
873.00	1761.25
873.17	1808.36
873.33	1757.16
873.50	1746.92
873.67	1671.14
873.83	1626.09
874.00	1642.47
874.16	1779.68
874.33	1710.05
874.50	1681.38
874.66	1720.29
874.83	1693.67
875.00	1718.25
875.16	1726.44
875.33	1736.68
875.50	1656.81
875.66	1667.05
875.83	1732.58
875.99	1675.24
876.16	1640.42
876.33	1701.86
876.49	1640.42
876.66	1697.77
876.83	1699.81
876.99	1638.38
877.16	1648.61
877.32	1669.09
877.49	1636.33
877.66	1746.92
877.82	1845.22
877.99	1673.19
878.15	1705.96
878.32	1697.77
878.49	1646.57
878.65	1685.48
878.82	1779.68
878.98	1648.61
879.15	1755.11
879.32	1679.33
879.48	1705.96
879.65	1642.47
879.81	1619.94
879.98	1724.39
880.15	1609.70
880.31	1781.73
880.48	1611.75
880.64	1712.10
880.81	1761.25
880.97	1791.97
881.14	1824.74
881.31	1593.32
881.47	1785.83
881.64	1759.21
881.80	1576.94
881.97	1712.10
882.13	1753.06
882.30	1634.28
882.47	1689.57
882.63	1697.77
882.80	1656.81
882.96	1667.05
883.13	1677.29
883.29	1683.43
883.46	1759.21
883.62	1728.49
883.79	1730.53
883.95	1687.53
884.12	1714.15
884.29	1771.49
884.45	1771.49
884.62	1736.68
884.78	1705.96
884.95	1847.27
885.11	1677.29
885.28	1689.57
885.44	1703.91
885.61	1775.59
885.77	1789.92
885.94	1763.30
886.10	1710.05
886.27	1716.20
886.43	1812.45
886.60	1808.36
886.76	1654.76
886.93	1695.72
887.09	1689.57
887.26	1640.42
887.42	1710.05
887.59	1775.59
887.75	1796.07
887.92	1765.35
888.08	1822.69
888.25	1812.45
888.41	1703.91
888.58	1714.15
888.74	1648.61
888.91	1636.33
>>>>>End Processed Spectral Data<<<<<
