SpectraSuite Data File
++++++++++++++++++++++++++++++++++++
Date: Mon Jun 06 12:56:37 CEST 2016
User: root
Dark Spectrum Present: No
Reference Spectrum Present: No
Number of Sampled Component Spectra: 1
Spectrometers: USB4C02835
Integration Time (usec): 100000 (USB4C02835)
Spectra Averaged: 1 (USB4C02835)
Boxcar Smoothing: 0 (USB4C02835)
Correct for Electrical Dark: No (USB4C02835)
Strobe/Lamp Enabled: No (USB4C02835)
Correct for Detector Non-linearity: No (USB4C02835)
Correct for Stray Light: No (USB4C02835)
Number of Pixels in Processed Spectrum: 3648
>>>>>Begin Processed Spectral Data<<<<<
177.47	1523.69
177.69	1523.69
177.91	1523.69
178.13	1503.21
178.36	1517.54
178.58	1685.48
178.80	1730.53
179.02	1628.14
179.24	1640.42
179.46	1656.81
179.68	1748.97
179.90	1617.90
180.13	1675.24
180.35	1718.25
180.57	1656.81
180.79	1724.39
181.01	1650.66
181.23	1757.16
181.45	1738.73
181.67	1644.52
181.90	1710.05
182.12	1634.28
182.34	1603.56
182.56	1757.16
182.78	1687.53
183.00	1689.57
183.22	1658.85
183.44	1619.94
183.66	1804.26
183.89	1769.44
184.11	1718.25
184.33	1748.97
184.55	1783.78
184.77	1806.31
184.99	1769.44
185.21	1615.85
185.43	1800.16
185.65	1669.09
185.87	1708.01
186.10	1781.73
186.32	1837.03
186.54	1738.73
186.76	1763.30
186.98	1740.77
187.20	1724.39
187.42	1636.33
187.64	1759.21
187.86	1724.39
188.08	1732.58
188.30	1744.87
188.52	1693.67
188.75	1759.21
188.97	1806.31
189.19	1740.77
189.41	1615.85
189.63	1714.15
189.85	1617.90
190.07	1665.00
190.29	1626.09
190.51	1697.77
190.73	1560.55
190.95	1734.63
191.17	1677.29
191.39	1617.90
191.61	1638.38
191.84	1624.04
192.06	1708.01
192.28	1585.13
192.50	1882.08
192.72	1699.81
192.94	1601.51
193.16	1714.15
193.38	1712.10
193.60	1583.08
193.82	1679.33
194.04	1693.67
194.26	1710.05
194.48	1691.62
194.70	1644.52
194.92	1675.24
195.14	1689.57
195.36	1660.90
195.58	1708.01
195.80	1734.63
196.02	1683.43
196.24	1734.63
196.46	1753.06
196.69	1732.58
196.91	1855.46
197.13	1730.53
197.35	1646.57
197.57	1857.51
197.79	1683.43
198.01	1748.97
198.23	1689.57
198.45	1757.16
198.67	1673.19
198.89	1669.09
199.11	1777.64
199.33	1593.32
199.55	1540.07
199.77	1652.71
199.99	1785.83
200.21	1667.05
200.43	1648.61
200.65	1621.99
200.87	1619.94
201.09	1767.40
201.31	1652.71
201.53	1775.59
201.75	1636.33
201.97	1785.83
202.19	1742.82
202.41	1759.21
202.63	1798.12
202.85	1740.77
203.07	1714.15
203.29	1669.09
203.51	1710.05
203.73	1648.61
203.95	1812.45
204.17	1773.54
204.39	1740.77
204.61	1660.90
204.83	1619.94
205.05	1779.68
205.27	1681.38
205.49	1736.68
205.71	1744.87
205.93	1724.39
206.15	1613.80
206.37	1619.94
206.59	1710.05
206.81	1619.94
207.03	1619.94
207.25	1650.66
207.47	1738.73
207.69	1619.94
207.91	1755.11
208.13	1785.83
208.34	1720.29
208.56	1562.60
208.78	1804.26
209.00	1681.38
209.22	1628.14
209.44	1744.87
209.66	1646.57
209.88	1724.39
210.10	1716.20
210.32	1710.05
210.54	1742.82
210.76	1689.57
210.98	1722.34
211.20	1595.37
211.42	1699.81
211.64	1710.05
211.86	1744.87
212.08	1634.28
212.30	1726.44
212.52	1628.14
212.74	1755.11
212.96	1724.39
213.17	1775.59
213.39	1744.87
213.61	1775.59
213.83	1646.57
214.05	1667.05
214.27	1808.36
214.49	1640.42
214.71	1685.48
214.93	1689.57
215.15	1687.53
215.37	1714.15
215.59	1662.95
215.81	1753.06
216.03	1773.54
216.24	1734.63
216.46	1693.67
216.68	1769.44
216.90	1736.68
217.12	1804.26
217.34	1693.67
217.56	1714.15
217.78	1779.68
218.00	1730.53
218.22	1718.25
218.44	1703.91
218.66	1644.52
218.87	1828.84
219.09	1650.66
219.31	1732.58
219.53	1742.82
219.75	1638.38
219.97	1697.77
220.19	1695.72
220.41	1734.63
220.63	1832.93
220.85	1740.77
221.06	1722.34
221.28	1779.68
221.50	1789.92
221.72	1677.29
221.94	1689.57
222.16	1679.33
222.38	1656.81
222.60	1783.78
222.82	1724.39
223.03	1751.01
223.25	1601.51
223.47	1732.58
223.69	1748.97
223.91	1816.55
224.13	1630.18
224.35	1685.48
224.57	1724.39
224.78	1738.73
225.00	1589.22
225.22	1617.90
225.44	1638.38
225.66	1660.90
225.88	1769.44
226.10	1740.77
226.32	1757.16
226.53	1834.98
226.75	1683.43
226.97	1665.00
227.19	1708.01
227.41	1656.81
227.63	1560.55
227.85	1609.70
228.06	1691.62
228.28	1685.48
228.50	1806.31
228.72	1699.81
228.94	1701.86
229.16	1603.56
229.37	1636.33
229.59	1626.09
229.81	1740.77
230.03	1624.04
230.25	1611.75
230.47	1601.51
230.69	1626.09
230.90	1712.10
231.12	1603.56
231.34	1697.77
231.56	1755.11
231.78	1673.19
232.00	1718.25
232.21	1701.86
232.43	1652.71
232.65	1644.52
232.87	1648.61
233.09	1679.33
233.30	1703.91
233.52	1697.77
233.74	1757.16
233.96	1679.33
234.18	1708.01
234.40	1734.63
234.61	1802.21
234.83	1638.38
235.05	1652.71
235.27	1777.64
235.49	1679.33
235.70	1761.25
235.92	1736.68
236.14	1722.34
236.36	1816.55
236.58	1697.77
236.79	1791.97
237.01	1665.00
237.23	1732.58
237.45	1767.40
237.67	1654.76
237.88	1705.96
238.10	1853.41
238.32	1615.85
238.54	1734.63
238.76	1716.20
238.97	1628.14
239.19	1689.57
239.41	1769.44
239.63	1802.21
239.85	1714.15
240.06	1652.71
240.28	1667.05
240.50	1798.12
240.72	1744.87
240.93	1650.66
241.15	1697.77
241.37	1628.14
241.59	1775.59
241.81	1751.01
242.02	1630.18
242.24	1808.36
242.46	1787.88
242.68	1673.19
242.89	1632.23
243.11	1748.97
243.33	1673.19
243.55	1691.62
243.76	1689.57
243.98	1605.61
244.20	1673.19
244.42	1755.11
244.64	1697.77
244.85	1656.81
245.07	1665.00
245.29	1734.63
245.51	1697.77
245.72	1714.15
245.94	1769.44
246.16	1705.96
246.38	1742.82
246.59	1671.14
246.81	1673.19
247.03	1701.86
247.24	1650.66
247.46	1691.62
247.68	1746.92
247.90	1669.09
248.11	1619.94
248.33	1699.81
248.55	1701.86
248.77	1734.63
248.98	1736.68
249.20	1853.41
249.42	1712.10
249.64	1718.25
249.85	1714.15
250.07	1701.86
250.29	1845.22
250.50	1742.82
250.72	1675.24
250.94	1665.00
251.16	1785.83
251.37	1693.67
251.59	1640.42
251.81	1699.81
252.02	1785.83
252.24	1642.47
252.46	1718.25
252.68	1656.81
252.89	1683.43
253.11	1595.37
253.33	1798.12
253.54	1771.49
253.76	1587.18
253.98	1626.09
254.20	1652.71
254.41	1681.38
254.63	1599.46
254.85	1617.90
255.06	1685.48
255.28	1695.72
255.50	1722.34
255.71	1677.29
255.93	1564.65
256.15	1683.43
256.36	1714.15
256.58	1689.57
256.80	1701.86
257.02	1699.81
257.23	1722.34
257.45	1714.15
257.67	1781.73
257.88	1728.49
258.10	1697.77
258.32	1687.53
258.53	1683.43
258.75	1742.82
258.97	1660.90
259.18	1689.57
259.40	1746.92
259.62	1826.79
259.83	1824.74
260.05	1767.40
260.27	1996.77
260.48	1714.15
260.70	1636.33
260.92	1695.72
261.13	1791.97
261.35	1740.77
261.57	1787.88
261.78	1566.70
262.00	1665.00
262.22	1789.92
262.43	1646.57
262.65	1658.85
262.86	1687.53
263.08	1777.64
263.30	1718.25
263.51	1658.85
263.73	1677.29
263.95	1685.48
264.16	1693.67
264.38	1650.66
264.60	1771.49
264.81	1654.76
265.03	1800.16
265.25	1701.86
265.46	1712.10
265.68	1755.11
265.89	1812.45
266.11	1669.09
266.33	1675.24
266.54	1775.59
266.76	1744.87
266.98	1689.57
267.19	1738.73
267.41	1734.63
267.62	1693.67
267.84	1634.28
268.06	1767.40
268.27	1710.05
268.49	1740.77
268.70	1701.86
268.92	1759.21
269.14	1601.51
269.35	1583.08
269.57	1667.05
269.79	1738.73
270.00	1660.90
270.22	1802.21
270.43	1658.85
270.65	1560.55
270.87	1806.31
271.08	1740.77
271.30	1781.73
271.51	1689.57
271.73	1683.43
271.95	1794.02
272.16	1689.57
272.38	1681.38
272.59	1671.14
272.81	1748.97
273.02	1738.73
273.24	1771.49
273.46	1732.58
273.67	1656.81
273.89	1673.19
274.10	1724.39
274.32	1763.30
274.54	1679.33
274.75	1714.15
274.97	1654.76
275.18	1759.21
275.40	1718.25
275.61	1673.19
275.83	1638.38
276.05	1615.85
276.26	1671.14
276.48	1732.58
276.69	1677.29
276.91	1736.68
277.12	1759.21
277.34	1755.11
277.55	1705.96
277.77	1732.58
277.99	1689.57
278.20	1548.26
278.42	1585.13
278.63	1689.57
278.85	1628.14
279.06	1576.94
279.28	1667.05
279.49	1726.44
279.71	1701.86
279.93	1675.24
280.14	1695.72
280.36	1617.90
280.57	1736.68
280.79	1722.34
281.00	1675.24
281.22	1638.38
281.43	1820.64
281.65	1556.46
281.86	1617.90
282.08	1681.38
282.29	1810.40
282.51	1671.14
282.73	1591.27
282.94	1607.66
283.16	1658.85
283.37	1789.92
283.59	1728.49
283.80	1730.53
284.02	1669.09
284.23	1765.35
284.45	1681.38
284.66	1667.05
284.88	1695.72
285.09	1740.77
285.31	1716.20
285.52	1705.96
285.74	1548.26
285.95	1759.21
286.17	1761.25
286.38	1679.33
286.60	1685.48
286.81	1726.44
287.03	1671.14
287.24	1673.19
287.46	1730.53
287.67	1695.72
287.89	1763.30
288.10	1687.53
288.32	1734.63
288.53	1767.40
288.75	1703.91
288.96	1757.16
289.18	1630.18
289.39	1687.53
289.61	1722.34
289.82	1771.49
290.04	1791.97
290.25	1638.38
290.47	1683.43
290.68	1705.96
290.90	1757.16
291.11	1662.95
291.33	1757.16
291.54	1597.42
291.76	1722.34
291.97	1660.90
292.18	1724.39
292.40	1630.18
292.61	1642.47
292.83	1894.37
293.04	1685.48
293.26	1718.25
293.47	1677.29
293.69	1613.80
293.90	1683.43
294.12	1744.87
294.33	1771.49
294.55	1837.03
294.76	1781.73
294.97	1802.21
295.19	1877.99
295.40	1701.86
295.62	1765.35
295.83	1710.05
296.05	1630.18
296.26	1726.44
296.48	1660.90
296.69	1669.09
296.90	1742.82
297.12	1693.67
297.33	1730.53
297.55	1671.14
297.76	1759.21
297.98	1773.54
298.19	1701.86
298.41	1628.14
298.62	1708.01
298.83	1773.54
299.05	1644.52
299.26	1697.77
299.48	1697.77
299.69	1685.48
299.90	1681.38
300.12	1652.71
300.33	1734.63
300.55	1705.96
300.76	1726.44
300.98	1630.18
301.19	1732.58
301.40	1617.90
301.62	1607.66
301.83	1710.05
302.05	1634.28
302.26	1630.18
302.47	1646.57
302.69	1687.53
302.90	1712.10
303.12	1650.66
303.33	1777.64
303.54	1849.32
303.76	1658.85
303.97	1619.94
304.19	1781.73
304.40	1646.57
304.61	1724.39
304.83	1765.35
305.04	1757.16
305.26	1687.53
305.47	1644.52
305.68	1736.68
305.90	1585.13
306.11	1683.43
306.33	1691.62
306.54	1613.80
306.75	1728.49
306.97	1578.98
307.18	1654.76
307.39	1705.96
307.61	1681.38
307.82	1705.96
308.04	1705.96
308.25	1609.70
308.46	1734.63
308.68	1697.77
308.89	1767.40
309.10	1755.11
309.32	1722.34
309.53	1691.62
309.74	1728.49
309.96	1646.57
310.17	1761.25
310.39	1621.99
310.60	1679.33
310.81	1748.97
311.03	1560.55
311.24	1783.78
311.45	1683.43
311.67	1742.82
311.88	1744.87
312.09	1658.85
312.31	1632.23
312.52	1695.72
312.73	1708.01
312.95	1697.77
313.16	1697.77
313.37	1810.40
313.59	1744.87
313.80	1685.48
314.01	1804.26
314.23	1675.24
314.44	1632.23
314.65	1628.14
314.87	1705.96
315.08	1708.01
315.29	1615.85
315.51	1697.77
315.72	1624.04
315.93	1796.07
316.15	1779.68
316.36	1665.00
316.57	1767.40
316.79	1748.97
317.00	1755.11
317.21	1728.49
317.43	1578.98
317.64	1742.82
317.85	1691.62
318.07	1693.67
318.28	1753.06
318.49	1761.25
318.70	1947.62
318.92	1753.06
319.13	1837.03
319.34	1839.08
319.56	1761.25
319.77	1796.07
319.98	1810.40
320.20	1720.29
320.41	1728.49
320.62	1742.82
320.83	1624.04
321.05	1851.36
321.26	1744.87
321.47	1619.94
321.69	1722.34
321.90	1634.28
322.11	1697.77
322.32	1683.43
322.54	1767.40
322.75	1697.77
322.96	1789.92
323.18	1656.81
323.39	1640.42
323.60	1589.22
323.81	1751.01
324.03	1716.20
324.24	1769.44
324.45	1683.43
324.66	1722.34
324.88	1734.63
325.09	1789.92
325.30	1714.15
325.52	1710.05
325.73	1736.68
325.94	1654.76
326.15	1648.61
326.37	1681.38
326.58	1779.68
326.79	1687.53
327.00	1648.61
327.22	1748.97
327.43	1673.19
327.64	1669.09
327.85	1779.68
328.07	1777.64
328.28	1843.17
328.49	1660.90
328.70	1646.57
328.92	1699.81
329.13	1703.91
329.34	1746.92
329.55	1843.17
329.76	1681.38
329.98	1703.91
330.19	1734.63
330.40	1722.34
330.61	1710.05
330.83	1728.49
331.04	1722.34
331.25	1656.81
331.46	1640.42
331.68	1607.66
331.89	1769.44
332.10	1695.72
332.31	1665.00
332.52	1703.91
332.74	1761.25
332.95	1626.09
333.16	1722.34
333.37	1757.16
333.58	1662.95
333.80	1748.97
334.01	1589.22
334.22	1703.91
334.43	1726.44
334.64	1656.81
334.86	1667.05
335.07	1628.14
335.28	1736.68
335.49	1626.09
335.70	1738.73
335.92	1705.96
336.13	1896.42
336.34	1730.53
336.55	1757.16
336.76	1853.41
336.98	1574.89
337.19	1605.61
337.40	1738.73
337.61	1869.80
337.82	1683.43
338.04	1705.96
338.25	1658.85
338.46	1638.38
338.67	1685.48
338.88	1593.32
339.09	1671.14
339.31	1705.96
339.52	1689.57
339.73	1673.19
339.94	1685.48
340.15	1785.83
340.36	1665.00
340.58	1613.80
340.79	1662.95
341.00	1802.21
341.21	1576.94
341.42	1837.03
341.63	1689.57
341.85	1726.44
342.06	1687.53
342.27	1695.72
342.48	1746.92
342.69	1654.76
342.90	1720.29
343.12	1722.34
343.33	1722.34
343.54	1697.77
343.75	1865.70
343.96	1751.01
344.17	1583.08
344.38	1681.38
344.60	1593.32
344.81	1615.85
345.02	1732.58
345.23	1738.73
345.44	1751.01
345.65	1742.82
345.86	1714.15
346.07	1720.29
346.29	1708.01
346.50	1751.01
346.71	1726.44
346.92	1806.31
347.13	1869.80
347.34	1650.66
347.55	1716.20
347.76	1708.01
347.98	1550.31
348.19	1722.34
348.40	1789.92
348.61	1716.20
348.82	1775.59
349.03	1748.97
349.24	1652.71
349.45	1777.64
349.66	1570.79
349.88	1691.62
350.09	1644.52
350.30	1746.92
350.51	1701.86
350.72	1796.07
350.93	1763.30
351.14	1601.51
351.35	1708.01
351.56	1734.63
351.77	1714.15
351.99	1691.62
352.20	1824.74
352.41	1800.16
352.62	1609.70
352.83	1699.81
353.04	1757.16
353.25	1605.61
353.46	1798.12
353.67	1787.88
353.88	1613.80
354.09	1615.85
354.30	1652.71
354.52	1781.73
354.73	1763.30
354.94	1699.81
355.15	1697.77
355.36	1880.04
355.57	1675.24
355.78	1765.35
355.99	1685.48
356.20	1720.29
356.41	1736.68
356.62	1732.58
356.83	1744.87
357.04	1820.64
357.25	1628.14
357.46	1642.47
357.68	1621.99
357.89	1681.38
358.10	1683.43
358.31	1658.85
358.52	1665.00
358.73	1677.29
358.94	1665.00
359.15	1701.86
359.36	1730.53
359.57	1673.19
359.78	1697.77
359.99	1728.49
360.20	1701.86
360.41	1712.10
360.62	1714.15
360.83	1781.73
361.04	1665.00
361.25	1714.15
361.46	1828.84
361.67	1738.73
361.88	1779.68
362.09	1814.50
362.30	1703.91
362.51	1757.16
362.72	1742.82
362.93	1744.87
363.14	1714.15
363.35	1755.11
363.56	1683.43
363.78	1681.38
363.99	1757.16
364.20	1634.28
364.41	1779.68
364.62	1802.21
364.83	1679.33
365.04	1714.15
365.25	1728.49
365.46	1828.84
365.67	1693.67
365.88	1693.67
366.09	1697.77
366.30	1755.11
366.51	1746.92
366.72	1685.48
366.93	1628.14
367.14	1691.62
367.35	1765.35
367.56	1710.05
367.77	1726.44
367.98	1628.14
368.18	1708.01
368.39	1767.40
368.60	1660.90
368.81	1744.87
369.02	1728.49
369.23	1738.73
369.44	1611.75
369.65	1632.23
369.86	1656.81
370.07	1755.11
370.28	1626.09
370.49	1724.39
370.70	1660.90
370.91	1656.81
371.12	1634.28
371.33	1767.40
371.54	1699.81
371.75	1740.77
371.96	1568.74
372.17	1675.24
372.38	1744.87
372.59	1734.63
372.80	1701.86
373.01	1652.71
373.22	1689.57
373.43	1669.09
373.64	1619.94
373.85	1787.88
374.06	1800.16
374.26	1705.96
374.47	1693.67
374.68	1832.93
374.89	1644.52
375.10	1673.19
375.31	1748.97
375.52	1716.20
375.73	1685.48
375.94	1636.33
376.15	1826.79
376.36	1648.61
376.57	1701.86
376.78	1705.96
376.99	1730.53
377.20	1759.21
377.40	1611.75
377.61	1804.26
377.82	1587.18
378.03	1765.35
378.24	1662.95
378.45	1658.85
378.66	1689.57
378.87	1593.32
379.08	1607.66
379.29	1732.58
379.50	1791.97
379.71	1671.14
379.91	1763.30
380.12	1658.85
380.33	1765.35
380.54	1718.25
380.75	1705.96
380.96	1734.63
381.17	1767.40
381.38	1662.95
381.59	1820.64
381.80	1748.97
382.00	1816.55
382.21	1828.84
382.42	1830.88
382.63	1861.60
382.84	1710.05
383.05	1775.59
383.26	1832.93
383.47	1722.34
383.68	1687.53
383.88	1740.77
384.09	1658.85
384.30	1763.30
384.51	1761.25
384.72	1701.86
384.93	1601.51
385.14	1724.39
385.35	1837.03
385.55	1607.66
385.76	1742.82
385.97	1718.25
386.18	1626.09
386.39	1673.19
386.60	1669.09
386.81	1697.77
387.02	1650.66
387.22	1744.87
387.43	1789.92
387.64	1748.97
387.85	1871.84
388.06	2205.66
388.27	4362.17
388.48	6852.50
388.68	8460.16
388.89	10127.21
389.10	10010.47
389.31	8812.41
389.52	7638.92
389.73	7098.26
389.93	6467.49
390.14	5920.68
390.35	5250.99
390.56	4685.75
390.77	3844.04
390.98	3045.33
391.18	2525.15
391.39	2158.56
391.60	1816.55
391.81	1828.84
392.02	1665.00
392.23	1806.31
392.43	1716.20
392.64	1867.75
392.85	1689.57
393.06	1791.97
393.27	1665.00
393.47	1619.94
393.68	1751.01
393.89	1769.44
394.10	1701.86
394.31	1691.62
394.52	1716.20
394.72	1693.67
394.93	1794.02
395.14	1697.77
395.35	1728.49
395.56	1714.15
395.76	1816.55
395.97	1755.11
396.18	1820.64
396.39	1816.55
396.60	2002.91
396.80	1910.75
397.01	1818.60
397.22	1837.03
397.43	1765.35
397.64	1740.77
397.84	1822.69
398.05	1898.47
398.26	1761.25
398.47	1820.64
398.67	1703.91
398.88	1683.43
399.09	1691.62
399.30	1601.51
399.51	1714.15
399.71	1660.90
399.92	1691.62
400.13	1765.35
400.34	1691.62
400.54	1656.81
400.75	1777.64
400.96	1740.77
401.17	1849.32
401.37	1730.53
401.58	1675.24
401.79	1697.77
402.00	1865.70
402.21	1990.63
402.41	2050.02
402.62	2009.06
402.83	2009.06
403.04	1955.81
403.24	1937.38
403.45	1888.23
403.66	1902.56
403.87	1841.12
404.07	1855.46
404.28	1863.65
404.49	1832.93
404.70	1777.64
404.90	1804.26
405.11	1720.29
405.32	1720.29
405.52	1710.05
405.73	1716.20
405.94	1705.96
406.15	1665.00
406.35	1757.16
406.56	1771.49
406.77	1773.54
406.98	1685.48
407.18	1689.57
407.39	1800.16
407.60	1681.38
407.80	1796.07
408.01	1667.05
408.22	1761.25
408.43	1708.01
408.63	1679.33
408.84	1691.62
409.05	1771.49
409.25	1642.47
409.46	1701.86
409.67	1673.19
409.88	1636.33
410.08	1722.34
410.29	1621.99
410.50	1714.15
410.70	1714.15
410.91	1689.57
411.12	1722.34
411.32	1722.34
411.53	1624.04
411.74	1798.12
411.95	1763.30
412.15	1748.97
412.36	1751.01
412.57	1740.77
412.77	1814.50
412.98	1714.15
413.19	1718.25
413.39	1763.30
413.60	1732.58
413.81	1775.59
414.01	1658.85
414.22	1691.62
414.43	1746.92
414.63	1703.91
414.84	1726.44
415.05	1789.92
415.25	1679.33
415.46	1720.29
415.67	1658.85
415.87	1742.82
416.08	1705.96
416.29	1630.18
416.49	1728.49
416.70	1683.43
416.91	1759.21
417.11	1652.71
417.32	1695.72
417.53	1708.01
417.73	1816.55
417.94	1687.53
418.15	1748.97
418.35	1683.43
418.56	1703.91
418.77	1875.94
418.97	1703.91
419.18	1722.34
419.38	1556.46
419.59	1740.77
419.80	1785.83
420.00	1746.92
420.21	1693.67
420.42	1740.77
420.62	1787.88
420.83	1720.29
421.04	1703.91
421.24	1710.05
421.45	1767.40
421.65	1759.21
421.86	1642.47
422.07	1785.83
422.27	1724.39
422.48	1683.43
422.69	1593.32
422.89	1617.90
423.10	1609.70
423.30	1695.72
423.51	1753.06
423.72	1726.44
423.92	1763.30
424.13	1613.80
424.33	1658.85
424.54	1710.05
424.75	1693.67
424.95	1812.45
425.16	1789.92
425.36	1697.77
425.57	1771.49
425.78	1732.58
425.98	1818.60
426.19	1724.39
426.39	1646.57
426.60	1714.15
426.81	1775.59
427.01	1673.19
427.22	1669.09
427.42	1671.14
427.63	1556.46
427.83	1796.07
428.04	1779.68
428.25	1796.07
428.45	1708.01
428.66	1689.57
428.86	1681.38
429.07	1724.39
429.28	1701.86
429.48	1687.53
429.69	1652.71
429.89	1787.88
430.10	1644.52
430.30	1665.00
430.51	1771.49
430.71	1648.61
430.92	1673.19
431.13	1693.67
431.33	1757.16
431.54	1656.81
431.74	1894.37
431.95	1832.93
432.15	1576.94
432.36	1732.58
432.56	1667.05
432.77	1886.18
432.98	1867.75
433.18	1720.29
433.39	1632.23
433.59	1665.00
433.80	1800.16
434.00	1773.54
434.21	1681.38
434.41	1640.42
434.62	1820.64
434.82	1689.57
435.03	1638.38
435.23	1699.81
435.44	1591.27
435.64	1673.19
435.85	1779.68
436.06	1728.49
436.26	1697.77
436.47	1681.38
436.67	1685.48
436.88	1669.09
437.08	1748.97
437.29	1787.88
437.49	1744.87
437.70	1796.07
437.90	1736.68
438.11	1822.69
438.31	1767.40
438.52	1808.36
438.72	1873.89
438.93	1869.80
439.13	1855.46
439.34	1791.97
439.54	1744.87
439.75	1837.03
439.95	1800.16
440.16	1759.21
440.36	1820.64
440.57	1849.32
440.77	1812.45
440.98	1718.25
441.18	1812.45
441.39	1726.44
441.59	1681.38
441.80	1837.03
442.00	1697.77
442.21	1773.54
442.41	1673.19
442.62	1742.82
442.82	1609.70
443.02	1724.39
443.23	1728.49
443.43	1701.86
443.64	1812.45
443.84	1656.81
444.05	1783.78
444.25	1734.63
444.46	1703.91
444.66	1669.09
444.87	1871.84
445.07	1646.57
445.28	1757.16
445.48	1732.58
445.69	1773.54
445.89	1871.84
446.09	1738.73
446.30	2064.35
446.50	2697.17
446.71	3778.50
446.91	4411.32
447.12	4810.68
447.32	4949.94
447.53	4358.08
447.73	3983.30
447.93	3557.32
448.14	3231.69
448.34	3231.69
448.55	2983.89
448.75	2815.96
448.96	2717.65
449.16	2447.32
449.36	2404.32
449.57	2101.22
449.77	1935.33
449.98	1800.16
450.18	1820.64
450.39	1808.36
450.59	1763.30
450.79	1763.30
451.00	1677.29
451.20	1757.16
451.41	1665.00
451.61	1802.21
451.81	1693.67
452.02	1783.78
452.22	1689.57
452.43	1708.01
452.63	1646.57
452.84	1689.57
453.04	1765.35
453.24	1751.01
453.45	1703.91
453.65	1650.66
453.86	1794.02
454.06	1691.62
454.26	1730.53
454.47	1656.81
454.67	1880.04
454.87	1705.96
455.08	1763.30
455.28	1804.26
455.49	1763.30
455.69	1703.91
455.89	1906.66
456.10	1820.64
456.30	1705.96
456.51	1736.68
456.71	1798.12
456.91	1800.16
457.12	1746.92
457.32	1777.64
457.52	1708.01
457.73	1812.45
457.93	1806.31
458.14	1685.48
458.34	1646.57
458.54	1787.88
458.75	1650.66
458.95	1751.01
459.15	1714.15
459.36	1736.68
459.56	1763.30
459.76	1767.40
459.97	1724.39
460.17	1685.48
460.37	1798.12
460.58	1794.02
460.78	1787.88
460.99	1710.05
461.19	1771.49
461.39	1744.87
461.60	1738.73
461.80	1785.83
462.00	1728.49
462.21	1746.92
462.41	1677.29
462.61	1714.15
462.82	1632.23
463.02	1685.48
463.22	1726.44
463.43	1763.30
463.63	1712.10
463.83	1759.21
464.04	1767.40
464.24	1671.14
464.44	1665.00
464.64	1810.40
464.85	1761.25
465.05	1826.79
465.25	1808.36
465.46	1681.38
465.66	1787.88
465.86	1867.75
466.07	1757.16
466.27	1748.97
466.47	1636.33
466.68	1710.05
466.88	1871.84
467.08	1767.40
467.29	1736.68
467.49	1728.49
467.69	1683.43
467.89	1773.54
468.10	1665.00
468.30	1816.55
468.50	1765.35
468.71	1720.29
468.91	1671.14
469.11	1812.45
469.31	1734.63
469.52	1699.81
469.72	1789.92
469.92	1808.36
470.13	1759.21
470.33	1746.92
470.53	1822.69
470.73	2074.59
470.94	2344.92
471.14	2328.54
471.34	2578.39
471.54	2432.99
471.75	2271.20
471.95	2156.51
472.15	2074.59
472.36	2088.93
472.56	2107.36
472.76	2113.50
472.96	1998.82
473.17	2011.11
473.37	1888.23
473.57	1740.77
473.77	1806.31
473.98	1730.53
474.18	1681.38
474.38	1847.27
474.58	1714.15
474.79	1712.10
474.99	1771.49
475.19	1742.82
475.39	1701.86
475.60	1689.57
475.80	1689.57
476.00	1687.53
476.20	1703.91
476.41	1703.91
476.61	1796.07
476.81	1785.83
477.01	1687.53
477.21	1849.32
477.42	1853.41
477.62	1718.25
477.82	1822.69
478.02	1701.86
478.23	1820.64
478.43	1591.27
478.63	1714.15
478.83	1720.29
479.03	1665.00
479.24	1742.82
479.44	1802.21
479.64	1644.52
479.84	1554.41
480.04	1689.57
480.25	1802.21
480.45	1636.33
480.65	1738.73
480.85	1732.58
481.06	1701.86
481.26	1734.63
481.46	1720.29
481.66	1744.87
481.86	1660.90
482.06	1886.18
482.27	1712.10
482.47	1699.81
482.67	1724.39
482.87	1763.30
483.07	1777.64
483.28	1642.47
483.48	1632.23
483.68	1603.56
483.88	1656.81
484.08	1554.41
484.29	1595.37
484.49	1619.94
484.69	1699.81
484.89	1755.11
485.09	1781.73
485.29	1763.30
485.50	1773.54
485.70	1753.06
485.90	1757.16
486.10	1828.84
486.30	1746.92
486.50	1822.69
486.71	1689.57
486.91	1736.68
487.11	1705.96
487.31	1624.04
487.51	1720.29
487.71	1679.33
487.91	1599.46
488.12	1648.61
488.32	1591.27
488.52	1730.53
488.72	1546.22
488.92	1679.33
489.12	1783.78
489.32	1785.83
489.53	1740.77
489.73	1669.09
489.93	1847.27
490.13	1689.57
490.33	1621.99
490.53	1740.77
490.73	1814.50
490.94	1671.14
491.14	1779.68
491.34	1763.30
491.54	2195.42
491.74	2611.16
491.94	2922.45
492.14	3125.20
492.34	2996.18
492.54	2711.51
492.75	2533.34
492.95	2361.31
493.15	2344.92
493.35	2209.76
493.55	2263.01
493.75	2164.70
493.95	2168.80
494.15	2017.25
494.35	1898.47
494.56	1816.55
494.76	1730.53
494.96	1810.40
495.16	1677.29
495.36	1748.97
495.56	1671.14
495.76	1755.11
495.96	1738.73
496.16	1701.86
496.36	1810.40
496.56	1814.50
496.77	1861.60
496.97	1697.77
497.17	1767.40
497.37	1740.77
497.57	1740.77
497.77	1683.43
497.97	1705.96
498.17	1695.72
498.37	1726.44
498.57	1714.15
498.77	1726.44
498.97	1830.88
499.17	1826.79
499.38	1718.25
499.58	1771.49
499.78	1720.29
499.98	1771.49
500.18	1632.23
500.38	1722.34
500.58	1972.19
500.78	2539.48
500.98	4571.07
501.18	5842.85
501.38	6817.69
501.58	7303.06
501.78	6856.60
501.98	5631.91
502.18	5171.12
502.38	4505.53
502.58	4188.10
502.78	3905.48
502.98	3717.06
503.18	3473.36
503.38	3094.48
503.59	2904.02
503.79	2672.60
503.99	2547.67
504.19	2226.14
504.39	2263.01
504.59	2189.28
504.79	2222.05
504.99	2015.20
505.19	1865.70
505.39	1857.51
505.59	1941.47
505.79	2007.01
505.99	1863.65
506.19	1802.21
506.39	1857.51
506.59	1814.50
506.79	1765.35
506.99	1843.17
507.19	1779.68
507.39	1775.59
507.59	1714.15
507.79	1781.73
507.99	1691.62
508.19	1738.73
508.39	1736.68
508.59	1746.92
508.79	1839.08
508.99	1771.49
509.19	1744.87
509.39	1824.74
509.59	1587.18
509.79	1644.52
509.99	1732.58
510.19	1802.21
510.39	1787.88
510.59	1800.16
510.79	1681.38
510.99	1689.57
511.19	1732.58
511.39	1839.08
511.59	1787.88
511.79	1771.49
511.99	1738.73
512.19	1783.78
512.38	1742.82
512.58	1759.21
512.78	1755.11
512.98	1771.49
513.18	1708.01
513.38	1689.57
513.58	1783.78
513.78	1691.62
513.98	1769.44
514.18	1628.14
514.38	1720.29
514.58	1714.15
514.78	1665.00
514.98	1656.81
515.18	1761.25
515.38	1630.18
515.58	1900.52
515.78	1730.53
515.98	1779.68
516.18	1693.67
516.38	1677.29
516.57	1705.96
516.77	1695.72
516.97	1683.43
517.17	1646.57
517.37	1640.42
517.57	1779.68
517.77	1783.78
517.97	1769.44
518.17	1769.44
518.37	1656.81
518.57	1671.14
518.77	1726.44
518.97	1699.81
519.16	1810.40
519.36	1822.69
519.56	1693.67
519.76	1669.09
519.96	1775.59
520.16	1814.50
520.36	1667.05
520.56	1800.16
520.76	1675.24
520.96	1720.29
521.16	1806.31
521.35	1843.17
521.55	1841.12
521.75	1746.92
521.95	1681.38
522.15	1712.10
522.35	1638.38
522.55	1656.81
522.75	1808.36
522.95	1759.21
523.14	1667.05
523.34	1681.38
523.54	1679.33
523.74	1783.78
523.94	1785.83
524.14	1644.52
524.34	1722.34
524.54	1820.64
524.73	1689.57
524.93	1787.88
525.13	1701.86
525.33	1660.90
525.53	1871.84
525.73	1722.34
525.93	1697.77
526.13	1730.53
526.32	1757.16
526.52	1800.16
526.72	1820.64
526.92	1703.91
527.12	1689.57
527.32	1710.05
527.52	1705.96
527.71	1763.30
527.91	1697.77
528.11	1681.38
528.31	1665.00
528.51	1613.80
528.71	1843.17
528.90	1734.63
529.10	1798.12
529.30	1849.32
529.50	1593.32
529.70	1751.01
529.90	1777.64
530.09	1738.73
530.29	1638.38
530.49	1708.01
530.69	1853.41
530.89	1837.03
531.09	1779.68
531.28	1722.34
531.48	1851.36
531.68	1787.88
531.88	1710.05
532.08	1820.64
532.28	1734.63
532.47	1726.44
532.67	1830.88
532.87	1761.25
533.07	1751.01
533.27	1751.01
533.46	1724.39
533.66	1681.38
533.86	1730.53
534.06	1642.47
534.26	1746.92
534.45	1693.67
534.65	1730.53
534.85	1767.40
535.05	1677.29
535.25	1791.97
535.44	1640.42
535.64	1720.29
535.84	1722.34
536.04	1736.68
536.24	1693.67
536.43	1740.77
536.63	1615.85
536.83	1753.06
537.03	1779.68
537.22	1699.81
537.42	1644.52
537.62	1669.09
537.82	1685.48
538.02	1767.40
538.21	1818.60
538.41	1912.80
538.61	1736.68
538.81	1744.87
539.00	1773.54
539.20	1742.82
539.40	1699.81
539.60	1787.88
539.79	1802.21
539.99	1662.95
540.19	1714.15
540.39	1724.39
540.58	1732.58
540.78	1914.85
540.98	1785.83
541.18	1730.53
541.37	1705.96
541.57	1681.38
541.77	1724.39
541.97	1669.09
542.16	1683.43
542.36	1687.53
542.56	1718.25
542.76	1914.85
542.95	1732.58
543.15	1710.05
543.35	1798.12
543.54	1701.86
543.74	1669.09
543.94	1824.74
544.14	1724.39
544.33	1777.64
544.53	1728.49
544.73	1665.00
544.93	1697.77
545.12	1734.63
545.32	1689.57
545.52	1685.48
545.71	1693.67
545.91	1691.62
546.11	1775.59
546.30	1665.00
546.50	1656.81
546.70	1765.35
546.90	1763.30
547.09	1693.67
547.29	1753.06
547.49	1779.68
547.68	1730.53
547.88	1671.14
548.08	1812.45
548.27	2146.27
548.47	1775.59
548.67	1646.57
548.87	1771.49
549.06	1624.04
549.26	1759.21
549.46	1726.44
549.65	1689.57
549.85	1732.58
550.05	1834.98
550.24	1650.66
550.44	1685.48
550.64	1787.88
550.83	1857.51
551.03	1783.78
551.23	1783.78
551.42	1763.30
551.62	1738.73
551.82	1751.01
552.01	1744.87
552.21	1712.10
552.41	1730.53
552.60	1783.78
552.80	1748.97
553.00	1714.15
553.19	1753.06
553.39	1787.88
553.59	1642.47
553.78	1761.25
553.98	1738.73
554.17	1630.18
554.37	1699.81
554.57	1781.73
554.76	1619.94
554.96	1724.39
555.16	1738.73
555.35	1771.49
555.55	1796.07
555.75	1785.83
555.94	1824.74
556.14	1636.33
556.33	1722.34
556.53	1761.25
556.73	1738.73
556.92	1791.97
557.12	1816.55
557.32	1742.82
557.51	1851.36
557.71	1746.92
557.90	1859.56
558.10	1824.74
558.30	1722.34
558.49	1615.85
558.69	1697.77
558.88	1710.05
559.08	1732.58
559.28	1714.15
559.47	1652.71
559.67	1796.07
559.86	1820.64
560.06	1734.63
560.26	1710.05
560.45	1785.83
560.65	1708.01
560.84	1789.92
561.04	1683.43
561.24	1841.12
561.43	1652.71
561.63	1834.98
561.82	1800.16
562.02	1718.25
562.22	1728.49
562.41	1720.29
562.61	1734.63
562.80	1734.63
563.00	1873.89
563.19	1798.12
563.39	1744.87
563.59	1708.01
563.78	1736.68
563.98	1716.20
564.17	1683.43
564.37	1599.46
564.56	1724.39
564.76	1656.81
564.96	1746.92
565.15	1781.73
565.35	1832.93
565.54	1675.24
565.74	1814.50
565.93	1783.78
566.13	1791.97
566.32	1714.15
566.52	1738.73
566.71	1738.73
566.91	1755.11
567.11	1708.01
567.30	1656.81
567.50	1789.92
567.69	1687.53
567.89	1746.92
568.08	1695.72
568.28	1755.11
568.47	1685.48
568.67	1753.06
568.86	1665.00
569.06	1851.36
569.25	1777.64
569.45	1722.34
569.64	1691.62
569.84	1654.76
570.04	1759.21
570.23	1738.73
570.43	1759.21
570.62	1716.20
570.82	1810.40
571.01	1691.62
571.21	1753.06
571.40	1689.57
571.60	1791.97
571.79	1783.78
571.99	1783.78
572.18	1716.20
572.38	1751.01
572.57	1738.73
572.77	1744.87
572.96	1886.18
573.16	1787.88
573.35	1728.49
573.55	1834.98
573.74	1779.68
573.94	1740.77
574.13	1687.53
574.33	1753.06
574.52	1806.31
574.71	1746.92
574.91	1673.19
575.10	1687.53
575.30	1665.00
575.49	1632.23
575.69	1654.76
575.88	1824.74
576.08	1712.10
576.27	1781.73
576.47	1765.35
576.66	1863.65
576.86	1736.68
577.05	1683.43
577.25	1812.45
577.44	1845.22
577.64	1767.40
577.83	1671.14
578.02	1740.77
578.22	1740.77
578.41	1808.36
578.61	1751.01
578.80	1638.38
579.00	1773.54
579.19	1683.43
579.39	1759.21
579.58	1865.70
579.77	1822.69
579.97	1789.92
580.16	1794.02
580.36	1796.07
580.55	1855.46
580.75	1783.78
580.94	1804.26
581.13	1908.71
581.33	1839.08
581.52	1695.72
581.72	1800.16
581.91	1832.93
582.11	1705.96
582.30	1888.23
582.49	1751.01
582.69	1841.12
582.88	1804.26
583.08	1746.92
583.27	1820.64
583.47	1755.11
583.66	1691.62
583.85	1691.62
584.05	1763.30
584.24	1822.69
584.44	1779.68
584.63	1751.01
584.82	1832.93
585.02	1863.65
585.21	1820.64
585.41	1943.52
585.60	1816.55
585.79	1933.28
585.99	1976.29
586.18	1837.03
586.37	2123.74
586.57	3432.40
586.76	10176.36
586.96	25308.80
587.15	35497.44
587.34	41766.27
587.54	43734.37
587.73	37830.08
587.93	27356.77
588.12	22486.70
588.31	18851.55
588.51	16703.23
588.70	15632.15
588.89	14464.80
589.09	13031.23
589.28	11435.86
589.47	9695.08
589.67	8077.19
589.86	6524.83
590.06	5105.59
590.25	4179.90
590.44	3164.11
590.64	2660.31
590.83	2295.77
591.02	2074.59
591.22	2037.73
591.41	1996.77
591.60	1695.72
591.80	1929.19
591.99	1738.73
592.18	1689.57
592.38	1726.44
592.57	1746.92
592.76	1843.17
592.96	1839.08
593.15	1779.68
593.34	1853.41
593.54	1746.92
593.73	1779.68
593.92	1742.82
594.12	1751.01
594.31	1724.39
594.50	1785.83
594.70	1773.54
594.89	1861.60
595.08	1718.25
595.28	1738.73
595.47	1902.56
595.66	1738.73
595.86	1656.81
596.05	1671.14
596.24	1730.53
596.43	1804.26
596.63	1832.93
596.82	1804.26
597.01	1716.20
597.21	1783.78
597.40	1744.87
597.59	1652.71
597.79	1654.76
597.98	1753.06
598.17	1748.97
598.36	1751.01
598.56	1791.97
598.75	1621.99
598.94	1818.60
599.14	1820.64
599.33	1726.44
599.52	1751.01
599.71	1710.05
599.91	1798.12
600.10	1769.44
600.29	1759.21
600.48	1771.49
600.68	1755.11
600.87	1769.44
601.06	1665.00
601.26	1714.15
601.45	1736.68
601.64	1660.90
601.83	1789.92
602.03	1693.67
602.22	1703.91
602.41	1714.15
602.60	1845.22
602.80	1746.92
602.99	1699.81
603.18	1636.33
603.37	1718.25
603.57	1683.43
603.76	1890.28
603.95	1748.97
604.14	1708.01
604.34	1714.15
604.53	1697.77
604.72	1796.07
604.91	1763.30
605.10	1783.78
605.30	1621.99
605.49	1814.50
605.68	1783.78
605.87	1800.16
606.07	1609.70
606.26	1796.07
606.45	1703.91
606.64	1701.86
606.84	1744.87
607.03	1703.91
607.22	1810.40
607.41	1728.49
607.60	1705.96
607.80	1751.01
607.99	1738.73
608.18	1779.68
608.37	1689.57
608.56	1642.47
608.76	1820.64
608.95	1822.69
609.14	1755.11
609.33	1744.87
609.52	1804.26
609.72	1751.01
609.91	1753.06
610.10	1763.30
610.29	1763.30
610.48	1789.92
610.68	1746.92
610.87	1787.88
611.06	1783.78
611.25	1687.53
611.44	1806.31
611.63	1796.07
611.83	1746.92
612.02	1708.01
612.21	1783.78
612.40	1615.85
612.59	1683.43
612.79	1699.81
612.98	1748.97
613.17	1869.80
613.36	1724.39
613.55	1839.08
613.74	1695.72
613.93	1599.46
614.13	1816.55
614.32	1791.97
614.51	1847.27
614.70	1728.49
614.89	1642.47
615.08	1730.53
615.28	2084.83
615.47	1687.53
615.66	1732.58
615.85	1685.48
616.04	1804.26
616.23	1677.29
616.42	1783.78
616.62	1697.77
616.81	1779.68
617.00	1724.39
617.19	1810.40
617.38	1755.11
617.57	1781.73
617.76	1705.96
617.95	1714.15
618.15	1783.78
618.34	1794.02
618.53	1613.80
618.72	1726.44
618.91	1861.60
619.10	1804.26
619.29	1722.34
619.48	1796.07
619.68	1689.57
619.87	1703.91
620.06	1697.77
620.25	1791.97
620.44	1687.53
620.63	1734.63
620.82	1744.87
621.01	1744.87
621.20	1662.95
621.39	1658.85
621.59	1718.25
621.78	1808.36
621.97	1691.62
622.16	1753.06
622.35	1660.90
622.54	1787.88
622.73	1794.02
622.92	1624.04
623.11	1796.07
623.30	1710.05
623.49	1839.08
623.68	1777.64
623.88	1730.53
624.07	1662.95
624.26	1609.70
624.45	1751.01
624.64	1759.21
624.83	1675.24
625.02	1730.53
625.21	1763.30
625.40	1732.58
625.59	1845.22
625.78	1734.63
625.97	1787.88
626.16	1738.73
626.35	1757.16
626.54	1736.68
626.74	1855.46
626.93	1757.16
627.12	1697.77
627.31	1834.98
627.50	1785.83
627.69	1761.25
627.88	1669.09
628.07	1685.48
628.26	1587.18
628.45	1652.71
628.64	1683.43
628.83	1708.01
629.02	1669.09
629.21	1798.12
629.40	1767.40
629.59	1642.47
629.78	1757.16
629.97	1699.81
630.16	1699.81
630.35	1679.33
630.54	1691.62
630.73	1677.29
630.92	1740.77
631.11	1697.77
631.30	1769.44
631.49	1695.72
631.68	1701.86
631.87	1736.68
632.06	1626.09
632.25	1869.80
632.44	1662.95
632.63	1722.34
632.82	1673.19
633.01	1654.76
633.20	1705.96
633.39	1716.20
633.58	1685.48
633.77	1673.19
633.96	1679.33
634.15	1648.61
634.34	1728.49
634.53	1736.68
634.72	1599.46
634.91	1609.70
635.10	1720.29
635.29	1814.50
635.48	1681.38
635.67	1677.29
635.86	1654.76
636.05	1777.64
636.24	1841.12
636.43	1755.11
636.62	1753.06
636.81	1533.93
637.00	1722.34
637.19	1751.01
637.38	1677.29
637.57	1677.29
637.76	1648.61
637.95	1710.05
638.14	1683.43
638.33	1714.15
638.52	1718.25
638.71	1685.48
638.89	1624.04
639.08	1888.23
639.27	1789.92
639.46	1677.29
639.65	1798.12
639.84	1753.06
640.03	1742.82
640.22	1693.67
640.41	1806.31
640.60	1613.80
640.79	1806.31
640.98	1697.77
641.17	1767.40
641.36	1728.49
641.55	1736.68
641.74	1665.00
641.92	1695.72
642.11	1603.56
642.30	1697.77
642.49	1568.74
642.68	1757.16
642.87	1679.33
643.06	1785.83
643.25	1656.81
643.44	1656.81
643.63	1695.72
643.82	1824.74
644.00	1697.77
644.19	1681.38
644.38	1640.42
644.57	1759.21
644.76	1693.67
644.95	1689.57
645.14	1708.01
645.33	1701.86
645.52	1689.57
645.71	1601.51
645.89	1632.23
646.08	1716.20
646.27	1779.68
646.46	1865.70
646.65	1687.53
646.84	1708.01
647.03	1748.97
647.22	1673.19
647.40	1728.49
647.59	1755.11
647.78	1665.00
647.97	1683.43
648.16	1662.95
648.35	1931.23
648.54	1744.87
648.73	1642.47
648.91	1716.20
649.10	1802.21
649.29	1712.10
649.48	1660.90
649.67	1685.48
649.86	1802.21
650.05	1689.57
650.23	1718.25
650.42	1644.52
650.61	1757.16
650.80	1654.76
650.99	1820.64
651.18	1796.07
651.36	1761.25
651.55	1744.87
651.74	1769.44
651.93	1701.86
652.12	1660.90
652.31	1662.95
652.49	1796.07
652.68	1644.52
652.87	1732.58
653.06	1746.92
653.25	1798.12
653.44	1656.81
653.62	1832.93
653.81	1695.72
654.00	1679.33
654.19	1783.78
654.38	1787.88
654.56	1708.01
654.75	1734.63
654.94	1765.35
655.13	1789.92
655.32	1730.53
655.51	1738.73
655.69	1667.05
655.88	1718.25
656.07	1634.28
656.26	1675.24
656.45	1611.75
656.63	1642.47
656.82	1796.07
657.01	1751.01
657.20	1716.20
657.38	1765.35
657.57	1716.20
657.76	1671.14
657.95	1789.92
658.14	1748.97
658.32	1697.77
658.51	1632.23
658.70	1675.24
658.89	1708.01
659.08	1804.26
659.26	1804.26
659.45	1615.85
659.64	1675.24
659.83	1640.42
660.01	1849.32
660.20	1769.44
660.39	1841.12
660.58	1677.29
660.76	1759.21
660.95	1667.05
661.14	1738.73
661.33	1779.68
661.51	1658.85
661.70	1652.71
661.89	1769.44
662.08	1693.67
662.26	1599.46
662.45	1726.44
662.64	1808.36
662.83	1767.40
663.01	1724.39
663.20	1693.67
663.39	1820.64
663.58	1675.24
663.76	1773.54
663.95	1783.78
664.14	1691.62
664.32	1679.33
664.51	1665.00
664.70	1712.10
664.89	1787.88
665.07	1650.66
665.26	1722.34
665.45	1671.14
665.64	1734.63
665.82	1701.86
666.01	1734.63
666.20	1660.90
666.38	1837.03
666.57	1824.74
666.76	2230.24
666.95	4589.50
667.13	10610.53
667.32	15841.04
667.51	18462.44
667.69	19769.04
667.88	18370.28
668.07	12672.83
668.25	9983.85
668.44	8202.11
668.63	7761.80
668.81	6967.19
669.00	6332.32
669.19	5855.14
669.38	5277.62
669.56	4673.46
669.75	4116.42
669.94	3428.30
670.12	2899.92
670.31	2445.27
670.50	2271.20
670.68	2041.82
670.87	1925.09
671.06	1789.92
671.24	1701.86
671.43	1834.98
671.62	1824.74
671.80	1722.34
671.99	1714.15
672.18	1773.54
672.36	1785.83
672.55	1728.49
672.74	1800.16
672.92	1740.77
673.11	1783.78
673.29	1607.66
673.48	1648.61
673.67	1689.57
673.85	1740.77
674.04	1712.10
674.23	1798.12
674.41	1777.64
674.60	1693.67
674.79	1591.27
674.97	1699.81
675.16	1746.92
675.34	1744.87
675.53	1734.63
675.72	1787.88
675.90	1859.56
676.09	1722.34
676.28	1697.77
676.46	1636.33
676.65	1732.58
676.83	1675.24
677.02	1687.53
677.21	1787.88
677.39	1755.11
677.58	1644.52
677.77	1683.43
677.95	1603.56
678.14	1683.43
678.32	1689.57
678.51	1566.70
678.70	1814.50
678.88	1720.29
679.07	1732.58
679.25	1689.57
679.44	1757.16
679.63	1689.57
679.81	1740.77
680.00	1753.06
680.18	1714.15
680.37	1757.16
680.55	1728.49
680.74	1630.18
680.93	1630.18
681.11	1697.77
681.30	1710.05
681.48	1714.15
681.67	1722.34
681.85	1667.05
682.04	1665.00
682.23	1761.25
682.41	1765.35
682.60	1708.01
682.78	1722.34
682.97	1607.66
683.15	1734.63
683.34	1660.90
683.53	1744.87
683.71	1589.22
683.90	1804.26
684.08	1771.49
684.27	1673.19
684.45	1718.25
684.64	1785.83
684.82	1681.38
685.01	1708.01
685.19	1650.66
685.38	1802.21
685.57	1718.25
685.75	1609.70
685.94	1693.67
686.12	1595.37
686.31	1665.00
686.49	1832.93
686.68	1542.12
686.86	1675.24
687.05	1687.53
687.23	1769.44
687.42	1662.95
687.60	1701.86
687.79	1779.68
687.97	1763.30
688.16	1742.82
688.34	1775.59
688.53	1560.55
688.71	1744.87
688.90	1726.44
689.08	1753.06
689.27	1617.90
689.45	1673.19
689.64	1763.30
689.82	1701.86
690.01	1748.97
690.19	1665.00
690.38	1681.38
690.56	1855.46
690.75	1632.23
690.93	1685.48
691.12	1689.57
691.30	1628.14
691.49	1693.67
691.67	1720.29
691.86	1849.32
692.04	1681.38
692.23	1714.15
692.41	1708.01
692.60	1849.32
692.78	1755.11
692.97	1652.71
693.15	1736.68
693.34	1791.97
693.52	1703.91
693.71	1624.04
693.89	1669.09
694.08	1681.38
694.26	1822.69
694.44	1738.73
694.63	1681.38
694.81	1634.28
695.00	1634.28
695.18	1767.40
695.37	1851.36
695.55	1710.05
695.74	1642.47
695.92	1685.48
696.10	1771.49
696.29	1679.33
696.47	1705.96
696.66	1585.13
696.84	1728.49
697.03	1683.43
697.21	1796.07
697.40	2336.73
697.58	1779.68
697.76	1691.62
697.95	1669.09
698.13	1669.09
698.32	1722.34
698.50	1703.91
698.68	1757.16
698.87	1779.68
699.05	1834.98
699.24	1720.29
699.42	1687.53
699.61	1716.20
699.79	1730.53
699.97	1736.68
700.16	1681.38
700.34	1675.24
700.53	1802.21
700.71	1814.50
700.89	1730.53
701.08	1718.25
701.26	1730.53
701.45	2076.64
701.63	1636.33
701.81	1695.72
702.00	1708.01
702.18	1748.97
702.37	1708.01
702.55	1658.85
702.73	1697.77
702.92	1693.67
703.10	1804.26
703.28	1783.78
703.47	1734.63
703.65	1855.46
703.84	1800.16
704.02	1699.81
704.20	1753.06
704.39	1617.90
704.57	1646.57
704.75	1630.18
704.94	1818.60
705.12	1763.30
705.30	1777.64
705.49	2258.91
705.67	4542.39
705.86	10010.47
706.04	13117.24
706.22	14946.08
706.41	15804.17
706.59	14339.88
706.77	10055.53
706.96	7581.58
707.14	6653.85
707.32	6125.47
707.51	5621.67
707.69	4980.66
707.87	4376.51
708.06	3557.32
708.24	2873.30
708.42	2369.50
708.61	2281.44
708.79	1853.41
708.97	1861.60
709.16	1800.16
709.34	1710.05
709.52	1689.57
709.71	1773.54
709.89	1791.97
710.07	1710.05
710.26	1722.34
710.44	1751.01
710.62	1787.88
710.80	1730.53
710.99	1781.73
711.17	1820.64
711.35	1742.82
711.54	1718.25
711.72	1787.88
711.90	1744.87
712.09	1677.29
712.27	1714.15
712.45	1673.19
712.63	1624.04
712.82	1691.62
713.00	1720.29
713.18	1763.30
713.37	1699.81
713.55	1820.64
713.73	1701.86
713.91	1746.92
714.10	1687.53
714.28	1724.39
714.46	1767.40
714.65	1726.44
714.83	1740.77
715.01	1673.19
715.19	1673.19
715.38	1638.38
715.56	1656.81
715.74	1642.47
715.92	1669.09
716.11	1834.98
716.29	1578.98
716.47	1710.05
716.65	1681.38
716.84	1593.32
717.02	1812.45
717.20	1642.47
717.38	1691.62
717.57	1734.63
717.75	1714.15
717.93	1652.71
718.11	1660.90
718.30	1603.56
718.48	1722.34
718.66	1757.16
718.84	1757.16
719.03	1685.48
719.21	1650.66
719.39	1841.12
719.57	1726.44
719.75	1685.48
719.94	1654.76
720.12	1693.67
720.30	1753.06
720.48	1757.16
720.67	1701.86
720.85	1656.81
721.03	1736.68
721.21	1658.85
721.39	1773.54
721.58	1712.10
721.76	1751.01
721.94	1726.44
722.12	1699.81
722.30	1814.50
722.49	1656.81
722.67	1767.40
722.85	1697.77
723.03	1628.14
723.21	1621.99
723.40	1746.92
723.58	1722.34
723.76	1769.44
723.94	1722.34
724.12	1720.29
724.30	1755.11
724.49	1697.77
724.67	1654.76
724.85	1824.74
725.03	1630.18
725.21	1759.21
725.40	1777.64
725.58	1642.47
725.76	1779.68
725.94	1794.02
726.12	1646.57
726.30	1699.81
726.49	1718.25
726.67	1701.86
726.85	1705.96
727.03	1814.50
727.21	2144.22
727.39	3000.27
727.57	3758.02
727.76	4237.25
727.94	4548.54
728.12	4429.76
728.30	3717.06
728.48	2928.60
728.66	2697.17
728.84	2537.43
729.03	2303.96
729.21	2060.26
729.39	1976.29
729.57	1816.55
729.75	1857.51
729.93	1900.52
730.11	1730.53
730.30	1677.29
730.48	1757.16
730.66	1796.07
730.84	1722.34
731.02	1740.77
731.20	1710.05
731.38	1632.23
731.56	1628.14
731.74	1712.10
731.93	1705.96
732.11	1683.43
732.29	1667.05
732.47	1726.44
732.65	1695.72
732.83	1886.18
733.01	1681.38
733.19	1683.43
733.37	1804.26
733.56	1724.39
733.74	1697.77
733.92	1765.35
734.10	1673.19
734.28	1697.77
734.46	1636.33
734.64	1693.67
734.82	1650.66
735.00	1708.01
735.18	1632.23
735.36	1738.73
735.54	1724.39
735.73	1712.10
735.91	1726.44
736.09	1660.90
736.27	1632.23
736.45	1843.17
736.63	1554.41
736.81	1685.48
736.99	1855.46
737.17	1810.40
737.35	1673.19
737.53	1773.54
737.71	1693.67
737.89	1814.50
738.07	1669.09
738.25	1667.05
738.43	1718.25
738.61	1656.81
738.80	1646.57
738.98	1597.42
739.16	1667.05
739.34	1591.27
739.52	1767.40
739.70	1683.43
739.88	1738.73
740.06	1796.07
740.24	1695.72
740.42	1800.16
740.60	1609.70
740.78	1701.86
740.96	1652.71
741.14	1701.86
741.32	1687.53
741.50	1667.05
741.68	1806.31
741.86	1841.12
742.04	1621.99
742.22	1587.18
742.40	1695.72
742.58	1734.63
742.76	1660.90
742.94	1730.53
743.12	1599.46
743.30	1769.44
743.48	1683.43
743.66	1705.96
743.84	1681.38
744.02	1630.18
744.20	1777.64
744.38	1605.61
744.56	1710.05
744.74	1834.98
744.92	1738.73
745.10	1773.54
745.28	1746.92
745.46	1769.44
745.64	1710.05
745.82	1718.25
746.00	1773.54
746.18	1724.39
746.36	1710.05
746.54	1705.96
746.72	1777.64
746.90	1599.46
747.08	1755.11
747.26	1671.14
747.44	1810.40
747.62	1738.73
747.80	1789.92
747.98	1800.16
748.15	1730.53
748.33	1804.26
748.51	1730.53
748.69	1820.64
748.87	1681.38
749.05	1736.68
749.23	1646.57
749.41	1777.64
749.59	1697.77
749.77	1738.73
749.95	1744.87
750.13	1712.10
750.31	1746.92
750.49	1710.05
750.67	1769.44
750.85	1759.21
751.03	1718.25
751.20	1851.36
751.38	1615.85
751.56	1693.67
751.74	1675.24
751.92	1685.48
752.10	1675.24
752.28	1732.58
752.46	1781.73
752.64	1736.68
752.82	1769.44
753.00	1761.25
753.18	1650.66
753.35	1740.77
753.53	1722.34
753.71	1675.24
753.89	1767.40
754.07	1609.70
754.25	1656.81
754.43	1705.96
754.61	1650.66
754.79	1730.53
754.97	1730.53
755.14	1808.36
755.32	1581.03
755.50	1710.05
755.68	1658.85
755.86	1621.99
756.04	1687.53
756.22	1638.38
756.40	1757.16
756.57	1812.45
756.75	1673.19
756.93	1777.64
757.11	1740.77
757.29	1581.03
757.47	1636.33
757.65	1613.80
757.82	1587.18
758.00	1656.81
758.18	1681.38
758.36	1656.81
758.54	1812.45
758.72	1609.70
758.90	1800.16
759.07	1740.77
759.25	1621.99
759.43	1710.05
759.61	1656.81
759.79	2220.00
759.97	1662.95
760.15	1710.05
760.32	1722.34
760.50	1652.71
760.68	1734.63
760.86	1611.75
761.04	1794.02
761.22	1781.73
761.39	1669.09
761.57	1722.34
761.75	1599.46
761.93	1748.97
762.11	1617.90
762.28	1759.21
762.46	1714.15
762.64	1781.73
762.82	1581.03
763.00	1648.61
763.18	1740.77
763.35	1595.37
763.53	1777.64
763.71	1646.57
763.89	1759.21
764.07	1652.71
764.24	1708.01
764.42	1740.77
764.60	1714.15
764.78	1697.77
764.96	1755.11
765.13	1726.44
765.31	1683.43
765.49	1796.07
765.67	1675.24
765.84	1621.99
766.02	1720.29
766.20	1667.05
766.38	1746.92
766.56	1619.94
766.73	1693.67
766.91	1701.86
767.09	1658.85
767.27	1740.77
767.44	1632.23
767.62	1748.97
767.80	1703.91
767.98	1644.52
768.15	1681.38
768.33	1671.14
768.51	1845.22
768.69	1658.85
768.87	1738.73
769.04	1748.97
769.22	1794.02
769.40	1791.97
769.58	1861.60
769.75	1744.87
769.93	1738.73
770.11	1679.33
770.28	1665.00
770.46	1763.30
770.64	1677.29
770.82	1748.97
770.99	1683.43
771.17	1738.73
771.35	1658.85
771.53	1734.63
771.70	1669.09
771.88	1748.97
772.06	1679.33
772.23	1722.34
772.41	1667.05
772.59	1538.02
772.77	1564.65
772.94	1726.44
773.12	1751.01
773.30	1626.09
773.47	1785.83
773.65	1695.72
773.83	1791.97
774.01	1761.25
774.18	1687.53
774.36	1667.05
774.54	1587.18
774.71	1771.49
774.89	1705.96
775.07	1605.61
775.24	1667.05
775.42	1634.28
775.60	1765.35
775.78	1728.49
775.95	1603.56
776.13	1679.33
776.31	1611.75
776.48	1710.05
776.66	1818.60
776.84	1626.09
777.01	1710.05
777.19	1609.70
777.37	1675.24
777.54	1763.30
777.72	1818.60
777.90	1656.81
778.07	1613.80
778.25	1857.51
778.43	1738.73
778.60	1656.81
778.78	1736.68
778.96	1650.66
779.13	1667.05
779.31	1720.29
779.49	1642.47
779.66	1679.33
779.84	1718.25
780.01	1722.34
780.19	1673.19
780.37	1767.40
780.54	1691.62
780.72	1611.75
780.90	1783.78
781.07	1665.00
781.25	1689.57
781.43	1703.91
781.60	1665.00
781.78	1734.63
781.95	1738.73
782.13	1685.48
782.31	1740.77
782.48	1615.85
782.66	1705.96
782.83	1798.12
783.01	1697.77
783.19	1710.05
783.36	1671.14
783.54	1671.14
783.72	1648.61
783.89	1689.57
784.07	1720.29
784.24	1687.53
784.42	1800.16
784.60	1687.53
784.77	1783.78
784.95	1611.75
785.12	1720.29
785.30	1660.90
785.47	1716.20
785.65	1644.52
785.83	1708.01
786.00	1638.38
786.18	1744.87
786.35	1628.14
786.53	1701.86
786.71	1765.35
786.88	1753.06
787.06	1714.15
787.23	1718.25
787.41	1630.18
787.58	1732.58
787.76	1718.25
787.94	1697.77
788.11	1742.82
788.29	1722.34
788.46	1695.72
788.64	1585.13
788.81	1697.77
788.99	1578.98
789.16	1701.86
789.34	1689.57
789.52	1718.25
789.69	1632.23
789.87	1587.18
790.04	1673.19
790.22	1746.92
790.39	1744.87
790.57	1726.44
790.74	1587.18
790.92	1724.39
791.09	1591.27
791.27	1636.33
791.44	1740.77
791.62	1746.92
791.79	1679.33
791.97	1662.95
792.15	1906.66
792.32	1796.07
792.50	1679.33
792.67	1761.25
792.85	1828.84
793.02	1773.54
793.20	1673.19
793.37	1589.22
793.55	1652.71
793.72	1619.94
793.90	1746.92
794.07	1636.33
794.25	1697.77
794.42	1697.77
794.60	1675.24
794.77	1789.92
794.95	1771.49
795.12	1710.05
795.30	1658.85
795.47	1648.61
795.65	1886.18
795.82	1697.77
796.00	1656.81
796.17	1619.94
796.34	1683.43
796.52	1701.86
796.69	1798.12
796.87	1783.78
797.04	1728.49
797.22	1789.92
797.39	1712.10
797.57	1787.88
797.74	1669.09
797.92	1677.29
798.09	1660.90
798.27	1847.27
798.44	1781.73
798.62	1640.42
798.79	1732.58
798.96	1732.58
799.14	1699.81
799.31	1916.90
799.49	1720.29
799.66	1726.44
799.84	1718.25
800.01	1673.19
800.19	1748.97
800.36	1712.10
800.53	1695.72
800.71	1748.97
800.88	1738.73
801.06	1730.53
801.23	1648.61
801.41	1722.34
801.58	1699.81
801.75	1621.99
801.93	1775.59
802.10	1728.49
802.28	1656.81
802.45	1681.38
802.63	1710.05
802.80	1767.40
802.97	1685.48
803.15	1724.39
803.32	1716.20
803.50	1628.14
803.67	1673.19
803.84	1628.14
804.02	1708.01
804.19	1708.01
804.37	1611.75
804.54	1650.66
804.71	1675.24
804.89	1671.14
805.06	1658.85
805.24	1638.38
805.41	1632.23
805.58	1658.85
805.76	1775.59
805.93	1667.05
806.10	1763.30
806.28	1755.11
806.45	1714.15
806.63	1753.06
806.80	1738.73
806.97	1644.52
807.15	1617.90
807.32	1771.49
807.49	1718.25
807.67	1703.91
807.84	1755.11
808.01	1650.66
808.19	1779.68
808.36	1787.88
808.54	1632.23
808.71	1681.38
808.88	1697.77
809.06	1691.62
809.23	1820.64
809.40	1693.67
809.58	1767.40
809.75	1705.96
809.92	1634.28
810.10	1783.78
810.27	1646.57
810.44	1695.72
810.62	1718.25
810.79	1683.43
810.96	1632.23
811.14	1691.62
811.31	1652.71
811.48	1734.63
811.66	1746.92
811.83	1734.63
812.00	1699.81
812.18	1705.96
812.35	1796.07
812.52	1662.95
812.69	1724.39
812.87	1710.05
813.04	1667.05
813.21	1683.43
813.39	1708.01
813.56	1636.33
813.73	1765.35
813.91	1662.95
814.08	1695.72
814.25	1697.77
814.42	1611.75
814.60	1626.09
814.77	1744.87
814.94	1677.29
815.12	1677.29
815.29	1771.49
815.46	1595.37
815.63	1765.35
815.81	1669.09
815.98	1656.81
816.15	1701.86
816.33	1755.11
816.50	1687.53
816.67	1703.91
816.84	1708.01
817.02	1572.84
817.19	1681.38
817.36	1716.20
817.53	1683.43
817.71	1654.76
817.88	1712.10
818.05	1654.76
818.22	1644.52
818.40	1734.63
818.57	1648.61
818.74	1710.05
818.91	1751.01
819.09	1822.69
819.26	1712.10
819.43	1646.57
819.60	1658.85
819.78	1714.15
819.95	1703.91
820.12	1607.66
820.29	1763.30
820.47	1781.73
820.64	1617.90
820.81	1562.60
820.98	1742.82
821.15	1679.33
821.33	1796.07
821.50	1572.84
821.67	1648.61
821.84	1660.90
822.02	1746.92
822.19	1732.58
822.36	1591.27
822.53	1648.61
822.70	1658.85
822.88	1683.43
823.05	1837.03
823.22	1691.62
823.39	1675.24
823.56	1697.77
823.74	1791.97
823.91	1675.24
824.08	1652.71
824.25	1607.66
824.42	1773.54
824.60	1648.61
824.77	1751.01
824.94	1654.76
825.11	1701.86
825.28	1685.48
825.45	1730.53
825.63	1714.15
825.80	1624.04
825.97	1683.43
826.14	1726.44
826.31	1669.09
826.48	1705.96
826.66	1677.29
826.83	1636.33
827.00	1736.68
827.17	1621.99
827.34	1722.34
827.51	1652.71
827.69	1697.77
827.86	1593.32
828.03	1748.97
828.20	1642.47
828.37	1599.46
828.54	1710.05
828.71	1710.05
828.89	1818.60
829.06	1722.34
829.23	1804.26
829.40	1724.39
829.57	1646.57
829.74	1701.86
829.91	1613.80
830.09	1617.90
830.26	1757.16
830.43	1783.78
830.60	1724.39
830.77	1781.73
830.94	1779.68
831.11	1734.63
831.28	1662.95
831.46	1828.84
831.63	1624.04
831.80	1726.44
831.97	1662.95
832.14	1650.66
832.31	1730.53
832.48	1681.38
832.65	1779.68
832.82	1585.13
832.99	1742.82
833.17	1650.66
833.34	1740.77
833.51	1755.11
833.68	1583.08
833.85	1658.85
834.02	1611.75
834.19	1642.47
834.36	1638.38
834.53	1679.33
834.70	1763.30
834.87	1722.34
835.04	1675.24
835.22	1691.62
835.39	1650.66
835.56	1589.22
835.73	1648.61
835.90	1681.38
836.07	1650.66
836.24	1718.25
836.41	1621.99
836.58	1757.16
836.75	1708.01
836.92	1740.77
837.09	1757.16
837.26	1746.92
837.43	1646.57
837.60	1746.92
837.77	1685.48
837.94	1757.16
838.12	1724.39
838.29	1699.81
838.46	1617.90
838.63	1699.81
838.80	1665.00
838.97	1718.25
839.14	1746.92
839.31	1738.73
839.48	1714.15
839.65	1738.73
839.82	1730.53
839.99	1714.15
840.16	1732.58
840.33	1646.57
840.50	1732.58
840.67	1697.77
840.84	1599.46
841.01	1617.90
841.18	1591.27
841.35	1689.57
841.52	1765.35
841.69	1834.98
841.86	1646.57
842.03	1681.38
842.20	1681.38
842.37	1693.67
842.54	1679.33
842.71	1712.10
842.88	1585.13
843.05	1759.21
843.22	1673.19
843.39	1746.92
843.56	1640.42
843.73	1685.48
843.90	1683.43
844.07	1677.29
844.24	1732.58
844.41	1738.73
844.58	1728.49
844.75	1779.68
844.92	1687.53
845.09	1744.87
845.26	1609.70
845.43	1724.39
845.60	1687.53
845.77	1812.45
845.94	1710.05
846.10	1718.25
846.27	1593.32
846.44	1640.42
846.61	1685.48
846.78	1691.62
846.95	1796.07
847.12	1730.53
847.29	1740.77
847.46	1605.61
847.63	1742.82
847.80	1650.66
847.97	1689.57
848.14	1781.73
848.31	1673.19
848.48	1685.48
848.65	1746.92
848.82	1673.19
848.98	1820.64
849.15	1726.44
849.32	1804.26
849.49	1748.97
849.66	1689.57
849.83	1736.68
850.00	1570.79
850.17	1691.62
850.34	1656.81
850.51	1691.62
850.68	1665.00
850.85	1753.06
851.01	1693.67
851.18	1701.86
851.35	1736.68
851.52	1714.15
851.69	1785.83
851.86	1624.04
852.03	1695.72
852.20	1787.88
852.37	1705.96
852.53	1660.90
852.70	1779.68
852.87	1679.33
853.04	1673.19
853.21	1757.16
853.38	1714.15
853.55	1732.58
853.72	1787.88
853.89	1673.19
854.05	1652.71
854.22	1710.05
854.39	1652.71
854.56	1691.62
854.73	1765.35
854.90	1624.04
855.07	1636.33
855.23	1667.05
855.40	1669.09
855.57	1724.39
855.74	1581.03
855.91	1890.28
856.08	1644.52
856.25	1716.20
856.41	1722.34
856.58	1681.38
856.75	1720.29
856.92	1677.29
857.09	1689.57
857.26	1632.23
857.42	1722.34
857.59	1705.96
857.76	1734.63
857.93	1720.29
858.10	1665.00
858.27	1648.61
858.43	1689.57
858.60	1660.90
858.77	1570.79
858.94	1689.57
859.11	1746.92
859.27	1701.86
859.44	1648.61
859.61	1804.26
859.78	1730.53
859.95	1675.24
860.12	1687.53
860.28	1847.27
860.45	1849.32
860.62	1722.34
860.79	1777.64
860.95	1660.90
861.12	1697.77
861.29	1685.48
861.46	1626.09
861.63	1654.76
861.79	1673.19
861.96	1665.00
862.13	1656.81
862.30	1746.92
862.47	1691.62
862.63	1636.33
862.80	1740.77
862.97	1753.06
863.14	1701.86
863.30	1726.44
863.47	1611.75
863.64	1742.82
863.81	1679.33
863.97	1665.00
864.14	1753.06
864.31	1665.00
864.48	1757.16
864.65	1681.38
864.81	1765.35
864.98	1710.05
865.15	1781.73
865.32	1800.16
865.48	1771.49
865.65	1773.54
865.82	1744.87
865.98	1683.43
866.15	1796.07
866.32	1730.53
866.49	1630.18
866.65	1841.12
866.82	1673.19
866.99	1693.67
867.16	1701.86
867.32	1654.76
867.49	1658.85
867.66	1595.37
867.83	1722.34
867.99	1650.66
868.16	1648.61
868.33	1650.66
868.49	1773.54
868.66	1675.24
868.83	1705.96
868.99	1679.33
869.16	1769.44
869.33	1761.25
869.50	1746.92
869.66	1759.21
869.83	1714.15
870.00	1714.15
870.16	1691.62
870.33	1605.61
870.50	1685.48
870.66	1665.00
870.83	1843.17
871.00	1673.19
871.17	1775.59
871.33	1697.77
871.50	1693.67
871.67	1691.62
871.83	1683.43
872.00	1834.98
872.17	1699.81
872.33	1781.73
872.50	1841.12
872.67	1716.20
872.83	1716.20
873.00	1769.44
873.17	1703.91
873.33	1726.44
873.50	1712.10
873.67	1660.90
873.83	1626.09
874.00	1667.05
874.16	1814.50
874.33	1669.09
874.50	1607.66
874.66	1730.53
874.83	1667.05
875.00	1705.96
875.16	1761.25
875.33	1699.81
875.50	1583.08
875.66	1658.85
875.83	1685.48
875.99	1701.86
876.16	1648.61
876.33	1636.33
876.49	1630.18
876.66	1748.97
876.83	1689.57
876.99	1601.51
877.16	1673.19
877.32	1695.72
877.49	1624.04
877.66	1681.38
877.82	1851.36
877.99	1791.97
878.15	1777.64
878.32	1687.53
878.49	1611.75
878.65	1718.25
878.82	1816.55
878.98	1630.18
879.15	1730.53
879.32	1759.21
879.48	1726.44
879.65	1667.05
879.81	1710.05
879.98	1630.18
880.15	1683.43
880.31	1708.01
880.48	1697.77
880.64	1748.97
880.81	1740.77
880.97	1826.79
881.14	1796.07
881.31	1691.62
881.47	1816.55
881.64	1681.38
881.80	1585.13
881.97	1701.86
882.13	1755.11
882.30	1607.66
882.47	1714.15
882.63	1621.99
882.80	1667.05
882.96	1636.33
883.13	1730.53
883.29	1720.29
883.46	1775.59
883.62	1759.21
883.79	1732.58
883.95	1732.58
884.12	1679.33
884.29	1746.92
884.45	1810.40
884.62	1806.31
884.78	1601.51
884.95	1751.01
885.11	1640.42
885.28	1703.91
885.44	1697.77
885.61	1714.15
885.77	1701.86
885.94	1720.29
886.10	1726.44
886.27	1675.24
886.43	1726.44
886.60	1708.01
886.76	1710.05
886.93	1607.66
887.09	1718.25
887.26	1693.67
887.42	1734.63
887.59	1703.91
887.75	1779.68
887.92	1791.97
888.08	1748.97
888.25	1714.15
888.41	1761.25
888.58	1701.86
888.74	1685.48
888.91	1648.61
>>>>>End Processed Spectral Data<<<<<
