SpectraSuite Data File
++++++++++++++++++++++++++++++++++++
Date: Mon Jun 06 14:42:37 CEST 2016
User: root
Dark Spectrum Present: No
Reference Spectrum Present: No
Number of Sampled Component Spectra: 1
Spectrometers: USB4C02835
Integration Time (usec): 100000 (USB4C02835)
Spectra Averaged: 1 (USB4C02835)
Boxcar Smoothing: 0 (USB4C02835)
Correct for Electrical Dark: No (USB4C02835)
Strobe/Lamp Enabled: No (USB4C02835)
Correct for Detector Non-linearity: No (USB4C02835)
Correct for Stray Light: No (USB4C02835)
Number of Pixels in Processed Spectrum: 3648
>>>>>Begin Processed Spectral Data<<<<<
177.47	1452.01
177.69	1452.01
177.91	1452.01
178.13	1452.01
178.36	1413.10
178.58	1570.79
178.80	1722.34
179.02	1751.01
179.24	1685.48
179.46	1728.49
179.68	1755.11
179.90	1638.38
180.13	1800.16
180.35	1701.86
180.57	1722.34
180.79	1796.07
181.01	1656.81
181.23	1738.73
181.45	1781.73
181.67	1728.49
181.90	1744.87
182.12	1681.38
182.34	1615.85
182.56	1751.01
182.78	1636.33
183.00	1626.09
183.22	1677.29
183.44	1632.23
183.66	1800.16
183.89	1806.31
184.11	1705.96
184.33	1693.67
184.55	1755.11
184.77	1683.43
184.99	1705.96
185.21	1658.85
185.43	1841.12
185.65	1695.72
185.87	1681.38
186.10	1783.78
186.32	1802.21
186.54	1722.34
186.76	1718.25
186.98	1748.97
187.20	1681.38
187.42	1705.96
187.64	1675.24
187.86	1730.53
188.08	1724.39
188.30	1673.19
188.52	1716.20
188.75	1705.96
188.97	1708.01
189.19	1662.95
189.41	1728.49
189.63	1691.62
189.85	1710.05
190.07	1628.14
190.29	1609.70
190.51	1712.10
190.73	1708.01
190.95	1708.01
191.17	1644.52
191.39	1591.27
191.61	1681.38
191.84	1636.33
192.06	1748.97
192.28	1621.99
192.50	1914.85
192.72	1751.01
192.94	1775.59
193.16	1751.01
193.38	1714.15
193.60	1669.09
193.82	1708.01
194.04	1710.05
194.26	1759.21
194.48	1708.01
194.70	1630.18
194.92	1701.86
195.14	1763.30
195.36	1703.91
195.58	1667.05
195.80	1687.53
196.02	1632.23
196.24	1695.72
196.46	1746.92
196.69	1712.10
196.91	1816.55
197.13	1722.34
197.35	1755.11
197.57	1865.70
197.79	1708.01
198.01	1740.77
198.23	1748.97
198.45	1691.62
198.67	1521.64
198.89	1712.10
199.11	1705.96
199.33	1681.38
199.55	1560.55
199.77	1640.42
199.99	1742.82
200.21	1705.96
200.43	1701.86
200.65	1644.52
200.87	1632.23
201.09	1624.04
201.31	1648.61
201.53	1771.49
201.75	1722.34
201.97	1738.73
202.19	1771.49
202.41	1742.82
202.63	1812.45
202.85	1675.24
203.07	1730.53
203.29	1677.29
203.51	1546.22
203.73	1751.01
203.95	1859.56
204.17	1730.53
204.39	1732.58
204.61	1724.39
204.83	1673.19
205.05	1757.16
205.27	1798.12
205.49	1779.68
205.71	1748.97
205.93	1652.71
206.15	1685.48
206.37	1679.33
206.59	1701.86
206.81	1703.91
207.03	1617.90
207.25	1628.14
207.47	1761.25
207.69	1658.85
207.91	1779.68
208.13	1751.01
208.34	1640.42
208.56	1644.52
208.78	1779.68
209.00	1695.72
209.22	1699.81
209.44	1691.62
209.66	1615.85
209.88	1703.91
210.10	1636.33
210.32	1724.39
210.54	1787.88
210.76	1708.01
210.98	1710.05
211.20	1581.03
211.42	1779.68
211.64	1779.68
211.86	1691.62
212.08	1710.05
212.30	1751.01
212.52	1705.96
212.74	1722.34
212.96	1726.44
213.17	1681.38
213.39	1667.05
213.61	1779.68
213.83	1695.72
214.05	1576.94
214.27	1718.25
214.49	1656.81
214.71	1687.53
214.93	1705.96
215.15	1632.23
215.37	1796.07
215.59	1636.33
215.81	1716.20
216.03	1763.30
216.24	1656.81
216.46	1738.73
216.68	1660.90
216.90	1726.44
217.12	1740.77
217.34	1636.33
217.56	1765.35
217.78	1736.68
218.00	1714.15
218.22	1789.92
218.44	1705.96
218.66	1724.39
218.87	1804.26
219.09	1687.53
219.31	1722.34
219.53	1699.81
219.75	1658.85
219.97	1677.29
220.19	1812.45
220.41	1648.61
220.63	1716.20
220.85	1693.67
221.06	1644.52
221.28	1767.40
221.50	1738.73
221.72	1691.62
221.94	1675.24
222.16	1650.66
222.38	1771.49
222.60	1673.19
222.82	1681.38
223.03	1679.33
223.25	1638.38
223.47	1843.17
223.69	1755.11
223.91	1689.57
224.13	1675.24
224.35	1658.85
224.57	1828.84
224.78	1716.20
225.00	1689.57
225.22	1703.91
225.44	1714.15
225.66	1701.86
225.88	1712.10
226.10	1724.39
226.32	1787.88
226.53	1873.89
226.75	1679.33
226.97	1658.85
227.19	1726.44
227.41	1736.68
227.63	1665.00
227.85	1654.76
228.06	1738.73
228.28	1683.43
228.50	1757.16
228.72	1615.85
228.94	1617.90
229.16	1591.27
229.37	1714.15
229.59	1689.57
229.81	1798.12
230.03	1595.37
230.25	1720.29
230.47	1665.00
230.69	1634.28
230.90	1796.07
231.12	1619.94
231.34	1693.67
231.56	1732.58
231.78	1628.14
232.00	1652.71
232.21	1738.73
232.43	1695.72
232.65	1634.28
232.87	1697.77
233.09	1699.81
233.30	1658.85
233.52	1703.91
233.74	1660.90
233.96	1675.24
234.18	1751.01
234.40	1644.52
234.61	1802.21
234.83	1603.56
235.05	1656.81
235.27	1880.04
235.49	1794.02
235.70	1742.82
235.92	1775.59
236.14	1730.53
236.36	1820.64
236.58	1689.57
236.79	1757.16
237.01	1662.95
237.23	1640.42
237.45	1828.84
237.67	1578.98
237.88	1673.19
238.10	1785.83
238.32	1621.99
238.54	1642.47
238.76	1644.52
238.97	1699.81
239.19	1611.75
239.41	1734.63
239.63	1783.78
239.85	1691.62
240.06	1748.97
240.28	1695.72
240.50	1769.44
240.72	1681.38
240.93	1705.96
241.15	1740.77
241.37	1724.39
241.59	1832.93
241.81	1705.96
242.02	1687.53
242.24	1712.10
242.46	1751.01
242.68	1691.62
242.89	1658.85
243.11	1757.16
243.33	1695.72
243.55	1708.01
243.76	1820.64
243.98	1687.53
244.20	1759.21
244.42	1669.09
244.64	1718.25
244.85	1665.00
245.07	1624.04
245.29	1777.64
245.51	1703.91
245.72	1753.06
245.94	1771.49
246.16	1667.05
246.38	1671.14
246.59	1673.19
246.81	1710.05
247.03	1642.47
247.24	1630.18
247.46	1673.19
247.68	1708.01
247.90	1687.53
248.11	1677.29
248.33	1710.05
248.55	1640.42
248.77	1695.72
248.98	1806.31
249.20	1794.02
249.42	1740.77
249.64	1634.28
249.85	1779.68
250.07	1630.18
250.29	1765.35
250.50	1830.88
250.72	1597.42
250.94	1677.29
251.16	1765.35
251.37	1681.38
251.59	1744.87
251.81	1761.25
252.02	1761.25
252.24	1619.94
252.46	1783.78
252.68	1662.95
252.89	1679.33
253.11	1599.46
253.33	1798.12
253.54	1705.96
253.76	1634.28
253.98	1654.76
254.20	1683.43
254.41	1578.98
254.63	1652.71
254.85	1683.43
255.06	1703.91
255.28	1773.54
255.50	1660.90
255.71	1669.09
255.93	1624.04
256.15	1640.42
256.36	1685.48
256.58	1630.18
256.80	1667.05
257.02	1697.77
257.23	1705.96
257.45	1685.48
257.67	1777.64
257.88	1658.85
258.10	1787.88
258.32	1685.48
258.53	1736.68
258.75	1755.11
258.97	1642.47
259.18	1736.68
259.40	1693.67
259.62	1886.18
259.83	1787.88
260.05	1667.05
260.27	1978.34
260.48	1710.05
260.70	1599.46
260.92	1753.06
261.13	1716.20
261.35	1691.62
261.57	1769.44
261.78	1566.70
262.00	1650.66
262.22	1732.58
262.43	1724.39
262.65	1660.90
262.86	1609.70
263.08	1771.49
263.30	1667.05
263.51	1566.70
263.73	1652.71
263.95	1808.36
264.16	1685.48
264.38	1677.29
264.60	1779.68
264.81	1716.20
265.03	1744.87
265.25	1722.34
265.46	1675.24
265.68	1685.48
265.89	1761.25
266.11	1603.56
266.33	1681.38
266.54	1781.73
266.76	1761.25
266.98	1671.14
267.19	1775.59
267.41	1744.87
267.62	1642.47
267.84	1609.70
268.06	1673.19
268.27	1798.12
268.49	1718.25
268.70	1740.77
268.92	1705.96
269.14	1632.23
269.35	1660.90
269.57	1767.40
269.79	1767.40
270.00	1656.81
270.22	1755.11
270.43	1665.00
270.65	1552.36
270.87	1644.52
271.08	1701.86
271.30	1755.11
271.51	1656.81
271.73	1730.53
271.95	1746.92
272.16	1740.77
272.38	1718.25
272.59	1679.33
272.81	1660.90
273.02	1681.38
273.24	1736.68
273.46	1740.77
273.67	1701.86
273.89	1570.79
274.10	1722.34
274.32	1716.20
274.54	1732.58
274.75	1691.62
274.97	1669.09
275.18	1714.15
275.40	1761.25
275.61	1669.09
275.83	1730.53
276.05	1656.81
276.26	1742.82
276.48	1658.85
276.69	1720.29
276.91	1613.80
277.12	1773.54
277.34	1779.68
277.55	1746.92
277.77	1751.01
277.99	1673.19
278.20	1628.14
278.42	1652.71
278.63	1714.15
278.85	1652.71
279.06	1605.61
279.28	1669.09
279.49	1695.72
279.71	1755.11
279.93	1583.08
280.14	1738.73
280.36	1757.16
280.57	1712.10
280.79	1822.69
281.00	1720.29
281.22	1599.46
281.43	1732.58
281.65	1609.70
281.86	1626.09
282.08	1720.29
282.29	1841.12
282.51	1656.81
282.73	1603.56
282.94	1605.61
283.16	1773.54
283.37	1736.68
283.59	1679.33
283.80	1689.57
284.02	1771.49
284.23	1742.82
284.45	1724.39
284.66	1650.66
284.88	1615.85
285.09	1757.16
285.31	1718.25
285.52	1683.43
285.74	1619.94
285.95	1763.30
286.17	1769.44
286.38	1732.58
286.60	1675.24
286.81	1617.90
287.03	1667.05
287.24	1687.53
287.46	1742.82
287.67	1636.33
287.89	1757.16
288.10	1701.86
288.32	1753.06
288.53	1783.78
288.75	1675.24
288.96	1744.87
289.18	1662.95
289.39	1718.25
289.61	1757.16
289.82	1839.08
290.04	1812.45
290.25	1636.33
290.47	1728.49
290.68	1662.95
290.90	1746.92
291.11	1638.38
291.33	1759.21
291.54	1640.42
291.76	1605.61
291.97	1677.29
292.18	1626.09
292.40	1705.96
292.61	1667.05
292.83	1777.64
293.04	1748.97
293.26	1632.23
293.47	1656.81
293.69	1652.71
293.90	1634.28
294.12	1679.33
294.33	1687.53
294.55	1738.73
294.76	1818.60
294.97	1820.64
295.19	1826.79
295.40	1634.28
295.62	1689.57
295.83	1806.31
296.05	1669.09
296.26	1687.53
296.48	1644.52
296.69	1677.29
296.90	1708.01
297.12	1785.83
297.33	1726.44
297.55	1716.20
297.76	1708.01
297.98	1785.83
298.19	1716.20
298.41	1740.77
298.62	1671.14
298.83	1753.06
299.05	1755.11
299.26	1671.14
299.48	1673.19
299.69	1775.59
299.90	1652.71
300.12	1736.68
300.33	1732.58
300.55	1740.77
300.76	1753.06
300.98	1615.85
301.19	1720.29
301.40	1708.01
301.62	1705.96
301.83	1673.19
302.05	1626.09
302.26	1665.00
302.47	1734.63
302.69	1638.38
302.90	1648.61
303.12	1650.66
303.33	1740.77
303.54	1781.73
303.76	1705.96
303.97	1742.82
304.19	1779.68
304.40	1673.19
304.61	1656.81
304.83	1816.55
305.04	1695.72
305.26	1701.86
305.47	1667.05
305.68	1759.21
305.90	1599.46
306.11	1703.91
306.33	1667.05
306.54	1640.42
306.75	1714.15
306.97	1626.09
307.18	1601.51
307.39	1701.86
307.61	1714.15
307.82	1734.63
308.04	1732.58
308.25	1708.01
308.46	1677.29
308.68	1689.57
308.89	1714.15
309.10	1775.59
309.32	1691.62
309.53	1681.38
309.74	1697.77
309.96	1712.10
310.17	1765.35
310.39	1695.72
310.60	1812.45
310.81	1660.90
311.03	1626.09
311.24	1765.35
311.45	1685.48
311.67	1794.02
311.88	1667.05
312.09	1679.33
312.31	1673.19
312.52	1724.39
312.73	1705.96
312.95	1601.51
313.16	1617.90
313.37	1771.49
313.59	1669.09
313.80	1691.62
314.01	1775.59
314.23	1613.80
314.44	1705.96
314.65	1599.46
314.87	1619.94
315.08	1613.80
315.29	1599.46
315.51	1576.94
315.72	1701.86
315.93	1820.64
316.15	1763.30
316.36	1662.95
316.57	1708.01
316.79	1654.76
317.00	1742.82
317.21	1722.34
317.43	1650.66
317.64	1728.49
317.85	1615.85
318.07	1669.09
318.28	1728.49
318.49	1861.60
318.70	1910.75
318.92	1839.08
319.13	1820.64
319.34	1875.94
319.56	1847.27
319.77	1839.08
319.98	1804.26
320.20	1832.93
320.41	1722.34
320.62	1716.20
320.83	1658.85
321.05	1839.08
321.26	1667.05
321.47	1716.20
321.69	1763.30
321.90	1652.71
322.11	1697.77
322.32	1746.92
322.54	1783.78
322.75	1654.76
322.96	1824.74
323.18	1671.14
323.39	1675.24
323.60	1710.05
323.81	1837.03
324.03	1697.77
324.24	1701.86
324.45	1722.34
324.66	1685.48
324.88	1724.39
325.09	1771.49
325.30	1679.33
325.52	1746.92
325.73	1722.34
325.94	1640.42
326.15	1576.94
326.37	1687.53
326.58	1722.34
326.79	1759.21
327.00	1593.32
327.22	1742.82
327.43	1673.19
327.64	1595.37
327.85	1705.96
328.07	1724.39
328.28	1791.97
328.49	1632.23
328.70	1710.05
328.92	1716.20
329.13	1660.90
329.34	1716.20
329.55	1710.05
329.76	1775.59
329.98	1710.05
330.19	1744.87
330.40	1705.96
330.61	1714.15
330.83	1722.34
331.04	1642.47
331.25	1798.12
331.46	1730.53
331.68	1583.08
331.89	1710.05
332.10	1712.10
332.31	1675.24
332.52	1648.61
332.74	1779.68
332.95	1683.43
333.16	1689.57
333.37	1771.49
333.58	1710.05
333.80	1650.66
334.01	1617.90
334.22	1652.71
334.43	1671.14
334.64	1671.14
334.86	1632.23
335.07	1691.62
335.28	1783.78
335.49	1658.85
335.70	1697.77
335.92	1757.16
336.13	1785.83
336.34	1636.33
336.55	1675.24
336.76	1695.72
336.98	1626.09
337.19	1705.96
337.40	1843.17
337.61	1857.51
337.82	1730.53
338.04	1755.11
338.25	1587.18
338.46	1689.57
338.67	1628.14
338.88	1615.85
339.09	1609.70
339.31	1642.47
339.52	1654.76
339.73	1689.57
339.94	1728.49
340.15	1763.30
340.36	1632.23
340.58	1705.96
340.79	1660.90
341.00	1734.63
341.21	1677.29
341.42	1857.51
341.63	1693.67
341.85	1724.39
342.06	1744.87
342.27	1660.90
342.48	1773.54
342.69	1683.43
342.90	1701.86
343.12	1693.67
343.33	1648.61
343.54	1734.63
343.75	1810.40
343.96	1693.67
344.17	1644.52
344.38	1656.81
344.60	1632.23
344.81	1599.46
345.02	1662.95
345.23	1710.05
345.44	1757.16
345.65	1785.83
345.86	1810.40
346.07	1693.67
346.29	1746.92
346.50	1638.38
346.71	1722.34
346.92	1728.49
347.13	1779.68
347.34	1697.77
347.55	1675.24
347.76	1710.05
347.98	1576.94
348.19	1705.96
348.40	1785.83
348.61	1728.49
348.82	1755.11
349.03	1660.90
349.24	1667.05
349.45	1826.79
349.66	1585.13
349.88	1652.71
350.09	1710.05
350.30	1796.07
350.51	1746.92
350.72	1708.01
350.93	1658.85
351.14	1744.87
351.35	1791.97
351.56	1757.16
351.77	1779.68
351.99	1736.68
352.20	1757.16
352.41	1718.25
352.62	1640.42
352.83	1710.05
353.04	1767.40
353.25	1644.52
353.46	1791.97
353.67	1775.59
353.88	1527.78
354.09	1763.30
354.30	1669.09
354.52	1699.81
354.73	1673.19
354.94	1671.14
355.15	1716.20
355.36	1753.06
355.57	1748.97
355.78	1695.72
355.99	1714.15
356.20	1607.66
356.41	1761.25
356.62	1630.18
356.83	1728.49
357.04	1779.68
357.25	1574.89
357.46	1650.66
357.68	1662.95
357.89	1677.29
358.10	1712.10
358.31	1652.71
358.52	1732.58
358.73	1658.85
358.94	1593.32
359.15	1656.81
359.36	1673.19
359.57	1685.48
359.78	1701.86
359.99	1689.57
360.20	1591.27
360.41	1685.48
360.62	1759.21
360.83	1763.30
361.04	1632.23
361.25	1705.96
361.46	1791.97
361.67	1677.29
361.88	1773.54
362.09	1781.73
362.30	1687.53
362.51	1650.66
362.72	1673.19
362.93	1746.92
363.14	1740.77
363.35	1640.42
363.56	1671.14
363.78	1812.45
363.99	1820.64
364.20	1673.19
364.41	1632.23
364.62	1789.92
364.83	1732.58
365.04	1722.34
365.25	1712.10
365.46	1851.36
365.67	1587.18
365.88	1648.61
366.09	1619.94
366.30	1734.63
366.51	1691.62
366.72	1634.28
366.93	1697.77
367.14	1685.48
367.35	1820.64
367.56	1685.48
367.77	1763.30
367.98	1705.96
368.18	1765.35
368.39	1763.30
368.60	1607.66
368.81	1638.38
369.02	1687.53
369.23	1726.44
369.44	1634.28
369.65	1669.09
369.86	1775.59
370.07	1794.02
370.28	1699.81
370.49	1769.44
370.70	1658.85
370.91	1638.38
371.12	1669.09
371.33	1699.81
371.54	1705.96
371.75	1855.46
371.96	1538.02
372.17	1603.56
372.38	1705.96
372.59	1687.53
372.80	1642.47
373.01	1695.72
373.22	1767.40
373.43	1708.01
373.64	1656.81
373.85	1757.16
374.06	1806.31
374.26	1714.15
374.47	1722.34
374.68	1826.79
374.89	1724.39
375.10	1695.72
375.31	1804.26
375.52	1654.76
375.73	1677.29
375.94	1613.80
376.15	1779.68
376.36	1693.67
376.57	1669.09
376.78	1703.91
376.99	1746.92
377.20	1853.41
377.40	1648.61
377.61	1814.50
377.82	1693.67
378.03	1818.60
378.24	1693.67
378.45	1705.96
378.66	1738.73
378.87	1652.71
379.08	1650.66
379.29	1638.38
379.50	1816.55
379.71	1732.58
379.91	1791.97
380.12	1718.25
380.33	1689.57
380.54	1671.14
380.75	1636.33
380.96	1669.09
381.17	1794.02
381.38	1634.28
381.59	1761.25
381.80	1714.15
382.00	1867.75
382.21	1681.38
382.42	1771.49
382.63	1880.04
382.84	1673.19
383.05	1832.93
383.26	1791.97
383.47	1755.11
383.68	1748.97
383.88	1755.11
384.09	1742.82
384.30	1822.69
384.51	1681.38
384.72	1701.86
384.93	1646.57
385.14	1699.81
385.35	1753.06
385.55	1656.81
385.76	1740.77
385.97	1650.66
386.18	1658.85
386.39	1673.19
386.60	1665.00
386.81	1669.09
387.02	1763.30
387.22	1644.52
387.43	1714.15
387.64	1765.35
387.85	1822.69
388.06	2238.43
388.27	4315.07
388.48	6600.60
388.68	8296.32
388.89	9633.64
389.10	9893.74
389.31	8542.08
389.52	7532.43
389.73	6805.40
389.93	6252.45
390.14	5826.47
390.35	5228.46
390.56	4612.03
390.77	3811.27
390.98	3065.81
391.18	2500.57
391.39	2082.78
391.60	1849.32
391.81	1810.40
392.02	1710.05
392.23	1914.85
392.43	1736.68
392.64	1818.60
392.85	1703.91
393.06	1828.84
393.27	1665.00
393.47	1683.43
393.68	1730.53
393.89	1720.29
394.10	1767.40
394.31	1693.67
394.52	1646.57
394.72	1718.25
394.93	1791.97
395.14	1665.00
395.35	1753.06
395.56	1658.85
395.76	1734.63
395.97	1808.36
396.18	1820.64
396.39	1814.50
396.60	2031.58
396.80	1873.89
397.01	1894.37
397.22	1888.23
397.43	1826.79
397.64	1714.15
397.84	1781.73
398.05	1884.13
398.26	1736.68
398.47	1710.05
398.67	1820.64
398.88	1851.36
399.09	1771.49
399.30	1642.47
399.51	1691.62
399.71	1624.04
399.92	1726.44
400.13	1726.44
400.34	1636.33
400.54	1705.96
400.75	1859.56
400.96	1689.57
401.17	1818.60
401.37	1693.67
401.58	1718.25
401.79	1716.20
402.00	1804.26
402.21	2002.91
402.41	2004.96
402.62	1941.47
402.83	2131.94
403.04	2000.87
403.24	2041.82
403.45	1869.80
403.66	1927.14
403.87	1918.95
404.07	1884.13
404.28	1882.08
404.49	1859.56
404.70	1779.68
404.90	1789.92
405.11	1730.53
405.32	1728.49
405.52	1695.72
405.73	1681.38
405.94	1607.66
406.15	1734.63
406.35	1755.11
406.56	1738.73
406.77	1748.97
406.98	1722.34
407.18	1667.05
407.39	1826.79
407.60	1712.10
407.80	1734.63
408.01	1730.53
408.22	1738.73
408.43	1714.15
408.63	1708.01
408.84	1802.21
409.05	1753.06
409.25	1720.29
409.46	1665.00
409.67	1640.42
409.88	1681.38
410.08	1701.86
410.29	1736.68
410.50	1732.58
410.70	1708.01
410.91	1714.15
411.12	1769.44
411.32	1742.82
411.53	1609.70
411.74	1820.64
411.95	1738.73
412.15	1771.49
412.36	1728.49
412.57	1765.35
412.77	1806.31
412.98	1746.92
413.19	1767.40
413.39	1769.44
413.60	1806.31
413.81	1853.41
414.01	1685.48
414.22	1757.16
414.43	1720.29
414.63	1675.24
414.84	1695.72
415.05	1777.64
415.25	1583.08
415.46	1755.11
415.67	1656.81
415.87	1740.77
416.08	1716.20
416.29	1632.23
416.49	1728.49
416.70	1697.77
416.91	1689.57
417.11	1738.73
417.32	1781.73
417.53	1757.16
417.73	1755.11
417.94	1730.53
418.15	1587.18
418.35	1665.00
418.56	1732.58
418.77	1869.80
418.97	1751.01
419.18	1748.97
419.38	1621.99
419.59	1691.62
419.80	1791.97
420.00	1714.15
420.21	1722.34
420.42	1720.29
420.62	1695.72
420.83	1667.05
421.04	1611.75
421.24	1691.62
421.45	1742.82
421.65	1736.68
421.86	1677.29
422.07	1691.62
422.27	1742.82
422.48	1638.38
422.69	1685.48
422.89	1701.86
423.10	1683.43
423.30	1599.46
423.51	1669.09
423.72	1701.86
423.92	1740.77
424.13	1646.57
424.33	1708.01
424.54	1759.21
424.75	1687.53
424.95	1822.69
425.16	1714.15
425.36	1693.67
425.57	1822.69
425.78	1802.21
425.98	1714.15
426.19	1722.34
426.39	1642.47
426.60	1624.04
426.81	1771.49
427.01	1697.77
427.22	1712.10
427.42	1562.60
427.63	1744.87
427.83	1736.68
428.04	1767.40
428.25	1841.12
428.45	1767.40
428.66	1746.92
428.86	1644.52
429.07	1677.29
429.28	1744.87
429.48	1677.29
429.69	1632.23
429.89	1660.90
430.10	1599.46
430.30	1728.49
430.51	1785.83
430.71	1699.81
430.92	1642.47
431.13	1710.05
431.33	1753.06
431.54	1691.62
431.74	1767.40
431.95	1816.55
432.15	1699.81
432.36	1734.63
432.56	1730.53
432.77	1771.49
432.98	1775.59
433.18	1693.67
433.39	1691.62
433.59	1640.42
433.80	1824.74
434.00	1824.74
434.21	1693.67
434.41	1654.76
434.62	1886.18
434.82	1656.81
435.03	1703.91
435.23	1705.96
435.44	1630.18
435.64	1693.67
435.85	1656.81
436.06	1726.44
436.26	1767.40
436.47	1796.07
436.67	1691.62
436.88	1689.57
437.08	1769.44
437.29	1841.12
437.49	1683.43
437.70	1716.20
437.90	1708.01
438.11	1751.01
438.31	1814.50
438.52	1837.03
438.72	1783.78
438.93	1937.38
439.13	1798.12
439.34	1759.21
439.54	1781.73
439.75	1748.97
439.95	1816.55
440.16	1726.44
440.36	1689.57
440.57	1783.78
440.77	1736.68
440.98	1691.62
441.18	1740.77
441.39	1714.15
441.59	1640.42
441.80	1841.12
442.00	1732.58
442.21	1865.70
442.41	1601.51
442.62	1779.68
442.82	1636.33
443.02	1734.63
443.23	1759.21
443.43	1710.05
443.64	1746.92
443.84	1669.09
444.05	1789.92
444.25	1777.64
444.46	1667.05
444.66	1720.29
444.87	1849.32
445.07	1665.00
445.28	1720.29
445.48	1882.08
445.69	1820.64
445.89	1871.84
446.09	1751.01
446.30	1945.57
446.50	2682.84
446.71	3854.28
446.91	4413.37
447.12	4687.80
447.32	4827.06
447.53	4333.50
447.73	3870.66
447.93	3569.61
448.14	3434.44
448.34	3282.89
448.55	2926.55
448.75	2906.07
448.96	2691.03
449.16	2389.98
449.36	2279.39
449.57	2066.40
449.77	1935.33
449.98	1742.82
450.18	1814.50
450.39	1814.50
450.59	1765.35
450.79	1689.57
451.00	1724.39
451.20	1826.79
451.41	1763.30
451.61	1746.92
451.81	1718.25
452.02	1775.59
452.22	1710.05
452.43	1669.09
452.63	1701.86
452.84	1648.61
453.04	1726.44
453.24	1693.67
453.45	1697.77
453.65	1753.06
453.86	1759.21
454.06	1734.63
454.26	1714.15
454.47	1669.09
454.67	1761.25
454.87	1687.53
455.08	1710.05
455.28	1783.78
455.49	1697.77
455.69	1726.44
455.89	1808.36
456.10	1767.40
456.30	1736.68
456.51	1771.49
456.71	1748.97
456.91	1728.49
457.12	1757.16
457.32	1824.74
457.52	1671.14
457.73	1816.55
457.93	1726.44
458.14	1665.00
458.34	1689.57
458.54	1740.77
458.75	1697.77
458.95	1746.92
459.15	1689.57
459.36	1802.21
459.56	1767.40
459.76	1865.70
459.97	1722.34
460.17	1734.63
460.37	1763.30
460.58	1724.39
460.78	1775.59
460.99	1650.66
461.19	1761.25
461.39	1677.29
461.60	1789.92
461.80	1695.72
462.00	1687.53
462.21	1675.24
462.41	1722.34
462.61	1738.73
462.82	1710.05
463.02	1734.63
463.22	1691.62
463.43	1783.78
463.63	1677.29
463.83	1753.06
464.04	1744.87
464.24	1748.97
464.44	1677.29
464.64	1650.66
464.85	1763.30
465.05	1757.16
465.25	1716.20
465.46	1738.73
465.66	1716.20
465.86	1781.73
466.07	1759.21
466.27	1712.10
466.47	1624.04
466.68	1662.95
466.88	1734.63
467.08	1697.77
467.29	1656.81
467.49	1726.44
467.69	1738.73
467.89	1767.40
468.10	1740.77
468.30	1732.58
468.50	1785.83
468.71	1746.92
468.91	1691.62
469.11	1861.60
469.31	1726.44
469.52	1716.20
469.72	1839.08
469.92	1751.01
470.13	1746.92
470.33	1763.30
470.53	1912.80
470.73	2011.11
470.94	2277.34
471.14	2287.58
471.34	2457.56
471.54	2457.56
471.75	2224.09
471.95	2125.79
472.15	2088.93
472.36	2181.09
472.56	2140.13
472.76	2101.22
472.96	2025.44
473.17	1970.15
473.37	1847.27
473.57	1769.44
473.77	1972.19
473.98	1763.30
474.18	1673.19
474.38	1955.81
474.58	1740.77
474.79	1654.76
474.99	1818.60
475.19	1748.97
475.39	1634.28
475.60	1818.60
475.80	1755.11
476.00	1699.81
476.20	1734.63
476.41	1718.25
476.61	1796.07
476.81	1796.07
477.01	1693.67
477.21	1867.75
477.42	1765.35
477.62	1642.47
477.82	1744.87
478.02	1714.15
478.23	1718.25
478.43	1646.57
478.63	1665.00
478.83	1761.25
479.03	1718.25
479.24	1794.02
479.44	1822.69
479.64	1689.57
479.84	1607.66
480.04	1619.94
480.25	1667.05
480.45	1665.00
480.65	1658.85
480.85	1847.27
481.06	1648.61
481.26	1830.88
481.46	1798.12
481.66	1718.25
481.86	1677.29
482.06	1732.58
482.27	1773.54
482.47	1714.15
482.67	1755.11
482.87	1689.57
483.07	1781.73
483.28	1748.97
483.48	1593.32
483.68	1738.73
483.88	1652.71
484.08	1529.83
484.29	1671.14
484.49	1744.87
484.69	1583.08
484.89	1818.60
485.09	1837.03
485.29	1714.15
485.50	1724.39
485.70	1691.62
485.90	1820.64
486.10	1769.44
486.30	1722.34
486.50	1716.20
486.71	1748.97
486.91	1744.87
487.11	1834.98
487.31	1671.14
487.51	1751.01
487.71	1705.96
487.91	1730.53
488.12	1705.96
488.32	1597.42
488.52	1669.09
488.72	1634.28
488.92	1744.87
489.12	1791.97
489.32	1857.51
489.53	1734.63
489.73	1628.14
489.93	1767.40
490.13	1636.33
490.33	1652.71
490.53	1742.82
490.73	1732.58
490.94	1621.99
491.14	1744.87
491.34	1779.68
491.54	2144.22
491.74	2566.10
491.94	2779.09
492.14	3049.43
492.34	2990.03
492.54	2811.86
492.75	2453.47
492.95	2467.80
493.15	2330.59
493.35	2359.26
493.55	2273.25
493.75	2172.89
493.95	2189.28
494.15	2058.21
494.35	1939.43
494.56	1910.75
494.76	1763.30
494.96	1847.27
495.16	1806.31
495.36	1738.73
495.56	1685.48
495.76	1660.90
495.96	1753.06
496.16	1654.76
496.36	1787.88
496.56	1732.58
496.77	1683.43
496.97	1761.25
497.17	1877.99
497.37	1667.05
497.57	1699.81
497.77	1730.53
497.97	1665.00
498.17	1691.62
498.37	1693.67
498.57	1800.16
498.77	1646.57
498.97	1753.06
499.17	1808.36
499.38	1794.02
499.58	1773.54
499.78	1773.54
499.98	1847.27
500.18	1779.68
500.38	1677.29
500.58	1923.04
500.78	2607.06
500.98	4589.50
501.18	5879.72
501.38	6752.15
501.58	7182.23
501.78	6700.95
501.98	5492.65
502.18	5038.00
502.38	4405.18
502.58	4229.06
502.78	3762.12
502.98	3667.91
503.18	3463.12
503.38	3160.02
503.59	2801.62
503.79	2699.22
503.99	2512.86
504.19	2373.60
504.39	2195.42
504.59	2176.99
504.79	2123.74
504.99	2025.44
505.19	1929.19
505.39	1906.66
505.59	1896.42
505.79	1898.47
505.99	1959.91
506.19	1802.21
506.39	1884.13
506.59	1800.16
506.79	1863.65
506.99	1794.02
507.19	1755.11
507.39	1712.10
507.59	1634.28
507.79	1681.38
507.99	1773.54
508.19	1753.06
508.39	1685.48
508.59	1693.67
508.79	1814.50
508.99	1822.69
509.19	1714.15
509.39	1773.54
509.59	1759.21
509.79	1665.00
509.99	1726.44
510.19	1665.00
510.39	1677.29
510.59	1726.44
510.79	1726.44
510.99	1712.10
511.19	1771.49
511.39	1773.54
511.59	1783.78
511.79	1808.36
511.99	1837.03
512.19	1863.65
512.38	1740.77
512.58	1708.01
512.78	1761.25
512.98	1730.53
513.18	1824.74
513.38	1689.57
513.58	1740.77
513.78	1667.05
513.98	1771.49
514.18	1720.29
514.38	1687.53
514.58	1759.21
514.78	1730.53
514.98	1710.05
515.18	1691.62
515.38	1714.15
515.58	1849.32
515.78	1783.78
515.98	1656.81
516.18	1720.29
516.38	1683.43
516.57	1789.92
516.77	1679.33
516.97	1789.92
517.17	1775.59
517.37	1615.85
517.57	1783.78
517.77	1724.39
517.97	1656.81
518.17	1869.80
518.37	1697.77
518.57	1740.77
518.77	1691.62
518.97	1722.34
519.16	1791.97
519.36	1841.12
519.56	1708.01
519.76	1705.96
519.96	1705.96
520.16	1783.78
520.36	1617.90
520.56	1857.51
520.76	1673.19
520.96	1691.62
521.16	1779.68
521.35	1824.74
521.55	1816.55
521.75	1746.92
521.95	1712.10
522.15	1746.92
522.35	1605.61
522.55	1695.72
522.75	1751.01
522.95	1695.72
523.14	1708.01
523.34	1763.30
523.54	1703.91
523.74	1826.79
523.94	1744.87
524.14	1648.61
524.34	1736.68
524.54	1757.16
524.73	1683.43
524.93	1789.92
525.13	1787.88
525.33	1703.91
525.53	1886.18
525.73	1753.06
525.93	1746.92
526.13	1669.09
526.32	1656.81
526.52	1779.68
526.72	1787.88
526.92	1656.81
527.12	1628.14
527.32	1609.70
527.52	1722.34
527.71	1701.86
527.91	1693.67
528.11	1746.92
528.31	1673.19
528.51	1720.29
528.71	1769.44
528.90	1802.21
529.10	1849.32
529.30	1699.81
529.50	1617.90
529.70	1763.30
529.90	1703.91
530.09	1808.36
530.29	1708.01
530.49	1724.39
530.69	1916.90
530.89	1742.82
531.09	1785.83
531.28	1636.33
531.48	1804.26
531.68	1726.44
531.88	1722.34
532.08	1880.04
532.28	1703.91
532.47	1771.49
532.67	1785.83
532.87	1775.59
533.07	1687.53
533.27	1755.11
533.46	1767.40
533.66	1755.11
533.86	1746.92
534.06	1732.58
534.26	1751.01
534.45	1742.82
534.65	1761.25
534.85	1767.40
535.05	1759.21
535.25	1804.26
535.44	1679.33
535.64	1787.88
535.84	1746.92
536.04	1703.91
536.24	1685.48
536.43	1732.58
536.63	1755.11
536.83	1640.42
537.03	1751.01
537.22	1708.01
537.42	1624.04
537.62	1769.44
537.82	1683.43
538.02	1781.73
538.21	1820.64
538.41	1884.13
538.61	1722.34
538.81	1705.96
539.00	1820.64
539.20	1732.58
539.40	1679.33
539.60	1837.03
539.79	1798.12
539.99	1710.05
540.19	1765.35
540.39	1779.68
540.58	1681.38
540.78	1771.49
540.98	1701.86
541.18	1742.82
541.37	1763.30
541.57	1722.34
541.77	1816.55
541.97	1755.11
542.16	1650.66
542.36	1740.77
542.56	1679.33
542.76	1884.13
542.95	1773.54
543.15	1781.73
543.35	1810.40
543.54	1742.82
543.74	1730.53
543.94	1806.31
544.14	1718.25
544.33	1720.29
544.53	1671.14
544.73	1746.92
544.93	1675.24
545.12	1687.53
545.32	1757.16
545.52	1695.72
545.71	1705.96
545.91	1718.25
546.11	1617.90
546.30	1689.57
546.50	1675.24
546.70	1796.07
546.90	1738.73
547.09	1611.75
547.29	1652.71
547.49	1697.77
547.68	1763.30
547.88	1728.49
548.08	1767.40
548.27	2152.42
548.47	1732.58
548.67	1658.85
548.87	1665.00
549.06	1757.16
549.26	1781.73
549.46	1753.06
549.65	1695.72
549.85	1746.92
550.05	1732.58
550.24	1640.42
550.44	1724.39
550.64	1738.73
550.83	1673.19
551.03	1839.08
551.23	1847.27
551.42	1769.44
551.62	1751.01
551.82	1634.28
552.01	1701.86
552.21	1802.21
552.41	1769.44
552.60	1902.56
552.80	1742.82
553.00	1751.01
553.19	1771.49
553.39	1851.36
553.59	1658.85
553.78	1759.21
553.98	1789.92
554.17	1658.85
554.37	1761.25
554.57	1800.16
554.76	1701.86
554.96	1714.15
555.16	1748.97
555.35	1804.26
555.55	1679.33
555.75	1781.73
555.94	1736.68
556.14	1624.04
556.33	1734.63
556.53	1691.62
556.73	1716.20
556.92	1722.34
557.12	1738.73
557.32	1832.93
557.51	1806.31
557.71	1787.88
557.90	1820.64
558.10	1796.07
558.30	1734.63
558.49	1783.78
558.69	1724.39
558.88	1748.97
559.08	1720.29
559.28	1665.00
559.47	1708.01
559.67	1742.82
559.86	1845.22
560.06	1783.78
560.26	1740.77
560.45	1738.73
560.65	1746.92
560.84	1683.43
561.04	1708.01
561.24	1783.78
561.43	1585.13
561.63	1755.11
561.82	1763.30
562.02	1773.54
562.22	1673.19
562.41	1687.53
562.61	1720.29
562.80	1628.14
563.00	1914.85
563.19	1730.53
563.39	1748.97
563.59	1730.53
563.78	1726.44
563.98	1562.60
564.17	1732.58
564.37	1703.91
564.56	1718.25
564.76	1669.09
564.96	1789.92
565.15	1751.01
565.35	1847.27
565.54	1677.29
565.74	1800.16
565.93	1738.73
566.13	1665.00
566.32	1742.82
566.52	1753.06
566.71	1808.36
566.91	1763.30
567.11	1746.92
567.30	1699.81
567.50	1763.30
567.69	1791.97
567.89	1714.15
568.08	1677.29
568.28	1689.57
568.47	1658.85
568.67	1767.40
568.86	1699.81
569.06	1755.11
569.25	1722.34
569.45	1728.49
569.64	1763.30
569.84	1693.67
570.04	1814.50
570.23	1626.09
570.43	1699.81
570.62	1744.87
570.82	1865.70
571.01	1691.62
571.21	1675.24
571.40	1716.20
571.60	1757.16
571.79	1724.39
571.99	1787.88
572.18	1689.57
572.38	1742.82
572.57	1714.15
572.77	1804.26
572.96	1929.19
573.16	1763.30
573.35	1646.57
573.55	1857.51
573.74	1767.40
573.94	1757.16
574.13	1699.81
574.33	1755.11
574.52	1761.25
574.71	1689.57
574.91	1742.82
575.10	1642.47
575.30	1673.19
575.49	1742.82
575.69	1746.92
575.88	1773.54
576.08	1742.82
576.27	1775.59
576.47	1804.26
576.66	1832.93
576.86	1773.54
577.05	1746.92
577.25	1808.36
577.44	1933.28
577.64	1714.15
577.83	1751.01
578.02	1828.84
578.22	1808.36
578.41	1820.64
578.61	1683.43
578.80	1728.49
579.00	1779.68
579.19	1740.77
579.39	1818.60
579.58	1751.01
579.77	1716.20
579.97	1871.84
580.16	1798.12
580.36	1759.21
580.55	1867.75
580.75	1765.35
580.94	1800.16
581.13	1867.75
581.33	1828.84
581.52	1695.72
581.72	1853.41
581.91	1900.52
582.11	1757.16
582.30	1832.93
582.49	1740.77
582.69	1845.22
582.88	1701.86
583.08	1798.12
583.27	1804.26
583.47	1771.49
583.66	1730.53
583.85	1724.39
584.05	1722.34
584.24	1742.82
584.44	1722.34
584.63	1759.21
584.82	1851.36
585.02	1828.84
585.21	1779.68
585.41	1800.16
585.60	1787.88
585.79	1980.39
585.99	1947.62
586.18	1773.54
586.37	2197.47
586.57	3350.48
586.76	9867.11
586.96	24456.84
587.15	34491.89
587.34	40957.33
587.54	42235.26
587.73	36664.78
587.93	26199.66
588.12	21790.39
588.31	18171.63
588.51	16236.30
588.70	15122.20
588.89	14276.39
589.09	12726.08
589.28	11171.67
589.47	9588.59
589.67	7970.69
589.86	6440.86
590.06	4890.55
590.25	3932.10
590.44	3090.38
590.64	2668.50
590.83	2281.44
591.02	2078.69
591.22	1964.00
591.41	1923.04
591.60	1783.78
591.80	1968.10
591.99	1734.63
592.18	1806.31
592.38	1826.79
592.57	1804.26
592.76	1742.82
592.96	1800.16
593.15	1775.59
593.34	1781.73
593.54	1738.73
593.73	1789.92
593.92	1751.01
594.12	1794.02
594.31	1726.44
594.50	1869.80
594.70	1798.12
594.89	1892.32
595.08	1665.00
595.28	1771.49
595.47	1851.36
595.66	1847.27
595.86	1693.67
596.05	1722.34
596.24	1763.30
596.43	1777.64
596.63	1779.68
596.82	1724.39
597.01	1714.15
597.21	1796.07
597.40	1775.59
597.59	1765.35
597.79	1689.57
597.98	1783.78
598.17	1779.68
598.36	1759.21
598.56	1785.83
598.75	1722.34
598.94	1755.11
599.14	1734.63
599.33	1773.54
599.52	1746.92
599.71	1791.97
599.91	1722.34
600.10	1714.15
600.29	1781.73
600.48	1755.11
600.68	1777.64
600.87	1777.64
601.06	1617.90
601.26	1697.77
601.45	1683.43
601.64	1665.00
601.83	1802.21
602.03	1787.88
602.22	1703.91
602.41	1761.25
602.60	1828.84
602.80	1820.64
602.99	1849.32
603.18	1712.10
603.37	1699.81
603.57	1665.00
603.76	1816.55
603.95	1779.68
604.14	1783.78
604.34	1751.01
604.53	1730.53
604.72	1689.57
604.91	1755.11
605.10	1837.03
605.30	1720.29
605.49	1855.46
605.68	1689.57
605.87	1742.82
606.07	1632.23
606.26	1759.21
606.45	1662.95
606.64	1701.86
606.84	1748.97
607.03	1695.72
607.22	1767.40
607.41	1675.24
607.60	1763.30
607.80	1755.11
607.99	1775.59
608.18	1763.30
608.37	1718.25
608.56	1718.25
608.76	1710.05
608.95	1812.45
609.14	1703.91
609.33	1720.29
609.52	1722.34
609.72	1701.86
609.91	1828.84
610.10	1687.53
610.29	1834.98
610.48	1775.59
610.68	1824.74
610.87	1755.11
611.06	1767.40
611.25	1650.66
611.44	1808.36
611.63	1748.97
611.83	1822.69
612.02	1630.18
612.21	1759.21
612.40	1621.99
612.59	1673.19
612.79	1730.53
612.98	1720.29
613.17	1728.49
613.36	1662.95
613.55	1847.27
613.74	1624.04
613.93	1695.72
614.13	1732.58
614.32	1685.48
614.51	1814.50
614.70	1771.49
614.89	1722.34
615.08	1781.73
615.28	2107.36
615.47	1607.66
615.66	1726.44
615.85	1646.57
616.04	1794.02
616.23	1710.05
616.42	1773.54
616.62	1689.57
616.81	1740.77
617.00	1644.52
617.19	1804.26
617.38	1771.49
617.57	1761.25
617.76	1734.63
617.95	1820.64
618.15	1714.15
618.34	1820.64
618.53	1630.18
618.72	1722.34
618.91	1755.11
619.10	1877.99
619.29	1722.34
619.48	1734.63
619.68	1730.53
619.87	1708.01
620.06	1646.57
620.25	1796.07
620.44	1685.48
620.63	1769.44
620.82	1673.19
621.01	1718.25
621.20	1716.20
621.39	1669.09
621.59	1763.30
621.78	1689.57
621.97	1763.30
622.16	1773.54
622.35	1724.39
622.54	1748.97
622.73	1816.55
622.92	1669.09
623.11	1708.01
623.30	1708.01
623.49	1742.82
623.68	1658.85
623.88	1826.79
624.07	1628.14
624.26	1675.24
624.45	1685.48
624.64	1757.16
624.83	1730.53
625.02	1732.58
625.21	1771.49
625.40	1648.61
625.59	1744.87
625.78	1775.59
625.97	1716.20
626.16	1779.68
626.35	1748.97
626.54	1767.40
626.74	1736.68
626.93	1687.53
627.12	1710.05
627.31	1740.77
627.50	1765.35
627.69	1740.77
627.88	1744.87
628.07	1716.20
628.26	1642.47
628.45	1675.24
628.64	1658.85
628.83	1683.43
629.02	1601.51
629.21	1728.49
629.40	1720.29
629.59	1624.04
629.78	1683.43
629.97	1771.49
630.16	1712.10
630.35	1640.42
630.54	1697.77
630.73	1703.91
630.92	1693.67
631.11	1712.10
631.30	1634.28
631.49	1675.24
631.68	1699.81
631.87	1757.16
632.06	1708.01
632.25	1857.51
632.44	1722.34
632.63	1730.53
632.82	1658.85
633.01	1652.71
633.20	1665.00
633.39	1693.67
633.58	1705.96
633.77	1742.82
633.96	1775.59
634.15	1783.78
634.34	1751.01
634.53	1726.44
634.72	1583.08
634.91	1624.04
635.10	1759.21
635.29	1687.53
635.48	1724.39
635.67	1621.99
635.86	1681.38
636.05	1722.34
636.24	1779.68
636.43	1669.09
636.62	1759.21
636.81	1609.70
637.00	1708.01
637.19	1738.73
637.38	1755.11
637.57	1652.71
637.76	1578.98
637.95	1736.68
638.14	1648.61
638.33	1748.97
638.52	1734.63
638.71	1634.28
638.89	1611.75
639.08	1832.93
639.27	1773.54
639.46	1628.14
639.65	1816.55
639.84	1705.96
640.03	1767.40
640.22	1660.90
640.41	1826.79
640.60	1718.25
640.79	1693.67
640.98	1781.73
641.17	1759.21
641.36	1720.29
641.55	1785.83
641.74	1734.63
641.92	1695.72
642.11	1585.13
642.30	1658.85
642.49	1771.49
642.68	1650.66
642.87	1681.38
643.06	1738.73
643.25	1720.29
643.44	1617.90
643.63	1691.62
643.82	1738.73
644.00	1677.29
644.19	1691.62
644.38	1654.76
644.57	1722.34
644.76	1765.35
644.95	1736.68
645.14	1714.15
645.33	1695.72
645.52	1642.47
645.71	1695.72
645.89	1669.09
646.08	1726.44
646.27	1689.57
646.46	1812.45
646.65	1763.30
646.84	1710.05
647.03	1601.51
647.22	1789.92
647.40	1726.44
647.59	1654.76
647.78	1601.51
647.97	1583.08
648.16	1642.47
648.35	1822.69
648.54	1781.73
648.73	1673.19
648.91	1730.53
649.10	1716.20
649.29	1650.66
649.48	1734.63
649.67	1748.97
649.86	1730.53
650.05	1697.77
650.23	1658.85
650.42	1624.04
650.61	1746.92
650.80	1740.77
650.99	1769.44
651.18	1771.49
651.36	1740.77
651.55	1658.85
651.74	1744.87
651.93	1740.77
652.12	1628.14
652.31	1685.48
652.49	1601.51
652.68	1705.96
652.87	1804.26
653.06	1781.73
653.25	1828.84
653.44	1691.62
653.62	1814.50
653.81	1742.82
654.00	1734.63
654.19	1791.97
654.38	1812.45
654.56	1783.78
654.75	1726.44
654.94	1757.16
655.13	1708.01
655.32	1765.35
655.51	1763.30
655.69	1648.61
655.88	1779.68
656.07	1595.37
656.26	1687.53
656.45	1632.23
656.63	1703.91
656.82	1771.49
657.01	1693.67
657.20	1697.77
657.38	1781.73
657.57	1742.82
657.76	1617.90
657.95	1748.97
658.14	1634.28
658.32	1724.39
658.51	1705.96
658.70	1687.53
658.89	1714.15
659.08	1714.15
659.26	1828.84
659.45	1681.38
659.64	1771.49
659.83	1603.56
660.01	1910.75
660.20	1695.72
660.39	1820.64
660.58	1550.31
660.76	1730.53
660.95	1591.27
661.14	1738.73
661.33	1665.00
661.51	1726.44
661.70	1634.28
661.89	1650.66
662.08	1769.44
662.26	1710.05
662.45	1703.91
662.64	1830.88
662.83	1757.16
663.01	1646.57
663.20	1679.33
663.39	1751.01
663.58	1736.68
663.76	1693.67
663.95	1667.05
664.14	1722.34
664.32	1658.85
664.51	1710.05
664.70	1685.48
664.89	1773.54
665.07	1644.52
665.26	1763.30
665.45	1708.01
665.64	1685.48
665.82	1724.39
666.01	1787.88
666.20	1640.42
666.38	1798.12
666.57	1769.44
666.76	2207.71
666.95	4435.90
667.13	10110.82
667.32	15142.68
667.51	17692.40
667.69	19044.06
667.88	17665.78
668.07	12439.36
668.25	9488.24
668.44	8159.11
668.63	7350.16
668.81	6915.99
669.00	6344.61
669.19	5775.27
669.38	5175.22
669.56	4521.92
669.75	4050.88
669.94	3360.72
670.12	3010.51
670.31	2525.15
670.50	2232.29
670.68	2002.91
670.87	1896.42
671.06	1890.28
671.24	1777.64
671.43	1880.04
671.62	1722.34
671.80	1683.43
671.99	1800.16
672.18	1796.07
672.36	1837.03
672.55	1728.49
672.74	1716.20
672.92	1677.29
673.11	1810.40
673.29	1630.18
673.48	1753.06
673.67	1660.90
673.85	1820.64
674.04	1714.15
674.23	1763.30
674.41	1771.49
674.60	1685.48
674.79	1675.24
674.97	1665.00
675.16	1767.40
675.34	1779.68
675.53	1638.38
675.72	1695.72
675.90	1716.20
676.09	1632.23
676.28	1726.44
676.46	1640.42
676.65	1746.92
676.83	1689.57
677.02	1695.72
677.21	1757.16
677.39	1816.55
677.58	1617.90
677.77	1681.38
677.95	1652.71
678.14	1800.16
678.32	1640.42
678.51	1621.99
678.70	1843.17
678.88	1632.23
679.07	1654.76
679.25	1687.53
679.44	1751.01
679.63	1640.42
679.81	1710.05
680.00	1787.88
680.18	1689.57
680.37	1789.92
680.55	1697.77
680.74	1626.09
680.93	1648.61
681.11	1755.11
681.30	1656.81
681.48	1669.09
681.67	1691.62
681.85	1697.77
682.04	1689.57
682.23	1757.16
682.41	1714.15
682.60	1726.44
682.78	1708.01
682.97	1605.61
683.15	1703.91
683.34	1736.68
683.53	1769.44
683.71	1660.90
683.90	1861.60
684.08	1746.92
684.27	1669.09
684.45	1742.82
684.64	1759.21
684.82	1660.90
685.01	1755.11
685.19	1693.67
685.38	1767.40
685.57	1695.72
685.75	1683.43
685.94	1708.01
686.12	1628.14
686.31	1644.52
686.49	1822.69
686.68	1595.37
686.86	1716.20
687.05	1644.52
687.23	1724.39
687.42	1689.57
687.60	1640.42
687.79	1767.40
687.97	1777.64
688.16	1724.39
688.34	1779.68
688.53	1603.56
688.71	1771.49
688.90	1757.16
689.08	1671.14
689.27	1615.85
689.45	1722.34
689.64	1730.53
689.82	1708.01
690.01	1703.91
690.19	1742.82
690.38	1673.19
690.56	1767.40
690.75	1710.05
690.93	1667.05
691.12	1665.00
691.30	1671.14
691.49	1667.05
691.67	1669.09
691.86	1845.22
692.04	1658.85
692.23	1689.57
692.41	1660.90
692.60	1861.60
692.78	1738.73
692.97	1683.43
693.15	1773.54
693.34	1828.84
693.52	1818.60
693.71	1687.53
693.89	1656.81
694.08	1589.22
694.26	1800.16
694.44	1746.92
694.63	1701.86
694.81	1726.44
695.00	1648.61
695.18	1730.53
695.37	1830.88
695.55	1769.44
695.74	1687.53
695.92	1658.85
696.10	1714.15
696.29	1599.46
696.47	1673.19
696.66	1693.67
696.84	1587.18
697.03	1767.40
697.21	1783.78
697.40	2265.05
697.58	1761.25
697.76	1777.64
697.95	1650.66
698.13	1708.01
698.32	1644.52
698.50	1699.81
698.68	1796.07
698.87	1701.86
699.05	1791.97
699.24	1779.68
699.42	1689.57
699.61	1712.10
699.79	1695.72
699.97	1787.88
700.16	1667.05
700.34	1691.62
700.53	1789.92
700.71	1798.12
700.89	1771.49
701.08	1732.58
701.26	1708.01
701.45	2074.59
701.63	1673.19
701.81	1755.11
702.00	1658.85
702.18	1708.01
702.37	1630.18
702.55	1771.49
702.73	1712.10
702.92	1640.42
703.10	1722.34
703.28	1779.68
703.47	1699.81
703.65	1763.30
703.84	1748.97
704.02	1691.62
704.20	1789.92
704.39	1632.23
704.57	1675.24
704.75	1703.91
704.94	1744.87
705.12	1779.68
705.30	1837.03
705.49	2174.94
705.67	4472.76
705.86	9283.44
706.04	12764.99
706.22	14337.83
706.41	15429.40
706.59	13797.17
706.77	9711.47
706.96	7370.64
707.14	6676.38
707.32	6010.79
707.51	5474.22
707.69	5005.24
707.87	4190.14
708.06	3536.84
708.24	3010.51
708.42	2445.27
708.61	2193.37
708.79	1902.56
708.97	1875.94
709.16	1800.16
709.34	1763.30
709.52	1710.05
709.71	1783.78
709.89	1708.01
710.07	1763.30
710.26	1675.24
710.44	1679.33
710.62	1804.26
710.80	1667.05
710.99	1785.83
711.17	1763.30
711.35	1636.33
711.54	1718.25
711.72	1753.06
711.90	1820.64
712.09	1714.15
712.27	1738.73
712.45	1785.83
712.63	1660.90
712.82	1677.29
713.00	1708.01
713.18	1724.39
713.37	1783.78
713.55	1703.91
713.73	1757.16
713.91	1761.25
714.10	1738.73
714.28	1701.86
714.46	1683.43
714.65	1650.66
714.83	1771.49
715.01	1744.87
715.19	1734.63
715.38	1650.66
715.56	1738.73
715.74	1673.19
715.92	1632.23
716.11	1884.13
716.29	1548.26
716.47	1607.66
716.65	1685.48
716.84	1585.13
717.02	1763.30
717.20	1583.08
717.38	1763.30
717.57	1759.21
717.75	1677.29
717.93	1710.05
718.11	1716.20
718.30	1652.71
718.48	1728.49
718.66	1753.06
718.84	1748.97
719.03	1669.09
719.21	1656.81
719.39	1802.21
719.57	1710.05
719.75	1708.01
719.94	1603.56
720.12	1675.24
720.30	1710.05
720.48	1839.08
720.67	1615.85
720.85	1693.67
721.03	1634.28
721.21	1665.00
721.39	1773.54
721.58	1746.92
721.76	1613.80
721.94	1763.30
722.12	1658.85
722.30	1787.88
722.49	1738.73
722.67	1736.68
722.85	1665.00
723.03	1634.28
723.21	1656.81
723.40	1708.01
723.58	1759.21
723.76	1695.72
723.94	1730.53
724.12	1703.91
724.30	1785.83
724.49	1742.82
724.67	1609.70
724.85	1746.92
725.03	1607.66
725.21	1687.53
725.40	1767.40
725.58	1710.05
725.76	1710.05
725.94	1708.01
726.12	1617.90
726.30	1755.11
726.49	1724.39
726.67	1685.48
726.85	1794.02
727.03	1839.08
727.21	2146.27
727.39	2861.01
727.57	3780.55
727.76	4237.25
727.94	4480.96
728.12	4358.08
728.30	3710.92
728.48	3022.80
728.66	2768.85
728.84	2551.77
729.03	2394.08
729.21	2164.70
729.39	1953.76
729.57	1867.75
729.75	1755.11
729.93	1841.12
730.11	1759.21
730.30	1669.09
730.48	1714.15
730.66	1826.79
730.84	1728.49
731.02	1658.85
731.20	1722.34
731.38	1806.31
731.56	1648.61
731.74	1599.46
731.93	1697.77
732.11	1671.14
732.29	1708.01
732.47	1734.63
732.65	1740.77
732.83	1757.16
733.01	1681.38
733.19	1677.29
733.37	1742.82
733.56	1759.21
733.74	1740.77
733.92	1781.73
734.10	1691.62
734.28	1796.07
734.46	1624.04
734.64	1652.71
734.82	1716.20
735.00	1669.09
735.18	1679.33
735.36	1736.68
735.54	1617.90
735.73	1771.49
735.91	1671.14
736.09	1665.00
736.27	1751.01
736.45	1765.35
736.63	1591.27
736.81	1689.57
736.99	1828.84
737.17	1777.64
737.35	1689.57
737.53	1712.10
737.71	1730.53
737.89	1757.16
738.07	1644.52
738.25	1671.14
738.43	1607.66
738.61	1710.05
738.80	1654.76
738.98	1626.09
739.16	1712.10
739.34	1665.00
739.52	1740.77
739.70	1673.19
739.88	1740.77
740.06	1767.40
740.24	1581.03
740.42	1748.97
740.60	1558.50
740.78	1673.19
740.96	1626.09
741.14	1710.05
741.32	1759.21
741.50	1638.38
741.68	1773.54
741.86	1746.92
742.04	1599.46
742.22	1632.23
742.40	1730.53
742.58	1699.81
742.76	1685.48
742.94	1730.53
743.12	1634.28
743.30	1705.96
743.48	1718.25
743.66	1714.15
743.84	1695.72
744.02	1689.57
744.20	1710.05
744.38	1638.38
744.56	1646.57
744.74	1759.21
744.92	1767.40
745.10	1767.40
745.28	1753.06
745.46	1800.16
745.64	1640.42
745.82	1773.54
746.00	1724.39
746.18	1718.25
746.36	1689.57
746.54	1714.15
746.72	1640.42
746.90	1624.04
747.08	1734.63
747.26	1757.16
747.44	1769.44
747.62	1683.43
747.80	1728.49
747.98	1806.31
748.15	1697.77
748.33	1765.35
748.51	1640.42
748.69	1701.86
748.87	1730.53
749.05	1619.94
749.23	1716.20
749.41	1656.81
749.59	1644.52
749.77	1794.02
749.95	1665.00
750.13	1708.01
750.31	1730.53
750.49	1640.42
750.67	1740.77
750.85	1794.02
751.03	1771.49
751.20	1859.56
751.38	1697.77
751.56	1691.62
751.74	1675.24
751.92	1673.19
752.10	1665.00
752.28	1748.97
752.46	1597.42
752.64	1677.29
752.82	1632.23
753.00	1757.16
753.18	1640.42
753.35	1691.62
753.53	1699.81
753.71	1591.27
753.89	1703.91
754.07	1738.73
754.25	1771.49
754.43	1718.25
754.61	1644.52
754.79	1705.96
754.97	1681.38
755.14	1802.21
755.32	1568.74
755.50	1683.43
755.68	1802.21
755.86	1689.57
756.04	1683.43
756.22	1634.28
756.40	1746.92
756.57	1806.31
756.75	1708.01
756.93	1806.31
757.11	1759.21
757.29	1607.66
757.47	1726.44
757.65	1611.75
757.82	1621.99
758.00	1669.09
758.18	1638.38
758.36	1693.67
758.54	1861.60
758.72	1595.37
758.90	1744.87
759.07	1759.21
759.25	1644.52
759.43	1716.20
759.61	1599.46
759.79	2185.18
759.97	1732.58
760.15	1636.33
760.32	1654.76
760.50	1705.96
760.68	1798.12
760.86	1613.80
761.04	1806.31
761.22	1714.15
761.39	1755.11
761.57	1722.34
761.75	1746.92
761.93	1722.34
762.11	1699.81
762.28	1738.73
762.46	1677.29
762.64	1763.30
762.82	1636.33
763.00	1697.77
763.18	1851.36
763.35	1599.46
763.53	1822.69
763.71	1767.40
763.89	1761.25
764.07	1691.62
764.24	1638.38
764.42	1806.31
764.60	1705.96
764.78	1781.73
764.96	1761.25
765.13	1773.54
765.31	1728.49
765.49	1748.97
765.67	1683.43
765.84	1654.76
766.02	1740.77
766.20	1613.80
766.38	1681.38
766.56	1763.30
766.73	1687.53
766.91	1705.96
767.09	1730.53
767.27	1759.21
767.44	1689.57
767.62	1791.97
767.80	1777.64
767.98	1683.43
768.15	1632.23
768.33	1783.78
768.51	1746.92
768.69	1679.33
768.87	1699.81
769.04	1695.72
769.22	1779.68
769.40	1748.97
769.58	1869.80
769.75	1726.44
769.93	1824.74
770.11	1699.81
770.28	1705.96
770.46	1669.09
770.64	1734.63
770.82	1654.76
770.99	1691.62
771.17	1636.33
771.35	1634.28
771.53	1689.57
771.70	1607.66
771.88	1794.02
772.06	1679.33
772.23	1654.76
772.41	1751.01
772.59	1701.86
772.77	1728.49
772.94	1757.16
773.12	1796.07
773.30	1759.21
773.47	1738.73
773.65	1662.95
773.83	1742.82
774.01	1691.62
774.18	1605.61
774.36	1697.77
774.54	1636.33
774.71	1626.09
774.89	1636.33
775.07	1621.99
775.24	1642.47
775.42	1677.29
775.60	1804.26
775.78	1710.05
775.95	1617.90
776.13	1624.04
776.31	1546.22
776.48	1771.49
776.66	1720.29
776.84	1685.48
777.01	1599.46
777.19	1650.66
777.37	1718.25
777.54	1734.63
777.72	1808.36
777.90	1751.01
778.07	1624.04
778.25	1912.80
778.43	1824.74
778.60	1691.62
778.78	1732.58
778.96	1748.97
779.13	1658.85
779.31	1718.25
779.49	1724.39
779.66	1751.01
779.84	1679.33
780.01	1681.38
780.19	1699.81
780.37	1687.53
780.54	1759.21
780.72	1693.67
780.90	1683.43
781.07	1705.96
781.25	1751.01
781.43	1665.00
781.60	1763.30
781.78	1775.59
781.95	1732.58
782.13	1626.09
782.31	1738.73
782.48	1665.00
782.66	1658.85
782.83	1794.02
783.01	1718.25
783.19	1714.15
783.36	1658.85
783.54	1644.52
783.72	1730.53
783.89	1701.86
784.07	1716.20
784.24	1701.86
784.42	1820.64
784.60	1724.39
784.77	1714.15
784.95	1574.89
785.12	1667.05
785.30	1728.49
785.47	1628.14
785.65	1658.85
785.83	1669.09
786.00	1746.92
786.18	1748.97
786.35	1654.76
786.53	1638.38
786.71	1787.88
786.88	1708.01
787.06	1726.44
787.23	1705.96
787.41	1679.33
787.58	1781.73
787.76	1673.19
787.94	1640.42
788.11	1699.81
788.29	1677.29
788.46	1644.52
788.64	1628.14
788.81	1701.86
788.99	1673.19
789.16	1632.23
789.34	1671.14
789.52	1591.27
789.69	1748.97
789.87	1642.47
790.04	1648.61
790.22	1691.62
790.39	1773.54
790.57	1718.25
790.74	1630.18
790.92	1744.87
791.09	1718.25
791.27	1779.68
791.44	1798.12
791.62	1669.09
791.79	1699.81
791.97	1685.48
792.15	1910.75
792.32	1767.40
792.50	1691.62
792.67	1744.87
792.85	1771.49
793.02	1740.77
793.20	1671.14
793.37	1568.74
793.55	1658.85
793.72	1628.14
793.90	1705.96
794.07	1699.81
794.25	1613.80
794.42	1654.76
794.60	1751.01
794.77	1761.25
794.95	1722.34
795.12	1744.87
795.30	1714.15
795.47	1669.09
795.65	1888.23
795.82	1779.68
796.00	1701.86
796.17	1753.06
796.34	1763.30
796.52	1669.09
796.69	1787.88
796.87	1761.25
797.04	1718.25
797.22	1783.78
797.39	1652.71
797.57	1738.73
797.74	1718.25
797.92	1703.91
798.09	1650.66
798.27	1769.44
798.44	1697.77
798.62	1660.90
798.79	1667.05
798.96	1669.09
799.14	1683.43
799.31	1761.25
799.49	1658.85
799.66	1695.72
799.84	1683.43
800.01	1640.42
800.19	1656.81
800.36	1544.17
800.53	1712.10
800.71	1753.06
800.88	1830.88
801.06	1662.95
801.23	1722.34
801.41	1746.92
801.58	1617.90
801.75	1691.62
801.93	1685.48
802.10	1748.97
802.28	1677.29
802.45	1642.47
802.63	1736.68
802.80	1730.53
802.97	1669.09
803.15	1730.53
803.32	1716.20
803.50	1617.90
803.67	1689.57
803.84	1589.22
804.02	1681.38
804.19	1718.25
804.37	1597.42
804.54	1679.33
804.71	1646.57
804.89	1669.09
805.06	1665.00
805.24	1595.37
805.41	1701.86
805.58	1619.94
805.76	1783.78
805.93	1636.33
806.10	1794.02
806.28	1712.10
806.45	1671.14
806.63	1738.73
806.80	1787.88
806.97	1675.24
807.15	1656.81
807.32	1730.53
807.49	1673.19
807.67	1624.04
807.84	1689.57
808.01	1642.47
808.19	1796.07
808.36	1824.74
808.54	1718.25
808.71	1701.86
808.88	1753.06
809.06	1751.01
809.23	1697.77
809.40	1621.99
809.58	1757.16
809.75	1728.49
809.92	1685.48
810.10	1800.16
810.27	1673.19
810.44	1759.21
810.62	1812.45
810.79	1714.15
810.96	1714.15
811.14	1724.39
811.31	1732.58
811.48	1744.87
811.66	1712.10
811.83	1763.30
812.00	1759.21
812.18	1734.63
812.35	1837.03
812.52	1671.14
812.69	1667.05
812.87	1654.76
813.04	1642.47
813.21	1681.38
813.39	1636.33
813.56	1611.75
813.73	1687.53
813.91	1585.13
814.08	1705.96
814.25	1730.53
814.42	1652.71
814.60	1722.34
814.77	1685.48
814.94	1705.96
815.12	1683.43
815.29	1736.68
815.46	1634.28
815.63	1734.63
815.81	1712.10
815.98	1667.05
816.15	1640.42
816.33	1716.20
816.50	1695.72
816.67	1687.53
816.84	1728.49
817.02	1648.61
817.19	1654.76
817.36	1755.11
817.53	1798.12
817.71	1585.13
817.88	1753.06
818.05	1685.48
818.22	1632.23
818.40	1759.21
818.57	1599.46
818.74	1785.83
818.91	1718.25
819.09	1691.62
819.26	1736.68
819.43	1593.32
819.60	1658.85
819.78	1734.63
819.95	1787.88
820.12	1636.33
820.29	1748.97
820.47	1824.74
820.64	1683.43
820.81	1572.84
820.98	1746.92
821.15	1701.86
821.33	1761.25
821.50	1589.22
821.67	1683.43
821.84	1675.24
822.02	1720.29
822.19	1757.16
822.36	1628.14
822.53	1665.00
822.70	1558.50
822.88	1679.33
823.05	1818.60
823.22	1742.82
823.39	1658.85
823.56	1740.77
823.74	1732.58
823.91	1656.81
824.08	1656.81
824.25	1677.29
824.42	1753.06
824.60	1656.81
824.77	1673.19
824.94	1740.77
825.11	1667.05
825.28	1628.14
825.45	1667.05
825.63	1767.40
825.80	1699.81
825.97	1673.19
826.14	1679.33
826.31	1632.23
826.48	1658.85
826.66	1621.99
826.83	1718.25
827.00	1679.33
827.17	1691.62
827.34	1656.81
827.51	1681.38
827.69	1714.15
827.86	1603.56
828.03	1658.85
828.20	1710.05
828.37	1574.89
828.54	1775.59
828.71	1585.13
828.89	1724.39
829.06	1783.78
829.23	1769.44
829.40	1630.18
829.57	1621.99
829.74	1730.53
829.91	1701.86
830.09	1701.86
830.26	1667.05
830.43	1759.21
830.60	1699.81
830.77	1726.44
830.94	1722.34
831.11	1699.81
831.28	1736.68
831.46	1796.07
831.63	1650.66
831.80	1787.88
831.97	1712.10
832.14	1642.47
832.31	1724.39
832.48	1777.64
832.65	1804.26
832.82	1669.09
832.99	1724.39
833.17	1607.66
833.34	1806.31
833.51	1734.63
833.68	1652.71
833.85	1757.16
834.02	1675.24
834.19	1613.80
834.36	1695.72
834.53	1708.01
834.70	1800.16
834.87	1775.59
835.04	1761.25
835.22	1683.43
835.39	1703.91
835.56	1533.93
835.73	1701.86
835.90	1662.95
836.07	1552.36
836.24	1705.96
836.41	1724.39
836.58	1656.81
836.75	1710.05
836.92	1761.25
837.09	1697.77
837.26	1681.38
837.43	1724.39
837.60	1757.16
837.77	1687.53
837.94	1693.67
838.12	1714.15
838.29	1716.20
838.46	1593.32
838.63	1689.57
838.80	1708.01
838.97	1808.36
839.14	1695.72
839.31	1726.44
839.48	1708.01
839.65	1705.96
839.82	1718.25
839.99	1732.58
840.16	1710.05
840.33	1632.23
840.50	1730.53
840.67	1599.46
840.84	1593.32
841.01	1697.77
841.18	1660.90
841.35	1699.81
841.52	1738.73
841.69	1851.36
841.86	1748.97
842.03	1638.38
842.20	1771.49
842.37	1734.63
842.54	1685.48
842.71	1718.25
842.88	1581.03
843.05	1771.49
843.22	1705.96
843.39	1763.30
843.56	1722.34
843.73	1710.05
843.90	1738.73
844.07	1701.86
844.24	1761.25
844.41	1748.97
844.58	1667.05
844.75	1632.23
844.92	1708.01
845.09	1632.23
845.26	1656.81
845.43	1714.15
845.60	1626.09
845.77	1753.06
845.94	1701.86
846.10	1726.44
846.27	1665.00
846.44	1626.09
846.61	1632.23
846.78	1785.83
846.95	1779.68
847.12	1685.48
847.29	1744.87
847.46	1650.66
847.63	1726.44
847.80	1679.33
847.97	1667.05
848.14	1773.54
848.31	1662.95
848.48	1652.71
848.65	1648.61
848.82	1714.15
848.98	1828.84
849.15	1796.07
849.32	1787.88
849.49	1769.44
849.66	1722.34
849.83	1710.05
850.00	1646.57
850.17	1726.44
850.34	1603.56
850.51	1609.70
850.68	1626.09
850.85	1800.16
851.01	1738.73
851.18	1673.19
851.35	1687.53
851.52	1689.57
851.69	1800.16
851.86	1581.03
852.03	1673.19
852.20	1771.49
852.37	1705.96
852.53	1566.70
852.70	1675.24
852.87	1720.29
853.04	1728.49
853.21	1689.57
853.38	1775.59
853.55	1802.21
853.72	1740.77
853.89	1669.09
854.05	1646.57
854.22	1656.81
854.39	1642.47
854.56	1810.40
854.73	1787.88
854.90	1667.05
855.07	1691.62
855.23	1710.05
855.40	1662.95
855.57	1689.57
855.74	1660.90
855.91	1894.37
856.08	1587.18
856.25	1605.61
856.41	1646.57
856.58	1650.66
856.75	1648.61
856.92	1566.70
857.09	1697.77
857.26	1667.05
857.42	1656.81
857.59	1759.21
857.76	1695.72
857.93	1613.80
858.10	1697.77
858.27	1624.04
858.43	1699.81
858.60	1619.94
858.77	1673.19
858.94	1726.44
859.11	1789.92
859.27	1636.33
859.44	1697.77
859.61	1828.84
859.78	1710.05
859.95	1656.81
860.12	1640.42
860.28	1808.36
860.45	1732.58
860.62	1693.67
860.79	1712.10
860.95	1632.23
861.12	1617.90
861.29	1681.38
861.46	1638.38
861.63	1640.42
861.79	1732.58
861.96	1640.42
862.13	1603.56
862.30	1695.72
862.47	1671.14
862.63	1724.39
862.80	1816.55
862.97	1691.62
863.14	1722.34
863.30	1732.58
863.47	1728.49
863.64	1761.25
863.81	1726.44
863.97	1646.57
864.14	1656.81
864.31	1652.71
864.48	1791.97
864.65	1638.38
864.81	1701.86
864.98	1742.82
865.15	1685.48
865.32	1783.78
865.48	1699.81
865.65	1730.53
865.82	1636.33
865.98	1718.25
866.15	1730.53
866.32	1599.46
866.49	1568.74
866.65	1775.59
866.82	1621.99
866.99	1607.66
867.16	1640.42
867.32	1615.85
867.49	1724.39
867.66	1695.72
867.83	1613.80
867.99	1599.46
868.16	1691.62
868.33	1660.90
868.49	1710.05
868.66	1658.85
868.83	1751.01
868.99	1636.33
869.16	1630.18
869.33	1736.68
869.50	1804.26
869.66	1640.42
869.83	1669.09
870.00	1617.90
870.16	1740.77
870.33	1736.68
870.50	1720.29
870.66	1712.10
870.83	1777.64
871.00	1673.19
871.17	1736.68
871.33	1716.20
871.50	1628.14
871.67	1673.19
871.83	1591.27
872.00	1767.40
872.17	1683.43
872.33	1769.44
872.50	1693.67
872.67	1665.00
872.83	1640.42
873.00	1675.24
873.17	1748.97
873.33	1798.12
873.50	1701.86
873.67	1581.03
873.83	1640.42
874.00	1597.42
874.16	1753.06
874.33	1636.33
874.50	1576.94
874.66	1714.15
874.83	1650.66
875.00	1751.01
875.16	1832.93
875.33	1761.25
875.50	1669.09
875.66	1722.34
875.83	1669.09
875.99	1722.34
876.16	1697.77
876.33	1601.51
876.49	1726.44
876.66	1697.77
876.83	1677.29
876.99	1632.23
877.16	1640.42
877.32	1669.09
877.49	1654.76
877.66	1689.57
877.82	1703.91
877.99	1626.09
878.15	1765.35
878.32	1650.66
878.49	1738.73
878.65	1660.90
878.82	1767.40
878.98	1701.86
879.15	1722.34
879.32	1695.72
879.48	1757.16
879.65	1650.66
879.81	1595.37
879.98	1683.43
880.15	1734.63
880.31	1693.67
880.48	1673.19
880.64	1789.92
880.81	1671.14
880.97	1794.02
881.14	1734.63
881.31	1658.85
881.47	1853.41
881.64	1671.14
881.80	1611.75
881.97	1736.68
882.13	1718.25
882.30	1654.76
882.47	1656.81
882.63	1642.47
882.80	1712.10
882.96	1640.42
883.13	1800.16
883.29	1718.25
883.46	1769.44
883.62	1804.26
883.79	1695.72
883.95	1744.87
884.12	1626.09
884.29	1708.01
884.45	1656.81
884.62	1812.45
884.78	1568.74
884.95	1736.68
885.11	1628.14
885.28	1720.29
885.44	1742.82
885.61	1708.01
885.77	1742.82
885.94	1703.91
886.10	1675.24
886.27	1685.48
886.43	1843.17
886.60	1736.68
886.76	1646.57
886.93	1601.51
887.09	1697.77
887.26	1591.27
887.42	1683.43
887.59	1791.97
887.75	1837.03
887.92	1734.63
888.08	1775.59
888.25	1791.97
888.41	1724.39
888.58	1701.86
888.74	1603.56
888.91	1628.14
>>>>>End Processed Spectral Data<<<<<
