SpectraSuite Data File
++++++++++++++++++++++++++++++++++++
Date: Mon Jun 06 13:04:57 CEST 2016
User: root
Dark Spectrum Present: No
Reference Spectrum Present: No
Number of Sampled Component Spectra: 1
Spectrometers: USB4C02835
Integration Time (usec): 100000 (USB4C02835)
Spectra Averaged: 1 (USB4C02835)
Boxcar Smoothing: 0 (USB4C02835)
Correct for Electrical Dark: No (USB4C02835)
Strobe/Lamp Enabled: No (USB4C02835)
Correct for Detector Non-linearity: No (USB4C02835)
Correct for Stray Light: No (USB4C02835)
Number of Pixels in Processed Spectrum: 3648
>>>>>Begin Processed Spectral Data<<<<<
177.47	1480.68
177.69	1480.68
177.91	1480.68
178.13	1497.07
178.36	1488.87
178.58	1669.09
178.80	1703.91
179.02	1624.04
179.24	1730.53
179.46	1642.47
179.68	1734.63
179.90	1738.73
180.13	1693.67
180.35	1589.22
180.57	1742.82
180.79	1703.91
181.01	1722.34
181.23	1689.57
181.45	1744.87
181.67	1671.14
181.90	1714.15
182.12	1695.72
182.34	1599.46
182.56	1681.38
182.78	1693.67
183.00	1724.39
183.22	1671.14
183.44	1626.09
183.66	1781.73
183.89	1748.97
184.11	1730.53
184.33	1722.34
184.55	1769.44
184.77	1730.53
184.99	1683.43
185.21	1697.77
185.43	1841.12
185.65	1667.05
185.87	1798.12
186.10	1849.32
186.32	1863.65
186.54	1798.12
186.76	1781.73
186.98	1675.24
187.20	1722.34
187.42	1675.24
187.64	1697.77
187.86	1751.01
188.08	1722.34
188.30	1658.85
188.52	1689.57
188.75	1816.55
188.97	1794.02
189.19	1761.25
189.41	1644.52
189.63	1667.05
189.85	1660.90
190.07	1646.57
190.29	1611.75
190.51	1658.85
190.73	1593.32
190.95	1746.92
191.17	1683.43
191.39	1615.85
191.61	1662.95
191.84	1722.34
192.06	1796.07
192.28	1669.09
192.50	1886.18
192.72	1744.87
192.94	1722.34
193.16	1732.58
193.38	1724.39
193.60	1591.27
193.82	1716.20
194.04	1732.58
194.26	1740.77
194.48	1611.75
194.70	1710.05
194.92	1669.09
195.14	1746.92
195.36	1687.53
195.58	1701.86
195.80	1693.67
196.02	1634.28
196.24	1665.00
196.46	1687.53
196.69	1667.05
196.91	1902.56
197.13	1652.71
197.35	1689.57
197.57	1730.53
197.79	1810.40
198.01	1697.77
198.23	1710.05
198.45	1697.77
198.67	1619.94
198.89	1705.96
199.11	1675.24
199.33	1621.99
199.55	1558.50
199.77	1710.05
199.99	1751.01
200.21	1646.57
200.43	1705.96
200.65	1634.28
200.87	1554.41
201.09	1763.30
201.31	1734.63
201.53	1777.64
201.75	1798.12
201.97	1662.95
202.19	1759.21
202.41	1662.95
202.63	1773.54
202.85	1753.06
203.07	1730.53
203.29	1640.42
203.51	1630.18
203.73	1650.66
203.95	1832.93
204.17	1611.75
204.39	1812.45
204.61	1705.96
204.83	1681.38
205.05	1753.06
205.27	1720.29
205.49	1826.79
205.71	1581.03
205.93	1671.14
206.15	1736.68
206.37	1658.85
206.59	1654.76
206.81	1691.62
207.03	1609.70
207.25	1630.18
207.47	1763.30
207.69	1691.62
207.91	1869.80
208.13	1757.16
208.34	1695.72
208.56	1638.38
208.78	1691.62
209.00	1617.90
209.22	1660.90
209.44	1710.05
209.66	1617.90
209.88	1716.20
210.10	1624.04
210.32	1685.48
210.54	1718.25
210.76	1691.62
210.98	1673.19
211.20	1617.90
211.42	1738.73
211.64	1763.30
211.86	1734.63
212.08	1665.00
212.30	1759.21
212.52	1652.71
212.74	1791.97
212.96	1681.38
213.17	1703.91
213.39	1697.77
213.61	1785.83
213.83	1794.02
214.05	1611.75
214.27	1744.87
214.49	1669.09
214.71	1679.33
214.93	1763.30
215.15	1648.61
215.37	1767.40
215.59	1648.61
215.81	1841.12
216.03	1779.68
216.24	1732.58
216.46	1658.85
216.68	1724.39
216.90	1789.92
217.12	1781.73
217.34	1654.76
217.56	1755.11
217.78	1779.68
218.00	1677.29
218.22	1738.73
218.44	1705.96
218.66	1675.24
218.87	1861.60
219.09	1669.09
219.31	1708.01
219.53	1640.42
219.75	1703.91
219.97	1705.96
220.19	1710.05
220.41	1615.85
220.63	1738.73
220.85	1777.64
221.06	1673.19
221.28	1763.30
221.50	1683.43
221.72	1662.95
221.94	1656.81
222.16	1675.24
222.38	1757.16
222.60	1734.63
222.82	1665.00
223.03	1765.35
223.25	1607.66
223.47	1744.87
223.69	1722.34
223.91	1789.92
224.13	1710.05
224.35	1648.61
224.57	1759.21
224.78	1757.16
225.00	1599.46
225.22	1646.57
225.44	1716.20
225.66	1701.86
225.88	1673.19
226.10	1783.78
226.32	1767.40
226.53	1818.60
226.75	1669.09
226.97	1681.38
227.19	1746.92
227.41	1679.33
227.63	1650.66
227.85	1630.18
228.06	1675.24
228.28	1681.38
228.50	1771.49
228.72	1658.85
228.94	1652.71
229.16	1591.27
229.37	1632.23
229.59	1695.72
229.81	1689.57
230.03	1564.65
230.25	1669.09
230.47	1656.81
230.69	1624.04
230.90	1810.40
231.12	1607.66
231.34	1681.38
231.56	1775.59
231.78	1593.32
232.00	1728.49
232.21	1699.81
232.43	1658.85
232.65	1603.56
232.87	1722.34
233.09	1615.85
233.30	1689.57
233.52	1701.86
233.74	1611.75
233.96	1619.94
234.18	1722.34
234.40	1742.82
234.61	1869.80
234.83	1638.38
235.05	1617.90
235.27	1775.59
235.49	1742.82
235.70	1746.92
235.92	1726.44
236.14	1705.96
236.36	1826.79
236.58	1617.90
236.79	1714.15
237.01	1701.86
237.23	1724.39
237.45	1851.36
237.67	1673.19
237.88	1665.00
238.10	1791.97
238.32	1617.90
238.54	1708.01
238.76	1742.82
238.97	1595.37
239.19	1640.42
239.41	1746.92
239.63	1773.54
239.85	1687.53
240.06	1689.57
240.28	1671.14
240.50	1787.88
240.72	1708.01
240.93	1681.38
241.15	1796.07
241.37	1662.95
241.59	1751.01
241.81	1617.90
242.02	1746.92
242.24	1689.57
242.46	1734.63
242.68	1583.08
242.89	1740.77
243.11	1736.68
243.33	1681.38
243.55	1779.68
243.76	1675.24
243.98	1673.19
244.20	1648.61
244.42	1667.05
244.64	1636.33
244.85	1701.86
245.07	1591.27
245.29	1777.64
245.51	1691.62
245.72	1742.82
245.94	1816.55
246.16	1648.61
246.38	1765.35
246.59	1705.96
246.81	1632.23
247.03	1662.95
247.24	1544.17
247.46	1650.66
247.68	1691.62
247.90	1710.05
248.11	1697.77
248.33	1751.01
248.55	1634.28
248.77	1740.77
248.98	1771.49
249.20	1779.68
249.42	1665.00
249.64	1740.77
249.85	1648.61
250.07	1642.47
250.29	1714.15
250.50	1751.01
250.72	1652.71
250.94	1773.54
251.16	1812.45
251.37	1806.31
251.59	1701.86
251.81	1736.68
252.02	1787.88
252.24	1656.81
252.46	1771.49
252.68	1658.85
252.89	1689.57
253.11	1599.46
253.33	1890.28
253.54	1808.36
253.76	1619.94
253.98	1681.38
254.20	1691.62
254.41	1640.42
254.63	1665.00
254.85	1665.00
255.06	1730.53
255.28	1615.85
255.50	1697.77
255.71	1632.23
255.93	1632.23
256.15	1648.61
256.36	1681.38
256.58	1669.09
256.80	1755.11
257.02	1744.87
257.23	1652.71
257.45	1720.29
257.67	1748.97
257.88	1605.61
258.10	1716.20
258.32	1685.48
258.53	1685.48
258.75	1705.96
258.97	1619.94
259.18	1685.48
259.40	1689.57
259.62	1785.83
259.83	1773.54
260.05	1708.01
260.27	2009.06
260.48	1734.63
260.70	1634.28
260.92	1712.10
261.13	1660.90
261.35	1683.43
261.57	1710.05
261.78	1597.42
262.00	1665.00
262.22	1708.01
262.43	1691.62
262.65	1751.01
262.86	1683.43
263.08	1849.32
263.30	1755.11
263.51	1619.94
263.73	1746.92
263.95	1779.68
264.16	1617.90
264.38	1689.57
264.60	1714.15
264.81	1667.05
265.03	1753.06
265.25	1693.67
265.46	1699.81
265.68	1783.78
265.89	1757.16
266.11	1572.84
266.33	1787.88
266.54	1730.53
266.76	1736.68
266.98	1753.06
267.19	1736.68
267.41	1837.03
267.62	1726.44
267.84	1566.70
268.06	1767.40
268.27	1705.96
268.49	1849.32
268.70	1779.68
268.92	1642.47
269.14	1568.74
269.35	1648.61
269.57	1681.38
269.79	1734.63
270.00	1669.09
270.22	1789.92
270.43	1636.33
270.65	1568.74
270.87	1751.01
271.08	1746.92
271.30	1722.34
271.51	1673.19
271.73	1841.12
271.95	1820.64
272.16	1687.53
272.38	1730.53
272.59	1640.42
272.81	1687.53
273.02	1665.00
273.24	1732.58
273.46	1740.77
273.67	1691.62
273.89	1644.52
274.10	1771.49
274.32	1714.15
274.54	1603.56
274.75	1718.25
274.97	1624.04
275.18	1654.76
275.40	1675.24
275.61	1746.92
275.83	1771.49
276.05	1611.75
276.26	1716.20
276.48	1710.05
276.69	1624.04
276.91	1638.38
277.12	1796.07
277.34	1755.11
277.55	1787.88
277.77	1746.92
277.99	1720.29
278.20	1662.95
278.42	1656.81
278.63	1644.52
278.85	1615.85
279.06	1693.67
279.28	1705.96
279.49	1722.34
279.71	1789.92
279.93	1681.38
280.14	1791.97
280.36	1714.15
280.57	1798.12
280.79	1744.87
281.00	1689.57
281.22	1681.38
281.43	1718.25
281.65	1624.04
281.86	1675.24
282.08	1697.77
282.29	1880.04
282.51	1519.59
282.73	1724.39
282.94	1640.42
283.16	1798.12
283.37	1791.97
283.59	1791.97
283.80	1722.34
284.02	1636.33
284.23	1669.09
284.45	1652.71
284.66	1689.57
284.88	1708.01
285.09	1689.57
285.31	1691.62
285.52	1777.64
285.74	1640.42
285.95	1660.90
286.17	1753.06
286.38	1712.10
286.60	1650.66
286.81	1654.76
287.03	1732.58
287.24	1671.14
287.46	1628.14
287.67	1683.43
287.89	1806.31
288.10	1703.91
288.32	1703.91
288.53	1761.25
288.75	1710.05
288.96	1669.09
289.18	1691.62
289.39	1691.62
289.61	1716.20
289.82	1761.25
290.04	1753.06
290.25	1585.13
290.47	1691.62
290.68	1630.18
290.90	1720.29
291.11	1720.29
291.33	1712.10
291.54	1693.67
291.76	1677.29
291.97	1628.14
292.18	1757.16
292.40	1652.71
292.61	1650.66
292.83	1839.08
293.04	1697.77
293.26	1673.19
293.47	1693.67
293.69	1671.14
293.90	1714.15
294.12	1839.08
294.33	1726.44
294.55	1705.96
294.76	1734.63
294.97	1757.16
295.19	1839.08
295.40	1652.71
295.62	1763.30
295.83	1732.58
296.05	1693.67
296.26	1808.36
296.48	1583.08
296.69	1712.10
296.90	1683.43
297.12	1730.53
297.33	1753.06
297.55	1734.63
297.76	1730.53
297.98	1757.16
298.19	1716.20
298.41	1693.67
298.62	1652.71
298.83	1746.92
299.05	1720.29
299.26	1660.90
299.48	1656.81
299.69	1695.72
299.90	1710.05
300.12	1697.77
300.33	1742.82
300.55	1759.21
300.76	1685.48
300.98	1648.61
301.19	1742.82
301.40	1640.42
301.62	1675.24
301.83	1742.82
302.05	1740.77
302.26	1759.21
302.47	1679.33
302.69	1615.85
302.90	1640.42
303.12	1601.51
303.33	1685.48
303.54	1806.31
303.76	1644.52
303.97	1697.77
304.19	1781.73
304.40	1630.18
304.61	1738.73
304.83	1806.31
305.04	1748.97
305.26	1708.01
305.47	1597.42
305.68	1638.38
305.90	1677.29
306.11	1705.96
306.33	1748.97
306.54	1593.32
306.75	1611.75
306.97	1619.94
307.18	1689.57
307.39	1701.86
307.61	1734.63
307.82	1716.20
308.04	1712.10
308.25	1665.00
308.46	1730.53
308.68	1677.29
308.89	1744.87
309.10	1753.06
309.32	1734.63
309.53	1673.19
309.74	1777.64
309.96	1701.86
310.17	1794.02
310.39	1644.52
310.60	1708.01
310.81	1732.58
311.03	1675.24
311.24	1689.57
311.45	1701.86
311.67	1832.93
311.88	1763.30
312.09	1652.71
312.31	1667.05
312.52	1693.67
312.73	1726.44
312.95	1673.19
313.16	1710.05
313.37	1855.46
313.59	1742.82
313.80	1718.25
314.01	1759.21
314.23	1648.61
314.44	1621.99
314.65	1603.56
314.87	1605.61
315.08	1617.90
315.29	1703.91
315.51	1660.90
315.72	1587.18
315.93	1839.08
316.15	1796.07
316.36	1681.38
316.57	1654.76
316.79	1708.01
317.00	1701.86
317.21	1710.05
317.43	1685.48
317.64	1673.19
317.85	1677.29
318.07	1611.75
318.28	1705.96
318.49	1886.18
318.70	1871.84
318.92	1824.74
319.13	1843.17
319.34	1824.74
319.56	1775.59
319.77	1853.41
319.98	1816.55
320.20	1777.64
320.41	1703.91
320.62	1753.06
320.83	1718.25
321.05	1826.79
321.26	1667.05
321.47	1697.77
321.69	1769.44
321.90	1617.90
322.11	1697.77
322.32	1726.44
322.54	1777.64
322.75	1634.28
322.96	1839.08
323.18	1605.61
323.39	1609.70
323.60	1697.77
323.81	1703.91
324.03	1675.24
324.24	1726.44
324.45	1691.62
324.66	1621.99
324.88	1767.40
325.09	1781.73
325.30	1732.58
325.52	1699.81
325.73	1689.57
325.94	1693.67
326.15	1660.90
326.37	1689.57
326.58	1724.39
326.79	1824.74
327.00	1665.00
327.22	1665.00
327.43	1722.34
327.64	1656.81
327.85	1673.19
328.07	1624.04
328.28	1837.03
328.49	1654.76
328.70	1628.14
328.92	1703.91
329.13	1693.67
329.34	1761.25
329.55	1789.92
329.76	1691.62
329.98	1640.42
330.19	1763.30
330.40	1802.21
330.61	1742.82
330.83	1730.53
331.04	1705.96
331.25	1753.06
331.46	1613.80
331.68	1673.19
331.89	1783.78
332.10	1685.48
332.31	1677.29
332.52	1728.49
332.74	1769.44
332.95	1611.75
333.16	1716.20
333.37	1755.11
333.58	1656.81
333.80	1712.10
334.01	1603.56
334.22	1722.34
334.43	1634.28
334.64	1636.33
334.86	1607.66
335.07	1632.23
335.28	1708.01
335.49	1636.33
335.70	1673.19
335.92	1755.11
336.13	1800.16
336.34	1710.05
336.55	1691.62
336.76	1759.21
336.98	1617.90
337.19	1746.92
337.40	1806.31
337.61	1888.23
337.82	1691.62
338.04	1771.49
338.25	1613.80
338.46	1658.85
338.67	1746.92
338.88	1585.13
339.09	1734.63
339.31	1675.24
339.52	1662.95
339.73	1683.43
339.94	1689.57
340.15	1767.40
340.36	1679.33
340.58	1669.09
340.79	1646.57
341.00	1757.16
341.21	1624.04
341.42	1806.31
341.63	1716.20
341.85	1773.54
342.06	1640.42
342.27	1677.29
342.48	1751.01
342.69	1591.27
342.90	1699.81
343.12	1671.14
343.33	1624.04
343.54	1679.33
343.75	1738.73
343.96	1652.71
344.17	1611.75
344.38	1687.53
344.60	1638.38
344.81	1677.29
345.02	1701.86
345.23	1714.15
345.44	1781.73
345.65	1708.01
345.86	1689.57
346.07	1703.91
346.29	1759.21
346.50	1726.44
346.71	1714.15
346.92	1841.12
347.13	1861.60
347.34	1687.53
347.55	1724.39
347.76	1730.53
347.98	1644.52
348.19	1669.09
348.40	1789.92
348.61	1650.66
348.82	1718.25
349.03	1734.63
349.24	1679.33
349.45	1800.16
349.66	1572.84
349.88	1742.82
350.09	1617.90
350.30	1734.63
350.51	1810.40
350.72	1689.57
350.93	1765.35
351.14	1671.14
351.35	1685.48
351.56	1708.01
351.77	1685.48
351.99	1732.58
352.20	1839.08
352.41	1777.64
352.62	1546.22
352.83	1642.47
353.04	1675.24
353.25	1740.77
353.46	1718.25
353.67	1728.49
353.88	1538.02
354.09	1689.57
354.30	1703.91
354.52	1759.21
354.73	1681.38
354.94	1722.34
355.15	1748.97
355.36	1736.68
355.57	1648.61
355.78	1748.97
355.99	1652.71
356.20	1687.53
356.41	1820.64
356.62	1755.11
356.83	1736.68
357.04	1814.50
357.25	1583.08
357.46	1656.81
357.68	1609.70
357.89	1701.86
358.10	1675.24
358.31	1662.95
358.52	1757.16
358.73	1626.09
358.94	1640.42
359.15	1695.72
359.36	1697.77
359.57	1738.73
359.78	1681.38
359.99	1667.05
360.20	1640.42
360.41	1605.61
360.62	1722.34
360.83	1757.16
361.04	1699.81
361.25	1650.66
361.46	1755.11
361.67	1722.34
361.88	1708.01
362.09	1746.92
362.30	1714.15
362.51	1724.39
362.72	1677.29
362.93	1759.21
363.14	1777.64
363.35	1757.16
363.56	1662.95
363.78	1779.68
363.99	1718.25
364.20	1589.22
364.41	1730.53
364.62	1800.16
364.83	1660.90
365.04	1677.29
365.25	1689.57
365.46	1789.92
365.67	1683.43
365.88	1697.77
366.09	1642.47
366.30	1718.25
366.51	1771.49
366.72	1634.28
366.93	1675.24
367.14	1681.38
367.35	1753.06
367.56	1701.86
367.77	1767.40
367.98	1744.87
368.18	1746.92
368.39	1683.43
368.60	1644.52
368.81	1726.44
369.02	1732.58
369.23	1642.47
369.44	1681.38
369.65	1675.24
369.86	1730.53
370.07	1824.74
370.28	1619.94
370.49	1701.86
370.70	1667.05
370.91	1677.29
371.12	1624.04
371.33	1796.07
371.54	1619.94
371.75	1820.64
371.96	1593.32
372.17	1716.20
372.38	1654.76
372.59	1669.09
372.80	1595.37
373.01	1683.43
373.22	1662.95
373.43	1789.92
373.64	1583.08
373.85	1759.21
374.06	1724.39
374.26	1681.38
374.47	1746.92
374.68	1800.16
374.89	1681.38
375.10	1599.46
375.31	1732.58
375.52	1718.25
375.73	1693.67
375.94	1626.09
376.15	1789.92
376.36	1679.33
376.57	1681.38
376.78	1683.43
376.99	1691.62
377.20	1736.68
377.40	1576.94
377.61	1765.35
377.82	1607.66
378.03	1800.16
378.24	1820.64
378.45	1685.48
378.66	1644.52
378.87	1648.61
379.08	1691.62
379.29	1734.63
379.50	1806.31
379.71	1665.00
379.91	1777.64
380.12	1683.43
380.33	1779.68
380.54	1634.28
380.75	1726.44
380.96	1753.06
381.17	1732.58
381.38	1677.29
381.59	1794.02
381.80	1767.40
382.00	1810.40
382.21	1701.86
382.42	1847.27
382.63	1832.93
382.84	1736.68
383.05	1726.44
383.26	1810.40
383.47	1677.29
383.68	1761.25
383.88	1683.43
384.09	1771.49
384.30	1759.21
384.51	1769.44
384.72	1613.80
384.93	1662.95
385.14	1665.00
385.35	1759.21
385.55	1642.47
385.76	1714.15
385.97	1722.34
386.18	1691.62
386.39	1660.90
386.60	1736.68
386.81	1691.62
387.02	1771.49
387.22	1714.15
387.43	1800.16
387.64	1779.68
387.85	1888.23
388.06	2193.37
388.27	4188.10
388.48	6844.31
388.68	8241.03
388.89	9318.26
389.10	9670.51
389.31	8505.21
389.52	7374.74
389.73	6641.56
389.93	6158.24
390.14	5803.94
390.35	5363.63
390.56	4679.61
390.77	3737.54
390.98	3041.23
391.18	2494.43
391.39	2054.11
391.60	1890.28
391.81	1779.68
392.02	1710.05
392.23	1773.54
392.43	1751.01
392.64	1787.88
392.85	1665.00
393.06	1779.68
393.27	1730.53
393.47	1683.43
393.68	1732.58
393.89	1695.72
394.10	1763.30
394.31	1630.18
394.52	1701.86
394.72	1681.38
394.93	1791.97
395.14	1708.01
395.35	1796.07
395.56	1734.63
395.76	1767.40
395.97	1812.45
396.18	1791.97
396.39	1912.80
396.60	1966.05
396.80	1824.74
397.01	1804.26
397.22	1714.15
397.43	1781.73
397.64	1796.07
397.84	1834.98
398.05	1865.70
398.26	1714.15
398.47	1753.06
398.67	1794.02
398.88	1748.97
399.09	1759.21
399.30	1624.04
399.51	1738.73
399.71	1716.20
399.92	1695.72
400.13	1683.43
400.34	1648.61
400.54	1628.14
400.75	1705.96
400.96	1712.10
401.17	1787.88
401.37	1779.68
401.58	1679.33
401.79	1755.11
402.00	1865.70
402.21	1974.24
402.41	1964.00
402.62	2039.78
402.83	1988.58
403.04	1949.67
403.24	2080.74
403.45	1845.22
403.66	1867.75
403.87	1886.18
404.07	1902.56
404.28	1859.56
404.49	1798.12
404.70	1703.91
404.90	1726.44
405.11	1701.86
405.32	1689.57
405.52	1611.75
405.73	1708.01
405.94	1630.18
406.15	1626.09
406.35	1716.20
406.56	1830.88
406.77	1734.63
406.98	1736.68
407.18	1687.53
407.39	1798.12
407.60	1671.14
407.80	1718.25
408.01	1673.19
408.22	1744.87
408.43	1652.71
408.63	1765.35
408.84	1759.21
409.05	1771.49
409.25	1642.47
409.46	1599.46
409.67	1722.34
409.88	1671.14
410.08	1701.86
410.29	1673.19
410.50	1804.26
410.70	1785.83
410.91	1730.53
411.12	1695.72
411.32	1714.15
411.53	1683.43
411.74	1785.83
411.95	1798.12
412.15	1726.44
412.36	1771.49
412.57	1689.57
412.77	1781.73
412.98	1662.95
413.19	1738.73
413.39	1699.81
413.60	1701.86
413.81	1777.64
414.01	1677.29
414.22	1785.83
414.43	1703.91
414.63	1777.64
414.84	1751.01
415.05	1744.87
415.25	1669.09
415.46	1757.16
415.67	1708.01
415.87	1724.39
416.08	1734.63
416.29	1656.81
416.49	1794.02
416.70	1675.24
416.91	1673.19
417.11	1660.90
417.32	1748.97
417.53	1773.54
417.73	1718.25
417.94	1714.15
418.15	1708.01
418.35	1683.43
418.56	1781.73
418.77	1824.74
418.97	1652.71
419.18	1716.20
419.38	1454.06
419.59	1673.19
419.80	1849.32
420.00	1679.33
420.21	1644.52
420.42	1714.15
420.62	1710.05
420.83	1603.56
421.04	1687.53
421.24	1697.77
421.45	1705.96
421.65	1669.09
421.86	1667.05
422.07	1759.21
422.27	1746.92
422.48	1683.43
422.69	1751.01
422.89	1656.81
423.10	1730.53
423.30	1681.38
423.51	1695.72
423.72	1673.19
423.92	1724.39
424.13	1570.79
424.33	1769.44
424.54	1718.25
424.75	1689.57
424.95	1824.74
425.16	1681.38
425.36	1640.42
425.57	1722.34
425.78	1802.21
425.98	1794.02
426.19	1689.57
426.39	1624.04
426.60	1708.01
426.81	1771.49
427.01	1650.66
427.22	1624.04
427.42	1628.14
427.63	1583.08
427.83	1779.68
428.04	1828.84
428.25	1753.06
428.45	1775.59
428.66	1816.55
428.86	1779.68
429.07	1753.06
429.28	1720.29
429.48	1748.97
429.69	1624.04
429.89	1781.73
430.10	1662.95
430.30	1656.81
430.51	1736.68
430.71	1689.57
430.92	1800.16
431.13	1601.51
431.33	1699.81
431.54	1751.01
431.74	1847.27
431.95	1705.96
432.15	1646.57
432.36	1800.16
432.56	1804.26
432.77	1826.79
432.98	1759.21
433.18	1710.05
433.39	1675.24
433.59	1689.57
433.80	1875.94
434.00	1880.04
434.21	1679.33
434.41	1673.19
434.62	1834.98
434.82	1636.33
435.03	1681.38
435.23	1710.05
435.44	1595.37
435.64	1714.15
435.85	1736.68
436.06	1800.16
436.26	1746.92
436.47	1751.01
436.67	1714.15
436.88	1675.24
437.08	1705.96
437.29	1847.27
437.49	1736.68
437.70	1730.53
437.90	1681.38
438.11	1890.28
438.31	1816.55
438.52	1861.60
438.72	1845.22
438.93	1877.99
439.13	1724.39
439.34	1779.68
439.54	1775.59
439.75	1808.36
439.95	1705.96
440.16	1738.73
440.36	1753.06
440.57	1728.49
440.77	1642.47
440.98	1746.92
441.18	1802.21
441.39	1607.66
441.59	1628.14
441.80	1814.50
442.00	1716.20
442.21	1779.68
442.41	1632.23
442.62	1748.97
442.82	1656.81
443.02	1699.81
443.23	1722.34
443.43	1708.01
443.64	1800.16
443.84	1671.14
444.05	1861.60
444.25	1728.49
444.46	1751.01
444.66	1732.58
444.87	1787.88
445.07	1697.77
445.28	1728.49
445.48	1769.44
445.69	1802.21
445.89	1910.75
446.09	1794.02
446.30	2056.16
446.50	2598.87
446.71	3794.89
446.91	4313.02
447.12	4605.88
447.32	4769.72
447.53	4317.12
447.73	3807.17
447.93	3483.59
448.14	3311.57
448.34	3110.86
448.55	2897.88
448.75	2914.26
448.96	2648.02
449.16	2410.46
449.36	2236.38
449.57	2060.26
449.77	1927.14
449.98	1763.30
450.18	1869.80
450.39	1832.93
450.59	1732.58
450.79	1697.77
451.00	1695.72
451.20	1820.64
451.41	1730.53
451.61	1753.06
451.81	1740.77
452.02	1662.95
452.22	1757.16
452.43	1679.33
452.63	1671.14
452.84	1632.23
453.04	1759.21
453.24	1791.97
453.45	1695.72
453.65	1712.10
453.86	1853.41
454.06	1734.63
454.26	1751.01
454.47	1779.68
454.67	1767.40
454.87	1781.73
455.08	1730.53
455.28	1855.46
455.49	1730.53
455.69	1691.62
455.89	1832.93
456.10	1703.91
456.30	1736.68
456.51	1763.30
456.71	1781.73
456.91	1785.83
457.12	1699.81
457.32	1798.12
457.52	1722.34
457.73	1806.31
457.93	1703.91
458.14	1677.29
458.34	1683.43
458.54	1769.44
458.75	1763.30
458.95	1763.30
459.15	1675.24
459.36	1777.64
459.56	1748.97
459.76	1814.50
459.97	1669.09
460.17	1708.01
460.37	1751.01
460.58	1673.19
460.78	1718.25
460.99	1714.15
461.19	1748.97
461.39	1679.33
461.60	1765.35
461.80	1759.21
462.00	1677.29
462.21	1775.59
462.41	1685.48
462.61	1677.29
462.82	1673.19
463.02	1748.97
463.22	1736.68
463.43	1828.84
463.63	1767.40
463.83	1818.60
464.04	1708.01
464.24	1722.34
464.44	1656.81
464.64	1751.01
464.85	1740.77
465.05	1806.31
465.25	1697.77
465.46	1710.05
465.66	1759.21
465.86	1714.15
466.07	1712.10
466.27	1755.11
466.47	1607.66
466.68	1665.00
466.88	1837.03
467.08	1781.73
467.29	1722.34
467.49	1753.06
467.69	1748.97
467.89	1734.63
468.10	1611.75
468.30	1689.57
468.50	1771.49
468.71	1767.40
468.91	1640.42
469.11	1851.36
469.31	1796.07
469.52	1738.73
469.72	1732.58
469.92	1845.22
470.13	1675.24
470.33	1830.88
470.53	1779.68
470.73	2107.36
470.94	2185.18
471.14	2263.01
471.34	2574.30
471.54	2344.92
471.75	2254.81
471.95	2164.70
472.15	2113.50
472.36	2148.32
472.56	2066.40
472.76	2033.63
472.96	1949.67
473.17	1890.28
473.37	1920.99
473.57	1810.40
473.77	1837.03
473.98	1714.15
474.18	1671.14
474.38	1816.55
474.58	1697.77
474.79	1705.96
474.99	1748.97
475.19	1728.49
475.39	1693.67
475.60	1759.21
475.80	1691.62
476.00	1720.29
476.20	1681.38
476.41	1648.61
476.61	1816.55
476.81	1826.79
477.01	1642.47
477.21	1826.79
477.42	1785.83
477.62	1644.52
477.82	1826.79
478.02	1734.63
478.23	1779.68
478.43	1687.53
478.63	1712.10
478.83	1738.73
479.03	1669.09
479.24	1773.54
479.44	1787.88
479.64	1681.38
479.84	1591.27
480.04	1693.67
480.25	1785.83
480.45	1712.10
480.65	1755.11
480.85	1824.74
481.06	1652.71
481.26	1687.53
481.46	1714.15
481.66	1714.15
481.86	1626.09
482.06	1822.69
482.27	1765.35
482.47	1693.67
482.67	1722.34
482.87	1685.48
483.07	1787.88
483.28	1759.21
483.48	1673.19
483.68	1714.15
483.88	1636.33
484.08	1542.12
484.29	1691.62
484.49	1746.92
484.69	1644.52
484.89	1802.21
485.09	1746.92
485.29	1708.01
485.50	1800.16
485.70	1714.15
485.90	1871.84
486.10	1773.54
486.30	1779.68
486.50	1804.26
486.71	1720.29
486.91	1761.25
487.11	1675.24
487.31	1613.80
487.51	1765.35
487.71	1611.75
487.91	1632.23
488.12	1652.71
488.32	1587.18
488.52	1667.05
488.72	1527.78
488.92	1722.34
489.12	1810.40
489.32	1755.11
489.53	1755.11
489.73	1624.04
489.93	1812.45
490.13	1658.85
490.33	1656.81
490.53	1736.68
490.73	1787.88
490.94	1669.09
491.14	1757.16
491.34	1843.17
491.54	2095.07
491.74	2471.90
491.94	2944.98
492.14	2957.27
492.34	2961.36
492.54	2770.90
492.75	2435.03
492.95	2574.30
493.15	2387.93
493.35	2271.20
493.55	2207.71
493.75	2234.33
493.95	2133.98
494.15	2031.58
494.35	1918.95
494.56	1806.31
494.76	1818.60
494.96	1730.53
495.16	1800.16
495.36	1773.54
495.56	1787.88
495.76	1699.81
495.96	1691.62
496.16	1708.01
496.36	1822.69
496.56	1748.97
496.77	1724.39
496.97	1701.86
497.17	1818.60
497.37	1652.71
497.57	1841.12
497.77	1732.58
497.97	1687.53
498.17	1712.10
498.37	1679.33
498.57	1746.92
498.77	1730.53
498.97	1751.01
499.17	1945.57
499.38	1714.15
499.58	1730.53
499.78	1781.73
499.98	1800.16
500.18	1691.62
500.38	1699.81
500.58	1832.93
500.78	2463.71
500.98	4470.72
501.18	5740.46
501.38	6649.75
501.58	7114.64
501.78	6494.11
501.98	5621.67
502.18	4947.89
502.38	4399.04
502.58	4106.18
502.78	3803.08
502.98	3606.47
503.18	3495.88
503.38	3143.63
503.59	2856.92
503.79	2688.98
503.99	2527.19
504.19	2349.02
504.39	2152.42
504.59	2109.41
504.79	2179.04
504.99	2043.87
505.19	1892.32
505.39	1830.88
505.59	1929.19
505.79	1873.89
505.99	1877.99
506.19	1849.32
506.39	1865.70
506.59	1777.64
506.79	1759.21
506.99	1861.60
507.19	1785.83
507.39	1783.78
507.59	1626.09
507.79	1712.10
507.99	1593.32
508.19	1757.16
508.39	1644.52
508.59	1726.44
508.79	1808.36
508.99	1843.17
509.19	1681.38
509.39	1710.05
509.59	1671.14
509.79	1632.23
509.99	1783.78
510.19	1748.97
510.39	1789.92
510.59	1679.33
510.79	1640.42
510.99	1607.66
511.19	1722.34
511.39	1796.07
511.59	1726.44
511.79	1822.69
511.99	1656.81
512.19	1839.08
512.38	1804.26
512.58	1751.01
512.78	1736.68
512.98	1794.02
513.18	1845.22
513.38	1689.57
513.58	1753.06
513.78	1708.01
513.98	1742.82
514.18	1759.21
514.38	1714.15
514.58	1742.82
514.78	1771.49
514.98	1703.91
515.18	1740.77
515.38	1656.81
515.58	1796.07
515.78	1693.67
515.98	1691.62
516.18	1748.97
516.38	1722.34
516.57	1716.20
516.77	1742.82
516.97	1796.07
517.17	1679.33
517.37	1689.57
517.57	1816.55
517.77	1714.15
517.97	1615.85
518.17	1810.40
518.37	1705.96
518.57	1701.86
518.77	1646.57
518.97	1669.09
519.16	1779.68
519.36	1736.68
519.56	1656.81
519.76	1728.49
519.96	1732.58
520.16	1832.93
520.36	1701.86
520.56	1816.55
520.76	1695.72
520.96	1701.86
521.16	1781.73
521.35	1853.41
521.55	1869.80
521.75	1728.49
521.95	1683.43
522.15	1730.53
522.35	1689.57
522.55	1624.04
522.75	1798.12
522.95	1763.30
523.14	1679.33
523.34	1769.44
523.54	1630.18
523.74	1691.62
523.94	1767.40
524.14	1624.04
524.34	1699.81
524.54	1808.36
524.73	1630.18
524.93	1773.54
525.13	1767.40
525.33	1683.43
525.53	1880.04
525.73	1773.54
525.93	1759.21
526.13	1740.77
526.32	1701.86
526.52	1765.35
526.72	1763.30
526.92	1736.68
527.12	1746.92
527.32	1693.67
527.52	1644.52
527.71	1730.53
527.91	1767.40
528.11	1679.33
528.31	1722.34
528.51	1652.71
528.71	1732.58
528.90	1767.40
529.10	1714.15
529.30	1830.88
529.50	1611.75
529.70	1769.44
529.90	1718.25
530.09	1697.77
530.29	1710.05
530.49	1644.52
530.69	1816.55
530.89	1730.53
531.09	1755.11
531.28	1603.56
531.48	1777.64
531.68	1730.53
531.88	1705.96
532.08	1734.63
532.28	1681.38
532.47	1769.44
532.67	1808.36
532.87	1753.06
533.07	1699.81
533.27	1794.02
533.46	1779.68
533.66	1748.97
533.86	1722.34
534.06	1728.49
534.26	1689.57
534.45	1665.00
534.65	1767.40
534.85	1742.82
535.05	1695.72
535.25	1675.24
535.44	1601.51
535.64	1796.07
535.84	1705.96
536.04	1753.06
536.24	1669.09
536.43	1720.29
536.63	1796.07
536.83	1740.77
537.03	1736.68
537.22	1624.04
537.42	1746.92
537.62	1730.53
537.82	1714.15
538.02	1785.83
538.21	1830.88
538.41	1880.04
538.61	1798.12
538.81	1791.97
539.00	1789.92
539.20	1718.25
539.40	1746.92
539.60	1865.70
539.79	1789.92
539.99	1732.58
540.19	1726.44
540.39	1761.25
540.58	1730.53
540.78	1724.39
540.98	1734.63
541.18	1730.53
541.37	1794.02
541.57	1701.86
541.77	1716.20
541.97	1677.29
542.16	1685.48
542.36	1724.39
542.56	1783.78
542.76	1822.69
542.95	1726.44
543.15	1732.58
543.35	1783.78
543.54	1724.39
543.74	1734.63
543.94	1845.22
544.14	1710.05
544.33	1726.44
544.53	1705.96
544.73	1673.19
544.93	1681.38
545.12	1662.95
545.32	1798.12
545.52	1767.40
545.71	1611.75
545.91	1695.72
546.11	1693.67
546.30	1705.96
546.50	1748.97
546.70	1789.92
546.90	1726.44
547.09	1697.77
547.29	1738.73
547.49	1804.26
547.68	1718.25
547.88	1681.38
548.08	1779.68
548.27	2250.72
548.47	1642.47
548.67	1736.68
548.87	1800.16
549.06	1718.25
549.26	1748.97
549.46	1781.73
549.65	1783.78
549.85	1757.16
550.05	1759.21
550.24	1613.80
550.44	1738.73
550.64	1761.25
550.83	1697.77
551.03	1746.92
551.23	1734.63
551.42	1763.30
551.62	1775.59
551.82	1595.37
552.01	1699.81
552.21	1834.98
552.41	1703.91
552.60	1841.12
552.80	1714.15
553.00	1708.01
553.19	1646.57
553.39	1820.64
553.59	1687.53
553.78	1761.25
553.98	1798.12
554.17	1658.85
554.37	1720.29
554.57	1806.31
554.76	1681.38
554.96	1708.01
555.16	1724.39
555.35	1773.54
555.55	1720.29
555.75	1734.63
555.94	1798.12
556.14	1650.66
556.33	1791.97
556.53	1730.53
556.73	1761.25
556.92	1746.92
557.12	1851.36
557.32	1843.17
557.51	1806.31
557.71	1765.35
557.90	1816.55
558.10	1755.11
558.30	1671.14
558.49	1755.11
558.69	1658.85
558.88	1748.97
559.08	1693.67
559.28	1736.68
559.47	1742.82
559.67	1724.39
559.86	1859.56
560.06	1724.39
560.26	1671.14
560.45	1818.60
560.65	1689.57
560.84	1773.54
561.04	1716.20
561.24	1722.34
561.43	1742.82
561.63	1775.59
561.82	1748.97
562.02	1779.68
562.22	1640.42
562.41	1685.48
562.61	1755.11
562.80	1718.25
563.00	1888.23
563.19	1775.59
563.39	1796.07
563.59	1767.40
563.78	1681.38
563.98	1595.37
564.17	1683.43
564.37	1607.66
564.56	1701.86
564.76	1636.33
564.96	1765.35
565.15	1738.73
565.35	1916.90
565.54	1681.38
565.74	1746.92
565.93	1751.01
566.13	1755.11
566.32	1730.53
566.52	1681.38
566.71	1714.15
566.91	1791.97
567.11	1693.67
567.30	1740.77
567.50	1775.59
567.69	1740.77
567.89	1763.30
568.08	1671.14
568.28	1740.77
568.47	1695.72
568.67	1712.10
568.86	1710.05
569.06	1773.54
569.25	1603.56
569.45	1681.38
569.64	1724.39
569.84	1656.81
570.04	1779.68
570.23	1615.85
570.43	1753.06
570.62	1791.97
570.82	1886.18
571.01	1624.04
571.21	1703.91
571.40	1691.62
571.60	1763.30
571.79	1726.44
571.99	1726.44
572.18	1699.81
572.38	1650.66
572.57	1740.77
572.77	1787.88
572.96	1912.80
573.16	1738.73
573.35	1714.15
573.55	1843.17
573.74	1755.11
573.94	1787.88
574.13	1648.61
574.33	1722.34
574.52	1845.22
574.71	1802.21
574.91	1820.64
575.10	1652.71
575.30	1669.09
575.49	1699.81
575.69	1703.91
575.88	1685.48
576.08	1794.02
576.27	1781.73
576.47	1726.44
576.66	1837.03
576.86	1787.88
577.05	1779.68
577.25	1791.97
577.44	1820.64
577.64	1777.64
577.83	1775.59
578.02	1775.59
578.22	1724.39
578.41	1843.17
578.61	1675.24
578.80	1621.99
579.00	1746.92
579.19	1611.75
579.39	1791.97
579.58	1775.59
579.77	1716.20
579.97	1769.44
580.16	1859.56
580.36	1890.28
580.55	1763.30
580.75	1816.55
580.94	1769.44
581.13	1802.21
581.33	1888.23
581.52	1781.73
581.72	1853.41
581.91	1765.35
582.11	1798.12
582.30	1832.93
582.49	1714.15
582.69	1873.89
582.88	1796.07
583.08	1769.44
583.27	1828.84
583.47	1687.53
583.66	1742.82
583.85	1634.28
584.05	1687.53
584.24	1822.69
584.44	1771.49
584.63	1742.82
584.82	1865.70
585.02	1789.92
585.21	1800.16
585.41	1822.69
585.60	1732.58
585.79	1980.39
585.99	1966.05
586.18	1828.84
586.37	2193.37
586.57	3393.48
586.76	9955.18
586.96	24596.10
587.15	34338.29
587.34	40426.90
587.54	42100.09
587.73	36546.00
587.93	26144.37
588.12	21442.23
588.31	18255.59
588.51	16164.62
588.70	14948.12
588.89	14200.62
589.09	12580.67
589.28	10819.42
589.47	9379.70
589.67	7976.84
589.86	6414.24
590.06	4988.85
590.25	3940.29
590.44	3014.61
590.64	2578.39
590.83	2277.34
591.02	2144.22
591.22	2043.87
591.41	1834.98
591.60	1802.21
591.80	1959.91
591.99	1806.31
592.18	1746.92
592.38	1843.17
592.57	1738.73
592.76	1853.41
592.96	1689.57
593.15	1767.40
593.34	1812.45
593.54	1708.01
593.73	1763.30
593.92	1710.05
594.12	1751.01
594.31	1773.54
594.50	1761.25
594.70	1748.97
594.89	1871.84
595.08	1671.14
595.28	1806.31
595.47	1845.22
595.66	1728.49
595.86	1681.38
596.05	1771.49
596.24	1800.16
596.43	1812.45
596.63	1822.69
596.82	1783.78
597.01	1755.11
597.21	1812.45
597.40	1728.49
597.59	1722.34
597.79	1755.11
597.98	1824.74
598.17	1816.55
598.36	1744.87
598.56	1667.05
598.75	1685.48
598.94	1656.81
599.14	1738.73
599.33	1710.05
599.52	1791.97
599.71	1798.12
599.91	1851.36
600.10	1794.02
600.29	1748.97
600.48	1789.92
600.68	1787.88
600.87	1781.73
601.06	1730.53
601.26	1734.63
601.45	1746.92
601.64	1671.14
601.83	1769.44
602.03	1763.30
602.22	1658.85
602.41	1738.73
602.60	1820.64
602.80	1802.21
602.99	1665.00
603.18	1648.61
603.37	1738.73
603.57	1765.35
603.76	1767.40
603.95	1820.64
604.14	1634.28
604.34	1658.85
604.53	1714.15
604.72	1800.16
604.91	1742.82
605.10	1726.44
605.30	1691.62
605.49	1828.84
605.68	1814.50
605.87	1798.12
606.07	1710.05
606.26	1693.67
606.45	1734.63
606.64	1675.24
606.84	1728.49
607.03	1718.25
607.22	1771.49
607.41	1718.25
607.60	1662.95
607.80	1736.68
607.99	1701.86
608.18	1730.53
608.37	1699.81
608.56	1679.33
608.76	1746.92
608.95	1857.51
609.14	1755.11
609.33	1722.34
609.52	1824.74
609.72	1699.81
609.91	1877.99
610.10	1734.63
610.29	1789.92
610.48	1755.11
610.68	1800.16
610.87	1779.68
611.06	1773.54
611.25	1681.38
611.44	1820.64
611.63	1775.59
611.83	1828.84
612.02	1648.61
612.21	1794.02
612.40	1574.89
612.59	1640.42
612.79	1603.56
612.98	1695.72
613.17	1875.94
613.36	1734.63
613.55	1775.59
613.74	1683.43
613.93	1710.05
614.13	1691.62
614.32	1746.92
614.51	1789.92
614.70	1656.81
614.89	1701.86
615.08	1710.05
615.28	2058.21
615.47	1689.57
615.66	1724.39
615.85	1701.86
616.04	1857.51
616.23	1736.68
616.42	1718.25
616.62	1728.49
616.81	1771.49
617.00	1691.62
617.19	1845.22
617.38	1685.48
617.57	1685.48
617.76	1789.92
617.95	1734.63
618.15	1714.15
618.34	1867.75
618.53	1640.42
618.72	1744.87
618.91	1730.53
619.10	1789.92
619.29	1757.16
619.48	1755.11
619.68	1583.08
619.87	1724.39
620.06	1648.61
620.25	1755.11
620.44	1748.97
620.63	1824.74
620.82	1751.01
621.01	1763.30
621.20	1738.73
621.39	1837.03
621.59	1724.39
621.78	1730.53
621.97	1693.67
622.16	1777.64
622.35	1718.25
622.54	1755.11
622.73	1767.40
622.92	1599.46
623.11	1773.54
623.30	1691.62
623.49	1681.38
623.68	1665.00
623.88	1736.68
624.07	1701.86
624.26	1679.33
624.45	1722.34
624.64	1693.67
624.83	1740.77
625.02	1738.73
625.21	1677.29
625.40	1728.49
625.59	1834.98
625.78	1720.29
625.97	1755.11
626.16	1779.68
626.35	1714.15
626.54	1705.96
626.74	1834.98
626.93	1697.77
627.12	1683.43
627.31	1808.36
627.50	1796.07
627.69	1781.73
627.88	1662.95
628.07	1708.01
628.26	1640.42
628.45	1630.18
628.64	1650.66
628.83	1746.92
629.02	1621.99
629.21	1753.06
629.40	1791.97
629.59	1669.09
629.78	1699.81
629.97	1732.58
630.16	1689.57
630.35	1720.29
630.54	1693.67
630.73	1693.67
630.92	1718.25
631.11	1683.43
631.30	1697.77
631.49	1753.06
631.68	1757.16
631.87	1757.16
632.06	1648.61
632.25	1902.56
632.44	1660.90
632.63	1732.58
632.82	1695.72
633.01	1640.42
633.20	1751.01
633.39	1650.66
633.58	1681.38
633.77	1775.59
633.96	1746.92
634.15	1718.25
634.34	1736.68
634.53	1767.40
634.72	1695.72
634.91	1642.47
635.10	1802.21
635.29	1740.77
635.48	1779.68
635.67	1724.39
635.86	1615.85
636.05	1820.64
636.24	1759.21
636.43	1714.15
636.62	1675.24
636.81	1593.32
637.00	1724.39
637.19	1732.58
637.38	1671.14
637.57	1640.42
637.76	1697.77
637.95	1724.39
638.14	1656.81
638.33	1644.52
638.52	1681.38
638.71	1654.76
638.89	1671.14
639.08	1869.80
639.27	1753.06
639.46	1644.52
639.65	1773.54
639.84	1724.39
640.03	1775.59
640.22	1687.53
640.41	1814.50
640.60	1738.73
640.79	1675.24
640.98	1722.34
641.17	1736.68
641.36	1724.39
641.55	1640.42
641.74	1689.57
641.92	1646.57
642.11	1601.51
642.30	1669.09
642.49	1660.90
642.68	1755.11
642.87	1742.82
643.06	1753.06
643.25	1632.23
643.44	1697.77
643.63	1624.04
643.82	1746.92
644.00	1648.61
644.19	1746.92
644.38	1673.19
644.57	1761.25
644.76	1710.05
644.95	1685.48
645.14	1646.57
645.33	1705.96
645.52	1681.38
645.71	1648.61
645.89	1667.05
646.08	1761.25
646.27	1708.01
646.46	1822.69
646.65	1595.37
646.84	1751.01
647.03	1708.01
647.22	1769.44
647.40	1734.63
647.59	1699.81
647.78	1677.29
647.97	1624.04
648.16	1714.15
648.35	1734.63
648.54	1738.73
648.73	1699.81
648.91	1765.35
649.10	1802.21
649.29	1624.04
649.48	1734.63
649.67	1767.40
649.86	1648.61
650.05	1671.14
650.23	1769.44
650.42	1589.22
650.61	1738.73
650.80	1714.15
650.99	1849.32
651.18	1746.92
651.36	1689.57
651.55	1701.86
651.74	1777.64
651.93	1693.67
652.12	1689.57
652.31	1761.25
652.49	1714.15
652.68	1724.39
652.87	1789.92
653.06	1703.91
653.25	1806.31
653.44	1683.43
653.62	1732.58
653.81	1757.16
654.00	1718.25
654.19	1757.16
654.38	1769.44
654.56	1658.85
654.75	1685.48
654.94	1802.21
655.13	1705.96
655.32	1777.64
655.51	1712.10
655.69	1619.94
655.88	1722.34
656.07	1662.95
656.26	1787.88
656.45	1656.81
656.63	1714.15
656.82	1789.92
657.01	1779.68
657.20	1703.91
657.38	1830.88
657.57	1763.30
657.76	1589.22
657.95	1773.54
658.14	1671.14
658.32	1716.20
658.51	1658.85
658.70	1751.01
658.89	1746.92
659.08	1699.81
659.26	1830.88
659.45	1636.33
659.64	1775.59
659.83	1683.43
660.01	1843.17
660.20	1712.10
660.39	1785.83
660.58	1597.42
660.76	1806.31
660.95	1613.80
661.14	1701.86
661.33	1669.09
661.51	1617.90
661.70	1728.49
661.89	1763.30
662.08	1724.39
662.26	1697.77
662.45	1654.76
662.64	1822.69
662.83	1798.12
663.01	1656.81
663.20	1759.21
663.39	1839.08
663.58	1685.48
663.76	1720.29
663.95	1677.29
664.14	1656.81
664.32	1720.29
664.51	1705.96
664.70	1644.52
664.89	1773.54
665.07	1691.62
665.26	1771.49
665.45	1613.80
665.64	1746.92
665.82	1699.81
666.01	1839.08
666.20	1712.10
666.38	1802.21
666.57	1736.68
666.76	2258.91
666.95	4366.27
667.13	10264.42
667.32	14901.02
667.51	17827.57
667.69	19070.68
667.88	17299.19
668.07	12224.33
668.25	9504.62
668.44	8095.62
668.63	7346.06
668.81	6776.73
669.00	6148.00
669.19	5588.91
669.38	5109.68
669.56	4478.91
669.75	4032.45
669.94	3430.35
670.12	2947.03
670.31	2557.91
670.50	2279.39
670.68	2017.25
670.87	1830.88
671.06	1863.65
671.24	1839.08
671.43	1900.52
671.62	1763.30
671.80	1710.05
671.99	1720.29
672.18	1689.57
672.36	1810.40
672.55	1685.48
672.74	1703.91
672.92	1701.86
673.11	1736.68
673.29	1650.66
673.48	1761.25
673.67	1642.47
673.85	1814.50
674.04	1701.86
674.23	1765.35
674.41	1765.35
674.60	1689.57
674.79	1630.18
674.97	1656.81
675.16	1794.02
675.34	1730.53
675.53	1701.86
675.72	1740.77
675.90	1824.74
676.09	1703.91
676.28	1599.46
676.46	1587.18
676.65	1640.42
676.83	1716.20
677.02	1599.46
677.21	1755.11
677.39	1685.48
677.58	1677.29
677.77	1681.38
677.95	1732.58
678.14	1667.05
678.32	1724.39
678.51	1716.20
678.70	1814.50
678.88	1578.98
679.07	1730.53
679.25	1683.43
679.44	1748.97
679.63	1628.14
679.81	1753.06
680.00	1824.74
680.18	1740.77
680.37	1806.31
680.55	1738.73
680.74	1619.94
680.93	1597.42
681.11	1832.93
681.30	1751.01
681.48	1687.53
681.67	1699.81
681.85	1658.85
682.04	1677.29
682.23	1691.62
682.41	1748.97
682.60	1656.81
682.78	1730.53
682.97	1656.81
683.15	1695.72
683.34	1699.81
683.53	1773.54
683.71	1648.61
683.90	1841.12
684.08	1757.16
684.27	1656.81
684.45	1718.25
684.64	1724.39
684.82	1656.81
685.01	1734.63
685.19	1757.16
685.38	1789.92
685.57	1665.00
685.75	1714.15
685.94	1652.71
686.12	1736.68
686.31	1675.24
686.49	1759.21
686.68	1576.94
686.86	1691.62
687.05	1669.09
687.23	1744.87
687.42	1712.10
687.60	1703.91
687.79	1781.73
687.97	1714.15
688.16	1767.40
688.34	1691.62
688.53	1605.61
688.71	1724.39
688.90	1822.69
689.08	1607.66
689.27	1587.18
689.45	1738.73
689.64	1761.25
689.82	1697.77
690.01	1802.21
690.19	1697.77
690.38	1675.24
690.56	1769.44
690.75	1632.23
690.93	1734.63
691.12	1667.05
691.30	1785.83
691.49	1681.38
691.67	1705.96
691.86	1824.74
692.04	1755.11
692.23	1648.61
692.41	1714.15
692.60	1785.83
692.78	1751.01
692.97	1646.57
693.15	1746.92
693.34	1761.25
693.52	1769.44
693.71	1667.05
693.89	1736.68
694.08	1615.85
694.26	1687.53
694.44	1798.12
694.63	1744.87
694.81	1609.70
695.00	1662.95
695.18	1779.68
695.37	1810.40
695.55	1736.68
695.74	1681.38
695.92	1751.01
696.10	1834.98
696.29	1617.90
696.47	1701.86
696.66	1646.57
696.84	1611.75
697.03	1693.67
697.21	1800.16
697.40	2289.63
697.58	1736.68
697.76	1681.38
697.95	1708.01
698.13	1710.05
698.32	1689.57
698.50	1703.91
698.68	1746.92
698.87	1695.72
699.05	1779.68
699.24	1726.44
699.42	1613.80
699.61	1728.49
699.79	1683.43
699.97	1716.20
700.16	1597.42
700.34	1683.43
700.53	1763.30
700.71	1814.50
700.89	1708.01
701.08	1718.25
701.26	1740.77
701.45	2076.64
701.63	1708.01
701.81	1708.01
702.00	1632.23
702.18	1654.76
702.37	1652.71
702.55	1687.53
702.73	1644.52
702.92	1654.76
703.10	1691.62
703.28	1753.06
703.47	1669.09
703.65	1777.64
703.84	1691.62
704.02	1699.81
704.20	1826.79
704.39	1669.09
704.57	1697.77
704.75	1726.44
704.94	1785.83
705.12	1722.34
705.30	1724.39
705.49	2263.01
705.67	4251.58
705.86	9312.11
706.04	12711.74
706.22	14139.18
706.41	15503.12
706.59	13686.58
706.77	9592.69
706.96	7276.43
707.14	6420.38
707.32	5969.83
707.51	5504.94
707.69	4974.52
707.87	4261.82
708.06	3643.34
708.24	2889.68
708.42	2349.02
708.61	2244.57
708.79	1867.75
708.97	1859.56
709.16	1822.69
709.34	1753.06
709.52	1744.87
709.71	1759.21
709.89	1785.83
710.07	1697.77
710.26	1697.77
710.44	1794.02
710.62	1808.36
710.80	1755.11
710.99	1710.05
711.17	1712.10
711.35	1665.00
711.54	1673.19
711.72	1763.30
711.90	1755.11
712.09	1652.71
712.27	1699.81
712.45	1728.49
712.63	1697.77
712.82	1753.06
713.00	1648.61
713.18	1736.68
713.37	1740.77
713.55	1800.16
713.73	1763.30
713.91	1712.10
714.10	1658.85
714.28	1632.23
714.46	1730.53
714.65	1746.92
714.83	1767.40
715.01	1757.16
715.19	1730.53
715.38	1638.38
715.56	1691.62
715.74	1624.04
715.92	1644.52
716.11	1738.73
716.29	1634.28
716.47	1673.19
716.65	1673.19
716.84	1679.33
717.02	1705.96
717.20	1578.98
717.38	1638.38
717.57	1755.11
717.75	1728.49
717.93	1718.25
718.11	1773.54
718.30	1640.42
718.48	1759.21
718.66	1730.53
718.84	1798.12
719.03	1662.95
719.21	1587.18
719.39	1853.41
719.57	1748.97
719.75	1832.93
719.94	1632.23
720.12	1613.80
720.30	1644.52
720.48	1763.30
720.67	1671.14
720.85	1697.77
721.03	1675.24
721.21	1595.37
721.39	1820.64
721.58	1710.05
721.76	1681.38
721.94	1724.39
722.12	1644.52
722.30	1781.73
722.49	1734.63
722.67	1699.81
722.85	1738.73
723.03	1585.13
723.21	1732.58
723.40	1773.54
723.58	1824.74
723.76	1714.15
723.94	1773.54
724.12	1718.25
724.30	1767.40
724.49	1691.62
724.67	1681.38
724.85	1730.53
725.03	1648.61
725.21	1767.40
725.40	1740.77
725.58	1683.43
725.76	1812.45
725.94	1732.58
726.12	1728.49
726.30	1769.44
726.49	1667.05
726.67	1669.09
726.85	1728.49
727.03	1806.31
727.21	2172.89
727.39	2944.98
727.57	3717.06
727.76	4046.79
727.94	4517.82
728.12	4351.93
728.30	3749.83
728.48	3014.61
728.66	2717.65
728.84	2475.99
729.03	2322.40
729.21	2199.52
729.39	1996.77
729.57	1918.95
729.75	1796.07
729.93	1855.46
730.11	1716.20
730.30	1695.72
730.48	1742.82
730.66	1787.88
730.84	1779.68
731.02	1693.67
731.20	1624.04
731.38	1724.39
731.56	1624.04
731.74	1603.56
731.93	1761.25
732.11	1665.00
732.29	1722.34
732.47	1681.38
732.65	1767.40
732.83	1769.44
733.01	1734.63
733.19	1665.00
733.37	1746.92
733.56	1693.67
733.74	1714.15
733.92	1775.59
734.10	1734.63
734.28	1656.81
734.46	1585.13
734.64	1730.53
734.82	1697.77
735.00	1687.53
735.18	1632.23
735.36	1677.29
735.54	1714.15
735.73	1708.01
735.91	1677.29
736.09	1730.53
736.27	1728.49
736.45	1763.30
736.63	1583.08
736.81	1648.61
736.99	1761.25
737.17	1800.16
737.35	1656.81
737.53	1677.29
737.71	1695.72
737.89	1771.49
738.07	1767.40
738.25	1636.33
738.43	1624.04
738.61	1771.49
738.80	1720.29
738.98	1650.66
739.16	1695.72
739.34	1660.90
739.52	1791.97
739.70	1730.53
739.88	1708.01
740.06	1777.64
740.24	1597.42
740.42	1847.27
740.60	1583.08
740.78	1708.01
740.96	1615.85
741.14	1751.01
741.32	1726.44
741.50	1658.85
741.68	1832.93
741.86	1771.49
742.04	1701.86
742.22	1669.09
742.40	1726.44
742.58	1742.82
742.76	1687.53
742.94	1722.34
743.12	1581.03
743.30	1671.14
743.48	1724.39
743.66	1730.53
743.84	1718.25
744.02	1609.70
744.20	1763.30
744.38	1656.81
744.56	1654.76
744.74	1798.12
744.92	1708.01
745.10	1775.59
745.28	1796.07
745.46	1736.68
745.64	1718.25
745.82	1763.30
746.00	1681.38
746.18	1693.67
746.36	1679.33
746.54	1675.24
746.72	1638.38
746.90	1667.05
747.08	1761.25
747.26	1669.09
747.44	1720.29
747.62	1771.49
747.80	1757.16
747.98	1744.87
748.15	1626.09
748.33	1800.16
748.51	1695.72
748.69	1775.59
748.87	1685.48
749.05	1658.85
749.23	1673.19
749.41	1740.77
749.59	1632.23
749.77	1665.00
749.95	1578.98
750.13	1703.91
750.31	1624.04
750.49	1642.47
750.67	1681.38
750.85	1816.55
751.03	1718.25
751.20	1726.44
751.38	1736.68
751.56	1703.91
751.74	1730.53
751.92	1640.42
752.10	1642.47
752.28	1746.92
752.46	1699.81
752.64	1677.29
752.82	1687.53
753.00	1791.97
753.18	1648.61
753.35	1681.38
753.53	1660.90
753.71	1671.14
753.89	1718.25
754.07	1691.62
754.25	1746.92
754.43	1685.48
754.61	1628.14
754.79	1767.40
754.97	1683.43
755.14	1769.44
755.32	1628.14
755.50	1699.81
755.68	1701.86
755.86	1710.05
756.04	1744.87
756.22	1599.46
756.40	1665.00
756.57	1906.66
756.75	1679.33
756.93	1757.16
757.11	1683.43
757.29	1660.90
757.47	1597.42
757.65	1652.71
757.82	1656.81
758.00	1734.63
758.18	1619.94
758.36	1621.99
758.54	1822.69
758.72	1589.22
758.90	1716.20
759.07	1732.58
759.25	1736.68
759.43	1769.44
759.61	1671.14
759.79	2185.18
759.97	1751.01
760.15	1681.38
760.32	1689.57
760.50	1699.81
760.68	1779.68
760.86	1660.90
761.04	1796.07
761.22	1800.16
761.39	1738.73
761.57	1693.67
761.75	1703.91
761.93	1648.61
762.11	1714.15
762.28	1683.43
762.46	1656.81
762.64	1759.21
762.82	1605.61
763.00	1660.90
763.18	1734.63
763.35	1581.03
763.53	1785.83
763.71	1683.43
763.89	1677.29
764.07	1736.68
764.24	1597.42
764.42	1746.92
764.60	1685.48
764.78	1724.39
764.96	1656.81
765.13	1740.77
765.31	1689.57
765.49	1787.88
765.67	1650.66
765.84	1687.53
766.02	1691.62
766.20	1611.75
766.38	1650.66
766.56	1658.85
766.73	1722.34
766.91	1642.47
767.09	1753.06
767.27	1777.64
767.44	1650.66
767.62	1691.62
767.80	1722.34
767.98	1693.67
768.15	1718.25
768.33	1720.29
768.51	1767.40
768.69	1738.73
768.87	1681.38
769.04	1667.05
769.22	1806.31
769.40	1779.68
769.58	1845.22
769.75	1695.72
769.93	1751.01
770.11	1728.49
770.28	1621.99
770.46	1775.59
770.64	1740.77
770.82	1683.43
770.99	1701.86
771.17	1703.91
771.35	1705.96
771.53	1718.25
771.70	1701.86
771.88	1761.25
772.06	1675.24
772.23	1669.09
772.41	1683.43
772.59	1671.14
772.77	1638.38
772.94	1701.86
773.12	1740.77
773.30	1630.18
773.47	1705.96
773.65	1636.33
773.83	1783.78
774.01	1648.61
774.18	1583.08
774.36	1695.72
774.54	1560.55
774.71	1683.43
774.89	1609.70
775.07	1648.61
775.24	1687.53
775.42	1687.53
775.60	1826.79
775.78	1642.47
775.95	1609.70
776.13	1615.85
776.31	1581.03
776.48	1632.23
776.66	1759.21
776.84	1669.09
777.01	1675.24
777.19	1646.57
777.37	1638.38
777.54	1755.11
777.72	1794.02
777.90	1757.16
778.07	1687.53
778.25	1861.60
778.43	1806.31
778.60	1726.44
778.78	1751.01
778.96	1783.78
779.13	1677.29
779.31	1777.64
779.49	1726.44
779.66	1652.71
779.84	1720.29
780.01	1710.05
780.19	1671.14
780.37	1808.36
780.54	1701.86
780.72	1697.77
780.90	1626.09
781.07	1652.71
781.25	1722.34
781.43	1714.15
781.60	1673.19
781.78	1701.86
781.95	1685.48
782.13	1687.53
782.31	1718.25
782.48	1660.90
782.66	1685.48
782.83	1806.31
783.01	1615.85
783.19	1755.11
783.36	1677.29
783.54	1640.42
783.72	1781.73
783.89	1660.90
784.07	1697.77
784.24	1720.29
784.42	1621.99
784.60	1800.16
784.77	1759.21
784.95	1595.37
785.12	1718.25
785.30	1748.97
785.47	1652.71
785.65	1642.47
785.83	1681.38
786.00	1656.81
786.18	1742.82
786.35	1669.09
786.53	1667.05
786.71	1658.85
786.88	1769.44
787.06	1712.10
787.23	1693.67
787.41	1585.13
787.58	1699.81
787.76	1650.66
787.94	1626.09
788.11	1683.43
788.29	1701.86
788.46	1648.61
788.64	1675.24
788.81	1681.38
788.99	1630.18
789.16	1697.77
789.34	1742.82
789.52	1675.24
789.69	1695.72
789.87	1585.13
790.04	1695.72
790.22	1695.72
790.39	1806.31
790.57	1636.33
790.74	1732.58
790.92	1705.96
791.09	1632.23
791.27	1712.10
791.44	1851.36
791.62	1619.94
791.79	1714.15
791.97	1716.20
792.15	1882.08
792.32	1701.86
792.50	1652.71
792.67	1755.11
792.85	1755.11
793.02	1687.53
793.20	1712.10
793.37	1634.28
793.55	1705.96
793.72	1685.48
793.90	1777.64
794.07	1730.53
794.25	1654.76
794.42	1673.19
794.60	1628.14
794.77	1718.25
794.95	1644.52
795.12	1771.49
795.30	1613.80
795.47	1581.03
795.65	1886.18
795.82	1714.15
796.00	1597.42
796.17	1761.25
796.34	1611.75
796.52	1726.44
796.69	1736.68
796.87	1763.30
797.04	1751.01
797.22	1728.49
797.39	1722.34
797.57	1720.29
797.74	1718.25
797.92	1714.15
798.09	1671.14
798.27	1775.59
798.44	1730.53
798.62	1669.09
798.79	1734.63
798.96	1722.34
799.14	1669.09
799.31	1841.12
799.49	1669.09
799.66	1669.09
799.84	1701.86
800.01	1646.57
800.19	1699.81
800.36	1611.75
800.53	1710.05
800.71	1748.97
800.88	1847.27
801.06	1665.00
801.23	1705.96
801.41	1665.00
801.58	1658.85
801.75	1660.90
801.93	1714.15
802.10	1722.34
802.28	1699.81
802.45	1693.67
802.63	1662.95
802.80	1734.63
802.97	1650.66
803.15	1755.11
803.32	1662.95
803.50	1669.09
803.67	1556.46
803.84	1658.85
804.02	1705.96
804.19	1683.43
804.37	1542.12
804.54	1615.85
804.71	1667.05
804.89	1630.18
805.06	1705.96
805.24	1699.81
805.41	1644.52
805.58	1640.42
805.76	1818.60
805.93	1753.06
806.10	1775.59
806.28	1714.15
806.45	1738.73
806.63	1673.19
806.80	1667.05
806.97	1628.14
807.15	1632.23
807.32	1738.73
807.49	1632.23
807.67	1619.94
807.84	1810.40
808.01	1558.50
808.19	1865.70
808.36	1777.64
808.54	1634.28
808.71	1695.72
808.88	1734.63
809.06	1742.82
809.23	1689.57
809.40	1656.81
809.58	1798.12
809.75	1646.57
809.92	1636.33
810.10	1853.41
810.27	1632.23
810.44	1683.43
810.62	1734.63
810.79	1699.81
810.96	1675.24
811.14	1730.53
811.31	1755.11
811.48	1775.59
811.66	1693.67
811.83	1787.88
812.00	1736.68
812.18	1693.67
812.35	1853.41
812.52	1656.81
812.69	1628.14
812.87	1689.57
813.04	1662.95
813.21	1687.53
813.39	1681.38
813.56	1665.00
813.73	1798.12
813.91	1640.42
814.08	1671.14
814.25	1693.67
814.42	1611.75
814.60	1660.90
814.77	1746.92
814.94	1665.00
815.12	1638.38
815.29	1794.02
815.46	1710.05
815.63	1712.10
815.81	1699.81
815.98	1751.01
816.15	1710.05
816.33	1681.38
816.50	1751.01
816.67	1753.06
816.84	1730.53
817.02	1621.99
817.19	1632.23
817.36	1705.96
817.53	1652.71
817.71	1693.67
817.88	1800.16
818.05	1613.80
818.22	1650.66
818.40	1796.07
818.57	1722.34
818.74	1693.67
818.91	1626.09
819.09	1708.01
819.26	1736.68
819.43	1585.13
819.60	1675.24
819.78	1691.62
819.95	1751.01
820.12	1697.77
820.29	1765.35
820.47	1755.11
820.64	1624.04
820.81	1613.80
820.98	1648.61
821.15	1628.14
821.33	1693.67
821.50	1615.85
821.67	1724.39
821.84	1675.24
822.02	1699.81
822.19	1722.34
822.36	1658.85
822.53	1697.77
822.70	1665.00
822.88	1714.15
823.05	1798.12
823.22	1705.96
823.39	1761.25
823.56	1703.91
823.74	1765.35
823.91	1677.29
824.08	1730.53
824.25	1605.61
824.42	1804.26
824.60	1662.95
824.77	1716.20
824.94	1632.23
825.11	1679.33
825.28	1662.95
825.45	1777.64
825.63	1705.96
825.80	1662.95
825.97	1746.92
826.14	1669.09
826.31	1689.57
826.48	1732.58
826.66	1716.20
826.83	1640.42
827.00	1806.31
827.17	1632.23
827.34	1685.48
827.51	1634.28
827.69	1677.29
827.86	1619.94
828.03	1691.62
828.20	1597.42
828.37	1689.57
828.54	1683.43
828.71	1665.00
828.89	1849.32
829.06	1697.77
829.23	1757.16
829.40	1701.86
829.57	1730.53
829.74	1693.67
829.91	1621.99
830.09	1654.76
830.26	1714.15
830.43	1714.15
830.60	1744.87
830.77	1716.20
830.94	1751.01
831.11	1703.91
831.28	1658.85
831.46	1712.10
831.63	1742.82
831.80	1767.40
831.97	1669.09
832.14	1642.47
832.31	1714.15
832.48	1759.21
832.65	1716.20
832.82	1687.53
832.99	1726.44
833.17	1697.77
833.34	1796.07
833.51	1716.20
833.68	1619.94
833.85	1771.49
834.02	1634.28
834.19	1585.13
834.36	1665.00
834.53	1669.09
834.70	1748.97
834.87	1742.82
835.04	1683.43
835.22	1738.73
835.39	1693.67
835.56	1691.62
835.73	1642.47
835.90	1724.39
836.07	1648.61
836.24	1720.29
836.41	1626.09
836.58	1632.23
836.75	1726.44
836.92	1789.92
837.09	1634.28
837.26	1716.20
837.43	1703.91
837.60	1730.53
837.77	1699.81
837.94	1773.54
838.12	1820.64
838.29	1654.76
838.46	1667.05
838.63	1634.28
838.80	1722.34
838.97	1660.90
839.14	1662.95
839.31	1683.43
839.48	1720.29
839.65	1671.14
839.82	1726.44
839.99	1691.62
840.16	1681.38
840.33	1650.66
840.50	1714.15
840.67	1554.41
840.84	1558.50
841.01	1699.81
841.18	1716.20
841.35	1669.09
841.52	1742.82
841.69	1806.31
841.86	1697.77
842.03	1716.20
842.20	1736.68
842.37	1693.67
842.54	1734.63
842.71	1689.57
842.88	1574.89
843.05	1791.97
843.22	1658.85
843.39	1669.09
843.56	1572.84
843.73	1720.29
843.90	1771.49
844.07	1685.48
844.24	1761.25
844.41	1812.45
844.58	1718.25
844.75	1693.67
844.92	1673.19
845.09	1613.80
845.26	1671.14
845.43	1695.72
845.60	1665.00
845.77	1724.39
845.94	1753.06
846.10	1724.39
846.27	1658.85
846.44	1679.33
846.61	1640.42
846.78	1748.97
846.95	1751.01
847.12	1738.73
847.29	1632.23
847.46	1650.66
847.63	1789.92
847.80	1669.09
847.97	1744.87
848.14	1783.78
848.31	1665.00
848.48	1621.99
848.65	1716.20
848.82	1652.71
848.98	1775.59
849.15	1794.02
849.32	1755.11
849.49	1779.68
849.66	1714.15
849.83	1673.19
850.00	1634.28
850.17	1714.15
850.34	1697.77
850.51	1685.48
850.68	1683.43
850.85	1867.75
851.01	1603.56
851.18	1621.99
851.35	1681.38
851.52	1679.33
851.69	1767.40
851.86	1677.29
852.03	1689.57
852.20	1712.10
852.37	1693.67
852.53	1583.08
852.70	1738.73
852.87	1685.48
853.04	1712.10
853.21	1695.72
853.38	1845.22
853.55	1830.88
853.72	1742.82
853.89	1628.14
854.05	1638.38
854.22	1576.94
854.39	1654.76
854.56	1697.77
854.73	1751.01
854.90	1593.32
855.07	1656.81
855.23	1708.01
855.40	1695.72
855.57	1589.22
855.74	1583.08
855.91	1812.45
856.08	1615.85
856.25	1636.33
856.41	1640.42
856.58	1703.91
856.75	1746.92
856.92	1607.66
857.09	1853.41
857.26	1626.09
857.42	1695.72
857.59	1781.73
857.76	1710.05
857.93	1685.48
858.10	1787.88
858.27	1628.14
858.43	1675.24
858.60	1634.28
858.77	1650.66
858.94	1669.09
859.11	1683.43
859.27	1662.95
859.44	1744.87
859.61	1800.16
859.78	1728.49
859.95	1673.19
860.12	1640.42
860.28	1763.30
860.45	1767.40
860.62	1654.76
860.79	1724.39
860.95	1685.48
861.12	1613.80
861.29	1679.33
861.46	1675.24
861.63	1671.14
861.79	1679.33
861.96	1632.23
862.13	1714.15
862.30	1746.92
862.47	1667.05
862.63	1675.24
862.80	1773.54
862.97	1724.39
863.14	1724.39
863.30	1732.58
863.47	1656.81
863.64	1734.63
863.81	1658.85
863.97	1636.33
864.14	1730.53
864.31	1665.00
864.48	1705.96
864.65	1605.61
864.81	1755.11
864.98	1708.01
865.15	1732.58
865.32	1712.10
865.48	1824.74
865.65	1728.49
865.82	1636.33
865.98	1714.15
866.15	1798.12
866.32	1671.14
866.49	1648.61
866.65	1779.68
866.82	1650.66
866.99	1648.61
867.16	1675.24
867.32	1656.81
867.49	1671.14
867.66	1632.23
867.83	1685.48
867.99	1597.42
868.16	1667.05
868.33	1552.36
868.49	1701.86
868.66	1640.42
868.83	1748.97
868.99	1736.68
869.16	1736.68
869.33	1746.92
869.50	1775.59
869.66	1632.23
869.83	1712.10
870.00	1640.42
870.16	1732.58
870.33	1691.62
870.50	1691.62
870.66	1644.52
870.83	1779.68
871.00	1742.82
871.17	1689.57
871.33	1718.25
871.50	1652.71
871.67	1720.29
871.83	1685.48
872.00	1812.45
872.17	1660.90
872.33	1777.64
872.50	1769.44
872.67	1726.44
872.83	1710.05
873.00	1708.01
873.17	1687.53
873.33	1736.68
873.50	1744.87
873.67	1583.08
873.83	1673.19
874.00	1720.29
874.16	1732.58
874.33	1712.10
874.50	1585.13
874.66	1683.43
874.83	1685.48
875.00	1740.77
875.16	1705.96
875.33	1734.63
875.50	1654.76
875.66	1669.09
875.83	1789.92
875.99	1708.01
876.16	1669.09
876.33	1648.61
876.49	1708.01
876.66	1714.15
876.83	1677.29
876.99	1607.66
877.16	1716.20
877.32	1714.15
877.49	1648.61
877.66	1710.05
877.82	1703.91
877.99	1740.77
878.15	1718.25
878.32	1746.92
878.49	1656.81
878.65	1714.15
878.82	1693.67
878.98	1634.28
879.15	1738.73
879.32	1806.31
879.48	1675.24
879.65	1665.00
879.81	1730.53
879.98	1675.24
880.15	1648.61
880.31	1662.95
880.48	1652.71
880.64	1714.15
880.81	1738.73
880.97	1824.74
881.14	1789.92
881.31	1669.09
881.47	1753.06
881.64	1675.24
881.80	1587.18
881.97	1736.68
882.13	1767.40
882.30	1628.14
882.47	1671.14
882.63	1583.08
882.80	1681.38
882.96	1691.62
883.13	1771.49
883.29	1677.29
883.46	1767.40
883.62	1724.39
883.79	1746.92
883.95	1781.73
884.12	1730.53
884.29	1785.83
884.45	1728.49
884.62	1724.39
884.78	1613.80
884.95	1837.03
885.11	1642.47
885.28	1744.87
885.44	1746.92
885.61	1677.29
885.77	1736.68
885.94	1724.39
886.10	1662.95
886.27	1773.54
886.43	1742.82
886.60	1738.73
886.76	1691.62
886.93	1607.66
887.09	1708.01
887.26	1658.85
887.42	1644.52
887.59	1746.92
887.75	1814.50
887.92	1859.56
888.08	1710.05
888.25	1652.71
888.41	1708.01
888.58	1687.53
888.74	1656.81
888.91	1656.81
>>>>>End Processed Spectral Data<<<<<
