SpectraSuite Data File
++++++++++++++++++++++++++++++++++++
Date: Mon Jun 06 15:44:17 CEST 2016
User: root
Dark Spectrum Present: No
Reference Spectrum Present: No
Number of Sampled Component Spectra: 1
Spectrometers: USB4C02835
Integration Time (usec): 100000 (USB4C02835)
Spectra Averaged: 1 (USB4C02835)
Boxcar Smoothing: 0 (USB4C02835)
Correct for Electrical Dark: No (USB4C02835)
Strobe/Lamp Enabled: No (USB4C02835)
Correct for Detector Non-linearity: No (USB4C02835)
Correct for Stray Light: No (USB4C02835)
Number of Pixels in Processed Spectrum: 3648
>>>>>Begin Processed Spectral Data<<<<<
177.47	1456.11
177.69	1456.11
177.91	1456.11
178.13	1521.64
178.36	1435.63
178.58	1630.18
178.80	1724.39
179.02	1591.27
179.24	1687.53
179.46	1669.09
179.68	1773.54
179.90	1763.30
180.13	1744.87
180.35	1652.71
180.57	1681.38
180.79	1708.01
181.01	1693.67
181.23	1761.25
181.45	1898.47
181.67	1708.01
181.90	1802.21
182.12	1697.77
182.34	1658.85
182.56	1755.11
182.78	1662.95
183.00	1769.44
183.22	1742.82
183.44	1638.38
183.66	1732.58
183.89	1783.78
184.11	1761.25
184.33	1732.58
184.55	1787.88
184.77	1722.34
184.99	1777.64
185.21	1716.20
185.43	1865.70
185.65	1673.19
185.87	1673.19
186.10	1894.37
186.32	1834.98
186.54	1720.29
186.76	1697.77
186.98	1710.05
187.20	1681.38
187.42	1683.43
187.64	1636.33
187.86	1730.53
188.08	1767.40
188.30	1794.02
188.52	1701.86
188.75	1738.73
188.97	1783.78
189.19	1744.87
189.41	1652.71
189.63	1798.12
189.85	1632.23
190.07	1759.21
190.29	1613.80
190.51	1685.48
190.73	1605.61
190.95	1800.16
191.17	1679.33
191.39	1675.24
191.61	1720.29
191.84	1734.63
192.06	1710.05
192.28	1617.90
192.50	1929.19
192.72	1751.01
192.94	1675.24
193.16	1730.53
193.38	1753.06
193.60	1595.37
193.82	1722.34
194.04	1683.43
194.26	1746.92
194.48	1689.57
194.70	1662.95
194.92	1714.15
195.14	1769.44
195.36	1712.10
195.58	1738.73
195.80	1646.57
196.02	1689.57
196.24	1705.96
196.46	1687.53
196.69	1720.29
196.91	1820.64
197.13	1654.76
197.35	1632.23
197.57	1777.64
197.79	1744.87
198.01	1726.44
198.23	1722.34
198.45	1681.38
198.67	1677.29
198.89	1660.90
199.11	1736.68
199.33	1689.57
199.55	1574.89
199.77	1712.10
199.99	1763.30
200.21	1648.61
200.43	1656.81
200.65	1615.85
200.87	1615.85
201.09	1720.29
201.31	1763.30
201.53	1759.21
201.75	1716.20
201.97	1718.25
202.19	1677.29
202.41	1703.91
202.63	1845.22
202.85	1716.20
203.07	1734.63
203.29	1712.10
203.51	1621.99
203.73	1650.66
203.95	1853.41
204.17	1705.96
204.39	1748.97
204.61	1724.39
204.83	1689.57
205.05	1746.92
205.27	1720.29
205.49	1855.46
205.71	1773.54
205.93	1546.22
206.15	1669.09
206.37	1714.15
206.59	1693.67
206.81	1624.04
207.03	1718.25
207.25	1628.14
207.47	1722.34
207.69	1638.38
207.91	1849.32
208.13	1787.88
208.34	1691.62
208.56	1738.73
208.78	1798.12
209.00	1734.63
209.22	1591.27
209.44	1755.11
209.66	1677.29
209.88	1693.67
210.10	1697.77
210.32	1693.67
210.54	1808.36
210.76	1728.49
210.98	1808.36
211.20	1583.08
211.42	1718.25
211.64	1834.98
211.86	1746.92
212.08	1734.63
212.30	1763.30
212.52	1689.57
212.74	1796.07
212.96	1734.63
213.17	1804.26
213.39	1775.59
213.61	1771.49
213.83	1667.05
214.05	1710.05
214.27	1712.10
214.49	1683.43
214.71	1660.90
214.93	1746.92
215.15	1648.61
215.37	1773.54
215.59	1626.09
215.81	1771.49
216.03	1824.74
216.24	1755.11
216.46	1753.06
216.68	1751.01
216.90	1771.49
217.12	1771.49
217.34	1802.21
217.56	1732.58
217.78	1740.77
218.00	1732.58
218.22	1728.49
218.44	1742.82
218.66	1740.77
218.87	1824.74
219.09	1607.66
219.31	1798.12
219.53	1748.97
219.75	1658.85
219.97	1771.49
220.19	1724.39
220.41	1656.81
220.63	1837.03
220.85	1726.44
221.06	1748.97
221.28	1718.25
221.50	1724.39
221.72	1687.53
221.94	1667.05
222.16	1746.92
222.38	1806.31
222.60	1732.58
222.82	1705.96
223.03	1675.24
223.25	1642.47
223.47	1703.91
223.69	1828.84
223.91	1703.91
224.13	1632.23
224.35	1710.05
224.57	1732.58
224.78	1757.16
225.00	1662.95
225.22	1720.29
225.44	1681.38
225.66	1732.58
225.88	1708.01
226.10	1697.77
226.32	1712.10
226.53	1781.73
226.75	1755.11
226.97	1675.24
227.19	1714.15
227.41	1730.53
227.63	1705.96
227.85	1617.90
228.06	1701.86
228.28	1687.53
228.50	1742.82
228.72	1654.76
228.94	1648.61
229.16	1626.09
229.37	1699.81
229.59	1685.48
229.81	1757.16
230.03	1701.86
230.25	1621.99
230.47	1617.90
230.69	1599.46
230.90	1734.63
231.12	1589.22
231.34	1748.97
231.56	1800.16
231.78	1605.61
232.00	1646.57
232.21	1732.58
232.43	1650.66
232.65	1587.18
232.87	1748.97
233.09	1687.53
233.30	1714.15
233.52	1845.22
233.74	1691.62
233.96	1701.86
234.18	1763.30
234.40	1669.09
234.61	1920.99
234.83	1662.95
235.05	1628.14
235.27	1830.88
235.49	1791.97
235.70	1654.76
235.92	1816.55
236.14	1751.01
236.36	1914.85
236.58	1650.66
236.79	1763.30
237.01	1796.07
237.23	1660.90
237.45	1806.31
237.67	1648.61
237.88	1767.40
238.10	1779.68
238.32	1578.98
238.54	1763.30
238.76	1714.15
238.97	1656.81
239.19	1642.47
239.41	1791.97
239.63	1732.58
239.85	1652.71
240.06	1693.67
240.28	1705.96
240.50	1730.53
240.72	1742.82
240.93	1726.44
241.15	1861.60
241.37	1728.49
241.59	1746.92
241.81	1632.23
242.02	1718.25
242.24	1710.05
242.46	1753.06
242.68	1724.39
242.89	1755.11
243.11	1748.97
243.33	1726.44
243.55	1740.77
243.76	1730.53
243.98	1658.85
244.20	1722.34
244.42	1738.73
244.64	1669.09
244.85	1615.85
245.07	1712.10
245.29	1841.12
245.51	1753.06
245.72	1818.60
245.94	1779.68
246.16	1703.91
246.38	1755.11
246.59	1691.62
246.81	1724.39
247.03	1656.81
247.24	1611.75
247.46	1701.86
247.68	1757.16
247.90	1646.57
248.11	1566.70
248.33	1755.11
248.55	1744.87
248.77	1740.77
248.98	1761.25
249.20	1877.99
249.42	1632.23
249.64	1699.81
249.85	1708.01
250.07	1667.05
250.29	1763.30
250.50	1697.77
250.72	1607.66
250.94	1775.59
251.16	1771.49
251.37	1705.96
251.59	1751.01
251.81	1652.71
252.02	1839.08
252.24	1693.67
252.46	1830.88
252.68	1714.15
252.89	1669.09
253.11	1583.08
253.33	1804.26
253.54	1796.07
253.76	1710.05
253.98	1644.52
254.20	1669.09
254.41	1607.66
254.63	1708.01
254.85	1671.14
255.06	1701.86
255.28	1734.63
255.50	1757.16
255.71	1656.81
255.93	1685.48
256.15	1703.91
256.36	1789.92
256.58	1660.90
256.80	1763.30
257.02	1687.53
257.23	1669.09
257.45	1779.68
257.67	1796.07
257.88	1603.56
258.10	1730.53
258.32	1732.58
258.53	1675.24
258.75	1810.40
258.97	1636.33
259.18	1710.05
259.40	1693.67
259.62	1755.11
259.83	1748.97
260.05	1816.55
260.27	2041.82
260.48	1718.25
260.70	1648.61
260.92	1722.34
261.13	1742.82
261.35	1695.72
261.57	1695.72
261.78	1640.42
262.00	1658.85
262.22	1738.73
262.43	1640.42
262.65	1722.34
262.86	1640.42
263.08	1925.09
263.30	1787.88
263.51	1542.12
263.73	1607.66
263.95	1843.17
264.16	1671.14
264.38	1605.61
264.60	1794.02
264.81	1718.25
265.03	1755.11
265.25	1781.73
265.46	1705.96
265.68	1753.06
265.89	1755.11
266.11	1681.38
266.33	1748.97
266.54	1771.49
266.76	1730.53
266.98	1753.06
267.19	1763.30
267.41	1769.44
267.62	1673.19
267.84	1656.81
268.06	1726.44
268.27	1728.49
268.49	1779.68
268.70	1783.78
268.92	1738.73
269.14	1640.42
269.35	1677.29
269.57	1630.18
269.79	1753.06
270.00	1726.44
270.22	1824.74
270.43	1621.99
270.65	1656.81
270.87	1732.58
271.08	1720.29
271.30	1771.49
271.51	1691.62
271.73	1765.35
271.95	1822.69
272.16	1728.49
272.38	1775.59
272.59	1718.25
272.81	1771.49
273.02	1630.18
273.24	1705.96
273.46	1738.73
273.67	1728.49
273.89	1677.29
274.10	1699.81
274.32	1806.31
274.54	1771.49
274.75	1759.21
274.97	1689.57
275.18	1757.16
275.40	1769.44
275.61	1701.86
275.83	1753.06
276.05	1624.04
276.26	1687.53
276.48	1728.49
276.69	1722.34
276.91	1701.86
277.12	1826.79
277.34	1726.44
277.55	1724.39
277.77	1732.58
277.99	1708.01
278.20	1638.38
278.42	1642.47
278.63	1710.05
278.85	1681.38
279.06	1609.70
279.28	1626.09
279.49	1822.69
279.71	1689.57
279.93	1699.81
280.14	1681.38
280.36	1742.82
280.57	1853.41
280.79	1695.72
281.00	1644.52
281.22	1689.57
281.43	1722.34
281.65	1624.04
281.86	1658.85
282.08	1705.96
282.29	1808.36
282.51	1665.00
282.73	1681.38
282.94	1615.85
283.16	1759.21
283.37	1753.06
283.59	1773.54
283.80	1816.55
284.02	1669.09
284.23	1673.19
284.45	1685.48
284.66	1687.53
284.88	1728.49
285.09	1757.16
285.31	1765.35
285.52	1691.62
285.74	1665.00
285.95	1701.86
286.17	1734.63
286.38	1814.50
286.60	1685.48
286.81	1751.01
287.03	1638.38
287.24	1683.43
287.46	1716.20
287.67	1728.49
287.89	1789.92
288.10	1695.72
288.32	1708.01
288.53	1794.02
288.75	1722.34
288.96	1791.97
289.18	1724.39
289.39	1638.38
289.61	1791.97
289.82	1771.49
290.04	1804.26
290.25	1656.81
290.47	1603.56
290.68	1660.90
290.90	1779.68
291.11	1638.38
291.33	1773.54
291.54	1667.05
291.76	1730.53
291.97	1740.77
292.18	1787.88
292.40	1677.29
292.61	1726.44
292.83	1800.16
293.04	1691.62
293.26	1726.44
293.47	1718.25
293.69	1697.77
293.90	1755.11
294.12	1726.44
294.33	1734.63
294.55	1800.16
294.76	1746.92
294.97	1720.29
295.19	1828.84
295.40	1636.33
295.62	1724.39
295.83	1753.06
296.05	1630.18
296.26	1837.03
296.48	1718.25
296.69	1710.05
296.90	1716.20
297.12	1775.59
297.33	1812.45
297.55	1691.62
297.76	1695.72
297.98	1802.21
298.19	1767.40
298.41	1708.01
298.62	1609.70
298.83	1767.40
299.05	1705.96
299.26	1742.82
299.48	1740.77
299.69	1738.73
299.90	1787.88
300.12	1687.53
300.33	1732.58
300.55	1748.97
300.76	1794.02
300.98	1646.57
301.19	1789.92
301.40	1697.77
301.62	1669.09
301.83	1687.53
302.05	1736.68
302.26	1722.34
302.47	1695.72
302.69	1619.94
302.90	1705.96
303.12	1576.94
303.33	1738.73
303.54	1800.16
303.76	1673.19
303.97	1701.86
304.19	1875.94
304.40	1601.51
304.61	1759.21
304.83	1947.62
305.04	1755.11
305.26	1751.01
305.47	1722.34
305.68	1728.49
305.90	1634.28
306.11	1808.36
306.33	1710.05
306.54	1652.71
306.75	1720.29
306.97	1695.72
307.18	1691.62
307.39	1703.91
307.61	1769.44
307.82	1771.49
308.04	1716.20
308.25	1679.33
308.46	1744.87
308.68	1757.16
308.89	1705.96
309.10	1794.02
309.32	1734.63
309.53	1763.30
309.74	1757.16
309.96	1669.09
310.17	1763.30
310.39	1708.01
310.60	1714.15
310.81	1740.77
311.03	1576.94
311.24	1761.25
311.45	1742.82
311.67	1820.64
311.88	1726.44
312.09	1773.54
312.31	1710.05
312.52	1658.85
312.73	1726.44
312.95	1599.46
313.16	1759.21
313.37	1771.49
313.59	1738.73
313.80	1662.95
314.01	1773.54
314.23	1759.21
314.44	1720.29
314.65	1634.28
314.87	1667.05
315.08	1675.24
315.29	1769.44
315.51	1652.71
315.72	1613.80
315.93	1791.97
316.15	1763.30
316.36	1667.05
316.57	1679.33
316.79	1763.30
317.00	1697.77
317.21	1785.83
317.43	1683.43
317.64	1644.52
317.85	1638.38
318.07	1652.71
318.28	1710.05
318.49	1785.83
318.70	1988.58
318.92	1859.56
319.13	1830.88
319.34	1908.71
319.56	1802.21
319.77	1740.77
319.98	1828.84
320.20	1904.61
320.41	1726.44
320.62	1714.15
320.83	1712.10
321.05	1847.27
321.26	1710.05
321.47	1685.48
321.69	1757.16
321.90	1595.37
322.11	1636.33
322.32	1724.39
322.54	1812.45
322.75	1658.85
322.96	1763.30
323.18	1632.23
323.39	1619.94
323.60	1613.80
323.81	1773.54
324.03	1726.44
324.24	1673.19
324.45	1734.63
324.66	1642.47
324.88	1734.63
325.09	1826.79
325.30	1755.11
325.52	1689.57
325.73	1794.02
325.94	1654.76
326.15	1650.66
326.37	1691.62
326.58	1769.44
326.79	1832.93
327.00	1662.95
327.22	1769.44
327.43	1732.58
327.64	1705.96
327.85	1726.44
328.07	1722.34
328.28	1789.92
328.49	1660.90
328.70	1755.11
328.92	1740.77
329.13	1697.77
329.34	1728.49
329.55	1800.16
329.76	1783.78
329.98	1671.14
330.19	1796.07
330.40	1720.29
330.61	1691.62
330.83	1779.68
331.04	1597.42
331.25	1746.92
331.46	1630.18
331.68	1640.42
331.89	1775.59
332.10	1677.29
332.31	1656.81
332.52	1658.85
332.74	1761.25
332.95	1624.04
333.16	1683.43
333.37	1712.10
333.58	1691.62
333.80	1716.20
334.01	1652.71
334.22	1761.25
334.43	1703.91
334.64	1626.09
334.86	1718.25
335.07	1730.53
335.28	1839.08
335.49	1578.98
335.70	1812.45
335.92	1730.53
336.13	1896.42
336.34	1720.29
336.55	1716.20
336.76	1701.86
336.98	1654.76
337.19	1742.82
337.40	1783.78
337.61	1867.75
337.82	1714.15
338.04	1703.91
338.25	1687.53
338.46	1650.66
338.67	1673.19
338.88	1675.24
339.09	1646.57
339.31	1695.72
339.52	1568.74
339.73	1708.01
339.94	1662.95
340.15	1814.50
340.36	1710.05
340.58	1665.00
340.79	1638.38
341.00	1814.50
341.21	1564.65
341.42	1816.55
341.63	1738.73
341.85	1783.78
342.06	1732.58
342.27	1671.14
342.48	1791.97
342.69	1578.98
342.90	1812.45
343.12	1800.16
343.33	1716.20
343.54	1726.44
343.75	1726.44
343.96	1722.34
344.17	1689.57
344.38	1734.63
344.60	1714.15
344.81	1640.42
345.02	1648.61
345.23	1726.44
345.44	1843.17
345.65	1726.44
345.86	1808.36
346.07	1699.81
346.29	1732.58
346.50	1726.44
346.71	1654.76
346.92	1816.55
347.13	1806.31
347.34	1669.09
347.55	1648.61
347.76	1757.16
347.98	1642.47
348.19	1675.24
348.40	1757.16
348.61	1738.73
348.82	1779.68
349.03	1746.92
349.24	1642.47
349.45	1740.77
349.66	1665.00
349.88	1787.88
350.09	1673.19
350.30	1851.36
350.51	1755.11
350.72	1808.36
350.93	1722.34
351.14	1691.62
351.35	1771.49
351.56	1652.71
351.77	1724.39
351.99	1648.61
352.20	1796.07
352.41	1748.97
352.62	1560.55
352.83	1673.19
353.04	1660.90
353.25	1626.09
353.46	1697.77
353.67	1816.55
353.88	1630.18
354.09	1740.77
354.30	1708.01
354.52	1794.02
354.73	1728.49
354.94	1675.24
355.15	1708.01
355.36	1798.12
355.57	1669.09
355.78	1804.26
355.99	1640.42
356.20	1648.61
356.41	1808.36
356.62	1765.35
356.83	1714.15
357.04	1748.97
357.25	1617.90
357.46	1697.77
357.68	1636.33
357.89	1710.05
358.10	1697.77
358.31	1718.25
358.52	1693.67
358.73	1611.75
358.94	1619.94
359.15	1644.52
359.36	1746.92
359.57	1687.53
359.78	1681.38
359.99	1705.96
360.20	1667.05
360.41	1714.15
360.62	1812.45
360.83	1818.60
361.04	1748.97
361.25	1718.25
361.46	1732.58
361.67	1738.73
361.88	1701.86
362.09	1740.77
362.30	1783.78
362.51	1677.29
362.72	1718.25
362.93	1722.34
363.14	1767.40
363.35	1628.14
363.56	1675.24
363.78	1767.40
363.99	1736.68
364.20	1683.43
364.41	1767.40
364.62	1789.92
364.83	1697.77
365.04	1687.53
365.25	1783.78
365.46	1888.23
365.67	1632.23
365.88	1646.57
366.09	1716.20
366.30	1679.33
366.51	1783.78
366.72	1617.90
366.93	1669.09
367.14	1699.81
367.35	1789.92
367.56	1689.57
367.77	1789.92
367.98	1822.69
368.18	1703.91
368.39	1759.21
368.60	1695.72
368.81	1767.40
369.02	1705.96
369.23	1710.05
369.44	1599.46
369.65	1650.66
369.86	1699.81
370.07	1771.49
370.28	1603.56
370.49	1693.67
370.70	1722.34
370.91	1656.81
371.12	1673.19
371.33	1757.16
371.54	1669.09
371.75	1787.88
371.96	1587.18
372.17	1697.77
372.38	1732.58
372.59	1769.44
372.80	1697.77
373.01	1697.77
373.22	1728.49
373.43	1732.58
373.64	1738.73
373.85	1822.69
374.06	1787.88
374.26	1826.79
374.47	1724.39
374.68	1775.59
374.89	1705.96
375.10	1693.67
375.31	1785.83
375.52	1767.40
375.73	1675.24
375.94	1689.57
376.15	1808.36
376.36	1695.72
376.57	1658.85
376.78	1632.23
376.99	1824.74
377.20	1873.89
377.40	1619.94
377.61	1769.44
377.82	1673.19
378.03	1720.29
378.24	1744.87
378.45	1705.96
378.66	1708.01
378.87	1578.98
379.08	1581.03
379.29	1673.19
379.50	1818.60
379.71	1757.16
379.91	1746.92
380.12	1675.24
380.33	1675.24
380.54	1755.11
380.75	1693.67
380.96	1732.58
381.17	1789.92
381.38	1710.05
381.59	1724.39
381.80	1701.86
382.00	1886.18
382.21	1763.30
382.42	1812.45
382.63	1927.14
382.84	1755.11
383.05	1779.68
383.26	1796.07
383.47	1726.44
383.68	1746.92
383.88	1751.01
384.09	1789.92
384.30	1857.51
384.51	1794.02
384.72	1732.58
384.93	1710.05
385.14	1763.30
385.35	1746.92
385.55	1697.77
385.76	1812.45
385.97	1802.21
386.18	1599.46
386.39	1691.62
386.60	1730.53
386.81	1693.67
387.02	1652.71
387.22	1705.96
387.43	1740.77
387.64	1763.30
387.85	1890.28
388.06	2263.01
388.27	4267.97
388.48	6786.97
388.68	8218.50
388.89	9310.07
389.10	9805.67
389.31	8365.95
389.52	7423.89
389.73	6756.25
389.93	6068.13
390.14	5814.18
390.35	5128.11
390.56	4495.29
390.77	3729.35
390.98	2904.02
391.18	2519.00
391.39	2074.59
391.60	1830.88
391.81	1857.51
392.02	1767.40
392.23	1869.80
392.43	1753.06
392.64	1861.60
392.85	1726.44
393.06	1787.88
393.27	1775.59
393.47	1667.05
393.68	1683.43
393.89	1679.33
394.10	1763.30
394.31	1693.67
394.52	1677.29
394.72	1624.04
394.93	1746.92
395.14	1626.09
395.35	1808.36
395.56	1665.00
395.76	1732.58
395.97	1800.16
396.18	1873.89
396.39	1837.03
396.60	2066.40
396.80	1851.36
397.01	1828.84
397.22	1918.95
397.43	1888.23
397.64	1759.21
397.84	1822.69
398.05	1810.40
398.26	1763.30
398.47	1738.73
398.67	1812.45
398.88	1748.97
399.09	1796.07
399.30	1693.67
399.51	1781.73
399.71	1681.38
399.92	1728.49
400.13	1699.81
400.34	1742.82
400.54	1726.44
400.75	1798.12
400.96	1736.68
401.17	1841.12
401.37	1751.01
401.58	1785.83
401.79	1736.68
402.00	1953.76
402.21	1933.28
402.41	1955.81
402.62	1937.38
402.83	2050.02
403.04	1970.15
403.24	2058.21
403.45	1863.65
403.66	1877.99
403.87	1875.94
404.07	1914.85
404.28	1873.89
404.49	1865.70
404.70	1787.88
404.90	1751.01
405.11	1767.40
405.32	1746.92
405.52	1607.66
405.73	1720.29
405.94	1658.85
406.15	1705.96
406.35	1775.59
406.56	1794.02
406.77	1800.16
406.98	1783.78
407.18	1681.38
407.39	1841.12
407.60	1744.87
407.80	1800.16
408.01	1669.09
408.22	1769.44
408.43	1667.05
408.63	1710.05
408.84	1763.30
409.05	1796.07
409.25	1667.05
409.46	1669.09
409.67	1685.48
409.88	1716.20
410.08	1769.44
410.29	1775.59
410.50	1683.43
410.70	1769.44
410.91	1660.90
411.12	1705.96
411.32	1738.73
411.53	1681.38
411.74	1810.40
411.95	1779.68
412.15	1736.68
412.36	1720.29
412.57	1816.55
412.77	1761.25
412.98	1701.86
413.19	1728.49
413.39	1748.97
413.60	1751.01
413.81	1751.01
414.01	1726.44
414.22	1773.54
414.43	1730.53
414.63	1732.58
414.84	1806.31
415.05	1722.34
415.25	1599.46
415.46	1734.63
415.67	1695.72
415.87	1746.92
416.08	1673.19
416.29	1595.37
416.49	1761.25
416.70	1679.33
416.91	1697.77
417.11	1701.86
417.32	1734.63
417.53	1755.11
417.73	1738.73
417.94	1712.10
418.15	1757.16
418.35	1751.01
418.56	1687.53
418.77	1802.21
418.97	1697.77
419.18	1675.24
419.38	1519.59
419.59	1695.72
419.80	1816.55
420.00	1669.09
420.21	1718.25
420.42	1742.82
420.62	1685.48
420.83	1726.44
421.04	1710.05
421.24	1732.58
421.45	1740.77
421.65	1708.01
421.86	1710.05
422.07	1691.62
422.27	1712.10
422.48	1773.54
422.69	1642.47
422.89	1652.71
423.10	1656.81
423.30	1675.24
423.51	1748.97
423.72	1742.82
423.92	1765.35
424.13	1665.00
424.33	1779.68
424.54	1734.63
424.75	1757.16
424.95	1722.34
425.16	1796.07
425.36	1771.49
425.57	1841.12
425.78	1808.36
425.98	1769.44
426.19	1691.62
426.39	1673.19
426.60	1732.58
426.81	1812.45
427.01	1732.58
427.22	1687.53
427.42	1656.81
427.63	1671.14
427.83	1814.50
428.04	1839.08
428.25	1775.59
428.45	1847.27
428.66	1787.88
428.86	1751.01
429.07	1746.92
429.28	1800.16
429.48	1732.58
429.69	1642.47
429.89	1767.40
430.10	1669.09
430.30	1710.05
430.51	1724.39
430.71	1677.29
430.92	1675.24
431.13	1705.96
431.33	1736.68
431.54	1746.92
431.74	1818.60
431.95	1808.36
432.15	1626.09
432.36	1738.73
432.56	1763.30
432.77	1867.75
432.98	1851.36
433.18	1691.62
433.39	1665.00
433.59	1675.24
433.80	1859.56
434.00	1767.40
434.21	1658.85
434.41	1611.75
434.62	1853.41
434.82	1654.76
435.03	1609.70
435.23	1769.44
435.44	1599.46
435.64	1816.55
435.85	1662.95
436.06	1689.57
436.26	1669.09
436.47	1705.96
436.67	1665.00
436.88	1693.67
437.08	1701.86
437.29	1847.27
437.49	1701.86
437.70	1841.12
437.90	1746.92
438.11	1837.03
438.31	1767.40
438.52	1820.64
438.72	1789.92
438.93	1937.38
439.13	1843.17
439.34	1841.12
439.54	1759.21
439.75	1806.31
439.95	1755.11
440.16	1640.42
440.36	1724.39
440.57	1736.68
440.77	1710.05
440.98	1734.63
441.18	1705.96
441.39	1751.01
441.59	1734.63
441.80	1855.46
442.00	1669.09
442.21	1818.60
442.41	1648.61
442.62	1710.05
442.82	1724.39
443.02	1800.16
443.23	1689.57
443.43	1732.58
443.64	1771.49
443.84	1732.58
444.05	1841.12
444.25	1740.77
444.46	1777.64
444.66	1724.39
444.87	1810.40
445.07	1681.38
445.28	1740.77
445.48	1818.60
445.69	1794.02
445.89	1857.51
446.09	1796.07
446.30	2000.87
446.50	2670.55
446.71	3639.24
446.91	4212.67
447.12	4812.73
447.32	4849.59
447.53	4171.71
447.73	3827.65
447.93	3483.59
448.14	3250.13
448.34	3123.15
448.55	2918.36
448.75	2856.92
448.96	2727.89
449.16	2451.42
449.36	2328.54
449.57	2019.30
449.77	1984.48
449.98	1820.64
450.18	1757.16
450.39	1822.69
450.59	1828.84
450.79	1755.11
451.00	1718.25
451.20	1701.86
451.41	1658.85
451.61	1716.20
451.81	1746.92
452.02	1691.62
452.22	1685.48
452.43	1740.77
452.63	1794.02
452.84	1679.33
453.04	1779.68
453.24	1746.92
453.45	1718.25
453.65	1712.10
453.86	1771.49
454.06	1802.21
454.26	1791.97
454.47	1705.96
454.67	1789.92
454.87	1746.92
455.08	1689.57
455.28	1890.28
455.49	1787.88
455.69	1665.00
455.89	1789.92
456.10	1798.12
456.30	1767.40
456.51	1767.40
456.71	1740.77
456.91	1804.26
457.12	1781.73
457.32	1705.96
457.52	1800.16
457.73	1775.59
457.93	1800.16
458.14	1783.78
458.34	1656.81
458.54	1724.39
458.75	1736.68
458.95	1798.12
459.15	1787.88
459.36	1703.91
459.56	1798.12
459.76	1964.00
459.97	1771.49
460.17	1814.50
460.37	1775.59
460.58	1775.59
460.78	1812.45
460.99	1726.44
461.19	1753.06
461.39	1705.96
461.60	1742.82
461.80	1744.87
462.00	1656.81
462.21	1695.72
462.41	1724.39
462.61	1722.34
462.82	1705.96
463.02	1771.49
463.22	1736.68
463.43	1845.22
463.63	1759.21
463.83	1806.31
464.04	1753.06
464.24	1751.01
464.44	1771.49
464.64	1636.33
464.85	1822.69
465.05	1832.93
465.25	1763.30
465.46	1728.49
465.66	1685.48
465.86	1775.59
466.07	1695.72
466.27	1693.67
466.47	1710.05
466.68	1581.03
466.88	1867.75
467.08	1810.40
467.29	1794.02
467.49	1746.92
467.69	1716.20
467.89	1738.73
468.10	1718.25
468.30	1808.36
468.50	1755.11
468.71	1830.88
468.91	1644.52
469.11	1843.17
469.31	1755.11
469.52	1619.94
469.72	1810.40
469.92	1863.65
470.13	1708.01
470.33	1726.44
470.53	1816.55
470.73	2148.32
470.94	2316.25
471.14	2328.54
471.34	2531.29
471.54	2451.42
471.75	2250.72
471.95	2086.88
472.15	2107.36
472.36	2086.88
472.56	2050.02
472.76	1998.82
472.96	2037.73
473.17	1925.09
473.37	1880.04
473.57	1746.92
473.77	1826.79
473.98	1730.53
474.18	1714.15
474.38	1968.10
474.58	1757.16
474.79	1757.16
474.99	1740.77
475.19	1832.93
475.39	1689.57
475.60	1767.40
475.80	1712.10
476.00	1728.49
476.20	1763.30
476.41	1738.73
476.61	1853.41
476.81	1781.73
477.01	1646.57
477.21	1767.40
477.42	1781.73
477.62	1640.42
477.82	1753.06
478.02	1751.01
478.23	1820.64
478.43	1611.75
478.63	1687.53
478.83	1724.39
479.03	1687.53
479.24	1828.84
479.44	1863.65
479.64	1638.38
479.84	1652.71
480.04	1683.43
480.25	1783.78
480.45	1718.25
480.65	1740.77
480.85	1853.41
481.06	1693.67
481.26	1751.01
481.46	1648.61
481.66	1779.68
481.86	1656.81
482.06	1802.21
482.27	1722.34
482.47	1650.66
482.67	1681.38
482.87	1720.29
483.07	1785.83
483.28	1708.01
483.48	1660.90
483.68	1765.35
483.88	1726.44
484.08	1640.42
484.29	1738.73
484.49	1712.10
484.69	1673.19
484.89	1777.64
485.09	1746.92
485.29	1763.30
485.50	1722.34
485.70	1708.01
485.90	1820.64
486.10	1757.16
486.30	1748.97
486.50	1798.12
486.71	1767.40
486.91	1730.53
487.11	1882.08
487.31	1628.14
487.51	1732.58
487.71	1628.14
487.91	1675.24
488.12	1677.29
488.32	1619.94
488.52	1601.51
488.72	1593.32
488.92	1734.63
489.12	1767.40
489.32	1824.74
489.53	1804.26
489.73	1710.05
489.93	1832.93
490.13	1714.15
490.33	1581.03
490.53	1771.49
490.73	1857.51
490.94	1648.61
491.14	1746.92
491.34	1794.02
491.54	2050.02
491.74	2498.52
491.94	2904.02
492.14	3006.42
492.34	2996.18
492.54	2748.37
492.75	2502.62
492.95	2494.43
493.15	2340.83
493.35	2326.49
493.55	2189.28
493.75	2164.70
493.95	2148.32
494.15	1992.67
494.35	1892.32
494.56	1830.88
494.76	1755.11
494.96	1904.61
495.16	1730.53
495.36	1720.29
495.56	1740.77
495.76	1775.59
495.96	1791.97
496.16	1720.29
496.36	1824.74
496.56	1724.39
496.77	1748.97
496.97	1740.77
497.17	1808.36
497.37	1636.33
497.57	1759.21
497.77	1777.64
497.97	1640.42
498.17	1828.84
498.37	1751.01
498.57	1757.16
498.77	1689.57
498.97	1814.50
499.17	1830.88
499.38	1710.05
499.58	1765.35
499.78	1828.84
499.98	1818.60
500.18	1726.44
500.38	1732.58
500.58	1877.99
500.78	2496.47
500.98	4579.26
501.18	5834.66
501.38	6772.63
501.58	7098.26
501.78	6662.04
501.98	5380.01
502.18	4882.36
502.38	4296.64
502.58	4124.61
502.78	3786.69
502.98	3581.90
503.18	3422.16
503.38	3112.91
503.59	2754.52
503.79	2619.35
503.99	2490.33
504.19	2301.92
504.39	2174.94
504.59	2195.42
504.79	2107.36
504.99	2115.55
505.19	1910.75
505.39	1865.70
505.59	2072.54
505.79	1986.53
505.99	1855.46
506.19	1820.64
506.39	1791.97
506.59	1849.32
506.79	1763.30
506.99	1832.93
507.19	1785.83
507.39	1855.46
507.59	1667.05
507.79	1796.07
507.99	1695.72
508.19	1751.01
508.39	1677.29
508.59	1759.21
508.79	1882.08
508.99	1863.65
509.19	1673.19
509.39	1757.16
509.59	1642.47
509.79	1708.01
509.99	1665.00
510.19	1812.45
510.39	1871.84
510.59	1738.73
510.79	1748.97
510.99	1701.86
511.19	1759.21
511.39	1812.45
511.59	1822.69
511.79	1808.36
511.99	1759.21
512.19	1822.69
512.38	1812.45
512.58	1740.77
512.78	1765.35
512.98	1757.16
513.18	1869.80
513.38	1624.04
513.58	1794.02
513.78	1687.53
513.98	1796.07
514.18	1656.81
514.38	1679.33
514.58	1808.36
514.78	1695.72
514.98	1755.11
515.18	1755.11
515.38	1675.24
515.58	1933.28
515.78	1769.44
515.98	1746.92
516.18	1779.68
516.38	1718.25
516.57	1693.67
516.77	1693.67
516.97	1802.21
517.17	1652.71
517.37	1679.33
517.57	1804.26
517.77	1732.58
517.97	1677.29
518.17	1755.11
518.37	1685.48
518.57	1720.29
518.77	1714.15
518.97	1738.73
519.16	1681.38
519.36	1742.82
519.56	1697.77
519.76	1679.33
519.96	1681.38
520.16	1871.84
520.36	1712.10
520.56	1857.51
520.76	1665.00
520.96	1744.87
521.16	1820.64
521.35	1853.41
521.55	1816.55
521.75	1767.40
521.95	1699.81
522.15	1701.86
522.35	1605.61
522.55	1677.29
522.75	1783.78
522.95	1675.24
523.14	1677.29
523.34	1753.06
523.54	1757.16
523.74	1791.97
523.94	1736.68
524.14	1689.57
524.34	1820.64
524.54	1785.83
524.73	1724.39
524.93	1796.07
525.13	1712.10
525.33	1734.63
525.53	1898.47
525.73	1816.55
525.93	1722.34
526.13	1708.01
526.32	1812.45
526.52	1839.08
526.72	1798.12
526.92	1730.53
527.12	1751.01
527.32	1605.61
527.52	1748.97
527.71	1824.74
527.91	1701.86
528.11	1634.28
528.31	1703.91
528.51	1681.38
528.71	1777.64
528.90	1816.55
529.10	1828.84
529.30	1769.44
529.50	1724.39
529.70	1751.01
529.90	1742.82
530.09	1773.54
530.29	1724.39
530.49	1683.43
530.69	1820.64
530.89	1753.06
531.09	1847.27
531.28	1654.76
531.48	1779.68
531.68	1765.35
531.88	1738.73
532.08	1830.88
532.28	1691.62
532.47	1841.12
532.67	1791.97
532.87	1777.64
533.07	1742.82
533.27	1851.36
533.46	1783.78
533.66	1789.92
533.86	1736.68
534.06	1822.69
534.26	1734.63
534.45	1728.49
534.65	1742.82
534.85	1753.06
535.05	1703.91
535.25	1753.06
535.44	1613.80
535.64	1787.88
535.84	1751.01
536.04	1765.35
536.24	1701.86
536.43	1720.29
536.63	1746.92
536.83	1771.49
537.03	1714.15
537.22	1689.57
537.42	1720.29
537.62	1712.10
537.82	1730.53
538.02	1824.74
538.21	1863.65
538.41	1920.99
538.61	1849.32
538.81	1648.61
539.00	1722.34
539.20	1681.38
539.40	1660.90
539.60	1742.82
539.79	1722.34
539.99	1701.86
540.19	1660.90
540.39	1773.54
540.58	1734.63
540.78	1800.16
540.98	1765.35
541.18	1826.79
541.37	1748.97
541.57	1767.40
541.77	1798.12
541.97	1714.15
542.16	1681.38
542.36	1701.86
542.56	1783.78
542.76	1863.65
542.95	1855.46
543.15	1730.53
543.35	1822.69
543.54	1689.57
543.74	1660.90
543.94	1753.06
544.14	1728.49
544.33	1746.92
544.53	1705.96
544.73	1734.63
544.93	1642.47
545.12	1728.49
545.32	1753.06
545.52	1753.06
545.71	1662.95
545.91	1759.21
546.11	1748.97
546.30	1703.91
546.50	1722.34
546.70	1736.68
546.90	1771.49
547.09	1718.25
547.29	1794.02
547.49	1738.73
547.68	1791.97
547.88	1673.19
548.08	1830.88
548.27	2230.24
548.47	1724.39
548.67	1687.53
548.87	1712.10
549.06	1665.00
549.26	1800.16
549.46	1761.25
549.65	1701.86
549.85	1781.73
550.05	1763.30
550.24	1679.33
550.44	1712.10
550.64	1775.59
550.83	1697.77
551.03	1765.35
551.23	1802.21
551.42	1736.68
551.62	1658.85
551.82	1755.11
552.01	1710.05
552.21	1841.12
552.41	1757.16
552.60	1789.92
552.80	1763.30
553.00	1785.83
553.19	1736.68
553.39	1841.12
553.59	1648.61
553.78	1726.44
553.98	1660.90
554.17	1687.53
554.37	1767.40
554.57	1767.40
554.76	1662.95
554.96	1742.82
555.16	1742.82
555.35	1791.97
555.55	1755.11
555.75	1751.01
555.94	1736.68
556.14	1665.00
556.33	1802.21
556.53	1724.39
556.73	1759.21
556.92	1816.55
557.12	1869.80
557.32	1855.46
557.51	1734.63
557.71	1822.69
557.90	1806.31
558.10	1880.04
558.30	1703.91
558.49	1789.92
558.69	1619.94
558.88	1728.49
559.08	1863.65
559.28	1794.02
559.47	1681.38
559.67	1814.50
559.86	1888.23
560.06	1828.84
560.26	1665.00
560.45	1777.64
560.65	1699.81
560.84	1783.78
561.04	1699.81
561.24	1759.21
561.43	1730.53
561.63	1886.18
561.82	1769.44
562.02	1757.16
562.22	1708.01
562.41	1722.34
562.61	1724.39
562.80	1789.92
563.00	1918.95
563.19	1722.34
563.39	1773.54
563.59	1834.98
563.78	1665.00
563.98	1703.91
564.17	1689.57
564.37	1646.57
564.56	1742.82
564.76	1599.46
564.96	1902.56
565.15	1705.96
565.35	1892.32
565.54	1794.02
565.74	1857.51
565.93	1855.46
566.13	1726.44
566.32	1744.87
566.52	1828.84
566.71	1740.77
566.91	1822.69
567.11	1687.53
567.30	1753.06
567.50	1746.92
567.69	1730.53
567.89	1665.00
568.08	1728.49
568.28	1787.88
568.47	1720.29
568.67	1740.77
568.86	1751.01
569.06	1777.64
569.25	1708.01
569.45	1701.86
569.64	1726.44
569.84	1701.86
570.04	1849.32
570.23	1744.87
570.43	1746.92
570.62	1677.29
570.82	1880.04
571.01	1712.10
571.21	1728.49
571.40	1804.26
571.60	1705.96
571.79	1724.39
571.99	1695.72
572.18	1820.64
572.38	1816.55
572.57	1665.00
572.77	1736.68
572.96	1959.91
573.16	1804.26
573.35	1738.73
573.55	1855.46
573.74	1832.93
573.94	1746.92
574.13	1720.29
574.33	1810.40
574.52	1806.31
574.71	1787.88
574.91	1853.41
575.10	1691.62
575.30	1828.84
575.49	1673.19
575.69	1691.62
575.88	1773.54
576.08	1783.78
576.27	1773.54
576.47	1808.36
576.66	1841.12
576.86	1816.55
577.05	1818.60
577.25	1777.64
577.44	1923.04
577.64	1714.15
577.83	1834.98
578.02	1708.01
578.22	1828.84
578.41	1898.47
578.61	1705.96
578.80	1726.44
579.00	1824.74
579.19	1839.08
579.39	1871.84
579.58	1898.47
579.77	1779.68
579.97	1822.69
580.16	1789.92
580.36	1789.92
580.55	1810.40
580.75	1814.50
580.94	1744.87
581.13	1861.60
581.33	1841.12
581.52	1728.49
581.72	1861.60
581.91	1859.56
582.11	1806.31
582.30	1794.02
582.49	1740.77
582.69	1837.03
582.88	1857.51
583.08	1738.73
583.27	1918.95
583.47	1746.92
583.66	1779.68
583.85	1757.16
584.05	1683.43
584.24	1738.73
584.44	1791.97
584.63	1806.31
584.82	1900.52
585.02	1888.23
585.21	1777.64
585.41	1978.34
585.60	1851.36
585.79	1994.72
585.99	1953.76
586.18	1832.93
586.37	2193.37
586.57	3497.93
586.76	9914.22
586.96	24245.90
587.15	34006.52
587.34	40121.76
587.54	41493.89
587.73	36105.69
587.93	26181.23
588.12	21317.31
588.31	17874.67
588.51	16099.08
588.70	14890.78
588.89	13780.78
589.09	12308.29
589.28	10927.96
589.47	9373.55
589.67	7952.26
589.86	6449.05
590.06	4806.58
590.25	3788.74
590.44	3033.04
590.64	2553.82
590.83	2287.58
591.02	2164.70
591.22	1906.66
591.41	1910.75
591.60	1787.88
591.80	1908.71
591.99	1816.55
592.18	1822.69
592.38	1898.47
592.57	1785.83
592.76	1849.32
592.96	1740.77
593.15	1718.25
593.34	1736.68
593.54	1796.07
593.73	1812.45
593.92	1824.74
594.12	1777.64
594.31	1730.53
594.50	1804.26
594.70	1783.78
594.89	1804.26
595.08	1736.68
595.28	1761.25
595.47	1951.71
595.66	1771.49
595.86	1632.23
596.05	1798.12
596.24	1695.72
596.43	1867.75
596.63	1773.54
596.82	1697.77
597.01	1753.06
597.21	1904.61
597.40	1755.11
597.59	1791.97
597.79	1781.73
597.98	1787.88
598.17	1761.25
598.36	1765.35
598.56	1796.07
598.75	1708.01
598.94	1794.02
599.14	1806.31
599.33	1638.38
599.52	1781.73
599.71	1744.87
599.91	1761.25
600.10	1769.44
600.29	1771.49
600.48	1789.92
600.68	1771.49
600.87	1736.68
601.06	1779.68
601.26	1818.60
601.45	1669.09
601.64	1759.21
601.83	1787.88
602.03	1703.91
602.22	1734.63
602.41	1740.77
602.60	1890.28
602.80	1834.98
602.99	1734.63
603.18	1742.82
603.37	1757.16
603.57	1746.92
603.76	1794.02
603.95	1783.78
604.14	1691.62
604.34	1693.67
604.53	1718.25
604.72	1650.66
604.91	1810.40
605.10	1822.69
605.30	1705.96
605.49	1849.32
605.68	1730.53
605.87	1787.88
606.07	1628.14
606.26	1746.92
606.45	1789.92
606.64	1744.87
606.84	1738.73
607.03	1734.63
607.22	1822.69
607.41	1708.01
607.60	1751.01
607.80	1703.91
607.99	1732.58
608.18	1771.49
608.37	1730.53
608.56	1636.33
608.76	1728.49
608.95	1808.36
609.14	1800.16
609.33	1798.12
609.52	1781.73
609.72	1783.78
609.91	1812.45
610.10	1736.68
610.29	1865.70
610.48	1769.44
610.68	1738.73
610.87	1802.21
611.06	1826.79
611.25	1732.58
611.44	1796.07
611.63	1724.39
611.83	1798.12
612.02	1701.86
612.21	1826.79
612.40	1660.90
612.59	1759.21
612.79	1624.04
612.98	1689.57
613.17	1837.03
613.36	1703.91
613.55	1830.88
613.74	1753.06
613.93	1665.00
614.13	1708.01
614.32	1748.97
614.51	1714.15
614.70	1761.25
614.89	1736.68
615.08	1787.88
615.28	2084.83
615.47	1693.67
615.66	1681.38
615.85	1701.86
616.04	1841.12
616.23	1773.54
616.42	1791.97
616.62	1765.35
616.81	1691.62
617.00	1765.35
617.19	1765.35
617.38	1675.24
617.57	1701.86
617.76	1763.30
617.95	1804.26
618.15	1761.25
618.34	1867.75
618.53	1718.25
618.72	1896.42
618.91	1775.59
619.10	1847.27
619.29	1656.81
619.48	1728.49
619.68	1705.96
619.87	1652.71
620.06	1646.57
620.25	1736.68
620.44	1759.21
620.63	1765.35
620.82	1751.01
621.01	1800.16
621.20	1691.62
621.39	1837.03
621.59	1767.40
621.78	1701.86
621.97	1726.44
622.16	1806.31
622.35	1773.54
622.54	1779.68
622.73	1765.35
622.92	1712.10
623.11	1832.93
623.30	1730.53
623.49	1789.92
623.68	1677.29
623.88	1853.41
624.07	1769.44
624.26	1732.58
624.45	1761.25
624.64	1728.49
624.83	1705.96
625.02	1669.09
625.21	1763.30
625.40	1808.36
625.59	1787.88
625.78	1718.25
625.97	1773.54
626.16	1740.77
626.35	1718.25
626.54	1728.49
626.74	1765.35
626.93	1753.06
627.12	1650.66
627.31	1798.12
627.50	1722.34
627.69	1789.92
627.88	1658.85
628.07	1681.38
628.26	1658.85
628.45	1779.68
628.64	1683.43
628.83	1744.87
629.02	1669.09
629.21	1789.92
629.40	1757.16
629.59	1697.77
629.78	1605.61
629.97	1736.68
630.16	1789.92
630.35	1697.77
630.54	1783.78
630.73	1679.33
630.92	1712.10
631.11	1699.81
631.30	1771.49
631.49	1845.22
631.68	1738.73
631.87	1740.77
632.06	1701.86
632.25	1890.28
632.44	1640.42
632.63	1806.31
632.82	1744.87
633.01	1636.33
633.20	1716.20
633.39	1675.24
633.58	1693.67
633.77	1775.59
633.96	1660.90
634.15	1708.01
634.34	1699.81
634.53	1718.25
634.72	1751.01
634.91	1624.04
635.10	1779.68
635.29	1791.97
635.48	1804.26
635.67	1753.06
635.86	1660.90
636.05	1732.58
636.24	1693.67
636.43	1779.68
636.62	1767.40
636.81	1613.80
637.00	1775.59
637.19	1763.30
637.38	1779.68
637.57	1761.25
637.76	1658.85
637.95	1705.96
638.14	1660.90
638.33	1675.24
638.52	1732.58
638.71	1656.81
638.89	1724.39
639.08	1796.07
639.27	1726.44
639.46	1677.29
639.65	1804.26
639.84	1646.57
640.03	1746.92
640.22	1701.86
640.41	1837.03
640.60	1677.29
640.79	1718.25
640.98	1740.77
641.17	1769.44
641.36	1796.07
641.55	1785.83
641.74	1697.77
641.92	1705.96
642.11	1693.67
642.30	1753.06
642.49	1720.29
642.68	1738.73
642.87	1777.64
643.06	1771.49
643.25	1796.07
643.44	1730.53
643.63	1761.25
643.82	1783.78
644.00	1681.38
644.19	1732.58
644.38	1720.29
644.57	1771.49
644.76	1753.06
644.95	1712.10
645.14	1816.55
645.33	1748.97
645.52	1738.73
645.71	1665.00
645.89	1650.66
646.08	1691.62
646.27	1746.92
646.46	1748.97
646.65	1708.01
646.84	1726.44
647.03	1687.53
647.22	1771.49
647.40	1718.25
647.59	1689.57
647.78	1581.03
647.97	1679.33
648.16	1642.47
648.35	1814.50
648.54	1779.68
648.73	1757.16
648.91	1656.81
649.10	1673.19
649.29	1691.62
649.48	1673.19
649.67	1693.67
649.86	1763.30
650.05	1710.05
650.23	1804.26
650.42	1677.29
650.61	1771.49
650.80	1761.25
650.99	1931.23
651.18	1783.78
651.36	1857.51
651.55	1761.25
651.74	1751.01
651.93	1710.05
652.12	1740.77
652.31	1826.79
652.49	1654.76
652.68	1736.68
652.87	1832.93
653.06	1734.63
653.25	1812.45
653.44	1607.66
653.62	1714.15
653.81	1685.48
654.00	1722.34
654.19	1785.83
654.38	1886.18
654.56	1806.31
654.75	1738.73
654.94	1820.64
655.13	1787.88
655.32	1730.53
655.51	1787.88
655.69	1693.67
655.88	1734.63
656.07	1609.70
656.26	1746.92
656.45	1632.23
656.63	1705.96
656.82	1791.97
657.01	1720.29
657.20	1693.67
657.38	1775.59
657.57	1677.29
657.76	1630.18
657.95	1734.63
658.14	1724.39
658.32	1697.77
658.51	1771.49
658.70	1685.48
658.89	1771.49
659.08	1695.72
659.26	1824.74
659.45	1640.42
659.64	1763.30
659.83	1722.34
660.01	1916.90
660.20	1726.44
660.39	1804.26
660.58	1628.14
660.76	1845.22
660.95	1685.48
661.14	1734.63
661.33	1671.14
661.51	1656.81
661.70	1759.21
661.89	1726.44
662.08	1748.97
662.26	1617.90
662.45	1695.72
662.64	1806.31
662.83	1685.48
663.01	1648.61
663.20	1712.10
663.39	1763.30
663.58	1675.24
663.76	1705.96
663.95	1769.44
664.14	1701.86
664.32	1734.63
664.51	1667.05
664.70	1624.04
664.89	1665.00
665.07	1697.77
665.26	1796.07
665.45	1705.96
665.64	1736.68
665.82	1732.58
666.01	1781.73
666.20	1675.24
666.38	1820.64
666.57	1843.17
666.76	2181.09
666.95	4507.58
667.13	10307.43
667.32	15392.53
667.51	17770.22
667.69	18833.12
667.88	17508.08
668.07	12232.52
668.25	9424.75
668.44	8044.42
668.63	7309.20
668.81	6825.88
669.00	6225.82
669.19	5674.92
669.38	5107.63
669.56	4493.24
669.75	3915.72
669.94	3422.16
670.12	2762.71
670.31	2547.67
670.50	2236.38
670.68	2220.00
670.87	1976.29
671.06	1783.78
671.24	1820.64
671.43	1886.18
671.62	1726.44
671.80	1734.63
671.99	1701.86
672.18	1716.20
672.36	1767.40
672.55	1679.33
672.74	1748.97
672.92	1683.43
673.11	1802.21
673.29	1646.57
673.48	1765.35
673.67	1685.48
673.85	1822.69
674.04	1621.99
674.23	1769.44
674.41	1818.60
674.60	1740.77
674.79	1628.14
674.97	1662.95
675.16	1783.78
675.34	1755.11
675.53	1718.25
675.72	1693.67
675.90	1759.21
676.09	1728.49
676.28	1755.11
676.46	1665.00
676.65	1781.73
676.83	1720.29
677.02	1757.16
677.21	1746.92
677.39	1603.56
677.58	1681.38
677.77	1685.48
677.95	1728.49
678.14	1767.40
678.32	1767.40
678.51	1753.06
678.70	1783.78
678.88	1689.57
679.07	1734.63
679.25	1773.54
679.44	1712.10
679.63	1609.70
679.81	1703.91
680.00	1777.64
680.18	1669.09
680.37	1830.88
680.55	1732.58
680.74	1642.47
680.93	1671.14
681.11	1746.92
681.30	1728.49
681.48	1732.58
681.67	1656.81
681.85	1781.73
682.04	1683.43
682.23	1769.44
682.41	1724.39
682.60	1722.34
682.78	1681.38
682.97	1669.09
683.15	1722.34
683.34	1693.67
683.53	1857.51
683.71	1681.38
683.90	1763.30
684.08	1810.40
684.27	1724.39
684.45	1714.15
684.64	1806.31
684.82	1689.57
685.01	1783.78
685.19	1761.25
685.38	1787.88
685.57	1779.68
685.75	1609.70
685.94	1751.01
686.12	1671.14
686.31	1665.00
686.49	1857.51
686.68	1644.52
686.86	1705.96
687.05	1726.44
687.23	1751.01
687.42	1708.01
687.60	1714.15
687.79	1730.53
687.97	1828.84
688.16	1794.02
688.34	1789.92
688.53	1609.70
688.71	1796.07
688.90	1810.40
689.08	1755.11
689.27	1712.10
689.45	1746.92
689.64	1732.58
689.82	1800.16
690.01	1802.21
690.19	1746.92
690.38	1755.11
690.56	1765.35
690.75	1701.86
690.93	1685.48
691.12	1652.71
691.30	1708.01
691.49	1665.00
691.67	1673.19
691.86	1791.97
692.04	1705.96
692.23	1632.23
692.41	1724.39
692.60	1812.45
692.78	1746.92
692.97	1689.57
693.15	1763.30
693.34	1863.65
693.52	1740.77
693.71	1691.62
693.89	1626.09
694.08	1644.52
694.26	1720.29
694.44	1763.30
694.63	1673.19
694.81	1658.85
695.00	1714.15
695.18	1740.77
695.37	1800.16
695.55	1681.38
695.74	1681.38
695.92	1652.71
696.10	1849.32
696.29	1562.60
696.47	1771.49
696.66	1640.42
696.84	1687.53
697.03	1712.10
697.21	1753.06
697.40	2263.01
697.58	1787.88
697.76	1746.92
697.95	1685.48
698.13	1611.75
698.32	1654.76
698.50	1736.68
698.68	1789.92
698.87	1734.63
699.05	1787.88
699.24	1710.05
699.42	1689.57
699.61	1683.43
699.79	1689.57
699.97	1775.59
700.16	1648.61
700.34	1644.52
700.53	1767.40
700.71	1826.79
700.89	1857.51
701.08	1675.24
701.26	1720.29
701.45	2095.07
701.63	1691.62
701.81	1722.34
702.00	1714.15
702.18	1712.10
702.37	1697.77
702.55	1726.44
702.73	1671.14
702.92	1644.52
703.10	1767.40
703.28	1693.67
703.47	1644.52
703.65	1736.68
703.84	1714.15
704.02	1697.77
704.20	1783.78
704.39	1591.27
704.57	1726.44
704.75	1791.97
704.94	1822.69
705.12	1708.01
705.30	1806.31
705.49	2217.95
705.67	4577.21
705.86	9396.08
706.04	12482.37
706.22	14296.87
706.41	14923.55
706.59	13526.83
706.77	9312.11
706.96	7450.51
707.14	6477.73
707.32	5869.48
707.51	5541.80
707.69	4835.25
707.87	4175.81
708.06	3450.83
708.24	2910.16
708.42	2418.65
708.61	2271.20
708.79	1904.61
708.97	1843.17
709.16	1861.60
709.34	1697.77
709.52	1851.36
709.71	1755.11
709.89	1753.06
710.07	1738.73
710.26	1636.33
710.44	1736.68
710.62	1771.49
710.80	1738.73
710.99	1710.05
711.17	1806.31
711.35	1701.86
711.54	1687.53
711.72	1779.68
711.90	1736.68
712.09	1781.73
712.27	1685.48
712.45	1677.29
712.63	1730.53
712.82	1718.25
713.00	1679.33
713.18	1791.97
713.37	1732.58
713.55	1759.21
713.73	1667.05
713.91	1689.57
714.10	1787.88
714.28	1722.34
714.46	1765.35
714.65	1660.90
714.83	1708.01
715.01	1718.25
715.19	1771.49
715.38	1675.24
715.56	1716.20
715.74	1613.80
715.92	1689.57
716.11	1779.68
716.29	1613.80
716.47	1681.38
716.65	1685.48
716.84	1669.09
717.02	1796.07
717.20	1691.62
717.38	1746.92
717.57	1759.21
717.75	1724.39
717.93	1650.66
718.11	1748.97
718.30	1615.85
718.48	1685.48
718.66	1722.34
718.84	1734.63
719.03	1736.68
719.21	1730.53
719.39	1843.17
719.57	1699.81
719.75	1736.68
719.94	1638.38
720.12	1718.25
720.30	1755.11
720.48	1796.07
720.67	1677.29
720.85	1566.70
721.03	1718.25
721.21	1693.67
721.39	1812.45
721.58	1763.30
721.76	1720.29
721.94	1708.01
722.12	1675.24
722.30	1830.88
722.49	1712.10
722.67	1699.81
722.85	1767.40
723.03	1644.52
723.21	1642.47
723.40	1712.10
723.58	1791.97
723.76	1734.63
723.94	1757.16
724.12	1740.77
724.30	1791.97
724.49	1798.12
724.67	1732.58
724.85	1695.72
725.03	1693.67
725.21	1701.86
725.40	1796.07
725.58	1640.42
725.76	1796.07
725.94	1759.21
726.12	1648.61
726.30	1607.66
726.49	1710.05
726.67	1699.81
726.85	1736.68
727.03	1738.73
727.21	2197.47
727.39	2961.36
727.57	3725.26
727.76	4270.01
727.94	4470.72
728.12	4315.07
728.30	3704.78
728.48	2936.79
728.66	2682.84
728.84	2576.34
729.03	2342.88
729.21	2078.69
729.39	1984.48
729.57	1826.79
729.75	1757.16
729.93	1855.46
730.11	1669.09
730.30	1740.77
730.48	1656.81
730.66	1800.16
730.84	1804.26
731.02	1712.10
731.20	1662.95
731.38	1734.63
731.56	1658.85
731.74	1703.91
731.93	1775.59
732.11	1665.00
732.29	1701.86
732.47	1722.34
732.65	1665.00
732.83	1812.45
733.01	1779.68
733.19	1703.91
733.37	1701.86
733.56	1787.88
733.74	1755.11
733.92	1853.41
734.10	1679.33
734.28	1720.29
734.46	1611.75
734.64	1718.25
734.82	1765.35
735.00	1697.77
735.18	1665.00
735.36	1626.09
735.54	1742.82
735.73	1718.25
735.91	1738.73
736.09	1789.92
736.27	1675.24
736.45	1728.49
736.63	1591.27
736.81	1652.71
736.99	1796.07
737.17	1755.11
737.35	1705.96
737.53	1701.86
737.71	1712.10
737.89	1734.63
738.07	1656.81
738.25	1687.53
738.43	1648.61
738.61	1650.66
738.80	1658.85
738.98	1669.09
739.16	1636.33
739.34	1693.67
739.52	1785.83
739.70	1712.10
739.88	1804.26
740.06	1771.49
740.24	1591.27
740.42	1789.92
740.60	1624.04
740.78	1638.38
740.96	1636.33
741.14	1732.58
741.32	1771.49
741.50	1601.51
741.68	1824.74
741.86	1757.16
742.04	1658.85
742.22	1671.14
742.40	1777.64
742.58	1714.15
742.76	1673.19
742.94	1744.87
743.12	1656.81
743.30	1773.54
743.48	1757.16
743.66	1656.81
743.84	1746.92
744.02	1689.57
744.20	1738.73
744.38	1693.67
744.56	1638.38
744.74	1820.64
744.92	1720.29
745.10	1779.68
745.28	1779.68
745.46	1818.60
745.64	1755.11
745.82	1753.06
746.00	1724.39
746.18	1724.39
746.36	1681.38
746.54	1724.39
746.72	1601.51
746.90	1583.08
747.08	1710.05
747.26	1777.64
747.44	1730.53
747.62	1771.49
747.80	1730.53
747.98	1677.29
748.15	1751.01
748.33	1820.64
748.51	1722.34
748.69	1789.92
748.87	1601.51
749.05	1730.53
749.23	1679.33
749.41	1742.82
749.59	1660.90
749.77	1689.57
749.95	1726.44
750.13	1689.57
750.31	1675.24
750.49	1693.67
750.67	1777.64
750.85	1796.07
751.03	1714.15
751.20	1796.07
751.38	1665.00
751.56	1714.15
751.74	1708.01
751.92	1722.34
752.10	1595.37
752.28	1718.25
752.46	1718.25
752.64	1683.43
752.82	1689.57
753.00	1763.30
753.18	1681.38
753.35	1722.34
753.53	1742.82
753.71	1603.56
753.89	1806.31
754.07	1720.29
754.25	1759.21
754.43	1671.14
754.61	1691.62
754.79	1687.53
754.97	1787.88
755.14	1804.26
755.32	1619.94
755.50	1734.63
755.68	1724.39
755.86	1636.33
756.04	1675.24
756.22	1669.09
756.40	1740.77
756.57	1828.84
756.75	1693.67
756.93	1841.12
757.11	1777.64
757.29	1650.66
757.47	1636.33
757.65	1634.28
757.82	1572.84
758.00	1671.14
758.18	1755.11
758.36	1718.25
758.54	1830.88
758.72	1669.09
758.90	1796.07
759.07	1683.43
759.25	1701.86
759.43	1710.05
759.61	1681.38
759.79	2217.95
759.97	1728.49
760.15	1714.15
760.32	1740.77
760.50	1736.68
760.68	1796.07
760.86	1648.61
761.04	1796.07
761.22	1693.67
761.39	1691.62
761.57	1767.40
761.75	1705.96
761.93	1722.34
762.11	1732.58
762.28	1697.77
762.46	1693.67
762.64	1773.54
762.82	1621.99
763.00	1689.57
763.18	1755.11
763.35	1646.57
763.53	1804.26
763.71	1691.62
763.89	1691.62
764.07	1740.77
764.24	1730.53
764.42	1687.53
764.60	1761.25
764.78	1777.64
764.96	1814.50
765.13	1724.39
765.31	1697.77
765.49	1724.39
765.67	1652.71
765.84	1638.38
766.02	1773.54
766.20	1705.96
766.38	1763.30
766.56	1726.44
766.73	1753.06
766.91	1695.72
767.09	1738.73
767.27	1802.21
767.44	1621.99
767.62	1798.12
767.80	1744.87
767.98	1693.67
768.15	1665.00
768.33	1722.34
768.51	1757.16
768.69	1736.68
768.87	1722.34
769.04	1738.73
769.22	1814.50
769.40	1757.16
769.58	1904.61
769.75	1744.87
769.93	1826.79
770.11	1712.10
770.28	1626.09
770.46	1732.58
770.64	1763.30
770.82	1665.00
770.99	1677.29
771.17	1746.92
771.35	1708.01
771.53	1775.59
771.70	1697.77
771.88	1671.14
772.06	1714.15
772.23	1665.00
772.41	1734.63
772.59	1656.81
772.77	1658.85
772.94	1755.11
773.12	1761.25
773.30	1728.49
773.47	1691.62
773.65	1654.76
773.83	1802.21
774.01	1626.09
774.18	1646.57
774.36	1757.16
774.54	1705.96
774.71	1816.55
774.89	1630.18
775.07	1570.79
775.24	1746.92
775.42	1630.18
775.60	1775.59
775.78	1683.43
775.95	1656.81
776.13	1642.47
776.31	1624.04
776.48	1775.59
776.66	1816.55
776.84	1701.86
777.01	1705.96
777.19	1665.00
777.37	1701.86
777.54	1816.55
777.72	1791.97
777.90	1718.25
778.07	1705.96
778.25	1943.52
778.43	1742.82
778.60	1724.39
778.78	1753.06
778.96	1728.49
779.13	1675.24
779.31	1753.06
779.49	1712.10
779.66	1693.67
779.84	1728.49
780.01	1730.53
780.19	1642.47
780.37	1830.88
780.54	1714.15
780.72	1662.95
780.90	1683.43
781.07	1621.99
781.25	1689.57
781.43	1785.83
781.60	1660.90
781.78	1814.50
781.95	1738.73
782.13	1681.38
782.31	1683.43
782.48	1605.61
782.66	1716.20
782.83	1773.54
783.01	1742.82
783.19	1751.01
783.36	1634.28
783.54	1689.57
783.72	1734.63
783.89	1734.63
784.07	1683.43
784.24	1724.39
784.42	1701.86
784.60	1708.01
784.77	1744.87
784.95	1595.37
785.12	1705.96
785.30	1634.28
785.47	1619.94
785.65	1636.33
785.83	1679.33
786.00	1695.72
786.18	1701.86
786.35	1644.52
786.53	1720.29
786.71	1722.34
786.88	1785.83
787.06	1742.82
787.23	1673.19
787.41	1644.52
787.58	1689.57
787.76	1693.67
787.94	1796.07
788.11	1779.68
788.29	1624.04
788.46	1677.29
788.64	1628.14
788.81	1660.90
788.99	1603.56
789.16	1675.24
789.34	1740.77
789.52	1634.28
789.69	1722.34
789.87	1609.70
790.04	1658.85
790.22	1744.87
790.39	1869.80
790.57	1726.44
790.74	1675.24
790.92	1669.09
791.09	1583.08
791.27	1763.30
791.44	1765.35
791.62	1640.42
791.79	1779.68
791.97	1687.53
792.15	1931.23
792.32	1722.34
792.50	1753.06
792.67	1849.32
792.85	1828.84
793.02	1787.88
793.20	1769.44
793.37	1587.18
793.55	1708.01
793.72	1658.85
793.90	1730.53
794.07	1611.75
794.25	1665.00
794.42	1783.78
794.60	1771.49
794.77	1712.10
794.95	1714.15
795.12	1720.29
795.30	1652.71
795.47	1634.28
795.65	1914.85
795.82	1703.91
796.00	1671.14
796.17	1716.20
796.34	1734.63
796.52	1658.85
796.69	1789.92
796.87	1708.01
797.04	1722.34
797.22	1728.49
797.39	1751.01
797.57	1755.11
797.74	1665.00
797.92	1705.96
798.09	1673.19
798.27	1759.21
798.44	1718.25
798.62	1677.29
798.79	1781.73
798.96	1808.36
799.14	1708.01
799.31	1902.56
799.49	1689.57
799.66	1667.05
799.84	1703.91
800.01	1656.81
800.19	1781.73
800.36	1634.28
800.53	1796.07
800.71	1720.29
800.88	1777.64
801.06	1665.00
801.23	1720.29
801.41	1615.85
801.58	1626.09
801.75	1687.53
801.93	1746.92
802.10	1722.34
802.28	1761.25
802.45	1652.71
802.63	1740.77
802.80	1810.40
802.97	1630.18
803.15	1761.25
803.32	1669.09
803.50	1570.79
803.67	1679.33
803.84	1624.04
804.02	1722.34
804.19	1665.00
804.37	1529.83
804.54	1628.14
804.71	1763.30
804.89	1744.87
805.06	1597.42
805.24	1636.33
805.41	1597.42
805.58	1679.33
805.76	1882.08
805.93	1755.11
806.10	1748.97
806.28	1744.87
806.45	1636.33
806.63	1677.29
806.80	1794.02
806.97	1712.10
807.15	1695.72
807.32	1716.20
807.49	1658.85
807.67	1611.75
807.84	1785.83
808.01	1658.85
808.19	1861.60
808.36	1814.50
808.54	1794.02
808.71	1607.66
808.88	1791.97
809.06	1732.58
809.23	1806.31
809.40	1624.04
809.58	1757.16
809.75	1701.86
809.92	1699.81
810.10	1884.13
810.27	1722.34
810.44	1716.20
810.62	1746.92
810.79	1699.81
810.96	1724.39
811.14	1673.19
811.31	1726.44
811.48	1785.83
811.66	1640.42
811.83	1755.11
812.00	1771.49
812.18	1687.53
812.35	1832.93
812.52	1605.61
812.69	1652.71
812.87	1660.90
813.04	1673.19
813.21	1751.01
813.39	1654.76
813.56	1619.94
813.73	1789.92
813.91	1654.76
814.08	1712.10
814.25	1744.87
814.42	1632.23
814.60	1683.43
814.77	1697.77
814.94	1685.48
815.12	1800.16
815.29	1798.12
815.46	1710.05
815.63	1728.49
815.81	1681.38
815.98	1751.01
816.15	1718.25
816.33	1660.90
816.50	1757.16
816.67	1746.92
816.84	1748.97
817.02	1546.22
817.19	1753.06
817.36	1685.48
817.53	1734.63
817.71	1681.38
817.88	1726.44
818.05	1783.78
818.22	1730.53
818.40	1787.88
818.57	1679.33
818.74	1769.44
818.91	1714.15
819.09	1767.40
819.26	1769.44
819.43	1683.43
819.60	1714.15
819.78	1796.07
819.95	1845.22
820.12	1626.09
820.29	1880.04
820.47	1781.73
820.64	1648.61
820.81	1671.14
820.98	1712.10
821.15	1679.33
821.33	1761.25
821.50	1640.42
821.67	1705.96
821.84	1662.95
822.02	1681.38
822.19	1740.77
822.36	1675.24
822.53	1724.39
822.70	1667.05
822.88	1689.57
823.05	1775.59
823.22	1716.20
823.39	1808.36
823.56	1675.24
823.74	1857.51
823.91	1695.72
824.08	1652.71
824.25	1607.66
824.42	1877.99
824.60	1691.62
824.77	1689.57
824.94	1765.35
825.11	1759.21
825.28	1646.57
825.45	1755.11
825.63	1730.53
825.80	1591.27
825.97	1779.68
826.14	1691.62
826.31	1605.61
826.48	1753.06
826.66	1685.48
826.83	1656.81
827.00	1650.66
827.17	1609.70
827.34	1648.61
827.51	1615.85
827.69	1691.62
827.86	1660.90
828.03	1724.39
828.20	1689.57
828.37	1701.86
828.54	1789.92
828.71	1726.44
828.89	1794.02
829.06	1708.01
829.23	1763.30
829.40	1636.33
829.57	1609.70
829.74	1736.68
829.91	1687.53
830.09	1742.82
830.26	1804.26
830.43	1738.73
830.60	1746.92
830.77	1777.64
830.94	1751.01
831.11	1753.06
831.28	1724.39
831.46	1740.77
831.63	1685.48
831.80	1716.20
831.97	1726.44
832.14	1667.05
832.31	1712.10
832.48	1728.49
832.65	1736.68
832.82	1722.34
832.99	1763.30
833.17	1656.81
833.34	1757.16
833.51	1771.49
833.68	1626.09
833.85	1714.15
834.02	1640.42
834.19	1726.44
834.36	1669.09
834.53	1712.10
834.70	1808.36
834.87	1695.72
835.04	1751.01
835.22	1677.29
835.39	1679.33
835.56	1615.85
835.73	1724.39
835.90	1738.73
836.07	1681.38
836.24	1716.20
836.41	1673.19
836.58	1712.10
836.75	1740.77
836.92	1753.06
837.09	1626.09
837.26	1679.33
837.43	1773.54
837.60	1701.86
837.77	1724.39
837.94	1730.53
838.12	1816.55
838.29	1716.20
838.46	1642.47
838.63	1705.96
838.80	1869.80
838.97	1761.25
839.14	1681.38
839.31	1712.10
839.48	1703.91
839.65	1744.87
839.82	1693.67
839.99	1681.38
840.16	1708.01
840.33	1665.00
840.50	1679.33
840.67	1712.10
840.84	1619.94
841.01	1701.86
841.18	1628.14
841.35	1718.25
841.52	1765.35
841.69	1830.88
841.86	1693.67
842.03	1652.71
842.20	1820.64
842.37	1779.68
842.54	1742.82
842.71	1773.54
842.88	1619.94
843.05	1742.82
843.22	1628.14
843.39	1699.81
843.56	1730.53
843.73	1757.16
843.90	1738.73
844.07	1681.38
844.24	1785.83
844.41	1767.40
844.58	1763.30
844.75	1720.29
844.92	1732.58
845.09	1746.92
845.26	1646.57
845.43	1785.83
845.60	1656.81
845.77	1755.11
845.94	1724.39
846.10	1734.63
846.27	1671.14
846.44	1738.73
846.61	1669.09
846.78	1759.21
846.95	1701.86
847.12	1640.42
847.29	1697.77
847.46	1636.33
847.63	1718.25
847.80	1699.81
847.97	1742.82
848.14	1769.44
848.31	1726.44
848.48	1687.53
848.65	1738.73
848.82	1681.38
848.98	1828.84
849.15	1736.68
849.32	1839.08
849.49	1810.40
849.66	1710.05
849.83	1746.92
850.00	1677.29
850.17	1734.63
850.34	1722.34
850.51	1660.90
850.68	1615.85
850.85	1884.13
851.01	1677.29
851.18	1773.54
851.35	1710.05
851.52	1755.11
851.69	1787.88
851.86	1691.62
852.03	1667.05
852.20	1726.44
852.37	1705.96
852.53	1617.90
852.70	1740.77
852.87	1708.01
853.04	1751.01
853.21	1718.25
853.38	1742.82
853.55	1761.25
853.72	1787.88
853.89	1667.05
854.05	1681.38
854.22	1724.39
854.39	1720.29
854.56	1716.20
854.73	1763.30
854.90	1652.71
855.07	1724.39
855.23	1681.38
855.40	1611.75
855.57	1703.91
855.74	1552.36
855.91	1839.08
856.08	1662.95
856.25	1521.64
856.41	1650.66
856.58	1683.43
856.75	1658.85
856.92	1705.96
857.09	1798.12
857.26	1644.52
857.42	1697.77
857.59	1726.44
857.76	1673.19
857.93	1759.21
858.10	1687.53
858.27	1652.71
858.43	1689.57
858.60	1667.05
858.77	1656.81
858.94	1687.53
859.11	1794.02
859.27	1693.67
859.44	1730.53
859.61	1849.32
859.78	1726.44
859.95	1681.38
860.12	1683.43
860.28	1779.68
860.45	1791.97
860.62	1722.34
860.79	1777.64
860.95	1744.87
861.12	1703.91
861.29	1636.33
861.46	1642.47
861.63	1728.49
861.79	1757.16
861.96	1667.05
862.13	1648.61
862.30	1800.16
862.47	1681.38
862.63	1722.34
862.80	1787.88
862.97	1718.25
863.14	1765.35
863.30	1730.53
863.47	1683.43
863.64	1841.12
863.81	1667.05
863.97	1658.85
864.14	1611.75
864.31	1734.63
864.48	1765.35
864.65	1683.43
864.81	1728.49
864.98	1710.05
865.15	1773.54
865.32	1699.81
865.48	1832.93
865.65	1755.11
865.82	1748.97
865.98	1724.39
866.15	1763.30
866.32	1693.67
866.49	1798.12
866.65	1791.97
866.82	1685.48
866.99	1683.43
867.16	1662.95
867.32	1619.94
867.49	1695.72
867.66	1667.05
867.83	1681.38
867.99	1636.33
868.16	1628.14
868.33	1632.23
868.49	1728.49
868.66	1718.25
868.83	1769.44
868.99	1728.49
869.16	1671.14
869.33	1773.54
869.50	1783.78
869.66	1718.25
869.83	1701.86
870.00	1642.47
870.16	1828.84
870.33	1681.38
870.50	1767.40
870.66	1691.62
870.83	1828.84
871.00	1671.14
871.17	1808.36
871.33	1789.92
871.50	1712.10
871.67	1744.87
871.83	1673.19
872.00	1783.78
872.17	1607.66
872.33	1744.87
872.50	1736.68
872.67	1681.38
872.83	1695.72
873.00	1724.39
873.17	1646.57
873.33	1759.21
873.50	1732.58
873.67	1671.14
873.83	1701.86
874.00	1712.10
874.16	1769.44
874.33	1716.20
874.50	1636.33
874.66	1714.15
874.83	1714.15
875.00	1771.49
875.16	1748.97
875.33	1734.63
875.50	1607.66
875.66	1683.43
875.83	1708.01
875.99	1806.31
876.16	1826.79
876.33	1685.48
876.49	1761.25
876.66	1773.54
876.83	1716.20
876.99	1656.81
877.16	1724.39
877.32	1751.01
877.49	1718.25
877.66	1718.25
877.82	1705.96
877.99	1671.14
878.15	1798.12
878.32	1687.53
878.49	1742.82
878.65	1791.97
878.82	1742.82
878.98	1736.68
879.15	1759.21
879.32	1748.97
879.48	1828.84
879.65	1708.01
879.81	1654.76
879.98	1708.01
880.15	1671.14
880.31	1683.43
880.48	1748.97
880.64	1763.30
880.81	1798.12
880.97	1794.02
881.14	1818.60
881.31	1652.71
881.47	1828.84
881.64	1640.42
881.80	1613.80
881.97	1697.77
882.13	1761.25
882.30	1621.99
882.47	1695.72
882.63	1767.40
882.80	1726.44
882.96	1681.38
883.13	1865.70
883.29	1771.49
883.46	1705.96
883.62	1853.41
883.79	1677.29
883.95	1820.64
884.12	1691.62
884.29	1738.73
884.45	1693.67
884.62	1769.44
884.78	1724.39
884.95	1775.59
885.11	1669.09
885.28	1705.96
885.44	1683.43
885.61	1777.64
885.77	1820.64
885.94	1787.88
886.10	1695.72
886.27	1685.48
886.43	1742.82
886.60	1716.20
886.76	1613.80
886.93	1636.33
887.09	1710.05
887.26	1746.92
887.42	1654.76
887.59	1767.40
887.75	1785.83
887.92	1779.68
888.08	1798.12
888.25	1810.40
888.41	1769.44
888.58	1726.44
888.74	1662.95
888.91	1658.85
>>>>>End Processed Spectral Data<<<<<
