SpectraSuite Data File
++++++++++++++++++++++++++++++++++++
Date: Mon Jun 06 16:50:17 CEST 2016
User: root
Dark Spectrum Present: No
Reference Spectrum Present: No
Number of Sampled Component Spectra: 1
Spectrometers: USB4C02835
Integration Time (usec): 100000 (USB4C02835)
Spectra Averaged: 1 (USB4C02835)
Boxcar Smoothing: 0 (USB4C02835)
Correct for Electrical Dark: No (USB4C02835)
Strobe/Lamp Enabled: No (USB4C02835)
Correct for Detector Non-linearity: No (USB4C02835)
Correct for Stray Light: No (USB4C02835)
Number of Pixels in Processed Spectrum: 3648
>>>>>Begin Processed Spectral Data<<<<<
177.47	1429.48
177.69	1429.48
177.91	1429.48
178.13	1427.43
178.36	1490.92
178.58	1638.38
178.80	1755.11
179.02	1640.42
179.24	1720.29
179.46	1689.57
179.68	1714.15
179.90	1740.77
180.13	1667.05
180.35	1642.47
180.57	1718.25
180.79	1755.11
181.01	1753.06
181.23	1789.92
181.45	1763.30
181.67	1679.33
181.90	1730.53
182.12	1654.76
182.34	1681.38
182.56	1701.86
182.78	1685.48
183.00	1716.20
183.22	1755.11
183.44	1599.46
183.66	1820.64
183.89	1767.40
184.11	1685.48
184.33	1740.77
184.55	1853.41
184.77	1779.68
184.99	1683.43
185.21	1660.90
185.43	1867.75
185.65	1708.01
185.87	1791.97
186.10	1873.89
186.32	1871.84
186.54	1652.71
186.76	1689.57
186.98	1877.99
187.20	1669.09
187.42	1640.42
187.64	1636.33
187.86	1785.83
188.08	1732.58
188.30	1703.91
188.52	1722.34
188.75	1794.02
188.97	1816.55
189.19	1677.29
189.41	1708.01
189.63	1787.88
189.85	1679.33
190.07	1593.32
190.29	1632.23
190.51	1718.25
190.73	1636.33
190.95	1730.53
191.17	1697.77
191.39	1599.46
191.61	1759.21
191.84	1712.10
192.06	1755.11
192.28	1691.62
192.50	1898.47
192.72	1675.24
192.94	1683.43
193.16	1806.31
193.38	1751.01
193.60	1621.99
193.82	1701.86
194.04	1832.93
194.26	1806.31
194.48	1718.25
194.70	1671.14
194.92	1683.43
195.14	1740.77
195.36	1632.23
195.58	1708.01
195.80	1714.15
196.02	1593.32
196.24	1695.72
196.46	1791.97
196.69	1691.62
196.91	1796.07
197.13	1705.96
197.35	1656.81
197.57	1789.92
197.79	1740.77
198.01	1804.26
198.23	1748.97
198.45	1617.90
198.67	1673.19
198.89	1652.71
199.11	1771.49
199.33	1654.76
199.55	1576.94
199.77	1703.91
199.99	1734.63
200.21	1714.15
200.43	1748.97
200.65	1656.81
200.87	1603.56
201.09	1708.01
201.31	1658.85
201.53	1761.25
201.75	1779.68
201.97	1671.14
202.19	1710.05
202.41	1699.81
202.63	1775.59
202.85	1695.72
203.07	1738.73
203.29	1708.01
203.51	1697.77
203.73	1654.76
203.95	1935.33
204.17	1730.53
204.39	1726.44
204.61	1675.24
204.83	1695.72
205.05	1804.26
205.27	1714.15
205.49	1900.52
205.71	1624.04
205.93	1583.08
206.15	1609.70
206.37	1722.34
206.59	1757.16
206.81	1595.37
207.03	1660.90
207.25	1611.75
207.47	1773.54
207.69	1738.73
207.91	1814.50
208.13	1779.68
208.34	1689.57
208.56	1681.38
208.78	1771.49
209.00	1742.82
209.22	1667.05
209.44	1744.87
209.66	1646.57
209.88	1703.91
210.10	1783.78
210.32	1710.05
210.54	1804.26
210.76	1667.05
210.98	1769.44
211.20	1613.80
211.42	1753.06
211.64	1812.45
211.86	1728.49
212.08	1736.68
212.30	1660.90
212.52	1779.68
212.74	1656.81
212.96	1800.16
213.17	1732.58
213.39	1818.60
213.61	1710.05
213.83	1693.67
214.05	1685.48
214.27	1773.54
214.49	1701.86
214.71	1619.94
214.93	1777.64
215.15	1677.29
215.37	1763.30
215.59	1636.33
215.81	1787.88
216.03	1763.30
216.24	1708.01
216.46	1710.05
216.68	1740.77
216.90	1773.54
217.12	1781.73
217.34	1685.48
217.56	1730.53
217.78	1769.44
218.00	1683.43
218.22	1699.81
218.44	1677.29
218.66	1761.25
218.87	1791.97
219.09	1646.57
219.31	1665.00
219.53	1710.05
219.75	1730.53
219.97	1646.57
220.19	1720.29
220.41	1671.14
220.63	1812.45
220.85	1685.48
221.06	1673.19
221.28	1695.72
221.50	1734.63
221.72	1699.81
221.94	1746.92
222.16	1681.38
222.38	1810.40
222.60	1796.07
222.82	1734.63
223.03	1673.19
223.25	1581.03
223.47	1775.59
223.69	1800.16
223.91	1691.62
224.13	1685.48
224.35	1734.63
224.57	1849.32
224.78	1785.83
225.00	1701.86
225.22	1652.71
225.44	1746.92
225.66	1683.43
225.88	1691.62
226.10	1736.68
226.32	1722.34
226.53	1828.84
226.75	1658.85
226.97	1740.77
227.19	1697.77
227.41	1665.00
227.63	1648.61
227.85	1611.75
228.06	1687.53
228.28	1697.77
228.50	1796.07
228.72	1599.46
228.94	1730.53
229.16	1525.74
229.37	1660.90
229.59	1685.48
229.81	1667.05
230.03	1665.00
230.25	1607.66
230.47	1636.33
230.69	1640.42
230.90	1732.58
231.12	1660.90
231.34	1675.24
231.56	1710.05
231.78	1636.33
232.00	1759.21
232.21	1615.85
232.43	1691.62
232.65	1658.85
232.87	1775.59
233.09	1591.27
233.30	1746.92
233.52	1724.39
233.74	1660.90
233.96	1646.57
234.18	1738.73
234.40	1691.62
234.61	1865.70
234.83	1626.09
235.05	1650.66
235.27	1834.98
235.49	1804.26
235.70	1724.39
235.92	1726.44
236.14	1708.01
236.36	1853.41
236.58	1626.09
236.79	1708.01
237.01	1759.21
237.23	1738.73
237.45	1812.45
237.67	1675.24
237.88	1656.81
238.10	1837.03
238.32	1693.67
238.54	1705.96
238.76	1644.52
238.97	1630.18
239.19	1697.77
239.41	1800.16
239.63	1699.81
239.85	1691.62
240.06	1656.81
240.28	1693.67
240.50	1753.06
240.72	1697.77
240.93	1705.96
241.15	1730.53
241.37	1671.14
241.59	1736.68
241.81	1689.57
242.02	1734.63
242.24	1693.67
242.46	1753.06
242.68	1697.77
242.89	1732.58
243.11	1785.83
243.33	1667.05
243.55	1728.49
243.76	1765.35
243.98	1669.09
244.20	1742.82
244.42	1720.29
244.64	1695.72
244.85	1640.42
245.07	1626.09
245.29	1791.97
245.51	1769.44
245.72	1742.82
245.94	1742.82
246.16	1679.33
246.38	1769.44
246.59	1665.00
246.81	1689.57
247.03	1667.05
247.24	1607.66
247.46	1665.00
247.68	1787.88
247.90	1640.42
248.11	1718.25
248.33	1718.25
248.55	1695.72
248.77	1771.49
248.98	1769.44
249.20	1867.75
249.42	1763.30
249.64	1693.67
249.85	1728.49
250.07	1679.33
250.29	1738.73
250.50	1800.16
250.72	1615.85
250.94	1720.29
251.16	1861.60
251.37	1808.36
251.59	1814.50
251.81	1738.73
252.02	1757.16
252.24	1697.77
252.46	1775.59
252.68	1675.24
252.89	1685.48
253.11	1554.41
253.33	1849.32
253.54	1789.92
253.76	1607.66
253.98	1718.25
254.20	1773.54
254.41	1652.71
254.63	1724.39
254.85	1605.61
255.06	1738.73
255.28	1724.39
255.50	1726.44
255.71	1665.00
255.93	1638.38
256.15	1642.47
256.36	1734.63
256.58	1609.70
256.80	1740.77
257.02	1701.86
257.23	1732.58
257.45	1748.97
257.67	1773.54
257.88	1656.81
258.10	1748.97
258.32	1697.77
258.53	1662.95
258.75	1837.03
258.97	1658.85
259.18	1759.21
259.40	1724.39
259.62	1755.11
259.83	1843.17
260.05	1722.34
260.27	1953.76
260.48	1728.49
260.70	1626.09
260.92	1638.38
261.13	1744.87
261.35	1669.09
261.57	1656.81
261.78	1626.09
262.00	1662.95
262.22	1726.44
262.43	1656.81
262.65	1662.95
262.86	1734.63
263.08	1773.54
263.30	1689.57
263.51	1662.95
263.73	1685.48
263.95	1771.49
264.16	1568.74
264.38	1595.37
264.60	1714.15
264.81	1699.81
265.03	1732.58
265.25	1757.16
265.46	1712.10
265.68	1781.73
265.89	1800.16
266.11	1634.28
266.33	1730.53
266.54	1669.09
266.76	1751.01
266.98	1720.29
267.19	1798.12
267.41	1855.46
267.62	1699.81
267.84	1628.14
268.06	1734.63
268.27	1708.01
268.49	1732.58
268.70	1748.97
268.92	1671.14
269.14	1624.04
269.35	1632.23
269.57	1675.24
269.79	1779.68
270.00	1710.05
270.22	1765.35
270.43	1726.44
270.65	1632.23
270.87	1718.25
271.08	1777.64
271.30	1732.58
271.51	1736.68
271.73	1701.86
271.95	1738.73
272.16	1687.53
272.38	1681.38
272.59	1724.39
272.81	1687.53
273.02	1746.92
273.24	1773.54
273.46	1824.74
273.67	1650.66
273.89	1607.66
274.10	1710.05
274.32	1767.40
274.54	1761.25
274.75	1708.01
274.97	1652.71
275.18	1701.86
275.40	1742.82
275.61	1740.77
275.83	1751.01
276.05	1650.66
276.26	1740.77
276.48	1730.53
276.69	1697.77
276.91	1703.91
277.12	1798.12
277.34	1734.63
277.55	1710.05
277.77	1771.49
277.99	1648.61
278.20	1736.68
278.42	1736.68
278.63	1609.70
278.85	1675.24
279.06	1710.05
279.28	1765.35
279.49	1763.30
279.71	1744.87
279.93	1714.15
280.14	1714.15
280.36	1640.42
280.57	1785.83
280.79	1771.49
281.00	1626.09
281.22	1628.14
281.43	1779.68
281.65	1597.42
281.86	1697.77
282.08	1705.96
282.29	1820.64
282.51	1628.14
282.73	1644.52
282.94	1665.00
283.16	1734.63
283.37	1871.84
283.59	1691.62
283.80	1650.66
284.02	1638.38
284.23	1714.15
284.45	1687.53
284.66	1644.52
284.88	1652.71
285.09	1748.97
285.31	1796.07
285.52	1738.73
285.74	1624.04
285.95	1775.59
286.17	1736.68
286.38	1755.11
286.60	1675.24
286.81	1744.87
287.03	1724.39
287.24	1642.47
287.46	1779.68
287.67	1665.00
287.89	1783.78
288.10	1703.91
288.32	1693.67
288.53	1798.12
288.75	1767.40
288.96	1767.40
289.18	1650.66
289.39	1734.63
289.61	1791.97
289.82	1779.68
290.04	1818.60
290.25	1587.18
290.47	1740.77
290.68	1667.05
290.90	1738.73
291.11	1660.90
291.33	1757.16
291.54	1652.71
291.76	1683.43
291.97	1691.62
292.18	1757.16
292.40	1634.28
292.61	1689.57
292.83	1794.02
293.04	1712.10
293.26	1726.44
293.47	1701.86
293.69	1658.85
293.90	1687.53
294.12	1699.81
294.33	1712.10
294.55	1701.86
294.76	1763.30
294.97	1822.69
295.19	1779.68
295.40	1642.47
295.62	1669.09
295.83	1806.31
296.05	1722.34
296.26	1783.78
296.48	1669.09
296.69	1681.38
296.90	1710.05
297.12	1783.78
297.33	1728.49
297.55	1718.25
297.76	1695.72
297.98	1734.63
298.19	1779.68
298.41	1667.05
298.62	1650.66
298.83	1824.74
299.05	1685.48
299.26	1710.05
299.48	1591.27
299.69	1775.59
299.90	1722.34
300.12	1640.42
300.33	1812.45
300.55	1791.97
300.76	1679.33
300.98	1716.20
301.19	1679.33
301.40	1732.58
301.62	1630.18
301.83	1699.81
302.05	1726.44
302.26	1687.53
302.47	1765.35
302.69	1708.01
302.90	1740.77
303.12	1552.36
303.33	1738.73
303.54	1871.84
303.76	1650.66
303.97	1693.67
304.19	1753.06
304.40	1611.75
304.61	1744.87
304.83	1847.27
305.04	1755.11
305.26	1761.25
305.47	1734.63
305.68	1763.30
305.90	1593.32
306.11	1765.35
306.33	1673.19
306.54	1677.29
306.75	1683.43
306.97	1646.57
307.18	1665.00
307.39	1650.66
307.61	1757.16
307.82	1660.90
308.04	1777.64
308.25	1667.05
308.46	1718.25
308.68	1679.33
308.89	1705.96
309.10	1728.49
309.32	1699.81
309.53	1697.77
309.74	1796.07
309.96	1730.53
310.17	1771.49
310.39	1736.68
310.60	1714.15
310.81	1699.81
311.03	1634.28
311.24	1671.14
311.45	1685.48
311.67	1830.88
311.88	1619.94
312.09	1681.38
312.31	1720.29
312.52	1775.59
312.73	1701.86
312.95	1634.28
313.16	1689.57
313.37	1791.97
313.59	1828.84
313.80	1783.78
314.01	1800.16
314.23	1642.47
314.44	1628.14
314.65	1669.09
314.87	1673.19
315.08	1767.40
315.29	1722.34
315.51	1597.42
315.72	1617.90
315.93	1877.99
316.15	1753.06
316.36	1673.19
316.57	1732.58
316.79	1759.21
317.00	1665.00
317.21	1673.19
317.43	1681.38
317.64	1755.11
317.85	1665.00
318.07	1660.90
318.28	1658.85
318.49	1851.36
318.70	1853.41
318.92	1763.30
319.13	1871.84
319.34	1847.27
319.56	1798.12
319.77	1763.30
319.98	1779.68
320.20	1789.92
320.41	1753.06
320.62	1771.49
320.83	1710.05
321.05	1802.21
321.26	1796.07
321.47	1744.87
321.69	1802.21
321.90	1640.42
322.11	1607.66
322.32	1789.92
322.54	1812.45
322.75	1683.43
322.96	1861.60
323.18	1607.66
323.39	1660.90
323.60	1658.85
323.81	1705.96
324.03	1687.53
324.24	1730.53
324.45	1644.52
324.66	1755.11
324.88	1693.67
325.09	1771.49
325.30	1808.36
325.52	1677.29
325.73	1697.77
325.94	1669.09
326.15	1601.51
326.37	1658.85
326.58	1767.40
326.79	1781.73
327.00	1703.91
327.22	1695.72
327.43	1654.76
327.64	1617.90
327.85	1769.44
328.07	1652.71
328.28	1794.02
328.49	1714.15
328.70	1671.14
328.92	1771.49
329.13	1703.91
329.34	1775.59
329.55	1787.88
329.76	1785.83
329.98	1660.90
330.19	1771.49
330.40	1806.31
330.61	1738.73
330.83	1816.55
331.04	1652.71
331.25	1683.43
331.46	1658.85
331.68	1703.91
331.89	1751.01
332.10	1665.00
332.31	1615.85
332.52	1662.95
332.74	1806.31
332.95	1646.57
333.16	1689.57
333.37	1761.25
333.58	1693.67
333.80	1794.02
334.01	1533.93
334.22	1630.18
334.43	1648.61
334.64	1679.33
334.86	1597.42
335.07	1613.80
335.28	1759.21
335.49	1626.09
335.70	1710.05
335.92	1699.81
336.13	1812.45
336.34	1701.86
336.55	1787.88
336.76	1712.10
336.98	1578.98
337.19	1679.33
337.40	1787.88
337.61	1816.55
337.82	1658.85
338.04	1716.20
338.25	1673.19
338.46	1724.39
338.67	1701.86
338.88	1642.47
339.09	1662.95
339.31	1714.15
339.52	1669.09
339.73	1660.90
339.94	1701.86
340.15	1789.92
340.36	1722.34
340.58	1730.53
340.79	1742.82
341.00	1810.40
341.21	1636.33
341.42	1843.17
341.63	1730.53
341.85	1759.21
342.06	1740.77
342.27	1656.81
342.48	1681.38
342.69	1615.85
342.90	1812.45
343.12	1671.14
343.33	1656.81
343.54	1808.36
343.75	1763.30
343.96	1673.19
344.17	1689.57
344.38	1667.05
344.60	1697.77
344.81	1626.09
345.02	1671.14
345.23	1732.58
345.44	1849.32
345.65	1751.01
345.86	1667.05
346.07	1714.15
346.29	1708.01
346.50	1746.92
346.71	1724.39
346.92	1730.53
347.13	1880.04
347.34	1740.77
347.55	1630.18
347.76	1712.10
347.98	1624.04
348.19	1662.95
348.40	1814.50
348.61	1650.66
348.82	1757.16
349.03	1708.01
349.24	1675.24
349.45	1791.97
349.66	1560.55
349.88	1695.72
350.09	1738.73
350.30	1773.54
350.51	1824.74
350.72	1726.44
350.93	1753.06
351.14	1718.25
351.35	1714.15
351.56	1646.57
351.77	1744.87
351.99	1621.99
352.20	1748.97
352.41	1812.45
352.62	1640.42
352.83	1781.73
353.04	1767.40
353.25	1636.33
353.46	1767.40
353.67	1781.73
353.88	1615.85
354.09	1751.01
354.30	1718.25
354.52	1728.49
354.73	1722.34
354.94	1701.86
355.15	1669.09
355.36	1837.03
355.57	1724.39
355.78	1746.92
355.99	1681.38
356.20	1701.86
356.41	1773.54
356.62	1740.77
356.83	1728.49
357.04	1849.32
357.25	1619.94
357.46	1693.67
357.68	1644.52
357.89	1648.61
358.10	1755.11
358.31	1701.86
358.52	1736.68
358.73	1669.09
358.94	1679.33
359.15	1603.56
359.36	1665.00
359.57	1669.09
359.78	1730.53
359.99	1730.53
360.20	1654.76
360.41	1703.91
360.62	1685.48
360.83	1701.86
361.04	1677.29
361.25	1728.49
361.46	1763.30
361.67	1808.36
361.88	1765.35
362.09	1763.30
362.30	1767.40
362.51	1695.72
362.72	1681.38
362.93	1785.83
363.14	1775.59
363.35	1691.62
363.56	1722.34
363.78	1757.16
363.99	1800.16
364.20	1689.57
364.41	1763.30
364.62	1873.89
364.83	1732.58
365.04	1718.25
365.25	1677.29
365.46	1810.40
365.67	1669.09
365.88	1607.66
366.09	1671.14
366.30	1693.67
366.51	1738.73
366.72	1701.86
366.93	1619.94
367.14	1744.87
367.35	1769.44
367.56	1712.10
367.77	1791.97
367.98	1679.33
368.18	1753.06
368.39	1779.68
368.60	1572.84
368.81	1744.87
369.02	1693.67
369.23	1665.00
369.44	1609.70
369.65	1697.77
369.86	1748.97
370.07	1697.77
370.28	1755.11
370.49	1773.54
370.70	1767.40
370.91	1621.99
371.12	1654.76
371.33	1738.73
371.54	1701.86
371.75	1789.92
371.96	1644.52
372.17	1701.86
372.38	1718.25
372.59	1728.49
372.80	1738.73
373.01	1671.14
373.22	1738.73
373.43	1671.14
373.64	1695.72
373.85	1685.48
374.06	1744.87
374.26	1736.68
374.47	1738.73
374.68	1832.93
374.89	1675.24
375.10	1701.86
375.31	1734.63
375.52	1746.92
375.73	1755.11
375.94	1673.19
376.15	1736.68
376.36	1669.09
376.57	1648.61
376.78	1689.57
376.99	1746.92
377.20	1718.25
377.40	1679.33
377.61	1759.21
377.82	1640.42
378.03	1755.11
378.24	1720.29
378.45	1689.57
378.66	1748.97
378.87	1679.33
379.08	1662.95
379.29	1685.48
379.50	1798.12
379.71	1691.62
379.91	1708.01
380.12	1738.73
380.33	1681.38
380.54	1685.48
380.75	1712.10
380.96	1697.77
381.17	1812.45
381.38	1683.43
381.59	1716.20
381.80	1652.71
382.00	1869.80
382.21	1734.63
382.42	1841.12
382.63	1890.28
382.84	1787.88
383.05	1781.73
383.26	1826.79
383.47	1675.24
383.68	1705.96
383.88	1738.73
384.09	1701.86
384.30	1863.65
384.51	1687.53
384.72	1693.67
384.93	1724.39
385.14	1746.92
385.35	1720.29
385.55	1593.32
385.76	1789.92
385.97	1644.52
386.18	1667.05
386.39	1652.71
386.60	1724.39
386.81	1714.15
387.02	1607.66
387.22	1687.53
387.43	1783.78
387.64	1796.07
387.85	1890.28
388.06	2267.10
388.27	4214.72
388.48	6672.28
388.68	8269.70
388.89	9635.69
389.10	9768.81
389.31	8478.59
389.52	7573.39
389.73	6674.33
389.93	6045.60
390.14	5840.81
390.35	5287.86
390.56	4521.92
390.77	3829.70
390.98	3164.11
391.18	2516.95
391.39	2070.50
391.60	1849.32
391.81	1927.14
392.02	1763.30
392.23	1904.61
392.43	1734.63
392.64	1808.36
392.85	1787.88
393.06	1794.02
393.27	1624.04
393.47	1675.24
393.68	1751.01
393.89	1685.48
394.10	1800.16
394.31	1714.15
394.52	1683.43
394.72	1533.93
394.93	1804.26
395.14	1697.77
395.35	1832.93
395.56	1761.25
395.76	1775.59
395.97	1810.40
396.18	1765.35
396.39	1845.22
396.60	1966.05
396.80	1894.37
397.01	1808.36
397.22	1791.97
397.43	1892.32
397.64	1769.44
397.84	1818.60
398.05	1900.52
398.26	1800.16
398.47	1806.31
398.67	1718.25
398.88	1732.58
399.09	1769.44
399.30	1669.09
399.51	1746.92
399.71	1621.99
399.92	1673.19
400.13	1751.01
400.34	1689.57
400.54	1720.29
400.75	1837.03
400.96	1761.25
401.17	1837.03
401.37	1753.06
401.58	1718.25
401.79	1736.68
402.00	1863.65
402.21	2021.35
402.41	2011.11
402.62	2037.73
402.83	2095.07
403.04	2058.21
403.24	2056.16
403.45	1877.99
403.66	1877.99
403.87	1929.19
404.07	1920.99
404.28	1820.64
404.49	1918.95
404.70	1695.72
404.90	1777.64
405.11	1718.25
405.32	1777.64
405.52	1712.10
405.73	1681.38
405.94	1703.91
406.15	1714.15
406.35	1771.49
406.56	1759.21
406.77	1724.39
406.98	1681.38
407.18	1701.86
407.39	1843.17
407.60	1718.25
407.80	1644.52
408.01	1679.33
408.22	1775.59
408.43	1662.95
408.63	1843.17
408.84	1722.34
409.05	1753.06
409.25	1693.67
409.46	1667.05
409.67	1712.10
409.88	1634.28
410.08	1773.54
410.29	1748.97
410.50	1759.21
410.70	1701.86
410.91	1685.48
411.12	1734.63
411.32	1708.01
411.53	1701.86
411.74	1748.97
411.95	1796.07
412.15	1771.49
412.36	1746.92
412.57	1751.01
412.77	1808.36
412.98	1804.26
413.19	1662.95
413.39	1777.64
413.60	1796.07
413.81	1757.16
414.01	1742.82
414.22	1789.92
414.43	1751.01
414.63	1712.10
414.84	1738.73
415.05	1755.11
415.25	1662.95
415.46	1867.75
415.67	1652.71
415.87	1681.38
416.08	1726.44
416.29	1714.15
416.49	1734.63
416.70	1675.24
416.91	1714.15
417.11	1693.67
417.32	1757.16
417.53	1732.58
417.73	1755.11
417.94	1736.68
418.15	1660.90
418.35	1701.86
418.56	1759.21
418.77	1867.75
418.97	1714.15
419.18	1744.87
419.38	1597.42
419.59	1638.38
419.80	1802.21
420.00	1695.72
420.21	1800.16
420.42	1779.68
420.62	1757.16
420.83	1724.39
421.04	1722.34
421.24	1722.34
421.45	1730.53
421.65	1734.63
421.86	1755.11
422.07	1767.40
422.27	1730.53
422.48	1773.54
422.69	1675.24
422.89	1703.91
423.10	1742.82
423.30	1697.77
423.51	1771.49
423.72	1675.24
423.92	1818.60
424.13	1587.18
424.33	1738.73
424.54	1757.16
424.75	1730.53
424.95	1820.64
425.16	1677.29
425.36	1712.10
425.57	1787.88
425.78	1685.48
425.98	1847.27
426.19	1722.34
426.39	1640.42
426.60	1761.25
426.81	1773.54
427.01	1806.31
427.22	1665.00
427.42	1675.24
427.63	1615.85
427.83	1798.12
428.04	1812.45
428.25	1806.31
428.45	1800.16
428.66	1726.44
428.86	1751.01
429.07	1681.38
429.28	1740.77
429.48	1689.57
429.69	1644.52
429.89	1775.59
430.10	1662.95
430.30	1759.21
430.51	1783.78
430.71	1695.72
430.92	1804.26
431.13	1695.72
431.33	1755.11
431.54	1738.73
431.74	1789.92
431.95	1832.93
432.15	1662.95
432.36	1722.34
432.56	1757.16
432.77	1781.73
432.98	1777.64
433.18	1722.34
433.39	1722.34
433.59	1701.86
433.80	1839.08
434.00	1857.51
434.21	1665.00
434.41	1624.04
434.62	1916.90
434.82	1693.67
435.03	1593.32
435.23	1677.29
435.44	1697.77
435.64	1689.57
435.85	1697.77
436.06	1742.82
436.26	1798.12
436.47	1724.39
436.67	1673.19
436.88	1759.21
437.08	1779.68
437.29	1843.17
437.49	1714.15
437.70	1769.44
437.90	1779.68
438.11	1894.37
438.31	1722.34
438.52	1851.36
438.72	1839.08
438.93	1853.41
439.13	1798.12
439.34	1812.45
439.54	1689.57
439.75	1779.68
439.95	1791.97
440.16	1679.33
440.36	1789.92
440.57	1755.11
440.77	1832.93
440.98	1794.02
441.18	1695.72
441.39	1695.72
441.59	1658.85
441.80	1779.68
442.00	1765.35
442.21	1744.87
442.41	1636.33
442.62	1814.50
442.82	1722.34
443.02	1765.35
443.23	1834.98
443.43	1783.78
443.64	1810.40
443.84	1685.48
444.05	1822.69
444.25	1705.96
444.46	1703.91
444.66	1718.25
444.87	1753.06
445.07	1656.81
445.28	1779.68
445.48	1888.23
445.69	1800.16
445.89	1884.13
446.09	1759.21
446.30	2013.15
446.50	2699.22
446.71	3811.27
446.91	4374.46
447.12	4685.75
447.32	4837.30
447.53	4247.49
447.73	3803.08
447.93	3504.07
448.14	3172.30
448.34	3180.50
448.55	2893.78
448.75	2910.16
448.96	2693.08
449.16	2346.97
449.36	2263.01
449.57	2074.59
449.77	1935.33
449.98	1728.49
450.18	1804.26
450.39	1783.78
450.59	1712.10
450.79	1796.07
451.00	1705.96
451.20	1832.93
451.41	1687.53
451.61	1804.26
451.81	1767.40
452.02	1726.44
452.22	1716.20
452.43	1679.33
452.63	1740.77
452.84	1726.44
453.04	1736.68
453.24	1775.59
453.45	1734.63
453.65	1716.20
453.86	1812.45
454.06	1671.14
454.26	1767.40
454.47	1732.58
454.67	1918.95
454.87	1736.68
455.08	1736.68
455.28	1914.85
455.49	1796.07
455.69	1744.87
455.89	1904.61
456.10	1800.16
456.30	1722.34
456.51	1787.88
456.71	1695.72
456.91	1738.73
457.12	1675.24
457.32	1804.26
457.52	1693.67
457.73	1775.59
457.93	1689.57
458.14	1617.90
458.34	1654.76
458.54	1705.96
458.75	1738.73
458.95	1787.88
459.15	1787.88
459.36	1812.45
459.56	1798.12
459.76	1902.56
459.97	1765.35
460.17	1724.39
460.37	1818.60
460.58	1849.32
460.78	1714.15
460.99	1794.02
461.19	1683.43
461.39	1738.73
461.60	1675.24
461.80	1775.59
462.00	1751.01
462.21	1607.66
462.41	1648.61
462.61	1705.96
462.82	1699.81
463.02	1730.53
463.22	1779.68
463.43	1832.93
463.63	1789.92
463.83	1820.64
464.04	1757.16
464.24	1744.87
464.44	1652.71
464.64	1732.58
464.85	1722.34
465.05	1839.08
465.25	1650.66
465.46	1718.25
465.66	1732.58
465.86	1763.30
466.07	1837.03
466.27	1646.57
466.47	1615.85
466.68	1636.33
466.88	1761.25
467.08	1796.07
467.29	1812.45
467.49	1773.54
467.69	1726.44
467.89	1775.59
468.10	1708.01
468.30	1712.10
468.50	1855.46
468.71	1730.53
468.91	1665.00
469.11	1841.12
469.31	1722.34
469.52	1716.20
469.72	1820.64
469.92	1781.73
470.13	1773.54
470.33	1808.36
470.53	1888.23
470.73	2090.98
470.94	2310.11
471.14	2326.49
471.34	2559.96
471.54	2475.99
471.75	2238.43
471.95	2174.94
472.15	2107.36
472.36	2166.75
472.56	2140.13
472.76	2047.97
472.96	1951.71
473.17	2000.87
473.37	1951.71
473.57	1769.44
473.77	1769.44
473.98	1787.88
474.18	1710.05
474.38	1886.18
474.58	1732.58
474.79	1648.61
474.99	1757.16
475.19	1794.02
475.39	1673.19
475.60	1732.58
475.80	1751.01
476.00	1759.21
476.20	1665.00
476.41	1742.82
476.61	1820.64
476.81	1699.81
477.01	1691.62
477.21	1814.50
477.42	1806.31
477.62	1624.04
477.82	1755.11
478.02	1763.30
478.23	1767.40
478.43	1642.47
478.63	1751.01
478.83	1667.05
479.03	1683.43
479.24	1693.67
479.44	1888.23
479.64	1617.90
479.84	1605.61
480.04	1718.25
480.25	1816.55
480.45	1746.92
480.65	1687.53
480.85	1763.30
481.06	1691.62
481.26	1755.11
481.46	1798.12
481.66	1724.39
481.86	1634.28
482.06	1818.60
482.27	1669.09
482.47	1755.11
482.67	1730.53
482.87	1687.53
483.07	1781.73
483.28	1748.97
483.48	1681.38
483.68	1820.64
483.88	1726.44
484.08	1570.79
484.29	1691.62
484.49	1669.09
484.69	1593.32
484.89	1824.74
485.09	1763.30
485.29	1818.60
485.50	1638.38
485.70	1656.81
485.90	1783.78
486.10	1740.77
486.30	1787.88
486.50	1742.82
486.71	1714.15
486.91	1761.25
487.11	1830.88
487.31	1646.57
487.51	1751.01
487.71	1675.24
487.91	1640.42
488.12	1624.04
488.32	1568.74
488.52	1718.25
488.72	1656.81
488.92	1742.82
489.12	1812.45
489.32	1804.26
489.53	1787.88
489.73	1634.28
489.93	1814.50
490.13	1640.42
490.33	1701.86
490.53	1714.15
490.73	1843.17
490.94	1665.00
491.14	1828.84
491.34	1845.22
491.54	2140.13
491.74	2660.31
491.94	3006.42
492.14	2990.03
492.34	3041.23
492.54	2746.33
492.75	2453.47
492.95	2379.74
493.15	2291.68
493.35	2330.59
493.55	2328.54
493.75	2127.84
493.95	2203.61
494.15	2062.30
494.35	1955.81
494.56	1847.27
494.76	1753.06
494.96	1822.69
495.16	1812.45
495.36	1699.81
495.56	1812.45
495.76	1703.91
495.96	1751.01
496.16	1724.39
496.36	1851.36
496.56	1744.87
496.77	1837.03
496.97	1714.15
497.17	1843.17
497.37	1708.01
497.57	1798.12
497.77	1724.39
497.97	1675.24
498.17	1751.01
498.37	1697.77
498.57	1759.21
498.77	1708.01
498.97	1765.35
499.17	1837.03
499.38	1658.85
499.58	1785.83
499.78	1798.12
499.98	1787.88
500.18	1794.02
500.38	1724.39
500.58	1957.86
500.78	2602.97
500.98	4534.20
501.18	5881.77
501.38	6907.80
501.58	7147.41
501.78	6754.20
501.98	5506.99
502.18	4962.23
502.38	4468.67
502.58	4161.47
502.78	3641.29
502.98	3655.62
503.18	3526.60
503.38	3180.50
503.59	2918.36
503.79	2746.33
503.99	2435.03
504.19	2326.49
504.39	2174.94
504.59	2185.18
504.79	2115.55
504.99	2133.98
505.19	1916.90
505.39	1925.09
505.59	1953.76
505.79	1943.52
505.99	1804.26
506.19	1810.40
506.39	1882.08
506.59	1779.68
506.79	1777.64
506.99	1834.98
507.19	1738.73
507.39	1789.92
507.59	1681.38
507.79	1701.86
507.99	1703.91
508.19	1755.11
508.39	1757.16
508.59	1726.44
508.79	1818.60
508.99	1834.98
509.19	1640.42
509.39	1794.02
509.59	1777.64
509.79	1624.04
509.99	1714.15
510.19	1783.78
510.39	1796.07
510.59	1724.39
510.79	1714.15
510.99	1605.61
511.19	1748.97
511.39	1794.02
511.59	1751.01
511.79	1810.40
511.99	1804.26
512.19	1777.64
512.38	1677.29
512.58	1710.05
512.78	1730.53
512.98	1802.21
513.18	1826.79
513.38	1687.53
513.58	1763.30
513.78	1724.39
513.98	1728.49
514.18	1734.63
514.38	1800.16
514.58	1720.29
514.78	1724.39
514.98	1650.66
515.18	1695.72
515.38	1681.38
515.58	1791.97
515.78	1746.92
515.98	1753.06
516.18	1816.55
516.38	1710.05
516.57	1753.06
516.77	1730.53
516.97	1761.25
517.17	1689.57
517.37	1662.95
517.57	1789.92
517.77	1742.82
517.97	1697.77
518.17	1748.97
518.37	1779.68
518.57	1634.28
518.77	1685.48
518.97	1718.25
519.16	1808.36
519.36	1761.25
519.56	1636.33
519.76	1724.39
519.96	1796.07
520.16	1828.84
520.36	1656.81
520.56	1869.80
520.76	1658.85
520.96	1687.53
521.16	1771.49
521.35	1869.80
521.55	1894.37
521.75	1757.16
521.95	1648.61
522.15	1703.91
522.35	1634.28
522.55	1644.52
522.75	1779.68
522.95	1630.18
523.14	1699.81
523.34	1773.54
523.54	1689.57
523.74	1853.41
523.94	1738.73
524.14	1595.37
524.34	1742.82
524.54	1800.16
524.73	1703.91
524.93	1757.16
525.13	1697.77
525.33	1701.86
525.53	1820.64
525.73	1773.54
525.93	1783.78
526.13	1708.01
526.32	1701.86
526.52	1820.64
526.72	1804.26
526.92	1683.43
527.12	1789.92
527.32	1681.38
527.52	1693.67
527.71	1734.63
527.91	1751.01
528.11	1742.82
528.31	1701.86
528.51	1705.96
528.71	1765.35
528.90	1757.16
529.10	1818.60
529.30	1785.83
529.50	1636.33
529.70	1791.97
529.90	1744.87
530.09	1734.63
530.29	1746.92
530.49	1652.71
530.69	1902.56
530.89	1789.92
531.09	1851.36
531.28	1724.39
531.48	1853.41
531.68	1746.92
531.88	1695.72
532.08	1779.68
532.28	1665.00
532.47	1804.26
532.67	1810.40
532.87	1722.34
533.07	1744.87
533.27	1794.02
533.46	1757.16
533.66	1777.64
533.86	1718.25
534.06	1740.77
534.26	1730.53
534.45	1619.94
534.65	1812.45
534.85	1720.29
535.05	1726.44
535.25	1796.07
535.44	1703.91
535.64	1818.60
535.84	1714.15
536.04	1695.72
536.24	1781.73
536.43	1675.24
536.63	1787.88
536.83	1683.43
537.03	1695.72
537.22	1640.42
537.42	1640.42
537.62	1732.58
537.82	1697.77
538.02	1826.79
538.21	1781.73
538.41	1873.89
538.61	1761.25
538.81	1738.73
539.00	1826.79
539.20	1683.43
539.40	1658.85
539.60	1716.20
539.79	1775.59
539.99	1685.48
540.19	1665.00
540.39	1722.34
540.58	1783.78
540.78	1830.88
540.98	1806.31
541.18	1826.79
541.37	1781.73
541.57	1726.44
541.77	1738.73
541.97	1716.20
542.16	1646.57
542.36	1687.53
542.56	1783.78
542.76	1826.79
542.95	1794.02
543.15	1771.49
543.35	1787.88
543.54	1656.81
543.74	1683.43
543.94	1759.21
544.14	1671.14
544.33	1765.35
544.53	1740.77
544.73	1703.91
544.93	1656.81
545.12	1638.38
545.32	1722.34
545.52	1689.57
545.71	1748.97
545.91	1736.68
546.11	1740.77
546.30	1626.09
546.50	1699.81
546.70	1755.11
546.90	1828.84
547.09	1613.80
547.29	1765.35
547.49	1746.92
547.68	1796.07
547.88	1689.57
548.08	1769.44
548.27	2150.37
548.47	1697.77
548.67	1687.53
548.87	1751.01
549.06	1675.24
549.26	1843.17
549.46	1771.49
549.65	1722.34
549.85	1767.40
550.05	1716.20
550.24	1611.75
550.44	1691.62
550.64	1775.59
550.83	1689.57
551.03	1781.73
551.23	1789.92
551.42	1740.77
551.62	1718.25
551.82	1753.06
552.01	1722.34
552.21	1763.30
552.41	1767.40
552.60	1800.16
552.80	1834.98
553.00	1648.61
553.19	1757.16
553.39	1796.07
553.59	1718.25
553.78	1705.96
553.98	1785.83
554.17	1619.94
554.37	1781.73
554.57	1755.11
554.76	1681.38
554.96	1701.86
555.16	1679.33
555.35	1755.11
555.55	1726.44
555.75	1753.06
555.94	1843.17
556.14	1613.80
556.33	1765.35
556.53	1714.15
556.73	1751.01
556.92	1728.49
557.12	1861.60
557.32	1834.98
557.51	1834.98
557.71	1728.49
557.90	1824.74
558.10	1816.55
558.30	1816.55
558.49	1759.21
558.69	1720.29
558.88	1800.16
559.08	1662.95
559.28	1730.53
559.47	1638.38
559.67	1728.49
559.86	1837.03
560.06	1736.68
560.26	1746.92
560.45	1730.53
560.65	1695.72
560.84	1820.64
561.04	1804.26
561.24	1783.78
561.43	1611.75
561.63	1826.79
561.82	1847.27
562.02	1732.58
562.22	1738.73
562.41	1734.63
562.61	1685.48
562.80	1714.15
563.00	1890.28
563.19	1763.30
563.39	1791.97
563.59	1777.64
563.78	1697.77
563.98	1642.47
564.17	1718.25
564.37	1675.24
564.56	1744.87
564.76	1755.11
564.96	1863.65
565.15	1802.21
565.35	1888.23
565.54	1763.30
565.74	1742.82
565.93	1787.88
566.13	1667.05
566.32	1791.97
566.52	1748.97
566.71	1638.38
566.91	1746.92
567.11	1742.82
567.30	1683.43
567.50	1751.01
567.69	1744.87
567.89	1697.77
568.08	1712.10
568.28	1748.97
568.47	1742.82
568.67	1730.53
568.86	1697.77
569.06	1722.34
569.25	1728.49
569.45	1755.11
569.64	1677.29
569.84	1773.54
570.04	1703.91
570.23	1619.94
570.43	1697.77
570.62	1787.88
570.82	1873.89
571.01	1648.61
571.21	1746.92
571.40	1728.49
571.60	1804.26
571.79	1714.15
571.99	1810.40
572.18	1691.62
572.38	1820.64
572.57	1773.54
572.77	1773.54
572.96	1968.10
573.16	1828.84
573.35	1759.21
573.55	1857.51
573.74	1832.93
573.94	1748.97
574.13	1728.49
574.33	1845.22
574.52	1830.88
574.71	1740.77
574.91	1820.64
575.10	1718.25
575.30	1677.29
575.49	1705.96
575.69	1714.15
575.88	1845.22
576.08	1644.52
576.27	1796.07
576.47	1755.11
576.66	1839.08
576.86	1804.26
577.05	1794.02
577.25	1763.30
577.44	1814.50
577.64	1681.38
577.83	1751.01
578.02	1837.03
578.22	1849.32
578.41	1894.37
578.61	1705.96
578.80	1628.14
579.00	1789.92
579.19	1724.39
579.39	1751.01
579.58	1839.08
579.77	1757.16
579.97	1818.60
580.16	1808.36
580.36	1837.03
580.55	1789.92
580.75	1773.54
580.94	1710.05
581.13	1865.70
581.33	1843.17
581.52	1789.92
581.72	1837.03
581.91	1867.75
582.11	1722.34
582.30	1843.17
582.49	1773.54
582.69	1865.70
582.88	1820.64
583.08	1751.01
583.27	1820.64
583.47	1738.73
583.66	1787.88
583.85	1734.63
584.05	1689.57
584.24	1767.40
584.44	1738.73
584.63	1781.73
584.82	1789.92
585.02	1783.78
585.21	1806.31
585.41	1849.32
585.60	1892.32
585.79	1894.37
585.99	1884.13
586.18	1832.93
586.37	2197.47
586.57	3409.87
586.76	9875.31
586.96	24264.33
587.15	34047.48
587.34	40095.13
587.54	41753.99
587.73	36496.85
587.93	26275.44
588.12	21231.29
588.31	18249.45
588.51	16271.11
588.70	15042.33
588.89	14034.73
589.09	12449.60
589.28	10960.73
589.47	9521.01
589.67	7997.32
589.86	6277.02
590.06	4804.53
590.25	3831.75
590.44	3045.33
590.64	2602.97
590.83	2238.43
591.02	2101.22
591.22	1951.71
591.41	1931.23
591.60	1816.55
591.80	1984.48
591.99	1734.63
592.18	1806.31
592.38	1771.49
592.57	1751.01
592.76	1781.73
592.96	1748.97
593.15	1740.77
593.34	1859.56
593.54	1736.68
593.73	1810.40
593.92	1828.84
594.12	1849.32
594.31	1861.60
594.50	1798.12
594.70	1810.40
594.89	1974.24
595.08	1738.73
595.28	1785.83
595.47	1945.57
595.66	1853.41
595.86	1710.05
596.05	1726.44
596.24	1697.77
596.43	1791.97
596.63	1839.08
596.82	1826.79
597.01	1767.40
597.21	1865.70
597.40	1763.30
597.59	1726.44
597.79	1759.21
597.98	1771.49
598.17	1761.25
598.36	1738.73
598.56	1761.25
598.75	1708.01
598.94	1775.59
599.14	1759.21
599.33	1728.49
599.52	1753.06
599.71	1714.15
599.91	1787.88
600.10	1789.92
600.29	1822.69
600.48	1775.59
600.68	1816.55
600.87	1693.67
601.06	1665.00
601.26	1734.63
601.45	1789.92
601.64	1720.29
601.83	1767.40
602.03	1755.11
602.22	1681.38
602.41	1796.07
602.60	1884.13
602.80	1755.11
602.99	1787.88
603.18	1726.44
603.37	1724.39
603.57	1755.11
603.76	1816.55
603.95	1740.77
604.14	1689.57
604.34	1640.42
604.53	1699.81
604.72	1746.92
604.91	1726.44
605.10	1775.59
605.30	1751.01
605.49	1787.88
605.68	1697.77
605.87	1785.83
606.07	1748.97
606.26	1722.34
606.45	1802.21
606.64	1771.49
606.84	1705.96
607.03	1716.20
607.22	1812.45
607.41	1648.61
607.60	1779.68
607.80	1740.77
607.99	1746.92
608.18	1720.29
608.37	1779.68
608.56	1697.77
608.76	1843.17
608.95	1851.36
609.14	1802.21
609.33	1814.50
609.52	1828.84
609.72	1748.97
609.91	1798.12
610.10	1736.68
610.29	1832.93
610.48	1722.34
610.68	1769.44
610.87	1730.53
611.06	1787.88
611.25	1722.34
611.44	1796.07
611.63	1775.59
611.83	1826.79
612.02	1677.29
612.21	1804.26
612.40	1636.33
612.59	1648.61
612.79	1636.33
612.98	1742.82
613.17	1867.75
613.36	1716.20
613.55	1744.87
613.74	1763.30
613.93	1665.00
614.13	1753.06
614.32	1791.97
614.51	1787.88
614.70	1714.15
614.89	1708.01
615.08	1802.21
615.28	2080.74
615.47	1701.86
615.66	1742.82
615.85	1660.90
616.04	1851.36
616.23	1660.90
616.42	1728.49
616.62	1736.68
616.81	1748.97
617.00	1798.12
617.19	1771.49
617.38	1734.63
617.57	1812.45
617.76	1787.88
617.95	1757.16
618.15	1744.87
618.34	1796.07
618.53	1607.66
618.72	1839.08
618.91	1771.49
619.10	1779.68
619.29	1687.53
619.48	1712.10
619.68	1665.00
619.87	1769.44
620.06	1609.70
620.25	1697.77
620.44	1763.30
620.63	1708.01
620.82	1720.29
621.01	1818.60
621.20	1630.18
621.39	1724.39
621.59	1710.05
621.78	1675.24
621.97	1714.15
622.16	1763.30
622.35	1877.99
622.54	1851.36
622.73	1759.21
622.92	1656.81
623.11	1824.74
623.30	1660.90
623.49	1812.45
623.68	1646.57
623.88	1779.68
624.07	1669.09
624.26	1724.39
624.45	1746.92
624.64	1763.30
624.83	1714.15
625.02	1693.67
625.21	1675.24
625.40	1716.20
625.59	1722.34
625.78	1773.54
625.97	1773.54
626.16	1757.16
626.35	1748.97
626.54	1665.00
626.74	1804.26
626.93	1746.92
627.12	1591.27
627.31	1771.49
627.50	1781.73
627.69	1748.97
627.88	1644.52
628.07	1679.33
628.26	1642.47
628.45	1734.63
628.64	1628.14
628.83	1748.97
629.02	1607.66
629.21	1804.26
629.40	1816.55
629.59	1583.08
629.78	1777.64
629.97	1720.29
630.16	1767.40
630.35	1701.86
630.54	1746.92
630.73	1728.49
630.92	1701.86
631.11	1724.39
631.30	1771.49
631.49	1681.38
631.68	1789.92
631.87	1798.12
632.06	1697.77
632.25	1818.60
632.44	1744.87
632.63	1738.73
632.82	1695.72
633.01	1736.68
633.20	1701.86
633.39	1683.43
633.58	1693.67
633.77	1753.06
633.96	1767.40
634.15	1710.05
634.34	1751.01
634.53	1757.16
634.72	1722.34
634.91	1646.57
635.10	1708.01
635.29	1781.73
635.48	1744.87
635.67	1699.81
635.86	1714.15
636.05	1806.31
636.24	1708.01
636.43	1728.49
636.62	1789.92
636.81	1607.66
637.00	1746.92
637.19	1755.11
637.38	1730.53
637.57	1648.61
637.76	1646.57
637.95	1730.53
638.14	1757.16
638.33	1677.29
638.52	1652.71
638.71	1712.10
638.89	1638.38
639.08	1822.69
639.27	1763.30
639.46	1671.14
639.65	1816.55
639.84	1697.77
640.03	1812.45
640.22	1701.86
640.41	1732.58
640.60	1658.85
640.79	1685.48
640.98	1740.77
641.17	1710.05
641.36	1732.58
641.55	1763.30
641.74	1652.71
641.92	1660.90
642.11	1626.09
642.30	1722.34
642.49	1685.48
642.68	1738.73
642.87	1810.40
643.06	1763.30
643.25	1736.68
643.44	1658.85
643.63	1662.95
643.82	1834.98
644.00	1679.33
644.19	1769.44
644.38	1779.68
644.57	1652.71
644.76	1759.21
644.95	1701.86
645.14	1761.25
645.33	1685.48
645.52	1712.10
645.71	1632.23
645.89	1730.53
646.08	1667.05
646.27	1693.67
646.46	1837.03
646.65	1763.30
646.84	1746.92
647.03	1683.43
647.22	1708.01
647.40	1730.53
647.59	1681.38
647.78	1699.81
647.97	1728.49
648.16	1675.24
648.35	1857.51
648.54	1791.97
648.73	1675.24
648.91	1777.64
649.10	1736.68
649.29	1644.52
649.48	1791.97
649.67	1777.64
649.86	1673.19
650.05	1624.04
650.23	1787.88
650.42	1763.30
650.61	1738.73
650.80	1728.49
650.99	1888.23
651.18	1771.49
651.36	1806.31
651.55	1697.77
651.74	1796.07
651.93	1656.81
652.12	1658.85
652.31	1794.02
652.49	1738.73
652.68	1736.68
652.87	1753.06
653.06	1728.49
653.25	1783.78
653.44	1693.67
653.62	1845.22
653.81	1794.02
654.00	1681.38
654.19	1769.44
654.38	1845.22
654.56	1732.58
654.75	1665.00
654.94	1665.00
655.13	1697.77
655.32	1732.58
655.51	1705.96
655.69	1689.57
655.88	1783.78
656.07	1732.58
656.26	1796.07
656.45	1609.70
656.63	1724.39
656.82	1675.24
657.01	1757.16
657.20	1660.90
657.38	1822.69
657.57	1732.58
657.76	1662.95
657.95	1767.40
658.14	1708.01
658.32	1767.40
658.51	1695.72
658.70	1722.34
658.89	1787.88
659.08	1679.33
659.26	1806.31
659.45	1677.29
659.64	1730.53
659.83	1665.00
660.01	1843.17
660.20	1734.63
660.39	1787.88
660.58	1499.11
660.76	1783.78
660.95	1665.00
661.14	1744.87
661.33	1634.28
661.51	1783.78
661.70	1765.35
661.89	1785.83
662.08	1785.83
662.26	1665.00
662.45	1679.33
662.64	1806.31
662.83	1753.06
663.01	1712.10
663.20	1673.19
663.39	1791.97
663.58	1656.81
663.76	1689.57
663.95	1736.68
664.14	1640.42
664.32	1708.01
664.51	1656.81
664.70	1671.14
664.89	1691.62
665.07	1626.09
665.26	1873.89
665.45	1583.08
665.64	1705.96
665.82	1767.40
666.01	1779.68
666.20	1669.09
666.38	1902.56
666.57	1783.78
666.76	2162.66
666.95	4413.37
667.13	10301.28
667.32	15281.94
667.51	17891.06
667.69	19214.04
667.88	17733.36
668.07	12291.91
668.25	9412.46
668.44	8193.92
668.63	7272.34
668.81	6786.97
669.00	6260.64
669.19	5760.94
669.38	5109.68
669.56	4583.35
669.75	4036.55
669.94	3452.88
670.12	2836.44
670.31	2631.64
670.50	2226.14
670.68	2101.22
670.87	1884.13
671.06	1859.56
671.24	1769.44
671.43	1910.75
671.62	1808.36
671.80	1710.05
671.99	1722.34
672.18	1718.25
672.36	1802.21
672.55	1703.91
672.74	1732.58
672.92	1683.43
673.11	1730.53
673.29	1753.06
673.48	1667.05
673.67	1624.04
673.85	1820.64
674.04	1693.67
674.23	1769.44
674.41	1814.50
674.60	1648.61
674.79	1613.80
674.97	1722.34
675.16	1779.68
675.34	1744.87
675.53	1646.57
675.72	1763.30
675.90	1890.28
676.09	1693.67
676.28	1722.34
676.46	1644.52
676.65	1742.82
676.83	1718.25
677.02	1800.16
677.21	1689.57
677.39	1675.24
677.58	1673.19
677.77	1724.39
677.95	1734.63
678.14	1726.44
678.32	1675.24
678.51	1736.68
678.70	1914.85
678.88	1693.67
679.07	1734.63
679.25	1681.38
679.44	1705.96
679.63	1632.23
679.81	1748.97
680.00	1806.31
680.18	1761.25
680.37	1796.07
680.55	1751.01
680.74	1646.57
680.93	1624.04
681.11	1812.45
681.30	1703.91
681.48	1687.53
681.67	1658.85
681.85	1775.59
682.04	1695.72
682.23	1814.50
682.41	1738.73
682.60	1724.39
682.78	1693.67
682.97	1662.95
683.15	1736.68
683.34	1791.97
683.53	1785.83
683.71	1689.57
683.90	1787.88
684.08	1705.96
684.27	1611.75
684.45	1730.53
684.64	1845.22
684.82	1703.91
685.01	1699.81
685.19	1687.53
685.38	1769.44
685.57	1675.24
685.75	1642.47
685.94	1654.76
686.12	1687.53
686.31	1691.62
686.49	1820.64
686.68	1689.57
686.86	1746.92
687.05	1687.53
687.23	1873.89
687.42	1683.43
687.60	1636.33
687.79	1710.05
687.97	1796.07
688.16	1765.35
688.34	1804.26
688.53	1665.00
688.71	1767.40
688.90	1773.54
689.08	1699.81
689.27	1650.66
689.45	1732.58
689.64	1877.99
689.82	1724.39
690.01	1738.73
690.19	1738.73
690.38	1679.33
690.56	1742.82
690.75	1669.09
690.93	1693.67
691.12	1736.68
691.30	1742.82
691.49	1697.77
691.67	1726.44
691.86	1816.55
692.04	1695.72
692.23	1677.29
692.41	1738.73
692.60	1855.46
692.78	1742.82
692.97	1716.20
693.15	1705.96
693.34	1888.23
693.52	1789.92
693.71	1699.81
693.89	1728.49
694.08	1689.57
694.26	1748.97
694.44	1759.21
694.63	1806.31
694.81	1636.33
695.00	1689.57
695.18	1841.12
695.37	1896.42
695.55	1722.34
695.74	1730.53
695.92	1665.00
696.10	1851.36
696.29	1628.14
696.47	1724.39
696.66	1648.61
696.84	1705.96
697.03	1660.90
697.21	1853.41
697.40	2416.60
697.58	1769.44
697.76	1695.72
697.95	1650.66
698.13	1636.33
698.32	1722.34
698.50	1693.67
698.68	1705.96
698.87	1673.19
699.05	1730.53
699.24	1718.25
699.42	1667.05
699.61	1720.29
699.79	1757.16
699.97	1654.76
700.16	1607.66
700.34	1746.92
700.53	1693.67
700.71	1798.12
700.89	1775.59
701.08	1708.01
701.26	1777.64
701.45	2080.74
701.63	1671.14
701.81	1665.00
702.00	1675.24
702.18	1728.49
702.37	1714.15
702.55	1742.82
702.73	1710.05
702.92	1671.14
703.10	1785.83
703.28	1718.25
703.47	1671.14
703.65	1759.21
703.84	1740.77
704.02	1630.18
704.20	1826.79
704.39	1689.57
704.57	1667.05
704.75	1705.96
704.94	1773.54
705.12	1722.34
705.30	1781.73
705.49	2289.63
705.67	4349.89
705.86	9467.76
706.04	12353.35
706.22	14432.04
706.41	15220.50
706.59	13567.79
706.77	9693.04
706.96	7178.13
707.14	6465.44
707.32	5842.85
707.51	5738.41
707.69	4833.21
707.87	4179.90
708.06	3532.75
708.24	2961.36
708.42	2389.98
708.61	2269.15
708.79	1877.99
708.97	1875.94
709.16	1802.21
709.34	1699.81
709.52	1755.11
709.71	1736.68
709.89	1736.68
710.07	1732.58
710.26	1644.52
710.44	1681.38
710.62	1730.53
710.80	1742.82
710.99	1773.54
711.17	1736.68
711.35	1605.61
711.54	1720.29
711.72	1859.56
711.90	1734.63
712.09	1691.62
712.27	1685.48
712.45	1767.40
712.63	1720.29
712.82	1726.44
713.00	1714.15
713.18	1814.50
713.37	1783.78
713.55	1757.16
713.73	1777.64
713.91	1738.73
714.10	1746.92
714.28	1679.33
714.46	1765.35
714.65	1767.40
714.83	1695.72
715.01	1685.48
715.19	1740.77
715.38	1689.57
715.56	1728.49
715.74	1718.25
715.92	1630.18
716.11	1824.74
716.29	1675.24
716.47	1748.97
716.65	1720.29
716.84	1675.24
717.02	1779.68
717.20	1693.67
717.38	1738.73
717.57	1714.15
717.75	1685.48
717.93	1753.06
718.11	1714.15
718.30	1662.95
718.48	1738.73
718.66	1789.92
718.84	1779.68
719.03	1695.72
719.21	1669.09
719.39	1765.35
719.57	1699.81
719.75	1783.78
719.94	1671.14
720.12	1751.01
720.30	1699.81
720.48	1738.73
720.67	1728.49
720.85	1681.38
721.03	1751.01
721.21	1714.15
721.39	1820.64
721.58	1740.77
721.76	1771.49
721.94	1734.63
722.12	1691.62
722.30	1796.07
722.49	1736.68
722.67	1767.40
722.85	1679.33
723.03	1595.37
723.21	1710.05
723.40	1724.39
723.58	1746.92
723.76	1681.38
723.94	1818.60
724.12	1710.05
724.30	1837.03
724.49	1810.40
724.67	1621.99
724.85	1789.92
725.03	1566.70
725.21	1771.49
725.40	1783.78
725.58	1687.53
725.76	1787.88
725.94	1734.63
726.12	1658.85
726.30	1685.48
726.49	1746.92
726.67	1761.25
726.85	1691.62
727.03	1753.06
727.21	2131.94
727.39	2822.10
727.57	3731.40
727.76	4239.30
727.94	4501.44
728.12	4343.74
728.30	3686.34
728.48	2994.13
728.66	2705.37
728.84	2516.95
729.03	2344.92
729.21	2164.70
729.39	1998.82
729.57	1777.64
729.75	1748.97
729.93	1855.46
730.11	1673.19
730.30	1748.97
730.48	1722.34
730.66	1765.35
730.84	1693.67
731.02	1738.73
731.20	1724.39
731.38	1726.44
731.56	1648.61
731.74	1699.81
731.93	1724.39
732.11	1701.86
732.29	1728.49
732.47	1771.49
732.65	1757.16
732.83	1789.92
733.01	1732.58
733.19	1687.53
733.37	1683.43
733.56	1742.82
733.74	1775.59
733.92	1818.60
734.10	1648.61
734.28	1746.92
734.46	1685.48
734.64	1673.19
734.82	1714.15
735.00	1677.29
735.18	1748.97
735.36	1740.77
735.54	1652.71
735.73	1765.35
735.91	1800.16
736.09	1744.87
736.27	1726.44
736.45	1787.88
736.63	1595.37
736.81	1679.33
736.99	1740.77
737.17	1904.61
737.35	1677.29
737.53	1740.77
737.71	1724.39
737.89	1787.88
738.07	1697.77
738.25	1687.53
738.43	1619.94
738.61	1656.81
738.80	1695.72
738.98	1583.08
739.16	1695.72
739.34	1683.43
739.52	1777.64
739.70	1714.15
739.88	1779.68
740.06	1765.35
740.24	1595.37
740.42	1808.36
740.60	1646.57
740.78	1728.49
740.96	1624.04
741.14	1708.01
741.32	1718.25
741.50	1665.00
741.68	1847.27
741.86	1738.73
742.04	1665.00
742.22	1642.47
742.40	1691.62
742.58	1728.49
742.76	1658.85
742.94	1742.82
743.12	1613.80
743.30	1660.90
743.48	1673.19
743.66	1767.40
743.84	1691.62
744.02	1648.61
744.20	1722.34
744.38	1638.38
744.56	1687.53
744.74	1785.83
744.92	1806.31
745.10	1748.97
745.28	1779.68
745.46	1796.07
745.64	1722.34
745.82	1753.06
746.00	1718.25
746.18	1687.53
746.36	1640.42
746.54	1753.06
746.72	1744.87
746.90	1751.01
747.08	1826.79
747.26	1654.76
747.44	1787.88
747.62	1816.55
747.80	1767.40
747.98	1783.78
748.15	1679.33
748.33	1763.30
748.51	1728.49
748.69	1693.67
748.87	1646.57
749.05	1697.77
749.23	1687.53
749.41	1720.29
749.59	1728.49
749.77	1722.34
749.95	1734.63
750.13	1679.33
750.31	1708.01
750.49	1642.47
750.67	1783.78
750.85	1796.07
751.03	1714.15
751.20	1853.41
751.38	1732.58
751.56	1677.29
751.74	1665.00
751.92	1687.53
752.10	1648.61
752.28	1748.97
752.46	1705.96
752.64	1658.85
752.82	1708.01
753.00	1804.26
753.18	1589.22
753.35	1708.01
753.53	1746.92
753.71	1710.05
753.89	1697.77
754.07	1654.76
754.25	1767.40
754.43	1701.86
754.61	1681.38
754.79	1818.60
754.97	1705.96
755.14	1789.92
755.32	1665.00
755.50	1703.91
755.68	1751.01
755.86	1689.57
756.04	1665.00
756.22	1533.93
756.40	1769.44
756.57	1781.73
756.75	1714.15
756.93	1720.29
757.11	1761.25
757.29	1667.05
757.47	1644.52
757.65	1646.57
757.82	1548.26
758.00	1724.39
758.18	1669.09
758.36	1630.18
758.54	1783.78
758.72	1650.66
758.90	1742.82
759.07	1624.04
759.25	1599.46
759.43	1650.66
759.61	1689.57
759.79	2279.39
759.97	1794.02
760.15	1732.58
760.32	1669.09
760.50	1730.53
760.68	1785.83
760.86	1605.61
761.04	1650.66
761.22	1714.15
761.39	1689.57
761.57	1738.73
761.75	1662.95
761.93	1734.63
762.11	1654.76
762.28	1771.49
762.46	1626.09
762.64	1724.39
762.82	1548.26
763.00	1658.85
763.18	1775.59
763.35	1658.85
763.53	1720.29
763.71	1748.97
763.89	1685.48
764.07	1703.91
764.24	1658.85
764.42	1708.01
764.60	1755.11
764.78	1685.48
764.96	1773.54
765.13	1751.01
765.31	1767.40
765.49	1720.29
765.67	1681.38
765.84	1681.38
766.02	1693.67
766.20	1552.36
766.38	1744.87
766.56	1732.58
766.73	1738.73
766.91	1605.61
767.09	1708.01
767.27	1779.68
767.44	1716.20
767.62	1755.11
767.80	1701.86
767.98	1718.25
768.15	1722.34
768.33	1746.92
768.51	1826.79
768.69	1791.97
768.87	1693.67
769.04	1667.05
769.22	1839.08
769.40	1771.49
769.58	1796.07
769.75	1736.68
769.93	1753.06
770.11	1716.20
770.28	1640.42
770.46	1771.49
770.64	1734.63
770.82	1708.01
770.99	1689.57
771.17	1787.88
771.35	1705.96
771.53	1693.67
771.70	1648.61
771.88	1714.15
772.06	1740.77
772.23	1789.92
772.41	1746.92
772.59	1681.38
772.77	1548.26
772.94	1650.66
773.12	1683.43
773.30	1687.53
773.47	1761.25
773.65	1695.72
773.83	1765.35
774.01	1691.62
774.18	1619.94
774.36	1691.62
774.54	1673.19
774.71	1781.73
774.89	1673.19
775.07	1699.81
775.24	1681.38
775.42	1644.52
775.60	1851.36
775.78	1703.91
775.95	1669.09
776.13	1613.80
776.31	1583.08
776.48	1665.00
776.66	1767.40
776.84	1677.29
777.01	1722.34
777.19	1646.57
777.37	1671.14
777.54	1808.36
777.72	1804.26
777.90	1751.01
778.07	1705.96
778.25	1888.23
778.43	1779.68
778.60	1642.47
778.78	1802.21
778.96	1703.91
779.13	1624.04
779.31	1783.78
779.49	1746.92
779.66	1759.21
779.84	1710.05
780.01	1716.20
780.19	1632.23
780.37	1744.87
780.54	1763.30
780.72	1662.95
780.90	1675.24
781.07	1683.43
781.25	1708.01
781.43	1751.01
781.60	1675.24
781.78	1705.96
781.95	1708.01
782.13	1671.14
782.31	1703.91
782.48	1695.72
782.66	1748.97
782.83	1847.27
783.01	1757.16
783.19	1646.57
783.36	1697.77
783.54	1648.61
783.72	1740.77
783.89	1611.75
784.07	1716.20
784.24	1730.53
784.42	1785.83
784.60	1791.97
784.77	1738.73
784.95	1605.61
785.12	1675.24
785.30	1693.67
785.47	1714.15
785.65	1673.19
785.83	1665.00
786.00	1683.43
786.18	1736.68
786.35	1658.85
786.53	1630.18
786.71	1771.49
786.88	1781.73
787.06	1748.97
787.23	1697.77
787.41	1589.22
787.58	1714.15
787.76	1585.13
787.94	1783.78
788.11	1773.54
788.29	1636.33
788.46	1669.09
788.64	1611.75
788.81	1695.72
788.99	1669.09
789.16	1675.24
789.34	1738.73
789.52	1681.38
789.69	1683.43
789.87	1583.08
790.04	1619.94
790.22	1718.25
790.39	1849.32
790.57	1654.76
790.74	1673.19
790.92	1812.45
791.09	1656.81
791.27	1771.49
791.44	1785.83
791.62	1636.33
791.79	1679.33
791.97	1753.06
792.15	1880.04
792.32	1705.96
792.50	1814.50
792.67	1791.97
792.85	1794.02
793.02	1730.53
793.20	1640.42
793.37	1607.66
793.55	1716.20
793.72	1587.18
793.90	1765.35
794.07	1687.53
794.25	1626.09
794.42	1685.48
794.60	1578.98
794.77	1755.11
794.95	1742.82
795.12	1757.16
795.30	1714.15
795.47	1636.33
795.65	1959.91
795.82	1714.15
796.00	1730.53
796.17	1671.14
796.34	1748.97
796.52	1687.53
796.69	1738.73
796.87	1775.59
797.04	1669.09
797.22	1673.19
797.39	1736.68
797.57	1730.53
797.74	1691.62
797.92	1705.96
798.09	1656.81
798.27	1734.63
798.44	1767.40
798.62	1665.00
798.79	1767.40
798.96	1763.30
799.14	1732.58
799.31	1843.17
799.49	1691.62
799.66	1761.25
799.84	1746.92
800.01	1626.09
800.19	1705.96
800.36	1619.94
800.53	1734.63
800.71	1812.45
800.88	1779.68
801.06	1697.77
801.23	1732.58
801.41	1712.10
801.58	1667.05
801.75	1675.24
801.93	1681.38
802.10	1791.97
802.28	1665.00
802.45	1759.21
802.63	1763.30
802.80	1773.54
802.97	1716.20
803.15	1679.33
803.32	1603.56
803.50	1685.48
803.67	1712.10
803.84	1665.00
804.02	1734.63
804.19	1722.34
804.37	1595.37
804.54	1662.95
804.71	1755.11
804.89	1759.21
805.06	1691.62
805.24	1642.47
805.41	1615.85
805.58	1671.14
805.76	1777.64
805.93	1697.77
806.10	1808.36
806.28	1763.30
806.45	1738.73
806.63	1718.25
806.80	1730.53
806.97	1804.26
807.15	1798.12
807.32	1720.29
807.49	1687.53
807.67	1642.47
807.84	1769.44
808.01	1648.61
808.19	1859.56
808.36	1748.97
808.54	1673.19
808.71	1613.80
808.88	1722.34
809.06	1738.73
809.23	1755.11
809.40	1621.99
809.58	1796.07
809.75	1724.39
809.92	1691.62
810.10	1875.94
810.27	1712.10
810.44	1751.01
810.62	1681.38
810.79	1763.30
810.96	1734.63
811.14	1781.73
811.31	1724.39
811.48	1777.64
811.66	1673.19
811.83	1773.54
812.00	1798.12
812.18	1775.59
812.35	1839.08
812.52	1738.73
812.69	1712.10
812.87	1734.63
813.04	1650.66
813.21	1726.44
813.39	1665.00
813.56	1673.19
813.73	1804.26
813.91	1640.42
814.08	1734.63
814.25	1685.48
814.42	1619.94
814.60	1681.38
814.77	1757.16
814.94	1730.53
815.12	1716.20
815.29	1757.16
815.46	1621.99
815.63	1736.68
815.81	1695.72
815.98	1720.29
816.15	1626.09
816.33	1714.15
816.50	1693.67
816.67	1695.72
816.84	1714.15
817.02	1607.66
817.19	1624.04
817.36	1673.19
817.53	1703.91
817.71	1763.30
817.88	1806.31
818.05	1660.90
818.22	1697.77
818.40	1796.07
818.57	1712.10
818.74	1730.53
818.91	1638.38
819.09	1728.49
819.26	1703.91
819.43	1669.09
819.60	1624.04
819.78	1751.01
819.95	1718.25
820.12	1615.85
820.29	1734.63
820.47	1843.17
820.64	1718.25
820.81	1685.48
820.98	1689.57
821.15	1748.97
821.33	1787.88
821.50	1599.46
821.67	1722.34
821.84	1746.92
822.02	1640.42
822.19	1767.40
822.36	1693.67
822.53	1667.05
822.70	1671.14
822.88	1783.78
823.05	1834.98
823.22	1685.48
823.39	1781.73
823.56	1695.72
823.74	1824.74
823.91	1699.81
824.08	1656.81
824.25	1628.14
824.42	1791.97
824.60	1697.77
824.77	1691.62
824.94	1656.81
825.11	1732.58
825.28	1574.89
825.45	1687.53
825.63	1693.67
825.80	1658.85
825.97	1730.53
826.14	1708.01
826.31	1581.03
826.48	1671.14
826.66	1589.22
826.83	1708.01
827.00	1718.25
827.17	1607.66
827.34	1671.14
827.51	1632.23
827.69	1699.81
827.86	1640.42
828.03	1675.24
828.20	1714.15
828.37	1658.85
828.54	1753.06
828.71	1691.62
828.89	1869.80
829.06	1734.63
829.23	1810.40
829.40	1675.24
829.57	1595.37
829.74	1740.77
829.91	1619.94
830.09	1781.73
830.26	1746.92
830.43	1853.41
830.60	1697.77
830.77	1718.25
830.94	1740.77
831.11	1777.64
831.28	1679.33
831.46	1738.73
831.63	1683.43
831.80	1740.77
831.97	1724.39
832.14	1660.90
832.31	1785.83
832.48	1736.68
832.65	1822.69
832.82	1757.16
832.99	1785.83
833.17	1650.66
833.34	1791.97
833.51	1732.58
833.68	1611.75
833.85	1746.92
834.02	1619.94
834.19	1648.61
834.36	1640.42
834.53	1730.53
834.70	1769.44
834.87	1675.24
835.04	1693.67
835.22	1611.75
835.39	1669.09
835.56	1697.77
835.73	1650.66
835.90	1691.62
836.07	1581.03
836.24	1769.44
836.41	1681.38
836.58	1626.09
836.75	1753.06
836.92	1687.53
837.09	1656.81
837.26	1789.92
837.43	1724.39
837.60	1779.68
837.77	1681.38
837.94	1728.49
838.12	1714.15
838.29	1730.53
838.46	1675.24
838.63	1613.80
838.80	1787.88
838.97	1773.54
839.14	1710.05
839.31	1660.90
839.48	1730.53
839.65	1724.39
839.82	1771.49
839.99	1687.53
840.16	1726.44
840.33	1665.00
840.50	1724.39
840.67	1607.66
840.84	1605.61
841.01	1728.49
841.18	1615.85
841.35	1734.63
841.52	1732.58
841.69	1863.65
841.86	1800.16
842.03	1738.73
842.20	1742.82
842.37	1642.47
842.54	1703.91
842.71	1638.38
842.88	1660.90
843.05	1734.63
843.22	1738.73
843.39	1794.02
843.56	1636.33
843.73	1755.11
843.90	1689.57
844.07	1689.57
844.24	1687.53
844.41	1767.40
844.58	1740.77
844.75	1718.25
844.92	1730.53
845.09	1724.39
845.26	1691.62
845.43	1816.55
845.60	1599.46
845.77	1710.05
845.94	1740.77
846.10	1773.54
846.27	1615.85
846.44	1708.01
846.61	1630.18
846.78	1642.47
846.95	1769.44
847.12	1714.15
847.29	1681.38
847.46	1628.14
847.63	1779.68
847.80	1677.29
847.97	1726.44
848.14	1865.70
848.31	1673.19
848.48	1660.90
848.65	1667.05
848.82	1599.46
848.98	1918.95
849.15	1785.83
849.32	1755.11
849.49	1728.49
849.66	1736.68
849.83	1740.77
850.00	1605.61
850.17	1734.63
850.34	1638.38
850.51	1679.33
850.68	1662.95
850.85	1839.08
851.01	1691.62
851.18	1693.67
851.35	1671.14
851.52	1710.05
851.69	1734.63
851.86	1607.66
852.03	1701.86
852.20	1759.21
852.37	1734.63
852.53	1544.17
852.70	1632.23
852.87	1667.05
853.04	1705.96
853.21	1755.11
853.38	1759.21
853.55	1779.68
853.72	1808.36
853.89	1673.19
854.05	1587.18
854.22	1685.48
854.39	1724.39
854.56	1800.16
854.73	1726.44
854.90	1603.56
855.07	1708.01
855.23	1714.15
855.40	1697.77
855.57	1705.96
855.74	1603.56
855.91	1861.60
856.08	1675.24
856.25	1607.66
856.41	1701.86
856.58	1703.91
856.75	1751.01
856.92	1636.33
857.09	1773.54
857.26	1667.05
857.42	1626.09
857.59	1740.77
857.76	1679.33
857.93	1785.83
858.10	1779.68
858.27	1615.85
858.43	1669.09
858.60	1658.85
858.77	1658.85
858.94	1628.14
859.11	1773.54
859.27	1734.63
859.44	1703.91
859.61	1845.22
859.78	1730.53
859.95	1642.47
860.12	1730.53
860.28	1759.21
860.45	1822.69
860.62	1673.19
860.79	1708.01
860.95	1669.09
861.12	1685.48
861.29	1648.61
861.46	1705.96
861.63	1693.67
861.79	1730.53
861.96	1675.24
862.13	1656.81
862.30	1710.05
862.47	1687.53
862.63	1705.96
862.80	1837.03
862.97	1699.81
863.14	1736.68
863.30	1720.29
863.47	1714.15
863.64	1734.63
863.81	1726.44
863.97	1679.33
864.14	1730.53
864.31	1753.06
864.48	1828.84
864.65	1699.81
864.81	1734.63
864.98	1714.15
865.15	1695.72
865.32	1722.34
865.48	1697.77
865.65	1769.44
865.82	1693.67
865.98	1687.53
866.15	1771.49
866.32	1751.01
866.49	1654.76
866.65	1744.87
866.82	1628.14
866.99	1734.63
867.16	1722.34
867.32	1658.85
867.49	1691.62
867.66	1679.33
867.83	1656.81
867.99	1621.99
868.16	1642.47
868.33	1722.34
868.49	1679.33
868.66	1654.76
868.83	1712.10
868.99	1669.09
869.16	1718.25
869.33	1787.88
869.50	1775.59
869.66	1673.19
869.83	1654.76
870.00	1624.04
870.16	1753.06
870.33	1697.77
870.50	1710.05
870.66	1736.68
870.83	1869.80
871.00	1703.91
871.17	1804.26
871.33	1732.58
871.50	1615.85
871.67	1634.28
871.83	1730.53
872.00	1802.21
872.17	1775.59
872.33	1777.64
872.50	1658.85
872.67	1710.05
872.83	1665.00
873.00	1679.33
873.17	1681.38
873.33	1732.58
873.50	1796.07
873.67	1718.25
873.83	1669.09
874.00	1648.61
874.16	1761.25
874.33	1617.90
874.50	1675.24
874.66	1718.25
874.83	1744.87
875.00	1775.59
875.16	1779.68
875.33	1740.77
875.50	1550.31
875.66	1699.81
875.83	1744.87
875.99	1771.49
876.16	1730.53
876.33	1646.57
876.49	1677.29
876.66	1740.77
876.83	1742.82
876.99	1628.14
877.16	1742.82
877.32	1771.49
877.49	1761.25
877.66	1640.42
877.82	1810.40
877.99	1796.07
878.15	1738.73
878.32	1746.92
878.49	1730.53
878.65	1708.01
878.82	1755.11
878.98	1617.90
879.15	1779.68
879.32	1765.35
879.48	1820.64
879.65	1693.67
879.81	1734.63
879.98	1681.38
880.15	1693.67
880.31	1693.67
880.48	1683.43
880.64	1761.25
880.81	1669.09
880.97	1744.87
881.14	1773.54
881.31	1626.09
881.47	1810.40
881.64	1691.62
881.80	1619.94
881.97	1689.57
882.13	1763.30
882.30	1644.52
882.47	1710.05
882.63	1658.85
882.80	1705.96
882.96	1679.33
883.13	1718.25
883.29	1677.29
883.46	1677.29
883.62	1746.92
883.79	1775.59
883.95	1765.35
884.12	1710.05
884.29	1771.49
884.45	1746.92
884.62	1812.45
884.78	1730.53
884.95	1812.45
885.11	1667.05
885.28	1775.59
885.44	1716.20
885.61	1800.16
885.77	1738.73
885.94	1703.91
886.10	1771.49
886.27	1662.95
886.43	1812.45
886.60	1804.26
886.76	1656.81
886.93	1683.43
887.09	1730.53
887.26	1689.57
887.42	1742.82
887.59	1724.39
887.75	1863.65
887.92	1802.21
888.08	1730.53
888.25	1832.93
888.41	1785.83
888.58	1777.64
888.74	1665.00
888.91	1624.04
>>>>>End Processed Spectral Data<<<<<
