SpectraSuite Data File
++++++++++++++++++++++++++++++++++++
Date: Mon Jun 06 15:04:17 CEST 2016
User: root
Dark Spectrum Present: No
Reference Spectrum Present: No
Number of Sampled Component Spectra: 1
Spectrometers: USB4C02835
Integration Time (usec): 100000 (USB4C02835)
Spectra Averaged: 1 (USB4C02835)
Boxcar Smoothing: 0 (USB4C02835)
Correct for Electrical Dark: No (USB4C02835)
Strobe/Lamp Enabled: No (USB4C02835)
Correct for Detector Non-linearity: No (USB4C02835)
Correct for Stray Light: No (USB4C02835)
Number of Pixels in Processed Spectrum: 3648
>>>>>Begin Processed Spectral Data<<<<<
177.47	1464.30
177.69	1464.30
177.91	1464.30
178.13	1447.91
178.36	1456.11
178.58	1603.56
178.80	1695.72
179.02	1597.42
179.24	1646.57
179.46	1703.91
179.68	1757.16
179.90	1753.06
180.13	1726.44
180.35	1638.38
180.57	1634.28
180.79	1675.24
181.01	1736.68
181.23	1767.40
181.45	1789.92
181.67	1708.01
181.90	1703.91
182.12	1689.57
182.34	1542.12
182.56	1677.29
182.78	1669.09
183.00	1644.52
183.22	1708.01
183.44	1611.75
183.66	1826.79
183.89	1781.73
184.11	1642.47
184.33	1697.77
184.55	1755.11
184.77	1726.44
184.99	1757.16
185.21	1640.42
185.43	1808.36
185.65	1673.19
185.87	1705.96
186.10	1841.12
186.32	1902.56
186.54	1708.01
186.76	1712.10
186.98	1712.10
187.20	1708.01
187.42	1685.48
187.64	1636.33
187.86	1699.81
188.08	1691.62
188.30	1728.49
188.52	1687.53
188.75	1779.68
188.97	1769.44
189.19	1636.33
189.41	1699.81
189.63	1789.92
189.85	1757.16
190.07	1677.29
190.29	1636.33
190.51	1818.60
190.73	1699.81
190.95	1773.54
191.17	1665.00
191.39	1593.32
191.61	1665.00
191.84	1775.59
192.06	1845.22
192.28	1576.94
192.50	1896.42
192.72	1697.77
192.94	1675.24
193.16	1771.49
193.38	1718.25
193.60	1751.01
193.82	1665.00
194.04	1753.06
194.26	1757.16
194.48	1734.63
194.70	1732.58
194.92	1675.24
195.14	1730.53
195.36	1724.39
195.58	1775.59
195.80	1615.85
196.02	1683.43
196.24	1753.06
196.46	1763.30
196.69	1669.09
196.91	1814.50
197.13	1652.71
197.35	1619.94
197.57	1751.01
197.79	1701.86
198.01	1742.82
198.23	1697.77
198.45	1660.90
198.67	1636.33
198.89	1636.33
199.11	1638.38
199.33	1712.10
199.55	1601.51
199.77	1722.34
199.99	1744.87
200.21	1728.49
200.43	1744.87
200.65	1644.52
200.87	1550.31
201.09	1648.61
201.31	1716.20
201.53	1771.49
201.75	1730.53
201.97	1665.00
202.19	1677.29
202.41	1718.25
202.63	1775.59
202.85	1685.48
203.07	1683.43
203.29	1660.90
203.51	1654.76
203.73	1624.04
203.95	1888.23
204.17	1806.31
204.39	1773.54
204.61	1683.43
204.83	1757.16
205.05	1814.50
205.27	1755.11
205.49	1822.69
205.71	1722.34
205.93	1689.57
206.15	1701.86
206.37	1732.58
206.59	1728.49
206.81	1583.08
207.03	1652.71
207.25	1697.77
207.47	1746.92
207.69	1716.20
207.91	1849.32
208.13	1705.96
208.34	1671.14
208.56	1681.38
208.78	1822.69
209.00	1669.09
209.22	1673.19
209.44	1593.32
209.66	1740.77
209.88	1658.85
210.10	1740.77
210.32	1722.34
210.54	1818.60
210.76	1636.33
210.98	1781.73
211.20	1624.04
211.42	1660.90
211.64	1804.26
211.86	1685.48
212.08	1681.38
212.30	1861.60
212.52	1693.67
212.74	1675.24
212.96	1701.86
213.17	1689.57
213.39	1742.82
213.61	1794.02
213.83	1701.86
214.05	1642.47
214.27	1730.53
214.49	1703.91
214.71	1718.25
214.93	1869.80
215.15	1757.16
215.37	1730.53
215.59	1634.28
215.81	1703.91
216.03	1851.36
216.24	1685.48
216.46	1689.57
216.68	1734.63
216.90	1716.20
217.12	1779.68
217.34	1697.77
217.56	1634.28
217.78	1728.49
218.00	1808.36
218.22	1716.20
218.44	1753.06
218.66	1757.16
218.87	1834.98
219.09	1697.77
219.31	1667.05
219.53	1722.34
219.75	1632.23
219.97	1705.96
220.19	1763.30
220.41	1720.29
220.63	1789.92
220.85	1634.28
221.06	1673.19
221.28	1665.00
221.50	1716.20
221.72	1667.05
221.94	1652.71
222.16	1736.68
222.38	1734.63
222.60	1759.21
222.82	1644.52
223.03	1705.96
223.25	1630.18
223.47	1779.68
223.69	1763.30
223.91	1726.44
224.13	1726.44
224.35	1648.61
224.57	1771.49
224.78	1697.77
225.00	1658.85
225.22	1718.25
225.44	1771.49
225.66	1765.35
225.88	1662.95
226.10	1794.02
226.32	1753.06
226.53	1812.45
226.75	1644.52
226.97	1683.43
227.19	1669.09
227.41	1673.19
227.63	1798.12
227.85	1597.42
228.06	1724.39
228.28	1693.67
228.50	1687.53
228.72	1681.38
228.94	1724.39
229.16	1644.52
229.37	1650.66
229.59	1675.24
229.81	1798.12
230.03	1685.48
230.25	1617.90
230.47	1589.22
230.69	1529.83
230.90	1720.29
231.12	1730.53
231.34	1787.88
231.56	1794.02
231.78	1650.66
232.00	1691.62
232.21	1675.24
232.43	1714.15
232.65	1554.41
232.87	1773.54
233.09	1632.23
233.30	1724.39
233.52	1726.44
233.74	1716.20
233.96	1701.86
234.18	1722.34
234.40	1740.77
234.61	1800.16
234.83	1654.76
235.05	1650.66
235.27	1845.22
235.49	1800.16
235.70	1718.25
235.92	1808.36
236.14	1701.86
236.36	1851.36
236.58	1546.22
236.79	1705.96
237.01	1712.10
237.23	1701.86
237.45	1755.11
237.67	1644.52
237.88	1689.57
238.10	1796.07
238.32	1646.57
238.54	1701.86
238.76	1601.51
238.97	1650.66
239.19	1644.52
239.41	1810.40
239.63	1810.40
239.85	1626.09
240.06	1742.82
240.28	1720.29
240.50	1783.78
240.72	1665.00
240.93	1708.01
241.15	1796.07
241.37	1720.29
241.59	1779.68
241.81	1695.72
242.02	1619.94
242.24	1677.29
242.46	1728.49
242.68	1691.62
242.89	1722.34
243.11	1759.21
243.33	1675.24
243.55	1691.62
243.76	1675.24
243.98	1669.09
244.20	1681.38
244.42	1718.25
244.64	1714.15
244.85	1650.66
245.07	1576.94
245.29	1742.82
245.51	1619.94
245.72	1714.15
245.94	1779.68
246.16	1800.16
246.38	1746.92
246.59	1626.09
246.81	1646.57
247.03	1703.91
247.24	1535.98
247.46	1718.25
247.68	1693.67
247.90	1699.81
248.11	1693.67
248.33	1742.82
248.55	1656.81
248.77	1683.43
248.98	1728.49
249.20	1757.16
249.42	1744.87
249.64	1761.25
249.85	1710.05
250.07	1644.52
250.29	1738.73
250.50	1691.62
250.72	1609.70
250.94	1716.20
251.16	1808.36
251.37	1804.26
251.59	1714.15
251.81	1714.15
252.02	1767.40
252.24	1613.80
252.46	1796.07
252.68	1630.18
252.89	1611.75
253.11	1574.89
253.33	1794.02
253.54	1726.44
253.76	1609.70
253.98	1755.11
254.20	1607.66
254.41	1650.66
254.63	1740.77
254.85	1619.94
255.06	1689.57
255.28	1730.53
255.50	1728.49
255.71	1673.19
255.93	1617.90
256.15	1669.09
256.36	1697.77
256.58	1652.71
256.80	1740.77
257.02	1712.10
257.23	1654.76
257.45	1734.63
257.67	1738.73
257.88	1619.94
258.10	1650.66
258.32	1591.27
258.53	1705.96
258.75	1742.82
258.97	1665.00
259.18	1726.44
259.40	1634.28
259.62	1832.93
259.83	1751.01
260.05	1769.44
260.27	1951.71
260.48	1791.97
260.70	1656.81
260.92	1687.53
261.13	1738.73
261.35	1665.00
261.57	1769.44
261.78	1628.14
262.00	1615.85
262.22	1677.29
262.43	1693.67
262.65	1695.72
262.86	1603.56
263.08	1816.55
263.30	1669.09
263.51	1630.18
263.73	1677.29
263.95	1816.55
264.16	1697.77
264.38	1656.81
264.60	1675.24
264.81	1626.09
265.03	1767.40
265.25	1705.96
265.46	1685.48
265.68	1787.88
265.89	1710.05
266.11	1638.38
266.33	1681.38
266.54	1763.30
266.76	1724.39
266.98	1800.16
267.19	1824.74
267.41	1701.86
267.62	1646.57
267.84	1617.90
268.06	1695.72
268.27	1732.58
268.49	1740.77
268.70	1765.35
268.92	1640.42
269.14	1624.04
269.35	1644.52
269.57	1675.24
269.79	1800.16
270.00	1640.42
270.22	1808.36
270.43	1603.56
270.65	1576.94
270.87	1732.58
271.08	1742.82
271.30	1740.77
271.51	1619.94
271.73	1802.21
271.95	1759.21
272.16	1718.25
272.38	1732.58
272.59	1658.85
272.81	1740.77
273.02	1804.26
273.24	1775.59
273.46	1789.92
273.67	1583.08
273.89	1730.53
274.10	1650.66
274.32	1746.92
274.54	1716.20
274.75	1757.16
274.97	1751.01
275.18	1763.30
275.40	1681.38
275.61	1701.86
275.83	1726.44
276.05	1609.70
276.26	1693.67
276.48	1681.38
276.69	1630.18
276.91	1718.25
277.12	1722.34
277.34	1773.54
277.55	1730.53
277.77	1689.57
277.99	1757.16
278.20	1576.94
278.42	1656.81
278.63	1644.52
278.85	1759.21
279.06	1626.09
279.28	1703.91
279.49	1728.49
279.71	1722.34
279.93	1626.09
280.14	1720.29
280.36	1667.05
280.57	1777.64
280.79	1730.53
281.00	1652.71
281.22	1728.49
281.43	1789.92
281.65	1593.32
281.86	1601.51
282.08	1744.87
282.29	1832.93
282.51	1689.57
282.73	1558.50
282.94	1621.99
283.16	1658.85
283.37	1818.60
283.59	1742.82
283.80	1726.44
284.02	1634.28
284.23	1814.50
284.45	1660.90
284.66	1632.23
284.88	1701.86
285.09	1757.16
285.31	1675.24
285.52	1771.49
285.74	1599.46
285.95	1728.49
286.17	1785.83
286.38	1777.64
286.60	1650.66
286.81	1734.63
287.03	1705.96
287.24	1689.57
287.46	1660.90
287.67	1710.05
287.89	1869.80
288.10	1660.90
288.32	1720.29
288.53	1720.29
288.75	1708.01
288.96	1806.31
289.18	1593.32
289.39	1705.96
289.61	1638.38
289.82	1853.41
290.04	1800.16
290.25	1621.99
290.47	1693.67
290.68	1693.67
290.90	1718.25
291.11	1609.70
291.33	1761.25
291.54	1665.00
291.76	1697.77
291.97	1662.95
292.18	1740.77
292.40	1697.77
292.61	1730.53
292.83	1812.45
293.04	1703.91
293.26	1685.48
293.47	1703.91
293.69	1667.05
293.90	1697.77
294.12	1775.59
294.33	1669.09
294.55	1626.09
294.76	1724.39
294.97	1765.35
295.19	1814.50
295.40	1673.19
295.62	1701.86
295.83	1847.27
296.05	1607.66
296.26	1767.40
296.48	1619.94
296.69	1671.14
296.90	1634.28
297.12	1787.88
297.33	1837.03
297.55	1869.80
297.76	1738.73
297.98	1742.82
298.19	1691.62
298.41	1734.63
298.62	1697.77
298.83	1857.51
299.05	1769.44
299.26	1660.90
299.48	1673.19
299.69	1722.34
299.90	1685.48
300.12	1632.23
300.33	1722.34
300.55	1695.72
300.76	1712.10
300.98	1662.95
301.19	1724.39
301.40	1728.49
301.62	1673.19
301.83	1673.19
302.05	1699.81
302.26	1652.71
302.47	1728.49
302.69	1693.67
302.90	1671.14
303.12	1525.74
303.33	1732.58
303.54	1806.31
303.76	1681.38
303.97	1720.29
304.19	1759.21
304.40	1665.00
304.61	1683.43
304.83	1785.83
305.04	1755.11
305.26	1708.01
305.47	1714.15
305.68	1689.57
305.90	1585.13
306.11	1738.73
306.33	1722.34
306.54	1658.85
306.75	1685.48
306.97	1634.28
307.18	1660.90
307.39	1599.46
307.61	1675.24
307.82	1667.05
308.04	1734.63
308.25	1660.90
308.46	1746.92
308.68	1746.92
308.89	1689.57
309.10	1779.68
309.32	1648.61
309.53	1714.15
309.74	1681.38
309.96	1695.72
310.17	1796.07
310.39	1685.48
310.60	1783.78
310.81	1675.24
311.03	1619.94
311.24	1773.54
311.45	1730.53
311.67	1785.83
311.88	1658.85
312.09	1687.53
312.31	1572.84
312.52	1720.29
312.73	1722.34
312.95	1673.19
313.16	1687.53
313.37	1773.54
313.59	1791.97
313.80	1716.20
314.01	1785.83
314.23	1691.62
314.44	1609.70
314.65	1667.05
314.87	1708.01
315.08	1699.81
315.29	1738.73
315.51	1552.36
315.72	1591.27
315.93	1832.93
316.15	1763.30
316.36	1648.61
316.57	1699.81
316.79	1779.68
317.00	1730.53
317.21	1675.24
317.43	1716.20
317.64	1687.53
317.85	1652.71
318.07	1665.00
318.28	1740.77
318.49	1740.77
318.70	1892.32
318.92	1867.75
319.13	1757.16
319.34	1855.46
319.56	1777.64
319.77	1736.68
319.98	1757.16
320.20	1794.02
320.41	1767.40
320.62	1718.25
320.83	1626.09
321.05	1873.89
321.26	1734.63
321.47	1695.72
321.69	1734.63
321.90	1677.29
322.11	1705.96
322.32	1705.96
322.54	1812.45
322.75	1742.82
322.96	1744.87
323.18	1638.38
323.39	1662.95
323.60	1691.62
323.81	1755.11
324.03	1705.96
324.24	1810.40
324.45	1710.05
324.66	1705.96
324.88	1834.98
325.09	1740.77
325.30	1740.77
325.52	1751.01
325.73	1697.77
325.94	1599.46
326.15	1611.75
326.37	1660.90
326.58	1785.83
326.79	1742.82
327.00	1615.85
327.22	1732.58
327.43	1685.48
327.64	1681.38
327.85	1765.35
328.07	1689.57
328.28	1789.92
328.49	1640.42
328.70	1675.24
328.92	1720.29
329.13	1703.91
329.34	1640.42
329.55	1794.02
329.76	1724.39
329.98	1677.29
330.19	1724.39
330.40	1816.55
330.61	1699.81
330.83	1718.25
331.04	1636.33
331.25	1701.86
331.46	1705.96
331.68	1568.74
331.89	1675.24
332.10	1697.77
332.31	1607.66
332.52	1687.53
332.74	1730.53
332.95	1667.05
333.16	1675.24
333.37	1710.05
333.58	1695.72
333.80	1669.09
334.01	1667.05
334.22	1691.62
334.43	1675.24
334.64	1650.66
334.86	1730.53
335.07	1665.00
335.28	1808.36
335.49	1642.47
335.70	1761.25
335.92	1789.92
336.13	1824.74
336.34	1689.57
336.55	1701.86
336.76	1712.10
336.98	1642.47
337.19	1656.81
337.40	1742.82
337.61	1828.84
337.82	1660.90
338.04	1730.53
338.25	1607.66
338.46	1720.29
338.67	1689.57
338.88	1720.29
339.09	1710.05
339.31	1591.27
339.52	1687.53
339.73	1705.96
339.94	1638.38
340.15	1759.21
340.36	1716.20
340.58	1675.24
340.79	1691.62
341.00	1783.78
341.21	1673.19
341.42	1751.01
341.63	1695.72
341.85	1767.40
342.06	1667.05
342.27	1650.66
342.48	1798.12
342.69	1624.04
342.90	1722.34
343.12	1679.33
343.33	1654.76
343.54	1705.96
343.75	1816.55
343.96	1662.95
344.17	1648.61
344.38	1636.33
344.60	1605.61
344.81	1740.77
345.02	1705.96
345.23	1783.78
345.44	1722.34
345.65	1751.01
345.86	1730.53
346.07	1736.68
346.29	1585.13
346.50	1710.05
346.71	1763.30
346.92	1673.19
347.13	1796.07
347.34	1695.72
347.55	1632.23
347.76	1712.10
347.98	1638.38
348.19	1722.34
348.40	1804.26
348.61	1669.09
348.82	1742.82
349.03	1742.82
349.24	1650.66
349.45	1771.49
349.66	1634.28
349.88	1736.68
350.09	1691.62
350.30	1783.78
350.51	1806.31
350.72	1718.25
350.93	1710.05
351.14	1638.38
351.35	1642.47
351.56	1681.38
351.77	1640.42
351.99	1656.81
352.20	1794.02
352.41	1730.53
352.62	1609.70
352.83	1734.63
353.04	1728.49
353.25	1701.86
353.46	1751.01
353.67	1787.88
353.88	1617.90
354.09	1665.00
354.30	1705.96
354.52	1767.40
354.73	1650.66
354.94	1697.77
355.15	1714.15
355.36	1824.74
355.57	1654.76
355.78	1726.44
355.99	1615.85
356.20	1722.34
356.41	1761.25
356.62	1740.77
356.83	1689.57
357.04	1843.17
357.25	1615.85
357.46	1681.38
357.68	1574.89
357.89	1617.90
358.10	1771.49
358.31	1697.77
358.52	1669.09
358.73	1630.18
358.94	1624.04
359.15	1589.22
359.36	1738.73
359.57	1701.86
359.78	1695.72
359.99	1710.05
360.20	1685.48
360.41	1716.20
360.62	1771.49
360.83	1734.63
361.04	1755.11
361.25	1683.43
361.46	1804.26
361.67	1763.30
361.88	1755.11
362.09	1748.97
362.30	1720.29
362.51	1685.48
362.72	1722.34
362.93	1732.58
363.14	1763.30
363.35	1701.86
363.56	1662.95
363.78	1710.05
363.99	1722.34
364.20	1632.23
364.41	1763.30
364.62	1708.01
364.83	1673.19
365.04	1685.48
365.25	1675.24
365.46	1814.50
365.67	1597.42
365.88	1619.94
366.09	1710.05
366.30	1665.00
366.51	1705.96
366.72	1636.33
366.93	1728.49
367.14	1736.68
367.35	1791.97
367.56	1683.43
367.77	1808.36
367.98	1685.48
368.18	1767.40
368.39	1736.68
368.60	1701.86
368.81	1818.60
369.02	1609.70
369.23	1714.15
369.44	1648.61
369.65	1701.86
369.86	1701.86
370.07	1736.68
370.28	1615.85
370.49	1728.49
370.70	1755.11
370.91	1587.18
371.12	1601.51
371.33	1724.39
371.54	1652.71
371.75	1796.07
371.96	1591.27
372.17	1705.96
372.38	1648.61
372.59	1730.53
372.80	1642.47
373.01	1703.91
373.22	1683.43
373.43	1767.40
373.64	1619.94
373.85	1781.73
374.06	1808.36
374.26	1814.50
374.47	1773.54
374.68	1718.25
374.89	1746.92
375.10	1669.09
375.31	1720.29
375.52	1716.20
375.73	1687.53
375.94	1658.85
376.15	1804.26
376.36	1695.72
376.57	1642.47
376.78	1681.38
376.99	1691.62
377.20	1669.09
377.40	1640.42
377.61	1765.35
377.82	1658.85
378.03	1757.16
378.24	1638.38
378.45	1734.63
378.66	1767.40
378.87	1603.56
379.08	1542.12
379.29	1746.92
379.50	1767.40
379.71	1679.33
379.91	1710.05
380.12	1740.77
380.33	1687.53
380.54	1759.21
380.75	1751.01
380.96	1597.42
381.17	1722.34
381.38	1667.05
381.59	1759.21
381.80	1755.11
382.00	1875.94
382.21	1800.16
382.42	1853.41
382.63	1830.88
382.84	1828.84
383.05	1732.58
383.26	1849.32
383.47	1724.39
383.68	1712.10
383.88	1740.77
384.09	1712.10
384.30	1796.07
384.51	1671.14
384.72	1710.05
384.93	1589.22
385.14	1685.48
385.35	1746.92
385.55	1630.18
385.76	1765.35
385.97	1609.70
386.18	1669.09
386.39	1619.94
386.60	1724.39
386.81	1705.96
387.02	1710.05
387.22	1613.80
387.43	1765.35
387.64	1769.44
387.85	1830.88
388.06	2281.44
388.27	4265.92
388.48	6580.12
388.68	7950.21
388.89	9232.24
389.10	9559.92
389.31	8191.88
389.52	7321.49
389.73	6502.30
389.93	6043.56
390.14	5588.91
390.35	5038.00
390.56	4411.32
390.77	3762.12
390.98	3014.61
391.18	2527.19
391.39	2136.03
391.60	1820.64
391.81	1787.88
392.02	1705.96
392.23	1855.46
392.43	1724.39
392.64	1812.45
392.85	1683.43
393.06	1791.97
393.27	1691.62
393.47	1726.44
393.68	1677.29
393.89	1675.24
394.10	1697.77
394.31	1708.01
394.52	1673.19
394.72	1691.62
394.93	1748.97
395.14	1703.91
395.35	1703.91
395.56	1615.85
395.76	1720.29
395.97	1816.55
396.18	1861.60
396.39	1820.64
396.60	1990.63
396.80	1966.05
397.01	1871.84
397.22	1800.16
397.43	1781.73
397.64	1740.77
397.84	1839.08
398.05	1910.75
398.26	1746.92
398.47	1771.49
398.67	1855.46
398.88	1720.29
399.09	1759.21
399.30	1744.87
399.51	1687.53
399.71	1675.24
399.92	1718.25
400.13	1687.53
400.34	1738.73
400.54	1681.38
400.75	1783.78
400.96	1728.49
401.17	1740.77
401.37	1714.15
401.58	1718.25
401.79	1730.53
402.00	1802.21
402.21	2009.06
402.41	1955.81
402.62	1980.39
402.83	1945.57
403.04	1951.71
403.24	2142.18
403.45	1738.73
403.66	1908.71
403.87	1886.18
404.07	1863.65
404.28	1849.32
404.49	1822.69
404.70	1769.44
404.90	1718.25
405.11	1753.06
405.32	1742.82
405.52	1732.58
405.73	1718.25
405.94	1636.33
406.15	1775.59
406.35	1830.88
406.56	1712.10
406.77	1734.63
406.98	1705.96
407.18	1673.19
407.39	1783.78
407.60	1714.15
407.80	1720.29
408.01	1734.63
408.22	1761.25
408.43	1665.00
408.63	1685.48
408.84	1753.06
409.05	1761.25
409.25	1681.38
409.46	1654.76
409.67	1689.57
409.88	1640.42
410.08	1710.05
410.29	1689.57
410.50	1724.39
410.70	1681.38
410.91	1646.57
411.12	1812.45
411.32	1734.63
411.53	1724.39
411.74	1834.98
411.95	1794.02
412.15	1767.40
412.36	1734.63
412.57	1785.83
412.77	1771.49
412.98	1736.68
413.19	1691.62
413.39	1806.31
413.60	1734.63
413.81	1769.44
414.01	1714.15
414.22	1697.77
414.43	1820.64
414.63	1720.29
414.84	1761.25
415.05	1806.31
415.25	1550.31
415.46	1755.11
415.67	1669.09
415.87	1710.05
416.08	1689.57
416.29	1736.68
416.49	1753.06
416.70	1642.47
416.91	1699.81
417.11	1730.53
417.32	1765.35
417.53	1697.77
417.73	1669.09
417.94	1701.86
418.15	1724.39
418.35	1693.67
418.56	1697.77
418.77	1789.92
418.97	1775.59
419.18	1660.90
419.38	1628.14
419.59	1703.91
419.80	1853.41
420.00	1689.57
420.21	1724.39
420.42	1759.21
420.62	1724.39
420.83	1710.05
421.04	1699.81
421.24	1726.44
421.45	1732.58
421.65	1738.73
421.86	1708.01
422.07	1746.92
422.27	1685.48
422.48	1753.06
422.69	1583.08
422.89	1716.20
423.10	1636.33
423.30	1632.23
423.51	1742.82
423.72	1652.71
423.92	1675.24
424.13	1648.61
424.33	1705.96
424.54	1853.41
424.75	1718.25
424.95	1808.36
425.16	1699.81
425.36	1748.97
425.57	1687.53
425.78	1652.71
425.98	1783.78
426.19	1630.18
426.39	1599.46
426.60	1783.78
426.81	1798.12
427.01	1628.14
427.22	1677.29
427.42	1681.38
427.63	1628.14
427.83	1787.88
428.04	1798.12
428.25	1783.78
428.45	1812.45
428.66	1755.11
428.86	1675.24
429.07	1652.71
429.28	1738.73
429.48	1810.40
429.69	1617.90
429.89	1794.02
430.10	1574.89
430.30	1798.12
430.51	1818.60
430.71	1654.76
430.92	1746.92
431.13	1708.01
431.33	1808.36
431.54	1679.33
431.74	1765.35
431.95	1863.65
432.15	1697.77
432.36	1677.29
432.56	1716.20
432.77	1841.12
432.98	1804.26
433.18	1712.10
433.39	1728.49
433.59	1742.82
433.80	1800.16
434.00	1861.60
434.21	1722.34
434.41	1693.67
434.62	1877.99
434.82	1671.14
435.03	1730.53
435.23	1746.92
435.44	1624.04
435.64	1779.68
435.85	1724.39
436.06	1718.25
436.26	1771.49
436.47	1724.39
436.67	1617.90
436.88	1730.53
437.08	1783.78
437.29	1796.07
437.49	1783.78
437.70	1804.26
437.90	1708.01
438.11	1843.17
438.31	1781.73
438.52	1906.66
438.72	1753.06
438.93	1929.19
439.13	1816.55
439.34	1832.93
439.54	1763.30
439.75	1812.45
439.95	1757.16
440.16	1765.35
440.36	1732.58
440.57	1781.73
440.77	1724.39
440.98	1687.53
441.18	1767.40
441.39	1726.44
441.59	1652.71
441.80	1814.50
442.00	1746.92
442.21	1867.75
442.41	1669.09
442.62	1843.17
442.82	1611.75
443.02	1787.88
443.23	1730.53
443.43	1660.90
443.64	1839.08
443.84	1656.81
444.05	1808.36
444.25	1699.81
444.46	1720.29
444.66	1716.20
444.87	1751.01
445.07	1621.99
445.28	1669.09
445.48	1824.74
445.69	1728.49
445.89	1828.84
446.09	1732.58
446.30	1986.53
446.50	2643.93
446.71	3672.01
446.91	4247.49
447.12	4548.54
447.32	4681.66
447.53	4202.43
447.73	3848.13
447.93	3504.07
448.14	3307.47
448.34	3074.00
448.55	2877.40
448.75	2750.42
448.96	2744.28
449.16	2439.13
449.36	2260.96
449.57	2066.40
449.77	1914.85
449.98	1828.84
450.18	1767.40
450.39	1765.35
450.59	1718.25
450.79	1806.31
451.00	1685.48
451.20	1853.41
451.41	1660.90
451.61	1777.64
451.81	1660.90
452.02	1695.72
452.22	1695.72
452.43	1714.15
452.63	1671.14
452.84	1763.30
453.04	1689.57
453.24	1734.63
453.45	1656.81
453.65	1687.53
453.86	1783.78
454.06	1781.73
454.26	1761.25
454.47	1701.86
454.67	1767.40
454.87	1865.70
455.08	1712.10
455.28	1830.88
455.49	1724.39
455.69	1603.56
455.89	1851.36
456.10	1904.61
456.30	1730.53
456.51	1810.40
456.71	1755.11
456.91	1789.92
457.12	1802.21
457.32	1761.25
457.52	1626.09
457.73	1769.44
457.93	1765.35
458.14	1708.01
458.34	1640.42
458.54	1693.67
458.75	1730.53
458.95	1796.07
459.15	1738.73
459.36	1787.88
459.56	1773.54
459.76	1916.90
459.97	1751.01
460.17	1775.59
460.37	1794.02
460.58	1665.00
460.78	1742.82
460.99	1736.68
461.19	1710.05
461.39	1669.09
461.60	1728.49
461.80	1742.82
462.00	1662.95
462.21	1716.20
462.41	1722.34
462.61	1705.96
462.82	1658.85
463.02	1775.59
463.22	1769.44
463.43	1855.46
463.63	1699.81
463.83	1818.60
464.04	1683.43
464.24	1777.64
464.44	1607.66
464.64	1777.64
464.85	1675.24
465.05	1806.31
465.25	1722.34
465.46	1673.19
465.66	1796.07
465.86	1779.68
466.07	1791.97
466.27	1781.73
466.47	1615.85
466.68	1652.71
466.88	1798.12
467.08	1753.06
467.29	1785.83
467.49	1746.92
467.69	1714.15
467.89	1693.67
468.10	1767.40
468.30	1730.53
468.50	1796.07
468.71	1757.16
468.91	1718.25
469.11	1857.51
469.31	1773.54
469.52	1689.57
469.72	1757.16
469.92	1859.56
470.13	1652.71
470.33	1791.97
470.53	1818.60
470.73	2129.89
470.94	2213.85
471.14	2387.93
471.34	2510.81
471.54	2310.11
471.75	2166.75
471.95	2111.46
472.15	2076.64
472.36	2015.20
472.56	2088.93
472.76	1976.29
472.96	1992.67
473.17	1923.04
473.37	1865.70
473.57	1726.44
473.77	1804.26
473.98	1789.92
474.18	1689.57
474.38	1980.39
474.58	1724.39
474.79	1685.48
474.99	1697.77
475.19	1683.43
475.39	1675.24
475.60	1705.96
475.80	1742.82
476.00	1685.48
476.20	1726.44
476.41	1753.06
476.61	1726.44
476.81	1837.03
477.01	1685.48
477.21	1787.88
477.42	1808.36
477.62	1712.10
477.82	1732.58
478.02	1630.18
478.23	1820.64
478.43	1757.16
478.63	1693.67
478.83	1712.10
479.03	1701.86
479.24	1828.84
479.44	1779.68
479.64	1703.91
479.84	1591.27
480.04	1665.00
480.25	1837.03
480.45	1718.25
480.65	1705.96
480.85	1779.68
481.06	1660.90
481.26	1621.99
481.46	1734.63
481.66	1746.92
481.86	1689.57
482.06	1712.10
482.27	1638.38
482.47	1724.39
482.67	1697.77
482.87	1662.95
483.07	1794.02
483.28	1648.61
483.48	1685.48
483.68	1744.87
483.88	1658.85
484.08	1570.79
484.29	1658.85
484.49	1761.25
484.69	1671.14
484.89	1796.07
485.09	1763.30
485.29	1748.97
485.50	1689.57
485.70	1665.00
485.90	1800.16
486.10	1689.57
486.30	1726.44
486.50	1724.39
486.71	1757.16
486.91	1718.25
487.11	1763.30
487.31	1660.90
487.51	1787.88
487.71	1644.52
487.91	1652.71
488.12	1691.62
488.32	1613.80
488.52	1679.33
488.72	1665.00
488.92	1759.21
489.12	1837.03
489.32	1773.54
489.53	1753.06
489.73	1673.19
489.93	1806.31
490.13	1695.72
490.33	1703.91
490.53	1796.07
490.73	1834.98
490.94	1675.24
491.14	1777.64
491.34	1834.98
491.54	2109.41
491.74	2525.15
491.94	2930.64
492.14	2969.55
492.34	2957.27
492.54	2596.82
492.75	2396.12
492.95	2441.18
493.15	2418.65
493.35	2365.40
493.55	2220.00
493.75	2086.88
493.95	2181.09
494.15	1966.05
494.35	1892.32
494.56	1736.68
494.76	1839.08
494.96	1757.16
495.16	1798.12
495.36	1736.68
495.56	1708.01
495.76	1728.49
495.96	1722.34
496.16	1658.85
496.36	1861.60
496.56	1710.05
496.77	1722.34
496.97	1691.62
497.17	1820.64
497.37	1638.38
497.57	1812.45
497.77	1691.62
497.97	1708.01
498.17	1767.40
498.37	1669.09
498.57	1763.30
498.77	1665.00
498.97	1779.68
499.17	1804.26
499.38	1681.38
499.58	1773.54
499.78	1736.68
499.98	1826.79
500.18	1757.16
500.38	1718.25
500.58	1902.56
500.78	2549.72
500.98	4423.61
501.18	5605.29
501.38	6698.91
501.58	7018.39
501.78	6492.06
501.98	5461.93
502.18	4915.12
502.38	4298.69
502.58	4001.73
502.78	3772.36
502.98	3575.75
503.18	3286.99
503.38	3186.64
503.59	2748.37
503.79	2578.39
503.99	2422.75
504.19	2217.95
504.39	2164.70
504.59	2064.35
504.79	2031.58
504.99	1990.63
505.19	1920.99
505.39	1824.74
505.59	1937.38
505.79	1839.08
505.99	1767.40
506.19	1845.22
506.39	1867.75
506.59	1728.49
506.79	1759.21
506.99	1781.73
507.19	1689.57
507.39	1759.21
507.59	1648.61
507.79	1648.61
507.99	1621.99
508.19	1695.72
508.39	1654.76
508.59	1748.97
508.79	1791.97
508.99	1857.51
509.19	1751.01
509.39	1789.92
509.59	1708.01
509.79	1714.15
509.99	1755.11
510.19	1767.40
510.39	1798.12
510.59	1716.20
510.79	1689.57
510.99	1665.00
511.19	1804.26
511.39	1769.44
511.59	1767.40
511.79	1796.07
511.99	1765.35
512.19	1814.50
512.38	1765.35
512.58	1628.14
512.78	1691.62
512.98	1787.88
513.18	1773.54
513.38	1689.57
513.58	1716.20
513.78	1738.73
513.98	1783.78
514.18	1701.86
514.38	1689.57
514.58	1736.68
514.78	1738.73
514.98	1736.68
515.18	1720.29
515.38	1652.71
515.58	1828.84
515.78	1785.83
515.98	1730.53
516.18	1822.69
516.38	1738.73
516.57	1681.38
516.77	1716.20
516.97	1769.44
517.17	1716.20
517.37	1685.48
517.57	1769.44
517.77	1740.77
517.97	1732.58
518.17	1759.21
518.37	1714.15
518.57	1667.05
518.77	1695.72
518.97	1738.73
519.16	1734.63
519.36	1802.21
519.56	1681.38
519.76	1660.90
519.96	1775.59
520.16	1738.73
520.36	1689.57
520.56	1804.26
520.76	1695.72
520.96	1734.63
521.16	1679.33
521.35	1773.54
521.55	1880.04
521.75	1718.25
521.95	1730.53
522.15	1710.05
522.35	1630.18
522.55	1689.57
522.75	1759.21
522.95	1748.97
523.14	1681.38
523.34	1773.54
523.54	1767.40
523.74	1781.73
523.94	1722.34
524.14	1724.39
524.34	1763.30
524.54	1773.54
524.73	1683.43
524.93	1763.30
525.13	1751.01
525.33	1693.67
525.53	1855.46
525.73	1726.44
525.93	1771.49
526.13	1712.10
526.32	1726.44
526.52	1755.11
526.72	1791.97
526.92	1701.86
527.12	1763.30
527.32	1679.33
527.52	1755.11
527.71	1755.11
527.91	1720.29
528.11	1677.29
528.31	1771.49
528.51	1673.19
528.71	1736.68
528.90	1769.44
529.10	1806.31
529.30	1783.78
529.50	1648.61
529.70	1722.34
529.90	1658.85
530.09	1697.77
530.29	1701.86
530.49	1652.71
530.69	1865.70
530.89	1705.96
531.09	1779.68
531.28	1767.40
531.48	1832.93
531.68	1724.39
531.88	1773.54
532.08	1751.01
532.28	1677.29
532.47	1816.55
532.67	1755.11
532.87	1820.64
533.07	1708.01
533.27	1708.01
533.46	1771.49
533.66	1800.16
533.86	1734.63
534.06	1771.49
534.26	1699.81
534.45	1718.25
534.65	1759.21
534.85	1742.82
535.05	1738.73
535.25	1822.69
535.44	1644.52
535.64	1785.83
535.84	1689.57
536.04	1736.68
536.24	1712.10
536.43	1681.38
536.63	1789.92
536.83	1728.49
537.03	1722.34
537.22	1677.29
537.42	1613.80
537.62	1800.16
537.82	1679.33
538.02	1847.27
538.21	1855.46
538.41	1959.91
538.61	1800.16
538.81	1705.96
539.00	1740.77
539.20	1628.14
539.40	1783.78
539.60	1798.12
539.79	1816.55
539.99	1763.30
540.19	1722.34
540.39	1648.61
540.58	1746.92
540.78	1789.92
540.98	1718.25
541.18	1746.92
541.37	1755.11
541.57	1722.34
541.77	1740.77
541.97	1646.57
542.16	1677.29
542.36	1738.73
542.56	1701.86
542.76	1837.03
542.95	1720.29
543.15	1767.40
543.35	1767.40
543.54	1632.23
543.74	1697.77
543.94	1759.21
544.14	1708.01
544.33	1746.92
544.53	1710.05
544.73	1724.39
544.93	1648.61
545.12	1746.92
545.32	1720.29
545.52	1720.29
545.71	1542.12
545.91	1746.92
546.11	1728.49
546.30	1660.90
546.50	1681.38
546.70	1685.48
546.90	1855.46
547.09	1644.52
547.29	1744.87
547.49	1677.29
547.68	1763.30
547.88	1632.23
548.08	1712.10
548.27	2183.13
548.47	1701.86
548.67	1640.42
548.87	1775.59
549.06	1736.68
549.26	1728.49
549.46	1738.73
549.65	1644.52
549.85	1767.40
550.05	1714.15
550.24	1691.62
550.44	1740.77
550.64	1648.61
550.83	1759.21
551.03	1771.49
551.23	1869.80
551.42	1736.68
551.62	1697.77
551.82	1755.11
552.01	1712.10
552.21	1843.17
552.41	1769.44
552.60	1830.88
552.80	1755.11
553.00	1640.42
553.19	1736.68
553.39	1824.74
553.59	1652.71
553.78	1744.87
553.98	1714.15
554.17	1599.46
554.37	1738.73
554.57	1796.07
554.76	1689.57
554.96	1673.19
555.16	1724.39
555.35	1730.53
555.55	1714.15
555.75	1751.01
555.94	1834.98
556.14	1628.14
556.33	1708.01
556.53	1718.25
556.73	1781.73
556.92	1730.53
557.12	1812.45
557.32	1882.08
557.51	1832.93
557.71	1779.68
557.90	1857.51
558.10	1712.10
558.30	1775.59
558.49	1746.92
558.69	1722.34
558.88	1775.59
559.08	1787.88
559.28	1695.72
559.47	1648.61
559.67	1783.78
559.86	1775.59
560.06	1732.58
560.26	1726.44
560.45	1701.86
560.65	1771.49
560.84	1822.69
561.04	1732.58
561.24	1730.53
561.43	1775.59
561.63	1855.46
561.82	1804.26
562.02	1791.97
562.22	1796.07
562.41	1662.95
562.61	1665.00
562.80	1640.42
563.00	1875.94
563.19	1783.78
563.39	1759.21
563.59	1736.68
563.78	1677.29
563.98	1654.76
564.17	1671.14
564.37	1744.87
564.56	1685.48
564.76	1718.25
564.96	1800.16
565.15	1767.40
565.35	1820.64
565.54	1806.31
565.74	1828.84
565.93	1728.49
566.13	1724.39
566.32	1773.54
566.52	1818.60
566.71	1759.21
566.91	1755.11
567.11	1662.95
567.30	1656.81
567.50	1708.01
567.69	1804.26
567.89	1714.15
568.08	1730.53
568.28	1773.54
568.47	1724.39
568.67	1742.82
568.86	1658.85
569.06	1765.35
569.25	1708.01
569.45	1669.09
569.64	1677.29
569.84	1691.62
570.04	1787.88
570.23	1699.81
570.43	1728.49
570.62	1779.68
570.82	1787.88
571.01	1640.42
571.21	1775.59
571.40	1726.44
571.60	1865.70
571.79	1773.54
571.99	1759.21
572.18	1697.77
572.38	1738.73
572.57	1732.58
572.77	1812.45
572.96	1869.80
573.16	1816.55
573.35	1771.49
573.55	1871.84
573.74	1783.78
573.94	1755.11
574.13	1771.49
574.33	1828.84
574.52	1800.16
574.71	1755.11
574.91	1796.07
575.10	1744.87
575.30	1763.30
575.49	1695.72
575.69	1644.52
575.88	1755.11
576.08	1699.81
576.27	1849.32
576.47	1746.92
576.66	1843.17
576.86	1748.97
577.05	1802.21
577.25	1824.74
577.44	1781.73
577.64	1710.05
577.83	1712.10
578.02	1738.73
578.22	1834.98
578.41	1845.22
578.61	1746.92
578.80	1681.38
579.00	1746.92
579.19	1851.36
579.39	1779.68
579.58	1734.63
579.77	1730.53
579.97	1837.03
580.16	1861.60
580.36	1802.21
580.55	1828.84
580.75	1738.73
580.94	1826.79
581.13	1841.12
581.33	1841.12
581.52	1660.90
581.72	1890.28
581.91	1859.56
582.11	1751.01
582.30	1773.54
582.49	1767.40
582.69	1759.21
582.88	1861.60
583.08	1804.26
583.27	1796.07
583.47	1812.45
583.66	1685.48
583.85	1689.57
584.05	1787.88
584.24	1732.58
584.44	1804.26
584.63	1791.97
584.82	1851.36
585.02	1873.89
585.21	1849.32
585.41	1808.36
585.60	1877.99
585.79	1890.28
585.99	1896.42
586.18	1890.28
586.37	2176.99
586.57	3252.17
586.76	9533.29
586.96	23828.12
587.15	33291.78
587.34	39202.22
587.54	40748.43
587.73	35888.60
587.93	25595.51
588.12	20881.09
588.31	17624.82
588.51	15724.30
588.70	14675.74
588.89	13848.36
589.09	12253.00
589.28	10766.17
589.47	9185.14
589.67	7729.03
589.86	6344.61
590.06	4841.40
590.25	3835.85
590.44	2998.23
590.64	2506.71
590.83	2230.24
591.02	2068.45
591.22	1939.43
591.41	1931.23
591.60	1914.85
591.80	1947.62
591.99	1769.44
592.18	1802.21
592.38	1877.99
592.57	1763.30
592.76	1730.53
592.96	1841.12
593.15	1736.68
593.34	1863.65
593.54	1794.02
593.73	1796.07
593.92	1744.87
594.12	1654.76
594.31	1757.16
594.50	1834.98
594.70	1767.40
594.89	1830.88
595.08	1675.24
595.28	1796.07
595.47	1941.47
595.66	1783.78
595.86	1742.82
596.05	1722.34
596.24	1751.01
596.43	1828.84
596.63	1828.84
596.82	1751.01
597.01	1697.77
597.21	1777.64
597.40	1824.74
597.59	1783.78
597.79	1697.77
597.98	1720.29
598.17	1734.63
598.36	1730.53
598.56	1777.64
598.75	1714.15
598.94	1820.64
599.14	1701.86
599.33	1681.38
599.52	1812.45
599.71	1761.25
599.91	1757.16
600.10	1779.68
600.29	1730.53
600.48	1703.91
600.68	1722.34
600.87	1714.15
601.06	1730.53
601.26	1656.81
601.45	1724.39
601.64	1732.58
601.83	1763.30
602.03	1701.86
602.22	1640.42
602.41	1730.53
602.60	1892.32
602.80	1691.62
602.99	1714.15
603.18	1710.05
603.37	1705.96
603.57	1720.29
603.76	1742.82
603.95	1814.50
604.14	1761.25
604.34	1652.71
604.53	1705.96
604.72	1785.83
604.91	1818.60
605.10	1812.45
605.30	1720.29
605.49	1861.60
605.68	1728.49
605.87	1722.34
606.07	1603.56
606.26	1763.30
606.45	1834.98
606.64	1763.30
606.84	1701.86
607.03	1708.01
607.22	1718.25
607.41	1734.63
607.60	1662.95
607.80	1716.20
607.99	1738.73
608.18	1736.68
608.37	1746.92
608.56	1722.34
608.76	1785.83
608.95	1886.18
609.14	1691.62
609.33	1753.06
609.52	1789.92
609.72	1740.77
609.91	1771.49
610.10	1716.20
610.29	1812.45
610.48	1796.07
610.68	1718.25
610.87	1724.39
611.06	1746.92
611.25	1716.20
611.44	1890.28
611.63	1703.91
611.83	1904.61
612.02	1708.01
612.21	1830.88
612.40	1632.23
612.59	1755.11
612.79	1763.30
612.98	1687.53
613.17	1892.32
613.36	1734.63
613.55	1839.08
613.74	1621.99
613.93	1753.06
614.13	1744.87
614.32	1654.76
614.51	1691.62
614.70	1689.57
614.89	1726.44
615.08	1824.74
615.28	2033.63
615.47	1669.09
615.66	1751.01
615.85	1671.14
616.04	1841.12
616.23	1763.30
616.42	1658.85
616.62	1736.68
616.81	1767.40
617.00	1718.25
617.19	1820.64
617.38	1691.62
617.57	1789.92
617.76	1767.40
617.95	1755.11
618.15	1748.97
618.34	1812.45
618.53	1699.81
618.72	1837.03
618.91	1812.45
619.10	1816.55
619.29	1685.48
619.48	1742.82
619.68	1677.29
619.87	1654.76
620.06	1546.22
620.25	1683.43
620.44	1736.68
620.63	1693.67
620.82	1779.68
621.01	1708.01
621.20	1730.53
621.39	1722.34
621.59	1746.92
621.78	1722.34
621.97	1685.48
622.16	1785.83
622.35	1746.92
622.54	1779.68
622.73	1724.39
622.92	1693.67
623.11	1765.35
623.30	1769.44
623.49	1669.09
623.68	1660.90
623.88	1761.25
624.07	1806.31
624.26	1714.15
624.45	1755.11
624.64	1697.77
624.83	1759.21
625.02	1748.97
625.21	1748.97
625.40	1728.49
625.59	1755.11
625.78	1705.96
625.97	1681.38
626.16	1798.12
626.35	1781.73
626.54	1619.94
626.74	1781.73
626.93	1632.23
627.12	1683.43
627.31	1861.60
627.50	1767.40
627.69	1734.63
627.88	1716.20
628.07	1714.15
628.26	1705.96
628.45	1748.97
628.64	1660.90
628.83	1695.72
629.02	1607.66
629.21	1748.97
629.40	1675.24
629.59	1746.92
629.78	1708.01
629.97	1710.05
630.16	1701.86
630.35	1673.19
630.54	1728.49
630.73	1703.91
630.92	1656.81
631.11	1665.00
631.30	1722.34
631.49	1755.11
631.68	1787.88
631.87	1728.49
632.06	1628.14
632.25	1875.94
632.44	1771.49
632.63	1683.43
632.82	1710.05
633.01	1665.00
633.20	1742.82
633.39	1636.33
633.58	1673.19
633.77	1705.96
633.96	1708.01
634.15	1812.45
634.34	1734.63
634.53	1761.25
634.72	1769.44
634.91	1642.47
635.10	1701.86
635.29	1710.05
635.48	1791.97
635.67	1718.25
635.86	1597.42
636.05	1718.25
636.24	1703.91
636.43	1732.58
636.62	1740.77
636.81	1499.11
637.00	1675.24
637.19	1675.24
637.38	1765.35
637.57	1675.24
637.76	1691.62
637.95	1705.96
638.14	1746.92
638.33	1662.95
638.52	1734.63
638.71	1679.33
638.89	1648.61
639.08	1828.84
639.27	1789.92
639.46	1665.00
639.65	1734.63
639.84	1724.39
640.03	1804.26
640.22	1650.66
640.41	1798.12
640.60	1693.67
640.79	1730.53
640.98	1703.91
641.17	1718.25
641.36	1796.07
641.55	1718.25
641.74	1652.71
641.92	1755.11
642.11	1679.33
642.30	1693.67
642.49	1728.49
642.68	1716.20
642.87	1785.83
643.06	1722.34
643.25	1658.85
643.44	1683.43
643.63	1732.58
643.82	1808.36
644.00	1683.43
644.19	1755.11
644.38	1695.72
644.57	1787.88
644.76	1728.49
644.95	1701.86
645.14	1687.53
645.33	1716.20
645.52	1751.01
645.71	1638.38
645.89	1654.76
646.08	1738.73
646.27	1712.10
646.46	1757.16
646.65	1679.33
646.84	1771.49
647.03	1708.01
647.22	1734.63
647.40	1791.97
647.59	1703.91
647.78	1642.47
647.97	1724.39
648.16	1681.38
648.35	1806.31
648.54	1791.97
648.73	1667.05
648.91	1775.59
649.10	1689.57
649.29	1767.40
649.48	1665.00
649.67	1771.49
649.86	1736.68
650.05	1673.19
650.23	1748.97
650.42	1703.91
650.61	1787.88
650.80	1738.73
650.99	1828.84
651.18	1701.86
651.36	1693.67
651.55	1705.96
651.74	1800.16
651.93	1632.23
652.12	1628.14
652.31	1708.01
652.49	1665.00
652.68	1683.43
652.87	1820.64
653.06	1763.30
653.25	1742.82
653.44	1720.29
653.62	1748.97
653.81	1699.81
654.00	1705.96
654.19	1759.21
654.38	1857.51
654.56	1767.40
654.75	1755.11
654.94	1845.22
655.13	1751.01
655.32	1746.92
655.51	1789.92
655.69	1689.57
655.88	1753.06
656.07	1624.04
656.26	1744.87
656.45	1710.05
656.63	1740.77
656.82	1771.49
657.01	1746.92
657.20	1683.43
657.38	1808.36
657.57	1679.33
657.76	1695.72
657.95	1718.25
658.14	1673.19
658.32	1699.81
658.51	1591.27
658.70	1724.39
658.89	1687.53
659.08	1744.87
659.26	1886.18
659.45	1628.14
659.64	1691.62
659.83	1763.30
660.01	1986.53
660.20	1730.53
660.39	1812.45
660.58	1611.75
660.76	1757.16
660.95	1601.51
661.14	1738.73
661.33	1634.28
661.51	1677.29
661.70	1679.33
661.89	1787.88
662.08	1701.86
662.26	1624.04
662.45	1712.10
662.64	1789.92
662.83	1781.73
663.01	1687.53
663.20	1673.19
663.39	1787.88
663.58	1675.24
663.76	1691.62
663.95	1761.25
664.14	1642.47
664.32	1730.53
664.51	1677.29
664.70	1585.13
664.89	1730.53
665.07	1695.72
665.26	1771.49
665.45	1630.18
665.64	1703.91
665.82	1726.44
666.01	1812.45
666.20	1716.20
666.38	1837.03
666.57	1798.12
666.76	2242.53
666.95	4372.41
667.13	9871.21
667.32	14876.44
667.51	17481.46
667.69	18556.64
667.88	17196.79
668.07	12009.29
668.25	9248.63
668.44	7997.32
668.63	7206.80
668.81	6655.90
669.00	6141.86
669.19	5521.32
669.38	4978.61
669.56	4534.20
669.75	3932.10
669.94	3383.24
670.12	2762.71
670.31	2451.42
670.50	2265.05
670.68	2080.74
670.87	1900.52
671.06	1775.59
671.24	1798.12
671.43	1814.50
671.62	1705.96
671.80	1617.90
671.99	1804.26
672.18	1724.39
672.36	1734.63
672.55	1746.92
672.74	1685.48
672.92	1687.53
673.11	1736.68
673.29	1669.09
673.48	1728.49
673.67	1716.20
673.85	1732.58
674.04	1660.90
674.23	1730.53
674.41	1787.88
674.60	1591.27
674.79	1585.13
674.97	1738.73
675.16	1710.05
675.34	1763.30
675.53	1732.58
675.72	1804.26
675.90	1816.55
676.09	1736.68
676.28	1755.11
676.46	1603.56
676.65	1689.57
676.83	1611.75
677.02	1810.40
677.21	1732.58
677.39	1712.10
677.58	1683.43
677.77	1746.92
677.95	1695.72
678.14	1630.18
678.32	1736.68
678.51	1640.42
678.70	1853.41
678.88	1746.92
679.07	1689.57
679.25	1710.05
679.44	1689.57
679.63	1619.94
679.81	1708.01
680.00	1730.53
680.18	1761.25
680.37	1779.68
680.55	1748.97
680.74	1611.75
680.93	1675.24
681.11	1699.81
681.30	1748.97
681.48	1710.05
681.67	1665.00
681.85	1687.53
682.04	1714.15
682.23	1712.10
682.41	1738.73
682.60	1626.09
682.78	1718.25
682.97	1716.20
683.15	1708.01
683.34	1654.76
683.53	1773.54
683.71	1619.94
683.90	1765.35
684.08	1851.36
684.27	1710.05
684.45	1662.95
684.64	1689.57
684.82	1720.29
685.01	1730.53
685.19	1679.33
685.38	1812.45
685.57	1755.11
685.75	1714.15
685.94	1726.44
686.12	1685.48
686.31	1701.86
686.49	1830.88
686.68	1591.27
686.86	1720.29
687.05	1730.53
687.23	1802.21
687.42	1642.47
687.60	1628.14
687.79	1736.68
687.97	1789.92
688.16	1701.86
688.34	1812.45
688.53	1662.95
688.71	1769.44
688.90	1746.92
689.08	1691.62
689.27	1595.37
689.45	1728.49
689.64	1804.26
689.82	1746.92
690.01	1734.63
690.19	1730.53
690.38	1699.81
690.56	1796.07
690.75	1589.22
690.93	1656.81
691.12	1619.94
691.30	1693.67
691.49	1669.09
691.67	1705.96
691.86	1771.49
692.04	1681.38
692.23	1660.90
692.41	1722.34
692.60	1808.36
692.78	1779.68
692.97	1732.58
693.15	1783.78
693.34	1822.69
693.52	1767.40
693.71	1783.78
693.89	1621.99
694.08	1671.14
694.26	1839.08
694.44	1748.97
694.63	1763.30
694.81	1650.66
695.00	1593.32
695.18	1765.35
695.37	1822.69
695.55	1701.86
695.74	1673.19
695.92	1681.38
696.10	1783.78
696.29	1687.53
696.47	1677.29
696.66	1634.28
696.84	1679.33
697.03	1767.40
697.21	1775.59
697.40	2314.20
697.58	1820.64
697.76	1648.61
697.95	1759.21
698.13	1585.13
698.32	1708.01
698.50	1800.16
698.68	1767.40
698.87	1751.01
699.05	1794.02
699.24	1728.49
699.42	1638.38
699.61	1675.24
699.79	1634.28
699.97	1781.73
700.16	1632.23
700.34	1640.42
700.53	1683.43
700.71	1759.21
700.89	1724.39
701.08	1646.57
701.26	1673.19
701.45	2031.58
701.63	1677.29
701.81	1720.29
702.00	1708.01
702.18	1742.82
702.37	1624.04
702.55	1705.96
702.73	1695.72
702.92	1656.81
703.10	1753.06
703.28	1701.86
703.47	1630.18
703.65	1744.87
703.84	1806.31
704.02	1607.66
704.20	1787.88
704.39	1619.94
704.57	1695.72
704.75	1759.21
704.94	1755.11
705.12	1656.81
705.30	1759.21
705.49	2275.29
705.67	4274.11
705.86	9330.55
706.04	12128.07
706.22	13928.24
706.41	15001.37
706.59	13346.61
706.77	9369.46
706.96	7243.67
707.14	6440.86
707.32	5756.84
707.51	5361.58
707.69	4681.66
707.87	4124.61
708.06	3510.22
708.24	2971.60
708.42	2398.17
708.61	2234.33
708.79	1927.14
708.97	1923.04
709.16	1796.07
709.34	1787.88
709.52	1755.11
709.71	1671.14
709.89	1783.78
710.07	1718.25
710.26	1742.82
710.44	1726.44
710.62	1744.87
710.80	1701.86
710.99	1822.69
711.17	1779.68
711.35	1656.81
711.54	1691.62
711.72	1728.49
711.90	1746.92
712.09	1683.43
712.27	1736.68
712.45	1716.20
712.63	1634.28
712.82	1740.77
713.00	1689.57
713.18	1761.25
713.37	1708.01
713.55	1740.77
713.73	1669.09
713.91	1714.15
714.10	1693.67
714.28	1687.53
714.46	1665.00
714.65	1691.62
714.83	1660.90
715.01	1730.53
715.19	1644.52
715.38	1603.56
715.56	1771.49
715.74	1644.52
715.92	1607.66
716.11	1687.53
716.29	1621.99
716.47	1691.62
716.65	1691.62
716.84	1691.62
717.02	1789.92
717.20	1619.94
717.38	1654.76
717.57	1736.68
717.75	1773.54
717.93	1660.90
718.11	1662.95
718.30	1572.84
718.48	1644.52
718.66	1767.40
718.84	1753.06
719.03	1703.91
719.21	1642.47
719.39	1736.68
719.57	1703.91
719.75	1705.96
719.94	1654.76
720.12	1673.19
720.30	1740.77
720.48	1748.97
720.67	1667.05
720.85	1601.51
721.03	1673.19
721.21	1708.01
721.39	1755.11
721.58	1736.68
721.76	1679.33
721.94	1748.97
722.12	1734.63
722.30	1814.50
722.49	1681.38
722.67	1730.53
722.85	1730.53
723.03	1671.14
723.21	1716.20
723.40	1650.66
723.58	1771.49
723.76	1734.63
723.94	1812.45
724.12	1607.66
724.30	1716.20
724.49	1748.97
724.67	1767.40
724.85	1722.34
725.03	1634.28
725.21	1810.40
725.40	1849.32
725.58	1636.33
725.76	1824.74
725.94	1718.25
726.12	1599.46
726.30	1771.49
726.49	1583.08
726.67	1687.53
726.85	1779.68
727.03	1736.68
727.21	2088.93
727.39	2863.06
727.57	3604.42
727.76	4044.74
727.94	4296.64
728.12	4278.21
728.30	3604.42
728.48	2858.96
728.66	2695.13
728.84	2490.33
729.03	2254.81
729.21	2148.32
729.39	2025.44
729.57	1906.66
729.75	1847.27
729.93	1855.46
730.11	1761.25
730.30	1730.53
730.48	1648.61
730.66	1832.93
730.84	1742.82
731.02	1697.77
731.20	1699.81
731.38	1662.95
731.56	1640.42
731.74	1605.61
731.93	1775.59
732.11	1720.29
732.29	1697.77
732.47	1656.81
732.65	1716.20
732.83	1798.12
733.01	1748.97
733.19	1699.81
733.37	1783.78
733.56	1673.19
733.74	1697.77
733.92	1822.69
734.10	1640.42
734.28	1689.57
734.46	1636.33
734.64	1689.57
734.82	1636.33
735.00	1722.34
735.18	1720.29
735.36	1738.73
735.54	1642.47
735.73	1742.82
735.91	1681.38
736.09	1652.71
736.27	1726.44
736.45	1787.88
736.63	1632.23
736.81	1689.57
736.99	1748.97
737.17	1828.84
737.35	1574.89
737.53	1695.72
737.71	1712.10
737.89	1798.12
738.07	1699.81
738.25	1720.29
738.43	1656.81
738.61	1642.47
738.80	1691.62
738.98	1669.09
739.16	1665.00
739.34	1738.73
739.52	1822.69
739.70	1722.34
739.88	1683.43
740.06	1691.62
740.24	1615.85
740.42	1728.49
740.60	1607.66
740.78	1665.00
740.96	1615.85
741.14	1691.62
741.32	1665.00
741.50	1644.52
741.68	1847.27
741.86	1855.46
742.04	1730.53
742.22	1650.66
742.40	1695.72
742.58	1736.68
742.76	1701.86
742.94	1708.01
743.12	1583.08
743.30	1742.82
743.48	1730.53
743.66	1662.95
743.84	1789.92
744.02	1691.62
744.20	1675.24
744.38	1576.94
744.56	1683.43
744.74	1779.68
744.92	1677.29
745.10	1759.21
745.28	1730.53
745.46	1822.69
745.64	1646.57
745.82	1777.64
746.00	1718.25
746.18	1658.85
746.36	1621.99
746.54	1736.68
746.72	1665.00
746.90	1646.57
747.08	1820.64
747.26	1712.10
747.44	1742.82
747.62	1730.53
747.80	1708.01
747.98	1775.59
748.15	1662.95
748.33	1759.21
748.51	1724.39
748.69	1748.97
748.87	1705.96
749.05	1677.29
749.23	1705.96
749.41	1699.81
749.59	1701.86
749.77	1787.88
749.95	1753.06
750.13	1646.57
750.31	1759.21
750.49	1632.23
750.67	1703.91
750.85	1785.83
751.03	1763.30
751.20	1841.12
751.38	1634.28
751.56	1650.66
751.74	1673.19
751.92	1654.76
752.10	1681.38
752.28	1785.83
752.46	1759.21
752.64	1753.06
752.82	1667.05
753.00	1775.59
753.18	1652.71
753.35	1765.35
753.53	1662.95
753.71	1662.95
753.89	1775.59
754.07	1736.68
754.25	1710.05
754.43	1773.54
754.61	1601.51
754.79	1763.30
754.97	1769.44
755.14	1802.21
755.32	1634.28
755.50	1667.05
755.68	1769.44
755.86	1665.00
756.04	1662.95
756.22	1578.98
756.40	1845.22
756.57	1834.98
756.75	1732.58
756.93	1757.16
757.11	1794.02
757.29	1687.53
757.47	1646.57
757.65	1693.67
757.82	1619.94
758.00	1640.42
758.18	1705.96
758.36	1730.53
758.54	1820.64
758.72	1548.26
758.90	1753.06
759.07	1681.38
759.25	1695.72
759.43	1746.92
759.61	1605.61
759.79	2222.05
759.97	1765.35
760.15	1673.19
760.32	1722.34
760.50	1683.43
760.68	1791.97
760.86	1681.38
761.04	1796.07
761.22	1703.91
761.39	1746.92
761.57	1734.63
761.75	1757.16
761.93	1742.82
762.11	1742.82
762.28	1726.44
762.46	1665.00
762.64	1771.49
762.82	1619.94
763.00	1685.48
763.18	1787.88
763.35	1624.04
763.53	1783.78
763.71	1730.53
763.89	1681.38
764.07	1722.34
764.24	1691.62
764.42	1748.97
764.60	1675.24
764.78	1689.57
764.96	1667.05
765.13	1759.21
765.31	1681.38
765.49	1722.34
765.67	1734.63
765.84	1634.28
766.02	1644.52
766.20	1591.27
766.38	1767.40
766.56	1720.29
766.73	1714.15
766.91	1685.48
767.09	1767.40
767.27	1748.97
767.44	1634.28
767.62	1759.21
767.80	1667.05
767.98	1656.81
768.15	1755.11
768.33	1746.92
768.51	1689.57
768.69	1720.29
768.87	1687.53
769.04	1710.05
769.22	1869.80
769.40	1847.27
769.58	1869.80
769.75	1777.64
769.93	1742.82
770.11	1648.61
770.28	1667.05
770.46	1753.06
770.64	1740.77
770.82	1812.45
770.99	1718.25
771.17	1669.09
771.35	1617.90
771.53	1658.85
771.70	1644.52
771.88	1669.09
772.06	1736.68
772.23	1677.29
772.41	1744.87
772.59	1671.14
772.77	1693.67
772.94	1605.61
773.12	1697.77
773.30	1669.09
773.47	1693.67
773.65	1617.90
773.83	1816.55
774.01	1738.73
774.18	1611.75
774.36	1665.00
774.54	1662.95
774.71	1679.33
774.89	1628.14
775.07	1724.39
775.24	1685.48
775.42	1667.05
775.60	1761.25
775.78	1697.77
775.95	1509.35
776.13	1687.53
776.31	1574.89
776.48	1703.91
776.66	1806.31
776.84	1712.10
777.01	1628.14
777.19	1710.05
777.37	1675.24
777.54	1738.73
777.72	1845.22
777.90	1691.62
778.07	1650.66
778.25	1843.17
778.43	1728.49
778.60	1679.33
778.78	1794.02
778.96	1718.25
779.13	1554.41
779.31	1759.21
779.49	1652.71
779.66	1710.05
779.84	1701.86
780.01	1748.97
780.19	1742.82
780.37	1726.44
780.54	1767.40
780.72	1699.81
780.90	1566.70
781.07	1693.67
781.25	1722.34
781.43	1877.99
781.60	1697.77
781.78	1775.59
781.95	1722.34
782.13	1691.62
782.31	1728.49
782.48	1650.66
782.66	1708.01
782.83	1763.30
783.01	1691.62
783.19	1693.67
783.36	1615.85
783.54	1603.56
783.72	1703.91
783.89	1708.01
784.07	1800.16
784.24	1736.68
784.42	1718.25
784.60	1708.01
784.77	1722.34
784.95	1574.89
785.12	1689.57
785.30	1751.01
785.47	1599.46
785.65	1710.05
785.83	1621.99
786.00	1695.72
786.18	1755.11
786.35	1681.38
786.53	1656.81
786.71	1785.83
786.88	1691.62
787.06	1734.63
787.23	1675.24
787.41	1765.35
787.58	1652.71
787.76	1710.05
787.94	1728.49
788.11	1652.71
788.29	1660.90
788.46	1714.15
788.64	1646.57
788.81	1691.62
788.99	1751.01
789.16	1697.77
789.34	1724.39
789.52	1654.76
789.69	1626.09
789.87	1626.09
790.04	1689.57
790.22	1697.77
790.39	1722.34
790.57	1697.77
790.74	1705.96
790.92	1734.63
791.09	1685.48
791.27	1722.34
791.44	1763.30
791.62	1722.34
791.79	1732.58
791.97	1679.33
792.15	1898.47
792.32	1667.05
792.50	1800.16
792.67	1775.59
792.85	1748.97
793.02	1705.96
793.20	1624.04
793.37	1630.18
793.55	1658.85
793.72	1605.61
793.90	1763.30
794.07	1632.23
794.25	1705.96
794.42	1703.91
794.60	1699.81
794.77	1730.53
794.95	1695.72
795.12	1751.01
795.30	1665.00
795.47	1540.07
795.65	1802.21
795.82	1724.39
796.00	1679.33
796.17	1638.38
796.34	1615.85
796.52	1665.00
796.69	1742.82
796.87	1771.49
797.04	1806.31
797.22	1677.29
797.39	1738.73
797.57	1675.24
797.74	1738.73
797.92	1732.58
798.09	1658.85
798.27	1806.31
798.44	1769.44
798.62	1617.90
798.79	1777.64
798.96	1685.48
799.14	1685.48
799.31	1873.89
799.49	1638.38
799.66	1681.38
799.84	1675.24
800.01	1673.19
800.19	1744.87
800.36	1581.03
800.53	1710.05
800.71	1718.25
800.88	1796.07
801.06	1708.01
801.23	1644.52
801.41	1708.01
801.58	1699.81
801.75	1652.71
801.93	1681.38
802.10	1714.15
802.28	1662.95
802.45	1705.96
802.63	1671.14
802.80	1728.49
802.97	1689.57
803.15	1636.33
803.32	1656.81
803.50	1744.87
803.67	1703.91
803.84	1677.29
804.02	1730.53
804.19	1617.90
804.37	1652.71
804.54	1628.14
804.71	1650.66
804.89	1665.00
805.06	1673.19
805.24	1662.95
805.41	1615.85
805.58	1656.81
805.76	1746.92
805.93	1675.24
806.10	1800.16
806.28	1779.68
806.45	1732.58
806.63	1710.05
806.80	1705.96
806.97	1677.29
807.15	1734.63
807.32	1665.00
807.49	1757.16
807.67	1607.66
807.84	1738.73
808.01	1648.61
808.19	1763.30
808.36	1837.03
808.54	1665.00
808.71	1621.99
808.88	1611.75
809.06	1738.73
809.23	1751.01
809.40	1658.85
809.58	1751.01
809.75	1714.15
809.92	1648.61
810.10	1757.16
810.27	1677.29
810.44	1724.39
810.62	1722.34
810.79	1726.44
810.96	1718.25
811.14	1644.52
811.31	1767.40
811.48	1671.14
811.66	1687.53
811.83	1718.25
812.00	1673.19
812.18	1636.33
812.35	1800.16
812.52	1716.20
812.69	1681.38
812.87	1689.57
813.04	1646.57
813.21	1669.09
813.39	1667.05
813.56	1673.19
813.73	1708.01
813.91	1712.10
814.08	1681.38
814.25	1734.63
814.42	1570.79
814.60	1681.38
814.77	1742.82
814.94	1701.86
815.12	1679.33
815.29	1755.11
815.46	1693.67
815.63	1730.53
815.81	1701.86
815.98	1693.67
816.15	1742.82
816.33	1689.57
816.50	1748.97
816.67	1716.20
816.84	1691.62
817.02	1660.90
817.19	1681.38
817.36	1673.19
817.53	1751.01
817.71	1683.43
817.88	1697.77
818.05	1662.95
818.22	1681.38
818.40	1767.40
818.57	1689.57
818.74	1759.21
818.91	1689.57
819.09	1755.11
819.26	1724.39
819.43	1654.76
819.60	1642.47
819.78	1689.57
819.95	1785.83
820.12	1677.29
820.29	1775.59
820.47	1650.66
820.64	1699.81
820.81	1632.23
820.98	1615.85
821.15	1699.81
821.33	1734.63
821.50	1599.46
821.67	1740.77
821.84	1697.77
822.02	1712.10
822.19	1726.44
822.36	1611.75
822.53	1578.98
822.70	1677.29
822.88	1613.80
823.05	1726.44
823.22	1642.47
823.39	1685.48
823.56	1675.24
823.74	1785.83
823.91	1648.61
824.08	1658.85
824.25	1654.76
824.42	1832.93
824.60	1685.48
824.77	1765.35
824.94	1699.81
825.11	1714.15
825.28	1648.61
825.45	1677.29
825.63	1675.24
825.80	1611.75
825.97	1720.29
826.14	1724.39
826.31	1540.07
826.48	1722.34
826.66	1585.13
826.83	1675.24
827.00	1712.10
827.17	1697.77
827.34	1638.38
827.51	1730.53
827.69	1718.25
827.86	1679.33
828.03	1718.25
828.20	1726.44
828.37	1677.29
828.54	1671.14
828.71	1652.71
828.89	1851.36
829.06	1701.86
829.23	1775.59
829.40	1679.33
829.57	1685.48
829.74	1677.29
829.91	1648.61
830.09	1691.62
830.26	1804.26
830.43	1800.16
830.60	1662.95
830.77	1751.01
830.94	1769.44
831.11	1675.24
831.28	1628.14
831.46	1843.17
831.63	1695.72
831.80	1740.77
831.97	1685.48
832.14	1687.53
832.31	1777.64
832.48	1742.82
832.65	1703.91
832.82	1667.05
832.99	1720.29
833.17	1722.34
833.34	1767.40
833.51	1634.28
833.68	1507.30
833.85	1738.73
834.02	1677.29
834.19	1648.61
834.36	1556.46
834.53	1636.33
834.70	1769.44
834.87	1775.59
835.04	1677.29
835.22	1675.24
835.39	1685.48
835.56	1603.56
835.73	1665.00
835.90	1718.25
836.07	1634.28
836.24	1728.49
836.41	1636.33
836.58	1658.85
836.75	1732.58
836.92	1673.19
837.09	1714.15
837.26	1671.14
837.43	1755.11
837.60	1708.01
837.77	1675.24
837.94	1761.25
838.12	1773.54
838.29	1765.35
838.46	1589.22
838.63	1675.24
838.80	1744.87
838.97	1722.34
839.14	1740.77
839.31	1689.57
839.48	1710.05
839.65	1712.10
839.82	1691.62
839.99	1798.12
840.16	1714.15
840.33	1701.86
840.50	1699.81
840.67	1656.81
840.84	1540.07
841.01	1669.09
841.18	1775.59
841.35	1738.73
841.52	1783.78
841.69	1810.40
841.86	1732.58
842.03	1630.18
842.20	1730.53
842.37	1701.86
842.54	1765.35
842.71	1697.77
842.88	1673.19
843.05	1734.63
843.22	1636.33
843.39	1761.25
843.56	1669.09
843.73	1646.57
843.90	1775.59
844.07	1652.71
844.24	1755.11
844.41	1742.82
844.58	1673.19
844.75	1644.52
844.92	1771.49
845.09	1681.38
845.26	1697.77
845.43	1740.77
845.60	1675.24
845.77	1761.25
845.94	1730.53
846.10	1804.26
846.27	1656.81
846.44	1693.67
846.61	1626.09
846.78	1714.15
846.95	1714.15
847.12	1671.14
847.29	1746.92
847.46	1621.99
847.63	1814.50
847.80	1556.46
847.97	1685.48
848.14	1894.37
848.31	1687.53
848.48	1626.09
848.65	1755.11
848.82	1695.72
848.98	1861.60
849.15	1787.88
849.32	1828.84
849.49	1697.77
849.66	1701.86
849.83	1759.21
850.00	1665.00
850.17	1753.06
850.34	1687.53
850.51	1632.23
850.68	1665.00
850.85	1740.77
851.01	1708.01
851.18	1714.15
851.35	1636.33
851.52	1681.38
851.69	1708.01
851.86	1624.04
852.03	1755.11
852.20	1708.01
852.37	1626.09
852.53	1603.56
852.70	1665.00
852.87	1720.29
853.04	1679.33
853.21	1783.78
853.38	1800.16
853.55	1830.88
853.72	1812.45
853.89	1671.14
854.05	1646.57
854.22	1693.67
854.39	1658.85
854.56	1607.66
854.73	1718.25
854.90	1683.43
855.07	1746.92
855.23	1671.14
855.40	1640.42
855.57	1677.29
855.74	1574.89
855.91	1812.45
856.08	1617.90
856.25	1628.14
856.41	1679.33
856.58	1650.66
856.75	1742.82
856.92	1650.66
857.09	1730.53
857.26	1642.47
857.42	1728.49
857.59	1685.48
857.76	1658.85
857.93	1656.81
858.10	1738.73
858.27	1662.95
858.43	1683.43
858.60	1648.61
858.77	1634.28
858.94	1650.66
859.11	1769.44
859.27	1695.72
859.44	1665.00
859.61	1796.07
859.78	1720.29
859.95	1644.52
860.12	1722.34
860.28	1798.12
860.45	1808.36
860.62	1710.05
860.79	1689.57
860.95	1677.29
861.12	1675.24
861.29	1689.57
861.46	1638.38
861.63	1634.28
861.79	1742.82
861.96	1632.23
862.13	1675.24
862.30	1722.34
862.47	1652.71
862.63	1693.67
862.80	1777.64
862.97	1738.73
863.14	1767.40
863.30	1732.58
863.47	1652.71
863.64	1699.81
863.81	1726.44
863.97	1687.53
864.14	1697.77
864.31	1689.57
864.48	1687.53
864.65	1673.19
864.81	1849.32
864.98	1716.20
865.15	1839.08
865.32	1757.16
865.48	1763.30
865.65	1748.97
865.82	1617.90
865.98	1720.29
866.15	1771.49
866.32	1705.96
866.49	1662.95
866.65	1767.40
866.82	1587.18
866.99	1669.09
867.16	1662.95
867.32	1638.38
867.49	1720.29
867.66	1726.44
867.83	1693.67
867.99	1642.47
868.16	1705.96
868.33	1695.72
868.49	1609.70
868.66	1685.48
868.83	1767.40
868.99	1736.68
869.16	1652.71
869.33	1767.40
869.50	1751.01
869.66	1677.29
869.83	1662.95
870.00	1613.80
870.16	1726.44
870.33	1689.57
870.50	1708.01
870.66	1685.48
870.83	1812.45
871.00	1613.80
871.17	1771.49
871.33	1746.92
871.50	1691.62
871.67	1720.29
871.83	1636.33
872.00	1751.01
872.17	1699.81
872.33	1771.49
872.50	1753.06
872.67	1683.43
872.83	1708.01
873.00	1718.25
873.17	1732.58
873.33	1658.85
873.50	1751.01
873.67	1681.38
873.83	1683.43
874.00	1683.43
874.16	1757.16
874.33	1755.11
874.50	1681.38
874.66	1763.30
874.83	1652.71
875.00	1748.97
875.16	1798.12
875.33	1818.60
875.50	1648.61
875.66	1597.42
875.83	1660.90
875.99	1675.24
876.16	1642.47
876.33	1597.42
876.49	1732.58
876.66	1732.58
876.83	1703.91
876.99	1589.22
877.16	1738.73
877.32	1574.89
877.49	1652.71
877.66	1658.85
877.82	1765.35
877.99	1718.25
878.15	1728.49
878.32	1714.15
878.49	1716.20
878.65	1665.00
878.82	1834.98
878.98	1716.20
879.15	1773.54
879.32	1718.25
879.48	1693.67
879.65	1652.71
879.81	1669.09
879.98	1648.61
880.15	1689.57
880.31	1767.40
880.48	1705.96
880.64	1806.31
880.81	1775.59
880.97	1820.64
881.14	1710.05
881.31	1685.48
881.47	1738.73
881.64	1681.38
881.80	1683.43
881.97	1763.30
882.13	1726.44
882.30	1708.01
882.47	1656.81
882.63	1669.09
882.80	1591.27
882.96	1683.43
883.13	1816.55
883.29	1630.18
883.46	1720.29
883.62	1859.56
883.79	1671.14
883.95	1728.49
884.12	1712.10
884.29	1755.11
884.45	1650.66
884.62	1744.87
884.78	1708.01
884.95	1746.92
885.11	1665.00
885.28	1695.72
885.44	1669.09
885.61	1675.24
885.77	1781.73
885.94	1722.34
886.10	1646.57
886.27	1779.68
886.43	1822.69
886.60	1742.82
886.76	1720.29
886.93	1656.81
887.09	1691.62
887.26	1628.14
887.42	1689.57
887.59	1708.01
887.75	1857.51
887.92	1773.54
888.08	1697.77
888.25	1802.21
888.41	1742.82
888.58	1751.01
888.74	1660.90
888.91	1716.20
>>>>>End Processed Spectral Data<<<<<
