SpectraSuite Data File
++++++++++++++++++++++++++++++++++++
Date: Mon Jun 06 13:28:57 CEST 2016
User: root
Dark Spectrum Present: No
Reference Spectrum Present: No
Number of Sampled Component Spectra: 1
Spectrometers: USB4C02835
Integration Time (usec): 100000 (USB4C02835)
Spectra Averaged: 1 (USB4C02835)
Boxcar Smoothing: 0 (USB4C02835)
Correct for Electrical Dark: No (USB4C02835)
Strobe/Lamp Enabled: No (USB4C02835)
Correct for Detector Non-linearity: No (USB4C02835)
Correct for Stray Light: No (USB4C02835)
Number of Pixels in Processed Spectrum: 3648
>>>>>Begin Processed Spectral Data<<<<<
177.47	1429.48
177.69	1429.48
177.91	1429.48
178.13	1413.10
178.36	1413.10
178.58	1699.81
178.80	1796.07
179.02	1574.89
179.24	1638.38
179.46	1675.24
179.68	1732.58
179.90	1720.29
180.13	1658.85
180.35	1605.61
180.57	1687.53
180.79	1716.20
181.01	1652.71
181.23	1734.63
181.45	1796.07
181.67	1665.00
181.90	1755.11
182.12	1716.20
182.34	1640.42
182.56	1712.10
182.78	1738.73
183.00	1673.19
183.22	1712.10
183.44	1646.57
183.66	1728.49
183.89	1800.16
184.11	1775.59
184.33	1736.68
184.55	1736.68
184.77	1644.52
184.99	1712.10
185.21	1734.63
185.43	1832.93
185.65	1665.00
185.87	1718.25
186.10	1779.68
186.32	1841.12
186.54	1636.33
186.76	1683.43
186.98	1689.57
187.20	1779.68
187.42	1650.66
187.64	1654.76
187.86	1697.77
188.08	1773.54
188.30	1693.67
188.52	1648.61
188.75	1800.16
188.97	1832.93
189.19	1632.23
189.41	1769.44
189.63	1728.49
189.85	1734.63
190.07	1628.14
190.29	1607.66
190.51	1765.35
190.73	1642.47
190.95	1794.02
191.17	1689.57
191.39	1574.89
191.61	1683.43
191.84	1734.63
192.06	1673.19
192.28	1628.14
192.50	1847.27
192.72	1693.67
192.94	1710.05
193.16	1636.33
193.38	1662.95
193.60	1656.81
193.82	1728.49
194.04	1769.44
194.26	1742.82
194.48	1716.20
194.70	1669.09
194.92	1693.67
195.14	1785.83
195.36	1607.66
195.58	1638.38
195.80	1671.14
196.02	1693.67
196.24	1751.01
196.46	1705.96
196.69	1703.91
196.91	1800.16
197.13	1730.53
197.35	1705.96
197.57	1783.78
197.79	1779.68
198.01	1755.11
198.23	1634.28
198.45	1796.07
198.67	1681.38
198.89	1611.75
199.11	1798.12
199.33	1615.85
199.55	1691.62
199.77	1710.05
199.99	1761.25
200.21	1667.05
200.43	1714.15
200.65	1615.85
200.87	1587.18
201.09	1609.70
201.31	1632.23
201.53	1691.62
201.75	1714.15
201.97	1728.49
202.19	1710.05
202.41	1787.88
202.63	1781.73
202.85	1665.00
203.07	1738.73
203.29	1722.34
203.51	1701.86
203.73	1654.76
203.95	1898.47
204.17	1691.62
204.39	1669.09
204.61	1712.10
204.83	1675.24
205.05	1658.85
205.27	1771.49
205.49	1814.50
205.71	1699.81
205.93	1646.57
206.15	1615.85
206.37	1720.29
206.59	1671.14
206.81	1628.14
207.03	1632.23
207.25	1671.14
207.47	1808.36
207.69	1708.01
207.91	1806.31
208.13	1736.68
208.34	1662.95
208.56	1591.27
208.78	1820.64
209.00	1673.19
209.22	1626.09
209.44	1726.44
209.66	1650.66
209.88	1734.63
210.10	1779.68
210.32	1681.38
210.54	1757.16
210.76	1699.81
210.98	1732.58
211.20	1626.09
211.42	1697.77
211.64	1728.49
211.86	1693.67
212.08	1646.57
212.30	1722.34
212.52	1753.06
212.74	1726.44
212.96	1689.57
213.17	1714.15
213.39	1701.86
213.61	1722.34
213.83	1703.91
214.05	1621.99
214.27	1712.10
214.49	1646.57
214.71	1650.66
214.93	1734.63
215.15	1722.34
215.37	1771.49
215.59	1648.61
215.81	1767.40
216.03	1775.59
216.24	1712.10
216.46	1738.73
216.68	1740.77
216.90	1701.86
217.12	1716.20
217.34	1732.58
217.56	1691.62
217.78	1781.73
218.00	1738.73
218.22	1759.21
218.44	1789.92
218.66	1636.33
218.87	1761.25
219.09	1615.85
219.31	1699.81
219.53	1701.86
219.75	1738.73
219.97	1740.77
220.19	1710.05
220.41	1660.90
220.63	1753.06
220.85	1712.10
221.06	1699.81
221.28	1689.57
221.50	1683.43
221.72	1701.86
221.94	1748.97
222.16	1624.04
222.38	1751.01
222.60	1714.15
222.82	1617.90
223.03	1771.49
223.25	1552.36
223.47	1665.00
223.69	1787.88
223.91	1701.86
224.13	1681.38
224.35	1695.72
224.57	1718.25
224.78	1687.53
225.00	1578.98
225.22	1624.04
225.44	1771.49
225.66	1695.72
225.88	1669.09
226.10	1724.39
226.32	1687.53
226.53	1785.83
226.75	1671.14
226.97	1654.76
227.19	1650.66
227.41	1689.57
227.63	1671.14
227.85	1638.38
228.06	1724.39
228.28	1724.39
228.50	1773.54
228.72	1669.09
228.94	1699.81
229.16	1671.14
229.37	1619.94
229.59	1705.96
229.81	1759.21
230.03	1642.47
230.25	1681.38
230.47	1624.04
230.69	1593.32
230.90	1791.97
231.12	1693.67
231.34	1765.35
231.56	1806.31
231.78	1593.32
232.00	1644.52
232.21	1650.66
232.43	1720.29
232.65	1546.22
232.87	1755.11
233.09	1679.33
233.30	1656.81
233.52	1742.82
233.74	1726.44
233.96	1683.43
234.18	1724.39
234.40	1699.81
234.61	1812.45
234.83	1669.09
235.05	1683.43
235.27	1849.32
235.49	1722.34
235.70	1699.81
235.92	1816.55
236.14	1710.05
236.36	1800.16
236.58	1636.33
236.79	1681.38
237.01	1763.30
237.23	1720.29
237.45	1830.88
237.67	1691.62
237.88	1751.01
238.10	1832.93
238.32	1628.14
238.54	1665.00
238.76	1746.92
238.97	1681.38
239.19	1679.33
239.41	1693.67
239.63	1734.63
239.85	1685.48
240.06	1642.47
240.28	1595.37
240.50	1722.34
240.72	1697.77
240.93	1634.28
241.15	1736.68
241.37	1734.63
241.59	1851.36
241.81	1695.72
242.02	1665.00
242.24	1728.49
242.46	1841.12
242.68	1615.85
242.89	1736.68
243.11	1679.33
243.33	1624.04
243.55	1748.97
243.76	1769.44
243.98	1640.42
244.20	1708.01
244.42	1615.85
244.64	1705.96
244.85	1691.62
245.07	1693.67
245.29	1789.92
245.51	1726.44
245.72	1669.09
245.94	1744.87
246.16	1628.14
246.38	1822.69
246.59	1658.85
246.81	1662.95
247.03	1701.86
247.24	1640.42
247.46	1648.61
247.68	1724.39
247.90	1658.85
248.11	1648.61
248.33	1767.40
248.55	1660.90
248.77	1675.24
248.98	1714.15
249.20	1718.25
249.42	1708.01
249.64	1773.54
249.85	1732.58
250.07	1691.62
250.29	1681.38
250.50	1695.72
250.72	1572.84
250.94	1693.67
251.16	1841.12
251.37	1748.97
251.59	1755.11
251.81	1683.43
252.02	1753.06
252.24	1638.38
252.46	1779.68
252.68	1665.00
252.89	1589.22
253.11	1644.52
253.33	1794.02
253.54	1789.92
253.76	1634.28
253.98	1656.81
254.20	1703.91
254.41	1576.94
254.63	1654.76
254.85	1695.72
255.06	1710.05
255.28	1689.57
255.50	1705.96
255.71	1650.66
255.93	1617.90
256.15	1634.28
256.36	1740.77
256.58	1626.09
256.80	1730.53
257.02	1691.62
257.23	1677.29
257.45	1685.48
257.67	1755.11
257.88	1652.71
258.10	1669.09
258.32	1705.96
258.53	1738.73
258.75	1783.78
258.97	1662.95
259.18	1658.85
259.40	1699.81
259.62	1802.21
259.83	1779.68
260.05	1699.81
260.27	1912.80
260.48	1779.68
260.70	1611.75
260.92	1634.28
261.13	1703.91
261.35	1714.15
261.57	1699.81
261.78	1570.79
262.00	1671.14
262.22	1767.40
262.43	1708.01
262.65	1628.14
262.86	1628.14
263.08	1816.55
263.30	1671.14
263.51	1542.12
263.73	1685.48
263.95	1810.40
264.16	1640.42
264.38	1648.61
264.60	1730.53
264.81	1671.14
265.03	1718.25
265.25	1751.01
265.46	1726.44
265.68	1726.44
265.89	1736.68
266.11	1652.71
266.33	1675.24
266.54	1693.67
266.76	1746.92
266.98	1767.40
267.19	1767.40
267.41	1691.62
267.62	1703.91
267.84	1687.53
268.06	1740.77
268.27	1757.16
268.49	1738.73
268.70	1773.54
268.92	1699.81
269.14	1603.56
269.35	1621.99
269.57	1734.63
269.79	1701.86
270.00	1683.43
270.22	1781.73
270.43	1591.27
270.65	1632.23
270.87	1648.61
271.08	1755.11
271.30	1673.19
271.51	1671.14
271.73	1767.40
271.95	1763.30
272.16	1642.47
272.38	1751.01
272.59	1691.62
272.81	1714.15
273.02	1710.05
273.24	1658.85
273.46	1718.25
273.67	1665.00
273.89	1624.04
274.10	1675.24
274.32	1722.34
274.54	1738.73
274.75	1777.64
274.97	1642.47
275.18	1728.49
275.40	1701.86
275.61	1695.72
275.83	1705.96
276.05	1613.80
276.26	1699.81
276.48	1779.68
276.69	1699.81
276.91	1632.23
277.12	1789.92
277.34	1705.96
277.55	1779.68
277.77	1679.33
277.99	1669.09
278.20	1685.48
278.42	1656.81
278.63	1699.81
278.85	1695.72
279.06	1605.61
279.28	1695.72
279.49	1689.57
279.71	1798.12
279.93	1632.23
280.14	1683.43
280.36	1595.37
280.57	1755.11
280.79	1794.02
281.00	1714.15
281.22	1648.61
281.43	1746.92
281.65	1572.84
281.86	1628.14
282.08	1738.73
282.29	1724.39
282.51	1669.09
282.73	1687.53
282.94	1640.42
283.16	1718.25
283.37	1769.44
283.59	1783.78
283.80	1636.33
284.02	1701.86
284.23	1736.68
284.45	1650.66
284.66	1615.85
284.88	1695.72
285.09	1720.29
285.31	1736.68
285.52	1802.21
285.74	1533.93
285.95	1765.35
286.17	1708.01
286.38	1740.77
286.60	1615.85
286.81	1615.85
287.03	1675.24
287.24	1681.38
287.46	1744.87
287.67	1660.90
287.89	1843.17
288.10	1730.53
288.32	1673.19
288.53	1675.24
288.75	1720.29
288.96	1769.44
289.18	1648.61
289.39	1617.90
289.61	1751.01
289.82	1759.21
290.04	1804.26
290.25	1669.09
290.47	1634.28
290.68	1691.62
290.90	1701.86
291.11	1681.38
291.33	1771.49
291.54	1646.57
291.76	1787.88
291.97	1689.57
292.18	1679.33
292.40	1646.57
292.61	1736.68
292.83	1771.49
293.04	1681.38
293.26	1763.30
293.47	1708.01
293.69	1656.81
293.90	1720.29
294.12	1687.53
294.33	1646.57
294.55	1662.95
294.76	1759.21
294.97	1761.25
295.19	1849.32
295.40	1656.81
295.62	1675.24
295.83	1644.52
296.05	1648.61
296.26	1757.16
296.48	1658.85
296.69	1621.99
296.90	1699.81
297.12	1757.16
297.33	1724.39
297.55	1681.38
297.76	1665.00
297.98	1826.79
298.19	1708.01
298.41	1742.82
298.62	1675.24
298.83	1785.83
299.05	1742.82
299.26	1667.05
299.48	1683.43
299.69	1728.49
299.90	1720.29
300.12	1644.52
300.33	1732.58
300.55	1714.15
300.76	1757.16
300.98	1619.94
301.19	1689.57
301.40	1738.73
301.62	1665.00
301.83	1685.48
302.05	1677.29
302.26	1685.48
302.47	1683.43
302.69	1654.76
302.90	1740.77
303.12	1587.18
303.33	1710.05
303.54	1841.12
303.76	1671.14
303.97	1705.96
304.19	1705.96
304.40	1656.81
304.61	1703.91
304.83	1779.68
305.04	1767.40
305.26	1769.44
305.47	1656.81
305.68	1746.92
305.90	1648.61
306.11	1755.11
306.33	1673.19
306.54	1714.15
306.75	1665.00
306.97	1589.22
307.18	1691.62
307.39	1650.66
307.61	1675.24
307.82	1695.72
308.04	1683.43
308.25	1646.57
308.46	1658.85
308.68	1767.40
308.89	1701.86
309.10	1763.30
309.32	1677.29
309.53	1691.62
309.74	1763.30
309.96	1679.33
310.17	1763.30
310.39	1642.47
310.60	1689.57
310.81	1712.10
311.03	1560.55
311.24	1695.72
311.45	1753.06
311.67	1773.54
311.88	1693.67
312.09	1665.00
312.31	1781.73
312.52	1691.62
312.73	1646.57
312.95	1578.98
313.16	1665.00
313.37	1738.73
313.59	1728.49
313.80	1767.40
314.01	1810.40
314.23	1761.25
314.44	1638.38
314.65	1681.38
314.87	1689.57
315.08	1652.71
315.29	1683.43
315.51	1644.52
315.72	1640.42
315.93	1826.79
316.15	1734.63
316.36	1648.61
316.57	1658.85
316.79	1697.77
317.00	1732.58
317.21	1798.12
317.43	1673.19
317.64	1587.18
317.85	1748.97
318.07	1656.81
318.28	1771.49
318.49	1771.49
318.70	1947.62
318.92	1779.68
319.13	1761.25
319.34	1873.89
319.56	1771.49
319.77	1748.97
319.98	1806.31
320.20	1783.78
320.41	1761.25
320.62	1796.07
320.83	1607.66
321.05	1824.74
321.26	1726.44
321.47	1667.05
321.69	1710.05
321.90	1638.38
322.11	1656.81
322.32	1787.88
322.54	1785.83
322.75	1662.95
322.96	1867.75
323.18	1597.42
323.39	1626.09
323.60	1607.66
323.81	1757.16
324.03	1673.19
324.24	1685.48
324.45	1726.44
324.66	1669.09
324.88	1779.68
325.09	1746.92
325.30	1640.42
325.52	1722.34
325.73	1703.91
325.94	1603.56
326.15	1628.14
326.37	1638.38
326.58	1791.97
326.79	1722.34
327.00	1689.57
327.22	1656.81
327.43	1662.95
327.64	1658.85
327.85	1646.57
328.07	1677.29
328.28	1779.68
328.49	1769.44
328.70	1714.15
328.92	1740.77
329.13	1718.25
329.34	1708.01
329.55	1816.55
329.76	1777.64
329.98	1697.77
330.19	1865.70
330.40	1759.21
330.61	1687.53
330.83	1791.97
331.04	1636.33
331.25	1648.61
331.46	1656.81
331.68	1632.23
331.89	1804.26
332.10	1638.38
332.31	1556.46
332.52	1699.81
332.74	1738.73
332.95	1642.47
333.16	1640.42
333.37	1699.81
333.58	1685.48
333.80	1771.49
334.01	1630.18
334.22	1642.47
334.43	1660.90
334.64	1648.61
334.86	1587.18
335.07	1658.85
335.28	1834.98
335.49	1529.83
335.70	1820.64
335.92	1771.49
336.13	1888.23
336.34	1701.86
336.55	1689.57
336.76	1683.43
336.98	1619.94
337.19	1605.61
337.40	1845.22
337.61	1832.93
337.82	1638.38
338.04	1734.63
338.25	1654.76
338.46	1650.66
338.67	1691.62
338.88	1617.90
339.09	1636.33
339.31	1695.72
339.52	1624.04
339.73	1597.42
339.94	1796.07
340.15	1703.91
340.36	1697.77
340.58	1703.91
340.79	1677.29
341.00	1724.39
341.21	1615.85
341.42	1775.59
341.63	1681.38
341.85	1730.53
342.06	1697.77
342.27	1642.47
342.48	1701.86
342.69	1636.33
342.90	1728.49
343.12	1716.20
343.33	1628.14
343.54	1689.57
343.75	1777.64
343.96	1644.52
344.17	1699.81
344.38	1701.86
344.60	1658.85
344.81	1648.61
345.02	1744.87
345.23	1787.88
345.44	1781.73
345.65	1736.68
345.86	1812.45
346.07	1630.18
346.29	1689.57
346.50	1705.96
346.71	1798.12
346.92	1753.06
347.13	1744.87
347.34	1646.57
347.55	1656.81
347.76	1681.38
347.98	1595.37
348.19	1683.43
348.40	1814.50
348.61	1759.21
348.82	1730.53
349.03	1642.47
349.24	1677.29
349.45	1779.68
349.66	1638.38
349.88	1765.35
350.09	1640.42
350.30	1857.51
350.51	1785.83
350.72	1767.40
350.93	1677.29
351.14	1673.19
351.35	1724.39
351.56	1724.39
351.77	1673.19
351.99	1685.48
352.20	1861.60
352.41	1765.35
352.62	1589.22
352.83	1755.11
353.04	1656.81
353.25	1662.95
353.46	1791.97
353.67	1748.97
353.88	1574.89
354.09	1732.58
354.30	1644.52
354.52	1675.24
354.73	1640.42
354.94	1701.86
355.15	1732.58
355.36	1771.49
355.57	1669.09
355.78	1656.81
355.99	1685.48
356.20	1644.52
356.41	1746.92
356.62	1708.01
356.83	1740.77
357.04	1744.87
357.25	1685.48
357.46	1628.14
357.68	1626.09
357.89	1628.14
358.10	1757.16
358.31	1732.58
358.52	1621.99
358.73	1597.42
358.94	1644.52
359.15	1642.47
359.36	1658.85
359.57	1720.29
359.78	1626.09
359.99	1734.63
360.20	1603.56
360.41	1728.49
360.62	1712.10
360.83	1720.29
361.04	1722.34
361.25	1728.49
361.46	1798.12
361.67	1716.20
361.88	1703.91
362.09	1718.25
362.30	1744.87
362.51	1708.01
362.72	1675.24
362.93	1771.49
363.14	1757.16
363.35	1710.05
363.56	1654.76
363.78	1783.78
363.99	1724.39
364.20	1708.01
364.41	1693.67
364.62	1759.21
364.83	1697.77
365.04	1746.92
365.25	1648.61
365.46	1820.64
365.67	1650.66
365.88	1609.70
366.09	1689.57
366.30	1644.52
366.51	1761.25
366.72	1644.52
366.93	1697.77
367.14	1791.97
367.35	1779.68
367.56	1689.57
367.77	1783.78
367.98	1726.44
368.18	1708.01
368.39	1710.05
368.60	1658.85
368.81	1742.82
369.02	1640.42
369.23	1695.72
369.44	1578.98
369.65	1654.76
369.86	1708.01
370.07	1738.73
370.28	1646.57
370.49	1806.31
370.70	1712.10
370.91	1632.23
371.12	1632.23
371.33	1759.21
371.54	1636.33
371.75	1822.69
371.96	1558.50
372.17	1716.20
372.38	1662.95
372.59	1714.15
372.80	1722.34
373.01	1691.62
373.22	1759.21
373.43	1701.86
373.64	1658.85
373.85	1783.78
374.06	1847.27
374.26	1730.53
374.47	1689.57
374.68	1736.68
374.89	1710.05
375.10	1634.28
375.31	1769.44
375.52	1724.39
375.73	1665.00
375.94	1638.38
376.15	1791.97
376.36	1636.33
376.57	1591.27
376.78	1710.05
376.99	1685.48
377.20	1699.81
377.40	1634.28
377.61	1767.40
377.82	1677.29
378.03	1724.39
378.24	1697.77
378.45	1712.10
378.66	1722.34
378.87	1628.14
379.08	1609.70
379.29	1671.14
379.50	1814.50
379.71	1669.09
379.91	1777.64
380.12	1673.19
380.33	1687.53
380.54	1630.18
380.75	1642.47
380.96	1724.39
381.17	1775.59
381.38	1740.77
381.59	1708.01
381.80	1771.49
382.00	1875.94
382.21	1710.05
382.42	1738.73
382.63	1802.21
382.84	1685.48
383.05	1769.44
383.26	1720.29
383.47	1734.63
383.68	1814.50
383.88	1744.87
384.09	1730.53
384.30	1806.31
384.51	1736.68
384.72	1658.85
384.93	1644.52
385.14	1693.67
385.35	1730.53
385.55	1583.08
385.76	1785.83
385.97	1720.29
386.18	1665.00
386.39	1683.43
386.60	1628.14
386.81	1636.33
387.02	1660.90
387.22	1683.43
387.43	1744.87
387.64	1740.77
387.85	1923.04
388.06	2242.53
388.27	4179.90
388.48	6676.38
388.68	8212.35
388.89	9654.12
389.10	9912.17
389.31	8474.49
389.52	7473.04
389.73	6713.24
389.93	6178.72
390.14	5963.68
390.35	5074.87
390.56	4628.41
390.77	3751.88
390.98	2981.84
391.18	2443.23
391.39	2133.98
391.60	1814.50
391.81	1787.88
392.02	1757.16
392.23	1800.16
392.43	1742.82
392.64	1779.68
392.85	1630.18
393.06	1837.03
393.27	1710.05
393.47	1673.19
393.68	1615.85
393.89	1757.16
394.10	1777.64
394.31	1669.09
394.52	1695.72
394.72	1615.85
394.93	1789.92
395.14	1648.61
395.35	1738.73
395.56	1624.04
395.76	1722.34
395.97	1779.68
396.18	1796.07
396.39	1853.41
396.60	2025.44
396.80	1882.08
397.01	1787.88
397.22	1701.86
397.43	1865.70
397.64	1675.24
397.84	1808.36
398.05	1888.23
398.26	1740.77
398.47	1812.45
398.67	1742.82
398.88	1724.39
399.09	1705.96
399.30	1708.01
399.51	1740.77
399.71	1730.53
399.92	1656.81
400.13	1705.96
400.34	1710.05
400.54	1660.90
400.75	1757.16
400.96	1767.40
401.17	1851.36
401.37	1787.88
401.58	1685.48
401.79	1769.44
402.00	1855.46
402.21	1996.77
402.41	1886.18
402.62	1857.51
402.83	2041.82
403.04	2072.54
403.24	2035.68
403.45	1791.97
403.66	1947.62
403.87	1865.70
404.07	1886.18
404.28	1806.31
404.49	1906.66
404.70	1808.36
404.90	1712.10
405.11	1759.21
405.32	1802.21
405.52	1705.96
405.73	1746.92
405.94	1617.90
406.15	1689.57
406.35	1642.47
406.56	1808.36
406.77	1632.23
406.98	1718.25
407.18	1669.09
407.39	1824.74
407.60	1646.57
407.80	1785.83
408.01	1683.43
408.22	1697.77
408.43	1638.38
408.63	1691.62
408.84	1732.58
409.05	1656.81
409.25	1576.94
409.46	1640.42
409.67	1675.24
409.88	1689.57
410.08	1779.68
410.29	1636.33
410.50	1771.49
410.70	1673.19
410.91	1660.90
411.12	1718.25
411.32	1708.01
411.53	1677.29
411.74	1742.82
411.95	1820.64
412.15	1685.48
412.36	1755.11
412.57	1658.85
412.77	1865.70
412.98	1708.01
413.19	1662.95
413.39	1781.73
413.60	1691.62
413.81	1802.21
414.01	1619.94
414.22	1720.29
414.43	1775.59
414.63	1703.91
414.84	1759.21
415.05	1695.72
415.25	1607.66
415.46	1759.21
415.67	1638.38
415.87	1718.25
416.08	1693.67
416.29	1736.68
416.49	1738.73
416.70	1687.53
416.91	1658.85
417.11	1634.28
417.32	1705.96
417.53	1763.30
417.73	1722.34
417.94	1705.96
418.15	1746.92
418.35	1773.54
418.56	1742.82
418.77	1820.64
418.97	1632.23
419.18	1755.11
419.38	1554.41
419.59	1683.43
419.80	1820.64
420.00	1689.57
420.21	1660.90
420.42	1730.53
420.62	1722.34
420.83	1708.01
421.04	1685.48
421.24	1667.05
421.45	1757.16
421.65	1742.82
421.86	1691.62
422.07	1712.10
422.27	1660.90
422.48	1671.14
422.69	1714.15
422.89	1626.09
423.10	1724.39
423.30	1683.43
423.51	1619.94
423.72	1714.15
423.92	1732.58
424.13	1619.94
424.33	1806.31
424.54	1765.35
424.75	1718.25
424.95	1777.64
425.16	1699.81
425.36	1638.38
425.57	1722.34
425.78	1748.97
425.98	1759.21
426.19	1626.09
426.39	1642.47
426.60	1738.73
426.81	1787.88
427.01	1732.58
427.22	1665.00
427.42	1599.46
427.63	1697.77
427.83	1687.53
428.04	1781.73
428.25	1814.50
428.45	1753.06
428.66	1628.14
428.86	1675.24
429.07	1697.77
429.28	1667.05
429.48	1665.00
429.69	1673.19
429.89	1755.11
430.10	1585.13
430.30	1644.52
430.51	1748.97
430.71	1658.85
430.92	1624.04
431.13	1687.53
431.33	1677.29
431.54	1789.92
431.74	1834.98
431.95	1769.44
432.15	1652.71
432.36	1681.38
432.56	1783.78
432.77	1746.92
432.98	1822.69
433.18	1636.33
433.39	1734.63
433.59	1638.38
433.80	1804.26
434.00	1867.75
434.21	1685.48
434.41	1656.81
434.62	1861.60
434.82	1648.61
435.03	1640.42
435.23	1712.10
435.44	1673.19
435.64	1708.01
435.85	1746.92
436.06	1753.06
436.26	1748.97
436.47	1714.15
436.67	1726.44
436.88	1703.91
437.08	1746.92
437.29	1763.30
437.49	1732.58
437.70	1751.01
437.90	1687.53
438.11	1837.03
438.31	1863.65
438.52	1834.98
438.72	1759.21
438.93	1908.71
439.13	1775.59
439.34	1826.79
439.54	1753.06
439.75	1755.11
439.95	1828.84
440.16	1656.81
440.36	1720.29
440.57	1744.87
440.77	1699.81
440.98	1759.21
441.18	1677.29
441.39	1769.44
441.59	1771.49
441.80	1796.07
442.00	1648.61
442.21	1802.21
442.41	1648.61
442.62	1726.44
442.82	1695.72
443.02	1714.15
443.23	1644.52
443.43	1673.19
443.64	1777.64
443.84	1720.29
444.05	1755.11
444.25	1722.34
444.46	1722.34
444.66	1703.91
444.87	1820.64
445.07	1621.99
445.28	1742.82
445.48	1765.35
445.69	1796.07
445.89	1875.94
446.09	1779.68
446.30	2023.39
446.50	2643.93
446.71	3864.52
446.91	4310.97
447.12	4749.24
447.32	4675.51
447.53	4290.49
447.73	3766.21
447.93	3518.41
448.14	3315.66
448.34	3231.69
448.55	2910.16
448.75	2947.03
448.96	2674.65
449.16	2437.08
449.36	2232.29
449.57	2095.07
449.77	1861.60
449.98	1787.88
450.18	1697.77
450.39	1812.45
450.59	1757.16
450.79	1810.40
451.00	1695.72
451.20	1781.73
451.41	1748.97
451.61	1769.44
451.81	1675.24
452.02	1687.53
452.22	1783.78
452.43	1642.47
452.63	1675.24
452.84	1718.25
453.04	1730.53
453.24	1748.97
453.45	1734.63
453.65	1757.16
453.86	1740.77
454.06	1736.68
454.26	1769.44
454.47	1656.81
454.67	1816.55
454.87	1822.69
455.08	1710.05
455.28	1837.03
455.49	1783.78
455.69	1687.53
455.89	1810.40
456.10	1804.26
456.30	1673.19
456.51	1744.87
456.71	1757.16
456.91	1728.49
457.12	1718.25
457.32	1658.85
457.52	1708.01
457.73	1748.97
457.93	1712.10
458.14	1673.19
458.34	1642.47
458.54	1703.91
458.75	1751.01
458.95	1703.91
459.15	1708.01
459.36	1757.16
459.56	1757.16
459.76	1888.23
459.97	1714.15
460.17	1789.92
460.37	1845.22
460.58	1728.49
460.78	1769.44
460.99	1740.77
461.19	1742.82
461.39	1779.68
461.60	1765.35
461.80	1783.78
462.00	1701.86
462.21	1726.44
462.41	1644.52
462.61	1714.15
462.82	1626.09
463.02	1769.44
463.22	1648.61
463.43	1791.97
463.63	1744.87
463.83	1820.64
464.04	1830.88
464.24	1693.67
464.44	1703.91
464.64	1679.33
464.85	1736.68
465.05	1773.54
465.25	1689.57
465.46	1701.86
465.66	1689.57
465.86	1853.41
466.07	1726.44
466.27	1644.52
466.47	1607.66
466.68	1708.01
466.88	1800.16
467.08	1798.12
467.29	1685.48
467.49	1773.54
467.69	1701.86
467.89	1738.73
468.10	1693.67
468.30	1738.73
468.50	1761.25
468.71	1808.36
468.91	1591.27
469.11	1820.64
469.31	1740.77
469.52	1673.19
469.72	1744.87
469.92	1804.26
470.13	1765.35
470.33	1716.20
470.53	1839.08
470.73	2052.06
470.94	2252.77
471.14	2301.92
471.34	2490.33
471.54	2488.28
471.75	2209.76
471.95	2072.54
472.15	2050.02
472.36	2111.46
472.56	2052.06
472.76	2025.44
472.96	2101.22
473.17	1890.28
473.37	1988.58
473.57	1853.41
473.77	1763.30
473.98	1769.44
474.18	1681.38
474.38	1929.19
474.58	1642.47
474.79	1677.29
474.99	1648.61
475.19	1757.16
475.39	1681.38
475.60	1847.27
475.80	1767.40
476.00	1691.62
476.20	1681.38
476.41	1755.11
476.61	1841.12
476.81	1757.16
477.01	1714.15
477.21	1812.45
477.42	1751.01
477.62	1650.66
477.82	1845.22
478.02	1665.00
478.23	1724.39
478.43	1591.27
478.63	1658.85
478.83	1699.81
479.03	1714.15
479.24	1824.74
479.44	1865.70
479.64	1701.86
479.84	1671.14
480.04	1751.01
480.25	1751.01
480.45	1681.38
480.65	1730.53
480.85	1789.92
481.06	1675.24
481.26	1730.53
481.46	1789.92
481.66	1718.25
481.86	1697.77
482.06	1746.92
482.27	1603.56
482.47	1728.49
482.67	1751.01
482.87	1757.16
483.07	1675.24
483.28	1689.57
483.48	1681.38
483.68	1675.24
483.88	1615.85
484.08	1558.50
484.29	1636.33
484.49	1710.05
484.69	1632.23
484.89	1765.35
485.09	1755.11
485.29	1720.29
485.50	1705.96
485.70	1652.71
485.90	1732.58
486.10	1738.73
486.30	1767.40
486.50	1787.88
486.71	1722.34
486.91	1783.78
487.11	1755.11
487.31	1638.38
487.51	1705.96
487.71	1695.72
487.91	1558.50
488.12	1632.23
488.32	1646.57
488.52	1650.66
488.72	1648.61
488.92	1763.30
489.12	1800.16
489.32	1742.82
489.53	1765.35
489.73	1613.80
489.93	1777.64
490.13	1654.76
490.33	1701.86
490.53	1746.92
490.73	1794.02
490.94	1671.14
491.14	1669.09
491.34	1841.12
491.54	2068.45
491.74	2598.87
491.94	2844.63
492.14	2875.35
492.34	3016.66
492.54	2734.04
492.75	2457.56
492.95	2455.51
493.15	2222.05
493.35	2258.91
493.55	2248.67
493.75	2150.37
493.95	2140.13
494.15	2033.63
494.35	1933.28
494.56	1867.75
494.76	1769.44
494.96	1789.92
495.16	1816.55
495.36	1726.44
495.56	1744.87
495.76	1619.94
495.96	1718.25
496.16	1669.09
496.36	1865.70
496.56	1701.86
496.77	1826.79
496.97	1734.63
497.17	1808.36
497.37	1638.38
497.57	1742.82
497.77	1677.29
497.97	1675.24
498.17	1740.77
498.37	1755.11
498.57	1703.91
498.77	1626.09
498.97	1736.68
499.17	1808.36
499.38	1773.54
499.58	1814.50
499.78	1744.87
499.98	1847.27
500.18	1673.19
500.38	1658.85
500.58	1865.70
500.78	2508.76
500.98	4435.90
501.18	5851.05
501.38	6772.63
501.58	7088.02
501.78	6481.82
501.98	5572.52
502.18	4906.93
502.38	4321.21
502.58	4147.14
502.78	3755.97
502.98	3649.48
503.18	3430.35
503.38	3026.90
503.59	2820.05
503.79	2629.59
503.99	2484.19
504.19	2310.11
504.39	2166.75
504.59	2125.79
504.79	2082.78
504.99	2000.87
505.19	1961.95
505.39	1843.17
505.59	2045.92
505.79	1884.13
505.99	1818.60
506.19	1769.44
506.39	1841.12
506.59	1748.97
506.79	1800.16
506.99	1857.51
507.19	1722.34
507.39	1751.01
507.59	1667.05
507.79	1710.05
507.99	1644.52
508.19	1742.82
508.39	1662.95
508.59	1742.82
508.79	1843.17
508.99	1759.21
509.19	1652.71
509.39	1755.11
509.59	1656.81
509.79	1742.82
509.99	1789.92
510.19	1763.30
510.39	1773.54
510.59	1748.97
510.79	1730.53
510.99	1720.29
511.19	1708.01
511.39	1808.36
511.59	1791.97
511.79	1746.92
511.99	1771.49
512.19	1751.01
512.38	1783.78
512.58	1699.81
512.78	1687.53
512.98	1824.74
513.18	1828.84
513.38	1644.52
513.58	1820.64
513.78	1740.77
513.98	1748.97
514.18	1652.71
514.38	1724.39
514.58	1734.63
514.78	1667.05
514.98	1714.15
515.18	1673.19
515.38	1572.84
515.58	1775.59
515.78	1716.20
515.98	1761.25
516.18	1720.29
516.38	1718.25
516.57	1714.15
516.77	1701.86
516.97	1771.49
517.17	1628.14
517.37	1679.33
517.57	1755.11
517.77	1708.01
517.97	1734.63
518.17	1812.45
518.37	1734.63
518.57	1679.33
518.77	1630.18
518.97	1714.15
519.16	1757.16
519.36	1769.44
519.56	1722.34
519.76	1701.86
519.96	1730.53
520.16	1781.73
520.36	1650.66
520.56	1771.49
520.76	1650.66
520.96	1626.09
521.16	1753.06
521.35	1716.20
521.55	1843.17
521.75	1724.39
521.95	1716.20
522.15	1691.62
522.35	1642.47
522.55	1714.15
522.75	1783.78
522.95	1773.54
523.14	1660.90
523.34	1820.64
523.54	1738.73
523.74	1744.87
523.94	1783.78
524.14	1648.61
524.34	1714.15
524.54	1748.97
524.73	1726.44
524.93	1738.73
525.13	1695.72
525.33	1605.61
525.53	1804.26
525.73	1765.35
525.93	1722.34
526.13	1722.34
526.32	1746.92
526.52	1771.49
526.72	1755.11
526.92	1736.68
527.12	1726.44
527.32	1673.19
527.52	1722.34
527.71	1767.40
527.91	1691.62
528.11	1742.82
528.31	1716.20
528.51	1677.29
528.71	1767.40
528.90	1789.92
529.10	1818.60
529.30	1877.99
529.50	1601.51
529.70	1757.16
529.90	1681.38
530.09	1736.68
530.29	1679.33
530.49	1722.34
530.69	1902.56
530.89	1787.88
531.09	1738.73
531.28	1730.53
531.48	1785.83
531.68	1773.54
531.88	1710.05
532.08	1759.21
532.28	1685.48
532.47	1748.97
532.67	1763.30
532.87	1794.02
533.07	1751.01
533.27	1785.83
533.46	1773.54
533.66	1689.57
533.86	1665.00
534.06	1767.40
534.26	1732.58
534.45	1742.82
534.65	1779.68
534.85	1726.44
535.05	1738.73
535.25	1763.30
535.44	1689.57
535.64	1728.49
535.84	1740.77
536.04	1648.61
536.24	1714.15
536.43	1695.72
536.63	1738.73
536.83	1730.53
537.03	1671.14
537.22	1652.71
537.42	1611.75
537.62	1767.40
537.82	1691.62
538.02	1855.46
538.21	1869.80
538.41	1847.27
538.61	1785.83
538.81	1734.63
539.00	1714.15
539.20	1662.95
539.40	1734.63
539.60	1734.63
539.79	1767.40
539.99	1716.20
540.19	1648.61
540.39	1757.16
540.58	1695.72
540.78	1832.93
540.98	1761.25
541.18	1767.40
541.37	1736.68
541.57	1701.86
541.77	1724.39
541.97	1683.43
542.16	1603.56
542.36	1712.10
542.56	1642.47
542.76	1820.64
542.95	1830.88
543.15	1701.86
543.35	1722.34
543.54	1701.86
543.74	1611.75
543.94	1804.26
544.14	1724.39
544.33	1789.92
544.53	1673.19
544.73	1701.86
544.93	1685.48
545.12	1724.39
545.32	1796.07
545.52	1658.85
545.71	1673.19
545.91	1714.15
546.11	1748.97
546.30	1652.71
546.50	1730.53
546.70	1755.11
546.90	1765.35
547.09	1726.44
547.29	1679.33
547.49	1845.22
547.68	1734.63
547.88	1681.38
548.08	1691.62
548.27	2187.23
548.47	1673.19
548.67	1644.52
548.87	1828.84
549.06	1703.91
549.26	1726.44
549.46	1730.53
549.65	1667.05
549.85	1779.68
550.05	1763.30
550.24	1667.05
550.44	1730.53
550.64	1712.10
550.83	1695.72
551.03	1787.88
551.23	1822.69
551.42	1746.92
551.62	1693.67
551.82	1691.62
552.01	1691.62
552.21	1886.18
552.41	1738.73
552.60	1822.69
552.80	1695.72
553.00	1697.77
553.19	1683.43
553.39	1867.75
553.59	1703.91
553.78	1783.78
553.98	1718.25
554.17	1742.82
554.37	1740.77
554.57	1816.55
554.76	1708.01
554.96	1697.77
555.16	1722.34
555.35	1771.49
555.55	1796.07
555.75	1798.12
555.94	1773.54
556.14	1595.37
556.33	1720.29
556.53	1787.88
556.73	1718.25
556.92	1759.21
557.12	1812.45
557.32	1861.60
557.51	1802.21
557.71	1826.79
557.90	1785.83
558.10	1804.26
558.30	1722.34
558.49	1753.06
558.69	1697.77
558.88	1718.25
559.08	1691.62
559.28	1736.68
559.47	1751.01
559.67	1771.49
559.86	1824.74
560.06	1748.97
560.26	1724.39
560.45	1796.07
560.65	1667.05
560.84	1834.98
561.04	1693.67
561.24	1794.02
561.43	1597.42
561.63	1796.07
561.82	1677.29
562.02	1804.26
562.22	1617.90
562.41	1607.66
562.61	1720.29
562.80	1705.96
563.00	1834.98
563.19	1677.29
563.39	1773.54
563.59	1796.07
563.78	1701.86
563.98	1587.18
564.17	1685.48
564.37	1656.81
564.56	1742.82
564.76	1683.43
564.96	1839.08
565.15	1726.44
565.35	1851.36
565.54	1699.81
565.74	1748.97
565.93	1710.05
566.13	1746.92
566.32	1820.64
566.52	1806.31
566.71	1771.49
566.91	1757.16
567.11	1701.86
567.30	1720.29
567.50	1732.58
567.69	1816.55
567.89	1679.33
568.08	1775.59
568.28	1753.06
568.47	1665.00
568.67	1789.92
568.86	1640.42
569.06	1791.97
569.25	1789.92
569.45	1710.05
569.64	1591.27
569.84	1611.75
570.04	1681.38
570.23	1771.49
570.43	1679.33
570.62	1746.92
570.82	1923.04
571.01	1628.14
571.21	1667.05
571.40	1685.48
571.60	1796.07
571.79	1689.57
571.99	1783.78
572.18	1701.86
572.38	1689.57
572.57	1742.82
572.77	1859.56
572.96	1880.04
573.16	1791.97
573.35	1687.53
573.55	1832.93
573.74	1732.58
573.94	1644.52
574.13	1722.34
574.33	1812.45
574.52	1775.59
574.71	1679.33
574.91	1785.83
575.10	1656.81
575.30	1708.01
575.49	1701.86
575.69	1679.33
575.88	1720.29
576.08	1722.34
576.27	1769.44
576.47	1720.29
576.66	1841.12
576.86	1751.01
577.05	1714.15
577.25	1834.98
577.44	1896.42
577.64	1673.19
577.83	1765.35
578.02	1802.21
578.22	1820.64
578.41	1890.28
578.61	1710.05
578.80	1632.23
579.00	1759.21
579.19	1693.67
579.39	1740.77
579.58	1765.35
579.77	1722.34
579.97	1857.51
580.16	1755.11
580.36	1855.46
580.55	1759.21
580.75	1798.12
580.94	1753.06
581.13	1812.45
581.33	1843.17
581.52	1775.59
581.72	1839.08
581.91	1738.73
582.11	1669.09
582.30	1783.78
582.49	1748.97
582.69	1853.41
582.88	1806.31
583.08	1800.16
583.27	1763.30
583.47	1703.91
583.66	1708.01
583.85	1671.14
584.05	1746.92
584.24	1753.06
584.44	1763.30
584.63	1802.21
584.82	1789.92
585.02	1753.06
585.21	1871.84
585.41	1779.68
585.60	1832.93
585.79	1900.52
585.99	1888.23
586.18	1857.51
586.37	2205.66
586.57	3303.37
586.76	9885.55
586.96	24204.94
587.15	34217.46
587.34	40181.15
587.54	41973.12
587.73	36455.89
587.93	26457.71
588.12	21628.60
588.31	18255.59
588.51	16181.00
588.70	15169.30
588.89	14083.88
589.09	12724.03
589.28	11112.28
589.47	9398.13
589.67	7962.50
589.86	6252.45
590.06	5044.15
590.25	3936.20
590.44	3157.97
590.64	2582.49
590.83	2269.15
591.02	2140.13
591.22	1968.10
591.41	1884.13
591.60	1802.21
591.80	1980.39
591.99	1728.49
592.18	1804.26
592.38	1818.60
592.57	1779.68
592.76	1769.44
592.96	1726.44
593.15	1777.64
593.34	1918.95
593.54	1787.88
593.73	1759.21
593.92	1845.22
594.12	1773.54
594.31	1744.87
594.50	1873.89
594.70	1888.23
594.89	1849.32
595.08	1724.39
595.28	1746.92
595.47	1947.62
595.66	1789.92
595.86	1722.34
596.05	1787.88
596.24	1687.53
596.43	1800.16
596.63	1708.01
596.82	1779.68
597.01	1773.54
597.21	1859.56
597.40	1751.01
597.59	1714.15
597.79	1757.16
597.98	1785.83
598.17	1781.73
598.36	1708.01
598.56	1757.16
598.75	1777.64
598.94	1771.49
599.14	1746.92
599.33	1701.86
599.52	1800.16
599.71	1769.44
599.91	1814.50
600.10	1796.07
600.29	1746.92
600.48	1685.48
600.68	1703.91
600.87	1740.77
601.06	1691.62
601.26	1781.73
601.45	1740.77
601.64	1652.71
601.83	1783.78
602.03	1738.73
602.22	1767.40
602.41	1763.30
602.60	1888.23
602.80	1767.40
602.99	1781.73
603.18	1701.86
603.37	1648.61
603.57	1755.11
603.76	1685.48
603.95	1736.68
604.14	1755.11
604.34	1703.91
604.53	1740.77
604.72	1761.25
604.91	1705.96
605.10	1787.88
605.30	1630.18
605.49	1832.93
605.68	1789.92
605.87	1751.01
606.07	1685.48
606.26	1726.44
606.45	1771.49
606.64	1726.44
606.84	1708.01
607.03	1712.10
607.22	1726.44
607.41	1740.77
607.60	1722.34
607.80	1816.55
607.99	1771.49
608.18	1718.25
608.37	1695.72
608.56	1681.38
608.76	1763.30
608.95	1839.08
609.14	1718.25
609.33	1783.78
609.52	1738.73
609.72	1730.53
609.91	1771.49
610.10	1675.24
610.29	1789.92
610.48	1763.30
610.68	1724.39
610.87	1755.11
611.06	1767.40
611.25	1753.06
611.44	1806.31
611.63	1624.04
611.83	1837.03
612.02	1595.37
612.21	1804.26
612.40	1703.91
612.59	1599.46
612.79	1581.03
612.98	1710.05
613.17	1820.64
613.36	1720.29
613.55	1841.12
613.74	1691.62
613.93	1683.43
614.13	1705.96
614.32	1804.26
614.51	1845.22
614.70	1667.05
614.89	1675.24
615.08	1722.34
615.28	2025.44
615.47	1697.77
615.66	1710.05
615.85	1697.77
616.04	1771.49
616.23	1699.81
616.42	1730.53
616.62	1660.90
616.81	1716.20
617.00	1734.63
617.19	1763.30
617.38	1677.29
617.57	1681.38
617.76	1740.77
617.95	1771.49
618.15	1722.34
618.34	1830.88
618.53	1624.04
618.72	1734.63
618.91	1818.60
619.10	1824.74
619.29	1710.05
619.48	1693.67
619.68	1673.19
619.87	1693.67
620.06	1728.49
620.25	1794.02
620.44	1636.33
620.63	1701.86
620.82	1726.44
621.01	1728.49
621.20	1759.21
621.39	1691.62
621.59	1744.87
621.78	1667.05
621.97	1673.19
622.16	1757.16
622.35	1689.57
622.54	1810.40
622.73	1734.63
622.92	1648.61
623.11	1708.01
623.30	1615.85
623.49	1703.91
623.68	1673.19
623.88	1675.24
624.07	1691.62
624.26	1714.15
624.45	1759.21
624.64	1673.19
624.83	1628.14
625.02	1716.20
625.21	1724.39
625.40	1769.44
625.59	1845.22
625.78	1722.34
625.97	1837.03
626.16	1855.46
626.35	1738.73
626.54	1734.63
626.74	1812.45
626.93	1730.53
627.12	1656.81
627.31	1834.98
627.50	1779.68
627.69	1767.40
627.88	1701.86
628.07	1687.53
628.26	1626.09
628.45	1716.20
628.64	1658.85
628.83	1736.68
629.02	1669.09
629.21	1710.05
629.40	1724.39
629.59	1660.90
629.78	1640.42
629.97	1785.83
630.16	1763.30
630.35	1726.44
630.54	1757.16
630.73	1734.63
630.92	1740.77
631.11	1720.29
631.30	1705.96
631.49	1763.30
631.68	1630.18
631.87	1755.11
632.06	1648.61
632.25	1853.41
632.44	1742.82
632.63	1738.73
632.82	1656.81
633.01	1615.85
633.20	1697.77
633.39	1669.09
633.58	1632.23
633.77	1691.62
633.96	1810.40
634.15	1796.07
634.34	1689.57
634.53	1808.36
634.72	1667.05
634.91	1583.08
635.10	1697.77
635.29	1767.40
635.48	1699.81
635.67	1708.01
635.86	1667.05
636.05	1748.97
636.24	1730.53
636.43	1714.15
636.62	1716.20
636.81	1597.42
637.00	1718.25
637.19	1699.81
637.38	1812.45
637.57	1640.42
637.76	1773.54
637.95	1708.01
638.14	1740.77
638.33	1714.15
638.52	1665.00
638.71	1648.61
638.89	1642.47
639.08	1861.60
639.27	1755.11
639.46	1673.19
639.65	1824.74
639.84	1777.64
640.03	1732.58
640.22	1677.29
640.41	1787.88
640.60	1595.37
640.79	1626.09
640.98	1689.57
641.17	1705.96
641.36	1748.97
641.55	1705.96
641.74	1648.61
641.92	1638.38
642.11	1585.13
642.30	1730.53
642.49	1665.00
642.68	1685.48
642.87	1755.11
643.06	1701.86
643.25	1695.72
643.44	1669.09
643.63	1724.39
643.82	1748.97
644.00	1695.72
644.19	1712.10
644.38	1669.09
644.57	1806.31
644.76	1830.88
644.95	1632.23
645.14	1736.68
645.33	1734.63
645.52	1718.25
645.71	1626.09
645.89	1621.99
646.08	1660.90
646.27	1679.33
646.46	1771.49
646.65	1697.77
646.84	1748.97
647.03	1701.86
647.22	1763.30
647.40	1724.39
647.59	1665.00
647.78	1583.08
647.97	1699.81
648.16	1685.48
648.35	1781.73
648.54	1810.40
648.73	1718.25
648.91	1726.44
649.10	1708.01
649.29	1755.11
649.48	1667.05
649.67	1718.25
649.86	1644.52
650.05	1665.00
650.23	1722.34
650.42	1613.80
650.61	1755.11
650.80	1751.01
650.99	1832.93
651.18	1769.44
651.36	1812.45
651.55	1746.92
651.74	1728.49
651.93	1791.97
652.12	1679.33
652.31	1703.91
652.49	1697.77
652.68	1669.09
652.87	1738.73
653.06	1724.39
653.25	1796.07
653.44	1695.72
653.62	1888.23
653.81	1687.53
654.00	1699.81
654.19	1773.54
654.38	1814.50
654.56	1726.44
654.75	1742.82
654.94	1695.72
655.13	1714.15
655.32	1681.38
655.51	1757.16
655.69	1669.09
655.88	1777.64
656.07	1605.61
656.26	1681.38
656.45	1595.37
656.63	1689.57
656.82	1699.81
657.01	1828.84
657.20	1746.92
657.38	1773.54
657.57	1646.57
657.76	1578.98
657.95	1738.73
658.14	1650.66
658.32	1775.59
658.51	1642.47
658.70	1746.92
658.89	1763.30
659.08	1681.38
659.26	1748.97
659.45	1626.09
659.64	1736.68
659.83	1738.73
660.01	1898.47
660.20	1728.49
660.39	1806.31
660.58	1521.64
660.76	1773.54
660.95	1650.66
661.14	1673.19
661.33	1619.94
661.51	1662.95
661.70	1722.34
661.89	1673.19
662.08	1744.87
662.26	1669.09
662.45	1681.38
662.64	1779.68
662.83	1779.68
663.01	1660.90
663.20	1648.61
663.39	1738.73
663.58	1673.19
663.76	1724.39
663.95	1703.91
664.14	1615.85
664.32	1744.87
664.51	1714.15
664.70	1611.75
664.89	1742.82
665.07	1632.23
665.26	1761.25
665.45	1697.77
665.64	1726.44
665.82	1748.97
666.01	1787.88
666.20	1701.86
666.38	1800.16
666.57	1730.53
666.76	2179.04
666.95	4501.44
667.13	10237.80
667.32	14982.94
667.51	17581.81
667.69	19044.06
667.88	17673.97
668.07	12330.82
668.25	9523.05
668.44	8040.33
668.63	7255.95
668.81	6813.59
669.00	6215.59
669.19	5822.38
669.38	5050.29
669.56	4589.50
669.75	4159.42
669.94	3438.54
670.12	2813.91
670.31	2504.67
670.50	2297.82
670.68	2019.30
670.87	1898.47
671.06	1880.04
671.24	1798.12
671.43	1802.21
671.62	1771.49
671.80	1675.24
671.99	1677.29
672.18	1734.63
672.36	1787.88
672.55	1693.67
672.74	1746.92
672.92	1626.09
673.11	1732.58
673.29	1677.29
673.48	1787.88
673.67	1689.57
673.85	1779.68
674.04	1665.00
674.23	1689.57
674.41	1734.63
674.60	1617.90
674.79	1677.29
674.97	1650.66
675.16	1746.92
675.34	1787.88
675.53	1593.32
675.72	1751.01
675.90	1742.82
676.09	1712.10
676.28	1708.01
676.46	1621.99
676.65	1755.11
676.83	1679.33
677.02	1732.58
677.21	1673.19
677.39	1787.88
677.58	1587.18
677.77	1710.05
677.95	1693.67
678.14	1738.73
678.32	1710.05
678.51	1630.18
678.70	1841.12
678.88	1656.81
679.07	1697.77
679.25	1699.81
679.44	1654.76
679.63	1624.04
679.81	1724.39
680.00	1740.77
680.18	1732.58
680.37	1724.39
680.55	1685.48
680.74	1619.94
680.93	1531.88
681.11	1724.39
681.30	1738.73
681.48	1665.00
681.67	1712.10
681.85	1619.94
682.04	1728.49
682.23	1742.82
682.41	1689.57
682.60	1632.23
682.78	1691.62
682.97	1583.08
683.15	1777.64
683.34	1740.77
683.53	1730.53
683.71	1679.33
683.90	1798.12
684.08	1740.77
684.27	1705.96
684.45	1689.57
684.64	1820.64
684.82	1716.20
685.01	1785.83
685.19	1722.34
685.38	1855.46
685.57	1667.05
685.75	1689.57
685.94	1738.73
686.12	1634.28
686.31	1644.52
686.49	1841.12
686.68	1652.71
686.86	1710.05
687.05	1677.29
687.23	1812.45
687.42	1734.63
687.60	1660.90
687.79	1759.21
687.97	1718.25
688.16	1806.31
688.34	1742.82
688.53	1638.38
688.71	1689.57
688.90	1808.36
689.08	1705.96
689.27	1626.09
689.45	1738.73
689.64	1744.87
689.82	1775.59
690.01	1714.15
690.19	1730.53
690.38	1687.53
690.56	1791.97
690.75	1654.76
690.93	1667.05
691.12	1685.48
691.30	1785.83
691.49	1652.71
691.67	1689.57
691.86	1761.25
692.04	1718.25
692.23	1624.04
692.41	1701.86
692.60	1841.12
692.78	1681.38
692.97	1695.72
693.15	1726.44
693.34	1763.30
693.52	1767.40
693.71	1632.23
693.89	1705.96
694.08	1648.61
694.26	1777.64
694.44	1755.11
694.63	1738.73
694.81	1712.10
695.00	1613.80
695.18	1730.53
695.37	1865.70
695.55	1763.30
695.74	1689.57
695.92	1615.85
696.10	1724.39
696.29	1638.38
696.47	1636.33
696.66	1689.57
696.84	1605.61
697.03	1718.25
697.21	1914.85
697.40	2260.96
697.58	1796.07
697.76	1570.79
697.95	1677.29
698.13	1701.86
698.32	1675.24
698.50	1697.77
698.68	1699.81
698.87	1732.58
699.05	1787.88
699.24	1740.77
699.42	1615.85
699.61	1705.96
699.79	1738.73
699.97	1759.21
700.16	1652.71
700.34	1593.32
700.53	1677.29
700.71	1863.65
700.89	1798.12
701.08	1742.82
701.26	1759.21
701.45	2090.98
701.63	1648.61
701.81	1732.58
702.00	1665.00
702.18	1679.33
702.37	1665.00
702.55	1744.87
702.73	1724.39
702.92	1593.32
703.10	1744.87
703.28	1724.39
703.47	1630.18
703.65	1759.21
703.84	1722.34
704.02	1679.33
704.20	1820.64
704.39	1669.09
704.57	1714.15
704.75	1728.49
704.94	1742.82
705.12	1705.96
705.30	1824.74
705.49	2232.29
705.67	4296.64
705.86	9402.22
706.04	12613.44
706.22	14438.18
706.41	15212.31
706.59	13780.78
706.77	9615.21
706.96	7364.50
707.14	6545.31
707.32	5867.43
707.51	5654.44
707.69	4868.02
707.87	4190.14
708.06	3547.08
708.24	2998.23
708.42	2404.32
708.61	2199.52
708.79	1837.03
708.97	1894.37
709.16	1812.45
709.34	1794.02
709.52	1755.11
709.71	1777.64
709.89	1757.16
710.07	1640.42
710.26	1619.94
710.44	1738.73
710.62	1736.68
710.80	1693.67
710.99	1783.78
711.17	1791.97
711.35	1636.33
711.54	1695.72
711.72	1802.21
711.90	1802.21
712.09	1701.86
712.27	1591.27
712.45	1779.68
712.63	1753.06
712.82	1656.81
713.00	1746.92
713.18	1703.91
713.37	1695.72
713.55	1767.40
713.73	1679.33
713.91	1734.63
714.10	1673.19
714.28	1644.52
714.46	1787.88
714.65	1697.77
714.83	1720.29
715.01	1714.15
715.19	1712.10
715.38	1679.33
715.56	1744.87
715.74	1705.96
715.92	1634.28
716.11	1830.88
716.29	1689.57
716.47	1730.53
716.65	1648.61
716.84	1591.27
717.02	1662.95
717.20	1626.09
717.38	1697.77
717.57	1683.43
717.75	1714.15
717.93	1609.70
718.11	1730.53
718.30	1640.42
718.48	1730.53
718.66	1691.62
718.84	1755.11
719.03	1697.77
719.21	1652.71
719.39	1771.49
719.57	1777.64
719.75	1748.97
719.94	1746.92
720.12	1679.33
720.30	1683.43
720.48	1734.63
720.67	1673.19
720.85	1701.86
721.03	1658.85
721.21	1699.81
721.39	1828.84
721.58	1724.39
721.76	1626.09
721.94	1789.92
722.12	1746.92
722.30	1796.07
722.49	1742.82
722.67	1738.73
722.85	1732.58
723.03	1667.05
723.21	1681.38
723.40	1722.34
723.58	1787.88
723.76	1773.54
723.94	1769.44
724.12	1720.29
724.30	1751.01
724.49	1718.25
724.67	1613.80
724.85	1681.38
725.03	1650.66
725.21	1765.35
725.40	1826.79
725.58	1693.67
725.76	1742.82
725.94	1722.34
726.12	1660.90
726.30	1656.81
726.49	1597.42
726.67	1693.67
726.85	1746.92
727.03	1796.07
727.21	2101.22
727.39	2854.87
727.57	3846.09
727.76	4206.53
727.94	4411.32
728.12	4376.51
728.30	3786.69
728.48	3004.37
728.66	2750.42
728.84	2484.19
729.03	2234.33
729.21	2111.46
729.39	1994.72
729.57	1818.60
729.75	1828.84
729.93	1834.98
730.11	1771.49
730.30	1603.56
730.48	1689.57
730.66	1767.40
730.84	1740.77
731.02	1691.62
731.20	1615.85
731.38	1722.34
731.56	1626.09
731.74	1755.11
731.93	1720.29
732.11	1683.43
732.29	1636.33
732.47	1665.00
732.65	1738.73
732.83	1761.25
733.01	1673.19
733.19	1603.56
733.37	1751.01
733.56	1662.95
733.74	1705.96
733.92	1810.40
734.10	1708.01
734.28	1667.05
734.46	1505.26
734.64	1593.32
734.82	1656.81
735.00	1665.00
735.18	1681.38
735.36	1757.16
735.54	1748.97
735.73	1746.92
735.91	1732.58
736.09	1761.25
736.27	1609.70
736.45	1761.25
736.63	1632.23
736.81	1656.81
736.99	1746.92
737.17	1800.16
737.35	1681.38
737.53	1699.81
737.71	1685.48
737.89	1830.88
738.07	1632.23
738.25	1556.46
738.43	1677.29
738.61	1656.81
738.80	1601.51
738.98	1640.42
739.16	1650.66
739.34	1671.14
739.52	1808.36
739.70	1691.62
739.88	1763.30
740.06	1697.77
740.24	1630.18
740.42	1738.73
740.60	1652.71
740.78	1636.33
740.96	1642.47
741.14	1710.05
741.32	1732.58
741.50	1589.22
741.68	1800.16
741.86	1771.49
742.04	1617.90
742.22	1675.24
742.40	1705.96
742.58	1683.43
742.76	1654.76
742.94	1697.77
743.12	1626.09
743.30	1777.64
743.48	1720.29
743.66	1628.14
743.84	1691.62
744.02	1710.05
744.20	1722.34
744.38	1665.00
744.56	1665.00
744.74	1859.56
744.92	1677.29
745.10	1722.34
745.28	1724.39
745.46	1818.60
745.64	1677.29
745.82	1744.87
746.00	1775.59
746.18	1689.57
746.36	1701.86
746.54	1710.05
746.72	1724.39
746.90	1644.52
747.08	1769.44
747.26	1689.57
747.44	1687.53
747.62	1718.25
747.80	1714.15
747.98	1759.21
748.15	1693.67
748.33	1785.83
748.51	1679.33
748.69	1679.33
748.87	1656.81
749.05	1636.33
749.23	1724.39
749.41	1726.44
749.59	1648.61
749.77	1701.86
749.95	1746.92
750.13	1628.14
750.31	1757.16
750.49	1638.38
750.67	1718.25
750.85	1837.03
751.03	1710.05
751.20	1695.72
751.38	1679.33
751.56	1601.51
751.74	1675.24
751.92	1685.48
752.10	1675.24
752.28	1761.25
752.46	1632.23
752.64	1697.77
752.82	1726.44
753.00	1742.82
753.18	1658.85
753.35	1658.85
753.53	1675.24
753.71	1642.47
753.89	1769.44
754.07	1748.97
754.25	1724.39
754.43	1714.15
754.61	1626.09
754.79	1738.73
754.97	1712.10
755.14	1785.83
755.32	1609.70
755.50	1628.14
755.68	1662.95
755.86	1656.81
756.04	1662.95
756.22	1585.13
756.40	1722.34
756.57	1753.06
756.75	1712.10
756.93	1777.64
757.11	1732.58
757.29	1652.71
757.47	1630.18
757.65	1640.42
757.82	1558.50
758.00	1654.76
758.18	1669.09
758.36	1640.42
758.54	1787.88
758.72	1593.32
758.90	1730.53
759.07	1679.33
759.25	1679.33
759.43	1734.63
759.61	1687.53
759.79	2240.48
759.97	1773.54
760.15	1646.57
760.32	1693.67
760.50	1687.53
760.68	1828.84
760.86	1552.36
761.04	1773.54
761.22	1738.73
761.39	1806.31
761.57	1718.25
761.75	1648.61
761.93	1738.73
762.11	1712.10
762.28	1687.53
762.46	1658.85
762.64	1718.25
762.82	1538.02
763.00	1667.05
763.18	1765.35
763.35	1603.56
763.53	1697.77
763.71	1720.29
763.89	1648.61
764.07	1720.29
764.24	1685.48
764.42	1710.05
764.60	1642.47
764.78	1757.16
764.96	1726.44
765.13	1730.53
765.31	1566.70
765.49	1732.58
765.67	1648.61
765.84	1724.39
766.02	1677.29
766.20	1566.70
766.38	1671.14
766.56	1636.33
766.73	1738.73
766.91	1689.57
767.09	1703.91
767.27	1691.62
767.44	1646.57
767.62	1724.39
767.80	1697.77
767.98	1765.35
768.15	1671.14
768.33	1761.25
768.51	1712.10
768.69	1691.62
768.87	1755.11
769.04	1755.11
769.22	1802.21
769.40	1703.91
769.58	1877.99
769.75	1755.11
769.93	1775.59
770.11	1755.11
770.28	1609.70
770.46	1669.09
770.64	1699.81
770.82	1748.97
770.99	1644.52
771.17	1746.92
771.35	1697.77
771.53	1689.57
771.70	1763.30
771.88	1748.97
772.06	1789.92
772.23	1695.72
772.41	1740.77
772.59	1656.81
772.77	1576.94
772.94	1708.01
773.12	1697.77
773.30	1648.61
773.47	1718.25
773.65	1593.32
773.83	1794.02
774.01	1722.34
774.18	1593.32
774.36	1763.30
774.54	1685.48
774.71	1617.90
774.89	1576.94
775.07	1687.53
775.24	1730.53
775.42	1720.29
775.60	1787.88
775.78	1638.38
775.95	1732.58
776.13	1533.93
776.31	1587.18
776.48	1705.96
776.66	1781.73
776.84	1648.61
777.01	1654.76
777.19	1710.05
777.37	1648.61
777.54	1740.77
777.72	1814.50
777.90	1654.76
778.07	1703.91
778.25	1880.04
778.43	1769.44
778.60	1644.52
778.78	1689.57
778.96	1714.15
779.13	1679.33
779.31	1734.63
779.49	1636.33
779.66	1740.77
779.84	1658.85
780.01	1662.95
780.19	1656.81
780.37	1767.40
780.54	1724.39
780.72	1650.66
780.90	1691.62
781.07	1746.92
781.25	1687.53
781.43	1708.01
781.60	1626.09
781.78	1732.58
781.95	1658.85
782.13	1677.29
782.31	1671.14
782.48	1615.85
782.66	1751.01
782.83	1757.16
783.01	1718.25
783.19	1802.21
783.36	1660.90
783.54	1628.14
783.72	1771.49
783.89	1660.90
784.07	1703.91
784.24	1687.53
784.42	1755.11
784.60	1716.20
784.77	1746.92
784.95	1603.56
785.12	1755.11
785.30	1685.48
785.47	1540.07
785.65	1654.76
785.83	1712.10
786.00	1697.77
786.18	1691.62
786.35	1613.80
786.53	1660.90
786.71	1742.82
786.88	1681.38
787.06	1697.77
787.23	1660.90
787.41	1621.99
787.58	1699.81
787.76	1724.39
787.94	1673.19
788.11	1648.61
788.29	1587.18
788.46	1646.57
788.64	1654.76
788.81	1730.53
788.99	1673.19
789.16	1619.94
789.34	1685.48
789.52	1761.25
789.69	1660.90
789.87	1648.61
790.04	1695.72
790.22	1665.00
790.39	1851.36
790.57	1644.52
790.74	1638.38
790.92	1742.82
791.09	1607.66
791.27	1624.04
791.44	1675.24
791.62	1724.39
791.79	1751.01
791.97	1708.01
792.15	1880.04
792.32	1767.40
792.50	1693.67
792.67	1787.88
792.85	1824.74
793.02	1681.38
793.20	1601.51
793.37	1595.37
793.55	1751.01
793.72	1560.55
793.90	1779.68
794.07	1644.52
794.25	1665.00
794.42	1693.67
794.60	1687.53
794.77	1701.86
794.95	1787.88
795.12	1759.21
795.30	1601.51
795.47	1650.66
795.65	1861.60
795.82	1714.15
796.00	1642.47
796.17	1765.35
796.34	1681.38
796.52	1699.81
796.69	1755.11
796.87	1736.68
797.04	1783.78
797.22	1734.63
797.39	1681.38
797.57	1593.32
797.74	1699.81
797.92	1675.24
798.09	1650.66
798.27	1753.06
798.44	1642.47
798.62	1613.80
798.79	1689.57
798.96	1681.38
799.14	1675.24
799.31	1837.03
799.49	1644.52
799.66	1730.53
799.84	1736.68
800.01	1683.43
800.19	1681.38
800.36	1597.42
800.53	1722.34
800.71	1736.68
800.88	1812.45
801.06	1675.24
801.23	1595.37
801.41	1652.71
801.58	1656.81
801.75	1613.80
801.93	1765.35
802.10	1669.09
802.28	1665.00
802.45	1615.85
802.63	1769.44
802.80	1910.75
802.97	1679.33
803.15	1691.62
803.32	1675.24
803.50	1685.48
803.67	1675.24
803.84	1687.53
804.02	1701.86
804.19	1726.44
804.37	1578.98
804.54	1650.66
804.71	1654.76
804.89	1740.77
805.06	1646.57
805.24	1546.22
805.41	1603.56
805.58	1669.09
805.76	1787.88
805.93	1675.24
806.10	1742.82
806.28	1748.97
806.45	1744.87
806.63	1734.63
806.80	1738.73
806.97	1742.82
807.15	1671.14
807.32	1687.53
807.49	1716.20
807.67	1613.80
807.84	1716.20
808.01	1621.99
808.19	1828.84
808.36	1757.16
808.54	1705.96
808.71	1665.00
808.88	1714.15
809.06	1689.57
809.23	1757.16
809.40	1675.24
809.58	1705.96
809.75	1728.49
809.92	1640.42
810.10	1773.54
810.27	1665.00
810.44	1716.20
810.62	1699.81
810.79	1683.43
810.96	1695.72
811.14	1691.62
811.31	1775.59
811.48	1757.16
811.66	1699.81
811.83	1691.62
812.00	1681.38
812.18	1697.77
812.35	1824.74
812.52	1703.91
812.69	1640.42
812.87	1714.15
813.04	1640.42
813.21	1712.10
813.39	1628.14
813.56	1636.33
813.73	1753.06
813.91	1599.46
814.08	1724.39
814.25	1609.70
814.42	1691.62
814.60	1642.47
814.77	1712.10
814.94	1755.11
815.12	1695.72
815.29	1757.16
815.46	1693.67
815.63	1712.10
815.81	1687.53
815.98	1646.57
816.15	1708.01
816.33	1712.10
816.50	1607.66
816.67	1654.76
816.84	1697.77
817.02	1626.09
817.19	1660.90
817.36	1726.44
817.53	1660.90
817.71	1638.38
817.88	1755.11
818.05	1720.29
818.22	1665.00
818.40	1855.46
818.57	1601.51
818.74	1667.05
818.91	1591.27
819.09	1669.09
819.26	1710.05
819.43	1587.18
819.60	1726.44
819.78	1603.56
819.95	1787.88
820.12	1662.95
820.29	1820.64
820.47	1724.39
820.64	1656.81
820.81	1613.80
820.98	1626.09
821.15	1574.89
821.33	1777.64
821.50	1585.13
821.67	1730.53
821.84	1701.86
822.02	1658.85
822.19	1693.67
822.36	1648.61
822.53	1726.44
822.70	1665.00
822.88	1650.66
823.05	1765.35
823.22	1677.29
823.39	1816.55
823.56	1673.19
823.74	1847.27
823.91	1705.96
824.08	1619.94
824.25	1634.28
824.42	1763.30
824.60	1648.61
824.77	1722.34
824.94	1673.19
825.11	1667.05
825.28	1570.79
825.45	1714.15
825.63	1751.01
825.80	1656.81
825.97	1714.15
826.14	1763.30
826.31	1621.99
826.48	1716.20
826.66	1595.37
826.83	1624.04
827.00	1673.19
827.17	1658.85
827.34	1693.67
827.51	1730.53
827.69	1648.61
827.86	1599.46
828.03	1681.38
828.20	1726.44
828.37	1646.57
828.54	1736.68
828.71	1679.33
828.89	1787.88
829.06	1712.10
829.23	1724.39
829.40	1697.77
829.57	1617.90
829.74	1691.62
829.91	1722.34
830.09	1617.90
830.26	1736.68
830.43	1775.59
830.60	1722.34
830.77	1757.16
830.94	1708.01
831.11	1787.88
831.28	1691.62
831.46	1740.77
831.63	1656.81
831.80	1705.96
831.97	1701.86
832.14	1693.67
832.31	1705.96
832.48	1697.77
832.65	1730.53
832.82	1730.53
832.99	1695.72
833.17	1607.66
833.34	1691.62
833.51	1718.25
833.68	1615.85
833.85	1734.63
834.02	1640.42
834.19	1642.47
834.36	1628.14
834.53	1714.15
834.70	1771.49
834.87	1730.53
835.04	1728.49
835.22	1642.47
835.39	1638.38
835.56	1712.10
835.73	1667.05
835.90	1734.63
836.07	1658.85
836.24	1732.58
836.41	1689.57
836.58	1615.85
836.75	1779.68
836.92	1734.63
837.09	1681.38
837.26	1705.96
837.43	1675.24
837.60	1691.62
837.77	1665.00
837.94	1718.25
838.12	1730.53
838.29	1691.62
838.46	1603.56
838.63	1628.14
838.80	1791.97
838.97	1705.96
839.14	1701.86
839.31	1726.44
839.48	1621.99
839.65	1708.01
839.82	1730.53
839.99	1773.54
840.16	1660.90
840.33	1636.33
840.50	1665.00
840.67	1626.09
840.84	1581.03
841.01	1720.29
841.18	1716.20
841.35	1712.10
841.52	1796.07
841.69	1718.25
841.86	1667.05
842.03	1656.81
842.20	1722.34
842.37	1722.34
842.54	1699.81
842.71	1636.33
842.88	1630.18
843.05	1716.20
843.22	1675.24
843.39	1726.44
843.56	1662.95
843.73	1701.86
843.90	1740.77
844.07	1705.96
844.24	1658.85
844.41	1693.67
844.58	1656.81
844.75	1744.87
844.92	1656.81
845.09	1644.52
845.26	1617.90
845.43	1787.88
845.60	1671.14
845.77	1671.14
845.94	1697.77
846.10	1703.91
846.27	1591.27
846.44	1617.90
846.61	1628.14
846.78	1728.49
846.95	1744.87
847.12	1599.46
847.29	1685.48
847.46	1730.53
847.63	1736.68
847.80	1632.23
847.97	1722.34
848.14	1769.44
848.31	1642.47
848.48	1601.51
848.65	1732.58
848.82	1650.66
848.98	1722.34
849.15	1791.97
849.32	1742.82
849.49	1806.31
849.66	1665.00
849.83	1722.34
850.00	1626.09
850.17	1679.33
850.34	1701.86
850.51	1658.85
850.68	1708.01
850.85	1775.59
851.01	1681.38
851.18	1738.73
851.35	1705.96
851.52	1691.62
851.69	1738.73
851.86	1632.23
852.03	1648.61
852.20	1779.68
852.37	1632.23
852.53	1619.94
852.70	1693.67
852.87	1691.62
853.04	1757.16
853.21	1652.71
853.38	1705.96
853.55	1771.49
853.72	1814.50
853.89	1654.76
854.05	1683.43
854.22	1648.61
854.39	1714.15
854.56	1685.48
854.73	1722.34
854.90	1703.91
855.07	1699.81
855.23	1615.85
855.40	1646.57
855.57	1720.29
855.74	1583.08
855.91	1841.12
856.08	1685.48
856.25	1611.75
856.41	1683.43
856.58	1705.96
856.75	1740.77
856.92	1619.94
857.09	1761.25
857.26	1597.42
857.42	1613.80
857.59	1646.57
857.76	1748.97
857.93	1671.14
858.10	1662.95
858.27	1562.60
858.43	1683.43
858.60	1634.28
858.77	1693.67
858.94	1734.63
859.11	1771.49
859.27	1648.61
859.44	1656.81
859.61	1785.83
859.78	1742.82
859.95	1660.90
860.12	1689.57
860.28	1759.21
860.45	1820.64
860.62	1628.14
860.79	1693.67
860.95	1755.11
861.12	1654.76
861.29	1656.81
861.46	1691.62
861.63	1744.87
861.79	1681.38
861.96	1644.52
862.13	1642.47
862.30	1771.49
862.47	1669.09
862.63	1617.90
862.80	1751.01
862.97	1732.58
863.14	1673.19
863.30	1722.34
863.47	1583.08
863.64	1730.53
863.81	1687.53
863.97	1695.72
864.14	1683.43
864.31	1683.43
864.48	1736.68
864.65	1665.00
864.81	1714.15
864.98	1736.68
865.15	1806.31
865.32	1767.40
865.48	1769.44
865.65	1791.97
865.82	1742.82
865.98	1769.44
866.15	1685.48
866.32	1683.43
866.49	1652.71
866.65	1728.49
866.82	1613.80
866.99	1705.96
867.16	1665.00
867.32	1701.86
867.49	1689.57
867.66	1671.14
867.83	1613.80
867.99	1652.71
868.16	1699.81
868.33	1665.00
868.49	1660.90
868.66	1632.23
868.83	1740.77
868.99	1656.81
869.16	1738.73
869.33	1769.44
869.50	1695.72
869.66	1611.75
869.83	1691.62
870.00	1634.28
870.16	1673.19
870.33	1677.29
870.50	1814.50
870.66	1699.81
870.83	1800.16
871.00	1669.09
871.17	1689.57
871.33	1699.81
871.50	1673.19
871.67	1689.57
871.83	1701.86
872.00	1785.83
872.17	1634.28
872.33	1736.68
872.50	1753.06
872.67	1705.96
872.83	1710.05
873.00	1708.01
873.17	1652.71
873.33	1669.09
873.50	1746.92
873.67	1613.80
873.83	1656.81
874.00	1677.29
874.16	1757.16
874.33	1691.62
874.50	1658.85
874.66	1708.01
874.83	1675.24
875.00	1757.16
875.16	1746.92
875.33	1744.87
875.50	1595.37
875.66	1644.52
875.83	1718.25
875.99	1708.01
876.16	1730.53
876.33	1621.99
876.49	1595.37
876.66	1742.82
876.83	1718.25
876.99	1585.13
877.16	1744.87
877.32	1734.63
877.49	1658.85
877.66	1730.53
877.82	1783.78
877.99	1693.67
878.15	1779.68
878.32	1722.34
878.49	1734.63
878.65	1712.10
878.82	1751.01
878.98	1738.73
879.15	1714.15
879.32	1753.06
879.48	1656.81
879.65	1640.42
879.81	1671.14
879.98	1638.38
880.15	1665.00
880.31	1740.77
880.48	1671.14
880.64	1710.05
880.81	1660.90
880.97	1798.12
881.14	1775.59
881.31	1716.20
881.47	1875.94
881.64	1630.18
881.80	1568.74
881.97	1648.61
882.13	1759.21
882.30	1689.57
882.47	1665.00
882.63	1611.75
882.80	1621.99
882.96	1712.10
883.13	1802.21
883.29	1683.43
883.46	1636.33
883.62	1757.16
883.79	1679.33
883.95	1759.21
884.12	1665.00
884.29	1730.53
884.45	1714.15
884.62	1748.97
884.78	1624.04
884.95	1765.35
885.11	1656.81
885.28	1744.87
885.44	1660.90
885.61	1728.49
885.77	1757.16
885.94	1673.19
886.10	1589.22
886.27	1748.97
886.43	1804.26
886.60	1742.82
886.76	1607.66
886.93	1677.29
887.09	1646.57
887.26	1685.48
887.42	1667.05
887.59	1751.01
887.75	1751.01
887.92	1757.16
888.08	1742.82
888.25	1703.91
888.41	1722.34
888.58	1734.63
888.74	1658.85
888.91	1658.85
>>>>>End Processed Spectral Data<<<<<
