SpectraSuite Data File
++++++++++++++++++++++++++++++++++++
Date: Mon Jun 06 16:15:37 CEST 2016
User: root
Dark Spectrum Present: No
Reference Spectrum Present: No
Number of Sampled Component Spectra: 1
Spectrometers: USB4C02835
Integration Time (usec): 100000 (USB4C02835)
Spectra Averaged: 1 (USB4C02835)
Boxcar Smoothing: 0 (USB4C02835)
Correct for Electrical Dark: No (USB4C02835)
Strobe/Lamp Enabled: No (USB4C02835)
Correct for Detector Non-linearity: No (USB4C02835)
Correct for Stray Light: No (USB4C02835)
Number of Pixels in Processed Spectrum: 3648
>>>>>Begin Processed Spectral Data<<<<<
177.47	1452.01
177.69	1452.01
177.91	1452.01
178.13	1429.48
178.36	1460.20
178.58	1699.81
178.80	1820.64
179.02	1648.61
179.24	1691.62
179.46	1742.82
179.68	1736.68
179.90	1693.67
180.13	1789.92
180.35	1732.58
180.57	1708.01
180.79	1761.25
181.01	1691.62
181.23	1751.01
181.45	1810.40
181.67	1683.43
181.90	1779.68
182.12	1693.67
182.34	1689.57
182.56	1701.86
182.78	1740.77
183.00	1716.20
183.22	1759.21
183.44	1734.63
183.66	1812.45
183.89	1824.74
184.11	1656.81
184.33	1710.05
184.55	1738.73
184.77	1781.73
184.99	1775.59
185.21	1667.05
185.43	1779.68
185.65	1736.68
185.87	1648.61
186.10	1804.26
186.32	1748.97
186.54	1751.01
186.76	1757.16
186.98	1779.68
187.20	1744.87
187.42	1814.50
187.64	1775.59
187.86	1763.30
188.08	1828.84
188.30	1658.85
188.52	1726.44
188.75	1669.09
188.97	1882.08
189.19	1644.52
189.41	1751.01
189.63	1716.20
189.85	1697.77
190.07	1685.48
190.29	1640.42
190.51	1775.59
190.73	1662.95
190.95	1701.86
191.17	1671.14
191.39	1660.90
191.61	1685.48
191.84	1644.52
192.06	1773.54
192.28	1609.70
192.50	1902.56
192.72	1791.97
192.94	1656.81
193.16	1761.25
193.38	1775.59
193.60	1685.48
193.82	1771.49
194.04	1814.50
194.26	1738.73
194.48	1677.29
194.70	1708.01
194.92	1697.77
195.14	1775.59
195.36	1714.15
195.58	1779.68
195.80	1744.87
196.02	1634.28
196.24	1701.86
196.46	1730.53
196.69	1685.48
196.91	1892.32
197.13	1654.76
197.35	1656.81
197.57	1812.45
197.79	1777.64
198.01	1818.60
198.23	1714.15
198.45	1783.78
198.67	1601.51
198.89	1726.44
199.11	1773.54
199.33	1746.92
199.55	1576.94
199.77	1669.09
199.99	1851.36
200.21	1683.43
200.43	1708.01
200.65	1607.66
200.87	1591.27
201.09	1701.86
201.31	1687.53
201.53	1710.05
201.75	1722.34
201.97	1697.77
202.19	1701.86
202.41	1796.07
202.63	1791.97
202.85	1767.40
203.07	1785.83
203.29	1734.63
203.51	1677.29
203.73	1724.39
203.95	1839.08
204.17	1699.81
204.39	1730.53
204.61	1701.86
204.83	1689.57
205.05	1789.92
205.27	1779.68
205.49	1849.32
205.71	1665.00
205.93	1601.51
206.15	1755.11
206.37	1736.68
206.59	1652.71
206.81	1685.48
207.03	1574.89
207.25	1619.94
207.47	1771.49
207.69	1740.77
207.91	1771.49
208.13	1740.77
208.34	1669.09
208.56	1699.81
208.78	1716.20
209.00	1683.43
209.22	1705.96
209.44	1611.75
209.66	1705.96
209.88	1628.14
210.10	1619.94
210.32	1710.05
210.54	1818.60
210.76	1675.24
210.98	1759.21
211.20	1613.80
211.42	1705.96
211.64	1742.82
211.86	1802.21
212.08	1800.16
212.30	1720.29
212.52	1755.11
212.74	1722.34
212.96	1759.21
213.17	1751.01
213.39	1740.77
213.61	1822.69
213.83	1693.67
214.05	1628.14
214.27	1806.31
214.49	1695.72
214.71	1650.66
214.93	1738.73
215.15	1710.05
215.37	1724.39
215.59	1574.89
215.81	1751.01
216.03	1794.02
216.24	1681.38
216.46	1658.85
216.68	1722.34
216.90	1761.25
217.12	1746.92
217.34	1736.68
217.56	1800.16
217.78	1800.16
218.00	1705.96
218.22	1804.26
218.44	1812.45
218.66	1683.43
218.87	1740.77
219.09	1722.34
219.31	1742.82
219.53	1800.16
219.75	1652.71
219.97	1734.63
220.19	1685.48
220.41	1662.95
220.63	1757.16
220.85	1732.58
221.06	1732.58
221.28	1787.88
221.50	1824.74
221.72	1779.68
221.94	1730.53
222.16	1687.53
222.38	1853.41
222.60	1828.84
222.82	1730.53
223.03	1812.45
223.25	1744.87
223.47	1751.01
223.69	1812.45
223.91	1796.07
224.13	1681.38
224.35	1687.53
224.57	1714.15
224.78	1687.53
225.00	1718.25
225.22	1773.54
225.44	1765.35
225.66	1716.20
225.88	1634.28
226.10	1699.81
226.32	1771.49
226.53	1783.78
226.75	1769.44
226.97	1724.39
227.19	1665.00
227.41	1677.29
227.63	1691.62
227.85	1593.32
228.06	1708.01
228.28	1675.24
228.50	1783.78
228.72	1669.09
228.94	1714.15
229.16	1640.42
229.37	1665.00
229.59	1683.43
229.81	1765.35
230.03	1751.01
230.25	1583.08
230.47	1652.71
230.69	1634.28
230.90	1677.29
231.12	1675.24
231.34	1753.06
231.56	1736.68
231.78	1669.09
232.00	1658.85
232.21	1738.73
232.43	1677.29
232.65	1640.42
232.87	1718.25
233.09	1650.66
233.30	1695.72
233.52	1746.92
233.74	1630.18
233.96	1730.53
234.18	1763.30
234.40	1736.68
234.61	1847.27
234.83	1662.95
235.05	1671.14
235.27	1869.80
235.49	1744.87
235.70	1755.11
235.92	1796.07
236.14	1679.33
236.36	1800.16
236.58	1640.42
236.79	1689.57
237.01	1716.20
237.23	1693.67
237.45	1820.64
237.67	1677.29
237.88	1759.21
238.10	1800.16
238.32	1607.66
238.54	1703.91
238.76	1701.86
238.97	1673.19
239.19	1609.70
239.41	1816.55
239.63	1769.44
239.85	1722.34
240.06	1746.92
240.28	1703.91
240.50	1738.73
240.72	1701.86
240.93	1740.77
241.15	1701.86
241.37	1728.49
241.59	1808.36
241.81	1701.86
242.02	1595.37
242.24	1769.44
242.46	1796.07
242.68	1591.27
242.89	1783.78
243.11	1794.02
243.33	1703.91
243.55	1695.72
243.76	1714.15
243.98	1675.24
244.20	1763.30
244.42	1687.53
244.64	1716.20
244.85	1640.42
245.07	1632.23
245.29	1751.01
245.51	1626.09
245.72	1732.58
245.94	1753.06
246.16	1699.81
246.38	1771.49
246.59	1648.61
246.81	1703.91
247.03	1675.24
247.24	1634.28
247.46	1667.05
247.68	1785.83
247.90	1714.15
248.11	1718.25
248.33	1714.15
248.55	1724.39
248.77	1701.86
248.98	1779.68
249.20	1816.55
249.42	1697.77
249.64	1757.16
249.85	1681.38
250.07	1652.71
250.29	1722.34
250.50	1777.64
250.72	1656.81
250.94	1753.06
251.16	1796.07
251.37	1712.10
251.59	1699.81
251.81	1730.53
252.02	1800.16
252.24	1722.34
252.46	1837.03
252.68	1665.00
252.89	1683.43
253.11	1634.28
253.33	1931.23
253.54	1755.11
253.76	1716.20
253.98	1726.44
254.20	1722.34
254.41	1634.28
254.63	1665.00
254.85	1650.66
255.06	1685.48
255.28	1759.21
255.50	1722.34
255.71	1726.44
255.93	1669.09
256.15	1693.67
256.36	1695.72
256.58	1693.67
256.80	1667.05
257.02	1738.73
257.23	1714.15
257.45	1699.81
257.67	1751.01
257.88	1716.20
258.10	1757.16
258.32	1675.24
258.53	1775.59
258.75	1779.68
258.97	1708.01
259.18	1650.66
259.40	1669.09
259.62	1812.45
259.83	1773.54
260.05	1755.11
260.27	1970.15
260.48	1767.40
260.70	1662.95
260.92	1675.24
261.13	1691.62
261.35	1794.02
261.57	1716.20
261.78	1691.62
262.00	1624.04
262.22	1679.33
262.43	1683.43
262.65	1671.14
262.86	1703.91
263.08	1806.31
263.30	1716.20
263.51	1671.14
263.73	1724.39
263.95	1773.54
264.16	1703.91
264.38	1736.68
264.60	1677.29
264.81	1730.53
265.03	1751.01
265.25	1722.34
265.46	1710.05
265.68	1798.12
265.89	1736.68
266.11	1665.00
266.33	1800.16
266.54	1867.75
266.76	1705.96
266.98	1689.57
267.19	1771.49
267.41	1775.59
267.62	1726.44
267.84	1630.18
268.06	1757.16
268.27	1687.53
268.49	1734.63
268.70	1748.97
268.92	1691.62
269.14	1671.14
269.35	1632.23
269.57	1708.01
269.79	1738.73
270.00	1732.58
270.22	1826.79
270.43	1632.23
270.65	1646.57
270.87	1726.44
271.08	1763.30
271.30	1701.86
271.51	1710.05
271.73	1748.97
271.95	1798.12
272.16	1724.39
272.38	1667.05
272.59	1722.34
272.81	1816.55
273.02	1695.72
273.24	1781.73
273.46	1771.49
273.67	1652.71
273.89	1638.38
274.10	1669.09
274.32	1751.01
274.54	1730.53
274.75	1736.68
274.97	1665.00
275.18	1763.30
275.40	1796.07
275.61	1716.20
275.83	1771.49
276.05	1648.61
276.26	1634.28
276.48	1728.49
276.69	1765.35
276.91	1716.20
277.12	1738.73
277.34	1769.44
277.55	1757.16
277.77	1708.01
277.99	1714.15
278.20	1656.81
278.42	1675.24
278.63	1681.38
278.85	1611.75
279.06	1617.90
279.28	1716.20
279.49	1724.39
279.71	1796.07
279.93	1695.72
280.14	1650.66
280.36	1697.77
280.57	1763.30
280.79	1779.68
281.00	1708.01
281.22	1714.15
281.43	1791.97
281.65	1669.09
281.86	1699.81
282.08	1734.63
282.29	1791.97
282.51	1615.85
282.73	1667.05
282.94	1615.85
283.16	1796.07
283.37	1767.40
283.59	1652.71
283.80	1824.74
284.02	1757.16
284.23	1767.40
284.45	1667.05
284.66	1710.05
284.88	1652.71
285.09	1703.91
285.31	1665.00
285.52	1728.49
285.74	1609.70
285.95	1761.25
286.17	1724.39
286.38	1699.81
286.60	1679.33
286.81	1724.39
287.03	1673.19
287.24	1685.48
287.46	1744.87
287.67	1728.49
287.89	1812.45
288.10	1718.25
288.32	1726.44
288.53	1855.46
288.75	1722.34
288.96	1732.58
289.18	1710.05
289.39	1732.58
289.61	1808.36
289.82	1814.50
290.04	1783.78
290.25	1669.09
290.47	1712.10
290.68	1710.05
290.90	1796.07
291.11	1583.08
291.33	1710.05
291.54	1673.19
291.76	1740.77
291.97	1767.40
292.18	1740.77
292.40	1628.14
292.61	1681.38
292.83	1861.60
293.04	1660.90
293.26	1714.15
293.47	1736.68
293.69	1656.81
293.90	1689.57
294.12	1769.44
294.33	1734.63
294.55	1701.86
294.76	1789.92
294.97	1820.64
295.19	1859.56
295.40	1732.58
295.62	1720.29
295.83	1816.55
296.05	1673.19
296.26	1771.49
296.48	1669.09
296.69	1699.81
296.90	1693.67
297.12	1796.07
297.33	1818.60
297.55	1734.63
297.76	1740.77
297.98	1877.99
298.19	1648.61
298.41	1656.81
298.62	1613.80
298.83	1798.12
299.05	1685.48
299.26	1648.61
299.48	1728.49
299.69	1728.49
299.90	1722.34
300.12	1722.34
300.33	1701.86
300.55	1724.39
300.76	1787.88
300.98	1724.39
301.19	1716.20
301.40	1740.77
301.62	1708.01
301.83	1763.30
302.05	1697.77
302.26	1714.15
302.47	1738.73
302.69	1597.42
302.90	1695.72
303.12	1597.42
303.33	1730.53
303.54	1804.26
303.76	1732.58
303.97	1761.25
304.19	1832.93
304.40	1658.85
304.61	1763.30
304.83	1839.08
305.04	1787.88
305.26	1814.50
305.47	1632.23
305.68	1724.39
305.90	1585.13
306.11	1744.87
306.33	1697.77
306.54	1703.91
306.75	1662.95
306.97	1658.85
307.18	1691.62
307.39	1716.20
307.61	1757.16
307.82	1632.23
308.04	1787.88
308.25	1708.01
308.46	1712.10
308.68	1708.01
308.89	1705.96
309.10	1757.16
309.32	1718.25
309.53	1730.53
309.74	1773.54
309.96	1693.67
310.17	1767.40
310.39	1691.62
310.60	1779.68
310.81	1671.14
311.03	1640.42
311.24	1695.72
311.45	1646.57
311.67	1834.98
311.88	1689.57
312.09	1667.05
312.31	1660.90
312.52	1730.53
312.73	1669.09
312.95	1665.00
313.16	1599.46
313.37	1783.78
313.59	1675.24
313.80	1734.63
314.01	1810.40
314.23	1644.52
314.44	1673.19
314.65	1693.67
314.87	1689.57
315.08	1708.01
315.29	1673.19
315.51	1665.00
315.72	1634.28
315.93	1820.64
316.15	1781.73
316.36	1615.85
316.57	1701.86
316.79	1767.40
317.00	1718.25
317.21	1781.73
317.43	1605.61
317.64	1705.96
317.85	1652.71
318.07	1660.90
318.28	1726.44
318.49	1779.68
318.70	1869.80
318.92	1867.75
319.13	1902.56
319.34	1873.89
319.56	1828.84
319.77	1816.55
319.98	1763.30
320.20	1810.40
320.41	1773.54
320.62	1787.88
320.83	1640.42
321.05	1837.03
321.26	1802.21
321.47	1703.91
321.69	1808.36
321.90	1673.19
322.11	1689.57
322.32	1671.14
322.54	1804.26
322.75	1675.24
322.96	1812.45
323.18	1613.80
323.39	1648.61
323.60	1619.94
323.81	1720.29
324.03	1683.43
324.24	1712.10
324.45	1732.58
324.66	1714.15
324.88	1775.59
325.09	1808.36
325.30	1728.49
325.52	1716.20
325.73	1699.81
325.94	1644.52
326.15	1642.47
326.37	1687.53
326.58	1765.35
326.79	1757.16
327.00	1720.29
327.22	1765.35
327.43	1732.58
327.64	1624.04
327.85	1685.48
328.07	1765.35
328.28	1787.88
328.49	1656.81
328.70	1699.81
328.92	1744.87
329.13	1675.24
329.34	1734.63
329.55	1865.70
329.76	1787.88
329.98	1699.81
330.19	1843.17
330.40	1703.91
330.61	1710.05
330.83	1730.53
331.04	1677.29
331.25	1673.19
331.46	1703.91
331.68	1617.90
331.89	1771.49
332.10	1738.73
332.31	1638.38
332.52	1751.01
332.74	1748.97
332.95	1597.42
333.16	1693.67
333.37	1771.49
333.58	1673.19
333.80	1683.43
334.01	1652.71
334.22	1730.53
334.43	1634.28
334.64	1718.25
334.86	1675.24
335.07	1662.95
335.28	1802.21
335.49	1669.09
335.70	1685.48
335.92	1779.68
336.13	1783.78
336.34	1757.16
336.55	1703.91
336.76	1699.81
336.98	1558.50
337.19	1660.90
337.40	1765.35
337.61	1816.55
337.82	1726.44
338.04	1726.44
338.25	1667.05
338.46	1695.72
338.67	1638.38
338.88	1708.01
339.09	1673.19
339.31	1675.24
339.52	1628.14
339.73	1607.66
339.94	1724.39
340.15	1712.10
340.36	1718.25
340.58	1730.53
340.79	1671.14
341.00	1740.77
341.21	1626.09
341.42	1828.84
341.63	1701.86
341.85	1714.15
342.06	1699.81
342.27	1648.61
342.48	1701.86
342.69	1634.28
342.90	1701.86
343.12	1701.86
343.33	1656.81
343.54	1763.30
343.75	1869.80
343.96	1660.90
344.17	1695.72
344.38	1722.34
344.60	1642.47
344.81	1681.38
345.02	1617.90
345.23	1771.49
345.44	1763.30
345.65	1746.92
345.86	1791.97
346.07	1767.40
346.29	1673.19
346.50	1802.21
346.71	1767.40
346.92	1724.39
347.13	1869.80
347.34	1781.73
347.55	1724.39
347.76	1671.14
347.98	1619.94
348.19	1677.29
348.40	1779.68
348.61	1665.00
348.82	1761.25
349.03	1683.43
349.24	1685.48
349.45	1857.51
349.66	1613.80
349.88	1701.86
350.09	1722.34
350.30	1755.11
350.51	1888.23
350.72	1722.34
350.93	1691.62
351.14	1658.85
351.35	1724.39
351.56	1714.15
351.77	1599.46
351.99	1691.62
352.20	1837.03
352.41	1716.20
352.62	1626.09
352.83	1714.15
353.04	1726.44
353.25	1681.38
353.46	1845.22
353.67	1857.51
353.88	1613.80
354.09	1761.25
354.30	1724.39
354.52	1796.07
354.73	1650.66
354.94	1710.05
355.15	1736.68
355.36	1783.78
355.57	1652.71
355.78	1718.25
355.99	1720.29
356.20	1765.35
356.41	1839.08
356.62	1740.77
356.83	1755.11
357.04	1730.53
357.25	1589.22
357.46	1695.72
357.68	1656.81
357.89	1691.62
358.10	1714.15
358.31	1687.53
358.52	1714.15
358.73	1677.29
358.94	1697.77
359.15	1710.05
359.36	1742.82
359.57	1681.38
359.78	1732.58
359.99	1787.88
360.20	1658.85
360.41	1712.10
360.62	1771.49
360.83	1619.94
361.04	1765.35
361.25	1798.12
361.46	1753.06
361.67	1730.53
361.88	1818.60
362.09	1736.68
362.30	1765.35
362.51	1660.90
362.72	1716.20
362.93	1761.25
363.14	1744.87
363.35	1652.71
363.56	1658.85
363.78	1828.84
363.99	1712.10
364.20	1679.33
364.41	1740.77
364.62	1812.45
364.83	1771.49
365.04	1697.77
365.25	1669.09
365.46	1791.97
365.67	1671.14
365.88	1646.57
366.09	1658.85
366.30	1722.34
366.51	1705.96
366.72	1560.55
366.93	1742.82
367.14	1726.44
367.35	1837.03
367.56	1654.76
367.77	1746.92
367.98	1789.92
368.18	1710.05
368.39	1726.44
368.60	1667.05
368.81	1800.16
369.02	1718.25
369.23	1779.68
369.44	1658.85
369.65	1744.87
369.86	1673.19
370.07	1783.78
370.28	1638.38
370.49	1771.49
370.70	1703.91
370.91	1591.27
371.12	1648.61
371.33	1783.78
371.54	1624.04
371.75	1785.83
371.96	1585.13
372.17	1714.15
372.38	1771.49
372.59	1734.63
372.80	1667.05
373.01	1744.87
373.22	1710.05
373.43	1781.73
373.64	1636.33
373.85	1763.30
374.06	1814.50
374.26	1742.82
374.47	1746.92
374.68	1834.98
374.89	1808.36
375.10	1689.57
375.31	1748.97
375.52	1732.58
375.73	1746.92
375.94	1617.90
376.15	1773.54
376.36	1669.09
376.57	1708.01
376.78	1658.85
376.99	1728.49
377.20	1912.80
377.40	1712.10
377.61	1826.79
377.82	1632.23
378.03	1812.45
378.24	1767.40
378.45	1660.90
378.66	1769.44
378.87	1679.33
379.08	1654.76
379.29	1722.34
379.50	1765.35
379.71	1675.24
379.91	1804.26
380.12	1722.34
380.33	1673.19
380.54	1712.10
380.75	1755.11
380.96	1658.85
381.17	1789.92
381.38	1728.49
381.59	1738.73
381.80	1746.92
382.00	1787.88
382.21	1687.53
382.42	1816.55
382.63	1849.32
382.84	1746.92
383.05	1824.74
383.26	1830.88
383.47	1740.77
383.68	1763.30
383.88	1736.68
384.09	1685.48
384.30	1837.03
384.51	1742.82
384.72	1685.48
384.93	1718.25
385.14	1820.64
385.35	1787.88
385.55	1656.81
385.76	1763.30
385.97	1705.96
386.18	1667.05
386.39	1667.05
386.60	1695.72
386.81	1691.62
387.02	1595.37
387.22	1697.77
387.43	1849.32
387.64	1779.68
387.85	1847.27
388.06	2222.05
388.27	4155.33
388.48	6670.23
388.68	8185.73
388.89	9471.86
389.10	9688.94
389.31	8730.49
389.52	7425.93
389.73	6637.47
389.93	6111.14
390.14	5877.67
390.35	5060.53
390.56	4593.59
390.77	3733.45
390.98	3061.71
391.18	2576.34
391.39	2133.98
391.60	1837.03
391.81	1796.07
392.02	1816.55
392.23	1857.51
392.43	1755.11
392.64	1781.73
392.85	1816.55
393.06	1943.52
393.27	1734.63
393.47	1693.67
393.68	1734.63
393.89	1708.01
394.10	1861.60
394.31	1724.39
394.52	1693.67
394.72	1660.90
394.93	1771.49
395.14	1611.75
395.35	1740.77
395.56	1720.29
395.76	1671.14
395.97	1783.78
396.18	1857.51
396.39	1814.50
396.60	2084.83
396.80	1855.46
397.01	1849.32
397.22	1826.79
397.43	1943.52
397.64	1755.11
397.84	1736.68
398.05	1869.80
398.26	1699.81
398.47	1783.78
398.67	1843.17
398.88	1734.63
399.09	1771.49
399.30	1665.00
399.51	1746.92
399.71	1695.72
399.92	1798.12
400.13	1728.49
400.34	1740.77
400.54	1724.39
400.75	1857.51
400.96	1796.07
401.17	1869.80
401.37	1699.81
401.58	1697.77
401.79	1742.82
402.00	1877.99
402.21	1982.43
402.41	2015.20
402.62	1912.80
402.83	2068.45
403.04	2007.01
403.24	2054.11
403.45	1875.94
403.66	1843.17
403.87	1871.84
404.07	1968.10
404.28	1900.52
404.49	1908.71
404.70	1824.74
404.90	1730.53
405.11	1652.71
405.32	1738.73
405.52	1677.29
405.73	1708.01
405.94	1685.48
406.15	1710.05
406.35	1796.07
406.56	1775.59
406.77	1714.15
406.98	1699.81
407.18	1689.57
407.39	1882.08
407.60	1724.39
407.80	1757.16
408.01	1656.81
408.22	1781.73
408.43	1726.44
408.63	1783.78
408.84	1773.54
409.05	1767.40
409.25	1669.09
409.46	1609.70
409.67	1728.49
409.88	1632.23
410.08	1736.68
410.29	1691.62
410.50	1689.57
410.70	1761.25
410.91	1656.81
411.12	1722.34
411.32	1730.53
411.53	1695.72
411.74	1789.92
411.95	1785.83
412.15	1716.20
412.36	1820.64
412.57	1728.49
412.77	1806.31
412.98	1763.30
413.19	1775.59
413.39	1744.87
413.60	1763.30
413.81	1832.93
414.01	1716.20
414.22	1761.25
414.43	1734.63
414.63	1677.29
414.84	1808.36
415.05	1699.81
415.25	1626.09
415.46	1734.63
415.67	1732.58
415.87	1652.71
416.08	1781.73
416.29	1716.20
416.49	1796.07
416.70	1710.05
416.91	1775.59
417.11	1771.49
417.32	1818.60
417.53	1767.40
417.73	1726.44
417.94	1732.58
418.15	1765.35
418.35	1732.58
418.56	1751.01
418.77	1886.18
418.97	1724.39
419.18	1777.64
419.38	1632.23
419.59	1644.52
419.80	1763.30
420.00	1675.24
420.21	1718.25
420.42	1738.73
420.62	1863.65
420.83	1781.73
421.04	1730.53
421.24	1718.25
421.45	1802.21
421.65	1701.86
421.86	1724.39
422.07	1779.68
422.27	1726.44
422.48	1728.49
422.69	1656.81
422.89	1708.01
423.10	1617.90
423.30	1681.38
423.51	1804.26
423.72	1773.54
423.92	1757.16
424.13	1667.05
424.33	1753.06
424.54	1742.82
424.75	1800.16
424.95	1791.97
425.16	1787.88
425.36	1722.34
425.57	1671.14
425.78	1806.31
425.98	1798.12
426.19	1669.09
426.39	1701.86
426.60	1718.25
426.81	1789.92
427.01	1726.44
427.22	1736.68
427.42	1595.37
427.63	1718.25
427.83	1771.49
428.04	1710.05
428.25	1849.32
428.45	1763.30
428.66	1779.68
428.86	1697.77
429.07	1695.72
429.28	1705.96
429.48	1734.63
429.69	1677.29
429.89	1703.91
430.10	1697.77
430.30	1785.83
430.51	1734.63
430.71	1669.09
430.92	1755.11
431.13	1650.66
431.33	1832.93
431.54	1769.44
431.74	1812.45
431.95	1746.92
432.15	1685.48
432.36	1705.96
432.56	1761.25
432.77	1834.98
432.98	1828.84
433.18	1761.25
433.39	1675.24
433.59	1751.01
433.80	1773.54
434.00	1880.04
434.21	1613.80
434.41	1630.18
434.62	1847.27
434.82	1734.63
435.03	1671.14
435.23	1751.01
435.44	1636.33
435.64	1742.82
435.85	1697.77
436.06	1789.92
436.26	1789.92
436.47	1689.57
436.67	1681.38
436.88	1703.91
437.08	1740.77
437.29	1886.18
437.49	1691.62
437.70	1830.88
437.90	1751.01
438.11	1804.26
438.31	1791.97
438.52	1863.65
438.72	1859.56
438.93	1951.71
439.13	1837.03
439.34	1884.13
439.54	1769.44
439.75	1767.40
439.95	1808.36
440.16	1771.49
440.36	1740.77
440.57	1765.35
440.77	1781.73
440.98	1716.20
441.18	1783.78
441.39	1701.86
441.59	1665.00
441.80	1886.18
442.00	1699.81
442.21	1816.55
442.41	1585.13
442.62	1736.68
442.82	1662.95
443.02	1761.25
443.23	1732.58
443.43	1761.25
443.64	1849.32
443.84	1671.14
444.05	1765.35
444.25	1744.87
444.46	1718.25
444.66	1710.05
444.87	1832.93
445.07	1675.24
445.28	1726.44
445.48	1857.51
445.69	1816.55
445.89	1865.70
446.09	1742.82
446.30	1959.91
446.50	2701.27
446.71	3561.42
446.91	4317.12
447.12	4681.66
447.32	4810.68
447.53	4501.44
447.73	3796.93
447.93	3575.75
448.14	3270.61
448.34	3235.79
448.55	2840.53
448.75	2893.78
448.96	2772.95
449.16	2455.51
449.36	2248.67
449.57	2027.49
449.77	1933.28
449.98	1796.07
450.18	1800.16
450.39	1779.68
450.59	1789.92
450.79	1806.31
451.00	1742.82
451.20	1757.16
451.41	1718.25
451.61	1806.31
451.81	1654.76
452.02	1726.44
452.22	1718.25
452.43	1671.14
452.63	1734.63
452.84	1779.68
453.04	1730.53
453.24	1730.53
453.45	1720.29
453.65	1660.90
453.86	1710.05
454.06	1759.21
454.26	1740.77
454.47	1771.49
454.67	1877.99
454.87	1791.97
455.08	1740.77
455.28	1796.07
455.49	1830.88
455.69	1681.38
455.89	1886.18
456.10	1828.84
456.30	1800.16
456.51	1783.78
456.71	1734.63
456.91	1757.16
457.12	1755.11
457.32	1742.82
457.52	1708.01
457.73	1742.82
457.93	1779.68
458.14	1728.49
458.34	1708.01
458.54	1687.53
458.75	1783.78
458.95	1791.97
459.15	1732.58
459.36	1753.06
459.56	1841.12
459.76	1886.18
459.97	1699.81
460.17	1736.68
460.37	1787.88
460.58	1808.36
460.78	1810.40
460.99	1693.67
461.19	1734.63
461.39	1667.05
461.60	1816.55
461.80	1824.74
462.00	1708.01
462.21	1689.57
462.41	1681.38
462.61	1765.35
462.82	1607.66
463.02	1714.15
463.22	1755.11
463.43	1818.60
463.63	1734.63
463.83	1834.98
464.04	1787.88
464.24	1755.11
464.44	1722.34
464.64	1722.34
464.85	1820.64
465.05	1796.07
465.25	1714.15
465.46	1746.92
465.66	1763.30
465.86	1767.40
466.07	1773.54
466.27	1644.52
466.47	1648.61
466.68	1660.90
466.88	1822.69
467.08	1849.32
467.29	1738.73
467.49	1697.77
467.69	1789.92
467.89	1771.49
468.10	1712.10
468.30	1697.77
468.50	1863.65
468.71	1734.63
468.91	1660.90
469.11	1779.68
469.31	1740.77
469.52	1751.01
469.72	1775.59
469.92	1808.36
470.13	1724.39
470.33	1689.57
470.53	1800.16
470.73	2197.47
470.94	2308.06
471.14	2357.21
471.34	2428.89
471.54	2365.40
471.75	2254.81
471.95	2109.41
472.15	2148.32
472.36	2090.98
472.56	2062.30
472.76	2050.02
472.96	1955.81
473.17	1877.99
473.37	1888.23
473.57	1779.68
473.77	1871.84
473.98	1777.64
474.18	1681.38
474.38	1791.97
474.58	1751.01
474.79	1673.19
474.99	1728.49
475.19	1787.88
475.39	1638.38
475.60	1771.49
475.80	1771.49
476.00	1785.83
476.20	1671.14
476.41	1669.09
476.61	1877.99
476.81	1812.45
477.01	1679.33
477.21	1791.97
477.42	1855.46
477.62	1738.73
477.82	1812.45
478.02	1730.53
478.23	1789.92
478.43	1714.15
478.63	1685.48
478.83	1716.20
479.03	1673.19
479.24	1683.43
479.44	1804.26
479.64	1613.80
479.84	1621.99
480.04	1761.25
480.25	1834.98
480.45	1685.48
480.65	1771.49
480.85	1849.32
481.06	1679.33
481.26	1720.29
481.46	1796.07
481.66	1662.95
481.86	1671.14
482.06	1777.64
482.27	1683.43
482.47	1767.40
482.67	1814.50
482.87	1763.30
483.07	1820.64
483.28	1593.32
483.48	1589.22
483.68	1742.82
483.88	1654.76
484.08	1669.09
484.29	1656.81
484.49	1683.43
484.69	1662.95
484.89	1789.92
485.09	1806.31
485.29	1693.67
485.50	1759.21
485.70	1734.63
485.90	1796.07
486.10	1820.64
486.30	1730.53
486.50	1804.26
486.71	1830.88
486.91	1757.16
487.11	1863.65
487.31	1652.71
487.51	1822.69
487.71	1703.91
487.91	1642.47
488.12	1619.94
488.32	1648.61
488.52	1753.06
488.72	1636.33
488.92	1783.78
489.12	1761.25
489.32	1834.98
489.53	1808.36
489.73	1568.74
489.93	1837.03
490.13	1798.12
490.33	1628.14
490.53	1728.49
490.73	1755.11
490.94	1662.95
491.14	1802.21
491.34	1828.84
491.54	2179.04
491.74	2566.10
491.94	2869.20
492.14	2987.99
492.34	3063.76
492.54	2736.09
492.75	2471.90
492.95	2469.85
493.15	2439.13
493.35	2346.97
493.55	2240.48
493.75	2211.81
493.95	2123.74
494.15	1982.43
494.35	1865.70
494.56	1920.99
494.76	1755.11
494.96	1865.70
495.16	1773.54
495.36	1720.29
495.56	1710.05
495.76	1697.77
495.96	1716.20
496.16	1703.91
496.36	1824.74
496.56	1695.72
496.77	1673.19
496.97	1744.87
497.17	1789.92
497.37	1630.18
497.57	1800.16
497.77	1773.54
497.97	1689.57
498.17	1738.73
498.37	1718.25
498.57	1781.73
498.77	1681.38
498.97	1787.88
499.17	1853.41
499.38	1748.97
499.58	1828.84
499.78	1808.36
499.98	1824.74
500.18	1685.48
500.38	1638.38
500.58	1877.99
500.78	2641.88
500.98	4513.72
501.18	5781.42
501.38	6850.46
501.58	7147.41
501.78	6672.28
501.98	5445.55
502.18	4853.69
502.38	4409.28
502.58	4159.42
502.78	3762.12
502.98	3665.86
503.18	3346.38
503.38	3289.04
503.59	2813.91
503.79	2590.68
503.99	2480.09
504.19	2242.53
504.39	2160.61
504.59	2205.66
504.79	2093.02
504.99	2088.93
505.19	1927.14
505.39	1888.23
505.59	2031.58
505.79	1873.89
505.99	1783.78
506.19	1828.84
506.39	1873.89
506.59	1783.78
506.79	1757.16
506.99	1794.02
507.19	1812.45
507.39	1851.36
507.59	1714.15
507.79	1615.85
507.99	1681.38
508.19	1748.97
508.39	1683.43
508.59	1783.78
508.79	1822.69
508.99	1863.65
509.19	1726.44
509.39	1810.40
509.59	1708.01
509.79	1685.48
509.99	1728.49
510.19	1861.60
510.39	1802.21
510.59	1794.02
510.79	1665.00
510.99	1673.19
511.19	1734.63
511.39	1800.16
511.59	1691.62
511.79	1896.42
511.99	1781.73
512.19	1761.25
512.38	1744.87
512.58	1703.91
512.78	1740.77
512.98	1761.25
513.18	1789.92
513.38	1695.72
513.58	1751.01
513.78	1662.95
513.98	1703.91
514.18	1765.35
514.38	1662.95
514.58	1728.49
514.78	1701.86
514.98	1685.48
515.18	1685.48
515.38	1705.96
515.58	1886.18
515.78	1656.81
515.98	1753.06
516.18	1748.97
516.38	1705.96
516.57	1740.77
516.77	1656.81
516.97	1734.63
517.17	1730.53
517.37	1665.00
517.57	1779.68
517.77	1738.73
517.97	1777.64
518.17	1781.73
518.37	1673.19
518.57	1705.96
518.77	1710.05
518.97	1691.62
519.16	1771.49
519.36	1773.54
519.56	1714.15
519.76	1724.39
519.96	1791.97
520.16	1808.36
520.36	1718.25
520.56	1783.78
520.76	1755.11
520.96	1660.90
521.16	1892.32
521.35	1722.34
521.55	1853.41
521.75	1718.25
521.95	1650.66
522.15	1761.25
522.35	1679.33
522.55	1708.01
522.75	1751.01
522.95	1720.29
523.14	1697.77
523.34	1767.40
523.54	1705.96
523.74	1736.68
523.94	1820.64
524.14	1681.38
524.34	1718.25
524.54	1875.94
524.73	1693.67
524.93	1806.31
525.13	1748.97
525.33	1703.91
525.53	1906.66
525.73	1804.26
525.93	1787.88
526.13	1808.36
526.32	1734.63
526.52	1777.64
526.72	1779.68
526.92	1734.63
527.12	1777.64
527.32	1581.03
527.52	1708.01
527.71	1757.16
527.91	1796.07
528.11	1720.29
528.31	1730.53
528.51	1781.73
528.71	1730.53
528.90	1777.64
529.10	1761.25
529.30	1816.55
529.50	1640.42
529.70	1761.25
529.90	1720.29
530.09	1744.87
530.29	1673.19
530.49	1687.53
530.69	1832.93
530.89	1818.60
531.09	1798.12
531.28	1742.82
531.48	1877.99
531.68	1730.53
531.88	1869.80
532.08	1796.07
532.28	1744.87
532.47	1728.49
532.67	1699.81
532.87	1763.30
533.07	1642.47
533.27	1822.69
533.46	1794.02
533.66	1722.34
533.86	1773.54
534.06	1740.77
534.26	1718.25
534.45	1722.34
534.65	1818.60
534.85	1767.40
535.05	1705.96
535.25	1857.51
535.44	1605.61
535.64	1730.53
535.84	1689.57
536.04	1697.77
536.24	1775.59
536.43	1746.92
536.63	1767.40
536.83	1851.36
537.03	1699.81
537.22	1650.66
537.42	1619.94
537.62	1712.10
537.82	1681.38
538.02	1839.08
538.21	1822.69
538.41	1896.42
538.61	1785.83
538.81	1763.30
539.00	1800.16
539.20	1611.75
539.40	1744.87
539.60	1779.68
539.79	1861.60
539.99	1828.84
540.19	1710.05
540.39	1812.45
540.58	1769.44
540.78	1755.11
540.98	1710.05
541.18	1802.21
541.37	1865.70
541.57	1746.92
541.77	1798.12
541.97	1697.77
542.16	1691.62
542.36	1687.53
542.56	1830.88
542.76	1818.60
542.95	1755.11
543.15	1834.98
543.35	1720.29
543.54	1744.87
543.74	1671.14
543.94	1863.65
544.14	1722.34
544.33	1777.64
544.53	1697.77
544.73	1718.25
544.93	1687.53
545.12	1730.53
545.32	1714.15
545.52	1724.39
545.71	1665.00
545.91	1712.10
546.11	1689.57
546.30	1658.85
546.50	1724.39
546.70	1746.92
546.90	1769.44
547.09	1671.14
547.29	1843.17
547.49	1806.31
547.68	1802.21
547.88	1738.73
548.08	1781.73
548.27	2189.28
548.47	1757.16
548.67	1703.91
548.87	1822.69
549.06	1751.01
549.26	1794.02
549.46	1748.97
549.65	1738.73
549.85	1763.30
550.05	1763.30
550.24	1665.00
550.44	1675.24
550.64	1693.67
550.83	1748.97
551.03	1820.64
551.23	1783.78
551.42	1812.45
551.62	1722.34
551.82	1830.88
552.01	1816.55
552.21	1767.40
552.41	1689.57
552.60	1843.17
552.80	1830.88
553.00	1697.77
553.19	1617.90
553.39	1802.21
553.59	1740.77
553.78	1761.25
553.98	1794.02
554.17	1603.56
554.37	1814.50
554.57	1771.49
554.76	1679.33
554.96	1611.75
555.16	1714.15
555.35	1720.29
555.55	1779.68
555.75	1783.78
555.94	1812.45
556.14	1619.94
556.33	1787.88
556.53	1775.59
556.73	1757.16
556.92	1841.12
557.12	1841.12
557.32	1863.65
557.51	1771.49
557.71	1794.02
557.90	1855.46
558.10	1828.84
558.30	1767.40
558.49	1722.34
558.69	1761.25
558.88	1837.03
559.08	1683.43
559.28	1738.73
559.47	1787.88
559.67	1777.64
559.86	1937.38
560.06	1759.21
560.26	1697.77
560.45	1736.68
560.65	1742.82
560.84	1884.13
561.04	1681.38
561.24	1767.40
561.43	1669.09
561.63	1845.22
561.82	1755.11
562.02	1791.97
562.22	1783.78
562.41	1771.49
562.61	1708.01
562.80	1652.71
563.00	1869.80
563.19	1789.92
563.39	1748.97
563.59	1806.31
563.78	1755.11
563.98	1595.37
564.17	1787.88
564.37	1718.25
564.56	1794.02
564.76	1687.53
564.96	1816.55
565.15	1779.68
565.35	1837.03
565.54	1746.92
565.74	1779.68
565.93	1791.97
566.13	1705.96
566.32	1783.78
566.52	1816.55
566.71	1775.59
566.91	1744.87
567.11	1718.25
567.30	1722.34
567.50	1714.15
567.69	1746.92
567.89	1667.05
568.08	1765.35
568.28	1841.12
568.47	1656.81
568.67	1828.84
568.86	1767.40
569.06	1841.12
569.25	1724.39
569.45	1746.92
569.64	1689.57
569.84	1787.88
570.04	1716.20
570.23	1769.44
570.43	1837.03
570.62	1796.07
570.82	1818.60
571.01	1716.20
571.21	1644.52
571.40	1757.16
571.60	1796.07
571.79	1722.34
571.99	1800.16
572.18	1751.01
572.38	1794.02
572.57	1710.05
572.77	1814.50
572.96	1859.56
573.16	1822.69
573.35	1714.15
573.55	1886.18
573.74	1660.90
573.94	1746.92
574.13	1744.87
574.33	1812.45
574.52	1789.92
574.71	1732.58
574.91	1808.36
575.10	1779.68
575.30	1779.68
575.49	1703.91
575.69	1736.68
575.88	1748.97
576.08	1724.39
576.27	1812.45
576.47	1789.92
576.66	1769.44
576.86	1847.27
577.05	1726.44
577.25	1853.41
577.44	1853.41
577.64	1738.73
577.83	1843.17
578.02	1724.39
578.22	1796.07
578.41	1826.79
578.61	1765.35
578.80	1705.96
579.00	1718.25
579.19	1740.77
579.39	1779.68
579.58	1894.37
579.77	1763.30
579.97	1834.98
580.16	1914.85
580.36	1880.04
580.55	1773.54
580.75	1771.49
580.94	1853.41
581.13	1861.60
581.33	1865.70
581.52	1804.26
581.72	1974.24
581.91	1837.03
582.11	1701.86
582.30	1857.51
582.49	1736.68
582.69	1845.22
582.88	1853.41
583.08	1777.64
583.27	1847.27
583.47	1810.40
583.66	1736.68
583.85	1767.40
584.05	1789.92
584.24	1779.68
584.44	1816.55
584.63	1849.32
584.82	1814.50
585.02	1888.23
585.21	1832.93
585.41	1871.84
585.60	1845.22
585.79	1927.14
585.99	1945.57
586.18	1908.71
586.37	2150.37
586.57	3321.81
586.76	9899.88
586.96	24239.76
587.15	34039.29
587.34	39984.54
587.54	41295.24
587.73	36234.71
587.93	25779.83
588.12	21272.25
588.31	18020.08
588.51	16174.86
588.70	14939.93
588.89	13932.33
589.09	12404.55
589.28	10903.39
589.47	9326.45
589.67	7870.34
589.86	6211.49
590.06	4695.99
590.25	3897.28
590.44	3237.84
590.64	2527.19
590.83	2242.53
591.02	2131.94
591.22	1976.29
591.41	1949.67
591.60	1794.02
591.80	1933.28
591.99	1830.88
592.18	1791.97
592.38	1951.71
592.57	1828.84
592.76	1771.49
592.96	1806.31
593.15	1820.64
593.34	1771.49
593.54	1820.64
593.73	1849.32
593.92	1853.41
594.12	1730.53
594.31	1740.77
594.50	1824.74
594.70	1800.16
594.89	1867.75
595.08	1701.86
595.28	1849.32
595.47	1933.28
595.66	1789.92
595.86	1714.15
596.05	1730.53
596.24	1732.58
596.43	1826.79
596.63	1796.07
596.82	1783.78
597.01	1798.12
597.21	1894.37
597.40	1816.55
597.59	1722.34
597.79	1789.92
597.98	1796.07
598.17	1808.36
598.36	1820.64
598.56	1800.16
598.75	1740.77
598.94	1740.77
599.14	1767.40
599.33	1695.72
599.52	1832.93
599.71	1759.21
599.91	1755.11
600.10	1794.02
600.29	1746.92
600.48	1812.45
600.68	1791.97
600.87	1753.06
601.06	1703.91
601.26	1724.39
601.45	1746.92
601.64	1710.05
601.83	1806.31
602.03	1669.09
602.22	1716.20
602.41	1810.40
602.60	1853.41
602.80	1791.97
602.99	1726.44
603.18	1697.77
603.37	1732.58
603.57	1781.73
603.76	1804.26
603.95	1863.65
604.14	1830.88
604.34	1683.43
604.53	1744.87
604.72	1689.57
604.91	1769.44
605.10	1826.79
605.30	1779.68
605.49	1812.45
605.68	1789.92
605.87	1814.50
606.07	1701.86
606.26	1787.88
606.45	1865.70
606.64	1679.33
606.84	1738.73
607.03	1701.86
607.22	1800.16
607.41	1724.39
607.60	1773.54
607.80	1808.36
607.99	1677.29
608.18	1781.73
608.37	1767.40
608.56	1718.25
608.76	1787.88
608.95	1859.56
609.14	1761.25
609.33	1761.25
609.52	1806.31
609.72	1763.30
609.91	1828.84
610.10	1775.59
610.29	1882.08
610.48	1796.07
610.68	1775.59
610.87	1787.88
611.06	1798.12
611.25	1755.11
611.44	1824.74
611.63	1794.02
611.83	1826.79
612.02	1671.14
612.21	1783.78
612.40	1595.37
612.59	1746.92
612.79	1607.66
612.98	1681.38
613.17	1798.12
613.36	1791.97
613.55	1783.78
613.74	1695.72
613.93	1689.57
614.13	1675.24
614.32	1771.49
614.51	1738.73
614.70	1730.53
614.89	1648.61
615.08	1773.54
615.28	2084.83
615.47	1675.24
615.66	1738.73
615.85	1652.71
616.04	1816.55
616.23	1779.68
616.42	1703.91
616.62	1804.26
616.81	1732.58
617.00	1736.68
617.19	1757.16
617.38	1791.97
617.57	1757.16
617.76	1779.68
617.95	1847.27
618.15	1734.63
618.34	1800.16
618.53	1683.43
618.72	1818.60
618.91	1806.31
619.10	1890.28
619.29	1648.61
619.48	1732.58
619.68	1654.76
619.87	1771.49
620.06	1701.86
620.25	1802.21
620.44	1703.91
620.63	1740.77
620.82	1722.34
621.01	1781.73
621.20	1705.96
621.39	1767.40
621.59	1763.30
621.78	1771.49
621.97	1787.88
622.16	1798.12
622.35	1740.77
622.54	1816.55
622.73	1732.58
622.92	1677.29
623.11	1767.40
623.30	1718.25
623.49	1791.97
623.68	1681.38
623.88	1839.08
624.07	1724.39
624.26	1687.53
624.45	1814.50
624.64	1742.82
624.83	1781.73
625.02	1681.38
625.21	1769.44
625.40	1697.77
625.59	1765.35
625.78	1673.19
625.97	1744.87
626.16	1746.92
626.35	1789.92
626.54	1763.30
626.74	1783.78
626.93	1783.78
627.12	1703.91
627.31	1785.83
627.50	1703.91
627.69	1773.54
627.88	1652.71
628.07	1728.49
628.26	1658.85
628.45	1693.67
628.64	1646.57
628.83	1728.49
629.02	1681.38
629.21	1818.60
629.40	1767.40
629.59	1687.53
629.78	1693.67
629.97	1812.45
630.16	1677.29
630.35	1699.81
630.54	1722.34
630.73	1710.05
630.92	1687.53
631.11	1701.86
631.30	1855.46
631.49	1808.36
631.68	1710.05
631.87	1695.72
632.06	1636.33
632.25	1894.37
632.44	1775.59
632.63	1775.59
632.82	1689.57
633.01	1677.29
633.20	1789.92
633.39	1705.96
633.58	1607.66
633.77	1830.88
633.96	1669.09
634.15	1791.97
634.34	1771.49
634.53	1742.82
634.72	1669.09
634.91	1714.15
635.10	1771.49
635.29	1771.49
635.48	1724.39
635.67	1685.48
635.86	1636.33
636.05	1781.73
636.24	1708.01
636.43	1730.53
636.62	1724.39
636.81	1624.04
637.00	1722.34
637.19	1865.70
637.38	1773.54
637.57	1730.53
637.76	1726.44
637.95	1703.91
638.14	1748.97
638.33	1757.16
638.52	1695.72
638.71	1650.66
638.89	1595.37
639.08	1845.22
639.27	1732.58
639.46	1691.62
639.65	1736.68
639.84	1781.73
640.03	1796.07
640.22	1697.77
640.41	1808.36
640.60	1736.68
640.79	1685.48
640.98	1687.53
641.17	1771.49
641.36	1716.20
641.55	1746.92
641.74	1626.09
641.92	1679.33
642.11	1591.27
642.30	1777.64
642.49	1710.05
642.68	1689.57
642.87	1695.72
643.06	1794.02
643.25	1751.01
643.44	1644.52
643.63	1665.00
643.82	1691.62
644.00	1701.86
644.19	1718.25
644.38	1742.82
644.57	1777.64
644.76	1738.73
644.95	1779.68
645.14	1744.87
645.33	1705.96
645.52	1740.77
645.71	1615.85
645.89	1687.53
646.08	1789.92
646.27	1767.40
646.46	1851.36
646.65	1673.19
646.84	1753.06
647.03	1757.16
647.22	1812.45
647.40	1787.88
647.59	1769.44
647.78	1638.38
647.97	1699.81
648.16	1691.62
648.35	1859.56
648.54	1746.92
648.73	1757.16
648.91	1736.68
649.10	1691.62
649.29	1765.35
649.48	1804.26
649.67	1742.82
649.86	1738.73
650.05	1728.49
650.23	1820.64
650.42	1636.33
650.61	1738.73
650.80	1759.21
650.99	1849.32
651.18	1757.16
651.36	1765.35
651.55	1646.57
651.74	1751.01
651.93	1703.91
652.12	1683.43
652.31	1693.67
652.49	1730.53
652.68	1665.00
652.87	1755.11
653.06	1771.49
653.25	1798.12
653.44	1722.34
653.62	1847.27
653.81	1673.19
654.00	1785.83
654.19	1738.73
654.38	1902.56
654.56	1738.73
654.75	1705.96
654.94	1837.03
655.13	1724.39
655.32	1701.86
655.51	1781.73
655.69	1730.53
655.88	1746.92
656.07	1640.42
656.26	1775.59
656.45	1665.00
656.63	1724.39
656.82	1804.26
657.01	1708.01
657.20	1611.75
657.38	1849.32
657.57	1722.34
657.76	1710.05
657.95	1742.82
658.14	1695.72
658.32	1710.05
658.51	1667.05
658.70	1798.12
658.89	1689.57
659.08	1689.57
659.26	1802.21
659.45	1705.96
659.64	1722.34
659.83	1722.34
660.01	1906.66
660.20	1724.39
660.39	1765.35
660.58	1636.33
660.76	1738.73
660.95	1677.29
661.14	1675.24
661.33	1626.09
661.51	1648.61
661.70	1730.53
661.89	1771.49
662.08	1730.53
662.26	1624.04
662.45	1665.00
662.64	1828.84
662.83	1804.26
663.01	1687.53
663.20	1665.00
663.39	1839.08
663.58	1744.87
663.76	1728.49
663.95	1753.06
664.14	1722.34
664.32	1720.29
664.51	1673.19
664.70	1605.61
664.89	1660.90
665.07	1677.29
665.26	1767.40
665.45	1648.61
665.64	1832.93
665.82	1669.09
666.01	1665.00
666.20	1677.29
666.38	1777.64
666.57	1857.51
666.76	2181.09
666.95	4558.78
667.13	10211.17
667.32	15308.57
667.51	17956.59
667.69	19074.78
667.88	17639.15
668.07	12259.14
668.25	9590.64
668.44	7966.60
668.63	7153.55
668.81	6733.72
669.00	6207.39
669.19	5627.82
669.38	5085.11
669.56	4558.78
669.75	4018.11
669.94	3395.53
670.12	2928.60
670.31	2482.14
670.50	2234.33
670.68	2068.45
670.87	1894.37
671.06	1847.27
671.24	1796.07
671.43	1855.46
671.62	1751.01
671.80	1675.24
671.99	1783.78
672.18	1740.77
672.36	1734.63
672.55	1777.64
672.74	1783.78
672.92	1697.77
673.11	1824.74
673.29	1701.86
673.48	1775.59
673.67	1746.92
673.85	1798.12
674.04	1789.92
674.23	1722.34
674.41	1843.17
674.60	1710.05
674.79	1605.61
674.97	1636.33
675.16	1722.34
675.34	1720.29
675.53	1685.48
675.72	1701.86
675.90	1759.21
676.09	1763.30
676.28	1763.30
676.46	1609.70
676.65	1734.63
676.83	1738.73
677.02	1736.68
677.21	1726.44
677.39	1763.30
677.58	1751.01
677.77	1724.39
677.95	1695.72
678.14	1714.15
678.32	1716.20
678.51	1712.10
678.70	1826.79
678.88	1763.30
679.07	1705.96
679.25	1726.44
679.44	1683.43
679.63	1695.72
679.81	1732.58
680.00	1804.26
680.18	1812.45
680.37	1791.97
680.55	1738.73
680.74	1632.23
680.93	1607.66
681.11	1744.87
681.30	1679.33
681.48	1722.34
681.67	1710.05
681.85	1761.25
682.04	1603.56
682.23	1820.64
682.41	1673.19
682.60	1724.39
682.78	1718.25
682.97	1675.24
683.15	1714.15
683.34	1724.39
683.53	1763.30
683.71	1746.92
683.90	1834.98
684.08	1824.74
684.27	1779.68
684.45	1759.21
684.64	1771.49
684.82	1748.97
685.01	1783.78
685.19	1675.24
685.38	1826.79
685.57	1785.83
685.75	1679.33
685.94	1652.71
686.12	1609.70
686.31	1703.91
686.49	1816.55
686.68	1593.32
686.86	1769.44
687.05	1615.85
687.23	1812.45
687.42	1701.86
687.60	1621.99
687.79	1791.97
687.97	1863.65
688.16	1781.73
688.34	1806.31
688.53	1601.51
688.71	1697.77
688.90	1759.21
689.08	1667.05
689.27	1628.14
689.45	1728.49
689.64	1738.73
689.82	1734.63
690.01	1798.12
690.19	1783.78
690.38	1703.91
690.56	1708.01
690.75	1634.28
690.93	1689.57
691.12	1689.57
691.30	1730.53
691.49	1650.66
691.67	1652.71
691.86	1769.44
692.04	1648.61
692.23	1742.82
692.41	1755.11
692.60	1812.45
692.78	1722.34
692.97	1757.16
693.15	1755.11
693.34	1814.50
693.52	1777.64
693.71	1712.10
693.89	1679.33
694.08	1658.85
694.26	1763.30
694.44	1718.25
694.63	1726.44
694.81	1679.33
695.00	1744.87
695.18	1791.97
695.37	1890.28
695.55	1804.26
695.74	1746.92
695.92	1718.25
696.10	1732.58
696.29	1718.25
696.47	1714.15
696.66	1652.71
696.84	1677.29
697.03	1755.11
697.21	1828.84
697.40	2320.35
697.58	1806.31
697.76	1677.29
697.95	1662.95
698.13	1708.01
698.32	1765.35
698.50	1781.73
698.68	1763.30
698.87	1763.30
699.05	1783.78
699.24	1701.86
699.42	1689.57
699.61	1738.73
699.79	1798.12
699.97	1763.30
700.16	1650.66
700.34	1646.57
700.53	1697.77
700.71	1791.97
700.89	1689.57
701.08	1683.43
701.26	1763.30
701.45	2113.50
701.63	1650.66
701.81	1671.14
702.00	1665.00
702.18	1755.11
702.37	1640.42
702.55	1726.44
702.73	1703.91
702.92	1689.57
703.10	1796.07
703.28	1763.30
703.47	1697.77
703.65	1738.73
703.84	1796.07
704.02	1697.77
704.20	1787.88
704.39	1710.05
704.57	1759.21
704.75	1810.40
704.94	1755.11
705.12	1755.11
705.30	1822.69
705.49	2222.05
705.67	4399.04
705.86	9260.91
706.04	12537.66
706.22	14337.83
706.41	15304.47
706.59	13838.12
706.77	9455.47
706.96	7370.64
707.14	6567.84
707.32	5973.92
707.51	5629.87
707.69	4827.06
707.87	4159.42
708.06	3473.36
708.24	3067.86
708.42	2420.70
708.61	2250.72
708.79	1976.29
708.97	1925.09
709.16	1798.12
709.34	1810.40
709.52	1703.91
709.71	1783.78
709.89	1824.74
710.07	1740.77
710.26	1634.28
710.44	1730.53
710.62	1724.39
710.80	1736.68
710.99	1781.73
711.17	1794.02
711.35	1685.48
711.54	1656.81
711.72	1722.34
711.90	1726.44
712.09	1822.69
712.27	1710.05
712.45	1728.49
712.63	1763.30
712.82	1703.91
713.00	1697.77
713.18	1724.39
713.37	1716.20
713.55	1812.45
713.73	1753.06
713.91	1744.87
714.10	1710.05
714.28	1683.43
714.46	1665.00
714.65	1783.78
714.83	1730.53
715.01	1687.53
715.19	1798.12
715.38	1671.14
715.56	1798.12
715.74	1720.29
715.92	1665.00
716.11	1800.16
716.29	1619.94
716.47	1652.71
716.65	1732.58
716.84	1591.27
717.02	1791.97
717.20	1546.22
717.38	1712.10
717.57	1775.59
717.75	1740.77
717.93	1761.25
718.11	1740.77
718.30	1644.52
718.48	1785.83
718.66	1812.45
718.84	1732.58
719.03	1734.63
719.21	1669.09
719.39	1894.37
719.57	1728.49
719.75	1757.16
719.94	1677.29
720.12	1646.57
720.30	1660.90
720.48	1763.30
720.67	1673.19
720.85	1628.14
721.03	1708.01
721.21	1652.71
721.39	1779.68
721.58	1693.67
721.76	1720.29
721.94	1734.63
722.12	1716.20
722.30	1767.40
722.49	1701.86
722.67	1757.16
722.85	1751.01
723.03	1652.71
723.21	1673.19
723.40	1730.53
723.58	1730.53
723.76	1789.92
723.94	1781.73
724.12	1730.53
724.30	1757.16
724.49	1748.97
724.67	1695.72
724.85	1769.44
725.03	1675.24
725.21	1845.22
725.40	1748.97
725.58	1679.33
725.76	1804.26
725.94	1757.16
726.12	1646.57
726.30	1722.34
726.49	1683.43
726.67	1662.95
726.85	1753.06
727.03	1740.77
727.21	2146.27
727.39	2770.90
727.57	3817.41
727.76	4202.43
727.94	4331.45
728.12	4356.03
728.30	3680.20
728.48	2920.40
728.66	2719.70
728.84	2504.67
729.03	2269.15
729.21	2201.57
729.39	1947.62
729.57	1832.93
729.75	1783.78
729.93	1867.75
730.11	1726.44
730.30	1710.05
730.48	1734.63
730.66	1875.94
730.84	1800.16
731.02	1724.39
731.20	1662.95
731.38	1755.11
731.56	1687.53
731.74	1650.66
731.93	1759.21
732.11	1753.06
732.29	1699.81
732.47	1804.26
732.65	1802.21
732.83	1730.53
733.01	1824.74
733.19	1640.42
733.37	1689.57
733.56	1767.40
733.74	1652.71
733.92	1816.55
734.10	1708.01
734.28	1767.40
734.46	1574.89
734.64	1667.05
734.82	1751.01
735.00	1654.76
735.18	1691.62
735.36	1742.82
735.54	1755.11
735.73	1738.73
735.91	1730.53
736.09	1740.77
736.27	1761.25
736.45	1765.35
736.63	1607.66
736.81	1734.63
736.99	1806.31
737.17	1849.32
737.35	1679.33
737.53	1699.81
737.71	1710.05
737.89	1830.88
738.07	1642.47
738.25	1646.57
738.43	1632.23
738.61	1685.48
738.80	1648.61
738.98	1677.29
739.16	1648.61
739.34	1703.91
739.52	1806.31
739.70	1738.73
739.88	1806.31
740.06	1738.73
740.24	1660.90
740.42	1771.49
740.60	1679.33
740.78	1673.19
740.96	1585.13
741.14	1675.24
741.32	1679.33
741.50	1675.24
741.68	1871.84
741.86	1759.21
742.04	1675.24
742.22	1718.25
742.40	1726.44
742.58	1665.00
742.76	1742.82
742.94	1714.15
743.12	1665.00
743.30	1710.05
743.48	1746.92
743.66	1615.85
743.84	1697.77
744.02	1665.00
744.20	1738.73
744.38	1673.19
744.56	1738.73
744.74	1830.88
744.92	1736.68
745.10	1871.84
745.28	1781.73
745.46	1849.32
745.64	1685.48
745.82	1730.53
746.00	1751.01
746.18	1785.83
746.36	1654.76
746.54	1755.11
746.72	1765.35
746.90	1675.24
747.08	1751.01
747.26	1677.29
747.44	1751.01
747.62	1716.20
747.80	1740.77
747.98	1791.97
748.15	1671.14
748.33	1783.78
748.51	1687.53
748.69	1734.63
748.87	1665.00
749.05	1685.48
749.23	1708.01
749.41	1695.72
749.59	1724.39
749.77	1710.05
749.95	1740.77
750.13	1708.01
750.31	1744.87
750.49	1658.85
750.67	1765.35
750.85	1843.17
751.03	1777.64
751.20	1791.97
751.38	1705.96
751.56	1746.92
751.74	1755.11
751.92	1660.90
752.10	1734.63
752.28	1726.44
752.46	1675.24
752.64	1695.72
752.82	1716.20
753.00	1742.82
753.18	1730.53
753.35	1712.10
753.53	1712.10
753.71	1679.33
753.89	1759.21
754.07	1759.21
754.25	1746.92
754.43	1728.49
754.61	1665.00
754.79	1759.21
754.97	1724.39
755.14	1820.64
755.32	1566.70
755.50	1748.97
755.68	1716.20
755.86	1681.38
756.04	1714.15
756.22	1630.18
756.40	1779.68
756.57	1845.22
756.75	1648.61
756.93	1828.84
757.11	1804.26
757.29	1701.86
757.47	1656.81
757.65	1593.32
757.82	1642.47
758.00	1679.33
758.18	1683.43
758.36	1675.24
758.54	1841.12
758.72	1654.76
758.90	1771.49
759.07	1683.43
759.25	1677.29
759.43	1755.11
759.61	1603.56
759.79	2160.61
759.97	1769.44
760.15	1665.00
760.32	1755.11
760.50	1720.29
760.68	1814.50
760.86	1603.56
761.04	1798.12
761.22	1791.97
761.39	1697.77
761.57	1800.16
761.75	1720.29
761.93	1742.82
762.11	1650.66
762.28	1714.15
762.46	1646.57
762.64	1806.31
762.82	1652.71
763.00	1726.44
763.18	1808.36
763.35	1660.90
763.53	1783.78
763.71	1716.20
763.89	1689.57
764.07	1681.38
764.24	1724.39
764.42	1701.86
764.60	1658.85
764.78	1775.59
764.96	1824.74
765.13	1789.92
765.31	1710.05
765.49	1779.68
765.67	1691.62
765.84	1681.38
766.02	1667.05
766.20	1658.85
766.38	1748.97
766.56	1755.11
766.73	1771.49
766.91	1712.10
767.09	1724.39
767.27	1687.53
767.44	1689.57
767.62	1689.57
767.80	1652.71
767.98	1767.40
768.15	1691.62
768.33	1834.98
768.51	1736.68
768.69	1800.16
768.87	1740.77
769.04	1730.53
769.22	1861.60
769.40	1800.16
769.58	1906.66
769.75	1714.15
769.93	1804.26
770.11	1718.25
770.28	1640.42
770.46	1761.25
770.64	1689.57
770.82	1644.52
770.99	1740.77
771.17	1740.77
771.35	1751.01
771.53	1644.52
771.70	1665.00
771.88	1779.68
772.06	1763.30
772.23	1660.90
772.41	1689.57
772.59	1689.57
772.77	1654.76
772.94	1705.96
773.12	1689.57
773.30	1673.19
773.47	1718.25
773.65	1677.29
773.83	1822.69
774.01	1718.25
774.18	1634.28
774.36	1708.01
774.54	1677.29
774.71	1765.35
774.89	1644.52
775.07	1734.63
775.24	1669.09
775.42	1714.15
775.60	1796.07
775.78	1642.47
775.95	1648.61
776.13	1656.81
776.31	1601.51
776.48	1746.92
776.66	1791.97
776.84	1726.44
777.01	1673.19
777.19	1732.58
777.37	1681.38
777.54	1755.11
777.72	1791.97
777.90	1794.02
778.07	1708.01
778.25	1843.17
778.43	1779.68
778.60	1697.77
778.78	1822.69
778.96	1767.40
779.13	1646.57
779.31	1746.92
779.49	1701.86
779.66	1722.34
779.84	1705.96
780.01	1636.33
780.19	1658.85
780.37	1775.59
780.54	1714.15
780.72	1699.81
780.90	1607.66
781.07	1705.96
781.25	1705.96
781.43	1791.97
781.60	1660.90
781.78	1781.73
781.95	1691.62
782.13	1636.33
782.31	1738.73
782.48	1564.65
782.66	1746.92
782.83	1787.88
783.01	1683.43
783.19	1841.12
783.36	1710.05
783.54	1742.82
783.72	1820.64
783.89	1656.81
784.07	1716.20
784.24	1738.73
784.42	1765.35
784.60	1708.01
784.77	1769.44
784.95	1607.66
785.12	1708.01
785.30	1652.71
785.47	1681.38
785.65	1603.56
785.83	1714.15
786.00	1705.96
786.18	1738.73
786.35	1701.86
786.53	1738.73
786.71	1771.49
786.88	1710.05
787.06	1742.82
787.23	1777.64
787.41	1603.56
787.58	1683.43
787.76	1697.77
787.94	1722.34
788.11	1701.86
788.29	1568.74
788.46	1714.15
788.64	1630.18
788.81	1710.05
788.99	1697.77
789.16	1669.09
789.34	1730.53
789.52	1648.61
789.69	1632.23
789.87	1605.61
790.04	1685.48
790.22	1675.24
790.39	1837.03
790.57	1701.86
790.74	1687.53
790.92	1816.55
791.09	1665.00
791.27	1689.57
791.44	1853.41
791.62	1710.05
791.79	1808.36
791.97	1675.24
792.15	1908.71
792.32	1785.83
792.50	1779.68
792.67	1843.17
792.85	1771.49
793.02	1683.43
793.20	1665.00
793.37	1595.37
793.55	1708.01
793.72	1640.42
793.90	1755.11
794.07	1677.29
794.25	1710.05
794.42	1683.43
794.60	1693.67
794.77	1679.33
794.95	1701.86
795.12	1705.96
795.30	1679.33
795.47	1652.71
795.65	1939.43
795.82	1746.92
796.00	1605.61
796.17	1656.81
796.34	1718.25
796.52	1728.49
796.69	1761.25
796.87	1710.05
797.04	1675.24
797.22	1767.40
797.39	1798.12
797.57	1751.01
797.74	1691.62
797.92	1693.67
798.09	1693.67
798.27	1845.22
798.44	1767.40
798.62	1679.33
798.79	1705.96
798.96	1726.44
799.14	1693.67
799.31	1943.52
799.49	1724.39
799.66	1617.90
799.84	1738.73
800.01	1626.09
800.19	1705.96
800.36	1665.00
800.53	1708.01
800.71	1755.11
800.88	1773.54
801.06	1656.81
801.23	1667.05
801.41	1689.57
801.58	1669.09
801.75	1765.35
801.93	1751.01
802.10	1703.91
802.28	1712.10
802.45	1771.49
802.63	1804.26
802.80	1828.84
802.97	1748.97
803.15	1742.82
803.32	1677.29
803.50	1701.86
803.67	1691.62
803.84	1677.29
804.02	1691.62
804.19	1677.29
804.37	1554.41
804.54	1722.34
804.71	1669.09
804.89	1802.21
805.06	1615.85
805.24	1562.60
805.41	1689.57
805.58	1617.90
805.76	1828.84
805.93	1667.05
806.10	1751.01
806.28	1732.58
806.45	1691.62
806.63	1785.83
806.80	1755.11
806.97	1708.01
807.15	1673.19
807.32	1673.19
807.49	1673.19
807.67	1626.09
807.84	1751.01
808.01	1685.48
808.19	1812.45
808.36	1869.80
808.54	1732.58
808.71	1685.48
808.88	1724.39
809.06	1669.09
809.23	1791.97
809.40	1732.58
809.58	1722.34
809.75	1720.29
809.92	1636.33
810.10	1918.95
810.27	1701.86
810.44	1771.49
810.62	1734.63
810.79	1679.33
810.96	1685.48
811.14	1632.23
811.31	1720.29
811.48	1691.62
811.66	1724.39
811.83	1740.77
812.00	1802.21
812.18	1736.68
812.35	1867.75
812.52	1642.47
812.69	1677.29
812.87	1646.57
813.04	1613.80
813.21	1671.14
813.39	1660.90
813.56	1642.47
813.73	1812.45
813.91	1718.25
814.08	1691.62
814.25	1748.97
814.42	1634.28
814.60	1724.39
814.77	1726.44
814.94	1732.58
815.12	1748.97
815.29	1753.06
815.46	1695.72
815.63	1783.78
815.81	1748.97
815.98	1660.90
816.15	1746.92
816.33	1769.44
816.50	1726.44
816.67	1634.28
816.84	1705.96
817.02	1677.29
817.19	1619.94
817.36	1693.67
817.53	1701.86
817.71	1628.14
817.88	1773.54
818.05	1759.21
818.22	1658.85
818.40	1865.70
818.57	1748.97
818.74	1722.34
818.91	1763.30
819.09	1677.29
819.26	1726.44
819.43	1638.38
819.60	1669.09
819.78	1722.34
819.95	1738.73
820.12	1679.33
820.29	1779.68
820.47	1736.68
820.64	1673.19
820.81	1671.14
820.98	1662.95
821.15	1636.33
821.33	1665.00
821.50	1665.00
821.67	1708.01
821.84	1673.19
822.02	1779.68
822.19	1748.97
822.36	1687.53
822.53	1677.29
822.70	1640.42
822.88	1685.48
823.05	1740.77
823.22	1699.81
823.39	1705.96
823.56	1730.53
823.74	1816.55
823.91	1656.81
824.08	1609.70
824.25	1730.53
824.42	1816.55
824.60	1675.24
824.77	1654.76
824.94	1744.87
825.11	1777.64
825.28	1634.28
825.45	1722.34
825.63	1744.87
825.80	1665.00
825.97	1708.01
826.14	1714.15
826.31	1632.23
826.48	1728.49
826.66	1726.44
826.83	1720.29
827.00	1683.43
827.17	1652.71
827.34	1738.73
827.51	1724.39
827.69	1787.88
827.86	1671.14
828.03	1722.34
828.20	1703.91
828.37	1646.57
828.54	1673.19
828.71	1740.77
828.89	1828.84
829.06	1710.05
829.23	1740.77
829.40	1703.91
829.57	1681.38
829.74	1738.73
829.91	1650.66
830.09	1626.09
830.26	1732.58
830.43	1771.49
830.60	1763.30
830.77	1771.49
830.94	1808.36
831.11	1800.16
831.28	1675.24
831.46	1789.92
831.63	1708.01
831.80	1796.07
831.97	1742.82
832.14	1673.19
832.31	1753.06
832.48	1720.29
832.65	1755.11
832.82	1708.01
832.99	1789.92
833.17	1589.22
833.34	1804.26
833.51	1726.44
833.68	1677.29
833.85	1826.79
834.02	1613.80
834.19	1581.03
834.36	1665.00
834.53	1652.71
834.70	1703.91
834.87	1828.84
835.04	1662.95
835.22	1699.81
835.39	1701.86
835.56	1578.98
835.73	1705.96
835.90	1777.64
836.07	1654.76
836.24	1834.98
836.41	1710.05
836.58	1742.82
836.75	1742.82
836.92	1791.97
837.09	1665.00
837.26	1759.21
837.43	1755.11
837.60	1728.49
837.77	1675.24
837.94	1757.16
838.12	1763.30
838.29	1677.29
838.46	1605.61
838.63	1628.14
838.80	1863.65
838.97	1761.25
839.14	1695.72
839.31	1748.97
839.48	1779.68
839.65	1787.88
839.82	1751.01
839.99	1830.88
840.16	1757.16
840.33	1615.85
840.50	1730.53
840.67	1656.81
840.84	1619.94
841.01	1736.68
841.18	1734.63
841.35	1722.34
841.52	1712.10
841.69	1859.56
841.86	1777.64
842.03	1730.53
842.20	1703.91
842.37	1718.25
842.54	1691.62
842.71	1738.73
842.88	1626.09
843.05	1814.50
843.22	1642.47
843.39	1791.97
843.56	1673.19
843.73	1759.21
843.90	1667.05
844.07	1701.86
844.24	1808.36
844.41	1779.68
844.58	1753.06
844.75	1658.85
844.92	1685.48
845.09	1728.49
845.26	1648.61
845.43	1732.58
845.60	1693.67
845.77	1761.25
845.94	1751.01
846.10	1789.92
846.27	1628.14
846.44	1673.19
846.61	1679.33
846.78	1722.34
846.95	1791.97
847.12	1669.09
847.29	1712.10
847.46	1644.52
847.63	1804.26
847.80	1773.54
847.97	1677.29
848.14	1875.94
848.31	1697.77
848.48	1591.27
848.65	1728.49
848.82	1736.68
848.98	1808.36
849.15	1777.64
849.32	1798.12
849.49	1759.21
849.66	1716.20
849.83	1644.52
850.00	1660.90
850.17	1816.55
850.34	1685.48
850.51	1697.77
850.68	1730.53
850.85	1794.02
851.01	1728.49
851.18	1730.53
851.35	1724.39
851.52	1794.02
851.69	1775.59
851.86	1591.27
852.03	1656.81
852.20	1800.16
852.37	1726.44
852.53	1624.04
852.70	1662.95
852.87	1697.77
853.04	1738.73
853.21	1736.68
853.38	1724.39
853.55	1771.49
853.72	1796.07
853.89	1701.86
854.05	1626.09
854.22	1705.96
854.39	1689.57
854.56	1783.78
854.73	1759.21
854.90	1667.05
855.07	1740.77
855.23	1724.39
855.40	1675.24
855.57	1621.99
855.74	1624.04
855.91	1859.56
856.08	1628.14
856.25	1669.09
856.41	1656.81
856.58	1570.79
856.75	1748.97
856.92	1603.56
857.09	1763.30
857.26	1632.23
857.42	1640.42
857.59	1779.68
857.76	1669.09
857.93	1773.54
858.10	1736.68
858.27	1587.18
858.43	1736.68
858.60	1654.76
858.77	1615.85
858.94	1689.57
859.11	1767.40
859.27	1703.91
859.44	1718.25
859.61	1800.16
859.78	1787.88
859.95	1683.43
860.12	1648.61
860.28	1783.78
860.45	1814.50
860.62	1650.66
860.79	1771.49
860.95	1689.57
861.12	1689.57
861.29	1710.05
861.46	1667.05
861.63	1691.62
861.79	1701.86
861.96	1636.33
862.13	1689.57
862.30	1724.39
862.47	1763.30
862.63	1703.91
862.80	1722.34
862.97	1685.48
863.14	1716.20
863.30	1708.01
863.47	1677.29
863.64	1769.44
863.81	1701.86
863.97	1724.39
864.14	1671.14
864.31	1695.72
864.48	1677.29
864.65	1652.71
864.81	1810.40
864.98	1714.15
865.15	1757.16
865.32	1708.01
865.48	1724.39
865.65	1830.88
865.82	1738.73
865.98	1751.01
866.15	1779.68
866.32	1681.38
866.49	1738.73
866.65	1816.55
866.82	1640.42
866.99	1732.58
867.16	1644.52
867.32	1716.20
867.49	1701.86
867.66	1693.67
867.83	1662.95
867.99	1636.33
868.16	1697.77
868.33	1609.70
868.49	1705.96
868.66	1644.52
868.83	1787.88
868.99	1744.87
869.16	1730.53
869.33	1773.54
869.50	1759.21
869.66	1730.53
869.83	1718.25
870.00	1695.72
870.16	1757.16
870.33	1722.34
870.50	1705.96
870.66	1732.58
870.83	1796.07
871.00	1771.49
871.17	1855.46
871.33	1785.83
871.50	1701.86
871.67	1726.44
871.83	1730.53
872.00	1738.73
872.17	1677.29
872.33	1814.50
872.50	1785.83
872.67	1673.19
872.83	1755.11
873.00	1746.92
873.17	1767.40
873.33	1740.77
873.50	1701.86
873.67	1665.00
873.83	1677.29
874.00	1669.09
874.16	1716.20
874.33	1751.01
874.50	1699.81
874.66	1755.11
874.83	1806.31
875.00	1796.07
875.16	1720.29
875.33	1875.94
875.50	1660.90
875.66	1724.39
875.83	1673.19
875.99	1736.68
876.16	1667.05
876.33	1673.19
876.49	1755.11
876.66	1673.19
876.83	1677.29
876.99	1701.86
877.16	1701.86
877.32	1691.62
877.49	1662.95
877.66	1656.81
877.82	1748.97
877.99	1722.34
878.15	1730.53
878.32	1697.77
878.49	1755.11
878.65	1679.33
878.82	1751.01
878.98	1708.01
879.15	1683.43
879.32	1726.44
879.48	1773.54
879.65	1665.00
879.81	1615.85
879.98	1701.86
880.15	1669.09
880.31	1751.01
880.48	1626.09
880.64	1736.68
880.81	1708.01
880.97	1800.16
881.14	1697.77
881.31	1667.05
881.47	1861.60
881.64	1671.14
881.80	1650.66
881.97	1746.92
882.13	1767.40
882.30	1660.90
882.47	1673.19
882.63	1679.33
882.80	1683.43
882.96	1703.91
883.13	1730.53
883.29	1734.63
883.46	1814.50
883.62	1869.80
883.79	1662.95
883.95	1710.05
884.12	1742.82
884.29	1759.21
884.45	1685.48
884.62	1736.68
884.78	1626.09
884.95	1779.68
885.11	1675.24
885.28	1730.53
885.44	1667.05
885.61	1652.71
885.77	1791.97
885.94	1734.63
886.10	1675.24
886.27	1783.78
886.43	1730.53
886.60	1818.60
886.76	1705.96
886.93	1660.90
887.09	1783.78
887.26	1642.47
887.42	1722.34
887.59	1769.44
887.75	1783.78
887.92	1824.74
888.08	1765.35
888.25	1773.54
888.41	1738.73
888.58	1757.16
888.74	1679.33
888.91	1673.19
>>>>>End Processed Spectral Data<<<<<
