SpectraSuite Data File
++++++++++++++++++++++++++++++++++++
Date: Mon Jun 06 16:41:17 CEST 2016
User: root
Dark Spectrum Present: No
Reference Spectrum Present: No
Number of Sampled Component Spectra: 1
Spectrometers: USB4C02835
Integration Time (usec): 100000 (USB4C02835)
Spectra Averaged: 1 (USB4C02835)
Boxcar Smoothing: 0 (USB4C02835)
Correct for Electrical Dark: No (USB4C02835)
Strobe/Lamp Enabled: No (USB4C02835)
Correct for Detector Non-linearity: No (USB4C02835)
Correct for Stray Light: No (USB4C02835)
Number of Pixels in Processed Spectrum: 3648
>>>>>Begin Processed Spectral Data<<<<<
177.47	1464.30
177.69	1464.30
177.91	1464.30
178.13	1515.50
178.36	1468.39
178.58	1703.91
178.80	1683.43
179.02	1712.10
179.24	1615.85
179.46	1724.39
179.68	1705.96
179.90	1681.38
180.13	1710.05
180.35	1683.43
180.57	1667.05
180.79	1722.34
181.01	1755.11
181.23	1804.26
181.45	1722.34
181.67	1761.25
181.90	1781.73
182.12	1638.38
182.34	1638.38
182.56	1738.73
182.78	1755.11
183.00	1671.14
183.22	1765.35
183.44	1624.04
183.66	1853.41
183.89	1738.73
184.11	1728.49
184.33	1757.16
184.55	1701.86
184.77	1693.67
184.99	1751.01
185.21	1734.63
185.43	1839.08
185.65	1701.86
185.87	1677.29
186.10	1800.16
186.32	1896.42
186.54	1730.53
186.76	1718.25
186.98	1710.05
187.20	1673.19
187.42	1665.00
187.64	1695.72
187.86	1742.82
188.08	1841.12
188.30	1677.29
188.52	1697.77
188.75	1779.68
188.97	1697.77
189.19	1718.25
189.41	1724.39
189.63	1767.40
189.85	1619.94
190.07	1703.91
190.29	1640.42
190.51	1773.54
190.73	1652.71
190.95	1740.77
191.17	1714.15
191.39	1632.23
191.61	1630.18
191.84	1730.53
192.06	1665.00
192.28	1660.90
192.50	1945.57
192.72	1681.38
192.94	1648.61
193.16	1755.11
193.38	1751.01
193.60	1619.94
193.82	1656.81
194.04	1705.96
194.26	1787.88
194.48	1716.20
194.70	1656.81
194.92	1617.90
195.14	1824.74
195.36	1710.05
195.58	1624.04
195.80	1705.96
196.02	1695.72
196.24	1734.63
196.46	1671.14
196.69	1642.47
196.91	1877.99
197.13	1732.58
197.35	1771.49
197.57	1869.80
197.79	1730.53
198.01	1755.11
198.23	1730.53
198.45	1660.90
198.67	1644.52
198.89	1630.18
199.11	1771.49
199.33	1669.09
199.55	1583.08
199.77	1726.44
199.99	1757.16
200.21	1703.91
200.43	1751.01
200.65	1640.42
200.87	1583.08
201.09	1720.29
201.31	1683.43
201.53	1787.88
201.75	1783.78
201.97	1697.77
202.19	1775.59
202.41	1710.05
202.63	1845.22
202.85	1730.53
203.07	1708.01
203.29	1658.85
203.51	1685.48
203.73	1677.29
203.95	1851.36
204.17	1685.48
204.39	1697.77
204.61	1728.49
204.83	1712.10
205.05	1705.96
205.27	1744.87
205.49	1849.32
205.71	1755.11
205.93	1667.05
206.15	1724.39
206.37	1763.30
206.59	1740.77
206.81	1603.56
207.03	1724.39
207.25	1636.33
207.47	1767.40
207.69	1693.67
207.91	1814.50
208.13	1755.11
208.34	1681.38
208.56	1630.18
208.78	1787.88
209.00	1652.71
209.22	1669.09
209.44	1705.96
209.66	1689.57
209.88	1736.68
210.10	1673.19
210.32	1804.26
210.54	1787.88
210.76	1683.43
210.98	1794.02
211.20	1587.18
211.42	1583.08
211.64	1806.31
211.86	1732.58
212.08	1701.86
212.30	1667.05
212.52	1671.14
212.74	1679.33
212.96	1718.25
213.17	1773.54
213.39	1816.55
213.61	1728.49
213.83	1687.53
214.05	1638.38
214.27	1761.25
214.49	1624.04
214.71	1716.20
214.93	1787.88
215.15	1748.97
215.37	1738.73
215.59	1648.61
215.81	1720.29
216.03	1748.97
216.24	1722.34
216.46	1716.20
216.68	1697.77
216.90	1759.21
217.12	1751.01
217.34	1800.16
217.56	1695.72
217.78	1708.01
218.00	1656.81
218.22	1667.05
218.44	1798.12
218.66	1681.38
218.87	1816.55
219.09	1697.77
219.31	1718.25
219.53	1697.77
219.75	1665.00
219.97	1734.63
220.19	1755.11
220.41	1679.33
220.63	1738.73
220.85	1726.44
221.06	1644.52
221.28	1763.30
221.50	1744.87
221.72	1673.19
221.94	1697.77
222.16	1796.07
222.38	1685.48
222.60	1814.50
222.82	1673.19
223.03	1740.77
223.25	1716.20
223.47	1781.73
223.69	1779.68
223.91	1740.77
224.13	1665.00
224.35	1658.85
224.57	1820.64
224.78	1804.26
225.00	1634.28
225.22	1710.05
225.44	1748.97
225.66	1705.96
225.88	1636.33
226.10	1820.64
226.32	1761.25
226.53	1742.82
226.75	1699.81
226.97	1708.01
227.19	1644.52
227.41	1630.18
227.63	1681.38
227.85	1669.09
228.06	1677.29
228.28	1701.86
228.50	1798.12
228.72	1648.61
228.94	1681.38
229.16	1531.88
229.37	1650.66
229.59	1652.71
229.81	1791.97
230.03	1691.62
230.25	1605.61
230.47	1642.47
230.69	1578.98
230.90	1724.39
231.12	1638.38
231.34	1738.73
231.56	1767.40
231.78	1654.76
232.00	1746.92
232.21	1669.09
232.43	1660.90
232.65	1671.14
232.87	1685.48
233.09	1697.77
233.30	1710.05
233.52	1742.82
233.74	1734.63
233.96	1693.67
234.18	1708.01
234.40	1638.38
234.61	1798.12
234.83	1630.18
235.05	1714.15
235.27	1830.88
235.49	1769.44
235.70	1740.77
235.92	1779.68
236.14	1718.25
236.36	1871.84
236.58	1630.18
236.79	1763.30
237.01	1665.00
237.23	1691.62
237.45	1875.94
237.67	1642.47
237.88	1669.09
238.10	1871.84
238.32	1714.15
238.54	1646.57
238.76	1726.44
238.97	1609.70
239.19	1712.10
239.41	1806.31
239.63	1775.59
239.85	1730.53
240.06	1679.33
240.28	1742.82
240.50	1767.40
240.72	1724.39
240.93	1738.73
241.15	1771.49
241.37	1691.62
241.59	1710.05
241.81	1773.54
242.02	1742.82
242.24	1648.61
242.46	1714.15
242.68	1691.62
242.89	1724.39
243.11	1726.44
243.33	1722.34
243.55	1646.57
243.76	1763.30
243.98	1701.86
244.20	1681.38
244.42	1810.40
244.64	1701.86
244.85	1656.81
245.07	1621.99
245.29	1798.12
245.51	1681.38
245.72	1695.72
245.94	1763.30
246.16	1722.34
246.38	1751.01
246.59	1656.81
246.81	1673.19
247.03	1697.77
247.24	1591.27
247.46	1578.98
247.68	1636.33
247.90	1660.90
248.11	1665.00
248.33	1708.01
248.55	1720.29
248.77	1701.86
248.98	1748.97
249.20	1798.12
249.42	1714.15
249.64	1796.07
249.85	1652.71
250.07	1617.90
250.29	1716.20
250.50	1832.93
250.72	1632.23
250.94	1708.01
251.16	1859.56
251.37	1767.40
251.59	1767.40
251.81	1759.21
252.02	1748.97
252.24	1648.61
252.46	1714.15
252.68	1708.01
252.89	1628.14
253.11	1656.81
253.33	1789.92
253.54	1781.73
253.76	1599.46
253.98	1699.81
254.20	1675.24
254.41	1585.13
254.63	1703.91
254.85	1644.52
255.06	1738.73
255.28	1716.20
255.50	1724.39
255.71	1751.01
255.93	1648.61
256.15	1656.81
256.36	1724.39
256.58	1652.71
256.80	1779.68
257.02	1685.48
257.23	1710.05
257.45	1783.78
257.67	1773.54
257.88	1632.23
258.10	1806.31
258.32	1818.60
258.53	1718.25
258.75	1789.92
258.97	1640.42
259.18	1697.77
259.40	1718.25
259.62	1812.45
259.83	1800.16
260.05	1755.11
260.27	1953.76
260.48	1738.73
260.70	1617.90
260.92	1693.67
261.13	1728.49
261.35	1742.82
261.57	1689.57
261.78	1601.51
262.00	1660.90
262.22	1703.91
262.43	1656.81
262.65	1738.73
262.86	1691.62
263.08	1851.36
263.30	1714.15
263.51	1705.96
263.73	1613.80
263.95	1761.25
264.16	1632.23
264.38	1626.09
264.60	1675.24
264.81	1648.61
265.03	1777.64
265.25	1800.16
265.46	1736.68
265.68	1736.68
265.89	1689.57
266.11	1642.47
266.33	1751.01
266.54	1765.35
266.76	1710.05
266.98	1777.64
267.19	1837.03
267.41	1828.84
267.62	1710.05
267.84	1658.85
268.06	1787.88
268.27	1800.16
268.49	1800.16
268.70	1714.15
268.92	1648.61
269.14	1697.77
269.35	1660.90
269.57	1722.34
269.79	1787.88
270.00	1654.76
270.22	1746.92
270.43	1714.15
270.65	1628.14
270.87	1703.91
271.08	1685.48
271.30	1687.53
271.51	1796.07
271.73	1789.92
271.95	1828.84
272.16	1716.20
272.38	1742.82
272.59	1779.68
272.81	1716.20
273.02	1755.11
273.24	1751.01
273.46	1648.61
273.67	1697.77
273.89	1621.99
274.10	1652.71
274.32	1775.59
274.54	1658.85
274.75	1673.19
274.97	1656.81
275.18	1794.02
275.40	1705.96
275.61	1785.83
275.83	1716.20
276.05	1660.90
276.26	1732.58
276.48	1691.62
276.69	1740.77
276.91	1708.01
277.12	1697.77
277.34	1726.44
277.55	1816.55
277.77	1736.68
277.99	1660.90
278.20	1652.71
278.42	1685.48
278.63	1710.05
278.85	1667.05
279.06	1630.18
279.28	1738.73
279.49	1769.44
279.71	1665.00
279.93	1705.96
280.14	1746.92
280.36	1650.66
280.57	1748.97
280.79	1841.12
281.00	1673.19
281.22	1724.39
281.43	1744.87
281.65	1603.56
281.86	1591.27
282.08	1738.73
282.29	1796.07
282.51	1654.76
282.73	1669.09
282.94	1681.38
283.16	1736.68
283.37	1796.07
283.59	1701.86
283.80	1837.03
284.02	1708.01
284.23	1777.64
284.45	1693.67
284.66	1665.00
284.88	1683.43
285.09	1673.19
285.31	1685.48
285.52	1781.73
285.74	1613.80
285.95	1753.06
286.17	1728.49
286.38	1775.59
286.60	1669.09
286.81	1654.76
287.03	1652.71
287.24	1689.57
287.46	1789.92
287.67	1716.20
287.89	1798.12
288.10	1658.85
288.32	1779.68
288.53	1755.11
288.75	1718.25
288.96	1734.63
289.18	1755.11
289.39	1658.85
289.61	1710.05
289.82	1806.31
290.04	1828.84
290.25	1648.61
290.47	1652.71
290.68	1699.81
290.90	1697.77
291.11	1607.66
291.33	1742.82
291.54	1609.70
291.76	1648.61
291.97	1703.91
292.18	1695.72
292.40	1642.47
292.61	1773.54
292.83	1720.29
293.04	1712.10
293.26	1763.30
293.47	1796.07
293.69	1648.61
293.90	1744.87
294.12	1779.68
294.33	1679.33
294.55	1736.68
294.76	1726.44
294.97	1804.26
295.19	1822.69
295.40	1681.38
295.62	1656.81
295.83	1794.02
296.05	1677.29
296.26	1689.57
296.48	1728.49
296.69	1757.16
296.90	1673.19
297.12	1787.88
297.33	1736.68
297.55	1665.00
297.76	1763.30
297.98	1777.64
298.19	1667.05
298.41	1761.25
298.62	1748.97
298.83	1757.16
299.05	1648.61
299.26	1609.70
299.48	1771.49
299.69	1798.12
299.90	1710.05
300.12	1656.81
300.33	1757.16
300.55	1701.86
300.76	1730.53
300.98	1687.53
301.19	1755.11
301.40	1689.57
301.62	1660.90
301.83	1751.01
302.05	1693.67
302.26	1740.77
302.47	1714.15
302.69	1621.99
302.90	1714.15
303.12	1638.38
303.33	1771.49
303.54	1849.32
303.76	1656.81
303.97	1705.96
304.19	1796.07
304.40	1751.01
304.61	1798.12
304.83	1798.12
305.04	1773.54
305.26	1736.68
305.47	1564.65
305.68	1714.15
305.90	1624.04
306.11	1767.40
306.33	1738.73
306.54	1648.61
306.75	1681.38
306.97	1656.81
307.18	1703.91
307.39	1638.38
307.61	1724.39
307.82	1810.40
308.04	1728.49
308.25	1613.80
308.46	1652.71
308.68	1624.04
308.89	1656.81
309.10	1804.26
309.32	1769.44
309.53	1785.83
309.74	1720.29
309.96	1660.90
310.17	1730.53
310.39	1726.44
310.60	1808.36
310.81	1724.39
311.03	1681.38
311.24	1736.68
311.45	1720.29
311.67	1814.50
311.88	1679.33
312.09	1759.21
312.31	1708.01
312.52	1746.92
312.73	1730.53
312.95	1617.90
313.16	1660.90
313.37	1722.34
313.59	1804.26
313.80	1738.73
314.01	1845.22
314.23	1656.81
314.44	1654.76
314.65	1701.86
314.87	1607.66
315.08	1718.25
315.29	1650.66
315.51	1673.19
315.72	1591.27
315.93	1812.45
316.15	1730.53
316.36	1689.57
316.57	1681.38
316.79	1687.53
317.00	1681.38
317.21	1759.21
317.43	1714.15
317.64	1718.25
317.85	1665.00
318.07	1736.68
318.28	1757.16
318.49	1849.32
318.70	1869.80
318.92	1781.73
319.13	1810.40
319.34	1910.75
319.56	1777.64
319.77	1763.30
319.98	1871.84
320.20	1716.20
320.41	1794.02
320.62	1742.82
320.83	1640.42
321.05	1873.89
321.26	1779.68
321.47	1667.05
321.69	1810.40
321.90	1742.82
322.11	1691.62
322.32	1763.30
322.54	1810.40
322.75	1632.23
322.96	1818.60
323.18	1564.65
323.39	1640.42
323.60	1742.82
323.81	1677.29
324.03	1753.06
324.24	1730.53
324.45	1652.71
324.66	1703.91
324.88	1691.62
325.09	1849.32
325.30	1753.06
325.52	1724.39
325.73	1738.73
325.94	1652.71
326.15	1658.85
326.37	1611.75
326.58	1722.34
326.79	1828.84
327.00	1656.81
327.22	1718.25
327.43	1689.57
327.64	1708.01
327.85	1703.91
328.07	1789.92
328.28	1726.44
328.49	1746.92
328.70	1613.80
328.92	1705.96
329.13	1755.11
329.34	1624.04
329.55	1839.08
329.76	1722.34
329.98	1738.73
330.19	1751.01
330.40	1701.86
330.61	1730.53
330.83	1771.49
331.04	1658.85
331.25	1751.01
331.46	1667.05
331.68	1656.81
331.89	1826.79
332.10	1751.01
332.31	1656.81
332.52	1679.33
332.74	1734.63
332.95	1708.01
333.16	1662.95
333.37	1759.21
333.58	1685.48
333.80	1722.34
334.01	1673.19
334.22	1695.72
334.43	1695.72
334.64	1714.15
334.86	1603.56
335.07	1757.16
335.28	1755.11
335.49	1634.28
335.70	1722.34
335.92	1822.69
336.13	1863.65
336.34	1744.87
336.55	1683.43
336.76	1722.34
336.98	1550.31
337.19	1710.05
337.40	1779.68
337.61	1847.27
337.82	1665.00
338.04	1767.40
338.25	1650.66
338.46	1761.25
338.67	1652.71
338.88	1619.94
339.09	1703.91
339.31	1751.01
339.52	1705.96
339.73	1564.65
339.94	1722.34
340.15	1771.49
340.36	1652.71
340.58	1724.39
340.79	1619.94
341.00	1677.29
341.21	1677.29
341.42	1839.08
341.63	1751.01
341.85	1806.31
342.06	1765.35
342.27	1640.42
342.48	1812.45
342.69	1599.46
342.90	1757.16
343.12	1751.01
343.33	1728.49
343.54	1781.73
343.75	1734.63
343.96	1691.62
344.17	1681.38
344.38	1746.92
344.60	1652.71
344.81	1603.56
345.02	1673.19
345.23	1781.73
345.44	1761.25
345.65	1755.11
345.86	1710.05
346.07	1746.92
346.29	1673.19
346.50	1734.63
346.71	1783.78
346.92	1789.92
347.13	1806.31
347.34	1673.19
347.55	1730.53
347.76	1787.88
347.98	1667.05
348.19	1730.53
348.40	1777.64
348.61	1656.81
348.82	1757.16
349.03	1763.30
349.24	1617.90
349.45	1769.44
349.66	1591.27
349.88	1685.48
350.09	1652.71
350.30	1873.89
350.51	1775.59
350.72	1720.29
350.93	1734.63
351.14	1667.05
351.35	1802.21
351.56	1751.01
351.77	1771.49
351.99	1693.67
352.20	1855.46
352.41	1785.83
352.62	1646.57
352.83	1658.85
353.04	1714.15
353.25	1714.15
353.46	1814.50
353.67	1736.68
353.88	1601.51
354.09	1738.73
354.30	1662.95
354.52	1791.97
354.73	1681.38
354.94	1767.40
355.15	1726.44
355.36	1888.23
355.57	1726.44
355.78	1677.29
355.99	1665.00
356.20	1576.94
356.41	1710.05
356.62	1607.66
356.83	1763.30
357.04	1804.26
357.25	1632.23
357.46	1687.53
357.68	1529.83
357.89	1703.91
358.10	1722.34
358.31	1779.68
358.52	1693.67
358.73	1626.09
358.94	1703.91
359.15	1656.81
359.36	1761.25
359.57	1716.20
359.78	1675.24
359.99	1748.97
360.20	1621.99
360.41	1656.81
360.62	1740.77
360.83	1767.40
361.04	1722.34
361.25	1683.43
361.46	1896.42
361.67	1748.97
361.88	1681.38
362.09	1759.21
362.30	1755.11
362.51	1636.33
362.72	1675.24
362.93	1742.82
363.14	1763.30
363.35	1701.86
363.56	1654.76
363.78	1849.32
363.99	1728.49
364.20	1660.90
364.41	1740.77
364.62	1800.16
364.83	1665.00
365.04	1759.21
365.25	1746.92
365.46	1806.31
365.67	1726.44
365.88	1535.98
366.09	1683.43
366.30	1662.95
366.51	1732.58
366.72	1595.37
366.93	1734.63
367.14	1718.25
367.35	1806.31
367.56	1691.62
367.77	1837.03
367.98	1722.34
368.18	1705.96
368.39	1769.44
368.60	1703.91
368.81	1761.25
369.02	1714.15
369.23	1722.34
369.44	1624.04
369.65	1746.92
369.86	1757.16
370.07	1765.35
370.28	1748.97
370.49	1787.88
370.70	1810.40
370.91	1611.75
371.12	1640.42
371.33	1755.11
371.54	1681.38
371.75	1748.97
371.96	1538.02
372.17	1771.49
372.38	1763.30
372.59	1802.21
372.80	1753.06
373.01	1763.30
373.22	1714.15
373.43	1765.35
373.64	1621.99
373.85	1865.70
374.06	1824.74
374.26	1718.25
374.47	1714.15
374.68	1796.07
374.89	1630.18
375.10	1718.25
375.31	1703.91
375.52	1644.52
375.73	1658.85
375.94	1656.81
376.15	1804.26
376.36	1658.85
376.57	1742.82
376.78	1761.25
376.99	1779.68
377.20	1787.88
377.40	1710.05
377.61	1800.16
377.82	1705.96
378.03	1773.54
378.24	1748.97
378.45	1685.48
378.66	1671.14
378.87	1632.23
379.08	1603.56
379.29	1656.81
379.50	1798.12
379.71	1734.63
379.91	1734.63
380.12	1738.73
380.33	1722.34
380.54	1714.15
380.75	1691.62
380.96	1718.25
381.17	1791.97
381.38	1736.68
381.59	1796.07
381.80	1712.10
382.00	1783.78
382.21	1771.49
382.42	1839.08
382.63	1912.80
382.84	1769.44
383.05	1740.77
383.26	1800.16
383.47	1724.39
383.68	1779.68
383.88	1773.54
384.09	1759.21
384.30	1767.40
384.51	1705.96
384.72	1724.39
384.93	1626.09
385.14	1691.62
385.35	1759.21
385.55	1691.62
385.76	1746.92
385.97	1744.87
386.18	1617.90
386.39	1693.67
386.60	1699.81
386.81	1658.85
387.02	1699.81
387.22	1726.44
387.43	1822.69
387.64	1839.08
387.85	1916.90
388.06	2154.46
388.27	4106.18
388.48	6827.93
388.68	8245.12
388.89	9662.32
389.10	9893.74
389.31	8802.17
389.52	7563.15
389.73	6766.49
389.93	6287.26
390.14	5994.40
390.35	5210.03
390.56	4593.59
390.77	3837.89
390.98	3026.90
391.18	2549.72
391.39	2164.70
391.60	1814.50
391.81	1920.99
392.02	1689.57
392.23	1785.83
392.43	1740.77
392.64	1763.30
392.85	1757.16
393.06	1775.59
393.27	1710.05
393.47	1632.23
393.68	1722.34
393.89	1703.91
394.10	1744.87
394.31	1621.99
394.52	1718.25
394.72	1718.25
394.93	1845.22
395.14	1636.33
395.35	1777.64
395.56	1699.81
395.76	1785.83
395.97	1740.77
396.18	1841.12
396.39	1845.22
396.60	2027.49
396.80	1931.23
397.01	1877.99
397.22	1818.60
397.43	1820.64
397.64	1724.39
397.84	1820.64
398.05	1916.90
398.26	1781.73
398.47	1771.49
398.67	1798.12
398.88	1732.58
399.09	1730.53
399.30	1652.71
399.51	1748.97
399.71	1712.10
399.92	1720.29
400.13	1716.20
400.34	1724.39
400.54	1753.06
400.75	1802.21
400.96	1703.91
401.17	1757.16
401.37	1785.83
401.58	1687.53
401.79	1742.82
402.00	1804.26
402.21	1980.39
402.41	1990.63
402.62	1996.77
402.83	2086.88
403.04	2072.54
403.24	2111.46
403.45	1867.75
403.66	1943.52
403.87	1855.46
404.07	1888.23
404.28	1931.23
404.49	1896.42
404.70	1748.97
404.90	1822.69
405.11	1822.69
405.32	1701.86
405.52	1703.91
405.73	1630.18
405.94	1757.16
406.15	1777.64
406.35	1757.16
406.56	1791.97
406.77	1728.49
406.98	1785.83
407.18	1724.39
407.39	1882.08
407.60	1730.53
407.80	1718.25
408.01	1632.23
408.22	1714.15
408.43	1730.53
408.63	1708.01
408.84	1763.30
409.05	1730.53
409.25	1636.33
409.46	1601.51
409.67	1652.71
409.88	1689.57
410.08	1738.73
410.29	1710.05
410.50	1736.68
410.70	1673.19
410.91	1697.77
411.12	1738.73
411.32	1660.90
411.53	1687.53
411.74	1783.78
411.95	1789.92
412.15	1720.29
412.36	1689.57
412.57	1746.92
412.77	1738.73
412.98	1753.06
413.19	1638.38
413.39	1701.86
413.60	1728.49
413.81	1775.59
414.01	1677.29
414.22	1738.73
414.43	1691.62
414.63	1677.29
414.84	1748.97
415.05	1705.96
415.25	1660.90
415.46	1744.87
415.67	1689.57
415.87	1757.16
416.08	1720.29
416.29	1701.86
416.49	1800.16
416.70	1755.11
416.91	1769.44
417.11	1822.69
417.32	1693.67
417.53	1834.98
417.73	1738.73
417.94	1599.46
418.15	1628.14
418.35	1746.92
418.56	1716.20
418.77	1808.36
418.97	1703.91
419.18	1654.76
419.38	1595.37
419.59	1640.42
419.80	1851.36
420.00	1669.09
420.21	1746.92
420.42	1748.97
420.62	1701.86
420.83	1652.71
421.04	1691.62
421.24	1701.86
421.45	1748.97
421.65	1687.53
421.86	1734.63
422.07	1732.58
422.27	1777.64
422.48	1705.96
422.69	1679.33
422.89	1734.63
423.10	1736.68
423.30	1677.29
423.51	1714.15
423.72	1630.18
423.92	1767.40
424.13	1617.90
424.33	1701.86
424.54	1818.60
424.75	1710.05
424.95	1794.02
425.16	1732.58
425.36	1718.25
425.57	1777.64
425.78	1787.88
425.98	1732.58
426.19	1638.38
426.39	1685.48
426.60	1693.67
426.81	1767.40
427.01	1699.81
427.22	1626.09
427.42	1681.38
427.63	1642.47
427.83	1755.11
428.04	1847.27
428.25	1839.08
428.45	1726.44
428.66	1712.10
428.86	1656.81
429.07	1718.25
429.28	1693.67
429.48	1714.15
429.69	1703.91
429.89	1724.39
430.10	1673.19
430.30	1753.06
430.51	1753.06
430.71	1640.42
430.92	1695.72
431.13	1705.96
431.33	1767.40
431.54	1701.86
431.74	1732.58
431.95	1832.93
432.15	1669.09
432.36	1724.39
432.56	1751.01
432.77	1869.80
432.98	1834.98
433.18	1744.87
433.39	1738.73
433.59	1691.62
433.80	1794.02
434.00	1882.08
434.21	1726.44
434.41	1751.01
434.62	1830.88
434.82	1693.67
435.03	1621.99
435.23	1734.63
435.44	1609.70
435.64	1710.05
435.85	1806.31
436.06	1744.87
436.26	1757.16
436.47	1718.25
436.67	1669.09
436.88	1689.57
437.08	1744.87
437.29	1732.58
437.49	1714.15
437.70	1820.64
437.90	1691.62
438.11	1875.94
438.31	1849.32
438.52	1845.22
438.72	1861.60
438.93	1927.14
439.13	1847.27
439.34	1808.36
439.54	1779.68
439.75	1894.37
439.95	1837.03
440.16	1685.48
440.36	1689.57
440.57	1808.36
440.77	1789.92
440.98	1759.21
441.18	1742.82
441.39	1665.00
441.59	1720.29
441.80	1806.31
442.00	1718.25
442.21	1812.45
442.41	1642.47
442.62	1804.26
442.82	1656.81
443.02	1705.96
443.23	1748.97
443.43	1671.14
443.64	1794.02
443.84	1771.49
444.05	1773.54
444.25	1718.25
444.46	1722.34
444.66	1705.96
444.87	1843.17
445.07	1667.05
445.28	1722.34
445.48	1794.02
445.69	1769.44
445.89	1916.90
446.09	1746.92
446.30	2015.20
446.50	2686.94
446.71	3827.65
446.91	4384.70
447.12	4820.92
447.32	4890.55
447.53	4370.37
447.73	3815.37
447.93	3536.84
448.14	3330.00
448.34	3155.92
448.55	2842.58
448.75	2807.77
448.96	2738.13
449.16	2365.40
449.36	2330.59
449.57	2068.45
449.77	2004.96
449.98	1804.26
450.18	1830.88
450.39	1851.36
450.59	1832.93
450.79	1734.63
451.00	1751.01
451.20	1773.54
451.41	1746.92
451.61	1769.44
451.81	1773.54
452.02	1708.01
452.22	1732.58
452.43	1773.54
452.63	1689.57
452.84	1742.82
453.04	1791.97
453.24	1744.87
453.45	1650.66
453.65	1744.87
453.86	1744.87
454.06	1796.07
454.26	1794.02
454.47	1673.19
454.67	1796.07
454.87	1699.81
455.08	1699.81
455.28	1828.84
455.49	1775.59
455.69	1726.44
455.89	1953.76
456.10	1818.60
456.30	1769.44
456.51	1808.36
456.71	1716.20
456.91	1775.59
457.12	1736.68
457.32	1837.03
457.52	1683.43
457.73	1757.16
457.93	1816.55
458.14	1712.10
458.34	1742.82
458.54	1718.25
458.75	1738.73
458.95	1767.40
459.15	1738.73
459.36	1652.71
459.56	1785.83
459.76	1865.70
459.97	1738.73
460.17	1687.53
460.37	1861.60
460.58	1767.40
460.78	1800.16
460.99	1712.10
461.19	1746.92
461.39	1714.15
461.60	1718.25
461.80	1722.34
462.00	1638.38
462.21	1634.28
462.41	1724.39
462.61	1624.04
462.82	1640.42
463.02	1804.26
463.22	1767.40
463.43	1789.92
463.63	1828.84
463.83	1828.84
464.04	1810.40
464.24	1753.06
464.44	1753.06
464.64	1763.30
464.85	1722.34
465.05	1779.68
465.25	1714.15
465.46	1669.09
465.66	1708.01
465.86	1769.44
466.07	1726.44
466.27	1757.16
466.47	1636.33
466.68	1724.39
466.88	1839.08
467.08	1722.34
467.29	1759.21
467.49	1751.01
467.69	1697.77
467.89	1755.11
468.10	1761.25
468.30	1794.02
468.50	1779.68
468.71	1802.21
468.91	1634.28
469.11	1853.41
469.31	1779.68
469.52	1667.05
469.72	1757.16
469.92	1804.26
470.13	1667.05
470.33	1755.11
470.53	1822.69
470.73	2146.27
470.94	2318.30
471.14	2299.87
471.34	2588.63
471.54	2412.51
471.75	2185.18
471.95	2240.48
472.15	1992.67
472.36	2144.22
472.56	2121.70
472.76	2095.07
472.96	2119.65
473.17	1937.38
473.37	1818.60
473.57	1802.21
473.77	1800.16
473.98	1685.48
474.18	1726.44
474.38	1861.60
474.58	1679.33
474.79	1705.96
474.99	1791.97
475.19	1802.21
475.39	1636.33
475.60	1769.44
475.80	1740.77
476.00	1689.57
476.20	1734.63
476.41	1742.82
476.61	1783.78
476.81	1730.53
477.01	1683.43
477.21	1791.97
477.42	1796.07
477.62	1677.29
477.82	1755.11
478.02	1673.19
478.23	1753.06
478.43	1667.05
478.63	1654.76
478.83	1695.72
479.03	1718.25
479.24	1798.12
479.44	1863.65
479.64	1675.24
479.84	1597.42
480.04	1724.39
480.25	1824.74
480.45	1675.24
480.65	1697.77
480.85	1773.54
481.06	1605.61
481.26	1759.21
481.46	1761.25
481.66	1761.25
481.86	1689.57
482.06	1781.73
482.27	1753.06
482.47	1755.11
482.67	1738.73
482.87	1738.73
483.07	1839.08
483.28	1701.86
483.48	1689.57
483.68	1771.49
483.88	1669.09
484.08	1660.90
484.29	1646.57
484.49	1789.92
484.69	1689.57
484.89	1816.55
485.09	1798.12
485.29	1757.16
485.50	1773.54
485.70	1662.95
485.90	1773.54
486.10	1791.97
486.30	1697.77
486.50	1789.92
486.71	1701.86
486.91	1789.92
487.11	1802.21
487.31	1685.48
487.51	1730.53
487.71	1705.96
487.91	1589.22
488.12	1665.00
488.32	1535.98
488.52	1712.10
488.72	1654.76
488.92	1748.97
489.12	1783.78
489.32	1830.88
489.53	1757.16
489.73	1624.04
489.93	1896.42
490.13	1615.85
490.33	1642.47
490.53	1763.30
490.73	1746.92
490.94	1665.00
491.14	1798.12
491.34	1808.36
491.54	2111.46
491.74	2463.71
491.94	2992.08
492.14	3016.66
492.34	3043.28
492.54	2727.89
492.75	2516.95
492.95	2430.94
493.15	2281.44
493.35	2293.72
493.55	2164.70
493.75	2072.54
493.95	2101.22
494.15	2011.11
494.35	1914.85
494.56	1873.89
494.76	1658.85
494.96	1730.53
495.16	1724.39
495.36	1751.01
495.56	1703.91
495.76	1656.81
495.96	1734.63
496.16	1701.86
496.36	1767.40
496.56	1693.67
496.77	1753.06
496.97	1769.44
497.17	1812.45
497.37	1644.52
497.57	1783.78
497.77	1728.49
497.97	1648.61
498.17	1701.86
498.37	1771.49
498.57	1718.25
498.77	1636.33
498.97	1834.98
499.17	1796.07
499.38	1697.77
499.58	1783.78
499.78	1771.49
499.98	1773.54
500.18	1767.40
500.38	1683.43
500.58	1945.57
500.78	2535.39
500.98	4618.17
501.18	5820.33
501.38	6700.95
501.58	7149.46
501.78	6655.90
501.98	5558.19
502.18	5031.86
502.38	4450.24
502.58	4122.56
502.78	3727.30
502.98	3692.49
503.18	3426.25
503.38	3104.72
503.59	2811.86
503.79	2695.13
503.99	2439.13
504.19	2267.10
504.39	2256.86
504.59	2181.09
504.79	2189.28
504.99	2074.59
505.19	1925.09
505.39	1843.17
505.59	2009.06
505.79	1916.90
505.99	1972.19
506.19	1814.50
506.39	1875.94
506.59	1730.53
506.79	1732.58
506.99	1812.45
507.19	1757.16
507.39	1777.64
507.59	1667.05
507.79	1751.01
507.99	1796.07
508.19	1681.38
508.39	1732.58
508.59	1683.43
508.79	1785.83
508.99	1771.49
509.19	1710.05
509.39	1824.74
509.59	1738.73
509.79	1669.09
509.99	1728.49
510.19	1820.64
510.39	1697.77
510.59	1736.68
510.79	1742.82
510.99	1710.05
511.19	1724.39
511.39	1781.73
511.59	1718.25
511.79	1777.64
511.99	1738.73
512.19	1841.12
512.38	1777.64
512.58	1685.48
512.78	1798.12
512.98	1791.97
513.18	1732.58
513.38	1675.24
513.58	1783.78
513.78	1681.38
513.98	1759.21
514.18	1738.73
514.38	1703.91
514.58	1779.68
514.78	1683.43
514.98	1751.01
515.18	1673.19
515.38	1646.57
515.58	1896.42
515.78	1640.42
515.98	1724.39
516.18	1736.68
516.38	1740.77
516.57	1738.73
516.77	1705.96
516.97	1714.15
517.17	1697.77
517.37	1667.05
517.57	1787.88
517.77	1734.63
517.97	1767.40
518.17	1873.89
518.37	1652.71
518.57	1691.62
518.77	1636.33
518.97	1759.21
519.16	1826.79
519.36	1787.88
519.56	1724.39
519.76	1748.97
519.96	1820.64
520.16	1826.79
520.36	1691.62
520.56	1771.49
520.76	1621.99
520.96	1744.87
521.16	1728.49
521.35	1763.30
521.55	1828.84
521.75	1693.67
521.95	1742.82
522.15	1746.92
522.35	1675.24
522.55	1708.01
522.75	1816.55
522.95	1761.25
523.14	1589.22
523.34	1718.25
523.54	1728.49
523.74	1869.80
523.94	1693.67
524.14	1658.85
524.34	1757.16
524.54	1812.45
524.73	1634.28
524.93	1837.03
525.13	1740.77
525.33	1687.53
525.53	1841.12
525.73	1748.97
525.93	1787.88
526.13	1656.81
526.32	1722.34
526.52	1839.08
526.72	1818.60
526.92	1738.73
527.12	1796.07
527.32	1599.46
527.52	1744.87
527.71	1775.59
527.91	1841.12
528.11	1705.96
528.31	1738.73
528.51	1703.91
528.71	1791.97
528.90	1783.78
529.10	1824.74
529.30	1847.27
529.50	1671.14
529.70	1751.01
529.90	1761.25
530.09	1738.73
530.29	1685.48
530.49	1675.24
530.69	1892.32
530.89	1669.09
531.09	1826.79
531.28	1671.14
531.48	1765.35
531.68	1783.78
531.88	1722.34
532.08	1779.68
532.28	1763.30
532.47	1751.01
532.67	1791.97
532.87	1742.82
533.07	1673.19
533.27	1787.88
533.46	1781.73
533.66	1755.11
533.86	1705.96
534.06	1720.29
534.26	1742.82
534.45	1804.26
534.65	1806.31
534.85	1681.38
535.05	1761.25
535.25	1769.44
535.44	1673.19
535.64	1798.12
535.84	1675.24
536.04	1751.01
536.24	1683.43
536.43	1724.39
536.63	1716.20
536.83	1748.97
537.03	1744.87
537.22	1656.81
537.42	1632.23
537.62	1751.01
537.82	1712.10
538.02	1808.36
538.21	1855.46
538.41	1910.75
538.61	1822.69
538.81	1718.25
539.00	1820.64
539.20	1669.09
539.40	1712.10
539.60	1789.92
539.79	1773.54
539.99	1708.01
540.19	1699.81
540.39	1767.40
540.58	1708.01
540.78	1837.03
540.98	1691.62
541.18	1779.68
541.37	1826.79
541.57	1748.97
541.77	1730.53
541.97	1724.39
542.16	1611.75
542.36	1693.67
542.56	1710.05
542.76	1859.56
542.95	1787.88
543.15	1777.64
543.35	1820.64
543.54	1757.16
543.74	1705.96
543.94	1765.35
544.14	1722.34
544.33	1726.44
544.53	1652.71
544.73	1691.62
544.93	1710.05
545.12	1689.57
545.32	1726.44
545.52	1703.91
545.71	1681.38
545.91	1789.92
546.11	1769.44
546.30	1681.38
546.50	1746.92
546.70	1845.22
546.90	1837.03
547.09	1687.53
547.29	1808.36
547.49	1843.17
547.68	1744.87
547.88	1677.29
548.08	1777.64
548.27	2154.46
548.47	1800.16
548.67	1720.29
548.87	1701.86
549.06	1689.57
549.26	1771.49
549.46	1759.21
549.65	1597.42
549.85	1806.31
550.05	1820.64
550.24	1660.90
550.44	1759.21
550.64	1726.44
550.83	1744.87
551.03	1890.28
551.23	1828.84
551.42	1828.84
551.62	1712.10
551.82	1732.58
552.01	1697.77
552.21	1828.84
552.41	1705.96
552.60	1880.04
552.80	1722.34
553.00	1730.53
553.19	1716.20
553.39	1851.36
553.59	1632.23
553.78	1785.83
553.98	1775.59
554.17	1697.77
554.37	1767.40
554.57	1769.44
554.76	1699.81
554.96	1742.82
555.16	1757.16
555.35	1687.53
555.55	1812.45
555.75	1761.25
555.94	1730.53
556.14	1683.43
556.33	1746.92
556.53	1740.77
556.73	1845.22
556.92	1773.54
557.12	1828.84
557.32	1814.50
557.51	1781.73
557.71	1755.11
557.90	1798.12
558.10	1808.36
558.30	1767.40
558.49	1787.88
558.69	1746.92
558.88	1781.73
559.08	1800.16
559.28	1714.15
559.47	1697.77
559.67	1830.88
559.86	1867.75
560.06	1796.07
560.26	1734.63
560.45	1724.39
560.65	1775.59
560.84	1837.03
561.04	1695.72
561.24	1759.21
561.43	1685.48
561.63	1841.12
561.82	1726.44
562.02	1751.01
562.22	1705.96
562.41	1656.81
562.61	1673.19
562.80	1615.85
563.00	1849.32
563.19	1734.63
563.39	1791.97
563.59	1748.97
563.78	1613.80
563.98	1615.85
564.17	1714.15
564.37	1634.28
564.56	1730.53
564.76	1640.42
564.96	1761.25
565.15	1800.16
565.35	1939.43
565.54	1691.62
565.74	1751.01
565.93	1773.54
566.13	1744.87
566.32	1789.92
566.52	1751.01
566.71	1781.73
566.91	1728.49
567.11	1791.97
567.30	1689.57
567.50	1875.94
567.69	1779.68
567.89	1769.44
568.08	1671.14
568.28	1787.88
568.47	1724.39
568.67	1824.74
568.86	1660.90
569.06	1767.40
569.25	1759.21
569.45	1691.62
569.64	1777.64
569.84	1740.77
570.04	1738.73
570.23	1791.97
570.43	1673.19
570.62	1775.59
570.82	1841.12
571.01	1738.73
571.21	1742.82
571.40	1636.33
571.60	1796.07
571.79	1849.32
571.99	1656.81
572.18	1691.62
572.38	1822.69
572.57	1738.73
572.77	1810.40
572.96	1884.13
573.16	1755.11
573.35	1732.58
573.55	1873.89
573.74	1783.78
573.94	1687.53
574.13	1773.54
574.33	1802.21
574.52	1886.18
574.71	1769.44
574.91	1789.92
575.10	1701.86
575.30	1755.11
575.49	1712.10
575.69	1685.48
575.88	1746.92
576.08	1746.92
576.27	1771.49
576.47	1673.19
576.66	1781.73
576.86	1751.01
577.05	1708.01
577.25	1765.35
577.44	1941.47
577.64	1730.53
577.83	1718.25
578.02	1679.33
578.22	1822.69
578.41	1845.22
578.61	1714.15
578.80	1757.16
579.00	1789.92
579.19	1771.49
579.39	1757.16
579.58	1847.27
579.77	1689.57
579.97	1810.40
580.16	1773.54
580.36	1841.12
580.55	1804.26
580.75	1820.64
580.94	1761.25
581.13	1886.18
581.33	1857.51
581.52	1658.85
581.72	1937.38
581.91	1912.80
582.11	1724.39
582.30	1794.02
582.49	1794.02
582.69	1875.94
582.88	1798.12
583.08	1791.97
583.27	1853.41
583.47	1763.30
583.66	1783.78
583.85	1714.15
584.05	1832.93
584.24	1728.49
584.44	1755.11
584.63	1845.22
584.82	1904.61
585.02	1832.93
585.21	1812.45
585.41	1841.12
585.60	1830.88
585.79	1931.23
585.99	1968.10
586.18	1865.70
586.37	2195.42
586.57	3297.23
586.76	9842.54
586.96	24077.97
587.15	34336.24
587.34	40453.53
587.54	42272.12
587.73	36898.25
587.93	26525.29
588.12	21505.72
588.31	18337.51
588.51	16326.41
588.70	15218.46
588.89	14004.01
589.09	12590.91
589.28	11048.79
589.47	9404.27
589.67	7991.17
589.86	6334.37
590.06	4958.13
590.25	3897.28
590.44	3067.86
590.64	2658.26
590.83	2209.76
591.02	2115.55
591.22	1896.42
591.41	1927.14
591.60	1871.84
591.80	2019.30
591.99	1748.97
592.18	1785.83
592.38	1849.32
592.57	1718.25
592.76	1787.88
592.96	1769.44
593.15	1753.06
593.34	1818.60
593.54	1849.32
593.73	1757.16
593.92	1761.25
594.12	1763.30
594.31	1771.49
594.50	1837.03
594.70	1808.36
594.89	1982.43
595.08	1753.06
595.28	1841.12
595.47	1906.66
595.66	1794.02
595.86	1687.53
596.05	1697.77
596.24	1671.14
596.43	1798.12
596.63	1734.63
596.82	1746.92
597.01	1841.12
597.21	1898.47
597.40	1736.68
597.59	1861.60
597.79	1753.06
597.98	1882.08
598.17	1765.35
598.36	1730.53
598.56	1787.88
598.75	1716.20
598.94	1820.64
599.14	1781.73
599.33	1738.73
599.52	1812.45
599.71	1777.64
599.91	1802.21
600.10	1753.06
600.29	1722.34
600.48	1740.77
600.68	1806.31
600.87	1767.40
601.06	1738.73
601.26	1765.35
601.45	1763.30
601.64	1834.98
601.83	1777.64
602.03	1761.25
602.22	1763.30
602.41	1847.27
602.60	1920.99
602.80	1753.06
602.99	1787.88
603.18	1708.01
603.37	1757.16
603.57	1777.64
603.76	1853.41
603.95	1826.79
604.14	1720.29
604.34	1689.57
604.53	1718.25
604.72	1691.62
604.91	1808.36
605.10	1847.27
605.30	1658.85
605.49	1861.60
605.68	1773.54
605.87	1740.77
606.07	1740.77
606.26	1734.63
606.45	1777.64
606.64	1744.87
606.84	1701.86
607.03	1665.00
607.22	1794.02
607.41	1689.57
607.60	1701.86
607.80	1806.31
607.99	1718.25
608.18	1781.73
608.37	1705.96
608.56	1642.47
608.76	1744.87
608.95	1812.45
609.14	1824.74
609.33	1802.21
609.52	1710.05
609.72	1697.77
609.91	1755.11
610.10	1757.16
610.29	1857.51
610.48	1703.91
610.68	1710.05
610.87	1767.40
611.06	1730.53
611.25	1742.82
611.44	1785.83
611.63	1759.21
611.83	1787.88
612.02	1605.61
612.21	1757.16
612.40	1671.14
612.59	1697.77
612.79	1685.48
612.98	1777.64
613.17	1849.32
613.36	1736.68
613.55	1908.71
613.74	1681.38
613.93	1691.62
614.13	1671.14
614.32	1724.39
614.51	1755.11
614.70	1732.58
614.89	1667.05
615.08	1839.08
615.28	2029.54
615.47	1656.81
615.66	1714.15
615.85	1695.72
616.04	1869.80
616.23	1751.01
616.42	1708.01
616.62	1773.54
616.81	1691.62
617.00	1681.38
617.19	1804.26
617.38	1730.53
617.57	1648.61
617.76	1726.44
617.95	1771.49
618.15	1808.36
618.34	1722.34
618.53	1621.99
618.72	1814.50
618.91	1904.61
619.10	1775.59
619.29	1822.69
619.48	1740.77
619.68	1691.62
619.87	1728.49
620.06	1675.24
620.25	1785.83
620.44	1693.67
620.63	1705.96
620.82	1740.77
621.01	1685.48
621.20	1742.82
621.39	1701.86
621.59	1703.91
621.78	1763.30
621.97	1755.11
622.16	1767.40
622.35	1767.40
622.54	1732.58
622.73	1746.92
622.92	1619.94
623.11	1742.82
623.30	1773.54
623.49	1808.36
623.68	1683.43
623.88	1791.97
624.07	1714.15
624.26	1724.39
624.45	1708.01
624.64	1759.21
624.83	1787.88
625.02	1675.24
625.21	1701.86
625.40	1751.01
625.59	1787.88
625.78	1732.58
625.97	1755.11
626.16	1720.29
626.35	1781.73
626.54	1630.18
626.74	1751.01
626.93	1730.53
627.12	1720.29
627.31	1824.74
627.50	1794.02
627.69	1656.81
627.88	1701.86
628.07	1708.01
628.26	1806.31
628.45	1665.00
628.64	1632.23
628.83	1703.91
629.02	1730.53
629.21	1738.73
629.40	1753.06
629.59	1681.38
629.78	1671.14
629.97	1736.68
630.16	1757.16
630.35	1693.67
630.54	1753.06
630.73	1673.19
630.92	1705.96
631.11	1740.77
631.30	1777.64
631.49	1740.77
631.68	1761.25
631.87	1732.58
632.06	1652.71
632.25	1855.46
632.44	1730.53
632.63	1738.73
632.82	1677.29
633.01	1689.57
633.20	1718.25
633.39	1611.75
633.58	1673.19
633.77	1789.92
633.96	1806.31
634.15	1693.67
634.34	1755.11
634.53	1705.96
634.72	1652.71
634.91	1665.00
635.10	1820.64
635.29	1830.88
635.48	1701.86
635.67	1691.62
635.86	1624.04
636.05	1800.16
636.24	1746.92
636.43	1728.49
636.62	1742.82
636.81	1626.09
637.00	1726.44
637.19	1775.59
637.38	1763.30
637.57	1708.01
637.76	1710.05
637.95	1787.88
638.14	1691.62
638.33	1681.38
638.52	1681.38
638.71	1662.95
638.89	1628.14
639.08	1880.04
639.27	1777.64
639.46	1652.71
639.65	1865.70
639.84	1650.66
640.03	1826.79
640.22	1646.57
640.41	1808.36
640.60	1687.53
640.79	1718.25
640.98	1716.20
641.17	1765.35
641.36	1718.25
641.55	1681.38
641.74	1669.09
641.92	1640.42
642.11	1640.42
642.30	1669.09
642.49	1697.77
642.68	1701.86
642.87	1779.68
643.06	1783.78
643.25	1689.57
643.44	1679.33
643.63	1724.39
643.82	1759.21
644.00	1691.62
644.19	1595.37
644.38	1669.09
644.57	1718.25
644.76	1714.15
644.95	1646.57
645.14	1791.97
645.33	1742.82
645.52	1687.53
645.71	1591.27
645.89	1677.29
646.08	1732.58
646.27	1777.64
646.46	1857.51
646.65	1671.14
646.84	1761.25
647.03	1687.53
647.22	1753.06
647.40	1701.86
647.59	1722.34
647.78	1673.19
647.97	1736.68
648.16	1665.00
648.35	1841.12
648.54	1855.46
648.73	1693.67
648.91	1724.39
649.10	1783.78
649.29	1667.05
649.48	1722.34
649.67	1753.06
649.86	1730.53
650.05	1693.67
650.23	1777.64
650.42	1658.85
650.61	1746.92
650.80	1783.78
650.99	1808.36
651.18	1712.10
651.36	1787.88
651.55	1673.19
651.74	1818.60
651.93	1701.86
652.12	1734.63
652.31	1722.34
652.49	1701.86
652.68	1658.85
652.87	1783.78
653.06	1708.01
653.25	1714.15
653.44	1757.16
653.62	1738.73
653.81	1738.73
654.00	1703.91
654.19	1779.68
654.38	1877.99
654.56	1728.49
654.75	1759.21
654.94	1738.73
655.13	1783.78
655.32	1671.14
655.51	1814.50
655.69	1673.19
655.88	1828.84
656.07	1689.57
656.26	1771.49
656.45	1628.14
656.63	1724.39
656.82	1736.68
657.01	1720.29
657.20	1744.87
657.38	1796.07
657.57	1738.73
657.76	1667.05
657.95	1769.44
658.14	1669.09
658.32	1738.73
658.51	1683.43
658.70	1769.44
658.89	1765.35
659.08	1744.87
659.26	1789.92
659.45	1669.09
659.64	1767.40
659.83	1701.86
660.01	1941.47
660.20	1726.44
660.39	1775.59
660.58	1615.85
660.76	1769.44
660.95	1609.70
661.14	1769.44
661.33	1619.94
661.51	1687.53
661.70	1689.57
661.89	1763.30
662.08	1693.67
662.26	1697.77
662.45	1681.38
662.64	1796.07
662.83	1796.07
663.01	1677.29
663.20	1714.15
663.39	1855.46
663.58	1665.00
663.76	1681.38
663.95	1796.07
664.14	1683.43
664.32	1751.01
664.51	1759.21
664.70	1634.28
664.89	1705.96
665.07	1681.38
665.26	1789.92
665.45	1662.95
665.64	1796.07
665.82	1736.68
666.01	1763.30
666.20	1714.15
666.38	1826.79
666.57	1832.93
666.76	2107.36
666.95	4468.67
667.13	10481.50
667.32	15218.46
667.51	17891.06
667.69	19306.20
667.88	17889.01
668.07	12605.25
668.25	9537.39
668.44	8255.36
668.63	7491.47
668.81	6928.28
669.00	6401.95
669.19	5855.14
669.38	5128.11
669.56	4646.84
669.75	3960.77
669.94	3487.69
670.12	2828.24
670.31	2537.43
670.50	2246.62
670.68	1986.53
670.87	1888.23
671.06	1812.45
671.24	1832.93
671.43	1820.64
671.62	1781.73
671.80	1665.00
671.99	1736.68
672.18	1685.48
672.36	1798.12
672.55	1740.77
672.74	1710.05
672.92	1697.77
673.11	1734.63
673.29	1648.61
673.48	1695.72
673.67	1744.87
673.85	1787.88
674.04	1742.82
674.23	1652.71
674.41	1861.60
674.60	1710.05
674.79	1615.85
674.97	1656.81
675.16	1781.73
675.34	1775.59
675.53	1665.00
675.72	1763.30
675.90	1830.88
676.09	1667.05
676.28	1728.49
676.46	1697.77
676.65	1763.30
676.83	1689.57
677.02	1720.29
677.21	1699.81
677.39	1722.34
677.58	1621.99
677.77	1718.25
677.95	1611.75
678.14	1757.16
678.32	1689.57
678.51	1642.47
678.70	1828.84
678.88	1677.29
679.07	1697.77
679.25	1746.92
679.44	1763.30
679.63	1609.70
679.81	1724.39
680.00	1734.63
680.18	1716.20
680.37	1830.88
680.55	1757.16
680.74	1673.19
680.93	1583.08
681.11	1728.49
681.30	1630.18
681.48	1689.57
681.67	1718.25
681.85	1699.81
682.04	1679.33
682.23	1761.25
682.41	1755.11
682.60	1701.86
682.78	1728.49
682.97	1660.90
683.15	1697.77
683.34	1763.30
683.53	1783.78
683.71	1681.38
683.90	1773.54
684.08	1755.11
684.27	1714.15
684.45	1751.01
684.64	1826.79
684.82	1691.62
685.01	1771.49
685.19	1701.86
685.38	1802.21
685.57	1714.15
685.75	1716.20
685.94	1628.14
686.12	1679.33
686.31	1699.81
686.49	1818.60
686.68	1689.57
686.86	1732.58
687.05	1755.11
687.23	1806.31
687.42	1785.83
687.60	1685.48
687.79	1773.54
687.97	1830.88
688.16	1751.01
688.34	1757.16
688.53	1562.60
688.71	1718.25
688.90	1789.92
689.08	1759.21
689.27	1603.56
689.45	1691.62
689.64	1757.16
689.82	1732.58
690.01	1781.73
690.19	1681.38
690.38	1761.25
690.56	1794.02
690.75	1665.00
690.93	1703.91
691.12	1701.86
691.30	1675.24
691.49	1683.43
691.67	1656.81
691.86	1812.45
692.04	1648.61
692.23	1646.57
692.41	1603.56
692.60	1863.65
692.78	1822.69
692.97	1695.72
693.15	1693.67
693.34	1812.45
693.52	1755.11
693.71	1642.47
693.89	1681.38
694.08	1640.42
694.26	1826.79
694.44	1642.47
694.63	1738.73
694.81	1687.53
695.00	1714.15
695.18	1798.12
695.37	1794.02
695.55	1804.26
695.74	1679.33
695.92	1669.09
696.10	1705.96
696.29	1681.38
696.47	1712.10
696.66	1683.43
696.84	1665.00
697.03	1701.86
697.21	1773.54
697.40	2238.43
697.58	1888.23
697.76	1712.10
697.95	1601.51
698.13	1624.04
698.32	1708.01
698.50	1705.96
698.68	1806.31
698.87	1814.50
699.05	1744.87
699.24	1763.30
699.42	1638.38
699.61	1755.11
699.79	1718.25
699.97	1693.67
700.16	1605.61
700.34	1648.61
700.53	1710.05
700.71	1820.64
700.89	1804.26
701.08	1615.85
701.26	1708.01
701.45	2148.32
701.63	1687.53
701.81	1712.10
702.00	1640.42
702.18	1693.67
702.37	1683.43
702.55	1740.77
702.73	1740.77
702.92	1640.42
703.10	1726.44
703.28	1705.96
703.47	1636.33
703.65	1703.91
703.84	1771.49
704.02	1724.39
704.20	1765.35
704.39	1691.62
704.57	1798.12
704.75	1818.60
704.94	1685.48
705.12	1751.01
705.30	1757.16
705.49	2242.53
705.67	4415.42
705.86	9295.73
706.04	12740.41
706.22	14649.12
706.41	15560.47
706.59	13901.61
706.77	9471.86
706.96	7380.88
707.14	6596.51
707.32	5867.43
707.51	5466.03
707.69	4884.41
707.87	4181.95
708.06	3585.99
708.24	2942.93
708.42	2426.84
708.61	2283.49
708.79	1898.47
708.97	1851.36
709.16	1845.22
709.34	1804.26
709.52	1775.59
709.71	1773.54
709.89	1775.59
710.07	1755.11
710.26	1722.34
710.44	1705.96
710.62	1798.12
710.80	1677.29
710.99	1794.02
711.17	1695.72
711.35	1644.52
711.54	1691.62
711.72	1753.06
711.90	1771.49
712.09	1689.57
712.27	1683.43
712.45	1738.73
712.63	1722.34
712.82	1701.86
713.00	1773.54
713.18	1775.59
713.37	1751.01
713.55	1769.44
713.73	1718.25
713.91	1767.40
714.10	1755.11
714.28	1716.20
714.46	1769.44
714.65	1705.96
714.83	1763.30
715.01	1714.15
715.19	1634.28
715.38	1718.25
715.56	1765.35
715.74	1673.19
715.92	1726.44
716.11	1742.82
716.29	1646.57
716.47	1730.53
716.65	1660.90
716.84	1630.18
717.02	1710.05
717.20	1615.85
717.38	1642.47
717.57	1708.01
717.75	1701.86
717.93	1705.96
718.11	1744.87
718.30	1568.74
718.48	1724.39
718.66	1720.29
718.84	1789.92
719.03	1736.68
719.21	1703.91
719.39	1804.26
719.57	1765.35
719.75	1832.93
719.94	1679.33
720.12	1685.48
720.30	1710.05
720.48	1759.21
720.67	1708.01
720.85	1632.23
721.03	1695.72
721.21	1705.96
721.39	1783.78
721.58	1740.77
721.76	1708.01
721.94	1773.54
722.12	1720.29
722.30	1765.35
722.49	1742.82
722.67	1724.39
722.85	1697.77
723.03	1636.33
723.21	1617.90
723.40	1648.61
723.58	1748.97
723.76	1767.40
723.94	1783.78
724.12	1710.05
724.30	1763.30
724.49	1787.88
724.67	1648.61
724.85	1834.98
725.03	1611.75
725.21	1763.30
725.40	1794.02
725.58	1751.01
725.76	1767.40
725.94	1728.49
726.12	1662.95
726.30	1751.01
726.49	1730.53
726.67	1648.61
726.85	1699.81
727.03	1740.77
727.21	2238.43
727.39	2975.70
727.57	3878.85
727.76	4298.69
727.94	4526.01
728.12	4304.83
728.30	3721.16
728.48	2922.45
728.66	2713.56
728.84	2611.16
729.03	2295.77
729.21	2115.55
729.39	2037.73
729.57	1837.03
729.75	1800.16
729.93	1884.13
730.11	1681.38
730.30	1732.58
730.48	1669.09
730.66	1771.49
730.84	1789.92
731.02	1710.05
731.20	1615.85
731.38	1787.88
731.56	1583.08
731.74	1654.76
731.93	1665.00
732.11	1742.82
732.29	1673.19
732.47	1771.49
732.65	1734.63
732.83	1767.40
733.01	1718.25
733.19	1656.81
733.37	1765.35
733.56	1726.44
733.74	1732.58
733.92	1820.64
734.10	1648.61
734.28	1701.86
734.46	1615.85
734.64	1740.77
734.82	1755.11
735.00	1691.62
735.18	1667.05
735.36	1736.68
735.54	1628.14
735.73	1746.92
735.91	1720.29
736.09	1724.39
736.27	1722.34
736.45	1798.12
736.63	1613.80
736.81	1699.81
736.99	1757.16
737.17	1820.64
737.35	1710.05
737.53	1773.54
737.71	1685.48
737.89	1777.64
738.07	1673.19
738.25	1710.05
738.43	1644.52
738.61	1662.95
738.80	1599.46
738.98	1640.42
739.16	1665.00
739.34	1662.95
739.52	1806.31
739.70	1710.05
739.88	1816.55
740.06	1822.69
740.24	1574.89
740.42	1812.45
740.60	1642.47
740.78	1716.20
740.96	1574.89
741.14	1748.97
741.32	1769.44
741.50	1691.62
741.68	1814.50
741.86	1720.29
742.04	1675.24
742.22	1578.98
742.40	1744.87
742.58	1730.53
742.76	1652.71
742.94	1789.92
743.12	1556.46
743.30	1753.06
743.48	1722.34
743.66	1665.00
743.84	1755.11
744.02	1740.77
744.20	1667.05
744.38	1642.47
744.56	1615.85
744.74	1800.16
744.92	1714.15
745.10	1742.82
745.28	1705.96
745.46	1806.31
745.64	1722.34
745.82	1755.11
746.00	1742.82
746.18	1738.73
746.36	1667.05
746.54	1746.92
746.72	1740.77
746.90	1638.38
747.08	1802.21
747.26	1703.91
747.44	1701.86
747.62	1728.49
747.80	1689.57
747.98	1734.63
748.15	1796.07
748.33	1765.35
748.51	1626.09
748.69	1746.92
748.87	1609.70
749.05	1673.19
749.23	1685.48
749.41	1714.15
749.59	1630.18
749.77	1742.82
749.95	1615.85
750.13	1642.47
750.31	1718.25
750.49	1687.53
750.67	1798.12
750.85	1806.31
751.03	1722.34
751.20	1789.92
751.38	1726.44
751.56	1669.09
751.74	1732.58
751.92	1742.82
752.10	1673.19
752.28	1769.44
752.46	1624.04
752.64	1667.05
752.82	1740.77
753.00	1814.50
753.18	1746.92
753.35	1595.37
753.53	1675.24
753.71	1701.86
753.89	1751.01
754.07	1722.34
754.25	1769.44
754.43	1681.38
754.61	1705.96
754.79	1708.01
754.97	1685.48
755.14	1775.59
755.32	1697.77
755.50	1730.53
755.68	1746.92
755.86	1677.29
756.04	1695.72
756.22	1599.46
756.40	1732.58
756.57	1816.55
756.75	1705.96
756.93	1861.60
757.11	1681.38
757.29	1621.99
757.47	1693.67
757.65	1724.39
757.82	1634.28
758.00	1636.33
758.18	1658.85
758.36	1656.81
758.54	1888.23
758.72	1593.32
758.90	1791.97
759.07	1742.82
759.25	1619.94
759.43	1720.29
759.61	1597.42
759.79	2183.13
759.97	1751.01
760.15	1701.86
760.32	1615.85
760.50	1757.16
760.68	1839.08
760.86	1642.47
761.04	1845.22
761.22	1789.92
761.39	1730.53
761.57	1714.15
761.75	1652.71
761.93	1697.77
762.11	1681.38
762.28	1722.34
762.46	1644.52
762.64	1689.57
762.82	1654.76
763.00	1693.67
763.18	1771.49
763.35	1632.23
763.53	1732.58
763.71	1716.20
763.89	1738.73
764.07	1722.34
764.24	1771.49
764.42	1746.92
764.60	1669.09
764.78	1728.49
764.96	1746.92
765.13	1771.49
765.31	1648.61
765.49	1712.10
765.67	1644.52
765.84	1710.05
766.02	1759.21
766.20	1677.29
766.38	1699.81
766.56	1654.76
766.73	1775.59
766.91	1771.49
767.09	1667.05
767.27	1699.81
767.44	1658.85
767.62	1757.16
767.80	1705.96
767.98	1714.15
768.15	1693.67
768.33	1787.88
768.51	1789.92
768.69	1687.53
768.87	1722.34
769.04	1718.25
769.22	1814.50
769.40	1746.92
769.58	1890.28
769.75	1746.92
769.93	1738.73
770.11	1636.33
770.28	1662.95
770.46	1726.44
770.64	1654.76
770.82	1572.84
770.99	1656.81
771.17	1679.33
771.35	1695.72
771.53	1617.90
771.70	1775.59
771.88	1763.30
772.06	1650.66
772.23	1669.09
772.41	1720.29
772.59	1732.58
772.77	1689.57
772.94	1732.58
773.12	1763.30
773.30	1701.86
773.47	1757.16
773.65	1673.19
773.83	1769.44
774.01	1675.24
774.18	1576.94
774.36	1767.40
774.54	1632.23
774.71	1726.44
774.89	1656.81
775.07	1656.81
775.24	1722.34
775.42	1652.71
775.60	1773.54
775.78	1683.43
775.95	1673.19
776.13	1650.66
776.31	1570.79
776.48	1744.87
776.66	1718.25
776.84	1769.44
777.01	1660.90
777.19	1673.19
777.37	1679.33
777.54	1710.05
777.72	1712.10
777.90	1751.01
778.07	1759.21
778.25	1865.70
778.43	1724.39
778.60	1689.57
778.78	1789.92
778.96	1796.07
779.13	1652.71
779.31	1826.79
779.49	1771.49
779.66	1783.78
779.84	1705.96
780.01	1675.24
780.19	1632.23
780.37	1783.78
780.54	1703.91
780.72	1728.49
780.90	1724.39
781.07	1705.96
781.25	1658.85
781.43	1726.44
781.60	1742.82
781.78	1757.16
781.95	1779.68
782.13	1621.99
782.31	1748.97
782.48	1636.33
782.66	1718.25
782.83	1830.88
783.01	1755.11
783.19	1742.82
783.36	1656.81
783.54	1632.23
783.72	1724.39
783.89	1615.85
784.07	1726.44
784.24	1718.25
784.42	1763.30
784.60	1734.63
784.77	1724.39
784.95	1525.74
785.12	1728.49
785.30	1667.05
785.47	1703.91
785.65	1642.47
785.83	1744.87
786.00	1734.63
786.18	1736.68
786.35	1656.81
786.53	1714.15
786.71	1726.44
786.88	1826.79
787.06	1722.34
787.23	1695.72
787.41	1660.90
787.58	1640.42
787.76	1656.81
787.94	1794.02
788.11	1708.01
788.29	1644.52
788.46	1658.85
788.64	1650.66
788.81	1654.76
788.99	1679.33
789.16	1740.77
789.34	1771.49
789.52	1695.72
789.69	1710.05
789.87	1546.22
790.04	1738.73
790.22	1746.92
790.39	1839.08
790.57	1691.62
790.74	1685.48
790.92	1755.11
791.09	1628.14
791.27	1703.91
791.44	1685.48
791.62	1734.63
791.79	1730.53
791.97	1681.38
792.15	1814.50
792.32	1732.58
792.50	1781.73
792.67	1763.30
792.85	1822.69
793.02	1716.20
793.20	1705.96
793.37	1667.05
793.55	1675.24
793.72	1665.00
793.90	1736.68
794.07	1638.38
794.25	1681.38
794.42	1683.43
794.60	1681.38
794.77	1724.39
794.95	1740.77
795.12	1808.36
795.30	1644.52
795.47	1611.75
795.65	1865.70
795.82	1732.58
796.00	1683.43
796.17	1701.86
796.34	1628.14
796.52	1740.77
796.69	1726.44
796.87	1710.05
797.04	1757.16
797.22	1767.40
797.39	1783.78
797.57	1773.54
797.74	1718.25
797.92	1718.25
798.09	1722.34
798.27	1787.88
798.44	1779.68
798.62	1701.86
798.79	1703.91
798.96	1777.64
799.14	1718.25
799.31	1798.12
799.49	1701.86
799.66	1703.91
799.84	1728.49
800.01	1572.84
800.19	1742.82
800.36	1638.38
800.53	1642.47
800.71	1656.81
800.88	1796.07
801.06	1712.10
801.23	1656.81
801.41	1677.29
801.58	1591.27
801.75	1621.99
801.93	1724.39
802.10	1712.10
802.28	1648.61
802.45	1662.95
802.63	1755.11
802.80	1781.73
802.97	1605.61
803.15	1705.96
803.32	1636.33
803.50	1697.77
803.67	1673.19
803.84	1632.23
804.02	1716.20
804.19	1685.48
804.37	1574.89
804.54	1669.09
804.71	1621.99
804.89	1687.53
805.06	1638.38
805.24	1705.96
805.41	1591.27
805.58	1675.24
805.76	1806.31
805.93	1642.47
806.10	1765.35
806.28	1734.63
806.45	1710.05
806.63	1673.19
806.80	1667.05
806.97	1777.64
807.15	1705.96
807.32	1734.63
807.49	1779.68
807.67	1632.23
807.84	1691.62
808.01	1658.85
808.19	1808.36
808.36	1818.60
808.54	1728.49
808.71	1646.57
808.88	1710.05
809.06	1728.49
809.23	1759.21
809.40	1695.72
809.58	1845.22
809.75	1716.20
809.92	1630.18
810.10	1869.80
810.27	1677.29
810.44	1771.49
810.62	1742.82
810.79	1736.68
810.96	1685.48
811.14	1730.53
811.31	1763.30
811.48	1781.73
811.66	1714.15
811.83	1796.07
812.00	1751.01
812.18	1691.62
812.35	1875.94
812.52	1691.62
812.69	1650.66
812.87	1763.30
813.04	1683.43
813.21	1687.53
813.39	1630.18
813.56	1619.94
813.73	1746.92
813.91	1615.85
814.08	1705.96
814.25	1759.21
814.42	1626.09
814.60	1632.23
814.77	1695.72
814.94	1697.77
815.12	1630.18
815.29	1779.68
815.46	1619.94
815.63	1789.92
815.81	1773.54
815.98	1722.34
816.15	1730.53
816.33	1710.05
816.50	1732.58
816.67	1769.44
816.84	1712.10
817.02	1728.49
817.19	1757.16
817.36	1718.25
817.53	1652.71
817.71	1683.43
817.88	1738.73
818.05	1734.63
818.22	1662.95
818.40	1841.12
818.57	1669.09
818.74	1779.68
818.91	1697.77
819.09	1773.54
819.26	1746.92
819.43	1689.57
819.60	1712.10
819.78	1742.82
819.95	1781.73
820.12	1615.85
820.29	1906.66
820.47	1730.53
820.64	1630.18
820.81	1601.51
820.98	1587.18
821.15	1736.68
821.33	1656.81
821.50	1628.14
821.67	1671.14
821.84	1708.01
822.02	1728.49
822.19	1705.96
822.36	1603.56
822.53	1701.86
822.70	1685.48
822.88	1708.01
823.05	1785.83
823.22	1671.14
823.39	1794.02
823.56	1748.97
823.74	1798.12
823.91	1636.33
824.08	1667.05
824.25	1734.63
824.42	1773.54
824.60	1632.23
824.77	1716.20
824.94	1650.66
825.11	1705.96
825.28	1630.18
825.45	1769.44
825.63	1708.01
825.80	1675.24
825.97	1759.21
826.14	1708.01
826.31	1669.09
826.48	1697.77
826.66	1624.04
826.83	1730.53
827.00	1648.61
827.17	1632.23
827.34	1667.05
827.51	1691.62
827.69	1736.68
827.86	1581.03
828.03	1695.72
828.20	1648.61
828.37	1636.33
828.54	1710.05
828.71	1703.91
828.89	1804.26
829.06	1617.90
829.23	1751.01
829.40	1669.09
829.57	1585.13
829.74	1757.16
829.91	1665.00
830.09	1781.73
830.26	1767.40
830.43	1734.63
830.60	1667.05
830.77	1773.54
830.94	1761.25
831.11	1746.92
831.28	1693.67
831.46	1718.25
831.63	1691.62
831.80	1804.26
831.97	1665.00
832.14	1730.53
832.31	1734.63
832.48	1726.44
832.65	1785.83
832.82	1783.78
832.99	1705.96
833.17	1673.19
833.34	1816.55
833.51	1781.73
833.68	1689.57
833.85	1771.49
834.02	1628.14
834.19	1652.71
834.36	1689.57
834.53	1705.96
834.70	1757.16
834.87	1705.96
835.04	1685.48
835.22	1734.63
835.39	1607.66
835.56	1722.34
835.73	1673.19
835.90	1740.77
836.07	1681.38
836.24	1714.15
836.41	1640.42
836.58	1626.09
836.75	1787.88
836.92	1658.85
837.09	1687.53
837.26	1734.63
837.43	1755.11
837.60	1632.23
837.77	1673.19
837.94	1732.58
838.12	1726.44
838.29	1742.82
838.46	1630.18
838.63	1658.85
838.80	1769.44
838.97	1705.96
839.14	1738.73
839.31	1783.78
839.48	1722.34
839.65	1710.05
839.82	1710.05
839.99	1751.01
840.16	1697.77
840.33	1611.75
840.50	1763.30
840.67	1632.23
840.84	1624.04
841.01	1736.68
841.18	1650.66
841.35	1650.66
841.52	1710.05
841.69	1832.93
841.86	1773.54
842.03	1646.57
842.20	1789.92
842.37	1703.91
842.54	1708.01
842.71	1630.18
842.88	1658.85
843.05	1767.40
843.22	1757.16
843.39	1714.15
843.56	1695.72
843.73	1689.57
843.90	1738.73
844.07	1640.42
844.24	1734.63
844.41	1748.97
844.58	1677.29
844.75	1665.00
844.92	1763.30
845.09	1677.29
845.26	1675.24
845.43	1712.10
845.60	1673.19
845.77	1697.77
845.94	1730.53
846.10	1673.19
846.27	1617.90
846.44	1642.47
846.61	1619.94
846.78	1783.78
846.95	1744.87
847.12	1681.38
847.29	1716.20
847.46	1585.13
847.63	1726.44
847.80	1738.73
847.97	1708.01
848.14	1818.60
848.31	1695.72
848.48	1583.08
848.65	1632.23
848.82	1712.10
848.98	1847.27
849.15	1744.87
849.32	1771.49
849.49	1708.01
849.66	1724.39
849.83	1671.14
850.00	1665.00
850.17	1763.30
850.34	1638.38
850.51	1693.67
850.68	1703.91
850.85	1814.50
851.01	1691.62
851.18	1695.72
851.35	1640.42
851.52	1738.73
851.69	1791.97
851.86	1667.05
852.03	1683.43
852.20	1714.15
852.37	1730.53
852.53	1595.37
852.70	1699.81
852.87	1748.97
853.04	1722.34
853.21	1691.62
853.38	1724.39
853.55	1755.11
853.72	1779.68
853.89	1611.75
854.05	1644.52
854.22	1730.53
854.39	1669.09
854.56	1665.00
854.73	1746.92
854.90	1701.86
855.07	1675.24
855.23	1607.66
855.40	1679.33
855.57	1730.53
855.74	1583.08
855.91	1904.61
856.08	1638.38
856.25	1689.57
856.41	1687.53
856.58	1669.09
856.75	1734.63
856.92	1640.42
857.09	1734.63
857.26	1605.61
857.42	1716.20
857.59	1730.53
857.76	1720.29
857.93	1800.16
858.10	1654.76
858.27	1671.14
858.43	1736.68
858.60	1712.10
858.77	1599.46
858.94	1638.38
859.11	1736.68
859.27	1697.77
859.44	1714.15
859.61	1757.16
859.78	1800.16
859.95	1630.18
860.12	1763.30
860.28	1871.84
860.45	1820.64
860.62	1648.61
860.79	1746.92
860.95	1705.96
861.12	1697.77
861.29	1677.29
861.46	1665.00
861.63	1714.15
861.79	1789.92
861.96	1675.24
862.13	1740.77
862.30	1738.73
862.47	1722.34
862.63	1695.72
862.80	1765.35
862.97	1744.87
863.14	1699.81
863.30	1738.73
863.47	1660.90
863.64	1791.97
863.81	1671.14
863.97	1724.39
864.14	1710.05
864.31	1619.94
864.48	1742.82
864.65	1814.50
864.81	1728.49
864.98	1693.67
865.15	1779.68
865.32	1693.67
865.48	1665.00
865.65	1800.16
865.82	1658.85
865.98	1691.62
866.15	1808.36
866.32	1644.52
866.49	1710.05
866.65	1708.01
866.82	1667.05
866.99	1740.77
867.16	1681.38
867.32	1685.48
867.49	1699.81
867.66	1708.01
867.83	1679.33
867.99	1644.52
868.16	1714.15
868.33	1710.05
868.49	1695.72
868.66	1628.14
868.83	1763.30
868.99	1587.18
869.16	1705.96
869.33	1814.50
869.50	1812.45
869.66	1728.49
869.83	1703.91
870.00	1646.57
870.16	1687.53
870.33	1665.00
870.50	1720.29
870.66	1730.53
870.83	1822.69
871.00	1634.28
871.17	1746.92
871.33	1701.86
871.50	1718.25
871.67	1722.34
871.83	1585.13
872.00	1826.79
872.17	1685.48
872.33	1834.98
872.50	1714.15
872.67	1683.43
872.83	1673.19
873.00	1648.61
873.17	1714.15
873.33	1671.14
873.50	1796.07
873.67	1681.38
873.83	1667.05
874.00	1757.16
874.16	1783.78
874.33	1726.44
874.50	1619.94
874.66	1787.88
874.83	1681.38
875.00	1796.07
875.16	1757.16
875.33	1816.55
875.50	1597.42
875.66	1697.77
875.83	1738.73
875.99	1761.25
876.16	1703.91
876.33	1705.96
876.49	1665.00
876.66	1669.09
876.83	1716.20
876.99	1669.09
877.16	1683.43
877.32	1714.15
877.49	1738.73
877.66	1757.16
877.82	1777.64
877.99	1732.58
878.15	1800.16
878.32	1658.85
878.49	1689.57
878.65	1628.14
878.82	1794.02
878.98	1665.00
879.15	1802.21
879.32	1712.10
879.48	1714.15
879.65	1695.72
879.81	1732.58
879.98	1652.71
880.15	1712.10
880.31	1777.64
880.48	1652.71
880.64	1675.24
880.81	1726.44
880.97	1824.74
881.14	1742.82
881.31	1599.46
881.47	1843.17
881.64	1685.48
881.80	1562.60
881.97	1804.26
882.13	1839.08
882.30	1619.94
882.47	1665.00
882.63	1624.04
882.80	1683.43
882.96	1673.19
883.13	1804.26
883.29	1644.52
883.46	1724.39
883.62	1765.35
883.79	1718.25
883.95	1732.58
884.12	1712.10
884.29	1699.81
884.45	1757.16
884.62	1730.53
884.78	1597.42
884.95	1775.59
885.11	1642.47
885.28	1683.43
885.44	1669.09
885.61	1789.92
885.77	1828.84
885.94	1656.81
886.10	1705.96
886.27	1718.25
886.43	1796.07
886.60	1771.49
886.76	1603.56
886.93	1726.44
887.09	1689.57
887.26	1654.76
887.42	1652.71
887.59	1843.17
887.75	1804.26
887.92	1730.53
888.08	1695.72
888.25	1847.27
888.41	1765.35
888.58	1736.68
888.74	1605.61
888.91	1712.10
>>>>>End Processed Spectral Data<<<<<
