SpectraSuite Data File
++++++++++++++++++++++++++++++++++++
Date: Mon Jun 06 16:44:57 CEST 2016
User: root
Dark Spectrum Present: No
Reference Spectrum Present: No
Number of Sampled Component Spectra: 1
Spectrometers: USB4C02835
Integration Time (usec): 100000 (USB4C02835)
Spectra Averaged: 1 (USB4C02835)
Boxcar Smoothing: 0 (USB4C02835)
Correct for Electrical Dark: No (USB4C02835)
Strobe/Lamp Enabled: No (USB4C02835)
Correct for Detector Non-linearity: No (USB4C02835)
Correct for Stray Light: No (USB4C02835)
Number of Pixels in Processed Spectrum: 3648
>>>>>Begin Processed Spectral Data<<<<<
177.47	1492.97
177.69	1492.97
177.91	1492.97
178.13	1480.68
178.36	1396.71
178.58	1615.85
178.80	1703.91
179.02	1630.18
179.24	1679.33
179.46	1646.57
179.68	1789.92
179.90	1722.34
180.13	1675.24
180.35	1724.39
180.57	1691.62
180.79	1714.15
181.01	1665.00
181.23	1806.31
181.45	1740.77
181.67	1705.96
181.90	1701.86
182.12	1626.09
182.34	1628.14
182.56	1751.01
182.78	1748.97
183.00	1697.77
183.22	1685.48
183.44	1548.26
183.66	1839.08
183.89	1865.70
184.11	1695.72
184.33	1767.40
184.55	1806.31
184.77	1728.49
184.99	1708.01
185.21	1761.25
185.43	1894.37
185.65	1667.05
185.87	1755.11
186.10	1853.41
186.32	1853.41
186.54	1757.16
186.76	1683.43
186.98	1759.21
187.20	1710.05
187.42	1712.10
187.64	1689.57
187.86	1734.63
188.08	1791.97
188.30	1683.43
188.52	1746.92
188.75	1730.53
188.97	1798.12
189.19	1605.61
189.41	1669.09
189.63	1812.45
189.85	1665.00
190.07	1624.04
190.29	1615.85
190.51	1669.09
190.73	1646.57
190.95	1738.73
191.17	1722.34
191.39	1673.19
191.61	1662.95
191.84	1679.33
192.06	1773.54
192.28	1540.07
192.50	1843.17
192.72	1675.24
192.94	1718.25
193.16	1746.92
193.38	1730.53
193.60	1613.80
193.82	1757.16
194.04	1683.43
194.26	1677.29
194.48	1693.67
194.70	1642.47
194.92	1669.09
195.14	1783.78
195.36	1609.70
195.58	1740.77
195.80	1677.29
196.02	1718.25
196.24	1646.57
196.46	1728.49
196.69	1667.05
196.91	1886.18
197.13	1599.46
197.35	1712.10
197.57	1771.49
197.79	1800.16
198.01	1701.86
198.23	1751.01
198.45	1687.53
198.67	1732.58
198.89	1642.47
199.11	1771.49
199.33	1679.33
199.55	1634.28
199.77	1679.33
199.99	1787.88
200.21	1658.85
200.43	1740.77
200.65	1734.63
200.87	1601.51
201.09	1648.61
201.31	1665.00
201.53	1730.53
201.75	1783.78
201.97	1746.92
202.19	1732.58
202.41	1695.72
202.63	1812.45
202.85	1820.64
203.07	1665.00
203.29	1646.57
203.51	1669.09
203.73	1621.99
203.95	1853.41
204.17	1761.25
204.39	1771.49
204.61	1654.76
204.83	1638.38
205.05	1710.05
205.27	1740.77
205.49	1871.84
205.71	1685.48
205.93	1652.71
206.15	1595.37
206.37	1748.97
206.59	1644.52
206.81	1570.79
207.03	1634.28
207.25	1646.57
207.47	1753.06
207.69	1683.43
207.91	1765.35
208.13	1738.73
208.34	1693.67
208.56	1667.05
208.78	1738.73
209.00	1658.85
209.22	1695.72
209.44	1714.15
209.66	1597.42
209.88	1699.81
210.10	1697.77
210.32	1693.67
210.54	1777.64
210.76	1609.70
210.98	1818.60
211.20	1630.18
211.42	1683.43
211.64	1775.59
211.86	1675.24
212.08	1728.49
212.30	1804.26
212.52	1705.96
212.74	1783.78
212.96	1732.58
213.17	1751.01
213.39	1722.34
213.61	1818.60
213.83	1695.72
214.05	1730.53
214.27	1763.30
214.49	1640.42
214.71	1624.04
214.93	1751.01
215.15	1685.48
215.37	1699.81
215.59	1636.33
215.81	1710.05
216.03	1753.06
216.24	1703.91
216.46	1673.19
216.68	1773.54
216.90	1740.77
217.12	1724.39
217.34	1693.67
217.56	1810.40
217.78	1699.81
218.00	1730.53
218.22	1744.87
218.44	1789.92
218.66	1765.35
218.87	1808.36
219.09	1748.97
219.31	1798.12
219.53	1695.72
219.75	1714.15
219.97	1689.57
220.19	1769.44
220.41	1667.05
220.63	1785.83
220.85	1767.40
221.06	1693.67
221.28	1744.87
221.50	1761.25
221.72	1679.33
221.94	1689.57
222.16	1736.68
222.38	1728.49
222.60	1734.63
222.82	1669.09
223.03	1746.92
223.25	1650.66
223.47	1759.21
223.69	1832.93
223.91	1755.11
224.13	1697.77
224.35	1634.28
224.57	1783.78
224.78	1781.73
225.00	1626.09
225.22	1697.77
225.44	1736.68
225.66	1742.82
225.88	1640.42
226.10	1789.92
226.32	1763.30
226.53	1808.36
226.75	1650.66
226.97	1667.05
227.19	1662.95
227.41	1685.48
227.63	1691.62
227.85	1662.95
228.06	1783.78
228.28	1785.83
228.50	1818.60
228.72	1675.24
228.94	1705.96
229.16	1632.23
229.37	1677.29
229.59	1714.15
229.81	1832.93
230.03	1722.34
230.25	1624.04
230.47	1640.42
230.69	1566.70
230.90	1748.97
231.12	1621.99
231.34	1683.43
231.56	1828.84
231.78	1624.04
232.00	1710.05
232.21	1617.90
232.43	1648.61
232.65	1583.08
232.87	1742.82
233.09	1699.81
233.30	1619.94
233.52	1816.55
233.74	1677.29
233.96	1691.62
234.18	1642.47
234.40	1599.46
234.61	1853.41
234.83	1636.33
235.05	1603.56
235.27	1855.46
235.49	1804.26
235.70	1734.63
235.92	1777.64
236.14	1783.78
236.36	1914.85
236.58	1632.23
236.79	1746.92
237.01	1691.62
237.23	1734.63
237.45	1800.16
237.67	1677.29
237.88	1783.78
238.10	1791.97
238.32	1632.23
238.54	1783.78
238.76	1736.68
238.97	1722.34
239.19	1671.14
239.41	1802.21
239.63	1730.53
239.85	1720.29
240.06	1705.96
240.28	1642.47
240.50	1744.87
240.72	1681.38
240.93	1736.68
241.15	1794.02
241.37	1646.57
241.59	1763.30
241.81	1708.01
242.02	1714.15
242.24	1683.43
242.46	1710.05
242.68	1689.57
242.89	1742.82
243.11	1734.63
243.33	1667.05
243.55	1761.25
243.76	1771.49
243.98	1697.77
244.20	1728.49
244.42	1720.29
244.64	1753.06
244.85	1705.96
245.07	1615.85
245.29	1736.68
245.51	1671.14
245.72	1726.44
245.94	1765.35
246.16	1738.73
246.38	1701.86
246.59	1675.24
246.81	1699.81
247.03	1703.91
247.24	1689.57
247.46	1662.95
247.68	1765.35
247.90	1652.71
248.11	1658.85
248.33	1699.81
248.55	1578.98
248.77	1732.58
248.98	1734.63
249.20	1808.36
249.42	1734.63
249.64	1656.81
249.85	1685.48
250.07	1757.16
250.29	1775.59
250.50	1732.58
250.72	1634.28
250.94	1779.68
251.16	1746.92
251.37	1769.44
251.59	1822.69
251.81	1710.05
252.02	1798.12
252.24	1671.14
252.46	1718.25
252.68	1660.90
252.89	1685.48
253.11	1599.46
253.33	1802.21
253.54	1777.64
253.76	1679.33
253.98	1599.46
254.20	1667.05
254.41	1687.53
254.63	1654.76
254.85	1652.71
255.06	1665.00
255.28	1708.01
255.50	1626.09
255.71	1720.29
255.93	1585.13
256.15	1718.25
256.36	1765.35
256.58	1701.86
256.80	1748.97
257.02	1675.24
257.23	1708.01
257.45	1726.44
257.67	1789.92
257.88	1609.70
258.10	1744.87
258.32	1693.67
258.53	1669.09
258.75	1761.25
258.97	1652.71
259.18	1806.31
259.40	1730.53
259.62	1796.07
259.83	1759.21
260.05	1720.29
260.27	1943.52
260.48	1779.68
260.70	1718.25
260.92	1634.28
261.13	1722.34
261.35	1714.15
261.57	1716.20
261.78	1597.42
262.00	1646.57
262.22	1689.57
262.43	1669.09
262.65	1669.09
262.86	1648.61
263.08	1898.47
263.30	1746.92
263.51	1693.67
263.73	1624.04
263.95	1740.77
264.16	1738.73
264.38	1703.91
264.60	1716.20
264.81	1724.39
265.03	1814.50
265.25	1732.58
265.46	1693.67
265.68	1783.78
265.89	1771.49
266.11	1578.98
266.33	1765.35
266.54	1726.44
266.76	1695.72
266.98	1726.44
267.19	1812.45
267.41	1699.81
267.62	1671.14
267.84	1607.66
268.06	1794.02
268.27	1769.44
268.49	1728.49
268.70	1746.92
268.92	1732.58
269.14	1658.85
269.35	1658.85
269.57	1687.53
269.79	1751.01
270.00	1687.53
270.22	1812.45
270.43	1675.24
270.65	1578.98
270.87	1738.73
271.08	1716.20
271.30	1726.44
271.51	1693.67
271.73	1763.30
271.95	1816.55
272.16	1736.68
272.38	1652.71
272.59	1671.14
272.81	1744.87
273.02	1710.05
273.24	1681.38
273.46	1806.31
273.67	1634.28
273.89	1718.25
274.10	1695.72
274.32	1781.73
274.54	1744.87
274.75	1740.77
274.97	1671.14
275.18	1775.59
275.40	1767.40
275.61	1683.43
275.83	1628.14
276.05	1611.75
276.26	1650.66
276.48	1751.01
276.69	1712.10
276.91	1677.29
277.12	1771.49
277.34	1798.12
277.55	1718.25
277.77	1697.77
277.99	1730.53
278.20	1634.28
278.42	1624.04
278.63	1691.62
278.85	1632.23
279.06	1601.51
279.28	1806.31
279.49	1763.30
279.71	1806.31
279.93	1775.59
280.14	1710.05
280.36	1636.33
280.57	1779.68
280.79	1771.49
281.00	1617.90
281.22	1667.05
281.43	1773.54
281.65	1517.54
281.86	1769.44
282.08	1705.96
282.29	1812.45
282.51	1605.61
282.73	1632.23
282.94	1671.14
283.16	1759.21
283.37	1816.55
283.59	1757.16
283.80	1703.91
284.02	1658.85
284.23	1648.61
284.45	1681.38
284.66	1634.28
284.88	1689.57
285.09	1751.01
285.31	1722.34
285.52	1710.05
285.74	1540.07
285.95	1677.29
286.17	1667.05
286.38	1712.10
286.60	1687.53
286.81	1626.09
287.03	1746.92
287.24	1665.00
287.46	1705.96
287.67	1769.44
287.89	1761.25
288.10	1771.49
288.32	1748.97
288.53	1818.60
288.75	1712.10
288.96	1828.84
289.18	1646.57
289.39	1703.91
289.61	1751.01
289.82	1812.45
290.04	1830.88
290.25	1665.00
290.47	1746.92
290.68	1662.95
290.90	1796.07
291.11	1603.56
291.33	1765.35
291.54	1660.90
291.76	1628.14
291.97	1665.00
292.18	1751.01
292.40	1677.29
292.61	1730.53
292.83	1771.49
293.04	1773.54
293.26	1712.10
293.47	1665.00
293.69	1566.70
293.90	1677.29
294.12	1781.73
294.33	1732.58
294.55	1679.33
294.76	1746.92
294.97	1851.36
295.19	1853.41
295.40	1728.49
295.62	1755.11
295.83	1718.25
296.05	1691.62
296.26	1730.53
296.48	1669.09
296.69	1736.68
296.90	1742.82
297.12	1742.82
297.33	1775.59
297.55	1708.01
297.76	1746.92
297.98	1716.20
298.19	1769.44
298.41	1728.49
298.62	1724.39
298.83	1806.31
299.05	1775.59
299.26	1695.72
299.48	1644.52
299.69	1736.68
299.90	1714.15
300.12	1669.09
300.33	1796.07
300.55	1738.73
300.76	1718.25
300.98	1685.48
301.19	1708.01
301.40	1701.86
301.62	1726.44
301.83	1724.39
302.05	1699.81
302.26	1722.34
302.47	1652.71
302.69	1656.81
302.90	1654.76
303.12	1589.22
303.33	1732.58
303.54	1888.23
303.76	1746.92
303.97	1748.97
304.19	1781.73
304.40	1734.63
304.61	1779.68
304.83	1867.75
305.04	1824.74
305.26	1810.40
305.47	1632.23
305.68	1689.57
305.90	1617.90
306.11	1761.25
306.33	1804.26
306.54	1691.62
306.75	1712.10
306.97	1583.08
307.18	1624.04
307.39	1724.39
307.61	1789.92
307.82	1626.09
308.04	1746.92
308.25	1718.25
308.46	1755.11
308.68	1667.05
308.89	1687.53
309.10	1781.73
309.32	1726.44
309.53	1669.09
309.74	1728.49
309.96	1665.00
310.17	1775.59
310.39	1662.95
310.60	1759.21
310.81	1689.57
311.03	1648.61
311.24	1722.34
311.45	1671.14
311.67	1855.46
311.88	1724.39
312.09	1687.53
312.31	1724.39
312.52	1755.11
312.73	1726.44
312.95	1632.23
313.16	1755.11
313.37	1763.30
313.59	1794.02
313.80	1796.07
314.01	1812.45
314.23	1720.29
314.44	1685.48
314.65	1693.67
314.87	1679.33
315.08	1771.49
315.29	1675.24
315.51	1662.95
315.72	1669.09
315.93	1769.44
316.15	1738.73
316.36	1665.00
316.57	1724.39
316.79	1656.81
317.00	1683.43
317.21	1767.40
317.43	1632.23
317.64	1705.96
317.85	1656.81
318.07	1634.28
318.28	1730.53
318.49	1742.82
318.70	1984.48
318.92	1830.88
319.13	1894.37
319.34	1816.55
319.56	1816.55
319.77	1841.12
319.98	1828.84
320.20	1765.35
320.41	1783.78
320.62	1675.24
320.83	1636.33
321.05	1869.80
321.26	1800.16
321.47	1779.68
321.69	1736.68
321.90	1632.23
322.11	1716.20
322.32	1718.25
322.54	1746.92
322.75	1763.30
322.96	1789.92
323.18	1677.29
323.39	1673.19
323.60	1644.52
323.81	1751.01
324.03	1626.09
324.24	1714.15
324.45	1705.96
324.66	1785.83
324.88	1812.45
325.09	1748.97
325.30	1708.01
325.52	1712.10
325.73	1710.05
325.94	1615.85
326.15	1591.27
326.37	1619.94
326.58	1757.16
326.79	1800.16
327.00	1695.72
327.22	1730.53
327.43	1689.57
327.64	1695.72
327.85	1695.72
328.07	1734.63
328.28	1738.73
328.49	1652.71
328.70	1689.57
328.92	1675.24
329.13	1705.96
329.34	1734.63
329.55	1820.64
329.76	1751.01
329.98	1689.57
330.19	1785.83
330.40	1728.49
330.61	1751.01
330.83	1810.40
331.04	1708.01
331.25	1660.90
331.46	1685.48
331.68	1726.44
331.89	1783.78
332.10	1669.09
332.31	1652.71
332.52	1755.11
332.74	1828.84
332.95	1660.90
333.16	1824.74
333.37	1791.97
333.58	1656.81
333.80	1703.91
334.01	1673.19
334.22	1708.01
334.43	1671.14
334.64	1732.58
334.86	1626.09
335.07	1734.63
335.28	1787.88
335.49	1675.24
335.70	1718.25
335.92	1818.60
336.13	1861.60
336.34	1742.82
336.55	1634.28
336.76	1761.25
336.98	1609.70
337.19	1697.77
337.40	1802.21
337.61	1871.84
337.82	1699.81
338.04	1785.83
338.25	1708.01
338.46	1716.20
338.67	1673.19
338.88	1658.85
339.09	1697.77
339.31	1728.49
339.52	1665.00
339.73	1675.24
339.94	1705.96
340.15	1796.07
340.36	1658.85
340.58	1714.15
340.79	1726.44
341.00	1777.64
341.21	1689.57
341.42	1814.50
341.63	1716.20
341.85	1667.05
342.06	1732.58
342.27	1636.33
342.48	1740.77
342.69	1656.81
342.90	1642.47
343.12	1779.68
343.33	1703.91
343.54	1701.86
343.75	1812.45
343.96	1667.05
344.17	1693.67
344.38	1689.57
344.60	1697.77
344.81	1708.01
345.02	1726.44
345.23	1773.54
345.44	1767.40
345.65	1685.48
345.86	1761.25
346.07	1771.49
346.29	1665.00
346.50	1722.34
346.71	1759.21
346.92	1765.35
347.13	1781.73
347.34	1724.39
347.55	1658.85
347.76	1738.73
347.98	1607.66
348.19	1685.48
348.40	1798.12
348.61	1677.29
348.82	1761.25
349.03	1738.73
349.24	1640.42
349.45	1779.68
349.66	1611.75
349.88	1714.15
350.09	1658.85
350.30	1812.45
350.51	1738.73
350.72	1699.81
350.93	1738.73
351.14	1701.86
351.35	1738.73
351.56	1710.05
351.77	1734.63
351.99	1728.49
352.20	1751.01
352.41	1728.49
352.62	1626.09
352.83	1714.15
353.04	1673.19
353.25	1656.81
353.46	1697.77
353.67	1771.49
353.88	1583.08
354.09	1697.77
354.30	1687.53
354.52	1699.81
354.73	1722.34
354.94	1671.14
355.15	1673.19
355.36	1832.93
355.57	1679.33
355.78	1746.92
355.99	1591.27
356.20	1667.05
356.41	1826.79
356.62	1742.82
356.83	1753.06
357.04	1796.07
357.25	1701.86
357.46	1695.72
357.68	1716.20
357.89	1746.92
358.10	1683.43
358.31	1669.09
358.52	1673.19
358.73	1662.95
358.94	1617.90
359.15	1642.47
359.36	1734.63
359.57	1796.07
359.78	1736.68
359.99	1697.77
360.20	1642.47
360.41	1671.14
360.62	1744.87
360.83	1654.76
361.04	1740.77
361.25	1785.83
361.46	1798.12
361.67	1742.82
361.88	1736.68
362.09	1693.67
362.30	1687.53
362.51	1701.86
362.72	1685.48
362.93	1818.60
363.14	1751.01
363.35	1662.95
363.56	1656.81
363.78	1832.93
363.99	1769.44
364.20	1648.61
364.41	1724.39
364.62	1769.44
364.83	1787.88
365.04	1677.29
365.25	1669.09
365.46	1914.85
365.67	1568.74
365.88	1585.13
366.09	1714.15
366.30	1681.38
366.51	1697.77
366.72	1665.00
366.93	1732.58
367.14	1771.49
367.35	1830.88
367.56	1656.81
367.77	1771.49
367.98	1687.53
368.18	1705.96
368.39	1748.97
368.60	1695.72
368.81	1841.12
369.02	1771.49
369.23	1722.34
369.44	1708.01
369.65	1701.86
369.86	1683.43
370.07	1673.19
370.28	1675.24
370.49	1769.44
370.70	1804.26
370.91	1683.43
371.12	1667.05
371.33	1734.63
371.54	1665.00
371.75	1787.88
371.96	1662.95
372.17	1738.73
372.38	1687.53
372.59	1693.67
372.80	1730.53
373.01	1712.10
373.22	1701.86
373.43	1751.01
373.64	1640.42
373.85	1767.40
374.06	1802.21
374.26	1693.67
374.47	1693.67
374.68	1787.88
374.89	1751.01
375.10	1755.11
375.31	1695.72
375.52	1751.01
375.73	1746.92
375.94	1638.38
376.15	1783.78
376.36	1673.19
376.57	1746.92
376.78	1689.57
376.99	1753.06
377.20	1787.88
377.40	1642.47
377.61	1824.74
377.82	1689.57
378.03	1738.73
378.24	1755.11
378.45	1660.90
378.66	1779.68
378.87	1671.14
379.08	1656.81
379.29	1701.86
379.50	1705.96
379.71	1675.24
379.91	1773.54
380.12	1701.86
380.33	1744.87
380.54	1736.68
380.75	1681.38
380.96	1724.39
381.17	1794.02
381.38	1722.34
381.59	1722.34
381.80	1699.81
382.00	1882.08
382.21	1742.82
382.42	1798.12
382.63	1873.89
382.84	1753.06
383.05	1746.92
383.26	1929.19
383.47	1769.44
383.68	1773.54
383.88	1781.73
384.09	1759.21
384.30	1755.11
384.51	1800.16
384.72	1718.25
384.93	1710.05
385.14	1701.86
385.35	1742.82
385.55	1697.77
385.76	1789.92
385.97	1732.58
386.18	1654.76
386.39	1601.51
386.60	1660.90
386.81	1734.63
387.02	1689.57
387.22	1687.53
387.43	1779.68
387.64	1890.28
387.85	1826.79
388.06	2150.37
388.27	4286.40
388.48	6924.18
388.68	8277.89
388.89	9684.84
389.10	9760.62
389.31	8636.28
389.52	7640.97
389.73	6786.97
389.93	6322.08
390.14	5758.89
390.35	5173.17
390.56	4513.72
390.77	3844.04
390.98	2998.23
391.18	2549.72
391.39	2140.13
391.60	1800.16
391.81	1800.16
392.02	1714.15
392.23	1853.41
392.43	1751.01
392.64	1855.46
392.85	1730.53
393.06	1755.11
393.27	1783.78
393.47	1646.57
393.68	1718.25
393.89	1730.53
394.10	1751.01
394.31	1628.14
394.52	1644.52
394.72	1662.95
394.93	1781.73
395.14	1724.39
395.35	1693.67
395.56	1736.68
395.76	1783.78
395.97	1839.08
396.18	1826.79
396.39	1894.37
396.60	2035.68
396.80	1892.32
397.01	1822.69
397.22	1806.31
397.43	1902.56
397.64	1728.49
397.84	1851.36
398.05	1865.70
398.26	1740.77
398.47	1779.68
398.67	1771.49
398.88	1716.20
399.09	1722.34
399.30	1701.86
399.51	1742.82
399.71	1722.34
399.92	1701.86
400.13	1730.53
400.34	1724.39
400.54	1753.06
400.75	1746.92
400.96	1732.58
401.17	1920.99
401.37	1746.92
401.58	1728.49
401.79	1796.07
402.00	1920.99
402.21	2066.40
402.41	1982.43
402.62	1955.81
402.83	2107.36
403.04	1927.14
403.24	2076.64
403.45	1931.23
403.66	1937.38
403.87	1845.22
404.07	1931.23
404.28	1931.23
404.49	1839.08
404.70	1746.92
404.90	1847.27
405.11	1806.31
405.32	1812.45
405.52	1628.14
405.73	1753.06
405.94	1751.01
406.15	1685.48
406.35	1773.54
406.56	1732.58
406.77	1701.86
406.98	1771.49
407.18	1677.29
407.39	1804.26
407.60	1710.05
407.80	1675.24
408.01	1703.91
408.22	1738.73
408.43	1683.43
408.63	1767.40
408.84	1671.14
409.05	1728.49
409.25	1705.96
409.46	1654.76
409.67	1644.52
409.88	1714.15
410.08	1652.71
410.29	1712.10
410.50	1798.12
410.70	1738.73
410.91	1646.57
411.12	1748.97
411.32	1683.43
411.53	1722.34
411.74	1849.32
411.95	1773.54
412.15	1679.33
412.36	1800.16
412.57	1751.01
412.77	1810.40
412.98	1759.21
413.19	1755.11
413.39	1783.78
413.60	1800.16
413.81	1810.40
414.01	1708.01
414.22	1796.07
414.43	1667.05
414.63	1681.38
414.84	1810.40
415.05	1718.25
415.25	1722.34
415.46	1712.10
415.67	1675.24
415.87	1677.29
416.08	1759.21
416.29	1726.44
416.49	1796.07
416.70	1646.57
416.91	1662.95
417.11	1730.53
417.32	1761.25
417.53	1734.63
417.73	1791.97
417.94	1703.91
418.15	1726.44
418.35	1738.73
418.56	1662.95
418.77	1875.94
418.97	1738.73
419.18	1712.10
419.38	1628.14
419.59	1769.44
419.80	1759.21
420.00	1656.81
420.21	1730.53
420.42	1781.73
420.62	1687.53
420.83	1667.05
421.04	1685.48
421.24	1667.05
421.45	1787.88
421.65	1771.49
421.86	1689.57
422.07	1751.01
422.27	1728.49
422.48	1697.77
422.69	1562.60
422.89	1755.11
423.10	1693.67
423.30	1665.00
423.51	1660.90
423.72	1722.34
423.92	1714.15
424.13	1712.10
424.33	1748.97
424.54	1798.12
424.75	1779.68
424.95	1748.97
425.16	1697.77
425.36	1744.87
425.57	1724.39
425.78	1804.26
425.98	1748.97
426.19	1667.05
426.39	1652.71
426.60	1726.44
426.81	1837.03
427.01	1710.05
427.22	1646.57
427.42	1615.85
427.63	1658.85
427.83	1789.92
428.04	1804.26
428.25	1757.16
428.45	1800.16
428.66	1728.49
428.86	1699.81
429.07	1697.77
429.28	1753.06
429.48	1757.16
429.69	1673.19
429.89	1697.77
430.10	1722.34
430.30	1677.29
430.51	1781.73
430.71	1683.43
430.92	1738.73
431.13	1669.09
431.33	1771.49
431.54	1697.77
431.74	1796.07
431.95	1966.05
432.15	1642.47
432.36	1710.05
432.56	1796.07
432.77	1818.60
432.98	1824.74
433.18	1800.16
433.39	1736.68
433.59	1796.07
433.80	1744.87
434.00	1824.74
434.21	1761.25
434.41	1746.92
434.62	1845.22
434.82	1632.23
435.03	1683.43
435.23	1812.45
435.44	1566.70
435.64	1695.72
435.85	1753.06
436.06	1767.40
436.26	1765.35
436.47	1742.82
436.67	1671.14
436.88	1701.86
437.08	1853.41
437.29	1759.21
437.49	1681.38
437.70	1787.88
437.90	1634.28
438.11	1847.27
438.31	1720.29
438.52	1894.37
438.72	1888.23
438.93	1886.18
439.13	1861.60
439.34	1837.03
439.54	1789.92
439.75	1779.68
439.95	1802.21
440.16	1742.82
440.36	1771.49
440.57	1771.49
440.77	1757.16
440.98	1705.96
441.18	1753.06
441.39	1697.77
441.59	1605.61
441.80	1804.26
442.00	1755.11
442.21	1779.68
442.41	1652.71
442.62	1781.73
442.82	1767.40
443.02	1755.11
443.23	1722.34
443.43	1748.97
443.64	1857.51
443.84	1675.24
444.05	1824.74
444.25	1720.29
444.46	1794.02
444.66	1751.01
444.87	1845.22
445.07	1648.61
445.28	1732.58
445.48	1726.44
445.69	1742.82
445.89	1918.95
446.09	1746.92
446.30	2002.91
446.50	2650.07
446.71	3760.07
446.91	4296.64
447.12	4761.53
447.32	4831.16
447.53	4274.11
447.73	3848.13
447.93	3553.23
448.14	3209.17
448.34	3268.56
448.55	2910.16
448.75	2875.35
448.96	2736.09
449.16	2406.36
449.36	2355.16
449.57	2025.44
449.77	1839.08
449.98	1791.97
450.18	1783.78
450.39	1853.41
450.59	1699.81
450.79	1730.53
451.00	1746.92
451.20	1748.97
451.41	1822.69
451.61	1734.63
451.81	1746.92
452.02	1710.05
452.22	1740.77
452.43	1658.85
452.63	1722.34
452.84	1751.01
453.04	1726.44
453.24	1746.92
453.45	1714.15
453.65	1736.68
453.86	1757.16
454.06	1763.30
454.26	1812.45
454.47	1542.12
454.67	1832.93
454.87	1746.92
455.08	1722.34
455.28	1861.60
455.49	1759.21
455.69	1634.28
455.89	1839.08
456.10	1832.93
456.30	1722.34
456.51	1777.64
456.71	1771.49
456.91	1675.24
457.12	1697.77
457.32	1841.12
457.52	1683.43
457.73	1759.21
457.93	1753.06
458.14	1673.19
458.34	1581.03
458.54	1759.21
458.75	1662.95
458.95	1796.07
459.15	1771.49
459.36	1693.67
459.56	1734.63
459.76	1898.47
459.97	1779.68
460.17	1769.44
460.37	1753.06
460.58	1703.91
460.78	1722.34
460.99	1677.29
461.19	1732.58
461.39	1716.20
461.60	1689.57
461.80	1765.35
462.00	1638.38
462.21	1708.01
462.41	1609.70
462.61	1746.92
462.82	1628.14
463.02	1822.69
463.22	1794.02
463.43	1763.30
463.63	1636.33
463.83	1785.83
464.04	1787.88
464.24	1755.11
464.44	1683.43
464.64	1697.77
464.85	1791.97
465.05	1767.40
465.25	1726.44
465.46	1693.67
465.66	1820.64
465.86	1773.54
466.07	1720.29
466.27	1691.62
466.47	1605.61
466.68	1732.58
466.88	1777.64
467.08	1734.63
467.29	1808.36
467.49	1763.30
467.69	1683.43
467.89	1769.44
468.10	1789.92
468.30	1794.02
468.50	1787.88
468.71	1808.36
468.91	1679.33
469.11	1851.36
469.31	1712.10
469.52	1667.05
469.72	1861.60
469.92	1857.51
470.13	1689.57
470.33	1777.64
470.53	1867.75
470.73	2088.93
470.94	2215.90
471.14	2379.74
471.34	2486.23
471.54	2457.56
471.75	2240.48
471.95	2095.07
472.15	2062.30
472.36	2115.55
472.56	2062.30
472.76	2156.51
472.96	1951.71
473.17	1914.85
473.37	1886.18
473.57	1820.64
473.77	1818.60
473.98	1751.01
474.18	1662.95
474.38	1896.42
474.58	1677.29
474.79	1679.33
474.99	1712.10
475.19	1755.11
475.39	1654.76
475.60	1761.25
475.80	1732.58
476.00	1755.11
476.20	1648.61
476.41	1693.67
476.61	1830.88
476.81	1816.55
477.01	1642.47
477.21	1826.79
477.42	1877.99
477.62	1619.94
477.82	1779.68
478.02	1681.38
478.23	1775.59
478.43	1591.27
478.63	1673.19
478.83	1759.21
479.03	1714.15
479.24	1767.40
479.44	1853.41
479.64	1710.05
479.84	1632.23
480.04	1724.39
480.25	1775.59
480.45	1632.23
480.65	1722.34
480.85	1791.97
481.06	1708.01
481.26	1716.20
481.46	1804.26
481.66	1759.21
481.86	1765.35
482.06	1771.49
482.27	1736.68
482.47	1724.39
482.67	1783.78
482.87	1693.67
483.07	1757.16
483.28	1628.14
483.48	1636.33
483.68	1738.73
483.88	1636.33
484.08	1626.09
484.29	1746.92
484.49	1724.39
484.69	1697.77
484.89	1808.36
485.09	1712.10
485.29	1736.68
485.50	1837.03
485.70	1681.38
485.90	1888.23
486.10	1736.68
486.30	1751.01
486.50	1736.68
486.71	1804.26
486.91	1822.69
487.11	1767.40
487.31	1638.38
487.51	1759.21
487.71	1679.33
487.91	1626.09
488.12	1617.90
488.32	1581.03
488.52	1640.42
488.72	1644.52
488.92	1761.25
489.12	1849.32
489.32	1783.78
489.53	1648.61
489.73	1609.70
489.93	1818.60
490.13	1767.40
490.33	1665.00
490.53	1751.01
490.73	1828.84
490.94	1617.90
491.14	1744.87
491.34	1810.40
491.54	2140.13
491.74	2521.05
491.94	2924.50
492.14	2975.70
492.34	2987.99
492.54	2652.12
492.75	2482.14
492.95	2435.03
493.15	2303.96
493.35	2267.10
493.55	2158.56
493.75	2150.37
493.95	2066.40
494.15	2027.49
494.35	1955.81
494.56	1824.74
494.76	1832.93
494.96	1730.53
495.16	1853.41
495.36	1785.83
495.56	1748.97
495.76	1796.07
495.96	1722.34
496.16	1654.76
496.36	1871.84
496.56	1675.24
496.77	1744.87
496.97	1742.82
497.17	1787.88
497.37	1615.85
497.57	1748.97
497.77	1746.92
497.97	1697.77
498.17	1734.63
498.37	1767.40
498.57	1714.15
498.77	1691.62
498.97	1820.64
499.17	1755.11
499.38	1730.53
499.58	1740.77
499.78	1808.36
499.98	1755.11
500.18	1703.91
500.38	1736.68
500.58	1972.19
500.78	2586.58
500.98	4460.48
501.18	5834.66
501.38	6829.98
501.58	7114.64
501.78	6705.05
501.98	5623.72
502.18	4992.95
502.38	4376.51
502.58	4165.57
502.78	3729.35
502.98	3690.44
503.18	3479.50
503.38	3207.12
503.59	2781.14
503.79	2660.31
503.99	2482.14
504.19	2330.59
504.39	2236.38
504.59	2217.95
504.79	2131.94
504.99	1964.00
505.19	1912.80
505.39	1929.19
505.59	1937.38
505.79	1904.61
505.99	1822.69
506.19	1765.35
506.39	1791.97
506.59	1826.79
506.79	1779.68
506.99	1806.31
507.19	1777.64
507.39	1812.45
507.59	1642.47
507.79	1683.43
507.99	1701.86
508.19	1699.81
508.39	1693.67
508.59	1777.64
508.79	1755.11
508.99	1888.23
509.19	1722.34
509.39	1712.10
509.59	1779.68
509.79	1748.97
509.99	1763.30
510.19	1837.03
510.39	1804.26
510.59	1751.01
510.79	1755.11
510.99	1599.46
511.19	1775.59
511.39	1894.37
511.59	1714.15
511.79	1867.75
511.99	1755.11
512.19	1853.41
512.38	1724.39
512.58	1708.01
512.78	1677.29
512.98	1742.82
513.18	1818.60
513.38	1687.53
513.58	1779.68
513.78	1714.15
513.98	1759.21
514.18	1691.62
514.38	1732.58
514.58	1777.64
514.78	1728.49
514.98	1697.77
515.18	1697.77
515.38	1660.90
515.58	1826.79
515.78	1724.39
515.98	1759.21
516.18	1779.68
516.38	1740.77
516.57	1789.92
516.77	1691.62
516.97	1773.54
517.17	1673.19
517.37	1673.19
517.57	1763.30
517.77	1742.82
517.97	1660.90
518.17	1804.26
518.37	1634.28
518.57	1794.02
518.77	1812.45
518.97	1761.25
519.16	1755.11
519.36	1814.50
519.56	1640.42
519.76	1738.73
519.96	1689.57
520.16	1804.26
520.36	1683.43
520.56	1791.97
520.76	1753.06
520.96	1708.01
521.16	1812.45
521.35	1853.41
521.55	1765.35
521.75	1708.01
521.95	1701.86
522.15	1791.97
522.35	1626.09
522.55	1677.29
522.75	1808.36
522.95	1718.25
523.14	1761.25
523.34	1720.29
523.54	1734.63
523.74	1658.85
523.94	1748.97
524.14	1603.56
524.34	1736.68
524.54	1845.22
524.73	1722.34
524.93	1740.77
525.13	1755.11
525.33	1642.47
525.53	1875.94
525.73	1767.40
525.93	1759.21
526.13	1701.86
526.32	1744.87
526.52	1818.60
526.72	1814.50
526.92	1716.20
527.12	1722.34
527.32	1681.38
527.52	1781.73
527.71	1775.59
527.91	1732.58
528.11	1718.25
528.31	1722.34
528.51	1607.66
528.71	1783.78
528.90	1736.68
529.10	1771.49
529.30	1837.03
529.50	1675.24
529.70	1851.36
529.90	1693.67
530.09	1757.16
530.29	1730.53
530.49	1601.51
530.69	1859.56
530.89	1781.73
531.09	1705.96
531.28	1632.23
531.48	1689.57
531.68	1779.68
531.88	1748.97
532.08	1812.45
532.28	1691.62
532.47	1800.16
532.67	1785.83
532.87	1789.92
533.07	1732.58
533.27	1796.07
533.46	1761.25
533.66	1755.11
533.86	1695.72
534.06	1701.86
534.26	1652.71
534.45	1728.49
534.65	1714.15
534.85	1728.49
535.05	1734.63
535.25	1753.06
535.44	1677.29
535.64	1779.68
535.84	1746.92
536.04	1689.57
536.24	1675.24
536.43	1701.86
536.63	1787.88
536.83	1755.11
537.03	1712.10
537.22	1667.05
537.42	1642.47
537.62	1716.20
537.82	1652.71
538.02	1816.55
538.21	1820.64
538.41	1890.28
538.61	1806.31
538.81	1712.10
539.00	1810.40
539.20	1638.38
539.40	1703.91
539.60	1808.36
539.79	1705.96
539.99	1794.02
540.19	1673.19
540.39	1687.53
540.58	1775.59
540.78	1765.35
540.98	1677.29
541.18	1808.36
541.37	1816.55
541.57	1730.53
541.77	1767.40
541.97	1685.48
542.16	1722.34
542.36	1781.73
542.56	1738.73
542.76	1800.16
542.95	1759.21
543.15	1734.63
543.35	1869.80
543.54	1705.96
543.74	1748.97
543.94	1822.69
544.14	1761.25
544.33	1841.12
544.53	1716.20
544.73	1806.31
544.93	1755.11
545.12	1708.01
545.32	1751.01
545.52	1654.76
545.71	1658.85
545.91	1679.33
546.11	1683.43
546.30	1626.09
546.50	1794.02
546.70	1728.49
546.90	1781.73
547.09	1630.18
547.29	1814.50
547.49	1710.05
547.68	1759.21
547.88	1708.01
548.08	1779.68
548.27	2195.42
548.47	1650.66
548.67	1648.61
548.87	1837.03
549.06	1759.21
549.26	1759.21
549.46	1748.97
549.65	1744.87
549.85	1773.54
550.05	1759.21
550.24	1630.18
550.44	1691.62
550.64	1738.73
550.83	1705.96
551.03	1714.15
551.23	1757.16
551.42	1822.69
551.62	1757.16
551.82	1779.68
552.01	1787.88
552.21	1820.64
552.41	1763.30
552.60	1820.64
552.80	1806.31
553.00	1654.76
553.19	1746.92
553.39	1767.40
553.59	1681.38
553.78	1845.22
553.98	1705.96
554.17	1693.67
554.37	1746.92
554.57	1877.99
554.76	1665.00
554.96	1720.29
555.16	1769.44
555.35	1746.92
555.55	1740.77
555.75	1748.97
555.94	1832.93
556.14	1720.29
556.33	1834.98
556.53	1773.54
556.73	1732.58
556.92	1859.56
557.12	1802.21
557.32	1822.69
557.51	1779.68
557.71	1787.88
557.90	1814.50
558.10	1875.94
558.30	1757.16
558.49	1701.86
558.69	1722.34
558.88	1746.92
559.08	1742.82
559.28	1732.58
559.47	1720.29
559.67	1746.92
559.86	1849.32
560.06	1665.00
560.26	1705.96
560.45	1761.25
560.65	1710.05
560.84	1898.47
561.04	1771.49
561.24	1726.44
561.43	1712.10
561.63	1851.36
561.82	1748.97
562.02	1763.30
562.22	1705.96
562.41	1685.48
562.61	1624.04
562.80	1740.77
563.00	1931.23
563.19	1773.54
563.39	1781.73
563.59	1734.63
563.78	1671.14
563.98	1587.18
564.17	1705.96
564.37	1681.38
564.56	1806.31
564.76	1652.71
564.96	1796.07
565.15	1693.67
565.35	1900.52
565.54	1673.19
565.74	1742.82
565.93	1720.29
566.13	1695.72
566.32	1791.97
566.52	1787.88
566.71	1738.73
566.91	1859.56
567.11	1710.05
567.30	1699.81
567.50	1740.77
567.69	1763.30
567.89	1775.59
568.08	1710.05
568.28	1761.25
568.47	1679.33
568.67	1757.16
568.86	1751.01
569.06	1814.50
569.25	1722.34
569.45	1662.95
569.64	1738.73
569.84	1751.01
570.04	1843.17
570.23	1757.16
570.43	1767.40
570.62	1761.25
570.82	1791.97
571.01	1701.86
571.21	1753.06
571.40	1691.62
571.60	1859.56
571.79	1732.58
571.99	1703.91
572.18	1607.66
572.38	1828.84
572.57	1755.11
572.77	1812.45
572.96	1877.99
573.16	1800.16
573.35	1673.19
573.55	1800.16
573.74	1804.26
573.94	1757.16
574.13	1742.82
574.33	1771.49
574.52	1804.26
574.71	1699.81
574.91	1732.58
575.10	1687.53
575.30	1773.54
575.49	1681.38
575.69	1699.81
575.88	1845.22
576.08	1767.40
576.27	1828.84
576.47	1767.40
576.66	1849.32
576.86	1851.36
577.05	1757.16
577.25	1775.59
577.44	1857.51
577.64	1718.25
577.83	1847.27
578.02	1681.38
578.22	1861.60
578.41	1882.08
578.61	1683.43
578.80	1685.48
579.00	1751.01
579.19	1779.68
579.39	1837.03
579.58	1769.44
579.77	1746.92
579.97	1865.70
580.16	1855.46
580.36	1902.56
580.55	1855.46
580.75	1765.35
580.94	1728.49
581.13	1853.41
581.33	1855.46
581.52	1734.63
581.72	1867.75
581.91	1873.89
582.11	1755.11
582.30	1845.22
582.49	1771.49
582.69	1863.65
582.88	1771.49
583.08	1798.12
583.27	1873.89
583.47	1701.86
583.66	1726.44
583.85	1714.15
584.05	1724.39
584.24	1830.88
584.44	1841.12
584.63	1769.44
584.82	1812.45
585.02	1861.60
585.21	1859.56
585.41	1791.97
585.60	1769.44
585.79	1929.19
585.99	1904.61
586.18	1779.68
586.37	2203.61
586.57	3368.91
586.76	9899.88
586.96	24311.44
587.15	34360.82
587.34	40103.32
587.54	41858.43
587.73	36550.10
587.93	26109.55
588.12	21687.99
588.31	18278.12
588.51	16512.77
588.70	15036.19
588.89	14008.11
589.09	12486.47
589.28	10692.44
589.47	9467.76
589.67	8107.91
589.86	6383.52
590.06	5040.05
590.25	3968.96
590.44	3170.26
590.64	2551.77
590.83	2244.57
591.02	2148.32
591.22	1994.72
591.41	1849.32
591.60	1853.41
591.80	1959.91
591.99	1748.97
592.18	1791.97
592.38	1871.84
592.57	1742.82
592.76	1759.21
592.96	1738.73
593.15	1755.11
593.34	1794.02
593.54	1828.84
593.73	1781.73
593.92	1744.87
594.12	1755.11
594.31	1832.93
594.50	1812.45
594.70	1816.55
594.89	1886.18
595.08	1662.95
595.28	1773.54
595.47	1869.80
595.66	1824.74
595.86	1662.95
596.05	1814.50
596.24	1712.10
596.43	1800.16
596.63	1898.47
596.82	1787.88
597.01	1857.51
597.21	1880.04
597.40	1722.34
597.59	1808.36
597.79	1798.12
597.98	1763.30
598.17	1757.16
598.36	1746.92
598.56	1806.31
598.75	1740.77
598.94	1761.25
599.14	1755.11
599.33	1685.48
599.52	1826.79
599.71	1724.39
599.91	1816.55
600.10	1757.16
600.29	1781.73
600.48	1777.64
600.68	1796.07
600.87	1748.97
601.06	1789.92
601.26	1714.15
601.45	1718.25
601.64	1771.49
601.83	1851.36
602.03	1738.73
602.22	1673.19
602.41	1744.87
602.60	1871.84
602.80	1771.49
602.99	1755.11
603.18	1761.25
603.37	1800.16
603.57	1701.86
603.76	1757.16
603.95	1779.68
604.14	1722.34
604.34	1726.44
604.53	1722.34
604.72	1751.01
604.91	1798.12
605.10	1794.02
605.30	1691.62
605.49	1851.36
605.68	1761.25
605.87	1759.21
606.07	1767.40
606.26	1763.30
606.45	1730.53
606.64	1732.58
606.84	1712.10
607.03	1728.49
607.22	1814.50
607.41	1697.77
607.60	1652.71
607.80	1800.16
607.99	1681.38
608.18	1708.01
608.37	1775.59
608.56	1740.77
608.76	1769.44
608.95	1863.65
609.14	1763.30
609.33	1775.59
609.52	1718.25
609.72	1757.16
609.91	1779.68
610.10	1761.25
610.29	1804.26
610.48	1808.36
610.68	1767.40
610.87	1734.63
611.06	1753.06
611.25	1716.20
611.44	1857.51
611.63	1697.77
611.83	1806.31
612.02	1703.91
612.21	1796.07
612.40	1613.80
612.59	1742.82
612.79	1771.49
612.98	1712.10
613.17	1857.51
613.36	1716.20
613.55	1906.66
613.74	1742.82
613.93	1730.53
614.13	1703.91
614.32	1718.25
614.51	1783.78
614.70	1736.68
614.89	1648.61
615.08	1730.53
615.28	2066.40
615.47	1642.47
615.66	1708.01
615.85	1710.05
616.04	1777.64
616.23	1746.92
616.42	1734.63
616.62	1744.87
616.81	1726.44
617.00	1716.20
617.19	1859.56
617.38	1677.29
617.57	1740.77
617.76	1832.93
617.95	1789.92
618.15	1800.16
618.34	1802.21
618.53	1656.81
618.72	1816.55
618.91	1894.37
619.10	1826.79
619.29	1697.77
619.48	1787.88
619.68	1671.14
619.87	1699.81
620.06	1685.48
620.25	1755.11
620.44	1681.38
620.63	1705.96
620.82	1730.53
621.01	1718.25
621.20	1673.19
621.39	1740.77
621.59	1734.63
621.78	1736.68
621.97	1761.25
622.16	1781.73
622.35	1712.10
622.54	1820.64
622.73	1853.41
622.92	1605.61
623.11	1773.54
623.30	1755.11
623.49	1751.01
623.68	1656.81
623.88	1859.56
624.07	1722.34
624.26	1697.77
624.45	1806.31
624.64	1746.92
624.83	1701.86
625.02	1757.16
625.21	1757.16
625.40	1628.14
625.59	1755.11
625.78	1734.63
625.97	1781.73
626.16	1757.16
626.35	1742.82
626.54	1759.21
626.74	1759.21
626.93	1710.05
627.12	1675.24
627.31	1773.54
627.50	1732.58
627.69	1845.22
627.88	1763.30
628.07	1738.73
628.26	1636.33
628.45	1677.29
628.64	1636.33
628.83	1734.63
629.02	1660.90
629.21	1834.98
629.40	1771.49
629.59	1675.24
629.78	1755.11
629.97	1783.78
630.16	1730.53
630.35	1742.82
630.54	1714.15
630.73	1687.53
630.92	1738.73
631.11	1697.77
631.30	1697.77
631.49	1796.07
631.68	1710.05
631.87	1703.91
632.06	1648.61
632.25	1847.27
632.44	1712.10
632.63	1773.54
632.82	1630.18
633.01	1652.71
633.20	1757.16
633.39	1681.38
633.58	1669.09
633.77	1734.63
633.96	1685.48
634.15	1746.92
634.34	1769.44
634.53	1748.97
634.72	1710.05
634.91	1589.22
635.10	1759.21
635.29	1796.07
635.48	1746.92
635.67	1685.48
635.86	1693.67
636.05	1822.69
636.24	1783.78
636.43	1789.92
636.62	1703.91
636.81	1595.37
637.00	1671.14
637.19	1773.54
637.38	1757.16
637.57	1703.91
637.76	1714.15
637.95	1732.58
638.14	1738.73
638.33	1601.51
638.52	1742.82
638.71	1691.62
638.89	1673.19
639.08	1863.65
639.27	1675.24
639.46	1648.61
639.65	1740.77
639.84	1773.54
640.03	1769.44
640.22	1673.19
640.41	1771.49
640.60	1724.39
640.79	1724.39
640.98	1718.25
641.17	1808.36
641.36	1722.34
641.55	1771.49
641.74	1640.42
641.92	1712.10
642.11	1718.25
642.30	1675.24
642.49	1744.87
642.68	1708.01
642.87	1722.34
643.06	1705.96
643.25	1697.77
643.44	1712.10
643.63	1761.25
643.82	1746.92
644.00	1648.61
644.19	1730.53
644.38	1640.42
644.57	1751.01
644.76	1789.92
644.95	1681.38
645.14	1742.82
645.33	1669.09
645.52	1701.86
645.71	1681.38
645.89	1630.18
646.08	1722.34
646.27	1673.19
646.46	1804.26
646.65	1603.56
646.84	1755.11
647.03	1722.34
647.22	1789.92
647.40	1802.21
647.59	1695.72
647.78	1634.28
647.97	1648.61
648.16	1687.53
648.35	1800.16
648.54	1785.83
648.73	1708.01
648.91	1808.36
649.10	1712.10
649.29	1675.24
649.48	1777.64
649.67	1742.82
649.86	1732.58
650.05	1691.62
650.23	1689.57
650.42	1644.52
650.61	1701.86
650.80	1740.77
650.99	1914.85
651.18	1722.34
651.36	1781.73
651.55	1701.86
651.74	1687.53
651.93	1679.33
652.12	1732.58
652.31	1744.87
652.49	1724.39
652.68	1634.28
652.87	1722.34
653.06	1779.68
653.25	1828.84
653.44	1673.19
653.62	1816.55
653.81	1765.35
654.00	1736.68
654.19	1718.25
654.38	1841.12
654.56	1744.87
654.75	1822.69
654.94	1757.16
655.13	1740.77
655.32	1685.48
655.51	1687.53
655.69	1673.19
655.88	1736.68
656.07	1705.96
656.26	1699.81
656.45	1691.62
656.63	1669.09
656.82	1683.43
657.01	1773.54
657.20	1601.51
657.38	1869.80
657.57	1644.52
657.76	1613.80
657.95	1681.38
658.14	1642.47
658.32	1738.73
658.51	1626.09
658.70	1683.43
658.89	1748.97
659.08	1703.91
659.26	1853.41
659.45	1607.66
659.64	1742.82
659.83	1650.66
660.01	1888.23
660.20	1767.40
660.39	1843.17
660.58	1591.27
660.76	1806.31
660.95	1724.39
661.14	1738.73
661.33	1587.18
661.51	1773.54
661.70	1746.92
661.89	1746.92
662.08	1677.29
662.26	1669.09
662.45	1662.95
662.64	1796.07
662.83	1765.35
663.01	1675.24
663.20	1748.97
663.39	1701.86
663.58	1705.96
663.76	1751.01
663.95	1753.06
664.14	1705.96
664.32	1665.00
664.51	1677.29
664.70	1603.56
664.89	1730.53
665.07	1644.52
665.26	1710.05
665.45	1685.48
665.64	1779.68
665.82	1785.83
666.01	1779.68
666.20	1730.53
666.38	1845.22
666.57	1789.92
666.76	2228.19
666.95	4450.24
667.13	10381.15
667.32	15361.81
667.51	18081.52
667.69	18935.52
667.88	17669.87
668.07	12341.06
668.25	9758.57
668.44	8056.71
668.63	7473.04
668.81	6766.49
669.00	6246.30
669.19	5595.05
669.38	5156.79
669.56	4534.20
669.75	3938.24
669.94	3454.92
670.12	2815.96
670.31	2600.92
670.50	2260.96
670.68	2076.64
670.87	1918.95
671.06	1896.42
671.24	1853.41
671.43	1828.84
671.62	1794.02
671.80	1658.85
671.99	1712.10
672.18	1804.26
672.36	1748.97
672.55	1779.68
672.74	1746.92
672.92	1691.62
673.11	1746.92
673.29	1710.05
673.48	1806.31
673.67	1691.62
673.85	1746.92
674.04	1705.96
674.23	1759.21
674.41	1845.22
674.60	1644.52
674.79	1640.42
674.97	1683.43
675.16	1763.30
675.34	1755.11
675.53	1708.01
675.72	1722.34
675.90	1742.82
676.09	1665.00
676.28	1720.29
676.46	1636.33
676.65	1730.53
676.83	1675.24
677.02	1724.39
677.21	1722.34
677.39	1716.20
677.58	1689.57
677.77	1613.80
677.95	1617.90
678.14	1640.42
678.32	1669.09
678.51	1656.81
678.70	1871.84
678.88	1644.52
679.07	1769.44
679.25	1728.49
679.44	1681.38
679.63	1730.53
679.81	1781.73
680.00	1816.55
680.18	1730.53
680.37	1834.98
680.55	1742.82
680.74	1642.47
680.93	1621.99
681.11	1722.34
681.30	1714.15
681.48	1632.23
681.67	1724.39
681.85	1744.87
682.04	1656.81
682.23	1740.77
682.41	1730.53
682.60	1681.38
682.78	1673.19
682.97	1650.66
683.15	1705.96
683.34	1712.10
683.53	1755.11
683.71	1652.71
683.90	1734.63
684.08	1787.88
684.27	1722.34
684.45	1839.08
684.64	1767.40
684.82	1730.53
685.01	1746.92
685.19	1701.86
685.38	1705.96
685.57	1724.39
685.75	1730.53
685.94	1730.53
686.12	1736.68
686.31	1695.72
686.49	1812.45
686.68	1701.86
686.86	1728.49
687.05	1736.68
687.23	1775.59
687.42	1703.91
687.60	1617.90
687.79	1755.11
687.97	1849.32
688.16	1732.58
688.34	1773.54
688.53	1599.46
688.71	1798.12
688.90	1751.01
689.08	1648.61
689.27	1570.79
689.45	1710.05
689.64	1714.15
689.82	1763.30
690.01	1697.77
690.19	1730.53
690.38	1701.86
690.56	1845.22
690.75	1662.95
690.93	1585.13
691.12	1677.29
691.30	1732.58
691.49	1632.23
691.67	1644.52
691.86	1757.16
692.04	1742.82
692.23	1761.25
692.41	1716.20
692.60	1783.78
692.78	1765.35
692.97	1767.40
693.15	1712.10
693.34	1802.21
693.52	1746.92
693.71	1693.67
693.89	1691.62
694.08	1566.70
694.26	1736.68
694.44	1677.29
694.63	1712.10
694.81	1693.67
695.00	1671.14
695.18	1757.16
695.37	1863.65
695.55	1724.39
695.74	1654.76
695.92	1656.81
696.10	1800.16
696.29	1611.75
696.47	1652.71
696.66	1693.67
696.84	1621.99
697.03	1730.53
697.21	1847.27
697.40	2318.30
697.58	1849.32
697.76	1683.43
697.95	1634.28
698.13	1689.57
698.32	1726.44
698.50	1685.48
698.68	1822.69
698.87	1683.43
699.05	1820.64
699.24	1683.43
699.42	1607.66
699.61	1679.33
699.79	1738.73
699.97	1705.96
700.16	1771.49
700.34	1626.09
700.53	1701.86
700.71	1865.70
700.89	1746.92
701.08	1697.77
701.26	1685.48
701.45	2152.42
701.63	1681.38
701.81	1689.57
702.00	1648.61
702.18	1714.15
702.37	1644.52
702.55	1753.06
702.73	1644.52
702.92	1734.63
703.10	1667.05
703.28	1691.62
703.47	1691.62
703.65	1759.21
703.84	1724.39
704.02	1687.53
704.20	1738.73
704.39	1796.07
704.57	1689.57
704.75	1814.50
704.94	1779.68
705.12	1720.29
705.30	1800.16
705.49	2222.05
705.67	4380.61
705.86	9211.76
706.04	12371.78
706.22	14511.91
706.41	15263.51
706.59	13852.46
706.77	9590.64
706.96	7350.16
707.14	6582.17
707.32	6004.64
707.51	5457.84
707.69	4962.23
707.87	4220.86
708.06	3524.55
708.24	3024.85
708.42	2492.38
708.61	2222.05
708.79	1906.66
708.97	1830.88
709.16	1857.51
709.34	1757.16
709.52	1708.01
709.71	1753.06
709.89	1783.78
710.07	1705.96
710.26	1621.99
710.44	1673.19
710.62	1783.78
710.80	1681.38
710.99	1759.21
711.17	1773.54
711.35	1726.44
711.54	1681.38
711.72	1738.73
711.90	1746.92
712.09	1757.16
712.27	1679.33
712.45	1755.11
712.63	1667.05
712.82	1746.92
713.00	1638.38
713.18	1751.01
713.37	1722.34
713.55	1791.97
713.73	1746.92
713.91	1761.25
714.10	1683.43
714.28	1740.77
714.46	1767.40
714.65	1687.53
714.83	1732.58
715.01	1738.73
715.19	1734.63
715.38	1648.61
715.56	1701.86
715.74	1732.58
715.92	1673.19
716.11	1814.50
716.29	1656.81
716.47	1710.05
716.65	1654.76
716.84	1644.52
717.02	1763.30
717.20	1638.38
717.38	1658.85
717.57	1744.87
717.75	1726.44
717.93	1695.72
718.11	1722.34
718.30	1693.67
718.48	1722.34
718.66	1789.92
718.84	1716.20
719.03	1710.05
719.21	1642.47
719.39	1800.16
719.57	1755.11
719.75	1701.86
719.94	1685.48
720.12	1679.33
720.30	1708.01
720.48	1798.12
720.67	1693.67
720.85	1716.20
721.03	1681.38
721.21	1607.66
721.39	1800.16
721.58	1714.15
721.76	1728.49
721.94	1714.15
722.12	1634.28
722.30	1847.27
722.49	1779.68
722.67	1697.77
722.85	1730.53
723.03	1626.09
723.21	1648.61
723.40	1787.88
723.58	1738.73
723.76	1732.58
723.94	1742.82
724.12	1654.76
724.30	1771.49
724.49	1759.21
724.67	1658.85
724.85	1826.79
725.03	1654.76
725.21	1726.44
725.40	1759.21
725.58	1724.39
725.76	1785.83
725.94	1718.25
726.12	1673.19
726.30	1714.15
726.49	1644.52
726.67	1677.29
726.85	1716.20
727.03	1746.92
727.21	2082.78
727.39	2926.55
727.57	3819.46
727.76	4265.92
727.94	4413.37
728.12	4294.59
728.30	3663.82
728.48	3051.47
728.66	2815.96
728.84	2484.19
729.03	2250.72
729.21	2142.18
729.39	1964.00
729.57	1837.03
729.75	1796.07
729.93	1818.60
730.11	1714.15
730.30	1630.18
730.48	1738.73
730.66	1794.02
730.84	1740.77
731.02	1724.39
731.20	1658.85
731.38	1763.30
731.56	1636.33
731.74	1746.92
731.93	1744.87
732.11	1677.29
732.29	1740.77
732.47	1691.62
732.65	1712.10
732.83	1765.35
733.01	1710.05
733.19	1673.19
733.37	1753.06
733.56	1736.68
733.74	1703.91
733.92	1775.59
734.10	1703.91
734.28	1742.82
734.46	1632.23
734.64	1701.86
734.82	1738.73
735.00	1665.00
735.18	1751.01
735.36	1716.20
735.54	1761.25
735.73	1722.34
735.91	1714.15
736.09	1759.21
736.27	1710.05
736.45	1718.25
736.63	1599.46
736.81	1566.70
736.99	1773.54
737.17	1830.88
737.35	1716.20
737.53	1740.77
737.71	1718.25
737.89	1785.83
738.07	1679.33
738.25	1624.04
738.43	1603.56
738.61	1671.14
738.80	1679.33
738.98	1634.28
739.16	1636.33
739.34	1662.95
739.52	1771.49
739.70	1705.96
739.88	1753.06
740.06	1828.84
740.24	1591.27
740.42	1824.74
740.60	1646.57
740.78	1697.77
740.96	1601.51
741.14	1681.38
741.32	1757.16
741.50	1689.57
741.68	1822.69
741.86	1757.16
742.04	1726.44
742.22	1667.05
742.40	1759.21
742.58	1726.44
742.76	1656.81
742.94	1746.92
743.12	1638.38
743.30	1691.62
743.48	1753.06
743.66	1665.00
743.84	1710.05
744.02	1708.01
744.20	1662.95
744.38	1638.38
744.56	1734.63
744.74	1826.79
744.92	1755.11
745.10	1789.92
745.28	1789.92
745.46	1775.59
745.64	1734.63
745.82	1794.02
746.00	1699.81
746.18	1746.92
746.36	1656.81
746.54	1730.53
746.72	1708.01
746.90	1648.61
747.08	1779.68
747.26	1687.53
747.44	1828.84
747.62	1757.16
747.80	1732.58
747.98	1798.12
748.15	1712.10
748.33	1822.69
748.51	1673.19
748.69	1714.15
748.87	1695.72
749.05	1685.48
749.23	1718.25
749.41	1796.07
749.59	1757.16
749.77	1697.77
749.95	1624.04
750.13	1675.24
750.31	1785.83
750.49	1755.11
750.67	1714.15
750.85	1832.93
751.03	1644.52
751.20	1738.73
751.38	1718.25
751.56	1701.86
751.74	1718.25
751.92	1646.57
752.10	1613.80
752.28	1806.31
752.46	1570.79
752.64	1691.62
752.82	1722.34
753.00	1736.68
753.18	1730.53
753.35	1699.81
753.53	1761.25
753.71	1613.80
753.89	1798.12
754.07	1724.39
754.25	1820.64
754.43	1726.44
754.61	1673.19
754.79	1740.77
754.97	1628.14
755.14	1787.88
755.32	1708.01
755.50	1708.01
755.68	1744.87
755.86	1732.58
756.04	1662.95
756.22	1583.08
756.40	1751.01
756.57	1869.80
756.75	1726.44
756.93	1710.05
757.11	1779.68
757.29	1662.95
757.47	1683.43
757.65	1613.80
757.82	1560.55
758.00	1679.33
758.18	1732.58
758.36	1638.38
758.54	1773.54
758.72	1605.61
758.90	1765.35
759.07	1669.09
759.25	1714.15
759.43	1714.15
759.61	1703.91
759.79	2209.76
759.97	1826.79
760.15	1671.14
760.32	1712.10
760.50	1755.11
760.68	1830.88
760.86	1656.81
761.04	1849.32
761.22	1681.38
761.39	1734.63
761.57	1714.15
761.75	1671.14
761.93	1722.34
762.11	1665.00
762.28	1656.81
762.46	1658.85
762.64	1722.34
762.82	1658.85
763.00	1695.72
763.18	1771.49
763.35	1669.09
763.53	1781.73
763.71	1691.62
763.89	1701.86
764.07	1736.68
764.24	1697.77
764.42	1710.05
764.60	1681.38
764.78	1791.97
764.96	1736.68
765.13	1759.21
765.31	1705.96
765.49	1697.77
765.67	1724.39
765.84	1644.52
766.02	1689.57
766.20	1658.85
766.38	1656.81
766.56	1775.59
766.73	1671.14
766.91	1734.63
767.09	1705.96
767.27	1714.15
767.44	1656.81
767.62	1710.05
767.80	1685.48
767.98	1677.29
768.15	1665.00
768.33	1693.67
768.51	1746.92
768.69	1710.05
768.87	1705.96
769.04	1714.15
769.22	1847.27
769.40	1779.68
769.58	1877.99
769.75	1697.77
769.93	1841.12
770.11	1617.90
770.28	1656.81
770.46	1714.15
770.64	1763.30
770.82	1695.72
770.99	1689.57
771.17	1722.34
771.35	1685.48
771.53	1738.73
771.70	1697.77
771.88	1769.44
772.06	1695.72
772.23	1703.91
772.41	1755.11
772.59	1695.72
772.77	1665.00
772.94	1738.73
773.12	1683.43
773.30	1726.44
773.47	1791.97
773.65	1705.96
773.83	1822.69
774.01	1708.01
774.18	1601.51
774.36	1626.09
774.54	1574.89
774.71	1736.68
774.89	1583.08
775.07	1738.73
775.24	1689.57
775.42	1671.14
775.60	1834.98
775.78	1738.73
775.95	1681.38
776.13	1615.85
776.31	1632.23
776.48	1773.54
776.66	1726.44
776.84	1683.43
777.01	1718.25
777.19	1726.44
777.37	1660.90
777.54	1755.11
777.72	1748.97
777.90	1738.73
778.07	1615.85
778.25	1916.90
778.43	1730.53
778.60	1683.43
778.78	1771.49
778.96	1701.86
779.13	1652.71
779.31	1755.11
779.49	1644.52
779.66	1718.25
779.84	1681.38
780.01	1765.35
780.19	1683.43
780.37	1822.69
780.54	1701.86
780.72	1714.15
780.90	1699.81
781.07	1683.43
781.25	1787.88
781.43	1757.16
781.60	1615.85
781.78	1775.59
781.95	1689.57
782.13	1701.86
782.31	1673.19
782.48	1587.18
782.66	1716.20
782.83	1800.16
783.01	1734.63
783.19	1693.67
783.36	1648.61
783.54	1626.09
783.72	1783.78
783.89	1693.67
784.07	1699.81
784.24	1728.49
784.42	1822.69
784.60	1765.35
784.77	1697.77
784.95	1607.66
785.12	1652.71
785.30	1748.97
785.47	1607.66
785.65	1689.57
785.83	1699.81
786.00	1705.96
786.18	1708.01
786.35	1675.24
786.53	1677.29
786.71	1736.68
786.88	1722.34
787.06	1675.24
787.23	1656.81
787.41	1689.57
787.58	1785.83
787.76	1679.33
787.94	1718.25
788.11	1675.24
788.29	1673.19
788.46	1626.09
788.64	1628.14
788.81	1720.29
788.99	1697.77
789.16	1587.18
789.34	1748.97
789.52	1658.85
789.69	1624.04
789.87	1658.85
790.04	1742.82
790.22	1767.40
790.39	1839.08
790.57	1660.90
790.74	1712.10
790.92	1665.00
791.09	1658.85
791.27	1742.82
791.44	1722.34
791.62	1714.15
791.79	1742.82
791.97	1662.95
792.15	1845.22
792.32	1761.25
792.50	1765.35
792.67	1808.36
792.85	1759.21
793.02	1726.44
793.20	1656.81
793.37	1642.47
793.55	1746.92
793.72	1605.61
793.90	1753.06
794.07	1667.05
794.25	1652.71
794.42	1691.62
794.60	1798.12
794.77	1785.83
794.95	1660.90
795.12	1755.11
795.30	1681.38
795.47	1632.23
795.65	1867.75
795.82	1685.48
796.00	1697.77
796.17	1761.25
796.34	1716.20
796.52	1732.58
796.69	1728.49
796.87	1751.01
797.04	1695.72
797.22	1781.73
797.39	1740.77
797.57	1742.82
797.74	1732.58
797.92	1730.53
798.09	1650.66
798.27	1734.63
798.44	1773.54
798.62	1695.72
798.79	1712.10
798.96	1718.25
799.14	1775.59
799.31	1837.03
799.49	1703.91
799.66	1640.42
799.84	1671.14
800.01	1632.23
800.19	1679.33
800.36	1617.90
800.53	1718.25
800.71	1759.21
800.88	1785.83
801.06	1677.29
801.23	1683.43
801.41	1634.28
801.58	1632.23
801.75	1685.48
801.93	1775.59
802.10	1822.69
802.28	1665.00
802.45	1617.90
802.63	1789.92
802.80	1765.35
802.97	1722.34
803.15	1675.24
803.32	1710.05
803.50	1697.77
803.67	1634.28
803.84	1681.38
804.02	1837.03
804.19	1794.02
804.37	1558.50
804.54	1656.81
804.71	1689.57
804.89	1740.77
805.06	1603.56
805.24	1705.96
805.41	1648.61
805.58	1581.03
805.76	1834.98
805.93	1714.15
806.10	1816.55
806.28	1791.97
806.45	1724.39
806.63	1679.33
806.80	1712.10
806.97	1734.63
807.15	1726.44
807.32	1800.16
807.49	1730.53
807.67	1630.18
807.84	1763.30
808.01	1589.22
808.19	1841.12
808.36	1775.59
808.54	1728.49
808.71	1691.62
808.88	1726.44
809.06	1740.77
809.23	1841.12
809.40	1652.71
809.58	1789.92
809.75	1687.53
809.92	1656.81
810.10	1806.31
810.27	1665.00
810.44	1773.54
810.62	1689.57
810.79	1691.62
810.96	1738.73
811.14	1734.63
811.31	1681.38
811.48	1724.39
811.66	1757.16
811.83	1826.79
812.00	1777.64
812.18	1716.20
812.35	1802.21
812.52	1701.86
812.69	1626.09
812.87	1701.86
813.04	1646.57
813.21	1712.10
813.39	1654.76
813.56	1689.57
813.73	1660.90
813.91	1683.43
814.08	1740.77
814.25	1714.15
814.42	1583.08
814.60	1675.24
814.77	1705.96
814.94	1683.43
815.12	1759.21
815.29	1732.58
815.46	1634.28
815.63	1677.29
815.81	1767.40
815.98	1693.67
816.15	1806.31
816.33	1710.05
816.50	1669.09
816.67	1669.09
816.84	1724.39
817.02	1599.46
817.19	1617.90
817.36	1769.44
817.53	1714.15
817.71	1650.66
817.88	1734.63
818.05	1734.63
818.22	1650.66
818.40	1837.03
818.57	1722.34
818.74	1748.97
818.91	1695.72
819.09	1687.53
819.26	1753.06
819.43	1675.24
819.60	1697.77
819.78	1714.15
819.95	1775.59
820.12	1654.76
820.29	1810.40
820.47	1791.97
820.64	1728.49
820.81	1595.37
820.98	1656.81
821.15	1742.82
821.33	1677.29
821.50	1607.66
821.67	1720.29
821.84	1658.85
822.02	1751.01
822.19	1705.96
822.36	1759.21
822.53	1644.52
822.70	1693.67
822.88	1665.00
823.05	1746.92
823.22	1794.02
823.39	1755.11
823.56	1699.81
823.74	1837.03
823.91	1665.00
824.08	1693.67
824.25	1611.75
824.42	1777.64
824.60	1615.85
824.77	1697.77
824.94	1738.73
825.11	1785.83
825.28	1615.85
825.45	1759.21
825.63	1685.48
825.80	1683.43
825.97	1726.44
826.14	1783.78
826.31	1617.90
826.48	1755.11
826.66	1693.67
826.83	1671.14
827.00	1693.67
827.17	1703.91
827.34	1724.39
827.51	1650.66
827.69	1763.30
827.86	1646.57
828.03	1636.33
828.20	1734.63
828.37	1689.57
828.54	1642.47
828.71	1681.38
828.89	1757.16
829.06	1671.14
829.23	1755.11
829.40	1648.61
829.57	1632.23
829.74	1691.62
829.91	1646.57
830.09	1708.01
830.26	1767.40
830.43	1769.44
830.60	1673.19
830.77	1753.06
830.94	1773.54
831.11	1894.37
831.28	1677.29
831.46	1724.39
831.63	1689.57
831.80	1775.59
831.97	1683.43
832.14	1691.62
832.31	1755.11
832.48	1791.97
832.65	1697.77
832.82	1775.59
832.99	1710.05
833.17	1583.08
833.34	1761.25
833.51	1800.16
833.68	1605.61
833.85	1720.29
834.02	1648.61
834.19	1703.91
834.36	1695.72
834.53	1703.91
834.70	1740.77
834.87	1855.46
835.04	1660.90
835.22	1650.66
835.39	1691.62
835.56	1624.04
835.73	1652.71
835.90	1757.16
836.07	1683.43
836.24	1714.15
836.41	1652.71
836.58	1703.91
836.75	1763.30
836.92	1714.15
837.09	1681.38
837.26	1720.29
837.43	1748.97
837.60	1744.87
837.77	1689.57
837.94	1730.53
838.12	1742.82
838.29	1705.96
838.46	1609.70
838.63	1677.29
838.80	1765.35
838.97	1779.68
839.14	1665.00
839.31	1640.42
839.48	1671.14
839.65	1681.38
839.82	1816.55
839.99	1673.19
840.16	1675.24
840.33	1712.10
840.50	1687.53
840.67	1703.91
840.84	1621.99
841.01	1671.14
841.18	1654.76
841.35	1675.24
841.52	1738.73
841.69	1832.93
841.86	1728.49
842.03	1673.19
842.20	1771.49
842.37	1671.14
842.54	1748.97
842.71	1728.49
842.88	1646.57
843.05	1740.77
843.22	1708.01
843.39	1671.14
843.56	1775.59
843.73	1669.09
843.90	1701.86
844.07	1691.62
844.24	1720.29
844.41	1765.35
844.58	1626.09
844.75	1730.53
844.92	1748.97
845.09	1640.42
845.26	1677.29
845.43	1775.59
845.60	1660.90
845.77	1804.26
845.94	1716.20
846.10	1730.53
846.27	1667.05
846.44	1605.61
846.61	1636.33
846.78	1656.81
846.95	1716.20
847.12	1718.25
847.29	1642.47
847.46	1701.86
847.63	1744.87
847.80	1675.24
847.97	1679.33
848.14	1787.88
848.31	1771.49
848.48	1675.24
848.65	1703.91
848.82	1615.85
848.98	1808.36
849.15	1744.87
849.32	1783.78
849.49	1712.10
849.66	1701.86
849.83	1705.96
850.00	1621.99
850.17	1724.39
850.34	1656.81
850.51	1746.92
850.68	1695.72
850.85	1787.88
851.01	1781.73
851.18	1710.05
851.35	1720.29
851.52	1775.59
851.69	1763.30
851.86	1660.90
852.03	1615.85
852.20	1740.77
852.37	1722.34
852.53	1619.94
852.70	1683.43
852.87	1689.57
853.04	1675.24
853.21	1677.29
853.38	1748.97
853.55	1730.53
853.72	1800.16
853.89	1660.90
854.05	1705.96
854.22	1624.04
854.39	1662.95
854.56	1808.36
854.73	1705.96
854.90	1628.14
855.07	1751.01
855.23	1615.85
855.40	1603.56
855.57	1693.67
855.74	1632.23
855.91	1853.41
856.08	1648.61
856.25	1665.00
856.41	1673.19
856.58	1673.19
856.75	1718.25
856.92	1624.04
857.09	1742.82
857.26	1652.71
857.42	1675.24
857.59	1820.64
857.76	1654.76
857.93	1697.77
858.10	1685.48
858.27	1693.67
858.43	1773.54
858.60	1644.52
858.77	1609.70
858.94	1650.66
859.11	1734.63
859.27	1726.44
859.44	1724.39
859.61	1837.03
859.78	1656.81
859.95	1681.38
860.12	1673.19
860.28	1810.40
860.45	1947.62
860.62	1613.80
860.79	1695.72
860.95	1658.85
861.12	1656.81
861.29	1699.81
861.46	1675.24
861.63	1726.44
861.79	1685.48
861.96	1712.10
862.13	1703.91
862.30	1763.30
862.47	1695.72
862.63	1683.43
862.80	1703.91
862.97	1701.86
863.14	1718.25
863.30	1687.53
863.47	1621.99
863.64	1818.60
863.81	1812.45
863.97	1683.43
864.14	1777.64
864.31	1654.76
864.48	1798.12
864.65	1736.68
864.81	1689.57
864.98	1716.20
865.15	1781.73
865.32	1695.72
865.48	1824.74
865.65	1824.74
865.82	1701.86
865.98	1722.34
866.15	1775.59
866.32	1662.95
866.49	1683.43
866.65	1847.27
866.82	1679.33
866.99	1716.20
867.16	1632.23
867.32	1671.14
867.49	1671.14
867.66	1718.25
867.83	1724.39
867.99	1603.56
868.16	1714.15
868.33	1611.75
868.49	1746.92
868.66	1585.13
868.83	1822.69
868.99	1677.29
869.16	1710.05
869.33	1820.64
869.50	1767.40
869.66	1636.33
869.83	1648.61
870.00	1644.52
870.16	1781.73
870.33	1640.42
870.50	1849.32
870.66	1701.86
870.83	1779.68
871.00	1691.62
871.17	1701.86
871.33	1667.05
871.50	1648.61
871.67	1673.19
871.83	1662.95
872.00	1865.70
872.17	1685.48
872.33	1726.44
872.50	1755.11
872.67	1642.47
872.83	1619.94
873.00	1734.63
873.17	1644.52
873.33	1748.97
873.50	1720.29
873.67	1636.33
873.83	1642.47
874.00	1705.96
874.16	1789.92
874.33	1755.11
874.50	1617.90
874.66	1726.44
874.83	1689.57
875.00	1712.10
875.16	1748.97
875.33	1734.63
875.50	1665.00
875.66	1619.94
875.83	1701.86
875.99	1732.58
876.16	1669.09
876.33	1662.95
876.49	1697.77
876.66	1730.53
876.83	1638.38
876.99	1683.43
877.16	1701.86
877.32	1675.24
877.49	1660.90
877.66	1728.49
877.82	1769.44
877.99	1703.91
878.15	1732.58
878.32	1687.53
878.49	1685.48
878.65	1701.86
878.82	1771.49
878.98	1656.81
879.15	1738.73
879.32	1697.77
879.48	1714.15
879.65	1767.40
879.81	1652.71
879.98	1685.48
880.15	1746.92
880.31	1789.92
880.48	1753.06
880.64	1771.49
880.81	1724.39
880.97	1796.07
881.14	1687.53
881.31	1710.05
881.47	1894.37
881.64	1689.57
881.80	1648.61
881.97	1763.30
882.13	1789.92
882.30	1615.85
882.47	1611.75
882.63	1613.80
882.80	1662.95
882.96	1640.42
883.13	1796.07
883.29	1677.29
883.46	1738.73
883.62	1779.68
883.79	1701.86
883.95	1761.25
884.12	1734.63
884.29	1738.73
884.45	1693.67
884.62	1767.40
884.78	1634.28
884.95	1746.92
885.11	1726.44
885.28	1671.14
885.44	1681.38
885.61	1816.55
885.77	1818.60
885.94	1767.40
886.10	1642.47
886.27	1722.34
886.43	1767.40
886.60	1730.53
886.76	1718.25
886.93	1617.90
887.09	1689.57
887.26	1630.18
887.42	1734.63
887.59	1734.63
887.75	1830.88
887.92	1771.49
888.08	1722.34
888.25	1841.12
888.41	1742.82
888.58	1671.14
888.74	1689.57
888.91	1687.53
>>>>>End Processed Spectral Data<<<<<
