SpectraSuite Data File
++++++++++++++++++++++++++++++++++++
Date: Mon Jun 06 15:19:57 CEST 2016
User: root
Dark Spectrum Present: No
Reference Spectrum Present: No
Number of Sampled Component Spectra: 1
Spectrometers: USB4C02835
Integration Time (usec): 100000 (USB4C02835)
Spectra Averaged: 1 (USB4C02835)
Boxcar Smoothing: 0 (USB4C02835)
Correct for Electrical Dark: No (USB4C02835)
Strobe/Lamp Enabled: No (USB4C02835)
Correct for Detector Non-linearity: No (USB4C02835)
Correct for Stray Light: No (USB4C02835)
Number of Pixels in Processed Spectrum: 3648
>>>>>Begin Processed Spectral Data<<<<<
177.47	1484.78
177.69	1484.78
177.91	1484.78
178.13	1585.13
178.36	1468.39
178.58	1654.76
178.80	1740.77
179.02	1683.43
179.24	1689.57
179.46	1732.58
179.68	1773.54
179.90	1767.40
180.13	1744.87
180.35	1648.61
180.57	1798.12
180.79	1681.38
181.01	1691.62
181.23	1841.12
181.45	1755.11
181.67	1753.06
181.90	1834.98
182.12	1658.85
182.34	1558.50
182.56	1785.83
182.78	1665.00
183.00	1705.96
183.22	1718.25
183.44	1636.33
183.66	1920.99
183.89	1830.88
184.11	1673.19
184.33	1800.16
184.55	1769.44
184.77	1693.67
184.99	1705.96
185.21	1695.72
185.43	1818.60
185.65	1652.71
185.87	1748.97
186.10	1845.22
186.32	1800.16
186.54	1757.16
186.76	1761.25
186.98	1791.97
187.20	1712.10
187.42	1669.09
187.64	1675.24
187.86	1771.49
188.08	1738.73
188.30	1751.01
188.52	1632.23
188.75	1783.78
188.97	1837.03
189.19	1636.33
189.41	1624.04
189.63	1748.97
189.85	1654.76
190.07	1607.66
190.29	1642.47
190.51	1736.68
190.73	1654.76
190.95	1783.78
191.17	1687.53
191.39	1695.72
191.61	1660.90
191.84	1597.42
192.06	1699.81
192.28	1652.71
192.50	1920.99
192.72	1724.39
192.94	1689.57
193.16	1796.07
193.38	1710.05
193.60	1617.90
193.82	1673.19
194.04	1679.33
194.26	1642.47
194.48	1705.96
194.70	1648.61
194.92	1777.64
195.14	1732.58
195.36	1605.61
195.58	1662.95
195.80	1734.63
196.02	1644.52
196.24	1791.97
196.46	1730.53
196.69	1669.09
196.91	1904.61
197.13	1648.61
197.35	1718.25
197.57	1802.21
197.79	1724.39
198.01	1767.40
198.23	1781.73
198.45	1802.21
198.67	1669.09
198.89	1679.33
199.11	1738.73
199.33	1626.09
199.55	1558.50
199.77	1693.67
199.99	1767.40
200.21	1718.25
200.43	1753.06
200.65	1708.01
200.87	1621.99
201.09	1710.05
201.31	1705.96
201.53	1787.88
201.75	1783.78
201.97	1710.05
202.19	1761.25
202.41	1691.62
202.63	1830.88
202.85	1722.34
203.07	1710.05
203.29	1710.05
203.51	1669.09
203.73	1656.81
203.95	1902.56
204.17	1689.57
204.39	1787.88
204.61	1720.29
204.83	1689.57
205.05	1759.21
205.27	1828.84
205.49	1861.60
205.71	1632.23
205.93	1621.99
206.15	1701.86
206.37	1765.35
206.59	1724.39
206.81	1609.70
207.03	1658.85
207.25	1703.91
207.47	1708.01
207.69	1773.54
207.91	1716.20
208.13	1783.78
208.34	1691.62
208.56	1708.01
208.78	1734.63
209.00	1638.38
209.22	1675.24
209.44	1742.82
209.66	1691.62
209.88	1693.67
210.10	1728.49
210.32	1708.01
210.54	1763.30
210.76	1673.19
210.98	1673.19
211.20	1576.94
211.42	1685.48
211.64	1791.97
211.86	1689.57
212.08	1697.77
212.30	1777.64
212.52	1714.15
212.74	1800.16
212.96	1734.63
213.17	1806.31
213.39	1734.63
213.61	1796.07
213.83	1691.62
214.05	1675.24
214.27	1763.30
214.49	1583.08
214.71	1642.47
214.93	1814.50
215.15	1632.23
215.37	1751.01
215.59	1642.47
215.81	1697.77
216.03	1763.30
216.24	1734.63
216.46	1714.15
216.68	1714.15
216.90	1773.54
217.12	1705.96
217.34	1669.09
217.56	1798.12
217.78	1798.12
218.00	1787.88
218.22	1761.25
218.44	1665.00
218.66	1667.05
218.87	1845.22
219.09	1628.14
219.31	1769.44
219.53	1710.05
219.75	1689.57
219.97	1665.00
220.19	1722.34
220.41	1746.92
220.63	1779.68
220.85	1671.14
221.06	1626.09
221.28	1802.21
221.50	1732.58
221.72	1677.29
221.94	1656.81
222.16	1656.81
222.38	1736.68
222.60	1751.01
222.82	1662.95
223.03	1730.53
223.25	1640.42
223.47	1755.11
223.69	1808.36
223.91	1789.92
224.13	1638.38
224.35	1710.05
224.57	1705.96
224.78	1730.53
225.00	1722.34
225.22	1667.05
225.44	1738.73
225.66	1734.63
225.88	1644.52
226.10	1769.44
226.32	1697.77
226.53	1843.17
226.75	1708.01
226.97	1718.25
227.19	1716.20
227.41	1693.67
227.63	1619.94
227.85	1683.43
228.06	1714.15
228.28	1669.09
228.50	1730.53
228.72	1640.42
228.94	1660.90
229.16	1599.46
229.37	1603.56
229.59	1673.19
229.81	1701.86
230.03	1681.38
230.25	1662.95
230.47	1605.61
230.69	1632.23
230.90	1714.15
231.12	1683.43
231.34	1665.00
231.56	1753.06
231.78	1611.75
232.00	1677.29
232.21	1675.24
232.43	1665.00
232.65	1624.04
232.87	1712.10
233.09	1646.57
233.30	1669.09
233.52	1714.15
233.74	1748.97
233.96	1710.05
234.18	1671.14
234.40	1677.29
234.61	1861.60
234.83	1581.03
235.05	1613.80
235.27	1843.17
235.49	1783.78
235.70	1691.62
235.92	1863.65
236.14	1789.92
236.36	1869.80
236.58	1646.57
236.79	1798.12
237.01	1746.92
237.23	1681.38
237.45	1783.78
237.67	1699.81
237.88	1697.77
238.10	1812.45
238.32	1679.33
238.54	1775.59
238.76	1624.04
238.97	1675.24
239.19	1681.38
239.41	1732.58
239.63	1785.83
239.85	1695.72
240.06	1740.77
240.28	1673.19
240.50	1728.49
240.72	1689.57
240.93	1662.95
241.15	1763.30
241.37	1701.86
241.59	1865.70
241.81	1638.38
242.02	1640.42
242.24	1767.40
242.46	1748.97
242.68	1669.09
242.89	1722.34
243.11	1742.82
243.33	1687.53
243.55	1673.19
243.76	1693.67
243.98	1656.81
244.20	1761.25
244.42	1734.63
244.64	1708.01
244.85	1671.14
245.07	1667.05
245.29	1710.05
245.51	1804.26
245.72	1697.77
245.94	1824.74
246.16	1689.57
246.38	1816.55
246.59	1732.58
246.81	1656.81
247.03	1660.90
247.24	1572.84
247.46	1724.39
247.68	1722.34
247.90	1726.44
248.11	1779.68
248.33	1783.78
248.55	1720.29
248.77	1708.01
248.98	1757.16
249.20	1755.11
249.42	1755.11
249.64	1751.01
249.85	1808.36
250.07	1738.73
250.29	1708.01
250.50	1759.21
250.72	1576.94
250.94	1705.96
251.16	1869.80
251.37	1816.55
251.59	1748.97
251.81	1767.40
252.02	1738.73
252.24	1699.81
252.46	1779.68
252.68	1714.15
252.89	1677.29
253.11	1675.24
253.33	1751.01
253.54	1794.02
253.76	1726.44
253.98	1685.48
254.20	1640.42
254.41	1658.85
254.63	1732.58
254.85	1634.28
255.06	1722.34
255.28	1732.58
255.50	1742.82
255.71	1740.77
255.93	1685.48
256.15	1679.33
256.36	1730.53
256.58	1640.42
256.80	1728.49
257.02	1681.38
257.23	1677.29
257.45	1662.95
257.67	1785.83
257.88	1679.33
258.10	1673.19
258.32	1726.44
258.53	1675.24
258.75	1751.01
258.97	1691.62
259.18	1710.05
259.40	1720.29
259.62	1769.44
259.83	1787.88
260.05	1789.92
260.27	1994.72
260.48	1705.96
260.70	1644.52
260.92	1718.25
261.13	1763.30
261.35	1718.25
261.57	1773.54
261.78	1583.08
262.00	1624.04
262.22	1771.49
262.43	1687.53
262.65	1806.31
262.86	1771.49
263.08	1812.45
263.30	1736.68
263.51	1644.52
263.73	1650.66
263.95	1755.11
264.16	1722.34
264.38	1646.57
264.60	1718.25
264.81	1669.09
265.03	1687.53
265.25	1796.07
265.46	1763.30
265.68	1742.82
265.89	1732.58
266.11	1578.98
266.33	1765.35
266.54	1775.59
266.76	1734.63
266.98	1748.97
267.19	1763.30
267.41	1834.98
267.62	1722.34
267.84	1646.57
268.06	1701.86
268.27	1746.92
268.49	1759.21
268.70	1761.25
268.92	1783.78
269.14	1691.62
269.35	1646.57
269.57	1761.25
269.79	1716.20
270.00	1695.72
270.22	1814.50
270.43	1626.09
270.65	1611.75
270.87	1769.44
271.08	1771.49
271.30	1740.77
271.51	1720.29
271.73	1687.53
271.95	1738.73
272.16	1738.73
272.38	1771.49
272.59	1755.11
272.81	1730.53
273.02	1695.72
273.24	1710.05
273.46	1687.53
273.67	1650.66
273.89	1695.72
274.10	1712.10
274.32	1748.97
274.54	1683.43
274.75	1654.76
274.97	1607.66
275.18	1716.20
275.40	1804.26
275.61	1681.38
275.83	1755.11
276.05	1601.51
276.26	1722.34
276.48	1738.73
276.69	1683.43
276.91	1583.08
277.12	1785.83
277.34	1789.92
277.55	1691.62
277.77	1697.77
277.99	1693.67
278.20	1669.09
278.42	1644.52
278.63	1695.72
278.85	1689.57
279.06	1675.24
279.28	1703.91
279.49	1767.40
279.71	1775.59
279.93	1728.49
280.14	1671.14
280.36	1650.66
280.57	1744.87
280.79	1724.39
281.00	1679.33
281.22	1708.01
281.43	1808.36
281.65	1538.02
281.86	1601.51
282.08	1759.21
282.29	1845.22
282.51	1591.27
282.73	1685.48
282.94	1615.85
283.16	1751.01
283.37	1787.88
283.59	1767.40
283.80	1728.49
284.02	1714.15
284.23	1806.31
284.45	1677.29
284.66	1755.11
284.88	1640.42
285.09	1748.97
285.31	1775.59
285.52	1683.43
285.74	1677.29
285.95	1798.12
286.17	1701.86
286.38	1775.59
286.60	1697.77
286.81	1742.82
287.03	1697.77
287.24	1705.96
287.46	1644.52
287.67	1710.05
287.89	1769.44
288.10	1703.91
288.32	1701.86
288.53	1800.16
288.75	1736.68
288.96	1703.91
289.18	1685.48
289.39	1701.86
289.61	1701.86
289.82	1808.36
290.04	1746.92
290.25	1642.47
290.47	1779.68
290.68	1689.57
290.90	1824.74
291.11	1667.05
291.33	1804.26
291.54	1679.33
291.76	1757.16
291.97	1701.86
292.18	1746.92
292.40	1691.62
292.61	1583.08
292.83	1851.36
293.04	1761.25
293.26	1757.16
293.47	1728.49
293.69	1697.77
293.90	1630.18
294.12	1806.31
294.33	1699.81
294.55	1791.97
294.76	1759.21
294.97	1783.78
295.19	1865.70
295.40	1675.24
295.62	1791.97
295.83	1800.16
296.05	1685.48
296.26	1779.68
296.48	1665.00
296.69	1675.24
296.90	1734.63
297.12	1816.55
297.33	1785.83
297.55	1714.15
297.76	1740.77
297.98	1769.44
298.19	1701.86
298.41	1601.51
298.62	1710.05
298.83	1820.64
299.05	1718.25
299.26	1724.39
299.48	1656.81
299.69	1742.82
299.90	1748.97
300.12	1724.39
300.33	1751.01
300.55	1665.00
300.76	1748.97
300.98	1667.05
301.19	1742.82
301.40	1697.77
301.62	1658.85
301.83	1796.07
302.05	1697.77
302.26	1746.92
302.47	1822.69
302.69	1673.19
302.90	1687.53
303.12	1603.56
303.33	1767.40
303.54	1832.93
303.76	1728.49
303.97	1722.34
304.19	1834.98
304.40	1720.29
304.61	1771.49
304.83	1755.11
305.04	1775.59
305.26	1732.58
305.47	1644.52
305.68	1716.20
305.90	1599.46
306.11	1734.63
306.33	1695.72
306.54	1699.81
306.75	1646.57
306.97	1626.09
307.18	1646.57
307.39	1705.96
307.61	1728.49
307.82	1695.72
308.04	1751.01
308.25	1705.96
308.46	1798.12
308.68	1787.88
308.89	1705.96
309.10	1740.77
309.32	1705.96
309.53	1691.62
309.74	1738.73
309.96	1728.49
310.17	1714.15
310.39	1677.29
310.60	1730.53
310.81	1746.92
311.03	1611.75
311.24	1804.26
311.45	1708.01
311.67	1800.16
311.88	1667.05
312.09	1746.92
312.31	1705.96
312.52	1708.01
312.73	1796.07
312.95	1595.37
313.16	1667.05
313.37	1742.82
313.59	1730.53
313.80	1724.39
314.01	1771.49
314.23	1757.16
314.44	1636.33
314.65	1638.38
314.87	1640.42
315.08	1656.81
315.29	1671.14
315.51	1640.42
315.72	1626.09
315.93	1812.45
316.15	1800.16
316.36	1755.11
316.57	1738.73
316.79	1718.25
317.00	1783.78
317.21	1742.82
317.43	1697.77
317.64	1720.29
317.85	1685.48
318.07	1660.90
318.28	1701.86
318.49	1800.16
318.70	1855.46
318.92	1767.40
319.13	1843.17
319.34	1865.70
319.56	1789.92
319.77	1746.92
319.98	1775.59
320.20	1740.77
320.41	1730.53
320.62	1779.68
320.83	1710.05
321.05	1865.70
321.26	1677.29
321.47	1566.70
321.69	1781.73
321.90	1701.86
322.11	1734.63
322.32	1736.68
322.54	1716.20
322.75	1662.95
322.96	1773.54
323.18	1624.04
323.39	1605.61
323.60	1730.53
323.81	1820.64
324.03	1681.38
324.24	1695.72
324.45	1736.68
324.66	1699.81
324.88	1798.12
325.09	1849.32
325.30	1656.81
325.52	1703.91
325.73	1675.24
325.94	1667.05
326.15	1656.81
326.37	1687.53
326.58	1804.26
326.79	1796.07
327.00	1699.81
327.22	1720.29
327.43	1746.92
327.64	1693.67
327.85	1640.42
328.07	1650.66
328.28	1843.17
328.49	1701.86
328.70	1701.86
328.92	1673.19
329.13	1773.54
329.34	1703.91
329.55	1779.68
329.76	1845.22
329.98	1738.73
330.19	1763.30
330.40	1746.92
330.61	1652.71
330.83	1742.82
331.04	1681.38
331.25	1728.49
331.46	1665.00
331.68	1705.96
331.89	1734.63
332.10	1648.61
332.31	1642.47
332.52	1748.97
332.74	1820.64
332.95	1669.09
333.16	1726.44
333.37	1789.92
333.58	1748.97
333.80	1722.34
334.01	1654.76
334.22	1697.77
334.43	1656.81
334.64	1708.01
334.86	1564.65
335.07	1675.24
335.28	1828.84
335.49	1660.90
335.70	1712.10
335.92	1671.14
336.13	1853.41
336.34	1740.77
336.55	1689.57
336.76	1775.59
336.98	1595.37
337.19	1732.58
337.40	1740.77
337.61	1761.25
337.82	1683.43
338.04	1832.93
338.25	1589.22
338.46	1644.52
338.67	1781.73
338.88	1730.53
339.09	1632.23
339.31	1687.53
339.52	1718.25
339.73	1617.90
339.94	1626.09
340.15	1746.92
340.36	1656.81
340.58	1738.73
340.79	1662.95
341.00	1673.19
341.21	1662.95
341.42	1744.87
341.63	1669.09
341.85	1777.64
342.06	1701.86
342.27	1712.10
342.48	1703.91
342.69	1650.66
342.90	1714.15
343.12	1701.86
343.33	1615.85
343.54	1783.78
343.75	1738.73
343.96	1630.18
344.17	1675.24
344.38	1677.29
344.60	1695.72
344.81	1724.39
345.02	1773.54
345.23	1757.16
345.44	1837.03
345.65	1791.97
345.86	1697.77
346.07	1759.21
346.29	1712.10
346.50	1705.96
346.71	1740.77
346.92	1781.73
347.13	1884.13
347.34	1722.34
347.55	1705.96
347.76	1751.01
347.98	1628.14
348.19	1710.05
348.40	1773.54
348.61	1705.96
348.82	1783.78
349.03	1722.34
349.24	1677.29
349.45	1779.68
349.66	1611.75
349.88	1734.63
350.09	1697.77
350.30	1751.01
350.51	1806.31
350.72	1738.73
350.93	1703.91
351.14	1673.19
351.35	1726.44
351.56	1751.01
351.77	1759.21
351.99	1691.62
352.20	1863.65
352.41	1732.58
352.62	1558.50
352.83	1662.95
353.04	1716.20
353.25	1751.01
353.46	1724.39
353.67	1845.22
353.88	1624.04
354.09	1648.61
354.30	1654.76
354.52	1744.87
354.73	1673.19
354.94	1667.05
355.15	1742.82
355.36	1843.17
355.57	1697.77
355.78	1742.82
355.99	1662.95
356.20	1650.66
356.41	1738.73
356.62	1701.86
356.83	1667.05
357.04	1802.21
357.25	1652.71
357.46	1640.42
357.68	1566.70
357.89	1718.25
358.10	1656.81
358.31	1728.49
358.52	1716.20
358.73	1703.91
358.94	1710.05
359.15	1603.56
359.36	1708.01
359.57	1708.01
359.78	1705.96
359.99	1759.21
360.20	1601.51
360.41	1669.09
360.62	1775.59
360.83	1765.35
361.04	1744.87
361.25	1775.59
361.46	1740.77
361.67	1746.92
361.88	1740.77
362.09	1740.77
362.30	1726.44
362.51	1638.38
362.72	1677.29
362.93	1837.03
363.14	1738.73
363.35	1693.67
363.56	1658.85
363.78	1849.32
363.99	1798.12
364.20	1665.00
364.41	1769.44
364.62	1837.03
364.83	1748.97
365.04	1710.05
365.25	1751.01
365.46	1789.92
365.67	1681.38
365.88	1626.09
366.09	1751.01
366.30	1767.40
366.51	1710.05
366.72	1613.80
366.93	1753.06
367.14	1681.38
367.35	1773.54
367.56	1705.96
367.77	1796.07
367.98	1665.00
368.18	1697.77
368.39	1767.40
368.60	1708.01
368.81	1742.82
369.02	1708.01
369.23	1675.24
369.44	1636.33
369.65	1644.52
369.86	1714.15
370.07	1748.97
370.28	1714.15
370.49	1693.67
370.70	1724.39
370.91	1615.85
371.12	1640.42
371.33	1726.44
371.54	1746.92
371.75	1767.40
371.96	1624.04
372.17	1693.67
372.38	1701.86
372.59	1667.05
372.80	1699.81
373.01	1712.10
373.22	1714.15
373.43	1722.34
373.64	1673.19
373.85	1769.44
374.06	1767.40
374.26	1736.68
374.47	1798.12
374.68	1804.26
374.89	1755.11
375.10	1693.67
375.31	1771.49
375.52	1744.87
375.73	1660.90
375.94	1652.71
376.15	1777.64
376.36	1665.00
376.57	1636.33
376.78	1726.44
376.99	1693.67
377.20	1787.88
377.40	1718.25
377.61	1814.50
377.82	1683.43
378.03	1787.88
378.24	1794.02
378.45	1722.34
378.66	1820.64
378.87	1705.96
379.08	1660.90
379.29	1693.67
379.50	1697.77
379.71	1671.14
379.91	1806.31
380.12	1669.09
380.33	1703.91
380.54	1744.87
380.75	1697.77
380.96	1636.33
381.17	1849.32
381.38	1669.09
381.59	1781.73
381.80	1665.00
382.00	1853.41
382.21	1738.73
382.42	1880.04
382.63	1859.56
382.84	1789.92
383.05	1787.88
383.26	1779.68
383.47	1779.68
383.68	1765.35
383.88	1701.86
384.09	1720.29
384.30	1853.41
384.51	1705.96
384.72	1650.66
384.93	1626.09
385.14	1728.49
385.35	1759.21
385.55	1685.48
385.76	1767.40
385.97	1716.20
386.18	1718.25
386.39	1660.90
386.60	1681.38
386.81	1689.57
387.02	1630.18
387.22	1689.57
387.43	1763.30
387.64	1769.44
387.85	1865.70
388.06	2234.33
388.27	4089.79
388.48	6447.01
388.68	7870.34
388.89	9189.24
389.10	9566.06
389.31	8251.27
389.52	7380.88
389.73	6444.96
389.93	5846.95
390.14	5574.57
390.35	4990.90
390.56	4446.14
390.77	3792.84
390.98	2928.60
391.18	2412.51
391.39	2043.87
391.60	1798.12
391.81	1783.78
392.02	1697.77
392.23	1794.02
392.43	1705.96
392.64	1736.68
392.85	1695.72
393.06	1834.98
393.27	1714.15
393.47	1724.39
393.68	1769.44
393.89	1773.54
394.10	1808.36
394.31	1718.25
394.52	1683.43
394.72	1665.00
394.93	1800.16
395.14	1693.67
395.35	1724.39
395.56	1671.14
395.76	1742.82
395.97	1783.78
396.18	1828.84
396.39	1791.97
396.60	2072.54
396.80	1867.75
397.01	1861.60
397.22	1841.12
397.43	1837.03
397.64	1802.21
397.84	1753.06
398.05	1853.41
398.26	1648.61
398.47	1804.26
398.67	1738.73
398.88	1722.34
399.09	1753.06
399.30	1718.25
399.51	1759.21
399.71	1691.62
399.92	1703.91
400.13	1773.54
400.34	1669.09
400.54	1708.01
400.75	1884.13
400.96	1740.77
401.17	1820.64
401.37	1740.77
401.58	1732.58
401.79	1771.49
402.00	1855.46
402.21	2064.35
402.41	1947.62
402.62	1974.24
402.83	2019.30
403.04	1929.19
403.24	2103.26
403.45	1920.99
403.66	1912.80
403.87	1861.60
404.07	1861.60
404.28	1867.75
404.49	1902.56
404.70	1701.86
404.90	1796.07
405.11	1755.11
405.32	1771.49
405.52	1642.47
405.73	1636.33
405.94	1605.61
406.15	1703.91
406.35	1722.34
406.56	1695.72
406.77	1705.96
406.98	1728.49
407.18	1734.63
407.39	1787.88
407.60	1716.20
407.80	1751.01
408.01	1669.09
408.22	1734.63
408.43	1701.86
408.63	1765.35
408.84	1791.97
409.05	1824.74
409.25	1646.57
409.46	1701.86
409.67	1646.57
409.88	1669.09
410.08	1802.21
410.29	1642.47
410.50	1767.40
410.70	1712.10
410.91	1665.00
411.12	1658.85
411.32	1673.19
411.53	1685.48
411.74	1722.34
411.95	1791.97
412.15	1779.68
412.36	1810.40
412.57	1781.73
412.77	1847.27
412.98	1730.53
413.19	1697.77
413.39	1759.21
413.60	1697.77
413.81	1740.77
414.01	1693.67
414.22	1736.68
414.43	1742.82
414.63	1671.14
414.84	1865.70
415.05	1693.67
415.25	1665.00
415.46	1712.10
415.67	1740.77
415.87	1757.16
416.08	1695.72
416.29	1613.80
416.49	1708.01
416.70	1716.20
416.91	1675.24
417.11	1703.91
417.32	1701.86
417.53	1751.01
417.73	1748.97
417.94	1695.72
418.15	1730.53
418.35	1648.61
418.56	1697.77
418.77	1845.22
418.97	1642.47
419.18	1679.33
419.38	1636.33
419.59	1736.68
419.80	1837.03
420.00	1748.97
420.21	1765.35
420.42	1800.16
420.62	1697.77
420.83	1636.33
421.04	1712.10
421.24	1726.44
421.45	1740.77
421.65	1763.30
421.86	1654.76
422.07	1769.44
422.27	1738.73
422.48	1652.71
422.69	1681.38
422.89	1697.77
423.10	1738.73
423.30	1748.97
423.51	1744.87
423.72	1732.58
423.92	1775.59
424.13	1724.39
424.33	1708.01
424.54	1736.68
424.75	1736.68
424.95	1849.32
425.16	1763.30
425.36	1722.34
425.57	1693.67
425.78	1697.77
425.98	1710.05
426.19	1654.76
426.39	1701.86
426.60	1769.44
426.81	1818.60
427.01	1812.45
427.22	1652.71
427.42	1648.61
427.63	1710.05
427.83	1722.34
428.04	1859.56
428.25	1802.21
428.45	1763.30
428.66	1748.97
428.86	1742.82
429.07	1683.43
429.28	1826.79
429.48	1658.85
429.69	1705.96
429.89	1720.29
430.10	1689.57
430.30	1730.53
430.51	1708.01
430.71	1738.73
430.92	1775.59
431.13	1675.24
431.33	1730.53
431.54	1710.05
431.74	1818.60
431.95	1755.11
432.15	1681.38
432.36	1761.25
432.56	1705.96
432.77	1802.21
432.98	1781.73
433.18	1720.29
433.39	1708.01
433.59	1689.57
433.80	1855.46
434.00	1714.15
434.21	1656.81
434.41	1638.38
434.62	1871.84
434.82	1654.76
435.03	1679.33
435.23	1787.88
435.44	1591.27
435.64	1665.00
435.85	1724.39
436.06	1691.62
436.26	1832.93
436.47	1710.05
436.67	1771.49
436.88	1705.96
437.08	1757.16
437.29	1822.69
437.49	1755.11
437.70	1689.57
437.90	1777.64
438.11	1933.28
438.31	1843.17
438.52	1853.41
438.72	1814.50
438.93	1906.66
439.13	1812.45
439.34	1791.97
439.54	1703.91
439.75	1794.02
439.95	1742.82
440.16	1738.73
440.36	1767.40
440.57	1802.21
440.77	1673.19
440.98	1757.16
441.18	1732.58
441.39	1736.68
441.59	1730.53
441.80	1841.12
442.00	1759.21
442.21	1791.97
442.41	1695.72
442.62	1746.92
442.82	1681.38
443.02	1693.67
443.23	1791.97
443.43	1626.09
443.64	1875.94
443.84	1705.96
444.05	1845.22
444.25	1791.97
444.46	1675.24
444.66	1763.30
444.87	1857.51
445.07	1624.04
445.28	1798.12
445.48	1769.44
445.69	1824.74
445.89	1830.88
446.09	1712.10
446.30	2068.45
446.50	2727.89
446.71	3559.37
446.91	4140.99
447.12	4683.70
447.32	4714.42
447.53	4145.09
447.73	3788.74
447.93	3565.51
448.14	3254.22
448.34	3233.74
448.55	2858.96
448.75	2834.39
448.96	2625.50
449.16	2400.22
449.36	2271.20
449.57	2054.11
449.77	1888.23
449.98	1798.12
450.18	1857.51
450.39	1853.41
450.59	1765.35
450.79	1771.49
451.00	1718.25
451.20	1742.82
451.41	1744.87
451.61	1722.34
451.81	1691.62
452.02	1734.63
452.22	1824.74
452.43	1748.97
452.63	1765.35
452.84	1746.92
453.04	1671.14
453.24	1673.19
453.45	1677.29
453.65	1806.31
453.86	1769.44
454.06	1787.88
454.26	1755.11
454.47	1753.06
454.67	1777.64
454.87	1785.83
455.08	1689.57
455.28	1861.60
455.49	1738.73
455.69	1753.06
455.89	1869.80
456.10	1816.55
456.30	1726.44
456.51	1769.44
456.71	1681.38
456.91	1755.11
457.12	1730.53
457.32	1740.77
457.52	1714.15
457.73	1722.34
457.93	1843.17
458.14	1728.49
458.34	1658.85
458.54	1732.58
458.75	1730.53
458.95	1800.16
459.15	1771.49
459.36	1861.60
459.56	1781.73
459.76	1857.51
459.97	1740.77
460.17	1806.31
460.37	1837.03
460.58	1781.73
460.78	1675.24
460.99	1748.97
461.19	1728.49
461.39	1683.43
461.60	1724.39
461.80	1837.03
462.00	1677.29
462.21	1763.30
462.41	1714.15
462.61	1695.72
462.82	1730.53
463.02	1798.12
463.22	1730.53
463.43	1800.16
463.63	1748.97
463.83	1818.60
464.04	1730.53
464.24	1714.15
464.44	1681.38
464.64	1736.68
464.85	1794.02
465.05	1777.64
465.25	1722.34
465.46	1736.68
465.66	1773.54
465.86	1738.73
466.07	1820.64
466.27	1759.21
466.47	1665.00
466.68	1671.14
466.88	1877.99
467.08	1767.40
467.29	1755.11
467.49	1783.78
467.69	1667.05
467.89	1738.73
468.10	1791.97
468.30	1740.77
468.50	1824.74
468.71	1753.06
468.91	1624.04
469.11	1798.12
469.31	1787.88
469.52	1669.09
469.72	1775.59
469.92	1892.32
470.13	1779.68
470.33	1761.25
470.53	1843.17
470.73	2109.41
470.94	2246.62
471.14	2371.55
471.34	2475.99
471.54	2379.74
471.75	2246.62
471.95	2093.02
472.15	2125.79
472.36	1966.05
472.56	2054.11
472.76	2107.36
472.96	2025.44
473.17	1929.19
473.37	1970.15
473.57	1796.07
473.77	1798.12
473.98	1847.27
474.18	1744.87
474.38	1834.98
474.58	1611.75
474.79	1785.83
474.99	1806.31
475.19	1648.61
475.39	1689.57
475.60	1726.44
475.80	1703.91
476.00	1738.73
476.20	1601.51
476.41	1746.92
476.61	1773.54
476.81	1800.16
477.01	1728.49
477.21	1882.08
477.42	1914.85
477.62	1687.53
477.82	1761.25
478.02	1755.11
478.23	1740.77
478.43	1638.38
478.63	1697.77
478.83	1710.05
479.03	1828.84
479.24	1816.55
479.44	1822.69
479.64	1646.57
479.84	1665.00
480.04	1681.38
480.25	1812.45
480.45	1695.72
480.65	1683.43
480.85	1800.16
481.06	1671.14
481.26	1794.02
481.46	1830.88
481.66	1783.78
481.86	1763.30
482.06	1759.21
482.27	1761.25
482.47	1697.77
482.67	1746.92
482.87	1648.61
483.07	1804.26
483.28	1628.14
483.48	1753.06
483.68	1796.07
483.88	1617.90
484.08	1630.18
484.29	1607.66
484.49	1660.90
484.69	1685.48
484.89	1794.02
485.09	1748.97
485.29	1777.64
485.50	1693.67
485.70	1654.76
485.90	1779.68
486.10	1759.21
486.30	1703.91
486.50	1802.21
486.71	1662.95
486.91	1794.02
487.11	1853.41
487.31	1677.29
487.51	1714.15
487.71	1716.20
487.91	1675.24
488.12	1660.90
488.32	1617.90
488.52	1691.62
488.72	1589.22
488.92	1755.11
489.12	1773.54
489.32	1869.80
489.53	1814.50
489.73	1605.61
489.93	1759.21
490.13	1685.48
490.33	1669.09
490.53	1767.40
490.73	1755.11
490.94	1638.38
491.14	1779.68
491.34	1837.03
491.54	2121.70
491.74	2521.05
491.94	2869.20
492.14	2969.55
492.34	2994.13
492.54	2717.65
492.75	2469.85
492.95	2375.64
493.15	2349.02
493.35	2312.16
493.55	2238.43
493.75	2023.39
493.95	2107.36
494.15	2064.35
494.35	1853.41
494.56	1902.56
494.76	1820.64
494.96	1834.98
495.16	1757.16
495.36	1742.82
495.56	1720.29
495.76	1693.67
495.96	1718.25
496.16	1703.91
496.36	1828.84
496.56	1734.63
496.77	1701.86
496.97	1675.24
497.17	1789.92
497.37	1581.03
497.57	1830.88
497.77	1746.92
497.97	1673.19
498.17	1769.44
498.37	1761.25
498.57	1761.25
498.77	1724.39
498.97	1769.44
499.17	1775.59
499.38	1724.39
499.58	1744.87
499.78	1755.11
499.98	1810.40
500.18	1777.64
500.38	1746.92
500.58	1880.04
500.78	2541.53
500.98	4380.61
501.18	5633.96
501.38	6406.05
501.58	6827.93
501.78	6506.40
501.98	5412.78
502.18	4872.12
502.38	4272.06
502.58	3936.20
502.78	3715.02
502.98	3504.07
503.18	3428.30
503.38	3110.86
503.59	2736.09
503.79	2611.16
503.99	2486.23
504.19	2213.85
504.39	2269.15
504.59	2119.65
504.79	2131.94
504.99	2025.44
505.19	1877.99
505.39	1880.04
505.59	1990.63
505.79	1863.65
505.99	1796.07
506.19	1863.65
506.39	1773.54
506.59	1720.29
506.79	1802.21
506.99	1869.80
507.19	1738.73
507.39	1667.05
507.59	1712.10
507.79	1712.10
507.99	1699.81
508.19	1716.20
508.39	1728.49
508.59	1757.16
508.79	1839.08
508.99	1834.98
509.19	1738.73
509.39	1810.40
509.59	1615.85
509.79	1677.29
509.99	1802.21
510.19	1765.35
510.39	1746.92
510.59	1730.53
510.79	1722.34
510.99	1728.49
511.19	1773.54
511.39	1796.07
511.59	1787.88
511.79	1759.21
511.99	1757.16
512.19	1783.78
512.38	1800.16
512.58	1677.29
512.78	1771.49
512.98	1767.40
513.18	1841.12
513.38	1601.51
513.58	1896.42
513.78	1748.97
513.98	1753.06
514.18	1771.49
514.38	1705.96
514.58	1802.21
514.78	1634.28
514.98	1697.77
515.18	1705.96
515.38	1683.43
515.58	1832.93
515.78	1722.34
515.98	1839.08
516.18	1767.40
516.38	1740.77
516.57	1683.43
516.77	1681.38
516.97	1791.97
517.17	1687.53
517.37	1699.81
517.57	1742.82
517.77	1765.35
517.97	1681.38
518.17	1808.36
518.37	1675.24
518.57	1714.15
518.77	1673.19
518.97	1800.16
519.16	1820.64
519.36	1820.64
519.56	1757.16
519.76	1732.58
519.96	1697.77
520.16	1761.25
520.36	1722.34
520.56	1763.30
520.76	1779.68
520.96	1705.96
521.16	1777.64
521.35	1755.11
521.55	1873.89
521.75	1687.53
521.95	1699.81
522.15	1728.49
522.35	1716.20
522.55	1757.16
522.75	1765.35
522.95	1689.57
523.14	1587.18
523.34	1671.14
523.54	1683.43
523.74	1771.49
523.94	1746.92
524.14	1611.75
524.34	1759.21
524.54	1861.60
524.73	1767.40
524.93	1800.16
525.13	1812.45
525.33	1685.48
525.53	1880.04
525.73	1732.58
525.93	1765.35
526.13	1703.91
526.32	1708.01
526.52	1773.54
526.72	1769.44
526.92	1773.54
527.12	1755.11
527.32	1632.23
527.52	1716.20
527.71	1845.22
527.91	1785.83
528.11	1677.29
528.31	1726.44
528.51	1679.33
528.71	1732.58
528.90	1824.74
529.10	1839.08
529.30	1851.36
529.50	1595.37
529.70	1724.39
529.90	1746.92
530.09	1720.29
530.29	1665.00
530.49	1642.47
530.69	1898.47
530.89	1769.44
531.09	1767.40
531.28	1644.52
531.48	1810.40
531.68	1712.10
531.88	1722.34
532.08	1785.83
532.28	1740.77
532.47	1787.88
532.67	1804.26
532.87	1748.97
533.07	1724.39
533.27	1767.40
533.46	1734.63
533.66	1814.50
533.86	1798.12
534.06	1771.49
534.26	1787.88
534.45	1710.05
534.65	1808.36
534.85	1771.49
535.05	1746.92
535.25	1787.88
535.44	1648.61
535.64	1814.50
535.84	1734.63
536.04	1779.68
536.24	1665.00
536.43	1708.01
536.63	1794.02
536.83	1732.58
537.03	1726.44
537.22	1673.19
537.42	1679.33
537.62	1701.86
537.82	1652.71
538.02	1851.36
538.21	1767.40
538.41	1927.14
538.61	1804.26
538.81	1658.85
539.00	1841.12
539.20	1628.14
539.40	1685.48
539.60	1769.44
539.79	1822.69
539.99	1763.30
540.19	1683.43
540.39	1777.64
540.58	1738.73
540.78	1812.45
540.98	1742.82
541.18	1851.36
541.37	1755.11
541.57	1689.57
541.77	1789.92
541.97	1695.72
542.16	1697.77
542.36	1734.63
542.56	1701.86
542.76	1810.40
542.95	1771.49
543.15	1726.44
543.35	1800.16
543.54	1751.01
543.74	1648.61
543.94	1824.74
544.14	1665.00
544.33	1763.30
544.53	1767.40
544.73	1730.53
544.93	1718.25
545.12	1673.19
545.32	1710.05
545.52	1716.20
545.71	1695.72
545.91	1695.72
546.11	1665.00
546.30	1665.00
546.50	1726.44
546.70	1810.40
546.90	1785.83
547.09	1576.94
547.29	1730.53
547.49	1853.41
547.68	1736.68
547.88	1681.38
548.08	1841.12
548.27	2160.61
548.47	1691.62
548.67	1703.91
548.87	1695.72
549.06	1746.92
549.26	1806.31
549.46	1746.92
549.65	1726.44
549.85	1757.16
550.05	1730.53
550.24	1642.47
550.44	1740.77
550.64	1722.34
550.83	1794.02
551.03	1814.50
551.23	1863.65
551.42	1808.36
551.62	1732.58
551.82	1755.11
552.01	1730.53
552.21	1843.17
552.41	1736.68
552.60	1804.26
552.80	1822.69
553.00	1746.92
553.19	1744.87
553.39	1798.12
553.59	1662.95
553.78	1734.63
553.98	1789.92
554.17	1738.73
554.37	1759.21
554.57	1783.78
554.76	1693.67
554.96	1621.99
555.16	1798.12
555.35	1757.16
555.55	1818.60
555.75	1789.92
555.94	1839.08
556.14	1755.11
556.33	1738.73
556.53	1724.39
556.73	1726.44
556.92	1777.64
557.12	1855.46
557.32	1824.74
557.51	1820.64
557.71	1804.26
557.90	1912.80
558.10	1763.30
558.30	1742.82
558.49	1783.78
558.69	1818.60
558.88	1816.55
559.08	1800.16
559.28	1755.11
559.47	1746.92
559.67	1773.54
559.86	1867.75
560.06	1775.59
560.26	1751.01
560.45	1787.88
560.65	1783.78
560.84	1781.73
561.04	1808.36
561.24	1794.02
561.43	1794.02
561.63	1910.75
561.82	1691.62
562.02	1773.54
562.22	1673.19
562.41	1718.25
562.61	1744.87
562.80	1685.48
563.00	1882.08
563.19	1720.29
563.39	1808.36
563.59	1769.44
563.78	1693.67
563.98	1634.28
564.17	1697.77
564.37	1654.76
564.56	1644.52
564.76	1640.42
564.96	1814.50
565.15	1812.45
565.35	1837.03
565.54	1669.09
565.74	1828.84
565.93	1804.26
566.13	1777.64
566.32	1730.53
566.52	1773.54
566.71	1787.88
566.91	1839.08
567.11	1765.35
567.30	1755.11
567.50	1783.78
567.69	1710.05
567.89	1769.44
568.08	1705.96
568.28	1794.02
568.47	1691.62
568.67	1724.39
568.86	1753.06
569.06	1791.97
569.25	1763.30
569.45	1724.39
569.64	1675.24
569.84	1744.87
570.04	1759.21
570.23	1773.54
570.43	1697.77
570.62	1789.92
570.82	1822.69
571.01	1726.44
571.21	1669.09
571.40	1630.18
571.60	1748.97
571.79	1892.32
571.99	1763.30
572.18	1693.67
572.38	1777.64
572.57	1710.05
572.77	1796.07
572.96	1877.99
573.16	1710.05
573.35	1697.77
573.55	1853.41
573.74	1853.41
573.94	1746.92
574.13	1703.91
574.33	1849.32
574.52	1884.13
574.71	1761.25
574.91	1785.83
575.10	1691.62
575.30	1652.71
575.49	1808.36
575.69	1642.47
575.88	1722.34
576.08	1669.09
576.27	1820.64
576.47	1773.54
576.66	1826.79
576.86	1832.93
577.05	1806.31
577.25	1794.02
577.44	1871.84
577.64	1779.68
577.83	1798.12
578.02	1644.52
578.22	1826.79
578.41	1884.13
578.61	1761.25
578.80	1658.85
579.00	1685.48
579.19	1785.83
579.39	1732.58
579.58	1753.06
579.77	1697.77
579.97	1894.37
580.16	1818.60
580.36	1757.16
580.55	1761.25
580.75	1734.63
580.94	1767.40
581.13	1894.37
581.33	1857.51
581.52	1738.73
581.72	1877.99
581.91	1826.79
582.11	1689.57
582.30	1744.87
582.49	1773.54
582.69	1818.60
582.88	1826.79
583.08	1787.88
583.27	1755.11
583.47	1816.55
583.66	1685.48
583.85	1748.97
584.05	1853.41
584.24	1802.21
584.44	1736.68
584.63	1841.12
584.82	1859.56
585.02	1820.64
585.21	1804.26
585.41	1740.77
585.60	1794.02
585.79	1912.80
585.99	1949.67
586.18	1865.70
586.37	2215.90
586.57	3262.41
586.76	9543.53
586.96	23633.56
587.15	32689.68
587.34	38649.27
587.54	40508.82
587.73	35331.56
587.93	25095.81
588.12	20657.86
588.31	17352.44
588.51	15884.05
588.70	14499.62
588.89	13358.90
589.09	12033.86
589.28	10510.18
589.47	9070.45
589.67	7628.68
589.86	6223.78
590.06	4716.47
590.25	3684.30
590.44	3102.67
590.64	2576.34
590.83	2252.77
591.02	2072.54
591.22	1912.80
591.41	1931.23
591.60	1804.26
591.80	1953.76
591.99	1837.03
592.18	1771.49
592.38	1816.55
592.57	1740.77
592.76	1748.97
592.96	1769.44
593.15	1736.68
593.34	1802.21
593.54	1730.53
593.73	1837.03
593.92	1812.45
594.12	1773.54
594.31	1804.26
594.50	1826.79
594.70	1839.08
594.89	1904.61
595.08	1708.01
595.28	1806.31
595.47	1931.23
595.66	1820.64
595.86	1640.42
596.05	1785.83
596.24	1648.61
596.43	1781.73
596.63	1791.97
596.82	1759.21
597.01	1796.07
597.21	1867.75
597.40	1759.21
597.59	1763.30
597.79	1685.48
597.98	1789.92
598.17	1804.26
598.36	1785.83
598.56	1804.26
598.75	1732.58
598.94	1726.44
599.14	1746.92
599.33	1744.87
599.52	1771.49
599.71	1734.63
599.91	1806.31
600.10	1714.15
600.29	1763.30
600.48	1728.49
600.68	1748.97
600.87	1714.15
601.06	1689.57
601.26	1740.77
601.45	1736.68
601.64	1716.20
601.83	1779.68
602.03	1777.64
602.22	1716.20
602.41	1779.68
602.60	1882.08
602.80	1824.74
602.99	1802.21
603.18	1705.96
603.37	1746.92
603.57	1767.40
603.76	1810.40
603.95	1882.08
604.14	1677.29
604.34	1812.45
604.53	1753.06
604.72	1744.87
604.91	1695.72
605.10	1771.49
605.30	1726.44
605.49	1884.13
605.68	1771.49
605.87	1742.82
606.07	1751.01
606.26	1773.54
606.45	1767.40
606.64	1775.59
606.84	1658.85
607.03	1669.09
607.22	1726.44
607.41	1751.01
607.60	1660.90
607.80	1751.01
607.99	1718.25
608.18	1726.44
608.37	1675.24
608.56	1648.61
608.76	1753.06
608.95	1816.55
609.14	1732.58
609.33	1779.68
609.52	1712.10
609.72	1759.21
609.91	1837.03
610.10	1804.26
610.29	1787.88
610.48	1794.02
610.68	1806.31
610.87	1732.58
611.06	1804.26
611.25	1787.88
611.44	1822.69
611.63	1773.54
611.83	1767.40
612.02	1640.42
612.21	1726.44
612.40	1736.68
612.59	1699.81
612.79	1744.87
612.98	1724.39
613.17	1800.16
613.36	1630.18
613.55	1802.21
613.74	1716.20
613.93	1796.07
614.13	1757.16
614.32	1740.77
614.51	1746.92
614.70	1783.78
614.89	1718.25
615.08	1738.73
615.28	2019.30
615.47	1607.66
615.66	1736.68
615.85	1753.06
616.04	1816.55
616.23	1763.30
616.42	1763.30
616.62	1667.05
616.81	1767.40
617.00	1738.73
617.19	1726.44
617.38	1751.01
617.57	1703.91
617.76	1779.68
617.95	1751.01
618.15	1734.63
618.34	1779.68
618.53	1697.77
618.72	1814.50
618.91	1830.88
619.10	1777.64
619.29	1755.11
619.48	1751.01
619.68	1734.63
619.87	1712.10
620.06	1726.44
620.25	1714.15
620.44	1705.96
620.63	1751.01
620.82	1732.58
621.01	1746.92
621.20	1808.36
621.39	1837.03
621.59	1665.00
621.78	1679.33
621.97	1726.44
622.16	1744.87
622.35	1693.67
622.54	1767.40
622.73	1800.16
622.92	1611.75
623.11	1796.07
623.30	1689.57
623.49	1740.77
623.68	1712.10
623.88	1834.98
624.07	1687.53
624.26	1796.07
624.45	1791.97
624.64	1591.27
624.83	1734.63
625.02	1697.77
625.21	1658.85
625.40	1740.77
625.59	1886.18
625.78	1783.78
625.97	1834.98
626.16	1796.07
626.35	1773.54
626.54	1781.73
626.74	1834.98
626.93	1757.16
627.12	1685.48
627.31	1757.16
627.50	1773.54
627.69	1775.59
627.88	1660.90
628.07	1748.97
628.26	1658.85
628.45	1746.92
628.64	1652.71
628.83	1691.62
629.02	1787.88
629.21	1755.11
629.40	1718.25
629.59	1638.38
629.78	1685.48
629.97	1755.11
630.16	1693.67
630.35	1681.38
630.54	1689.57
630.73	1640.42
630.92	1738.73
631.11	1714.15
631.30	1785.83
631.49	1714.15
631.68	1736.68
631.87	1757.16
632.06	1669.09
632.25	1828.84
632.44	1693.67
632.63	1791.97
632.82	1699.81
633.01	1660.90
633.20	1730.53
633.39	1689.57
633.58	1646.57
633.77	1816.55
633.96	1744.87
634.15	1734.63
634.34	1765.35
634.53	1708.01
634.72	1785.83
634.91	1599.46
635.10	1714.15
635.29	1722.34
635.48	1738.73
635.67	1634.28
635.86	1724.39
636.05	1812.45
636.24	1763.30
636.43	1734.63
636.62	1761.25
636.81	1538.02
637.00	1697.77
637.19	1812.45
637.38	1765.35
637.57	1720.29
637.76	1718.25
637.95	1765.35
638.14	1710.05
638.33	1652.71
638.52	1701.86
638.71	1611.75
638.89	1656.81
639.08	1902.56
639.27	1787.88
639.46	1697.77
639.65	1816.55
639.84	1705.96
640.03	1757.16
640.22	1644.52
640.41	1855.46
640.60	1796.07
640.79	1769.44
640.98	1646.57
641.17	1746.92
641.36	1816.55
641.55	1728.49
641.74	1615.85
641.92	1718.25
642.11	1689.57
642.30	1689.57
642.49	1679.33
642.68	1726.44
642.87	1771.49
643.06	1757.16
643.25	1677.29
643.44	1726.44
643.63	1755.11
643.82	1791.97
644.00	1675.24
644.19	1722.34
644.38	1644.52
644.57	1755.11
644.76	1665.00
644.95	1681.38
645.14	1744.87
645.33	1771.49
645.52	1746.92
645.71	1646.57
645.89	1648.61
646.08	1697.77
646.27	1640.42
646.46	1871.84
646.65	1626.09
646.84	1771.49
647.03	1675.24
647.22	1800.16
647.40	1724.39
647.59	1710.05
647.78	1619.94
647.97	1757.16
648.16	1599.46
648.35	1771.49
648.54	1769.44
648.73	1730.53
648.91	1791.97
649.10	1726.44
649.29	1677.29
649.48	1667.05
649.67	1695.72
649.86	1740.77
650.05	1708.01
650.23	1816.55
650.42	1705.96
650.61	1791.97
650.80	1732.58
650.99	1882.08
651.18	1732.58
651.36	1781.73
651.55	1669.09
651.74	1787.88
651.93	1703.91
652.12	1761.25
652.31	1693.67
652.49	1679.33
652.68	1710.05
652.87	1796.07
653.06	1691.62
653.25	1822.69
653.44	1687.53
653.62	1742.82
653.81	1714.15
654.00	1710.05
654.19	1796.07
654.38	1908.71
654.56	1736.68
654.75	1689.57
654.94	1748.97
655.13	1767.40
655.32	1732.58
655.51	1753.06
655.69	1710.05
655.88	1732.58
656.07	1710.05
656.26	1847.27
656.45	1693.67
656.63	1726.44
656.82	1779.68
657.01	1798.12
657.20	1757.16
657.38	1746.92
657.57	1652.71
657.76	1630.18
657.95	1683.43
658.14	1693.67
658.32	1748.97
658.51	1652.71
658.70	1785.83
658.89	1675.24
659.08	1736.68
659.26	1806.31
659.45	1689.57
659.64	1824.74
659.83	1630.18
660.01	1865.70
660.20	1767.40
660.39	1808.36
660.58	1603.56
660.76	1748.97
660.95	1634.28
661.14	1757.16
661.33	1685.48
661.51	1658.85
661.70	1689.57
661.89	1765.35
662.08	1726.44
662.26	1656.81
662.45	1677.29
662.64	1837.03
662.83	1732.58
663.01	1665.00
663.20	1742.82
663.39	1769.44
663.58	1718.25
663.76	1720.29
663.95	1845.22
664.14	1726.44
664.32	1769.44
664.51	1746.92
664.70	1681.38
664.89	1761.25
665.07	1689.57
665.26	1804.26
665.45	1714.15
665.64	1720.29
665.82	1722.34
666.01	1779.68
666.20	1744.87
666.38	1802.21
666.57	1828.84
666.76	2275.29
666.95	4558.78
667.13	10102.63
667.32	14745.38
667.51	16985.85
667.69	18288.36
667.88	16912.13
668.07	11880.27
668.25	8791.93
668.44	7722.89
668.63	7067.54
668.81	6528.92
669.00	5965.73
669.19	5621.67
669.38	4962.23
669.56	4409.28
669.75	3813.32
669.94	3286.99
670.12	2822.10
670.31	2457.56
670.50	2258.91
670.68	2037.73
670.87	1933.28
671.06	1832.93
671.24	1816.55
671.43	1785.83
671.62	1755.11
671.80	1703.91
671.99	1804.26
672.18	1814.50
672.36	1763.30
672.55	1677.29
672.74	1701.86
672.92	1703.91
673.11	1712.10
673.29	1675.24
673.48	1771.49
673.67	1695.72
673.85	1779.68
674.04	1654.76
674.23	1740.77
674.41	1800.16
674.60	1646.57
674.79	1628.14
674.97	1576.94
675.16	1740.77
675.34	1763.30
675.53	1675.24
675.72	1650.66
675.90	1742.82
676.09	1722.34
676.28	1781.73
676.46	1701.86
676.65	1806.31
676.83	1669.09
677.02	1763.30
677.21	1736.68
677.39	1783.78
677.58	1746.92
677.77	1644.52
677.95	1726.44
678.14	1689.57
678.32	1740.77
678.51	1703.91
678.70	1855.46
678.88	1671.14
679.07	1755.11
679.25	1724.39
679.44	1736.68
679.63	1648.61
679.81	1691.62
680.00	1740.77
680.18	1740.77
680.37	1789.92
680.55	1705.96
680.74	1601.51
680.93	1603.56
681.11	1757.16
681.30	1746.92
681.48	1708.01
681.67	1675.24
681.85	1638.38
682.04	1665.00
682.23	1796.07
682.41	1769.44
682.60	1673.19
682.78	1683.43
682.97	1669.09
683.15	1730.53
683.34	1767.40
683.53	1787.88
683.71	1642.47
683.90	1769.44
684.08	1834.98
684.27	1708.01
684.45	1796.07
684.64	1806.31
684.82	1673.19
685.01	1748.97
685.19	1650.66
685.38	1775.59
685.57	1679.33
685.75	1630.18
685.94	1689.57
686.12	1746.92
686.31	1734.63
686.49	1839.08
686.68	1572.84
686.86	1734.63
687.05	1734.63
687.23	1779.68
687.42	1607.66
687.60	1601.51
687.79	1662.95
687.97	1812.45
688.16	1781.73
688.34	1763.30
688.53	1621.99
688.71	1753.06
688.90	1787.88
689.08	1699.81
689.27	1693.67
689.45	1763.30
689.64	1775.59
689.82	1761.25
690.01	1773.54
690.19	1800.16
690.38	1650.66
690.56	1789.92
690.75	1665.00
690.93	1617.90
691.12	1685.48
691.30	1787.88
691.49	1716.20
691.67	1714.15
691.86	1843.17
692.04	1626.09
692.23	1669.09
692.41	1677.29
692.60	1839.08
692.78	1691.62
692.97	1720.29
693.15	1746.92
693.34	1822.69
693.52	1742.82
693.71	1738.73
693.89	1609.70
694.08	1609.70
694.26	1779.68
694.44	1742.82
694.63	1738.73
694.81	1648.61
695.00	1714.15
695.18	1716.20
695.37	1943.52
695.55	1744.87
695.74	1675.24
695.92	1722.34
696.10	1746.92
696.29	1603.56
696.47	1689.57
696.66	1578.98
696.84	1660.90
697.03	1714.15
697.21	1847.27
697.40	2365.40
697.58	1812.45
697.76	1681.38
697.95	1677.29
698.13	1681.38
698.32	1724.39
698.50	1744.87
698.68	1708.01
698.87	1732.58
699.05	1787.88
699.24	1669.09
699.42	1751.01
699.61	1732.58
699.79	1738.73
699.97	1748.97
700.16	1656.81
700.34	1585.13
700.53	1716.20
700.71	1865.70
700.89	1810.40
701.08	1716.20
701.26	1761.25
701.45	2115.55
701.63	1671.14
701.81	1708.01
702.00	1718.25
702.18	1759.21
702.37	1671.14
702.55	1771.49
702.73	1589.22
702.92	1675.24
703.10	1763.30
703.28	1806.31
703.47	1681.38
703.65	1800.16
703.84	1744.87
704.02	1740.77
704.20	1761.25
704.39	1681.38
704.57	1673.19
704.75	1820.64
704.94	1755.11
705.12	1728.49
705.30	1783.78
705.49	2228.19
705.67	4335.55
705.86	9148.28
706.04	12056.39
706.22	13825.84
706.41	14655.26
706.59	12945.21
706.77	9095.03
706.96	6981.53
707.14	6346.66
707.32	5769.13
707.51	5347.25
707.69	4796.34
707.87	3989.44
708.06	3477.45
708.24	2865.11
708.42	2449.37
708.61	2246.62
708.79	1953.76
708.97	1863.65
709.16	1814.50
709.34	1808.36
709.52	1720.29
709.71	1687.53
709.89	1769.44
710.07	1673.19
710.26	1740.77
710.44	1693.67
710.62	1800.16
710.80	1652.71
710.99	1730.53
711.17	1763.30
711.35	1724.39
711.54	1654.76
711.72	1761.25
711.90	1796.07
712.09	1718.25
712.27	1689.57
712.45	1753.06
712.63	1699.81
712.82	1665.00
713.00	1642.47
713.18	1695.72
713.37	1724.39
713.55	1753.06
713.73	1716.20
713.91	1791.97
714.10	1605.61
714.28	1673.19
714.46	1679.33
714.65	1708.01
714.83	1787.88
715.01	1789.92
715.19	1652.71
715.38	1705.96
715.56	1712.10
715.74	1607.66
715.92	1685.48
716.11	1755.11
716.29	1634.28
716.47	1726.44
716.65	1628.14
716.84	1587.18
717.02	1755.11
717.20	1615.85
717.38	1652.71
717.57	1753.06
717.75	1724.39
717.93	1613.80
718.11	1806.31
718.30	1636.33
718.48	1769.44
718.66	1777.64
718.84	1804.26
719.03	1718.25
719.21	1531.88
719.39	1828.84
719.57	1843.17
719.75	1716.20
719.94	1648.61
720.12	1697.77
720.30	1710.05
720.48	1828.84
720.67	1669.09
720.85	1652.71
721.03	1693.67
721.21	1669.09
721.39	1847.27
721.58	1759.21
721.76	1712.10
721.94	1816.55
722.12	1775.59
722.30	1800.16
722.49	1691.62
722.67	1763.30
722.85	1669.09
723.03	1675.24
723.21	1708.01
723.40	1736.68
723.58	1712.10
723.76	1728.49
723.94	1757.16
724.12	1710.05
724.30	1681.38
724.49	1810.40
724.67	1656.81
724.85	1767.40
725.03	1675.24
725.21	1701.86
725.40	1675.24
725.58	1683.43
725.76	1810.40
725.94	1742.82
726.12	1619.94
726.30	1746.92
726.49	1755.11
726.67	1748.97
726.85	1751.01
727.03	1751.01
727.21	2183.13
727.39	2887.64
727.57	3696.58
727.76	4091.84
727.94	4292.54
728.12	4181.95
728.30	3657.67
728.48	2985.94
728.66	2775.00
728.84	2553.82
729.03	2297.82
729.21	2138.08
729.39	2025.44
729.57	1769.44
729.75	1789.92
729.93	1824.74
730.11	1712.10
730.30	1708.01
730.48	1734.63
730.66	1818.60
730.84	1738.73
731.02	1667.05
731.20	1724.39
731.38	1699.81
731.56	1626.09
731.74	1701.86
731.93	1691.62
732.11	1722.34
732.29	1695.72
732.47	1636.33
732.65	1673.19
732.83	1716.20
733.01	1773.54
733.19	1701.86
733.37	1724.39
733.56	1732.58
733.74	1634.28
733.92	1718.25
734.10	1722.34
734.28	1755.11
734.46	1658.85
734.64	1658.85
734.82	1673.19
735.00	1617.90
735.18	1626.09
735.36	1757.16
735.54	1722.34
735.73	1691.62
735.91	1814.50
736.09	1789.92
736.27	1687.53
736.45	1798.12
736.63	1646.57
736.81	1611.75
736.99	1710.05
737.17	1908.71
737.35	1697.77
737.53	1675.24
737.71	1710.05
737.89	1722.34
738.07	1763.30
738.25	1660.90
738.43	1630.18
738.61	1708.01
738.80	1632.23
738.98	1660.90
739.16	1744.87
739.34	1658.85
739.52	1789.92
739.70	1679.33
739.88	1759.21
740.06	1759.21
740.24	1636.33
740.42	1689.57
740.60	1611.75
740.78	1662.95
740.96	1576.94
741.14	1744.87
741.32	1675.24
741.50	1626.09
741.68	1812.45
741.86	1791.97
742.04	1677.29
742.22	1660.90
742.40	1732.58
742.58	1691.62
742.76	1665.00
742.94	1802.21
743.12	1585.13
743.30	1738.73
743.48	1765.35
743.66	1677.29
743.84	1757.16
744.02	1658.85
744.20	1677.29
744.38	1683.43
744.56	1665.00
744.74	1820.64
744.92	1734.63
745.10	1818.60
745.28	1708.01
745.46	1783.78
745.64	1689.57
745.82	1794.02
746.00	1771.49
746.18	1740.77
746.36	1640.42
746.54	1681.38
746.72	1648.61
746.90	1632.23
747.08	1724.39
747.26	1683.43
747.44	1753.06
747.62	1730.53
747.80	1791.97
747.98	1718.25
748.15	1728.49
748.33	1781.73
748.51	1787.88
748.69	1712.10
748.87	1667.05
749.05	1665.00
749.23	1695.72
749.41	1755.11
749.59	1685.48
749.77	1769.44
749.95	1630.18
750.13	1708.01
750.31	1751.01
750.49	1673.19
750.67	1652.71
750.85	1761.25
751.03	1691.62
751.20	1832.93
751.38	1724.39
751.56	1652.71
751.74	1724.39
751.92	1712.10
752.10	1603.56
752.28	1771.49
752.46	1638.38
752.64	1828.84
752.82	1685.48
753.00	1830.88
753.18	1603.56
753.35	1697.77
753.53	1671.14
753.71	1714.15
753.89	1722.34
754.07	1689.57
754.25	1728.49
754.43	1714.15
754.61	1652.71
754.79	1789.92
754.97	1685.48
755.14	1783.78
755.32	1634.28
755.50	1812.45
755.68	1712.10
755.86	1648.61
756.04	1640.42
756.22	1648.61
756.40	1843.17
756.57	1847.27
756.75	1699.81
756.93	1787.88
757.11	1763.30
757.29	1673.19
757.47	1648.61
757.65	1726.44
757.82	1595.37
758.00	1603.56
758.18	1746.92
758.36	1650.66
758.54	1818.60
758.72	1701.86
758.90	1718.25
759.07	1673.19
759.25	1697.77
759.43	1755.11
759.61	1662.95
759.79	2195.42
759.97	1708.01
760.15	1667.05
760.32	1681.38
760.50	1673.19
760.68	1802.21
760.86	1634.28
761.04	1714.15
761.22	1722.34
761.39	1724.39
761.57	1748.97
761.75	1683.43
761.93	1705.96
762.11	1730.53
762.28	1714.15
762.46	1648.61
762.64	1785.83
762.82	1714.15
763.00	1628.14
763.18	1822.69
763.35	1695.72
763.53	1759.21
763.71	1699.81
763.89	1683.43
764.07	1755.11
764.24	1765.35
764.42	1755.11
764.60	1681.38
764.78	1648.61
764.96	1753.06
765.13	1816.55
765.31	1665.00
765.49	1693.67
765.67	1626.09
765.84	1648.61
766.02	1662.95
766.20	1683.43
766.38	1701.86
766.56	1722.34
766.73	1687.53
766.91	1687.53
767.09	1722.34
767.27	1671.14
767.44	1658.85
767.62	1730.53
767.80	1662.95
767.98	1669.09
768.15	1701.86
768.33	1705.96
768.51	1742.82
768.69	1720.29
768.87	1757.16
769.04	1710.05
769.22	1837.03
769.40	1771.49
769.58	1890.28
769.75	1730.53
769.93	1804.26
770.11	1667.05
770.28	1679.33
770.46	1722.34
770.64	1744.87
770.82	1732.58
770.99	1763.30
771.17	1759.21
771.35	1748.97
771.53	1714.15
771.70	1705.96
771.88	1681.38
772.06	1638.38
772.23	1701.86
772.41	1808.36
772.59	1669.09
772.77	1613.80
772.94	1755.11
773.12	1726.44
773.30	1695.72
773.47	1755.11
773.65	1677.29
773.83	1816.55
774.01	1652.71
774.18	1542.12
774.36	1767.40
774.54	1718.25
774.71	1808.36
774.89	1601.51
775.07	1624.04
775.24	1658.85
775.42	1730.53
775.60	1861.60
775.78	1671.14
775.95	1687.53
776.13	1611.75
776.31	1572.84
776.48	1697.77
776.66	1748.97
776.84	1701.86
777.01	1640.42
777.19	1695.72
777.37	1652.71
777.54	1730.53
777.72	1832.93
777.90	1712.10
778.07	1691.62
778.25	1871.84
778.43	1722.34
778.60	1701.86
778.78	1765.35
778.96	1777.64
779.13	1662.95
779.31	1826.79
779.49	1705.96
779.66	1748.97
779.84	1722.34
780.01	1679.33
780.19	1699.81
780.37	1773.54
780.54	1677.29
780.72	1703.91
780.90	1716.20
781.07	1679.33
781.25	1679.33
781.43	1769.44
781.60	1697.77
781.78	1726.44
781.95	1734.63
782.13	1648.61
782.31	1679.33
782.48	1621.99
782.66	1736.68
782.83	1927.14
783.01	1728.49
783.19	1779.68
783.36	1736.68
783.54	1665.00
783.72	1787.88
783.89	1722.34
784.07	1693.67
784.24	1761.25
784.42	1695.72
784.60	1675.24
784.77	1720.29
784.95	1667.05
785.12	1716.20
785.30	1652.71
785.47	1685.48
785.65	1669.09
785.83	1654.76
786.00	1687.53
786.18	1716.20
786.35	1624.04
786.53	1669.09
786.71	1796.07
786.88	1710.05
787.06	1759.21
787.23	1615.85
787.41	1654.76
787.58	1687.53
787.76	1703.91
787.94	1699.81
788.11	1740.77
788.29	1638.38
788.46	1601.51
788.64	1619.94
788.81	1669.09
788.99	1626.09
789.16	1648.61
789.34	1734.63
789.52	1669.09
789.69	1724.39
789.87	1564.65
790.04	1677.29
790.22	1687.53
790.39	1861.60
790.57	1693.67
790.74	1626.09
790.92	1785.83
791.09	1665.00
791.27	1650.66
791.44	1777.64
791.62	1568.74
791.79	1650.66
791.97	1679.33
792.15	1931.23
792.32	1818.60
792.50	1767.40
792.67	1773.54
792.85	1705.96
793.02	1757.16
793.20	1667.05
793.37	1642.47
793.55	1753.06
793.72	1667.05
793.90	1781.73
794.07	1662.95
794.25	1624.04
794.42	1724.39
794.60	1681.38
794.77	1597.42
794.95	1738.73
795.12	1753.06
795.30	1679.33
795.47	1634.28
795.65	1828.84
795.82	1755.11
796.00	1681.38
796.17	1701.86
796.34	1714.15
796.52	1724.39
796.69	1726.44
796.87	1796.07
797.04	1769.44
797.22	1738.73
797.39	1734.63
797.57	1791.97
797.74	1705.96
797.92	1642.47
798.09	1662.95
798.27	1726.44
798.44	1753.06
798.62	1656.81
798.79	1789.92
798.96	1665.00
799.14	1617.90
799.31	1855.46
799.49	1644.52
799.66	1667.05
799.84	1728.49
800.01	1650.66
800.19	1720.29
800.36	1656.81
800.53	1693.67
800.71	1716.20
800.88	1810.40
801.06	1691.62
801.23	1691.62
801.41	1714.15
801.58	1566.70
801.75	1652.71
801.93	1677.29
802.10	1736.68
802.28	1673.19
802.45	1685.48
802.63	1755.11
802.80	1828.84
802.97	1714.15
803.15	1662.95
803.32	1685.48
803.50	1669.09
803.67	1687.53
803.84	1617.90
804.02	1705.96
804.19	1716.20
804.37	1576.94
804.54	1591.27
804.71	1681.38
804.89	1699.81
805.06	1691.62
805.24	1728.49
805.41	1665.00
805.58	1648.61
805.76	1859.56
805.93	1714.15
806.10	1771.49
806.28	1775.59
806.45	1658.85
806.63	1734.63
806.80	1820.64
806.97	1791.97
807.15	1695.72
807.32	1806.31
807.49	1738.73
807.67	1646.57
807.84	1726.44
808.01	1662.95
808.19	1814.50
808.36	1822.69
808.54	1712.10
808.71	1685.48
808.88	1615.85
809.06	1765.35
809.23	1759.21
809.40	1619.94
809.58	1765.35
809.75	1677.29
809.92	1710.05
810.10	1837.03
810.27	1703.91
810.44	1718.25
810.62	1755.11
810.79	1671.14
810.96	1705.96
811.14	1632.23
811.31	1800.16
811.48	1755.11
811.66	1765.35
811.83	1705.96
812.00	1669.09
812.18	1757.16
812.35	1718.25
812.52	1697.77
812.69	1658.85
812.87	1660.90
813.04	1626.09
813.21	1712.10
813.39	1650.66
813.56	1652.71
813.73	1765.35
813.91	1613.80
814.08	1650.66
814.25	1685.48
814.42	1624.04
814.60	1699.81
814.77	1708.01
814.94	1716.20
815.12	1697.77
815.29	1748.97
815.46	1691.62
815.63	1718.25
815.81	1699.81
815.98	1726.44
816.15	1624.04
816.33	1775.59
816.50	1685.48
816.67	1695.72
816.84	1697.77
817.02	1570.79
817.19	1701.86
817.36	1759.21
817.53	1740.77
817.71	1705.96
817.88	1794.02
818.05	1751.01
818.22	1777.64
818.40	1783.78
818.57	1621.99
818.74	1734.63
818.91	1718.25
819.09	1767.40
819.26	1794.02
819.43	1712.10
819.60	1540.07
819.78	1732.58
819.95	1796.07
820.12	1615.85
820.29	1806.31
820.47	1802.21
820.64	1626.09
820.81	1712.10
820.98	1716.20
821.15	1697.77
821.33	1732.58
821.50	1695.72
821.67	1732.58
821.84	1736.68
822.02	1761.25
822.19	1736.68
822.36	1746.92
822.53	1687.53
822.70	1628.14
822.88	1671.14
823.05	1816.55
823.22	1714.15
823.39	1714.15
823.56	1734.63
823.74	1886.18
823.91	1708.01
824.08	1679.33
824.25	1669.09
824.42	1812.45
824.60	1550.31
824.77	1730.53
824.94	1654.76
825.11	1734.63
825.28	1675.24
825.45	1761.25
825.63	1675.24
825.80	1732.58
825.97	1732.58
826.14	1607.66
826.31	1652.71
826.48	1773.54
826.66	1669.09
826.83	1710.05
827.00	1716.20
827.17	1605.61
827.34	1619.94
827.51	1697.77
827.69	1718.25
827.86	1628.14
828.03	1691.62
828.20	1781.73
828.37	1648.61
828.54	1806.31
828.71	1667.05
828.89	1787.88
829.06	1691.62
829.23	1796.07
829.40	1634.28
829.57	1714.15
829.74	1703.91
829.91	1646.57
830.09	1673.19
830.26	1738.73
830.43	1828.84
830.60	1683.43
830.77	1681.38
830.94	1787.88
831.11	1683.43
831.28	1646.57
831.46	1710.05
831.63	1695.72
831.80	1742.82
831.97	1652.71
832.14	1685.48
832.31	1730.53
832.48	1710.05
832.65	1755.11
832.82	1734.63
832.99	1675.24
833.17	1650.66
833.34	1740.77
833.51	1798.12
833.68	1699.81
833.85	1767.40
834.02	1691.62
834.19	1681.38
834.36	1718.25
834.53	1677.29
834.70	1798.12
834.87	1714.15
835.04	1685.48
835.22	1691.62
835.39	1673.19
835.56	1654.76
835.73	1689.57
835.90	1771.49
836.07	1572.84
836.24	1701.86
836.41	1673.19
836.58	1615.85
836.75	1689.57
836.92	1755.11
837.09	1671.14
837.26	1810.40
837.43	1652.71
837.60	1767.40
837.77	1685.48
837.94	1746.92
838.12	1798.12
838.29	1665.00
838.46	1595.37
838.63	1632.23
838.80	1798.12
838.97	1728.49
839.14	1718.25
839.31	1763.30
839.48	1732.58
839.65	1736.68
839.82	1798.12
839.99	1726.44
840.16	1738.73
840.33	1624.04
840.50	1734.63
840.67	1697.77
840.84	1564.65
841.01	1652.71
841.18	1718.25
841.35	1697.77
841.52	1738.73
841.69	1802.21
841.86	1724.39
842.03	1687.53
842.20	1796.07
842.37	1683.43
842.54	1679.33
842.71	1779.68
842.88	1611.75
843.05	1697.77
843.22	1617.90
843.39	1757.16
843.56	1638.38
843.73	1718.25
843.90	1753.06
844.07	1683.43
844.24	1693.67
844.41	1687.53
844.58	1726.44
844.75	1697.77
844.92	1765.35
845.09	1644.52
845.26	1621.99
845.43	1689.57
845.60	1699.81
845.77	1791.97
845.94	1738.73
846.10	1765.35
846.27	1683.43
846.44	1652.71
846.61	1683.43
846.78	1806.31
846.95	1716.20
847.12	1650.66
847.29	1703.91
847.46	1667.05
847.63	1775.59
847.80	1718.25
847.97	1730.53
848.14	1828.84
848.31	1736.68
848.48	1601.51
848.65	1669.09
848.82	1673.19
848.98	1871.84
849.15	1775.59
849.32	1763.30
849.49	1781.73
849.66	1697.77
849.83	1748.97
850.00	1605.61
850.17	1714.15
850.34	1665.00
850.51	1677.29
850.68	1753.06
850.85	1820.64
851.01	1734.63
851.18	1703.91
851.35	1730.53
851.52	1714.15
851.69	1755.11
851.86	1595.37
852.03	1683.43
852.20	1783.78
852.37	1722.34
852.53	1636.33
852.70	1722.34
852.87	1740.77
853.04	1746.92
853.21	1681.38
853.38	1757.16
853.55	1800.16
853.72	1710.05
853.89	1632.23
854.05	1632.23
854.22	1753.06
854.39	1677.29
854.56	1734.63
854.73	1751.01
854.90	1673.19
855.07	1699.81
855.23	1640.42
855.40	1665.00
855.57	1697.77
855.74	1652.71
855.91	1882.08
856.08	1671.14
856.25	1576.94
856.41	1671.14
856.58	1611.75
856.75	1699.81
856.92	1671.14
857.09	1748.97
857.26	1613.80
857.42	1630.18
857.59	1703.91
857.76	1634.28
857.93	1710.05
858.10	1630.18
858.27	1693.67
858.43	1761.25
858.60	1683.43
858.77	1640.42
858.94	1677.29
859.11	1720.29
859.27	1722.34
859.44	1714.15
859.61	1857.51
859.78	1742.82
859.95	1648.61
860.12	1701.86
860.28	1824.74
860.45	1933.28
860.62	1683.43
860.79	1736.68
860.95	1708.01
861.12	1738.73
861.29	1703.91
861.46	1683.43
861.63	1615.85
861.79	1636.33
861.96	1716.20
862.13	1667.05
862.30	1761.25
862.47	1699.81
862.63	1687.53
862.80	1744.87
862.97	1701.86
863.14	1701.86
863.30	1769.44
863.47	1693.67
863.64	1773.54
863.81	1746.92
863.97	1671.14
864.14	1732.58
864.31	1683.43
864.48	1753.06
864.65	1681.38
864.81	1763.30
864.98	1693.67
865.15	1779.68
865.32	1746.92
865.48	1798.12
865.65	1767.40
865.82	1665.00
865.98	1767.40
866.15	1767.40
866.32	1667.05
866.49	1648.61
866.65	1806.31
866.82	1640.42
866.99	1658.85
867.16	1665.00
867.32	1660.90
867.49	1599.46
867.66	1695.72
867.83	1681.38
867.99	1605.61
868.16	1675.24
868.33	1681.38
868.49	1710.05
868.66	1646.57
868.83	1773.54
868.99	1714.15
869.16	1779.68
869.33	1820.64
869.50	1763.30
869.66	1697.77
869.83	1689.57
870.00	1671.14
870.16	1779.68
870.33	1679.33
870.50	1767.40
870.66	1689.57
870.83	1869.80
871.00	1673.19
871.17	1724.39
871.33	1802.21
871.50	1673.19
871.67	1734.63
871.83	1611.75
872.00	1841.12
872.17	1665.00
872.33	1773.54
872.50	1765.35
872.67	1691.62
872.83	1732.58
873.00	1697.77
873.17	1724.39
873.33	1730.53
873.50	1724.39
873.67	1603.56
873.83	1665.00
874.00	1712.10
874.16	1681.38
874.33	1695.72
874.50	1662.95
874.66	1736.68
874.83	1761.25
875.00	1726.44
875.16	1693.67
875.33	1834.98
875.50	1617.90
875.66	1738.73
875.83	1699.81
875.99	1751.01
876.16	1775.59
876.33	1578.98
876.49	1697.77
876.66	1761.25
876.83	1722.34
876.99	1671.14
877.16	1740.77
877.32	1714.15
877.49	1742.82
877.66	1703.91
877.82	1794.02
877.99	1763.30
878.15	1775.59
878.32	1712.10
878.49	1738.73
878.65	1722.34
878.82	1724.39
878.98	1687.53
879.15	1748.97
879.32	1695.72
879.48	1662.95
879.65	1632.23
879.81	1654.76
879.98	1677.29
880.15	1695.72
880.31	1777.64
880.48	1691.62
880.64	1720.29
880.81	1734.63
880.97	1753.06
881.14	1763.30
881.31	1628.14
881.47	1771.49
881.64	1650.66
881.80	1630.18
881.97	1779.68
882.13	1771.49
882.30	1718.25
882.47	1685.48
882.63	1601.51
882.80	1658.85
882.96	1675.24
883.13	1714.15
883.29	1722.34
883.46	1703.91
883.62	1726.44
883.79	1693.67
883.95	1755.11
884.12	1705.96
884.29	1789.92
884.45	1648.61
884.62	1753.06
884.78	1632.23
884.95	1791.97
885.11	1601.51
885.28	1697.77
885.44	1681.38
885.61	1787.88
885.77	1785.83
885.94	1816.55
886.10	1615.85
886.27	1687.53
886.43	1806.31
886.60	1753.06
886.76	1671.14
886.93	1642.47
887.09	1730.53
887.26	1638.38
887.42	1724.39
887.59	1740.77
887.75	1837.03
887.92	1712.10
888.08	1839.08
888.25	1748.97
888.41	1705.96
888.58	1767.40
888.74	1675.24
888.91	1665.00
>>>>>End Processed Spectral Data<<<<<
