SpectraSuite Data File
++++++++++++++++++++++++++++++++++++
Date: Mon Jun 06 16:51:57 CEST 2016
User: root
Dark Spectrum Present: No
Reference Spectrum Present: No
Number of Sampled Component Spectra: 1
Spectrometers: USB4C02835
Integration Time (usec): 100000 (USB4C02835)
Spectra Averaged: 1 (USB4C02835)
Boxcar Smoothing: 0 (USB4C02835)
Correct for Electrical Dark: No (USB4C02835)
Strobe/Lamp Enabled: No (USB4C02835)
Correct for Detector Non-linearity: No (USB4C02835)
Correct for Stray Light: No (USB4C02835)
Number of Pixels in Processed Spectrum: 3648
>>>>>Begin Processed Spectral Data<<<<<
177.47	1544.17
177.69	1544.17
177.91	1544.17
178.13	1466.35
178.36	1546.22
178.58	1679.33
178.80	1796.07
179.02	1669.09
179.24	1642.47
179.46	1673.19
179.68	1755.11
179.90	1728.49
180.13	1673.19
180.35	1679.33
180.57	1755.11
180.79	1845.22
181.01	1628.14
181.23	1718.25
181.45	1775.59
181.67	1738.73
181.90	1701.86
182.12	1677.29
182.34	1677.29
182.56	1802.21
182.78	1724.39
183.00	1720.29
183.22	1761.25
183.44	1603.56
183.66	1832.93
183.89	1714.15
184.11	1751.01
184.33	1751.01
184.55	1789.92
184.77	1658.85
184.99	1728.49
185.21	1640.42
185.43	1798.12
185.65	1652.71
185.87	1710.05
186.10	1877.99
186.32	1828.84
186.54	1853.41
186.76	1765.35
186.98	1693.67
187.20	1615.85
187.42	1710.05
187.64	1656.81
187.86	1669.09
188.08	1675.24
188.30	1681.38
188.52	1751.01
188.75	1738.73
188.97	1726.44
189.19	1722.34
189.41	1679.33
189.63	1751.01
189.85	1601.51
190.07	1687.53
190.29	1638.38
190.51	1742.82
190.73	1626.09
190.95	1757.16
191.17	1740.77
191.39	1667.05
191.61	1640.42
191.84	1687.53
192.06	1689.57
192.28	1624.04
192.50	1837.03
192.72	1779.68
192.94	1630.18
193.16	1757.16
193.38	1781.73
193.60	1716.20
193.82	1665.00
194.04	1746.92
194.26	1755.11
194.48	1675.24
194.70	1667.05
194.92	1681.38
195.14	1738.73
195.36	1710.05
195.58	1728.49
195.80	1703.91
196.02	1697.77
196.24	1740.77
196.46	1693.67
196.69	1693.67
196.91	1861.60
197.13	1646.57
197.35	1658.85
197.57	1808.36
197.79	1757.16
198.01	1781.73
198.23	1763.30
198.45	1804.26
198.67	1572.84
198.89	1667.05
199.11	1689.57
199.33	1695.72
199.55	1576.94
199.77	1665.00
199.99	1777.64
200.21	1724.39
200.43	1751.01
200.65	1617.90
200.87	1644.52
201.09	1753.06
201.31	1679.33
201.53	1683.43
201.75	1763.30
201.97	1734.63
202.19	1759.21
202.41	1761.25
202.63	1783.78
202.85	1773.54
203.07	1804.26
203.29	1697.77
203.51	1675.24
203.73	1687.53
203.95	1908.71
204.17	1748.97
204.39	1726.44
204.61	1697.77
204.83	1691.62
205.05	1738.73
205.27	1744.87
205.49	1806.31
205.71	1783.78
205.93	1683.43
206.15	1705.96
206.37	1669.09
206.59	1685.48
206.81	1626.09
207.03	1636.33
207.25	1615.85
207.47	1773.54
207.69	1701.86
207.91	1773.54
208.13	1738.73
208.34	1642.47
208.56	1687.53
208.78	1738.73
209.00	1679.33
209.22	1679.33
209.44	1675.24
209.66	1693.67
209.88	1714.15
210.10	1732.58
210.32	1671.14
210.54	1857.51
210.76	1734.63
210.98	1718.25
211.20	1640.42
211.42	1710.05
211.64	1730.53
211.86	1724.39
212.08	1679.33
212.30	1691.62
212.52	1658.85
212.74	1742.82
212.96	1710.05
213.17	1738.73
213.39	1718.25
213.61	1794.02
213.83	1646.57
214.05	1671.14
214.27	1728.49
214.49	1667.05
214.71	1714.15
214.93	1722.34
215.15	1652.71
215.37	1796.07
215.59	1632.23
215.81	1773.54
216.03	1832.93
216.24	1673.19
216.46	1654.76
216.68	1724.39
216.90	1763.30
217.12	1791.97
217.34	1716.20
217.56	1712.10
217.78	1822.69
218.00	1667.05
218.22	1748.97
218.44	1691.62
218.66	1710.05
218.87	1765.35
219.09	1738.73
219.31	1744.87
219.53	1751.01
219.75	1673.19
219.97	1724.39
220.19	1675.24
220.41	1708.01
220.63	1757.16
220.85	1812.45
221.06	1665.00
221.28	1804.26
221.50	1761.25
221.72	1728.49
221.94	1746.92
222.16	1593.32
222.38	1751.01
222.60	1759.21
222.82	1691.62
223.03	1734.63
223.25	1626.09
223.47	1716.20
223.69	1834.98
223.91	1765.35
224.13	1773.54
224.35	1667.05
224.57	1765.35
224.78	1738.73
225.00	1665.00
225.22	1720.29
225.44	1720.29
225.66	1695.72
225.88	1710.05
226.10	1761.25
226.32	1746.92
226.53	1783.78
226.75	1675.24
226.97	1732.58
227.19	1748.97
227.41	1669.09
227.63	1699.81
227.85	1683.43
228.06	1751.01
228.28	1699.81
228.50	1787.88
228.72	1716.20
228.94	1665.00
229.16	1642.47
229.37	1660.90
229.59	1652.71
229.81	1765.35
230.03	1636.33
230.25	1615.85
230.47	1685.48
230.69	1665.00
230.90	1779.68
231.12	1642.47
231.34	1693.67
231.56	1822.69
231.78	1658.85
232.00	1728.49
232.21	1722.34
232.43	1767.40
232.65	1587.18
232.87	1718.25
233.09	1585.13
233.30	1669.09
233.52	1722.34
233.74	1665.00
233.96	1621.99
234.18	1734.63
234.40	1716.20
234.61	1845.22
234.83	1572.84
235.05	1665.00
235.27	1849.32
235.49	1828.84
235.70	1716.20
235.92	1828.84
236.14	1718.25
236.36	1920.99
236.58	1621.99
236.79	1722.34
237.01	1705.96
237.23	1701.86
237.45	1824.74
237.67	1654.76
237.88	1654.76
238.10	1748.97
238.32	1613.80
238.54	1734.63
238.76	1730.53
238.97	1621.99
239.19	1720.29
239.41	1751.01
239.63	1804.26
239.85	1687.53
240.06	1660.90
240.28	1705.96
240.50	1695.72
240.72	1703.91
240.93	1718.25
241.15	1714.15
241.37	1703.91
241.59	1738.73
241.81	1669.09
242.02	1671.14
242.24	1679.33
242.46	1757.16
242.68	1693.67
242.89	1759.21
243.11	1816.55
243.33	1646.57
243.55	1748.97
243.76	1716.20
243.98	1648.61
244.20	1685.48
244.42	1732.58
244.64	1685.48
244.85	1632.23
245.07	1771.49
245.29	1789.92
245.51	1746.92
245.72	1734.63
245.94	1812.45
246.16	1712.10
246.38	1783.78
246.59	1789.92
246.81	1681.38
247.03	1699.81
247.24	1632.23
247.46	1656.81
247.68	1724.39
247.90	1681.38
248.11	1648.61
248.33	1722.34
248.55	1759.21
248.77	1689.57
248.98	1718.25
249.20	1873.89
249.42	1654.76
249.64	1662.95
249.85	1632.23
250.07	1691.62
250.29	1679.33
250.50	1810.40
250.72	1597.42
250.94	1724.39
251.16	1873.89
251.37	1808.36
251.59	1683.43
251.81	1761.25
252.02	1834.98
252.24	1703.91
252.46	1812.45
252.68	1705.96
252.89	1662.95
253.11	1665.00
253.33	1853.41
253.54	1798.12
253.76	1675.24
253.98	1685.48
254.20	1671.14
254.41	1531.88
254.63	1695.72
254.85	1697.77
255.06	1705.96
255.28	1791.97
255.50	1683.43
255.71	1652.71
255.93	1650.66
256.15	1691.62
256.36	1787.88
256.58	1638.38
256.80	1785.83
257.02	1662.95
257.23	1714.15
257.45	1685.48
257.67	1689.57
257.88	1685.48
258.10	1757.16
258.32	1712.10
258.53	1697.77
258.75	1851.36
258.97	1634.28
259.18	1699.81
259.40	1759.21
259.62	1791.97
259.83	1738.73
260.05	1730.53
260.27	1978.34
260.48	1765.35
260.70	1654.76
260.92	1701.86
261.13	1765.35
261.35	1646.57
261.57	1751.01
261.78	1556.46
262.00	1632.23
262.22	1761.25
262.43	1671.14
262.65	1724.39
262.86	1728.49
263.08	1906.66
263.30	1656.81
263.51	1626.09
263.73	1689.57
263.95	1742.82
264.16	1613.80
264.38	1720.29
264.60	1681.38
264.81	1724.39
265.03	1767.40
265.25	1800.16
265.46	1734.63
265.68	1814.50
265.89	1796.07
266.11	1667.05
266.33	1751.01
266.54	1798.12
266.76	1822.69
266.98	1724.39
267.19	1800.16
267.41	1759.21
267.62	1671.14
267.84	1615.85
268.06	1705.96
268.27	1705.96
268.49	1931.23
268.70	1771.49
268.92	1699.81
269.14	1624.04
269.35	1665.00
269.57	1607.66
269.79	1781.73
270.00	1755.11
270.22	1820.64
270.43	1675.24
270.65	1695.72
270.87	1687.53
271.08	1726.44
271.30	1753.06
271.51	1699.81
271.73	1814.50
271.95	1734.63
272.16	1705.96
272.38	1724.39
272.59	1654.76
272.81	1794.02
273.02	1734.63
273.24	1775.59
273.46	1740.77
273.67	1660.90
273.89	1699.81
274.10	1646.57
274.32	1769.44
274.54	1685.48
274.75	1652.71
274.97	1677.29
275.18	1800.16
275.40	1669.09
275.61	1718.25
275.83	1730.53
276.05	1632.23
276.26	1675.24
276.48	1841.12
276.69	1705.96
276.91	1675.24
277.12	1761.25
277.34	1773.54
277.55	1726.44
277.77	1695.72
277.99	1718.25
278.20	1591.27
278.42	1710.05
278.63	1703.91
278.85	1738.73
279.06	1648.61
279.28	1808.36
279.49	1728.49
279.71	1644.52
279.93	1648.61
280.14	1677.29
280.36	1714.15
280.57	1794.02
280.79	1714.15
281.00	1675.24
281.22	1611.75
281.43	1748.97
281.65	1529.83
281.86	1656.81
282.08	1710.05
282.29	1789.92
282.51	1646.57
282.73	1632.23
282.94	1626.09
283.16	1767.40
283.37	1812.45
283.59	1757.16
283.80	1710.05
284.02	1746.92
284.23	1759.21
284.45	1738.73
284.66	1732.58
284.88	1685.48
285.09	1673.19
285.31	1734.63
285.52	1687.53
285.74	1609.70
285.95	1806.31
286.17	1689.57
286.38	1730.53
286.60	1703.91
286.81	1712.10
287.03	1763.30
287.24	1699.81
287.46	1751.01
287.67	1673.19
287.89	1787.88
288.10	1726.44
288.32	1656.81
288.53	1777.64
288.75	1675.24
288.96	1777.64
289.18	1722.34
289.39	1742.82
289.61	1830.88
289.82	1845.22
290.04	1748.97
290.25	1656.81
290.47	1703.91
290.68	1683.43
290.90	1804.26
291.11	1665.00
291.33	1730.53
291.54	1665.00
291.76	1650.66
291.97	1710.05
292.18	1679.33
292.40	1658.85
292.61	1701.86
292.83	1783.78
293.04	1736.68
293.26	1730.53
293.47	1669.09
293.69	1640.42
293.90	1777.64
294.12	1734.63
294.33	1665.00
294.55	1613.80
294.76	1732.58
294.97	1775.59
295.19	1798.12
295.40	1681.38
295.62	1779.68
295.83	1757.16
296.05	1656.81
296.26	1755.11
296.48	1732.58
296.69	1730.53
296.90	1693.67
297.12	1775.59
297.33	1753.06
297.55	1708.01
297.76	1769.44
297.98	1779.68
298.19	1638.38
298.41	1648.61
298.62	1624.04
298.83	1818.60
299.05	1769.44
299.26	1644.52
299.48	1624.04
299.69	1759.21
299.90	1644.52
300.12	1695.72
300.33	1742.82
300.55	1718.25
300.76	1683.43
300.98	1669.09
301.19	1728.49
301.40	1714.15
301.62	1693.67
301.83	1687.53
302.05	1724.39
302.26	1755.11
302.47	1740.77
302.69	1671.14
302.90	1638.38
303.12	1628.14
303.33	1734.63
303.54	1859.56
303.76	1689.57
303.97	1763.30
304.19	1726.44
304.40	1718.25
304.61	1720.29
304.83	1802.21
305.04	1746.92
305.26	1744.87
305.47	1679.33
305.68	1718.25
305.90	1656.81
306.11	1738.73
306.33	1671.14
306.54	1691.62
306.75	1673.19
306.97	1705.96
307.18	1714.15
307.39	1720.29
307.61	1763.30
307.82	1716.20
308.04	1693.67
308.25	1681.38
308.46	1734.63
308.68	1755.11
308.89	1730.53
309.10	1673.19
309.32	1757.16
309.53	1658.85
309.74	1759.21
309.96	1687.53
310.17	1798.12
310.39	1671.14
310.60	1757.16
310.81	1746.92
311.03	1640.42
311.24	1728.49
311.45	1646.57
311.67	1847.27
311.88	1681.38
312.09	1693.67
312.31	1722.34
312.52	1767.40
312.73	1695.72
312.95	1601.51
313.16	1628.14
313.37	1763.30
313.59	1744.87
313.80	1777.64
314.01	1843.17
314.23	1722.34
314.44	1648.61
314.65	1650.66
314.87	1619.94
315.08	1820.64
315.29	1751.01
315.51	1693.67
315.72	1609.70
315.93	1886.18
316.15	1783.78
316.36	1687.53
316.57	1687.53
316.79	1757.16
317.00	1662.95
317.21	1761.25
317.43	1656.81
317.64	1710.05
317.85	1699.81
318.07	1640.42
318.28	1742.82
318.49	1828.84
318.70	1984.48
318.92	1775.59
319.13	1769.44
319.34	1896.42
319.56	1857.51
319.77	1744.87
319.98	1787.88
320.20	1751.01
320.41	1765.35
320.62	1718.25
320.83	1703.91
321.05	1800.16
321.26	1746.92
321.47	1781.73
321.69	1761.25
321.90	1673.19
322.11	1658.85
322.32	1697.77
322.54	1800.16
322.75	1669.09
322.96	1877.99
323.18	1628.14
323.39	1578.98
323.60	1687.53
323.81	1810.40
324.03	1708.01
324.24	1687.53
324.45	1734.63
324.66	1648.61
324.88	1802.21
325.09	1843.17
325.30	1771.49
325.52	1765.35
325.73	1773.54
325.94	1574.89
326.15	1642.47
326.37	1699.81
326.58	1796.07
326.79	1812.45
327.00	1632.23
327.22	1695.72
327.43	1767.40
327.64	1734.63
327.85	1718.25
328.07	1650.66
328.28	1800.16
328.49	1621.99
328.70	1736.68
328.92	1738.73
329.13	1742.82
329.34	1705.96
329.55	1796.07
329.76	1779.68
329.98	1732.58
330.19	1736.68
330.40	1718.25
330.61	1669.09
330.83	1738.73
331.04	1701.86
331.25	1710.05
331.46	1689.57
331.68	1632.23
331.89	1783.78
332.10	1671.14
332.31	1687.53
332.52	1689.57
332.74	1806.31
332.95	1759.21
333.16	1656.81
333.37	1755.11
333.58	1685.48
333.80	1673.19
334.01	1642.47
334.22	1683.43
334.43	1714.15
334.64	1693.67
334.86	1642.47
335.07	1683.43
335.28	1802.21
335.49	1595.37
335.70	1687.53
335.92	1730.53
336.13	1861.60
336.34	1734.63
336.55	1734.63
336.76	1744.87
336.98	1591.27
337.19	1728.49
337.40	1779.68
337.61	1865.70
337.82	1691.62
338.04	1775.59
338.25	1599.46
338.46	1669.09
338.67	1687.53
338.88	1699.81
339.09	1669.09
339.31	1685.48
339.52	1667.05
339.73	1691.62
339.94	1746.92
340.15	1705.96
340.36	1632.23
340.58	1695.72
340.79	1673.19
341.00	1765.35
341.21	1695.72
341.42	1855.46
341.63	1705.96
341.85	1742.82
342.06	1761.25
342.27	1671.14
342.48	1722.34
342.69	1642.47
342.90	1771.49
343.12	1724.39
343.33	1642.47
343.54	1798.12
343.75	1757.16
343.96	1791.97
344.17	1640.42
344.38	1699.81
344.60	1644.52
344.81	1578.98
345.02	1718.25
345.23	1728.49
345.44	1746.92
345.65	1734.63
345.86	1751.01
346.07	1587.18
346.29	1732.58
346.50	1710.05
346.71	1701.86
346.92	1781.73
347.13	1867.75
347.34	1763.30
347.55	1730.53
347.76	1705.96
347.98	1642.47
348.19	1650.66
348.40	1802.21
348.61	1687.53
348.82	1767.40
349.03	1759.21
349.24	1669.09
349.45	1783.78
349.66	1665.00
349.88	1720.29
350.09	1689.57
350.30	1800.16
350.51	1839.08
350.72	1695.72
350.93	1689.57
351.14	1716.20
351.35	1742.82
351.56	1683.43
351.77	1652.71
351.99	1726.44
352.20	1822.69
352.41	1767.40
352.62	1615.85
352.83	1767.40
353.04	1736.68
353.25	1703.91
353.46	1853.41
353.67	1791.97
353.88	1615.85
354.09	1757.16
354.30	1693.67
354.52	1710.05
354.73	1734.63
354.94	1695.72
355.15	1710.05
355.36	1806.31
355.57	1703.91
355.78	1699.81
355.99	1730.53
356.20	1695.72
356.41	1787.88
356.62	1699.81
356.83	1689.57
357.04	1802.21
357.25	1560.55
357.46	1699.81
357.68	1677.29
357.89	1650.66
358.10	1763.30
358.31	1730.53
358.52	1710.05
358.73	1662.95
358.94	1705.96
359.15	1685.48
359.36	1681.38
359.57	1691.62
359.78	1718.25
359.99	1697.77
360.20	1689.57
360.41	1689.57
360.62	1732.58
360.83	1751.01
361.04	1652.71
361.25	1765.35
361.46	1796.07
361.67	1679.33
361.88	1689.57
362.09	1728.49
362.30	1767.40
362.51	1734.63
362.72	1714.15
362.93	1748.97
363.14	1759.21
363.35	1632.23
363.56	1675.24
363.78	1753.06
363.99	1828.84
364.20	1677.29
364.41	1765.35
364.62	1806.31
364.83	1683.43
365.04	1677.29
365.25	1728.49
365.46	1769.44
365.67	1718.25
365.88	1624.04
366.09	1714.15
366.30	1703.91
366.51	1722.34
366.72	1607.66
366.93	1781.73
367.14	1697.77
367.35	1771.49
367.56	1730.53
367.77	1802.21
367.98	1656.81
368.18	1769.44
368.39	1695.72
368.60	1607.66
368.81	1765.35
369.02	1648.61
369.23	1742.82
369.44	1652.71
369.65	1660.90
369.86	1693.67
370.07	1769.44
370.28	1634.28
370.49	1695.72
370.70	1802.21
370.91	1687.53
371.12	1587.18
371.33	1689.57
371.54	1714.15
371.75	1853.41
371.96	1613.80
372.17	1785.83
372.38	1681.38
372.59	1765.35
372.80	1632.23
373.01	1708.01
373.22	1689.57
373.43	1753.06
373.64	1755.11
373.85	1779.68
374.06	1789.92
374.26	1851.36
374.47	1812.45
374.68	1765.35
374.89	1757.16
375.10	1708.01
375.31	1789.92
375.52	1673.19
375.73	1636.33
375.94	1669.09
376.15	1828.84
376.36	1671.14
376.57	1662.95
376.78	1730.53
376.99	1765.35
377.20	1845.22
377.40	1681.38
377.61	1841.12
377.82	1669.09
378.03	1726.44
378.24	1763.30
378.45	1679.33
378.66	1814.50
378.87	1619.94
379.08	1609.70
379.29	1636.33
379.50	1806.31
379.71	1714.15
379.91	1830.88
380.12	1642.47
380.33	1753.06
380.54	1656.81
380.75	1734.63
380.96	1695.72
381.17	1777.64
381.38	1771.49
381.59	1656.81
381.80	1746.92
382.00	1779.68
382.21	1773.54
382.42	1834.98
382.63	1884.13
382.84	1675.24
383.05	1783.78
383.26	1783.78
383.47	1742.82
383.68	1763.30
383.88	1757.16
384.09	1738.73
384.30	1779.68
384.51	1773.54
384.72	1671.14
384.93	1617.90
385.14	1710.05
385.35	1798.12
385.55	1705.96
385.76	1710.05
385.97	1759.21
386.18	1642.47
386.39	1695.72
386.60	1710.05
386.81	1708.01
387.02	1714.15
387.22	1695.72
387.43	1732.58
387.64	1753.06
387.85	1812.45
388.06	2230.24
388.27	4245.44
388.48	6913.94
388.68	8257.41
388.89	9557.87
389.10	9488.24
389.31	8562.56
389.52	7552.91
389.73	6524.83
389.93	6117.28
390.14	6035.36
390.35	5234.61
390.56	4407.23
390.77	3817.41
390.98	3057.62
391.18	2525.15
391.39	2101.22
391.60	1906.66
391.81	1787.88
392.02	1771.49
392.23	1865.70
392.43	1755.11
392.64	1775.59
392.85	1652.71
393.06	1839.08
393.27	1777.64
393.47	1679.33
393.68	1703.91
393.89	1691.62
394.10	1804.26
394.31	1693.67
394.52	1722.34
394.72	1679.33
394.93	1767.40
395.14	1669.09
395.35	1767.40
395.56	1732.58
395.76	1697.77
395.97	1853.41
396.18	1904.61
396.39	1857.51
396.60	2019.30
396.80	1898.47
397.01	1902.56
397.22	1857.51
397.43	1841.12
397.64	1726.44
397.84	1847.27
398.05	1875.94
398.26	1781.73
398.47	1722.34
398.67	1787.88
398.88	1742.82
399.09	1779.68
399.30	1708.01
399.51	1781.73
399.71	1716.20
399.92	1652.71
400.13	1699.81
400.34	1601.51
400.54	1732.58
400.75	1755.11
400.96	1761.25
401.17	1816.55
401.37	1697.77
401.58	1658.85
401.79	1740.77
402.00	1822.69
402.21	2015.20
402.41	1898.47
402.62	2050.02
402.83	2052.06
403.04	1929.19
403.24	2119.65
403.45	1806.31
403.66	1908.71
403.87	1912.80
404.07	1896.42
404.28	1894.37
404.49	1849.32
404.70	1816.55
404.90	1728.49
405.11	1777.64
405.32	1791.97
405.52	1703.91
405.73	1619.94
405.94	1650.66
406.15	1771.49
406.35	1802.21
406.56	1804.26
406.77	1730.53
406.98	1742.82
407.18	1648.61
407.39	1771.49
407.60	1675.24
407.80	1679.33
408.01	1671.14
408.22	1730.53
408.43	1701.86
408.63	1693.67
408.84	1753.06
409.05	1779.68
409.25	1636.33
409.46	1771.49
409.67	1720.29
409.88	1611.75
410.08	1716.20
410.29	1732.58
410.50	1775.59
410.70	1744.87
410.91	1685.48
411.12	1751.01
411.32	1693.67
411.53	1642.47
411.74	1834.98
411.95	1779.68
412.15	1808.36
412.36	1839.08
412.57	1689.57
412.77	1791.97
412.98	1734.63
413.19	1736.68
413.39	1757.16
413.60	1689.57
413.81	1777.64
414.01	1701.86
414.22	1703.91
414.43	1726.44
414.63	1746.92
414.84	1693.67
415.05	1708.01
415.25	1701.86
415.46	1751.01
415.67	1718.25
415.87	1742.82
416.08	1771.49
416.29	1687.53
416.49	1787.88
416.70	1669.09
416.91	1699.81
417.11	1703.91
417.32	1732.58
417.53	1765.35
417.73	1736.68
417.94	1683.43
418.15	1765.35
418.35	1689.57
418.56	1712.10
418.77	1849.32
418.97	1693.67
419.18	1677.29
419.38	1574.89
419.59	1626.09
419.80	1816.55
420.00	1720.29
420.21	1779.68
420.42	1859.56
420.62	1718.25
420.83	1630.18
421.04	1693.67
421.24	1689.57
421.45	1710.05
421.65	1726.44
421.86	1705.96
422.07	1703.91
422.27	1814.50
422.48	1683.43
422.69	1638.38
422.89	1685.48
423.10	1744.87
423.30	1693.67
423.51	1751.01
423.72	1726.44
423.92	1691.62
424.13	1708.01
424.33	1751.01
424.54	1748.97
424.75	1644.52
424.95	1843.17
425.16	1716.20
425.36	1646.57
425.57	1757.16
425.78	1771.49
425.98	1767.40
426.19	1679.33
426.39	1671.14
426.60	1765.35
426.81	1789.92
427.01	1665.00
427.22	1681.38
427.42	1554.41
427.63	1638.38
427.83	1763.30
428.04	1902.56
428.25	1851.36
428.45	1796.07
428.66	1773.54
428.86	1708.01
429.07	1632.23
429.28	1728.49
429.48	1671.14
429.69	1667.05
429.89	1767.40
430.10	1656.81
430.30	1736.68
430.51	1779.68
430.71	1634.28
430.92	1628.14
431.13	1636.33
431.33	1822.69
431.54	1697.77
431.74	1804.26
431.95	1794.02
432.15	1687.53
432.36	1720.29
432.56	1716.20
432.77	1796.07
432.98	1853.41
433.18	1767.40
433.39	1701.86
433.59	1656.81
433.80	1773.54
434.00	1847.27
434.21	1722.34
434.41	1638.38
434.62	1853.41
434.82	1746.92
435.03	1619.94
435.23	1662.95
435.44	1677.29
435.64	1689.57
435.85	1738.73
436.06	1849.32
436.26	1744.87
436.47	1683.43
436.67	1732.58
436.88	1710.05
437.08	1697.77
437.29	1777.64
437.49	1748.97
437.70	1771.49
437.90	1761.25
438.11	1849.32
438.31	1789.92
438.52	1925.09
438.72	1937.38
438.93	1853.41
439.13	1810.40
439.34	1789.92
439.54	1789.92
439.75	1806.31
439.95	1783.78
440.16	1710.05
440.36	1714.15
440.57	1798.12
440.77	1683.43
440.98	1701.86
441.18	1800.16
441.39	1667.05
441.59	1560.55
441.80	1927.14
442.00	1820.64
442.21	1800.16
442.41	1705.96
442.62	1798.12
442.82	1660.90
443.02	1738.73
443.23	1740.77
443.43	1763.30
443.64	1886.18
443.84	1662.95
444.05	1804.26
444.25	1761.25
444.46	1695.72
444.66	1730.53
444.87	1798.12
445.07	1632.23
445.28	1714.15
445.48	1830.88
445.69	1826.79
445.89	1849.32
446.09	1751.01
446.30	2004.96
446.50	2695.13
446.71	3684.30
446.91	4308.93
447.12	4720.57
447.32	4898.74
447.53	4376.51
447.73	3829.70
447.93	3528.65
448.14	3418.06
448.34	3096.53
448.55	2852.82
448.75	2779.09
448.96	2721.75
449.16	2412.51
449.36	2213.85
449.57	2056.16
449.77	1951.71
449.98	1810.40
450.18	1869.80
450.39	1837.03
450.59	1748.97
450.79	1740.77
451.00	1716.20
451.20	1738.73
451.41	1710.05
451.61	1777.64
451.81	1775.59
452.02	1751.01
452.22	1789.92
452.43	1712.10
452.63	1665.00
452.84	1724.39
453.04	1683.43
453.24	1654.76
453.45	1734.63
453.65	1693.67
453.86	1775.59
454.06	1843.17
454.26	1726.44
454.47	1648.61
454.67	1785.83
454.87	1771.49
455.08	1658.85
455.28	1857.51
455.49	1738.73
455.69	1716.20
455.89	1847.27
456.10	1742.82
456.30	1720.29
456.51	1759.21
456.71	1746.92
456.91	1800.16
457.12	1779.68
457.32	1701.86
457.52	1665.00
457.73	1769.44
457.93	1757.16
458.14	1787.88
458.34	1734.63
458.54	1720.29
458.75	1757.16
458.95	1830.88
459.15	1716.20
459.36	1796.07
459.56	1826.79
459.76	1902.56
459.97	1742.82
460.17	1716.20
460.37	1779.68
460.58	1861.60
460.78	1675.24
460.99	1701.86
461.19	1730.53
461.39	1718.25
461.60	1738.73
461.80	1769.44
462.00	1685.48
462.21	1728.49
462.41	1667.05
462.61	1761.25
462.82	1613.80
463.02	1728.49
463.22	1748.97
463.43	1839.08
463.63	1763.30
463.83	1863.65
464.04	1763.30
464.24	1673.19
464.44	1697.77
464.64	1710.05
464.85	1726.44
465.05	1810.40
465.25	1732.58
465.46	1759.21
465.66	1861.60
465.86	1785.83
466.07	1710.05
466.27	1734.63
466.47	1669.09
466.68	1648.61
466.88	1859.56
467.08	1824.74
467.29	1724.39
467.49	1773.54
467.69	1722.34
467.89	1769.44
468.10	1765.35
468.30	1708.01
468.50	1796.07
468.71	1763.30
468.91	1665.00
469.11	1841.12
469.31	1662.95
469.52	1673.19
469.72	1853.41
469.92	1933.28
470.13	1796.07
470.33	1671.14
470.53	1820.64
470.73	2156.51
470.94	2312.16
471.14	2258.91
471.34	2496.47
471.54	2471.90
471.75	2181.09
471.95	2121.70
472.15	2119.65
472.36	2107.36
472.56	2123.74
472.76	2021.35
472.96	2000.87
473.17	1943.52
473.37	1980.39
473.57	1796.07
473.77	1810.40
473.98	1771.49
474.18	1701.86
474.38	1886.18
474.58	1673.19
474.79	1748.97
474.99	1705.96
475.19	1773.54
475.39	1617.90
475.60	1746.92
475.80	1757.16
476.00	1826.79
476.20	1720.29
476.41	1726.44
476.61	1773.54
476.81	1855.46
477.01	1728.49
477.21	1787.88
477.42	1773.54
477.62	1660.90
477.82	1816.55
478.02	1738.73
478.23	1775.59
478.43	1652.71
478.63	1646.57
478.83	1691.62
479.03	1714.15
479.24	1822.69
479.44	1816.55
479.64	1748.97
479.84	1632.23
480.04	1671.14
480.25	1804.26
480.45	1710.05
480.65	1710.05
480.85	1771.49
481.06	1742.82
481.26	1812.45
481.46	1804.26
481.66	1652.71
481.86	1677.29
482.06	1794.02
482.27	1730.53
482.47	1677.29
482.67	1789.92
482.87	1718.25
483.07	1736.68
483.28	1753.06
483.48	1685.48
483.68	1728.49
483.88	1748.97
484.08	1621.99
484.29	1544.17
484.49	1783.78
484.69	1607.66
484.89	1859.56
485.09	1765.35
485.29	1796.07
485.50	1810.40
485.70	1697.77
485.90	1767.40
486.10	1652.71
486.30	1767.40
486.50	1771.49
486.71	1669.09
486.91	1775.59
487.11	1806.31
487.31	1656.81
487.51	1699.81
487.71	1728.49
487.91	1662.95
488.12	1748.97
488.32	1624.04
488.52	1689.57
488.72	1599.46
488.92	1656.81
489.12	1779.68
489.32	1810.40
489.53	1771.49
489.73	1677.29
489.93	1810.40
490.13	1642.47
490.33	1679.33
490.53	1714.15
490.73	1837.03
490.94	1673.19
491.14	1695.72
491.34	1791.97
491.54	2007.01
491.74	2531.29
491.94	2854.87
492.14	3033.04
492.34	3028.95
492.54	2779.09
492.75	2494.43
492.95	2451.42
493.15	2342.88
493.35	2265.05
493.55	2230.24
493.75	2131.94
493.95	2074.59
494.15	2027.49
494.35	1947.62
494.56	1839.08
494.76	1787.88
494.96	1808.36
495.16	1830.88
495.36	1757.16
495.56	1794.02
495.76	1701.86
495.96	1728.49
496.16	1777.64
496.36	1800.16
496.56	1654.76
496.77	1746.92
496.97	1697.77
497.17	1763.30
497.37	1527.78
497.57	1787.88
497.77	1693.67
497.97	1634.28
498.17	1744.87
498.37	1757.16
498.57	1673.19
498.77	1710.05
498.97	1814.50
499.17	1857.51
499.38	1712.10
499.58	1708.01
499.78	1781.73
499.98	1822.69
500.18	1718.25
500.38	1640.42
500.58	1877.99
500.78	2564.06
500.98	4421.56
501.18	5652.39
501.38	6703.00
501.58	7204.75
501.78	6703.00
501.98	5488.56
502.18	4954.04
502.38	4497.34
502.58	4196.29
502.78	3727.30
502.98	3749.83
503.18	3567.56
503.38	3164.11
503.59	2840.53
503.79	2619.35
503.99	2496.47
504.19	2303.96
504.39	2215.90
504.59	2199.52
504.79	2101.22
504.99	2082.78
505.19	1945.57
505.39	1882.08
505.59	1923.04
505.79	1902.56
505.99	1851.36
506.19	1849.32
506.39	1914.85
506.59	1701.86
506.79	1728.49
506.99	1839.08
507.19	1841.12
507.39	1726.44
507.59	1685.48
507.79	1744.87
507.99	1761.25
508.19	1736.68
508.39	1740.77
508.59	1734.63
508.79	1853.41
508.99	1832.93
509.19	1720.29
509.39	1853.41
509.59	1675.24
509.79	1703.91
509.99	1748.97
510.19	1759.21
510.39	1796.07
510.59	1673.19
510.79	1759.21
510.99	1654.76
511.19	1753.06
511.39	1798.12
511.59	1800.16
511.79	1798.12
511.99	1710.05
512.19	1820.64
512.38	1742.82
512.58	1736.68
512.78	1699.81
512.98	1832.93
513.18	1882.08
513.38	1730.53
513.58	1783.78
513.78	1773.54
513.98	1779.68
514.18	1714.15
514.38	1726.44
514.58	1779.68
514.78	1673.19
514.98	1765.35
515.18	1701.86
515.38	1671.14
515.58	1783.78
515.78	1800.16
515.98	1724.39
516.18	1773.54
516.38	1757.16
516.57	1708.01
516.77	1718.25
516.97	1818.60
517.17	1691.62
517.37	1681.38
517.57	1851.36
517.77	1730.53
517.97	1648.61
518.17	1714.15
518.37	1679.33
518.57	1746.92
518.77	1718.25
518.97	1708.01
519.16	1781.73
519.36	1783.78
519.56	1673.19
519.76	1716.20
519.96	1691.62
520.16	1826.79
520.36	1767.40
520.56	1855.46
520.76	1703.91
520.96	1716.20
521.16	1779.68
521.35	1765.35
521.55	1871.84
521.75	1718.25
521.95	1705.96
522.15	1685.48
522.35	1617.90
522.55	1765.35
522.75	1824.74
522.95	1667.05
523.14	1673.19
523.34	1720.29
523.54	1656.81
523.74	1773.54
523.94	1716.20
524.14	1691.62
524.34	1828.84
524.54	1783.78
524.73	1785.83
524.93	1767.40
525.13	1718.25
525.33	1646.57
525.53	1900.52
525.73	1806.31
525.93	1705.96
526.13	1671.14
526.32	1757.16
526.52	1791.97
526.72	1789.92
526.92	1751.01
527.12	1716.20
527.32	1617.90
527.52	1777.64
527.71	1724.39
527.91	1769.44
528.11	1640.42
528.31	1757.16
528.51	1695.72
528.71	1759.21
528.90	1734.63
529.10	1816.55
529.30	1832.93
529.50	1673.19
529.70	1812.45
529.90	1742.82
530.09	1818.60
530.29	1771.49
530.49	1677.29
530.69	1863.65
530.89	1763.30
531.09	1767.40
531.28	1759.21
531.48	1763.30
531.68	1791.97
531.88	1779.68
532.08	1783.78
532.28	1726.44
532.47	1767.40
532.67	1849.32
532.87	1738.73
533.07	1679.33
533.27	1753.06
533.46	1697.77
533.66	1746.92
533.86	1808.36
534.06	1734.63
534.26	1703.91
534.45	1705.96
534.65	1830.88
534.85	1683.43
535.05	1730.53
535.25	1882.08
535.44	1650.66
535.64	1730.53
535.84	1718.25
536.04	1701.86
536.24	1699.81
536.43	1699.81
536.63	1730.53
536.83	1710.05
537.03	1755.11
537.22	1726.44
537.42	1697.77
537.62	1804.26
537.82	1669.09
538.02	1794.02
538.21	1773.54
538.41	1865.70
538.61	1732.58
538.81	1751.01
539.00	1826.79
539.20	1656.81
539.40	1722.34
539.60	1755.11
539.79	1761.25
539.99	1738.73
540.19	1685.48
540.39	1710.05
540.58	1746.92
540.78	1761.25
540.98	1710.05
541.18	1855.46
541.37	1703.91
541.57	1794.02
541.77	1816.55
541.97	1679.33
542.16	1699.81
542.36	1687.53
542.56	1583.08
542.76	1824.74
542.95	1742.82
543.15	1777.64
543.35	1751.01
543.54	1669.09
543.74	1677.29
543.94	1791.97
544.14	1687.53
544.33	1818.60
544.53	1763.30
544.73	1740.77
544.93	1740.77
545.12	1773.54
545.32	1742.82
545.52	1714.15
545.71	1740.77
545.91	1693.67
546.11	1734.63
546.30	1705.96
546.50	1746.92
546.70	1773.54
546.90	1769.44
547.09	1703.91
547.29	1726.44
547.49	1783.78
547.68	1681.38
547.88	1798.12
548.08	1751.01
548.27	2131.94
548.47	1708.01
548.67	1712.10
548.87	1771.49
549.06	1761.25
549.26	1771.49
549.46	1755.11
549.65	1691.62
549.85	1701.86
550.05	1845.22
550.24	1665.00
550.44	1781.73
550.64	1777.64
550.83	1695.72
551.03	1791.97
551.23	1769.44
551.42	1724.39
551.62	1755.11
551.82	1728.49
552.01	1767.40
552.21	1798.12
552.41	1738.73
552.60	1773.54
552.80	1736.68
553.00	1767.40
553.19	1804.26
553.39	1796.07
553.59	1662.95
553.78	1834.98
553.98	1804.26
554.17	1685.48
554.37	1767.40
554.57	1800.16
554.76	1708.01
554.96	1683.43
555.16	1822.69
555.35	1755.11
555.55	1820.64
555.75	1763.30
555.94	1779.68
556.14	1677.29
556.33	1744.87
556.53	1716.20
556.73	1787.88
556.92	1718.25
557.12	1812.45
557.32	1818.60
557.51	1875.94
557.71	1824.74
557.90	1763.30
558.10	1818.60
558.30	1744.87
558.49	1775.59
558.69	1726.44
558.88	1724.39
559.08	1718.25
559.28	1759.21
559.47	1759.21
559.67	1718.25
559.86	1863.65
560.06	1779.68
560.26	1783.78
560.45	1781.73
560.65	1726.44
560.84	1808.36
561.04	1753.06
561.24	1769.44
561.43	1705.96
561.63	1806.31
561.82	1755.11
562.02	1740.77
562.22	1640.42
562.41	1718.25
562.61	1724.39
562.80	1761.25
563.00	1869.80
563.19	1806.31
563.39	1753.06
563.59	1740.77
563.78	1722.34
563.98	1669.09
564.17	1751.01
564.37	1685.48
564.56	1718.25
564.76	1599.46
564.96	1789.92
565.15	1714.15
565.35	1804.26
565.54	1630.18
565.74	1787.88
565.93	1761.25
566.13	1742.82
566.32	1740.77
566.52	1814.50
566.71	1724.39
566.91	1785.83
567.11	1767.40
567.30	1656.81
567.50	1783.78
567.69	1746.92
567.89	1767.40
568.08	1689.57
568.28	1804.26
568.47	1613.80
568.67	1759.21
568.86	1728.49
569.06	1800.16
569.25	1785.83
569.45	1632.23
569.64	1650.66
569.84	1691.62
570.04	1726.44
570.23	1755.11
570.43	1738.73
570.62	1748.97
570.82	1839.08
571.01	1683.43
571.21	1759.21
571.40	1785.83
571.60	1751.01
571.79	1763.30
571.99	1705.96
572.18	1669.09
572.38	1804.26
572.57	1697.77
572.77	1726.44
572.96	1839.08
573.16	1718.25
573.35	1728.49
573.55	1824.74
573.74	1761.25
573.94	1763.30
574.13	1720.29
574.33	1765.35
574.52	1867.75
574.71	1810.40
574.91	1787.88
575.10	1667.05
575.30	1699.81
575.49	1691.62
575.69	1658.85
575.88	1787.88
576.08	1740.77
576.27	1808.36
576.47	1732.58
576.66	1851.36
576.86	1853.41
577.05	1828.84
577.25	1802.21
577.44	1849.32
577.64	1697.77
577.83	1779.68
578.02	1685.48
578.22	1871.84
578.41	1890.28
578.61	1718.25
578.80	1660.90
579.00	1708.01
579.19	1726.44
579.39	1748.97
579.58	1822.69
579.77	1720.29
579.97	1898.47
580.16	1789.92
580.36	1791.97
580.55	1779.68
580.75	1824.74
580.94	1736.68
581.13	1869.80
581.33	1904.61
581.52	1710.05
581.72	1853.41
581.91	1791.97
582.11	1714.15
582.30	1771.49
582.49	1830.88
582.69	1845.22
582.88	1765.35
583.08	1697.77
583.27	1828.84
583.47	1800.16
583.66	1716.20
583.85	1701.86
584.05	1761.25
584.24	1779.68
584.44	1806.31
584.63	1734.63
584.82	1843.17
585.02	1812.45
585.21	1812.45
585.41	1851.36
585.60	1849.32
585.79	1968.10
585.99	1974.24
586.18	1851.36
586.37	2199.52
586.57	3327.95
586.76	9631.60
586.96	24538.76
587.15	34092.54
587.34	39951.77
587.54	41508.23
587.73	36283.86
587.93	26017.40
588.12	21401.27
588.31	18349.80
588.51	16115.47
588.70	15027.99
588.89	14034.73
589.09	12533.57
589.28	11018.07
589.47	9555.82
589.67	8025.99
589.86	6514.59
590.06	4908.98
590.25	3829.70
590.44	3155.92
590.64	2592.73
590.83	2320.35
591.02	2107.36
591.22	1923.04
591.41	1959.91
591.60	1834.98
591.80	1980.39
591.99	1701.86
592.18	1794.02
592.38	1845.22
592.57	1775.59
592.76	1767.40
592.96	1888.23
593.15	1834.98
593.34	1939.43
593.54	1759.21
593.73	1787.88
593.92	1806.31
594.12	1730.53
594.31	1720.29
594.50	1761.25
594.70	1837.03
594.89	1904.61
595.08	1638.38
595.28	1839.08
595.47	1912.80
595.66	1734.63
595.86	1759.21
596.05	1753.06
596.24	1693.67
596.43	1806.31
596.63	1783.78
596.82	1746.92
597.01	1759.21
597.21	1861.60
597.40	1732.58
597.59	1751.01
597.79	1791.97
597.98	1748.97
598.17	1771.49
598.36	1773.54
598.56	1740.77
598.75	1671.14
598.94	1746.92
599.14	1769.44
599.33	1671.14
599.52	1746.92
599.71	1759.21
599.91	1853.41
600.10	1818.60
600.29	1720.29
600.48	1802.21
600.68	1718.25
600.87	1753.06
601.06	1716.20
601.26	1775.59
601.45	1703.91
601.64	1710.05
601.83	1810.40
602.03	1783.78
602.22	1683.43
602.41	1746.92
602.60	1931.23
602.80	1791.97
602.99	1710.05
603.18	1701.86
603.37	1820.64
603.57	1687.53
603.76	1787.88
603.95	1757.16
604.14	1716.20
604.34	1714.15
604.53	1738.73
604.72	1804.26
604.91	1767.40
605.10	1763.30
605.30	1578.98
605.49	1830.88
605.68	1722.34
605.87	1785.83
606.07	1689.57
606.26	1791.97
606.45	1783.78
606.64	1755.11
606.84	1783.78
607.03	1693.67
607.22	1845.22
607.41	1800.16
607.60	1667.05
607.80	1888.23
607.99	1740.77
608.18	1818.60
608.37	1751.01
608.56	1656.81
608.76	1714.15
608.95	1804.26
609.14	1732.58
609.33	1716.20
609.52	1714.15
609.72	1757.16
609.91	1757.16
610.10	1753.06
610.29	1839.08
610.48	1798.12
610.68	1820.64
610.87	1742.82
611.06	1720.29
611.25	1695.72
611.44	1863.65
611.63	1677.29
611.83	1828.84
612.02	1759.21
612.21	1865.70
612.40	1656.81
612.59	1783.78
612.79	1667.05
612.98	1798.12
613.17	1877.99
613.36	1708.01
613.55	1853.41
613.74	1695.72
613.93	1701.86
614.13	1816.55
614.32	1734.63
614.51	1812.45
614.70	1675.24
614.89	1646.57
615.08	1783.78
615.28	2035.68
615.47	1714.15
615.66	1693.67
615.85	1763.30
616.04	1902.56
616.23	1734.63
616.42	1701.86
616.62	1726.44
616.81	1724.39
617.00	1779.68
617.19	1767.40
617.38	1714.15
617.57	1660.90
617.76	1705.96
617.95	1732.58
618.15	1708.01
618.34	1726.44
618.53	1769.44
618.72	1781.73
618.91	1841.12
619.10	1810.40
619.29	1757.16
619.48	1681.38
619.68	1677.29
619.87	1728.49
620.06	1658.85
620.25	1740.77
620.44	1697.77
620.63	1720.29
620.82	1767.40
621.01	1746.92
621.20	1691.62
621.39	1732.58
621.59	1759.21
621.78	1685.48
621.97	1742.82
622.16	1839.08
622.35	1759.21
622.54	1773.54
622.73	1820.64
622.92	1599.46
623.11	1771.49
623.30	1746.92
623.49	1708.01
623.68	1746.92
623.88	1783.78
624.07	1728.49
624.26	1708.01
624.45	1716.20
624.64	1697.77
624.83	1771.49
625.02	1781.73
625.21	1783.78
625.40	1732.58
625.59	1736.68
625.78	1767.40
625.97	1808.36
626.16	1796.07
626.35	1714.15
626.54	1751.01
626.74	1771.49
626.93	1691.62
627.12	1679.33
627.31	1771.49
627.50	1781.73
627.69	1857.51
627.88	1681.38
628.07	1699.81
628.26	1722.34
628.45	1675.24
628.64	1665.00
628.83	1736.68
629.02	1660.90
629.21	1775.59
629.40	1773.54
629.59	1667.05
629.78	1738.73
629.97	1693.67
630.16	1726.44
630.35	1703.91
630.54	1757.16
630.73	1693.67
630.92	1744.87
631.11	1677.29
631.30	1742.82
631.49	1800.16
631.68	1708.01
631.87	1742.82
632.06	1687.53
632.25	1863.65
632.44	1701.86
632.63	1714.15
632.82	1689.57
633.01	1695.72
633.20	1673.19
633.39	1722.34
633.58	1617.90
633.77	1783.78
633.96	1720.29
634.15	1773.54
634.34	1796.07
634.53	1714.15
634.72	1705.96
634.91	1632.23
635.10	1832.93
635.29	1767.40
635.48	1742.82
635.67	1628.14
635.86	1648.61
636.05	1816.55
636.24	1703.91
636.43	1755.11
636.62	1783.78
636.81	1646.57
637.00	1683.43
637.19	1736.68
637.38	1699.81
637.57	1640.42
637.76	1710.05
637.95	1775.59
638.14	1740.77
638.33	1703.91
638.52	1730.53
638.71	1613.80
638.89	1658.85
639.08	1908.71
639.27	1724.39
639.46	1640.42
639.65	1767.40
639.84	1763.30
640.03	1699.81
640.22	1701.86
640.41	1812.45
640.60	1720.29
640.79	1748.97
640.98	1708.01
641.17	1822.69
641.36	1689.57
641.55	1677.29
641.74	1644.52
641.92	1705.96
642.11	1640.42
642.30	1726.44
642.49	1677.29
642.68	1726.44
642.87	1751.01
643.06	1800.16
643.25	1648.61
643.44	1705.96
643.63	1716.20
643.82	1718.25
644.00	1665.00
644.19	1742.82
644.38	1726.44
644.57	1769.44
644.76	1716.20
644.95	1677.29
645.14	1751.01
645.33	1726.44
645.52	1779.68
645.71	1640.42
645.89	1638.38
646.08	1693.67
646.27	1767.40
646.46	1740.77
646.65	1648.61
646.84	1724.39
647.03	1687.53
647.22	1734.63
647.40	1765.35
647.59	1730.53
647.78	1658.85
647.97	1716.20
648.16	1658.85
648.35	1853.41
648.54	1781.73
648.73	1759.21
648.91	1767.40
649.10	1669.09
649.29	1662.95
649.48	1652.71
649.67	1726.44
649.86	1781.73
650.05	1687.53
650.23	1841.12
650.42	1574.89
650.61	1763.30
650.80	1738.73
650.99	1851.36
651.18	1771.49
651.36	1769.44
651.55	1697.77
651.74	1800.16
651.93	1742.82
652.12	1736.68
652.31	1746.92
652.49	1646.57
652.68	1757.16
652.87	1796.07
653.06	1787.88
653.25	1877.99
653.44	1742.82
653.62	1867.75
653.81	1726.44
654.00	1648.61
654.19	1744.87
654.38	1857.51
654.56	1742.82
654.75	1751.01
654.94	1757.16
655.13	1861.60
655.32	1716.20
655.51	1730.53
655.69	1701.86
655.88	1755.11
656.07	1660.90
656.26	1724.39
656.45	1669.09
656.63	1724.39
656.82	1746.92
657.01	1841.12
657.20	1746.92
657.38	1787.88
657.57	1705.96
657.76	1675.24
657.95	1720.29
658.14	1732.58
658.32	1726.44
658.51	1724.39
658.70	1665.00
658.89	1771.49
659.08	1718.25
659.26	1708.01
659.45	1681.38
659.64	1734.63
659.83	1654.76
660.01	1884.13
660.20	1667.05
660.39	1740.77
660.58	1619.94
660.76	1765.35
660.95	1679.33
661.14	1710.05
661.33	1630.18
661.51	1703.91
661.70	1681.38
661.89	1736.68
662.08	1804.26
662.26	1642.47
662.45	1624.04
662.64	1863.65
662.83	1697.77
663.01	1650.66
663.20	1822.69
663.39	1806.31
663.58	1748.97
663.76	1730.53
663.95	1755.11
664.14	1662.95
664.32	1652.71
664.51	1673.19
664.70	1646.57
664.89	1714.15
665.07	1642.47
665.26	1779.68
665.45	1636.33
665.64	1763.30
665.82	1755.11
666.01	1722.34
666.20	1753.06
666.38	1720.29
666.57	1783.78
666.76	2203.61
666.95	4419.52
667.13	10325.86
667.32	15175.45
667.51	17948.40
667.69	19128.03
667.88	17506.04
668.07	12371.78
668.25	9631.60
668.44	8173.44
668.63	7321.49
668.81	6915.99
669.00	6238.11
669.19	5640.11
669.38	5093.30
669.56	4695.99
669.75	3985.35
669.94	3487.69
670.12	2987.99
670.31	2541.53
670.50	2355.16
670.68	2133.98
670.87	1869.80
671.06	1783.78
671.24	1824.74
671.43	1841.12
671.62	1820.64
671.80	1646.57
671.99	1771.49
672.18	1748.97
672.36	1781.73
672.55	1794.02
672.74	1746.92
672.92	1626.09
673.11	1755.11
673.29	1638.38
673.48	1718.25
673.67	1681.38
673.85	1730.53
674.04	1679.33
674.23	1740.77
674.41	1796.07
674.60	1685.48
674.79	1570.79
674.97	1665.00
675.16	1716.20
675.34	1800.16
675.53	1726.44
675.72	1808.36
675.90	1732.58
676.09	1642.47
676.28	1714.15
676.46	1646.57
676.65	1716.20
676.83	1705.96
677.02	1644.52
677.21	1726.44
677.39	1794.02
677.58	1726.44
677.77	1675.24
677.95	1712.10
678.14	1775.59
678.32	1720.29
678.51	1671.14
678.70	1839.08
678.88	1718.25
679.07	1687.53
679.25	1619.94
679.44	1708.01
679.63	1591.27
679.81	1730.53
680.00	1787.88
680.18	1740.77
680.37	1654.76
680.55	1724.39
680.74	1652.71
680.93	1587.18
681.11	1654.76
681.30	1736.68
681.48	1716.20
681.67	1753.06
681.85	1804.26
682.04	1654.76
682.23	1777.64
682.41	1716.20
682.60	1693.67
682.78	1732.58
682.97	1656.81
683.15	1669.09
683.34	1781.73
683.53	1882.08
683.71	1738.73
683.90	1742.82
684.08	1757.16
684.27	1712.10
684.45	1722.34
684.64	1781.73
684.82	1656.81
685.01	1748.97
685.19	1730.53
685.38	1787.88
685.57	1753.06
685.75	1695.72
685.94	1673.19
686.12	1638.38
686.31	1703.91
686.49	1820.64
686.68	1628.14
686.86	1767.40
687.05	1794.02
687.23	1787.88
687.42	1695.72
687.60	1705.96
687.79	1769.44
687.97	1822.69
688.16	1720.29
688.34	1767.40
688.53	1591.27
688.71	1783.78
688.90	1826.79
689.08	1765.35
689.27	1576.94
689.45	1791.97
689.64	1802.21
689.82	1765.35
690.01	1718.25
690.19	1705.96
690.38	1726.44
690.56	1832.93
690.75	1644.52
690.93	1667.05
691.12	1665.00
691.30	1718.25
691.49	1687.53
691.67	1689.57
691.86	1806.31
692.04	1656.81
692.23	1679.33
692.41	1726.44
692.60	1775.59
692.78	1767.40
692.97	1693.67
693.15	1779.68
693.34	1873.89
693.52	1775.59
693.71	1660.90
693.89	1693.67
694.08	1609.70
694.26	1806.31
694.44	1681.38
694.63	1685.48
694.81	1705.96
695.00	1640.42
695.18	1808.36
695.37	1837.03
695.55	1734.63
695.74	1695.72
695.92	1662.95
696.10	1779.68
696.29	1634.28
696.47	1757.16
696.66	1611.75
696.84	1669.09
697.03	1800.16
697.21	1857.51
697.40	2371.55
697.58	1812.45
697.76	1748.97
697.95	1683.43
698.13	1662.95
698.32	1654.76
698.50	1726.44
698.68	1738.73
698.87	1701.86
699.05	1806.31
699.24	1796.07
699.42	1720.29
699.61	1732.58
699.79	1779.68
699.97	1708.01
700.16	1656.81
700.34	1673.19
700.53	1724.39
700.71	1785.83
700.89	1796.07
701.08	1703.91
701.26	1757.16
701.45	2090.98
701.63	1732.58
701.81	1714.15
702.00	1650.66
702.18	1701.86
702.37	1679.33
702.55	1724.39
702.73	1697.77
702.92	1673.19
703.10	1769.44
703.28	1789.92
703.47	1652.71
703.65	1847.27
703.84	1802.21
704.02	1669.09
704.20	1839.08
704.39	1648.61
704.57	1634.28
704.75	1728.49
704.94	1834.98
705.12	1693.67
705.30	1742.82
705.49	2213.85
705.67	4335.55
705.86	9275.25
706.04	12261.19
706.22	14401.32
706.41	15355.67
706.59	13725.49
706.77	9684.84
706.96	7255.95
707.14	6442.91
707.32	5992.36
707.51	5539.76
707.69	4906.93
707.87	4333.50
708.06	3549.13
708.24	2996.18
708.42	2471.90
708.61	2215.90
708.79	1945.57
708.97	1853.41
709.16	1873.89
709.34	1804.26
709.52	1738.73
709.71	1771.49
709.89	1744.87
710.07	1685.48
710.26	1621.99
710.44	1761.25
710.62	1810.40
710.80	1689.57
710.99	1761.25
711.17	1800.16
711.35	1650.66
711.54	1671.14
711.72	1794.02
711.90	1687.53
712.09	1783.78
712.27	1665.00
712.45	1724.39
712.63	1662.95
712.82	1738.73
713.00	1734.63
713.18	1742.82
713.37	1714.15
713.55	1802.21
713.73	1720.29
713.91	1671.14
714.10	1675.24
714.28	1656.81
714.46	1685.48
714.65	1714.15
714.83	1716.20
715.01	1693.67
715.19	1697.77
715.38	1677.29
715.56	1710.05
715.74	1662.95
715.92	1636.33
716.11	1779.68
716.29	1626.09
716.47	1675.24
716.65	1726.44
716.84	1683.43
717.02	1730.53
717.20	1587.18
717.38	1722.34
717.57	1681.38
717.75	1701.86
717.93	1705.96
718.11	1773.54
718.30	1626.09
718.48	1722.34
718.66	1738.73
718.84	1746.92
719.03	1656.81
719.21	1640.42
719.39	1761.25
719.57	1798.12
719.75	1718.25
719.94	1662.95
720.12	1679.33
720.30	1656.81
720.48	1804.26
720.67	1712.10
720.85	1755.11
721.03	1658.85
721.21	1673.19
721.39	1806.31
721.58	1673.19
721.76	1732.58
721.94	1796.07
722.12	1714.15
722.30	1816.55
722.49	1634.28
722.67	1730.53
722.85	1761.25
723.03	1619.94
723.21	1705.96
723.40	1753.06
723.58	1837.03
723.76	1730.53
723.94	1738.73
724.12	1687.53
724.30	1820.64
724.49	1808.36
724.67	1691.62
724.85	1794.02
725.03	1652.71
725.21	1767.40
725.40	1732.58
725.58	1718.25
725.76	1697.77
725.94	1705.96
726.12	1697.77
726.30	1720.29
726.49	1714.15
726.67	1644.52
726.85	1742.82
727.03	1812.45
727.21	2172.89
727.39	2918.36
727.57	3780.55
727.76	4272.06
727.94	4493.24
728.12	4345.79
728.30	3510.22
728.48	3119.06
728.66	2770.90
728.84	2596.82
729.03	2303.96
729.21	2205.66
729.39	2039.78
729.57	1892.32
729.75	1791.97
729.93	1814.50
730.11	1724.39
730.30	1755.11
730.48	1710.05
730.66	1810.40
730.84	1820.64
731.02	1751.01
731.20	1679.33
731.38	1665.00
731.56	1632.23
731.74	1677.29
731.93	1751.01
732.11	1710.05
732.29	1742.82
732.47	1730.53
732.65	1693.67
732.83	1822.69
733.01	1759.21
733.19	1665.00
733.37	1685.48
733.56	1710.05
733.74	1654.76
733.92	1773.54
734.10	1724.39
734.28	1738.73
734.46	1642.47
734.64	1628.14
734.82	1734.63
735.00	1675.24
735.18	1671.14
735.36	1740.77
735.54	1685.48
735.73	1783.78
735.91	1742.82
736.09	1761.25
736.27	1693.67
736.45	1796.07
736.63	1677.29
736.81	1726.44
736.99	1755.11
737.17	1753.06
737.35	1646.57
737.53	1712.10
737.71	1691.62
737.89	1722.34
738.07	1677.29
738.25	1642.47
738.43	1615.85
738.61	1642.47
738.80	1656.81
738.98	1722.34
739.16	1675.24
739.34	1705.96
739.52	1783.78
739.70	1691.62
739.88	1773.54
740.06	1738.73
740.24	1656.81
740.42	1834.98
740.60	1615.85
740.78	1656.81
740.96	1576.94
741.14	1662.95
741.32	1781.73
741.50	1708.01
741.68	1791.97
741.86	1728.49
742.04	1673.19
742.22	1628.14
742.40	1705.96
742.58	1757.16
742.76	1708.01
742.94	1791.97
743.12	1662.95
743.30	1685.48
743.48	1771.49
743.66	1679.33
743.84	1773.54
744.02	1748.97
744.20	1685.48
744.38	1693.67
744.56	1671.14
744.74	1718.25
744.92	1757.16
745.10	1822.69
745.28	1730.53
745.46	1812.45
745.64	1724.39
745.82	1763.30
746.00	1665.00
746.18	1679.33
746.36	1708.01
746.54	1796.07
746.72	1652.71
746.90	1652.71
747.08	1763.30
747.26	1724.39
747.44	1777.64
747.62	1705.96
747.80	1765.35
747.98	1685.48
748.15	1748.97
748.33	1814.50
748.51	1738.73
748.69	1724.39
748.87	1691.62
749.05	1673.19
749.23	1675.24
749.41	1673.19
749.59	1724.39
749.77	1869.80
749.95	1748.97
750.13	1597.42
750.31	1748.97
750.49	1726.44
750.67	1753.06
750.85	1759.21
751.03	1693.67
751.20	1841.12
751.38	1736.68
751.56	1630.18
751.74	1695.72
751.92	1748.97
752.10	1607.66
752.28	1824.74
752.46	1708.01
752.64	1669.09
752.82	1708.01
753.00	1787.88
753.18	1660.90
753.35	1656.81
753.53	1757.16
753.71	1642.47
753.89	1724.39
754.07	1710.05
754.25	1761.25
754.43	1687.53
754.61	1607.66
754.79	1677.29
754.97	1771.49
755.14	1714.15
755.32	1609.70
755.50	1667.05
755.68	1751.01
755.86	1751.01
756.04	1748.97
756.22	1673.19
756.40	1755.11
756.57	1812.45
756.75	1611.75
756.93	1783.78
757.11	1808.36
757.29	1658.85
757.47	1658.85
757.65	1644.52
757.82	1597.42
758.00	1605.61
758.18	1685.48
758.36	1632.23
758.54	1806.31
758.72	1691.62
758.90	1755.11
759.07	1714.15
759.25	1652.71
759.43	1761.25
759.61	1665.00
759.79	2228.19
759.97	1806.31
760.15	1736.68
760.32	1718.25
760.50	1794.02
760.68	1789.92
760.86	1595.37
761.04	1697.77
761.22	1769.44
761.39	1812.45
761.57	1720.29
761.75	1738.73
761.93	1738.73
762.11	1615.85
762.28	1701.86
762.46	1716.20
762.64	1753.06
762.82	1710.05
763.00	1714.15
763.18	1830.88
763.35	1642.47
763.53	1748.97
763.71	1681.38
763.89	1777.64
764.07	1738.73
764.24	1691.62
764.42	1742.82
764.60	1734.63
764.78	1687.53
764.96	1714.15
765.13	1742.82
765.31	1675.24
765.49	1681.38
765.67	1687.53
765.84	1597.42
766.02	1708.01
766.20	1624.04
766.38	1665.00
766.56	1767.40
766.73	1796.07
766.91	1777.64
767.09	1667.05
767.27	1734.63
767.44	1697.77
767.62	1695.72
767.80	1705.96
767.98	1748.97
768.15	1746.92
768.33	1716.20
768.51	1806.31
768.69	1755.11
768.87	1771.49
769.04	1710.05
769.22	1859.56
769.40	1785.83
769.58	1904.61
769.75	1701.86
769.93	1763.30
770.11	1703.91
770.28	1640.42
770.46	1697.77
770.64	1748.97
770.82	1755.11
770.99	1675.24
771.17	1699.81
771.35	1728.49
771.53	1732.58
771.70	1767.40
771.88	1646.57
772.06	1687.53
772.23	1669.09
772.41	1802.21
772.59	1710.05
772.77	1656.81
772.94	1665.00
773.12	1761.25
773.30	1662.95
773.47	1720.29
773.65	1595.37
773.83	1769.44
774.01	1703.91
774.18	1667.05
774.36	1720.29
774.54	1718.25
774.71	1804.26
774.89	1626.09
775.07	1628.14
775.24	1683.43
775.42	1679.33
775.60	1759.21
775.78	1697.77
775.95	1642.47
776.13	1613.80
776.31	1552.36
776.48	1665.00
776.66	1724.39
776.84	1679.33
777.01	1722.34
777.19	1708.01
777.37	1581.03
777.54	1751.01
777.72	1816.55
777.90	1728.49
778.07	1593.32
778.25	1851.36
778.43	1781.73
778.60	1738.73
778.78	1828.84
778.96	1802.21
779.13	1611.75
779.31	1730.53
779.49	1587.18
779.66	1726.44
779.84	1730.53
780.01	1693.67
780.19	1630.18
780.37	1798.12
780.54	1648.61
780.72	1687.53
780.90	1767.40
781.07	1718.25
781.25	1648.61
781.43	1765.35
781.60	1714.15
781.78	1816.55
781.95	1648.61
782.13	1642.47
782.31	1665.00
782.48	1597.42
782.66	1757.16
782.83	1830.88
783.01	1738.73
783.19	1712.10
783.36	1724.39
783.54	1685.48
783.72	1693.67
783.89	1779.68
784.07	1687.53
784.24	1800.16
784.42	1796.07
784.60	1683.43
784.77	1765.35
784.95	1615.85
785.12	1660.90
785.30	1658.85
785.47	1660.90
785.65	1716.20
785.83	1751.01
786.00	1665.00
786.18	1654.76
786.35	1632.23
786.53	1640.42
786.71	1783.78
786.88	1839.08
787.06	1759.21
787.23	1693.67
787.41	1626.09
787.58	1767.40
787.76	1667.05
787.94	1767.40
788.11	1685.48
788.29	1689.57
788.46	1701.86
788.64	1669.09
788.81	1660.90
788.99	1689.57
789.16	1701.86
789.34	1667.05
789.52	1652.71
789.69	1675.24
789.87	1660.90
790.04	1693.67
790.22	1710.05
790.39	1746.92
790.57	1662.95
790.74	1650.66
790.92	1724.39
791.09	1679.33
791.27	1722.34
791.44	1751.01
791.62	1724.39
791.79	1710.05
791.97	1648.61
792.15	1894.37
792.32	1720.29
792.50	1771.49
792.67	1798.12
792.85	1824.74
793.02	1697.77
793.20	1658.85
793.37	1681.38
793.55	1736.68
793.72	1691.62
793.90	1763.30
794.07	1624.04
794.25	1757.16
794.42	1705.96
794.60	1722.34
794.77	1755.11
794.95	1724.39
795.12	1816.55
795.30	1693.67
795.47	1587.18
795.65	1845.22
795.82	1667.05
796.00	1648.61
796.17	1714.15
796.34	1703.91
796.52	1722.34
796.69	1832.93
796.87	1699.81
797.04	1705.96
797.22	1775.59
797.39	1650.66
797.57	1699.81
797.74	1753.06
797.92	1785.83
798.09	1722.34
798.27	1751.01
798.44	1679.33
798.62	1607.66
798.79	1785.83
798.96	1730.53
799.14	1734.63
799.31	1863.65
799.49	1650.66
799.66	1669.09
799.84	1720.29
800.01	1607.66
800.19	1626.09
800.36	1640.42
800.53	1712.10
800.71	1701.86
800.88	1798.12
801.06	1662.95
801.23	1705.96
801.41	1742.82
801.58	1708.01
801.75	1689.57
801.93	1775.59
802.10	1730.53
802.28	1722.34
802.45	1654.76
802.63	1806.31
802.80	1798.12
802.97	1710.05
803.15	1708.01
803.32	1724.39
803.50	1636.33
803.67	1705.96
803.84	1656.81
804.02	1681.38
804.19	1656.81
804.37	1560.55
804.54	1665.00
804.71	1695.72
804.89	1695.72
805.06	1644.52
805.24	1695.72
805.41	1677.29
805.58	1626.09
805.76	1796.07
805.93	1667.05
806.10	1755.11
806.28	1822.69
806.45	1675.24
806.63	1722.34
806.80	1689.57
806.97	1742.82
807.15	1714.15
807.32	1710.05
807.49	1779.68
807.67	1615.85
807.84	1724.39
808.01	1703.91
808.19	1871.84
808.36	1779.68
808.54	1697.77
808.71	1665.00
808.88	1771.49
809.06	1789.92
809.23	1830.88
809.40	1691.62
809.58	1703.91
809.75	1720.29
809.92	1681.38
810.10	1832.93
810.27	1720.29
810.44	1744.87
810.62	1763.30
810.79	1779.68
810.96	1675.24
811.14	1695.72
811.31	1634.28
811.48	1771.49
811.66	1757.16
811.83	1816.55
812.00	1753.06
812.18	1763.30
812.35	1806.31
812.52	1669.09
812.69	1673.19
812.87	1679.33
813.04	1605.61
813.21	1697.77
813.39	1634.28
813.56	1658.85
813.73	1751.01
813.91	1697.77
814.08	1834.98
814.25	1677.29
814.42	1603.56
814.60	1658.85
814.77	1767.40
814.94	1679.33
815.12	1660.90
815.29	1720.29
815.46	1665.00
815.63	1771.49
815.81	1658.85
815.98	1634.28
816.15	1703.91
816.33	1728.49
816.50	1728.49
816.67	1691.62
816.84	1634.28
817.02	1591.27
817.19	1652.71
817.36	1705.96
817.53	1775.59
817.71	1697.77
817.88	1746.92
818.05	1644.52
818.22	1722.34
818.40	1837.03
818.57	1714.15
818.74	1705.96
818.91	1759.21
819.09	1718.25
819.26	1748.97
819.43	1660.90
819.60	1650.66
819.78	1740.77
819.95	1796.07
820.12	1636.33
820.29	1816.55
820.47	1736.68
820.64	1665.00
820.81	1603.56
820.98	1685.48
821.15	1656.81
821.33	1714.15
821.50	1681.38
821.67	1716.20
821.84	1732.58
822.02	1763.30
822.19	1849.32
822.36	1697.77
822.53	1685.48
822.70	1652.71
822.88	1675.24
823.05	1722.34
823.22	1736.68
823.39	1730.53
823.56	1705.96
823.74	1763.30
823.91	1726.44
824.08	1640.42
824.25	1542.12
824.42	1757.16
824.60	1665.00
824.77	1726.44
824.94	1689.57
825.11	1765.35
825.28	1628.14
825.45	1705.96
825.63	1724.39
825.80	1617.90
825.97	1761.25
826.14	1714.15
826.31	1671.14
826.48	1732.58
826.66	1638.38
826.83	1763.30
827.00	1712.10
827.17	1658.85
827.34	1726.44
827.51	1632.23
827.69	1701.86
827.86	1578.98
828.03	1740.77
828.20	1755.11
828.37	1734.63
828.54	1738.73
828.71	1679.33
828.89	1802.21
829.06	1718.25
829.23	1665.00
829.40	1710.05
829.57	1691.62
829.74	1714.15
829.91	1626.09
830.09	1619.94
830.26	1765.35
830.43	1843.17
830.60	1615.85
830.77	1755.11
830.94	1779.68
831.11	1705.96
831.28	1755.11
831.46	1783.78
831.63	1626.09
831.80	1759.21
831.97	1693.67
832.14	1742.82
832.31	1726.44
832.48	1677.29
832.65	1675.24
832.82	1732.58
832.99	1720.29
833.17	1718.25
833.34	1763.30
833.51	1751.01
833.68	1599.46
833.85	1742.82
834.02	1652.71
834.19	1697.77
834.36	1699.81
834.53	1703.91
834.70	1789.92
834.87	1806.31
835.04	1636.33
835.22	1638.38
835.39	1642.47
835.56	1605.61
835.73	1628.14
835.90	1800.16
836.07	1705.96
836.24	1796.07
836.41	1681.38
836.58	1652.71
836.75	1740.77
836.92	1712.10
837.09	1630.18
837.26	1730.53
837.43	1708.01
837.60	1687.53
837.77	1699.81
837.94	1751.01
838.12	1810.40
838.29	1681.38
838.46	1628.14
838.63	1624.04
838.80	1742.82
838.97	1714.15
839.14	1705.96
839.31	1679.33
839.48	1681.38
839.65	1714.15
839.82	1699.81
839.99	1703.91
840.16	1679.33
840.33	1650.66
840.50	1734.63
840.67	1677.29
840.84	1570.79
841.01	1718.25
841.18	1697.77
841.35	1658.85
841.52	1761.25
841.69	1781.73
841.86	1695.72
842.03	1695.72
842.20	1822.69
842.37	1722.34
842.54	1740.77
842.71	1681.38
842.88	1546.22
843.05	1705.96
843.22	1658.85
843.39	1732.58
843.56	1697.77
843.73	1718.25
843.90	1732.58
844.07	1658.85
844.24	1677.29
844.41	1759.21
844.58	1701.86
844.75	1734.63
844.92	1763.30
845.09	1716.20
845.26	1658.85
845.43	1740.77
845.60	1640.42
845.77	1751.01
845.94	1693.67
846.10	1812.45
846.27	1652.71
846.44	1681.38
846.61	1703.91
846.78	1667.05
846.95	1751.01
847.12	1718.25
847.29	1708.01
847.46	1626.09
847.63	1806.31
847.80	1712.10
847.97	1675.24
848.14	1826.79
848.31	1691.62
848.48	1593.32
848.65	1646.57
848.82	1662.95
848.98	1847.27
849.15	1785.83
849.32	1826.79
849.49	1656.81
849.66	1640.42
849.83	1738.73
850.00	1650.66
850.17	1759.21
850.34	1724.39
850.51	1652.71
850.68	1660.90
850.85	1734.63
851.01	1738.73
851.18	1773.54
851.35	1665.00
851.52	1693.67
851.69	1785.83
851.86	1548.26
852.03	1781.73
852.20	1806.31
852.37	1722.34
852.53	1603.56
852.70	1671.14
852.87	1662.95
853.04	1746.92
853.21	1646.57
853.38	1755.11
853.55	1779.68
853.72	1771.49
853.89	1648.61
854.05	1714.15
854.22	1669.09
854.39	1632.23
854.56	1693.67
854.73	1789.92
854.90	1630.18
855.07	1708.01
855.23	1703.91
855.40	1699.81
855.57	1710.05
855.74	1527.78
855.91	1884.13
856.08	1667.05
856.25	1671.14
856.41	1708.01
856.58	1679.33
856.75	1775.59
856.92	1708.01
857.09	1738.73
857.26	1658.85
857.42	1677.29
857.59	1781.73
857.76	1746.92
857.93	1740.77
858.10	1740.77
858.27	1562.60
858.43	1732.58
858.60	1753.06
858.77	1566.70
858.94	1697.77
859.11	1779.68
859.27	1603.56
859.44	1722.34
859.61	1845.22
859.78	1757.16
859.95	1677.29
860.12	1673.19
860.28	1845.22
860.45	1814.50
860.62	1652.71
860.79	1718.25
860.95	1644.52
861.12	1648.61
861.29	1665.00
861.46	1703.91
861.63	1673.19
861.79	1759.21
861.96	1656.81
862.13	1687.53
862.30	1761.25
862.47	1751.01
862.63	1636.33
862.80	1736.68
862.97	1767.40
863.14	1785.83
863.30	1701.86
863.47	1632.23
863.64	1779.68
863.81	1699.81
863.97	1691.62
864.14	1665.00
864.31	1624.04
864.48	1701.86
864.65	1708.01
864.81	1751.01
864.98	1822.69
865.15	1738.73
865.32	1773.54
865.48	1767.40
865.65	1816.55
865.82	1726.44
865.98	1630.18
866.15	1755.11
866.32	1687.53
866.49	1695.72
866.65	1822.69
866.82	1736.68
866.99	1677.29
867.16	1677.29
867.32	1646.57
867.49	1691.62
867.66	1695.72
867.83	1705.96
867.99	1636.33
868.16	1712.10
868.33	1615.85
868.49	1689.57
868.66	1654.76
868.83	1794.02
868.99	1746.92
869.16	1691.62
869.33	1775.59
869.50	1785.83
869.66	1687.53
869.83	1705.96
870.00	1640.42
870.16	1710.05
870.33	1675.24
870.50	1693.67
870.66	1769.44
870.83	1789.92
871.00	1685.48
871.17	1677.29
871.33	1742.82
871.50	1718.25
871.67	1679.33
871.83	1652.71
872.00	1839.08
872.17	1660.90
872.33	1796.07
872.50	1798.12
872.67	1660.90
872.83	1681.38
873.00	1734.63
873.17	1730.53
873.33	1703.91
873.50	1734.63
873.67	1705.96
873.83	1656.81
874.00	1708.01
874.16	1761.25
874.33	1679.33
874.50	1630.18
874.66	1726.44
874.83	1712.10
875.00	1708.01
875.16	1773.54
875.33	1748.97
875.50	1607.66
875.66	1681.38
875.83	1703.91
875.99	1767.40
876.16	1710.05
876.33	1671.14
876.49	1740.77
876.66	1789.92
876.83	1665.00
876.99	1591.27
877.16	1691.62
877.32	1738.73
877.49	1718.25
877.66	1619.94
877.82	1755.11
877.99	1689.57
878.15	1771.49
878.32	1787.88
878.49	1771.49
878.65	1660.90
878.82	1779.68
878.98	1636.33
879.15	1794.02
879.32	1773.54
879.48	1777.64
879.65	1648.61
879.81	1687.53
879.98	1716.20
880.15	1669.09
880.31	1679.33
880.48	1681.38
880.64	1738.73
880.81	1705.96
880.97	1783.78
881.14	1787.88
881.31	1624.04
881.47	1822.69
881.64	1642.47
881.80	1640.42
881.97	1708.01
882.13	1728.49
882.30	1570.79
882.47	1652.71
882.63	1681.38
882.80	1656.81
882.96	1724.39
883.13	1740.77
883.29	1660.90
883.46	1708.01
883.62	1884.13
883.79	1742.82
883.95	1734.63
884.12	1691.62
884.29	1779.68
884.45	1697.77
884.62	1808.36
884.78	1638.38
884.95	1789.92
885.11	1689.57
885.28	1697.77
885.44	1695.72
885.61	1710.05
885.77	1705.96
885.94	1701.86
886.10	1732.58
886.27	1685.48
886.43	1837.03
886.60	1755.11
886.76	1646.57
886.93	1693.67
887.09	1728.49
887.26	1759.21
887.42	1746.92
887.59	1718.25
887.75	1810.40
887.92	1748.97
888.08	1761.25
888.25	1808.36
888.41	1818.60
888.58	1691.62
888.74	1654.76
888.91	1687.53
>>>>>End Processed Spectral Data<<<<<
