SpectraSuite Data File
++++++++++++++++++++++++++++++++++++
Date: Mon Jun 06 13:09:37 CEST 2016
User: root
Dark Spectrum Present: No
Reference Spectrum Present: No
Number of Sampled Component Spectra: 1
Spectrometers: USB4C02835
Integration Time (usec): 100000 (USB4C02835)
Spectra Averaged: 1 (USB4C02835)
Boxcar Smoothing: 0 (USB4C02835)
Correct for Electrical Dark: No (USB4C02835)
Strobe/Lamp Enabled: No (USB4C02835)
Correct for Detector Non-linearity: No (USB4C02835)
Correct for Stray Light: No (USB4C02835)
Number of Pixels in Processed Spectrum: 3648
>>>>>Begin Processed Spectral Data<<<<<
177.47	1445.87
177.69	1445.87
177.91	1445.87
178.13	1402.86
178.36	1566.70
178.58	1642.47
178.80	1740.77
179.02	1669.09
179.24	1624.04
179.46	1675.24
179.68	1736.68
179.90	1624.04
180.13	1705.96
180.35	1669.09
180.57	1652.71
180.79	1751.01
181.01	1718.25
181.23	1710.05
181.45	1728.49
181.67	1681.38
181.90	1814.50
182.12	1701.86
182.34	1624.04
182.56	1683.43
182.78	1689.57
183.00	1626.09
183.22	1689.57
183.44	1646.57
183.66	1787.88
183.89	1841.12
184.11	1691.62
184.33	1742.82
184.55	1732.58
184.77	1703.91
184.99	1708.01
185.21	1705.96
185.43	1863.65
185.65	1708.01
185.87	1675.24
186.10	1808.36
186.32	1834.98
186.54	1724.39
186.76	1730.53
186.98	1732.58
187.20	1761.25
187.42	1667.05
187.64	1705.96
187.86	1718.25
188.08	1806.31
188.30	1710.05
188.52	1689.57
188.75	1789.92
188.97	1683.43
189.19	1665.00
189.41	1640.42
189.63	1730.53
189.85	1730.53
190.07	1630.18
190.29	1671.14
190.51	1712.10
190.73	1533.93
190.95	1767.40
191.17	1816.55
191.39	1675.24
191.61	1677.29
191.84	1636.33
192.06	1689.57
192.28	1675.24
192.50	1859.56
192.72	1755.11
192.94	1658.85
193.16	1705.96
193.38	1746.92
193.60	1576.94
193.82	1621.99
194.04	1753.06
194.26	1701.86
194.48	1736.68
194.70	1710.05
194.92	1652.71
195.14	1812.45
195.36	1650.66
195.58	1722.34
195.80	1728.49
196.02	1710.05
196.24	1714.15
196.46	1619.94
196.69	1658.85
196.91	1834.98
197.13	1697.77
197.35	1675.24
197.57	1673.19
197.79	1804.26
198.01	1701.86
198.23	1777.64
198.45	1742.82
198.67	1621.99
198.89	1662.95
199.11	1724.39
199.33	1679.33
199.55	1650.66
199.77	1708.01
199.99	1808.36
200.21	1736.68
200.43	1687.53
200.65	1609.70
200.87	1570.79
201.09	1693.67
201.31	1665.00
201.53	1734.63
201.75	1671.14
201.97	1767.40
202.19	1667.05
202.41	1751.01
202.63	1802.21
202.85	1705.96
203.07	1701.86
203.29	1648.61
203.51	1624.04
203.73	1609.70
203.95	1880.04
204.17	1732.58
204.39	1695.72
204.61	1714.15
204.83	1601.51
205.05	1746.92
205.27	1806.31
205.49	1783.78
205.71	1685.48
205.93	1607.66
206.15	1675.24
206.37	1703.91
206.59	1738.73
206.81	1607.66
207.03	1538.02
207.25	1624.04
207.47	1732.58
207.69	1681.38
207.91	1757.16
208.13	1755.11
208.34	1654.76
208.56	1583.08
208.78	1710.05
209.00	1646.57
209.22	1714.15
209.44	1759.21
209.66	1687.53
209.88	1712.10
210.10	1675.24
210.32	1738.73
210.54	1716.20
210.76	1581.03
210.98	1767.40
211.20	1581.03
211.42	1849.32
211.64	1783.78
211.86	1753.06
212.08	1767.40
212.30	1708.01
212.52	1779.68
212.74	1652.71
212.96	1751.01
213.17	1771.49
213.39	1718.25
213.61	1814.50
213.83	1779.68
214.05	1656.81
214.27	1755.11
214.49	1699.81
214.71	1665.00
214.93	1656.81
215.15	1740.77
215.37	1730.53
215.59	1634.28
215.81	1691.62
216.03	1787.88
216.24	1732.58
216.46	1671.14
216.68	1693.67
216.90	1687.53
217.12	1744.87
217.34	1697.77
217.56	1734.63
217.78	1751.01
218.00	1695.72
218.22	1671.14
218.44	1652.71
218.66	1746.92
218.87	1837.03
219.09	1673.19
219.31	1710.05
219.53	1789.92
219.75	1646.57
219.97	1710.05
220.19	1779.68
220.41	1662.95
220.63	1716.20
220.85	1720.29
221.06	1607.66
221.28	1800.16
221.50	1734.63
221.72	1732.58
221.94	1613.80
222.16	1701.86
222.38	1759.21
222.60	1734.63
222.82	1716.20
223.03	1703.91
223.25	1705.96
223.47	1767.40
223.69	1859.56
223.91	1777.64
224.13	1677.29
224.35	1652.71
224.57	1816.55
224.78	1689.57
225.00	1574.89
225.22	1683.43
225.44	1730.53
225.66	1683.43
225.88	1693.67
226.10	1712.10
226.32	1667.05
226.53	1720.29
226.75	1640.42
226.97	1644.52
227.19	1695.72
227.41	1673.19
227.63	1619.94
227.85	1548.26
228.06	1714.15
228.28	1703.91
228.50	1730.53
228.72	1601.51
228.94	1691.62
229.16	1679.33
229.37	1601.51
229.59	1679.33
229.81	1705.96
230.03	1624.04
230.25	1626.09
230.47	1638.38
230.69	1679.33
230.90	1738.73
231.12	1681.38
231.34	1757.16
231.56	1730.53
231.78	1734.63
232.00	1734.63
232.21	1667.05
232.43	1691.62
232.65	1587.18
232.87	1755.11
233.09	1634.28
233.30	1640.42
233.52	1794.02
233.74	1658.85
233.96	1679.33
234.18	1669.09
234.40	1675.24
234.61	1783.78
234.83	1646.57
235.05	1646.57
235.27	1814.50
235.49	1832.93
235.70	1746.92
235.92	1708.01
236.14	1718.25
236.36	1914.85
236.58	1701.86
236.79	1730.53
237.01	1726.44
237.23	1673.19
237.45	1724.39
237.67	1681.38
237.88	1763.30
238.10	1816.55
238.32	1687.53
238.54	1642.47
238.76	1660.90
238.97	1619.94
239.19	1626.09
239.41	1730.53
239.63	1742.82
239.85	1636.33
240.06	1665.00
240.28	1665.00
240.50	1742.82
240.72	1703.91
240.93	1658.85
241.15	1767.40
241.37	1646.57
241.59	1800.16
241.81	1673.19
242.02	1708.01
242.24	1796.07
242.46	1808.36
242.68	1630.18
242.89	1687.53
243.11	1710.05
243.33	1601.51
243.55	1701.86
243.76	1755.11
243.98	1691.62
244.20	1714.15
244.42	1691.62
244.64	1759.21
244.85	1660.90
245.07	1644.52
245.29	1771.49
245.51	1718.25
245.72	1705.96
245.94	1789.92
246.16	1740.77
246.38	1787.88
246.59	1677.29
246.81	1658.85
247.03	1705.96
247.24	1587.18
247.46	1677.29
247.68	1683.43
247.90	1693.67
248.11	1667.05
248.33	1783.78
248.55	1636.33
248.77	1708.01
248.98	1757.16
249.20	1779.68
249.42	1652.71
249.64	1710.05
249.85	1701.86
250.07	1615.85
250.29	1720.29
250.50	1746.92
250.72	1550.31
250.94	1675.24
251.16	1810.40
251.37	1755.11
251.59	1697.77
251.81	1716.20
252.02	1714.15
252.24	1583.08
252.46	1736.68
252.68	1667.05
252.89	1671.14
253.11	1576.94
253.33	1746.92
253.54	1789.92
253.76	1630.18
253.98	1660.90
254.20	1673.19
254.41	1607.66
254.63	1669.09
254.85	1619.94
255.06	1662.95
255.28	1734.63
255.50	1687.53
255.71	1656.81
255.93	1630.18
256.15	1669.09
256.36	1789.92
256.58	1609.70
256.80	1667.05
257.02	1722.34
257.23	1658.85
257.45	1642.47
257.67	1728.49
257.88	1658.85
258.10	1671.14
258.32	1734.63
258.53	1746.92
258.75	1744.87
258.97	1652.71
259.18	1646.57
259.40	1746.92
259.62	1804.26
259.83	1744.87
260.05	1722.34
260.27	1984.48
260.48	1785.83
260.70	1658.85
260.92	1742.82
261.13	1650.66
261.35	1759.21
261.57	1683.43
261.78	1640.42
262.00	1624.04
262.22	1701.86
262.43	1603.56
262.65	1673.19
262.86	1712.10
263.08	1781.73
263.30	1656.81
263.51	1562.60
263.73	1634.28
263.95	1767.40
264.16	1574.89
264.38	1650.66
264.60	1708.01
264.81	1671.14
265.03	1828.84
265.25	1751.01
265.46	1615.85
265.68	1751.01
265.89	1744.87
266.11	1658.85
266.33	1685.48
266.54	1763.30
266.76	1738.73
266.98	1708.01
267.19	1783.78
267.41	1675.24
267.62	1669.09
267.84	1597.42
268.06	1708.01
268.27	1728.49
268.49	1751.01
268.70	1763.30
268.92	1671.14
269.14	1634.28
269.35	1626.09
269.57	1665.00
269.79	1673.19
270.00	1605.61
270.22	1763.30
270.43	1689.57
270.65	1540.07
270.87	1744.87
271.08	1701.86
271.30	1677.29
271.51	1691.62
271.73	1697.77
271.95	1757.16
272.16	1703.91
272.38	1740.77
272.59	1669.09
272.81	1785.83
273.02	1726.44
273.24	1755.11
273.46	1730.53
273.67	1626.09
273.89	1681.38
274.10	1660.90
274.32	1734.63
274.54	1730.53
274.75	1769.44
274.97	1699.81
275.18	1826.79
275.40	1697.77
275.61	1681.38
275.83	1722.34
276.05	1689.57
276.26	1624.04
276.48	1722.34
276.69	1677.29
276.91	1634.28
277.12	1732.58
277.34	1736.68
277.55	1751.01
277.77	1701.86
277.99	1720.29
278.20	1574.89
278.42	1677.29
278.63	1624.04
278.85	1712.10
279.06	1591.27
279.28	1742.82
279.49	1791.97
279.71	1777.64
279.93	1759.21
280.14	1705.96
280.36	1687.53
280.57	1785.83
280.79	1761.25
281.00	1535.98
281.22	1656.81
281.43	1746.92
281.65	1562.60
281.86	1646.57
282.08	1695.72
282.29	1779.68
282.51	1644.52
282.73	1640.42
282.94	1658.85
283.16	1714.15
283.37	1785.83
283.59	1677.29
283.80	1734.63
284.02	1683.43
284.23	1812.45
284.45	1667.05
284.66	1669.09
284.88	1656.81
285.09	1703.91
285.31	1771.49
285.52	1685.48
285.74	1617.90
285.95	1765.35
286.17	1720.29
286.38	1712.10
286.60	1703.91
286.81	1652.71
287.03	1730.53
287.24	1656.81
287.46	1697.77
287.67	1691.62
287.89	1791.97
288.10	1667.05
288.32	1763.30
288.53	1841.12
288.75	1658.85
288.96	1769.44
289.18	1658.85
289.39	1724.39
289.61	1779.68
289.82	1761.25
290.04	1791.97
290.25	1671.14
290.47	1611.75
290.68	1701.86
290.90	1751.01
291.11	1712.10
291.33	1705.96
291.54	1669.09
291.76	1656.81
291.97	1687.53
292.18	1757.16
292.40	1703.91
292.61	1667.05
292.83	1810.40
293.04	1796.07
293.26	1648.61
293.47	1677.29
293.69	1712.10
293.90	1648.61
294.12	1841.12
294.33	1759.21
294.55	1693.67
294.76	1763.30
294.97	1777.64
295.19	1849.32
295.40	1730.53
295.62	1673.19
295.83	1763.30
296.05	1703.91
296.26	1763.30
296.48	1685.48
296.69	1699.81
296.90	1667.05
297.12	1703.91
297.33	1783.78
297.55	1701.86
297.76	1691.62
297.98	1718.25
298.19	1669.09
298.41	1742.82
298.62	1685.48
298.83	1687.53
299.05	1708.01
299.26	1736.68
299.48	1656.81
299.69	1718.25
299.90	1671.14
300.12	1671.14
300.33	1798.12
300.55	1673.19
300.76	1689.57
300.98	1599.46
301.19	1742.82
301.40	1683.43
301.62	1644.52
301.83	1718.25
302.05	1632.23
302.26	1640.42
302.47	1720.29
302.69	1613.80
302.90	1714.15
303.12	1560.55
303.33	1710.05
303.54	1724.39
303.76	1687.53
303.97	1800.16
304.19	1718.25
304.40	1730.53
304.61	1662.95
304.83	1789.92
305.04	1787.88
305.26	1742.82
305.47	1699.81
305.68	1753.06
305.90	1595.37
306.11	1759.21
306.33	1693.67
306.54	1644.52
306.75	1671.14
306.97	1621.99
307.18	1632.23
307.39	1685.48
307.61	1740.77
307.82	1681.38
308.04	1771.49
308.25	1640.42
308.46	1705.96
308.68	1673.19
308.89	1771.49
309.10	1834.98
309.32	1677.29
309.53	1615.85
309.74	1687.53
309.96	1630.18
310.17	1689.57
310.39	1624.04
310.60	1710.05
310.81	1761.25
311.03	1636.33
311.24	1765.35
311.45	1742.82
311.67	1830.88
311.88	1701.86
312.09	1755.11
312.31	1660.90
312.52	1693.67
312.73	1660.90
312.95	1607.66
313.16	1708.01
313.37	1785.83
313.59	1771.49
313.80	1755.11
314.01	1804.26
314.23	1669.09
314.44	1656.81
314.65	1640.42
314.87	1578.98
315.08	1658.85
315.29	1634.28
315.51	1656.81
315.72	1593.32
315.93	1775.59
316.15	1748.97
316.36	1626.09
316.57	1693.67
316.79	1724.39
317.00	1658.85
317.21	1685.48
317.43	1757.16
317.64	1724.39
317.85	1665.00
318.07	1648.61
318.28	1710.05
318.49	1771.49
318.70	1865.70
318.92	1765.35
319.13	1812.45
319.34	1843.17
319.56	1777.64
319.77	1763.30
319.98	1734.63
320.20	1812.45
320.41	1773.54
320.62	1746.92
320.83	1662.95
321.05	1830.88
321.26	1714.15
321.47	1703.91
321.69	1816.55
321.90	1632.23
322.11	1589.22
322.32	1669.09
322.54	1767.40
322.75	1650.66
322.96	1822.69
323.18	1574.89
323.39	1609.70
323.60	1626.09
323.81	1810.40
324.03	1687.53
324.24	1736.68
324.45	1677.29
324.66	1691.62
324.88	1812.45
325.09	1769.44
325.30	1716.20
325.52	1650.66
325.73	1720.29
325.94	1624.04
326.15	1611.75
326.37	1697.77
326.58	1724.39
326.79	1871.84
327.00	1624.04
327.22	1730.53
327.43	1724.39
327.64	1619.94
327.85	1660.90
328.07	1722.34
328.28	1820.64
328.49	1677.29
328.70	1685.48
328.92	1724.39
329.13	1691.62
329.34	1673.19
329.55	1798.12
329.76	1822.69
329.98	1658.85
330.19	1773.54
330.40	1724.39
330.61	1712.10
330.83	1763.30
331.04	1740.77
331.25	1687.53
331.46	1652.71
331.68	1621.99
331.89	1736.68
332.10	1767.40
332.31	1615.85
332.52	1720.29
332.74	1765.35
332.95	1640.42
333.16	1761.25
333.37	1767.40
333.58	1705.96
333.80	1662.95
334.01	1656.81
334.22	1722.34
334.43	1712.10
334.64	1675.24
334.86	1677.29
335.07	1677.29
335.28	1748.97
335.49	1662.95
335.70	1812.45
335.92	1695.72
336.13	1841.12
336.34	1710.05
336.55	1699.81
336.76	1757.16
336.98	1626.09
337.19	1652.71
337.40	1761.25
337.61	1830.88
337.82	1708.01
338.04	1740.77
338.25	1648.61
338.46	1734.63
338.67	1705.96
338.88	1648.61
339.09	1613.80
339.31	1640.42
339.52	1632.23
339.73	1669.09
339.94	1755.11
340.15	1708.01
340.36	1617.90
340.58	1630.18
340.79	1628.14
341.00	1742.82
341.21	1585.13
341.42	1812.45
341.63	1587.18
341.85	1689.57
342.06	1728.49
342.27	1634.28
342.48	1791.97
342.69	1720.29
342.90	1724.39
343.12	1759.21
343.33	1744.87
343.54	1705.96
343.75	1849.32
343.96	1658.85
344.17	1638.38
344.38	1730.53
344.60	1646.57
344.81	1695.72
345.02	1734.63
345.23	1687.53
345.44	1771.49
345.65	1705.96
345.86	1683.43
346.07	1685.48
346.29	1699.81
346.50	1724.39
346.71	1673.19
346.92	1767.40
347.13	1845.22
347.34	1673.19
347.55	1714.15
347.76	1742.82
347.98	1677.29
348.19	1638.38
348.40	1714.15
348.61	1722.34
348.82	1871.84
349.03	1677.29
349.24	1642.47
349.45	1826.79
349.66	1673.19
349.88	1675.24
350.09	1701.86
350.30	1722.34
350.51	1656.81
350.72	1632.23
350.93	1695.72
351.14	1689.57
351.35	1808.36
351.56	1695.72
351.77	1736.68
351.99	1720.29
352.20	1765.35
352.41	1808.36
352.62	1615.85
352.83	1708.01
353.04	1701.86
353.25	1662.95
353.46	1751.01
353.67	1734.63
353.88	1589.22
354.09	1675.24
354.30	1626.09
354.52	1742.82
354.73	1724.39
354.94	1636.33
355.15	1675.24
355.36	1814.50
355.57	1628.14
355.78	1738.73
355.99	1697.77
356.20	1728.49
356.41	1755.11
356.62	1781.73
356.83	1656.81
357.04	1789.92
357.25	1667.05
357.46	1689.57
357.68	1626.09
357.89	1640.42
358.10	1656.81
358.31	1699.81
358.52	1708.01
358.73	1683.43
358.94	1654.76
359.15	1570.79
359.36	1714.15
359.57	1771.49
359.78	1761.25
359.99	1689.57
360.20	1617.90
360.41	1695.72
360.62	1722.34
360.83	1714.15
361.04	1703.91
361.25	1720.29
361.46	1841.12
361.67	1746.92
361.88	1718.25
362.09	1763.30
362.30	1689.57
362.51	1636.33
362.72	1705.96
362.93	1730.53
363.14	1716.20
363.35	1669.09
363.56	1705.96
363.78	1775.59
363.99	1718.25
364.20	1677.29
364.41	1742.82
364.62	1787.88
364.83	1685.48
365.04	1722.34
365.25	1708.01
365.46	1802.21
365.67	1630.18
365.88	1617.90
366.09	1748.97
366.30	1667.05
366.51	1765.35
366.72	1687.53
366.93	1769.44
367.14	1734.63
367.35	1777.64
367.56	1732.58
367.77	1783.78
367.98	1658.85
368.18	1746.92
368.39	1771.49
368.60	1691.62
368.81	1767.40
369.02	1753.06
369.23	1722.34
369.44	1630.18
369.65	1701.86
369.86	1652.71
370.07	1652.71
370.28	1683.43
370.49	1689.57
370.70	1673.19
370.91	1601.51
371.12	1589.22
371.33	1761.25
371.54	1703.91
371.75	1748.97
371.96	1607.66
372.17	1677.29
372.38	1671.14
372.59	1779.68
372.80	1689.57
373.01	1665.00
373.22	1712.10
373.43	1730.53
373.64	1646.57
373.85	1716.20
374.06	1794.02
374.26	1757.16
374.47	1693.67
374.68	1802.21
374.89	1675.24
375.10	1634.28
375.31	1761.25
375.52	1654.76
375.73	1691.62
375.94	1607.66
376.15	1773.54
376.36	1705.96
376.57	1695.72
376.78	1718.25
376.99	1699.81
377.20	1757.16
377.40	1708.01
377.61	1886.18
377.82	1716.20
378.03	1705.96
378.24	1691.62
378.45	1695.72
378.66	1675.24
378.87	1644.52
379.08	1683.43
379.29	1736.68
379.50	1783.78
379.71	1646.57
379.91	1798.12
380.12	1697.77
380.33	1734.63
380.54	1748.97
380.75	1726.44
380.96	1738.73
381.17	1730.53
381.38	1640.42
381.59	1714.15
381.80	1660.90
382.00	1847.27
382.21	1751.01
382.42	1841.12
382.63	1873.89
382.84	1781.73
383.05	1789.92
383.26	1845.22
383.47	1710.05
383.68	1759.21
383.88	1761.25
384.09	1726.44
384.30	1800.16
384.51	1736.68
384.72	1681.38
384.93	1609.70
385.14	1740.77
385.35	1761.25
385.55	1640.42
385.76	1794.02
385.97	1677.29
386.18	1593.32
386.39	1685.48
386.60	1636.33
386.81	1804.26
387.02	1587.18
387.22	1654.76
387.43	1806.31
387.64	1802.21
387.85	1804.26
388.06	2234.33
388.27	4249.54
388.48	6662.04
388.68	8316.80
388.89	9559.92
389.10	9852.78
389.31	8525.69
389.52	7718.79
389.73	6719.39
389.93	6266.78
390.14	5769.13
390.35	5222.32
390.56	4673.46
390.77	3809.22
390.98	3094.48
391.18	2389.98
391.39	2168.80
391.60	1945.57
391.81	1830.88
392.02	1699.81
392.23	1867.75
392.43	1714.15
392.64	1767.40
392.85	1683.43
393.06	1832.93
393.27	1767.40
393.47	1662.95
393.68	1687.53
393.89	1665.00
394.10	1697.77
394.31	1617.90
394.52	1589.22
394.72	1695.72
394.93	1775.59
395.14	1589.22
395.35	1714.15
395.56	1650.66
395.76	1656.81
395.97	1841.12
396.18	1861.60
396.39	1871.84
396.60	2037.73
396.80	1839.08
397.01	1853.41
397.22	1781.73
397.43	1843.17
397.64	1671.14
397.84	1751.01
398.05	1810.40
398.26	1734.63
398.47	1828.84
398.67	1765.35
398.88	1722.34
399.09	1800.16
399.30	1693.67
399.51	1697.77
399.71	1611.75
399.92	1724.39
400.13	1687.53
400.34	1681.38
400.54	1699.81
400.75	1824.74
400.96	1794.02
401.17	1796.07
401.37	1767.40
401.58	1687.53
401.79	1746.92
402.00	1951.71
402.21	2074.59
402.41	1986.53
402.62	1957.86
402.83	2025.44
403.04	2011.11
403.24	2074.59
403.45	1802.21
403.66	1884.13
403.87	1937.38
404.07	1880.04
404.28	1910.75
404.49	1904.61
404.70	1791.97
404.90	1783.78
405.11	1669.09
405.32	1837.03
405.52	1730.53
405.73	1708.01
405.94	1634.28
406.15	1667.05
406.35	1693.67
406.56	1736.68
406.77	1779.68
406.98	1695.72
407.18	1730.53
407.39	1806.31
407.60	1662.95
407.80	1699.81
408.01	1681.38
408.22	1720.29
408.43	1642.47
408.63	1738.73
408.84	1757.16
409.05	1730.53
409.25	1701.86
409.46	1648.61
409.67	1730.53
409.88	1708.01
410.08	1718.25
410.29	1718.25
410.50	1826.79
410.70	1697.77
410.91	1605.61
411.12	1685.48
411.32	1628.14
411.53	1722.34
411.74	1763.30
411.95	1771.49
412.15	1742.82
412.36	1871.84
412.57	1701.86
412.77	1865.70
412.98	1718.25
413.19	1634.28
413.39	1685.48
413.60	1748.97
413.81	1810.40
414.01	1665.00
414.22	1789.92
414.43	1761.25
414.63	1687.53
414.84	1708.01
415.05	1660.90
415.25	1640.42
415.46	1738.73
415.67	1722.34
415.87	1710.05
416.08	1767.40
416.29	1566.70
416.49	1751.01
416.70	1710.05
416.91	1607.66
417.11	1681.38
417.32	1734.63
417.53	1789.92
417.73	1759.21
417.94	1656.81
418.15	1667.05
418.35	1708.01
418.56	1761.25
418.77	1857.51
418.97	1734.63
419.18	1697.77
419.38	1566.70
419.59	1726.44
419.80	1849.32
420.00	1673.19
420.21	1732.58
420.42	1726.44
420.62	1677.29
420.83	1712.10
421.04	1679.33
421.24	1652.71
421.45	1746.92
421.65	1716.20
421.86	1665.00
422.07	1775.59
422.27	1708.01
422.48	1744.87
422.69	1632.23
422.89	1642.47
423.10	1665.00
423.30	1619.94
423.51	1722.34
423.72	1761.25
423.92	1736.68
424.13	1660.90
424.33	1671.14
424.54	1748.97
424.75	1701.86
424.95	1843.17
425.16	1708.01
425.36	1646.57
425.57	1746.92
425.78	1746.92
425.98	1753.06
426.19	1603.56
426.39	1667.05
426.60	1726.44
426.81	1861.60
427.01	1652.71
427.22	1665.00
427.42	1585.13
427.63	1640.42
427.83	1718.25
428.04	1781.73
428.25	1759.21
428.45	1820.64
428.66	1769.44
428.86	1665.00
429.07	1734.63
429.28	1806.31
429.48	1685.48
429.69	1609.70
429.89	1695.72
430.10	1720.29
430.30	1773.54
430.51	1689.57
430.71	1636.33
430.92	1726.44
431.13	1716.20
431.33	1748.97
431.54	1763.30
431.74	1755.11
431.95	1746.92
432.15	1613.80
432.36	1736.68
432.56	1730.53
432.77	1826.79
432.98	1826.79
433.18	1798.12
433.39	1781.73
433.59	1685.48
433.80	1804.26
434.00	1841.12
434.21	1771.49
434.41	1665.00
434.62	1806.31
434.82	1683.43
435.03	1642.47
435.23	1708.01
435.44	1562.60
435.64	1669.09
435.85	1720.29
436.06	1763.30
436.26	1734.63
436.47	1730.53
436.67	1722.34
436.88	1779.68
437.08	1800.16
437.29	1757.16
437.49	1748.97
437.70	1783.78
437.90	1708.01
438.11	1869.80
438.31	1771.49
438.52	1806.31
438.72	1888.23
438.93	1824.74
439.13	1755.11
439.34	1796.07
439.54	1732.58
439.75	1759.21
439.95	1783.78
440.16	1804.26
440.36	1724.39
440.57	1746.92
440.77	1710.05
440.98	1789.92
441.18	1757.16
441.39	1662.95
441.59	1708.01
441.80	1787.88
442.00	1759.21
442.21	1787.88
442.41	1650.66
442.62	1791.97
442.82	1656.81
443.02	1744.87
443.23	1769.44
443.43	1734.63
443.64	1751.01
443.84	1628.14
444.05	1845.22
444.25	1726.44
444.46	1724.39
444.66	1757.16
444.87	1789.92
445.07	1632.23
445.28	1802.21
445.48	1861.60
445.69	1746.92
445.89	1873.89
446.09	1814.50
446.30	2033.63
446.50	2633.69
446.71	3772.36
446.91	4351.93
447.12	4743.10
447.32	4919.22
447.53	4294.59
447.73	3801.03
447.93	3530.70
448.14	3452.88
448.34	3100.62
448.55	2930.64
448.75	2893.78
448.96	2535.39
449.16	2396.12
449.36	2299.87
449.57	2054.11
449.77	1933.28
449.98	1718.25
450.18	1804.26
450.39	1808.36
450.59	1818.60
450.79	1744.87
451.00	1755.11
451.20	1779.68
451.41	1751.01
451.61	1718.25
451.81	1708.01
452.02	1769.44
452.22	1761.25
452.43	1665.00
452.63	1667.05
452.84	1753.06
453.04	1740.77
453.24	1703.91
453.45	1671.14
453.65	1740.77
453.86	1779.68
454.06	1767.40
454.26	1763.30
454.47	1652.71
454.67	1804.26
454.87	1746.92
455.08	1740.77
455.28	1779.68
455.49	1757.16
455.69	1683.43
455.89	1794.02
456.10	1806.31
456.30	1757.16
456.51	1705.96
456.71	1738.73
456.91	1734.63
457.12	1705.96
457.32	1826.79
457.52	1736.68
457.73	1736.68
457.93	1667.05
458.14	1675.24
458.34	1607.66
458.54	1662.95
458.75	1681.38
458.95	1734.63
459.15	1779.68
459.36	1773.54
459.56	1724.39
459.76	1853.41
459.97	1794.02
460.17	1722.34
460.37	1783.78
460.58	1685.48
460.78	1763.30
460.99	1755.11
461.19	1712.10
461.39	1748.97
461.60	1671.14
461.80	1787.88
462.00	1665.00
462.21	1728.49
462.41	1589.22
462.61	1689.57
462.82	1695.72
463.02	1728.49
463.22	1722.34
463.43	1748.97
463.63	1675.24
463.83	1810.40
464.04	1708.01
464.24	1681.38
464.44	1714.15
464.64	1746.92
464.85	1875.94
465.05	1794.02
465.25	1693.67
465.46	1701.86
465.66	1679.33
465.86	1802.21
466.07	1771.49
466.27	1742.82
466.47	1583.08
466.68	1650.66
466.88	1740.77
467.08	1679.33
467.29	1826.79
467.49	1714.15
467.69	1777.64
467.89	1787.88
468.10	1679.33
468.30	1732.58
468.50	1863.65
468.71	1730.53
468.91	1656.81
469.11	1824.74
469.31	1642.47
469.52	1738.73
469.72	1859.56
469.92	1923.04
470.13	1757.16
470.33	1726.44
470.53	1839.08
470.73	1984.48
470.94	2314.20
471.14	2314.20
471.34	2519.00
471.54	2295.77
471.75	2086.88
471.95	2201.57
472.15	2002.91
472.36	2054.11
472.56	2074.59
472.76	1996.77
472.96	1953.76
473.17	1873.89
473.37	1849.32
473.57	1759.21
473.77	1804.26
473.98	1798.12
474.18	1679.33
474.38	1888.23
474.58	1693.67
474.79	1683.43
474.99	1738.73
475.19	1732.58
475.39	1697.77
475.60	1693.67
475.80	1742.82
476.00	1712.10
476.20	1732.58
476.41	1753.06
476.61	1822.69
476.81	1689.57
477.01	1667.05
477.21	1818.60
477.42	1765.35
477.62	1771.49
477.82	1740.77
478.02	1687.53
478.23	1732.58
478.43	1615.85
478.63	1648.61
478.83	1628.14
479.03	1642.47
479.24	1726.44
479.44	1832.93
479.64	1669.09
479.84	1583.08
480.04	1710.05
480.25	1787.88
480.45	1644.52
480.65	1705.96
480.85	1779.68
481.06	1667.05
481.26	1740.77
481.46	1781.73
481.66	1714.15
481.86	1648.61
482.06	1757.16
482.27	1675.24
482.47	1746.92
482.67	1738.73
482.87	1710.05
483.07	1755.11
483.28	1728.49
483.48	1648.61
483.68	1658.85
483.88	1599.46
484.08	1634.28
484.29	1660.90
484.49	1652.71
484.69	1667.05
484.89	1800.16
485.09	1732.58
485.29	1763.30
485.50	1732.58
485.70	1734.63
485.90	1787.88
486.10	1765.35
486.30	1818.60
486.50	1798.12
486.71	1787.88
486.91	1734.63
487.11	1789.92
487.31	1675.24
487.51	1677.29
487.71	1689.57
487.91	1671.14
488.12	1636.33
488.32	1560.55
488.52	1685.48
488.72	1601.51
488.92	1787.88
489.12	1771.49
489.32	1808.36
489.53	1796.07
489.73	1603.56
489.93	1837.03
490.13	1693.67
490.33	1626.09
490.53	1701.86
490.73	1783.78
490.94	1685.48
491.14	1773.54
491.34	1851.36
491.54	2187.23
491.74	2529.24
491.94	2875.35
492.14	3004.37
492.34	2979.79
492.54	2826.20
492.75	2521.05
492.95	2428.89
493.15	2373.60
493.35	2254.81
493.55	2250.72
493.75	2168.80
493.95	2150.37
494.15	2000.87
494.35	1910.75
494.56	1845.22
494.76	1759.21
494.96	1730.53
495.16	1722.34
495.36	1751.01
495.56	1789.92
495.76	1781.73
495.96	1697.77
496.16	1634.28
496.36	1855.46
496.56	1710.05
496.77	1767.40
496.97	1736.68
497.17	1767.40
497.37	1699.81
497.57	1818.60
497.77	1740.77
497.97	1677.29
498.17	1691.62
498.37	1689.57
498.57	1716.20
498.77	1679.33
498.97	1804.26
499.17	1785.83
499.38	1757.16
499.58	1744.87
499.78	1806.31
499.98	1773.54
500.18	1708.01
500.38	1658.85
500.58	1865.70
500.78	2543.58
500.98	4546.49
501.18	5644.20
501.38	6791.06
501.58	7131.03
501.78	6655.90
501.98	5453.74
502.18	4825.01
502.38	4331.45
502.58	4143.04
502.78	3723.21
502.98	3698.63
503.18	3379.15
503.38	3190.74
503.59	2938.84
503.79	2600.92
503.99	2457.56
504.19	2332.64
504.39	2217.95
504.59	2176.99
504.79	2152.42
504.99	2064.35
505.19	1894.37
505.39	1892.32
505.59	2009.06
505.79	1828.84
505.99	1828.84
506.19	1791.97
506.39	1931.23
506.59	1689.57
506.79	1834.98
506.99	1791.97
507.19	1837.03
507.39	1765.35
507.59	1681.38
507.79	1716.20
507.99	1681.38
508.19	1695.72
508.39	1673.19
508.59	1708.01
508.79	1773.54
508.99	1841.12
509.19	1660.90
509.39	1822.69
509.59	1687.53
509.79	1671.14
509.99	1728.49
510.19	1789.92
510.39	1800.16
510.59	1730.53
510.79	1697.77
510.99	1734.63
511.19	1738.73
511.39	1828.84
511.59	1720.29
511.79	1785.83
511.99	1808.36
512.19	1847.27
512.38	1714.15
512.58	1662.95
512.78	1722.34
512.98	1732.58
513.18	1818.60
513.38	1712.10
513.58	1849.32
513.78	1691.62
513.98	1705.96
514.18	1718.25
514.38	1722.34
514.58	1814.50
514.78	1675.24
514.98	1681.38
515.18	1665.00
515.38	1705.96
515.58	1703.91
515.78	1744.87
515.98	1697.77
516.18	1773.54
516.38	1691.62
516.57	1669.09
516.77	1714.15
516.97	1802.21
517.17	1779.68
517.37	1607.66
517.57	1796.07
517.77	1677.29
517.97	1705.96
518.17	1779.68
518.37	1710.05
518.57	1705.96
518.77	1814.50
518.97	1714.15
519.16	1773.54
519.36	1761.25
519.56	1660.90
519.76	1763.30
519.96	1753.06
520.16	1804.26
520.36	1640.42
520.56	1839.08
520.76	1630.18
520.96	1732.58
521.16	1808.36
521.35	1837.03
521.55	1880.04
521.75	1826.79
521.95	1669.09
522.15	1744.87
522.35	1656.81
522.55	1697.77
522.75	1777.64
522.95	1738.73
523.14	1691.62
523.34	1718.25
523.54	1685.48
523.74	1763.30
523.94	1671.14
524.14	1650.66
524.34	1794.02
524.54	1783.78
524.73	1732.58
524.93	1818.60
525.13	1734.63
525.33	1669.09
525.53	1904.61
525.73	1826.79
525.93	1705.96
526.13	1660.90
526.32	1619.94
526.52	1751.01
526.72	1837.03
526.92	1648.61
527.12	1714.15
527.32	1662.95
527.52	1726.44
527.71	1765.35
527.91	1675.24
528.11	1746.92
528.31	1755.11
528.51	1660.90
528.71	1798.12
528.90	1728.49
529.10	1763.30
529.30	1689.57
529.50	1599.46
529.70	1740.77
529.90	1697.77
530.09	1738.73
530.29	1632.23
530.49	1687.53
530.69	1796.07
530.89	1669.09
531.09	1783.78
531.28	1697.77
531.48	1814.50
531.68	1748.97
531.88	1708.01
532.08	1736.68
532.28	1695.72
532.47	1746.92
532.67	1789.92
532.87	1732.58
533.07	1601.51
533.27	1701.86
533.46	1794.02
533.66	1705.96
533.86	1763.30
534.06	1751.01
534.26	1759.21
534.45	1722.34
534.65	1726.44
534.85	1712.10
535.05	1681.38
535.25	1806.31
535.44	1607.66
535.64	1779.68
535.84	1660.90
536.04	1677.29
536.24	1712.10
536.43	1632.23
536.63	1705.96
536.83	1722.34
537.03	1755.11
537.22	1691.62
537.42	1626.09
537.62	1791.97
537.82	1669.09
538.02	1783.78
538.21	1791.97
538.41	1882.08
538.61	1839.08
538.81	1751.01
539.00	1765.35
539.20	1673.19
539.40	1738.73
539.60	1767.40
539.79	1787.88
539.99	1710.05
540.19	1751.01
540.39	1628.14
540.58	1656.81
540.78	1751.01
540.98	1818.60
541.18	1775.59
541.37	1765.35
541.57	1714.15
541.77	1789.92
541.97	1712.10
542.16	1718.25
542.36	1730.53
542.56	1683.43
542.76	1910.75
542.95	1738.73
543.15	1746.92
543.35	1802.21
543.54	1722.34
543.74	1689.57
543.94	1814.50
544.14	1662.95
544.33	1751.01
544.53	1724.39
544.73	1687.53
544.93	1693.67
545.12	1669.09
545.32	1724.39
545.52	1710.05
545.71	1685.48
545.91	1632.23
546.11	1738.73
546.30	1710.05
546.50	1681.38
546.70	1734.63
546.90	1730.53
547.09	1593.32
547.29	1755.11
547.49	1798.12
547.68	1708.01
547.88	1693.67
548.08	1718.25
548.27	2191.33
548.47	1708.01
548.67	1720.29
548.87	1771.49
549.06	1693.67
549.26	1738.73
549.46	1789.92
549.65	1767.40
549.85	1744.87
550.05	1726.44
550.24	1644.52
550.44	1693.67
550.64	1832.93
550.83	1796.07
551.03	1748.97
551.23	1857.51
551.42	1767.40
551.62	1714.15
551.82	1783.78
552.01	1630.18
552.21	1816.55
552.41	1736.68
552.60	1880.04
552.80	1677.29
553.00	1710.05
553.19	1757.16
553.39	1767.40
553.59	1644.52
553.78	1751.01
553.98	1728.49
554.17	1644.52
554.37	1718.25
554.57	1816.55
554.76	1597.42
554.96	1646.57
555.16	1755.11
555.35	1710.05
555.55	1757.16
555.75	1740.77
555.94	1738.73
556.14	1689.57
556.33	1763.30
556.53	1714.15
556.73	1648.61
556.92	1785.83
557.12	1791.97
557.32	1808.36
557.51	1800.16
557.71	1800.16
557.90	1804.26
558.10	1828.84
558.30	1695.72
558.49	1742.82
558.69	1720.29
558.88	1767.40
559.08	1718.25
559.28	1712.10
559.47	1771.49
559.67	1763.30
559.86	1847.27
560.06	1763.30
560.26	1697.77
560.45	1712.10
560.65	1771.49
560.84	1789.92
561.04	1718.25
561.24	1839.08
561.43	1675.24
561.63	1779.68
561.82	1759.21
562.02	1726.44
562.22	1615.85
562.41	1722.34
562.61	1673.19
562.80	1656.81
563.00	1937.38
563.19	1775.59
563.39	1800.16
563.59	1738.73
563.78	1685.48
563.98	1638.38
564.17	1695.72
564.37	1656.81
564.56	1748.97
564.76	1687.53
564.96	1865.70
565.15	1804.26
565.35	1923.04
565.54	1763.30
565.74	1859.56
565.93	1810.40
566.13	1720.29
566.32	1794.02
566.52	1773.54
566.71	1724.39
566.91	1853.41
567.11	1697.77
567.30	1703.91
567.50	1755.11
567.69	1789.92
567.89	1714.15
568.08	1699.81
568.28	1691.62
568.47	1714.15
568.67	1746.92
568.86	1738.73
569.06	1783.78
569.25	1693.67
569.45	1621.99
569.64	1683.43
569.84	1646.57
570.04	1710.05
570.23	1687.53
570.43	1687.53
570.62	1740.77
570.82	1779.68
571.01	1652.71
571.21	1656.81
571.40	1722.34
571.60	1720.29
571.79	1771.49
571.99	1736.68
572.18	1730.53
572.38	1746.92
572.57	1722.34
572.77	1757.16
572.96	1875.94
573.16	1753.06
573.35	1785.83
573.55	1826.79
573.74	1773.54
573.94	1730.53
574.13	1757.16
574.33	1732.58
574.52	1775.59
574.71	1787.88
574.91	1826.79
575.10	1662.95
575.30	1755.11
575.49	1660.90
575.69	1705.96
575.88	1785.83
576.08	1742.82
576.27	1775.59
576.47	1703.91
576.66	1828.84
576.86	1851.36
577.05	1759.21
577.25	1755.11
577.44	1908.71
577.64	1673.19
577.83	1798.12
578.02	1734.63
578.22	1832.93
578.41	1824.74
578.61	1671.14
578.80	1701.86
579.00	1746.92
579.19	1722.34
579.39	1757.16
579.58	1796.07
579.77	1787.88
579.97	1837.03
580.16	1832.93
580.36	1779.68
580.55	1796.07
580.75	1746.92
580.94	1773.54
581.13	1859.56
581.33	1851.36
581.52	1757.16
581.72	1832.93
581.91	1888.23
582.11	1746.92
582.30	1804.26
582.49	1753.06
582.69	1800.16
582.88	1806.31
583.08	1742.82
583.27	1841.12
583.47	1685.48
583.66	1693.67
583.85	1722.34
584.05	1785.83
584.24	1769.44
584.44	1824.74
584.63	1755.11
584.82	1816.55
585.02	1880.04
585.21	1841.12
585.41	1810.40
585.60	1812.45
585.79	1880.04
585.99	1923.04
586.18	1830.88
586.37	2263.01
586.57	3459.02
586.76	9914.22
586.96	24563.34
587.15	34835.95
587.34	40566.16
587.54	42343.80
587.73	36974.03
587.93	26566.25
588.12	21882.55
588.31	18562.79
588.51	16398.09
588.70	15468.31
588.89	14237.48
589.09	12703.55
589.28	11077.46
589.47	9377.65
589.67	7958.41
589.86	6406.05
590.06	5025.72
590.25	3956.68
590.44	3084.24
590.64	2582.49
590.83	2215.90
591.02	2045.92
591.22	1920.99
591.41	1847.27
591.60	1826.79
591.80	1951.71
591.99	1738.73
592.18	1787.88
592.38	1882.08
592.57	1871.84
592.76	1779.68
592.96	1679.33
593.15	1753.06
593.34	1787.88
593.54	1771.49
593.73	1765.35
593.92	1787.88
594.12	1853.41
594.31	1705.96
594.50	1822.69
594.70	1794.02
594.89	1857.51
595.08	1673.19
595.28	1755.11
595.47	2023.39
595.66	1763.30
595.86	1730.53
596.05	1712.10
596.24	1689.57
596.43	1830.88
596.63	1791.97
596.82	1853.41
597.01	1714.15
597.21	1896.42
597.40	1726.44
597.59	1699.81
597.79	1730.53
597.98	1685.48
598.17	1751.01
598.36	1697.77
598.56	1763.30
598.75	1720.29
598.94	1738.73
599.14	1763.30
599.33	1685.48
599.52	1810.40
599.71	1765.35
599.91	1855.46
600.10	1787.88
600.29	1738.73
600.48	1757.16
600.68	1755.11
600.87	1777.64
601.06	1634.28
601.26	1736.68
601.45	1712.10
601.64	1720.29
601.83	1886.18
602.03	1742.82
602.22	1695.72
602.41	1871.84
602.60	1834.98
602.80	1800.16
602.99	1753.06
603.18	1822.69
603.37	1708.01
603.57	1761.25
603.76	1794.02
603.95	1765.35
604.14	1781.73
604.34	1693.67
604.53	1767.40
604.72	1824.74
604.91	1839.08
605.10	1730.53
605.30	1632.23
605.49	1863.65
605.68	1759.21
605.87	1779.68
606.07	1689.57
606.26	1783.78
606.45	1685.48
606.64	1744.87
606.84	1712.10
607.03	1806.31
607.22	1804.26
607.41	1660.90
607.60	1703.91
607.80	1791.97
607.99	1724.39
608.18	1720.29
608.37	1746.92
608.56	1748.97
608.76	1722.34
608.95	1828.84
609.14	1746.92
609.33	1724.39
609.52	1839.08
609.72	1738.73
609.91	1779.68
610.10	1675.24
610.29	1781.73
610.48	1734.63
610.68	1701.86
610.87	1695.72
611.06	1738.73
611.25	1722.34
611.44	1746.92
611.63	1677.29
611.83	1816.55
612.02	1736.68
612.21	1789.92
612.40	1677.29
612.59	1689.57
612.79	1656.81
612.98	1708.01
613.17	1779.68
613.36	1624.04
613.55	1794.02
613.74	1656.81
613.93	1658.85
614.13	1718.25
614.32	1783.78
614.51	1746.92
614.70	1697.77
614.89	1726.44
615.08	1757.16
615.28	2050.02
615.47	1708.01
615.66	1824.74
615.85	1718.25
616.04	1783.78
616.23	1751.01
616.42	1689.57
616.62	1718.25
616.81	1808.36
617.00	1810.40
617.19	1728.49
617.38	1644.52
617.57	1689.57
617.76	1738.73
617.95	1716.20
618.15	1761.25
618.34	1834.98
618.53	1691.62
618.72	1755.11
618.91	1742.82
619.10	1830.88
619.29	1687.53
619.48	1708.01
619.68	1738.73
619.87	1689.57
620.06	1730.53
620.25	1765.35
620.44	1671.14
620.63	1714.15
620.82	1771.49
621.01	1701.86
621.20	1777.64
621.39	1673.19
621.59	1736.68
621.78	1718.25
621.97	1714.15
622.16	1763.30
622.35	1726.44
622.54	1773.54
622.73	1769.44
622.92	1671.14
623.11	1726.44
623.30	1626.09
623.49	1759.21
623.68	1724.39
623.88	1789.92
624.07	1734.63
624.26	1832.93
624.45	1714.15
624.64	1648.61
624.83	1685.48
625.02	1685.48
625.21	1785.83
625.40	1710.05
625.59	1771.49
625.78	1654.76
625.97	1738.73
626.16	1761.25
626.35	1710.05
626.54	1665.00
626.74	1787.88
626.93	1669.09
627.12	1722.34
627.31	1755.11
627.50	1746.92
627.69	1708.01
627.88	1644.52
628.07	1718.25
628.26	1665.00
628.45	1726.44
628.64	1599.46
628.83	1673.19
629.02	1671.14
629.21	1726.44
629.40	1755.11
629.59	1677.29
629.78	1716.20
629.97	1771.49
630.16	1734.63
630.35	1687.53
630.54	1673.19
630.73	1769.44
630.92	1640.42
631.11	1665.00
631.30	1738.73
631.49	1798.12
631.68	1714.15
631.87	1732.58
632.06	1599.46
632.25	1839.08
632.44	1691.62
632.63	1757.16
632.82	1638.38
633.01	1656.81
633.20	1681.38
633.39	1626.09
633.58	1615.85
633.77	1751.01
633.96	1748.97
634.15	1732.58
634.34	1763.30
634.53	1785.83
634.72	1708.01
634.91	1591.27
635.10	1806.31
635.29	1824.74
635.48	1730.53
635.67	1710.05
635.86	1689.57
636.05	1824.74
636.24	1724.39
636.43	1714.15
636.62	1753.06
636.81	1570.79
637.00	1720.29
637.19	1820.64
637.38	1730.53
637.57	1628.14
637.76	1644.52
637.95	1689.57
638.14	1642.47
638.33	1615.85
638.52	1742.82
638.71	1693.67
638.89	1599.46
639.08	1796.07
639.27	1658.85
639.46	1708.01
639.65	1857.51
639.84	1748.97
640.03	1781.73
640.22	1624.04
640.41	1804.26
640.60	1742.82
640.79	1724.39
640.98	1611.75
641.17	1763.30
641.36	1687.53
641.55	1740.77
641.74	1662.95
641.92	1644.52
642.11	1617.90
642.30	1724.39
642.49	1650.66
642.68	1710.05
642.87	1693.67
643.06	1800.16
643.25	1669.09
643.44	1669.09
643.63	1662.95
643.82	1728.49
644.00	1693.67
644.19	1697.77
644.38	1658.85
644.57	1742.82
644.76	1791.97
644.95	1656.81
645.14	1718.25
645.33	1720.29
645.52	1705.96
645.71	1681.38
645.89	1644.52
646.08	1628.14
646.27	1687.53
646.46	1804.26
646.65	1701.86
646.84	1742.82
647.03	1695.72
647.22	1791.97
647.40	1779.68
647.59	1748.97
647.78	1687.53
647.97	1701.86
648.16	1615.85
648.35	1789.92
648.54	1697.77
648.73	1658.85
648.91	1748.97
649.10	1759.21
649.29	1701.86
649.48	1732.58
649.67	1652.71
649.86	1755.11
650.05	1736.68
650.23	1787.88
650.42	1705.96
650.61	1724.39
650.80	1783.78
650.99	1783.78
651.18	1708.01
651.36	1816.55
651.55	1712.10
651.74	1767.40
651.93	1693.67
652.12	1716.20
652.31	1718.25
652.49	1722.34
652.68	1683.43
652.87	1791.97
653.06	1740.77
653.25	1812.45
653.44	1701.86
653.62	1738.73
653.81	1677.29
654.00	1724.39
654.19	1769.44
654.38	1888.23
654.56	1712.10
654.75	1736.68
654.94	1761.25
655.13	1662.95
655.32	1665.00
655.51	1728.49
655.69	1650.66
655.88	1712.10
656.07	1638.38
656.26	1683.43
656.45	1658.85
656.63	1710.05
656.82	1841.12
657.01	1759.21
657.20	1693.67
657.38	1746.92
657.57	1699.81
657.76	1675.24
657.95	1806.31
658.14	1687.53
658.32	1691.62
658.51	1656.81
658.70	1644.52
658.89	1720.29
659.08	1781.73
659.26	1832.93
659.45	1660.90
659.64	1730.53
659.83	1689.57
660.01	1923.04
660.20	1751.01
660.39	1785.83
660.58	1665.00
660.76	1759.21
660.95	1630.18
661.14	1716.20
661.33	1570.79
661.51	1669.09
661.70	1763.30
661.89	1695.72
662.08	1660.90
662.26	1636.33
662.45	1681.38
662.64	1724.39
662.83	1726.44
663.01	1642.47
663.20	1736.68
663.39	1746.92
663.58	1665.00
663.76	1701.86
663.95	1775.59
664.14	1787.88
664.32	1669.09
664.51	1669.09
664.70	1607.66
664.89	1665.00
665.07	1685.48
665.26	1802.21
665.45	1644.52
665.64	1738.73
665.82	1708.01
666.01	1789.92
666.20	1652.71
666.38	1810.40
666.57	1798.12
666.76	2273.25
666.95	4526.01
667.13	10329.95
667.32	15439.64
667.51	17821.42
667.69	18945.76
667.88	17798.90
668.07	12382.02
668.25	9721.71
668.44	8179.59
668.63	7393.17
668.81	6926.23
669.00	6197.15
669.19	5685.16
669.38	5038.00
669.56	4497.34
669.75	4116.42
669.94	3473.36
670.12	2987.99
670.31	2453.47
670.50	2263.01
670.68	2035.68
670.87	1900.52
671.06	1855.46
671.24	1736.68
671.43	1877.99
671.62	1732.58
671.80	1658.85
671.99	1726.44
672.18	1759.21
672.36	1738.73
672.55	1732.58
672.74	1773.54
672.92	1703.91
673.11	1740.77
673.29	1654.76
673.48	1755.11
673.67	1578.98
673.85	1820.64
674.04	1730.53
674.23	1757.16
674.41	1783.78
674.60	1652.71
674.79	1613.80
674.97	1673.19
675.16	1785.83
675.34	1796.07
675.53	1761.25
675.72	1800.16
675.90	1822.69
676.09	1728.49
676.28	1755.11
676.46	1699.81
676.65	1726.44
676.83	1665.00
677.02	1687.53
677.21	1693.67
677.39	1714.15
677.58	1634.28
677.77	1755.11
677.95	1691.62
678.14	1705.96
678.32	1691.62
678.51	1689.57
678.70	1861.60
678.88	1638.38
679.07	1820.64
679.25	1662.95
679.44	1724.39
679.63	1597.42
679.81	1746.92
680.00	1701.86
680.18	1720.29
680.37	1777.64
680.55	1697.77
680.74	1697.77
680.93	1589.22
681.11	1697.77
681.30	1748.97
681.48	1744.87
681.67	1689.57
681.85	1673.19
682.04	1640.42
682.23	1781.73
682.41	1748.97
682.60	1761.25
682.78	1689.57
682.97	1632.23
683.15	1660.90
683.34	1755.11
683.53	1761.25
683.71	1669.09
683.90	1779.68
684.08	1728.49
684.27	1755.11
684.45	1710.05
684.64	1748.97
684.82	1746.92
685.01	1755.11
685.19	1630.18
685.38	1796.07
685.57	1658.85
685.75	1665.00
685.94	1619.94
686.12	1669.09
686.31	1665.00
686.49	1787.88
686.68	1609.70
686.86	1716.20
687.05	1722.34
687.23	1787.88
687.42	1697.77
687.60	1611.75
687.79	1771.49
687.97	1767.40
688.16	1861.60
688.34	1730.53
688.53	1574.89
688.71	1787.88
688.90	1812.45
689.08	1708.01
689.27	1662.95
689.45	1814.50
689.64	1732.58
689.82	1761.25
690.01	1779.68
690.19	1720.29
690.38	1667.05
690.56	1767.40
690.75	1642.47
690.93	1753.06
691.12	1671.14
691.30	1714.15
691.49	1601.51
691.67	1689.57
691.86	1783.78
692.04	1644.52
692.23	1669.09
692.41	1722.34
692.60	1789.92
692.78	1689.57
692.97	1710.05
693.15	1710.05
693.34	1802.21
693.52	1798.12
693.71	1675.24
693.89	1644.52
694.08	1617.90
694.26	1759.21
694.44	1730.53
694.63	1648.61
694.81	1609.70
695.00	1710.05
695.18	1779.68
695.37	1841.12
695.55	1806.31
695.74	1738.73
695.92	1679.33
696.10	1673.19
696.29	1640.42
696.47	1705.96
696.66	1644.52
696.84	1695.72
697.03	1665.00
697.21	1763.30
697.40	2328.54
697.58	1769.44
697.76	1738.73
697.95	1675.24
698.13	1746.92
698.32	1732.58
698.50	1714.15
698.68	1783.78
698.87	1742.82
699.05	1771.49
699.24	1720.29
699.42	1722.34
699.61	1755.11
699.79	1683.43
699.97	1712.10
700.16	1656.81
700.34	1662.95
700.53	1681.38
700.71	1785.83
700.89	1685.48
701.08	1675.24
701.26	1658.85
701.45	2113.50
701.63	1730.53
701.81	1806.31
702.00	1685.48
702.18	1789.92
702.37	1736.68
702.55	1693.67
702.73	1724.39
702.92	1638.38
703.10	1699.81
703.28	1767.40
703.47	1632.23
703.65	1787.88
703.84	1789.92
704.02	1675.24
704.20	1759.21
704.39	1654.76
704.57	1710.05
704.75	1787.88
704.94	1771.49
705.12	1720.29
705.30	1697.77
705.49	2285.53
705.67	4552.63
705.86	9445.23
706.04	12552.00
706.22	14548.77
706.41	15458.07
706.59	13922.09
706.77	9613.17
706.96	7468.94
707.14	6655.90
707.32	6045.60
707.51	5623.72
707.69	5013.43
707.87	4179.90
708.06	3585.99
708.24	2969.55
708.42	2473.95
708.61	2279.39
708.79	1964.00
708.97	1837.03
709.16	1877.99
709.34	1783.78
709.52	1712.10
709.71	1681.38
709.89	1732.58
710.07	1722.34
710.26	1617.90
710.44	1783.78
710.62	1722.34
710.80	1716.20
710.99	1828.84
711.17	1808.36
711.35	1708.01
711.54	1660.90
711.72	1771.49
711.90	1732.58
712.09	1738.73
712.27	1675.24
712.45	1714.15
712.63	1710.05
712.82	1734.63
713.00	1708.01
713.18	1675.24
713.37	1736.68
713.55	1804.26
713.73	1736.68
713.91	1734.63
714.10	1742.82
714.28	1640.42
714.46	1710.05
714.65	1644.52
714.83	1777.64
715.01	1658.85
715.19	1671.14
715.38	1652.71
715.56	1767.40
715.74	1673.19
715.92	1662.95
716.11	1847.27
716.29	1601.51
716.47	1734.63
716.65	1712.10
716.84	1595.37
717.02	1724.39
717.20	1605.61
717.38	1742.82
717.57	1755.11
717.75	1724.39
717.93	1691.62
718.11	1769.44
718.30	1640.42
718.48	1638.38
718.66	1808.36
718.84	1738.73
719.03	1714.15
719.21	1576.94
719.39	1748.97
719.57	1804.26
719.75	1732.58
719.94	1695.72
720.12	1689.57
720.30	1689.57
720.48	1732.58
720.67	1615.85
720.85	1736.68
721.03	1779.68
721.21	1667.05
721.39	1816.55
721.58	1677.29
721.76	1640.42
721.94	1683.43
722.12	1753.06
722.30	1771.49
722.49	1615.85
722.67	1738.73
722.85	1748.97
723.03	1665.00
723.21	1607.66
723.40	1730.53
723.58	1779.68
723.76	1753.06
723.94	1800.16
724.12	1697.77
724.30	1677.29
724.49	1744.87
724.67	1714.15
724.85	1775.59
725.03	1609.70
725.21	1681.38
725.40	1769.44
725.58	1683.43
725.76	1796.07
725.94	1722.34
726.12	1611.75
726.30	1699.81
726.49	1609.70
726.67	1705.96
726.85	1730.53
727.03	1869.80
727.21	2181.09
727.39	2928.60
727.57	3731.40
727.76	3991.49
727.94	4403.13
728.12	4306.88
728.30	3778.50
728.48	2947.03
728.66	2734.04
728.84	2611.16
729.03	2336.73
729.21	2215.90
729.39	1912.80
729.57	1822.69
729.75	1806.31
729.93	1914.85
730.11	1671.14
730.30	1671.14
730.48	1675.24
730.66	1761.25
730.84	1769.44
731.02	1697.77
731.20	1638.38
731.38	1714.15
731.56	1605.61
731.74	1617.90
731.93	1779.68
732.11	1693.67
732.29	1667.05
732.47	1611.75
732.65	1710.05
732.83	1730.53
733.01	1763.30
733.19	1634.28
733.37	1722.34
733.56	1732.58
733.74	1617.90
733.92	1767.40
734.10	1742.82
734.28	1763.30
734.46	1619.94
734.64	1611.75
734.82	1671.14
735.00	1697.77
735.18	1677.29
735.36	1705.96
735.54	1665.00
735.73	1677.29
735.91	1705.96
736.09	1638.38
736.27	1703.91
736.45	1734.63
736.63	1601.51
736.81	1665.00
736.99	1771.49
737.17	1834.98
737.35	1665.00
737.53	1720.29
737.71	1681.38
737.89	1744.87
738.07	1640.42
738.25	1726.44
738.43	1632.23
738.61	1697.77
738.80	1642.47
738.98	1662.95
739.16	1716.20
739.34	1681.38
739.52	1789.92
739.70	1693.67
739.88	1738.73
740.06	1755.11
740.24	1597.42
740.42	1710.05
740.60	1646.57
740.78	1650.66
740.96	1560.55
741.14	1720.29
741.32	1753.06
741.50	1605.61
741.68	1789.92
741.86	1822.69
742.04	1632.23
742.22	1673.19
742.40	1722.34
742.58	1748.97
742.76	1673.19
742.94	1740.77
743.12	1677.29
743.30	1732.58
743.48	1763.30
743.66	1638.38
743.84	1718.25
744.02	1685.48
744.20	1730.53
744.38	1673.19
744.56	1599.46
744.74	1814.50
744.92	1689.57
745.10	1728.49
745.28	1710.05
745.46	1820.64
745.64	1683.43
745.82	1802.21
746.00	1728.49
746.18	1716.20
746.36	1681.38
746.54	1726.44
746.72	1689.57
746.90	1712.10
747.08	1751.01
747.26	1658.85
747.44	1722.34
747.62	1701.86
747.80	1728.49
747.98	1736.68
748.15	1730.53
748.33	1744.87
748.51	1675.24
748.69	1626.09
748.87	1675.24
749.05	1675.24
749.23	1740.77
749.41	1736.68
749.59	1701.86
749.77	1675.24
749.95	1714.15
750.13	1660.90
750.31	1722.34
750.49	1605.61
750.67	1806.31
750.85	1755.11
751.03	1708.01
751.20	1789.92
751.38	1695.72
751.56	1683.43
751.74	1738.73
751.92	1689.57
752.10	1658.85
752.28	1759.21
752.46	1767.40
752.64	1705.96
752.82	1755.11
753.00	1718.25
753.18	1642.47
753.35	1667.05
753.53	1665.00
753.71	1681.38
753.89	1656.81
754.07	1767.40
754.25	1699.81
754.43	1773.54
754.61	1697.77
754.79	1681.38
754.97	1689.57
755.14	1763.30
755.32	1626.09
755.50	1693.67
755.68	1769.44
755.86	1636.33
756.04	1640.42
756.22	1576.94
756.40	1798.12
756.57	1808.36
756.75	1703.91
756.93	1695.72
757.11	1738.73
757.29	1589.22
757.47	1683.43
757.65	1656.81
757.82	1615.85
758.00	1665.00
758.18	1630.18
758.36	1585.13
758.54	1873.89
758.72	1621.99
758.90	1789.92
759.07	1712.10
759.25	1667.05
759.43	1728.49
759.61	1646.57
759.79	2037.73
759.97	1716.20
760.15	1716.20
760.32	1652.71
760.50	1705.96
760.68	1845.22
760.86	1673.19
761.04	1714.15
761.22	1714.15
761.39	1724.39
761.57	1736.68
761.75	1691.62
761.93	1712.10
762.11	1712.10
762.28	1710.05
762.46	1628.14
762.64	1710.05
762.82	1587.18
763.00	1669.09
763.18	1761.25
763.35	1681.38
763.53	1744.87
763.71	1662.95
763.89	1712.10
764.07	1656.81
764.24	1650.66
764.42	1761.25
764.60	1648.61
764.78	1708.01
764.96	1753.06
765.13	1728.49
765.31	1681.38
765.49	1714.15
765.67	1583.08
765.84	1646.57
766.02	1675.24
766.20	1615.85
766.38	1761.25
766.56	1742.82
766.73	1800.16
766.91	1693.67
767.09	1648.61
767.27	1722.34
767.44	1591.27
767.62	1738.73
767.80	1689.57
767.98	1697.77
768.15	1632.23
768.33	1718.25
768.51	1708.01
768.69	1738.73
768.87	1763.30
769.04	1767.40
769.22	1830.88
769.40	1703.91
769.58	1841.12
769.75	1687.53
769.93	1753.06
770.11	1671.14
770.28	1683.43
770.46	1714.15
770.64	1742.82
770.82	1642.47
770.99	1675.24
771.17	1783.78
771.35	1679.33
771.53	1626.09
771.70	1685.48
771.88	1724.39
772.06	1660.90
772.23	1671.14
772.41	1691.62
772.59	1626.09
772.77	1685.48
772.94	1697.77
773.12	1742.82
773.30	1662.95
773.47	1730.53
773.65	1665.00
773.83	1732.58
774.01	1665.00
774.18	1540.07
774.36	1783.78
774.54	1640.42
774.71	1681.38
774.89	1646.57
775.07	1650.66
775.24	1658.85
775.42	1699.81
775.60	1746.92
775.78	1679.33
775.95	1615.85
776.13	1605.61
776.31	1544.17
776.48	1771.49
776.66	1787.88
776.84	1626.09
777.01	1681.38
777.19	1609.70
777.37	1644.52
777.54	1763.30
777.72	1794.02
777.90	1710.05
778.07	1673.19
778.25	1892.32
778.43	1773.54
778.60	1652.71
778.78	1673.19
778.96	1746.92
779.13	1681.38
779.31	1779.68
779.49	1677.29
779.66	1679.33
779.84	1693.67
780.01	1695.72
780.19	1658.85
780.37	1755.11
780.54	1724.39
780.72	1673.19
780.90	1718.25
781.07	1738.73
781.25	1683.43
781.43	1808.36
781.60	1693.67
781.78	1736.68
781.95	1667.05
782.13	1689.57
782.31	1658.85
782.48	1585.13
782.66	1685.48
782.83	1783.78
783.01	1710.05
783.19	1753.06
783.36	1724.39
783.54	1669.09
783.72	1779.68
783.89	1710.05
784.07	1697.77
784.24	1673.19
784.42	1853.41
784.60	1697.77
784.77	1773.54
784.95	1607.66
785.12	1669.09
785.30	1736.68
785.47	1642.47
785.65	1656.81
785.83	1740.77
786.00	1726.44
786.18	1720.29
786.35	1662.95
786.53	1660.90
786.71	1769.44
786.88	1720.29
787.06	1652.71
787.23	1687.53
787.41	1607.66
787.58	1697.77
787.76	1632.23
787.94	1720.29
788.11	1660.90
788.29	1595.37
788.46	1634.28
788.64	1619.94
788.81	1638.38
788.99	1642.47
789.16	1679.33
789.34	1712.10
789.52	1685.48
789.69	1679.33
789.87	1599.46
790.04	1636.33
790.22	1761.25
790.39	1849.32
790.57	1634.28
790.74	1617.90
790.92	1669.09
791.09	1644.52
791.27	1701.86
791.44	1718.25
791.62	1667.05
791.79	1777.64
791.97	1644.52
792.15	1929.19
792.32	1773.54
792.50	1658.85
792.67	1796.07
792.85	1744.87
793.02	1710.05
793.20	1642.47
793.37	1671.14
793.55	1658.85
793.72	1636.33
793.90	1677.29
794.07	1640.42
794.25	1679.33
794.42	1746.92
794.60	1730.53
794.77	1671.14
794.95	1734.63
795.12	1757.16
795.30	1693.67
795.47	1630.18
795.65	1871.84
795.82	1779.68
796.00	1669.09
796.17	1714.15
796.34	1679.33
796.52	1701.86
796.69	1740.77
796.87	1703.91
797.04	1714.15
797.22	1705.96
797.39	1771.49
797.57	1755.11
797.74	1755.11
797.92	1687.53
798.09	1714.15
798.27	1679.33
798.44	1748.97
798.62	1628.14
798.79	1714.15
798.96	1763.30
799.14	1648.61
799.31	1822.69
799.49	1705.96
799.66	1710.05
799.84	1734.63
800.01	1626.09
800.19	1789.92
800.36	1564.65
800.53	1689.57
800.71	1771.49
800.88	1787.88
801.06	1648.61
801.23	1640.42
801.41	1718.25
801.58	1642.47
801.75	1570.79
801.93	1712.10
802.10	1775.59
802.28	1683.43
802.45	1660.90
802.63	1689.57
802.80	1708.01
802.97	1667.05
803.15	1628.14
803.32	1667.05
803.50	1611.75
803.67	1681.38
803.84	1644.52
804.02	1736.68
804.19	1714.15
804.37	1611.75
804.54	1597.42
804.71	1695.72
804.89	1728.49
805.06	1648.61
805.24	1634.28
805.41	1648.61
805.58	1595.37
805.76	1804.26
805.93	1783.78
806.10	1804.26
806.28	1734.63
806.45	1705.96
806.63	1671.14
806.80	1683.43
806.97	1626.09
807.15	1765.35
807.32	1656.81
807.49	1687.53
807.67	1650.66
807.84	1738.73
808.01	1572.84
808.19	1804.26
808.36	1791.97
808.54	1648.61
808.71	1675.24
808.88	1728.49
809.06	1738.73
809.23	1849.32
809.40	1689.57
809.58	1722.34
809.75	1789.92
809.92	1660.90
810.10	1834.98
810.27	1591.27
810.44	1734.63
810.62	1765.35
810.79	1730.53
810.96	1650.66
811.14	1673.19
811.31	1689.57
811.48	1755.11
811.66	1605.61
811.83	1757.16
812.00	1654.76
812.18	1673.19
812.35	1828.84
812.52	1658.85
812.69	1654.76
812.87	1699.81
813.04	1740.77
813.21	1613.80
813.39	1636.33
813.56	1685.48
813.73	1767.40
813.91	1615.85
814.08	1701.86
814.25	1701.86
814.42	1644.52
814.60	1714.15
814.77	1734.63
814.94	1634.28
815.12	1703.91
815.29	1728.49
815.46	1685.48
815.63	1687.53
815.81	1718.25
815.98	1679.33
816.15	1671.14
816.33	1677.29
816.50	1712.10
816.67	1685.48
816.84	1675.24
817.02	1581.03
817.19	1650.66
817.36	1720.29
817.53	1748.97
817.71	1701.86
817.88	1738.73
818.05	1736.68
818.22	1675.24
818.40	1753.06
818.57	1703.91
818.74	1781.73
818.91	1705.96
819.09	1615.85
819.26	1810.40
819.43	1605.61
819.60	1636.33
819.78	1656.81
819.95	1734.63
820.12	1681.38
820.29	1845.22
820.47	1775.59
820.64	1642.47
820.81	1691.62
820.98	1656.81
821.15	1669.09
821.33	1779.68
821.50	1607.66
821.67	1675.24
821.84	1726.44
822.02	1763.30
822.19	1744.87
822.36	1705.96
822.53	1652.71
822.70	1693.67
822.88	1570.79
823.05	1861.60
823.22	1734.63
823.39	1767.40
823.56	1705.96
823.74	1746.92
823.91	1656.81
824.08	1624.04
824.25	1601.51
824.42	1769.44
824.60	1626.09
824.77	1638.38
824.94	1671.14
825.11	1736.68
825.28	1652.71
825.45	1693.67
825.63	1693.67
825.80	1585.13
825.97	1748.97
826.14	1683.43
826.31	1615.85
826.48	1810.40
826.66	1656.81
826.83	1683.43
827.00	1689.57
827.17	1677.29
827.34	1669.09
827.51	1705.96
827.69	1755.11
827.86	1638.38
828.03	1699.81
828.20	1732.58
828.37	1710.05
828.54	1816.55
828.71	1667.05
828.89	1791.97
829.06	1677.29
829.23	1779.68
829.40	1662.95
829.57	1640.42
829.74	1699.81
829.91	1673.19
830.09	1609.70
830.26	1687.53
830.43	1755.11
830.60	1726.44
830.77	1710.05
830.94	1720.29
831.11	1718.25
831.28	1685.48
831.46	1744.87
831.63	1705.96
831.80	1781.73
831.97	1697.77
832.14	1665.00
832.31	1726.44
832.48	1691.62
832.65	1708.01
832.82	1718.25
832.99	1683.43
833.17	1732.58
833.34	1853.41
833.51	1714.15
833.68	1591.27
833.85	1720.29
834.02	1581.03
834.19	1630.18
834.36	1650.66
834.53	1687.53
834.70	1734.63
834.87	1685.48
835.04	1634.28
835.22	1677.29
835.39	1697.77
835.56	1609.70
835.73	1634.28
835.90	1779.68
836.07	1621.99
836.24	1732.58
836.41	1656.81
836.58	1644.52
836.75	1763.30
836.92	1763.30
837.09	1636.33
837.26	1714.15
837.43	1744.87
837.60	1642.47
837.77	1640.42
837.94	1705.96
838.12	1734.63
838.29	1734.63
838.46	1615.85
838.63	1656.81
838.80	1839.08
838.97	1710.05
839.14	1693.67
839.31	1605.61
839.48	1691.62
839.65	1667.05
839.82	1730.53
839.99	1679.33
840.16	1718.25
840.33	1697.77
840.50	1660.90
840.67	1640.42
840.84	1591.27
841.01	1621.99
841.18	1660.90
841.35	1705.96
841.52	1771.49
841.69	1769.44
841.86	1714.15
842.03	1691.62
842.20	1660.90
842.37	1662.95
842.54	1765.35
842.71	1673.19
842.88	1660.90
843.05	1687.53
843.22	1642.47
843.39	1683.43
843.56	1683.43
843.73	1669.09
843.90	1730.53
844.07	1681.38
844.24	1724.39
844.41	1738.73
844.58	1757.16
844.75	1640.42
844.92	1726.44
845.09	1681.38
845.26	1665.00
845.43	1716.20
845.60	1740.77
845.77	1710.05
845.94	1697.77
846.10	1757.16
846.27	1617.90
846.44	1628.14
846.61	1630.18
846.78	1693.67
846.95	1802.21
847.12	1581.03
847.29	1708.01
847.46	1683.43
847.63	1738.73
847.80	1626.09
847.97	1765.35
848.14	1789.92
848.31	1665.00
848.48	1603.56
848.65	1681.38
848.82	1685.48
848.98	1812.45
849.15	1769.44
849.32	1751.01
849.49	1757.16
849.66	1689.57
849.83	1701.86
850.00	1599.46
850.17	1669.09
850.34	1691.62
850.51	1669.09
850.68	1628.14
850.85	1796.07
851.01	1724.39
851.18	1771.49
851.35	1644.52
851.52	1736.68
851.69	1787.88
851.86	1615.85
852.03	1638.38
852.20	1730.53
852.37	1759.21
852.53	1642.47
852.70	1615.85
852.87	1775.59
853.04	1720.29
853.21	1748.97
853.38	1714.15
853.55	1779.68
853.72	1701.86
853.89	1648.61
854.05	1681.38
854.22	1681.38
854.39	1740.77
854.56	1677.29
854.73	1763.30
854.90	1554.41
855.07	1683.43
855.23	1665.00
855.40	1679.33
855.57	1697.77
855.74	1617.90
855.91	1931.23
856.08	1626.09
856.25	1628.14
856.41	1710.05
856.58	1712.10
856.75	1710.05
856.92	1619.94
857.09	1710.05
857.26	1581.03
857.42	1667.05
857.59	1687.53
857.76	1710.05
857.93	1718.25
858.10	1697.77
858.27	1646.57
858.43	1673.19
858.60	1615.85
858.77	1581.03
858.94	1660.90
859.11	1830.88
859.27	1712.10
859.44	1699.81
859.61	1828.84
859.78	1693.67
859.95	1646.57
860.12	1656.81
860.28	1806.31
860.45	1918.95
860.62	1599.46
860.79	1689.57
860.95	1652.71
861.12	1624.04
861.29	1591.27
861.46	1619.94
861.63	1689.57
861.79	1738.73
861.96	1683.43
862.13	1701.86
862.30	1718.25
862.47	1658.85
862.63	1601.51
862.80	1763.30
862.97	1703.91
863.14	1658.85
863.30	1732.58
863.47	1650.66
863.64	1769.44
863.81	1738.73
863.97	1677.29
864.14	1656.81
864.31	1640.42
864.48	1755.11
864.65	1722.34
864.81	1730.53
864.98	1658.85
865.15	1746.92
865.32	1634.28
865.48	1642.47
865.65	1753.06
865.82	1595.37
865.98	1675.24
866.15	1728.49
866.32	1736.68
866.49	1640.42
866.65	1730.53
866.82	1681.38
866.99	1658.85
867.16	1730.53
867.32	1697.77
867.49	1705.96
867.66	1656.81
867.83	1699.81
867.99	1665.00
868.16	1683.43
868.33	1617.90
868.49	1708.01
868.66	1621.99
868.83	1746.92
868.99	1751.01
869.16	1751.01
869.33	1726.44
869.50	1775.59
869.66	1705.96
869.83	1652.71
870.00	1648.61
870.16	1724.39
870.33	1691.62
870.50	1705.96
870.66	1673.19
870.83	1775.59
871.00	1705.96
871.17	1650.66
871.33	1738.73
871.50	1638.38
871.67	1734.63
871.83	1648.61
872.00	1775.59
872.17	1583.08
872.33	1812.45
872.50	1783.78
872.67	1710.05
872.83	1683.43
873.00	1712.10
873.17	1748.97
873.33	1748.97
873.50	1730.53
873.67	1644.52
873.83	1560.55
874.00	1703.91
874.16	1763.30
874.33	1734.63
874.50	1581.03
874.66	1708.01
874.83	1705.96
875.00	1863.65
875.16	1714.15
875.33	1748.97
875.50	1597.42
875.66	1574.89
875.83	1691.62
875.99	1767.40
876.16	1693.67
876.33	1673.19
876.49	1697.77
876.66	1701.86
876.83	1724.39
876.99	1585.13
877.16	1714.15
877.32	1767.40
877.49	1656.81
877.66	1728.49
877.82	1808.36
877.99	1730.53
878.15	1746.92
878.32	1757.16
878.49	1794.02
878.65	1636.33
878.82	1763.30
878.98	1632.23
879.15	1746.92
879.32	1714.15
879.48	1705.96
879.65	1697.77
879.81	1671.14
879.98	1720.29
880.15	1730.53
880.31	1738.73
880.48	1662.95
880.64	1708.01
880.81	1683.43
880.97	1779.68
881.14	1775.59
881.31	1730.53
881.47	1763.30
881.64	1689.57
881.80	1576.94
881.97	1718.25
882.13	1783.78
882.30	1585.13
882.47	1697.77
882.63	1687.53
882.80	1671.14
882.96	1636.33
883.13	1697.77
883.29	1671.14
883.46	1697.77
883.62	1787.88
883.79	1628.14
883.95	1669.09
884.12	1656.81
884.29	1708.01
884.45	1779.68
884.62	1695.72
884.78	1714.15
884.95	1771.49
885.11	1642.47
885.28	1720.29
885.44	1619.94
885.61	1740.77
885.77	1765.35
885.94	1748.97
886.10	1691.62
886.27	1646.57
886.43	1798.12
886.60	1703.91
886.76	1630.18
886.93	1714.15
887.09	1716.20
887.26	1644.52
887.42	1652.71
887.59	1734.63
887.75	1734.63
887.92	1804.26
888.08	1755.11
888.25	1751.01
888.41	1794.02
888.58	1687.53
888.74	1591.27
888.91	1687.53
>>>>>End Processed Spectral Data<<<<<
