SpectraSuite Data File
++++++++++++++++++++++++++++++++++++
Date: Mon Jun 06 13:16:37 CEST 2016
User: root
Dark Spectrum Present: No
Reference Spectrum Present: No
Number of Sampled Component Spectra: 1
Spectrometers: USB4C02835
Integration Time (usec): 100000 (USB4C02835)
Spectra Averaged: 1 (USB4C02835)
Boxcar Smoothing: 0 (USB4C02835)
Correct for Electrical Dark: No (USB4C02835)
Strobe/Lamp Enabled: No (USB4C02835)
Correct for Detector Non-linearity: No (USB4C02835)
Correct for Stray Light: No (USB4C02835)
Number of Pixels in Processed Spectrum: 3648
>>>>>Begin Processed Spectral Data<<<<<
177.47	1478.63
177.69	1478.63
177.91	1478.63
178.13	1472.49
178.36	1460.20
178.58	1628.14
178.80	1734.63
179.02	1673.19
179.24	1648.61
179.46	1796.07
179.68	1681.38
179.90	1736.68
180.13	1644.52
180.35	1687.53
180.57	1693.67
180.79	1699.81
181.01	1697.77
181.23	1787.88
181.45	1722.34
181.67	1718.25
181.90	1806.31
182.12	1720.29
182.34	1621.99
182.56	1740.77
182.78	1722.34
183.00	1730.53
183.22	1685.48
183.44	1581.03
183.66	1816.55
183.89	1714.15
184.11	1701.86
184.33	1779.68
184.55	1839.08
184.77	1687.53
184.99	1734.63
185.21	1675.24
185.43	1847.27
185.65	1662.95
185.87	1703.91
186.10	1802.21
186.32	1841.12
186.54	1744.87
186.76	1757.16
186.98	1759.21
187.20	1691.62
187.42	1632.23
187.64	1695.72
187.86	1687.53
188.08	1714.15
188.30	1650.66
188.52	1771.49
188.75	1837.03
188.97	1744.87
189.19	1679.33
189.41	1650.66
189.63	1730.53
189.85	1607.66
190.07	1656.81
190.29	1593.32
190.51	1759.21
190.73	1607.66
190.95	1714.15
191.17	1662.95
191.39	1660.90
191.61	1656.81
191.84	1714.15
192.06	1665.00
192.28	1566.70
192.50	1800.16
192.72	1644.52
192.94	1683.43
193.16	1673.19
193.38	1791.97
193.60	1624.04
193.82	1677.29
194.04	1767.40
194.26	1716.20
194.48	1652.71
194.70	1603.56
194.92	1665.00
195.14	1722.34
195.36	1656.81
195.58	1710.05
195.80	1642.47
196.02	1677.29
196.24	1677.29
196.46	1658.85
196.69	1665.00
196.91	1812.45
197.13	1738.73
197.35	1648.61
197.57	1828.84
197.79	1773.54
198.01	1740.77
198.23	1787.88
198.45	1708.01
198.67	1628.14
198.89	1654.76
199.11	1767.40
199.33	1705.96
199.55	1554.41
199.77	1687.53
199.99	1765.35
200.21	1628.14
200.43	1656.81
200.65	1617.90
200.87	1581.03
201.09	1699.81
201.31	1806.31
201.53	1757.16
201.75	1683.43
201.97	1699.81
202.19	1681.38
202.41	1738.73
202.63	1794.02
202.85	1775.59
203.07	1751.01
203.29	1673.19
203.51	1621.99
203.73	1642.47
203.95	1826.79
204.17	1701.86
204.39	1667.05
204.61	1650.66
204.83	1650.66
205.05	1789.92
205.27	1681.38
205.49	1757.16
205.71	1624.04
205.93	1640.42
206.15	1636.33
206.37	1662.95
206.59	1624.04
206.81	1652.71
207.03	1658.85
207.25	1703.91
207.47	1708.01
207.69	1683.43
207.91	1773.54
208.13	1757.16
208.34	1705.96
208.56	1609.70
208.78	1691.62
209.00	1656.81
209.22	1730.53
209.44	1691.62
209.66	1708.01
209.88	1730.53
210.10	1738.73
210.32	1746.92
210.54	1757.16
210.76	1638.38
210.98	1763.30
211.20	1636.33
211.42	1685.48
211.64	1757.16
211.86	1763.30
212.08	1726.44
212.30	1722.34
212.52	1640.42
212.74	1638.38
212.96	1718.25
213.17	1742.82
213.39	1665.00
213.61	1783.78
213.83	1732.58
214.05	1621.99
214.27	1732.58
214.49	1621.99
214.71	1609.70
214.93	1724.39
215.15	1728.49
215.37	1705.96
215.59	1621.99
215.81	1652.71
216.03	1800.16
216.24	1763.30
216.46	1660.90
216.68	1685.48
216.90	1712.10
217.12	1705.96
217.34	1671.14
217.56	1832.93
217.78	1689.57
218.00	1712.10
218.22	1722.34
218.44	1744.87
218.66	1660.90
218.87	1734.63
219.09	1658.85
219.31	1656.81
219.53	1683.43
219.75	1742.82
219.97	1679.33
220.19	1777.64
220.41	1708.01
220.63	1800.16
220.85	1724.39
221.06	1650.66
221.28	1755.11
221.50	1718.25
221.72	1693.67
221.94	1755.11
222.16	1724.39
222.38	1818.60
222.60	1724.39
222.82	1710.05
223.03	1624.04
223.25	1667.05
223.47	1746.92
223.69	1771.49
223.91	1767.40
224.13	1650.66
224.35	1609.70
224.57	1748.97
224.78	1759.21
225.00	1667.05
225.22	1609.70
225.44	1734.63
225.66	1748.97
225.88	1714.15
226.10	1748.97
226.32	1701.86
226.53	1789.92
226.75	1701.86
226.97	1638.38
227.19	1703.91
227.41	1681.38
227.63	1673.19
227.85	1642.47
228.06	1693.67
228.28	1740.77
228.50	1738.73
228.72	1626.09
228.94	1646.57
229.16	1624.04
229.37	1650.66
229.59	1757.16
229.81	1806.31
230.03	1705.96
230.25	1654.76
230.47	1615.85
230.69	1632.23
230.90	1703.91
231.12	1677.29
231.34	1773.54
231.56	1730.53
231.78	1630.18
232.00	1722.34
232.21	1710.05
232.43	1607.66
232.65	1552.36
232.87	1697.77
233.09	1628.14
233.30	1710.05
233.52	1718.25
233.74	1744.87
233.96	1634.28
234.18	1656.81
234.40	1665.00
234.61	1857.51
234.83	1599.46
235.05	1593.32
235.27	1855.46
235.49	1767.40
235.70	1763.30
235.92	1822.69
236.14	1726.44
236.36	1859.56
236.58	1722.34
236.79	1722.34
237.01	1669.09
237.23	1673.19
237.45	1837.03
237.67	1691.62
237.88	1681.38
238.10	1779.68
238.32	1677.29
238.54	1738.73
238.76	1695.72
238.97	1710.05
239.19	1626.09
239.41	1687.53
239.63	1783.78
239.85	1693.67
240.06	1687.53
240.28	1624.04
240.50	1808.36
240.72	1673.19
240.93	1722.34
241.15	1777.64
241.37	1738.73
241.59	1775.59
241.81	1683.43
242.02	1693.67
242.24	1726.44
242.46	1714.15
242.68	1636.33
242.89	1697.77
243.11	1794.02
243.33	1722.34
243.55	1751.01
243.76	1720.29
243.98	1673.19
244.20	1681.38
244.42	1689.57
244.64	1681.38
244.85	1574.89
245.07	1697.77
245.29	1740.77
245.51	1724.39
245.72	1724.39
245.94	1794.02
246.16	1654.76
246.38	1775.59
246.59	1685.48
246.81	1716.20
247.03	1658.85
247.24	1624.04
247.46	1652.71
247.68	1667.05
247.90	1701.86
248.11	1648.61
248.33	1755.11
248.55	1689.57
248.77	1728.49
248.98	1791.97
249.20	1804.26
249.42	1738.73
249.64	1699.81
249.85	1669.09
250.07	1603.56
250.29	1708.01
250.50	1683.43
250.72	1689.57
250.94	1748.97
251.16	1861.60
251.37	1787.88
251.59	1718.25
251.81	1699.81
252.02	1759.21
252.24	1656.81
252.46	1751.01
252.68	1630.18
252.89	1644.52
253.11	1701.86
253.33	1732.58
253.54	1859.56
253.76	1697.77
253.98	1671.14
254.20	1710.05
254.41	1611.75
254.63	1693.67
254.85	1683.43
255.06	1804.26
255.28	1742.82
255.50	1710.05
255.71	1632.23
255.93	1652.71
256.15	1597.42
256.36	1726.44
256.58	1693.67
256.80	1722.34
257.02	1728.49
257.23	1626.09
257.45	1695.72
257.67	1691.62
257.88	1601.51
258.10	1708.01
258.32	1595.37
258.53	1789.92
258.75	1779.68
258.97	1712.10
259.18	1609.70
259.40	1738.73
259.62	1710.05
259.83	1722.34
260.05	1746.92
260.27	1972.19
260.48	1712.10
260.70	1656.81
260.92	1724.39
261.13	1716.20
261.35	1757.16
261.57	1730.53
261.78	1667.05
262.00	1570.79
262.22	1798.12
262.43	1687.53
262.65	1636.33
262.86	1630.18
263.08	1787.88
263.30	1685.48
263.51	1601.51
263.73	1624.04
263.95	1789.92
264.16	1640.42
264.38	1665.00
264.60	1718.25
264.81	1687.53
265.03	1675.24
265.25	1718.25
265.46	1697.77
265.68	1744.87
265.89	1728.49
266.11	1632.23
266.33	1753.06
266.54	1679.33
266.76	1789.92
266.98	1693.67
267.19	1763.30
267.41	1716.20
267.62	1703.91
267.84	1570.79
268.06	1738.73
268.27	1687.53
268.49	1701.86
268.70	1746.92
268.92	1738.73
269.14	1624.04
269.35	1583.08
269.57	1726.44
269.79	1794.02
270.00	1673.19
270.22	1816.55
270.43	1609.70
270.65	1583.08
270.87	1669.09
271.08	1726.44
271.30	1742.82
271.51	1712.10
271.73	1673.19
271.95	1781.73
272.16	1736.68
272.38	1730.53
272.59	1615.85
272.81	1763.30
273.02	1740.77
273.24	1705.96
273.46	1701.86
273.67	1628.14
273.89	1677.29
274.10	1607.66
274.32	1724.39
274.54	1746.92
274.75	1720.29
274.97	1636.33
275.18	1703.91
275.40	1755.11
275.61	1718.25
275.83	1636.33
276.05	1595.37
276.26	1673.19
276.48	1640.42
276.69	1708.01
276.91	1605.61
277.12	1751.01
277.34	1834.98
277.55	1753.06
277.77	1716.20
277.99	1636.33
278.20	1652.71
278.42	1693.67
278.63	1644.52
278.85	1667.05
279.06	1568.74
279.28	1673.19
279.49	1730.53
279.71	1705.96
279.93	1755.11
280.14	1718.25
280.36	1644.52
280.57	1763.30
280.79	1693.67
281.00	1685.48
281.22	1617.90
281.43	1728.49
281.65	1511.40
281.86	1624.04
282.08	1667.05
282.29	1783.78
282.51	1599.46
282.73	1685.48
282.94	1673.19
283.16	1755.11
283.37	1820.64
283.59	1605.61
283.80	1716.20
284.02	1718.25
284.23	1689.57
284.45	1673.19
284.66	1658.85
284.88	1603.56
285.09	1718.25
285.31	1701.86
285.52	1648.61
285.74	1644.52
285.95	1769.44
286.17	1673.19
286.38	1734.63
286.60	1642.47
286.81	1687.53
287.03	1703.91
287.24	1642.47
287.46	1699.81
287.67	1712.10
287.89	1865.70
288.10	1630.18
288.32	1652.71
288.53	1816.55
288.75	1759.21
288.96	1685.48
289.18	1675.24
289.39	1632.23
289.61	1724.39
289.82	1826.79
290.04	1744.87
290.25	1718.25
290.47	1693.67
290.68	1726.44
290.90	1757.16
291.11	1576.94
291.33	1744.87
291.54	1585.13
291.76	1658.85
291.97	1740.77
292.18	1695.72
292.40	1751.01
292.61	1683.43
292.83	1816.55
293.04	1708.01
293.26	1765.35
293.47	1656.81
293.69	1619.94
293.90	1769.44
294.12	1726.44
294.33	1710.05
294.55	1660.90
294.76	1708.01
294.97	1820.64
295.19	1814.50
295.40	1673.19
295.62	1773.54
295.83	1693.67
296.05	1740.77
296.26	1701.86
296.48	1703.91
296.69	1660.90
296.90	1650.66
297.12	1753.06
297.33	1732.58
297.55	1746.92
297.76	1730.53
297.98	1787.88
298.19	1685.48
298.41	1615.85
298.62	1609.70
298.83	1785.83
299.05	1593.32
299.26	1644.52
299.48	1605.61
299.69	1720.29
299.90	1734.63
300.12	1673.19
300.33	1720.29
300.55	1708.01
300.76	1642.47
300.98	1679.33
301.19	1730.53
301.40	1720.29
301.62	1669.09
301.83	1736.68
302.05	1730.53
302.26	1703.91
302.47	1685.48
302.69	1638.38
302.90	1703.91
303.12	1640.42
303.33	1710.05
303.54	1857.51
303.76	1669.09
303.97	1720.29
304.19	1759.21
304.40	1671.14
304.61	1679.33
304.83	1818.60
305.04	1777.64
305.26	1744.87
305.47	1640.42
305.68	1695.72
305.90	1658.85
306.11	1779.68
306.33	1701.86
306.54	1675.24
306.75	1644.52
306.97	1589.22
307.18	1697.77
307.39	1701.86
307.61	1703.91
307.82	1665.00
308.04	1701.86
308.25	1615.85
308.46	1681.38
308.68	1695.72
308.89	1701.86
309.10	1814.50
309.32	1796.07
309.53	1644.52
309.74	1853.41
309.96	1665.00
310.17	1800.16
310.39	1673.19
310.60	1705.96
310.81	1710.05
311.03	1607.66
311.24	1675.24
311.45	1687.53
311.67	1746.92
311.88	1669.09
312.09	1714.15
312.31	1591.27
312.52	1662.95
312.73	1736.68
312.95	1679.33
313.16	1730.53
313.37	1755.11
313.59	1703.91
313.80	1705.96
314.01	1820.64
314.23	1685.48
314.44	1660.90
314.65	1587.18
314.87	1736.68
315.08	1732.58
315.29	1632.23
315.51	1683.43
315.72	1665.00
315.93	1855.46
316.15	1716.20
316.36	1638.38
316.57	1755.11
316.79	1660.90
317.00	1636.33
317.21	1693.67
317.43	1718.25
317.64	1652.71
317.85	1705.96
318.07	1658.85
318.28	1740.77
318.49	1806.31
318.70	1849.32
318.92	1789.92
319.13	1814.50
319.34	1875.94
319.56	1759.21
319.77	1824.74
319.98	1843.17
320.20	1695.72
320.41	1814.50
320.62	1740.77
320.83	1693.67
321.05	1810.40
321.26	1763.30
321.47	1701.86
321.69	1730.53
321.90	1609.70
322.11	1669.09
322.32	1722.34
322.54	1812.45
322.75	1722.34
322.96	1769.44
323.18	1652.71
323.39	1652.71
323.60	1626.09
323.81	1726.44
324.03	1724.39
324.24	1640.42
324.45	1648.61
324.66	1576.94
324.88	1789.92
325.09	1769.44
325.30	1665.00
325.52	1718.25
325.73	1677.29
325.94	1667.05
326.15	1619.94
326.37	1683.43
326.58	1755.11
326.79	1689.57
327.00	1681.38
327.22	1683.43
327.43	1660.90
327.64	1705.96
327.85	1720.29
328.07	1677.29
328.28	1722.34
328.49	1654.76
328.70	1708.01
328.92	1742.82
329.13	1697.77
329.34	1691.62
329.55	1839.08
329.76	1724.39
329.98	1691.62
330.19	1783.78
330.40	1767.40
330.61	1720.29
330.83	1701.86
331.04	1714.15
331.25	1734.63
331.46	1642.47
331.68	1630.18
331.89	1753.06
332.10	1732.58
332.31	1691.62
332.52	1679.33
332.74	1769.44
332.95	1681.38
333.16	1648.61
333.37	1687.53
333.58	1705.96
333.80	1714.15
334.01	1648.61
334.22	1691.62
334.43	1669.09
334.64	1632.23
334.86	1581.03
335.07	1570.79
335.28	1822.69
335.49	1574.89
335.70	1685.48
335.92	1812.45
336.13	1798.12
336.34	1751.01
336.55	1697.77
336.76	1646.57
336.98	1658.85
337.19	1669.09
337.40	1804.26
337.61	1841.12
337.82	1685.48
338.04	1763.30
338.25	1587.18
338.46	1742.82
338.67	1769.44
338.88	1648.61
339.09	1640.42
339.31	1658.85
339.52	1681.38
339.73	1665.00
339.94	1787.88
340.15	1744.87
340.36	1667.05
340.58	1732.58
340.79	1697.77
341.00	1796.07
341.21	1710.05
341.42	1845.22
341.63	1685.48
341.85	1703.91
342.06	1636.33
342.27	1691.62
342.48	1763.30
342.69	1609.70
342.90	1726.44
343.12	1697.77
343.33	1742.82
343.54	1759.21
343.75	1781.73
343.96	1718.25
344.17	1660.90
344.38	1689.57
344.60	1677.29
344.81	1695.72
345.02	1765.35
345.23	1738.73
345.44	1837.03
345.65	1722.34
345.86	1751.01
346.07	1658.85
346.29	1665.00
346.50	1705.96
346.71	1804.26
346.92	1753.06
347.13	1769.44
347.34	1730.53
347.55	1669.09
347.76	1693.67
347.98	1681.38
348.19	1681.38
348.40	1699.81
348.61	1640.42
348.82	1755.11
349.03	1746.92
349.24	1583.08
349.45	1802.21
349.66	1550.31
349.88	1654.76
350.09	1673.19
350.30	1787.88
350.51	1695.72
350.72	1673.19
350.93	1798.12
351.14	1714.15
351.35	1705.96
351.56	1650.66
351.77	1640.42
351.99	1667.05
352.20	1802.21
352.41	1769.44
352.62	1540.07
352.83	1646.57
353.04	1634.28
353.25	1681.38
353.46	1769.44
353.67	1740.77
353.88	1554.41
354.09	1714.15
354.30	1701.86
354.52	1783.78
354.73	1634.28
354.94	1656.81
355.15	1691.62
355.36	1757.16
355.57	1619.94
355.78	1716.20
355.99	1634.28
356.20	1728.49
356.41	1755.11
356.62	1677.29
356.83	1642.47
357.04	1822.69
357.25	1595.37
357.46	1685.48
357.68	1648.61
357.89	1695.72
358.10	1699.81
358.31	1617.90
358.52	1675.24
358.73	1587.18
358.94	1685.48
359.15	1669.09
359.36	1738.73
359.57	1693.67
359.78	1632.23
359.99	1701.86
360.20	1693.67
360.41	1587.18
360.62	1738.73
360.83	1667.05
361.04	1746.92
361.25	1755.11
361.46	1857.51
361.67	1791.97
361.88	1699.81
362.09	1685.48
362.30	1779.68
362.51	1734.63
362.72	1740.77
362.93	1734.63
363.14	1765.35
363.35	1755.11
363.56	1605.61
363.78	1695.72
363.99	1710.05
364.20	1738.73
364.41	1744.87
364.62	1761.25
364.83	1640.42
365.04	1697.77
365.25	1740.77
365.46	1869.80
365.67	1695.72
365.88	1671.14
366.09	1681.38
366.30	1665.00
366.51	1673.19
366.72	1640.42
366.93	1738.73
367.14	1660.90
367.35	1744.87
367.56	1626.09
367.77	1763.30
367.98	1662.95
368.18	1710.05
368.39	1718.25
368.60	1632.23
368.81	1693.67
369.02	1648.61
369.23	1669.09
369.44	1624.04
369.65	1693.67
369.86	1740.77
370.07	1695.72
370.28	1609.70
370.49	1642.47
370.70	1742.82
370.91	1644.52
371.12	1636.33
371.33	1734.63
371.54	1738.73
371.75	1734.63
371.96	1509.35
372.17	1675.24
372.38	1689.57
372.59	1697.77
372.80	1593.32
373.01	1593.32
373.22	1705.96
373.43	1703.91
373.64	1644.52
373.85	1761.25
374.06	1830.88
374.26	1722.34
374.47	1701.86
374.68	1847.27
374.89	1656.81
375.10	1693.67
375.31	1759.21
375.52	1671.14
375.73	1755.11
375.94	1589.22
376.15	1720.29
376.36	1648.61
376.57	1595.37
376.78	1617.90
376.99	1773.54
377.20	1730.53
377.40	1708.01
377.61	1730.53
377.82	1626.09
378.03	1777.64
378.24	1648.61
378.45	1673.19
378.66	1746.92
378.87	1642.47
379.08	1658.85
379.29	1691.62
379.50	1742.82
379.71	1689.57
379.91	1648.61
380.12	1728.49
380.33	1683.43
380.54	1742.82
380.75	1662.95
380.96	1701.86
381.17	1746.92
381.38	1705.96
381.59	1771.49
381.80	1675.24
382.00	1826.79
382.21	1685.48
382.42	1849.32
382.63	1841.12
382.84	1771.49
383.05	1773.54
383.26	1781.73
383.47	1662.95
383.68	1746.92
383.88	1705.96
384.09	1712.10
384.30	1781.73
384.51	1703.91
384.72	1640.42
384.93	1521.64
385.14	1675.24
385.35	1753.06
385.55	1705.96
385.76	1748.97
385.97	1714.15
386.18	1601.51
386.39	1619.94
386.60	1665.00
386.81	1687.53
387.02	1603.56
387.22	1662.95
387.43	1748.97
387.64	1783.78
387.85	1953.76
388.06	2197.47
388.27	4184.00
388.48	6719.39
388.68	8388.48
388.89	9588.59
389.10	9965.42
389.31	8720.25
389.52	7669.64
389.73	6825.88
389.93	6360.99
390.14	5732.26
390.35	5162.93
390.56	4503.48
390.77	3880.90
390.98	2965.46
391.18	2447.32
391.39	2027.49
391.60	1890.28
391.81	1898.47
392.02	1697.77
392.23	1890.28
392.43	1693.67
392.64	1791.97
392.85	1765.35
393.06	1757.16
393.27	1740.77
393.47	1712.10
393.68	1714.15
393.89	1705.96
394.10	1759.21
394.31	1679.33
394.52	1654.76
394.72	1722.34
394.93	1765.35
395.14	1681.38
395.35	1736.68
395.56	1665.00
395.76	1746.92
395.97	1753.06
396.18	1873.89
396.39	1882.08
396.60	2045.92
396.80	1869.80
397.01	1777.64
397.22	1808.36
397.43	1812.45
397.64	1757.16
397.84	1767.40
398.05	1808.36
398.26	1771.49
398.47	1775.59
398.67	1748.97
398.88	1748.97
399.09	1818.60
399.30	1638.38
399.51	1685.48
399.71	1683.43
399.92	1673.19
400.13	1689.57
400.34	1632.23
400.54	1732.58
400.75	1824.74
400.96	1718.25
401.17	1765.35
401.37	1716.20
401.58	1689.57
401.79	1720.29
402.00	1834.98
402.21	2011.11
402.41	1984.48
402.62	2002.91
402.83	2025.44
403.04	1931.23
403.24	2099.17
403.45	1912.80
403.66	1892.32
403.87	1908.71
404.07	1953.76
404.28	1892.32
404.49	1867.75
404.70	1697.77
404.90	1785.83
405.11	1746.92
405.32	1751.01
405.52	1621.99
405.73	1644.52
405.94	1722.34
406.15	1689.57
406.35	1806.31
406.56	1824.74
406.77	1720.29
406.98	1744.87
407.18	1693.67
407.39	1800.16
407.60	1683.43
407.80	1763.30
408.01	1718.25
408.22	1755.11
408.43	1658.85
408.63	1779.68
408.84	1759.21
409.05	1779.68
409.25	1675.24
409.46	1658.85
409.67	1644.52
409.88	1720.29
410.08	1681.38
410.29	1714.15
410.50	1720.29
410.70	1726.44
410.91	1675.24
411.12	1703.91
411.32	1730.53
411.53	1685.48
411.74	1791.97
411.95	1812.45
412.15	1775.59
412.36	1816.55
412.57	1714.15
412.77	1728.49
412.98	1736.68
413.19	1683.43
413.39	1742.82
413.60	1742.82
413.81	1853.41
414.01	1615.85
414.22	1744.87
414.43	1767.40
414.63	1693.67
414.84	1742.82
415.05	1693.67
415.25	1648.61
415.46	1742.82
415.67	1740.77
415.87	1621.99
416.08	1675.24
416.29	1732.58
416.49	1787.88
416.70	1667.05
416.91	1699.81
417.11	1718.25
417.32	1800.16
417.53	1806.31
417.73	1736.68
417.94	1675.24
418.15	1751.01
418.35	1691.62
418.56	1746.92
418.77	1865.70
418.97	1693.67
419.18	1742.82
419.38	1581.03
419.59	1701.86
419.80	1861.60
420.00	1611.75
420.21	1695.72
420.42	1759.21
420.62	1675.24
420.83	1658.85
421.04	1642.47
421.24	1642.47
421.45	1730.53
421.65	1787.88
421.86	1708.01
422.07	1734.63
422.27	1812.45
422.48	1769.44
422.69	1728.49
422.89	1662.95
423.10	1703.91
423.30	1634.28
423.51	1658.85
423.72	1697.77
423.92	1812.45
424.13	1677.29
424.33	1644.52
424.54	1687.53
424.75	1781.73
424.95	1806.31
425.16	1767.40
425.36	1669.09
425.57	1685.48
425.78	1673.19
425.98	1783.78
426.19	1671.14
426.39	1628.14
426.60	1720.29
426.81	1773.54
427.01	1705.96
427.22	1744.87
427.42	1601.51
427.63	1691.62
427.83	1783.78
428.04	1746.92
428.25	1798.12
428.45	1785.83
428.66	1769.44
428.86	1642.47
429.07	1753.06
429.28	1785.83
429.48	1734.63
429.69	1624.04
429.89	1732.58
430.10	1658.85
430.30	1689.57
430.51	1691.62
430.71	1656.81
430.92	1615.85
431.13	1658.85
431.33	1691.62
431.54	1722.34
431.74	1736.68
431.95	1834.98
432.15	1669.09
432.36	1632.23
432.56	1724.39
432.77	1800.16
432.98	1769.44
433.18	1742.82
433.39	1730.53
433.59	1675.24
433.80	1845.22
434.00	1824.74
434.21	1667.05
434.41	1740.77
434.62	1791.97
434.82	1689.57
435.03	1660.90
435.23	1757.16
435.44	1603.56
435.64	1794.02
435.85	1681.38
436.06	1734.63
436.26	1759.21
436.47	1759.21
436.67	1734.63
436.88	1843.17
437.08	1759.21
437.29	1806.31
437.49	1718.25
437.70	1785.83
437.90	1699.81
438.11	1804.26
438.31	1775.59
438.52	1824.74
438.72	1861.60
438.93	1914.85
439.13	1699.81
439.34	1789.92
439.54	1753.06
439.75	1871.84
439.95	1777.64
440.16	1755.11
440.36	1783.78
440.57	1726.44
440.77	1783.78
440.98	1673.19
441.18	1822.69
441.39	1662.95
441.59	1640.42
441.80	1824.74
442.00	1681.38
442.21	1787.88
442.41	1734.63
442.62	1845.22
442.82	1673.19
443.02	1662.95
443.23	1722.34
443.43	1724.39
443.64	1769.44
443.84	1656.81
444.05	1808.36
444.25	1708.01
444.46	1695.72
444.66	1714.15
444.87	1783.78
445.07	1671.14
445.28	1771.49
445.48	1742.82
445.69	1806.31
445.89	1787.88
446.09	1751.01
446.30	2013.15
446.50	2607.06
446.71	3762.12
446.91	4128.70
447.12	4673.46
447.32	4868.02
447.53	4155.33
447.73	3876.80
447.93	3547.08
448.14	3258.32
448.34	3225.55
448.55	2979.79
448.75	2783.19
448.96	2625.50
449.16	2494.43
449.36	2291.68
449.57	2146.27
449.77	1949.67
449.98	1726.44
450.18	1746.92
450.39	1810.40
450.59	1787.88
450.79	1820.64
451.00	1726.44
451.20	1789.92
451.41	1687.53
451.61	1744.87
451.81	1738.73
452.02	1767.40
452.22	1753.06
452.43	1710.05
452.63	1669.09
452.84	1681.38
453.04	1732.58
453.24	1687.53
453.45	1673.19
453.65	1730.53
453.86	1701.86
454.06	1679.33
454.26	1665.00
454.47	1630.18
454.67	1800.16
454.87	1796.07
455.08	1746.92
455.28	1853.41
455.49	1724.39
455.69	1751.01
455.89	1886.18
456.10	1812.45
456.30	1650.66
456.51	1796.07
456.71	1691.62
456.91	1828.84
457.12	1751.01
457.32	1740.77
457.52	1755.11
457.73	1767.40
457.93	1734.63
458.14	1695.72
458.34	1671.14
458.54	1740.77
458.75	1701.86
458.95	1769.44
459.15	1701.86
459.36	1734.63
459.56	1738.73
459.76	1789.92
459.97	1767.40
460.17	1736.68
460.37	1828.84
460.58	1732.58
460.78	1751.01
460.99	1660.90
461.19	1724.39
461.39	1712.10
461.60	1773.54
461.80	1660.90
462.00	1665.00
462.21	1738.73
462.41	1665.00
462.61	1644.52
462.82	1576.94
463.02	1765.35
463.22	1718.25
463.43	1748.97
463.63	1601.51
463.83	1820.64
464.04	1697.77
464.24	1720.29
464.44	1691.62
464.64	1687.53
464.85	1701.86
465.05	1751.01
465.25	1757.16
465.46	1724.39
465.66	1773.54
465.86	1773.54
466.07	1722.34
466.27	1732.58
466.47	1603.56
466.68	1605.61
466.88	1798.12
467.08	1718.25
467.29	1734.63
467.49	1710.05
467.69	1746.92
467.89	1742.82
468.10	1689.57
468.30	1693.67
468.50	1736.68
468.71	1773.54
468.91	1699.81
469.11	1787.88
469.31	1681.38
469.52	1675.24
469.72	1773.54
469.92	1882.08
470.13	1671.14
470.33	1748.97
470.53	1734.63
470.73	2095.07
470.94	2308.06
471.14	2283.49
471.34	2562.01
471.54	2373.60
471.75	2224.09
471.95	2170.85
472.15	2115.55
472.36	2181.09
472.56	1970.15
472.76	1964.00
472.96	1978.34
473.17	1998.82
473.37	1959.91
473.57	1746.92
473.77	1781.73
473.98	1697.77
474.18	1687.53
474.38	1869.80
474.58	1675.24
474.79	1732.58
474.99	1820.64
475.19	1773.54
475.39	1695.72
475.60	1738.73
475.80	1685.48
476.00	1634.28
476.20	1675.24
476.41	1718.25
476.61	1867.75
476.81	1785.83
477.01	1652.71
477.21	1859.56
477.42	1783.78
477.62	1673.19
477.82	1818.60
478.02	1705.96
478.23	1804.26
478.43	1667.05
478.63	1693.67
478.83	1726.44
479.03	1705.96
479.24	1748.97
479.44	1798.12
479.64	1638.38
479.84	1591.27
480.04	1697.77
480.25	1767.40
480.45	1646.57
480.65	1732.58
480.85	1753.06
481.06	1705.96
481.26	1794.02
481.46	1712.10
481.66	1716.20
481.86	1665.00
482.06	1783.78
482.27	1722.34
482.47	1693.67
482.67	1767.40
482.87	1683.43
483.07	1818.60
483.28	1683.43
483.48	1650.66
483.68	1671.14
483.88	1660.90
484.08	1599.46
484.29	1626.09
484.49	1691.62
484.69	1685.48
484.89	1718.25
485.09	1773.54
485.29	1701.86
485.50	1789.92
485.70	1726.44
485.90	1765.35
486.10	1669.09
486.30	1728.49
486.50	1734.63
486.71	1695.72
486.91	1695.72
487.11	1757.16
487.31	1613.80
487.51	1662.95
487.71	1654.76
487.91	1615.85
488.12	1689.57
488.32	1609.70
488.52	1703.91
488.72	1562.60
488.92	1730.53
489.12	1798.12
489.32	1740.77
489.53	1777.64
489.73	1621.99
489.93	1775.59
490.13	1654.76
490.33	1621.99
490.53	1701.86
490.73	1753.06
490.94	1636.33
491.14	1730.53
491.34	1873.89
491.54	2086.88
491.74	2516.95
491.94	2977.75
492.14	3045.33
492.34	3057.62
492.54	2772.95
492.75	2496.47
492.95	2400.22
493.15	2254.81
493.35	2156.51
493.55	2246.62
493.75	2166.75
493.95	2121.70
494.15	1988.58
494.35	1822.69
494.56	1814.50
494.76	1726.44
494.96	1771.49
495.16	1742.82
495.36	1740.77
495.56	1763.30
495.76	1748.97
495.96	1767.40
496.16	1656.81
496.36	1837.03
496.56	1751.01
496.77	1740.77
496.97	1728.49
497.17	1734.63
497.37	1687.53
497.57	1777.64
497.77	1753.06
497.97	1566.70
498.17	1796.07
498.37	1642.47
498.57	1716.20
498.77	1685.48
498.97	1734.63
499.17	1861.60
499.38	1732.58
499.58	1804.26
499.78	1787.88
499.98	1718.25
500.18	1708.01
500.38	1677.29
500.58	1871.84
500.78	2596.82
500.98	4507.58
501.18	5715.88
501.38	6887.32
501.58	7079.83
501.78	6547.36
501.98	5527.47
502.18	5113.78
502.38	4497.34
502.58	4122.56
502.78	3811.27
502.98	3710.92
503.18	3487.69
503.38	3278.80
503.59	2947.03
503.79	2658.26
503.99	2361.31
504.19	2316.25
504.39	2215.90
504.59	2158.56
504.79	2158.56
504.99	2015.20
505.19	1873.89
505.39	1875.94
505.59	1976.29
505.79	1972.19
505.99	1882.08
506.19	1865.70
506.39	1800.16
506.59	1785.83
506.79	1685.48
506.99	1810.40
507.19	1722.34
507.39	1794.02
507.59	1617.90
507.79	1699.81
507.99	1687.53
508.19	1689.57
508.39	1675.24
508.59	1740.77
508.79	1794.02
508.99	1812.45
509.19	1716.20
509.39	1791.97
509.59	1716.20
509.79	1681.38
509.99	1765.35
510.19	1751.01
510.39	1804.26
510.59	1677.29
510.79	1671.14
510.99	1669.09
511.19	1746.92
511.39	1783.78
511.59	1693.67
511.79	1849.32
511.99	1732.58
512.19	1843.17
512.38	1677.29
512.58	1669.09
512.78	1759.21
512.98	1759.21
513.18	1779.68
513.38	1636.33
513.58	1779.68
513.78	1722.34
513.98	1753.06
514.18	1677.29
514.38	1687.53
514.58	1802.21
514.78	1712.10
514.98	1710.05
515.18	1775.59
515.38	1660.90
515.58	1820.64
515.78	1697.77
515.98	1705.96
516.18	1791.97
516.38	1783.78
516.57	1759.21
516.77	1699.81
516.97	1804.26
517.17	1716.20
517.37	1640.42
517.57	1742.82
517.77	1794.02
517.97	1697.77
518.17	1763.30
518.37	1701.86
518.57	1720.29
518.77	1716.20
518.97	1628.14
519.16	1746.92
519.36	1742.82
519.56	1724.39
519.76	1732.58
519.96	1845.22
520.16	1705.96
520.36	1687.53
520.56	1812.45
520.76	1683.43
520.96	1728.49
521.16	1767.40
521.35	1843.17
521.55	1804.26
521.75	1742.82
521.95	1722.34
522.15	1789.92
522.35	1660.90
522.55	1726.44
522.75	1791.97
522.95	1800.16
523.14	1628.14
523.34	1783.78
523.54	1751.01
523.74	1753.06
523.94	1796.07
524.14	1693.67
524.34	1734.63
524.54	1775.59
524.73	1759.21
524.93	1820.64
525.13	1726.44
525.33	1695.72
525.53	1890.28
525.73	1705.96
525.93	1755.11
526.13	1705.96
526.32	1751.01
526.52	1710.05
526.72	1785.83
526.92	1738.73
527.12	1734.63
527.32	1611.75
527.52	1787.88
527.71	1751.01
527.91	1816.55
528.11	1794.02
528.31	1665.00
528.51	1597.42
528.71	1824.74
528.90	1701.86
529.10	1689.57
529.30	1783.78
529.50	1599.46
529.70	1708.01
529.90	1677.29
530.09	1703.91
530.29	1658.85
530.49	1671.14
530.69	1814.50
530.89	1841.12
531.09	1724.39
531.28	1660.90
531.48	1705.96
531.68	1724.39
531.88	1783.78
532.08	1705.96
532.28	1708.01
532.47	1759.21
532.67	1726.44
532.87	1847.27
533.07	1669.09
533.27	1828.84
533.46	1746.92
533.66	1705.96
533.86	1724.39
534.06	1722.34
534.26	1705.96
534.45	1703.91
534.65	1740.77
534.85	1777.64
535.05	1677.29
535.25	1757.16
535.44	1736.68
535.64	1757.16
535.84	1699.81
536.04	1740.77
536.24	1648.61
536.43	1650.66
536.63	1730.53
536.83	1673.19
537.03	1734.63
537.22	1654.76
537.42	1712.10
537.62	1705.96
537.82	1640.42
538.02	1814.50
538.21	1888.23
538.41	1912.80
538.61	1755.11
538.81	1759.21
539.00	1796.07
539.20	1683.43
539.40	1714.15
539.60	1751.01
539.79	1742.82
539.99	1726.44
540.19	1720.29
540.39	1701.86
540.58	1755.11
540.78	1755.11
540.98	1773.54
541.18	1755.11
541.37	1787.88
541.57	1791.97
541.77	1621.99
541.97	1673.19
542.16	1615.85
542.36	1677.29
542.56	1726.44
542.76	1818.60
542.95	1755.11
543.15	1800.16
543.35	1849.32
543.54	1681.38
543.74	1689.57
543.94	1798.12
544.14	1744.87
544.33	1794.02
544.53	1759.21
544.73	1714.15
544.93	1730.53
545.12	1705.96
545.32	1769.44
545.52	1644.52
545.71	1710.05
545.91	1734.63
546.11	1669.09
546.30	1744.87
546.50	1736.68
546.70	1783.78
546.90	1718.25
547.09	1644.52
547.29	1796.07
547.49	1783.78
547.68	1742.82
547.88	1783.78
548.08	1740.77
548.27	2187.23
548.47	1628.14
548.67	1624.04
548.87	1773.54
549.06	1734.63
549.26	1744.87
549.46	1738.73
549.65	1701.86
549.85	1726.44
550.05	1705.96
550.24	1673.19
550.44	1675.24
550.64	1753.06
550.83	1705.96
551.03	1857.51
551.23	1705.96
551.42	1744.87
551.62	1681.38
551.82	1730.53
552.01	1685.48
552.21	1849.32
552.41	1740.77
552.60	1798.12
552.80	1695.72
553.00	1640.42
553.19	1705.96
553.39	1765.35
553.59	1705.96
553.78	1773.54
553.98	1736.68
554.17	1693.67
554.37	1787.88
554.57	1804.26
554.76	1701.86
554.96	1716.20
555.16	1673.19
555.35	1759.21
555.55	1705.96
555.75	1744.87
555.94	1753.06
556.14	1720.29
556.33	1718.25
556.53	1705.96
556.73	1681.38
556.92	1601.51
557.12	1814.50
557.32	1804.26
557.51	1820.64
557.71	1665.00
557.90	1859.56
558.10	1869.80
558.30	1683.43
558.49	1722.34
558.69	1693.67
558.88	1746.92
559.08	1787.88
559.28	1689.57
559.47	1781.73
559.67	1787.88
559.86	1902.56
560.06	1751.01
560.26	1798.12
560.45	1834.98
560.65	1716.20
560.84	1744.87
561.04	1675.24
561.24	1847.27
561.43	1667.05
561.63	1834.98
561.82	1662.95
562.02	1832.93
562.22	1689.57
562.41	1665.00
562.61	1701.86
562.80	1736.68
563.00	1880.04
563.19	1800.16
563.39	1746.92
563.59	1822.69
563.78	1722.34
563.98	1705.96
564.17	1689.57
564.37	1609.70
564.56	1730.53
564.76	1697.77
564.96	1804.26
565.15	1818.60
565.35	1841.12
565.54	1710.05
565.74	1806.31
565.93	1834.98
566.13	1742.82
566.32	1734.63
566.52	1789.92
566.71	1681.38
566.91	1794.02
567.11	1654.76
567.30	1708.01
567.50	1736.68
567.69	1705.96
567.89	1746.92
568.08	1714.15
568.28	1705.96
568.47	1710.05
568.67	1779.68
568.86	1693.67
569.06	1736.68
569.25	1732.58
569.45	1693.67
569.64	1728.49
569.84	1738.73
570.04	1697.77
570.23	1789.92
570.43	1677.29
570.62	1751.01
570.82	1853.41
571.01	1667.05
571.21	1662.95
571.40	1605.61
571.60	1742.82
571.79	1718.25
571.99	1726.44
572.18	1744.87
572.38	1720.29
572.57	1712.10
572.77	1800.16
572.96	1888.23
573.16	1714.15
573.35	1693.67
573.55	1810.40
573.74	1855.46
573.94	1687.53
574.13	1703.91
574.33	1722.34
574.52	1718.25
574.71	1738.73
574.91	1802.21
575.10	1654.76
575.30	1675.24
575.49	1734.63
575.69	1822.69
575.88	1798.12
576.08	1693.67
576.27	1716.20
576.47	1708.01
576.66	1847.27
576.86	1849.32
577.05	1775.59
577.25	1771.49
577.44	1789.92
577.64	1708.01
577.83	1769.44
578.02	1751.01
578.22	1683.43
578.41	1820.64
578.61	1732.58
578.80	1685.48
579.00	1804.26
579.19	1751.01
579.39	1843.17
579.58	1796.07
579.77	1748.97
579.97	1814.50
580.16	1880.04
580.36	1769.44
580.55	1800.16
580.75	1742.82
580.94	1689.57
581.13	1812.45
581.33	1882.08
581.52	1777.64
581.72	1927.14
581.91	1845.22
582.11	1652.71
582.30	1812.45
582.49	1810.40
582.69	1929.19
582.88	1726.44
583.08	1720.29
583.27	1796.07
583.47	1822.69
583.66	1783.78
583.85	1722.34
584.05	1671.14
584.24	1820.64
584.44	1755.11
584.63	1818.60
584.82	1834.98
585.02	1880.04
585.21	1910.75
585.41	1791.97
585.60	1877.99
585.79	1941.47
585.99	1953.76
586.18	1916.90
586.37	2220.00
586.57	3379.15
586.76	10035.05
586.96	24823.43
587.15	34721.26
587.34	40826.26
587.54	42569.08
587.73	36888.01
587.93	26709.61
588.12	21876.40
588.31	18581.22
588.51	16393.99
588.70	15351.57
588.89	14358.31
589.09	12664.64
589.28	11337.56
589.47	9525.10
589.67	8060.80
589.86	6479.77
590.06	5064.63
590.25	4077.51
590.44	3166.16
590.64	2670.55
590.83	2361.31
591.02	2160.61
591.22	2004.96
591.41	2041.82
591.60	1824.74
591.80	1994.72
591.99	1708.01
592.18	1748.97
592.38	1808.36
592.57	1714.15
592.76	1826.79
592.96	1796.07
593.15	1818.60
593.34	1720.29
593.54	1656.81
593.73	1810.40
593.92	1777.64
594.12	1744.87
594.31	1695.72
594.50	1783.78
594.70	1800.16
594.89	1832.93
595.08	1656.81
595.28	1802.21
595.47	1959.91
595.66	1787.88
595.86	1611.75
596.05	1710.05
596.24	1724.39
596.43	1853.41
596.63	1824.74
596.82	1716.20
597.01	1701.86
597.21	1832.93
597.40	1763.30
597.59	1791.97
597.79	1732.58
597.98	1798.12
598.17	1796.07
598.36	1726.44
598.56	1765.35
598.75	1683.43
598.94	1783.78
599.14	1708.01
599.33	1708.01
599.52	1769.44
599.71	1728.49
599.91	1816.55
600.10	1816.55
600.29	1712.10
600.48	1800.16
600.68	1757.16
600.87	1689.57
601.06	1746.92
601.26	1703.91
601.45	1736.68
601.64	1693.67
601.83	1863.65
602.03	1705.96
602.22	1697.77
602.41	1814.50
602.60	1804.26
602.80	1800.16
602.99	1673.19
603.18	1718.25
603.37	1632.23
603.57	1726.44
603.76	1783.78
603.95	1859.56
604.14	1734.63
604.34	1730.53
604.53	1693.67
604.72	1701.86
604.91	1705.96
605.10	1806.31
605.30	1730.53
605.49	1898.47
605.68	1738.73
605.87	1785.83
606.07	1724.39
606.26	1794.02
606.45	1601.51
606.64	1779.68
606.84	1705.96
607.03	1683.43
607.22	1736.68
607.41	1718.25
607.60	1718.25
607.80	1685.48
607.99	1771.49
608.18	1660.90
608.37	1726.44
608.56	1671.14
608.76	1796.07
608.95	1841.12
609.14	1742.82
609.33	1720.29
609.52	1775.59
609.72	1648.61
609.91	1736.68
610.10	1753.06
610.29	1757.16
610.48	1816.55
610.68	1814.50
610.87	1718.25
611.06	1759.21
611.25	1669.09
611.44	1773.54
611.63	1636.33
611.83	1882.08
612.02	1613.80
612.21	1771.49
612.40	1615.85
612.59	1759.21
612.79	1626.09
612.98	1671.14
613.17	1761.25
613.36	1736.68
613.55	1910.75
613.74	1687.53
613.93	1667.05
614.13	1691.62
614.32	1744.87
614.51	1759.21
614.70	1730.53
614.89	1796.07
615.08	1755.11
615.28	2043.87
615.47	1660.90
615.66	1705.96
615.85	1726.44
616.04	1802.21
616.23	1697.77
616.42	1791.97
616.62	1708.01
616.81	1701.86
617.00	1765.35
617.19	1757.16
617.38	1734.63
617.57	1732.58
617.76	1789.92
617.95	1740.77
618.15	1740.77
618.34	1814.50
618.53	1566.70
618.72	1810.40
618.91	1834.98
619.10	1748.97
619.29	1724.39
619.48	1722.34
619.68	1681.38
619.87	1697.77
620.06	1615.85
620.25	1763.30
620.44	1679.33
620.63	1744.87
620.82	1748.97
621.01	1669.09
621.20	1679.33
621.39	1746.92
621.59	1621.99
621.78	1669.09
621.97	1761.25
622.16	1781.73
622.35	1699.81
622.54	1722.34
622.73	1816.55
622.92	1732.58
623.11	1746.92
623.30	1734.63
623.49	1724.39
623.68	1744.87
623.88	1810.40
624.07	1683.43
624.26	1691.62
624.45	1794.02
624.64	1685.48
624.83	1773.54
625.02	1687.53
625.21	1789.92
625.40	1779.68
625.59	1886.18
625.78	1746.92
625.97	1802.21
626.16	1759.21
626.35	1734.63
626.54	1669.09
626.74	1779.68
626.93	1708.01
627.12	1734.63
627.31	1757.16
627.50	1771.49
627.69	1728.49
627.88	1697.77
628.07	1701.86
628.26	1609.70
628.45	1644.52
628.64	1701.86
628.83	1722.34
629.02	1658.85
629.21	1796.07
629.40	1751.01
629.59	1669.09
629.78	1660.90
629.97	1669.09
630.16	1687.53
630.35	1669.09
630.54	1712.10
630.73	1724.39
630.92	1689.57
631.11	1703.91
631.30	1695.72
631.49	1701.86
631.68	1751.01
631.87	1761.25
632.06	1667.05
632.25	1867.75
632.44	1697.77
632.63	1757.16
632.82	1632.23
633.01	1654.76
633.20	1701.86
633.39	1705.96
633.58	1523.69
633.77	1624.04
633.96	1724.39
634.15	1744.87
634.34	1689.57
634.53	1681.38
634.72	1671.14
634.91	1624.04
635.10	1769.44
635.29	1748.97
635.48	1705.96
635.67	1636.33
635.86	1619.94
636.05	1687.53
636.24	1652.71
636.43	1789.92
636.62	1712.10
636.81	1603.56
637.00	1714.15
637.19	1708.01
637.38	1669.09
637.57	1685.48
637.76	1634.28
637.95	1718.25
638.14	1667.05
638.33	1710.05
638.52	1771.49
638.71	1644.52
638.89	1675.24
639.08	1845.22
639.27	1724.39
639.46	1722.34
639.65	1771.49
639.84	1738.73
640.03	1732.58
640.22	1689.57
640.41	1873.89
640.60	1681.38
640.79	1732.58
640.98	1691.62
641.17	1708.01
641.36	1671.14
641.55	1675.24
641.74	1673.19
641.92	1703.91
642.11	1632.23
642.30	1705.96
642.49	1658.85
642.68	1736.68
642.87	1699.81
643.06	1748.97
643.25	1728.49
643.44	1671.14
643.63	1728.49
643.82	1767.40
644.00	1716.20
644.19	1763.30
644.38	1632.23
644.57	1718.25
644.76	1763.30
644.95	1701.86
645.14	1720.29
645.33	1613.80
645.52	1671.14
645.71	1617.90
645.89	1699.81
646.08	1732.58
646.27	1648.61
646.46	1818.60
646.65	1607.66
646.84	1759.21
647.03	1689.57
647.22	1720.29
647.40	1619.94
647.59	1650.66
647.78	1636.33
647.97	1642.47
648.16	1673.19
648.35	1847.27
648.54	1789.92
648.73	1685.48
648.91	1718.25
649.10	1701.86
649.29	1675.24
649.48	1626.09
649.67	1705.96
649.86	1716.20
650.05	1705.96
650.23	1785.83
650.42	1648.61
650.61	1734.63
650.80	1693.67
650.99	1873.89
651.18	1806.31
651.36	1691.62
651.55	1710.05
651.74	1724.39
651.93	1732.58
652.12	1724.39
652.31	1726.44
652.49	1636.33
652.68	1591.27
652.87	1765.35
653.06	1767.40
653.25	1886.18
653.44	1755.11
653.62	1822.69
653.81	1714.15
654.00	1685.48
654.19	1757.16
654.38	1933.28
654.56	1632.23
654.75	1714.15
654.94	1755.11
655.13	1744.87
655.32	1726.44
655.51	1810.40
655.69	1658.85
655.88	1730.53
656.07	1685.48
656.26	1681.38
656.45	1640.42
656.63	1652.71
656.82	1734.63
657.01	1781.73
657.20	1675.24
657.38	1808.36
657.57	1660.90
657.76	1685.48
657.95	1730.53
658.14	1689.57
658.32	1673.19
658.51	1607.66
658.70	1710.05
658.89	1757.16
659.08	1673.19
659.26	1796.07
659.45	1705.96
659.64	1742.82
659.83	1617.90
660.01	1869.80
660.20	1730.53
660.39	1847.27
660.58	1660.90
660.76	1791.97
660.95	1669.09
661.14	1744.87
661.33	1585.13
661.51	1720.29
661.70	1675.24
661.89	1716.20
662.08	1691.62
662.26	1634.28
662.45	1615.85
662.64	1849.32
662.83	1722.34
663.01	1613.80
663.20	1650.66
663.39	1794.02
663.58	1701.86
663.76	1660.90
663.95	1779.68
664.14	1667.05
664.32	1718.25
664.51	1613.80
664.70	1576.94
664.89	1701.86
665.07	1701.86
665.26	1822.69
665.45	1687.53
665.64	1808.36
665.82	1656.81
666.01	1689.57
666.20	1677.29
666.38	1802.21
666.57	1847.27
666.76	2105.31
666.95	4491.20
667.13	10424.16
667.32	15290.13
667.51	18048.75
667.69	19390.17
667.88	17811.18
668.07	12236.61
668.25	9402.22
668.44	8163.20
668.63	7352.21
668.81	6868.89
669.00	6254.50
669.19	5859.24
669.38	5115.83
669.56	4671.42
669.75	3964.87
669.94	3422.16
670.12	2904.02
670.31	2566.10
670.50	2174.94
670.68	2004.96
670.87	1871.84
671.06	1804.26
671.24	1796.07
671.43	1755.11
671.62	1787.88
671.80	1689.57
671.99	1673.19
672.18	1738.73
672.36	1738.73
672.55	1755.11
672.74	1746.92
672.92	1708.01
673.11	1732.58
673.29	1648.61
673.48	1828.84
673.67	1722.34
673.85	1708.01
674.04	1673.19
674.23	1738.73
674.41	1851.36
674.60	1634.28
674.79	1673.19
674.97	1691.62
675.16	1828.84
675.34	1781.73
675.53	1662.95
675.72	1822.69
675.90	1853.41
676.09	1708.01
676.28	1730.53
676.46	1613.80
676.65	1757.16
676.83	1710.05
677.02	1781.73
677.21	1710.05
677.39	1777.64
677.58	1673.19
677.77	1652.71
677.95	1658.85
678.14	1712.10
678.32	1703.91
678.51	1667.05
678.70	1804.26
678.88	1675.24
679.07	1705.96
679.25	1687.53
679.44	1681.38
679.63	1685.48
679.81	1804.26
680.00	1785.83
680.18	1681.38
680.37	1718.25
680.55	1685.48
680.74	1611.75
680.93	1593.32
681.11	1699.81
681.30	1718.25
681.48	1761.25
681.67	1687.53
681.85	1703.91
682.04	1607.66
682.23	1708.01
682.41	1761.25
682.60	1650.66
682.78	1667.05
682.97	1640.42
683.15	1681.38
683.34	1783.78
683.53	1783.78
683.71	1638.38
683.90	1753.06
684.08	1779.68
684.27	1712.10
684.45	1681.38
684.64	1830.88
684.82	1646.57
685.01	1685.48
685.19	1671.14
685.38	1830.88
685.57	1806.31
685.75	1638.38
685.94	1667.05
686.12	1583.08
686.31	1636.33
686.49	1763.30
686.68	1630.18
686.86	1712.10
687.05	1652.71
687.23	1746.92
687.42	1679.33
687.60	1648.61
687.79	1742.82
687.97	1779.68
688.16	1875.94
688.34	1787.88
688.53	1613.80
688.71	1658.85
688.90	1751.01
689.08	1718.25
689.27	1632.23
689.45	1734.63
689.64	1751.01
689.82	1710.05
690.01	1730.53
690.19	1699.81
690.38	1701.86
690.56	1791.97
690.75	1617.90
690.93	1654.76
691.12	1648.61
691.30	1763.30
691.49	1640.42
691.67	1650.66
691.86	1806.31
692.04	1679.33
692.23	1673.19
692.41	1628.14
692.60	1802.21
692.78	1671.14
692.97	1714.15
693.15	1775.59
693.34	1787.88
693.52	1732.58
693.71	1673.19
693.89	1724.39
694.08	1628.14
694.26	1730.53
694.44	1718.25
694.63	1767.40
694.81	1683.43
695.00	1716.20
695.18	1779.68
695.37	1806.31
695.55	1667.05
695.74	1673.19
695.92	1691.62
696.10	1716.20
696.29	1576.94
696.47	1681.38
696.66	1673.19
696.84	1697.77
697.03	1716.20
697.21	1812.45
697.40	2162.66
697.58	1742.82
697.76	1607.66
697.95	1634.28
698.13	1681.38
698.32	1740.77
698.50	1640.42
698.68	1710.05
698.87	1714.15
699.05	1832.93
699.24	1753.06
699.42	1673.19
699.61	1697.77
699.79	1662.95
699.97	1658.85
700.16	1710.05
700.34	1660.90
700.53	1701.86
700.71	1794.02
700.89	1718.25
701.08	1712.10
701.26	1710.05
701.45	2076.64
701.63	1669.09
701.81	1708.01
702.00	1609.70
702.18	1730.53
702.37	1656.81
702.55	1742.82
702.73	1732.58
702.92	1644.52
703.10	1681.38
703.28	1726.44
703.47	1681.38
703.65	1726.44
703.84	1720.29
704.02	1759.21
704.20	1775.59
704.39	1710.05
704.57	1677.29
704.75	1714.15
704.94	1730.53
705.12	1701.86
705.30	1714.15
705.49	2240.48
705.67	4454.33
705.86	9457.52
706.04	12742.46
706.22	14642.98
706.41	15193.88
706.59	14116.65
706.77	9693.04
706.96	7479.18
707.14	6756.25
707.32	6139.81
707.51	5556.14
707.69	4982.71
707.87	4147.14
708.06	3512.27
708.24	2990.03
708.42	2332.64
708.61	2312.16
708.79	1966.05
708.97	1859.56
709.16	1826.79
709.34	1816.55
709.52	1679.33
709.71	1748.97
709.89	1785.83
710.07	1681.38
710.26	1660.90
710.44	1703.91
710.62	1710.05
710.80	1697.77
710.99	1681.38
711.17	1798.12
711.35	1767.40
711.54	1656.81
711.72	1728.49
711.90	1738.73
712.09	1722.34
712.27	1611.75
712.45	1712.10
712.63	1687.53
712.82	1746.92
713.00	1687.53
713.18	1796.07
713.37	1777.64
713.55	1736.68
713.73	1726.44
713.91	1748.97
714.10	1753.06
714.28	1781.73
714.46	1746.92
714.65	1757.16
714.83	1742.82
715.01	1728.49
715.19	1697.77
715.38	1691.62
715.56	1814.50
715.74	1689.57
715.92	1675.24
716.11	1810.40
716.29	1611.75
716.47	1679.33
716.65	1667.05
716.84	1605.61
717.02	1806.31
717.20	1630.18
717.38	1617.90
717.57	1755.11
717.75	1773.54
717.93	1673.19
718.11	1763.30
718.30	1648.61
718.48	1714.15
718.66	1765.35
718.84	1781.73
719.03	1646.57
719.21	1611.75
719.39	1814.50
719.57	1734.63
719.75	1796.07
719.94	1638.38
720.12	1697.77
720.30	1685.48
720.48	1767.40
720.67	1687.53
720.85	1693.67
721.03	1701.86
721.21	1660.90
721.39	1767.40
721.58	1718.25
721.76	1724.39
721.94	1724.39
722.12	1742.82
722.30	1771.49
722.49	1619.94
722.67	1683.43
722.85	1732.58
723.03	1634.28
723.21	1621.99
723.40	1744.87
723.58	1746.92
723.76	1761.25
723.94	1724.39
724.12	1724.39
724.30	1845.22
724.49	1794.02
724.67	1648.61
724.85	1740.77
725.03	1640.42
725.21	1712.10
725.40	1720.29
725.58	1718.25
725.76	1767.40
725.94	1720.29
726.12	1617.90
726.30	1638.38
726.49	1691.62
726.67	1742.82
726.85	1712.10
727.03	1718.25
727.21	2090.98
727.39	2822.10
727.57	3805.13
727.76	4184.00
727.94	4466.62
728.12	4327.36
728.30	3700.68
728.48	2987.99
728.66	2672.60
728.84	2377.69
729.03	2308.06
729.21	2093.02
729.39	1937.38
729.57	1892.32
729.75	1787.88
729.93	1777.64
730.11	1728.49
730.30	1738.73
730.48	1802.21
730.66	1783.78
730.84	1748.97
731.02	1681.38
731.20	1699.81
731.38	1722.34
731.56	1644.52
731.74	1636.33
731.93	1718.25
732.11	1753.06
732.29	1644.52
732.47	1722.34
732.65	1753.06
732.83	1841.12
733.01	1705.96
733.19	1615.85
733.37	1675.24
733.56	1716.20
733.74	1720.29
733.92	1863.65
734.10	1640.42
734.28	1746.92
734.46	1595.37
734.64	1712.10
734.82	1669.09
735.00	1699.81
735.18	1718.25
735.36	1757.16
735.54	1708.01
735.73	1777.64
735.91	1742.82
736.09	1718.25
736.27	1763.30
736.45	1693.67
736.63	1673.19
736.81	1652.71
736.99	1800.16
737.17	1708.01
737.35	1738.73
737.53	1767.40
737.71	1748.97
737.89	1738.73
738.07	1693.67
738.25	1630.18
738.43	1607.66
738.61	1654.76
738.80	1646.57
738.98	1708.01
739.16	1714.15
739.34	1687.53
739.52	1724.39
739.70	1636.33
739.88	1703.91
740.06	1740.77
740.24	1546.22
740.42	1751.01
740.60	1640.42
740.78	1644.52
740.96	1591.27
741.14	1687.53
741.32	1693.67
741.50	1662.95
741.68	1824.74
741.86	1755.11
742.04	1710.05
742.22	1619.94
742.40	1689.57
742.58	1650.66
742.76	1703.91
742.94	1769.44
743.12	1634.28
743.30	1671.14
743.48	1687.53
743.66	1683.43
743.84	1732.58
744.02	1712.10
744.20	1693.67
744.38	1710.05
744.56	1679.33
744.74	1812.45
744.92	1712.10
745.10	1773.54
745.28	1765.35
745.46	1839.08
745.64	1716.20
745.82	1724.39
746.00	1685.48
746.18	1665.00
746.36	1667.05
746.54	1773.54
746.72	1644.52
746.90	1675.24
747.08	1712.10
747.26	1705.96
747.44	1732.58
747.62	1753.06
747.80	1708.01
747.98	1710.05
748.15	1679.33
748.33	1763.30
748.51	1724.39
748.69	1734.63
748.87	1648.61
749.05	1697.77
749.23	1671.14
749.41	1736.68
749.59	1626.09
749.77	1716.20
749.95	1746.92
750.13	1685.48
750.31	1708.01
750.49	1673.19
750.67	1654.76
750.85	1804.26
751.03	1751.01
751.20	1763.30
751.38	1689.57
751.56	1746.92
751.74	1679.33
751.92	1683.43
752.10	1609.70
752.28	1669.09
752.46	1611.75
752.64	1634.28
752.82	1683.43
753.00	1738.73
753.18	1708.01
753.35	1677.29
753.53	1677.29
753.71	1671.14
753.89	1740.77
754.07	1746.92
754.25	1773.54
754.43	1695.72
754.61	1585.13
754.79	1652.71
754.97	1738.73
755.14	1755.11
755.32	1576.94
755.50	1738.73
755.68	1705.96
755.86	1634.28
756.04	1648.61
756.22	1630.18
756.40	1771.49
756.57	1779.68
756.75	1650.66
756.93	1791.97
757.11	1748.97
757.29	1714.15
757.47	1673.19
757.65	1611.75
757.82	1644.52
758.00	1662.95
758.18	1712.10
758.36	1710.05
758.54	1744.87
758.72	1611.75
758.90	1773.54
759.07	1693.67
759.25	1699.81
759.43	1699.81
759.61	1624.04
759.79	2291.68
759.97	1796.07
760.15	1609.70
760.32	1636.33
760.50	1746.92
760.68	1771.49
760.86	1611.75
761.04	1843.17
761.22	1742.82
761.39	1689.57
761.57	1718.25
761.75	1669.09
761.93	1667.05
762.11	1640.42
762.28	1644.52
762.46	1677.29
762.64	1728.49
762.82	1581.03
763.00	1658.85
763.18	1746.92
763.35	1634.28
763.53	1673.19
763.71	1757.16
763.89	1748.97
764.07	1677.29
764.24	1685.48
764.42	1673.19
764.60	1675.24
764.78	1746.92
764.96	1742.82
765.13	1832.93
765.31	1689.57
765.49	1660.90
765.67	1689.57
765.84	1615.85
766.02	1634.28
766.20	1667.05
766.38	1759.21
766.56	1751.01
766.73	1748.97
766.91	1722.34
767.09	1660.90
767.27	1751.01
767.44	1652.71
767.62	1769.44
767.80	1734.63
767.98	1656.81
768.15	1748.97
768.33	1726.44
768.51	1759.21
768.69	1691.62
768.87	1734.63
769.04	1714.15
769.22	1816.55
769.40	1775.59
769.58	1857.51
769.75	1673.19
769.93	1767.40
770.11	1705.96
770.28	1621.99
770.46	1761.25
770.64	1642.47
770.82	1736.68
770.99	1693.67
771.17	1703.91
771.35	1718.25
771.53	1705.96
771.70	1601.51
771.88	1708.01
772.06	1671.14
772.23	1669.09
772.41	1755.11
772.59	1617.90
772.77	1699.81
772.94	1738.73
773.12	1669.09
773.30	1714.15
773.47	1779.68
773.65	1595.37
773.83	1804.26
774.01	1675.24
774.18	1615.85
774.36	1693.67
774.54	1671.14
774.71	1687.53
774.89	1591.27
775.07	1693.67
775.24	1599.46
775.42	1665.00
775.60	1822.69
775.78	1628.14
775.95	1646.57
776.13	1576.94
776.31	1640.42
776.48	1697.77
776.66	1816.55
776.84	1691.62
777.01	1673.19
777.19	1716.20
777.37	1712.10
777.54	1638.38
777.72	1763.30
777.90	1724.39
778.07	1564.65
778.25	1865.70
778.43	1671.14
778.60	1730.53
778.78	1679.33
778.96	1732.58
779.13	1699.81
779.31	1701.86
779.49	1722.34
779.66	1628.14
779.84	1669.09
780.01	1699.81
780.19	1650.66
780.37	1775.59
780.54	1695.72
780.72	1677.29
780.90	1736.68
781.07	1695.72
781.25	1710.05
781.43	1714.15
781.60	1667.05
781.78	1742.82
781.95	1716.20
782.13	1652.71
782.31	1697.77
782.48	1574.89
782.66	1726.44
782.83	1757.16
783.01	1759.21
783.19	1705.96
783.36	1630.18
783.54	1697.77
783.72	1681.38
783.89	1652.71
784.07	1753.06
784.24	1748.97
784.42	1798.12
784.60	1738.73
784.77	1734.63
784.95	1593.32
785.12	1732.58
785.30	1718.25
785.47	1718.25
785.65	1652.71
785.83	1632.23
786.00	1644.52
786.18	1685.48
786.35	1624.04
786.53	1665.00
786.71	1722.34
786.88	1746.92
787.06	1746.92
787.23	1683.43
787.41	1732.58
787.58	1751.01
787.76	1679.33
787.94	1705.96
788.11	1699.81
788.29	1630.18
788.46	1662.95
788.64	1613.80
788.81	1705.96
788.99	1509.35
789.16	1642.47
789.34	1728.49
789.52	1691.62
789.69	1697.77
789.87	1603.56
790.04	1736.68
790.22	1597.42
790.39	1794.02
790.57	1632.23
790.74	1683.43
790.92	1781.73
791.09	1689.57
791.27	1718.25
791.44	1800.16
791.62	1697.77
791.79	1804.26
791.97	1742.82
792.15	1910.75
792.32	1726.44
792.50	1763.30
792.67	1812.45
792.85	1765.35
793.02	1740.77
793.20	1744.87
793.37	1581.03
793.55	1658.85
793.72	1589.22
793.90	1757.16
794.07	1689.57
794.25	1679.33
794.42	1652.71
794.60	1730.53
794.77	1742.82
794.95	1689.57
795.12	1783.78
795.30	1632.23
795.47	1609.70
795.65	1896.42
795.82	1722.34
796.00	1712.10
796.17	1662.95
796.34	1648.61
796.52	1736.68
796.69	1710.05
796.87	1773.54
797.04	1665.00
797.22	1755.11
797.39	1648.61
797.57	1798.12
797.74	1761.25
797.92	1669.09
798.09	1734.63
798.27	1757.16
798.44	1681.38
798.62	1710.05
798.79	1640.42
798.96	1650.66
799.14	1685.48
799.31	1816.55
799.49	1701.86
799.66	1619.94
799.84	1734.63
800.01	1654.76
800.19	1710.05
800.36	1609.70
800.53	1699.81
800.71	1693.67
800.88	1796.07
801.06	1648.61
801.23	1667.05
801.41	1734.63
801.58	1626.09
801.75	1654.76
801.93	1703.91
802.10	1751.01
802.28	1574.89
802.45	1703.91
802.63	1681.38
802.80	1746.92
802.97	1673.19
803.15	1705.96
803.32	1693.67
803.50	1636.33
803.67	1669.09
803.84	1613.80
804.02	1726.44
804.19	1619.94
804.37	1558.50
804.54	1624.04
804.71	1705.96
804.89	1681.38
805.06	1701.86
805.24	1603.56
805.41	1595.37
805.58	1660.90
805.76	1884.13
805.93	1712.10
806.10	1755.11
806.28	1718.25
806.45	1683.43
806.63	1777.64
806.80	1726.44
806.97	1681.38
807.15	1687.53
807.32	1732.58
807.49	1656.81
807.67	1665.00
807.84	1689.57
808.01	1544.17
808.19	1787.88
808.36	1824.74
808.54	1669.09
808.71	1638.38
808.88	1708.01
809.06	1714.15
809.23	1689.57
809.40	1677.29
809.58	1728.49
809.75	1634.28
809.92	1595.37
810.10	1767.40
810.27	1736.68
810.44	1708.01
810.62	1611.75
810.79	1783.78
810.96	1695.72
811.14	1697.77
811.31	1753.06
811.48	1732.58
811.66	1669.09
811.83	1794.02
812.00	1693.67
812.18	1648.61
812.35	1783.78
812.52	1675.24
812.69	1644.52
812.87	1726.44
813.04	1769.44
813.21	1658.85
813.39	1681.38
813.56	1601.51
813.73	1742.82
813.91	1601.51
814.08	1611.75
814.25	1648.61
814.42	1648.61
814.60	1667.05
814.77	1703.91
814.94	1716.20
815.12	1697.77
815.29	1796.07
815.46	1695.72
815.63	1705.96
815.81	1675.24
815.98	1660.90
816.15	1722.34
816.33	1738.73
816.50	1673.19
816.67	1632.23
816.84	1730.53
817.02	1654.76
817.19	1607.66
817.36	1665.00
817.53	1687.53
817.71	1646.57
817.88	1785.83
818.05	1656.81
818.22	1640.42
818.40	1708.01
818.57	1769.44
818.74	1753.06
818.91	1689.57
819.09	1732.58
819.26	1736.68
819.43	1593.32
819.60	1644.52
819.78	1771.49
819.95	1751.01
820.12	1685.48
820.29	1769.44
820.47	1722.34
820.64	1628.14
820.81	1632.23
820.98	1701.86
821.15	1617.90
821.33	1794.02
821.50	1685.48
821.67	1691.62
821.84	1685.48
822.02	1726.44
822.19	1789.92
822.36	1718.25
822.53	1697.77
822.70	1697.77
822.88	1615.85
823.05	1791.97
823.22	1736.68
823.39	1734.63
823.56	1689.57
823.74	1841.12
823.91	1679.33
824.08	1656.81
824.25	1675.24
824.42	1753.06
824.60	1615.85
824.77	1646.57
824.94	1732.58
825.11	1695.72
825.28	1597.42
825.45	1777.64
825.63	1681.38
825.80	1593.32
825.97	1765.35
826.14	1689.57
826.31	1681.38
826.48	1751.01
826.66	1675.24
826.83	1615.85
827.00	1615.85
827.17	1607.66
827.34	1652.71
827.51	1753.06
827.69	1648.61
827.86	1656.81
828.03	1701.86
828.20	1669.09
828.37	1755.11
828.54	1724.39
828.71	1613.80
828.89	1886.18
829.06	1724.39
829.23	1800.16
829.40	1626.09
829.57	1640.42
829.74	1701.86
829.91	1744.87
830.09	1619.94
830.26	1738.73
830.43	1820.64
830.60	1626.09
830.77	1755.11
830.94	1734.63
831.11	1687.53
831.28	1642.47
831.46	1703.91
831.63	1624.04
831.80	1751.01
831.97	1724.39
832.14	1660.90
832.31	1847.27
832.48	1671.14
832.65	1708.01
832.82	1642.47
832.99	1812.45
833.17	1660.90
833.34	1771.49
833.51	1783.78
833.68	1560.55
833.85	1789.92
834.02	1705.96
834.19	1624.04
834.36	1685.48
834.53	1734.63
834.70	1730.53
834.87	1720.29
835.04	1665.00
835.22	1640.42
835.39	1679.33
835.56	1626.09
835.73	1746.92
835.90	1656.81
836.07	1644.52
836.24	1728.49
836.41	1650.66
836.58	1632.23
836.75	1738.73
836.92	1665.00
837.09	1658.85
837.26	1720.29
837.43	1724.39
837.60	1728.49
837.77	1665.00
837.94	1796.07
838.12	1740.77
838.29	1724.39
838.46	1603.56
838.63	1640.42
838.80	1738.73
838.97	1712.10
839.14	1685.48
839.31	1742.82
839.48	1748.97
839.65	1691.62
839.82	1789.92
839.99	1753.06
840.16	1689.57
840.33	1603.56
840.50	1665.00
840.67	1695.72
840.84	1574.89
841.01	1748.97
841.18	1744.87
841.35	1648.61
841.52	1769.44
841.69	1916.90
841.86	1675.24
842.03	1746.92
842.20	1728.49
842.37	1738.73
842.54	1675.24
842.71	1738.73
842.88	1671.14
843.05	1712.10
843.22	1669.09
843.39	1779.68
843.56	1648.61
843.73	1753.06
843.90	1724.39
844.07	1662.95
844.24	1787.88
844.41	1718.25
844.58	1753.06
844.75	1640.42
844.92	1660.90
845.09	1669.09
845.26	1695.72
845.43	1746.92
845.60	1654.76
845.77	1732.58
845.94	1689.57
846.10	1738.73
846.27	1619.94
846.44	1673.19
846.61	1660.90
846.78	1781.73
846.95	1703.91
847.12	1656.81
847.29	1699.81
847.46	1712.10
847.63	1740.77
847.80	1669.09
847.97	1681.38
848.14	1832.93
848.31	1683.43
848.48	1570.79
848.65	1693.67
848.82	1648.61
848.98	1830.88
849.15	1787.88
849.32	1849.32
849.49	1689.57
849.66	1648.61
849.83	1705.96
850.00	1599.46
850.17	1773.54
850.34	1624.04
850.51	1685.48
850.68	1624.04
850.85	1785.83
851.01	1691.62
851.18	1675.24
851.35	1742.82
851.52	1722.34
851.69	1759.21
851.86	1648.61
852.03	1667.05
852.20	1761.25
852.37	1765.35
852.53	1644.52
852.70	1724.39
852.87	1576.94
853.04	1783.78
853.21	1724.39
853.38	1693.67
853.55	1755.11
853.72	1712.10
853.89	1658.85
854.05	1632.23
854.22	1644.52
854.39	1720.29
854.56	1775.59
854.73	1806.31
854.90	1646.57
855.07	1699.81
855.23	1683.43
855.40	1669.09
855.57	1597.42
855.74	1642.47
855.91	1865.70
856.08	1660.90
856.25	1554.41
856.41	1689.57
856.58	1624.04
856.75	1669.09
856.92	1617.90
857.09	1761.25
857.26	1675.24
857.42	1656.81
857.59	1732.58
857.76	1705.96
857.93	1755.11
858.10	1716.20
858.27	1699.81
858.43	1761.25
858.60	1665.00
858.77	1599.46
858.94	1626.09
859.11	1740.77
859.27	1724.39
859.44	1658.85
859.61	1822.69
859.78	1701.86
859.95	1665.00
860.12	1732.58
860.28	1734.63
860.45	1822.69
860.62	1658.85
860.79	1767.40
860.95	1699.81
861.12	1646.57
861.29	1677.29
861.46	1673.19
861.63	1671.14
861.79	1613.80
861.96	1521.64
862.13	1652.71
862.30	1775.59
862.47	1669.09
862.63	1632.23
862.80	1808.36
862.97	1701.86
863.14	1675.24
863.30	1636.33
863.47	1634.28
863.64	1701.86
863.81	1720.29
863.97	1597.42
864.14	1652.71
864.31	1673.19
864.48	1728.49
864.65	1716.20
864.81	1714.15
864.98	1740.77
865.15	1673.19
865.32	1730.53
865.48	1773.54
865.65	1746.92
865.82	1644.52
865.98	1748.97
866.15	1691.62
866.32	1619.94
866.49	1626.09
866.65	1736.68
866.82	1644.52
866.99	1771.49
867.16	1722.34
867.32	1615.85
867.49	1611.75
867.66	1675.24
867.83	1646.57
867.99	1556.46
868.16	1644.52
868.33	1603.56
868.49	1652.71
868.66	1740.77
868.83	1802.21
868.99	1738.73
869.16	1658.85
869.33	1705.96
869.50	1757.16
869.66	1642.47
869.83	1658.85
870.00	1591.27
870.16	1699.81
870.33	1673.19
870.50	1767.40
870.66	1652.71
870.83	1806.31
871.00	1703.91
871.17	1714.15
871.33	1697.77
871.50	1746.92
871.67	1681.38
871.83	1744.87
872.00	1787.88
872.17	1718.25
872.33	1740.77
872.50	1703.91
872.67	1650.66
872.83	1722.34
873.00	1714.15
873.17	1689.57
873.33	1728.49
873.50	1648.61
873.67	1673.19
873.83	1640.42
874.00	1779.68
874.16	1703.91
874.33	1648.61
874.50	1648.61
874.66	1732.58
874.83	1660.90
875.00	1722.34
875.16	1763.30
875.33	1685.48
875.50	1603.56
875.66	1652.71
875.83	1695.72
875.99	1746.92
876.16	1652.71
876.33	1695.72
876.49	1671.14
876.66	1693.67
876.83	1697.77
876.99	1613.80
877.16	1681.38
877.32	1675.24
877.49	1611.75
877.66	1654.76
877.82	1720.29
877.99	1697.77
878.15	1726.44
878.32	1742.82
878.49	1730.53
878.65	1705.96
878.82	1767.40
878.98	1626.09
879.15	1757.16
879.32	1757.16
879.48	1708.01
879.65	1718.25
879.81	1732.58
879.98	1701.86
880.15	1720.29
880.31	1740.77
880.48	1689.57
880.64	1755.11
880.81	1689.57
880.97	1787.88
881.14	1751.01
881.31	1585.13
881.47	1755.11
881.64	1697.77
881.80	1613.80
881.97	1724.39
882.13	1697.77
882.30	1667.05
882.47	1701.86
882.63	1683.43
882.80	1632.23
882.96	1753.06
883.13	1665.00
883.29	1689.57
883.46	1787.88
883.62	1834.98
883.79	1740.77
883.95	1751.01
884.12	1667.05
884.29	1746.92
884.45	1736.68
884.62	1691.62
884.78	1656.81
884.95	1722.34
885.11	1699.81
885.28	1697.77
885.44	1611.75
885.61	1683.43
885.77	1728.49
885.94	1638.38
886.10	1753.06
886.27	1652.71
886.43	1851.36
886.60	1757.16
886.76	1628.14
886.93	1603.56
887.09	1738.73
887.26	1626.09
887.42	1669.09
887.59	1759.21
887.75	1884.13
887.92	1722.34
888.08	1740.77
888.25	1875.94
888.41	1710.05
888.58	1726.44
888.74	1675.24
888.91	1628.14
>>>>>End Processed Spectral Data<<<<<
