SpectraSuite Data File
++++++++++++++++++++++++++++++++++++
Date: Mon Jun 06 13:59:57 CEST 2016
User: root
Dark Spectrum Present: No
Reference Spectrum Present: No
Number of Sampled Component Spectra: 1
Spectrometers: USB4C02835
Integration Time (usec): 100000 (USB4C02835)
Spectra Averaged: 1 (USB4C02835)
Boxcar Smoothing: 0 (USB4C02835)
Correct for Electrical Dark: No (USB4C02835)
Strobe/Lamp Enabled: No (USB4C02835)
Correct for Detector Non-linearity: No (USB4C02835)
Correct for Stray Light: No (USB4C02835)
Number of Pixels in Processed Spectrum: 3648
>>>>>Begin Processed Spectral Data<<<<<
177.47	1470.44
177.69	1470.44
177.91	1470.44
178.13	1492.97
178.36	1501.16
178.58	1673.19
178.80	1726.44
179.02	1656.81
179.24	1607.66
179.46	1736.68
179.68	1710.05
179.90	1726.44
180.13	1732.58
180.35	1701.86
180.57	1656.81
180.79	1798.12
181.01	1642.47
181.23	1734.63
181.45	1828.84
181.67	1730.53
181.90	1787.88
182.12	1642.47
182.34	1589.22
182.56	1771.49
182.78	1726.44
183.00	1679.33
183.22	1648.61
183.44	1630.18
183.66	1830.88
183.89	1718.25
184.11	1734.63
184.33	1718.25
184.55	1771.49
184.77	1669.09
184.99	1693.67
185.21	1705.96
185.43	1855.46
185.65	1624.04
185.87	1796.07
186.10	1818.60
186.32	1904.61
186.54	1699.81
186.76	1710.05
186.98	1767.40
187.20	1718.25
187.42	1720.29
187.64	1665.00
187.86	1716.20
188.08	1796.07
188.30	1708.01
188.52	1722.34
188.75	1722.34
188.97	1738.73
189.19	1665.00
189.41	1687.53
189.63	1746.92
189.85	1691.62
190.07	1665.00
190.29	1648.61
190.51	1728.49
190.73	1603.56
190.95	1796.07
191.17	1726.44
191.39	1611.75
191.61	1744.87
191.84	1673.19
192.06	1705.96
192.28	1550.31
192.50	1880.04
192.72	1759.21
192.94	1757.16
193.16	1736.68
193.38	1732.58
193.60	1677.29
193.82	1683.43
194.04	1718.25
194.26	1703.91
194.48	1677.29
194.70	1689.57
194.92	1714.15
195.14	1691.62
195.36	1636.33
195.58	1724.39
195.80	1691.62
196.02	1630.18
196.24	1689.57
196.46	1714.15
196.69	1636.33
196.91	1853.41
197.13	1759.21
197.35	1613.80
197.57	1738.73
197.79	1773.54
198.01	1667.05
198.23	1771.49
198.45	1814.50
198.67	1624.04
198.89	1714.15
199.11	1718.25
199.33	1693.67
199.55	1574.89
199.77	1656.81
199.99	1767.40
200.21	1742.82
200.43	1710.05
200.65	1669.09
200.87	1605.61
201.09	1693.67
201.31	1658.85
201.53	1785.83
201.75	1677.29
201.97	1611.75
202.19	1779.68
202.41	1681.38
202.63	1818.60
202.85	1726.44
203.07	1693.67
203.29	1665.00
203.51	1646.57
203.73	1648.61
203.95	1888.23
204.17	1722.34
204.39	1658.85
204.61	1619.94
204.83	1722.34
205.05	1671.14
205.27	1701.86
205.49	1767.40
205.71	1658.85
205.93	1634.28
206.15	1673.19
206.37	1691.62
206.59	1714.15
206.81	1642.47
207.03	1644.52
207.25	1628.14
207.47	1697.77
207.69	1630.18
207.91	1746.92
208.13	1781.73
208.34	1669.09
208.56	1617.90
208.78	1763.30
209.00	1654.76
209.22	1685.48
209.44	1720.29
209.66	1683.43
209.88	1708.01
210.10	1736.68
210.32	1632.23
210.54	1746.92
210.76	1675.24
210.98	1753.06
211.20	1560.55
211.42	1679.33
211.64	1761.25
211.86	1755.11
212.08	1751.01
212.30	1722.34
212.52	1683.43
212.74	1716.20
212.96	1728.49
213.17	1699.81
213.39	1734.63
213.61	1783.78
213.83	1773.54
214.05	1673.19
214.27	1806.31
214.49	1658.85
214.71	1742.82
214.93	1755.11
215.15	1689.57
215.37	1716.20
215.59	1644.52
215.81	1746.92
216.03	1810.40
216.24	1685.48
216.46	1716.20
216.68	1642.47
216.90	1771.49
217.12	1734.63
217.34	1767.40
217.56	1697.77
217.78	1755.11
218.00	1810.40
218.22	1744.87
218.44	1685.48
218.66	1798.12
218.87	1839.08
219.09	1763.30
219.31	1701.86
219.53	1724.39
219.75	1687.53
219.97	1720.29
220.19	1705.96
220.41	1638.38
220.63	1775.59
220.85	1751.01
221.06	1722.34
221.28	1777.64
221.50	1742.82
221.72	1662.95
221.94	1791.97
222.16	1734.63
222.38	1755.11
222.60	1708.01
222.82	1683.43
223.03	1773.54
223.25	1605.61
223.47	1767.40
223.69	1777.64
223.91	1810.40
224.13	1714.15
224.35	1656.81
224.57	1691.62
224.78	1732.58
225.00	1734.63
225.22	1753.06
225.44	1722.34
225.66	1738.73
225.88	1730.53
226.10	1779.68
226.32	1712.10
226.53	1869.80
226.75	1699.81
226.97	1675.24
227.19	1669.09
227.41	1681.38
227.63	1652.71
227.85	1675.24
228.06	1697.77
228.28	1728.49
228.50	1742.82
228.72	1613.80
228.94	1677.29
229.16	1605.61
229.37	1685.48
229.59	1671.14
229.81	1732.58
230.03	1667.05
230.25	1619.94
230.47	1581.03
230.69	1648.61
230.90	1701.86
231.12	1673.19
231.34	1804.26
231.56	1736.68
231.78	1648.61
232.00	1746.92
232.21	1699.81
232.43	1669.09
232.65	1599.46
232.87	1757.16
233.09	1589.22
233.30	1671.14
233.52	1746.92
233.74	1656.81
233.96	1650.66
234.18	1722.34
234.40	1695.72
234.61	1853.41
234.83	1556.46
235.05	1644.52
235.27	1761.25
235.49	1761.25
235.70	1738.73
235.92	1755.11
236.14	1734.63
236.36	1886.18
236.58	1638.38
236.79	1660.90
237.01	1710.05
237.23	1726.44
237.45	1802.21
237.67	1701.86
237.88	1675.24
238.10	1824.74
238.32	1632.23
238.54	1669.09
238.76	1660.90
238.97	1683.43
239.19	1605.61
239.41	1708.01
239.63	1734.63
239.85	1626.09
240.06	1726.44
240.28	1740.77
240.50	1791.97
240.72	1697.77
240.93	1681.38
241.15	1771.49
241.37	1703.91
241.59	1767.40
241.81	1673.19
242.02	1767.40
242.24	1644.52
242.46	1765.35
242.68	1697.77
242.89	1654.76
243.11	1740.77
243.33	1708.01
243.55	1660.90
243.76	1732.58
243.98	1681.38
244.20	1697.77
244.42	1640.42
244.64	1701.86
244.85	1597.42
245.07	1603.56
245.29	1722.34
245.51	1701.86
245.72	1667.05
245.94	1818.60
246.16	1718.25
246.38	1763.30
246.59	1683.43
246.81	1722.34
247.03	1701.86
247.24	1615.85
247.46	1630.18
247.68	1716.20
247.90	1734.63
248.11	1710.05
248.33	1673.19
248.55	1667.05
248.77	1632.23
248.98	1798.12
249.20	1744.87
249.42	1718.25
249.64	1769.44
249.85	1642.47
250.07	1660.90
250.29	1718.25
250.50	1738.73
250.72	1656.81
250.94	1681.38
251.16	1867.75
251.37	1744.87
251.59	1701.86
251.81	1656.81
252.02	1726.44
252.24	1658.85
252.46	1820.64
252.68	1624.04
252.89	1603.56
253.11	1650.66
253.33	1826.79
253.54	1847.27
253.76	1695.72
253.98	1728.49
254.20	1734.63
254.41	1658.85
254.63	1705.96
254.85	1751.01
255.06	1689.57
255.28	1691.62
255.50	1695.72
255.71	1716.20
255.93	1632.23
256.15	1677.29
256.36	1724.39
256.58	1646.57
256.80	1726.44
257.02	1705.96
257.23	1667.05
257.45	1705.96
257.67	1742.82
257.88	1665.00
258.10	1693.67
258.32	1755.11
258.53	1767.40
258.75	1744.87
258.97	1656.81
259.18	1695.72
259.40	1669.09
259.62	1839.08
259.83	1777.64
260.05	1751.01
260.27	1953.76
260.48	1710.05
260.70	1613.80
260.92	1679.33
261.13	1714.15
261.35	1656.81
261.57	1685.48
261.78	1615.85
262.00	1718.25
262.22	1791.97
262.43	1628.14
262.65	1648.61
262.86	1712.10
263.08	1853.41
263.30	1697.77
263.51	1677.29
263.73	1650.66
263.95	1753.06
264.16	1662.95
264.38	1742.82
264.60	1732.58
264.81	1648.61
265.03	1757.16
265.25	1763.30
265.46	1685.48
265.68	1677.29
265.89	1742.82
266.11	1601.51
266.33	1742.82
266.54	1726.44
266.76	1738.73
266.98	1761.25
267.19	1816.55
267.41	1744.87
267.62	1683.43
267.84	1595.37
268.06	1685.48
268.27	1685.48
268.49	1658.85
268.70	1781.73
268.92	1673.19
269.14	1679.33
269.35	1671.14
269.57	1730.53
269.79	1757.16
270.00	1710.05
270.22	1791.97
270.43	1617.90
270.65	1560.55
270.87	1732.58
271.08	1765.35
271.30	1773.54
271.51	1634.28
271.73	1679.33
271.95	1740.77
272.16	1716.20
272.38	1642.47
272.59	1656.81
272.81	1746.92
273.02	1699.81
273.24	1697.77
273.46	1671.14
273.67	1638.38
273.89	1640.42
274.10	1673.19
274.32	1742.82
274.54	1685.48
274.75	1685.48
274.97	1675.24
275.18	1783.78
275.40	1689.57
275.61	1642.47
275.83	1683.43
276.05	1677.29
276.26	1804.26
276.48	1736.68
276.69	1626.09
276.91	1654.76
277.12	1798.12
277.34	1697.77
277.55	1716.20
277.77	1765.35
277.99	1714.15
278.20	1617.90
278.42	1693.67
278.63	1654.76
278.85	1587.18
279.06	1720.29
279.28	1669.09
279.49	1806.31
279.71	1677.29
279.93	1660.90
280.14	1683.43
280.36	1665.00
280.57	1751.01
280.79	1673.19
281.00	1656.81
281.22	1638.38
281.43	1716.20
281.65	1615.85
281.86	1617.90
282.08	1755.11
282.29	1787.88
282.51	1669.09
282.73	1628.14
282.94	1673.19
283.16	1667.05
283.37	1726.44
283.59	1720.29
283.80	1699.81
284.02	1619.94
284.23	1667.05
284.45	1650.66
284.66	1656.81
284.88	1669.09
285.09	1699.81
285.31	1714.15
285.52	1746.92
285.74	1675.24
285.95	1677.29
286.17	1742.82
286.38	1626.09
286.60	1619.94
286.81	1665.00
287.03	1646.57
287.24	1652.71
287.46	1759.21
287.67	1695.72
287.89	1865.70
288.10	1665.00
288.32	1703.91
288.53	1746.92
288.75	1689.57
288.96	1726.44
289.18	1681.38
289.39	1701.86
289.61	1736.68
289.82	1812.45
290.04	1800.16
290.25	1656.81
290.47	1705.96
290.68	1738.73
290.90	1748.97
291.11	1634.28
291.33	1798.12
291.54	1644.52
291.76	1675.24
291.97	1687.53
292.18	1738.73
292.40	1656.81
292.61	1658.85
292.83	1810.40
293.04	1691.62
293.26	1746.92
293.47	1712.10
293.69	1658.85
293.90	1652.71
294.12	1726.44
294.33	1685.48
294.55	1675.24
294.76	1796.07
294.97	1695.72
295.19	1834.98
295.40	1683.43
295.62	1667.05
295.83	1787.88
296.05	1724.39
296.26	1689.57
296.48	1730.53
296.69	1742.82
296.90	1712.10
297.12	1767.40
297.33	1763.30
297.55	1687.53
297.76	1773.54
297.98	1804.26
298.19	1755.11
298.41	1689.57
298.62	1648.61
298.83	1779.68
299.05	1767.40
299.26	1652.71
299.48	1603.56
299.69	1718.25
299.90	1734.63
300.12	1626.09
300.33	1763.30
300.55	1665.00
300.76	1779.68
300.98	1652.71
301.19	1685.48
301.40	1671.14
301.62	1738.73
301.83	1724.39
302.05	1658.85
302.26	1671.14
302.47	1714.15
302.69	1685.48
302.90	1746.92
303.12	1642.47
303.33	1742.82
303.54	1753.06
303.76	1736.68
303.97	1736.68
304.19	1765.35
304.40	1701.86
304.61	1705.96
304.83	1767.40
305.04	1732.58
305.26	1660.90
305.47	1566.70
305.68	1751.01
305.90	1718.25
306.11	1759.21
306.33	1683.43
306.54	1648.61
306.75	1660.90
306.97	1611.75
307.18	1656.81
307.39	1683.43
307.61	1751.01
307.82	1691.62
308.04	1701.86
308.25	1615.85
308.46	1671.14
308.68	1673.19
308.89	1689.57
309.10	1853.41
309.32	1607.66
309.53	1615.85
309.74	1763.30
309.96	1669.09
310.17	1757.16
310.39	1753.06
310.60	1728.49
310.81	1757.16
311.03	1673.19
311.24	1669.09
311.45	1665.00
311.67	1853.41
311.88	1630.18
312.09	1652.71
312.31	1701.86
312.52	1695.72
312.73	1644.52
312.95	1587.18
313.16	1759.21
313.37	1806.31
313.59	1751.01
313.80	1728.49
314.01	1769.44
314.23	1681.38
314.44	1636.33
314.65	1621.99
314.87	1624.04
315.08	1736.68
315.29	1677.29
315.51	1693.67
315.72	1724.39
315.93	1826.79
316.15	1712.10
316.36	1636.33
316.57	1742.82
316.79	1730.53
317.00	1716.20
317.21	1718.25
317.43	1658.85
317.64	1757.16
317.85	1683.43
318.07	1697.77
318.28	1755.11
318.49	1755.11
318.70	1939.43
318.92	1767.40
319.13	1783.78
319.34	1869.80
319.56	1818.60
319.77	1742.82
319.98	1781.73
320.20	1800.16
320.41	1669.09
320.62	1802.21
320.83	1646.57
321.05	1841.12
321.26	1691.62
321.47	1695.72
321.69	1759.21
321.90	1660.90
322.11	1695.72
322.32	1726.44
322.54	1824.74
322.75	1675.24
322.96	1796.07
323.18	1613.80
323.39	1574.89
323.60	1636.33
323.81	1771.49
324.03	1685.48
324.24	1703.91
324.45	1691.62
324.66	1632.23
324.88	1724.39
325.09	1785.83
325.30	1728.49
325.52	1738.73
325.73	1705.96
325.94	1671.14
326.15	1638.38
326.37	1708.01
326.58	1777.64
326.79	1746.92
327.00	1681.38
327.22	1740.77
327.43	1611.75
327.64	1562.60
327.85	1751.01
328.07	1812.45
328.28	1787.88
328.49	1628.14
328.70	1705.96
328.92	1669.09
329.13	1671.14
329.34	1730.53
329.55	1765.35
329.76	1812.45
329.98	1722.34
330.19	1755.11
330.40	1708.01
330.61	1769.44
330.83	1740.77
331.04	1724.39
331.25	1759.21
331.46	1611.75
331.68	1605.61
331.89	1759.21
332.10	1619.94
332.31	1624.04
332.52	1667.05
332.74	1845.22
332.95	1570.79
333.16	1593.32
333.37	1757.16
333.58	1685.48
333.80	1624.04
334.01	1626.09
334.22	1705.96
334.43	1683.43
334.64	1699.81
334.86	1613.80
335.07	1628.14
335.28	1775.59
335.49	1630.18
335.70	1763.30
335.92	1703.91
336.13	1804.26
336.34	1703.91
336.55	1693.67
336.76	1705.96
336.98	1640.42
337.19	1665.00
337.40	1724.39
337.61	1812.45
337.82	1783.78
338.04	1722.34
338.25	1624.04
338.46	1691.62
338.67	1726.44
338.88	1695.72
339.09	1669.09
339.31	1744.87
339.52	1634.28
339.73	1681.38
339.94	1650.66
340.15	1718.25
340.36	1630.18
340.58	1693.67
340.79	1695.72
341.00	1773.54
341.21	1681.38
341.42	1841.12
341.63	1705.96
341.85	1701.86
342.06	1802.21
342.27	1640.42
342.48	1798.12
342.69	1611.75
342.90	1746.92
343.12	1722.34
343.33	1697.77
343.54	1703.91
343.75	1816.55
343.96	1658.85
344.17	1681.38
344.38	1699.81
344.60	1691.62
344.81	1642.47
345.02	1697.77
345.23	1787.88
345.44	1808.36
345.65	1746.92
345.86	1728.49
346.07	1648.61
346.29	1718.25
346.50	1650.66
346.71	1710.05
346.92	1751.01
347.13	1828.84
347.34	1714.15
347.55	1667.05
347.76	1769.44
347.98	1648.61
348.19	1652.71
348.40	1693.67
348.61	1656.81
348.82	1814.50
349.03	1736.68
349.24	1665.00
349.45	1781.73
349.66	1656.81
349.88	1705.96
350.09	1722.34
350.30	1902.56
350.51	1718.25
350.72	1708.01
350.93	1730.53
351.14	1646.57
351.35	1740.77
351.56	1732.58
351.77	1705.96
351.99	1665.00
352.20	1869.80
352.41	1763.30
352.62	1630.18
352.83	1695.72
353.04	1685.48
353.25	1646.57
353.46	1732.58
353.67	1722.34
353.88	1681.38
354.09	1734.63
354.30	1703.91
354.52	1695.72
354.73	1773.54
354.94	1667.05
355.15	1738.73
355.36	1742.82
355.57	1556.46
355.78	1748.97
355.99	1708.01
356.20	1734.63
356.41	1830.88
356.62	1644.52
356.83	1730.53
357.04	1834.98
357.25	1648.61
357.46	1679.33
357.68	1576.94
357.89	1626.09
358.10	1705.96
358.31	1628.14
358.52	1697.77
358.73	1685.48
358.94	1624.04
359.15	1642.47
359.36	1736.68
359.57	1724.39
359.78	1720.29
359.99	1791.97
360.20	1611.75
360.41	1652.71
360.62	1705.96
360.83	1677.29
361.04	1681.38
361.25	1687.53
361.46	1882.08
361.67	1708.01
361.88	1748.97
362.09	1771.49
362.30	1679.33
362.51	1699.81
362.72	1791.97
362.93	1730.53
363.14	1673.19
363.35	1689.57
363.56	1609.70
363.78	1791.97
363.99	1679.33
364.20	1646.57
364.41	1640.42
364.62	1796.07
364.83	1746.92
365.04	1667.05
365.25	1732.58
365.46	1832.93
365.67	1644.52
365.88	1648.61
366.09	1718.25
366.30	1656.81
366.51	1814.50
366.72	1583.08
366.93	1740.77
367.14	1748.97
367.35	1843.17
367.56	1673.19
367.77	1767.40
367.98	1740.77
368.18	1705.96
368.39	1763.30
368.60	1675.24
368.81	1761.25
369.02	1755.11
369.23	1673.19
369.44	1642.47
369.65	1660.90
369.86	1734.63
370.07	1710.05
370.28	1560.55
370.49	1736.68
370.70	1675.24
370.91	1646.57
371.12	1656.81
371.33	1742.82
371.54	1652.71
371.75	1740.77
371.96	1617.90
372.17	1640.42
372.38	1726.44
372.59	1681.38
372.80	1687.53
373.01	1720.29
373.22	1662.95
373.43	1687.53
373.64	1621.99
373.85	1679.33
374.06	1753.06
374.26	1810.40
374.47	1681.38
374.68	1726.44
374.89	1724.39
375.10	1644.52
375.31	1697.77
375.52	1718.25
375.73	1701.86
375.94	1710.05
376.15	1787.88
376.36	1671.14
376.57	1611.75
376.78	1669.09
376.99	1732.58
377.20	1800.16
377.40	1673.19
377.61	1816.55
377.82	1738.73
378.03	1744.87
378.24	1687.53
378.45	1787.88
378.66	1665.00
378.87	1558.50
379.08	1591.27
379.29	1681.38
379.50	1716.20
379.71	1642.47
379.91	1771.49
380.12	1677.29
380.33	1759.21
380.54	1699.81
380.75	1714.15
380.96	1722.34
381.17	1771.49
381.38	1708.01
381.59	1820.64
381.80	1746.92
382.00	1798.12
382.21	1757.16
382.42	1812.45
382.63	1845.22
382.84	1755.11
383.05	1751.01
383.26	1720.29
383.47	1708.01
383.68	1804.26
383.88	1679.33
384.09	1804.26
384.30	1814.50
384.51	1685.48
384.72	1662.95
384.93	1626.09
385.14	1662.95
385.35	1726.44
385.55	1648.61
385.76	1767.40
385.97	1734.63
386.18	1554.41
386.39	1726.44
386.60	1734.63
386.81	1759.21
387.02	1609.70
387.22	1615.85
387.43	1798.12
387.64	1841.12
387.85	1929.19
388.06	2187.23
388.27	4313.02
388.48	6784.92
388.68	8167.30
388.89	9576.30
389.10	9854.83
389.31	8652.67
389.52	7690.12
389.73	6825.88
389.93	6152.10
390.14	5894.05
390.35	5177.26
390.56	4585.40
390.77	3688.39
390.98	3026.90
391.18	2508.76
391.39	2179.04
391.60	1832.93
391.81	1820.64
392.02	1636.33
392.23	1791.97
392.43	1767.40
392.64	1777.64
392.85	1726.44
393.06	1802.21
393.27	1724.39
393.47	1685.48
393.68	1697.77
393.89	1648.61
394.10	1757.16
394.31	1667.05
394.52	1634.28
394.72	1691.62
394.93	1738.73
395.14	1693.67
395.35	1683.43
395.56	1685.48
395.76	1716.20
395.97	1796.07
396.18	1779.68
396.39	1841.12
396.60	2050.02
396.80	1910.75
397.01	1841.12
397.22	1759.21
397.43	1837.03
397.64	1734.63
397.84	1810.40
398.05	1859.56
398.26	1687.53
398.47	1794.02
398.67	1740.77
398.88	1775.59
399.09	1765.35
399.30	1751.01
399.51	1730.53
399.71	1677.29
399.92	1677.29
400.13	1722.34
400.34	1759.21
400.54	1652.71
400.75	1771.49
400.96	1685.48
401.17	1841.12
401.37	1804.26
401.58	1640.42
401.79	1726.44
402.00	1865.70
402.21	1986.53
402.41	1986.53
402.62	2099.17
402.83	1980.39
403.04	1927.14
403.24	1927.14
403.45	1914.85
403.66	1898.47
403.87	1871.84
404.07	1902.56
404.28	1927.14
404.49	1886.18
404.70	1791.97
404.90	1832.93
405.11	1751.01
405.32	1787.88
405.52	1667.05
405.73	1665.00
405.94	1675.24
406.15	1724.39
406.35	1759.21
406.56	1714.15
406.77	1742.82
406.98	1675.24
407.18	1677.29
407.39	1777.64
407.60	1726.44
407.80	1759.21
408.01	1669.09
408.22	1830.88
408.43	1589.22
408.63	1730.53
408.84	1726.44
409.05	1755.11
409.25	1646.57
409.46	1712.10
409.67	1673.19
409.88	1695.72
410.08	1683.43
410.29	1644.52
410.50	1775.59
410.70	1697.77
410.91	1665.00
411.12	1697.77
411.32	1697.77
411.53	1626.09
411.74	1781.73
411.95	1787.88
412.15	1693.67
412.36	1845.22
412.57	1787.88
412.77	1746.92
412.98	1744.87
413.19	1681.38
413.39	1843.17
413.60	1773.54
413.81	1832.93
414.01	1656.81
414.22	1697.77
414.43	1738.73
414.63	1640.42
414.84	1708.01
415.05	1683.43
415.25	1628.14
415.46	1742.82
415.67	1660.90
415.87	1767.40
416.08	1722.34
416.29	1708.01
416.49	1763.30
416.70	1630.18
416.91	1660.90
417.11	1665.00
417.32	1757.16
417.53	1751.01
417.73	1705.96
417.94	1730.53
418.15	1720.29
418.35	1779.68
418.56	1722.34
418.77	1800.16
418.97	1759.21
419.18	1665.00
419.38	1619.94
419.59	1679.33
419.80	1701.86
420.00	1681.38
420.21	1746.92
420.42	1720.29
420.62	1683.43
420.83	1697.77
421.04	1679.33
421.24	1667.05
421.45	1753.06
421.65	1683.43
421.86	1656.81
422.07	1736.68
422.27	1710.05
422.48	1667.05
422.69	1603.56
422.89	1722.34
423.10	1738.73
423.30	1632.23
423.51	1654.76
423.72	1673.19
423.92	1732.58
424.13	1677.29
424.33	1683.43
424.54	1726.44
424.75	1726.44
424.95	1763.30
425.16	1720.29
425.36	1669.09
425.57	1755.11
425.78	1781.73
425.98	1767.40
426.19	1671.14
426.39	1669.09
426.60	1742.82
426.81	1783.78
427.01	1615.85
427.22	1640.42
427.42	1665.00
427.63	1632.23
427.83	1830.88
428.04	1714.15
428.25	1794.02
428.45	1812.45
428.66	1839.08
428.86	1685.48
429.07	1605.61
429.28	1677.29
429.48	1722.34
429.69	1703.91
429.89	1755.11
430.10	1591.27
430.30	1677.29
430.51	1800.16
430.71	1689.57
430.92	1744.87
431.13	1673.19
431.33	1673.19
431.54	1751.01
431.74	1751.01
431.95	1822.69
432.15	1677.29
432.36	1675.24
432.56	1755.11
432.77	1773.54
432.98	1853.41
433.18	1736.68
433.39	1689.57
433.59	1634.28
433.80	1738.73
434.00	1722.34
434.21	1777.64
434.41	1736.68
434.62	1834.98
434.82	1669.09
435.03	1724.39
435.23	1732.58
435.44	1581.03
435.64	1701.86
435.85	1724.39
436.06	1722.34
436.26	1767.40
436.47	1728.49
436.67	1644.52
436.88	1667.05
437.08	1638.38
437.29	1732.58
437.49	1722.34
437.70	1744.87
437.90	1589.22
438.11	1818.60
438.31	1839.08
438.52	1877.99
438.72	1832.93
438.93	1855.46
439.13	1757.16
439.34	1837.03
439.54	1802.21
439.75	1828.84
439.95	1718.25
440.16	1738.73
440.36	1730.53
440.57	1703.91
440.77	1726.44
440.98	1697.77
441.18	1665.00
441.39	1705.96
441.59	1667.05
441.80	1806.31
442.00	1691.62
442.21	1814.50
442.41	1650.66
442.62	1767.40
442.82	1705.96
443.02	1705.96
443.23	1705.96
443.43	1693.67
443.64	1806.31
443.84	1703.91
444.05	1851.36
444.25	1740.77
444.46	1751.01
444.66	1705.96
444.87	1867.75
445.07	1581.03
445.28	1685.48
445.48	1740.77
445.69	1839.08
445.89	1910.75
446.09	1724.39
446.30	2078.69
446.50	2562.01
446.71	3659.72
446.91	4276.16
447.12	4902.84
447.32	4763.58
447.53	4317.12
447.73	3764.17
447.93	3553.23
448.14	3327.95
448.34	3229.65
448.55	2947.03
448.75	2822.10
448.96	2695.13
449.16	2394.08
449.36	2316.25
449.57	2064.35
449.77	1914.85
449.98	1777.64
450.18	1818.60
450.39	1834.98
450.59	1824.74
450.79	1742.82
451.00	1705.96
451.20	1753.06
451.41	1757.16
451.61	1736.68
451.81	1703.91
452.02	1744.87
452.22	1648.61
452.43	1685.48
452.63	1720.29
452.84	1757.16
453.04	1697.77
453.24	1779.68
453.45	1689.57
453.65	1759.21
453.86	1746.92
454.06	1787.88
454.26	1718.25
454.47	1710.05
454.67	1796.07
454.87	1800.16
455.08	1703.91
455.28	1826.79
455.49	1875.94
455.69	1744.87
455.89	1857.51
456.10	1779.68
456.30	1787.88
456.51	1714.15
456.71	1714.15
456.91	1738.73
457.12	1771.49
457.32	1873.89
457.52	1615.85
457.73	1785.83
457.93	1806.31
458.14	1685.48
458.34	1628.14
458.54	1710.05
458.75	1681.38
458.95	1771.49
459.15	1820.64
459.36	1691.62
459.56	1787.88
459.76	1828.84
459.97	1677.29
460.17	1773.54
460.37	1722.34
460.58	1830.88
460.78	1734.63
460.99	1730.53
461.19	1708.01
461.39	1734.63
461.60	1667.05
461.80	1755.11
462.00	1671.14
462.21	1685.48
462.41	1710.05
462.61	1703.91
462.82	1677.29
463.02	1791.97
463.22	1708.01
463.43	1800.16
463.63	1730.53
463.83	1769.44
464.04	1748.97
464.24	1791.97
464.44	1673.19
464.64	1724.39
464.85	1785.83
465.05	1726.44
465.25	1697.77
465.46	1597.42
465.66	1755.11
465.86	1730.53
466.07	1728.49
466.27	1783.78
466.47	1591.27
466.68	1689.57
466.88	1794.02
467.08	1744.87
467.29	1806.31
467.49	1785.83
467.69	1665.00
467.89	1712.10
468.10	1665.00
468.30	1738.73
468.50	1847.27
468.71	1714.15
468.91	1628.14
469.11	1871.84
469.31	1800.16
469.52	1609.70
469.72	1777.64
469.92	1857.51
470.13	1685.48
470.33	1740.77
470.53	1877.99
470.73	2103.26
470.94	2242.53
471.14	2328.54
471.34	2549.72
471.54	2308.06
471.75	2301.92
471.95	2101.22
472.15	2140.13
472.36	2072.54
472.56	2078.69
472.76	2056.16
472.96	1998.82
473.17	1875.94
473.37	1880.04
473.57	1753.06
473.77	1808.36
473.98	1767.40
474.18	1742.82
474.38	1894.37
474.58	1685.48
474.79	1691.62
474.99	1783.78
475.19	1800.16
475.39	1662.95
475.60	1714.15
475.80	1755.11
476.00	1738.73
476.20	1644.52
476.41	1693.67
476.61	1773.54
476.81	1773.54
477.01	1679.33
477.21	1877.99
477.42	1849.32
477.62	1685.48
477.82	1757.16
478.02	1648.61
478.23	1763.30
478.43	1705.96
478.63	1708.01
478.83	1673.19
479.03	1720.29
479.24	1789.92
479.44	1894.37
479.64	1665.00
479.84	1675.24
480.04	1662.95
480.25	1716.20
480.45	1701.86
480.65	1810.40
480.85	1804.26
481.06	1650.66
481.26	1650.66
481.46	1701.86
481.66	1746.92
481.86	1636.33
482.06	1728.49
482.27	1730.53
482.47	1738.73
482.67	1685.48
482.87	1751.01
483.07	1769.44
483.28	1738.73
483.48	1673.19
483.68	1677.29
483.88	1712.10
484.08	1619.94
484.29	1626.09
484.49	1755.11
484.69	1697.77
484.89	1791.97
485.09	1796.07
485.29	1677.29
485.50	1732.58
485.70	1738.73
485.90	1800.16
486.10	1744.87
486.30	1763.30
486.50	1755.11
486.71	1710.05
486.91	1791.97
487.11	1748.97
487.31	1656.81
487.51	1718.25
487.71	1613.80
487.91	1677.29
488.12	1615.85
488.32	1611.75
488.52	1675.24
488.72	1603.56
488.92	1652.71
489.12	1845.22
489.32	1777.64
489.53	1716.20
489.73	1665.00
489.93	1818.60
490.13	1638.38
490.33	1632.23
490.53	1769.44
490.73	1742.82
490.94	1689.57
491.14	1847.27
491.34	1867.75
491.54	2144.22
491.74	2602.97
491.94	2834.39
492.14	3022.80
492.34	3057.62
492.54	2762.71
492.75	2506.71
492.95	2416.60
493.15	2353.12
493.35	2246.62
493.55	2260.96
493.75	2144.22
493.95	2140.13
494.15	1968.10
494.35	1914.85
494.56	1806.31
494.76	1726.44
494.96	1773.54
495.16	1814.50
495.36	1726.44
495.56	1716.20
495.76	1779.68
495.96	1669.09
496.16	1603.56
496.36	1839.08
496.56	1748.97
496.77	1738.73
496.97	1742.82
497.17	1781.73
497.37	1683.43
497.57	1761.25
497.77	1671.14
497.97	1740.77
498.17	1742.82
498.37	1681.38
498.57	1738.73
498.77	1695.72
498.97	1802.21
499.17	1892.32
499.38	1746.92
499.58	1763.30
499.78	1820.64
499.98	1837.03
500.18	1783.78
500.38	1695.72
500.58	1904.61
500.78	2541.53
500.98	4526.01
501.18	5760.94
501.38	6799.26
501.58	6981.53
501.78	6627.23
501.98	5560.24
502.18	4898.74
502.38	4450.24
502.58	4081.60
502.78	3762.12
502.98	3649.48
503.18	3508.17
503.38	3233.74
503.59	2854.87
503.79	2766.81
503.99	2475.99
504.19	2263.01
504.39	2127.84
504.59	2189.28
504.79	2195.42
504.99	2156.51
505.19	1906.66
505.39	1910.75
505.59	1992.67
505.79	1880.04
505.99	1910.75
506.19	1798.12
506.39	1933.28
506.59	1726.44
506.79	1763.30
506.99	1789.92
507.19	1783.78
507.39	1755.11
507.59	1660.90
507.79	1697.77
507.99	1667.05
508.19	1732.58
508.39	1667.05
508.59	1658.85
508.79	1824.74
508.99	1773.54
509.19	1654.76
509.39	1800.16
509.59	1730.53
509.79	1712.10
509.99	1742.82
510.19	1787.88
510.39	1769.44
510.59	1708.01
510.79	1728.49
510.99	1583.08
511.19	1673.19
511.39	1812.45
511.59	1783.78
511.79	1783.78
511.99	1716.20
512.19	1710.05
512.38	1726.44
512.58	1687.53
512.78	1757.16
512.98	1787.88
513.18	1777.64
513.38	1742.82
513.58	1710.05
513.78	1665.00
513.98	1716.20
514.18	1736.68
514.38	1681.38
514.58	1753.06
514.78	1673.19
514.98	1615.85
515.18	1718.25
515.38	1658.85
515.58	1736.68
515.78	1677.29
515.98	1798.12
516.18	1732.58
516.38	1763.30
516.57	1710.05
516.77	1650.66
516.97	1624.04
517.17	1599.46
517.37	1671.14
517.57	1763.30
517.77	1699.81
517.97	1675.24
518.17	1828.84
518.37	1603.56
518.57	1691.62
518.77	1660.90
518.97	1708.01
519.16	1777.64
519.36	1773.54
519.56	1626.09
519.76	1697.77
519.96	1675.24
520.16	1814.50
520.36	1624.04
520.56	1800.16
520.76	1636.33
520.96	1673.19
521.16	1834.98
521.35	1775.59
521.55	1755.11
521.75	1693.67
521.95	1759.21
522.15	1759.21
522.35	1591.27
522.55	1710.05
522.75	1771.49
522.95	1636.33
523.14	1703.91
523.34	1818.60
523.54	1658.85
523.74	1710.05
523.94	1705.96
524.14	1644.52
524.34	1822.69
524.54	1746.92
524.73	1691.62
524.93	1705.96
525.13	1732.58
525.33	1699.81
525.53	1882.08
525.73	1730.53
525.93	1759.21
526.13	1640.42
526.32	1728.49
526.52	1728.49
526.72	1843.17
526.92	1744.87
527.12	1601.51
527.32	1683.43
527.52	1748.97
527.71	1748.97
527.91	1763.30
528.11	1736.68
528.31	1806.31
528.51	1669.09
528.71	1789.92
528.90	1761.25
529.10	1800.16
529.30	1781.73
529.50	1585.13
529.70	1695.72
529.90	1744.87
530.09	1734.63
530.29	1689.57
530.49	1703.91
530.69	1820.64
530.89	1769.44
531.09	1873.89
531.28	1699.81
531.48	1757.16
531.68	1828.84
531.88	1804.26
532.08	1763.30
532.28	1738.73
532.47	1779.68
532.67	1740.77
532.87	1710.05
533.07	1624.04
533.27	1767.40
533.46	1761.25
533.66	1689.57
533.86	1673.19
534.06	1683.43
534.26	1828.84
534.45	1675.24
534.65	1808.36
534.85	1763.30
535.05	1656.81
535.25	1775.59
535.44	1619.94
535.64	1789.92
535.84	1677.29
536.04	1671.14
536.24	1744.87
536.43	1724.39
536.63	1726.44
536.83	1800.16
537.03	1744.87
537.22	1699.81
537.42	1628.14
537.62	1783.78
537.82	1685.48
538.02	1730.53
538.21	1841.12
538.41	1898.47
538.61	1716.20
538.81	1775.59
539.00	1794.02
539.20	1642.47
539.40	1699.81
539.60	1708.01
539.79	1845.22
539.99	1746.92
540.19	1658.85
540.39	1808.36
540.58	1796.07
540.78	1800.16
540.98	1712.10
541.18	1785.83
541.37	1828.84
541.57	1703.91
541.77	1738.73
541.97	1685.48
542.16	1632.23
542.36	1771.49
542.56	1722.34
542.76	1867.75
542.95	1771.49
543.15	1818.60
543.35	1789.92
543.54	1693.67
543.74	1681.38
543.94	1789.92
544.14	1781.73
544.33	1751.01
544.53	1734.63
544.73	1714.15
544.93	1781.73
545.12	1726.44
545.32	1699.81
545.52	1716.20
545.71	1660.90
545.91	1757.16
546.11	1669.09
546.30	1675.24
546.50	1738.73
546.70	1787.88
546.90	1726.44
547.09	1660.90
547.29	1763.30
547.49	1765.35
547.68	1763.30
547.88	1759.21
548.08	1708.01
548.27	2197.47
548.47	1730.53
548.67	1738.73
548.87	1767.40
549.06	1722.34
549.26	1724.39
549.46	1740.77
549.65	1755.11
549.85	1767.40
550.05	1773.54
550.24	1646.57
550.44	1734.63
550.64	1695.72
550.83	1798.12
551.03	1789.92
551.23	1810.40
551.42	1804.26
551.62	1757.16
551.82	1810.40
552.01	1757.16
552.21	1798.12
552.41	1693.67
552.60	1902.56
552.80	1736.68
553.00	1689.57
553.19	1757.16
553.39	1824.74
553.59	1640.42
553.78	1789.92
553.98	1789.92
554.17	1611.75
554.37	1787.88
554.57	1822.69
554.76	1689.57
554.96	1742.82
555.16	1697.77
555.35	1685.48
555.55	1728.49
555.75	1761.25
555.94	1789.92
556.14	1656.81
556.33	1734.63
556.53	1689.57
556.73	1814.50
556.92	1757.16
557.12	1773.54
557.32	1779.68
557.51	1837.03
557.71	1828.84
557.90	1875.94
558.10	1904.61
558.30	1689.57
558.49	1744.87
558.69	1814.50
558.88	1748.97
559.08	1724.39
559.28	1703.91
559.47	1738.73
559.67	1667.05
559.86	1828.84
560.06	1783.78
560.26	1710.05
560.45	1759.21
560.65	1705.96
560.84	1753.06
561.04	1716.20
561.24	1718.25
561.43	1701.86
561.63	1849.32
561.82	1730.53
562.02	1802.21
562.22	1724.39
562.41	1712.10
562.61	1695.72
562.80	1671.14
563.00	1923.04
563.19	1773.54
563.39	1763.30
563.59	1751.01
563.78	1679.33
563.98	1599.46
564.17	1736.68
564.37	1685.48
564.56	1703.91
564.76	1699.81
564.96	1767.40
565.15	1712.10
565.35	1828.84
565.54	1767.40
565.74	1740.77
565.93	1847.27
566.13	1730.53
566.32	1771.49
566.52	1775.59
566.71	1652.71
566.91	1841.12
567.11	1722.34
567.30	1683.43
567.50	1806.31
567.69	1800.16
567.89	1710.05
568.08	1699.81
568.28	1767.40
568.47	1681.38
568.67	1769.44
568.86	1685.48
569.06	1697.77
569.25	1662.95
569.45	1642.47
569.64	1642.47
569.84	1699.81
570.04	1738.73
570.23	1724.39
570.43	1740.77
570.62	1779.68
570.82	1820.64
571.01	1648.61
571.21	1669.09
571.40	1665.00
571.60	1824.74
571.79	1742.82
571.99	1697.77
572.18	1720.29
572.38	1667.05
572.57	1755.11
572.77	1787.88
572.96	1859.56
573.16	1769.44
573.35	1722.34
573.55	1806.31
573.74	1781.73
573.94	1712.10
574.13	1730.53
574.33	1839.08
574.52	1816.55
574.71	1699.81
574.91	1755.11
575.10	1679.33
575.30	1656.81
575.49	1701.86
575.69	1720.29
575.88	1796.07
576.08	1681.38
576.27	1783.78
576.47	1714.15
576.66	1837.03
576.86	1789.92
577.05	1755.11
577.25	1802.21
577.44	1753.06
577.64	1720.29
577.83	1796.07
578.02	1665.00
578.22	1841.12
578.41	1812.45
578.61	1705.96
578.80	1665.00
579.00	1837.03
579.19	1748.97
579.39	1789.92
579.58	1769.44
579.77	1697.77
579.97	1763.30
580.16	1798.12
580.36	1806.31
580.55	1820.64
580.75	1791.97
580.94	1779.68
581.13	1802.21
581.33	1826.79
581.52	1761.25
581.72	1912.80
581.91	1800.16
582.11	1712.10
582.30	1785.83
582.49	1773.54
582.69	1904.61
582.88	1796.07
583.08	1742.82
583.27	1708.01
583.47	1789.92
583.66	1671.14
583.85	1730.53
584.05	1730.53
584.24	1775.59
584.44	1810.40
584.63	1845.22
584.82	1828.84
585.02	1898.47
585.21	1837.03
585.41	1830.88
585.60	1853.41
585.79	1904.61
585.99	1947.62
586.18	1896.42
586.37	2215.90
586.57	3438.54
586.76	9820.01
586.96	24258.19
587.15	34315.76
587.34	39992.73
587.54	42067.33
587.73	36283.86
587.93	26295.92
588.12	21630.65
588.31	18233.07
588.51	16228.10
588.70	14941.98
588.89	14266.15
589.09	12701.50
589.28	11099.99
589.47	9312.11
589.67	8048.52
589.86	6268.83
590.06	4915.12
590.25	3829.70
590.44	3067.86
590.64	2541.53
590.83	2306.01
591.02	2154.46
591.22	1941.47
591.41	1869.80
591.60	1787.88
591.80	1867.75
591.99	1779.68
592.18	1796.07
592.38	1865.70
592.57	1708.01
592.76	1812.45
592.96	1771.49
593.15	1636.33
593.34	1775.59
593.54	1720.29
593.73	1726.44
593.92	1804.26
594.12	1746.92
594.31	1753.06
594.50	1839.08
594.70	1853.41
594.89	1812.45
595.08	1624.04
595.28	1816.55
595.47	1880.04
595.66	1771.49
595.86	1636.33
596.05	1708.01
596.24	1744.87
596.43	1849.32
596.63	1882.08
596.82	1734.63
597.01	1703.91
597.21	1832.93
597.40	1800.16
597.59	1687.53
597.79	1726.44
597.98	1722.34
598.17	1767.40
598.36	1726.44
598.56	1751.01
598.75	1761.25
598.94	1810.40
599.14	1748.97
599.33	1726.44
599.52	1742.82
599.71	1679.33
599.91	1763.30
600.10	1779.68
600.29	1781.73
600.48	1785.83
600.68	1675.24
600.87	1806.31
601.06	1726.44
601.26	1697.77
601.45	1726.44
601.64	1757.16
601.83	1740.77
602.03	1732.58
602.22	1656.81
602.41	1767.40
602.60	1849.32
602.80	1718.25
602.99	1789.92
603.18	1701.86
603.37	1753.06
603.57	1738.73
603.76	1757.16
603.95	1832.93
604.14	1714.15
604.34	1710.05
604.53	1730.53
604.72	1718.25
604.91	1773.54
605.10	1818.60
605.30	1685.48
605.49	1834.98
605.68	1830.88
605.87	1773.54
606.07	1763.30
606.26	1703.91
606.45	1794.02
606.64	1710.05
606.84	1753.06
607.03	1746.92
607.22	1724.39
607.41	1699.81
607.60	1648.61
607.80	1748.97
607.99	1759.21
608.18	1820.64
608.37	1757.16
608.56	1710.05
608.76	1845.22
608.95	1804.26
609.14	1718.25
609.33	1757.16
609.52	1742.82
609.72	1738.73
609.91	1753.06
610.10	1765.35
610.29	1781.73
610.48	1742.82
610.68	1763.30
610.87	1734.63
611.06	1742.82
611.25	1755.11
611.44	1810.40
611.63	1730.53
611.83	1804.26
612.02	1705.96
612.21	1818.60
612.40	1697.77
612.59	1705.96
612.79	1701.86
612.98	1710.05
613.17	1832.93
613.36	1740.77
613.55	1845.22
613.74	1683.43
613.93	1736.68
614.13	1712.10
614.32	1738.73
614.51	1677.29
614.70	1724.39
614.89	1691.62
615.08	1798.12
615.28	2082.78
615.47	1685.48
615.66	1757.16
615.85	1705.96
616.04	1812.45
616.23	1685.48
616.42	1714.15
616.62	1701.86
616.81	1748.97
617.00	1722.34
617.19	1824.74
617.38	1681.38
617.57	1605.61
617.76	1779.68
617.95	1693.67
618.15	1656.81
618.34	1816.55
618.53	1636.33
618.72	1712.10
618.91	1777.64
619.10	1818.60
619.29	1806.31
619.48	1689.57
619.68	1722.34
619.87	1759.21
620.06	1630.18
620.25	1716.20
620.44	1703.91
620.63	1685.48
620.82	1783.78
621.01	1777.64
621.20	1796.07
621.39	1763.30
621.59	1640.42
621.78	1710.05
621.97	1769.44
622.16	1810.40
622.35	1720.29
622.54	1693.67
622.73	1861.60
622.92	1710.05
623.11	1753.06
623.30	1677.29
623.49	1734.63
623.68	1669.09
623.88	1716.20
624.07	1798.12
624.26	1722.34
624.45	1697.77
624.64	1652.71
624.83	1726.44
625.02	1730.53
625.21	1705.96
625.40	1660.90
625.59	1814.50
625.78	1699.81
625.97	1740.77
626.16	1740.77
626.35	1785.83
626.54	1767.40
626.74	1837.03
626.93	1712.10
627.12	1712.10
627.31	1751.01
627.50	1730.53
627.69	1734.63
627.88	1761.25
628.07	1697.77
628.26	1611.75
628.45	1650.66
628.64	1753.06
628.83	1599.46
629.02	1601.51
629.21	1697.77
629.40	1769.44
629.59	1642.47
629.78	1687.53
629.97	1665.00
630.16	1695.72
630.35	1665.00
630.54	1714.15
630.73	1673.19
630.92	1703.91
631.11	1708.01
631.30	1716.20
631.49	1726.44
631.68	1669.09
631.87	1687.53
632.06	1638.38
632.25	1814.50
632.44	1767.40
632.63	1783.78
632.82	1660.90
633.01	1658.85
633.20	1671.14
633.39	1658.85
633.58	1574.89
633.77	1691.62
633.96	1773.54
634.15	1759.21
634.34	1791.97
634.53	1724.39
634.72	1648.61
634.91	1640.42
635.10	1734.63
635.29	1763.30
635.48	1755.11
635.67	1689.57
635.86	1714.15
636.05	1755.11
636.24	1751.01
636.43	1638.38
636.62	1789.92
636.81	1617.90
637.00	1785.83
637.19	1765.35
637.38	1763.30
637.57	1650.66
637.76	1697.77
637.95	1740.77
638.14	1681.38
638.33	1751.01
638.52	1720.29
638.71	1677.29
638.89	1738.73
639.08	1849.32
639.27	1726.44
639.46	1761.25
639.65	1761.25
639.84	1695.72
640.03	1722.34
640.22	1685.48
640.41	1841.12
640.60	1708.01
640.79	1708.01
640.98	1691.62
641.17	1722.34
641.36	1705.96
641.55	1716.20
641.74	1671.14
641.92	1642.47
642.11	1632.23
642.30	1699.81
642.49	1601.51
642.68	1730.53
642.87	1773.54
643.06	1742.82
643.25	1693.67
643.44	1601.51
643.63	1658.85
643.82	1751.01
644.00	1642.47
644.19	1734.63
644.38	1640.42
644.57	1738.73
644.76	1751.01
644.95	1732.58
645.14	1716.20
645.33	1697.77
645.52	1705.96
645.71	1667.05
645.89	1669.09
646.08	1705.96
646.27	1689.57
646.46	1824.74
646.65	1624.04
646.84	1703.91
647.03	1679.33
647.22	1789.92
647.40	1697.77
647.59	1665.00
647.78	1599.46
647.97	1626.09
648.16	1705.96
648.35	1763.30
648.54	1615.85
648.73	1685.48
648.91	1755.11
649.10	1720.29
649.29	1662.95
649.48	1671.14
649.67	1691.62
649.86	1685.48
650.05	1708.01
650.23	1736.68
650.42	1701.86
650.61	1751.01
650.80	1843.17
650.99	1794.02
651.18	1744.87
651.36	1722.34
651.55	1691.62
651.74	1703.91
651.93	1665.00
652.12	1734.63
652.31	1671.14
652.49	1681.38
652.68	1675.24
652.87	1798.12
653.06	1718.25
653.25	1822.69
653.44	1683.43
653.62	1812.45
653.81	1724.39
654.00	1679.33
654.19	1810.40
654.38	1785.83
654.56	1701.86
654.75	1699.81
654.94	1777.64
655.13	1677.29
655.32	1732.58
655.51	1748.97
655.69	1669.09
655.88	1767.40
656.07	1597.42
656.26	1787.88
656.45	1650.66
656.63	1683.43
656.82	1804.26
657.01	1794.02
657.20	1603.56
657.38	1796.07
657.57	1769.44
657.76	1679.33
657.95	1769.44
658.14	1689.57
658.32	1677.29
658.51	1705.96
658.70	1714.15
658.89	1718.25
659.08	1660.90
659.26	1773.54
659.45	1624.04
659.64	1697.77
659.83	1626.09
660.01	1898.47
660.20	1689.57
660.39	1730.53
660.58	1650.66
660.76	1765.35
660.95	1597.42
661.14	1765.35
661.33	1652.71
661.51	1705.96
661.70	1673.19
661.89	1744.87
662.08	1665.00
662.26	1611.75
662.45	1660.90
662.64	1794.02
662.83	1832.93
663.01	1650.66
663.20	1644.52
663.39	1787.88
663.58	1695.72
663.76	1650.66
663.95	1798.12
664.14	1658.85
664.32	1665.00
664.51	1708.01
664.70	1632.23
664.89	1779.68
665.07	1693.67
665.26	1779.68
665.45	1630.18
665.64	1779.68
665.82	1781.73
666.01	1785.83
666.20	1705.96
666.38	1740.77
666.57	1765.35
666.76	2125.79
666.95	4462.52
667.13	10237.80
667.32	15365.91
667.51	17577.72
667.69	18751.20
667.88	17688.31
668.07	12228.42
668.25	9482.10
668.44	8331.14
668.63	7198.61
668.81	6829.98
669.00	6268.83
669.19	5685.16
669.38	5066.67
669.56	4650.94
669.75	3917.76
669.94	3493.83
670.12	2955.22
670.31	2504.67
670.50	2260.96
670.68	1955.81
670.87	1918.95
671.06	1775.59
671.24	1781.73
671.43	1800.16
671.62	1789.92
671.80	1697.77
671.99	1759.21
672.18	1650.66
672.36	1675.24
672.55	1669.09
672.74	1722.34
672.92	1708.01
673.11	1718.25
673.29	1734.63
673.48	1744.87
673.67	1611.75
673.85	1834.98
674.04	1650.66
674.23	1685.48
674.41	1748.97
674.60	1718.25
674.79	1654.76
674.97	1638.38
675.16	1740.77
675.34	1773.54
675.53	1708.01
675.72	1693.67
675.90	1804.26
676.09	1640.42
676.28	1681.38
676.46	1648.61
676.65	1751.01
676.83	1671.14
677.02	1736.68
677.21	1695.72
677.39	1730.53
677.58	1689.57
677.77	1685.48
677.95	1621.99
678.14	1656.81
678.32	1705.96
678.51	1665.00
678.70	1818.60
678.88	1613.80
679.07	1751.01
679.25	1687.53
679.44	1783.78
679.63	1673.19
679.81	1654.76
680.00	1859.56
680.18	1712.10
680.37	1755.11
680.55	1654.76
680.74	1658.85
680.93	1679.33
681.11	1765.35
681.30	1720.29
681.48	1697.77
681.67	1681.38
681.85	1685.48
682.04	1656.81
682.23	1791.97
682.41	1781.73
682.60	1738.73
682.78	1697.77
682.97	1671.14
683.15	1687.53
683.34	1757.16
683.53	1796.07
683.71	1615.85
683.90	1804.26
684.08	1783.78
684.27	1665.00
684.45	1677.29
684.64	1791.97
684.82	1716.20
685.01	1757.16
685.19	1734.63
685.38	1828.84
685.57	1677.29
685.75	1695.72
685.94	1681.38
686.12	1708.01
686.31	1718.25
686.49	1839.08
686.68	1673.19
686.86	1724.39
687.05	1728.49
687.23	1773.54
687.42	1714.15
687.60	1591.27
687.79	1732.58
687.97	1738.73
688.16	1722.34
688.34	1736.68
688.53	1642.47
688.71	1746.92
688.90	1785.83
689.08	1669.09
689.27	1648.61
689.45	1802.21
689.64	1705.96
689.82	1621.99
690.01	1691.62
690.19	1775.59
690.38	1660.90
690.56	1818.60
690.75	1728.49
690.93	1691.62
691.12	1658.85
691.30	1701.86
691.49	1634.28
691.67	1669.09
691.86	1845.22
692.04	1607.66
692.23	1591.27
692.41	1728.49
692.60	1818.60
692.78	1742.82
692.97	1609.70
693.15	1681.38
693.34	1822.69
693.52	1724.39
693.71	1695.72
693.89	1624.04
694.08	1628.14
694.26	1736.68
694.44	1654.76
694.63	1712.10
694.81	1558.50
695.00	1685.48
695.18	1777.64
695.37	1869.80
695.55	1685.48
695.74	1738.73
695.92	1714.15
696.10	1779.68
696.29	1574.89
696.47	1804.26
696.66	1648.61
696.84	1595.37
697.03	1691.62
697.21	1837.03
697.40	2293.72
697.58	1783.78
697.76	1734.63
697.95	1714.15
698.13	1644.52
698.32	1673.19
698.50	1609.70
698.68	1744.87
698.87	1671.14
699.05	1906.66
699.24	1712.10
699.42	1621.99
699.61	1660.90
699.79	1755.11
699.97	1757.16
700.16	1691.62
700.34	1683.43
700.53	1681.38
700.71	1712.10
700.89	1761.25
701.08	1787.88
701.26	1722.34
701.45	2086.88
701.63	1630.18
701.81	1703.91
702.00	1771.49
702.18	1726.44
702.37	1595.37
702.55	1773.54
702.73	1644.52
702.92	1662.95
703.10	1804.26
703.28	1783.78
703.47	1640.42
703.65	1787.88
703.84	1820.64
704.02	1697.77
704.20	1828.84
704.39	1701.86
704.57	1689.57
704.75	1796.07
704.94	1738.73
705.12	1712.10
705.30	1779.68
705.49	2191.33
705.67	4396.99
705.86	9342.83
706.04	12689.21
706.22	14526.24
706.41	15423.25
706.59	13995.82
706.77	9709.42
706.96	7325.58
707.14	6514.59
707.32	5824.42
707.51	5605.29
707.69	4835.25
707.87	4128.70
708.06	3504.07
708.24	2967.51
708.42	2449.37
708.61	2238.43
708.79	1857.51
708.97	1910.75
709.16	1789.92
709.34	1742.82
709.52	1740.77
709.71	1691.62
709.89	1775.59
710.07	1675.24
710.26	1665.00
710.44	1726.44
710.62	1808.36
710.80	1669.09
710.99	1773.54
711.17	1783.78
711.35	1654.76
711.54	1677.29
711.72	1720.29
711.90	1642.47
712.09	1662.95
712.27	1689.57
712.45	1734.63
712.63	1689.57
712.82	1683.43
713.00	1748.97
713.18	1705.96
713.37	1714.15
713.55	1718.25
713.73	1710.05
713.91	1701.86
714.10	1726.44
714.28	1716.20
714.46	1783.78
714.65	1701.86
714.83	1759.21
715.01	1685.48
715.19	1767.40
715.38	1656.81
715.56	1779.68
715.74	1607.66
715.92	1761.25
716.11	1708.01
716.29	1681.38
716.47	1685.48
716.65	1701.86
716.84	1656.81
717.02	1746.92
717.20	1660.90
717.38	1722.34
717.57	1746.92
717.75	1755.11
717.93	1640.42
718.11	1656.81
718.30	1640.42
718.48	1716.20
718.66	1761.25
718.84	1847.27
719.03	1722.34
719.21	1669.09
719.39	1798.12
719.57	1800.16
719.75	1800.16
719.94	1630.18
720.12	1701.86
720.30	1689.57
720.48	1728.49
720.67	1560.55
720.85	1695.72
721.03	1689.57
721.21	1669.09
721.39	1738.73
721.58	1660.90
721.76	1654.76
721.94	1712.10
722.12	1751.01
722.30	1828.84
722.49	1714.15
722.67	1658.85
722.85	1744.87
723.03	1587.18
723.21	1644.52
723.40	1720.29
723.58	1732.58
723.76	1757.16
723.94	1744.87
724.12	1705.96
724.30	1796.07
724.49	1720.29
724.67	1634.28
724.85	1794.02
725.03	1675.24
725.21	1736.68
725.40	1777.64
725.58	1669.09
725.76	1796.07
725.94	1732.58
726.12	1605.61
726.30	1763.30
726.49	1673.19
726.67	1724.39
726.85	1714.15
727.03	1757.16
727.21	2140.13
727.39	2906.07
727.57	3749.83
727.76	4167.62
727.94	4483.00
728.12	4448.19
728.30	3719.11
728.48	2912.21
728.66	2750.42
728.84	2562.01
729.03	2283.49
729.21	2203.61
729.39	1931.23
729.57	1791.97
729.75	1814.50
729.93	1779.68
730.11	1662.95
730.30	1767.40
730.48	1751.01
730.66	1781.73
730.84	1783.78
731.02	1714.15
731.20	1732.58
731.38	1687.53
731.56	1605.61
731.74	1595.37
731.93	1695.72
732.11	1740.77
732.29	1734.63
732.47	1767.40
732.65	1660.90
732.83	1812.45
733.01	1726.44
733.19	1763.30
733.37	1695.72
733.56	1693.67
733.74	1693.67
733.92	1865.70
734.10	1654.76
734.28	1773.54
734.46	1624.04
734.64	1669.09
734.82	1816.55
735.00	1605.61
735.18	1660.90
735.36	1718.25
735.54	1652.71
735.73	1626.09
735.91	1724.39
736.09	1781.73
736.27	1671.14
736.45	1714.15
736.63	1615.85
736.81	1632.23
736.99	1808.36
737.17	1783.78
737.35	1628.14
737.53	1701.86
737.71	1701.86
737.89	1712.10
738.07	1665.00
738.25	1671.14
738.43	1613.80
738.61	1646.57
738.80	1632.23
738.98	1667.05
739.16	1691.62
739.34	1705.96
739.52	1771.49
739.70	1734.63
739.88	1738.73
740.06	1822.69
740.24	1568.74
740.42	1679.33
740.60	1650.66
740.78	1683.43
740.96	1601.51
741.14	1673.19
741.32	1705.96
741.50	1576.94
741.68	1853.41
741.86	1816.55
742.04	1665.00
742.22	1716.20
742.40	1746.92
742.58	1769.44
742.76	1638.38
742.94	1781.73
743.12	1576.94
743.30	1800.16
743.48	1730.53
743.66	1654.76
743.84	1742.82
744.02	1724.39
744.20	1759.21
744.38	1538.02
744.56	1732.58
744.74	1740.77
744.92	1695.72
745.10	1724.39
745.28	1720.29
745.46	1834.98
745.64	1681.38
745.82	1722.34
746.00	1701.86
746.18	1697.77
746.36	1615.85
746.54	1673.19
746.72	1703.91
746.90	1662.95
747.08	1787.88
747.26	1712.10
747.44	1748.97
747.62	1746.92
747.80	1718.25
747.98	1681.38
748.15	1624.04
748.33	1771.49
748.51	1662.95
748.69	1740.77
748.87	1642.47
749.05	1628.14
749.23	1726.44
749.41	1716.20
749.59	1738.73
749.77	1796.07
749.95	1742.82
750.13	1693.67
750.31	1755.11
750.49	1665.00
750.67	1755.11
750.85	1751.01
751.03	1708.01
751.20	1812.45
751.38	1755.11
751.56	1775.59
751.74	1683.43
751.92	1697.77
752.10	1628.14
752.28	1783.78
752.46	1677.29
752.64	1691.62
752.82	1619.94
753.00	1802.21
753.18	1689.57
753.35	1628.14
753.53	1753.06
753.71	1677.29
753.89	1726.44
754.07	1642.47
754.25	1789.92
754.43	1673.19
754.61	1605.61
754.79	1705.96
754.97	1701.86
755.14	1767.40
755.32	1658.85
755.50	1716.20
755.68	1667.05
755.86	1654.76
756.04	1638.38
756.22	1619.94
756.40	1761.25
756.57	1796.07
756.75	1716.20
756.93	1748.97
757.11	1714.15
757.29	1652.71
757.47	1648.61
757.65	1615.85
757.82	1531.88
758.00	1675.24
758.18	1703.91
758.36	1648.61
758.54	1736.68
758.72	1693.67
758.90	1730.53
759.07	1701.86
759.25	1640.42
759.43	1730.53
759.61	1703.91
759.79	2197.47
759.97	1744.87
760.15	1677.29
760.32	1648.61
760.50	1769.44
760.68	1779.68
760.86	1642.47
761.04	1763.30
761.22	1718.25
761.39	1730.53
761.57	1769.44
761.75	1689.57
761.93	1738.73
762.11	1685.48
762.28	1734.63
762.46	1624.04
762.64	1697.77
762.82	1691.62
763.00	1656.81
763.18	1748.97
763.35	1669.09
763.53	1753.06
763.71	1804.26
763.89	1675.24
764.07	1705.96
764.24	1638.38
764.42	1722.34
764.60	1767.40
764.78	1728.49
764.96	1720.29
765.13	1757.16
765.31	1681.38
765.49	1722.34
765.67	1658.85
765.84	1679.33
766.02	1705.96
766.20	1648.61
766.38	1679.33
766.56	1759.21
766.73	1761.25
766.91	1738.73
767.09	1673.19
767.27	1738.73
767.44	1722.34
767.62	1673.19
767.80	1738.73
767.98	1628.14
768.15	1687.53
768.33	1722.34
768.51	1734.63
768.69	1730.53
768.87	1658.85
769.04	1640.42
769.22	1787.88
769.40	1738.73
769.58	1871.84
769.75	1705.96
769.93	1783.78
770.11	1716.20
770.28	1648.61
770.46	1746.92
770.64	1767.40
770.82	1732.58
770.99	1675.24
771.17	1683.43
771.35	1736.68
771.53	1771.49
771.70	1665.00
771.88	1720.29
772.06	1718.25
772.23	1771.49
772.41	1681.38
772.59	1671.14
772.77	1644.52
772.94	1726.44
773.12	1681.38
773.30	1675.24
773.47	1658.85
773.65	1683.43
773.83	1728.49
774.01	1650.66
774.18	1638.38
774.36	1634.28
774.54	1646.57
774.71	1699.81
774.89	1607.66
775.07	1624.04
775.24	1591.27
775.42	1681.38
775.60	1796.07
775.78	1658.85
775.95	1609.70
776.13	1566.70
776.31	1603.56
776.48	1738.73
776.66	1767.40
776.84	1746.92
777.01	1701.86
777.19	1697.77
777.37	1611.75
777.54	1734.63
777.72	1796.07
777.90	1789.92
778.07	1621.99
778.25	1841.12
778.43	1816.55
778.60	1660.90
778.78	1691.62
778.96	1820.64
779.13	1656.81
779.31	1751.01
779.49	1736.68
779.66	1808.36
779.84	1718.25
780.01	1681.38
780.19	1605.61
780.37	1789.92
780.54	1673.19
780.72	1621.99
780.90	1658.85
781.07	1658.85
781.25	1740.77
781.43	1650.66
781.60	1617.90
781.78	1718.25
781.95	1726.44
782.13	1718.25
782.31	1673.19
782.48	1578.98
782.66	1685.48
782.83	1726.44
783.01	1693.67
783.19	1777.64
783.36	1597.42
783.54	1613.80
783.72	1808.36
783.89	1681.38
784.07	1656.81
784.24	1675.24
784.42	1724.39
784.60	1689.57
784.77	1720.29
784.95	1574.89
785.12	1658.85
785.30	1656.81
785.47	1691.62
785.65	1683.43
785.83	1699.81
786.00	1691.62
786.18	1689.57
786.35	1613.80
786.53	1658.85
786.71	1804.26
786.88	1751.01
787.06	1718.25
787.23	1689.57
787.41	1685.48
787.58	1714.15
787.76	1591.27
787.94	1654.76
788.11	1703.91
788.29	1673.19
788.46	1699.81
788.64	1581.03
788.81	1613.80
788.99	1728.49
789.16	1650.66
789.34	1667.05
789.52	1628.14
789.69	1687.53
789.87	1624.04
790.04	1689.57
790.22	1671.14
790.39	1714.15
790.57	1685.48
790.74	1660.90
790.92	1734.63
791.09	1650.66
791.27	1665.00
791.44	1746.92
791.62	1697.77
791.79	1820.64
791.97	1677.29
792.15	1920.99
792.32	1693.67
792.50	1718.25
792.67	1828.84
792.85	1761.25
793.02	1767.40
793.20	1632.23
793.37	1632.23
793.55	1650.66
793.72	1693.67
793.90	1718.25
794.07	1634.28
794.25	1648.61
794.42	1732.58
794.60	1765.35
794.77	1730.53
794.95	1716.20
795.12	1681.38
795.30	1656.81
795.47	1581.03
795.65	1820.64
795.82	1689.57
796.00	1632.23
796.17	1628.14
796.34	1683.43
796.52	1726.44
796.69	1800.16
796.87	1695.72
797.04	1705.96
797.22	1732.58
797.39	1712.10
797.57	1744.87
797.74	1685.48
797.92	1693.67
798.09	1681.38
798.27	1710.05
798.44	1794.02
798.62	1587.18
798.79	1714.15
798.96	1722.34
799.14	1714.15
799.31	1931.23
799.49	1714.15
799.66	1693.67
799.84	1705.96
800.01	1650.66
800.19	1689.57
800.36	1638.38
800.53	1701.86
800.71	1681.38
800.88	1730.53
801.06	1681.38
801.23	1593.32
801.41	1619.94
801.58	1699.81
801.75	1652.71
801.93	1714.15
802.10	1693.67
802.28	1691.62
802.45	1613.80
802.63	1789.92
802.80	1816.55
802.97	1652.71
803.15	1603.56
803.32	1691.62
803.50	1595.37
803.67	1689.57
803.84	1665.00
804.02	1693.67
804.19	1708.01
804.37	1624.04
804.54	1595.37
804.71	1638.38
804.89	1738.73
805.06	1662.95
805.24	1617.90
805.41	1648.61
805.58	1640.42
805.76	1800.16
805.93	1689.57
806.10	1763.30
806.28	1738.73
806.45	1726.44
806.63	1710.05
806.80	1767.40
806.97	1738.73
807.15	1634.28
807.32	1730.53
807.49	1673.19
807.67	1697.77
807.84	1681.38
808.01	1564.65
808.19	1789.92
808.36	1783.78
808.54	1634.28
808.71	1681.38
808.88	1751.01
809.06	1765.35
809.23	1802.21
809.40	1603.56
809.58	1757.16
809.75	1646.57
809.92	1675.24
810.10	1800.16
810.27	1685.48
810.44	1726.44
810.62	1769.44
810.79	1681.38
810.96	1685.48
811.14	1675.24
811.31	1695.72
811.48	1728.49
811.66	1648.61
811.83	1802.21
812.00	1665.00
812.18	1695.72
812.35	1873.89
812.52	1611.75
812.69	1693.67
812.87	1716.20
813.04	1613.80
813.21	1703.91
813.39	1662.95
813.56	1634.28
813.73	1673.19
813.91	1601.51
814.08	1671.14
814.25	1722.34
814.42	1624.04
814.60	1640.42
814.77	1724.39
814.94	1808.36
815.12	1677.29
815.29	1767.40
815.46	1632.23
815.63	1701.86
815.81	1656.81
815.98	1632.23
816.15	1689.57
816.33	1691.62
816.50	1658.85
816.67	1767.40
816.84	1644.52
817.02	1628.14
817.19	1699.81
817.36	1777.64
817.53	1720.29
817.71	1650.66
817.88	1724.39
818.05	1687.53
818.22	1693.67
818.40	1826.79
818.57	1679.33
818.74	1730.53
818.91	1673.19
819.09	1744.87
819.26	1767.40
819.43	1650.66
819.60	1705.96
819.78	1708.01
819.95	1763.30
820.12	1650.66
820.29	1755.11
820.47	1730.53
820.64	1724.39
820.81	1656.81
820.98	1634.28
821.15	1695.72
821.33	1759.21
821.50	1556.46
821.67	1746.92
821.84	1660.90
822.02	1755.11
822.19	1748.97
822.36	1718.25
822.53	1736.68
822.70	1665.00
822.88	1718.25
823.05	1734.63
823.22	1761.25
823.39	1673.19
823.56	1644.52
823.74	1726.44
823.91	1683.43
824.08	1677.29
824.25	1712.10
824.42	1722.34
824.60	1652.71
824.77	1755.11
824.94	1638.38
825.11	1710.05
825.28	1671.14
825.45	1771.49
825.63	1714.15
825.80	1691.62
825.97	1730.53
826.14	1755.11
826.31	1591.27
826.48	1777.64
826.66	1646.57
826.83	1673.19
827.00	1667.05
827.17	1644.52
827.34	1697.77
827.51	1621.99
827.69	1720.29
827.86	1673.19
828.03	1687.53
828.20	1730.53
828.37	1599.46
828.54	1712.10
828.71	1687.53
828.89	1837.03
829.06	1685.48
829.23	1808.36
829.40	1640.42
829.57	1710.05
829.74	1695.72
829.91	1730.53
830.09	1626.09
830.26	1675.24
830.43	1767.40
830.60	1730.53
830.77	1753.06
830.94	1744.87
831.11	1746.92
831.28	1697.77
831.46	1800.16
831.63	1730.53
831.80	1763.30
831.97	1619.94
832.14	1675.24
832.31	1691.62
832.48	1783.78
832.65	1757.16
832.82	1701.86
832.99	1677.29
833.17	1619.94
833.34	1775.59
833.51	1689.57
833.68	1675.24
833.85	1767.40
834.02	1673.19
834.19	1642.47
834.36	1632.23
834.53	1667.05
834.70	1816.55
834.87	1732.58
835.04	1673.19
835.22	1652.71
835.39	1718.25
835.56	1564.65
835.73	1624.04
835.90	1685.48
836.07	1660.90
836.24	1703.91
836.41	1652.71
836.58	1652.71
836.75	1812.45
836.92	1751.01
837.09	1656.81
837.26	1771.49
837.43	1669.09
837.60	1654.76
837.77	1574.89
837.94	1775.59
838.12	1775.59
838.29	1714.15
838.46	1640.42
838.63	1617.90
838.80	1767.40
838.97	1710.05
839.14	1660.90
839.31	1730.53
839.48	1748.97
839.65	1597.42
839.82	1740.77
839.99	1730.53
840.16	1722.34
840.33	1681.38
840.50	1650.66
840.67	1726.44
840.84	1619.94
841.01	1761.25
841.18	1697.77
841.35	1771.49
841.52	1736.68
841.69	1779.68
841.86	1720.29
842.03	1742.82
842.20	1652.71
842.37	1628.14
842.54	1632.23
842.71	1634.28
842.88	1603.56
843.05	1712.10
843.22	1755.11
843.39	1730.53
843.56	1669.09
843.73	1669.09
843.90	1669.09
844.07	1656.81
844.24	1794.02
844.41	1773.54
844.58	1771.49
844.75	1662.95
844.92	1748.97
845.09	1710.05
845.26	1597.42
845.43	1693.67
845.60	1701.86
845.77	1763.30
845.94	1734.63
846.10	1716.20
846.27	1570.79
846.44	1628.14
846.61	1640.42
846.78	1714.15
846.95	1753.06
847.12	1665.00
847.29	1720.29
847.46	1619.94
847.63	1769.44
847.80	1710.05
847.97	1613.80
848.14	1869.80
848.31	1628.14
848.48	1683.43
848.65	1673.19
848.82	1703.91
848.98	1697.77
849.15	1787.88
849.32	1808.36
849.49	1781.73
849.66	1730.53
849.83	1724.39
850.00	1617.90
850.17	1740.77
850.34	1708.01
850.51	1724.39
850.68	1675.24
850.85	1798.12
851.01	1726.44
851.18	1751.01
851.35	1640.42
851.52	1759.21
851.69	1687.53
851.86	1644.52
852.03	1697.77
852.20	1695.72
852.37	1740.77
852.53	1662.95
852.70	1689.57
852.87	1742.82
853.04	1691.62
853.21	1667.05
853.38	1724.39
853.55	1828.84
853.72	1816.55
853.89	1660.90
854.05	1708.01
854.22	1687.53
854.39	1615.85
854.56	1646.57
854.73	1718.25
854.90	1656.81
855.07	1796.07
855.23	1708.01
855.40	1669.09
855.57	1728.49
855.74	1607.66
855.91	1886.18
856.08	1654.76
856.25	1710.05
856.41	1689.57
856.58	1722.34
856.75	1669.09
856.92	1642.47
857.09	1808.36
857.26	1642.47
857.42	1724.39
857.59	1791.97
857.76	1662.95
857.93	1685.48
858.10	1693.67
858.27	1656.81
858.43	1767.40
858.60	1636.33
858.77	1644.52
858.94	1665.00
859.11	1732.58
859.27	1720.29
859.44	1691.62
859.61	1783.78
859.78	1775.59
859.95	1699.81
860.12	1640.42
860.28	1787.88
860.45	1789.92
860.62	1644.52
860.79	1695.72
860.95	1689.57
861.12	1697.77
861.29	1613.80
861.46	1673.19
861.63	1695.72
861.79	1699.81
861.96	1740.77
862.13	1624.04
862.30	1775.59
862.47	1691.62
862.63	1665.00
862.80	1783.78
862.97	1742.82
863.14	1687.53
863.30	1716.20
863.47	1667.05
863.64	1832.93
863.81	1669.09
863.97	1656.81
864.14	1765.35
864.31	1660.90
864.48	1751.01
864.65	1617.90
864.81	1738.73
864.98	1677.29
865.15	1810.40
865.32	1765.35
865.48	1755.11
865.65	1816.55
865.82	1624.04
865.98	1685.48
866.15	1789.92
866.32	1728.49
866.49	1665.00
866.65	1726.44
866.82	1624.04
866.99	1656.81
867.16	1626.09
867.32	1642.47
867.49	1636.33
867.66	1642.47
867.83	1693.67
867.99	1642.47
868.16	1724.39
868.33	1646.57
868.49	1697.77
868.66	1703.91
868.83	1763.30
868.99	1710.05
869.16	1732.58
869.33	1789.92
869.50	1746.92
869.66	1587.18
869.83	1662.95
870.00	1646.57
870.16	1789.92
870.33	1583.08
870.50	1662.95
870.66	1681.38
870.83	1796.07
871.00	1708.01
871.17	1669.09
871.33	1720.29
871.50	1630.18
871.67	1710.05
871.83	1665.00
872.00	1728.49
872.17	1652.71
872.33	1775.59
872.50	1796.07
872.67	1654.76
872.83	1642.47
873.00	1757.16
873.17	1656.81
873.33	1714.15
873.50	1730.53
873.67	1628.14
873.83	1691.62
874.00	1683.43
874.16	1763.30
874.33	1667.05
874.50	1681.38
874.66	1771.49
874.83	1662.95
875.00	1773.54
875.16	1759.21
875.33	1673.19
875.50	1675.24
875.66	1703.91
875.83	1751.01
875.99	1787.88
876.16	1765.35
876.33	1603.56
876.49	1640.42
876.66	1687.53
876.83	1660.90
876.99	1583.08
877.16	1609.70
877.32	1687.53
877.49	1697.77
877.66	1722.34
877.82	1755.11
877.99	1677.29
878.15	1679.33
878.32	1658.85
878.49	1654.76
878.65	1716.20
878.82	1738.73
878.98	1718.25
879.15	1716.20
879.32	1695.72
879.48	1646.57
879.65	1673.19
879.81	1718.25
879.98	1615.85
880.15	1650.66
880.31	1755.11
880.48	1691.62
880.64	1802.21
880.81	1708.01
880.97	1853.41
881.14	1703.91
881.31	1626.09
881.47	1920.99
881.64	1673.19
881.80	1607.66
881.97	1753.06
882.13	1732.58
882.30	1640.42
882.47	1648.61
882.63	1726.44
882.80	1665.00
882.96	1695.72
883.13	1787.88
883.29	1671.14
883.46	1722.34
883.62	1767.40
883.79	1689.57
883.95	1681.38
884.12	1677.29
884.29	1738.73
884.45	1695.72
884.62	1691.62
884.78	1601.51
884.95	1730.53
885.11	1640.42
885.28	1771.49
885.44	1656.81
885.61	1783.78
885.77	1757.16
885.94	1708.01
886.10	1744.87
886.27	1689.57
886.43	1732.58
886.60	1714.15
886.76	1675.24
886.93	1640.42
887.09	1701.86
887.26	1578.98
887.42	1726.44
887.59	1771.49
887.75	1775.59
887.92	1826.79
888.08	1806.31
888.25	1759.21
888.41	1748.97
888.58	1697.77
888.74	1613.80
888.91	1693.67
>>>>>End Processed Spectral Data<<<<<
