SpectraSuite Data File
++++++++++++++++++++++++++++++++++++
Date: Mon Jun 06 14:43:57 CEST 2016
User: root
Dark Spectrum Present: No
Reference Spectrum Present: No
Number of Sampled Component Spectra: 1
Spectrometers: USB4C02835
Integration Time (usec): 100000 (USB4C02835)
Spectra Averaged: 1 (USB4C02835)
Boxcar Smoothing: 0 (USB4C02835)
Correct for Electrical Dark: No (USB4C02835)
Strobe/Lamp Enabled: No (USB4C02835)
Correct for Detector Non-linearity: No (USB4C02835)
Correct for Stray Light: No (USB4C02835)
Number of Pixels in Processed Spectrum: 3648
>>>>>Begin Processed Spectral Data<<<<<
177.47	1523.69
177.69	1523.69
177.91	1523.69
178.13	1435.63
178.36	1454.06
178.58	1697.77
178.80	1808.36
179.02	1652.71
179.24	1652.71
179.46	1708.01
179.68	1845.22
179.90	1595.37
180.13	1710.05
180.35	1662.95
180.57	1611.75
180.79	1671.14
181.01	1722.34
181.23	1742.82
181.45	1806.31
181.67	1683.43
181.90	1763.30
182.12	1644.52
182.34	1630.18
182.56	1742.82
182.78	1689.57
183.00	1742.82
183.22	1726.44
183.44	1681.38
183.66	1826.79
183.89	1812.45
184.11	1726.44
184.33	1794.02
184.55	1804.26
184.77	1779.68
184.99	1714.15
185.21	1716.20
185.43	1806.31
185.65	1656.81
185.87	1732.58
186.10	1847.27
186.32	1832.93
186.54	1683.43
186.76	1726.44
186.98	1740.77
187.20	1636.33
187.42	1726.44
187.64	1734.63
187.86	1794.02
188.08	1732.58
188.30	1732.58
188.52	1640.42
188.75	1796.07
188.97	1716.20
189.19	1650.66
189.41	1736.68
189.63	1693.67
189.85	1632.23
190.07	1710.05
190.29	1652.71
190.51	1720.29
190.73	1605.61
190.95	1783.78
191.17	1744.87
191.39	1601.51
191.61	1710.05
191.84	1658.85
192.06	1665.00
192.28	1605.61
192.50	1851.36
192.72	1738.73
192.94	1675.24
193.16	1759.21
193.38	1759.21
193.60	1689.57
193.82	1708.01
194.04	1697.77
194.26	1732.58
194.48	1665.00
194.70	1710.05
194.92	1662.95
195.14	1755.11
195.36	1597.42
195.58	1703.91
195.80	1695.72
196.02	1609.70
196.24	1656.81
196.46	1744.87
196.69	1724.39
196.91	1855.46
197.13	1648.61
197.35	1699.81
197.57	1763.30
197.79	1701.86
198.01	1683.43
198.23	1812.45
198.45	1755.11
198.67	1609.70
198.89	1701.86
199.11	1734.63
199.33	1681.38
199.55	1665.00
199.77	1644.52
199.99	1798.12
200.21	1609.70
200.43	1728.49
200.65	1638.38
200.87	1535.98
201.09	1734.63
201.31	1630.18
201.53	1779.68
201.75	1703.91
201.97	1732.58
202.19	1751.01
202.41	1703.91
202.63	1853.41
202.85	1755.11
203.07	1679.33
203.29	1718.25
203.51	1722.34
203.73	1675.24
203.95	1804.26
204.17	1767.40
204.39	1787.88
204.61	1652.71
204.83	1665.00
205.05	1675.24
205.27	1738.73
205.49	1818.60
205.71	1673.19
205.93	1675.24
206.15	1638.38
206.37	1726.44
206.59	1724.39
206.81	1632.23
207.03	1628.14
207.25	1619.94
207.47	1761.25
207.69	1687.53
207.91	1726.44
208.13	1800.16
208.34	1708.01
208.56	1746.92
208.78	1740.77
209.00	1687.53
209.22	1685.48
209.44	1691.62
209.66	1759.21
209.88	1710.05
210.10	1658.85
210.32	1693.67
210.54	1810.40
210.76	1693.67
210.98	1734.63
211.20	1572.84
211.42	1671.14
211.64	1763.30
211.86	1665.00
212.08	1718.25
212.30	1732.58
212.52	1654.76
212.74	1759.21
212.96	1716.20
213.17	1781.73
213.39	1703.91
213.61	1814.50
213.83	1652.71
214.05	1673.19
214.27	1740.77
214.49	1607.66
214.71	1732.58
214.93	1746.92
215.15	1722.34
215.37	1724.39
215.59	1720.29
215.81	1718.25
216.03	1689.57
216.24	1705.96
216.46	1669.09
216.68	1708.01
216.90	1734.63
217.12	1710.05
217.34	1669.09
217.56	1787.88
217.78	1787.88
218.00	1689.57
218.22	1724.39
218.44	1701.86
218.66	1757.16
218.87	1818.60
219.09	1687.53
219.31	1648.61
219.53	1714.15
219.75	1689.57
219.97	1718.25
220.19	1693.67
220.41	1632.23
220.63	1759.21
220.85	1654.76
221.06	1712.10
221.28	1732.58
221.50	1718.25
221.72	1632.23
221.94	1648.61
222.16	1693.67
222.38	1683.43
222.60	1722.34
222.82	1634.28
223.03	1748.97
223.25	1570.79
223.47	1771.49
223.69	1853.41
223.91	1769.44
224.13	1708.01
224.35	1636.33
224.57	1785.83
224.78	1746.92
225.00	1648.61
225.22	1632.23
225.44	1720.29
225.66	1708.01
225.88	1781.73
226.10	1724.39
226.32	1802.21
226.53	1746.92
226.75	1699.81
226.97	1724.39
227.19	1757.16
227.41	1679.33
227.63	1650.66
227.85	1689.57
228.06	1691.62
228.28	1685.48
228.50	1763.30
228.72	1617.90
228.94	1730.53
229.16	1656.81
229.37	1658.85
229.59	1638.38
229.81	1824.74
230.03	1654.76
230.25	1568.74
230.47	1660.90
230.69	1701.86
230.90	1779.68
231.12	1650.66
231.34	1765.35
231.56	1753.06
231.78	1673.19
232.00	1771.49
232.21	1669.09
232.43	1708.01
232.65	1576.94
232.87	1740.77
233.09	1642.47
233.30	1654.76
233.52	1779.68
233.74	1722.34
233.96	1738.73
234.18	1683.43
234.40	1673.19
234.61	1820.64
234.83	1691.62
235.05	1630.18
235.27	1863.65
235.49	1814.50
235.70	1583.08
235.92	1796.07
236.14	1785.83
236.36	1804.26
236.58	1550.31
236.79	1703.91
237.01	1679.33
237.23	1660.90
237.45	1742.82
237.67	1705.96
237.88	1720.29
238.10	1830.88
238.32	1630.18
238.54	1736.68
238.76	1689.57
238.97	1658.85
239.19	1662.95
239.41	1736.68
239.63	1740.77
239.85	1587.18
240.06	1656.81
240.28	1732.58
240.50	1656.81
240.72	1642.47
240.93	1675.24
241.15	1652.71
241.37	1687.53
241.59	1765.35
241.81	1669.09
242.02	1701.86
242.24	1724.39
242.46	1673.19
242.68	1642.47
242.89	1722.34
243.11	1753.06
243.33	1744.87
243.55	1734.63
243.76	1699.81
243.98	1624.04
244.20	1742.82
244.42	1720.29
244.64	1708.01
244.85	1630.18
245.07	1607.66
245.29	1759.21
245.51	1728.49
245.72	1703.91
245.94	1783.78
246.16	1757.16
246.38	1705.96
246.59	1665.00
246.81	1683.43
247.03	1673.19
247.24	1591.27
247.46	1699.81
247.68	1730.53
247.90	1746.92
248.11	1697.77
248.33	1804.26
248.55	1783.78
248.77	1736.68
248.98	1695.72
249.20	1783.78
249.42	1703.91
249.64	1708.01
249.85	1722.34
250.07	1701.86
250.29	1736.68
250.50	1744.87
250.72	1630.18
250.94	1656.81
251.16	1751.01
251.37	1767.40
251.59	1691.62
251.81	1804.26
252.02	1808.36
252.24	1669.09
252.46	1816.55
252.68	1710.05
252.89	1726.44
253.11	1611.75
253.33	1708.01
253.54	1712.10
253.76	1613.80
253.98	1665.00
254.20	1617.90
254.41	1642.47
254.63	1687.53
254.85	1671.14
255.06	1765.35
255.28	1648.61
255.50	1644.52
255.71	1642.47
255.93	1669.09
256.15	1669.09
256.36	1734.63
256.58	1636.33
256.80	1681.38
257.02	1665.00
257.23	1624.04
257.45	1687.53
257.67	1689.57
257.88	1615.85
258.10	1708.01
258.32	1779.68
258.53	1708.01
258.75	1810.40
258.97	1677.29
259.18	1722.34
259.40	1728.49
259.62	1800.16
259.83	1759.21
260.05	1748.97
260.27	1902.56
260.48	1738.73
260.70	1660.90
260.92	1701.86
261.13	1691.62
261.35	1683.43
261.57	1777.64
261.78	1599.46
262.00	1691.62
262.22	1722.34
262.43	1662.95
262.65	1617.90
262.86	1665.00
263.08	1783.78
263.30	1689.57
263.51	1638.38
263.73	1705.96
263.95	1744.87
264.16	1617.90
264.38	1689.57
264.60	1796.07
264.81	1705.96
265.03	1724.39
265.25	1712.10
265.46	1660.90
265.68	1753.06
265.89	1781.73
266.11	1507.30
266.33	1736.68
266.54	1730.53
266.76	1691.62
266.98	1753.06
267.19	1775.59
267.41	1728.49
267.62	1665.00
267.84	1615.85
268.06	1689.57
268.27	1683.43
268.49	1806.31
268.70	1781.73
268.92	1705.96
269.14	1628.14
269.35	1669.09
269.57	1634.28
269.79	1781.73
270.00	1701.86
270.22	1742.82
270.43	1703.91
270.65	1525.74
270.87	1695.72
271.08	1705.96
271.30	1736.68
271.51	1679.33
271.73	1697.77
271.95	1730.53
272.16	1621.99
272.38	1714.15
272.59	1650.66
272.81	1763.30
273.02	1685.48
273.24	1783.78
273.46	1720.29
273.67	1679.33
273.89	1591.27
274.10	1636.33
274.32	1708.01
274.54	1687.53
274.75	1746.92
274.97	1665.00
275.18	1785.83
275.40	1726.44
275.61	1691.62
275.83	1708.01
276.05	1566.70
276.26	1669.09
276.48	1708.01
276.69	1689.57
276.91	1597.42
277.12	1763.30
277.34	1730.53
277.55	1765.35
277.77	1665.00
277.99	1654.76
278.20	1652.71
278.42	1634.28
278.63	1675.24
278.85	1609.70
279.06	1656.81
279.28	1730.53
279.49	1748.97
279.71	1722.34
279.93	1650.66
280.14	1652.71
280.36	1679.33
280.57	1779.68
280.79	1675.24
281.00	1708.01
281.22	1667.05
281.43	1753.06
281.65	1632.23
281.86	1716.20
282.08	1691.62
282.29	1742.82
282.51	1607.66
282.73	1576.94
282.94	1693.67
283.16	1800.16
283.37	1796.07
283.59	1648.61
283.80	1710.05
284.02	1726.44
284.23	1763.30
284.45	1728.49
284.66	1642.47
284.88	1685.48
285.09	1693.67
285.31	1742.82
285.52	1730.53
285.74	1599.46
285.95	1767.40
286.17	1701.86
286.38	1761.25
286.60	1685.48
286.81	1660.90
287.03	1656.81
287.24	1656.81
287.46	1748.97
287.67	1787.88
287.89	1781.73
288.10	1689.57
288.32	1722.34
288.53	1714.15
288.75	1644.52
288.96	1710.05
289.18	1695.72
289.39	1687.53
289.61	1718.25
289.82	1791.97
290.04	1808.36
290.25	1609.70
290.47	1742.82
290.68	1746.92
290.90	1810.40
291.11	1564.65
291.33	1634.28
291.54	1675.24
291.76	1658.85
291.97	1746.92
292.18	1708.01
292.40	1636.33
292.61	1685.48
292.83	1751.01
293.04	1746.92
293.26	1738.73
293.47	1697.77
293.69	1640.42
293.90	1726.44
294.12	1742.82
294.33	1726.44
294.55	1689.57
294.76	1753.06
294.97	1699.81
295.19	1787.88
295.40	1767.40
295.62	1703.91
295.83	1724.39
296.05	1662.95
296.26	1771.49
296.48	1746.92
296.69	1681.38
296.90	1597.42
297.12	1746.92
297.33	1746.92
297.55	1710.05
297.76	1779.68
297.98	1724.39
298.19	1728.49
298.41	1746.92
298.62	1673.19
298.83	1751.01
299.05	1621.99
299.26	1748.97
299.48	1628.14
299.69	1746.92
299.90	1822.69
300.12	1693.67
300.33	1705.96
300.55	1710.05
300.76	1718.25
300.98	1636.33
301.19	1708.01
301.40	1689.57
301.62	1685.48
301.83	1697.77
302.05	1681.38
302.26	1736.68
302.47	1634.28
302.69	1695.72
302.90	1673.19
303.12	1630.18
303.33	1738.73
303.54	1757.16
303.76	1746.92
303.97	1753.06
304.19	1710.05
304.40	1581.03
304.61	1794.02
304.83	1880.04
305.04	1800.16
305.26	1759.21
305.47	1591.27
305.68	1660.90
305.90	1648.61
306.11	1697.77
306.33	1708.01
306.54	1730.53
306.75	1755.11
306.97	1583.08
307.18	1722.34
307.39	1648.61
307.61	1730.53
307.82	1650.66
308.04	1685.48
308.25	1617.90
308.46	1689.57
308.68	1716.20
308.89	1699.81
309.10	1734.63
309.32	1701.86
309.53	1677.29
309.74	1765.35
309.96	1687.53
310.17	1705.96
310.39	1585.13
310.60	1722.34
310.81	1734.63
311.03	1578.98
311.24	1732.58
311.45	1665.00
311.67	1834.98
311.88	1738.73
312.09	1656.81
312.31	1652.71
312.52	1712.10
312.73	1665.00
312.95	1671.14
313.16	1656.81
313.37	1738.73
313.59	1675.24
313.80	1775.59
314.01	1828.84
314.23	1677.29
314.44	1652.71
314.65	1724.39
314.87	1632.23
315.08	1660.90
315.29	1722.34
315.51	1689.57
315.72	1691.62
315.93	1755.11
316.15	1789.92
316.36	1669.09
316.57	1689.57
316.79	1693.67
317.00	1722.34
317.21	1722.34
317.43	1591.27
317.64	1685.48
317.85	1783.78
318.07	1679.33
318.28	1708.01
318.49	1783.78
318.70	1888.23
318.92	1871.84
319.13	1871.84
319.34	1877.99
319.56	1834.98
319.77	1800.16
319.98	1763.30
320.20	1787.88
320.41	1767.40
320.62	1763.30
320.83	1599.46
321.05	1804.26
321.26	1767.40
321.47	1658.85
321.69	1751.01
321.90	1568.74
322.11	1703.91
322.32	1728.49
322.54	1775.59
322.75	1722.34
322.96	1830.88
323.18	1646.57
323.39	1714.15
323.60	1636.33
323.81	1728.49
324.03	1669.09
324.24	1646.57
324.45	1710.05
324.66	1699.81
324.88	1787.88
325.09	1738.73
325.30	1599.46
325.52	1771.49
325.73	1740.77
325.94	1701.86
326.15	1630.18
326.37	1654.76
326.58	1724.39
326.79	1773.54
327.00	1648.61
327.22	1728.49
327.43	1695.72
327.64	1615.85
327.85	1781.73
328.07	1757.16
328.28	1824.74
328.49	1679.33
328.70	1675.24
328.92	1728.49
329.13	1669.09
329.34	1671.14
329.55	1816.55
329.76	1751.01
329.98	1634.28
330.19	1728.49
330.40	1677.29
330.61	1798.12
330.83	1738.73
331.04	1662.95
331.25	1699.81
331.46	1585.13
331.68	1595.37
331.89	1798.12
332.10	1708.01
332.31	1691.62
332.52	1705.96
332.74	1730.53
332.95	1630.18
333.16	1695.72
333.37	1691.62
333.58	1638.38
333.80	1710.05
334.01	1636.33
334.22	1693.67
334.43	1718.25
334.64	1685.48
334.86	1619.94
335.07	1628.14
335.28	1796.07
335.49	1497.07
335.70	1728.49
335.92	1736.68
336.13	1824.74
336.34	1787.88
336.55	1667.05
336.76	1734.63
336.98	1576.94
337.19	1716.20
337.40	1779.68
337.61	1865.70
337.82	1667.05
338.04	1767.40
338.25	1564.65
338.46	1673.19
338.67	1648.61
338.88	1656.81
339.09	1642.47
339.31	1689.57
339.52	1607.66
339.73	1644.52
339.94	1726.44
340.15	1769.44
340.36	1595.37
340.58	1748.97
340.79	1591.27
341.00	1689.57
341.21	1669.09
341.42	1742.82
341.63	1708.01
341.85	1804.26
342.06	1800.16
342.27	1587.18
342.48	1687.53
342.69	1599.46
342.90	1714.15
343.12	1744.87
343.33	1697.77
343.54	1724.39
343.75	1748.97
343.96	1705.96
344.17	1644.52
344.38	1667.05
344.60	1710.05
344.81	1619.94
345.02	1679.33
345.23	1667.05
345.44	1806.31
345.65	1724.39
345.86	1728.49
346.07	1708.01
346.29	1714.15
346.50	1730.53
346.71	1771.49
346.92	1841.12
347.13	1890.28
347.34	1615.85
347.55	1755.11
347.76	1718.25
347.98	1609.70
348.19	1714.15
348.40	1757.16
348.61	1689.57
348.82	1722.34
349.03	1777.64
349.24	1677.29
349.45	1771.49
349.66	1624.04
349.88	1755.11
350.09	1636.33
350.30	1726.44
350.51	1759.21
350.72	1693.67
350.93	1695.72
351.14	1628.14
351.35	1728.49
351.56	1728.49
351.77	1724.39
351.99	1746.92
352.20	1855.46
352.41	1781.73
352.62	1601.51
352.83	1722.34
353.04	1650.66
353.25	1646.57
353.46	1802.21
353.67	1648.61
353.88	1589.22
354.09	1728.49
354.30	1693.67
354.52	1742.82
354.73	1673.19
354.94	1648.61
355.15	1642.47
355.36	1869.80
355.57	1648.61
355.78	1681.38
355.99	1621.99
356.20	1710.05
356.41	1810.40
356.62	1673.19
356.83	1695.72
357.04	1820.64
357.25	1566.70
357.46	1650.66
357.68	1658.85
357.89	1669.09
358.10	1683.43
358.31	1652.71
358.52	1738.73
358.73	1683.43
358.94	1730.53
359.15	1648.61
359.36	1759.21
359.57	1740.77
359.78	1734.63
359.99	1757.16
360.20	1757.16
360.41	1734.63
360.62	1789.92
360.83	1769.44
361.04	1652.71
361.25	1708.01
361.46	1804.26
361.67	1791.97
361.88	1691.62
362.09	1814.50
362.30	1783.78
362.51	1662.95
362.72	1744.87
362.93	1669.09
363.14	1708.01
363.35	1656.81
363.56	1632.23
363.78	1814.50
363.99	1781.73
364.20	1675.24
364.41	1710.05
364.62	1812.45
364.83	1771.49
365.04	1759.21
365.25	1716.20
365.46	1779.68
365.67	1660.90
365.88	1693.67
366.09	1605.61
366.30	1705.96
366.51	1744.87
366.72	1605.61
366.93	1726.44
367.14	1611.75
367.35	1779.68
367.56	1691.62
367.77	1740.77
367.98	1728.49
368.18	1662.95
368.39	1679.33
368.60	1681.38
368.81	1730.53
369.02	1740.77
369.23	1658.85
369.44	1626.09
369.65	1681.38
369.86	1691.62
370.07	1681.38
370.28	1703.91
370.49	1753.06
370.70	1732.58
370.91	1636.33
371.12	1591.27
371.33	1683.43
371.54	1724.39
371.75	1755.11
371.96	1583.08
372.17	1693.67
372.38	1675.24
372.59	1777.64
372.80	1658.85
373.01	1685.48
373.22	1765.35
373.43	1665.00
373.64	1587.18
373.85	1738.73
374.06	1806.31
374.26	1714.15
374.47	1667.05
374.68	1767.40
374.89	1603.56
375.10	1718.25
375.31	1779.68
375.52	1732.58
375.73	1695.72
375.94	1624.04
376.15	1798.12
376.36	1615.85
376.57	1619.94
376.78	1673.19
376.99	1689.57
377.20	1806.31
377.40	1683.43
377.61	1751.01
377.82	1617.90
378.03	1857.51
378.24	1714.15
378.45	1685.48
378.66	1720.29
378.87	1599.46
379.08	1669.09
379.29	1681.38
379.50	1777.64
379.71	1673.19
379.91	1716.20
380.12	1673.19
380.33	1675.24
380.54	1748.97
380.75	1687.53
380.96	1701.86
381.17	1845.22
381.38	1728.49
381.59	1751.01
381.80	1681.38
382.00	1861.60
382.21	1665.00
382.42	1783.78
382.63	1849.32
382.84	1781.73
383.05	1789.92
383.26	1814.50
383.47	1763.30
383.68	1685.48
383.88	1726.44
384.09	1720.29
384.30	1871.84
384.51	1697.77
384.72	1671.14
384.93	1667.05
385.14	1691.62
385.35	1738.73
385.55	1660.90
385.76	1740.77
385.97	1703.91
386.18	1722.34
386.39	1636.33
386.60	1654.76
386.81	1753.06
387.02	1665.00
387.22	1650.66
387.43	1783.78
387.64	1781.73
387.85	1861.60
388.06	2213.85
388.27	4362.17
388.48	6893.46
388.68	8351.62
388.89	9906.02
389.10	9899.88
389.31	8734.59
389.52	7704.46
389.73	6950.81
389.93	6244.26
390.14	5842.85
390.35	5273.52
390.56	4657.08
390.77	3841.99
390.98	3067.86
391.18	2506.71
391.39	2031.58
391.60	1757.16
391.81	1898.47
392.02	1738.73
392.23	1875.94
392.43	1705.96
392.64	1798.12
392.85	1722.34
393.06	1791.97
393.27	1718.25
393.47	1712.10
393.68	1685.48
393.89	1675.24
394.10	1767.40
394.31	1681.38
394.52	1755.11
394.72	1691.62
394.93	1736.68
395.14	1615.85
395.35	1761.25
395.56	1673.19
395.76	1800.16
395.97	1767.40
396.18	1873.89
396.39	1896.42
396.60	2007.01
396.80	1964.00
397.01	1810.40
397.22	1828.84
397.43	1857.51
397.64	1804.26
397.84	1759.21
398.05	1900.52
398.26	1767.40
398.47	1746.92
398.67	1818.60
398.88	1675.24
399.09	1761.25
399.30	1636.33
399.51	1701.86
399.71	1601.51
399.92	1802.21
400.13	1689.57
400.34	1667.05
400.54	1759.21
400.75	1771.49
400.96	1757.16
401.17	1810.40
401.37	1738.73
401.58	1716.20
401.79	1679.33
402.00	1810.40
402.21	1984.48
402.41	1941.47
402.62	1976.29
402.83	1998.82
403.04	2041.82
403.24	2043.87
403.45	1884.13
403.66	1888.23
403.87	1859.56
404.07	1871.84
404.28	1900.52
404.49	1892.32
404.70	1744.87
404.90	1755.11
405.11	1751.01
405.32	1767.40
405.52	1695.72
405.73	1699.81
405.94	1705.96
406.15	1753.06
406.35	1757.16
406.56	1720.29
406.77	1710.05
406.98	1708.01
407.18	1652.71
407.39	1798.12
407.60	1726.44
407.80	1667.05
408.01	1632.23
408.22	1697.77
408.43	1699.81
408.63	1730.53
408.84	1720.29
409.05	1771.49
409.25	1638.38
409.46	1669.09
409.67	1667.05
409.88	1665.00
410.08	1763.30
410.29	1652.71
410.50	1740.77
410.70	1744.87
410.91	1662.95
411.12	1722.34
411.32	1644.52
411.53	1683.43
411.74	1796.07
411.95	1755.11
412.15	1738.73
412.36	1783.78
412.57	1763.30
412.77	1740.77
412.98	1732.58
413.19	1746.92
413.39	1740.77
413.60	1710.05
413.81	1771.49
414.01	1689.57
414.22	1759.21
414.43	1748.97
414.63	1742.82
414.84	1777.64
415.05	1683.43
415.25	1615.85
415.46	1689.57
415.67	1742.82
415.87	1718.25
416.08	1691.62
416.29	1744.87
416.49	1730.53
416.70	1624.04
416.91	1662.95
417.11	1660.90
417.32	1814.50
417.53	1748.97
417.73	1767.40
417.94	1697.77
418.15	1765.35
418.35	1728.49
418.56	1699.81
418.77	1794.02
418.97	1738.73
419.18	1726.44
419.38	1636.33
419.59	1738.73
419.80	1732.58
420.00	1679.33
420.21	1748.97
420.42	1761.25
420.62	1726.44
420.83	1734.63
421.04	1718.25
421.24	1712.10
421.45	1738.73
421.65	1767.40
421.86	1701.86
422.07	1744.87
422.27	1761.25
422.48	1677.29
422.69	1699.81
422.89	1712.10
423.10	1681.38
423.30	1712.10
423.51	1755.11
423.72	1656.81
423.92	1736.68
424.13	1687.53
424.33	1769.44
424.54	1728.49
424.75	1687.53
424.95	1826.79
425.16	1685.48
425.36	1615.85
425.57	1693.67
425.78	1794.02
425.98	1683.43
426.19	1724.39
426.39	1619.94
426.60	1783.78
426.81	1771.49
427.01	1654.76
427.22	1705.96
427.42	1640.42
427.63	1662.95
427.83	1726.44
428.04	1779.68
428.25	1804.26
428.45	1779.68
428.66	1724.39
428.86	1630.18
429.07	1650.66
429.28	1701.86
429.48	1714.15
429.69	1636.33
429.89	1716.20
430.10	1712.10
430.30	1796.07
430.51	1810.40
430.71	1574.89
430.92	1689.57
431.13	1634.28
431.33	1767.40
431.54	1812.45
431.74	1789.92
431.95	1818.60
432.15	1705.96
432.36	1744.87
432.56	1738.73
432.77	1828.84
432.98	1814.50
433.18	1681.38
433.39	1699.81
433.59	1675.24
433.80	1839.08
434.00	1875.94
434.21	1736.68
434.41	1710.05
434.62	1902.56
434.82	1585.13
435.03	1646.57
435.23	1710.05
435.44	1617.90
435.64	1669.09
435.85	1740.77
436.06	1785.83
436.26	1705.96
436.47	1759.21
436.67	1638.38
436.88	1640.42
437.08	1796.07
437.29	1757.16
437.49	1697.77
437.70	1740.77
437.90	1722.34
438.11	1853.41
438.31	1763.30
438.52	1877.99
438.72	1857.51
438.93	1906.66
439.13	1779.68
439.34	1822.69
439.54	1800.16
439.75	1787.88
439.95	1767.40
440.16	1746.92
440.36	1828.84
440.57	1853.41
440.77	1740.77
440.98	1691.62
441.18	1683.43
441.39	1712.10
441.59	1619.94
441.80	1851.36
442.00	1697.77
442.21	1765.35
442.41	1624.04
442.62	1796.07
442.82	1675.24
443.02	1818.60
443.23	1722.34
443.43	1738.73
443.64	1820.64
443.84	1681.38
444.05	1759.21
444.25	1779.68
444.46	1753.06
444.66	1736.68
444.87	1796.07
445.07	1591.27
445.28	1771.49
445.48	1769.44
445.69	1781.73
445.89	1826.79
446.09	1681.38
446.30	2047.97
446.50	2645.98
446.71	3778.50
446.91	4345.79
447.12	4816.82
447.32	4886.45
447.53	4302.78
447.73	3979.20
447.93	3516.36
448.14	3311.57
448.34	3239.89
448.55	2963.41
448.75	2844.63
448.96	2701.27
449.16	2455.51
449.36	2256.86
449.57	2002.91
449.77	1935.33
449.98	1705.96
450.18	1816.55
450.39	1781.73
450.59	1837.03
450.79	1732.58
451.00	1665.00
451.20	1802.21
451.41	1724.39
451.61	1767.40
451.81	1771.49
452.02	1646.57
452.22	1697.77
452.43	1732.58
452.63	1675.24
452.84	1695.72
453.04	1697.77
453.24	1652.71
453.45	1681.38
453.65	1642.47
453.86	1810.40
454.06	1673.19
454.26	1703.91
454.47	1626.09
454.67	1798.12
454.87	1791.97
455.08	1804.26
455.28	1804.26
455.49	1771.49
455.69	1693.67
455.89	1834.98
456.10	1841.12
456.30	1697.77
456.51	1806.31
456.71	1771.49
456.91	1726.44
457.12	1787.88
457.32	1834.98
457.52	1626.09
457.73	1695.72
457.93	1775.59
458.14	1654.76
458.34	1568.74
458.54	1667.05
458.75	1746.92
458.95	1732.58
459.15	1796.07
459.36	1796.07
459.56	1673.19
459.76	1904.61
459.97	1714.15
460.17	1712.10
460.37	1759.21
460.58	1716.20
460.78	1847.27
460.99	1722.34
461.19	1685.48
461.39	1687.53
461.60	1716.20
461.80	1726.44
462.00	1665.00
462.21	1720.29
462.41	1644.52
462.61	1693.67
462.82	1603.56
463.02	1728.49
463.22	1787.88
463.43	1873.89
463.63	1726.44
463.83	1814.50
464.04	1781.73
464.24	1822.69
464.44	1746.92
464.64	1683.43
464.85	1826.79
465.05	1851.36
465.25	1703.91
465.46	1636.33
465.66	1720.29
465.86	1765.35
466.07	1779.68
466.27	1728.49
466.47	1677.29
466.68	1669.09
466.88	1828.84
467.08	1710.05
467.29	1738.73
467.49	1730.53
467.69	1689.57
467.89	1753.06
468.10	1691.62
468.30	1744.87
468.50	1816.55
468.71	1765.35
468.91	1601.51
469.11	1861.60
469.31	1681.38
469.52	1669.09
469.72	1767.40
469.92	1810.40
470.13	1730.53
470.33	1697.77
470.53	1834.98
470.73	2168.80
470.94	2275.29
471.14	2271.20
471.34	2494.43
471.54	2459.61
471.75	2248.67
471.95	2101.22
472.15	2031.58
472.36	2072.54
472.56	2066.40
472.76	2047.97
472.96	2009.06
473.17	1906.66
473.37	1877.99
473.57	1787.88
473.77	1812.45
473.98	1761.25
474.18	1683.43
474.38	1806.31
474.58	1685.48
474.79	1658.85
474.99	1787.88
475.19	1763.30
475.39	1689.57
475.60	1728.49
475.80	1787.88
476.00	1785.83
476.20	1667.05
476.41	1722.34
476.61	1773.54
476.81	1871.84
477.01	1566.70
477.21	1804.26
477.42	1779.68
477.62	1705.96
477.82	1703.91
478.02	1705.96
478.23	1708.01
478.43	1685.48
478.63	1744.87
478.83	1732.58
479.03	1662.95
479.24	1765.35
479.44	1820.64
479.64	1718.25
479.84	1626.09
480.04	1669.09
480.25	1783.78
480.45	1710.05
480.65	1763.30
480.85	1736.68
481.06	1667.05
481.26	1759.21
481.46	1714.15
481.66	1751.01
481.86	1724.39
482.06	1808.36
482.27	1689.57
482.47	1605.61
482.67	1720.29
482.87	1699.81
483.07	1771.49
483.28	1722.34
483.48	1681.38
483.68	1650.66
483.88	1673.19
484.08	1640.42
484.29	1652.71
484.49	1777.64
484.69	1626.09
484.89	1789.92
485.09	1775.59
485.29	1757.16
485.50	1822.69
485.70	1714.15
485.90	1806.31
486.10	1705.96
486.30	1798.12
486.50	1730.53
486.71	1734.63
486.91	1781.73
487.11	1779.68
487.31	1617.90
487.51	1740.77
487.71	1652.71
487.91	1630.18
488.12	1646.57
488.32	1634.28
488.52	1667.05
488.72	1605.61
488.92	1751.01
489.12	1769.44
489.32	1785.83
489.53	1720.29
489.73	1669.09
489.93	1773.54
490.13	1685.48
490.33	1630.18
490.53	1671.14
490.73	1820.64
490.94	1740.77
491.14	1753.06
491.34	1812.45
491.54	2111.46
491.74	2598.87
491.94	2940.88
492.14	3084.24
492.34	2994.13
492.54	2842.58
492.75	2566.10
492.95	2428.89
493.15	2373.60
493.35	2207.71
493.55	2217.95
493.75	2111.46
493.95	2152.42
494.15	2031.58
494.35	1888.23
494.56	1888.23
494.76	1740.77
494.96	1757.16
495.16	1753.06
495.36	1722.34
495.56	1669.09
495.76	1746.92
495.96	1693.67
496.16	1701.86
496.36	1736.68
496.56	1769.44
496.77	1701.86
496.97	1742.82
497.17	1837.03
497.37	1652.71
497.57	1716.20
497.77	1751.01
497.97	1667.05
498.17	1726.44
498.37	1718.25
498.57	1746.92
498.77	1669.09
498.97	1769.44
499.17	1796.07
499.38	1708.01
499.58	1738.73
499.78	1806.31
499.98	1810.40
500.18	1691.62
500.38	1675.24
500.58	1902.56
500.78	2529.24
500.98	4526.01
501.18	5937.06
501.38	6930.33
501.58	7333.78
501.78	6932.37
501.98	5658.54
502.18	5035.96
502.38	4480.96
502.58	4204.48
502.78	3887.04
502.98	3733.45
503.18	3461.07
503.38	3268.56
503.59	2858.96
503.79	2623.45
503.99	2504.67
504.19	2381.79
504.39	2248.67
504.59	2156.51
504.79	2172.89
504.99	2004.96
505.19	1947.62
505.39	1935.33
505.59	1931.23
505.79	1925.09
505.99	1861.60
506.19	1775.59
506.39	1892.32
506.59	1675.24
506.79	1714.15
506.99	1802.21
507.19	1746.92
507.39	1703.91
507.59	1714.15
507.79	1740.77
507.99	1652.71
508.19	1669.09
508.39	1697.77
508.59	1718.25
508.79	1863.65
508.99	1900.52
509.19	1626.09
509.39	1777.64
509.59	1730.53
509.79	1628.14
509.99	1763.30
510.19	1841.12
510.39	1869.80
510.59	1769.44
510.79	1736.68
510.99	1687.53
511.19	1669.09
511.39	1847.27
511.59	1773.54
511.79	1820.64
511.99	1710.05
512.19	1794.02
512.38	1738.73
512.58	1665.00
512.78	1757.16
512.98	1794.02
513.18	1798.12
513.38	1574.89
513.58	1751.01
513.78	1677.29
513.98	1775.59
514.18	1740.77
514.38	1693.67
514.58	1693.67
514.78	1615.85
514.98	1730.53
515.18	1796.07
515.38	1699.81
515.58	1787.88
515.78	1718.25
515.98	1802.21
516.18	1798.12
516.38	1667.05
516.57	1708.01
516.77	1695.72
516.97	1673.19
517.17	1738.73
517.37	1630.18
517.57	1802.21
517.77	1720.29
517.97	1734.63
518.17	1746.92
518.37	1724.39
518.57	1718.25
518.77	1710.05
518.97	1734.63
519.16	1708.01
519.36	1798.12
519.56	1687.53
519.76	1755.11
519.96	1781.73
520.16	1861.60
520.36	1646.57
520.56	1720.29
520.76	1716.20
520.96	1728.49
521.16	1726.44
521.35	1779.68
521.55	1837.03
521.75	1732.58
521.95	1644.52
522.15	1736.68
522.35	1687.53
522.55	1654.76
522.75	1781.73
522.95	1669.09
523.14	1642.47
523.34	1775.59
523.54	1656.81
523.74	1763.30
523.94	1802.21
524.14	1595.37
524.34	1787.88
524.54	1843.17
524.73	1777.64
524.93	1789.92
525.13	1744.87
525.33	1605.61
525.53	1839.08
525.73	1830.88
525.93	1746.92
526.13	1734.63
526.32	1665.00
526.52	1880.04
526.72	1773.54
526.92	1634.28
527.12	1763.30
527.32	1681.38
527.52	1740.77
527.71	1718.25
527.91	1654.76
528.11	1652.71
528.31	1738.73
528.51	1660.90
528.71	1736.68
528.90	1796.07
529.10	1820.64
529.30	1744.87
529.50	1720.29
529.70	1734.63
529.90	1722.34
530.09	1771.49
530.29	1714.15
530.49	1636.33
530.69	1863.65
530.89	1693.67
531.09	1740.77
531.28	1675.24
531.48	1808.36
531.68	1714.15
531.88	1699.81
532.08	1796.07
532.28	1705.96
532.47	1824.74
532.67	1869.80
532.87	1671.14
533.07	1689.57
533.27	1791.97
533.46	1796.07
533.66	1736.68
533.86	1720.29
534.06	1718.25
534.26	1834.98
534.45	1675.24
534.65	1757.16
534.85	1720.29
535.05	1638.38
535.25	1751.01
535.44	1605.61
535.64	1757.16
535.84	1613.80
536.04	1796.07
536.24	1695.72
536.43	1765.35
536.63	1818.60
536.83	1769.44
537.03	1621.99
537.22	1642.47
537.42	1576.94
537.62	1746.92
537.82	1701.86
538.02	1681.38
538.21	1751.01
538.41	1861.60
538.61	1744.87
538.81	1695.72
539.00	1789.92
539.20	1646.57
539.40	1740.77
539.60	1687.53
539.79	1814.50
539.99	1775.59
540.19	1724.39
540.39	1640.42
540.58	1716.20
540.78	1806.31
540.98	1787.88
541.18	1804.26
541.37	1820.64
541.57	1794.02
541.77	1783.78
541.97	1656.81
542.16	1724.39
542.36	1751.01
542.56	1777.64
542.76	1853.41
542.95	1710.05
543.15	1656.81
543.35	1794.02
543.54	1744.87
543.74	1679.33
543.94	1757.16
544.14	1677.29
544.33	1789.92
544.53	1712.10
544.73	1738.73
544.93	1726.44
545.12	1787.88
545.32	1767.40
545.52	1748.97
545.71	1656.81
545.91	1679.33
546.11	1691.62
546.30	1710.05
546.50	1722.34
546.70	1724.39
546.90	1732.58
547.09	1609.70
547.29	1738.73
547.49	1746.92
547.68	1730.53
547.88	1732.58
548.08	1724.39
548.27	2220.00
548.47	1705.96
548.67	1683.43
548.87	1765.35
549.06	1703.91
549.26	1714.15
549.46	1751.01
549.65	1701.86
549.85	1736.68
550.05	1806.31
550.24	1654.76
550.44	1744.87
550.64	1695.72
550.83	1775.59
551.03	1783.78
551.23	1871.84
551.42	1722.34
551.62	1763.30
551.82	1839.08
552.01	1765.35
552.21	1873.89
552.41	1759.21
552.60	1808.36
552.80	1791.97
553.00	1718.25
553.19	1730.53
553.39	1787.88
553.59	1621.99
553.78	1757.16
553.98	1685.48
554.17	1671.14
554.37	1734.63
554.57	1798.12
554.76	1640.42
554.96	1695.72
555.16	1742.82
555.35	1677.29
555.55	1718.25
555.75	1777.64
555.94	1828.84
556.14	1638.38
556.33	1765.35
556.53	1724.39
556.73	1769.44
556.92	1828.84
557.12	1794.02
557.32	1767.40
557.51	1746.92
557.71	1759.21
557.90	1859.56
558.10	1818.60
558.30	1726.44
558.49	1748.97
558.69	1732.58
558.88	1771.49
559.08	1769.44
559.28	1705.96
559.47	1755.11
559.67	1751.01
559.86	1855.46
560.06	1726.44
560.26	1751.01
560.45	1783.78
560.65	1736.68
560.84	1781.73
561.04	1636.33
561.24	1734.63
561.43	1710.05
561.63	1775.59
561.82	1671.14
562.02	1740.77
562.22	1669.09
562.41	1710.05
562.61	1705.96
562.80	1716.20
563.00	1877.99
563.19	1742.82
563.39	1771.49
563.59	1787.88
563.78	1636.33
563.98	1593.32
564.17	1673.19
564.37	1640.42
564.56	1683.43
564.76	1626.09
564.96	1853.41
565.15	1720.29
565.35	1796.07
565.54	1796.07
565.74	1798.12
565.93	1742.82
566.13	1730.53
566.32	1693.67
566.52	1841.12
566.71	1794.02
566.91	1753.06
567.11	1765.35
567.30	1777.64
567.50	1798.12
567.69	1748.97
567.89	1708.01
568.08	1697.77
568.28	1779.68
568.47	1697.77
568.67	1769.44
568.86	1658.85
569.06	1746.92
569.25	1724.39
569.45	1742.82
569.64	1738.73
569.84	1732.58
570.04	1742.82
570.23	1736.68
570.43	1730.53
570.62	1779.68
570.82	1822.69
571.01	1697.77
571.21	1658.85
571.40	1673.19
571.60	1767.40
571.79	1748.97
571.99	1796.07
572.18	1699.81
572.38	1810.40
572.57	1697.77
572.77	1818.60
572.96	1855.46
573.16	1781.73
573.35	1781.73
573.55	1845.22
573.74	1722.34
573.94	1767.40
574.13	1744.87
574.33	1812.45
574.52	1763.30
574.71	1687.53
574.91	1662.95
575.10	1679.33
575.30	1699.81
575.49	1785.83
575.69	1767.40
575.88	1787.88
576.08	1742.82
576.27	1830.88
576.47	1720.29
576.66	1822.69
576.86	1830.88
577.05	1667.05
577.25	1800.16
577.44	1830.88
577.64	1710.05
577.83	1775.59
578.02	1718.25
578.22	1779.68
578.41	1783.78
578.61	1783.78
578.80	1634.28
579.00	1765.35
579.19	1687.53
579.39	1804.26
579.58	1773.54
579.77	1708.01
579.97	1796.07
580.16	1861.60
580.36	1830.88
580.55	1789.92
580.75	1794.02
580.94	1724.39
581.13	1863.65
581.33	1888.23
581.52	1759.21
581.72	1886.18
581.91	1896.42
582.11	1716.20
582.30	1761.25
582.49	1808.36
582.69	1847.27
582.88	1802.21
583.08	1712.10
583.27	1748.97
583.47	1689.57
583.66	1779.68
583.85	1732.58
584.05	1755.11
584.24	1734.63
584.44	1794.02
584.63	1751.01
584.82	1837.03
585.02	1867.75
585.21	1859.56
585.41	1781.73
585.60	1804.26
585.79	1894.37
585.99	1992.67
586.18	1794.02
586.37	2240.48
586.57	3424.20
586.76	9885.55
586.96	24989.31
587.15	35311.08
587.34	41342.35
587.54	43064.69
587.73	37557.70
587.93	26945.12
588.12	21991.09
588.31	18689.76
588.51	16697.09
588.70	15757.07
588.89	14440.23
589.09	12787.52
589.28	11337.56
589.47	9412.46
589.67	8077.19
589.86	6522.78
590.06	5003.19
590.25	3971.01
590.44	3112.91
590.64	2639.83
590.83	2236.38
591.02	2174.94
591.22	1875.94
591.41	1789.92
591.60	1781.73
591.80	1986.53
591.99	1732.58
592.18	1767.40
592.38	1824.74
592.57	1759.21
592.76	1806.31
592.96	1802.21
593.15	1722.34
593.34	1746.92
593.54	1636.33
593.73	1818.60
593.92	1755.11
594.12	1726.44
594.31	1843.17
594.50	1880.04
594.70	1814.50
594.89	1877.99
595.08	1693.67
595.28	1740.77
595.47	1918.95
595.66	1787.88
595.86	1650.66
596.05	1748.97
596.24	1722.34
596.43	1818.60
596.63	1843.17
596.82	1730.53
597.01	1716.20
597.21	1853.41
597.40	1834.98
597.59	1734.63
597.79	1742.82
597.98	1820.64
598.17	1697.77
598.36	1693.67
598.56	1853.41
598.75	1665.00
598.94	1767.40
599.14	1685.48
599.33	1710.05
599.52	1730.53
599.71	1755.11
599.91	1802.21
600.10	1779.68
600.29	1832.93
600.48	1828.84
600.68	1685.48
600.87	1779.68
601.06	1681.38
601.26	1736.68
601.45	1742.82
601.64	1728.49
601.83	1867.75
602.03	1738.73
602.22	1683.43
602.41	1816.55
602.60	1853.41
602.80	1839.08
602.99	1746.92
603.18	1693.67
603.37	1650.66
603.57	1777.64
603.76	1771.49
603.95	1763.30
604.14	1773.54
604.34	1708.01
604.53	1714.15
604.72	1701.86
604.91	1742.82
605.10	1781.73
605.30	1710.05
605.49	1806.31
605.68	1738.73
605.87	1742.82
606.07	1771.49
606.26	1734.63
606.45	1814.50
606.64	1671.14
606.84	1705.96
607.03	1781.73
607.22	1818.60
607.41	1632.23
607.60	1785.83
607.80	1802.21
607.99	1746.92
608.18	1734.63
608.37	1787.88
608.56	1701.86
608.76	1820.64
608.95	1783.78
609.14	1765.35
609.33	1761.25
609.52	1738.73
609.72	1691.62
609.91	1773.54
610.10	1740.77
610.29	1798.12
610.48	1791.97
610.68	1656.81
610.87	1648.61
611.06	1796.07
611.25	1693.67
611.44	1783.78
611.63	1751.01
611.83	1763.30
612.02	1652.71
612.21	1785.83
612.40	1626.09
612.59	1716.20
612.79	1697.77
612.98	1748.97
613.17	1794.02
613.36	1757.16
613.55	1847.27
613.74	1693.67
613.93	1718.25
614.13	1705.96
614.32	1783.78
614.51	1789.92
614.70	1791.97
614.89	1708.01
615.08	1742.82
615.28	2054.11
615.47	1693.67
615.66	1800.16
615.85	1697.77
616.04	1867.75
616.23	1730.53
616.42	1746.92
616.62	1775.59
616.81	1802.21
617.00	1669.09
617.19	1806.31
617.38	1796.07
617.57	1742.82
617.76	1738.73
617.95	1710.05
618.15	1746.92
618.34	1806.31
618.53	1595.37
618.72	1757.16
618.91	1849.32
619.10	1787.88
619.29	1710.05
619.48	1738.73
619.68	1726.44
619.87	1738.73
620.06	1607.66
620.25	1769.44
620.44	1787.88
620.63	1708.01
620.82	1730.53
621.01	1699.81
621.20	1656.81
621.39	1689.57
621.59	1714.15
621.78	1759.21
621.97	1683.43
622.16	1771.49
622.35	1710.05
622.54	1812.45
622.73	1783.78
622.92	1677.29
623.11	1683.43
623.30	1701.86
623.49	1755.11
623.68	1703.91
623.88	1740.77
624.07	1748.97
624.26	1718.25
624.45	1718.25
624.64	1656.81
624.83	1675.24
625.02	1697.77
625.21	1665.00
625.40	1728.49
625.59	1814.50
625.78	1705.96
625.97	1837.03
626.16	1806.31
626.35	1751.01
626.54	1712.10
626.74	1738.73
626.93	1675.24
627.12	1722.34
627.31	1656.81
627.50	1775.59
627.69	1736.68
627.88	1615.85
628.07	1675.24
628.26	1646.57
628.45	1636.33
628.64	1665.00
628.83	1673.19
629.02	1650.66
629.21	1703.91
629.40	1740.77
629.59	1599.46
629.78	1665.00
629.97	1699.81
630.16	1763.30
630.35	1699.81
630.54	1740.77
630.73	1701.86
630.92	1691.62
631.11	1669.09
631.30	1720.29
631.49	1705.96
631.68	1791.97
631.87	1701.86
632.06	1638.38
632.25	1853.41
632.44	1662.95
632.63	1789.92
632.82	1640.42
633.01	1640.42
633.20	1681.38
633.39	1708.01
633.58	1615.85
633.77	1697.77
633.96	1714.15
634.15	1830.88
634.34	1779.68
634.53	1738.73
634.72	1699.81
634.91	1630.18
635.10	1765.35
635.29	1800.16
635.48	1740.77
635.67	1718.25
635.86	1603.56
636.05	1710.05
636.24	1740.77
636.43	1722.34
636.62	1767.40
636.81	1583.08
637.00	1640.42
637.19	1714.15
637.38	1652.71
637.57	1632.23
637.76	1693.67
637.95	1779.68
638.14	1648.61
638.33	1662.95
638.52	1751.01
638.71	1652.71
638.89	1701.86
639.08	1804.26
639.27	1798.12
639.46	1695.72
639.65	1712.10
639.84	1734.63
640.03	1710.05
640.22	1675.24
640.41	1787.88
640.60	1603.56
640.79	1683.43
640.98	1656.81
641.17	1761.25
641.36	1773.54
641.55	1740.77
641.74	1683.43
641.92	1638.38
642.11	1642.47
642.30	1742.82
642.49	1746.92
642.68	1685.48
642.87	1701.86
643.06	1710.05
643.25	1712.10
643.44	1642.47
643.63	1746.92
643.82	1777.64
644.00	1699.81
644.19	1740.77
644.38	1654.76
644.57	1755.11
644.76	1751.01
644.95	1695.72
645.14	1728.49
645.33	1722.34
645.52	1712.10
645.71	1632.23
645.89	1648.61
646.08	1697.77
646.27	1660.90
646.46	1839.08
646.65	1724.39
646.84	1746.92
647.03	1734.63
647.22	1789.92
647.40	1681.38
647.59	1701.86
647.78	1699.81
647.97	1771.49
648.16	1554.41
648.35	1806.31
648.54	1828.84
648.73	1701.86
648.91	1814.50
649.10	1609.70
649.29	1638.38
649.48	1763.30
649.67	1734.63
649.86	1736.68
650.05	1687.53
650.23	1765.35
650.42	1660.90
650.61	1738.73
650.80	1730.53
650.99	1855.46
651.18	1785.83
651.36	1771.49
651.55	1695.72
651.74	1763.30
651.93	1650.66
652.12	1722.34
652.31	1728.49
652.49	1697.77
652.68	1675.24
652.87	1859.56
653.06	1734.63
653.25	1810.40
653.44	1685.48
653.62	1771.49
653.81	1683.43
654.00	1720.29
654.19	1800.16
654.38	1820.64
654.56	1708.01
654.75	1701.86
654.94	1783.78
655.13	1722.34
655.32	1626.09
655.51	1703.91
655.69	1640.42
655.88	1757.16
656.07	1687.53
656.26	1816.55
656.45	1638.38
656.63	1783.78
656.82	1689.57
657.01	1765.35
657.20	1681.38
657.38	1730.53
657.57	1669.09
657.76	1650.66
657.95	1730.53
658.14	1744.87
658.32	1677.29
658.51	1689.57
658.70	1740.77
658.89	1726.44
659.08	1736.68
659.26	1808.36
659.45	1601.51
659.64	1718.25
659.83	1714.15
660.01	1888.23
660.20	1689.57
660.39	1834.98
660.58	1660.90
660.76	1857.51
660.95	1705.96
661.14	1718.25
661.33	1658.85
661.51	1718.25
661.70	1708.01
661.89	1718.25
662.08	1701.86
662.26	1566.70
662.45	1677.29
662.64	1820.64
662.83	1781.73
663.01	1701.86
663.20	1703.91
663.39	1845.22
663.58	1734.63
663.76	1785.83
663.95	1781.73
664.14	1667.05
664.32	1658.85
664.51	1679.33
664.70	1636.33
664.89	1802.21
665.07	1638.38
665.26	1798.12
665.45	1677.29
665.64	1699.81
665.82	1681.38
666.01	1763.30
666.20	1695.72
666.38	1863.65
666.57	1843.17
666.76	2217.95
666.95	4534.20
667.13	10606.43
667.32	15525.65
667.51	18231.02
667.69	19535.57
667.88	17958.64
668.07	12713.79
668.25	9523.05
668.44	8382.34
668.63	7460.75
668.81	6836.12
669.00	6363.04
669.19	5771.18
669.38	5175.22
669.56	4562.87
669.75	3946.44
669.94	3463.12
670.12	2881.49
670.31	2541.53
670.50	2269.15
670.68	2107.36
670.87	1923.04
671.06	1753.06
671.24	1824.74
671.43	1863.65
671.62	1701.86
671.80	1673.19
671.99	1785.83
672.18	1796.07
672.36	1785.83
672.55	1712.10
672.74	1681.38
672.92	1712.10
673.11	1693.67
673.29	1626.09
673.48	1689.57
673.67	1689.57
673.85	1714.15
674.04	1693.67
674.23	1714.15
674.41	1812.45
674.60	1716.20
674.79	1636.33
674.97	1728.49
675.16	1734.63
675.34	1730.53
675.53	1701.86
675.72	1693.67
675.90	1808.36
676.09	1648.61
676.28	1730.53
676.46	1607.66
676.65	1681.38
676.83	1669.09
677.02	1794.02
677.21	1744.87
677.39	1794.02
677.58	1656.81
677.77	1726.44
677.95	1669.09
678.14	1699.81
678.32	1773.54
678.51	1703.91
678.70	1828.84
678.88	1740.77
679.07	1714.15
679.25	1714.15
679.44	1669.09
679.63	1714.15
679.81	1662.95
680.00	1765.35
680.18	1660.90
680.37	1794.02
680.55	1718.25
680.74	1615.85
680.93	1628.14
681.11	1667.05
681.30	1705.96
681.48	1730.53
681.67	1693.67
681.85	1720.29
682.04	1665.00
682.23	1748.97
682.41	1673.19
682.60	1746.92
682.78	1648.61
682.97	1601.51
683.15	1761.25
683.34	1728.49
683.53	1830.88
683.71	1671.14
683.90	1785.83
684.08	1843.17
684.27	1710.05
684.45	1759.21
684.64	1697.77
684.82	1726.44
685.01	1751.01
685.19	1714.15
685.38	1798.12
685.57	1730.53
685.75	1667.05
685.94	1742.82
686.12	1732.58
686.31	1673.19
686.49	1828.84
686.68	1613.80
686.86	1740.77
687.05	1730.53
687.23	1751.01
687.42	1669.09
687.60	1626.09
687.79	1769.44
687.97	1820.64
688.16	1830.88
688.34	1693.67
688.53	1595.37
688.71	1705.96
688.90	1740.77
689.08	1763.30
689.27	1621.99
689.45	1732.58
689.64	1839.08
689.82	1712.10
690.01	1693.67
690.19	1701.86
690.38	1724.39
690.56	1787.88
690.75	1636.33
690.93	1658.85
691.12	1722.34
691.30	1789.92
691.49	1695.72
691.67	1720.29
691.86	1761.25
692.04	1728.49
692.23	1613.80
692.41	1738.73
692.60	1791.97
692.78	1746.92
692.97	1662.95
693.15	1699.81
693.34	1757.16
693.52	1773.54
693.71	1679.33
693.89	1708.01
694.08	1624.04
694.26	1728.49
694.44	1738.73
694.63	1738.73
694.81	1673.19
695.00	1650.66
695.18	1781.73
695.37	1826.79
695.55	1705.96
695.74	1669.09
695.92	1638.38
696.10	1837.03
696.29	1652.71
696.47	1630.18
696.66	1679.33
696.84	1624.04
697.03	1757.16
697.21	1794.02
697.40	2281.44
697.58	1728.49
697.76	1726.44
697.95	1660.90
698.13	1681.38
698.32	1705.96
698.50	1691.62
698.68	1703.91
698.87	1716.20
699.05	1828.84
699.24	1699.81
699.42	1673.19
699.61	1773.54
699.79	1779.68
699.97	1771.49
700.16	1607.66
700.34	1687.53
700.53	1769.44
700.71	1816.55
700.89	1726.44
701.08	1630.18
701.26	1689.57
701.45	2099.17
701.63	1671.14
701.81	1685.48
702.00	1648.61
702.18	1726.44
702.37	1701.86
702.55	1689.57
702.73	1669.09
702.92	1699.81
703.10	1736.68
703.28	1726.44
703.47	1599.46
703.65	1771.49
703.84	1728.49
704.02	1640.42
704.20	1791.97
704.39	1617.90
704.57	1755.11
704.75	1826.79
704.94	1691.62
705.12	1673.19
705.30	1773.54
705.49	2176.99
705.67	4382.65
705.86	9467.76
706.04	12719.93
706.22	15019.80
706.41	15638.29
706.59	14106.41
706.77	9703.28
706.96	7649.16
707.14	6688.67
707.32	6098.85
707.51	5683.11
707.69	4859.83
707.87	4323.26
708.06	3594.19
708.24	2959.31
708.42	2529.24
708.61	2265.05
708.79	1957.86
708.97	1873.89
709.16	1791.97
709.34	1697.77
709.52	1773.54
709.71	1728.49
709.89	1753.06
710.07	1630.18
710.26	1703.91
710.44	1740.77
710.62	1765.35
710.80	1681.38
710.99	1808.36
711.17	1648.61
711.35	1685.48
711.54	1763.30
711.72	1787.88
711.90	1789.92
712.09	1742.82
712.27	1697.77
712.45	1761.25
712.63	1689.57
712.82	1681.38
713.00	1662.95
713.18	1701.86
713.37	1816.55
713.55	1812.45
713.73	1761.25
713.91	1726.44
714.10	1632.23
714.28	1673.19
714.46	1718.25
714.65	1761.25
714.83	1761.25
715.01	1734.63
715.19	1748.97
715.38	1656.81
715.56	1671.14
715.74	1673.19
715.92	1748.97
716.11	1800.16
716.29	1632.23
716.47	1710.05
716.65	1710.05
716.84	1634.28
717.02	1710.05
717.20	1593.32
717.38	1599.46
717.57	1685.48
717.75	1720.29
717.93	1712.10
718.11	1730.53
718.30	1714.15
718.48	1708.01
718.66	1732.58
718.84	1726.44
719.03	1695.72
719.21	1619.94
719.39	1759.21
719.57	1728.49
719.75	1746.92
719.94	1650.66
720.12	1693.67
720.30	1705.96
720.48	1746.92
720.67	1763.30
720.85	1699.81
721.03	1718.25
721.21	1665.00
721.39	1779.68
721.58	1681.38
721.76	1648.61
721.94	1699.81
722.12	1742.82
722.30	1785.83
722.49	1695.72
722.67	1681.38
722.85	1748.97
723.03	1611.75
723.21	1738.73
723.40	1697.77
723.58	1773.54
723.76	1769.44
723.94	1716.20
724.12	1732.58
724.30	1806.31
724.49	1687.53
724.67	1624.04
724.85	1820.64
725.03	1638.38
725.21	1746.92
725.40	1787.88
725.58	1636.33
725.76	1757.16
725.94	1736.68
726.12	1712.10
726.30	1746.92
726.49	1740.77
726.67	1632.23
726.85	1738.73
727.03	1806.31
727.21	2136.03
727.39	2854.87
727.57	3860.42
727.76	4302.78
727.94	4452.28
728.12	4396.99
728.30	3706.82
728.48	3035.09
728.66	2699.22
728.84	2502.62
729.03	2428.89
729.21	2164.70
729.39	2058.21
729.57	1830.88
729.75	1810.40
729.93	1789.92
730.11	1708.01
730.30	1652.71
730.48	1746.92
730.66	1789.92
730.84	1777.64
731.02	1705.96
731.20	1705.96
731.38	1761.25
731.56	1646.57
731.74	1589.22
731.93	1701.86
732.11	1697.77
732.29	1673.19
732.47	1761.25
732.65	1699.81
732.83	1789.92
733.01	1697.77
733.19	1665.00
733.37	1765.35
733.56	1726.44
733.74	1677.29
733.92	1806.31
734.10	1599.46
734.28	1619.94
734.46	1689.57
734.64	1720.29
734.82	1624.04
735.00	1605.61
735.18	1683.43
735.36	1636.33
735.54	1746.92
735.73	1658.85
735.91	1669.09
736.09	1701.86
736.27	1697.77
736.45	1828.84
736.63	1611.75
736.81	1677.29
736.99	1773.54
737.17	1818.60
737.35	1613.80
737.53	1759.21
737.71	1679.33
737.89	1820.64
738.07	1611.75
738.25	1648.61
738.43	1660.90
738.61	1693.67
738.80	1576.94
738.98	1591.27
739.16	1705.96
739.34	1654.76
739.52	1791.97
739.70	1689.57
739.88	1701.86
740.06	1826.79
740.24	1716.20
740.42	1824.74
740.60	1638.38
740.78	1734.63
740.96	1640.42
741.14	1722.34
741.32	1738.73
741.50	1656.81
741.68	1796.07
741.86	1703.91
742.04	1644.52
742.22	1609.70
742.40	1685.48
742.58	1794.02
742.76	1656.81
742.94	1742.82
743.12	1591.27
743.30	1679.33
743.48	1716.20
743.66	1718.25
743.84	1738.73
744.02	1656.81
744.20	1665.00
744.38	1718.25
744.56	1619.94
744.74	1843.17
744.92	1724.39
745.10	1810.40
745.28	1771.49
745.46	1744.87
745.64	1654.76
745.82	1705.96
746.00	1681.38
746.18	1759.21
746.36	1583.08
746.54	1746.92
746.72	1734.63
746.90	1564.65
747.08	1826.79
747.26	1720.29
747.44	1789.92
747.62	1765.35
747.80	1730.53
747.98	1708.01
748.15	1648.61
748.33	1769.44
748.51	1701.86
748.69	1720.29
748.87	1619.94
749.05	1755.11
749.23	1681.38
749.41	1724.39
749.59	1654.76
749.77	1724.39
749.95	1634.28
750.13	1665.00
750.31	1656.81
750.49	1701.86
750.67	1722.34
750.85	1781.73
751.03	1791.97
751.20	1918.95
751.38	1650.66
751.56	1640.42
751.74	1777.64
751.92	1693.67
752.10	1626.09
752.28	1830.88
752.46	1640.42
752.64	1660.90
752.82	1718.25
753.00	1716.20
753.18	1777.64
753.35	1685.48
753.53	1685.48
753.71	1710.05
753.89	1642.47
754.07	1748.97
754.25	1736.68
754.43	1759.21
754.61	1677.29
754.79	1697.77
754.97	1701.86
755.14	1769.44
755.32	1607.66
755.50	1695.72
755.68	1705.96
755.86	1591.27
756.04	1589.22
756.22	1710.05
756.40	1726.44
756.57	1773.54
756.75	1705.96
756.93	1794.02
757.11	1730.53
757.29	1697.77
757.47	1673.19
757.65	1665.00
757.82	1525.74
758.00	1656.81
758.18	1665.00
758.36	1669.09
758.54	1708.01
758.72	1621.99
758.90	1781.73
759.07	1650.66
759.25	1581.03
759.43	1703.91
759.61	1652.71
759.79	2115.55
759.97	1738.73
760.15	1720.29
760.32	1660.90
760.50	1730.53
760.68	1736.68
760.86	1689.57
761.04	1791.97
761.22	1722.34
761.39	1646.57
761.57	1656.81
761.75	1726.44
761.93	1777.64
762.11	1613.80
762.28	1648.61
762.46	1710.05
762.64	1740.77
762.82	1648.61
763.00	1578.98
763.18	1791.97
763.35	1658.85
763.53	1730.53
763.71	1667.05
763.89	1689.57
764.07	1718.25
764.24	1646.57
764.42	1744.87
764.60	1728.49
764.78	1732.58
764.96	1738.73
765.13	1708.01
765.31	1673.19
765.49	1787.88
765.67	1652.71
765.84	1644.52
766.02	1642.47
766.20	1593.32
766.38	1718.25
766.56	1695.72
766.73	1724.39
766.91	1640.42
767.09	1693.67
767.27	1675.24
767.44	1619.94
767.62	1730.53
767.80	1673.19
767.98	1640.42
768.15	1746.92
768.33	1689.57
768.51	1779.68
768.69	1742.82
768.87	1751.01
769.04	1708.01
769.22	1847.27
769.40	1712.10
769.58	1857.51
769.75	1740.77
769.93	1857.51
770.11	1648.61
770.28	1685.48
770.46	1775.59
770.64	1783.78
770.82	1712.10
770.99	1757.16
771.17	1710.05
771.35	1697.77
771.53	1718.25
771.70	1708.01
771.88	1671.14
772.06	1699.81
772.23	1634.28
772.41	1697.77
772.59	1728.49
772.77	1716.20
772.94	1640.42
773.12	1687.53
773.30	1667.05
773.47	1703.91
773.65	1689.57
773.83	1783.78
774.01	1765.35
774.18	1560.55
774.36	1638.38
774.54	1607.66
774.71	1710.05
774.89	1517.54
775.07	1773.54
775.24	1716.20
775.42	1628.14
775.60	1830.88
775.78	1673.19
775.95	1609.70
776.13	1644.52
776.31	1558.50
776.48	1703.91
776.66	1738.73
776.84	1720.29
777.01	1701.86
777.19	1667.05
777.37	1671.14
777.54	1785.83
777.72	1800.16
777.90	1671.14
778.07	1613.80
778.25	1837.03
778.43	1732.58
778.60	1689.57
778.78	1656.81
778.96	1767.40
779.13	1646.57
779.31	1763.30
779.49	1679.33
779.66	1736.68
779.84	1708.01
780.01	1689.57
780.19	1550.31
780.37	1712.10
780.54	1689.57
780.72	1677.29
780.90	1654.76
781.07	1710.05
781.25	1638.38
781.43	1675.24
781.60	1703.91
781.78	1841.12
781.95	1736.68
782.13	1669.09
782.31	1720.29
782.48	1564.65
782.66	1693.67
782.83	1857.51
783.01	1654.76
783.19	1773.54
783.36	1638.38
783.54	1753.06
783.72	1708.01
783.89	1701.86
784.07	1761.25
784.24	1744.87
784.42	1800.16
784.60	1681.38
784.77	1742.82
784.95	1591.27
785.12	1626.09
785.30	1679.33
785.47	1685.48
785.65	1669.09
785.83	1619.94
786.00	1619.94
786.18	1693.67
786.35	1632.23
786.53	1626.09
786.71	1765.35
786.88	1714.15
787.06	1697.77
787.23	1593.32
787.41	1669.09
787.58	1726.44
787.76	1677.29
787.94	1718.25
788.11	1732.58
788.29	1640.42
788.46	1628.14
788.64	1636.33
788.81	1701.86
788.99	1703.91
789.16	1708.01
789.34	1689.57
789.52	1718.25
789.69	1691.62
789.87	1605.61
790.04	1740.77
790.22	1644.52
790.39	1724.39
790.57	1648.61
790.74	1685.48
790.92	1724.39
791.09	1611.75
791.27	1695.72
791.44	1763.30
791.62	1753.06
791.79	1728.49
791.97	1671.14
792.15	1898.47
792.32	1718.25
792.50	1718.25
792.67	1837.03
792.85	1771.49
793.02	1759.21
793.20	1687.53
793.37	1632.23
793.55	1671.14
793.72	1638.38
793.90	1779.68
794.07	1671.14
794.25	1648.61
794.42	1742.82
794.60	1689.57
794.77	1728.49
794.95	1722.34
795.12	1746.92
795.30	1697.77
795.47	1617.90
795.65	1867.75
795.82	1726.44
796.00	1667.05
796.17	1632.23
796.34	1701.86
796.52	1712.10
796.69	1845.22
796.87	1685.48
797.04	1710.05
797.22	1722.34
797.39	1656.81
797.57	1718.25
797.74	1734.63
797.92	1755.11
798.09	1658.85
798.27	1767.40
798.44	1718.25
798.62	1677.29
798.79	1693.67
798.96	1769.44
799.14	1687.53
799.31	1841.12
799.49	1665.00
799.66	1716.20
799.84	1703.91
800.01	1662.95
800.19	1710.05
800.36	1566.70
800.53	1775.59
800.71	1675.24
800.88	1808.36
801.06	1617.90
801.23	1660.90
801.41	1636.33
801.58	1648.61
801.75	1691.62
801.93	1701.86
802.10	1757.16
802.28	1671.14
802.45	1683.43
802.63	1755.11
802.80	1824.74
802.97	1658.85
803.15	1734.63
803.32	1652.71
803.50	1648.61
803.67	1685.48
803.84	1691.62
804.02	1724.39
804.19	1712.10
804.37	1501.16
804.54	1673.19
804.71	1726.44
804.89	1710.05
805.06	1734.63
805.24	1634.28
805.41	1636.33
805.58	1640.42
805.76	1781.73
805.93	1665.00
806.10	1724.39
806.28	1785.83
806.45	1669.09
806.63	1724.39
806.80	1798.12
806.97	1769.44
807.15	1716.20
807.32	1732.58
807.49	1697.77
807.67	1615.85
807.84	1779.68
808.01	1656.81
808.19	1841.12
808.36	1781.73
808.54	1689.57
808.71	1628.14
808.88	1675.24
809.06	1710.05
809.23	1869.80
809.40	1611.75
809.58	1767.40
809.75	1693.67
809.92	1611.75
810.10	1822.69
810.27	1679.33
810.44	1724.39
810.62	1724.39
810.79	1705.96
810.96	1640.42
811.14	1669.09
811.31	1734.63
811.48	1722.34
811.66	1683.43
811.83	1791.97
812.00	1779.68
812.18	1736.68
812.35	1777.64
812.52	1665.00
812.69	1691.62
812.87	1775.59
813.04	1632.23
813.21	1710.05
813.39	1681.38
813.56	1736.68
813.73	1740.77
813.91	1628.14
814.08	1621.99
814.25	1640.42
814.42	1617.90
814.60	1599.46
814.77	1673.19
814.94	1679.33
815.12	1699.81
815.29	1769.44
815.46	1730.53
815.63	1779.68
815.81	1716.20
815.98	1634.28
816.15	1714.15
816.33	1703.91
816.50	1679.33
816.67	1636.33
816.84	1765.35
817.02	1646.57
817.19	1712.10
817.36	1757.16
817.53	1757.16
817.71	1589.22
817.88	1824.74
818.05	1656.81
818.22	1714.15
818.40	1791.97
818.57	1662.95
818.74	1761.25
818.91	1718.25
819.09	1796.07
819.26	1736.68
819.43	1617.90
819.60	1667.05
819.78	1755.11
819.95	1716.20
820.12	1722.34
820.29	1781.73
820.47	1705.96
820.64	1662.95
820.81	1554.41
820.98	1652.71
821.15	1665.00
821.33	1732.58
821.50	1611.75
821.67	1779.68
821.84	1712.10
822.02	1673.19
822.19	1705.96
822.36	1724.39
822.53	1593.32
822.70	1640.42
822.88	1769.44
823.05	1773.54
823.22	1703.91
823.39	1716.20
823.56	1728.49
823.74	1746.92
823.91	1667.05
824.08	1583.08
824.25	1583.08
824.42	1794.02
824.60	1572.84
824.77	1726.44
824.94	1609.70
825.11	1699.81
825.28	1617.90
825.45	1736.68
825.63	1724.39
825.80	1701.86
825.97	1742.82
826.14	1656.81
826.31	1667.05
826.48	1732.58
826.66	1665.00
826.83	1646.57
827.00	1654.76
827.17	1613.80
827.34	1724.39
827.51	1697.77
827.69	1624.04
827.86	1636.33
828.03	1640.42
828.20	1667.05
828.37	1662.95
828.54	1730.53
828.71	1767.40
828.89	1779.68
829.06	1691.62
829.23	1722.34
829.40	1646.57
829.57	1677.29
829.74	1744.87
829.91	1667.05
830.09	1621.99
830.26	1726.44
830.43	1818.60
830.60	1652.71
830.77	1712.10
830.94	1787.88
831.11	1720.29
831.28	1693.67
831.46	1699.81
831.63	1646.57
831.80	1728.49
831.97	1699.81
832.14	1658.85
832.31	1796.07
832.48	1763.30
832.65	1714.15
832.82	1732.58
832.99	1732.58
833.17	1593.32
833.34	1708.01
833.51	1697.77
833.68	1613.80
833.85	1734.63
834.02	1589.22
834.19	1660.90
834.36	1632.23
834.53	1630.18
834.70	1820.64
834.87	1705.96
835.04	1660.90
835.22	1572.84
835.39	1583.08
835.56	1652.71
835.73	1619.94
835.90	1789.92
836.07	1583.08
836.24	1763.30
836.41	1554.41
836.58	1658.85
836.75	1777.64
836.92	1714.15
837.09	1624.04
837.26	1728.49
837.43	1763.30
837.60	1814.50
837.77	1710.05
837.94	1722.34
838.12	1755.11
838.29	1720.29
838.46	1636.33
838.63	1558.50
838.80	1765.35
838.97	1718.25
839.14	1667.05
839.31	1759.21
839.48	1695.72
839.65	1650.66
839.82	1697.77
839.99	1677.29
840.16	1720.29
840.33	1619.94
840.50	1669.09
840.67	1650.66
840.84	1544.17
841.01	1708.01
841.18	1689.57
841.35	1648.61
841.52	1712.10
841.69	1853.41
841.86	1708.01
842.03	1730.53
842.20	1845.22
842.37	1636.33
842.54	1742.82
842.71	1681.38
842.88	1619.94
843.05	1720.29
843.22	1736.68
843.39	1732.58
843.56	1722.34
843.73	1724.39
843.90	1697.77
844.07	1701.86
844.24	1771.49
844.41	1746.92
844.58	1689.57
844.75	1710.05
844.92	1699.81
845.09	1732.58
845.26	1638.38
845.43	1650.66
845.60	1648.61
845.77	1767.40
845.94	1671.14
846.10	1675.24
846.27	1581.03
846.44	1679.33
846.61	1607.66
846.78	1738.73
846.95	1734.63
847.12	1744.87
847.29	1632.23
847.46	1705.96
847.63	1685.48
847.80	1689.57
847.97	1722.34
848.14	1775.59
848.31	1609.70
848.48	1628.14
848.65	1714.15
848.82	1619.94
848.98	1843.17
849.15	1712.10
849.32	1773.54
849.49	1769.44
849.66	1726.44
849.83	1724.39
850.00	1574.89
850.17	1705.96
850.34	1728.49
850.51	1720.29
850.68	1675.24
850.85	1800.16
851.01	1728.49
851.18	1742.82
851.35	1734.63
851.52	1714.15
851.69	1712.10
851.86	1644.52
852.03	1689.57
852.20	1804.26
852.37	1642.47
852.53	1591.27
852.70	1697.77
852.87	1689.57
853.04	1812.45
853.21	1748.97
853.38	1708.01
853.55	1761.25
853.72	1738.73
853.89	1677.29
854.05	1691.62
854.22	1699.81
854.39	1705.96
854.56	1755.11
854.73	1775.59
854.90	1712.10
855.07	1630.18
855.23	1636.33
855.40	1574.89
855.57	1675.24
855.74	1595.37
855.91	1925.09
856.08	1638.38
856.25	1611.75
856.41	1673.19
856.58	1677.29
856.75	1695.72
856.92	1673.19
857.09	1791.97
857.26	1511.40
857.42	1728.49
857.59	1722.34
857.76	1673.19
857.93	1769.44
858.10	1656.81
858.27	1710.05
858.43	1685.48
858.60	1673.19
858.77	1656.81
858.94	1665.00
859.11	1777.64
859.27	1615.85
859.44	1755.11
859.61	1728.49
859.78	1701.86
859.95	1708.01
860.12	1646.57
860.28	1806.31
860.45	1814.50
860.62	1621.99
860.79	1708.01
860.95	1761.25
861.12	1705.96
861.29	1644.52
861.46	1630.18
861.63	1734.63
861.79	1658.85
861.96	1642.47
862.13	1599.46
862.30	1755.11
862.47	1669.09
862.63	1705.96
862.80	1742.82
862.97	1736.68
863.14	1712.10
863.30	1726.44
863.47	1687.53
863.64	1863.65
863.81	1732.58
863.97	1665.00
864.14	1730.53
864.31	1605.61
864.48	1671.14
864.65	1681.38
864.81	1748.97
864.98	1689.57
865.15	1771.49
865.32	1738.73
865.48	1777.64
865.65	1828.84
865.82	1720.29
865.98	1726.44
866.15	1771.49
866.32	1665.00
866.49	1601.51
866.65	1738.73
866.82	1630.18
866.99	1628.14
867.16	1626.09
867.32	1636.33
867.49	1683.43
867.66	1712.10
867.83	1568.74
867.99	1660.90
868.16	1673.19
868.33	1619.94
868.49	1646.57
868.66	1597.42
868.83	1689.57
868.99	1669.09
869.16	1724.39
869.33	1718.25
869.50	1761.25
869.66	1675.24
869.83	1714.15
870.00	1665.00
870.16	1779.68
870.33	1654.76
870.50	1738.73
870.66	1673.19
870.83	1794.02
871.00	1699.81
871.17	1710.05
871.33	1708.01
871.50	1673.19
871.67	1703.91
871.83	1675.24
872.00	1787.88
872.17	1705.96
872.33	1855.46
872.50	1660.90
872.67	1746.92
872.83	1689.57
873.00	1708.01
873.17	1724.39
873.33	1601.51
873.50	1701.86
873.67	1708.01
873.83	1556.46
874.00	1675.24
874.16	1746.92
874.33	1808.36
874.50	1701.86
874.66	1732.58
874.83	1650.66
875.00	1699.81
875.16	1753.06
875.33	1738.73
875.50	1636.33
875.66	1628.14
875.83	1712.10
875.99	1720.29
876.16	1660.90
876.33	1701.86
876.49	1728.49
876.66	1712.10
876.83	1660.90
876.99	1619.94
877.16	1716.20
877.32	1681.38
877.49	1695.72
877.66	1673.19
877.82	1722.34
877.99	1662.95
878.15	1708.01
878.32	1753.06
878.49	1789.92
878.65	1716.20
878.82	1751.01
878.98	1665.00
879.15	1722.34
879.32	1705.96
879.48	1677.29
879.65	1683.43
879.81	1638.38
879.98	1673.19
880.15	1658.85
880.31	1769.44
880.48	1714.15
880.64	1736.68
880.81	1759.21
880.97	1920.99
881.14	1724.39
881.31	1703.91
881.47	1783.78
881.64	1660.90
881.80	1591.27
881.97	1669.09
882.13	1675.24
882.30	1628.14
882.47	1634.28
882.63	1656.81
882.80	1660.90
882.96	1636.33
883.13	1730.53
883.29	1802.21
883.46	1734.63
883.62	1808.36
883.79	1609.70
883.95	1736.68
884.12	1716.20
884.29	1781.73
884.45	1722.34
884.62	1683.43
884.78	1660.90
884.95	1693.67
885.11	1658.85
885.28	1724.39
885.44	1736.68
885.61	1716.20
885.77	1724.39
885.94	1765.35
886.10	1665.00
886.27	1695.72
886.43	1779.68
886.60	1767.40
886.76	1626.09
886.93	1683.43
887.09	1683.43
887.26	1675.24
887.42	1685.48
887.59	1847.27
887.75	1771.49
887.92	1755.11
888.08	1697.77
888.25	1820.64
888.41	1810.40
888.58	1726.44
888.74	1714.15
888.91	1691.62
>>>>>End Processed Spectral Data<<<<<
