SpectraSuite Data File
++++++++++++++++++++++++++++++++++++
Date: Mon Jun 06 13:14:57 CEST 2016
User: root
Dark Spectrum Present: No
Reference Spectrum Present: No
Number of Sampled Component Spectra: 1
Spectrometers: USB4C02835
Integration Time (usec): 100000 (USB4C02835)
Spectra Averaged: 1 (USB4C02835)
Boxcar Smoothing: 0 (USB4C02835)
Correct for Electrical Dark: No (USB4C02835)
Strobe/Lamp Enabled: No (USB4C02835)
Correct for Detector Non-linearity: No (USB4C02835)
Correct for Stray Light: No (USB4C02835)
Number of Pixels in Processed Spectrum: 3648
>>>>>Begin Processed Spectral Data<<<<<
177.47	1429.48
177.69	1429.48
177.91	1429.48
178.13	1456.11
178.36	1535.98
178.58	1681.38
178.80	1705.96
179.02	1617.90
179.24	1644.52
179.46	1693.67
179.68	1779.68
179.90	1726.44
180.13	1722.34
180.35	1650.66
180.57	1712.10
180.79	1761.25
181.01	1724.39
181.23	1722.34
181.45	1755.11
181.67	1646.57
181.90	1781.73
182.12	1640.42
182.34	1607.66
182.56	1732.58
182.78	1765.35
183.00	1693.67
183.22	1695.72
183.44	1599.46
183.66	1832.93
183.89	1761.25
184.11	1718.25
184.33	1800.16
184.55	1724.39
184.77	1708.01
184.99	1673.19
185.21	1613.80
185.43	1869.80
185.65	1683.43
185.87	1724.39
186.10	1820.64
186.32	1857.51
186.54	1665.00
186.76	1726.44
186.98	1669.09
187.20	1658.85
187.42	1730.53
187.64	1804.26
187.86	1765.35
188.08	1673.19
188.30	1665.00
188.52	1742.82
188.75	1720.29
188.97	1818.60
189.19	1638.38
189.41	1673.19
189.63	1673.19
189.85	1640.42
190.07	1570.79
190.29	1662.95
190.51	1662.95
190.73	1656.81
190.95	1763.30
191.17	1765.35
191.39	1621.99
191.61	1638.38
191.84	1679.33
192.06	1736.68
192.28	1617.90
192.50	1808.36
192.72	1693.67
192.94	1718.25
193.16	1755.11
193.38	1746.92
193.60	1595.37
193.82	1710.05
194.04	1802.21
194.26	1695.72
194.48	1648.61
194.70	1609.70
194.92	1703.91
195.14	1693.67
195.36	1603.56
195.58	1746.92
195.80	1806.31
196.02	1624.04
196.24	1716.20
196.46	1677.29
196.69	1693.67
196.91	1867.75
197.13	1630.18
197.35	1699.81
197.57	1753.06
197.79	1695.72
198.01	1726.44
198.23	1714.15
198.45	1720.29
198.67	1673.19
198.89	1734.63
199.11	1617.90
199.33	1705.96
199.55	1546.22
199.77	1681.38
199.99	1796.07
200.21	1697.77
200.43	1687.53
200.65	1589.22
200.87	1566.70
201.09	1705.96
201.31	1683.43
201.53	1728.49
201.75	1728.49
201.97	1714.15
202.19	1804.26
202.41	1695.72
202.63	1837.03
202.85	1738.73
203.07	1730.53
203.29	1660.90
203.51	1673.19
203.73	1701.86
203.95	1865.70
204.17	1703.91
204.39	1730.53
204.61	1644.52
204.83	1714.15
205.05	1691.62
205.27	1771.49
205.49	1841.12
205.71	1685.48
205.93	1581.03
206.15	1736.68
206.37	1642.47
206.59	1683.43
206.81	1566.70
207.03	1677.29
207.25	1640.42
207.47	1755.11
207.69	1599.46
207.91	1726.44
208.13	1796.07
208.34	1607.66
208.56	1624.04
208.78	1722.34
209.00	1607.66
209.22	1609.70
209.44	1701.86
209.66	1650.66
209.88	1695.72
210.10	1691.62
210.32	1665.00
210.54	1763.30
210.76	1650.66
210.98	1742.82
211.20	1597.42
211.42	1693.67
211.64	1787.88
211.86	1687.53
212.08	1736.68
212.30	1740.77
212.52	1650.66
212.74	1712.10
212.96	1697.77
213.17	1748.97
213.39	1712.10
213.61	1800.16
213.83	1751.01
214.05	1595.37
214.27	1769.44
214.49	1613.80
214.71	1630.18
214.93	1804.26
215.15	1697.77
215.37	1769.44
215.59	1656.81
215.81	1734.63
216.03	1751.01
216.24	1677.29
216.46	1705.96
216.68	1648.61
216.90	1763.30
217.12	1689.57
217.34	1687.53
217.56	1724.39
217.78	1771.49
218.00	1642.47
218.22	1716.20
218.44	1716.20
218.66	1708.01
218.87	1689.57
219.09	1658.85
219.31	1791.97
219.53	1757.16
219.75	1607.66
219.97	1613.80
220.19	1720.29
220.41	1718.25
220.63	1767.40
220.85	1751.01
221.06	1695.72
221.28	1777.64
221.50	1822.69
221.72	1718.25
221.94	1656.81
222.16	1658.85
222.38	1759.21
222.60	1744.87
222.82	1769.44
223.03	1742.82
223.25	1648.61
223.47	1785.83
223.69	1783.78
223.91	1781.73
224.13	1673.19
224.35	1691.62
224.57	1757.16
224.78	1753.06
225.00	1658.85
225.22	1660.90
225.44	1724.39
225.66	1759.21
225.88	1646.57
226.10	1763.30
226.32	1654.76
226.53	1837.03
226.75	1714.15
226.97	1742.82
227.19	1660.90
227.41	1740.77
227.63	1624.04
227.85	1585.13
228.06	1734.63
228.28	1703.91
228.50	1724.39
228.72	1662.95
228.94	1724.39
229.16	1619.94
229.37	1667.05
229.59	1650.66
229.81	1779.68
230.03	1677.29
230.25	1615.85
230.47	1626.09
230.69	1656.81
230.90	1775.59
231.12	1654.76
231.34	1687.53
231.56	1763.30
231.78	1675.24
232.00	1732.58
232.21	1734.63
232.43	1679.33
232.65	1552.36
232.87	1665.00
233.09	1642.47
233.30	1683.43
233.52	1785.83
233.74	1722.34
233.96	1665.00
234.18	1695.72
234.40	1732.58
234.61	1853.41
234.83	1626.09
235.05	1624.04
235.27	1791.97
235.49	1783.78
235.70	1656.81
235.92	1783.78
236.14	1673.19
236.36	1798.12
236.58	1638.38
236.79	1757.16
237.01	1677.29
237.23	1771.49
237.45	1748.97
237.67	1578.98
237.88	1656.81
238.10	1722.34
238.32	1646.57
238.54	1710.05
238.76	1769.44
238.97	1681.38
239.19	1685.48
239.41	1677.29
239.63	1810.40
239.85	1689.57
240.06	1640.42
240.28	1560.55
240.50	1728.49
240.72	1714.15
240.93	1683.43
241.15	1685.48
241.37	1681.38
241.59	1765.35
241.81	1757.16
242.02	1683.43
242.24	1773.54
242.46	1718.25
242.68	1660.90
242.89	1718.25
243.11	1767.40
243.33	1660.90
243.55	1767.40
243.76	1667.05
243.98	1607.66
244.20	1714.15
244.42	1671.14
244.64	1697.77
244.85	1701.86
245.07	1718.25
245.29	1767.40
245.51	1701.86
245.72	1753.06
245.94	1755.11
246.16	1746.92
246.38	1732.58
246.59	1607.66
246.81	1632.23
247.03	1710.05
247.24	1613.80
247.46	1679.33
247.68	1732.58
247.90	1683.43
248.11	1718.25
248.33	1695.72
248.55	1650.66
248.77	1742.82
248.98	1669.09
249.20	1814.50
249.42	1697.77
249.64	1761.25
249.85	1677.29
250.07	1673.19
250.29	1732.58
250.50	1738.73
250.72	1624.04
250.94	1695.72
251.16	1781.73
251.37	1767.40
251.59	1730.53
251.81	1677.29
252.02	1712.10
252.24	1738.73
252.46	1742.82
252.68	1648.61
252.89	1665.00
253.11	1624.04
253.33	1781.73
253.54	1701.86
253.76	1615.85
253.98	1681.38
254.20	1710.05
254.41	1611.75
254.63	1648.61
254.85	1615.85
255.06	1615.85
255.28	1718.25
255.50	1646.57
255.71	1669.09
255.93	1613.80
256.15	1650.66
256.36	1724.39
256.58	1669.09
256.80	1695.72
257.02	1675.24
257.23	1595.37
257.45	1691.62
257.67	1775.59
257.88	1642.47
258.10	1681.38
258.32	1710.05
258.53	1751.01
258.75	1837.03
258.97	1656.81
259.18	1652.71
259.40	1675.24
259.62	1748.97
259.83	1751.01
260.05	1759.21
260.27	1959.91
260.48	1710.05
260.70	1665.00
260.92	1660.90
261.13	1689.57
261.35	1673.19
261.57	1726.44
261.78	1636.33
262.00	1644.52
262.22	1738.73
262.43	1689.57
262.65	1628.14
262.86	1779.68
263.08	1834.98
263.30	1683.43
263.51	1560.55
263.73	1660.90
263.95	1726.44
264.16	1677.29
264.38	1642.47
264.60	1656.81
264.81	1679.33
265.03	1658.85
265.25	1691.62
265.46	1728.49
265.68	1751.01
265.89	1753.06
266.11	1617.90
266.33	1720.29
266.54	1769.44
266.76	1730.53
266.98	1699.81
267.19	1759.21
267.41	1763.30
267.62	1697.77
267.84	1662.95
268.06	1679.33
268.27	1677.29
268.49	1724.39
268.70	1691.62
268.92	1675.24
269.14	1673.19
269.35	1587.18
269.57	1665.00
269.79	1810.40
270.00	1638.38
270.22	1849.32
270.43	1660.90
270.65	1546.22
270.87	1740.77
271.08	1767.40
271.30	1697.77
271.51	1722.34
271.73	1779.68
271.95	1755.11
272.16	1689.57
272.38	1691.62
272.59	1779.68
272.81	1701.86
273.02	1748.97
273.24	1689.57
273.46	1701.86
273.67	1632.23
273.89	1656.81
274.10	1695.72
274.32	1822.69
274.54	1732.58
274.75	1775.59
274.97	1665.00
275.18	1689.57
275.40	1734.63
275.61	1658.85
275.83	1574.89
276.05	1615.85
276.26	1642.47
276.48	1740.77
276.69	1603.56
276.91	1728.49
277.12	1812.45
277.34	1779.68
277.55	1746.92
277.77	1712.10
277.99	1667.05
278.20	1632.23
278.42	1607.66
278.63	1730.53
278.85	1681.38
279.06	1636.33
279.28	1771.49
279.49	1681.38
279.71	1763.30
279.93	1662.95
280.14	1746.92
280.36	1671.14
280.57	1697.77
280.79	1775.59
281.00	1656.81
281.22	1665.00
281.43	1748.97
281.65	1615.85
281.86	1669.09
282.08	1751.01
282.29	1841.12
282.51	1607.66
282.73	1681.38
282.94	1630.18
283.16	1697.77
283.37	1800.16
283.59	1665.00
283.80	1691.62
284.02	1642.47
284.23	1720.29
284.45	1742.82
284.66	1656.81
284.88	1632.23
285.09	1742.82
285.31	1679.33
285.52	1689.57
285.74	1642.47
285.95	1781.73
286.17	1763.30
286.38	1742.82
286.60	1652.71
286.81	1681.38
287.03	1687.53
287.24	1587.18
287.46	1761.25
287.67	1689.57
287.89	1763.30
288.10	1587.18
288.32	1740.77
288.53	1720.29
288.75	1705.96
288.96	1714.15
289.18	1650.66
289.39	1724.39
289.61	1675.24
289.82	1851.36
290.04	1925.09
290.25	1583.08
290.47	1710.05
290.68	1669.09
290.90	1851.36
291.11	1650.66
291.33	1777.64
291.54	1603.56
291.76	1701.86
291.97	1658.85
292.18	1722.34
292.40	1671.14
292.61	1662.95
292.83	1849.32
293.04	1806.31
293.26	1728.49
293.47	1683.43
293.69	1636.33
293.90	1701.86
294.12	1675.24
294.33	1716.20
294.55	1710.05
294.76	1746.92
294.97	1718.25
295.19	1796.07
295.40	1714.15
295.62	1669.09
295.83	1732.58
296.05	1646.57
296.26	1841.12
296.48	1665.00
296.69	1652.71
296.90	1665.00
297.12	1802.21
297.33	1740.77
297.55	1685.48
297.76	1748.97
297.98	1753.06
298.19	1710.05
298.41	1658.85
298.62	1669.09
298.83	1771.49
299.05	1683.43
299.26	1701.86
299.48	1665.00
299.69	1691.62
299.90	1677.29
300.12	1640.42
300.33	1748.97
300.55	1708.01
300.76	1675.24
300.98	1603.56
301.19	1730.53
301.40	1732.58
301.62	1648.61
301.83	1757.16
302.05	1705.96
302.26	1710.05
302.47	1755.11
302.69	1619.94
302.90	1755.11
303.12	1576.94
303.33	1732.58
303.54	1796.07
303.76	1722.34
303.97	1683.43
304.19	1730.53
304.40	1607.66
304.61	1732.58
304.83	1798.12
305.04	1771.49
305.26	1708.01
305.47	1628.14
305.68	1673.19
305.90	1599.46
306.11	1726.44
306.33	1689.57
306.54	1658.85
306.75	1689.57
306.97	1648.61
307.18	1644.52
307.39	1644.52
307.61	1695.72
307.82	1642.47
308.04	1705.96
308.25	1628.14
308.46	1767.40
308.68	1751.01
308.89	1642.47
309.10	1742.82
309.32	1761.25
309.53	1673.19
309.74	1740.77
309.96	1708.01
310.17	1800.16
310.39	1673.19
310.60	1753.06
310.81	1746.92
311.03	1628.14
311.24	1697.77
311.45	1701.86
311.67	1738.73
311.88	1773.54
312.09	1652.71
312.31	1691.62
312.52	1738.73
312.73	1748.97
312.95	1734.63
313.16	1619.94
313.37	1656.81
313.59	1771.49
313.80	1714.15
314.01	1753.06
314.23	1697.77
314.44	1630.18
314.65	1570.79
314.87	1648.61
315.08	1677.29
315.29	1681.38
315.51	1681.38
315.72	1599.46
315.93	1843.17
316.15	1683.43
316.36	1601.51
316.57	1718.25
316.79	1705.96
317.00	1665.00
317.21	1667.05
317.43	1701.86
317.64	1685.48
317.85	1648.61
318.07	1642.47
318.28	1681.38
318.49	1779.68
318.70	1855.46
318.92	1880.04
319.13	1806.31
319.34	1839.08
319.56	1798.12
319.77	1767.40
319.98	1767.40
320.20	1748.97
320.41	1837.03
320.62	1798.12
320.83	1705.96
321.05	1822.69
321.26	1734.63
321.47	1748.97
321.69	1765.35
321.90	1603.56
322.11	1724.39
322.32	1740.77
322.54	1832.93
322.75	1677.29
322.96	1781.73
323.18	1550.31
323.39	1611.75
323.60	1632.23
323.81	1708.01
324.03	1685.48
324.24	1675.24
324.45	1685.48
324.66	1697.77
324.88	1712.10
325.09	1701.86
325.30	1701.86
325.52	1761.25
325.73	1746.92
325.94	1628.14
326.15	1617.90
326.37	1615.85
326.58	1759.21
326.79	1771.49
327.00	1671.14
327.22	1748.97
327.43	1730.53
327.64	1572.84
327.85	1699.81
328.07	1722.34
328.28	1742.82
328.49	1689.57
328.70	1695.72
328.92	1724.39
329.13	1673.19
329.34	1683.43
329.55	1785.83
329.76	1701.86
329.98	1671.14
330.19	1763.30
330.40	1775.59
330.61	1683.43
330.83	1755.11
331.04	1685.48
331.25	1714.15
331.46	1728.49
331.68	1630.18
331.89	1808.36
332.10	1761.25
332.31	1660.90
332.52	1675.24
332.74	1755.11
332.95	1605.61
333.16	1621.99
333.37	1759.21
333.58	1648.61
333.80	1679.33
334.01	1632.23
334.22	1712.10
334.43	1669.09
334.64	1714.15
334.86	1597.42
335.07	1742.82
335.28	1757.16
335.49	1665.00
335.70	1804.26
335.92	1814.50
336.13	1863.65
336.34	1742.82
336.55	1722.34
336.76	1845.22
336.98	1574.89
337.19	1726.44
337.40	1785.83
337.61	1882.08
337.82	1665.00
338.04	1781.73
338.25	1638.38
338.46	1755.11
338.67	1697.77
338.88	1681.38
339.09	1695.72
339.31	1650.66
339.52	1701.86
339.73	1603.56
339.94	1720.29
340.15	1720.29
340.36	1656.81
340.58	1681.38
340.79	1644.52
341.00	1720.29
341.21	1624.04
341.42	1814.50
341.63	1615.85
341.85	1683.43
342.06	1593.32
342.27	1658.85
342.48	1748.97
342.69	1626.09
342.90	1746.92
343.12	1763.30
343.33	1679.33
343.54	1689.57
343.75	1857.51
343.96	1669.09
344.17	1605.61
344.38	1607.66
344.60	1691.62
344.81	1673.19
345.02	1763.30
345.23	1765.35
345.44	1789.92
345.65	1716.20
345.86	1695.72
346.07	1597.42
346.29	1624.04
346.50	1714.15
346.71	1615.85
346.92	1769.44
347.13	1871.84
347.34	1683.43
347.55	1681.38
347.76	1687.53
347.98	1601.51
348.19	1652.71
348.40	1789.92
348.61	1736.68
348.82	1748.97
349.03	1710.05
349.24	1628.14
349.45	1804.26
349.66	1585.13
349.88	1640.42
350.09	1648.61
350.30	1808.36
350.51	1812.45
350.72	1746.92
350.93	1759.21
351.14	1624.04
351.35	1742.82
351.56	1705.96
351.77	1654.76
351.99	1746.92
352.20	1730.53
352.41	1738.73
352.62	1642.47
352.83	1755.11
353.04	1740.77
353.25	1642.47
353.46	1656.81
353.67	1773.54
353.88	1595.37
354.09	1732.58
354.30	1677.29
354.52	1767.40
354.73	1681.38
354.94	1624.04
355.15	1697.77
355.36	1830.88
355.57	1685.48
355.78	1683.43
355.99	1705.96
356.20	1697.77
356.41	1820.64
356.62	1744.87
356.83	1726.44
357.04	1757.16
357.25	1562.60
357.46	1654.76
357.68	1656.81
357.89	1650.66
358.10	1777.64
358.31	1687.53
358.52	1603.56
358.73	1644.52
358.94	1609.70
359.15	1708.01
359.36	1763.30
359.57	1662.95
359.78	1593.32
359.99	1689.57
360.20	1656.81
360.41	1722.34
360.62	1794.02
360.83	1746.92
361.04	1724.39
361.25	1714.15
361.46	1685.48
361.67	1718.25
361.88	1724.39
362.09	1783.78
362.30	1822.69
362.51	1611.75
362.72	1611.75
362.93	1669.09
363.14	1646.57
363.35	1765.35
363.56	1587.18
363.78	1773.54
363.99	1785.83
364.20	1667.05
364.41	1755.11
364.62	1800.16
364.83	1650.66
365.04	1691.62
365.25	1671.14
365.46	1738.73
365.67	1650.66
365.88	1724.39
366.09	1646.57
366.30	1687.53
366.51	1683.43
366.72	1640.42
366.93	1701.86
367.14	1714.15
367.35	1695.72
367.56	1648.61
367.77	1824.74
367.98	1722.34
368.18	1654.76
368.39	1685.48
368.60	1720.29
368.81	1728.49
369.02	1712.10
369.23	1685.48
369.44	1603.56
369.65	1662.95
369.86	1667.05
370.07	1720.29
370.28	1626.09
370.49	1738.73
370.70	1654.76
370.91	1701.86
371.12	1695.72
371.33	1771.49
371.54	1640.42
371.75	1824.74
371.96	1601.51
372.17	1679.33
372.38	1732.58
372.59	1738.73
372.80	1746.92
373.01	1636.33
373.22	1572.84
373.43	1705.96
373.64	1632.23
373.85	1699.81
374.06	1775.59
374.26	1773.54
374.47	1603.56
374.68	1808.36
374.89	1718.25
375.10	1708.01
375.31	1769.44
375.52	1755.11
375.73	1656.81
375.94	1636.33
376.15	1857.51
376.36	1712.10
376.57	1630.18
376.78	1644.52
376.99	1742.82
377.20	1732.58
377.40	1714.15
377.61	1806.31
377.82	1617.90
378.03	1728.49
378.24	1734.63
378.45	1708.01
378.66	1740.77
378.87	1564.65
379.08	1607.66
379.29	1716.20
379.50	1812.45
379.71	1718.25
379.91	1740.77
380.12	1603.56
380.33	1716.20
380.54	1697.77
380.75	1693.67
380.96	1738.73
381.17	1785.83
381.38	1744.87
381.59	1722.34
381.80	1781.73
382.00	1822.69
382.21	1722.34
382.42	1837.03
382.63	1837.03
382.84	1708.01
383.05	1751.01
383.26	1834.98
383.47	1675.24
383.68	1730.53
383.88	1746.92
384.09	1755.11
384.30	1781.73
384.51	1693.67
384.72	1667.05
384.93	1722.34
385.14	1626.09
385.35	1820.64
385.55	1667.05
385.76	1775.59
385.97	1767.40
386.18	1673.19
386.39	1687.53
386.60	1679.33
386.81	1705.96
387.02	1564.65
387.22	1638.38
387.43	1861.60
387.64	1769.44
387.85	1861.60
388.06	2246.62
388.27	4329.41
388.48	6813.59
388.68	8302.47
388.89	9674.60
389.10	9949.03
389.31	8646.52
389.52	7454.61
389.73	6719.39
389.93	6270.88
390.14	5820.33
390.35	5257.14
390.56	4620.22
390.77	3770.31
390.98	2998.23
391.18	2504.67
391.39	2129.89
391.60	1857.51
391.81	1834.98
392.02	1714.15
392.23	1841.12
392.43	1785.83
392.64	1873.89
392.85	1722.34
393.06	1828.84
393.27	1736.68
393.47	1730.53
393.68	1783.78
393.89	1695.72
394.10	1787.88
394.31	1677.29
394.52	1570.79
394.72	1695.72
394.93	1851.36
395.14	1558.50
395.35	1746.92
395.56	1570.79
395.76	1777.64
395.97	1751.01
396.18	1837.03
396.39	1761.25
396.60	2027.49
396.80	1832.93
397.01	1894.37
397.22	1845.22
397.43	1826.79
397.64	1789.92
397.84	1751.01
398.05	1812.45
398.26	1699.81
398.47	1826.79
398.67	1759.21
398.88	1834.98
399.09	1722.34
399.30	1691.62
399.51	1800.16
399.71	1609.70
399.92	1716.20
400.13	1751.01
400.34	1708.01
400.54	1687.53
400.75	1826.79
400.96	1683.43
401.17	1802.21
401.37	1789.92
401.58	1703.91
401.79	1732.58
402.00	1824.74
402.21	2025.44
402.41	1990.63
402.62	2033.63
402.83	2029.54
403.04	1961.95
403.24	2000.87
403.45	1814.50
403.66	1875.94
403.87	1884.13
404.07	1873.89
404.28	1849.32
404.49	1939.43
404.70	1798.12
404.90	1863.65
405.11	1771.49
405.32	1763.30
405.52	1738.73
405.73	1566.70
405.94	1673.19
406.15	1613.80
406.35	1656.81
406.56	1748.97
406.77	1695.72
406.98	1679.33
407.18	1683.43
407.39	1751.01
407.60	1722.34
407.80	1669.09
408.01	1675.24
408.22	1687.53
408.43	1638.38
408.63	1669.09
408.84	1767.40
409.05	1830.88
409.25	1673.19
409.46	1648.61
409.67	1701.86
409.88	1652.71
410.08	1736.68
410.29	1742.82
410.50	1771.49
410.70	1693.67
410.91	1681.38
411.12	1763.30
411.32	1738.73
411.53	1714.15
411.74	1744.87
411.95	1671.14
412.15	1701.86
412.36	1742.82
412.57	1714.15
412.77	1812.45
412.98	1761.25
413.19	1697.77
413.39	1673.19
413.60	1712.10
413.81	1787.88
414.01	1638.38
414.22	1755.11
414.43	1683.43
414.63	1689.57
414.84	1757.16
415.05	1716.20
415.25	1675.24
415.46	1785.83
415.67	1705.96
415.87	1722.34
416.08	1703.91
416.29	1718.25
416.49	1800.16
416.70	1714.15
416.91	1732.58
417.11	1703.91
417.32	1859.56
417.53	1689.57
417.73	1748.97
417.94	1687.53
418.15	1675.24
418.35	1673.19
418.56	1753.06
418.77	1904.61
418.97	1683.43
419.18	1748.97
419.38	1558.50
419.59	1687.53
419.80	1757.16
420.00	1732.58
420.21	1726.44
420.42	1693.67
420.62	1656.81
420.83	1642.47
421.04	1683.43
421.24	1699.81
421.45	1724.39
421.65	1724.39
421.86	1621.99
422.07	1775.59
422.27	1740.77
422.48	1701.86
422.69	1712.10
422.89	1679.33
423.10	1689.57
423.30	1650.66
423.51	1759.21
423.72	1732.58
423.92	1742.82
424.13	1667.05
424.33	1728.49
424.54	1755.11
424.75	1751.01
424.95	1814.50
425.16	1779.68
425.36	1738.73
425.57	1726.44
425.78	1791.97
425.98	1714.15
426.19	1665.00
426.39	1646.57
426.60	1712.10
426.81	1816.55
427.01	1662.95
427.22	1701.86
427.42	1599.46
427.63	1611.75
427.83	1781.73
428.04	1828.84
428.25	1728.49
428.45	1767.40
428.66	1730.53
428.86	1746.92
429.07	1585.13
429.28	1742.82
429.48	1724.39
429.69	1685.48
429.89	1755.11
430.10	1705.96
430.30	1767.40
430.51	1779.68
430.71	1650.66
430.92	1681.38
431.13	1705.96
431.33	1718.25
431.54	1681.38
431.74	1834.98
431.95	1775.59
432.15	1632.23
432.36	1775.59
432.56	1767.40
432.77	1798.12
432.98	1730.53
433.18	1746.92
433.39	1724.39
433.59	1673.19
433.80	1820.64
434.00	1834.98
434.21	1648.61
434.41	1673.19
434.62	1796.07
434.82	1650.66
435.03	1617.90
435.23	1759.21
435.44	1703.91
435.64	1714.15
435.85	1648.61
436.06	1667.05
436.26	1802.21
436.47	1693.67
436.67	1667.05
436.88	1683.43
437.08	1746.92
437.29	1710.05
437.49	1763.30
437.70	1753.06
437.90	1693.67
438.11	1851.36
438.31	1767.40
438.52	1853.41
438.72	1853.41
438.93	1843.17
439.13	1814.50
439.34	1845.22
439.54	1742.82
439.75	1710.05
439.95	1847.27
440.16	1740.77
440.36	1720.29
440.57	1814.50
440.77	1730.53
440.98	1753.06
441.18	1769.44
441.39	1640.42
441.59	1701.86
441.80	1847.27
442.00	1701.86
442.21	1875.94
442.41	1708.01
442.62	1746.92
442.82	1740.77
443.02	1683.43
443.23	1722.34
443.43	1683.43
443.64	1820.64
443.84	1626.09
444.05	1908.71
444.25	1722.34
444.46	1740.77
444.66	1789.92
444.87	1779.68
445.07	1636.33
445.28	1714.15
445.48	1804.26
445.69	1783.78
445.89	1865.70
446.09	1734.63
446.30	1986.53
446.50	2701.27
446.71	3745.73
446.91	4194.24
447.12	4716.47
447.32	4714.42
447.53	4251.58
447.73	3837.89
447.93	3563.47
448.14	3323.85
448.34	3149.78
448.55	2891.73
448.75	2815.96
448.96	2686.94
449.16	2480.09
449.36	2322.40
449.57	2080.74
449.77	1871.84
449.98	1779.68
450.18	1853.41
450.39	1859.56
450.59	1705.96
450.79	1638.38
451.00	1656.81
451.20	1759.21
451.41	1748.97
451.61	1800.16
451.81	1755.11
452.02	1724.39
452.22	1685.48
452.43	1701.86
452.63	1689.57
452.84	1748.97
453.04	1705.96
453.24	1689.57
453.45	1693.67
453.65	1710.05
453.86	1812.45
454.06	1710.05
454.26	1763.30
454.47	1665.00
454.67	1900.52
454.87	1777.64
455.08	1693.67
455.28	1853.41
455.49	1791.97
455.69	1665.00
455.89	1824.74
456.10	1781.73
456.30	1705.96
456.51	1691.62
456.71	1751.01
456.91	1775.59
457.12	1744.87
457.32	1693.67
457.52	1640.42
457.73	1771.49
457.93	1791.97
458.14	1681.38
458.34	1583.08
458.54	1656.81
458.75	1697.77
458.95	1802.21
459.15	1695.72
459.36	1712.10
459.56	1773.54
459.76	1834.98
459.97	1769.44
460.17	1683.43
460.37	1847.27
460.58	1746.92
460.78	1746.92
460.99	1738.73
461.19	1726.44
461.39	1718.25
461.60	1697.77
461.80	1769.44
462.00	1628.14
462.21	1644.52
462.41	1738.73
462.61	1740.77
462.82	1667.05
463.02	1691.62
463.22	1683.43
463.43	1767.40
463.63	1734.63
463.83	1787.88
464.04	1716.20
464.24	1740.77
464.44	1636.33
464.64	1777.64
464.85	1716.20
465.05	1783.78
465.25	1718.25
465.46	1697.77
465.66	1789.92
465.86	1726.44
466.07	1771.49
466.27	1716.20
466.47	1689.57
466.68	1638.38
466.88	1843.17
467.08	1697.77
467.29	1722.34
467.49	1720.29
467.69	1681.38
467.89	1736.68
468.10	1687.53
468.30	1755.11
468.50	1714.15
468.71	1714.15
468.91	1667.05
469.11	1820.64
469.31	1689.57
469.52	1603.56
469.72	1773.54
469.92	1873.89
470.13	1708.01
470.33	1757.16
470.53	1849.32
470.73	2041.82
470.94	2246.62
471.14	2320.35
471.34	2453.47
471.54	2412.51
471.75	2295.77
471.95	2160.61
472.15	2150.37
472.36	2117.60
472.56	2191.33
472.76	2011.11
472.96	1990.63
473.17	1966.05
473.37	1892.32
473.57	1826.79
473.77	1771.49
473.98	1744.87
474.18	1683.43
474.38	1937.38
474.58	1710.05
474.79	1728.49
474.99	1771.49
475.19	1751.01
475.39	1652.71
475.60	1779.68
475.80	1730.53
476.00	1652.71
476.20	1765.35
476.41	1708.01
476.61	1791.97
476.81	1769.44
477.01	1677.29
477.21	1804.26
477.42	1830.88
477.62	1716.20
477.82	1761.25
478.02	1681.38
478.23	1761.25
478.43	1638.38
478.63	1714.15
478.83	1597.42
479.03	1714.15
479.24	1746.92
479.44	1853.41
479.64	1650.66
479.84	1607.66
480.04	1714.15
480.25	1765.35
480.45	1648.61
480.65	1685.48
480.85	1751.01
481.06	1673.19
481.26	1720.29
481.46	1771.49
481.66	1691.62
481.86	1679.33
482.06	1783.78
482.27	1667.05
482.47	1744.87
482.67	1718.25
482.87	1683.43
483.07	1927.14
483.28	1665.00
483.48	1669.09
483.68	1734.63
483.88	1759.21
484.08	1605.61
484.29	1671.14
484.49	1705.96
484.69	1701.86
484.89	1791.97
485.09	1832.93
485.29	1734.63
485.50	1671.14
485.70	1687.53
485.90	1765.35
486.10	1718.25
486.30	1765.35
486.50	1714.15
486.71	1644.52
486.91	1777.64
487.11	1808.36
487.31	1662.95
487.51	1775.59
487.71	1720.29
487.91	1734.63
488.12	1619.94
488.32	1607.66
488.52	1687.53
488.72	1644.52
488.92	1689.57
489.12	1785.83
489.32	1769.44
489.53	1781.73
489.73	1640.42
489.93	1861.60
490.13	1757.16
490.33	1644.52
490.53	1681.38
490.73	1771.49
490.94	1654.76
491.14	1818.60
491.34	1771.49
491.54	2082.78
491.74	2535.39
491.94	2947.03
492.14	3012.56
492.34	3041.23
492.54	2791.38
492.75	2443.23
492.95	2410.46
493.15	2344.92
493.35	2263.01
493.55	2193.37
493.75	2125.79
493.95	2078.69
494.15	2043.87
494.35	1918.95
494.56	1914.85
494.76	1806.31
494.96	1818.60
495.16	1777.64
495.36	1777.64
495.56	1673.19
495.76	1757.16
495.96	1718.25
496.16	1656.81
496.36	1802.21
496.56	1722.34
496.77	1736.68
496.97	1693.67
497.17	1798.12
497.37	1665.00
497.57	1777.64
497.77	1703.91
497.97	1624.04
498.17	1738.73
498.37	1630.18
498.57	1753.06
498.77	1701.86
498.97	1785.83
499.17	1851.36
499.38	1654.76
499.58	1736.68
499.78	1789.92
499.98	1812.45
500.18	1746.92
500.38	1771.49
500.58	1847.27
500.78	2475.99
500.98	4556.73
501.18	5959.59
501.38	6741.91
501.58	7090.07
501.78	6721.43
501.98	5429.17
502.18	4917.17
502.38	4274.11
502.58	4206.53
502.78	3796.93
502.98	3606.47
503.18	3463.12
503.38	3213.26
503.59	2848.72
503.79	2686.94
503.99	2432.99
504.19	2215.90
504.39	2207.71
504.59	2146.27
504.79	2097.12
504.99	2066.40
505.19	1890.28
505.39	1900.52
505.59	1886.18
505.79	1847.27
505.99	1796.07
506.19	1832.93
506.39	1847.27
506.59	1783.78
506.79	1783.78
506.99	1736.68
507.19	1742.82
507.39	1720.29
507.59	1675.24
507.79	1740.77
507.99	1601.51
508.19	1677.29
508.39	1769.44
508.59	1671.14
508.79	1918.95
508.99	1894.37
509.19	1671.14
509.39	1708.01
509.59	1662.95
509.79	1611.75
509.99	1730.53
510.19	1810.40
510.39	1732.58
510.59	1667.05
510.79	1667.05
510.99	1632.23
511.19	1808.36
511.39	1818.60
511.59	1849.32
511.79	1767.40
511.99	1773.54
512.19	1820.64
512.38	1763.30
512.58	1759.21
512.78	1701.86
512.98	1757.16
513.18	1828.84
513.38	1708.01
513.58	1820.64
513.78	1681.38
513.98	1775.59
514.18	1779.68
514.38	1714.15
514.58	1708.01
514.78	1710.05
514.98	1730.53
515.18	1800.16
515.38	1619.94
515.58	1871.84
515.78	1679.33
515.98	1685.48
516.18	1804.26
516.38	1722.34
516.57	1759.21
516.77	1771.49
516.97	1826.79
517.17	1710.05
517.37	1646.57
517.57	1744.87
517.77	1726.44
517.97	1744.87
518.17	1767.40
518.37	1738.73
518.57	1675.24
518.77	1681.38
518.97	1683.43
519.16	1751.01
519.36	1820.64
519.56	1738.73
519.76	1763.30
519.96	1730.53
520.16	1775.59
520.36	1720.29
520.56	1728.49
520.76	1650.66
520.96	1755.11
521.16	1751.01
521.35	1824.74
521.55	1781.73
521.75	1724.39
521.95	1828.84
522.15	1597.42
522.35	1642.47
522.55	1781.73
522.75	1722.34
522.95	1665.00
523.14	1665.00
523.34	1753.06
523.54	1669.09
523.74	1763.30
523.94	1804.26
524.14	1650.66
524.34	1701.86
524.54	1771.49
524.73	1744.87
524.93	1748.97
525.13	1724.39
525.33	1601.51
525.53	1853.41
525.73	1837.03
525.93	1765.35
526.13	1683.43
526.32	1708.01
526.52	1837.03
526.72	1775.59
526.92	1701.86
527.12	1671.14
527.32	1646.57
527.52	1748.97
527.71	1724.39
527.91	1660.90
528.11	1746.92
528.31	1697.77
528.51	1660.90
528.71	1724.39
528.90	1734.63
529.10	1791.97
529.30	1781.73
529.50	1632.23
529.70	1730.53
529.90	1701.86
530.09	1730.53
530.29	1705.96
530.49	1607.66
530.69	1802.21
530.89	1771.49
531.09	1863.65
531.28	1730.53
531.48	1761.25
531.68	1808.36
531.88	1710.05
532.08	1755.11
532.28	1697.77
532.47	1761.25
532.67	1722.34
532.87	1755.11
533.07	1726.44
533.27	1800.16
533.46	1701.86
533.66	1781.73
533.86	1679.33
534.06	1724.39
534.26	1802.21
534.45	1652.71
534.65	1818.60
534.85	1779.68
535.05	1689.57
535.25	1701.86
535.44	1701.86
535.64	1783.78
535.84	1632.23
536.04	1671.14
536.24	1646.57
536.43	1777.64
536.63	1705.96
536.83	1701.86
537.03	1689.57
537.22	1683.43
537.42	1667.05
537.62	1757.16
537.82	1679.33
538.02	1791.97
538.21	1812.45
538.41	1937.38
538.61	1808.36
538.81	1683.43
539.00	1824.74
539.20	1626.09
539.40	1720.29
539.60	1681.38
539.79	1798.12
539.99	1785.83
540.19	1689.57
540.39	1728.49
540.58	1779.68
540.78	1826.79
540.98	1716.20
541.18	1708.01
541.37	1765.35
541.57	1773.54
541.77	1732.58
541.97	1722.34
542.16	1621.99
542.36	1671.14
542.56	1736.68
542.76	1947.62
542.95	1736.68
543.15	1732.58
543.35	1800.16
543.54	1640.42
543.74	1701.86
543.94	1800.16
544.14	1667.05
544.33	1767.40
544.53	1818.60
544.73	1644.52
544.93	1701.86
545.12	1691.62
545.32	1796.07
545.52	1677.29
545.71	1683.43
545.91	1773.54
546.11	1732.58
546.30	1656.81
546.50	1687.53
546.70	1771.49
546.90	1781.73
547.09	1597.42
547.29	1751.01
547.49	1820.64
547.68	1787.88
547.88	1703.91
548.08	1728.49
548.27	2146.27
548.47	1646.57
548.67	1757.16
548.87	1730.53
549.06	1761.25
549.26	1771.49
549.46	1783.78
549.65	1669.09
549.85	1781.73
550.05	1751.01
550.24	1648.61
550.44	1732.58
550.64	1791.97
550.83	1740.77
551.03	1814.50
551.23	1830.88
551.42	1761.25
551.62	1656.81
551.82	1783.78
552.01	1699.81
552.21	1791.97
552.41	1734.63
552.60	1910.75
552.80	1746.92
553.00	1689.57
553.19	1755.11
553.39	1798.12
553.59	1634.28
553.78	1806.31
553.98	1736.68
554.17	1693.67
554.37	1693.67
554.57	1794.02
554.76	1673.19
554.96	1703.91
555.16	1816.55
555.35	1736.68
555.55	1712.10
555.75	1714.15
555.94	1765.35
556.14	1667.05
556.33	1783.78
556.53	1753.06
556.73	1724.39
556.92	1669.09
557.12	1798.12
557.32	1841.12
557.51	1789.92
557.71	1753.06
557.90	1851.36
558.10	1759.21
558.30	1730.53
558.49	1693.67
558.69	1689.57
558.88	1798.12
559.08	1773.54
559.28	1681.38
559.47	1730.53
559.67	1804.26
559.86	1824.74
560.06	1685.48
560.26	1714.15
560.45	1742.82
560.65	1730.53
560.84	1853.41
561.04	1665.00
561.24	1800.16
561.43	1748.97
561.63	1810.40
561.82	1806.31
562.02	1779.68
562.22	1755.11
562.41	1626.09
562.61	1658.85
562.80	1718.25
563.00	1875.94
563.19	1744.87
563.39	1798.12
563.59	1738.73
563.78	1738.73
563.98	1630.18
564.17	1691.62
564.37	1644.52
564.56	1689.57
564.76	1662.95
564.96	1851.36
565.15	1814.50
565.35	1904.61
565.54	1705.96
565.74	1779.68
565.93	1757.16
566.13	1712.10
566.32	1773.54
566.52	1763.30
566.71	1777.64
566.91	1763.30
567.11	1689.57
567.30	1773.54
567.50	1767.40
567.69	1775.59
567.89	1796.07
568.08	1685.48
568.28	1708.01
568.47	1665.00
568.67	1804.26
568.86	1736.68
569.06	1720.29
569.25	1714.15
569.45	1662.95
569.64	1675.24
569.84	1785.83
570.04	1697.77
570.23	1613.80
570.43	1732.58
570.62	1738.73
570.82	1800.16
571.01	1689.57
571.21	1710.05
571.40	1648.61
571.60	1804.26
571.79	1720.29
571.99	1755.11
572.18	1703.91
572.38	1744.87
572.57	1716.20
572.77	1722.34
572.96	1837.03
573.16	1787.88
573.35	1718.25
573.55	1773.54
573.74	1787.88
573.94	1695.72
574.13	1779.68
574.33	1796.07
574.52	1794.02
574.71	1800.16
574.91	1693.67
575.10	1669.09
575.30	1685.48
575.49	1701.86
575.69	1683.43
575.88	1748.97
576.08	1730.53
576.27	1810.40
576.47	1703.91
576.66	1857.51
576.86	1910.75
577.05	1759.21
577.25	1771.49
577.44	1841.12
577.64	1677.29
577.83	1796.07
578.02	1757.16
578.22	1837.03
578.41	1914.85
578.61	1726.44
578.80	1662.95
579.00	1837.03
579.19	1748.97
579.39	1773.54
579.58	1820.64
579.77	1773.54
579.97	1837.03
580.16	1781.73
580.36	1771.49
580.55	1902.56
580.75	1824.74
580.94	1714.15
581.13	1847.27
581.33	1820.64
581.52	1783.78
581.72	1843.17
581.91	1820.64
582.11	1720.29
582.30	1798.12
582.49	1740.77
582.69	1834.98
582.88	1777.64
583.08	1812.45
583.27	1779.68
583.47	1777.64
583.66	1732.58
583.85	1753.06
584.05	1781.73
584.24	1787.88
584.44	1832.93
584.63	1740.77
584.82	1867.75
585.02	1779.68
585.21	1794.02
585.41	1773.54
585.60	1863.65
585.79	1902.56
585.99	1972.19
586.18	1927.14
586.37	2131.94
586.57	3391.44
586.76	9885.55
586.96	24411.79
587.15	34620.91
587.34	40560.02
587.54	42255.74
587.73	36881.87
587.93	26523.24
588.12	21554.87
588.31	18409.19
588.51	16557.83
588.70	15261.46
588.89	14264.10
589.09	12855.10
589.28	11149.14
589.47	9447.28
589.67	8101.76
589.86	6567.84
590.06	5074.87
590.25	3913.67
590.44	3203.02
590.64	2623.45
590.83	2226.14
591.02	2150.37
591.22	1984.48
591.41	1861.60
591.60	1802.21
591.80	1931.23
591.99	1880.04
592.18	1773.54
592.38	1839.08
592.57	1812.45
592.76	1767.40
592.96	1824.74
593.15	1812.45
593.34	1877.99
593.54	1775.59
593.73	1804.26
593.92	1777.64
594.12	1791.97
594.31	1720.29
594.50	1796.07
594.70	1763.30
594.89	1888.23
595.08	1697.77
595.28	1783.78
595.47	1875.94
595.66	1839.08
595.86	1714.15
596.05	1636.33
596.24	1671.14
596.43	1832.93
596.63	1826.79
596.82	1714.15
597.01	1763.30
597.21	1796.07
597.40	1820.64
597.59	1746.92
597.79	1691.62
597.98	1734.63
598.17	1734.63
598.36	1769.44
598.56	1736.68
598.75	1761.25
598.94	1765.35
599.14	1746.92
599.33	1726.44
599.52	1785.83
599.71	1708.01
599.91	1746.92
600.10	1779.68
600.29	1763.30
600.48	1779.68
600.68	1738.73
600.87	1724.39
601.06	1751.01
601.26	1714.15
601.45	1722.34
601.64	1767.40
601.83	1830.88
602.03	1755.11
602.22	1648.61
602.41	1800.16
602.60	1906.66
602.80	1804.26
602.99	1701.86
603.18	1675.24
603.37	1710.05
603.57	1763.30
603.76	1773.54
603.95	1800.16
604.14	1759.21
604.34	1665.00
604.53	1732.58
604.72	1759.21
604.91	1783.78
605.10	1708.01
605.30	1665.00
605.49	1859.56
605.68	1722.34
605.87	1730.53
606.07	1665.00
606.26	1693.67
606.45	1761.25
606.64	1742.82
606.84	1722.34
607.03	1701.86
607.22	1755.11
607.41	1746.92
607.60	1669.09
607.80	1800.16
607.99	1658.85
608.18	1759.21
608.37	1751.01
608.56	1656.81
608.76	1740.77
608.95	1804.26
609.14	1814.50
609.33	1703.91
609.52	1787.88
609.72	1718.25
609.91	1834.98
610.10	1720.29
610.29	1800.16
610.48	1746.92
610.68	1728.49
610.87	1775.59
611.06	1798.12
611.25	1705.96
611.44	1794.02
611.63	1677.29
611.83	1757.16
612.02	1683.43
612.21	1798.12
612.40	1703.91
612.59	1640.42
612.79	1701.86
612.98	1746.92
613.17	1779.68
613.36	1677.29
613.55	1853.41
613.74	1624.04
613.93	1753.06
614.13	1791.97
614.32	1744.87
614.51	1742.82
614.70	1648.61
614.89	1636.33
615.08	1722.34
615.28	2033.63
615.47	1626.09
615.66	1646.57
615.85	1724.39
616.04	1828.84
616.23	1673.19
616.42	1720.29
616.62	1736.68
616.81	1744.87
617.00	1667.05
617.19	1779.68
617.38	1683.43
617.57	1759.21
617.76	1802.21
617.95	1789.92
618.15	1751.01
618.34	1796.07
618.53	1652.71
618.72	1720.29
618.91	1841.12
619.10	1822.69
619.29	1714.15
619.48	1781.73
619.68	1671.14
619.87	1732.58
620.06	1605.61
620.25	1748.97
620.44	1667.05
620.63	1722.34
620.82	1662.95
621.01	1753.06
621.20	1681.38
621.39	1779.68
621.59	1765.35
621.78	1685.48
621.97	1718.25
622.16	1744.87
622.35	1746.92
622.54	1787.88
622.73	1746.92
622.92	1736.68
623.11	1767.40
623.30	1675.24
623.49	1808.36
623.68	1763.30
623.88	1759.21
624.07	1642.47
624.26	1751.01
624.45	1703.91
624.64	1744.87
624.83	1783.78
625.02	1673.19
625.21	1648.61
625.40	1671.14
625.59	1740.77
625.78	1708.01
625.97	1781.73
626.16	1777.64
626.35	1751.01
626.54	1726.44
626.74	1771.49
626.93	1665.00
627.12	1722.34
627.31	1783.78
627.50	1748.97
627.69	1765.35
627.88	1671.14
628.07	1675.24
628.26	1644.52
628.45	1615.85
628.64	1673.19
628.83	1710.05
629.02	1705.96
629.21	1763.30
629.40	1718.25
629.59	1708.01
629.78	1716.20
629.97	1656.81
630.16	1722.34
630.35	1728.49
630.54	1734.63
630.73	1677.29
630.92	1757.16
631.11	1761.25
631.30	1734.63
631.49	1751.01
631.68	1681.38
631.87	1781.73
632.06	1621.99
632.25	1824.74
632.44	1783.78
632.63	1665.00
632.82	1658.85
633.01	1720.29
633.20	1632.23
633.39	1617.90
633.58	1630.18
633.77	1757.16
633.96	1765.35
634.15	1746.92
634.34	1732.58
634.53	1718.25
634.72	1638.38
634.91	1599.46
635.10	1728.49
635.29	1783.78
635.48	1705.96
635.67	1691.62
635.86	1654.76
636.05	1771.49
636.24	1677.29
636.43	1753.06
636.62	1730.53
636.81	1603.56
637.00	1660.90
637.19	1783.78
637.38	1720.29
637.57	1632.23
637.76	1648.61
637.95	1699.81
638.14	1685.48
638.33	1716.20
638.52	1705.96
638.71	1662.95
638.89	1642.47
639.08	1837.03
639.27	1703.91
639.46	1716.20
639.65	1832.93
639.84	1812.45
640.03	1767.40
640.22	1693.67
640.41	1841.12
640.60	1662.95
640.79	1789.92
640.98	1699.81
641.17	1724.39
641.36	1763.30
641.55	1767.40
641.74	1658.85
641.92	1689.57
642.11	1691.62
642.30	1708.01
642.49	1644.52
642.68	1757.16
642.87	1746.92
643.06	1779.68
643.25	1746.92
643.44	1636.33
643.63	1746.92
643.82	1785.83
644.00	1628.14
644.19	1642.47
644.38	1679.33
644.57	1806.31
644.76	1728.49
644.95	1697.77
645.14	1724.39
645.33	1761.25
645.52	1693.67
645.71	1691.62
645.89	1671.14
646.08	1701.86
646.27	1660.90
646.46	1751.01
646.65	1693.67
646.84	1689.57
647.03	1607.66
647.22	1769.44
647.40	1673.19
647.59	1714.15
647.78	1632.23
647.97	1681.38
648.16	1695.72
648.35	1740.77
648.54	1779.68
648.73	1703.91
648.91	1787.88
649.10	1658.85
649.29	1671.14
649.48	1767.40
649.67	1740.77
649.86	1738.73
650.05	1695.72
650.23	1798.12
650.42	1673.19
650.61	1757.16
650.80	1701.86
650.99	1855.46
651.18	1730.53
651.36	1789.92
651.55	1708.01
651.74	1765.35
651.93	1665.00
652.12	1730.53
652.31	1736.68
652.49	1751.01
652.68	1740.77
652.87	1718.25
653.06	1703.91
653.25	1816.55
653.44	1720.29
653.62	1787.88
653.81	1697.77
654.00	1771.49
654.19	1734.63
654.38	1865.70
654.56	1697.77
654.75	1640.42
654.94	1796.07
655.13	1740.77
655.32	1683.43
655.51	1820.64
655.69	1716.20
655.88	1775.59
656.07	1665.00
656.26	1710.05
656.45	1634.28
656.63	1708.01
656.82	1861.60
657.01	1712.10
657.20	1630.18
657.38	1757.16
657.57	1693.67
657.76	1640.42
657.95	1767.40
658.14	1701.86
658.32	1708.01
658.51	1634.28
658.70	1738.73
658.89	1662.95
659.08	1732.58
659.26	1916.90
659.45	1695.72
659.64	1746.92
659.83	1648.61
660.01	1867.75
660.20	1697.77
660.39	1722.34
660.58	1615.85
660.76	1746.92
660.95	1703.91
661.14	1751.01
661.33	1671.14
661.51	1621.99
661.70	1699.81
661.89	1722.34
662.08	1753.06
662.26	1624.04
662.45	1640.42
662.64	1802.21
662.83	1816.55
663.01	1646.57
663.20	1765.35
663.39	1787.88
663.58	1677.29
663.76	1695.72
663.95	1748.97
664.14	1624.04
664.32	1773.54
664.51	1669.09
664.70	1626.09
664.89	1757.16
665.07	1718.25
665.26	1826.79
665.45	1669.09
665.64	1736.68
665.82	1705.96
666.01	1697.77
666.20	1687.53
666.38	1789.92
666.57	1865.70
666.76	2103.26
666.95	4519.87
667.13	10286.95
667.32	15202.07
667.51	18011.89
667.69	19306.20
667.88	17848.05
668.07	12277.57
668.25	9856.87
668.44	8187.78
668.63	7495.57
668.81	6875.03
669.00	6287.26
669.19	5748.65
669.38	5078.96
669.56	4700.09
669.75	3940.29
669.94	3495.88
670.12	2936.79
670.31	2584.54
670.50	2228.19
670.68	2019.30
670.87	1898.47
671.06	1869.80
671.24	1802.21
671.43	1841.12
671.62	1716.20
671.80	1736.68
671.99	1738.73
672.18	1722.34
672.36	1763.30
672.55	1669.09
672.74	1740.77
672.92	1699.81
673.11	1708.01
673.29	1617.90
673.48	1746.92
673.67	1722.34
673.85	1828.84
674.04	1726.44
674.23	1724.39
674.41	1796.07
674.60	1634.28
674.79	1621.99
674.97	1710.05
675.16	1791.97
675.34	1761.25
675.53	1654.76
675.72	1732.58
675.90	1718.25
676.09	1740.77
676.28	1677.29
676.46	1644.52
676.65	1730.53
676.83	1621.99
677.02	1685.48
677.21	1730.53
677.39	1728.49
677.58	1697.77
677.77	1654.76
677.95	1687.53
678.14	1662.95
678.32	1671.14
678.51	1632.23
678.70	1804.26
678.88	1689.57
679.07	1738.73
679.25	1660.90
679.44	1685.48
679.63	1679.33
679.81	1738.73
680.00	1783.78
680.18	1775.59
680.37	1785.83
680.55	1794.02
680.74	1611.75
680.93	1578.98
681.11	1740.77
681.30	1716.20
681.48	1687.53
681.67	1687.53
681.85	1748.97
682.04	1650.66
682.23	1816.55
682.41	1662.95
682.60	1683.43
682.78	1726.44
682.97	1646.57
683.15	1777.64
683.34	1665.00
683.53	1710.05
683.71	1650.66
683.90	1726.44
684.08	1718.25
684.27	1654.76
684.45	1748.97
684.64	1808.36
684.82	1755.11
685.01	1738.73
685.19	1671.14
685.38	1802.21
685.57	1771.49
685.75	1675.24
685.94	1644.52
686.12	1673.19
686.31	1687.53
686.49	1804.26
686.68	1613.80
686.86	1742.82
687.05	1675.24
687.23	1783.78
687.42	1677.29
687.60	1597.42
687.79	1759.21
687.97	1755.11
688.16	1757.16
688.34	1814.50
688.53	1619.94
688.71	1761.25
688.90	1755.11
689.08	1644.52
689.27	1583.08
689.45	1765.35
689.64	1685.48
689.82	1695.72
690.01	1736.68
690.19	1775.59
690.38	1689.57
690.56	1791.97
690.75	1677.29
690.93	1746.92
691.12	1691.62
691.30	1755.11
691.49	1671.14
691.67	1648.61
691.86	1775.59
692.04	1667.05
692.23	1701.86
692.41	1621.99
692.60	1853.41
692.78	1826.79
692.97	1587.18
693.15	1687.53
693.34	1873.89
693.52	1738.73
693.71	1662.95
693.89	1742.82
694.08	1642.47
694.26	1738.73
694.44	1771.49
694.63	1775.59
694.81	1621.99
695.00	1658.85
695.18	1761.25
695.37	1861.60
695.55	1695.72
695.74	1708.01
695.92	1630.18
696.10	1681.38
696.29	1572.84
696.47	1708.01
696.66	1642.47
696.84	1705.96
697.03	1703.91
697.21	1873.89
697.40	2240.48
697.58	1802.21
697.76	1726.44
697.95	1673.19
698.13	1658.85
698.32	1679.33
698.50	1695.72
698.68	1771.49
698.87	1748.97
699.05	1773.54
699.24	1722.34
699.42	1687.53
699.61	1710.05
699.79	1681.38
699.97	1726.44
700.16	1587.18
700.34	1650.66
700.53	1656.81
700.71	1822.69
700.89	1738.73
701.08	1701.86
701.26	1742.82
701.45	2066.40
701.63	1615.85
701.81	1687.53
702.00	1687.53
702.18	1665.00
702.37	1701.86
702.55	1689.57
702.73	1689.57
702.92	1714.15
703.10	1714.15
703.28	1753.06
703.47	1652.71
703.65	1744.87
703.84	1802.21
704.02	1730.53
704.20	1841.12
704.39	1636.33
704.57	1671.14
704.75	1775.59
704.94	1841.12
705.12	1716.20
705.30	1746.92
705.49	2238.43
705.67	4372.41
705.86	9330.55
706.04	12646.21
706.22	14827.29
706.41	15486.74
706.59	14036.78
706.77	9727.85
706.96	7479.18
707.14	6604.70
707.32	5898.15
707.51	5709.74
707.69	4997.04
707.87	4321.21
708.06	3581.90
708.24	3014.61
708.42	2492.38
708.61	2256.86
708.79	1943.52
708.97	1847.27
709.16	1755.11
709.34	1798.12
709.52	1685.48
709.71	1755.11
709.89	1757.16
710.07	1619.94
710.26	1687.53
710.44	1767.40
710.62	1763.30
710.80	1738.73
710.99	1703.91
711.17	1724.39
711.35	1689.57
711.54	1697.77
711.72	1781.73
711.90	1697.77
712.09	1703.91
712.27	1695.72
712.45	1675.24
712.63	1621.99
712.82	1767.40
713.00	1710.05
713.18	1751.01
713.37	1771.49
713.55	1789.92
713.73	1665.00
713.91	1710.05
714.10	1656.81
714.28	1697.77
714.46	1705.96
714.65	1701.86
714.83	1736.68
715.01	1632.23
715.19	1619.94
715.38	1675.24
715.56	1701.86
715.74	1685.48
715.92	1691.62
716.11	1824.74
716.29	1683.43
716.47	1701.86
716.65	1695.72
716.84	1689.57
717.02	1722.34
717.20	1662.95
717.38	1685.48
717.57	1751.01
717.75	1714.15
717.93	1626.09
718.11	1732.58
718.30	1609.70
718.48	1667.05
718.66	1783.78
718.84	1853.41
719.03	1708.01
719.21	1632.23
719.39	1804.26
719.57	1710.05
719.75	1757.16
719.94	1689.57
720.12	1685.48
720.30	1814.50
720.48	1759.21
720.67	1697.77
720.85	1605.61
721.03	1730.53
721.21	1697.77
721.39	1734.63
721.58	1734.63
721.76	1689.57
721.94	1722.34
722.12	1769.44
722.30	1804.26
722.49	1730.53
722.67	1697.77
722.85	1697.77
723.03	1716.20
723.21	1652.71
723.40	1695.72
723.58	1751.01
723.76	1718.25
723.94	1775.59
724.12	1773.54
724.30	1710.05
724.49	1705.96
724.67	1619.94
724.85	1769.44
725.03	1570.79
725.21	1767.40
725.40	1820.64
725.58	1648.61
725.76	1765.35
725.94	1736.68
726.12	1660.90
726.30	1753.06
726.49	1716.20
726.67	1644.52
726.85	1722.34
727.03	1824.74
727.21	2093.02
727.39	2932.69
727.57	3649.48
727.76	4155.33
727.94	4415.42
728.12	4417.47
728.30	3768.26
728.48	2920.40
728.66	2717.65
728.84	2596.82
729.03	2338.78
729.21	2152.42
729.39	1980.39
729.57	1834.98
729.75	1851.36
729.93	1830.88
730.11	1669.09
730.30	1683.43
730.48	1642.47
730.66	1746.92
730.84	1837.03
731.02	1718.25
731.20	1742.82
731.38	1787.88
731.56	1632.23
731.74	1665.00
731.93	1656.81
732.11	1658.85
732.29	1681.38
732.47	1705.96
732.65	1781.73
732.83	1771.49
733.01	1779.68
733.19	1607.66
733.37	1691.62
733.56	1714.15
733.74	1695.72
733.92	1767.40
734.10	1697.77
734.28	1675.24
734.46	1621.99
734.64	1726.44
734.82	1656.81
735.00	1710.05
735.18	1656.81
735.36	1685.48
735.54	1607.66
735.73	1654.76
735.91	1738.73
736.09	1714.15
736.27	1675.24
736.45	1652.71
736.63	1607.66
736.81	1748.97
736.99	1744.87
737.17	1847.27
737.35	1673.19
737.53	1726.44
737.71	1656.81
737.89	1742.82
738.07	1648.61
738.25	1740.77
738.43	1675.24
738.61	1654.76
738.80	1603.56
738.98	1626.09
739.16	1667.05
739.34	1689.57
739.52	1757.16
739.70	1617.90
739.88	1677.29
740.06	1812.45
740.24	1605.61
740.42	1814.50
740.60	1681.38
740.78	1578.98
740.96	1617.90
741.14	1583.08
741.32	1740.77
741.50	1570.79
741.68	1845.22
741.86	1816.55
742.04	1699.81
742.22	1689.57
742.40	1705.96
742.58	1740.77
742.76	1650.66
742.94	1720.29
743.12	1595.37
743.30	1714.15
743.48	1763.30
743.66	1724.39
743.84	1751.01
744.02	1669.09
744.20	1640.42
744.38	1646.57
744.56	1619.94
744.74	1837.03
744.92	1689.57
745.10	1781.73
745.28	1667.05
745.46	1775.59
745.64	1730.53
745.82	1787.88
746.00	1634.28
746.18	1779.68
746.36	1689.57
746.54	1802.21
746.72	1691.62
746.90	1617.90
747.08	1773.54
747.26	1665.00
747.44	1734.63
747.62	1767.40
747.80	1658.85
747.98	1744.87
748.15	1648.61
748.33	1832.93
748.51	1787.88
748.69	1732.58
748.87	1642.47
749.05	1722.34
749.23	1746.92
749.41	1744.87
749.59	1689.57
749.77	1804.26
749.95	1658.85
750.13	1687.53
750.31	1681.38
750.49	1677.29
750.67	1708.01
750.85	1789.92
751.03	1669.09
751.20	1843.17
751.38	1675.24
751.56	1724.39
751.74	1667.05
751.92	1658.85
752.10	1613.80
752.28	1757.16
752.46	1673.19
752.64	1638.38
752.82	1683.43
753.00	1722.34
753.18	1701.86
753.35	1699.81
753.53	1697.77
753.71	1642.47
753.89	1728.49
754.07	1673.19
754.25	1708.01
754.43	1728.49
754.61	1632.23
754.79	1697.77
754.97	1640.42
755.14	1730.53
755.32	1578.98
755.50	1683.43
755.68	1759.21
755.86	1656.81
756.04	1708.01
756.22	1632.23
756.40	1751.01
756.57	1851.36
756.75	1642.47
756.93	1798.12
757.11	1722.34
757.29	1681.38
757.47	1642.47
757.65	1558.50
757.82	1544.17
758.00	1675.24
758.18	1697.77
758.36	1652.71
758.54	1695.72
758.72	1669.09
758.90	1738.73
759.07	1714.15
759.25	1705.96
759.43	1724.39
759.61	1658.85
759.79	2154.46
759.97	1757.16
760.15	1624.04
760.32	1697.77
760.50	1624.04
760.68	1828.84
760.86	1687.53
761.04	1722.34
761.22	1677.29
761.39	1669.09
761.57	1691.62
761.75	1699.81
761.93	1687.53
762.11	1652.71
762.28	1726.44
762.46	1650.66
762.64	1757.16
762.82	1640.42
763.00	1640.42
763.18	1695.72
763.35	1689.57
763.53	1722.34
763.71	1689.57
763.89	1667.05
764.07	1708.01
764.24	1662.95
764.42	1665.00
764.60	1712.10
764.78	1683.43
764.96	1722.34
765.13	1720.29
765.31	1759.21
765.49	1765.35
765.67	1660.90
765.84	1609.70
766.02	1607.66
766.20	1654.76
766.38	1665.00
766.56	1785.83
766.73	1738.73
766.91	1726.44
767.09	1609.70
767.27	1708.01
767.44	1640.42
767.62	1699.81
767.80	1759.21
767.98	1681.38
768.15	1716.20
768.33	1689.57
768.51	1730.53
768.69	1644.52
768.87	1744.87
769.04	1689.57
769.22	1857.51
769.40	1816.55
769.58	1853.41
769.75	1689.57
769.93	1724.39
770.11	1673.19
770.28	1628.14
770.46	1701.86
770.64	1595.37
770.82	1671.14
770.99	1624.04
771.17	1742.82
771.35	1665.00
771.53	1675.24
771.70	1681.38
771.88	1742.82
772.06	1746.92
772.23	1658.85
772.41	1693.67
772.59	1681.38
772.77	1634.28
772.94	1695.72
773.12	1740.77
773.30	1656.81
773.47	1734.63
773.65	1665.00
773.83	1841.12
774.01	1640.42
774.18	1654.76
774.36	1619.94
774.54	1607.66
774.71	1765.35
774.89	1656.81
775.07	1677.29
775.24	1740.77
775.42	1632.23
775.60	1769.44
775.78	1658.85
775.95	1568.74
776.13	1587.18
776.31	1597.42
776.48	1634.28
776.66	1824.74
776.84	1693.67
777.01	1634.28
777.19	1632.23
777.37	1658.85
777.54	1691.62
777.72	1847.27
777.90	1753.06
778.07	1662.95
778.25	1853.41
778.43	1724.39
778.60	1677.29
778.78	1773.54
778.96	1802.21
779.13	1642.47
779.31	1703.91
779.49	1658.85
779.66	1615.85
779.84	1662.95
780.01	1775.59
780.19	1601.51
780.37	1724.39
780.54	1677.29
780.72	1671.14
780.90	1652.71
781.07	1671.14
781.25	1669.09
781.43	1751.01
781.60	1673.19
781.78	1802.21
781.95	1697.77
782.13	1636.33
782.31	1677.29
782.48	1615.85
782.66	1759.21
782.83	1757.16
783.01	1660.90
783.19	1820.64
783.36	1673.19
783.54	1628.14
783.72	1740.77
783.89	1681.38
784.07	1675.24
784.24	1695.72
784.42	1890.28
784.60	1656.81
784.77	1759.21
784.95	1589.22
785.12	1638.38
785.30	1673.19
785.47	1601.51
785.65	1609.70
785.83	1695.72
786.00	1669.09
786.18	1697.77
786.35	1648.61
786.53	1628.14
786.71	1716.20
786.88	1734.63
787.06	1765.35
787.23	1722.34
787.41	1665.00
787.58	1701.86
787.76	1681.38
787.94	1736.68
788.11	1718.25
788.29	1665.00
788.46	1642.47
788.64	1574.89
788.81	1665.00
788.99	1665.00
789.16	1677.29
789.34	1714.15
789.52	1634.28
789.69	1746.92
789.87	1691.62
790.04	1708.01
790.22	1665.00
790.39	1732.58
790.57	1636.33
790.74	1632.23
790.92	1767.40
791.09	1697.77
791.27	1687.53
791.44	1732.58
791.62	1667.05
791.79	1802.21
791.97	1701.86
792.15	1857.51
792.32	1773.54
792.50	1757.16
792.67	1767.40
792.85	1716.20
793.02	1742.82
793.20	1677.29
793.37	1583.08
793.55	1751.01
793.72	1605.61
793.90	1687.53
794.07	1660.90
794.25	1599.46
794.42	1703.91
794.60	1675.24
794.77	1646.57
794.95	1710.05
795.12	1767.40
795.30	1701.86
795.47	1589.22
795.65	1851.36
795.82	1619.94
796.00	1570.79
796.17	1701.86
796.34	1646.57
796.52	1736.68
796.69	1767.40
796.87	1687.53
797.04	1695.72
797.22	1732.58
797.39	1742.82
797.57	1732.58
797.74	1632.23
797.92	1705.96
798.09	1656.81
798.27	1744.87
798.44	1771.49
798.62	1675.24
798.79	1710.05
798.96	1691.62
799.14	1687.53
799.31	1851.36
799.49	1773.54
799.66	1716.20
799.84	1724.39
800.01	1654.76
800.19	1722.34
800.36	1593.32
800.53	1646.57
800.71	1720.29
800.88	1826.79
801.06	1738.73
801.23	1703.91
801.41	1738.73
801.58	1665.00
801.75	1568.74
801.93	1697.77
802.10	1712.10
802.28	1648.61
802.45	1681.38
802.63	1720.29
802.80	1773.54
802.97	1673.19
803.15	1705.96
803.32	1605.61
803.50	1617.90
803.67	1646.57
803.84	1642.47
804.02	1669.09
804.19	1662.95
804.37	1535.98
804.54	1665.00
804.71	1708.01
804.89	1755.11
805.06	1568.74
805.24	1675.24
805.41	1662.95
805.58	1562.60
805.76	1877.99
805.93	1695.72
806.10	1808.36
806.28	1746.92
806.45	1671.14
806.63	1718.25
806.80	1722.34
806.97	1720.29
807.15	1673.19
807.32	1652.71
807.49	1695.72
807.67	1679.33
807.84	1689.57
808.01	1558.50
808.19	1785.83
808.36	1810.40
808.54	1578.98
808.71	1710.05
808.88	1695.72
809.06	1783.78
809.23	1738.73
809.40	1574.89
809.58	1824.74
809.75	1708.01
809.92	1656.81
810.10	1906.66
810.27	1697.77
810.44	1712.10
810.62	1748.97
810.79	1740.77
810.96	1617.90
811.14	1718.25
811.31	1812.45
811.48	1720.29
811.66	1720.29
811.83	1777.64
812.00	1746.92
812.18	1716.20
812.35	1800.16
812.52	1710.05
812.69	1615.85
812.87	1650.66
813.04	1601.51
813.21	1716.20
813.39	1644.52
813.56	1642.47
813.73	1822.69
813.91	1595.37
814.08	1812.45
814.25	1705.96
814.42	1550.31
814.60	1693.67
814.77	1783.78
814.94	1665.00
815.12	1738.73
815.29	1785.83
815.46	1730.53
815.63	1691.62
815.81	1724.39
815.98	1640.42
816.15	1730.53
816.33	1748.97
816.50	1683.43
816.67	1728.49
816.84	1753.06
817.02	1628.14
817.19	1734.63
817.36	1785.83
817.53	1722.34
817.71	1535.98
817.88	1746.92
818.05	1662.95
818.22	1621.99
818.40	1791.97
818.57	1677.29
818.74	1718.25
818.91	1730.53
819.09	1773.54
819.26	1734.63
819.43	1691.62
819.60	1650.66
819.78	1714.15
819.95	1742.82
820.12	1679.33
820.29	1794.02
820.47	1724.39
820.64	1734.63
820.81	1671.14
820.98	1662.95
821.15	1736.68
821.33	1714.15
821.50	1619.94
821.67	1724.39
821.84	1562.60
822.02	1785.83
822.19	1832.93
822.36	1708.01
822.53	1703.91
822.70	1648.61
822.88	1755.11
823.05	1804.26
823.22	1636.33
823.39	1755.11
823.56	1624.04
823.74	1796.07
823.91	1705.96
824.08	1705.96
824.25	1624.04
824.42	1724.39
824.60	1634.28
824.77	1687.53
824.94	1601.51
825.11	1740.77
825.28	1644.52
825.45	1755.11
825.63	1734.63
825.80	1636.33
825.97	1742.82
826.14	1734.63
826.31	1587.18
826.48	1683.43
826.66	1650.66
826.83	1679.33
827.00	1665.00
827.17	1695.72
827.34	1642.47
827.51	1679.33
827.69	1628.14
827.86	1581.03
828.03	1722.34
828.20	1703.91
828.37	1671.14
828.54	1685.48
828.71	1626.09
828.89	1812.45
829.06	1691.62
829.23	1804.26
829.40	1671.14
829.57	1703.91
829.74	1718.25
829.91	1642.47
830.09	1640.42
830.26	1697.77
830.43	1810.40
830.60	1673.19
830.77	1767.40
830.94	1648.61
831.11	1755.11
831.28	1722.34
831.46	1714.15
831.63	1685.48
831.80	1748.97
831.97	1640.42
832.14	1705.96
832.31	1841.12
832.48	1675.24
832.65	1695.72
832.82	1728.49
832.99	1710.05
833.17	1652.71
833.34	1726.44
833.51	1753.06
833.68	1595.37
833.85	1773.54
834.02	1675.24
834.19	1665.00
834.36	1550.31
834.53	1753.06
834.70	1703.91
834.87	1736.68
835.04	1718.25
835.22	1685.48
835.39	1728.49
835.56	1626.09
835.73	1708.01
835.90	1710.05
836.07	1619.94
836.24	1722.34
836.41	1574.89
836.58	1716.20
836.75	1689.57
836.92	1714.15
837.09	1628.14
837.26	1660.90
837.43	1712.10
837.60	1660.90
837.77	1718.25
837.94	1693.67
838.12	1769.44
838.29	1763.30
838.46	1607.66
838.63	1640.42
838.80	1787.88
838.97	1773.54
839.14	1673.19
839.31	1669.09
839.48	1667.05
839.65	1765.35
839.82	1777.64
839.99	1724.39
840.16	1669.09
840.33	1675.24
840.50	1695.72
840.67	1673.19
840.84	1624.04
841.01	1720.29
841.18	1656.81
841.35	1658.85
841.52	1724.39
841.69	1804.26
841.86	1734.63
842.03	1716.20
842.20	1726.44
842.37	1640.42
842.54	1658.85
842.71	1679.33
842.88	1628.14
843.05	1748.97
843.22	1599.46
843.39	1757.16
843.56	1689.57
843.73	1714.15
843.90	1712.10
844.07	1736.68
844.24	1820.64
844.41	1718.25
844.58	1708.01
844.75	1738.73
844.92	1673.19
845.09	1652.71
845.26	1632.23
845.43	1683.43
845.60	1662.95
845.77	1742.82
845.94	1683.43
846.10	1763.30
846.27	1615.85
846.44	1593.32
846.61	1660.90
846.78	1742.82
846.95	1744.87
847.12	1777.64
847.29	1648.61
847.46	1609.70
847.63	1699.81
847.80	1566.70
847.97	1656.81
848.14	1820.64
848.31	1685.48
848.48	1615.85
848.65	1744.87
848.82	1605.61
848.98	1759.21
849.15	1693.67
849.32	1730.53
849.49	1759.21
849.66	1665.00
849.83	1705.96
850.00	1720.29
850.17	1751.01
850.34	1736.68
850.51	1652.71
850.68	1648.61
850.85	1832.93
851.01	1720.29
851.18	1755.11
851.35	1720.29
851.52	1689.57
851.69	1738.73
851.86	1599.46
852.03	1693.67
852.20	1687.53
852.37	1669.09
852.53	1626.09
852.70	1689.57
852.87	1765.35
853.04	1699.81
853.21	1728.49
853.38	1722.34
853.55	1757.16
853.72	1855.46
853.89	1669.09
854.05	1650.66
854.22	1574.89
854.39	1691.62
854.56	1685.48
854.73	1751.01
854.90	1746.92
855.07	1724.39
855.23	1624.04
855.40	1652.71
855.57	1697.77
855.74	1628.14
855.91	1837.03
856.08	1660.90
856.25	1656.81
856.41	1708.01
856.58	1679.33
856.75	1705.96
856.92	1665.00
857.09	1699.81
857.26	1681.38
857.42	1656.81
857.59	1611.75
857.76	1644.52
857.93	1716.20
858.10	1718.25
858.27	1689.57
858.43	1689.57
858.60	1718.25
858.77	1599.46
858.94	1613.80
859.11	1714.15
859.27	1609.70
859.44	1613.80
859.61	1826.79
859.78	1673.19
859.95	1720.29
860.12	1624.04
860.28	1736.68
860.45	1877.99
860.62	1656.81
860.79	1695.72
860.95	1744.87
861.12	1558.50
861.29	1705.96
861.46	1619.94
861.63	1695.72
861.79	1665.00
861.96	1683.43
862.13	1695.72
862.30	1759.21
862.47	1662.95
862.63	1703.91
862.80	1724.39
862.97	1722.34
863.14	1685.48
863.30	1753.06
863.47	1640.42
863.64	1791.97
863.81	1705.96
863.97	1681.38
864.14	1718.25
864.31	1712.10
864.48	1681.38
864.65	1722.34
864.81	1701.86
864.98	1650.66
865.15	1775.59
865.32	1726.44
865.48	1779.68
865.65	1746.92
865.82	1656.81
865.98	1751.01
866.15	1804.26
866.32	1718.25
866.49	1728.49
866.65	1734.63
866.82	1644.52
866.99	1646.57
867.16	1705.96
867.32	1673.19
867.49	1701.86
867.66	1703.91
867.83	1681.38
867.99	1562.60
868.16	1757.16
868.33	1665.00
868.49	1736.68
868.66	1685.48
868.83	1722.34
868.99	1705.96
869.16	1667.05
869.33	1712.10
869.50	1703.91
869.66	1650.66
869.83	1687.53
870.00	1681.38
870.16	1712.10
870.33	1777.64
870.50	1763.30
870.66	1652.71
870.83	1800.16
871.00	1619.94
871.17	1722.34
871.33	1748.97
871.50	1624.04
871.67	1732.58
871.83	1665.00
872.00	1759.21
872.17	1689.57
872.33	1716.20
872.50	1794.02
872.67	1710.05
872.83	1708.01
873.00	1708.01
873.17	1701.86
873.33	1746.92
873.50	1740.77
873.67	1708.01
873.83	1751.01
874.00	1693.67
874.16	1761.25
874.33	1693.67
874.50	1656.81
874.66	1742.82
874.83	1673.19
875.00	1746.92
875.16	1763.30
875.33	1779.68
875.50	1570.79
875.66	1617.90
875.83	1763.30
875.99	1697.77
876.16	1714.15
876.33	1681.38
876.49	1753.06
876.66	1673.19
876.83	1652.71
876.99	1564.65
877.16	1683.43
877.32	1724.39
877.49	1665.00
877.66	1800.16
877.82	1732.58
877.99	1714.15
878.15	1724.39
878.32	1708.01
878.49	1691.62
878.65	1634.28
878.82	1757.16
878.98	1640.42
879.15	1726.44
879.32	1679.33
879.48	1763.30
879.65	1679.33
879.81	1642.47
879.98	1687.53
880.15	1628.14
880.31	1757.16
880.48	1728.49
880.64	1755.11
880.81	1775.59
880.97	1812.45
881.14	1716.20
881.31	1630.18
881.47	1748.97
881.64	1665.00
881.80	1535.98
881.97	1660.90
882.13	1734.63
882.30	1574.89
882.47	1652.71
882.63	1648.61
882.80	1662.95
882.96	1624.04
883.13	1730.53
883.29	1681.38
883.46	1781.73
883.62	1834.98
883.79	1654.76
883.95	1710.05
884.12	1695.72
884.29	1654.76
884.45	1615.85
884.62	1697.77
884.78	1685.48
884.95	1714.15
885.11	1693.67
885.28	1775.59
885.44	1642.47
885.61	1685.48
885.77	1720.29
885.94	1689.57
886.10	1683.43
886.27	1675.24
886.43	1804.26
886.60	1759.21
886.76	1732.58
886.93	1660.90
887.09	1689.57
887.26	1578.98
887.42	1673.19
887.59	1734.63
887.75	1783.78
887.92	1734.63
888.08	1779.68
888.25	1771.49
888.41	1757.16
888.58	1720.29
888.74	1605.61
888.91	1693.67
>>>>>End Processed Spectral Data<<<<<
