SpectraSuite Data File
++++++++++++++++++++++++++++++++++++
Date: Mon Jun 06 14:08:57 CEST 2016
User: root
Dark Spectrum Present: No
Reference Spectrum Present: No
Number of Sampled Component Spectra: 1
Spectrometers: USB4C02835
Integration Time (usec): 100000 (USB4C02835)
Spectra Averaged: 1 (USB4C02835)
Boxcar Smoothing: 0 (USB4C02835)
Correct for Electrical Dark: No (USB4C02835)
Strobe/Lamp Enabled: No (USB4C02835)
Correct for Detector Non-linearity: No (USB4C02835)
Correct for Stray Light: No (USB4C02835)
Number of Pixels in Processed Spectrum: 3648
>>>>>Begin Processed Spectral Data<<<<<
177.47	1476.59
177.69	1476.59
177.91	1476.59
178.13	1509.35
178.36	1484.78
178.58	1634.28
178.80	1691.62
179.02	1755.11
179.24	1572.84
179.46	1730.53
179.68	1759.21
179.90	1644.52
180.13	1667.05
180.35	1687.53
180.57	1714.15
180.79	1736.68
181.01	1726.44
181.23	1783.78
181.45	1718.25
181.67	1726.44
181.90	1730.53
182.12	1626.09
182.34	1621.99
182.56	1734.63
182.78	1720.29
183.00	1683.43
183.22	1808.36
183.44	1591.27
183.66	1839.08
183.89	1814.50
184.11	1679.33
184.33	1777.64
184.55	1820.64
184.77	1779.68
184.99	1748.97
185.21	1722.34
185.43	1826.79
185.65	1599.46
185.87	1714.15
186.10	1748.97
186.32	1791.97
186.54	1777.64
186.76	1789.92
186.98	1830.88
187.20	1667.05
187.42	1693.67
187.64	1691.62
187.86	1724.39
188.08	1662.95
188.30	1697.77
188.52	1693.67
188.75	1742.82
188.97	1777.64
189.19	1660.90
189.41	1662.95
189.63	1685.48
189.85	1697.77
190.07	1566.70
190.29	1726.44
190.51	1742.82
190.73	1679.33
190.95	1748.97
191.17	1691.62
191.39	1550.31
191.61	1695.72
191.84	1681.38
192.06	1714.15
192.28	1544.17
192.50	1875.94
192.72	1785.83
192.94	1701.86
193.16	1761.25
193.38	1751.01
193.60	1632.23
193.82	1648.61
194.04	1806.31
194.26	1654.76
194.48	1736.68
194.70	1732.58
194.92	1617.90
195.14	1744.87
195.36	1624.04
195.58	1648.61
195.80	1712.10
196.02	1705.96
196.24	1759.21
196.46	1771.49
196.69	1650.66
196.91	1824.74
197.13	1603.56
197.35	1697.77
197.57	1820.64
197.79	1710.05
198.01	1769.44
198.23	1746.92
198.45	1767.40
198.67	1677.29
198.89	1679.33
199.11	1736.68
199.33	1646.57
199.55	1591.27
199.77	1646.57
199.99	1740.77
200.21	1667.05
200.43	1730.53
200.65	1615.85
200.87	1503.21
201.09	1673.19
201.31	1730.53
201.53	1710.05
201.75	1734.63
201.97	1699.81
202.19	1650.66
202.41	1732.58
202.63	1785.83
202.85	1789.92
203.07	1773.54
203.29	1689.57
203.51	1683.43
203.73	1652.71
203.95	1906.66
204.17	1748.97
204.39	1697.77
204.61	1697.77
204.83	1724.39
205.05	1712.10
205.27	1761.25
205.49	1773.54
205.71	1687.53
205.93	1630.18
206.15	1615.85
206.37	1685.48
206.59	1757.16
206.81	1665.00
207.03	1703.91
207.25	1632.23
207.47	1669.09
207.69	1685.48
207.91	1726.44
208.13	1832.93
208.34	1632.23
208.56	1621.99
208.78	1718.25
209.00	1656.81
209.22	1599.46
209.44	1632.23
209.66	1705.96
209.88	1642.47
210.10	1671.14
210.32	1679.33
210.54	1800.16
210.76	1673.19
210.98	1771.49
211.20	1607.66
211.42	1708.01
211.64	1746.92
211.86	1710.05
212.08	1742.82
212.30	1677.29
212.52	1671.14
212.74	1671.14
212.96	1697.77
213.17	1685.48
213.39	1710.05
213.61	1804.26
213.83	1761.25
214.05	1712.10
214.27	1730.53
214.49	1662.95
214.71	1685.48
214.93	1828.84
215.15	1648.61
215.37	1763.30
215.59	1679.33
215.81	1697.77
216.03	1757.16
216.24	1730.53
216.46	1640.42
216.68	1681.38
216.90	1736.68
217.12	1683.43
217.34	1716.20
217.56	1742.82
217.78	1814.50
218.00	1673.19
218.22	1761.25
218.44	1738.73
218.66	1689.57
218.87	1757.16
219.09	1642.47
219.31	1697.77
219.53	1744.87
219.75	1638.38
219.97	1681.38
220.19	1763.30
220.41	1732.58
220.63	1775.59
220.85	1708.01
221.06	1640.42
221.28	1695.72
221.50	1755.11
221.72	1746.92
221.94	1699.81
222.16	1681.38
222.38	1736.68
222.60	1732.58
222.82	1695.72
223.03	1779.68
223.25	1693.67
223.47	1708.01
223.69	1767.40
223.91	1695.72
224.13	1769.44
224.35	1621.99
224.57	1783.78
224.78	1712.10
225.00	1695.72
225.22	1718.25
225.44	1742.82
225.66	1736.68
225.88	1691.62
226.10	1673.19
226.32	1730.53
226.53	1849.32
226.75	1679.33
226.97	1665.00
227.19	1708.01
227.41	1718.25
227.63	1699.81
227.85	1703.91
228.06	1648.61
228.28	1667.05
228.50	1798.12
228.72	1638.38
228.94	1699.81
229.16	1585.13
229.37	1675.24
229.59	1650.66
229.81	1746.92
230.03	1677.29
230.25	1601.51
230.47	1648.61
230.69	1675.24
230.90	1703.91
231.12	1613.80
231.34	1677.29
231.56	1701.86
231.78	1599.46
232.00	1755.11
232.21	1683.43
232.43	1712.10
232.65	1662.95
232.87	1724.39
233.09	1636.33
233.30	1746.92
233.52	1789.92
233.74	1718.25
233.96	1626.09
234.18	1738.73
234.40	1665.00
234.61	1785.83
234.83	1689.57
235.05	1640.42
235.27	1834.98
235.49	1726.44
235.70	1720.29
235.92	1765.35
236.14	1708.01
236.36	1828.84
236.58	1656.81
236.79	1742.82
237.01	1765.35
237.23	1673.19
237.45	1847.27
237.67	1654.76
237.88	1665.00
238.10	1785.83
238.32	1603.56
238.54	1636.33
238.76	1705.96
238.97	1652.71
239.19	1689.57
239.41	1710.05
239.63	1740.77
239.85	1660.90
240.06	1681.38
240.28	1697.77
240.50	1775.59
240.72	1683.43
240.93	1691.62
241.15	1763.30
241.37	1708.01
241.59	1755.11
241.81	1714.15
242.02	1656.81
242.24	1732.58
242.46	1718.25
242.68	1599.46
242.89	1744.87
243.11	1714.15
243.33	1755.11
243.55	1671.14
243.76	1742.82
243.98	1689.57
244.20	1669.09
244.42	1665.00
244.64	1738.73
244.85	1665.00
245.07	1636.33
245.29	1718.25
245.51	1722.34
245.72	1726.44
245.94	1751.01
246.16	1673.19
246.38	1740.77
246.59	1599.46
246.81	1660.90
247.03	1691.62
247.24	1583.08
247.46	1658.85
247.68	1738.73
247.90	1736.68
248.11	1736.68
248.33	1783.78
248.55	1665.00
248.77	1728.49
248.98	1769.44
249.20	1726.44
249.42	1769.44
249.64	1683.43
249.85	1720.29
250.07	1662.95
250.29	1714.15
250.50	1814.50
250.72	1652.71
250.94	1779.68
251.16	1822.69
251.37	1806.31
251.59	1654.76
251.81	1732.58
252.02	1781.73
252.24	1660.90
252.46	1843.17
252.68	1689.57
252.89	1632.23
253.11	1650.66
253.33	1810.40
253.54	1769.44
253.76	1679.33
253.98	1656.81
254.20	1777.64
254.41	1652.71
254.63	1687.53
254.85	1595.37
255.06	1689.57
255.28	1742.82
255.50	1699.81
255.71	1662.95
255.93	1601.51
256.15	1619.94
256.36	1841.12
256.58	1720.29
256.80	1822.69
257.02	1724.39
257.23	1665.00
257.45	1693.67
257.67	1748.97
257.88	1658.85
258.10	1710.05
258.32	1724.39
258.53	1685.48
258.75	1734.63
258.97	1681.38
259.18	1708.01
259.40	1726.44
259.62	1726.44
259.83	1820.64
260.05	1753.06
260.27	2000.87
260.48	1703.91
260.70	1542.12
260.92	1654.76
261.13	1736.68
261.35	1687.53
261.57	1697.77
261.78	1638.38
262.00	1689.57
262.22	1740.77
262.43	1681.38
262.65	1705.96
262.86	1685.48
263.08	1806.31
263.30	1669.09
263.51	1603.56
263.73	1658.85
263.95	1812.45
264.16	1673.19
264.38	1681.38
264.60	1804.26
264.81	1691.62
265.03	1777.64
265.25	1693.67
265.46	1638.38
265.68	1744.87
265.89	1755.11
266.11	1599.46
266.33	1736.68
266.54	1734.63
266.76	1699.81
266.98	1665.00
267.19	1722.34
267.41	1759.21
267.62	1695.72
267.84	1638.38
268.06	1681.38
268.27	1765.35
268.49	1830.88
268.70	1748.97
268.92	1703.91
269.14	1617.90
269.35	1605.61
269.57	1648.61
269.79	1757.16
270.00	1689.57
270.22	1818.60
270.43	1650.66
270.65	1570.79
270.87	1736.68
271.08	1804.26
271.30	1669.09
271.51	1695.72
271.73	1708.01
271.95	1726.44
272.16	1697.77
272.38	1677.29
272.59	1736.68
272.81	1712.10
273.02	1662.95
273.24	1751.01
273.46	1689.57
273.67	1630.18
273.89	1636.33
274.10	1673.19
274.32	1763.30
274.54	1759.21
274.75	1705.96
274.97	1652.71
275.18	1726.44
275.40	1742.82
275.61	1724.39
275.83	1712.10
276.05	1689.57
276.26	1724.39
276.48	1710.05
276.69	1701.86
276.91	1613.80
277.12	1748.97
277.34	1751.01
277.55	1685.48
277.77	1767.40
277.99	1636.33
278.20	1593.32
278.42	1679.33
278.63	1681.38
278.85	1669.09
279.06	1634.28
279.28	1687.53
279.49	1753.06
279.71	1791.97
279.93	1667.05
280.14	1718.25
280.36	1693.67
280.57	1730.53
280.79	1757.16
281.00	1705.96
281.22	1660.90
281.43	1716.20
281.65	1611.75
281.86	1648.61
282.08	1710.05
282.29	1767.40
282.51	1585.13
282.73	1710.05
282.94	1613.80
283.16	1787.88
283.37	1789.92
283.59	1691.62
283.80	1812.45
284.02	1650.66
284.23	1738.73
284.45	1683.43
284.66	1708.01
284.88	1581.03
285.09	1703.91
285.31	1695.72
285.52	1662.95
285.74	1611.75
285.95	1703.91
286.17	1718.25
286.38	1810.40
286.60	1607.66
286.81	1673.19
287.03	1648.61
287.24	1615.85
287.46	1705.96
287.67	1669.09
287.89	1761.25
288.10	1720.29
288.32	1697.77
288.53	1787.88
288.75	1708.01
288.96	1748.97
289.18	1714.15
289.39	1632.23
289.61	1687.53
289.82	1845.22
290.04	1849.32
290.25	1693.67
290.47	1693.67
290.68	1660.90
290.90	1755.11
291.11	1568.74
291.33	1777.64
291.54	1605.61
291.76	1681.38
291.97	1775.59
292.18	1722.34
292.40	1681.38
292.61	1615.85
292.83	1841.12
293.04	1708.01
293.26	1708.01
293.47	1667.05
293.69	1644.52
293.90	1710.05
294.12	1814.50
294.33	1734.63
294.55	1779.68
294.76	1783.78
294.97	1701.86
295.19	1849.32
295.40	1681.38
295.62	1736.68
295.83	1683.43
296.05	1667.05
296.26	1722.34
296.48	1652.71
296.69	1697.77
296.90	1691.62
297.12	1667.05
297.33	1783.78
297.55	1763.30
297.76	1724.39
297.98	1708.01
298.19	1716.20
298.41	1667.05
298.62	1658.85
298.83	1802.21
299.05	1640.42
299.26	1605.61
299.48	1646.57
299.69	1705.96
299.90	1695.72
300.12	1656.81
300.33	1751.01
300.55	1662.95
300.76	1720.29
300.98	1656.81
301.19	1763.30
301.40	1617.90
301.62	1726.44
301.83	1753.06
302.05	1701.86
302.26	1667.05
302.47	1779.68
302.69	1636.33
302.90	1771.49
303.12	1617.90
303.33	1691.62
303.54	1804.26
303.76	1621.99
303.97	1669.09
304.19	1800.16
304.40	1636.33
304.61	1722.34
304.83	1853.41
305.04	1761.25
305.26	1671.14
305.47	1599.46
305.68	1732.58
305.90	1632.23
306.11	1722.34
306.33	1671.14
306.54	1697.77
306.75	1640.42
306.97	1587.18
307.18	1619.94
307.39	1599.46
307.61	1777.64
307.82	1654.76
308.04	1712.10
308.25	1730.53
308.46	1695.72
308.68	1650.66
308.89	1728.49
309.10	1777.64
309.32	1689.57
309.53	1683.43
309.74	1726.44
309.96	1677.29
310.17	1652.71
310.39	1654.76
310.60	1761.25
310.81	1665.00
311.03	1671.14
311.24	1679.33
311.45	1667.05
311.67	1718.25
311.88	1759.21
312.09	1705.96
312.31	1605.61
312.52	1718.25
312.73	1689.57
312.95	1550.31
313.16	1648.61
313.37	1822.69
313.59	1757.16
313.80	1710.05
314.01	1804.26
314.23	1662.95
314.44	1705.96
314.65	1671.14
314.87	1617.90
315.08	1726.44
315.29	1640.42
315.51	1638.38
315.72	1621.99
315.93	1791.97
316.15	1751.01
316.36	1595.37
316.57	1693.67
316.79	1710.05
317.00	1681.38
317.21	1726.44
317.43	1640.42
317.64	1714.15
317.85	1656.81
318.07	1742.82
318.28	1763.30
318.49	1728.49
318.70	1865.70
318.92	1791.97
319.13	1837.03
319.34	1761.25
319.56	1816.55
319.77	1755.11
319.98	1824.74
320.20	1755.11
320.41	1785.83
320.62	1708.01
320.83	1681.38
321.05	1904.61
321.26	1730.53
321.47	1751.01
321.69	1734.63
321.90	1656.81
322.11	1714.15
322.32	1650.66
322.54	1802.21
322.75	1636.33
322.96	1802.21
323.18	1570.79
323.39	1591.27
323.60	1671.14
323.81	1773.54
324.03	1628.14
324.24	1714.15
324.45	1683.43
324.66	1685.48
324.88	1767.40
325.09	1830.88
325.30	1624.04
325.52	1720.29
325.73	1693.67
325.94	1701.86
326.15	1535.98
326.37	1644.52
326.58	1730.53
326.79	1841.12
327.00	1626.09
327.22	1736.68
327.43	1636.33
327.64	1570.79
327.85	1665.00
328.07	1751.01
328.28	1742.82
328.49	1693.67
328.70	1691.62
328.92	1755.11
329.13	1693.67
329.34	1763.30
329.55	1773.54
329.76	1796.07
329.98	1673.19
330.19	1808.36
330.40	1777.64
330.61	1724.39
330.83	1746.92
331.04	1673.19
331.25	1689.57
331.46	1705.96
331.68	1640.42
331.89	1722.34
332.10	1681.38
332.31	1648.61
332.52	1662.95
332.74	1828.84
332.95	1619.94
333.16	1703.91
333.37	1755.11
333.58	1708.01
333.80	1769.44
334.01	1628.14
334.22	1646.57
334.43	1673.19
334.64	1667.05
334.86	1689.57
335.07	1652.71
335.28	1742.82
335.49	1607.66
335.70	1751.01
335.92	1738.73
336.13	1814.50
336.34	1742.82
336.55	1732.58
336.76	1738.73
336.98	1617.90
337.19	1738.73
337.40	1720.29
337.61	1916.90
337.82	1761.25
338.04	1722.34
338.25	1609.70
338.46	1697.77
338.67	1685.48
338.88	1656.81
339.09	1628.14
339.31	1656.81
339.52	1646.57
339.73	1607.66
339.94	1695.72
340.15	1748.97
340.36	1665.00
340.58	1769.44
340.79	1660.90
341.00	1755.11
341.21	1675.24
341.42	1806.31
341.63	1617.90
341.85	1773.54
342.06	1771.49
342.27	1609.70
342.48	1708.01
342.69	1656.81
342.90	1656.81
343.12	1675.24
343.33	1632.23
343.54	1695.72
343.75	1781.73
343.96	1703.91
344.17	1667.05
344.38	1652.71
344.60	1652.71
344.81	1722.34
345.02	1685.48
345.23	1722.34
345.44	1789.92
345.65	1728.49
345.86	1738.73
346.07	1628.14
346.29	1746.92
346.50	1673.19
346.71	1701.86
346.92	1742.82
347.13	1812.45
347.34	1634.28
347.55	1722.34
347.76	1787.88
347.98	1658.85
348.19	1574.89
348.40	1720.29
348.61	1681.38
348.82	1789.92
349.03	1812.45
349.24	1718.25
349.45	1814.50
349.66	1613.80
349.88	1740.77
350.09	1667.05
350.30	1808.36
350.51	1730.53
350.72	1679.33
350.93	1695.72
351.14	1726.44
351.35	1640.42
351.56	1687.53
351.77	1660.90
351.99	1636.33
352.20	1837.03
352.41	1703.91
352.62	1613.80
352.83	1681.38
353.04	1718.25
353.25	1609.70
353.46	1777.64
353.67	1724.39
353.88	1578.98
354.09	1691.62
354.30	1679.33
354.52	1691.62
354.73	1652.71
354.94	1701.86
355.15	1705.96
355.36	1781.73
355.57	1691.62
355.78	1699.81
355.99	1642.47
356.20	1712.10
356.41	1798.12
356.62	1720.29
356.83	1689.57
357.04	1787.88
357.25	1560.55
357.46	1681.38
357.68	1646.57
357.89	1581.03
358.10	1683.43
358.31	1716.20
358.52	1708.01
358.73	1585.13
358.94	1693.67
359.15	1701.86
359.36	1746.92
359.57	1665.00
359.78	1718.25
359.99	1767.40
360.20	1640.42
360.41	1728.49
360.62	1755.11
360.83	1765.35
361.04	1685.48
361.25	1753.06
361.46	1783.78
361.67	1746.92
361.88	1806.31
362.09	1716.20
362.30	1822.69
362.51	1669.09
362.72	1675.24
362.93	1699.81
363.14	1695.72
363.35	1775.59
363.56	1640.42
363.78	1740.77
363.99	1832.93
364.20	1734.63
364.41	1626.09
364.62	1832.93
364.83	1722.34
365.04	1738.73
365.25	1671.14
365.46	1910.75
365.67	1609.70
365.88	1636.33
366.09	1726.44
366.30	1658.85
366.51	1757.16
366.72	1632.23
366.93	1726.44
367.14	1730.53
367.35	1742.82
367.56	1720.29
367.77	1789.92
367.98	1755.11
368.18	1714.15
368.39	1755.11
368.60	1660.90
368.81	1660.90
369.02	1705.96
369.23	1644.52
369.44	1691.62
369.65	1722.34
369.86	1705.96
370.07	1689.57
370.28	1562.60
370.49	1746.92
370.70	1759.21
370.91	1605.61
371.12	1660.90
371.33	1757.16
371.54	1638.38
371.75	1761.25
371.96	1634.28
372.17	1701.86
372.38	1656.81
372.59	1689.57
372.80	1671.14
373.01	1746.92
373.22	1683.43
373.43	1738.73
373.64	1601.51
373.85	1728.49
374.06	1812.45
374.26	1736.68
374.47	1708.01
374.68	1845.22
374.89	1695.72
375.10	1619.94
375.31	1732.58
375.52	1687.53
375.73	1669.09
375.94	1595.37
376.15	1755.11
376.36	1677.29
376.57	1656.81
376.78	1724.39
376.99	1794.02
377.20	1718.25
377.40	1718.25
377.61	1816.55
377.82	1601.51
378.03	1814.50
378.24	1777.64
378.45	1716.20
378.66	1699.81
378.87	1656.81
379.08	1621.99
379.29	1619.94
379.50	1714.15
379.71	1652.71
379.91	1736.68
380.12	1746.92
380.33	1724.39
380.54	1724.39
380.75	1689.57
380.96	1665.00
381.17	1716.20
381.38	1753.06
381.59	1781.73
381.80	1759.21
382.00	1900.52
382.21	1724.39
382.42	1849.32
382.63	1837.03
382.84	1808.36
383.05	1765.35
383.26	1746.92
383.47	1769.44
383.68	1744.87
383.88	1693.67
384.09	1757.16
384.30	1828.84
384.51	1732.58
384.72	1699.81
384.93	1628.14
385.14	1740.77
385.35	1755.11
385.55	1658.85
385.76	1828.84
385.97	1673.19
386.18	1730.53
386.39	1636.33
386.60	1626.09
386.81	1636.33
387.02	1650.66
387.22	1685.48
387.43	1783.78
387.64	1785.83
387.85	1886.18
388.06	2232.29
388.27	4270.01
388.48	6721.43
388.68	8255.36
388.89	9637.74
389.10	9893.74
389.31	8544.13
389.52	7595.92
389.73	6750.10
389.93	6158.24
390.14	5916.58
390.35	5160.88
390.56	4562.87
390.77	3764.17
390.98	3026.90
391.18	2527.19
391.39	2140.13
391.60	1839.08
391.81	1748.97
392.02	1695.72
392.23	1783.78
392.43	1703.91
392.64	1865.70
392.85	1847.27
393.06	1775.59
393.27	1701.86
393.47	1601.51
393.68	1677.29
393.89	1748.97
394.10	1744.87
394.31	1714.15
394.52	1691.62
394.72	1689.57
394.93	1730.53
395.14	1708.01
395.35	1716.20
395.56	1662.95
395.76	1738.73
395.97	1658.85
396.18	1742.82
396.39	1871.84
396.60	2017.25
396.80	1947.62
397.01	1908.71
397.22	1757.16
397.43	1818.60
397.64	1710.05
397.84	1738.73
398.05	1849.32
398.26	1783.78
398.47	1812.45
398.67	1767.40
398.88	1738.73
399.09	1724.39
399.30	1705.96
399.51	1759.21
399.71	1681.38
399.92	1712.10
400.13	1718.25
400.34	1716.20
400.54	1662.95
400.75	1769.44
400.96	1751.01
401.17	1814.50
401.37	1671.14
401.58	1689.57
401.79	1705.96
402.00	1812.45
402.21	2045.92
402.41	1986.53
402.62	2041.82
402.83	2050.02
403.04	1939.43
403.24	2015.20
403.45	1923.04
403.66	1884.13
403.87	1972.19
404.07	1916.90
404.28	1920.99
404.49	1871.84
404.70	1710.05
404.90	1814.50
405.11	1718.25
405.32	1712.10
405.52	1693.67
405.73	1626.09
405.94	1650.66
406.15	1669.09
406.35	1730.53
406.56	1734.63
406.77	1650.66
406.98	1755.11
407.18	1603.56
407.39	1751.01
407.60	1615.85
407.80	1796.07
408.01	1708.01
408.22	1716.20
408.43	1695.72
408.63	1695.72
408.84	1712.10
409.05	1738.73
409.25	1689.57
409.46	1726.44
409.67	1632.23
409.88	1681.38
410.08	1748.97
410.29	1675.24
410.50	1689.57
410.70	1738.73
410.91	1593.32
411.12	1722.34
411.32	1689.57
411.53	1703.91
411.74	1798.12
411.95	1726.44
412.15	1724.39
412.36	1845.22
412.57	1767.40
412.77	1869.80
412.98	1746.92
413.19	1697.77
413.39	1779.68
413.60	1757.16
413.81	1755.11
414.01	1671.14
414.22	1851.36
414.43	1761.25
414.63	1726.44
414.84	1728.49
415.05	1722.34
415.25	1603.56
415.46	1787.88
415.67	1593.32
415.87	1814.50
416.08	1724.39
416.29	1656.81
416.49	1757.16
416.70	1656.81
416.91	1642.47
417.11	1748.97
417.32	1769.44
417.53	1726.44
417.73	1689.57
417.94	1763.30
418.15	1771.49
418.35	1671.14
418.56	1691.62
418.77	1853.41
418.97	1716.20
419.18	1771.49
419.38	1658.85
419.59	1677.29
419.80	1783.78
420.00	1738.73
420.21	1712.10
420.42	1746.92
420.62	1748.97
420.83	1714.15
421.04	1689.57
421.24	1687.53
421.45	1765.35
421.65	1732.58
421.86	1699.81
422.07	1697.77
422.27	1697.77
422.48	1691.62
422.69	1642.47
422.89	1669.09
423.10	1716.20
423.30	1638.38
423.51	1671.14
423.72	1771.49
423.92	1769.44
424.13	1667.05
424.33	1761.25
424.54	1804.26
424.75	1687.53
424.95	1789.92
425.16	1660.90
425.36	1662.95
425.57	1767.40
425.78	1841.12
425.98	1759.21
426.19	1687.53
426.39	1652.71
426.60	1693.67
426.81	1779.68
427.01	1607.66
427.22	1701.86
427.42	1656.81
427.63	1626.09
427.83	1689.57
428.04	1859.56
428.25	1845.22
428.45	1800.16
428.66	1849.32
428.86	1740.77
429.07	1634.28
429.28	1789.92
429.48	1699.81
429.69	1656.81
429.89	1652.71
430.10	1671.14
430.30	1730.53
430.51	1732.58
430.71	1685.48
430.92	1738.73
431.13	1710.05
431.33	1742.82
431.54	1693.67
431.74	1718.25
431.95	1894.37
432.15	1619.94
432.36	1646.57
432.56	1759.21
432.77	1789.92
432.98	1804.26
433.18	1730.53
433.39	1722.34
433.59	1640.42
433.80	1804.26
434.00	1837.03
434.21	1660.90
434.41	1675.24
434.62	1837.03
434.82	1636.33
435.03	1730.53
435.23	1693.67
435.44	1673.19
435.64	1656.81
435.85	1644.52
436.06	1767.40
436.26	1742.82
436.47	1642.47
436.67	1708.01
436.88	1740.77
437.08	1759.21
437.29	1798.12
437.49	1734.63
437.70	1751.01
437.90	1652.71
438.11	1867.75
438.31	1757.16
438.52	1765.35
438.72	1845.22
438.93	1935.33
439.13	1763.30
439.34	1791.97
439.54	1718.25
439.75	1783.78
439.95	1781.73
440.16	1746.92
440.36	1691.62
440.57	1767.40
440.77	1742.82
440.98	1722.34
441.18	1693.67
441.39	1652.71
441.59	1746.92
441.80	1912.80
442.00	1730.53
442.21	1810.40
442.41	1636.33
442.62	1775.59
442.82	1691.62
443.02	1685.48
443.23	1728.49
443.43	1675.24
443.64	1845.22
443.84	1687.53
444.05	1773.54
444.25	1746.92
444.46	1726.44
444.66	1708.01
444.87	1744.87
445.07	1650.66
445.28	1730.53
445.48	1751.01
445.69	1820.64
445.89	1839.08
446.09	1789.92
446.30	2023.39
446.50	2705.37
446.71	3710.92
446.91	4401.08
447.12	4814.77
447.32	4767.67
447.53	4341.69
447.73	3846.09
447.93	3536.84
448.14	3280.85
448.34	3174.35
448.55	2906.07
448.75	2813.91
448.96	2680.79
449.16	2488.28
449.36	2230.24
449.57	2041.82
449.77	1916.90
449.98	1808.36
450.18	1755.11
450.39	1865.70
450.59	1728.49
450.79	1648.61
451.00	1755.11
451.20	1781.73
451.41	1736.68
451.61	1765.35
451.81	1681.38
452.02	1693.67
452.22	1726.44
452.43	1734.63
452.63	1699.81
452.84	1703.91
453.04	1753.06
453.24	1775.59
453.45	1621.99
453.65	1720.29
453.86	1812.45
454.06	1757.16
454.26	1732.58
454.47	1691.62
454.67	1816.55
454.87	1691.62
455.08	1681.38
455.28	1775.59
455.49	1802.21
455.69	1771.49
455.89	1769.44
456.10	1880.04
456.30	1738.73
456.51	1759.21
456.71	1703.91
456.91	1767.40
457.12	1761.25
457.32	1785.83
457.52	1636.33
457.73	1763.30
457.93	1826.79
458.14	1695.72
458.34	1609.70
458.54	1728.49
458.75	1691.62
458.95	1714.15
459.15	1800.16
459.36	1726.44
459.56	1775.59
459.76	1828.84
459.97	1714.15
460.17	1691.62
460.37	1734.63
460.58	1755.11
460.78	1769.44
460.99	1646.57
461.19	1705.96
461.39	1691.62
461.60	1732.58
461.80	1701.86
462.00	1751.01
462.21	1751.01
462.41	1665.00
462.61	1726.44
462.82	1630.18
463.02	1744.87
463.22	1800.16
463.43	1800.16
463.63	1671.14
463.83	1841.12
464.04	1662.95
464.24	1744.87
464.44	1656.81
464.64	1763.30
464.85	1759.21
465.05	1775.59
465.25	1703.91
465.46	1665.00
465.66	1746.92
465.86	1710.05
466.07	1699.81
466.27	1718.25
466.47	1529.83
466.68	1677.29
466.88	1779.68
467.08	1748.97
467.29	1755.11
467.49	1740.77
467.69	1787.88
467.89	1818.60
468.10	1705.96
468.30	1654.76
468.50	1826.79
468.71	1839.08
468.91	1660.90
469.11	1863.65
469.31	1644.52
469.52	1656.81
469.72	1816.55
469.92	1755.11
470.13	1677.29
470.33	1701.86
470.53	1763.30
470.73	2088.93
470.94	2269.15
471.14	2326.49
471.34	2430.94
471.54	2385.88
471.75	2265.05
471.95	2115.55
472.15	2148.32
472.36	1996.77
472.56	2019.30
472.76	2023.39
472.96	1996.77
473.17	1988.58
473.37	1964.00
473.57	1767.40
473.77	1839.08
473.98	1808.36
474.18	1640.42
474.38	1873.89
474.58	1769.44
474.79	1660.90
474.99	1806.31
475.19	1798.12
475.39	1658.85
475.60	1673.19
475.80	1800.16
476.00	1693.67
476.20	1716.20
476.41	1740.77
476.61	1839.08
476.81	1796.07
477.01	1675.24
477.21	1822.69
477.42	1839.08
477.62	1677.29
477.82	1722.34
478.02	1748.97
478.23	1779.68
478.43	1683.43
478.63	1654.76
478.83	1628.14
479.03	1681.38
479.24	1853.41
479.44	1775.59
479.64	1718.25
479.84	1697.77
480.04	1665.00
480.25	1755.11
480.45	1642.47
480.65	1738.73
480.85	1748.97
481.06	1714.15
481.26	1734.63
481.46	1800.16
481.66	1757.16
481.86	1693.67
482.06	1818.60
482.27	1708.01
482.47	1710.05
482.67	1753.06
482.87	1675.24
483.07	1828.84
483.28	1708.01
483.48	1576.94
483.68	1681.38
483.88	1621.99
484.08	1515.50
484.29	1646.57
484.49	1669.09
484.69	1638.38
484.89	1683.43
485.09	1777.64
485.29	1734.63
485.50	1753.06
485.70	1699.81
485.90	1779.68
486.10	1703.91
486.30	1771.49
486.50	1701.86
486.71	1779.68
486.91	1755.11
487.11	1779.68
487.31	1673.19
487.51	1744.87
487.71	1710.05
487.91	1665.00
488.12	1650.66
488.32	1609.70
488.52	1677.29
488.72	1634.28
488.92	1763.30
489.12	1726.44
489.32	1775.59
489.53	1748.97
489.73	1667.05
489.93	1800.16
490.13	1648.61
490.33	1574.89
490.53	1732.58
490.73	1738.73
490.94	1662.95
491.14	1771.49
491.34	1806.31
491.54	2162.66
491.74	2568.15
491.94	2924.50
492.14	3063.76
492.34	3057.62
492.54	2762.71
492.75	2461.66
492.95	2379.74
493.15	2299.87
493.35	2342.88
493.55	2242.53
493.75	2113.50
493.95	2150.37
494.15	1982.43
494.35	1910.75
494.56	1841.12
494.76	1722.34
494.96	1791.97
495.16	1789.92
495.36	1730.53
495.56	1726.44
495.76	1738.73
495.96	1734.63
496.16	1660.90
496.36	1783.78
496.56	1748.97
496.77	1775.59
496.97	1779.68
497.17	1794.02
497.37	1652.71
497.57	1726.44
497.77	1738.73
497.97	1628.14
498.17	1730.53
498.37	1673.19
498.57	1716.20
498.77	1736.68
498.97	1730.53
499.17	1773.54
499.38	1705.96
499.58	1755.11
499.78	1812.45
499.98	1855.46
500.18	1693.67
500.38	1742.82
500.58	1939.43
500.78	2543.58
500.98	4571.07
501.18	5879.72
501.38	6764.44
501.58	7034.77
501.78	6643.61
501.98	5533.61
502.18	4886.45
502.38	4583.35
502.58	4061.12
502.78	3901.38
502.98	3598.28
503.18	3454.92
503.38	3196.88
503.59	2805.72
503.79	2631.64
503.99	2545.63
504.19	2277.34
504.39	2224.09
504.59	2187.23
504.79	2179.04
504.99	2027.49
505.19	1972.19
505.39	1904.61
505.59	1890.28
505.79	1912.80
505.99	1890.28
506.19	1798.12
506.39	1912.80
506.59	1773.54
506.79	1771.49
506.99	1845.22
507.19	1812.45
507.39	1755.11
507.59	1697.77
507.79	1630.18
507.99	1722.34
508.19	1820.64
508.39	1703.91
508.59	1691.62
508.79	1757.16
508.99	1912.80
509.19	1720.29
509.39	1751.01
509.59	1705.96
509.79	1689.57
509.99	1740.77
510.19	1781.73
510.39	1738.73
510.59	1683.43
510.79	1794.02
510.99	1632.23
511.19	1798.12
511.39	1785.83
511.59	1783.78
511.79	1748.97
511.99	1765.35
512.19	1767.40
512.38	1732.58
512.58	1685.48
512.78	1798.12
512.98	1798.12
513.18	1789.92
513.38	1742.82
513.58	1845.22
513.78	1728.49
513.98	1722.34
514.18	1689.57
514.38	1693.67
514.58	1746.92
514.78	1662.95
514.98	1638.38
515.18	1693.67
515.38	1660.90
515.58	1853.41
515.78	1689.57
515.98	1722.34
516.18	1757.16
516.38	1687.53
516.57	1800.16
516.77	1744.87
516.97	1769.44
517.17	1683.43
517.37	1630.18
517.57	1755.11
517.77	1734.63
517.97	1710.05
518.17	1789.92
518.37	1699.81
518.57	1673.19
518.77	1691.62
518.97	1732.58
519.16	1742.82
519.36	1783.78
519.56	1710.05
519.76	1730.53
519.96	1765.35
520.16	1875.94
520.36	1675.24
520.56	1847.27
520.76	1763.30
520.96	1767.40
521.16	1796.07
521.35	1765.35
521.55	1804.26
521.75	1726.44
521.95	1804.26
522.15	1689.57
522.35	1667.05
522.55	1701.86
522.75	1751.01
522.95	1724.39
523.14	1730.53
523.34	1763.30
523.54	1671.14
523.74	1765.35
523.94	1789.92
524.14	1665.00
524.34	1710.05
524.54	1785.83
524.73	1787.88
524.93	1802.21
525.13	1751.01
525.33	1638.38
525.53	1927.14
525.73	1802.21
525.93	1732.58
526.13	1763.30
526.32	1720.29
526.52	1826.79
526.72	1736.68
526.92	1675.24
527.12	1714.15
527.32	1638.38
527.52	1742.82
527.71	1828.84
527.91	1773.54
528.11	1732.58
528.31	1738.73
528.51	1654.76
528.71	1769.44
528.90	1753.06
529.10	1818.60
529.30	1761.25
529.50	1601.51
529.70	1736.68
529.90	1748.97
530.09	1742.82
530.29	1679.33
530.49	1640.42
530.69	1853.41
530.89	1738.73
531.09	1777.64
531.28	1753.06
531.48	1740.77
531.68	1712.10
531.88	1746.92
532.08	1783.78
532.28	1710.05
532.47	1767.40
532.67	1767.40
532.87	1726.44
533.07	1642.47
533.27	1685.48
533.46	1705.96
533.66	1705.96
533.86	1710.05
534.06	1720.29
534.26	1724.39
534.45	1800.16
534.65	1789.92
534.85	1828.84
535.05	1714.15
535.25	1722.34
535.44	1626.09
535.64	1796.07
535.84	1660.90
536.04	1634.28
536.24	1712.10
536.43	1650.66
536.63	1767.40
536.83	1781.73
537.03	1667.05
537.22	1683.43
537.42	1662.95
537.62	1734.63
537.82	1681.38
538.02	1918.95
538.21	1789.92
538.41	1957.86
538.61	1763.30
538.81	1785.83
539.00	1798.12
539.20	1624.04
539.40	1658.85
539.60	1746.92
539.79	1804.26
539.99	1767.40
540.19	1724.39
540.39	1673.19
540.58	1722.34
540.78	1775.59
540.98	1724.39
541.18	1798.12
541.37	1708.01
541.57	1744.87
541.77	1730.53
541.97	1644.52
542.16	1636.33
542.36	1724.39
542.56	1832.93
542.76	1791.97
542.95	1767.40
543.15	1746.92
543.35	1716.20
543.54	1685.48
543.74	1718.25
543.94	1832.93
544.14	1697.77
544.33	1775.59
544.53	1705.96
544.73	1748.97
544.93	1753.06
545.12	1714.15
545.32	1738.73
545.52	1746.92
545.71	1703.91
545.91	1648.61
546.11	1832.93
546.30	1667.05
546.50	1771.49
546.70	1796.07
546.90	1673.19
547.09	1611.75
547.29	1763.30
547.49	1791.97
547.68	1802.21
547.88	1662.95
548.08	1781.73
548.27	2209.76
548.47	1722.34
548.67	1662.95
548.87	1732.58
549.06	1724.39
549.26	1783.78
549.46	1824.74
549.65	1757.16
549.85	1734.63
550.05	1740.77
550.24	1708.01
550.44	1710.05
550.64	1824.74
550.83	1679.33
551.03	1837.03
551.23	1732.58
551.42	1810.40
551.62	1693.67
551.82	1787.88
552.01	1667.05
552.21	1804.26
552.41	1669.09
552.60	1751.01
552.80	1767.40
553.00	1642.47
553.19	1804.26
553.39	1794.02
553.59	1632.23
553.78	1781.73
553.98	1798.12
554.17	1638.38
554.37	1720.29
554.57	1789.92
554.76	1656.81
554.96	1703.91
555.16	1722.34
555.35	1779.68
555.55	1708.01
555.75	1716.20
555.94	1716.20
556.14	1597.42
556.33	1798.12
556.53	1689.57
556.73	1677.29
556.92	1773.54
557.12	1853.41
557.32	1812.45
557.51	1820.64
557.71	1798.12
557.90	1779.68
558.10	1853.41
558.30	1740.77
558.49	1677.29
558.69	1662.95
558.88	1724.39
559.08	1748.97
559.28	1718.25
559.47	1742.82
559.67	1787.88
559.86	1808.36
560.06	1703.91
560.26	1730.53
560.45	1771.49
560.65	1734.63
560.84	1812.45
561.04	1728.49
561.24	1753.06
561.43	1689.57
561.63	1855.46
561.82	1720.29
562.02	1761.25
562.22	1665.00
562.41	1761.25
562.61	1841.12
562.80	1632.23
563.00	1820.64
563.19	1775.59
563.39	1757.16
563.59	1771.49
563.78	1669.09
563.98	1611.75
564.17	1714.15
564.37	1689.57
564.56	1722.34
564.76	1697.77
564.96	1691.62
565.15	1826.79
565.35	1851.36
565.54	1732.58
565.74	1779.68
565.93	1728.49
566.13	1751.01
566.32	1763.30
566.52	1759.21
566.71	1734.63
566.91	1802.21
567.11	1816.55
567.30	1742.82
567.50	1791.97
567.69	1812.45
567.89	1773.54
568.08	1656.81
568.28	1748.97
568.47	1665.00
568.67	1738.73
568.86	1726.44
569.06	1789.92
569.25	1730.53
569.45	1714.15
569.64	1632.23
569.84	1691.62
570.04	1767.40
570.23	1744.87
570.43	1640.42
570.62	1732.58
570.82	1701.86
571.01	1652.71
571.21	1695.72
571.40	1683.43
571.60	1757.16
571.79	1732.58
571.99	1810.40
572.18	1654.76
572.38	1710.05
572.57	1677.29
572.77	1746.92
572.96	1834.98
573.16	1767.40
573.35	1769.44
573.55	1869.80
573.74	1783.78
573.94	1732.58
574.13	1761.25
574.33	1779.68
574.52	1816.55
574.71	1785.83
574.91	1726.44
575.10	1662.95
575.30	1710.05
575.49	1693.67
575.69	1736.68
575.88	1773.54
576.08	1701.86
576.27	1802.21
576.47	1710.05
576.66	1783.78
576.86	1861.60
577.05	1779.68
577.25	1832.93
577.44	1800.16
577.64	1714.15
577.83	1777.64
578.02	1771.49
578.22	1853.41
578.41	1830.88
578.61	1685.48
578.80	1744.87
579.00	1812.45
579.19	1675.24
579.39	1806.31
579.58	1777.64
579.77	1781.73
579.97	1826.79
580.16	1808.36
580.36	1804.26
580.55	1798.12
580.75	1804.26
580.94	1800.16
581.13	1849.32
581.33	1906.66
581.52	1748.97
581.72	1898.47
581.91	1873.89
582.11	1685.48
582.30	1871.84
582.49	1732.58
582.69	1845.22
582.88	1798.12
583.08	1681.38
583.27	1773.54
583.47	1753.06
583.66	1722.34
583.85	1736.68
584.05	1757.16
584.24	1798.12
584.44	1767.40
584.63	1839.08
584.82	1822.69
585.02	1832.93
585.21	1791.97
585.41	1851.36
585.60	1806.31
585.79	1892.32
585.99	1955.81
586.18	1882.08
586.37	2148.32
586.57	3381.20
586.76	10198.88
586.96	25034.37
587.15	34721.26
587.34	40699.28
587.54	42503.54
587.73	37105.10
587.93	26541.68
588.12	21655.22
588.31	18415.34
588.51	16555.78
588.70	15142.68
588.89	14184.23
589.09	12658.49
589.28	11032.41
589.47	9463.66
589.67	7925.64
589.86	6580.12
590.06	4984.76
590.25	3868.61
590.44	3168.21
590.64	2566.10
590.83	2283.49
591.02	2148.32
591.22	1992.67
591.41	1898.47
591.60	1861.60
591.80	1935.33
591.99	1775.59
592.18	1781.73
592.38	1875.94
592.57	1777.64
592.76	1740.77
592.96	1763.30
593.15	1759.21
593.34	1804.26
593.54	1732.58
593.73	1761.25
593.92	1796.07
594.12	1705.96
594.31	1773.54
594.50	1820.64
594.70	1781.73
594.89	1896.42
595.08	1689.57
595.28	1671.14
595.47	1912.80
595.66	1843.17
595.86	1589.22
596.05	1671.14
596.24	1775.59
596.43	1779.68
596.63	1791.97
596.82	1800.16
597.01	1828.84
597.21	1843.17
597.40	1771.49
597.59	1767.40
597.79	1728.49
597.98	1759.21
598.17	1746.92
598.36	1767.40
598.56	1783.78
598.75	1753.06
598.94	1755.11
599.14	1705.96
599.33	1671.14
599.52	1820.64
599.71	1755.11
599.91	1769.44
600.10	1800.16
600.29	1765.35
600.48	1779.68
600.68	1783.78
600.87	1822.69
601.06	1652.71
601.26	1693.67
601.45	1744.87
601.64	1689.57
601.83	1824.74
602.03	1640.42
602.22	1685.48
602.41	1755.11
602.60	1861.60
602.80	1812.45
602.99	1701.86
603.18	1693.67
603.37	1689.57
603.57	1685.48
603.76	1781.73
603.95	1851.36
604.14	1656.81
604.34	1654.76
604.53	1765.35
604.72	1837.03
604.91	1796.07
605.10	1812.45
605.30	1710.05
605.49	1849.32
605.68	1787.88
605.87	1736.68
606.07	1679.33
606.26	1742.82
606.45	1736.68
606.64	1767.40
606.84	1640.42
607.03	1755.11
607.22	1787.88
607.41	1693.67
607.60	1804.26
607.80	1738.73
607.99	1650.66
608.18	1697.77
608.37	1722.34
608.56	1685.48
608.76	1718.25
608.95	1830.88
609.14	1746.92
609.33	1705.96
609.52	1728.49
609.72	1740.77
609.91	1759.21
610.10	1695.72
610.29	1779.68
610.48	1845.22
610.68	1839.08
610.87	1728.49
611.06	1806.31
611.25	1742.82
611.44	1765.35
611.63	1675.24
611.83	1755.11
612.02	1685.48
612.21	1818.60
612.40	1712.10
612.59	1673.19
612.79	1673.19
612.98	1734.63
613.17	1796.07
613.36	1722.34
613.55	1796.07
613.74	1695.72
613.93	1722.34
614.13	1751.01
614.32	1763.30
614.51	1806.31
614.70	1765.35
614.89	1771.49
615.08	1701.86
615.28	2117.60
615.47	1566.70
615.66	1763.30
615.85	1748.97
616.04	1841.12
616.23	1769.44
616.42	1708.01
616.62	1769.44
616.81	1771.49
617.00	1677.29
617.19	1689.57
617.38	1658.85
617.57	1751.01
617.76	1689.57
617.95	1714.15
618.15	1779.68
618.34	1830.88
618.53	1720.29
618.72	1789.92
618.91	1802.21
619.10	1816.55
619.29	1746.92
619.48	1615.85
619.68	1658.85
619.87	1705.96
620.06	1626.09
620.25	1787.88
620.44	1615.85
620.63	1746.92
620.82	1736.68
621.01	1742.82
621.20	1777.64
621.39	1738.73
621.59	1781.73
621.78	1642.47
621.97	1763.30
622.16	1720.29
622.35	1785.83
622.54	1816.55
622.73	1789.92
622.92	1753.06
623.11	1849.32
623.30	1742.82
623.49	1603.56
623.68	1718.25
623.88	1791.97
624.07	1734.63
624.26	1787.88
624.45	1697.77
624.64	1740.77
624.83	1787.88
625.02	1800.16
625.21	1626.09
625.40	1703.91
625.59	1800.16
625.78	1689.57
625.97	1841.12
626.16	1773.54
626.35	1632.23
626.54	1662.95
626.74	1787.88
626.93	1695.72
627.12	1689.57
627.31	1800.16
627.50	1742.82
627.69	1814.50
627.88	1695.72
628.07	1665.00
628.26	1652.71
628.45	1687.53
628.64	1632.23
628.83	1720.29
629.02	1646.57
629.21	1734.63
629.40	1734.63
629.59	1699.81
629.78	1730.53
629.97	1646.57
630.16	1779.68
630.35	1660.90
630.54	1753.06
630.73	1615.85
630.92	1701.86
631.11	1724.39
631.30	1734.63
631.49	1705.96
631.68	1730.53
631.87	1751.01
632.06	1652.71
632.25	1855.46
632.44	1724.39
632.63	1738.73
632.82	1624.04
633.01	1703.91
633.20	1673.19
633.39	1685.48
633.58	1642.47
633.77	1763.30
633.96	1673.19
634.15	1767.40
634.34	1703.91
634.53	1687.53
634.72	1714.15
634.91	1630.18
635.10	1732.58
635.29	1730.53
635.48	1701.86
635.67	1673.19
635.86	1640.42
636.05	1746.92
636.24	1619.94
636.43	1699.81
636.62	1818.60
636.81	1568.74
637.00	1720.29
637.19	1724.39
637.38	1730.53
637.57	1712.10
637.76	1656.81
637.95	1789.92
638.14	1730.53
638.33	1642.47
638.52	1734.63
638.71	1673.19
638.89	1566.70
639.08	1787.88
639.27	1789.92
639.46	1722.34
639.65	1763.30
639.84	1710.05
640.03	1855.46
640.22	1705.96
640.41	1789.92
640.60	1736.68
640.79	1722.34
640.98	1724.39
641.17	1671.14
641.36	1697.77
641.55	1761.25
641.74	1642.47
641.92	1748.97
642.11	1693.67
642.30	1615.85
642.49	1658.85
642.68	1775.59
642.87	1791.97
643.06	1677.29
643.25	1689.57
643.44	1685.48
643.63	1689.57
643.82	1759.21
644.00	1652.71
644.19	1753.06
644.38	1697.77
644.57	1654.76
644.76	1779.68
644.95	1734.63
645.14	1728.49
645.33	1753.06
645.52	1718.25
645.71	1648.61
645.89	1595.37
646.08	1728.49
646.27	1640.42
646.46	1822.69
646.65	1597.42
646.84	1689.57
647.03	1652.71
647.22	1804.26
647.40	1755.11
647.59	1652.71
647.78	1693.67
647.97	1667.05
648.16	1673.19
648.35	1834.98
648.54	1736.68
648.73	1740.77
648.91	1738.73
649.10	1744.87
649.29	1751.01
649.48	1746.92
649.67	1779.68
649.86	1730.53
650.05	1599.46
650.23	1669.09
650.42	1691.62
650.61	1744.87
650.80	1757.16
650.99	1820.64
651.18	1787.88
651.36	1771.49
651.55	1640.42
651.74	1812.45
651.93	1687.53
652.12	1685.48
652.31	1746.92
652.49	1763.30
652.68	1613.80
652.87	1728.49
653.06	1740.77
653.25	1730.53
653.44	1689.57
653.62	1834.98
653.81	1763.30
654.00	1705.96
654.19	1783.78
654.38	1906.66
654.56	1777.64
654.75	1710.05
654.94	1654.76
655.13	1765.35
655.32	1701.86
655.51	1701.86
655.69	1687.53
655.88	1755.11
656.07	1636.33
656.26	1710.05
656.45	1697.77
656.63	1714.15
656.82	1751.01
657.01	1789.92
657.20	1671.14
657.38	1771.49
657.57	1718.25
657.76	1705.96
657.95	1742.82
658.14	1722.34
658.32	1738.73
658.51	1681.38
658.70	1761.25
658.89	1759.21
659.08	1765.35
659.26	1806.31
659.45	1716.20
659.64	1771.49
659.83	1626.09
660.01	1964.00
660.20	1769.44
660.39	1755.11
660.58	1601.51
660.76	1763.30
660.95	1660.90
661.14	1763.30
661.33	1581.03
661.51	1658.85
661.70	1728.49
661.89	1718.25
662.08	1597.42
662.26	1632.23
662.45	1701.86
662.64	1798.12
662.83	1753.06
663.01	1691.62
663.20	1669.09
663.39	1800.16
663.58	1648.61
663.76	1695.72
663.95	1708.01
664.14	1632.23
664.32	1701.86
664.51	1648.61
664.70	1619.94
664.89	1755.11
665.07	1665.00
665.26	1841.12
665.45	1615.85
665.64	1773.54
665.82	1740.77
666.01	1791.97
666.20	1767.40
666.38	1834.98
666.57	1822.69
666.76	2140.13
666.95	4511.68
667.13	10622.81
667.32	15351.57
667.51	17934.06
667.69	19310.30
667.88	17895.15
668.07	12369.73
668.25	9717.61
668.44	8302.47
668.63	7497.61
668.81	6832.02
669.00	6293.41
669.19	5717.93
669.38	5136.31
669.56	4595.64
669.75	3903.43
669.94	3489.74
670.12	2822.10
670.31	2447.32
670.50	2242.53
670.68	2000.87
670.87	1896.42
671.06	1785.83
671.24	1761.25
671.43	1748.97
671.62	1763.30
671.80	1744.87
671.99	1708.01
672.18	1697.77
672.36	1789.92
672.55	1779.68
672.74	1683.43
672.92	1685.48
673.11	1726.44
673.29	1730.53
673.48	1767.40
673.67	1677.29
673.85	1808.36
674.04	1638.38
674.23	1767.40
674.41	1839.08
674.60	1650.66
674.79	1652.71
674.97	1644.52
675.16	1771.49
675.34	1775.59
675.53	1730.53
675.72	1726.44
675.90	1800.16
676.09	1667.05
676.28	1728.49
676.46	1681.38
676.65	1759.21
676.83	1681.38
677.02	1761.25
677.21	1738.73
677.39	1718.25
677.58	1638.38
677.77	1699.81
677.95	1712.10
678.14	1742.82
678.32	1695.72
678.51	1669.09
678.70	1826.79
678.88	1734.63
679.07	1699.81
679.25	1636.33
679.44	1720.29
679.63	1656.81
679.81	1703.91
680.00	1789.92
680.18	1722.34
680.37	1761.25
680.55	1689.57
680.74	1687.53
680.93	1593.32
681.11	1845.22
681.30	1759.21
681.48	1695.72
681.67	1675.24
681.85	1675.24
682.04	1718.25
682.23	1761.25
682.41	1677.29
682.60	1705.96
682.78	1763.30
682.97	1574.89
683.15	1667.05
683.34	1732.58
683.53	1761.25
683.71	1642.47
683.90	1769.44
684.08	1857.51
684.27	1689.57
684.45	1677.29
684.64	1775.59
684.82	1650.66
685.01	1738.73
685.19	1695.72
685.38	1765.35
685.57	1720.29
685.75	1679.33
685.94	1740.77
686.12	1673.19
686.31	1640.42
686.49	1796.07
686.68	1654.76
686.86	1759.21
687.05	1677.29
687.23	1802.21
687.42	1603.56
687.60	1630.18
687.79	1783.78
687.97	1832.93
688.16	1734.63
688.34	1773.54
688.53	1662.95
688.71	1814.50
688.90	1726.44
689.08	1724.39
689.27	1630.18
689.45	1712.10
689.64	1691.62
689.82	1761.25
690.01	1759.21
690.19	1716.20
690.38	1652.71
690.56	1830.88
690.75	1662.95
690.93	1710.05
691.12	1593.32
691.30	1746.92
691.49	1677.29
691.67	1677.29
691.86	1808.36
692.04	1640.42
692.23	1703.91
692.41	1671.14
692.60	1837.03
692.78	1775.59
692.97	1640.42
693.15	1781.73
693.34	1681.38
693.52	1789.92
693.71	1699.81
693.89	1675.24
694.08	1685.48
694.26	1767.40
694.44	1728.49
694.63	1761.25
694.81	1597.42
695.00	1673.19
695.18	1759.21
695.37	1855.46
695.55	1753.06
695.74	1689.57
695.92	1648.61
696.10	1691.62
696.29	1675.24
696.47	1738.73
696.66	1558.50
696.84	1587.18
697.03	1671.14
697.21	1830.88
697.40	2281.44
697.58	1775.59
697.76	1703.91
697.95	1677.29
698.13	1615.85
698.32	1671.14
698.50	1789.92
698.68	1746.92
698.87	1703.91
699.05	1736.68
699.24	1761.25
699.42	1691.62
699.61	1734.63
699.79	1738.73
699.97	1675.24
700.16	1658.85
700.34	1640.42
700.53	1757.16
700.71	1751.01
700.89	1812.45
701.08	1722.34
701.26	1748.97
701.45	2113.50
701.63	1648.61
701.81	1662.95
702.00	1648.61
702.18	1683.43
702.37	1660.90
702.55	1767.40
702.73	1697.77
702.92	1630.18
703.10	1751.01
703.28	1691.62
703.47	1771.49
703.65	1763.30
703.84	1812.45
704.02	1693.67
704.20	1751.01
704.39	1621.99
704.57	1658.85
704.75	1746.92
704.94	1720.29
705.12	1755.11
705.30	1845.22
705.49	2306.01
705.67	4368.32
705.86	9510.77
706.04	12726.08
706.22	14532.39
706.41	15433.49
706.59	13950.76
706.77	9604.97
706.96	7362.45
707.14	6639.51
707.32	6041.51
707.51	5564.33
707.69	4984.76
707.87	4173.76
708.06	3567.56
708.24	2994.13
708.42	2475.99
708.61	2265.05
708.79	1886.18
708.97	1863.65
709.16	1855.46
709.34	1720.29
709.52	1722.34
709.71	1722.34
709.89	1720.29
710.07	1708.01
710.26	1644.52
710.44	1697.77
710.62	1724.39
710.80	1767.40
710.99	1683.43
711.17	1806.31
711.35	1734.63
711.54	1665.00
711.72	1742.82
711.90	1746.92
712.09	1761.25
712.27	1673.19
712.45	1714.15
712.63	1632.23
712.82	1689.57
713.00	1742.82
713.18	1802.21
713.37	1812.45
713.55	1796.07
713.73	1705.96
713.91	1736.68
714.10	1665.00
714.28	1603.56
714.46	1787.88
714.65	1751.01
714.83	1662.95
715.01	1738.73
715.19	1656.81
715.38	1632.23
715.56	1744.87
715.74	1611.75
715.92	1628.14
716.11	1724.39
716.29	1570.79
716.47	1701.86
716.65	1624.04
716.84	1607.66
717.02	1714.15
717.20	1667.05
717.38	1677.29
717.57	1705.96
717.75	1724.39
717.93	1630.18
718.11	1738.73
718.30	1660.90
718.48	1705.96
718.66	1705.96
718.84	1781.73
719.03	1708.01
719.21	1624.04
719.39	1744.87
719.57	1669.09
719.75	1834.98
719.94	1685.48
720.12	1689.57
720.30	1640.42
720.48	1763.30
720.67	1689.57
720.85	1681.38
721.03	1675.24
721.21	1677.29
721.39	1726.44
721.58	1738.73
721.76	1691.62
721.94	1705.96
722.12	1660.90
722.30	1806.31
722.49	1699.81
722.67	1628.14
722.85	1669.09
723.03	1656.81
723.21	1693.67
723.40	1681.38
723.58	1689.57
723.76	1771.49
723.94	1714.15
724.12	1658.85
724.30	1730.53
724.49	1720.29
724.67	1624.04
724.85	1783.78
725.03	1624.04
725.21	1705.96
725.40	1757.16
725.58	1669.09
725.76	1816.55
725.94	1714.15
726.12	1654.76
726.30	1660.90
726.49	1654.76
726.67	1656.81
726.85	1746.92
727.03	1763.30
727.21	2050.02
727.39	2828.24
727.57	3792.84
727.76	4167.62
727.94	4341.69
728.12	4423.61
728.30	3786.69
728.48	3063.76
728.66	2672.60
728.84	2467.80
729.03	2316.25
729.21	2213.85
729.39	2002.91
729.57	1806.31
729.75	1791.97
729.93	1787.88
730.11	1656.81
730.30	1665.00
730.48	1681.38
730.66	1841.12
730.84	1767.40
731.02	1648.61
731.20	1718.25
731.38	1710.05
731.56	1665.00
731.74	1640.42
731.93	1695.72
732.11	1748.97
732.29	1619.94
732.47	1775.59
732.65	1689.57
732.83	1816.55
733.01	1665.00
733.19	1617.90
733.37	1720.29
733.56	1767.40
733.74	1705.96
733.92	1734.63
734.10	1687.53
734.28	1726.44
734.46	1546.22
734.64	1767.40
734.82	1644.52
735.00	1648.61
735.18	1769.44
735.36	1705.96
735.54	1726.44
735.73	1726.44
735.91	1624.04
736.09	1783.78
736.27	1683.43
736.45	1748.97
736.63	1576.94
736.81	1669.09
736.99	1761.25
737.17	1777.64
737.35	1646.57
737.53	1679.33
737.71	1687.53
737.89	1888.23
738.07	1705.96
738.25	1566.70
738.43	1640.42
738.61	1734.63
738.80	1611.75
738.98	1662.95
739.16	1624.04
739.34	1714.15
739.52	1796.07
739.70	1708.01
739.88	1769.44
740.06	1720.29
740.24	1621.99
740.42	1718.25
740.60	1638.38
740.78	1701.86
740.96	1667.05
741.14	1650.66
741.32	1718.25
741.50	1570.79
741.68	1837.03
741.86	1816.55
742.04	1675.24
742.22	1748.97
742.40	1708.01
742.58	1701.86
742.76	1677.29
742.94	1701.86
743.12	1644.52
743.30	1728.49
743.48	1650.66
743.66	1701.86
743.84	1800.16
744.02	1669.09
744.20	1673.19
744.38	1642.47
744.56	1611.75
744.74	1751.01
744.92	1705.96
745.10	1753.06
745.28	1720.29
745.46	1765.35
745.64	1742.82
745.82	1677.29
746.00	1843.17
746.18	1726.44
746.36	1619.94
746.54	1718.25
746.72	1701.86
746.90	1642.47
747.08	1839.08
747.26	1660.90
747.44	1814.50
747.62	1753.06
747.80	1640.42
747.98	1814.50
748.15	1767.40
748.33	1828.84
748.51	1673.19
748.69	1751.01
748.87	1648.61
749.05	1689.57
749.23	1738.73
749.41	1701.86
749.59	1658.85
749.77	1695.72
749.95	1689.57
750.13	1609.70
750.31	1728.49
750.49	1617.90
750.67	1701.86
750.85	1802.21
751.03	1732.58
751.20	1861.60
751.38	1687.53
751.56	1806.31
751.74	1695.72
751.92	1681.38
752.10	1667.05
752.28	1677.29
752.46	1601.51
752.64	1710.05
752.82	1640.42
753.00	1789.92
753.18	1640.42
753.35	1652.71
753.53	1705.96
753.71	1687.53
753.89	1697.77
754.07	1693.67
754.25	1736.68
754.43	1730.53
754.61	1634.28
754.79	1720.29
754.97	1726.44
755.14	1693.67
755.32	1689.57
755.50	1665.00
755.68	1599.46
755.86	1652.71
756.04	1683.43
756.22	1566.70
756.40	1722.34
756.57	1849.32
756.75	1636.33
756.93	1705.96
757.11	1775.59
757.29	1656.81
757.47	1669.09
757.65	1548.26
757.82	1615.85
758.00	1689.57
758.18	1656.81
758.36	1693.67
758.54	1800.16
758.72	1681.38
758.90	1796.07
759.07	1697.77
759.25	1578.98
759.43	1761.25
759.61	1591.27
759.79	2131.94
759.97	1724.39
760.15	1740.77
760.32	1652.71
760.50	1732.58
760.68	1865.70
760.86	1564.65
761.04	1818.60
761.22	1683.43
761.39	1718.25
761.57	1763.30
761.75	1683.43
761.93	1705.96
762.11	1705.96
762.28	1687.53
762.46	1683.43
762.64	1738.73
762.82	1636.33
763.00	1699.81
763.18	1773.54
763.35	1619.94
763.53	1708.01
763.71	1671.14
763.89	1681.38
764.07	1701.86
764.24	1705.96
764.42	1632.23
764.60	1591.27
764.78	1777.64
764.96	1665.00
765.13	1724.39
765.31	1751.01
765.49	1705.96
765.67	1644.52
765.84	1607.66
766.02	1652.71
766.20	1654.76
766.38	1708.01
766.56	1703.91
766.73	1669.09
766.91	1687.53
767.09	1742.82
767.27	1763.30
767.44	1691.62
767.62	1730.53
767.80	1701.86
767.98	1716.20
768.15	1675.24
768.33	1816.55
768.51	1751.01
768.69	1701.86
768.87	1755.11
769.04	1683.43
769.22	1730.53
769.40	1779.68
769.58	1787.88
769.75	1683.43
769.93	1744.87
770.11	1681.38
770.28	1667.05
770.46	1677.29
770.64	1665.00
770.82	1685.48
770.99	1712.10
771.17	1673.19
771.35	1734.63
771.53	1656.81
771.70	1703.91
771.88	1765.35
772.06	1656.81
772.23	1599.46
772.41	1708.01
772.59	1705.96
772.77	1646.57
772.94	1624.04
773.12	1732.58
773.30	1652.71
773.47	1675.24
773.65	1660.90
773.83	1806.31
774.01	1671.14
774.18	1613.80
774.36	1714.15
774.54	1611.75
774.71	1683.43
774.89	1640.42
775.07	1660.90
775.24	1662.95
775.42	1634.28
775.60	1796.07
775.78	1673.19
775.95	1671.14
776.13	1652.71
776.31	1628.14
776.48	1757.16
776.66	1718.25
776.84	1605.61
777.01	1642.47
777.19	1687.53
777.37	1673.19
777.54	1767.40
777.72	1710.05
777.90	1714.15
778.07	1619.94
778.25	1834.98
778.43	1740.77
778.60	1671.14
778.78	1806.31
778.96	1712.10
779.13	1691.62
779.31	1796.07
779.49	1644.52
779.66	1767.40
779.84	1646.57
780.01	1695.72
780.19	1677.29
780.37	1812.45
780.54	1662.95
780.72	1658.85
780.90	1681.38
781.07	1716.20
781.25	1634.28
781.43	1843.17
781.60	1634.28
781.78	1718.25
781.95	1736.68
782.13	1718.25
782.31	1669.09
782.48	1542.12
782.66	1667.05
782.83	1755.11
783.01	1787.88
783.19	1726.44
783.36	1691.62
783.54	1722.34
783.72	1726.44
783.89	1662.95
784.07	1695.72
784.24	1712.10
784.42	1779.68
784.60	1714.15
784.77	1624.04
784.95	1605.61
785.12	1718.25
785.30	1712.10
785.47	1691.62
785.65	1660.90
785.83	1691.62
786.00	1728.49
786.18	1691.62
786.35	1591.27
786.53	1681.38
786.71	1710.05
786.88	1697.77
787.06	1703.91
787.23	1710.05
787.41	1632.23
787.58	1714.15
787.76	1607.66
787.94	1703.91
788.11	1685.48
788.29	1648.61
788.46	1648.61
788.64	1673.19
788.81	1732.58
788.99	1671.14
789.16	1642.47
789.34	1685.48
789.52	1695.72
789.69	1658.85
789.87	1597.42
790.04	1720.29
790.22	1710.05
790.39	1900.52
790.57	1628.14
790.74	1656.81
790.92	1789.92
791.09	1667.05
791.27	1722.34
791.44	1777.64
791.62	1759.21
791.79	1773.54
791.97	1687.53
792.15	1837.03
792.32	1648.61
792.50	1757.16
792.67	1779.68
792.85	1773.54
793.02	1656.81
793.20	1662.95
793.37	1693.67
793.55	1652.71
793.72	1673.19
793.90	1703.91
794.07	1697.77
794.25	1710.05
794.42	1763.30
794.60	1714.15
794.77	1646.57
794.95	1722.34
795.12	1730.53
795.30	1665.00
795.47	1630.18
795.65	1839.08
795.82	1697.77
796.00	1607.66
796.17	1701.86
796.34	1658.85
796.52	1710.05
796.69	1757.16
796.87	1732.58
797.04	1726.44
797.22	1757.16
797.39	1669.09
797.57	1726.44
797.74	1724.39
797.92	1726.44
798.09	1667.05
798.27	1742.82
798.44	1769.44
798.62	1660.90
798.79	1662.95
798.96	1685.48
799.14	1732.58
799.31	1814.50
799.49	1710.05
799.66	1693.67
799.84	1695.72
800.01	1554.41
800.19	1656.81
800.36	1595.37
800.53	1703.91
800.71	1656.81
800.88	1806.31
801.06	1716.20
801.23	1705.96
801.41	1714.15
801.58	1609.70
801.75	1650.66
801.93	1693.67
802.10	1738.73
802.28	1665.00
802.45	1687.53
802.63	1724.39
802.80	1783.78
802.97	1714.15
803.15	1714.15
803.32	1673.19
803.50	1677.29
803.67	1617.90
803.84	1652.71
804.02	1781.73
804.19	1652.71
804.37	1624.04
804.54	1615.85
804.71	1591.27
804.89	1701.86
805.06	1621.99
805.24	1621.99
805.41	1662.95
805.58	1644.52
805.76	1830.88
805.93	1742.82
806.10	1845.22
806.28	1759.21
806.45	1738.73
806.63	1720.29
806.80	1650.66
806.97	1728.49
807.15	1667.05
807.32	1714.15
807.49	1701.86
807.67	1578.98
807.84	1687.53
808.01	1533.93
808.19	1734.63
808.36	1791.97
808.54	1640.42
808.71	1630.18
808.88	1650.66
809.06	1728.49
809.23	1775.59
809.40	1595.37
809.58	1757.16
809.75	1763.30
809.92	1574.89
810.10	1791.97
810.27	1703.91
810.44	1732.58
810.62	1701.86
810.79	1695.72
810.96	1728.49
811.14	1642.47
811.31	1720.29
811.48	1755.11
811.66	1681.38
811.83	1736.68
812.00	1705.96
812.18	1681.38
812.35	1816.55
812.52	1683.43
812.69	1660.90
812.87	1708.01
813.04	1654.76
813.21	1701.86
813.39	1640.42
813.56	1669.09
813.73	1748.97
813.91	1636.33
814.08	1650.66
814.25	1755.11
814.42	1621.99
814.60	1658.85
814.77	1736.68
814.94	1695.72
815.12	1691.62
815.29	1726.44
815.46	1740.77
815.63	1667.05
815.81	1697.77
815.98	1624.04
816.15	1681.38
816.33	1724.39
816.50	1734.63
816.67	1626.09
816.84	1679.33
817.02	1619.94
817.19	1665.00
817.36	1742.82
817.53	1751.01
817.71	1615.85
817.88	1828.84
818.05	1638.38
818.22	1638.38
818.40	1783.78
818.57	1701.86
818.74	1669.09
818.91	1714.15
819.09	1697.77
819.26	1746.92
819.43	1652.71
819.60	1677.29
819.78	1773.54
819.95	1841.12
820.12	1699.81
820.29	1781.73
820.47	1824.74
820.64	1667.05
820.81	1669.09
820.98	1583.08
821.15	1771.49
821.33	1734.63
821.50	1675.24
821.67	1736.68
821.84	1656.81
822.02	1751.01
822.19	1720.29
822.36	1699.81
822.53	1710.05
822.70	1669.09
822.88	1650.66
823.05	1826.79
823.22	1669.09
823.39	1775.59
823.56	1738.73
823.74	1695.72
823.91	1660.90
824.08	1626.09
824.25	1681.38
824.42	1779.68
824.60	1626.09
824.77	1679.33
824.94	1652.71
825.11	1751.01
825.28	1638.38
825.45	1730.53
825.63	1722.34
825.80	1638.38
825.97	1740.77
826.14	1689.57
826.31	1681.38
826.48	1691.62
826.66	1697.77
826.83	1701.86
827.00	1794.02
827.17	1705.96
827.34	1691.62
827.51	1691.62
827.69	1703.91
827.86	1675.24
828.03	1632.23
828.20	1751.01
828.37	1632.23
828.54	1695.72
828.71	1660.90
828.89	1779.68
829.06	1662.95
829.23	1734.63
829.40	1662.95
829.57	1636.33
829.74	1724.39
829.91	1634.28
830.09	1646.57
830.26	1755.11
830.43	1789.92
830.60	1681.38
830.77	1734.63
830.94	1779.68
831.11	1722.34
831.28	1742.82
831.46	1771.49
831.63	1654.76
831.80	1732.58
831.97	1751.01
832.14	1679.33
832.31	1746.92
832.48	1685.48
832.65	1779.68
832.82	1669.09
832.99	1751.01
833.17	1650.66
833.34	1726.44
833.51	1720.29
833.68	1574.89
833.85	1734.63
834.02	1640.42
834.19	1703.91
834.36	1656.81
834.53	1671.14
834.70	1781.73
834.87	1642.47
835.04	1720.29
835.22	1703.91
835.39	1667.05
835.56	1699.81
835.73	1619.94
835.90	1734.63
836.07	1656.81
836.24	1720.29
836.41	1587.18
836.58	1646.57
836.75	1748.97
836.92	1685.48
837.09	1648.61
837.26	1828.84
837.43	1689.57
837.60	1685.48
837.77	1675.24
837.94	1718.25
838.12	1843.17
838.29	1705.96
838.46	1712.10
838.63	1687.53
838.80	1824.74
838.97	1755.11
839.14	1673.19
839.31	1703.91
839.48	1669.09
839.65	1642.47
839.82	1746.92
839.99	1648.61
840.16	1712.10
840.33	1652.71
840.50	1705.96
840.67	1611.75
840.84	1550.31
841.01	1763.30
841.18	1658.85
841.35	1660.90
841.52	1685.48
841.69	1771.49
841.86	1685.48
842.03	1695.72
842.20	1740.77
842.37	1624.04
842.54	1642.47
842.71	1652.71
842.88	1662.95
843.05	1708.01
843.22	1738.73
843.39	1703.91
843.56	1714.15
843.73	1619.94
843.90	1763.30
844.07	1648.61
844.24	1693.67
844.41	1755.11
844.58	1652.71
844.75	1730.53
844.92	1769.44
845.09	1691.62
845.26	1656.81
845.43	1685.48
845.60	1630.18
845.77	1693.67
845.94	1732.58
846.10	1761.25
846.27	1660.90
846.44	1640.42
846.61	1693.67
846.78	1675.24
846.95	1843.17
847.12	1658.85
847.29	1642.47
847.46	1665.00
847.63	1789.92
847.80	1640.42
847.97	1701.86
848.14	1787.88
848.31	1705.96
848.48	1656.81
848.65	1673.19
848.82	1669.09
848.98	1818.60
849.15	1691.62
849.32	1775.59
849.49	1820.64
849.66	1740.77
849.83	1699.81
850.00	1660.90
850.17	1640.42
850.34	1650.66
850.51	1650.66
850.68	1662.95
850.85	1841.12
851.01	1761.25
851.18	1732.58
851.35	1685.48
851.52	1691.62
851.69	1656.81
851.86	1611.75
852.03	1771.49
852.20	1789.92
852.37	1728.49
852.53	1587.18
852.70	1714.15
852.87	1712.10
853.04	1718.25
853.21	1683.43
853.38	1748.97
853.55	1740.77
853.72	1839.08
853.89	1673.19
854.05	1652.71
854.22	1654.76
854.39	1648.61
854.56	1759.21
854.73	1705.96
854.90	1665.00
855.07	1632.23
855.23	1607.66
855.40	1689.57
855.57	1705.96
855.74	1593.32
855.91	1800.16
856.08	1705.96
856.25	1669.09
856.41	1738.73
856.58	1685.48
856.75	1763.30
856.92	1646.57
857.09	1759.21
857.26	1677.29
857.42	1593.32
857.59	1722.34
857.76	1722.34
857.93	1771.49
858.10	1681.38
858.27	1650.66
858.43	1722.34
858.60	1671.14
858.77	1613.80
858.94	1636.33
859.11	1814.50
859.27	1667.05
859.44	1673.19
859.61	1839.08
859.78	1755.11
859.95	1685.48
860.12	1673.19
860.28	1771.49
860.45	1820.64
860.62	1665.00
860.79	1667.05
860.95	1677.29
861.12	1669.09
861.29	1656.81
861.46	1626.09
861.63	1652.71
861.79	1722.34
861.96	1757.16
862.13	1644.52
862.30	1677.29
862.47	1697.77
862.63	1626.09
862.80	1828.84
862.97	1732.58
863.14	1638.38
863.30	1681.38
863.47	1681.38
863.64	1695.72
863.81	1761.25
863.97	1675.24
864.14	1771.49
864.31	1734.63
864.48	1722.34
864.65	1677.29
864.81	1701.86
864.98	1705.96
865.15	1767.40
865.32	1763.30
865.48	1785.83
865.65	1718.25
865.82	1656.81
865.98	1699.81
866.15	1734.63
866.32	1767.40
866.49	1632.23
866.65	1765.35
866.82	1640.42
866.99	1685.48
867.16	1687.53
867.32	1681.38
867.49	1673.19
867.66	1673.19
867.83	1615.85
867.99	1636.33
868.16	1685.48
868.33	1613.80
868.49	1691.62
868.66	1726.44
868.83	1759.21
868.99	1687.53
869.16	1658.85
869.33	1740.77
869.50	1757.16
869.66	1714.15
869.83	1665.00
870.00	1597.42
870.16	1712.10
870.33	1736.68
870.50	1722.34
870.66	1658.85
870.83	1738.73
871.00	1720.29
871.17	1671.14
871.33	1705.96
871.50	1693.67
871.67	1701.86
871.83	1525.74
872.00	1810.40
872.17	1656.81
872.33	1783.78
872.50	1761.25
872.67	1634.28
872.83	1687.53
873.00	1779.68
873.17	1658.85
873.33	1746.92
873.50	1705.96
873.67	1632.23
873.83	1615.85
874.00	1759.21
874.16	1726.44
874.33	1705.96
874.50	1605.61
874.66	1689.57
874.83	1730.53
875.00	1767.40
875.16	1820.64
875.33	1748.97
875.50	1617.90
875.66	1679.33
875.83	1742.82
875.99	1730.53
876.16	1746.92
876.33	1599.46
876.49	1681.38
876.66	1806.31
876.83	1667.05
876.99	1603.56
877.16	1746.92
877.32	1660.90
877.49	1636.33
877.66	1681.38
877.82	1767.40
877.99	1748.97
878.15	1763.30
878.32	1665.00
878.49	1708.01
878.65	1671.14
878.82	1828.84
878.98	1624.04
879.15	1738.73
879.32	1734.63
879.48	1656.81
879.65	1710.05
879.81	1599.46
879.98	1683.43
880.15	1714.15
880.31	1701.86
880.48	1705.96
880.64	1830.88
880.81	1746.92
880.97	1814.50
881.14	1736.68
881.31	1730.53
881.47	1791.97
881.64	1806.31
881.80	1615.85
881.97	1708.01
882.13	1744.87
882.30	1574.89
882.47	1619.94
882.63	1683.43
882.80	1675.24
882.96	1599.46
883.13	1708.01
883.29	1710.05
883.46	1724.39
883.62	1755.11
883.79	1699.81
883.95	1746.92
884.12	1652.71
884.29	1746.92
884.45	1679.33
884.62	1673.19
884.78	1679.33
884.95	1839.08
885.11	1636.33
885.28	1740.77
885.44	1640.42
885.61	1662.95
885.77	1748.97
885.94	1705.96
886.10	1621.99
886.27	1675.24
886.43	1796.07
886.60	1853.41
886.76	1701.86
886.93	1665.00
887.09	1693.67
887.26	1638.38
887.42	1673.19
887.59	1722.34
887.75	1777.64
887.92	1751.01
888.08	1734.63
888.25	1736.68
888.41	1816.55
888.58	1652.71
888.74	1568.74
888.91	1695.72
>>>>>End Processed Spectral Data<<<<<
