SpectraSuite Data File
++++++++++++++++++++++++++++++++++++
Date: Mon Jun 06 14:59:37 CEST 2016
User: root
Dark Spectrum Present: No
Reference Spectrum Present: No
Number of Sampled Component Spectra: 1
Spectrometers: USB4C02835
Integration Time (usec): 100000 (USB4C02835)
Spectra Averaged: 1 (USB4C02835)
Boxcar Smoothing: 0 (USB4C02835)
Correct for Electrical Dark: No (USB4C02835)
Strobe/Lamp Enabled: No (USB4C02835)
Correct for Detector Non-linearity: No (USB4C02835)
Correct for Stray Light: No (USB4C02835)
Number of Pixels in Processed Spectrum: 3648
>>>>>Begin Processed Spectral Data<<<<<
177.47	1488.87
177.69	1488.87
177.91	1488.87
178.13	1476.59
178.36	1458.15
178.58	1656.81
178.80	1642.47
179.02	1628.14
179.24	1638.38
179.46	1738.73
179.68	1771.49
179.90	1601.51
180.13	1726.44
180.35	1603.56
180.57	1669.09
180.79	1736.68
181.01	1761.25
181.23	1877.99
181.45	1710.05
181.67	1714.15
181.90	1726.44
182.12	1642.47
182.34	1652.71
182.56	1658.85
182.78	1785.83
183.00	1646.57
183.22	1714.15
183.44	1667.05
183.66	1841.12
183.89	1742.82
184.11	1644.52
184.33	1773.54
184.55	1738.73
184.77	1697.77
184.99	1681.38
185.21	1695.72
185.43	1779.68
185.65	1660.90
185.87	1779.68
186.10	1845.22
186.32	1871.84
186.54	1757.16
186.76	1695.72
186.98	1763.30
187.20	1667.05
187.42	1701.86
187.64	1615.85
187.86	1742.82
188.08	1787.88
188.30	1689.57
188.52	1773.54
188.75	1730.53
188.97	1779.68
189.19	1712.10
189.41	1714.15
189.63	1791.97
189.85	1640.42
190.07	1560.55
190.29	1581.03
190.51	1734.63
190.73	1636.33
190.95	1779.68
191.17	1681.38
191.39	1736.68
191.61	1652.71
191.84	1644.52
192.06	1677.29
192.28	1615.85
192.50	1834.98
192.72	1732.58
192.94	1697.77
193.16	1800.16
193.38	1726.44
193.60	1652.71
193.82	1744.87
194.04	1765.35
194.26	1724.39
194.48	1646.57
194.70	1607.66
194.92	1648.61
195.14	1724.39
195.36	1757.16
195.58	1720.29
195.80	1609.70
196.02	1615.85
196.24	1718.25
196.46	1626.09
196.69	1685.48
196.91	1816.55
197.13	1564.65
197.35	1679.33
197.57	1806.31
197.79	1722.34
198.01	1734.63
198.23	1748.97
198.45	1699.81
198.67	1697.77
198.89	1695.72
199.11	1761.25
199.33	1646.57
199.55	1578.98
199.77	1726.44
199.99	1763.30
200.21	1626.09
200.43	1751.01
200.65	1583.08
200.87	1542.12
201.09	1669.09
201.31	1712.10
201.53	1734.63
201.75	1751.01
201.97	1693.67
202.19	1769.44
202.41	1765.35
202.63	1849.32
202.85	1769.44
203.07	1697.77
203.29	1708.01
203.51	1599.46
203.73	1636.33
203.95	1882.08
204.17	1656.81
204.39	1681.38
204.61	1613.80
204.83	1693.67
205.05	1716.20
205.27	1716.20
205.49	1769.44
205.71	1740.77
205.93	1626.09
206.15	1689.57
206.37	1720.29
206.59	1691.62
206.81	1638.38
207.03	1697.77
207.25	1667.05
207.47	1673.19
207.69	1677.29
207.91	1767.40
208.13	1808.36
208.34	1634.28
208.56	1708.01
208.78	1697.77
209.00	1667.05
209.22	1703.91
209.44	1662.95
209.66	1642.47
209.88	1593.32
210.10	1656.81
210.32	1689.57
210.54	1748.97
210.76	1660.90
210.98	1665.00
211.20	1595.37
211.42	1708.01
211.64	1763.30
211.86	1665.00
212.08	1759.21
212.30	1748.97
212.52	1640.42
212.74	1703.91
212.96	1689.57
213.17	1703.91
213.39	1646.57
213.61	1714.15
213.83	1640.42
214.05	1675.24
214.27	1714.15
214.49	1644.52
214.71	1705.96
214.93	1789.92
215.15	1708.01
215.37	1740.77
215.59	1687.53
215.81	1691.62
216.03	1755.11
216.24	1705.96
216.46	1675.24
216.68	1679.33
216.90	1712.10
217.12	1796.07
217.34	1683.43
217.56	1685.48
217.78	1660.90
218.00	1796.07
218.22	1693.67
218.44	1697.77
218.66	1726.44
218.87	1732.58
219.09	1603.56
219.31	1771.49
219.53	1703.91
219.75	1648.61
219.97	1640.42
220.19	1781.73
220.41	1654.76
220.63	1759.21
220.85	1730.53
221.06	1632.23
221.28	1753.06
221.50	1669.09
221.72	1761.25
221.94	1705.96
222.16	1757.16
222.38	1726.44
222.60	1748.97
222.82	1701.86
223.03	1804.26
223.25	1630.18
223.47	1710.05
223.69	1802.21
223.91	1703.91
224.13	1658.85
224.35	1665.00
224.57	1699.81
224.78	1804.26
225.00	1638.38
225.22	1724.39
225.44	1640.42
225.66	1751.01
225.88	1640.42
226.10	1834.98
226.32	1740.77
226.53	1820.64
226.75	1673.19
226.97	1681.38
227.19	1732.58
227.41	1644.52
227.63	1570.79
227.85	1732.58
228.06	1734.63
228.28	1718.25
228.50	1738.73
228.72	1642.47
228.94	1574.89
229.16	1667.05
229.37	1652.71
229.59	1685.48
229.81	1767.40
230.03	1644.52
230.25	1650.66
230.47	1607.66
230.69	1597.42
230.90	1728.49
231.12	1615.85
231.34	1648.61
231.56	1697.77
231.78	1595.37
232.00	1755.11
232.21	1716.20
232.43	1621.99
232.65	1572.84
232.87	1730.53
233.09	1566.70
233.30	1701.86
233.52	1751.01
233.74	1751.01
233.96	1652.71
234.18	1642.47
234.40	1665.00
234.61	1853.41
234.83	1679.33
235.05	1607.66
235.27	1851.36
235.49	1777.64
235.70	1761.25
235.92	1812.45
236.14	1714.15
236.36	1884.13
236.58	1640.42
236.79	1796.07
237.01	1652.71
237.23	1683.43
237.45	1822.69
237.67	1650.66
237.88	1685.48
238.10	1763.30
238.32	1650.66
238.54	1708.01
238.76	1722.34
238.97	1679.33
239.19	1638.38
239.41	1763.30
239.63	1806.31
239.85	1675.24
240.06	1695.72
240.28	1742.82
240.50	1726.44
240.72	1705.96
240.93	1683.43
241.15	1810.40
241.37	1701.86
241.59	1775.59
241.81	1708.01
242.02	1648.61
242.24	1781.73
242.46	1679.33
242.68	1617.90
242.89	1763.30
243.11	1646.57
243.33	1671.14
243.55	1757.16
243.76	1759.21
243.98	1718.25
244.20	1732.58
244.42	1705.96
244.64	1738.73
244.85	1611.75
245.07	1662.95
245.29	1744.87
245.51	1705.96
245.72	1679.33
245.94	1732.58
246.16	1724.39
246.38	1712.10
246.59	1642.47
246.81	1734.63
247.03	1722.34
247.24	1585.13
247.46	1595.37
247.68	1656.81
247.90	1697.77
248.11	1699.81
248.33	1800.16
248.55	1736.68
248.77	1738.73
248.98	1703.91
249.20	1775.59
249.42	1617.90
249.64	1656.81
249.85	1634.28
250.07	1701.86
250.29	1703.91
250.50	1730.53
250.72	1617.90
250.94	1726.44
251.16	1834.98
251.37	1773.54
251.59	1779.68
251.81	1738.73
252.02	1794.02
252.24	1665.00
252.46	1658.85
252.68	1679.33
252.89	1615.85
253.11	1570.79
253.33	1824.74
253.54	1820.64
253.76	1738.73
253.98	1675.24
254.20	1683.43
254.41	1593.32
254.63	1703.91
254.85	1611.75
255.06	1701.86
255.28	1671.14
255.50	1681.38
255.71	1636.33
255.93	1605.61
256.15	1636.33
256.36	1736.68
256.58	1685.48
256.80	1779.68
257.02	1636.33
257.23	1632.23
257.45	1740.77
257.67	1693.67
257.88	1642.47
258.10	1689.57
258.32	1738.73
258.53	1665.00
258.75	1761.25
258.97	1621.99
259.18	1656.81
259.40	1714.15
259.62	1736.68
259.83	1837.03
260.05	1732.58
260.27	1961.95
260.48	1738.73
260.70	1654.76
260.92	1638.38
261.13	1732.58
261.35	1654.76
261.57	1708.01
261.78	1673.19
262.00	1673.19
262.22	1755.11
262.43	1767.40
262.65	1621.99
262.86	1601.51
263.08	1791.97
263.30	1710.05
263.51	1603.56
263.73	1683.43
263.95	1828.84
264.16	1626.09
264.38	1615.85
264.60	1734.63
264.81	1738.73
265.03	1759.21
265.25	1736.68
265.46	1685.48
265.68	1742.82
265.89	1685.48
266.11	1621.99
266.33	1730.53
266.54	1742.82
266.76	1810.40
266.98	1681.38
267.19	1808.36
267.41	1744.87
267.62	1798.12
267.84	1613.80
268.06	1736.68
268.27	1681.38
268.49	1802.21
268.70	1701.86
268.92	1667.05
269.14	1621.99
269.35	1665.00
269.57	1671.14
269.79	1708.01
270.00	1689.57
270.22	1802.21
270.43	1656.81
270.65	1554.41
270.87	1742.82
271.08	1730.53
271.30	1744.87
271.51	1683.43
271.73	1771.49
271.95	1697.77
272.16	1689.57
272.38	1746.92
272.59	1787.88
272.81	1708.01
273.02	1748.97
273.24	1697.77
273.46	1693.67
273.67	1601.51
273.89	1607.66
274.10	1673.19
274.32	1759.21
274.54	1714.15
274.75	1728.49
274.97	1667.05
275.18	1832.93
275.40	1716.20
275.61	1687.53
275.83	1695.72
276.05	1679.33
276.26	1662.95
276.48	1753.06
276.69	1644.52
276.91	1689.57
277.12	1812.45
277.34	1771.49
277.55	1755.11
277.77	1730.53
277.99	1640.42
278.20	1671.14
278.42	1619.94
278.63	1642.47
278.85	1636.33
279.06	1624.04
279.28	1665.00
279.49	1849.32
279.71	1753.06
279.93	1705.96
280.14	1748.97
280.36	1658.85
280.57	1775.59
280.79	1783.78
281.00	1642.47
281.22	1693.67
281.43	1800.16
281.65	1578.98
281.86	1648.61
282.08	1740.77
282.29	1845.22
282.51	1640.42
282.73	1617.90
282.94	1632.23
283.16	1738.73
283.37	1837.03
283.59	1755.11
283.80	1673.19
284.02	1648.61
284.23	1730.53
284.45	1662.95
284.66	1583.08
284.88	1665.00
285.09	1763.30
285.31	1708.01
285.52	1712.10
285.74	1638.38
285.95	1789.92
286.17	1660.90
286.38	1798.12
286.60	1640.42
286.81	1708.01
287.03	1734.63
287.24	1734.63
287.46	1687.53
287.67	1640.42
287.89	1802.21
288.10	1726.44
288.32	1705.96
288.53	1800.16
288.75	1665.00
288.96	1744.87
289.18	1691.62
289.39	1675.24
289.61	1724.39
289.82	1787.88
290.04	1779.68
290.25	1640.42
290.47	1691.62
290.68	1716.20
290.90	1796.07
291.11	1599.46
291.33	1710.05
291.54	1667.05
291.76	1708.01
291.97	1759.21
292.18	1665.00
292.40	1669.09
292.61	1675.24
292.83	1761.25
293.04	1777.64
293.26	1736.68
293.47	1724.39
293.69	1558.50
293.90	1658.85
294.12	1806.31
294.33	1679.33
294.55	1722.34
294.76	1781.73
294.97	1779.68
295.19	1816.55
295.40	1662.95
295.62	1683.43
295.83	1728.49
296.05	1710.05
296.26	1740.77
296.48	1656.81
296.69	1671.14
296.90	1691.62
297.12	1738.73
297.33	1718.25
297.55	1642.47
297.76	1738.73
297.98	1724.39
298.19	1675.24
298.41	1644.52
298.62	1650.66
298.83	1771.49
299.05	1757.16
299.26	1675.24
299.48	1634.28
299.69	1718.25
299.90	1697.77
300.12	1589.22
300.33	1779.68
300.55	1615.85
300.76	1718.25
300.98	1671.14
301.19	1716.20
301.40	1771.49
301.62	1701.86
301.83	1701.86
302.05	1718.25
302.26	1724.39
302.47	1724.39
302.69	1624.04
302.90	1652.71
303.12	1556.46
303.33	1748.97
303.54	1820.64
303.76	1699.81
303.97	1695.72
304.19	1742.82
304.40	1626.09
304.61	1722.34
304.83	1771.49
305.04	1783.78
305.26	1755.11
305.47	1691.62
305.68	1683.43
305.90	1615.85
306.11	1755.11
306.33	1681.38
306.54	1697.77
306.75	1679.33
306.97	1628.14
307.18	1685.48
307.39	1683.43
307.61	1734.63
307.82	1734.63
308.04	1638.38
308.25	1634.28
308.46	1746.92
308.68	1689.57
308.89	1652.71
309.10	1767.40
309.32	1701.86
309.53	1648.61
309.74	1724.39
309.96	1701.86
310.17	1724.39
310.39	1681.38
310.60	1740.77
310.81	1753.06
311.03	1591.27
311.24	1765.35
311.45	1718.25
311.67	1757.16
311.88	1681.38
312.09	1775.59
312.31	1607.66
312.52	1714.15
312.73	1740.77
312.95	1552.36
313.16	1644.52
313.37	1730.53
313.59	1722.34
313.80	1742.82
314.01	1806.31
314.23	1621.99
314.44	1710.05
314.65	1660.90
314.87	1634.28
315.08	1798.12
315.29	1652.71
315.51	1611.75
315.72	1626.09
315.93	1751.01
316.15	1785.83
316.36	1638.38
316.57	1699.81
316.79	1722.34
317.00	1632.23
317.21	1736.68
317.43	1595.37
317.64	1665.00
317.85	1691.62
318.07	1644.52
318.28	1740.77
318.49	1843.17
318.70	1890.28
318.92	1851.36
319.13	1814.50
319.34	1869.80
319.56	1730.53
319.77	1814.50
319.98	1816.55
320.20	1843.17
320.41	1718.25
320.62	1691.62
320.83	1681.38
321.05	1847.27
321.26	1759.21
321.47	1652.71
321.69	1722.34
321.90	1638.38
322.11	1730.53
322.32	1730.53
322.54	1775.59
322.75	1710.05
322.96	1814.50
323.18	1669.09
323.39	1636.33
323.60	1724.39
323.81	1738.73
324.03	1587.18
324.24	1650.66
324.45	1701.86
324.66	1720.29
324.88	1759.21
325.09	1728.49
325.30	1677.29
325.52	1779.68
325.73	1746.92
325.94	1697.77
326.15	1728.49
326.37	1724.39
326.58	1769.44
326.79	1826.79
327.00	1710.05
327.22	1740.77
327.43	1708.01
327.64	1681.38
327.85	1671.14
328.07	1740.77
328.28	1740.77
328.49	1714.15
328.70	1681.38
328.92	1699.81
329.13	1624.04
329.34	1769.44
329.55	1759.21
329.76	1796.07
329.98	1667.05
330.19	1732.58
330.40	1771.49
330.61	1697.77
330.83	1767.40
331.04	1683.43
331.25	1667.05
331.46	1626.09
331.68	1669.09
331.89	1695.72
332.10	1619.94
332.31	1603.56
332.52	1724.39
332.74	1724.39
332.95	1699.81
333.16	1701.86
333.37	1716.20
333.58	1665.00
333.80	1687.53
334.01	1626.09
334.22	1679.33
334.43	1646.57
334.64	1753.06
334.86	1624.04
335.07	1640.42
335.28	1748.97
335.49	1662.95
335.70	1734.63
335.92	1736.68
336.13	1847.27
336.34	1720.29
336.55	1685.48
336.76	1730.53
336.98	1636.33
337.19	1767.40
337.40	1816.55
337.61	1847.27
337.82	1642.47
338.04	1796.07
338.25	1650.66
338.46	1714.15
338.67	1689.57
338.88	1634.28
339.09	1626.09
339.31	1675.24
339.52	1681.38
339.73	1691.62
339.94	1654.76
340.15	1697.77
340.36	1642.47
340.58	1669.09
340.79	1642.47
341.00	1765.35
341.21	1581.03
341.42	1785.83
341.63	1673.19
341.85	1718.25
342.06	1685.48
342.27	1624.04
342.48	1705.96
342.69	1587.18
342.90	1695.72
343.12	1785.83
343.33	1654.76
343.54	1744.87
343.75	1755.11
343.96	1642.47
344.17	1648.61
344.38	1669.09
344.60	1718.25
344.81	1677.29
345.02	1679.33
345.23	1671.14
345.44	1794.02
345.65	1726.44
345.86	1765.35
346.07	1697.77
346.29	1648.61
346.50	1701.86
346.71	1744.87
346.92	1728.49
347.13	1779.68
347.34	1656.81
347.55	1724.39
347.76	1701.86
347.98	1636.33
348.19	1638.38
348.40	1783.78
348.61	1671.14
348.82	1822.69
349.03	1779.68
349.24	1628.14
349.45	1759.21
349.66	1585.13
349.88	1648.61
350.09	1626.09
350.30	1783.78
350.51	1787.88
350.72	1724.39
350.93	1773.54
351.14	1779.68
351.35	1644.52
351.56	1673.19
351.77	1642.47
351.99	1755.11
352.20	1773.54
352.41	1757.16
352.62	1591.27
352.83	1689.57
353.04	1734.63
353.25	1699.81
353.46	1718.25
353.67	1771.49
353.88	1654.76
354.09	1765.35
354.30	1687.53
354.52	1757.16
354.73	1665.00
354.94	1613.80
355.15	1644.52
355.36	1728.49
355.57	1687.53
355.78	1705.96
355.99	1724.39
356.20	1691.62
356.41	1703.91
356.62	1714.15
356.83	1730.53
357.04	1812.45
357.25	1697.77
357.46	1673.19
357.68	1675.24
357.89	1683.43
358.10	1712.10
358.31	1652.71
358.52	1710.05
358.73	1624.04
358.94	1656.81
359.15	1679.33
359.36	1667.05
359.57	1710.05
359.78	1687.53
359.99	1705.96
360.20	1648.61
360.41	1662.95
360.62	1767.40
360.83	1710.05
361.04	1660.90
361.25	1820.64
361.46	1740.77
361.67	1595.37
361.88	1765.35
362.09	1701.86
362.30	1683.43
362.51	1714.15
362.72	1695.72
362.93	1710.05
363.14	1746.92
363.35	1708.01
363.56	1628.14
363.78	1738.73
363.99	1765.35
364.20	1716.20
364.41	1695.72
364.62	1724.39
364.83	1722.34
365.04	1691.62
365.25	1730.53
365.46	1775.59
365.67	1712.10
365.88	1667.05
366.09	1681.38
366.30	1720.29
366.51	1769.44
366.72	1617.90
366.93	1761.25
367.14	1757.16
367.35	1798.12
367.56	1783.78
367.77	1775.59
367.98	1642.47
368.18	1738.73
368.39	1773.54
368.60	1609.70
368.81	1636.33
369.02	1609.70
369.23	1697.77
369.44	1626.09
369.65	1691.62
369.86	1748.97
370.07	1771.49
370.28	1654.76
370.49	1652.71
370.70	1789.92
370.91	1587.18
371.12	1607.66
371.33	1705.96
371.54	1669.09
371.75	1794.02
371.96	1626.09
372.17	1642.47
372.38	1693.67
372.59	1691.62
372.80	1693.67
373.01	1673.19
373.22	1742.82
373.43	1626.09
373.64	1648.61
373.85	1744.87
374.06	1773.54
374.26	1742.82
374.47	1763.30
374.68	1791.97
374.89	1730.53
375.10	1701.86
375.31	1746.92
375.52	1697.77
375.73	1656.81
375.94	1650.66
376.15	1714.15
376.36	1632.23
376.57	1767.40
376.78	1687.53
376.99	1710.05
377.20	1861.60
377.40	1718.25
377.61	1855.46
377.82	1665.00
378.03	1865.70
378.24	1763.30
378.45	1624.04
378.66	1714.15
378.87	1587.18
379.08	1626.09
379.29	1673.19
379.50	1863.65
379.71	1736.68
379.91	1726.44
380.12	1632.23
380.33	1746.92
380.54	1652.71
380.75	1693.67
380.96	1669.09
381.17	1746.92
381.38	1693.67
381.59	1619.94
381.80	1761.25
382.00	1779.68
382.21	1722.34
382.42	1816.55
382.63	1837.03
382.84	1746.92
383.05	1761.25
383.26	1841.12
383.47	1830.88
383.68	1781.73
383.88	1814.50
384.09	1722.34
384.30	1771.49
384.51	1716.20
384.72	1609.70
384.93	1630.18
385.14	1652.71
385.35	1806.31
385.55	1705.96
385.76	1773.54
385.97	1683.43
386.18	1656.81
386.39	1626.09
386.60	1695.72
386.81	1783.78
387.02	1708.01
387.22	1648.61
387.43	1787.88
387.64	1796.07
387.85	1812.45
388.06	2209.76
388.27	4145.09
388.48	6576.03
388.68	7901.06
388.89	9269.11
389.10	9842.54
389.31	8490.88
389.52	7350.16
389.73	6573.98
389.93	5986.21
390.14	5640.11
390.35	5119.92
390.56	4491.20
390.77	3747.78
390.98	3018.71
391.18	2453.47
391.39	2142.18
391.60	1810.40
391.81	1812.45
392.02	1712.10
392.23	1867.75
392.43	1769.44
392.64	1763.30
392.85	1667.05
393.06	1789.92
393.27	1849.32
393.47	1605.61
393.68	1789.92
393.89	1599.46
394.10	1689.57
394.31	1671.14
394.52	1695.72
394.72	1697.77
394.93	1787.88
395.14	1650.66
395.35	1759.21
395.56	1642.47
395.76	1714.15
395.97	1832.93
396.18	1791.97
396.39	1724.39
396.60	2041.82
396.80	1855.46
397.01	1861.60
397.22	1847.27
397.43	1808.36
397.64	1689.57
397.84	1773.54
398.05	1898.47
398.26	1751.01
398.47	1808.36
398.67	1753.06
398.88	1681.38
399.09	1744.87
399.30	1654.76
399.51	1834.98
399.71	1660.90
399.92	1677.29
400.13	1734.63
400.34	1662.95
400.54	1714.15
400.75	1845.22
400.96	1738.73
401.17	1804.26
401.37	1755.11
401.58	1705.96
401.79	1681.38
402.00	1861.60
402.21	1978.34
402.41	1961.95
402.62	1947.62
402.83	1988.58
403.04	1957.86
403.24	2045.92
403.45	1802.21
403.66	1931.23
403.87	1832.93
404.07	1882.08
404.28	1853.41
404.49	1894.37
404.70	1746.92
404.90	1769.44
405.11	1775.59
405.32	1767.40
405.52	1710.05
405.73	1630.18
405.94	1648.61
406.15	1615.85
406.35	1722.34
406.56	1718.25
406.77	1744.87
406.98	1683.43
407.18	1648.61
407.39	1695.72
407.60	1683.43
407.80	1722.34
408.01	1738.73
408.22	1736.68
408.43	1681.38
408.63	1751.01
408.84	1734.63
409.05	1773.54
409.25	1591.27
409.46	1632.23
409.67	1593.32
409.88	1650.66
410.08	1693.67
410.29	1744.87
410.50	1730.53
410.70	1751.01
410.91	1630.18
411.12	1724.39
411.32	1763.30
411.53	1578.98
411.74	1775.59
411.95	1738.73
412.15	1738.73
412.36	1812.45
412.57	1732.58
412.77	1771.49
412.98	1728.49
413.19	1679.33
413.39	1765.35
413.60	1687.53
413.81	1820.64
414.01	1708.01
414.22	1763.30
414.43	1748.97
414.63	1636.33
414.84	1710.05
415.05	1650.66
415.25	1669.09
415.46	1763.30
415.67	1673.19
415.87	1646.57
416.08	1667.05
416.29	1677.29
416.49	1738.73
416.70	1646.57
416.91	1718.25
417.11	1660.90
417.32	1685.48
417.53	1767.40
417.73	1769.44
417.94	1644.52
418.15	1693.67
418.35	1726.44
418.56	1720.29
418.77	1769.44
418.97	1703.91
419.18	1624.04
419.38	1517.54
419.59	1640.42
419.80	1800.16
420.00	1691.62
420.21	1714.15
420.42	1863.65
420.62	1742.82
420.83	1644.52
421.04	1697.77
421.24	1724.39
421.45	1742.82
421.65	1832.93
421.86	1687.53
422.07	1789.92
422.27	1652.71
422.48	1699.81
422.69	1667.05
422.89	1714.15
423.10	1617.90
423.30	1648.61
423.51	1691.62
423.72	1810.40
423.92	1726.44
424.13	1671.14
424.33	1716.20
424.54	1738.73
424.75	1789.92
424.95	1775.59
425.16	1716.20
425.36	1718.25
425.57	1763.30
425.78	1781.73
425.98	1734.63
426.19	1746.92
426.39	1636.33
426.60	1712.10
426.81	1800.16
427.01	1716.20
427.22	1642.47
427.42	1687.53
427.63	1681.38
427.83	1748.97
428.04	1787.88
428.25	1730.53
428.45	1789.92
428.66	1769.44
428.86	1775.59
429.07	1732.58
429.28	1699.81
429.48	1660.90
429.69	1742.82
429.89	1695.72
430.10	1652.71
430.30	1783.78
430.51	1761.25
430.71	1630.18
430.92	1681.38
431.13	1615.85
431.33	1781.73
431.54	1742.82
431.74	1830.88
431.95	1865.70
432.15	1648.61
432.36	1701.86
432.56	1722.34
432.77	1855.46
432.98	1867.75
433.18	1789.92
433.39	1699.81
433.59	1722.34
433.80	1800.16
434.00	1884.13
434.21	1767.40
434.41	1669.09
434.62	1822.69
434.82	1619.94
435.03	1642.47
435.23	1732.58
435.44	1564.65
435.64	1687.53
435.85	1787.88
436.06	1773.54
436.26	1746.92
436.47	1654.76
436.67	1642.47
436.88	1683.43
437.08	1755.11
437.29	1785.83
437.49	1738.73
437.70	1787.88
437.90	1714.15
438.11	1791.97
438.31	1746.92
438.52	1800.16
438.72	1853.41
438.93	1853.41
439.13	1769.44
439.34	1830.88
439.54	1755.11
439.75	1771.49
439.95	1787.88
440.16	1681.38
440.36	1636.33
440.57	1791.97
440.77	1769.44
440.98	1648.61
441.18	1724.39
441.39	1697.77
441.59	1683.43
441.80	1908.71
442.00	1716.20
442.21	1734.63
442.41	1632.23
442.62	1748.97
442.82	1667.05
443.02	1710.05
443.23	1812.45
443.43	1765.35
443.64	1804.26
443.84	1628.14
444.05	1812.45
444.25	1748.97
444.46	1703.91
444.66	1740.77
444.87	1834.98
445.07	1648.61
445.28	1693.67
445.48	1851.36
445.69	1689.57
445.89	1898.47
446.09	1742.82
446.30	1984.48
446.50	2678.74
446.71	3510.22
446.91	4202.43
447.12	4636.60
447.32	4951.99
447.53	4186.05
447.73	3784.65
447.93	3432.40
448.14	3160.02
448.34	3153.87
448.55	2893.78
448.75	2824.15
448.96	2684.89
449.16	2299.87
449.36	2353.12
449.57	2129.89
449.77	1794.02
449.98	1794.02
450.18	1798.12
450.39	1828.84
450.59	1802.21
450.79	1777.64
451.00	1738.73
451.20	1820.64
451.41	1720.29
451.61	1785.83
451.81	1701.86
452.02	1687.53
452.22	1697.77
452.43	1808.36
452.63	1742.82
452.84	1724.39
453.04	1740.77
453.24	1779.68
453.45	1675.24
453.65	1726.44
453.86	1714.15
454.06	1683.43
454.26	1695.72
454.47	1699.81
454.67	1824.74
454.87	1748.97
455.08	1701.86
455.28	1832.93
455.49	1734.63
455.69	1712.10
455.89	1742.82
456.10	1857.51
456.30	1765.35
456.51	1767.40
456.71	1710.05
456.91	1730.53
457.12	1703.91
457.32	1804.26
457.52	1691.62
457.73	1755.11
457.93	1800.16
458.14	1679.33
458.34	1624.04
458.54	1791.97
458.75	1732.58
458.95	1796.07
459.15	1740.77
459.36	1748.97
459.56	1806.31
459.76	1857.51
459.97	1714.15
460.17	1701.86
460.37	1791.97
460.58	1658.85
460.78	1822.69
460.99	1732.58
461.19	1660.90
461.39	1703.91
461.60	1710.05
461.80	1787.88
462.00	1697.77
462.21	1712.10
462.41	1800.16
462.61	1718.25
462.82	1626.09
463.02	1726.44
463.22	1658.85
463.43	1738.73
463.63	1736.68
463.83	1796.07
464.04	1759.21
464.24	1687.53
464.44	1615.85
464.64	1697.77
464.85	1722.34
465.05	1822.69
465.25	1699.81
465.46	1636.33
465.66	1816.55
465.86	1734.63
466.07	1697.77
466.27	1730.53
466.47	1671.14
466.68	1636.33
466.88	1765.35
467.08	1785.83
467.29	1775.59
467.49	1802.21
467.69	1726.44
467.89	1773.54
468.10	1738.73
468.30	1775.59
468.50	1820.64
468.71	1755.11
468.91	1636.33
469.11	1804.26
469.31	1703.91
469.52	1656.81
469.72	1839.08
469.92	1843.17
470.13	1767.40
470.33	1671.14
470.53	1898.47
470.73	2045.92
470.94	2303.96
471.14	2232.29
471.34	2406.36
471.54	2441.18
471.75	2176.99
471.95	2039.78
472.15	2062.30
472.36	2035.68
472.56	2111.46
472.76	2119.65
472.96	2093.02
473.17	1990.63
473.37	1865.70
473.57	1830.88
473.77	1787.88
473.98	1816.55
474.18	1642.47
474.38	1826.79
474.58	1740.77
474.79	1726.44
474.99	1705.96
475.19	1744.87
475.39	1624.04
475.60	1759.21
475.80	1734.63
476.00	1714.15
476.20	1738.73
476.41	1726.44
476.61	1818.60
476.81	1841.12
477.01	1648.61
477.21	1820.64
477.42	1826.79
477.62	1718.25
477.82	1832.93
478.02	1660.90
478.23	1769.44
478.43	1632.23
478.63	1703.91
478.83	1683.43
479.03	1640.42
479.24	1759.21
479.44	1744.87
479.64	1755.11
479.84	1605.61
480.04	1714.15
480.25	1783.78
480.45	1634.28
480.65	1697.77
480.85	1791.97
481.06	1626.09
481.26	1738.73
481.46	1681.38
481.66	1695.72
481.86	1751.01
482.06	1757.16
482.27	1757.16
482.47	1714.15
482.67	1697.77
482.87	1761.25
483.07	1787.88
483.28	1697.77
483.48	1665.00
483.68	1728.49
483.88	1671.14
484.08	1644.52
484.29	1601.51
484.49	1740.77
484.69	1665.00
484.89	1730.53
485.09	1779.68
485.29	1726.44
485.50	1687.53
485.70	1669.09
485.90	1798.12
486.10	1742.82
486.30	1746.92
486.50	1814.50
486.71	1763.30
486.91	1732.58
487.11	1763.30
487.31	1656.81
487.51	1763.30
487.71	1673.19
487.91	1646.57
488.12	1681.38
488.32	1619.94
488.52	1599.46
488.72	1607.66
488.92	1660.90
489.12	1814.50
489.32	1855.46
489.53	1753.06
489.73	1619.94
489.93	1806.31
490.13	1677.29
490.33	1650.66
490.53	1783.78
490.73	1871.84
490.94	1621.99
491.14	1726.44
491.34	1845.22
491.54	2127.84
491.74	2566.10
491.94	2861.01
492.14	2996.18
492.34	2912.21
492.54	2650.07
492.75	2418.65
492.95	2441.18
493.15	2285.53
493.35	2320.35
493.55	2179.04
493.75	2088.93
493.95	2125.79
494.15	2033.63
494.35	1949.67
494.56	1904.61
494.76	1755.11
494.96	1796.07
495.16	1753.06
495.36	1744.87
495.56	1691.62
495.76	1773.54
495.96	1843.17
496.16	1695.72
496.36	1861.60
496.56	1669.09
496.77	1769.44
496.97	1781.73
497.17	1834.98
497.37	1734.63
497.57	1767.40
497.77	1669.09
497.97	1665.00
498.17	1763.30
498.37	1783.78
498.57	1722.34
498.77	1728.49
498.97	1746.92
499.17	1824.74
499.38	1738.73
499.58	1800.16
499.78	1728.49
499.98	1806.31
500.18	1777.64
500.38	1697.77
500.58	1884.13
500.78	2416.60
500.98	4530.11
501.18	5674.92
501.38	6541.21
501.58	6928.28
501.78	6592.41
501.98	5328.81
502.18	4853.69
502.38	4278.21
502.58	4014.02
502.78	3637.19
502.98	3598.28
503.18	3403.72
503.38	3096.53
503.59	2813.91
503.79	2631.64
503.99	2519.00
504.19	2260.96
504.39	2222.05
504.59	2211.81
504.79	2144.22
504.99	2054.11
505.19	1877.99
505.39	1925.09
505.59	1923.04
505.79	1970.15
505.99	1871.84
506.19	1853.41
506.39	1894.37
506.59	1708.01
506.79	1742.82
506.99	1843.17
507.19	1767.40
507.39	1736.68
507.59	1646.57
507.79	1705.96
507.99	1714.15
508.19	1710.05
508.39	1673.19
508.59	1658.85
508.79	1820.64
508.99	1880.04
509.19	1689.57
509.39	1851.36
509.59	1607.66
509.79	1716.20
509.99	1796.07
510.19	1757.16
510.39	1791.97
510.59	1718.25
510.79	1667.05
510.99	1665.00
511.19	1740.77
511.39	1781.73
511.59	1767.40
511.79	1763.30
511.99	1765.35
512.19	1820.64
512.38	1734.63
512.58	1687.53
512.78	1744.87
512.98	1775.59
513.18	1841.12
513.38	1638.38
513.58	1767.40
513.78	1732.58
513.98	1730.53
514.18	1746.92
514.38	1751.01
514.58	1746.92
514.78	1714.15
514.98	1630.18
515.18	1708.01
515.38	1669.09
515.58	1855.46
515.78	1675.24
515.98	1732.58
516.18	1753.06
516.38	1730.53
516.57	1730.53
516.77	1722.34
516.97	1722.34
517.17	1720.29
517.37	1640.42
517.57	1781.73
517.77	1705.96
517.97	1671.14
518.17	1720.29
518.37	1744.87
518.57	1607.66
518.77	1724.39
518.97	1681.38
519.16	1832.93
519.36	1775.59
519.56	1669.09
519.76	1740.77
519.96	1699.81
520.16	1759.21
520.36	1691.62
520.56	1773.54
520.76	1693.67
520.96	1644.52
521.16	1798.12
521.35	1714.15
521.55	1798.12
521.75	1667.05
521.95	1765.35
522.15	1734.63
522.35	1646.57
522.55	1712.10
522.75	1751.01
522.95	1630.18
523.14	1646.57
523.34	1789.92
523.54	1730.53
523.74	1804.26
523.94	1722.34
524.14	1617.90
524.34	1675.24
524.54	1800.16
524.73	1734.63
524.93	1718.25
525.13	1751.01
525.33	1591.27
525.53	1886.18
525.73	1824.74
525.93	1667.05
526.13	1628.14
526.32	1783.78
526.52	1791.97
526.72	1806.31
526.92	1734.63
527.12	1746.92
527.32	1712.10
527.52	1753.06
527.71	1722.34
527.91	1724.39
528.11	1722.34
528.31	1710.05
528.51	1615.85
528.71	1822.69
528.90	1804.26
529.10	1771.49
529.30	1783.78
529.50	1673.19
529.70	1726.44
529.90	1703.91
530.09	1740.77
530.29	1636.33
530.49	1648.61
530.69	1791.97
530.89	1787.88
531.09	1777.64
531.28	1744.87
531.48	1855.46
531.68	1742.82
531.88	1746.92
532.08	1800.16
532.28	1722.34
532.47	1775.59
532.67	1812.45
532.87	1822.69
533.07	1675.24
533.27	1714.15
533.46	1757.16
533.66	1738.73
533.86	1693.67
534.06	1773.54
534.26	1763.30
534.45	1687.53
534.65	1800.16
534.85	1730.53
535.05	1722.34
535.25	1847.27
535.44	1662.95
535.64	1732.58
535.84	1705.96
536.04	1689.57
536.24	1714.15
536.43	1683.43
536.63	1705.96
536.83	1648.61
537.03	1714.15
537.22	1628.14
537.42	1597.42
537.62	1728.49
537.82	1675.24
538.02	1806.31
538.21	1820.64
538.41	1902.56
538.61	1853.41
538.81	1697.77
539.00	1753.06
539.20	1656.81
539.40	1779.68
539.60	1845.22
539.79	1746.92
539.99	1685.48
540.19	1722.34
540.39	1681.38
540.58	1755.11
540.78	1808.36
540.98	1701.86
541.18	1765.35
541.37	1800.16
541.57	1779.68
541.77	1746.92
541.97	1701.86
542.16	1671.14
542.36	1687.53
542.56	1652.71
542.76	1787.88
542.95	1738.73
543.15	1722.34
543.35	1753.06
543.54	1722.34
543.74	1705.96
543.94	1861.60
544.14	1693.67
544.33	1796.07
544.53	1734.63
544.73	1722.34
544.93	1751.01
545.12	1701.86
545.32	1738.73
545.52	1658.85
545.71	1716.20
545.91	1757.16
546.11	1775.59
546.30	1710.05
546.50	1740.77
546.70	1800.16
546.90	1665.00
547.09	1583.08
547.29	1726.44
547.49	1757.16
547.68	1667.05
547.88	1734.63
548.08	1742.82
548.27	2207.71
548.47	1769.44
548.67	1697.77
548.87	1800.16
549.06	1658.85
549.26	1740.77
549.46	1755.11
549.65	1724.39
549.85	1710.05
550.05	1806.31
550.24	1742.82
550.44	1720.29
550.64	1685.48
550.83	1765.35
551.03	1767.40
551.23	1796.07
551.42	1767.40
551.62	1757.16
551.82	1691.62
552.01	1712.10
552.21	1783.78
552.41	1753.06
552.60	1738.73
552.80	1697.77
553.00	1708.01
553.19	1796.07
553.39	1806.31
553.59	1652.71
553.78	1787.88
553.98	1755.11
554.17	1634.28
554.37	1742.82
554.57	1841.12
554.76	1671.14
554.96	1710.05
555.16	1779.68
555.35	1697.77
555.55	1714.15
555.75	1718.25
555.94	1730.53
556.14	1656.81
556.33	1757.16
556.53	1687.53
556.73	1716.20
556.92	1724.39
557.12	1796.07
557.32	1822.69
557.51	1787.88
557.71	1796.07
557.90	1857.51
558.10	1818.60
558.30	1705.96
558.49	1722.34
558.69	1753.06
558.88	1742.82
559.08	1716.20
559.28	1708.01
559.47	1742.82
559.67	1777.64
559.86	1818.60
560.06	1703.91
560.26	1718.25
560.45	1720.29
560.65	1656.81
560.84	1877.99
561.04	1640.42
561.24	1837.03
561.43	1634.28
561.63	1820.64
561.82	1720.29
562.02	1759.21
562.22	1648.61
562.41	1699.81
562.61	1697.77
562.80	1697.77
563.00	1918.95
563.19	1714.15
563.39	1753.06
563.59	1693.67
563.78	1759.21
563.98	1628.14
564.17	1701.86
564.37	1753.06
564.56	1751.01
564.76	1712.10
564.96	1787.88
565.15	1783.78
565.35	1906.66
565.54	1716.20
565.74	1755.11
565.93	1730.53
566.13	1787.88
566.32	1683.43
566.52	1722.34
566.71	1767.40
566.91	1765.35
567.11	1689.57
567.30	1783.78
567.50	1691.62
567.69	1767.40
567.89	1748.97
568.08	1728.49
568.28	1767.40
568.47	1759.21
568.67	1773.54
568.86	1757.16
569.06	1796.07
569.25	1751.01
569.45	1689.57
569.64	1703.91
569.84	1722.34
570.04	1705.96
570.23	1720.29
570.43	1693.67
570.62	1806.31
570.82	1814.50
571.01	1621.99
571.21	1671.14
571.40	1636.33
571.60	1773.54
571.79	1759.21
571.99	1742.82
572.18	1710.05
572.38	1775.59
572.57	1761.25
572.77	1814.50
572.96	1808.36
573.16	1765.35
573.35	1767.40
573.55	1800.16
573.74	1814.50
573.94	1675.24
574.13	1808.36
574.33	1869.80
574.52	1796.07
574.71	1751.01
574.91	1763.30
575.10	1652.71
575.30	1769.44
575.49	1667.05
575.69	1687.53
575.88	1751.01
576.08	1671.14
576.27	1765.35
576.47	1830.88
576.66	1843.17
576.86	1845.22
577.05	1849.32
577.25	1798.12
577.44	1789.92
577.64	1689.57
577.83	1783.78
578.02	1755.11
578.22	1820.64
578.41	1818.60
578.61	1701.86
578.80	1677.29
579.00	1732.58
579.19	1712.10
579.39	1738.73
579.58	1826.79
579.77	1740.77
579.97	1867.75
580.16	1796.07
580.36	1789.92
580.55	1785.83
580.75	1753.06
580.94	1791.97
581.13	1800.16
581.33	1882.08
581.52	1751.01
581.72	1796.07
581.91	1849.32
582.11	1800.16
582.30	1812.45
582.49	1746.92
582.69	1812.45
582.88	1816.55
583.08	1761.25
583.27	1701.86
583.47	1849.32
583.66	1755.11
583.85	1695.72
584.05	1798.12
584.24	1751.01
584.44	1726.44
584.63	1800.16
584.82	1724.39
585.02	1837.03
585.21	1814.50
585.41	1933.28
585.60	1826.79
585.79	1853.41
585.99	1935.33
586.18	1935.33
586.37	2099.17
586.57	3407.82
586.76	9623.41
586.96	23645.85
587.15	33082.89
587.34	39218.60
587.54	41176.46
587.73	35519.97
587.93	25816.69
588.12	21284.54
588.31	17788.66
588.51	15984.40
588.70	14804.77
588.89	13807.41
589.09	12420.93
589.28	10835.80
589.47	9318.26
589.67	7892.87
589.86	6313.89
590.06	4851.64
590.25	3737.54
590.44	3022.80
590.64	2631.64
590.83	2222.05
591.02	2060.26
591.22	1964.00
591.41	1800.16
591.60	1806.31
591.80	2019.30
591.99	1855.46
592.18	1740.77
592.38	1791.97
592.57	1689.57
592.76	1742.82
592.96	1802.21
593.15	1693.67
593.34	1851.36
593.54	1699.81
593.73	1845.22
593.92	1658.85
594.12	1763.30
594.31	1828.84
594.50	1808.36
594.70	1804.26
594.89	1871.84
595.08	1611.75
595.28	1724.39
595.47	1896.42
595.66	1796.07
595.86	1669.09
596.05	1718.25
596.24	1753.06
596.43	1828.84
596.63	1861.60
596.82	1718.25
597.01	1857.51
597.21	1804.26
597.40	1720.29
597.59	1746.92
597.79	1689.57
597.98	1812.45
598.17	1730.53
598.36	1789.92
598.56	1728.49
598.75	1753.06
598.94	1726.44
599.14	1726.44
599.33	1708.01
599.52	1781.73
599.71	1669.09
599.91	1777.64
600.10	1742.82
600.29	1738.73
600.48	1722.34
600.68	1783.78
600.87	1791.97
601.06	1697.77
601.26	1826.79
601.45	1785.83
601.64	1761.25
601.83	1814.50
602.03	1732.58
602.22	1718.25
602.41	1757.16
602.60	1783.78
602.80	1761.25
602.99	1738.73
603.18	1648.61
603.37	1763.30
603.57	1744.87
603.76	1740.77
603.95	1796.07
604.14	1759.21
604.34	1660.90
604.53	1730.53
604.72	1759.21
604.91	1804.26
605.10	1771.49
605.30	1687.53
605.49	1845.22
605.68	1677.29
605.87	1765.35
606.07	1732.58
606.26	1834.98
606.45	1789.92
606.64	1732.58
606.84	1712.10
607.03	1705.96
607.22	1738.73
607.41	1619.94
607.60	1796.07
607.80	1783.78
607.99	1691.62
608.18	1701.86
608.37	1748.97
608.56	1644.52
608.76	1767.40
608.95	1730.53
609.14	1703.91
609.33	1798.12
609.52	1757.16
609.72	1761.25
609.91	1783.78
610.10	1716.20
610.29	1773.54
610.48	1773.54
610.68	1720.29
610.87	1765.35
611.06	1748.97
611.25	1697.77
611.44	1771.49
611.63	1794.02
611.83	1763.30
612.02	1708.01
612.21	1785.83
612.40	1603.56
612.59	1619.94
612.79	1665.00
612.98	1724.39
613.17	1877.99
613.36	1736.68
613.55	1777.64
613.74	1685.48
613.93	1755.11
614.13	1744.87
614.32	1738.73
614.51	1679.33
614.70	1712.10
614.89	1720.29
615.08	1773.54
615.28	2058.21
615.47	1581.03
615.66	1691.62
615.85	1751.01
616.04	1771.49
616.23	1691.62
616.42	1718.25
616.62	1736.68
616.81	1763.30
617.00	1716.20
617.19	1773.54
617.38	1683.43
617.57	1660.90
617.76	1683.43
617.95	1728.49
618.15	1738.73
618.34	1800.16
618.53	1724.39
618.72	1800.16
618.91	1837.03
619.10	1871.84
619.29	1763.30
619.48	1624.04
619.68	1714.15
619.87	1695.72
620.06	1738.73
620.25	1671.14
620.44	1689.57
620.63	1779.68
620.82	1804.26
621.01	1734.63
621.20	1693.67
621.39	1746.92
621.59	1753.06
621.78	1748.97
621.97	1689.57
622.16	1708.01
622.35	1681.38
622.54	1828.84
622.73	1787.88
622.92	1669.09
623.11	1837.03
623.30	1689.57
623.49	1746.92
623.68	1705.96
623.88	1775.59
624.07	1648.61
624.26	1697.77
624.45	1779.68
624.64	1701.86
624.83	1755.11
625.02	1738.73
625.21	1789.92
625.40	1736.68
625.59	1783.78
625.78	1669.09
625.97	1693.67
626.16	1832.93
626.35	1708.01
626.54	1710.05
626.74	1783.78
626.93	1714.15
627.12	1697.77
627.31	1775.59
627.50	1728.49
627.69	1746.92
627.88	1673.19
628.07	1753.06
628.26	1656.81
628.45	1710.05
628.64	1656.81
628.83	1748.97
629.02	1675.24
629.21	1863.65
629.40	1767.40
629.59	1583.08
629.78	1714.15
629.97	1689.57
630.16	1726.44
630.35	1714.15
630.54	1728.49
630.73	1640.42
630.92	1722.34
631.11	1771.49
631.30	1697.77
631.49	1843.17
631.68	1665.00
631.87	1658.85
632.06	1640.42
632.25	1814.50
632.44	1685.48
632.63	1722.34
632.82	1761.25
633.01	1597.42
633.20	1767.40
633.39	1714.15
633.58	1671.14
633.77	1728.49
633.96	1705.96
634.15	1671.14
634.34	1779.68
634.53	1839.08
634.72	1650.66
634.91	1660.90
635.10	1759.21
635.29	1802.21
635.48	1726.44
635.67	1667.05
635.86	1609.70
636.05	1794.02
636.24	1726.44
636.43	1691.62
636.62	1681.38
636.81	1636.33
637.00	1691.62
637.19	1767.40
637.38	1697.77
637.57	1673.19
637.76	1660.90
637.95	1699.81
638.14	1621.99
638.33	1708.01
638.52	1703.91
638.71	1654.76
638.89	1687.53
639.08	1871.84
639.27	1767.40
639.46	1654.76
639.65	1730.53
639.84	1728.49
640.03	1722.34
640.22	1660.90
640.41	1826.79
640.60	1632.23
640.79	1671.14
640.98	1779.68
641.17	1763.30
641.36	1738.73
641.55	1689.57
641.74	1628.14
641.92	1677.29
642.11	1660.90
642.30	1726.44
642.49	1669.09
642.68	1722.34
642.87	1722.34
643.06	1716.20
643.25	1677.29
643.44	1685.48
643.63	1656.81
643.82	1708.01
644.00	1650.66
644.19	1714.15
644.38	1652.71
644.57	1705.96
644.76	1734.63
644.95	1660.90
645.14	1705.96
645.33	1718.25
645.52	1724.39
645.71	1705.96
645.89	1697.77
646.08	1710.05
646.27	1695.72
646.46	1857.51
646.65	1628.14
646.84	1742.82
647.03	1593.32
647.22	1734.63
647.40	1669.09
647.59	1701.86
647.78	1630.18
647.97	1662.95
648.16	1732.58
648.35	1769.44
648.54	1765.35
648.73	1681.38
648.91	1744.87
649.10	1742.82
649.29	1710.05
649.48	1779.68
649.67	1619.94
649.86	1728.49
650.05	1714.15
650.23	1769.44
650.42	1624.04
650.61	1718.25
650.80	1771.49
650.99	1855.46
651.18	1708.01
651.36	1738.73
651.55	1687.53
651.74	1712.10
651.93	1697.77
652.12	1748.97
652.31	1665.00
652.49	1689.57
652.68	1681.38
652.87	1714.15
653.06	1732.58
653.25	1755.11
653.44	1679.33
653.62	1783.78
653.81	1673.19
654.00	1728.49
654.19	1761.25
654.38	1744.87
654.56	1699.81
654.75	1722.34
654.94	1701.86
655.13	1705.96
655.32	1785.83
655.51	1718.25
655.69	1697.77
655.88	1808.36
656.07	1595.37
656.26	1736.68
656.45	1595.37
656.63	1751.01
656.82	1730.53
657.01	1820.64
657.20	1685.48
657.38	1808.36
657.57	1667.05
657.76	1656.81
657.95	1701.86
658.14	1697.77
658.32	1708.01
658.51	1648.61
658.70	1693.67
658.89	1648.61
659.08	1677.29
659.26	1730.53
659.45	1654.76
659.64	1777.64
659.83	1683.43
660.01	1912.80
660.20	1701.86
660.39	1763.30
660.58	1611.75
660.76	1757.16
660.95	1540.07
661.14	1748.97
661.33	1626.09
661.51	1632.23
661.70	1675.24
661.89	1765.35
662.08	1656.81
662.26	1652.71
662.45	1683.43
662.64	1791.97
662.83	1722.34
663.01	1705.96
663.20	1673.19
663.39	1800.16
663.58	1691.62
663.76	1648.61
663.95	1734.63
664.14	1677.29
664.32	1699.81
664.51	1665.00
664.70	1650.66
664.89	1769.44
665.07	1609.70
665.26	1730.53
665.45	1646.57
665.64	1759.21
665.82	1673.19
666.01	1763.30
666.20	1712.10
666.38	1794.02
666.57	1769.44
666.76	2250.72
666.95	4456.38
667.13	10033.00
667.32	14616.35
667.51	17401.59
667.69	18267.88
667.88	17239.80
668.07	12181.32
668.25	9389.94
668.44	7935.88
668.63	7169.94
668.81	6748.06
669.00	6064.04
669.19	5586.86
669.38	4925.36
669.56	4554.68
669.75	3895.24
669.94	3393.48
670.12	2826.20
670.31	2508.76
670.50	2238.43
670.68	1996.77
670.87	1912.80
671.06	1826.79
671.24	1785.83
671.43	1789.92
671.62	1783.78
671.80	1695.72
671.99	1761.25
672.18	1650.66
672.36	1757.16
672.55	1736.68
672.74	1714.15
672.92	1746.92
673.11	1730.53
673.29	1652.71
673.48	1693.67
673.67	1689.57
673.85	1804.26
674.04	1726.44
674.23	1695.72
674.41	1769.44
674.60	1632.23
674.79	1640.42
674.97	1689.57
675.16	1675.24
675.34	1720.29
675.53	1648.61
675.72	1808.36
675.90	1867.75
676.09	1589.22
676.28	1685.48
676.46	1683.43
676.65	1720.29
676.83	1757.16
677.02	1697.77
677.21	1789.92
677.39	1785.83
677.58	1697.77
677.77	1785.83
677.95	1701.86
678.14	1710.05
678.32	1714.15
678.51	1703.91
678.70	1804.26
678.88	1646.57
679.07	1720.29
679.25	1767.40
679.44	1660.90
679.63	1669.09
679.81	1730.53
680.00	1834.98
680.18	1759.21
680.37	1763.30
680.55	1619.94
680.74	1648.61
680.93	1558.50
681.11	1722.34
681.30	1669.09
681.48	1722.34
681.67	1624.04
681.85	1689.57
682.04	1689.57
682.23	1794.02
682.41	1753.06
682.60	1671.14
682.78	1621.99
682.97	1613.80
683.15	1748.97
683.34	1714.15
683.53	1785.83
683.71	1576.94
683.90	1753.06
684.08	1828.84
684.27	1679.33
684.45	1624.04
684.64	1755.11
684.82	1697.77
685.01	1695.72
685.19	1710.05
685.38	1757.16
685.57	1736.68
685.75	1652.71
685.94	1708.01
686.12	1695.72
686.31	1677.29
686.49	1785.83
686.68	1603.56
686.86	1710.05
687.05	1714.15
687.23	1798.12
687.42	1581.03
687.60	1669.09
687.79	1744.87
687.97	1746.92
688.16	1753.06
688.34	1834.98
688.53	1613.80
688.71	1783.78
688.90	1761.25
689.08	1716.20
689.27	1689.57
689.45	1822.69
689.64	1753.06
689.82	1740.77
690.01	1763.30
690.19	1722.34
690.38	1642.47
690.56	1763.30
690.75	1611.75
690.93	1726.44
691.12	1689.57
691.30	1667.05
691.49	1701.86
691.67	1654.76
691.86	1789.92
692.04	1705.96
692.23	1714.15
692.41	1648.61
692.60	1814.50
692.78	1695.72
692.97	1660.90
693.15	1683.43
693.34	1816.55
693.52	1703.91
693.71	1642.47
693.89	1689.57
694.08	1562.60
694.26	1781.73
694.44	1730.53
694.63	1767.40
694.81	1742.82
695.00	1578.98
695.18	1755.11
695.37	1843.17
695.55	1726.44
695.74	1675.24
695.92	1742.82
696.10	1732.58
696.29	1701.86
696.47	1734.63
696.66	1632.23
696.84	1699.81
697.03	1712.10
697.21	1789.92
697.40	2310.11
697.58	1710.05
697.76	1644.52
697.95	1691.62
698.13	1615.85
698.32	1699.81
698.50	1716.20
698.68	1708.01
698.87	1720.29
699.05	1826.79
699.24	1728.49
699.42	1611.75
699.61	1681.38
699.79	1697.77
699.97	1695.72
700.16	1726.44
700.34	1648.61
700.53	1699.81
700.71	1777.64
700.89	1673.19
701.08	1761.25
701.26	1736.68
701.45	2093.02
701.63	1677.29
701.81	1761.25
702.00	1703.91
702.18	1658.85
702.37	1599.46
702.55	1767.40
702.73	1648.61
702.92	1650.66
703.10	1708.01
703.28	1701.86
703.47	1662.95
703.65	1679.33
703.84	1673.19
704.02	1685.48
704.20	1748.97
704.39	1681.38
704.57	1722.34
704.75	1716.20
704.94	1757.16
705.12	1771.49
705.30	1779.68
705.49	2291.68
705.67	4302.78
705.86	9179.00
706.04	12298.05
706.22	14001.96
706.41	15003.42
706.59	13483.83
706.77	9262.96
706.96	7227.28
707.14	6465.44
707.32	5857.19
707.51	5416.88
707.69	4833.21
707.87	4116.42
708.06	3499.98
708.24	2922.45
708.42	2379.74
708.61	2240.48
708.79	1861.60
708.97	1859.56
709.16	1812.45
709.34	1804.26
709.52	1695.72
709.71	1722.34
709.89	1691.62
710.07	1687.53
710.26	1634.28
710.44	1642.47
710.62	1728.49
710.80	1669.09
710.99	1705.96
711.17	1837.03
711.35	1669.09
711.54	1683.43
711.72	1822.69
711.90	1730.53
712.09	1761.25
712.27	1683.43
712.45	1775.59
712.63	1705.96
712.82	1646.57
713.00	1769.44
713.18	1738.73
713.37	1757.16
713.55	1757.16
713.73	1683.43
713.91	1787.88
714.10	1648.61
714.28	1798.12
714.46	1746.92
714.65	1800.16
714.83	1789.92
715.01	1679.33
715.19	1691.62
715.38	1617.90
715.56	1734.63
715.74	1638.38
715.92	1605.61
716.11	1814.50
716.29	1576.94
716.47	1562.60
716.65	1722.34
716.84	1648.61
717.02	1722.34
717.20	1673.19
717.38	1644.52
717.57	1787.88
717.75	1652.71
717.93	1658.85
718.11	1710.05
718.30	1628.14
718.48	1693.67
718.66	1759.21
718.84	1767.40
719.03	1671.14
719.21	1599.46
719.39	1853.41
719.57	1726.44
719.75	1732.58
719.94	1636.33
720.12	1660.90
720.30	1665.00
720.48	1771.49
720.67	1638.38
720.85	1611.75
721.03	1695.72
721.21	1683.43
721.39	1726.44
721.58	1714.15
721.76	1665.00
721.94	1687.53
722.12	1748.97
722.30	1800.16
722.49	1636.33
722.67	1660.90
722.85	1740.77
723.03	1693.67
723.21	1650.66
723.40	1710.05
723.58	1761.25
723.76	1710.05
723.94	1771.49
724.12	1695.72
724.30	1804.26
724.49	1753.06
724.67	1689.57
724.85	1755.11
725.03	1703.91
725.21	1677.29
725.40	1724.39
725.58	1652.71
725.76	1783.78
725.94	1708.01
726.12	1662.95
726.30	1722.34
726.49	1724.39
726.67	1705.96
726.85	1705.96
727.03	1734.63
727.21	2162.66
727.39	2942.93
727.57	3727.30
727.76	3989.44
727.94	4450.24
728.12	4333.50
728.30	3626.95
728.48	3096.53
728.66	2611.16
728.84	2502.62
729.03	2250.72
729.21	2201.57
729.39	1912.80
729.57	1802.21
729.75	1798.12
729.93	1824.74
730.11	1775.59
730.30	1652.71
730.48	1693.67
730.66	1785.83
730.84	1783.78
731.02	1701.86
731.20	1685.48
731.38	1714.15
731.56	1624.04
731.74	1646.57
731.93	1679.33
732.11	1722.34
732.29	1671.14
732.47	1820.64
732.65	1648.61
732.83	1738.73
733.01	1791.97
733.19	1673.19
733.37	1806.31
733.56	1804.26
733.74	1726.44
733.92	1751.01
734.10	1705.96
734.28	1669.09
734.46	1595.37
734.64	1689.57
734.82	1714.15
735.00	1683.43
735.18	1695.72
735.36	1679.33
735.54	1650.66
735.73	1814.50
735.91	1640.42
736.09	1755.11
736.27	1673.19
736.45	1658.85
736.63	1615.85
736.81	1626.09
736.99	1810.40
737.17	1808.36
737.35	1634.28
737.53	1714.15
737.71	1705.96
737.89	1744.87
738.07	1695.72
738.25	1669.09
738.43	1656.81
738.61	1658.85
738.80	1644.52
738.98	1626.09
739.16	1718.25
739.34	1638.38
739.52	1767.40
739.70	1697.77
739.88	1613.80
740.06	1755.11
740.24	1652.71
740.42	1732.58
740.60	1615.85
740.78	1693.67
740.96	1550.31
741.14	1708.01
741.32	1628.14
741.50	1636.33
741.68	1853.41
741.86	1816.55
742.04	1609.70
742.22	1695.72
742.40	1679.33
742.58	1738.73
742.76	1646.57
742.94	1757.16
743.12	1595.37
743.30	1710.05
743.48	1730.53
743.66	1650.66
743.84	1806.31
744.02	1656.81
744.20	1677.29
744.38	1640.42
744.56	1677.29
744.74	1806.31
744.92	1814.50
745.10	1806.31
745.28	1759.21
745.46	1781.73
745.64	1669.09
745.82	1763.30
746.00	1662.95
746.18	1691.62
746.36	1738.73
746.54	1724.39
746.72	1746.92
746.90	1630.18
747.08	1724.39
747.26	1667.05
747.44	1769.44
747.62	1726.44
747.80	1660.90
747.98	1773.54
748.15	1648.61
748.33	1736.68
748.51	1761.25
748.69	1738.73
748.87	1783.78
749.05	1644.52
749.23	1705.96
749.41	1769.44
749.59	1685.48
749.77	1699.81
749.95	1693.67
750.13	1677.29
750.31	1830.88
750.49	1632.23
750.67	1738.73
750.85	1761.25
751.03	1693.67
751.20	1781.73
751.38	1736.68
751.56	1646.57
751.74	1669.09
751.92	1634.28
752.10	1640.42
752.28	1847.27
752.46	1677.29
752.64	1783.78
752.82	1648.61
753.00	1781.73
753.18	1718.25
753.35	1669.09
753.53	1691.62
753.71	1716.20
753.89	1697.77
754.07	1687.53
754.25	1753.06
754.43	1646.57
754.61	1656.81
754.79	1675.24
754.97	1642.47
755.14	1740.77
755.32	1673.19
755.50	1710.05
755.68	1691.62
755.86	1673.19
756.04	1626.09
756.22	1609.70
756.40	1718.25
756.57	1869.80
756.75	1681.38
756.93	1791.97
757.11	1687.53
757.29	1615.85
757.47	1591.27
757.65	1628.14
757.82	1603.56
758.00	1615.85
758.18	1656.81
758.36	1621.99
758.54	1800.16
758.72	1656.81
758.90	1781.73
759.07	1720.29
759.25	1703.91
759.43	1669.09
759.61	1656.81
759.79	2269.15
759.97	1714.15
760.15	1658.85
760.32	1714.15
760.50	1701.86
760.68	1779.68
760.86	1619.94
761.04	1744.87
761.22	1703.91
761.39	1748.97
761.57	1646.57
761.75	1714.15
761.93	1701.86
762.11	1712.10
762.28	1724.39
762.46	1642.47
762.64	1849.32
762.82	1587.18
763.00	1695.72
763.18	1771.49
763.35	1593.32
763.53	1699.81
763.71	1724.39
763.89	1769.44
764.07	1615.85
764.24	1689.57
764.42	1728.49
764.60	1650.66
764.78	1718.25
764.96	1738.73
765.13	1736.68
765.31	1714.15
765.49	1728.49
765.67	1679.33
765.84	1675.24
766.02	1779.68
766.20	1632.23
766.38	1736.68
766.56	1755.11
766.73	1738.73
766.91	1689.57
767.09	1658.85
767.27	1779.68
767.44	1601.51
767.62	1648.61
767.80	1695.72
767.98	1626.09
768.15	1677.29
768.33	1718.25
768.51	1755.11
768.69	1787.88
768.87	1710.05
769.04	1607.66
769.22	1771.49
769.40	1738.73
769.58	1849.32
769.75	1701.86
769.93	1736.68
770.11	1755.11
770.28	1755.11
770.46	1812.45
770.64	1718.25
770.82	1642.47
770.99	1681.38
771.17	1640.42
771.35	1660.90
771.53	1675.24
771.70	1675.24
771.88	1755.11
772.06	1708.01
772.23	1619.94
772.41	1742.82
772.59	1728.49
772.77	1697.77
772.94	1636.33
773.12	1716.20
773.30	1665.00
773.47	1789.92
773.65	1642.47
773.83	1742.82
774.01	1685.48
774.18	1621.99
774.36	1644.52
774.54	1656.81
774.71	1748.97
774.89	1558.50
775.07	1656.81
775.24	1615.85
775.42	1669.09
775.60	1820.64
775.78	1593.32
775.95	1675.24
776.13	1630.18
776.31	1554.41
776.48	1724.39
776.66	1828.84
776.84	1656.81
777.01	1642.47
777.19	1675.24
777.37	1689.57
777.54	1724.39
777.72	1806.31
777.90	1691.62
778.07	1699.81
778.25	1865.70
778.43	1779.68
778.60	1673.19
778.78	1775.59
778.96	1773.54
779.13	1583.08
779.31	1789.92
779.49	1753.06
779.66	1724.39
779.84	1601.51
780.01	1673.19
780.19	1714.15
780.37	1794.02
780.54	1748.97
780.72	1665.00
780.90	1691.62
781.07	1681.38
781.25	1683.43
781.43	1738.73
781.60	1656.81
781.78	1804.26
781.95	1691.62
782.13	1746.92
782.31	1689.57
782.48	1589.22
782.66	1673.19
782.83	1826.79
783.01	1751.01
783.19	1777.64
783.36	1703.91
783.54	1669.09
783.72	1806.31
783.89	1558.50
784.07	1642.47
784.24	1681.38
784.42	1824.74
784.60	1703.91
784.77	1775.59
784.95	1591.27
785.12	1619.94
785.30	1787.88
785.47	1632.23
785.65	1671.14
785.83	1746.92
786.00	1689.57
786.18	1699.81
786.35	1640.42
786.53	1599.46
786.71	1697.77
786.88	1808.36
787.06	1734.63
787.23	1652.71
787.41	1642.47
787.58	1744.87
787.76	1595.37
787.94	1744.87
788.11	1728.49
788.29	1640.42
788.46	1640.42
788.64	1556.46
788.81	1679.33
788.99	1597.42
789.16	1665.00
789.34	1710.05
789.52	1650.66
789.69	1671.14
789.87	1570.79
790.04	1693.67
790.22	1681.38
790.39	1900.52
790.57	1585.13
790.74	1636.33
790.92	1751.01
791.09	1615.85
791.27	1742.82
791.44	1710.05
791.62	1701.86
791.79	1828.84
791.97	1673.19
792.15	1920.99
792.32	1689.57
792.50	1730.53
792.67	1802.21
792.85	1822.69
793.02	1732.58
793.20	1652.71
793.37	1687.53
793.55	1724.39
793.72	1574.89
793.90	1794.02
794.07	1615.85
794.25	1607.66
794.42	1660.90
794.60	1726.44
794.77	1693.67
794.95	1755.11
795.12	1722.34
795.30	1656.81
795.47	1578.98
795.65	1869.80
795.82	1722.34
796.00	1697.77
796.17	1669.09
796.34	1689.57
796.52	1732.58
796.69	1740.77
796.87	1822.69
797.04	1718.25
797.22	1736.68
797.39	1714.15
797.57	1744.87
797.74	1740.77
797.92	1738.73
798.09	1578.98
798.27	1728.49
798.44	1734.63
798.62	1689.57
798.79	1761.25
798.96	1759.21
799.14	1677.29
799.31	1783.78
799.49	1708.01
799.66	1675.24
799.84	1648.61
800.01	1630.18
800.19	1699.81
800.36	1624.04
800.53	1689.57
800.71	1681.38
800.88	1841.12
801.06	1656.81
801.23	1718.25
801.41	1710.05
801.58	1656.81
801.75	1703.91
801.93	1667.05
802.10	1665.00
802.28	1779.68
802.45	1718.25
802.63	1662.95
802.80	1808.36
802.97	1634.28
803.15	1634.28
803.32	1742.82
803.50	1673.19
803.67	1609.70
803.84	1648.61
804.02	1691.62
804.19	1691.62
804.37	1574.89
804.54	1589.22
804.71	1710.05
804.89	1757.16
805.06	1673.19
805.24	1701.86
805.41	1617.90
805.58	1607.66
805.76	1785.83
805.93	1710.05
806.10	1806.31
806.28	1714.15
806.45	1687.53
806.63	1722.34
806.80	1748.97
806.97	1665.00
807.15	1769.44
807.32	1691.62
807.49	1740.77
807.67	1705.96
807.84	1763.30
808.01	1650.66
808.19	1804.26
808.36	1794.02
808.54	1619.94
808.71	1640.42
808.88	1640.42
809.06	1705.96
809.23	1761.25
809.40	1677.29
809.58	1732.58
809.75	1685.48
809.92	1650.66
810.10	1787.88
810.27	1689.57
810.44	1742.82
810.62	1804.26
810.79	1716.20
810.96	1683.43
811.14	1581.03
811.31	1685.48
811.48	1763.30
811.66	1689.57
811.83	1697.77
812.00	1753.06
812.18	1693.67
812.35	1828.84
812.52	1681.38
812.69	1708.01
812.87	1681.38
813.04	1714.15
813.21	1718.25
813.39	1734.63
813.56	1667.05
813.73	1783.78
813.91	1609.70
814.08	1642.47
814.25	1691.62
814.42	1599.46
814.60	1689.57
814.77	1734.63
814.94	1673.19
815.12	1689.57
815.29	1677.29
815.46	1585.13
815.63	1642.47
815.81	1714.15
815.98	1552.36
816.15	1703.91
816.33	1695.72
816.50	1736.68
816.67	1673.19
816.84	1665.00
817.02	1609.70
817.19	1681.38
817.36	1681.38
817.53	1679.33
817.71	1701.86
817.88	1695.72
818.05	1703.91
818.22	1720.29
818.40	1861.60
818.57	1708.01
818.74	1697.77
818.91	1665.00
819.09	1755.11
819.26	1728.49
819.43	1665.00
819.60	1576.94
819.78	1746.92
819.95	1804.26
820.12	1591.27
820.29	1789.92
820.47	1722.34
820.64	1662.95
820.81	1597.42
820.98	1589.22
821.15	1695.72
821.33	1632.23
821.50	1654.76
821.67	1693.67
821.84	1626.09
822.02	1728.49
822.19	1742.82
822.36	1662.95
822.53	1730.53
822.70	1669.09
822.88	1677.29
823.05	1791.97
823.22	1722.34
823.39	1671.14
823.56	1728.49
823.74	1718.25
823.91	1636.33
824.08	1646.57
824.25	1634.28
824.42	1734.63
824.60	1652.71
824.77	1710.05
824.94	1609.70
825.11	1753.06
825.28	1597.42
825.45	1685.48
825.63	1677.29
825.80	1634.28
825.97	1703.91
826.14	1763.30
826.31	1662.95
826.48	1755.11
826.66	1685.48
826.83	1640.42
827.00	1640.42
827.17	1671.14
827.34	1705.96
827.51	1673.19
827.69	1667.05
827.86	1599.46
828.03	1757.16
828.20	1621.99
828.37	1748.97
828.54	1732.58
828.71	1677.29
828.89	1824.74
829.06	1687.53
829.23	1740.77
829.40	1687.53
829.57	1705.96
829.74	1734.63
829.91	1650.66
830.09	1667.05
830.26	1751.01
830.43	1669.09
830.60	1671.14
830.77	1771.49
830.94	1759.21
831.11	1757.16
831.28	1679.33
831.46	1771.49
831.63	1757.16
831.80	1667.05
831.97	1628.14
832.14	1597.42
832.31	1763.30
832.48	1744.87
832.65	1732.58
832.82	1742.82
832.99	1794.02
833.17	1636.33
833.34	1824.74
833.51	1734.63
833.68	1640.42
833.85	1800.16
834.02	1634.28
834.19	1626.09
834.36	1630.18
834.53	1763.30
834.70	1701.86
834.87	1767.40
835.04	1728.49
835.22	1689.57
835.39	1646.57
835.56	1632.23
835.73	1714.15
835.90	1757.16
836.07	1652.71
836.24	1777.64
836.41	1634.28
836.58	1685.48
836.75	1728.49
836.92	1746.92
837.09	1617.90
837.26	1662.95
837.43	1697.77
837.60	1714.15
837.77	1607.66
837.94	1779.68
838.12	1722.34
838.29	1767.40
838.46	1619.94
838.63	1615.85
838.80	1810.40
838.97	1701.86
839.14	1665.00
839.31	1679.33
839.48	1710.05
839.65	1660.90
839.82	1716.20
839.99	1697.77
840.16	1703.91
840.33	1652.71
840.50	1796.07
840.67	1619.94
840.84	1648.61
841.01	1621.99
841.18	1654.76
841.35	1652.71
841.52	1822.69
841.69	1757.16
841.86	1732.58
842.03	1718.25
842.20	1769.44
842.37	1662.95
842.54	1679.33
842.71	1693.67
842.88	1630.18
843.05	1701.86
843.22	1677.29
843.39	1720.29
843.56	1685.48
843.73	1703.91
843.90	1736.68
844.07	1744.87
844.24	1724.39
844.41	1787.88
844.58	1722.34
844.75	1697.77
844.92	1708.01
845.09	1710.05
845.26	1634.28
845.43	1718.25
845.60	1673.19
845.77	1763.30
845.94	1626.09
846.10	1724.39
846.27	1699.81
846.44	1621.99
846.61	1656.81
846.78	1691.62
846.95	1771.49
847.12	1660.90
847.29	1615.85
847.46	1619.94
847.63	1710.05
847.80	1599.46
847.97	1736.68
848.14	1771.49
848.31	1638.38
848.48	1640.42
848.65	1730.53
848.82	1632.23
848.98	1800.16
849.15	1738.73
849.32	1681.38
849.49	1744.87
849.66	1720.29
849.83	1703.91
850.00	1587.18
850.17	1787.88
850.34	1681.38
850.51	1611.75
850.68	1699.81
850.85	1781.73
851.01	1658.85
851.18	1642.47
851.35	1601.51
851.52	1605.61
851.69	1818.60
851.86	1699.81
852.03	1634.28
852.20	1765.35
852.37	1740.77
852.53	1624.04
852.70	1705.96
852.87	1681.38
853.04	1728.49
853.21	1701.86
853.38	1746.92
853.55	1806.31
853.72	1753.06
853.89	1589.22
854.05	1669.09
854.22	1683.43
854.39	1658.85
854.56	1726.44
854.73	1740.77
854.90	1710.05
855.07	1751.01
855.23	1654.76
855.40	1630.18
855.57	1726.44
855.74	1540.07
855.91	1859.56
856.08	1658.85
856.25	1642.47
856.41	1665.00
856.58	1650.66
856.75	1781.73
856.92	1697.77
857.09	1740.77
857.26	1648.61
857.42	1648.61
857.59	1746.92
857.76	1634.28
857.93	1763.30
858.10	1718.25
858.27	1665.00
858.43	1712.10
858.60	1640.42
858.77	1658.85
858.94	1638.38
859.11	1779.68
859.27	1583.08
859.44	1628.14
859.61	1759.21
859.78	1732.58
859.95	1667.05
860.12	1699.81
860.28	1802.21
860.45	1871.84
860.62	1687.53
860.79	1728.49
860.95	1687.53
861.12	1628.14
861.29	1656.81
861.46	1632.23
861.63	1697.77
861.79	1714.15
861.96	1630.18
862.13	1656.81
862.30	1667.05
862.47	1695.72
862.63	1613.80
862.80	1746.92
862.97	1746.92
863.14	1720.29
863.30	1746.92
863.47	1695.72
863.64	1652.71
863.81	1708.01
863.97	1691.62
864.14	1759.21
864.31	1671.14
864.48	1767.40
864.65	1648.61
864.81	1710.05
864.98	1646.57
865.15	1773.54
865.32	1669.09
865.48	1714.15
865.65	1779.68
865.82	1662.95
865.98	1708.01
866.15	1746.92
866.32	1765.35
866.49	1644.52
866.65	1757.16
866.82	1583.08
866.99	1691.62
867.16	1677.29
867.32	1705.96
867.49	1648.61
867.66	1718.25
867.83	1683.43
867.99	1597.42
868.16	1601.51
868.33	1617.90
868.49	1665.00
868.66	1728.49
868.83	1746.92
868.99	1763.30
869.16	1742.82
869.33	1769.44
869.50	1714.15
869.66	1718.25
869.83	1736.68
870.00	1708.01
870.16	1736.68
870.33	1673.19
870.50	1736.68
870.66	1699.81
870.83	1714.15
871.00	1615.85
871.17	1665.00
871.33	1761.25
871.50	1656.81
871.67	1712.10
871.83	1689.57
872.00	1740.77
872.17	1634.28
872.33	1789.92
872.50	1746.92
872.67	1728.49
872.83	1681.38
873.00	1673.19
873.17	1621.99
873.33	1746.92
873.50	1669.09
873.67	1640.42
873.83	1728.49
874.00	1685.48
874.16	1714.15
874.33	1705.96
874.50	1640.42
874.66	1767.40
874.83	1642.47
875.00	1679.33
875.16	1720.29
875.33	1763.30
875.50	1591.27
875.66	1654.76
875.83	1703.91
875.99	1796.07
876.16	1744.87
876.33	1644.52
876.49	1673.19
876.66	1789.92
876.83	1595.37
876.99	1628.14
877.16	1759.21
877.32	1714.15
877.49	1603.56
877.66	1677.29
877.82	1800.16
877.99	1675.24
878.15	1683.43
878.32	1712.10
878.49	1619.94
878.65	1628.14
878.82	1822.69
878.98	1652.71
879.15	1748.97
879.32	1703.91
879.48	1662.95
879.65	1681.38
879.81	1581.03
879.98	1669.09
880.15	1636.33
880.31	1738.73
880.48	1642.47
880.64	1759.21
880.81	1724.39
880.97	1714.15
881.14	1720.29
881.31	1665.00
881.47	1828.84
881.64	1603.56
881.80	1587.18
881.97	1705.96
882.13	1789.92
882.30	1628.14
882.47	1648.61
882.63	1675.24
882.80	1665.00
882.96	1628.14
883.13	1779.68
883.29	1738.73
883.46	1683.43
883.62	1779.68
883.79	1689.57
883.95	1853.41
884.12	1701.86
884.29	1777.64
884.45	1763.30
884.62	1748.97
884.78	1576.94
884.95	1748.97
885.11	1615.85
885.28	1689.57
885.44	1658.85
885.61	1724.39
885.77	1751.01
885.94	1796.07
886.10	1650.66
886.27	1644.52
886.43	1781.73
886.60	1726.44
886.76	1667.05
886.93	1632.23
887.09	1730.53
887.26	1634.28
887.42	1757.16
887.59	1736.68
887.75	1822.69
887.92	1755.11
888.08	1746.92
888.25	1738.73
888.41	1748.97
888.58	1781.73
888.74	1701.86
888.91	1574.89
>>>>>End Processed Spectral Data<<<<<
