SpectraSuite Data File
++++++++++++++++++++++++++++++++++++
Date: Mon Jun 06 14:22:17 CEST 2016
User: root
Dark Spectrum Present: No
Reference Spectrum Present: No
Number of Sampled Component Spectra: 1
Spectrometers: USB4C02835
Integration Time (usec): 100000 (USB4C02835)
Spectra Averaged: 1 (USB4C02835)
Boxcar Smoothing: 0 (USB4C02835)
Correct for Electrical Dark: No (USB4C02835)
Strobe/Lamp Enabled: No (USB4C02835)
Correct for Detector Non-linearity: No (USB4C02835)
Correct for Stray Light: No (USB4C02835)
Number of Pixels in Processed Spectrum: 3648
>>>>>Begin Processed Spectral Data<<<<<
177.47	1523.69
177.69	1523.69
177.91	1523.69
178.13	1523.69
178.36	1472.49
178.58	1710.05
178.80	1732.58
179.02	1644.52
179.24	1658.85
179.46	1765.35
179.68	1773.54
179.90	1710.05
180.13	1697.77
180.35	1640.42
180.57	1665.00
180.79	1703.91
181.01	1669.09
181.23	1658.85
181.45	1763.30
181.67	1759.21
181.90	1726.44
182.12	1673.19
182.34	1681.38
182.56	1751.01
182.78	1691.62
183.00	1703.91
183.22	1738.73
183.44	1562.60
183.66	1800.16
183.89	1724.39
184.11	1685.48
184.33	1771.49
184.55	1744.87
184.77	1669.09
184.99	1753.06
185.21	1621.99
185.43	1810.40
185.65	1673.19
185.87	1771.49
186.10	1824.74
186.32	1724.39
186.54	1669.09
186.76	1730.53
186.98	1751.01
187.20	1757.16
187.42	1677.29
187.64	1705.96
187.86	1720.29
188.08	1849.32
188.30	1689.57
188.52	1681.38
188.75	1818.60
188.97	1769.44
189.19	1689.57
189.41	1732.58
189.63	1751.01
189.85	1730.53
190.07	1630.18
190.29	1652.71
190.51	1814.50
190.73	1710.05
190.95	1705.96
191.17	1656.81
191.39	1632.23
191.61	1581.03
191.84	1689.57
192.06	1738.73
192.28	1619.94
192.50	1828.84
192.72	1705.96
192.94	1619.94
193.16	1787.88
193.38	1730.53
193.60	1701.86
193.82	1689.57
194.04	1708.01
194.26	1720.29
194.48	1724.39
194.70	1710.05
194.92	1652.71
195.14	1744.87
195.36	1574.89
195.58	1675.24
195.80	1708.01
196.02	1630.18
196.24	1705.96
196.46	1658.85
196.69	1636.33
196.91	1787.88
197.13	1662.95
197.35	1677.29
197.57	1775.59
197.79	1757.16
198.01	1710.05
198.23	1777.64
198.45	1726.44
198.67	1609.70
198.89	1726.44
199.11	1746.92
199.33	1753.06
199.55	1595.37
199.77	1748.97
199.99	1708.01
200.21	1667.05
200.43	1703.91
200.65	1665.00
200.87	1665.00
201.09	1687.53
201.31	1687.53
201.53	1724.39
201.75	1738.73
201.97	1732.58
202.19	1724.39
202.41	1693.67
202.63	1753.06
202.85	1710.05
203.07	1804.26
203.29	1681.38
203.51	1677.29
203.73	1667.05
203.95	1853.41
204.17	1671.14
204.39	1722.34
204.61	1705.96
204.83	1669.09
205.05	1779.68
205.27	1769.44
205.49	1804.26
205.71	1615.85
205.93	1609.70
206.15	1652.71
206.37	1767.40
206.59	1595.37
206.81	1624.04
207.03	1669.09
207.25	1615.85
207.47	1787.88
207.69	1595.37
207.91	1744.87
208.13	1783.78
208.34	1708.01
208.56	1605.61
208.78	1738.73
209.00	1662.95
209.22	1689.57
209.44	1722.34
209.66	1728.49
209.88	1703.91
210.10	1642.47
210.32	1675.24
210.54	1798.12
210.76	1677.29
210.98	1712.10
211.20	1591.27
211.42	1646.57
211.64	1800.16
211.86	1732.58
212.08	1677.29
212.30	1746.92
212.52	1613.80
212.74	1759.21
212.96	1656.81
213.17	1699.81
213.39	1753.06
213.61	1740.77
213.83	1607.66
214.05	1636.33
214.27	1714.15
214.49	1642.47
214.71	1617.90
214.93	1748.97
215.15	1705.96
215.37	1685.48
215.59	1683.43
215.81	1724.39
216.03	1759.21
216.24	1691.62
216.46	1738.73
216.68	1716.20
216.90	1691.62
217.12	1757.16
217.34	1665.00
217.56	1728.49
217.78	1796.07
218.00	1699.81
218.22	1734.63
218.44	1718.25
218.66	1673.19
218.87	1832.93
219.09	1769.44
219.31	1732.58
219.53	1714.15
219.75	1736.68
219.97	1693.67
220.19	1720.29
220.41	1644.52
220.63	1851.36
220.85	1755.11
221.06	1632.23
221.28	1759.21
221.50	1779.68
221.72	1687.53
221.94	1705.96
222.16	1687.53
222.38	1740.77
222.60	1773.54
222.82	1738.73
223.03	1687.53
223.25	1693.67
223.47	1761.25
223.69	1853.41
223.91	1734.63
224.13	1671.14
224.35	1751.01
224.57	1820.64
224.78	1693.67
225.00	1683.43
225.22	1734.63
225.44	1705.96
225.66	1714.15
225.88	1669.09
226.10	1748.97
226.32	1781.73
226.53	1785.83
226.75	1705.96
226.97	1740.77
227.19	1736.68
227.41	1718.25
227.63	1683.43
227.85	1617.90
228.06	1734.63
228.28	1677.29
228.50	1779.68
228.72	1619.94
228.94	1726.44
229.16	1613.80
229.37	1691.62
229.59	1734.63
229.81	1763.30
230.03	1677.29
230.25	1589.22
230.47	1640.42
230.69	1652.71
230.90	1791.97
231.12	1593.32
231.34	1710.05
231.56	1781.73
231.78	1611.75
232.00	1798.12
232.21	1783.78
232.43	1697.77
232.65	1597.42
232.87	1695.72
233.09	1675.24
233.30	1660.90
233.52	1771.49
233.74	1650.66
233.96	1703.91
234.18	1738.73
234.40	1683.43
234.61	1886.18
234.83	1609.70
235.05	1683.43
235.27	1873.89
235.49	1753.06
235.70	1689.57
235.92	1812.45
236.14	1779.68
236.36	1857.51
236.58	1595.37
236.79	1740.77
237.01	1652.71
237.23	1685.48
237.45	1820.64
237.67	1673.19
237.88	1677.29
238.10	1837.03
238.32	1681.38
238.54	1654.76
238.76	1736.68
238.97	1609.70
239.19	1701.86
239.41	1783.78
239.63	1800.16
239.85	1542.12
240.06	1746.92
240.28	1636.33
240.50	1783.78
240.72	1748.97
240.93	1724.39
241.15	1701.86
241.37	1681.38
241.59	1697.77
241.81	1708.01
242.02	1685.48
242.24	1716.20
242.46	1753.06
242.68	1710.05
242.89	1693.67
243.11	1757.16
243.33	1675.24
243.55	1718.25
243.76	1685.48
243.98	1693.67
244.20	1759.21
244.42	1638.38
244.64	1716.20
244.85	1624.04
245.07	1621.99
245.29	1673.19
245.51	1722.34
245.72	1673.19
245.94	1685.48
246.16	1671.14
246.38	1775.59
246.59	1583.08
246.81	1587.18
247.03	1732.58
247.24	1634.28
247.46	1746.92
247.68	1687.53
247.90	1695.72
248.11	1665.00
248.33	1748.97
248.55	1677.29
248.77	1701.86
248.98	1734.63
249.20	1763.30
249.42	1796.07
249.64	1767.40
249.85	1662.95
250.07	1658.85
250.29	1720.29
250.50	1722.34
250.72	1722.34
250.94	1607.66
251.16	1843.17
251.37	1763.30
251.59	1701.86
251.81	1712.10
252.02	1857.51
252.24	1673.19
252.46	1740.77
252.68	1724.39
252.89	1681.38
253.11	1648.61
253.33	1787.88
253.54	1859.56
253.76	1662.95
253.98	1636.33
254.20	1724.39
254.41	1607.66
254.63	1652.71
254.85	1619.94
255.06	1783.78
255.28	1681.38
255.50	1656.81
255.71	1652.71
255.93	1550.31
256.15	1716.20
256.36	1722.34
256.58	1679.33
256.80	1732.58
257.02	1691.62
257.23	1673.19
257.45	1718.25
257.67	1787.88
257.88	1648.61
258.10	1755.11
258.32	1691.62
258.53	1613.80
258.75	1705.96
258.97	1656.81
259.18	1697.77
259.40	1697.77
259.62	1814.50
259.83	1775.59
260.05	1738.73
260.27	2017.25
260.48	1769.44
260.70	1601.51
260.92	1662.95
261.13	1695.72
261.35	1667.05
261.57	1779.68
261.78	1638.38
262.00	1658.85
262.22	1728.49
262.43	1632.23
262.65	1640.42
262.86	1718.25
263.08	1808.36
263.30	1644.52
263.51	1574.89
263.73	1650.66
263.95	1767.40
264.16	1742.82
264.38	1658.85
264.60	1746.92
264.81	1660.90
265.03	1708.01
265.25	1667.05
265.46	1652.71
265.68	1796.07
265.89	1755.11
266.11	1673.19
266.33	1681.38
266.54	1718.25
266.76	1720.29
266.98	1730.53
267.19	1740.77
267.41	1802.21
267.62	1671.14
267.84	1617.90
268.06	1718.25
268.27	1751.01
268.49	1724.39
268.70	1712.10
268.92	1714.15
269.14	1632.23
269.35	1652.71
269.57	1732.58
269.79	1753.06
270.00	1658.85
270.22	1738.73
270.43	1693.67
270.65	1605.61
270.87	1687.53
271.08	1734.63
271.30	1718.25
271.51	1689.57
271.73	1699.81
271.95	1791.97
272.16	1687.53
272.38	1632.23
272.59	1691.62
272.81	1708.01
273.02	1771.49
273.24	1646.57
273.46	1726.44
273.67	1636.33
273.89	1560.55
274.10	1646.57
274.32	1787.88
274.54	1738.73
274.75	1744.87
274.97	1673.19
275.18	1662.95
275.40	1744.87
275.61	1712.10
275.83	1728.49
276.05	1640.42
276.26	1660.90
276.48	1794.02
276.69	1648.61
276.91	1681.38
277.12	1808.36
277.34	1791.97
277.55	1728.49
277.77	1703.91
277.99	1697.77
278.20	1638.38
278.42	1685.48
278.63	1671.14
278.85	1724.39
279.06	1673.19
279.28	1820.64
279.49	1742.82
279.71	1705.96
279.93	1665.00
280.14	1658.85
280.36	1703.91
280.57	1794.02
280.79	1705.96
281.00	1667.05
281.22	1669.09
281.43	1701.86
281.65	1576.94
281.86	1644.52
282.08	1705.96
282.29	1779.68
282.51	1732.58
282.73	1554.41
282.94	1601.51
283.16	1734.63
283.37	1755.11
283.59	1708.01
283.80	1718.25
284.02	1685.48
284.23	1710.05
284.45	1687.53
284.66	1583.08
284.88	1656.81
285.09	1687.53
285.31	1703.91
285.52	1773.54
285.74	1624.04
285.95	1722.34
286.17	1708.01
286.38	1730.53
286.60	1671.14
286.81	1654.76
287.03	1677.29
287.24	1714.15
287.46	1794.02
287.67	1646.57
287.89	1802.21
288.10	1695.72
288.32	1761.25
288.53	1732.58
288.75	1759.21
288.96	1757.16
289.18	1708.01
289.39	1691.62
289.61	1705.96
289.82	1804.26
290.04	1738.73
290.25	1710.05
290.47	1689.57
290.68	1669.09
290.90	1748.97
291.11	1607.66
291.33	1746.92
291.54	1671.14
291.76	1640.42
291.97	1705.96
292.18	1769.44
292.40	1632.23
292.61	1687.53
292.83	1841.12
293.04	1757.16
293.26	1714.15
293.47	1705.96
293.69	1632.23
293.90	1683.43
294.12	1771.49
294.33	1755.11
294.55	1662.95
294.76	1824.74
294.97	1703.91
295.19	1773.54
295.40	1669.09
295.62	1675.24
295.83	1689.57
296.05	1746.92
296.26	1789.92
296.48	1716.20
296.69	1669.09
296.90	1722.34
297.12	1681.38
297.33	1734.63
297.55	1671.14
297.76	1718.25
297.98	1728.49
298.19	1718.25
298.41	1701.86
298.62	1619.94
298.83	1806.31
299.05	1755.11
299.26	1671.14
299.48	1726.44
299.69	1722.34
299.90	1769.44
300.12	1726.44
300.33	1785.83
300.55	1722.34
300.76	1763.30
300.98	1576.94
301.19	1724.39
301.40	1748.97
301.62	1740.77
301.83	1708.01
302.05	1738.73
302.26	1693.67
302.47	1714.15
302.69	1617.90
302.90	1630.18
303.12	1544.17
303.33	1765.35
303.54	1869.80
303.76	1669.09
303.97	1697.77
304.19	1794.02
304.40	1675.24
304.61	1746.92
304.83	1820.64
305.04	1794.02
305.26	1665.00
305.47	1693.67
305.68	1675.24
305.90	1652.71
306.11	1753.06
306.33	1669.09
306.54	1638.38
306.75	1746.92
306.97	1628.14
307.18	1650.66
307.39	1654.76
307.61	1773.54
307.82	1669.09
308.04	1724.39
308.25	1730.53
308.46	1648.61
308.68	1732.58
308.89	1720.29
309.10	1753.06
309.32	1665.00
309.53	1675.24
309.74	1708.01
309.96	1658.85
310.17	1701.86
310.39	1681.38
310.60	1757.16
310.81	1734.63
311.03	1599.46
311.24	1726.44
311.45	1722.34
311.67	1804.26
311.88	1771.49
312.09	1689.57
312.31	1632.23
312.52	1681.38
312.73	1642.47
312.95	1652.71
313.16	1636.33
313.37	1755.11
313.59	1691.62
313.80	1746.92
314.01	1695.72
314.23	1599.46
314.44	1636.33
314.65	1605.61
314.87	1667.05
315.08	1654.76
315.29	1726.44
315.51	1683.43
315.72	1654.76
315.93	1824.74
316.15	1787.88
316.36	1689.57
316.57	1746.92
316.79	1693.67
317.00	1681.38
317.21	1665.00
317.43	1648.61
317.64	1771.49
317.85	1689.57
318.07	1636.33
318.28	1724.39
318.49	1814.50
318.70	1843.17
318.92	1845.22
319.13	1824.74
319.34	1828.84
319.56	1765.35
319.77	1705.96
319.98	1791.97
320.20	1810.40
320.41	1689.57
320.62	1791.97
320.83	1683.43
321.05	1820.64
321.26	1703.91
321.47	1761.25
321.69	1810.40
321.90	1556.46
322.11	1673.19
322.32	1703.91
322.54	1818.60
322.75	1660.90
322.96	1783.78
323.18	1593.32
323.39	1648.61
323.60	1630.18
323.81	1798.12
324.03	1669.09
324.24	1738.73
324.45	1646.57
324.66	1656.81
324.88	1705.96
325.09	1808.36
325.30	1714.15
325.52	1693.67
325.73	1712.10
325.94	1660.90
326.15	1628.14
326.37	1730.53
326.58	1701.86
326.79	1859.56
327.00	1558.50
327.22	1732.58
327.43	1722.34
327.64	1665.00
327.85	1697.77
328.07	1767.40
328.28	1845.22
328.49	1630.18
328.70	1746.92
328.92	1705.96
329.13	1689.57
329.34	1734.63
329.55	1800.16
329.76	1732.58
329.98	1755.11
330.19	1794.02
330.40	1703.91
330.61	1691.62
330.83	1699.81
331.04	1708.01
331.25	1660.90
331.46	1722.34
331.68	1669.09
331.89	1849.32
332.10	1710.05
332.31	1581.03
332.52	1656.81
332.74	1781.73
332.95	1681.38
333.16	1681.38
333.37	1753.06
333.58	1697.77
333.80	1712.10
334.01	1679.33
334.22	1716.20
334.43	1652.71
334.64	1695.72
334.86	1693.67
335.07	1738.73
335.28	1757.16
335.49	1677.29
335.70	1708.01
335.92	1798.12
336.13	1820.64
336.34	1615.85
336.55	1689.57
336.76	1636.33
336.98	1691.62
337.19	1710.05
337.40	1834.98
337.61	1841.12
337.82	1728.49
338.04	1732.58
338.25	1636.33
338.46	1658.85
338.67	1603.56
338.88	1699.81
339.09	1591.27
339.31	1683.43
339.52	1648.61
339.73	1732.58
339.94	1681.38
340.15	1730.53
340.36	1595.37
340.58	1687.53
340.79	1677.29
341.00	1677.29
341.21	1685.48
341.42	1796.07
341.63	1693.67
341.85	1615.85
342.06	1660.90
342.27	1671.14
342.48	1757.16
342.69	1665.00
342.90	1708.01
343.12	1765.35
343.33	1697.77
343.54	1779.68
343.75	1755.11
343.96	1693.67
344.17	1636.33
344.38	1753.06
344.60	1681.38
344.81	1603.56
345.02	1683.43
345.23	1730.53
345.44	1822.69
345.65	1771.49
345.86	1730.53
346.07	1710.05
346.29	1562.60
346.50	1744.87
346.71	1640.42
346.92	1812.45
347.13	1796.07
347.34	1738.73
347.55	1679.33
347.76	1640.42
347.98	1605.61
348.19	1619.94
348.40	1785.83
348.61	1671.14
348.82	1779.68
349.03	1683.43
349.24	1574.89
349.45	1824.74
349.66	1583.08
349.88	1730.53
350.09	1710.05
350.30	1832.93
350.51	1751.01
350.72	1736.68
350.93	1701.86
351.14	1603.56
351.35	1755.11
351.56	1667.05
351.77	1771.49
351.99	1716.20
352.20	1767.40
352.41	1685.48
352.62	1581.03
352.83	1779.68
353.04	1724.39
353.25	1716.20
353.46	1710.05
353.67	1761.25
353.88	1638.38
354.09	1740.77
354.30	1730.53
354.52	1679.33
354.73	1724.39
354.94	1654.76
355.15	1816.55
355.36	1787.88
355.57	1648.61
355.78	1714.15
355.99	1671.14
356.20	1685.48
356.41	1781.73
356.62	1710.05
356.83	1634.28
357.04	1732.58
357.25	1585.13
357.46	1628.14
357.68	1599.46
357.89	1699.81
358.10	1746.92
358.31	1712.10
358.52	1779.68
358.73	1677.29
358.94	1640.42
359.15	1769.44
359.36	1728.49
359.57	1767.40
359.78	1675.24
359.99	1814.50
360.20	1648.61
360.41	1738.73
360.62	1716.20
360.83	1771.49
361.04	1773.54
361.25	1730.53
361.46	1701.86
361.67	1720.29
361.88	1697.77
362.09	1687.53
362.30	1697.77
362.51	1685.48
362.72	1681.38
362.93	1705.96
363.14	1730.53
363.35	1671.14
363.56	1720.29
363.78	1763.30
363.99	1818.60
364.20	1679.33
364.41	1720.29
364.62	1826.79
364.83	1748.97
365.04	1685.48
365.25	1716.20
365.46	1820.64
365.67	1634.28
365.88	1640.42
366.09	1665.00
366.30	1716.20
366.51	1699.81
366.72	1656.81
366.93	1693.67
367.14	1679.33
367.35	1751.01
367.56	1691.62
367.77	1736.68
367.98	1689.57
368.18	1634.28
368.39	1718.25
368.60	1677.29
368.81	1796.07
369.02	1658.85
369.23	1669.09
369.44	1638.38
369.65	1621.99
369.86	1761.25
370.07	1789.92
370.28	1652.71
370.49	1738.73
370.70	1769.44
370.91	1660.90
371.12	1587.18
371.33	1761.25
371.54	1644.52
371.75	1804.26
371.96	1626.09
372.17	1667.05
372.38	1716.20
372.59	1744.87
372.80	1665.00
373.01	1681.38
373.22	1681.38
373.43	1730.53
373.64	1638.38
373.85	1783.78
374.06	1791.97
374.26	1728.49
374.47	1753.06
374.68	1832.93
374.89	1740.77
375.10	1726.44
375.31	1634.28
375.52	1751.01
375.73	1685.48
375.94	1624.04
376.15	1814.50
376.36	1603.56
376.57	1712.10
376.78	1703.91
376.99	1746.92
377.20	1765.35
377.40	1728.49
377.61	1761.25
377.82	1642.47
378.03	1773.54
378.24	1759.21
378.45	1714.15
378.66	1720.29
378.87	1619.94
379.08	1619.94
379.29	1652.71
379.50	1783.78
379.71	1740.77
379.91	1732.58
380.12	1644.52
380.33	1730.53
380.54	1742.82
380.75	1757.16
380.96	1665.00
381.17	1744.87
381.38	1693.67
381.59	1771.49
381.80	1710.05
382.00	1808.36
382.21	1689.57
382.42	1777.64
382.63	1898.47
382.84	1771.49
383.05	1822.69
383.26	1806.31
383.47	1685.48
383.68	1746.92
383.88	1744.87
384.09	1714.15
384.30	1771.49
384.51	1673.19
384.72	1677.29
384.93	1687.53
385.14	1654.76
385.35	1757.16
385.55	1748.97
385.76	1806.31
385.97	1714.15
386.18	1691.62
386.39	1646.57
386.60	1685.48
386.81	1751.01
387.02	1652.71
387.22	1591.27
387.43	1773.54
387.64	1779.68
387.85	1898.47
388.06	2207.71
388.27	4427.71
388.48	6815.64
388.68	8392.58
388.89	9768.81
389.10	9840.49
389.31	8480.64
389.52	7833.48
389.73	6784.92
389.93	6377.37
390.14	5949.35
390.35	5263.28
390.56	4585.40
390.77	3776.45
390.98	2998.23
391.18	2541.53
391.39	2172.89
391.60	1849.32
391.81	1800.16
392.02	1683.43
392.23	1812.45
392.43	1716.20
392.64	1759.21
392.85	1722.34
393.06	1802.21
393.27	1673.19
393.47	1734.63
393.68	1755.11
393.89	1628.14
394.10	1748.97
394.31	1675.24
394.52	1746.92
394.72	1640.42
394.93	1714.15
395.14	1689.57
395.35	1757.16
395.56	1708.01
395.76	1769.44
395.97	1853.41
396.18	1798.12
396.39	1773.54
396.60	2015.20
396.80	1910.75
397.01	1859.56
397.22	1804.26
397.43	1867.75
397.64	1746.92
397.84	1744.87
398.05	1867.75
398.26	1728.49
398.47	1740.77
398.67	1845.22
398.88	1755.11
399.09	1736.68
399.30	1660.90
399.51	1800.16
399.71	1693.67
399.92	1697.77
400.13	1773.54
400.34	1669.09
400.54	1785.83
400.75	1763.30
400.96	1691.62
401.17	1851.36
401.37	1675.24
401.58	1652.71
401.79	1771.49
402.00	1857.51
402.21	1955.81
402.41	1927.14
402.62	1949.67
402.83	1931.23
403.04	1937.38
403.24	2060.26
403.45	1837.03
403.66	1937.38
403.87	1988.58
404.07	1898.47
404.28	1937.38
404.49	1927.14
404.70	1636.33
404.90	1773.54
405.11	1701.86
405.32	1769.44
405.52	1679.33
405.73	1689.57
405.94	1648.61
406.15	1671.14
406.35	1794.02
406.56	1816.55
406.77	1796.07
406.98	1652.71
407.18	1751.01
407.39	1742.82
407.60	1673.19
407.80	1746.92
408.01	1576.94
408.22	1671.14
408.43	1601.51
408.63	1779.68
408.84	1734.63
409.05	1730.53
409.25	1712.10
409.46	1695.72
409.67	1689.57
409.88	1693.67
410.08	1705.96
410.29	1665.00
410.50	1742.82
410.70	1685.48
410.91	1701.86
411.12	1685.48
411.32	1632.23
411.53	1648.61
411.74	1843.17
411.95	1724.39
412.15	1677.29
412.36	1773.54
412.57	1751.01
412.77	1751.01
412.98	1759.21
413.19	1769.44
413.39	1761.25
413.60	1763.30
413.81	1783.78
414.01	1671.14
414.22	1810.40
414.43	1742.82
414.63	1714.15
414.84	1757.16
415.05	1677.29
415.25	1673.19
415.46	1705.96
415.67	1724.39
415.87	1763.30
416.08	1708.01
416.29	1722.34
416.49	1746.92
416.70	1746.92
416.91	1601.51
417.11	1669.09
417.32	1726.44
417.53	1734.63
417.73	1738.73
417.94	1640.42
418.15	1730.53
418.35	1669.09
418.56	1730.53
418.77	1771.49
418.97	1683.43
419.18	1730.53
419.38	1585.13
419.59	1726.44
419.80	1755.11
420.00	1687.53
420.21	1679.33
420.42	1796.07
420.62	1712.10
420.83	1703.91
421.04	1732.58
421.24	1701.86
421.45	1699.81
421.65	1742.82
421.86	1730.53
422.07	1691.62
422.27	1685.48
422.48	1679.33
422.69	1746.92
422.89	1658.85
423.10	1640.42
423.30	1708.01
423.51	1667.05
423.72	1705.96
423.92	1742.82
424.13	1660.90
424.33	1710.05
424.54	1748.97
424.75	1681.38
424.95	1828.84
425.16	1757.16
425.36	1673.19
425.57	1802.21
425.78	1665.00
425.98	1796.07
426.19	1701.86
426.39	1593.32
426.60	1724.39
426.81	1777.64
427.01	1691.62
427.22	1599.46
427.42	1644.52
427.63	1671.14
427.83	1759.21
428.04	1802.21
428.25	1759.21
428.45	1746.92
428.66	1753.06
428.86	1720.29
429.07	1671.14
429.28	1705.96
429.48	1724.39
429.69	1642.47
429.89	1722.34
430.10	1615.85
430.30	1777.64
430.51	1820.64
430.71	1665.00
430.92	1697.77
431.13	1632.23
431.33	1773.54
431.54	1734.63
431.74	1744.87
431.95	1857.51
432.15	1689.57
432.36	1665.00
432.56	1798.12
432.77	1808.36
432.98	1839.08
433.18	1775.59
433.39	1689.57
433.59	1751.01
433.80	1777.64
434.00	1869.80
434.21	1705.96
434.41	1624.04
434.62	1783.78
434.82	1705.96
435.03	1708.01
435.23	1728.49
435.44	1630.18
435.64	1736.68
435.85	1703.91
436.06	1714.15
436.26	1810.40
436.47	1658.85
436.67	1710.05
436.88	1769.44
437.08	1718.25
437.29	1806.31
437.49	1683.43
437.70	1722.34
437.90	1761.25
438.11	1861.60
438.31	1794.02
438.52	1871.84
438.72	1804.26
438.93	1957.86
439.13	1828.84
439.34	1822.69
439.54	1808.36
439.75	1808.36
439.95	1806.31
440.16	1730.53
440.36	1755.11
440.57	1708.01
440.77	1859.56
440.98	1718.25
441.18	1763.30
441.39	1773.54
441.59	1695.72
441.80	1839.08
442.00	1671.14
442.21	1810.40
442.41	1695.72
442.62	1734.63
442.82	1658.85
443.02	1699.81
443.23	1748.97
443.43	1730.53
443.64	1705.96
443.84	1632.23
444.05	1810.40
444.25	1712.10
444.46	1773.54
444.66	1691.62
444.87	1751.01
445.07	1693.67
445.28	1662.95
445.48	1785.83
445.69	1689.57
445.89	1814.50
446.09	1742.82
446.30	1949.67
446.50	2570.20
446.71	3792.84
446.91	4425.66
447.12	4765.62
447.32	4802.49
447.53	4304.83
447.73	3872.71
447.93	3571.66
448.14	3325.90
448.34	3270.61
448.55	2906.07
448.75	2828.24
448.96	2783.19
449.16	2414.56
449.36	2203.61
449.57	2041.82
449.77	1902.56
449.98	1853.41
450.18	1798.12
450.39	1808.36
450.59	1744.87
450.79	1726.44
451.00	1744.87
451.20	1730.53
451.41	1742.82
451.61	1710.05
451.81	1748.97
452.02	1714.15
452.22	1746.92
452.43	1714.15
452.63	1710.05
452.84	1783.78
453.04	1681.38
453.24	1769.44
453.45	1658.85
453.65	1669.09
453.86	1751.01
454.06	1740.77
454.26	1753.06
454.47	1683.43
454.67	1816.55
454.87	1751.01
455.08	1763.30
455.28	1802.21
455.49	1673.19
455.69	1779.68
455.89	1824.74
456.10	1888.23
456.30	1748.97
456.51	1746.92
456.71	1740.77
456.91	1785.83
457.12	1699.81
457.32	1730.53
457.52	1691.62
457.73	1812.45
457.93	1730.53
458.14	1734.63
458.34	1640.42
458.54	1718.25
458.75	1699.81
458.95	1736.68
459.15	1763.30
459.36	1781.73
459.56	1783.78
459.76	1771.49
459.97	1742.82
460.17	1779.68
460.37	1761.25
460.58	1718.25
460.78	1742.82
460.99	1748.97
461.19	1697.77
461.39	1662.95
461.60	1755.11
461.80	1763.30
462.00	1681.38
462.21	1720.29
462.41	1626.09
462.61	1728.49
462.82	1574.89
463.02	1751.01
463.22	1660.90
463.43	1767.40
463.63	1789.92
463.83	1714.15
464.04	1775.59
464.24	1771.49
464.44	1640.42
464.64	1710.05
464.85	1806.31
465.05	1783.78
465.25	1658.85
465.46	1720.29
465.66	1781.73
465.86	1859.56
466.07	1820.64
466.27	1687.53
466.47	1658.85
466.68	1665.00
466.88	1751.01
467.08	1726.44
467.29	1757.16
467.49	1785.83
467.69	1753.06
467.89	1783.78
468.10	1689.57
468.30	1644.52
468.50	1820.64
468.71	1757.16
468.91	1589.22
469.11	1910.75
469.31	1746.92
469.52	1744.87
469.72	1818.60
469.92	1826.79
470.13	1708.01
470.33	1673.19
470.53	1812.45
470.73	2172.89
470.94	2295.77
471.14	2363.36
471.34	2533.34
471.54	2373.60
471.75	2162.66
471.95	2152.42
472.15	2062.30
472.36	2068.45
472.56	2052.06
472.76	2068.45
472.96	2004.96
473.17	1949.67
473.37	1877.99
473.57	1748.97
473.77	1810.40
473.98	1712.10
474.18	1677.29
474.38	1906.66
474.58	1738.73
474.79	1679.33
474.99	1789.92
475.19	1734.63
475.39	1742.82
475.60	1753.06
475.80	1726.44
476.00	1691.62
476.20	1650.66
476.41	1738.73
476.61	1843.17
476.81	1785.83
477.01	1697.77
477.21	1785.83
477.42	1849.32
477.62	1630.18
477.82	1685.48
478.02	1710.05
478.23	1746.92
478.43	1628.14
478.63	1681.38
478.83	1757.16
479.03	1677.29
479.24	1746.92
479.44	1822.69
479.64	1685.48
479.84	1660.90
480.04	1650.66
480.25	1763.30
480.45	1675.24
480.65	1740.77
480.85	1779.68
481.06	1681.38
481.26	1705.96
481.46	1791.97
481.66	1748.97
481.86	1703.91
482.06	1781.73
482.27	1712.10
482.47	1705.96
482.67	1765.35
482.87	1689.57
483.07	1832.93
483.28	1689.57
483.48	1662.95
483.68	1730.53
483.88	1660.90
484.08	1574.89
484.29	1687.53
484.49	1693.67
484.69	1632.23
484.89	1738.73
485.09	1751.01
485.29	1800.16
485.50	1722.34
485.70	1683.43
485.90	1806.31
486.10	1816.55
486.30	1779.68
486.50	1763.30
486.71	1681.38
486.91	1726.44
487.11	1779.68
487.31	1611.75
487.51	1714.15
487.71	1667.05
487.91	1665.00
488.12	1701.86
488.32	1581.03
488.52	1632.23
488.72	1605.61
488.92	1730.53
489.12	1832.93
489.32	1781.73
489.53	1796.07
489.73	1708.01
489.93	1867.75
490.13	1746.92
490.33	1621.99
490.53	1746.92
490.73	1777.64
490.94	1644.52
491.14	1757.16
491.34	1851.36
491.54	2068.45
491.74	2627.54
491.94	2932.69
492.14	3117.01
492.34	2992.08
492.54	2717.65
492.75	2523.10
492.95	2369.50
493.15	2287.58
493.35	2338.78
493.55	2213.85
493.75	2121.70
493.95	2074.59
494.15	2021.35
494.35	1877.99
494.56	1873.89
494.76	1796.07
494.96	1806.31
495.16	1734.63
495.36	1716.20
495.56	1710.05
495.76	1669.09
495.96	1736.68
496.16	1665.00
496.36	1841.12
496.56	1705.96
496.77	1789.92
496.97	1736.68
497.17	1791.97
497.37	1636.33
497.57	1736.68
497.77	1681.38
497.97	1677.29
498.17	1746.92
498.37	1726.44
498.57	1773.54
498.77	1759.21
498.97	1767.40
499.17	1820.64
499.38	1662.95
499.58	1781.73
499.78	1775.59
499.98	1759.21
500.18	1687.53
500.38	1763.30
500.58	1931.23
500.78	2445.27
500.98	4552.63
501.18	5834.66
501.38	6815.64
501.58	7204.75
501.78	6672.28
501.98	5646.25
502.18	4931.51
502.38	4552.63
502.58	4188.10
502.78	3788.74
502.98	3561.42
503.18	3411.92
503.38	3217.36
503.59	2850.77
503.79	2750.42
503.99	2400.22
504.19	2207.71
504.39	2230.24
504.59	2131.94
504.79	2007.01
504.99	2062.30
505.19	1867.75
505.39	1867.75
505.59	1898.47
505.79	1871.84
505.99	1779.68
506.19	1869.80
506.39	1863.65
506.59	1742.82
506.79	1724.39
506.99	1834.98
507.19	1787.88
507.39	1705.96
507.59	1673.19
507.79	1724.39
507.99	1642.47
508.19	1751.01
508.39	1681.38
508.59	1714.15
508.79	1830.88
508.99	1810.40
509.19	1638.38
509.39	1720.29
509.59	1726.44
509.79	1703.91
509.99	1722.34
510.19	1761.25
510.39	1796.07
510.59	1769.44
510.79	1687.53
510.99	1685.48
511.19	1662.95
511.39	1843.17
511.59	1705.96
511.79	1808.36
511.99	1724.39
512.19	1886.18
512.38	1783.78
512.58	1681.38
512.78	1695.72
512.98	1738.73
513.18	1820.64
513.38	1665.00
513.58	1781.73
513.78	1728.49
513.98	1650.66
514.18	1677.29
514.38	1675.24
514.58	1738.73
514.78	1677.29
514.98	1734.63
515.18	1609.70
515.38	1695.72
515.58	1906.66
515.78	1632.23
515.98	1714.15
516.18	1722.34
516.38	1769.44
516.57	1673.19
516.77	1755.11
516.97	1787.88
517.17	1755.11
517.37	1609.70
517.57	1869.80
517.77	1794.02
517.97	1724.39
518.17	1779.68
518.37	1673.19
518.57	1617.90
518.77	1658.85
518.97	1773.54
519.16	1765.35
519.36	1687.53
519.56	1757.16
519.76	1765.35
519.96	1708.01
520.16	1880.04
520.36	1703.91
520.56	1775.59
520.76	1738.73
520.96	1734.63
521.16	1800.16
521.35	1771.49
521.55	1783.78
521.75	1621.99
521.95	1765.35
522.15	1705.96
522.35	1685.48
522.55	1806.31
522.75	1710.05
522.95	1714.15
523.14	1691.62
523.34	1710.05
523.54	1675.24
523.74	1714.15
523.94	1783.78
524.14	1667.05
524.34	1732.58
524.54	1804.26
524.73	1761.25
524.93	1771.49
525.13	1732.58
525.33	1595.37
525.53	1847.27
525.73	1773.54
525.93	1714.15
526.13	1718.25
526.32	1730.53
526.52	1738.73
526.72	1777.64
526.92	1693.67
527.12	1742.82
527.32	1660.90
527.52	1650.66
527.71	1796.07
527.91	1667.05
528.11	1683.43
528.31	1740.77
528.51	1720.29
528.71	1726.44
528.90	1759.21
529.10	1853.41
529.30	1871.84
529.50	1615.85
529.70	1732.58
529.90	1751.01
530.09	1701.86
530.29	1732.58
530.49	1636.33
530.69	1791.97
530.89	1742.82
531.09	1757.16
531.28	1714.15
531.48	1734.63
531.68	1767.40
531.88	1708.01
532.08	1808.36
532.28	1738.73
532.47	1722.34
532.67	1753.06
532.87	1746.92
533.07	1665.00
533.27	1769.44
533.46	1742.82
533.66	1751.01
533.86	1712.10
534.06	1781.73
534.26	1718.25
534.45	1783.78
534.65	1761.25
534.85	1724.39
535.05	1660.90
535.25	1822.69
535.44	1544.17
535.64	1812.45
535.84	1718.25
536.04	1800.16
536.24	1683.43
536.43	1712.10
536.63	1669.09
536.83	1679.33
537.03	1781.73
537.22	1669.09
537.42	1714.15
537.62	1703.91
537.82	1673.19
538.02	1800.16
538.21	1826.79
538.41	1882.08
538.61	1730.53
538.81	1748.97
539.00	1830.88
539.20	1566.70
539.40	1671.14
539.60	1703.91
539.79	1679.33
539.99	1732.58
540.19	1705.96
540.39	1781.73
540.58	1703.91
540.78	1751.01
540.98	1806.31
541.18	1804.26
541.37	1843.17
541.57	1714.15
541.77	1761.25
541.97	1595.37
542.16	1581.03
542.36	1628.14
542.56	1736.68
542.76	1873.89
542.95	1767.40
543.15	1673.19
543.35	1689.57
543.54	1699.81
543.74	1718.25
543.94	1755.11
544.14	1685.48
544.33	1851.36
544.53	1746.92
544.73	1697.77
544.93	1732.58
545.12	1761.25
545.32	1705.96
545.52	1736.68
545.71	1673.19
545.91	1646.57
546.11	1724.39
546.30	1716.20
546.50	1779.68
546.70	1783.78
546.90	1804.26
547.09	1642.47
547.29	1771.49
547.49	1718.25
547.68	1726.44
547.88	1718.25
548.08	1748.97
548.27	2209.76
548.47	1691.62
548.67	1693.67
548.87	1740.77
549.06	1779.68
549.26	1720.29
549.46	1748.97
549.65	1667.05
549.85	1804.26
550.05	1783.78
550.24	1761.25
550.44	1814.50
550.64	1687.53
550.83	1746.92
551.03	1755.11
551.23	1759.21
551.42	1783.78
551.62	1753.06
551.82	1806.31
552.01	1779.68
552.21	1763.30
552.41	1689.57
552.60	1849.32
552.80	1730.53
553.00	1726.44
553.19	1714.15
553.39	1863.65
553.59	1683.43
553.78	1794.02
553.98	1781.73
554.17	1730.53
554.37	1720.29
554.57	1789.92
554.76	1679.33
554.96	1718.25
555.16	1796.07
555.35	1783.78
555.55	1787.88
555.75	1765.35
555.94	1851.36
556.14	1648.61
556.33	1757.16
556.53	1744.87
556.73	1753.06
556.92	1783.78
557.12	1820.64
557.32	1888.23
557.51	1806.31
557.71	1814.50
557.90	1818.60
558.10	1781.73
558.30	1716.20
558.49	1732.58
558.69	1703.91
558.88	1769.44
559.08	1824.74
559.28	1697.77
559.47	1718.25
559.67	1726.44
559.86	1830.88
560.06	1771.49
560.26	1757.16
560.45	1787.88
560.65	1656.81
560.84	1820.64
561.04	1759.21
561.24	1742.82
561.43	1665.00
561.63	1812.45
561.82	1787.88
562.02	1675.24
562.22	1708.01
562.41	1665.00
562.61	1738.73
562.80	1755.11
563.00	1775.59
563.19	1693.67
563.39	1767.40
563.59	1773.54
563.78	1624.04
563.98	1587.18
564.17	1785.83
564.37	1632.23
564.56	1716.20
564.76	1738.73
564.96	1781.73
565.15	1771.49
565.35	1880.04
565.54	1697.77
565.74	1738.73
565.93	1814.50
566.13	1710.05
566.32	1791.97
566.52	1689.57
566.71	1775.59
566.91	1804.26
567.11	1748.97
567.30	1693.67
567.50	1769.44
567.69	1812.45
567.89	1771.49
568.08	1705.96
568.28	1781.73
568.47	1669.09
568.67	1765.35
568.86	1671.14
569.06	1761.25
569.25	1677.29
569.45	1681.38
569.64	1681.38
569.84	1697.77
570.04	1820.64
570.23	1728.49
570.43	1761.25
570.62	1806.31
570.82	1837.03
571.01	1718.25
571.21	1767.40
571.40	1703.91
571.60	1771.49
571.79	1843.17
571.99	1857.51
572.18	1742.82
572.38	1867.75
572.57	1734.63
572.77	1787.88
572.96	1832.93
573.16	1806.31
573.35	1697.77
573.55	1877.99
573.74	1810.40
573.94	1763.30
574.13	1736.68
574.33	1736.68
574.52	1824.74
574.71	1675.24
574.91	1763.30
575.10	1681.38
575.30	1753.06
575.49	1658.85
575.69	1724.39
575.88	1769.44
576.08	1677.29
576.27	1841.12
576.47	1759.21
576.66	1812.45
576.86	1824.74
577.05	1763.30
577.25	1773.54
577.44	1832.93
577.64	1738.73
577.83	1796.07
578.02	1718.25
578.22	1822.69
578.41	1746.92
578.61	1757.16
578.80	1675.24
579.00	1810.40
579.19	1755.11
579.39	1734.63
579.58	1785.83
579.77	1755.11
579.97	1775.59
580.16	1861.60
580.36	1843.17
580.55	1839.08
580.75	1746.92
580.94	1738.73
581.13	1816.55
581.33	1933.28
581.52	1783.78
581.72	1906.66
581.91	1761.25
582.11	1734.63
582.30	1828.84
582.49	1771.49
582.69	1812.45
582.88	1751.01
583.08	1816.55
583.27	1781.73
583.47	1730.53
583.66	1732.58
583.85	1720.29
584.05	1748.97
584.24	1785.83
584.44	1753.06
584.63	1849.32
584.82	1777.64
585.02	1890.28
585.21	1767.40
585.41	1857.51
585.60	1775.59
585.79	1918.95
585.99	1888.23
586.18	1894.37
586.37	2162.66
586.57	3487.69
586.76	10000.23
586.96	24671.88
587.15	34749.93
587.34	40914.32
587.54	42577.27
587.73	37068.23
587.93	26814.05
588.12	22113.97
588.31	18480.87
588.51	16733.95
588.70	15224.60
588.89	14278.44
589.09	12605.25
589.28	11335.51
589.47	9471.86
589.67	7948.17
589.86	6510.49
590.06	5078.96
590.25	3948.48
590.44	3139.54
590.64	2609.11
590.83	2312.16
591.02	2168.80
591.22	1986.53
591.41	1875.94
591.60	1791.97
591.80	1937.38
591.99	1744.87
592.18	1779.68
592.38	1871.84
592.57	1746.92
592.76	1781.73
592.96	1869.80
593.15	1769.44
593.34	1853.41
593.54	1748.97
593.73	1806.31
593.92	1751.01
594.12	1771.49
594.31	1722.34
594.50	1837.03
594.70	1771.49
594.89	1857.51
595.08	1705.96
595.28	1751.01
595.47	1853.41
595.66	1820.64
595.86	1648.61
596.05	1617.90
596.24	1691.62
596.43	1779.68
596.63	1834.98
596.82	1777.64
597.01	1787.88
597.21	1834.98
597.40	1802.21
597.59	1714.15
597.79	1734.63
597.98	1806.31
598.17	1775.59
598.36	1755.11
598.56	1785.83
598.75	1644.52
598.94	1720.29
599.14	1673.19
599.33	1656.81
599.52	1802.21
599.71	1722.34
599.91	1767.40
600.10	1712.10
600.29	1697.77
600.48	1759.21
600.68	1748.97
600.87	1808.36
601.06	1675.24
601.26	1714.15
601.45	1734.63
601.64	1712.10
601.83	1820.64
602.03	1673.19
602.22	1648.61
602.41	1751.01
602.60	1888.23
602.80	1865.70
602.99	1789.92
603.18	1703.91
603.37	1736.68
603.57	1763.30
603.76	1794.02
603.95	1763.30
604.14	1757.16
604.34	1636.33
604.53	1703.91
604.72	1726.44
604.91	1767.40
605.10	1769.44
605.30	1718.25
605.49	1832.93
605.68	1728.49
605.87	1701.86
606.07	1708.01
606.26	1753.06
606.45	1806.31
606.64	1744.87
606.84	1759.21
607.03	1740.77
607.22	1771.49
607.41	1714.15
607.60	1677.29
607.80	1791.97
607.99	1740.77
608.18	1667.05
608.37	1759.21
608.56	1662.95
608.76	1857.51
608.95	1800.16
609.14	1708.01
609.33	1777.64
609.52	1796.07
609.72	1708.01
609.91	1738.73
610.10	1765.35
610.29	1781.73
610.48	1800.16
610.68	1761.25
610.87	1730.53
611.06	1802.21
611.25	1742.82
611.44	1843.17
611.63	1769.44
611.83	1816.55
612.02	1693.67
612.21	1816.55
612.40	1687.53
612.59	1722.34
612.79	1689.57
612.98	1751.01
613.17	1900.52
613.36	1691.62
613.55	1800.16
613.74	1660.90
613.93	1683.43
614.13	1695.72
614.32	1720.29
614.51	1781.73
614.70	1683.43
614.89	1677.29
615.08	1716.20
615.28	2152.42
615.47	1652.71
615.66	1740.77
615.85	1658.85
616.04	1820.64
616.23	1732.58
616.42	1703.91
616.62	1818.60
616.81	1683.43
617.00	1775.59
617.19	1705.96
617.38	1681.38
617.57	1767.40
617.76	1775.59
617.95	1748.97
618.15	1662.95
618.34	1757.16
618.53	1630.18
618.72	1822.69
618.91	1787.88
619.10	1837.03
619.29	1775.59
619.48	1701.86
619.68	1689.57
619.87	1746.92
620.06	1656.81
620.25	1673.19
620.44	1724.39
620.63	1800.16
620.82	1701.86
621.01	1746.92
621.20	1689.57
621.39	1748.97
621.59	1791.97
621.78	1708.01
621.97	1753.06
622.16	1759.21
622.35	1781.73
622.54	1757.16
622.73	1834.98
622.92	1689.57
623.11	1744.87
623.30	1763.30
623.49	1755.11
623.68	1634.28
623.88	1822.69
624.07	1683.43
624.26	1736.68
624.45	1755.11
624.64	1751.01
624.83	1705.96
625.02	1718.25
625.21	1755.11
625.40	1789.92
625.59	1822.69
625.78	1681.38
625.97	1791.97
626.16	1796.07
626.35	1798.12
626.54	1812.45
626.74	1783.78
626.93	1722.34
627.12	1689.57
627.31	1744.87
627.50	1705.96
627.69	1759.21
627.88	1644.52
628.07	1724.39
628.26	1607.66
628.45	1644.52
628.64	1628.14
628.83	1757.16
629.02	1699.81
629.21	1699.81
629.40	1771.49
629.59	1724.39
629.78	1685.48
629.97	1699.81
630.16	1789.92
630.35	1638.38
630.54	1701.86
630.73	1660.90
630.92	1710.05
631.11	1685.48
631.30	1716.20
631.49	1753.06
631.68	1658.85
631.87	1804.26
632.06	1665.00
632.25	1873.89
632.44	1746.92
632.63	1730.53
632.82	1748.97
633.01	1642.47
633.20	1742.82
633.39	1654.76
633.58	1628.14
633.77	1738.73
633.96	1746.92
634.15	1755.11
634.34	1722.34
634.53	1669.09
634.72	1687.53
634.91	1679.33
635.10	1703.91
635.29	1791.97
635.48	1658.85
635.67	1703.91
635.86	1617.90
636.05	1769.44
636.24	1667.05
636.43	1701.86
636.62	1761.25
636.81	1583.08
637.00	1687.53
637.19	1773.54
637.38	1697.77
637.57	1714.15
637.76	1640.42
637.95	1730.53
638.14	1695.72
638.33	1685.48
638.52	1708.01
638.71	1695.72
638.89	1648.61
639.08	1898.47
639.27	1712.10
639.46	1648.61
639.65	1863.65
639.84	1699.81
640.03	1789.92
640.22	1753.06
640.41	1875.94
640.60	1699.81
640.79	1677.29
640.98	1650.66
641.17	1822.69
641.36	1716.20
641.55	1714.15
641.74	1654.76
641.92	1716.20
642.11	1677.29
642.30	1716.20
642.49	1716.20
642.68	1636.33
642.87	1757.16
643.06	1769.44
643.25	1644.52
643.44	1603.56
643.63	1712.10
643.82	1746.92
644.00	1638.38
644.19	1722.34
644.38	1638.38
644.57	1742.82
644.76	1685.48
644.95	1730.53
645.14	1744.87
645.33	1742.82
645.52	1761.25
645.71	1738.73
645.89	1654.76
646.08	1767.40
646.27	1679.33
646.46	1830.88
646.65	1609.70
646.84	1691.62
647.03	1660.90
647.22	1789.92
647.40	1755.11
647.59	1697.77
647.78	1669.09
647.97	1628.14
648.16	1771.49
648.35	1757.16
648.54	1742.82
648.73	1732.58
648.91	1748.97
649.10	1714.15
649.29	1621.99
649.48	1734.63
649.67	1724.39
649.86	1753.06
650.05	1736.68
650.23	1755.11
650.42	1611.75
650.61	1742.82
650.80	1738.73
650.99	1814.50
651.18	1777.64
651.36	1703.91
651.55	1730.53
651.74	1828.84
651.93	1652.71
652.12	1742.82
652.31	1744.87
652.49	1640.42
652.68	1679.33
652.87	1798.12
653.06	1673.19
653.25	1771.49
653.44	1693.67
653.62	1820.64
653.81	1748.97
654.00	1751.01
654.19	1736.68
654.38	1853.41
654.56	1730.53
654.75	1732.58
654.94	1853.41
655.13	1726.44
655.32	1701.86
655.51	1687.53
655.69	1703.91
655.88	1839.08
656.07	1648.61
656.26	1744.87
656.45	1611.75
656.63	1746.92
656.82	1695.72
657.01	1765.35
657.20	1617.90
657.38	1845.22
657.57	1705.96
657.76	1693.67
657.95	1699.81
658.14	1736.68
658.32	1701.86
658.51	1687.53
658.70	1810.40
658.89	1724.39
659.08	1705.96
659.26	1818.60
659.45	1640.42
659.64	1708.01
659.83	1632.23
660.01	1920.99
660.20	1730.53
660.39	1763.30
660.58	1695.72
660.76	1669.09
660.95	1677.29
661.14	1718.25
661.33	1628.14
661.51	1710.05
661.70	1703.91
661.89	1779.68
662.08	1781.73
662.26	1658.85
662.45	1640.42
662.64	1908.71
662.83	1742.82
663.01	1662.95
663.20	1642.47
663.39	1789.92
663.58	1759.21
663.76	1652.71
663.95	1742.82
664.14	1648.61
664.32	1662.95
664.51	1701.86
664.70	1638.38
664.89	1734.63
665.07	1703.91
665.26	1798.12
665.45	1595.37
665.64	1710.05
665.82	1798.12
666.01	1824.74
666.20	1705.96
666.38	1777.64
666.57	1804.26
666.76	2164.70
666.95	4489.15
667.13	10655.58
667.32	15363.86
667.51	17858.29
667.69	19060.45
667.88	17839.86
668.07	12486.47
668.25	9551.73
668.44	8245.12
668.63	7352.21
668.81	6932.37
669.00	6346.66
669.19	5777.32
669.38	5052.34
669.56	4607.93
669.75	3999.68
669.94	3395.53
670.12	2901.97
670.31	2582.49
670.50	2273.25
670.68	2074.59
670.87	1976.29
671.06	1808.36
671.24	1837.03
671.43	1877.99
671.62	1742.82
671.80	1691.62
671.99	1826.79
672.18	1826.79
672.36	1751.01
672.55	1708.01
672.74	1693.67
672.92	1665.00
673.11	1595.37
673.29	1615.85
673.48	1773.54
673.67	1736.68
673.85	1789.92
674.04	1660.90
674.23	1724.39
674.41	1783.78
674.60	1617.90
674.79	1566.70
674.97	1695.72
675.16	1708.01
675.34	1689.57
675.53	1712.10
675.72	1769.44
675.90	1794.02
676.09	1716.20
676.28	1714.15
676.46	1640.42
676.65	1755.11
676.83	1722.34
677.02	1665.00
677.21	1701.86
677.39	1705.96
677.58	1757.16
677.77	1708.01
677.95	1654.76
678.14	1669.09
678.32	1695.72
678.51	1755.11
678.70	1873.89
678.88	1701.86
679.07	1734.63
679.25	1683.43
679.44	1697.77
679.63	1652.71
679.81	1722.34
680.00	1748.97
680.18	1761.25
680.37	1759.21
680.55	1722.34
680.74	1626.09
680.93	1597.42
681.11	1791.97
681.30	1728.49
681.48	1757.16
681.67	1648.61
681.85	1726.44
682.04	1679.33
682.23	1691.62
682.41	1718.25
682.60	1650.66
682.78	1677.29
682.97	1624.04
683.15	1701.86
683.34	1732.58
683.53	1755.11
683.71	1632.23
683.90	1759.21
684.08	1794.02
684.27	1728.49
684.45	1738.73
684.64	1808.36
684.82	1705.96
685.01	1757.16
685.19	1716.20
685.38	1839.08
685.57	1673.19
685.75	1732.58
685.94	1648.61
686.12	1714.15
686.31	1607.66
686.49	1837.03
686.68	1630.18
686.86	1714.15
687.05	1724.39
687.23	1845.22
687.42	1677.29
687.60	1652.71
687.79	1808.36
687.97	1783.78
688.16	1744.87
688.34	1832.93
688.53	1624.04
688.71	1632.23
688.90	1785.83
689.08	1738.73
689.27	1619.94
689.45	1796.07
689.64	1705.96
689.82	1791.97
690.01	1765.35
690.19	1753.06
690.38	1640.42
690.56	1740.77
690.75	1710.05
690.93	1691.62
691.12	1660.90
691.30	1787.88
691.49	1640.42
691.67	1652.71
691.86	1834.98
692.04	1693.67
692.23	1621.99
692.41	1675.24
692.60	1806.31
692.78	1753.06
692.97	1673.19
693.15	1757.16
693.34	1822.69
693.52	1685.48
693.71	1738.73
693.89	1730.53
694.08	1720.29
694.26	1759.21
694.44	1761.25
694.63	1708.01
694.81	1751.01
695.00	1687.53
695.18	1734.63
695.37	1832.93
695.55	1662.95
695.74	1708.01
695.92	1667.05
696.10	1849.32
696.29	1665.00
696.47	1705.96
696.66	1662.95
696.84	1621.99
697.03	1724.39
697.21	1882.08
697.40	2328.54
697.58	1708.01
697.76	1708.01
697.95	1634.28
698.13	1654.76
698.32	1574.89
698.50	1732.58
698.68	1685.48
698.87	1751.01
699.05	1775.59
699.24	1746.92
699.42	1679.33
699.61	1646.57
699.79	1722.34
699.97	1738.73
700.16	1599.46
700.34	1693.67
700.53	1671.14
700.71	1812.45
700.89	1787.88
701.08	1708.01
701.26	1697.77
701.45	2127.84
701.63	1624.04
701.81	1699.81
702.00	1624.04
702.18	1722.34
702.37	1691.62
702.55	1771.49
702.73	1665.00
702.92	1667.05
703.10	1683.43
703.28	1736.68
703.47	1673.19
703.65	1710.05
703.84	1718.25
704.02	1763.30
704.20	1830.88
704.39	1656.81
704.57	1703.91
704.75	1697.77
704.94	1765.35
705.12	1587.18
705.30	1816.55
705.49	2326.49
705.67	4440.00
705.86	9387.89
706.04	12668.73
706.22	14569.25
706.41	15558.42
706.59	14104.36
706.77	9582.45
706.96	7417.74
707.14	6703.00
707.32	5957.54
707.51	5576.62
707.69	5017.52
707.87	4294.59
708.06	3588.04
708.24	2934.74
708.42	2484.19
708.61	2297.82
708.79	1908.71
708.97	1814.50
709.16	1918.95
709.34	1849.32
709.52	1738.73
709.71	1744.87
709.89	1775.59
710.07	1615.85
710.26	1677.29
710.44	1701.86
710.62	1710.05
710.80	1677.29
710.99	1767.40
711.17	1804.26
711.35	1644.52
711.54	1691.62
711.72	1765.35
711.90	1687.53
712.09	1748.97
712.27	1638.38
712.45	1796.07
712.63	1701.86
712.82	1679.33
713.00	1615.85
713.18	1742.82
713.37	1765.35
713.55	1779.68
713.73	1656.81
713.91	1708.01
714.10	1763.30
714.28	1660.90
714.46	1703.91
714.65	1687.53
714.83	1714.15
715.01	1693.67
715.19	1669.09
715.38	1605.61
715.56	1738.73
715.74	1574.89
715.92	1675.24
716.11	1839.08
716.29	1683.43
716.47	1742.82
716.65	1701.86
716.84	1581.03
717.02	1796.07
717.20	1607.66
717.38	1656.81
717.57	1720.29
717.75	1687.53
717.93	1617.90
718.11	1800.16
718.30	1648.61
718.48	1773.54
718.66	1794.02
718.84	1769.44
719.03	1677.29
719.21	1669.09
719.39	1796.07
719.57	1712.10
719.75	1703.91
719.94	1675.24
720.12	1693.67
720.30	1722.34
720.48	1773.54
720.67	1720.29
720.85	1746.92
721.03	1665.00
721.21	1644.52
721.39	1804.26
721.58	1765.35
721.76	1796.07
721.94	1718.25
722.12	1722.34
722.30	1763.30
722.49	1652.71
722.67	1701.86
722.85	1673.19
723.03	1697.77
723.21	1685.48
723.40	1701.86
723.58	1730.53
723.76	1734.63
723.94	1794.02
724.12	1785.83
724.30	1787.88
724.49	1775.59
724.67	1634.28
724.85	1755.11
725.03	1576.94
725.21	1681.38
725.40	1787.88
725.58	1619.94
725.76	1771.49
725.94	1726.44
726.12	1591.27
726.30	1751.01
726.49	1720.29
726.67	1687.53
726.85	1695.72
727.03	1781.73
727.21	2111.46
727.39	2865.11
727.57	3721.16
727.76	4255.68
727.94	4515.77
728.12	4202.43
728.30	3620.81
728.48	2973.65
728.66	2785.24
728.84	2566.10
729.03	2334.68
729.21	2174.94
729.39	2058.21
729.57	1916.90
729.75	1859.56
729.93	1783.78
730.11	1644.52
730.30	1726.44
730.48	1710.05
730.66	1787.88
730.84	1808.36
731.02	1755.11
731.20	1624.04
731.38	1740.77
731.56	1687.53
731.74	1660.90
731.93	1748.97
732.11	1697.77
732.29	1673.19
732.47	1730.53
732.65	1662.95
732.83	1769.44
733.01	1693.67
733.19	1701.86
733.37	1710.05
733.56	1710.05
733.74	1701.86
733.92	1761.25
734.10	1632.23
734.28	1683.43
734.46	1642.47
734.64	1728.49
734.82	1701.86
735.00	1697.77
735.18	1609.70
735.36	1695.72
735.54	1710.05
735.73	1738.73
735.91	1708.01
736.09	1724.39
736.27	1665.00
736.45	1677.29
736.63	1599.46
736.81	1699.81
736.99	1765.35
737.17	1746.92
737.35	1728.49
737.53	1724.39
737.71	1660.90
737.89	1689.57
738.07	1628.14
738.25	1646.57
738.43	1611.75
738.61	1677.29
738.80	1714.15
738.98	1644.52
739.16	1656.81
739.34	1665.00
739.52	1730.53
739.70	1775.59
739.88	1724.39
740.06	1787.88
740.24	1554.41
740.42	1730.53
740.60	1613.80
740.78	1644.52
740.96	1617.90
741.14	1626.09
741.32	1773.54
741.50	1619.94
741.68	1968.10
741.86	1804.26
742.04	1650.66
742.22	1634.28
742.40	1742.82
742.58	1732.58
742.76	1607.66
742.94	1796.07
743.12	1638.38
743.30	1656.81
743.48	1746.92
743.66	1667.05
743.84	1755.11
744.02	1730.53
744.20	1652.71
744.38	1650.66
744.56	1697.77
744.74	1755.11
744.92	1697.77
745.10	1781.73
745.28	1755.11
745.46	1777.64
745.64	1634.28
745.82	1767.40
746.00	1685.48
746.18	1724.39
746.36	1634.28
746.54	1718.25
746.72	1708.01
746.90	1710.05
747.08	1759.21
747.26	1660.90
747.44	1728.49
747.62	1744.87
747.80	1748.97
747.98	1746.92
748.15	1697.77
748.33	1730.53
748.51	1718.25
748.69	1746.92
748.87	1650.66
749.05	1675.24
749.23	1648.61
749.41	1716.20
749.59	1679.33
749.77	1763.30
749.95	1665.00
750.13	1677.29
750.31	1646.57
750.49	1650.66
750.67	1828.84
750.85	1783.78
751.03	1710.05
751.20	1841.12
751.38	1720.29
751.56	1705.96
751.74	1685.48
751.92	1718.25
752.10	1660.90
752.28	1798.12
752.46	1665.00
752.64	1658.85
752.82	1683.43
753.00	1785.83
753.18	1619.94
753.35	1703.91
753.53	1644.52
753.71	1683.43
753.89	1697.77
754.07	1691.62
754.25	1771.49
754.43	1693.67
754.61	1703.91
754.79	1695.72
754.97	1634.28
755.14	1822.69
755.32	1628.14
755.50	1701.86
755.68	1708.01
755.86	1615.85
756.04	1652.71
756.22	1605.61
756.40	1767.40
756.57	1755.11
756.75	1626.09
756.93	1783.78
757.11	1767.40
757.29	1671.14
757.47	1609.70
757.65	1587.18
757.82	1562.60
758.00	1687.53
758.18	1716.20
758.36	1691.62
758.54	1796.07
758.72	1650.66
758.90	1708.01
759.07	1779.68
759.25	1660.90
759.43	1732.58
759.61	1595.37
759.79	2265.05
759.97	1761.25
760.15	1714.15
760.32	1701.86
760.50	1722.34
760.68	1796.07
760.86	1595.37
761.04	1802.21
761.22	1751.01
761.39	1689.57
761.57	1785.83
761.75	1714.15
761.93	1728.49
762.11	1593.32
762.28	1603.56
762.46	1699.81
762.64	1728.49
762.82	1632.23
763.00	1681.38
763.18	1730.53
763.35	1724.39
763.53	1720.29
763.71	1734.63
763.89	1658.85
764.07	1736.68
764.24	1603.56
764.42	1722.34
764.60	1669.09
764.78	1789.92
764.96	1712.10
765.13	1738.73
765.31	1695.72
765.49	1724.39
765.67	1689.57
765.84	1712.10
766.02	1597.42
766.20	1626.09
766.38	1738.73
766.56	1751.01
766.73	1794.02
766.91	1775.59
767.09	1599.46
767.27	1697.77
767.44	1632.23
767.62	1765.35
767.80	1679.33
767.98	1703.91
768.15	1648.61
768.33	1722.34
768.51	1705.96
768.69	1708.01
768.87	1710.05
769.04	1738.73
769.22	1802.21
769.40	1755.11
769.58	1871.84
769.75	1705.96
769.93	1812.45
770.11	1728.49
770.28	1667.05
770.46	1746.92
770.64	1695.72
770.82	1742.82
770.99	1697.77
771.17	1748.97
771.35	1652.71
771.53	1640.42
771.70	1683.43
771.88	1710.05
772.06	1740.77
772.23	1642.47
772.41	1736.68
772.59	1703.91
772.77	1658.85
772.94	1689.57
773.12	1746.92
773.30	1712.10
773.47	1775.59
773.65	1665.00
773.83	1820.64
774.01	1724.39
774.18	1605.61
774.36	1679.33
774.54	1634.28
774.71	1677.29
774.89	1646.57
775.07	1681.38
775.24	1722.34
775.42	1734.63
775.60	1791.97
775.78	1578.98
775.95	1691.62
776.13	1581.03
776.31	1566.70
776.48	1681.38
776.66	1800.16
776.84	1699.81
777.01	1673.19
777.19	1730.53
777.37	1708.01
777.54	1669.09
777.72	1869.80
777.90	1703.91
778.07	1638.38
778.25	1853.41
778.43	1693.67
778.60	1570.79
778.78	1693.67
778.96	1802.21
779.13	1605.61
779.31	1705.96
779.49	1699.81
779.66	1757.16
779.84	1658.85
780.01	1689.57
780.19	1578.98
780.37	1689.57
780.54	1753.06
780.72	1662.95
780.90	1691.62
781.07	1654.76
781.25	1609.70
781.43	1669.09
781.60	1716.20
781.78	1777.64
781.95	1648.61
782.13	1689.57
782.31	1671.14
782.48	1621.99
782.66	1771.49
782.83	1783.78
783.01	1714.15
783.19	1724.39
783.36	1746.92
783.54	1634.28
783.72	1734.63
783.89	1605.61
784.07	1738.73
784.24	1683.43
784.42	1705.96
784.60	1765.35
784.77	1703.91
784.95	1568.74
785.12	1644.52
785.30	1728.49
785.47	1632.23
785.65	1708.01
785.83	1656.81
786.00	1669.09
786.18	1654.76
786.35	1703.91
786.53	1728.49
786.71	1777.64
786.88	1757.16
787.06	1746.92
787.23	1722.34
787.41	1609.70
787.58	1732.58
787.76	1669.09
787.94	1712.10
788.11	1654.76
788.29	1599.46
788.46	1667.05
788.64	1632.23
788.81	1654.76
788.99	1656.81
789.16	1607.66
789.34	1765.35
789.52	1636.33
789.69	1714.15
789.87	1593.32
790.04	1691.62
790.22	1730.53
790.39	1746.92
790.57	1581.03
790.74	1695.72
790.92	1748.97
791.09	1574.89
791.27	1759.21
791.44	1789.92
791.62	1689.57
791.79	1703.91
791.97	1671.14
792.15	1916.90
792.32	1685.48
792.50	1695.72
792.67	1759.21
792.85	1837.03
793.02	1757.16
793.20	1667.05
793.37	1626.09
793.55	1767.40
793.72	1644.52
793.90	1732.58
794.07	1576.94
794.25	1640.42
794.42	1648.61
794.60	1648.61
794.77	1753.06
794.95	1705.96
795.12	1765.35
795.30	1642.47
795.47	1617.90
795.65	1918.95
795.82	1687.53
796.00	1691.62
796.17	1722.34
796.34	1687.53
796.52	1724.39
796.69	1699.81
796.87	1804.26
797.04	1716.20
797.22	1753.06
797.39	1667.05
797.57	1773.54
797.74	1714.15
797.92	1714.15
798.09	1724.39
798.27	1734.63
798.44	1681.38
798.62	1652.71
798.79	1687.53
798.96	1732.58
799.14	1726.44
799.31	1839.08
799.49	1732.58
799.66	1722.34
799.84	1679.33
800.01	1585.13
800.19	1722.34
800.36	1574.89
800.53	1689.57
800.71	1722.34
800.88	1742.82
801.06	1626.09
801.23	1628.14
801.41	1671.14
801.58	1714.15
801.75	1652.71
801.93	1720.29
802.10	1734.63
802.28	1673.19
802.45	1632.23
802.63	1755.11
802.80	1794.02
802.97	1730.53
803.15	1759.21
803.32	1685.48
803.50	1619.94
803.67	1693.67
803.84	1665.00
804.02	1724.39
804.19	1681.38
804.37	1591.27
804.54	1658.85
804.71	1710.05
804.89	1718.25
805.06	1646.57
805.24	1669.09
805.41	1708.01
805.58	1681.38
805.76	1892.32
805.93	1734.63
806.10	1796.07
806.28	1751.01
806.45	1703.91
806.63	1687.53
806.80	1671.14
806.97	1742.82
807.15	1746.92
807.32	1671.14
807.49	1722.34
807.67	1656.81
807.84	1667.05
808.01	1669.09
808.19	1810.40
808.36	1804.26
808.54	1650.66
808.71	1722.34
808.88	1775.59
809.06	1701.86
809.23	1783.78
809.40	1669.09
809.58	1779.68
809.75	1712.10
809.92	1607.66
810.10	1759.21
810.27	1667.05
810.44	1751.01
810.62	1683.43
810.79	1763.30
810.96	1701.86
811.14	1652.71
811.31	1722.34
811.48	1667.05
811.66	1748.97
811.83	1757.16
812.00	1691.62
812.18	1732.58
812.35	1783.78
812.52	1703.91
812.69	1624.04
812.87	1615.85
813.04	1738.73
813.21	1689.57
813.39	1714.15
813.56	1611.75
813.73	1730.53
813.91	1630.18
814.08	1685.48
814.25	1677.29
814.42	1558.50
814.60	1632.23
814.77	1685.48
814.94	1675.24
815.12	1632.23
815.29	1847.27
815.46	1642.47
815.63	1710.05
815.81	1705.96
815.98	1626.09
816.15	1716.20
816.33	1605.61
816.50	1689.57
816.67	1726.44
816.84	1642.47
817.02	1691.62
817.19	1708.01
817.36	1636.33
817.53	1804.26
817.71	1652.71
817.88	1751.01
818.05	1716.20
818.22	1671.14
818.40	1785.83
818.57	1658.85
818.74	1722.34
818.91	1658.85
819.09	1763.30
819.26	1662.95
819.43	1667.05
819.60	1587.18
819.78	1685.48
819.95	1662.95
820.12	1705.96
820.29	1736.68
820.47	1714.15
820.64	1701.86
820.81	1626.09
820.98	1634.28
821.15	1712.10
821.33	1757.16
821.50	1656.81
821.67	1744.87
821.84	1671.14
822.02	1761.25
822.19	1751.01
822.36	1726.44
822.53	1609.70
822.70	1648.61
822.88	1669.09
823.05	1828.84
823.22	1646.57
823.39	1746.92
823.56	1730.53
823.74	1755.11
823.91	1599.46
824.08	1675.24
824.25	1642.47
824.42	1746.92
824.60	1597.42
824.77	1697.77
824.94	1677.29
825.11	1710.05
825.28	1593.32
825.45	1701.86
825.63	1660.90
825.80	1679.33
825.97	1759.21
826.14	1728.49
826.31	1621.99
826.48	1691.62
826.66	1667.05
826.83	1626.09
827.00	1652.71
827.17	1681.38
827.34	1660.90
827.51	1675.24
827.69	1765.35
827.86	1597.42
828.03	1718.25
828.20	1628.14
828.37	1693.67
828.54	1718.25
828.71	1658.85
828.89	1783.78
829.06	1617.90
829.23	1779.68
829.40	1587.18
829.57	1669.09
829.74	1730.53
829.91	1646.57
830.09	1677.29
830.26	1726.44
830.43	1781.73
830.60	1634.28
830.77	1734.63
830.94	1796.07
831.11	1732.58
831.28	1703.91
831.46	1744.87
831.63	1681.38
831.80	1673.19
831.97	1683.43
832.14	1689.57
832.31	1734.63
832.48	1656.81
832.65	1742.82
832.82	1716.20
832.99	1705.96
833.17	1609.70
833.34	1703.91
833.51	1679.33
833.68	1652.71
833.85	1701.86
834.02	1624.04
834.19	1697.77
834.36	1660.90
834.53	1726.44
834.70	1722.34
834.87	1757.16
835.04	1693.67
835.22	1654.76
835.39	1751.01
835.56	1650.66
835.73	1673.19
835.90	1767.40
836.07	1632.23
836.24	1722.34
836.41	1628.14
836.58	1683.43
836.75	1751.01
836.92	1736.68
837.09	1578.98
837.26	1673.19
837.43	1695.72
837.60	1660.90
837.77	1652.71
837.94	1671.14
838.12	1740.77
838.29	1724.39
838.46	1644.52
838.63	1621.99
838.80	1808.36
838.97	1781.73
839.14	1685.48
839.31	1679.33
839.48	1787.88
839.65	1718.25
839.82	1728.49
839.99	1769.44
840.16	1718.25
840.33	1714.15
840.50	1718.25
840.67	1691.62
840.84	1591.27
841.01	1675.24
841.18	1679.33
841.35	1736.68
841.52	1841.12
841.69	1742.82
841.86	1708.01
842.03	1716.20
842.20	1806.31
842.37	1648.61
842.54	1800.16
842.71	1718.25
842.88	1636.33
843.05	1722.34
843.22	1687.53
843.39	1673.19
843.56	1714.15
843.73	1691.62
843.90	1703.91
844.07	1605.61
844.24	1732.58
844.41	1705.96
844.58	1781.73
844.75	1679.33
844.92	1734.63
845.09	1669.09
845.26	1599.46
845.43	1634.28
845.60	1681.38
845.77	1718.25
845.94	1636.33
846.10	1824.74
846.27	1570.79
846.44	1650.66
846.61	1671.14
846.78	1693.67
846.95	1779.68
847.12	1660.90
847.29	1703.91
847.46	1640.42
847.63	1767.40
847.80	1578.98
847.97	1654.76
848.14	1748.97
848.31	1722.34
848.48	1656.81
848.65	1660.90
848.82	1699.81
848.98	1808.36
849.15	1679.33
849.32	1796.07
849.49	1755.11
849.66	1699.81
849.83	1800.16
850.00	1726.44
850.17	1689.57
850.34	1746.92
850.51	1638.38
850.68	1675.24
850.85	1773.54
851.01	1732.58
851.18	1689.57
851.35	1656.81
851.52	1751.01
851.69	1763.30
851.86	1613.80
852.03	1695.72
852.20	1720.29
852.37	1681.38
852.53	1566.70
852.70	1648.61
852.87	1710.05
853.04	1712.10
853.21	1662.95
853.38	1644.52
853.55	1712.10
853.72	1798.12
853.89	1708.01
854.05	1669.09
854.22	1669.09
854.39	1699.81
854.56	1753.06
854.73	1767.40
854.90	1621.99
855.07	1677.29
855.23	1656.81
855.40	1593.32
855.57	1650.66
855.74	1552.36
855.91	1810.40
856.08	1646.57
856.25	1601.51
856.41	1677.29
856.58	1726.44
856.75	1701.86
856.92	1619.94
857.09	1730.53
857.26	1648.61
857.42	1615.85
857.59	1759.21
857.76	1640.42
857.93	1705.96
858.10	1640.42
858.27	1609.70
858.43	1687.53
858.60	1609.70
858.77	1634.28
858.94	1722.34
859.11	1710.05
859.27	1691.62
859.44	1634.28
859.61	1779.68
859.78	1753.06
859.95	1730.53
860.12	1599.46
860.28	1753.06
860.45	1830.88
860.62	1705.96
860.79	1808.36
860.95	1763.30
861.12	1669.09
861.29	1652.71
861.46	1640.42
861.63	1658.85
861.79	1658.85
861.96	1652.71
862.13	1624.04
862.30	1734.63
862.47	1708.01
862.63	1685.48
862.80	1708.01
862.97	1728.49
863.14	1718.25
863.30	1716.20
863.47	1665.00
863.64	1779.68
863.81	1761.25
863.97	1677.29
864.14	1724.39
864.31	1665.00
864.48	1714.15
864.65	1738.73
864.81	1732.58
864.98	1718.25
865.15	1791.97
865.32	1746.92
865.48	1724.39
865.65	1851.36
865.82	1568.74
865.98	1667.05
866.15	1777.64
866.32	1658.85
866.49	1648.61
866.65	1759.21
866.82	1589.22
866.99	1742.82
867.16	1675.24
867.32	1673.19
867.49	1697.77
867.66	1634.28
867.83	1710.05
867.99	1615.85
868.16	1634.28
868.33	1576.94
868.49	1617.90
868.66	1751.01
868.83	1699.81
868.99	1720.29
869.16	1783.78
869.33	1753.06
869.50	1718.25
869.66	1726.44
869.83	1687.53
870.00	1566.70
870.16	1818.60
870.33	1658.85
870.50	1787.88
870.66	1699.81
870.83	1701.86
871.00	1785.83
871.17	1691.62
871.33	1783.78
871.50	1642.47
871.67	1703.91
871.83	1689.57
872.00	1775.59
872.17	1656.81
872.33	1806.31
872.50	1810.40
872.67	1617.90
872.83	1771.49
873.00	1742.82
873.17	1718.25
873.33	1646.57
873.50	1662.95
873.67	1677.29
873.83	1685.48
874.00	1679.33
874.16	1804.26
874.33	1642.47
874.50	1685.48
874.66	1771.49
874.83	1669.09
875.00	1753.06
875.16	1710.05
875.33	1699.81
875.50	1650.66
875.66	1636.33
875.83	1740.77
875.99	1748.97
876.16	1648.61
876.33	1669.09
876.49	1685.48
876.66	1759.21
876.83	1710.05
876.99	1628.14
877.16	1783.78
877.32	1607.66
877.49	1699.81
877.66	1695.72
877.82	1755.11
877.99	1738.73
878.15	1665.00
878.32	1751.01
878.49	1718.25
878.65	1650.66
878.82	1798.12
878.98	1615.85
879.15	1716.20
879.32	1718.25
879.48	1708.01
879.65	1673.19
879.81	1716.20
879.98	1640.42
880.15	1753.06
880.31	1726.44
880.48	1605.61
880.64	1748.97
880.81	1673.19
880.97	1822.69
881.14	1816.55
881.31	1656.81
881.47	1845.22
881.64	1656.81
881.80	1574.89
881.97	1814.50
882.13	1759.21
882.30	1630.18
882.47	1685.48
882.63	1667.05
882.80	1658.85
882.96	1656.81
883.13	1712.10
883.29	1689.57
883.46	1744.87
883.62	1847.27
883.79	1744.87
883.95	1734.63
884.12	1681.38
884.29	1753.06
884.45	1714.15
884.62	1765.35
884.78	1638.38
884.95	1798.12
885.11	1683.43
885.28	1744.87
885.44	1642.47
885.61	1705.96
885.77	1777.64
885.94	1751.01
886.10	1671.14
886.27	1691.62
886.43	1832.93
886.60	1757.16
886.76	1734.63
886.93	1636.33
887.09	1679.33
887.26	1603.56
887.42	1662.95
887.59	1728.49
887.75	1804.26
887.92	1751.01
888.08	1779.68
888.25	1728.49
888.41	1701.86
888.58	1763.30
888.74	1648.61
888.91	1681.38
>>>>>End Processed Spectral Data<<<<<
