SpectraSuite Data File
++++++++++++++++++++++++++++++++++++
Date: Mon Jun 06 15:25:57 CEST 2016
User: root
Dark Spectrum Present: No
Reference Spectrum Present: No
Number of Sampled Component Spectra: 1
Spectrometers: USB4C02835
Integration Time (usec): 100000 (USB4C02835)
Spectra Averaged: 1 (USB4C02835)
Boxcar Smoothing: 0 (USB4C02835)
Correct for Electrical Dark: No (USB4C02835)
Strobe/Lamp Enabled: No (USB4C02835)
Correct for Detector Non-linearity: No (USB4C02835)
Correct for Stray Light: No (USB4C02835)
Number of Pixels in Processed Spectrum: 3648
>>>>>Begin Processed Spectral Data<<<<<
177.47	1501.16
177.69	1501.16
177.91	1501.16
178.13	1511.40
178.36	1470.44
178.58	1650.66
178.80	1677.29
179.02	1636.33
179.24	1738.73
179.46	1701.86
179.68	1751.01
179.90	1728.49
180.13	1656.81
180.35	1624.04
180.57	1705.96
180.79	1691.62
181.01	1738.73
181.23	1767.40
181.45	1820.64
181.67	1730.53
181.90	1742.82
182.12	1703.91
182.34	1632.23
182.56	1689.57
182.78	1761.25
183.00	1720.29
183.22	1685.48
183.44	1624.04
183.66	1828.84
183.89	1839.08
184.11	1714.15
184.33	1796.07
184.55	1757.16
184.77	1755.11
184.99	1697.77
185.21	1800.16
185.43	1837.03
185.65	1665.00
185.87	1734.63
186.10	1773.54
186.32	1832.93
186.54	1726.44
186.76	1693.67
186.98	1783.78
187.20	1675.24
187.42	1695.72
187.64	1714.15
187.86	1746.92
188.08	1832.93
188.30	1689.57
188.52	1708.01
188.75	1742.82
188.97	1791.97
189.19	1621.99
189.41	1728.49
189.63	1710.05
189.85	1712.10
190.07	1673.19
190.29	1763.30
190.51	1720.29
190.73	1550.31
190.95	1794.02
191.17	1744.87
191.39	1685.48
191.61	1683.43
191.84	1691.62
192.06	1734.63
192.28	1634.28
192.50	1902.56
192.72	1716.20
192.94	1671.14
193.16	1734.63
193.38	1728.49
193.60	1724.39
193.82	1714.15
194.04	1783.78
194.26	1662.95
194.48	1654.76
194.70	1697.77
194.92	1738.73
195.14	1744.87
195.36	1677.29
195.58	1714.15
195.80	1730.53
196.02	1675.24
196.24	1779.68
196.46	1660.90
196.69	1652.71
196.91	1834.98
197.13	1669.09
197.35	1665.00
197.57	1806.31
197.79	1787.88
198.01	1736.68
198.23	1744.87
198.45	1765.35
198.67	1632.23
198.89	1671.14
199.11	1742.82
199.33	1744.87
199.55	1636.33
199.77	1732.58
199.99	1753.06
200.21	1648.61
200.43	1798.12
200.65	1662.95
200.87	1570.79
201.09	1763.30
201.31	1673.19
201.53	1775.59
201.75	1732.58
201.97	1755.11
202.19	1740.77
202.41	1724.39
202.63	1910.75
202.85	1734.63
203.07	1703.91
203.29	1667.05
203.51	1654.76
203.73	1691.62
203.95	1927.14
204.17	1697.77
204.39	1820.64
204.61	1738.73
204.83	1705.96
205.05	1730.53
205.27	1794.02
205.49	1886.18
205.71	1703.91
205.93	1673.19
206.15	1691.62
206.37	1744.87
206.59	1730.53
206.81	1644.52
207.03	1587.18
207.25	1560.55
207.47	1746.92
207.69	1679.33
207.91	1826.79
208.13	1800.16
208.34	1710.05
208.56	1615.85
208.78	1769.44
209.00	1634.28
209.22	1691.62
209.44	1677.29
209.66	1673.19
209.88	1667.05
210.10	1648.61
210.32	1705.96
210.54	1773.54
210.76	1669.09
210.98	1669.09
211.20	1617.90
211.42	1748.97
211.64	1783.78
211.86	1714.15
212.08	1693.67
212.30	1662.95
212.52	1695.72
212.74	1712.10
212.96	1705.96
213.17	1693.67
213.39	1736.68
213.61	1761.25
213.83	1773.54
214.05	1738.73
214.27	1789.92
214.49	1654.76
214.71	1720.29
214.93	1800.16
215.15	1716.20
215.37	1783.78
215.59	1669.09
215.81	1720.29
216.03	1855.46
216.24	1734.63
216.46	1652.71
216.68	1740.77
216.90	1773.54
217.12	1851.36
217.34	1748.97
217.56	1804.26
217.78	1828.84
218.00	1775.59
218.22	1712.10
218.44	1802.21
218.66	1775.59
218.87	1777.64
219.09	1728.49
219.31	1751.01
219.53	1775.59
219.75	1667.05
219.97	1710.05
220.19	1734.63
220.41	1685.48
220.63	1777.64
220.85	1738.73
221.06	1644.52
221.28	1802.21
221.50	1755.11
221.72	1787.88
221.94	1673.19
222.16	1753.06
222.38	1697.77
222.60	1775.59
222.82	1714.15
223.03	1687.53
223.25	1619.94
223.47	1744.87
223.69	1742.82
223.91	1757.16
224.13	1777.64
224.35	1679.33
224.57	1769.44
224.78	1785.83
225.00	1685.48
225.22	1714.15
225.44	1734.63
225.66	1744.87
225.88	1771.49
226.10	1800.16
226.32	1738.73
226.53	1834.98
226.75	1652.71
226.97	1677.29
227.19	1710.05
227.41	1662.95
227.63	1660.90
227.85	1642.47
228.06	1746.92
228.28	1724.39
228.50	1763.30
228.72	1544.17
228.94	1675.24
229.16	1599.46
229.37	1630.18
229.59	1585.13
229.81	1832.93
230.03	1740.77
230.25	1626.09
230.47	1603.56
230.69	1640.42
230.90	1785.83
231.12	1642.47
231.34	1703.91
231.56	1755.11
231.78	1712.10
232.00	1705.96
232.21	1730.53
232.43	1691.62
232.65	1568.74
232.87	1712.10
233.09	1695.72
233.30	1736.68
233.52	1761.25
233.74	1681.38
233.96	1681.38
234.18	1675.24
234.40	1693.67
234.61	1796.07
234.83	1671.14
235.05	1615.85
235.27	1841.12
235.49	1763.30
235.70	1751.01
235.92	1806.31
236.14	1755.11
236.36	1814.50
236.58	1675.24
236.79	1748.97
237.01	1628.14
237.23	1667.05
237.45	1867.75
237.67	1632.23
237.88	1708.01
238.10	1828.84
238.32	1626.09
238.54	1744.87
238.76	1710.05
238.97	1679.33
239.19	1652.71
239.41	1710.05
239.63	1820.64
239.85	1626.09
240.06	1796.07
240.28	1734.63
240.50	1746.92
240.72	1730.53
240.93	1734.63
241.15	1757.16
241.37	1644.52
241.59	1822.69
241.81	1695.72
242.02	1724.39
242.24	1769.44
242.46	1685.48
242.68	1689.57
242.89	1730.53
243.11	1744.87
243.33	1736.68
243.55	1662.95
243.76	1718.25
243.98	1665.00
244.20	1726.44
244.42	1685.48
244.64	1697.77
244.85	1720.29
245.07	1660.90
245.29	1738.73
245.51	1724.39
245.72	1734.63
245.94	1718.25
246.16	1687.53
246.38	1771.49
246.59	1699.81
246.81	1652.71
247.03	1751.01
247.24	1601.51
247.46	1640.42
247.68	1708.01
247.90	1595.37
248.11	1683.43
248.33	1779.68
248.55	1658.85
248.77	1751.01
248.98	1718.25
249.20	1761.25
249.42	1728.49
249.64	1693.67
249.85	1732.58
250.07	1632.23
250.29	1740.77
250.50	1757.16
250.72	1673.19
250.94	1738.73
251.16	1798.12
251.37	1775.59
251.59	1734.63
251.81	1769.44
252.02	1802.21
252.24	1654.76
252.46	1765.35
252.68	1658.85
252.89	1638.38
253.11	1556.46
253.33	1855.46
253.54	1763.30
253.76	1703.91
253.98	1732.58
254.20	1705.96
254.41	1613.80
254.63	1828.84
254.85	1712.10
255.06	1785.83
255.28	1796.07
255.50	1767.40
255.71	1644.52
255.93	1687.53
256.15	1753.06
256.36	1753.06
256.58	1701.86
256.80	1771.49
257.02	1796.07
257.23	1673.19
257.45	1675.24
257.67	1816.55
257.88	1681.38
258.10	1742.82
258.32	1728.49
258.53	1722.34
258.75	1857.51
258.97	1695.72
259.18	1724.39
259.40	1730.53
259.62	1781.73
259.83	1748.97
260.05	1810.40
260.27	2045.92
260.48	1800.16
260.70	1726.44
260.92	1677.29
261.13	1738.73
261.35	1724.39
261.57	1761.25
261.78	1624.04
262.00	1621.99
262.22	1794.02
262.43	1662.95
262.65	1787.88
262.86	1734.63
263.08	1857.51
263.30	1681.38
263.51	1636.33
263.73	1714.15
263.95	1806.31
264.16	1697.77
264.38	1683.43
264.60	1683.43
264.81	1687.53
265.03	1660.90
265.25	1759.21
265.46	1658.85
265.68	1751.01
265.89	1771.49
266.11	1677.29
266.33	1773.54
266.54	1761.25
266.76	1714.15
266.98	1742.82
267.19	1863.65
267.41	1796.07
267.62	1779.68
267.84	1632.23
268.06	1757.16
268.27	1691.62
268.49	1779.68
268.70	1730.53
268.92	1730.53
269.14	1636.33
269.35	1660.90
269.57	1714.15
269.79	1742.82
270.00	1665.00
270.22	1783.78
270.43	1654.76
270.65	1662.95
270.87	1695.72
271.08	1744.87
271.30	1685.48
271.51	1714.15
271.73	1744.87
271.95	1808.36
272.16	1746.92
272.38	1738.73
272.59	1726.44
272.81	1767.40
273.02	1761.25
273.24	1775.59
273.46	1802.21
273.67	1669.09
273.89	1681.38
274.10	1742.82
274.32	1800.16
274.54	1746.92
274.75	1708.01
274.97	1712.10
275.18	1771.49
275.40	1722.34
275.61	1681.38
275.83	1722.34
276.05	1677.29
276.26	1685.48
276.48	1738.73
276.69	1669.09
276.91	1667.05
277.12	1761.25
277.34	1796.07
277.55	1761.25
277.77	1691.62
277.99	1615.85
278.20	1710.05
278.42	1656.81
278.63	1695.72
278.85	1652.71
279.06	1531.88
279.28	1724.39
279.49	1722.34
279.71	1683.43
279.93	1720.29
280.14	1751.01
280.36	1710.05
280.57	1757.16
280.79	1691.62
281.00	1689.57
281.22	1697.77
281.43	1789.92
281.65	1607.66
281.86	1669.09
282.08	1757.16
282.29	1785.83
282.51	1644.52
282.73	1619.94
282.94	1705.96
283.16	1742.82
283.37	1757.16
283.59	1705.96
283.80	1755.11
284.02	1697.77
284.23	1738.73
284.45	1599.46
284.66	1673.19
284.88	1740.77
285.09	1830.88
285.31	1724.39
285.52	1769.44
285.74	1621.99
285.95	1834.98
286.17	1722.34
286.38	1806.31
286.60	1701.86
286.81	1708.01
287.03	1591.27
287.24	1730.53
287.46	1748.97
287.67	1714.15
287.89	1855.46
288.10	1667.05
288.32	1705.96
288.53	1796.07
288.75	1800.16
288.96	1720.29
289.18	1734.63
289.39	1798.12
289.61	1757.16
289.82	1855.46
290.04	1865.70
290.25	1662.95
290.47	1656.81
290.68	1681.38
290.90	1771.49
291.11	1697.77
291.33	1724.39
291.54	1621.99
291.76	1781.73
291.97	1699.81
292.18	1804.26
292.40	1746.92
292.61	1628.14
292.83	1845.22
293.04	1755.11
293.26	1771.49
293.47	1632.23
293.69	1642.47
293.90	1685.48
294.12	1818.60
294.33	1693.67
294.55	1736.68
294.76	1775.59
294.97	1781.73
295.19	1834.98
295.40	1722.34
295.62	1681.38
295.83	1710.05
296.05	1650.66
296.26	1812.45
296.48	1648.61
296.69	1640.42
296.90	1648.61
297.12	1712.10
297.33	1757.16
297.55	1658.85
297.76	1777.64
297.98	1783.78
298.19	1710.05
298.41	1656.81
298.62	1701.86
298.83	1701.86
299.05	1716.20
299.26	1662.95
299.48	1662.95
299.69	1804.26
299.90	1748.97
300.12	1630.18
300.33	1675.24
300.55	1753.06
300.76	1689.57
300.98	1685.48
301.19	1771.49
301.40	1650.66
301.62	1777.64
301.83	1755.11
302.05	1691.62
302.26	1722.34
302.47	1662.95
302.69	1652.71
302.90	1798.12
303.12	1656.81
303.33	1771.49
303.54	1849.32
303.76	1697.77
303.97	1771.49
304.19	1783.78
304.40	1603.56
304.61	1814.50
304.83	1869.80
305.04	1849.32
305.26	1718.25
305.47	1726.44
305.68	1683.43
305.90	1652.71
306.11	1769.44
306.33	1648.61
306.54	1746.92
306.75	1646.57
306.97	1644.52
307.18	1605.61
307.39	1710.05
307.61	1742.82
307.82	1697.77
308.04	1720.29
308.25	1656.81
308.46	1777.64
308.68	1718.25
308.89	1703.91
309.10	1820.64
309.32	1785.83
309.53	1609.70
309.74	1761.25
309.96	1751.01
310.17	1763.30
310.39	1673.19
310.60	1722.34
310.81	1693.67
311.03	1667.05
311.24	1720.29
311.45	1687.53
311.67	1890.28
311.88	1689.57
312.09	1736.68
312.31	1742.82
312.52	1759.21
312.73	1673.19
312.95	1632.23
313.16	1595.37
313.37	1785.83
313.59	1683.43
313.80	1720.29
314.01	1791.97
314.23	1667.05
314.44	1667.05
314.65	1593.32
314.87	1767.40
315.08	1703.91
315.29	1742.82
315.51	1697.77
315.72	1705.96
315.93	1855.46
316.15	1789.92
316.36	1734.63
316.57	1722.34
316.79	1701.86
317.00	1791.97
317.21	1779.68
317.43	1755.11
317.64	1693.67
317.85	1638.38
318.07	1732.58
318.28	1685.48
318.49	1751.01
318.70	1880.04
318.92	1832.93
319.13	1849.32
319.34	1880.04
319.56	1834.98
319.77	1843.17
319.98	1777.64
320.20	1830.88
320.41	1738.73
320.62	1755.11
320.83	1642.47
321.05	1830.88
321.26	1714.15
321.47	1751.01
321.69	1773.54
321.90	1679.33
322.11	1716.20
322.32	1683.43
322.54	1775.59
322.75	1683.43
322.96	1783.78
323.18	1703.91
323.39	1646.57
323.60	1605.61
323.81	1751.01
324.03	1697.77
324.24	1751.01
324.45	1628.14
324.66	1685.48
324.88	1814.50
325.09	1738.73
325.30	1769.44
325.52	1708.01
325.73	1751.01
325.94	1685.48
326.15	1601.51
326.37	1701.86
326.58	1755.11
326.79	1785.83
327.00	1681.38
327.22	1710.05
327.43	1695.72
327.64	1652.71
327.85	1785.83
328.07	1744.87
328.28	1867.75
328.49	1673.19
328.70	1712.10
328.92	1712.10
329.13	1736.68
329.34	1738.73
329.55	1824.74
329.76	1742.82
329.98	1759.21
330.19	1849.32
330.40	1785.83
330.61	1673.19
330.83	1738.73
331.04	1714.15
331.25	1656.81
331.46	1667.05
331.68	1564.65
331.89	1755.11
332.10	1730.53
332.31	1630.18
332.52	1720.29
332.74	1865.70
332.95	1607.66
333.16	1681.38
333.37	1693.67
333.58	1720.29
333.80	1732.58
334.01	1642.47
334.22	1746.92
334.43	1689.57
334.64	1699.81
334.86	1673.19
335.07	1742.82
335.28	1812.45
335.49	1724.39
335.70	1759.21
335.92	1724.39
336.13	1853.41
336.34	1714.15
336.55	1718.25
336.76	1730.53
336.98	1619.94
337.19	1714.15
337.40	1773.54
337.61	1828.84
337.82	1701.86
338.04	1728.49
338.25	1652.71
338.46	1644.52
338.67	1691.62
338.88	1632.23
339.09	1648.61
339.31	1742.82
339.52	1712.10
339.73	1675.24
339.94	1675.24
340.15	1736.68
340.36	1677.29
340.58	1675.24
340.79	1781.73
341.00	1746.92
341.21	1675.24
341.42	1804.26
341.63	1751.01
341.85	1722.34
342.06	1730.53
342.27	1650.66
342.48	1732.58
342.69	1595.37
342.90	1740.77
343.12	1806.31
343.33	1763.30
343.54	1738.73
343.75	1771.49
343.96	1718.25
344.17	1699.81
344.38	1689.57
344.60	1650.66
344.81	1617.90
345.02	1708.01
345.23	1708.01
345.44	1861.60
345.65	1746.92
345.86	1703.91
346.07	1742.82
346.29	1683.43
346.50	1685.48
346.71	1783.78
346.92	1769.44
347.13	1863.65
347.34	1669.09
347.55	1714.15
347.76	1740.77
347.98	1609.70
348.19	1648.61
348.40	1769.44
348.61	1767.40
348.82	1773.54
349.03	1753.06
349.24	1630.18
349.45	1824.74
349.66	1609.70
349.88	1724.39
350.09	1753.06
350.30	1716.20
350.51	1892.32
350.72	1732.58
350.93	1732.58
351.14	1716.20
351.35	1742.82
351.56	1765.35
351.77	1673.19
351.99	1720.29
352.20	1738.73
352.41	1787.88
352.62	1574.89
352.83	1712.10
353.04	1652.71
353.25	1712.10
353.46	1675.24
353.67	1865.70
353.88	1607.66
354.09	1644.52
354.30	1720.29
354.52	1796.07
354.73	1687.53
354.94	1730.53
355.15	1730.53
355.36	1802.21
355.57	1722.34
355.78	1755.11
355.99	1683.43
356.20	1697.77
356.41	1662.95
356.62	1794.02
356.83	1796.07
357.04	1789.92
357.25	1718.25
357.46	1732.58
357.68	1613.80
357.89	1652.71
358.10	1738.73
358.31	1669.09
358.52	1765.35
358.73	1611.75
358.94	1703.91
359.15	1695.72
359.36	1771.49
359.57	1726.44
359.78	1730.53
359.99	1775.59
360.20	1589.22
360.41	1662.95
360.62	1701.86
360.83	1755.11
361.04	1683.43
361.25	1740.77
361.46	1828.84
361.67	1755.11
361.88	1751.01
362.09	1769.44
362.30	1753.06
362.51	1708.01
362.72	1740.77
362.93	1724.39
363.14	1787.88
363.35	1824.74
363.56	1665.00
363.78	1746.92
363.99	1837.03
364.20	1710.05
364.41	1716.20
364.62	1761.25
364.83	1789.92
365.04	1777.64
365.25	1734.63
365.46	1820.64
365.67	1722.34
365.88	1650.66
366.09	1634.28
366.30	1636.33
366.51	1736.68
366.72	1617.90
366.93	1695.72
367.14	1718.25
367.35	1853.41
367.56	1716.20
367.77	1767.40
367.98	1736.68
368.18	1783.78
368.39	1779.68
368.60	1675.24
368.81	1730.53
369.02	1763.30
369.23	1675.24
369.44	1687.53
369.65	1646.57
369.86	1810.40
370.07	1765.35
370.28	1626.09
370.49	1714.15
370.70	1769.44
370.91	1648.61
371.12	1662.95
371.33	1765.35
371.54	1742.82
371.75	1839.08
371.96	1599.46
372.17	1736.68
372.38	1726.44
372.59	1804.26
372.80	1679.33
373.01	1746.92
373.22	1638.38
373.43	1679.33
373.64	1683.43
373.85	1798.12
374.06	1810.40
374.26	1757.16
374.47	1671.14
374.68	1824.74
374.89	1718.25
375.10	1703.91
375.31	1828.84
375.52	1761.25
375.73	1683.43
375.94	1691.62
376.15	1863.65
376.36	1710.05
376.57	1656.81
376.78	1691.62
376.99	1726.44
377.20	1800.16
377.40	1628.14
377.61	1849.32
377.82	1630.18
378.03	1837.03
378.24	1763.30
378.45	1685.48
378.66	1771.49
378.87	1638.38
379.08	1685.48
379.29	1738.73
379.50	1767.40
379.71	1728.49
379.91	1746.92
380.12	1673.19
380.33	1763.30
380.54	1720.29
380.75	1673.19
380.96	1748.97
381.17	1777.64
381.38	1748.97
381.59	1789.92
381.80	1748.97
382.00	1763.30
382.21	1800.16
382.42	1763.30
382.63	1818.60
382.84	1755.11
383.05	1783.78
383.26	1841.12
383.47	1654.76
383.68	1773.54
383.88	1775.59
384.09	1685.48
384.30	1839.08
384.51	1755.11
384.72	1697.77
384.93	1665.00
385.14	1708.01
385.35	1814.50
385.55	1652.71
385.76	1849.32
385.97	1683.43
386.18	1646.57
386.39	1665.00
386.60	1689.57
386.81	1669.09
387.02	1624.04
387.22	1660.90
387.43	1796.07
387.64	1798.12
387.85	1742.82
388.06	2168.80
388.27	4218.82
388.48	6612.89
388.68	8191.88
388.89	9295.73
389.10	9631.60
389.31	8517.50
389.52	7577.48
389.73	6739.87
389.93	6360.99
390.14	5908.39
390.35	5062.58
390.56	4566.97
390.77	3751.88
390.98	3076.05
391.18	2506.71
391.39	2215.90
391.60	1894.37
391.81	1722.34
392.02	1761.25
392.23	1820.64
392.43	1697.77
392.64	1787.88
392.85	1761.25
393.06	1865.70
393.27	1710.05
393.47	1687.53
393.68	1681.38
393.89	1644.52
394.10	1830.88
394.31	1632.23
394.52	1656.81
394.72	1699.81
394.93	1722.34
395.14	1679.33
395.35	1730.53
395.56	1755.11
395.76	1650.66
395.97	1755.11
396.18	1796.07
396.39	1796.07
396.60	2029.54
396.80	1902.56
397.01	1796.07
397.22	1789.92
397.43	1777.64
397.64	1789.92
397.84	1787.88
398.05	1851.36
398.26	1755.11
398.47	1847.27
398.67	1802.21
398.88	1755.11
399.09	1775.59
399.30	1652.71
399.51	1800.16
399.71	1667.05
399.92	1738.73
400.13	1751.01
400.34	1744.87
400.54	1763.30
400.75	1865.70
400.96	1726.44
401.17	1857.51
401.37	1751.01
401.58	1732.58
401.79	1734.63
402.00	1935.33
402.21	2015.20
402.41	1916.90
402.62	2002.91
402.83	1970.15
403.04	2072.54
403.24	2056.16
403.45	1820.64
403.66	1931.23
403.87	1894.37
404.07	1890.28
404.28	1923.04
404.49	1953.76
404.70	1677.29
404.90	1798.12
405.11	1755.11
405.32	1728.49
405.52	1671.14
405.73	1724.39
405.94	1677.29
406.15	1722.34
406.35	1798.12
406.56	1794.02
406.77	1681.38
406.98	1771.49
407.18	1748.97
407.39	1828.84
407.60	1726.44
407.80	1730.53
408.01	1658.85
408.22	1738.73
408.43	1701.86
408.63	1769.44
408.84	1777.64
409.05	1781.73
409.25	1679.33
409.46	1665.00
409.67	1691.62
409.88	1751.01
410.08	1648.61
410.29	1697.77
410.50	1730.53
410.70	1787.88
410.91	1726.44
411.12	1748.97
411.32	1779.68
411.53	1681.38
411.74	1787.88
411.95	1828.84
412.15	1783.78
412.36	1781.73
412.57	1671.14
412.77	1798.12
412.98	1757.16
413.19	1755.11
413.39	1628.14
413.60	1705.96
413.81	1757.16
414.01	1650.66
414.22	1734.63
414.43	1804.26
414.63	1705.96
414.84	1697.77
415.05	1630.18
415.25	1599.46
415.46	1822.69
415.67	1796.07
415.87	1730.53
416.08	1722.34
416.29	1656.81
416.49	1779.68
416.70	1728.49
416.91	1591.27
417.11	1726.44
417.32	1730.53
417.53	1773.54
417.73	1812.45
417.94	1708.01
418.15	1783.78
418.35	1691.62
418.56	1751.01
418.77	1820.64
418.97	1724.39
419.18	1667.05
419.38	1691.62
419.59	1701.86
419.80	1771.49
420.00	1683.43
420.21	1757.16
420.42	1755.11
420.62	1775.59
420.83	1681.38
421.04	1746.92
421.24	1632.23
421.45	1777.64
421.65	1810.40
421.86	1701.86
422.07	1726.44
422.27	1748.97
422.48	1767.40
422.69	1636.33
422.89	1716.20
423.10	1710.05
423.30	1652.71
423.51	1763.30
423.72	1769.44
423.92	1691.62
424.13	1683.43
424.33	1722.34
424.54	1761.25
424.75	1726.44
424.95	1804.26
425.16	1753.06
425.36	1693.67
425.57	1777.64
425.78	1738.73
425.98	1855.46
426.19	1671.14
426.39	1654.76
426.60	1662.95
426.81	1687.53
427.01	1734.63
427.22	1673.19
427.42	1667.05
427.63	1626.09
427.83	1828.84
428.04	1869.80
428.25	1779.68
428.45	1834.98
428.66	1767.40
428.86	1716.20
429.07	1726.44
429.28	1724.39
429.48	1646.57
429.69	1669.09
429.89	1703.91
430.10	1581.03
430.30	1732.58
430.51	1759.21
430.71	1689.57
430.92	1712.10
431.13	1660.90
431.33	1787.88
431.54	1681.38
431.74	1759.21
431.95	1828.84
432.15	1673.19
432.36	1699.81
432.56	1724.39
432.77	1884.13
432.98	1781.73
433.18	1730.53
433.39	1755.11
433.59	1796.07
433.80	1865.70
434.00	1853.41
434.21	1744.87
434.41	1732.58
434.62	1877.99
434.82	1646.57
435.03	1675.24
435.23	1746.92
435.44	1654.76
435.64	1732.58
435.85	1755.11
436.06	1744.87
436.26	1767.40
436.47	1656.81
436.67	1726.44
436.88	1748.97
437.08	1716.20
437.29	1755.11
437.49	1783.78
437.70	1767.40
437.90	1722.34
438.11	1847.27
438.31	1841.12
438.52	1902.56
438.72	1816.55
438.93	1886.18
439.13	1748.97
439.34	1816.55
439.54	1710.05
439.75	1771.49
439.95	1771.49
440.16	1654.76
440.36	1828.84
440.57	1812.45
440.77	1699.81
440.98	1740.77
441.18	1724.39
441.39	1746.92
441.59	1697.77
441.80	1871.84
442.00	1761.25
442.21	1785.83
442.41	1617.90
442.62	1720.29
442.82	1660.90
443.02	1691.62
443.23	1757.16
443.43	1746.92
443.64	1834.98
443.84	1675.24
444.05	1794.02
444.25	1751.01
444.46	1722.34
444.66	1722.34
444.87	1855.46
445.07	1638.38
445.28	1769.44
445.48	1834.98
445.69	1804.26
445.89	1841.12
446.09	1648.61
446.30	2062.30
446.50	2686.94
446.71	3639.24
446.91	4276.16
447.12	4630.46
447.32	4808.63
447.53	4280.25
447.73	3905.48
447.93	3538.89
448.14	3309.52
448.34	3250.13
448.55	2904.02
448.75	2762.71
448.96	2750.42
449.16	2443.23
449.36	2299.87
449.57	1966.05
449.77	1841.12
449.98	1771.49
450.18	1810.40
450.39	1806.31
450.59	1775.59
450.79	1779.68
451.00	1736.68
451.20	1724.39
451.41	1777.64
451.61	1806.31
451.81	1763.30
452.02	1728.49
452.22	1730.53
452.43	1656.81
452.63	1675.24
452.84	1730.53
453.04	1697.77
453.24	1726.44
453.45	1736.68
453.65	1746.92
453.86	1759.21
454.06	1800.16
454.26	1734.63
454.47	1740.77
454.67	1814.50
454.87	1798.12
455.08	1705.96
455.28	1785.83
455.49	1681.38
455.69	1773.54
455.89	1898.47
456.10	1839.08
456.30	1757.16
456.51	1736.68
456.71	1744.87
456.91	1748.97
457.12	1710.05
457.32	1712.10
457.52	1699.81
457.73	1791.97
457.93	1726.44
458.14	1728.49
458.34	1687.53
458.54	1716.20
458.75	1761.25
458.95	1757.16
459.15	1722.34
459.36	1730.53
459.56	1757.16
459.76	1865.70
459.97	1689.57
460.17	1720.29
460.37	1814.50
460.58	1753.06
460.78	1783.78
460.99	1738.73
461.19	1724.39
461.39	1644.52
461.60	1785.83
461.80	1771.49
462.00	1667.05
462.21	1767.40
462.41	1712.10
462.61	1693.67
462.82	1673.19
463.02	1738.73
463.22	1699.81
463.43	1818.60
463.63	1753.06
463.83	1791.97
464.04	1652.71
464.24	1716.20
464.44	1689.57
464.64	1746.92
464.85	1753.06
465.05	1796.07
465.25	1689.57
465.46	1763.30
465.66	1746.92
465.86	1808.36
466.07	1705.96
466.27	1783.78
466.47	1611.75
466.68	1634.28
466.88	1834.98
467.08	1738.73
467.29	1832.93
467.49	1789.92
467.69	1763.30
467.89	1794.02
468.10	1705.96
468.30	1828.84
468.50	1742.82
468.71	1820.64
468.91	1689.57
469.11	1855.46
469.31	1736.68
469.52	1763.30
469.72	1896.42
469.92	1853.41
470.13	1712.10
470.33	1769.44
470.53	1859.56
470.73	2183.13
470.94	2224.09
471.14	2303.96
471.34	2510.81
471.54	2377.69
471.75	2187.23
471.95	2148.32
472.15	2072.54
472.36	2086.88
472.56	2064.35
472.76	2043.87
472.96	1964.00
473.17	1982.43
473.37	1849.32
473.57	1724.39
473.77	1861.60
473.98	1728.49
474.18	1773.54
474.38	1931.23
474.58	1634.28
474.79	1687.53
474.99	1755.11
475.19	1816.55
475.39	1658.85
475.60	1748.97
475.80	1773.54
476.00	1691.62
476.20	1740.77
476.41	1746.92
476.61	1806.31
476.81	1802.21
477.01	1662.95
477.21	1816.55
477.42	1861.60
477.62	1746.92
477.82	1761.25
478.02	1748.97
478.23	1783.78
478.43	1691.62
478.63	1671.14
478.83	1732.58
479.03	1650.66
479.24	1753.06
479.44	1771.49
479.64	1681.38
479.84	1642.47
480.04	1634.28
480.25	1761.25
480.45	1685.48
480.65	1642.47
480.85	1814.50
481.06	1693.67
481.26	1771.49
481.46	1769.44
481.66	1808.36
481.86	1660.90
482.06	1855.46
482.27	1748.97
482.47	1708.01
482.67	1738.73
482.87	1814.50
483.07	1845.22
483.28	1665.00
483.48	1742.82
483.68	1751.01
483.88	1736.68
484.08	1718.25
484.29	1687.53
484.49	1714.15
484.69	1679.33
484.89	1771.49
485.09	1765.35
485.29	1837.03
485.50	1800.16
485.70	1763.30
485.90	1796.07
486.10	1808.36
486.30	1847.27
486.50	1791.97
486.71	1718.25
486.91	1849.32
487.11	1751.01
487.31	1597.42
487.51	1746.92
487.71	1677.29
487.91	1662.95
488.12	1628.14
488.32	1652.71
488.52	1732.58
488.72	1685.48
488.92	1734.63
489.12	1796.07
489.32	1812.45
489.53	1765.35
489.73	1650.66
489.93	1828.84
490.13	1714.15
490.33	1662.95
490.53	1751.01
490.73	1705.96
490.94	1607.66
491.14	1828.84
491.34	1828.84
491.54	2197.47
491.74	2623.45
491.94	2863.06
492.14	2963.41
492.34	3090.38
492.54	2703.32
492.75	2461.66
492.95	2410.46
493.15	2267.10
493.35	2287.58
493.55	2220.00
493.75	2095.07
493.95	2099.17
494.15	1955.81
494.35	1845.22
494.56	1910.75
494.76	1789.92
494.96	1818.60
495.16	1783.78
495.36	1757.16
495.56	1720.29
495.76	1789.92
495.96	1787.88
496.16	1660.90
496.36	1859.56
496.56	1718.25
496.77	1718.25
496.97	1779.68
497.17	1828.84
497.37	1718.25
497.57	1783.78
497.77	1742.82
497.97	1691.62
498.17	1781.73
498.37	1705.96
498.57	1720.29
498.77	1675.24
498.97	1826.79
499.17	1800.16
499.38	1787.88
499.58	1755.11
499.78	1736.68
499.98	1806.31
500.18	1701.86
500.38	1740.77
500.58	1937.38
500.78	2506.71
500.98	4493.24
501.18	5814.18
501.38	6778.78
501.58	7100.31
501.78	6594.46
501.98	5486.51
502.18	5031.86
502.38	4372.41
502.58	4087.75
502.78	3805.13
502.98	3563.47
503.18	3477.45
503.38	3164.11
503.59	2840.53
503.79	2615.26
503.99	2504.67
504.19	2271.20
504.39	2250.72
504.59	2156.51
504.79	2150.37
504.99	2009.06
505.19	1935.33
505.39	1892.32
505.59	2017.25
505.79	1925.09
505.99	1804.26
506.19	1796.07
506.39	1912.80
506.59	1771.49
506.79	1716.20
506.99	1869.80
507.19	1812.45
507.39	1794.02
507.59	1759.21
507.79	1712.10
507.99	1687.53
508.19	1705.96
508.39	1714.15
508.59	1748.97
508.79	1912.80
508.99	1802.21
509.19	1710.05
509.39	1767.40
509.59	1716.20
509.79	1665.00
509.99	1755.11
510.19	1812.45
510.39	1871.84
510.59	1693.67
510.79	1673.19
510.99	1681.38
511.19	1755.11
511.39	1837.03
511.59	1865.70
511.79	1861.60
511.99	1673.19
512.19	1806.31
512.38	1757.16
512.58	1726.44
512.78	1748.97
512.98	1751.01
513.18	1773.54
513.38	1730.53
513.58	1775.59
513.78	1726.44
513.98	1714.15
514.18	1730.53
514.38	1619.94
514.58	1789.92
514.78	1755.11
514.98	1636.33
515.18	1697.77
515.38	1605.61
515.58	1839.08
515.78	1738.73
515.98	1787.88
516.18	1703.91
516.38	1705.96
516.57	1724.39
516.77	1710.05
516.97	1796.07
517.17	1738.73
517.37	1665.00
517.57	1806.31
517.77	1777.64
517.97	1718.25
518.17	1734.63
518.37	1724.39
518.57	1667.05
518.77	1728.49
518.97	1742.82
519.16	1705.96
519.36	1759.21
519.56	1714.15
519.76	1798.12
519.96	1781.73
520.16	1808.36
520.36	1746.92
520.56	1816.55
520.76	1734.63
520.96	1755.11
521.16	1769.44
521.35	1859.56
521.55	1777.64
521.75	1720.29
521.95	1697.77
522.15	1744.87
522.35	1769.44
522.55	1755.11
522.75	1777.64
522.95	1806.31
523.14	1681.38
523.34	1761.25
523.54	1722.34
523.74	1769.44
523.94	1796.07
524.14	1609.70
524.34	1753.06
524.54	1816.55
524.73	1716.20
524.93	1855.46
525.13	1695.72
525.33	1669.09
525.53	1843.17
525.73	1800.16
525.93	1728.49
526.13	1728.49
526.32	1695.72
526.52	1728.49
526.72	1769.44
526.92	1775.59
527.12	1730.53
527.32	1644.52
527.52	1701.86
527.71	1767.40
527.91	1755.11
528.11	1726.44
528.31	1771.49
528.51	1714.15
528.71	1728.49
528.90	1693.67
529.10	1789.92
529.30	1884.13
529.50	1646.57
529.70	1800.16
529.90	1783.78
530.09	1716.20
530.29	1714.15
530.49	1665.00
530.69	1820.64
530.89	1722.34
531.09	1742.82
531.28	1691.62
531.48	1748.97
531.68	1763.30
531.88	1724.39
532.08	1853.41
532.28	1748.97
532.47	1802.21
532.67	1826.79
532.87	1753.06
533.07	1673.19
533.27	1779.68
533.46	1738.73
533.66	1681.38
533.86	1753.06
534.06	1703.91
534.26	1673.19
534.45	1757.16
534.65	1820.64
534.85	1705.96
535.05	1724.39
535.25	1871.84
535.44	1673.19
535.64	1834.98
535.84	1699.81
536.04	1753.06
536.24	1689.57
536.43	1785.83
536.63	1787.88
536.83	1697.77
537.03	1816.55
537.22	1599.46
537.42	1660.90
537.62	1730.53
537.82	1681.38
538.02	1773.54
538.21	1783.78
538.41	1896.42
538.61	1841.12
538.81	1761.25
539.00	1888.23
539.20	1624.04
539.40	1765.35
539.60	1714.15
539.79	1859.56
539.99	1710.05
540.19	1785.83
540.39	1753.06
540.58	1763.30
540.78	1849.32
540.98	1705.96
541.18	1771.49
541.37	1812.45
541.57	1759.21
541.77	1796.07
541.97	1665.00
542.16	1742.82
542.36	1693.67
542.56	1660.90
542.76	1847.27
542.95	1763.30
543.15	1861.60
543.35	1787.88
543.54	1710.05
543.74	1673.19
543.94	1800.16
544.14	1791.97
544.33	1800.16
544.53	1763.30
544.73	1730.53
544.93	1699.81
545.12	1667.05
545.32	1771.49
545.52	1732.58
545.71	1748.97
545.91	1728.49
546.11	1681.38
546.30	1763.30
546.50	1740.77
546.70	1880.04
546.90	1677.29
547.09	1677.29
547.29	1765.35
547.49	1665.00
547.68	1841.12
547.88	1697.77
548.08	1773.54
548.27	2254.81
548.47	1695.72
548.67	1669.09
548.87	1810.40
549.06	1748.97
549.26	1736.68
549.46	1769.44
549.65	1763.30
549.85	1738.73
550.05	1757.16
550.24	1671.14
550.44	1783.78
550.64	1769.44
550.83	1783.78
551.03	1816.55
551.23	1800.16
551.42	1791.97
551.62	1794.02
551.82	1718.25
552.01	1742.82
552.21	1859.56
552.41	1742.82
552.60	1851.36
552.80	1732.58
553.00	1714.15
553.19	1742.82
553.39	1900.52
553.59	1718.25
553.78	1761.25
553.98	1710.05
554.17	1652.71
554.37	1769.44
554.57	1812.45
554.76	1675.24
554.96	1691.62
555.16	1746.92
555.35	1748.97
555.55	1738.73
555.75	1757.16
555.94	1787.88
556.14	1667.05
556.33	1736.68
556.53	1738.73
556.73	1722.34
556.92	1675.24
557.12	1894.37
557.32	1892.32
557.51	1771.49
557.71	1861.60
557.90	1787.88
558.10	1867.75
558.30	1638.38
558.49	1710.05
558.69	1832.93
558.88	1736.68
559.08	1751.01
559.28	1777.64
559.47	1787.88
559.67	1904.61
559.86	1830.88
560.06	1771.49
560.26	1744.87
560.45	1738.73
560.65	1765.35
560.84	1816.55
561.04	1716.20
561.24	1822.69
561.43	1726.44
561.63	1767.40
561.82	1763.30
562.02	1791.97
562.22	1695.72
562.41	1714.15
562.61	1783.78
562.80	1656.81
563.00	1828.84
563.19	1730.53
563.39	1806.31
563.59	1775.59
563.78	1751.01
563.98	1675.24
564.17	1740.77
564.37	1646.57
564.56	1697.77
564.76	1732.58
564.96	1798.12
565.15	1767.40
565.35	1871.84
565.54	1751.01
565.74	1773.54
565.93	1789.92
566.13	1734.63
566.32	1830.88
566.52	1781.73
566.71	1753.06
566.91	1828.84
567.11	1791.97
567.30	1677.29
567.50	1783.78
567.69	1841.12
567.89	1714.15
568.08	1697.77
568.28	1687.53
568.47	1714.15
568.67	1794.02
568.86	1687.53
569.06	1812.45
569.25	1744.87
569.45	1640.42
569.64	1710.05
569.84	1689.57
570.04	1796.07
570.23	1798.12
570.43	1773.54
570.62	1804.26
570.82	1828.84
571.01	1642.47
571.21	1775.59
571.40	1675.24
571.60	1804.26
571.79	1820.64
571.99	1759.21
572.18	1705.96
572.38	1769.44
572.57	1693.67
572.77	1791.97
572.96	1875.94
573.16	1791.97
573.35	1791.97
573.55	1773.54
573.74	1845.22
573.94	1701.86
574.13	1769.44
574.33	1802.21
574.52	1853.41
574.71	1798.12
574.91	1837.03
575.10	1763.30
575.30	1714.15
575.49	1722.34
575.69	1673.19
575.88	1732.58
576.08	1712.10
576.27	1798.12
576.47	1796.07
576.66	1886.18
576.86	1859.56
577.05	1785.83
577.25	1775.59
577.44	1959.91
577.64	1621.99
577.83	1724.39
578.02	1757.16
578.22	1884.13
578.41	1851.36
578.61	1753.06
578.80	1722.34
579.00	1701.86
579.19	1779.68
579.39	1806.31
579.58	1806.31
579.77	1753.06
579.97	1877.99
580.16	1794.02
580.36	1812.45
580.55	1863.65
580.75	1832.93
580.94	1751.01
581.13	1898.47
581.33	1920.99
581.52	1773.54
581.72	1853.41
581.91	1861.60
582.11	1714.15
582.30	1777.64
582.49	1781.73
582.69	1875.94
582.88	1814.50
583.08	1738.73
583.27	1746.92
583.47	1712.10
583.66	1705.96
583.85	1734.63
584.05	1701.86
584.24	1763.30
584.44	1837.03
584.63	1894.37
584.82	1828.84
585.02	1832.93
585.21	1869.80
585.41	1855.46
585.60	1832.93
585.79	1984.48
585.99	1914.85
586.18	1873.89
586.37	2191.33
586.57	3356.62
586.76	9871.21
586.96	24321.68
587.15	34051.58
587.34	39986.59
587.54	41520.52
587.73	35913.18
587.93	25806.45
588.12	21257.92
588.31	17884.91
588.51	16064.27
588.70	14853.92
588.89	13938.48
589.09	12209.99
589.28	10858.33
589.47	9119.60
589.67	7767.95
589.86	6399.90
590.06	4722.62
590.25	3966.92
590.44	3006.42
590.64	2564.06
590.83	2254.81
591.02	2009.06
591.22	1920.99
591.41	1882.08
591.60	1892.32
591.80	1908.71
591.99	1812.45
592.18	1824.74
592.38	1824.74
592.57	1808.36
592.76	1785.83
592.96	1804.26
593.15	1773.54
593.34	1845.22
593.54	1755.11
593.73	1828.84
593.92	1740.77
594.12	1767.40
594.31	1777.64
594.50	1791.97
594.70	1796.07
594.89	1867.75
595.08	1734.63
595.28	1847.27
595.47	2000.87
595.66	1753.06
595.86	1714.15
596.05	1542.12
596.24	1687.53
596.43	1900.52
596.63	1875.94
596.82	1808.36
597.01	1746.92
597.21	1849.32
597.40	1767.40
597.59	1898.47
597.79	1701.86
597.98	1773.54
598.17	1796.07
598.36	1738.73
598.56	1759.21
598.75	1595.37
598.94	1812.45
599.14	1755.11
599.33	1562.60
599.52	1757.16
599.71	1710.05
599.91	1746.92
600.10	1720.29
600.29	1742.82
600.48	1837.03
600.68	1882.08
600.87	1791.97
601.06	1716.20
601.26	1742.82
601.45	1726.44
601.64	1705.96
601.83	1740.77
602.03	1718.25
602.22	1644.52
602.41	1853.41
602.60	1869.80
602.80	1763.30
602.99	1798.12
603.18	1804.26
603.37	1814.50
603.57	1724.39
603.76	1767.40
603.95	1818.60
604.14	1722.34
604.34	1658.85
604.53	1693.67
604.72	1687.53
604.91	1806.31
605.10	1740.77
605.30	1673.19
605.49	1865.70
605.68	1853.41
605.87	1730.53
606.07	1691.62
606.26	1736.68
606.45	1722.34
606.64	1779.68
606.84	1652.71
607.03	1759.21
607.22	1732.58
607.41	1759.21
607.60	1730.53
607.80	1751.01
607.99	1753.06
608.18	1806.31
608.37	1718.25
608.56	1724.39
608.76	1767.40
608.95	1802.21
609.14	1748.97
609.33	1751.01
609.52	1828.84
609.72	1779.68
609.91	1746.92
610.10	1771.49
610.29	1839.08
610.48	1781.73
610.68	1761.25
610.87	1708.01
611.06	1748.97
611.25	1687.53
611.44	1759.21
611.63	1738.73
611.83	1871.84
612.02	1761.25
612.21	1705.96
612.40	1693.67
612.59	1675.24
612.79	1785.83
612.98	1787.88
613.17	1738.73
613.36	1734.63
613.55	1744.87
613.74	1773.54
613.93	1679.33
614.13	1726.44
614.32	1802.21
614.51	1730.53
614.70	1730.53
614.89	1771.49
615.08	1783.78
615.28	1978.34
615.47	1687.53
615.66	1701.86
615.85	1814.50
616.04	1818.60
616.23	1687.53
616.42	1716.20
616.62	1744.87
616.81	1765.35
617.00	1800.16
617.19	1689.57
617.38	1744.87
617.57	1800.16
617.76	1794.02
617.95	1705.96
618.15	1802.21
618.34	1867.75
618.53	1675.24
618.72	1791.97
618.91	1800.16
619.10	1839.08
619.29	1769.44
619.48	1781.73
619.68	1681.38
619.87	1796.07
620.06	1736.68
620.25	1744.87
620.44	1697.77
620.63	1740.77
620.82	1787.88
621.01	1806.31
621.20	1714.15
621.39	1697.77
621.59	1720.29
621.78	1724.39
621.97	1720.29
622.16	1769.44
622.35	1708.01
622.54	1728.49
622.73	1890.28
622.92	1701.86
623.11	1736.68
623.30	1681.38
623.49	1722.34
623.68	1665.00
623.88	1931.23
624.07	1751.01
624.26	1771.49
624.45	1845.22
624.64	1722.34
624.83	1738.73
625.02	1681.38
625.21	1781.73
625.40	1753.06
625.59	1785.83
625.78	1703.91
625.97	1765.35
626.16	1767.40
626.35	1769.44
626.54	1714.15
626.74	1830.88
626.93	1736.68
627.12	1685.48
627.31	1710.05
627.50	1767.40
627.69	1834.98
627.88	1689.57
628.07	1710.05
628.26	1683.43
628.45	1703.91
628.64	1755.11
628.83	1675.24
629.02	1585.13
629.21	1722.34
629.40	1746.92
629.59	1708.01
629.78	1714.15
629.97	1693.67
630.16	1728.49
630.35	1671.14
630.54	1726.44
630.73	1738.73
630.92	1728.49
631.11	1609.70
631.30	1681.38
631.49	1767.40
631.68	1757.16
631.87	1830.88
632.06	1736.68
632.25	1886.18
632.44	1718.25
632.63	1705.96
632.82	1757.16
633.01	1632.23
633.20	1691.62
633.39	1773.54
633.58	1564.65
633.77	1710.05
633.96	1808.36
634.15	1734.63
634.34	1681.38
634.53	1712.10
634.72	1675.24
634.91	1683.43
635.10	1802.21
635.29	1722.34
635.48	1767.40
635.67	1689.57
635.86	1689.57
636.05	1777.64
636.24	1730.53
636.43	1740.77
636.62	1712.10
636.81	1656.81
637.00	1761.25
637.19	1650.66
637.38	1775.59
637.57	1734.63
637.76	1730.53
637.95	1798.12
638.14	1763.30
638.33	1701.86
638.52	1787.88
638.71	1679.33
638.89	1724.39
639.08	1857.51
639.27	1785.83
639.46	1705.96
639.65	1789.92
639.84	1783.78
640.03	1779.68
640.22	1675.24
640.41	1816.55
640.60	1703.91
640.79	1798.12
640.98	1595.37
641.17	1779.68
641.36	1681.38
641.55	1755.11
641.74	1681.38
641.92	1740.77
642.11	1646.57
642.30	1714.15
642.49	1732.58
642.68	1724.39
642.87	1746.92
643.06	1693.67
643.25	1695.72
643.44	1730.53
643.63	1734.63
643.82	1697.77
644.00	1671.14
644.19	1746.92
644.38	1593.32
644.57	1765.35
644.76	1738.73
644.95	1759.21
645.14	1716.20
645.33	1697.77
645.52	1714.15
645.71	1640.42
645.89	1665.00
646.08	1722.34
646.27	1722.34
646.46	1906.66
646.65	1628.14
646.84	1744.87
647.03	1673.19
647.22	1849.32
647.40	1726.44
647.59	1738.73
647.78	1656.81
647.97	1763.30
648.16	1732.58
648.35	1798.12
648.54	1802.21
648.73	1759.21
648.91	1763.30
649.10	1783.78
649.29	1681.38
649.48	1665.00
649.67	1677.29
649.86	1697.77
650.05	1677.29
650.23	1787.88
650.42	1595.37
650.61	1796.07
650.80	1763.30
650.99	1851.36
651.18	1759.21
651.36	1757.16
651.55	1673.19
651.74	1769.44
651.93	1773.54
652.12	1689.57
652.31	1689.57
652.49	1705.96
652.68	1693.67
652.87	1767.40
653.06	1669.09
653.25	1859.56
653.44	1587.18
653.62	1787.88
653.81	1736.68
654.00	1691.62
654.19	1796.07
654.38	1802.21
654.56	1759.21
654.75	1718.25
654.94	1783.78
655.13	1765.35
655.32	1716.20
655.51	1820.64
655.69	1722.34
655.88	1839.08
656.07	1683.43
656.26	1730.53
656.45	1705.96
656.63	1732.58
656.82	1701.86
657.01	1837.03
657.20	1718.25
657.38	1843.17
657.57	1652.71
657.76	1595.37
657.95	1814.50
658.14	1710.05
658.32	1746.92
658.51	1624.04
658.70	1742.82
658.89	1720.29
659.08	1720.29
659.26	1828.84
659.45	1660.90
659.64	1802.21
659.83	1689.57
660.01	1918.95
660.20	1759.21
660.39	1814.50
660.58	1697.77
660.76	1845.22
660.95	1626.09
661.14	1794.02
661.33	1601.51
661.51	1699.81
661.70	1574.89
661.89	1759.21
662.08	1683.43
662.26	1624.04
662.45	1748.97
662.64	1791.97
662.83	1732.58
663.01	1728.49
663.20	1656.81
663.39	1765.35
663.58	1798.12
663.76	1761.25
663.95	1746.92
664.14	1738.73
664.32	1671.14
664.51	1695.72
664.70	1712.10
664.89	1755.11
665.07	1669.09
665.26	1832.93
665.45	1628.14
665.64	1857.51
665.82	1734.63
666.01	1746.92
666.20	1656.81
666.38	1828.84
666.57	1861.60
666.76	2199.52
666.95	4675.51
667.13	10266.47
667.32	14974.75
667.51	17598.20
667.69	18829.02
667.88	17264.38
668.07	12177.22
668.25	9494.38
668.44	8120.20
668.63	7296.91
668.81	6764.44
669.00	6057.89
669.19	5742.50
669.38	5023.67
669.56	4407.23
669.75	3860.42
669.94	3284.94
670.12	2844.63
670.31	2516.95
670.50	2224.09
670.68	2080.74
670.87	1890.28
671.06	1800.16
671.24	1800.16
671.43	1865.70
671.62	1710.05
671.80	1673.19
671.99	1816.55
672.18	1652.71
672.36	1757.16
672.55	1714.15
672.74	1742.82
672.92	1804.26
673.11	1787.88
673.29	1730.53
673.48	1796.07
673.67	1708.01
673.85	1748.97
674.04	1689.57
674.23	1744.87
674.41	1736.68
674.60	1636.33
674.79	1640.42
674.97	1695.72
675.16	1718.25
675.34	1738.73
675.53	1697.77
675.72	1751.01
675.90	1775.59
676.09	1736.68
676.28	1697.77
676.46	1648.61
676.65	1730.53
676.83	1691.62
677.02	1718.25
677.21	1732.58
677.39	1708.01
677.58	1658.85
677.77	1699.81
677.95	1712.10
678.14	1705.96
678.32	1720.29
678.51	1619.94
678.70	1822.69
678.88	1718.25
679.07	1740.77
679.25	1699.81
679.44	1761.25
679.63	1669.09
679.81	1607.66
680.00	1820.64
680.18	1765.35
680.37	1837.03
680.55	1660.90
680.74	1673.19
680.93	1617.90
681.11	1796.07
681.30	1791.97
681.48	1734.63
681.67	1720.29
681.85	1740.77
682.04	1624.04
682.23	1691.62
682.41	1722.34
682.60	1648.61
682.78	1710.05
682.97	1624.04
683.15	1693.67
683.34	1751.01
683.53	1796.07
683.71	1699.81
683.90	1796.07
684.08	1841.12
684.27	1732.58
684.45	1681.38
684.64	1830.88
684.82	1832.93
685.01	1757.16
685.19	1705.96
685.38	1890.28
685.57	1710.05
685.75	1681.38
685.94	1722.34
686.12	1701.86
686.31	1734.63
686.49	1771.49
686.68	1548.26
686.86	1771.49
687.05	1742.82
687.23	1855.46
687.42	1673.19
687.60	1619.94
687.79	1804.26
687.97	1861.60
688.16	1738.73
688.34	1843.17
688.53	1617.90
688.71	1634.28
688.90	1820.64
689.08	1742.82
689.27	1632.23
689.45	1800.16
689.64	1720.29
689.82	1748.97
690.01	1740.77
690.19	1705.96
690.38	1765.35
690.56	1763.30
690.75	1660.90
690.93	1691.62
691.12	1679.33
691.30	1660.90
691.49	1681.38
691.67	1718.25
691.86	1865.70
692.04	1728.49
692.23	1607.66
692.41	1640.42
692.60	1816.55
692.78	1755.11
692.97	1697.77
693.15	1667.05
693.34	1843.17
693.52	1791.97
693.71	1777.64
693.89	1722.34
694.08	1660.90
694.26	1775.59
694.44	1701.86
694.63	1773.54
694.81	1611.75
695.00	1736.68
695.18	1855.46
695.37	1904.61
695.55	1691.62
695.74	1697.77
695.92	1722.34
696.10	1734.63
696.29	1689.57
696.47	1701.86
696.66	1644.52
696.84	1734.63
697.03	1705.96
697.21	1830.88
697.40	2291.68
697.58	1775.59
697.76	1683.43
697.95	1630.18
698.13	1701.86
698.32	1699.81
698.50	1765.35
698.68	1748.97
698.87	1722.34
699.05	1771.49
699.24	1685.48
699.42	1628.14
699.61	1693.67
699.79	1742.82
699.97	1681.38
700.16	1662.95
700.34	1716.20
700.53	1773.54
700.71	1828.84
700.89	1730.53
701.08	1734.63
701.26	1712.10
701.45	2086.88
701.63	1708.01
701.81	1738.73
702.00	1685.48
702.18	1681.38
702.37	1607.66
702.55	1724.39
702.73	1779.68
702.92	1652.71
703.10	1777.64
703.28	1763.30
703.47	1650.66
703.65	1865.70
703.84	1779.68
704.02	1658.85
704.20	1710.05
704.39	1757.16
704.57	1787.88
704.75	1757.16
704.94	1810.40
705.12	1712.10
705.30	1837.03
705.49	2265.05
705.67	4562.87
705.86	9385.84
706.04	12601.15
706.22	14343.97
706.41	15232.79
706.59	13563.70
706.77	9312.11
706.96	7167.89
707.14	6619.04
707.32	5875.62
707.51	5427.12
707.69	4868.02
707.87	4081.60
708.06	3403.72
708.24	2953.17
708.42	2301.92
708.61	2199.52
708.79	1916.90
708.97	1929.19
709.16	1816.55
709.34	1732.58
709.52	1757.16
709.71	1708.01
709.89	1746.92
710.07	1683.43
710.26	1679.33
710.44	1673.19
710.62	1820.64
710.80	1738.73
710.99	1796.07
711.17	1757.16
711.35	1619.94
711.54	1716.20
711.72	1837.03
711.90	1724.39
712.09	1710.05
712.27	1734.63
712.45	1757.16
712.63	1681.38
712.82	1695.72
713.00	1738.73
713.18	1787.88
713.37	1763.30
713.55	1738.73
713.73	1701.86
713.91	1744.87
714.10	1722.34
714.28	1687.53
714.46	1791.97
714.65	1757.16
714.83	1718.25
715.01	1691.62
715.19	1650.66
715.38	1685.48
715.56	1771.49
715.74	1705.96
715.92	1658.85
716.11	1828.84
716.29	1632.23
716.47	1777.64
716.65	1755.11
716.84	1609.70
717.02	1728.49
717.20	1624.04
717.38	1665.00
717.57	1785.83
717.75	1705.96
717.93	1693.67
718.11	1732.58
718.30	1632.23
718.48	1736.68
718.66	1832.93
718.84	1802.21
719.03	1693.67
719.21	1626.09
719.39	1818.60
719.57	1773.54
719.75	1759.21
719.94	1697.77
720.12	1654.76
720.30	1671.14
720.48	1718.25
720.67	1642.47
720.85	1693.67
721.03	1689.57
721.21	1699.81
721.39	1798.12
721.58	1837.03
721.76	1763.30
721.94	1724.39
722.12	1673.19
722.30	1777.64
722.49	1724.39
722.67	1722.34
722.85	1720.29
723.03	1609.70
723.21	1652.71
723.40	1730.53
723.58	1796.07
723.76	1710.05
723.94	1748.97
724.12	1642.47
724.30	1834.98
724.49	1710.05
724.67	1628.14
724.85	1677.29
725.03	1607.66
725.21	1810.40
725.40	1775.59
725.58	1732.58
725.76	1808.36
725.94	1732.58
726.12	1738.73
726.30	1761.25
726.49	1730.53
726.67	1716.20
726.85	1740.77
727.03	1751.01
727.21	2213.85
727.39	2914.26
727.57	3721.16
727.76	4130.75
727.94	4331.45
728.12	4358.08
728.30	3536.84
728.48	2949.08
728.66	2664.41
728.84	2615.26
729.03	2267.10
729.21	2189.28
729.39	2019.30
729.57	1814.50
729.75	1783.78
729.93	1806.31
730.11	1736.68
730.30	1740.77
730.48	1730.53
730.66	1748.97
730.84	1816.55
731.02	1685.48
731.20	1648.61
731.38	1720.29
731.56	1658.85
731.74	1685.48
731.93	1724.39
732.11	1636.33
732.29	1730.53
732.47	1665.00
732.65	1640.42
732.83	1794.02
733.01	1730.53
733.19	1742.82
733.37	1775.59
733.56	1714.15
733.74	1669.09
733.92	1763.30
734.10	1722.34
734.28	1748.97
734.46	1642.47
734.64	1689.57
734.82	1685.48
735.00	1691.62
735.18	1728.49
735.36	1783.78
735.54	1738.73
735.73	1724.39
735.91	1746.92
736.09	1714.15
736.27	1703.91
736.45	1763.30
736.63	1687.53
736.81	1650.66
736.99	1759.21
737.17	1775.59
737.35	1699.81
737.53	1746.92
737.71	1669.09
737.89	1802.21
738.07	1626.09
738.25	1724.39
738.43	1636.33
738.61	1708.01
738.80	1667.05
738.98	1665.00
739.16	1681.38
739.34	1718.25
739.52	1810.40
739.70	1615.85
739.88	1673.19
740.06	1806.31
740.24	1578.98
740.42	1783.78
740.60	1548.26
740.78	1695.72
740.96	1611.75
741.14	1671.14
741.32	1665.00
741.50	1601.51
741.68	1834.98
741.86	1742.82
742.04	1677.29
742.22	1685.48
742.40	1697.77
742.58	1767.40
742.76	1740.77
742.94	1800.16
743.12	1667.05
743.30	1693.67
743.48	1685.48
743.66	1693.67
743.84	1744.87
744.02	1638.38
744.20	1685.48
744.38	1673.19
744.56	1691.62
744.74	1787.88
744.92	1697.77
745.10	1861.60
745.28	1708.01
745.46	1834.98
745.64	1744.87
745.82	1783.78
746.00	1689.57
746.18	1718.25
746.36	1681.38
746.54	1722.34
746.72	1714.15
746.90	1720.29
747.08	1705.96
747.26	1697.77
747.44	1736.68
747.62	1732.58
747.80	1771.49
747.98	1710.05
748.15	1671.14
748.33	1796.07
748.51	1705.96
748.69	1832.93
748.87	1630.18
749.05	1726.44
749.23	1718.25
749.41	1753.06
749.59	1662.95
749.77	1726.44
749.95	1667.05
750.13	1611.75
750.31	1796.07
750.49	1783.78
750.67	1755.11
750.85	1808.36
751.03	1753.06
751.20	1906.66
751.38	1730.53
751.56	1632.23
751.74	1759.21
751.92	1669.09
752.10	1687.53
752.28	1742.82
752.46	1783.78
752.64	1726.44
752.82	1742.82
753.00	1804.26
753.18	1681.38
753.35	1656.81
753.53	1662.95
753.71	1681.38
753.89	1761.25
754.07	1697.77
754.25	1826.79
754.43	1689.57
754.61	1648.61
754.79	1671.14
754.97	1619.94
755.14	1804.26
755.32	1624.04
755.50	1773.54
755.68	1734.63
755.86	1701.86
756.04	1636.33
756.22	1660.90
756.40	1755.11
756.57	1837.03
756.75	1771.49
756.93	1773.54
757.11	1777.64
757.29	1691.62
757.47	1691.62
757.65	1675.24
757.82	1642.47
758.00	1654.76
758.18	1703.91
758.36	1656.81
758.54	1787.88
758.72	1671.14
758.90	1761.25
759.07	1748.97
759.25	1705.96
759.43	1703.91
759.61	1665.00
759.79	2207.71
759.97	1822.69
760.15	1710.05
760.32	1728.49
760.50	1802.21
760.68	1769.44
760.86	1576.94
761.04	1837.03
761.22	1732.58
761.39	1757.16
761.57	1705.96
761.75	1646.57
761.93	1787.88
762.11	1693.67
762.28	1777.64
762.46	1583.08
762.64	1720.29
762.82	1687.53
763.00	1718.25
763.18	1810.40
763.35	1613.80
763.53	1753.06
763.71	1722.34
763.89	1751.01
764.07	1708.01
764.24	1718.25
764.42	1759.21
764.60	1751.01
764.78	1728.49
764.96	1759.21
765.13	1763.30
765.31	1691.62
765.49	1738.73
765.67	1667.05
765.84	1683.43
766.02	1652.71
766.20	1607.66
766.38	1732.58
766.56	1755.11
766.73	1771.49
766.91	1689.57
767.09	1740.77
767.27	1783.78
767.44	1603.56
767.62	1693.67
767.80	1806.31
767.98	1695.72
768.15	1726.44
768.33	1701.86
768.51	1808.36
768.69	1775.59
768.87	1734.63
769.04	1710.05
769.22	1818.60
769.40	1763.30
769.58	1851.36
769.75	1773.54
769.93	1779.68
770.11	1669.09
770.28	1695.72
770.46	1744.87
770.64	1757.16
770.82	1785.83
770.99	1796.07
771.17	1742.82
771.35	1677.29
771.53	1656.81
771.70	1671.14
771.88	1720.29
772.06	1757.16
772.23	1703.91
772.41	1718.25
772.59	1714.15
772.77	1718.25
772.94	1671.14
773.12	1744.87
773.30	1726.44
773.47	1740.77
773.65	1634.28
773.83	1798.12
774.01	1656.81
774.18	1652.71
774.36	1689.57
774.54	1624.04
774.71	1742.82
774.89	1585.13
775.07	1613.80
775.24	1570.79
775.42	1695.72
775.60	1783.78
775.78	1607.66
775.95	1628.14
776.13	1667.05
776.31	1566.70
776.48	1718.25
776.66	1822.69
776.84	1673.19
777.01	1650.66
777.19	1585.13
777.37	1662.95
777.54	1802.21
777.72	1800.16
777.90	1693.67
778.07	1687.53
778.25	1824.74
778.43	1753.06
778.60	1681.38
778.78	1759.21
778.96	1763.30
779.13	1658.85
779.31	1757.16
779.49	1771.49
779.66	1757.16
779.84	1703.91
780.01	1675.24
780.19	1642.47
780.37	1697.77
780.54	1765.35
780.72	1613.80
780.90	1740.77
781.07	1742.82
781.25	1681.38
781.43	1789.92
781.60	1660.90
781.78	1808.36
781.95	1667.05
782.13	1736.68
782.31	1751.01
782.48	1576.94
782.66	1673.19
782.83	1832.93
783.01	1742.82
783.19	1806.31
783.36	1656.81
783.54	1636.33
783.72	1701.86
783.89	1683.43
784.07	1742.82
784.24	1734.63
784.42	1798.12
784.60	1642.47
784.77	1740.77
784.95	1654.76
785.12	1732.58
785.30	1738.73
785.47	1665.00
785.65	1697.77
785.83	1648.61
786.00	1640.42
786.18	1724.39
786.35	1593.32
786.53	1708.01
786.71	1855.46
786.88	1820.64
787.06	1744.87
787.23	1759.21
787.41	1650.66
787.58	1656.81
787.76	1722.34
787.94	1767.40
788.11	1738.73
788.29	1609.70
788.46	1744.87
788.64	1665.00
788.81	1665.00
788.99	1574.89
789.16	1656.81
789.34	1755.11
789.52	1607.66
789.69	1689.57
789.87	1605.61
790.04	1712.10
790.22	1701.86
790.39	1861.60
790.57	1687.53
790.74	1634.28
790.92	1748.97
791.09	1544.17
791.27	1699.81
791.44	1789.92
791.62	1683.43
791.79	1748.97
791.97	1656.81
792.15	1902.56
792.32	1779.68
792.50	1763.30
792.67	1783.78
792.85	1771.49
793.02	1744.87
793.20	1697.77
793.37	1574.89
793.55	1667.05
793.72	1605.61
793.90	1779.68
794.07	1656.81
794.25	1689.57
794.42	1742.82
794.60	1730.53
794.77	1757.16
794.95	1681.38
795.12	1822.69
795.30	1779.68
795.47	1611.75
795.65	1892.32
795.82	1753.06
796.00	1724.39
796.17	1681.38
796.34	1701.86
796.52	1654.76
796.69	1769.44
796.87	1771.49
797.04	1716.20
797.22	1687.53
797.39	1691.62
797.57	1701.86
797.74	1669.09
797.92	1697.77
798.09	1675.24
798.27	1748.97
798.44	1742.82
798.62	1619.94
798.79	1673.19
798.96	1744.87
799.14	1714.15
799.31	1880.04
799.49	1642.47
799.66	1648.61
799.84	1621.99
800.01	1609.70
800.19	1732.58
800.36	1613.80
800.53	1689.57
800.71	1730.53
800.88	1757.16
801.06	1708.01
801.23	1730.53
801.41	1720.29
801.58	1632.23
801.75	1644.52
801.93	1695.72
802.10	1697.77
802.28	1671.14
802.45	1705.96
802.63	1755.11
802.80	1791.97
802.97	1705.96
803.15	1742.82
803.32	1640.42
803.50	1693.67
803.67	1656.81
803.84	1644.52
804.02	1746.92
804.19	1654.76
804.37	1591.27
804.54	1665.00
804.71	1703.91
804.89	1673.19
805.06	1660.90
805.24	1656.81
805.41	1648.61
805.58	1722.34
805.76	1910.75
805.93	1615.85
806.10	1765.35
806.28	1800.16
806.45	1714.15
806.63	1767.40
806.80	1789.92
806.97	1740.77
807.15	1755.11
807.32	1703.91
807.49	1712.10
807.67	1621.99
807.84	1775.59
808.01	1701.86
808.19	1818.60
808.36	1761.25
808.54	1708.01
808.71	1732.58
808.88	1658.85
809.06	1757.16
809.23	1791.97
809.40	1648.61
809.58	1708.01
809.75	1753.06
809.92	1673.19
810.10	1886.18
810.27	1753.06
810.44	1718.25
810.62	1794.02
810.79	1685.48
810.96	1603.56
811.14	1662.95
811.31	1738.73
811.48	1783.78
811.66	1712.10
811.83	1736.68
812.00	1791.97
812.18	1695.72
812.35	1916.90
812.52	1677.29
812.69	1691.62
812.87	1787.88
813.04	1640.42
813.21	1720.29
813.39	1599.46
813.56	1683.43
813.73	1771.49
813.91	1660.90
814.08	1724.39
814.25	1767.40
814.42	1644.52
814.60	1671.14
814.77	1703.91
814.94	1708.01
815.12	1732.58
815.29	1771.49
815.46	1681.38
815.63	1632.23
815.81	1705.96
815.98	1787.88
816.15	1673.19
816.33	1705.96
816.50	1687.53
816.67	1708.01
816.84	1730.53
817.02	1736.68
817.19	1634.28
817.36	1732.58
817.53	1718.25
817.71	1683.43
817.88	1740.77
818.05	1705.96
818.22	1720.29
818.40	1896.42
818.57	1687.53
818.74	1767.40
818.91	1732.58
819.09	1677.29
819.26	1732.58
819.43	1607.66
819.60	1640.42
819.78	1718.25
819.95	1763.30
820.12	1593.32
820.29	1812.45
820.47	1789.92
820.64	1697.77
820.81	1630.18
820.98	1550.31
821.15	1691.62
821.33	1728.49
821.50	1570.79
821.67	1775.59
821.84	1636.33
822.02	1777.64
822.19	1746.92
822.36	1722.34
822.53	1734.63
822.70	1671.14
822.88	1652.71
823.05	1703.91
823.22	1673.19
823.39	1796.07
823.56	1685.48
823.74	1740.77
823.91	1675.24
824.08	1683.43
824.25	1675.24
824.42	1769.44
824.60	1656.81
824.77	1757.16
824.94	1677.29
825.11	1716.20
825.28	1617.90
825.45	1783.78
825.63	1777.64
825.80	1609.70
825.97	1761.25
826.14	1703.91
826.31	1685.48
826.48	1720.29
826.66	1615.85
826.83	1681.38
827.00	1662.95
827.17	1583.08
827.34	1658.85
827.51	1667.05
827.69	1714.15
827.86	1644.52
828.03	1689.57
828.20	1744.87
828.37	1626.09
828.54	1677.29
828.71	1658.85
828.89	1841.12
829.06	1730.53
829.23	1820.64
829.40	1619.94
829.57	1607.66
829.74	1771.49
829.91	1658.85
830.09	1675.24
830.26	1763.30
830.43	1742.82
830.60	1685.48
830.77	1697.77
830.94	1863.65
831.11	1714.15
831.28	1677.29
831.46	1738.73
831.63	1710.05
831.80	1708.01
831.97	1640.42
832.14	1650.66
832.31	1722.34
832.48	1703.91
832.65	1814.50
832.82	1685.48
832.99	1798.12
833.17	1675.24
833.34	1810.40
833.51	1777.64
833.68	1599.46
833.85	1746.92
834.02	1642.47
834.19	1632.23
834.36	1624.04
834.53	1761.25
834.70	1779.68
834.87	1816.55
835.04	1669.09
835.22	1619.94
835.39	1753.06
835.56	1652.71
835.73	1716.20
835.90	1789.92
836.07	1734.63
836.24	1716.20
836.41	1693.67
836.58	1712.10
836.75	1697.77
836.92	1654.76
837.09	1720.29
837.26	1781.73
837.43	1740.77
837.60	1667.05
837.77	1581.03
837.94	1755.11
838.12	1742.82
838.29	1742.82
838.46	1630.18
838.63	1632.23
838.80	1742.82
838.97	1742.82
839.14	1730.53
839.31	1619.94
839.48	1665.00
839.65	1669.09
839.82	1841.12
839.99	1699.81
840.16	1753.06
840.33	1675.24
840.50	1675.24
840.67	1677.29
840.84	1626.09
841.01	1701.86
841.18	1656.81
841.35	1742.82
841.52	1755.11
841.69	1828.84
841.86	1689.57
842.03	1712.10
842.20	1718.25
842.37	1759.21
842.54	1734.63
842.71	1744.87
842.88	1619.94
843.05	1757.16
843.22	1669.09
843.39	1660.90
843.56	1773.54
843.73	1744.87
843.90	1755.11
844.07	1699.81
844.24	1748.97
844.41	1673.19
844.58	1763.30
844.75	1675.24
844.92	1773.54
845.09	1675.24
845.26	1710.05
845.43	1796.07
845.60	1642.47
845.77	1755.11
845.94	1738.73
846.10	1794.02
846.27	1607.66
846.44	1669.09
846.61	1685.48
846.78	1687.53
846.95	1714.15
847.12	1695.72
847.29	1656.81
847.46	1693.67
847.63	1740.77
847.80	1677.29
847.97	1732.58
848.14	1744.87
848.31	1673.19
848.48	1658.85
848.65	1679.33
848.82	1730.53
848.98	1865.70
849.15	1812.45
849.32	1789.92
849.49	1763.30
849.66	1697.77
849.83	1777.64
850.00	1708.01
850.17	1761.25
850.34	1740.77
850.51	1693.67
850.68	1689.57
850.85	1785.83
851.01	1726.44
851.18	1763.30
851.35	1730.53
851.52	1691.62
851.69	1773.54
851.86	1634.28
852.03	1732.58
852.20	1800.16
852.37	1689.57
852.53	1611.75
852.70	1701.86
852.87	1630.18
853.04	1783.78
853.21	1701.86
853.38	1767.40
853.55	1794.02
853.72	1802.21
853.89	1646.57
854.05	1687.53
854.22	1718.25
854.39	1708.01
854.56	1722.34
854.73	1853.41
854.90	1636.33
855.07	1697.77
855.23	1638.38
855.40	1703.91
855.57	1689.57
855.74	1619.94
855.91	1871.84
856.08	1665.00
856.25	1705.96
856.41	1673.19
856.58	1679.33
856.75	1710.05
856.92	1685.48
857.09	1812.45
857.26	1683.43
857.42	1726.44
857.59	1726.44
857.76	1714.15
857.93	1628.14
858.10	1744.87
858.27	1599.46
858.43	1695.72
858.60	1673.19
858.77	1640.42
858.94	1734.63
859.11	1751.01
859.27	1695.72
859.44	1675.24
859.61	1828.84
859.78	1691.62
859.95	1658.85
860.12	1628.14
860.28	1732.58
860.45	1771.49
860.62	1740.77
860.79	1798.12
860.95	1695.72
861.12	1714.15
861.29	1691.62
861.46	1642.47
861.63	1667.05
861.79	1738.73
861.96	1726.44
862.13	1697.77
862.30	1730.53
862.47	1683.43
862.63	1638.38
862.80	1724.39
862.97	1806.31
863.14	1708.01
863.30	1736.68
863.47	1726.44
863.64	1789.92
863.81	1710.05
863.97	1697.77
864.14	1738.73
864.31	1724.39
864.48	1763.30
864.65	1712.10
864.81	1703.91
864.98	1779.68
865.15	1834.98
865.32	1757.16
865.48	1718.25
865.65	1783.78
865.82	1685.48
865.98	1748.97
866.15	1822.69
866.32	1665.00
866.49	1665.00
866.65	1761.25
866.82	1654.76
866.99	1728.49
867.16	1681.38
867.32	1548.26
867.49	1697.77
867.66	1656.81
867.83	1617.90
867.99	1697.77
868.16	1726.44
868.33	1636.33
868.49	1624.04
868.66	1677.29
868.83	1779.68
868.99	1708.01
869.16	1691.62
869.33	1812.45
869.50	1757.16
869.66	1656.81
869.83	1771.49
870.00	1662.95
870.16	1744.87
870.33	1742.82
870.50	1761.25
870.66	1748.97
870.83	1779.68
871.00	1740.77
871.17	1665.00
871.33	1693.67
871.50	1753.06
871.67	1718.25
871.83	1673.19
872.00	1865.70
872.17	1714.15
872.33	1830.88
872.50	1716.20
872.67	1695.72
872.83	1656.81
873.00	1685.48
873.17	1757.16
873.33	1845.22
873.50	1773.54
873.67	1736.68
873.83	1724.39
874.00	1656.81
874.16	1687.53
874.33	1699.81
874.50	1675.24
874.66	1779.68
874.83	1714.15
875.00	1730.53
875.16	1742.82
875.33	1755.11
875.50	1619.94
875.66	1671.14
875.83	1810.40
875.99	1773.54
876.16	1679.33
876.33	1677.29
876.49	1710.05
876.66	1865.70
876.83	1751.01
876.99	1562.60
877.16	1724.39
877.32	1757.16
877.49	1685.48
877.66	1767.40
877.82	1820.64
877.99	1761.25
878.15	1716.20
878.32	1697.77
878.49	1728.49
878.65	1714.15
878.82	1755.11
878.98	1671.14
879.15	1761.25
879.32	1746.92
879.48	1691.62
879.65	1660.90
879.81	1689.57
879.98	1576.94
880.15	1730.53
880.31	1777.64
880.48	1646.57
880.64	1759.21
880.81	1640.42
880.97	1855.46
881.14	1685.48
881.31	1605.61
881.47	1761.25
881.64	1652.71
881.80	1710.05
881.97	1695.72
882.13	1740.77
882.30	1556.46
882.47	1730.53
882.63	1599.46
882.80	1705.96
882.96	1683.43
883.13	1746.92
883.29	1744.87
883.46	1771.49
883.62	1742.82
883.79	1689.57
883.95	1718.25
884.12	1718.25
884.29	1824.74
884.45	1751.01
884.62	1738.73
884.78	1662.95
884.95	1753.06
885.11	1624.04
885.28	1804.26
885.44	1712.10
885.61	1685.48
885.77	1746.92
885.94	1699.81
886.10	1724.39
886.27	1669.09
886.43	1773.54
886.60	1812.45
886.76	1771.49
886.93	1628.14
887.09	1718.25
887.26	1669.09
887.42	1724.39
887.59	1732.58
887.75	1742.82
887.92	1802.21
888.08	1708.01
888.25	1728.49
888.41	1726.44
888.58	1701.86
888.74	1599.46
888.91	1734.63
>>>>>End Processed Spectral Data<<<<<
