SpectraSuite Data File
++++++++++++++++++++++++++++++++++++
Date: Mon Jun 06 16:15:17 CEST 2016
User: root
Dark Spectrum Present: No
Reference Spectrum Present: No
Number of Sampled Component Spectra: 1
Spectrometers: USB4C02835
Integration Time (usec): 100000 (USB4C02835)
Spectra Averaged: 1 (USB4C02835)
Boxcar Smoothing: 0 (USB4C02835)
Correct for Electrical Dark: No (USB4C02835)
Strobe/Lamp Enabled: No (USB4C02835)
Correct for Detector Non-linearity: No (USB4C02835)
Correct for Stray Light: No (USB4C02835)
Number of Pixels in Processed Spectrum: 3648
>>>>>Begin Processed Spectral Data<<<<<
177.47	1484.78
177.69	1484.78
177.91	1484.78
178.13	1454.06
178.36	1562.60
178.58	1667.05
178.80	1714.15
179.02	1673.19
179.24	1691.62
179.46	1720.29
179.68	1755.11
179.90	1783.78
180.13	1693.67
180.35	1632.23
180.57	1660.90
180.79	1753.06
181.01	1751.01
181.23	1791.97
181.45	1714.15
181.67	1734.63
181.90	1779.68
182.12	1693.67
182.34	1572.84
182.56	1687.53
182.78	1767.40
183.00	1699.81
183.22	1708.01
183.44	1603.56
183.66	1902.56
183.89	1865.70
184.11	1783.78
184.33	1763.30
184.55	1769.44
184.77	1722.34
184.99	1697.77
185.21	1712.10
185.43	1877.99
185.65	1732.58
185.87	1722.34
186.10	1880.04
186.32	1884.13
186.54	1796.07
186.76	1796.07
186.98	1787.88
187.20	1734.63
187.42	1683.43
187.64	1689.57
187.86	1697.77
188.08	1787.88
188.30	1644.52
188.52	1767.40
188.75	1824.74
188.97	1796.07
189.19	1697.77
189.41	1574.89
189.63	1773.54
189.85	1665.00
190.07	1693.67
190.29	1617.90
190.51	1751.01
190.73	1628.14
190.95	1794.02
191.17	1724.39
191.39	1599.46
191.61	1691.62
191.84	1675.24
192.06	1755.11
192.28	1677.29
192.50	1873.89
192.72	1820.64
192.94	1673.19
193.16	1714.15
193.38	1693.67
193.60	1656.81
193.82	1714.15
194.04	1804.26
194.26	1722.34
194.48	1722.34
194.70	1716.20
194.92	1746.92
195.14	1730.53
195.36	1632.23
195.58	1748.97
195.80	1652.71
196.02	1640.42
196.24	1724.39
196.46	1802.21
196.69	1705.96
196.91	1837.03
197.13	1726.44
197.35	1681.38
197.57	1806.31
197.79	1726.44
198.01	1695.72
198.23	1779.68
198.45	1697.77
198.67	1652.71
198.89	1691.62
199.11	1773.54
199.33	1742.82
199.55	1595.37
199.77	1755.11
199.99	1812.45
200.21	1640.42
200.43	1691.62
200.65	1710.05
200.87	1630.18
201.09	1783.78
201.31	1654.76
201.53	1722.34
201.75	1783.78
201.97	1810.40
202.19	1681.38
202.41	1742.82
202.63	1898.47
202.85	1724.39
203.07	1738.73
203.29	1724.39
203.51	1628.14
203.73	1656.81
203.95	1863.65
204.17	1814.50
204.39	1746.92
204.61	1755.11
204.83	1705.96
205.05	1738.73
205.27	1845.22
205.49	1830.88
205.71	1665.00
205.93	1718.25
206.15	1730.53
206.37	1730.53
206.59	1736.68
206.81	1679.33
207.03	1640.42
207.25	1642.47
207.47	1773.54
207.69	1763.30
207.91	1818.60
208.13	1722.34
208.34	1755.11
208.56	1679.33
208.78	1789.92
209.00	1722.34
209.22	1753.06
209.44	1701.86
209.66	1755.11
209.88	1679.33
210.10	1689.57
210.32	1701.86
210.54	1832.93
210.76	1679.33
210.98	1773.54
211.20	1640.42
211.42	1701.86
211.64	1789.92
211.86	1738.73
212.08	1710.05
212.30	1787.88
212.52	1794.02
212.74	1751.01
212.96	1705.96
213.17	1763.30
213.39	1734.63
213.61	1730.53
213.83	1662.95
214.05	1648.61
214.27	1779.68
214.49	1730.53
214.71	1658.85
214.93	1779.68
215.15	1656.81
215.37	1767.40
215.59	1587.18
215.81	1814.50
216.03	1810.40
216.24	1732.58
216.46	1687.53
216.68	1691.62
216.90	1853.41
217.12	1769.44
217.34	1732.58
217.56	1791.97
217.78	1748.97
218.00	1765.35
218.22	1785.83
218.44	1742.82
218.66	1681.38
218.87	1832.93
219.09	1718.25
219.31	1701.86
219.53	1732.58
219.75	1695.72
219.97	1687.53
220.19	1748.97
220.41	1710.05
220.63	1697.77
220.85	1736.68
221.06	1708.01
221.28	1769.44
221.50	1714.15
221.72	1757.16
221.94	1744.87
222.16	1683.43
222.38	1841.12
222.60	1740.77
222.82	1730.53
223.03	1699.81
223.25	1603.56
223.47	1755.11
223.69	1767.40
223.91	1794.02
224.13	1697.77
224.35	1703.91
224.57	1814.50
224.78	1839.08
225.00	1730.53
225.22	1656.81
225.44	1648.61
225.66	1810.40
225.88	1669.09
226.10	1806.31
226.32	1736.68
226.53	1830.88
226.75	1654.76
226.97	1736.68
227.19	1712.10
227.41	1681.38
227.63	1669.09
227.85	1671.14
228.06	1736.68
228.28	1662.95
228.50	1669.09
228.72	1705.96
228.94	1712.10
229.16	1638.38
229.37	1669.09
229.59	1677.29
229.81	1810.40
230.03	1685.48
230.25	1667.05
230.47	1654.76
230.69	1552.36
230.90	1708.01
231.12	1585.13
231.34	1740.77
231.56	1697.77
231.78	1665.00
232.00	1611.75
232.21	1642.47
232.43	1740.77
232.65	1644.52
232.87	1687.53
233.09	1611.75
233.30	1699.81
233.52	1779.68
233.74	1726.44
233.96	1744.87
234.18	1679.33
234.40	1742.82
234.61	1826.79
234.83	1665.00
235.05	1595.37
235.27	1863.65
235.49	1787.88
235.70	1677.29
235.92	1755.11
236.14	1687.53
236.36	1849.32
236.58	1662.95
236.79	1773.54
237.01	1660.90
237.23	1605.61
237.45	1781.73
237.67	1732.58
237.88	1777.64
238.10	1837.03
238.32	1712.10
238.54	1718.25
238.76	1689.57
238.97	1640.42
239.19	1660.90
239.41	1757.16
239.63	1773.54
239.85	1748.97
240.06	1665.00
240.28	1658.85
240.50	1722.34
240.72	1681.38
240.93	1697.77
241.15	1757.16
241.37	1701.86
241.59	1800.16
241.81	1683.43
242.02	1710.05
242.24	1765.35
242.46	1759.21
242.68	1705.96
242.89	1689.57
243.11	1695.72
243.33	1763.30
243.55	1757.16
243.76	1705.96
243.98	1718.25
244.20	1701.86
244.42	1685.48
244.64	1767.40
244.85	1624.04
245.07	1753.06
245.29	1705.96
245.51	1720.29
245.72	1783.78
245.94	1794.02
246.16	1681.38
246.38	1710.05
246.59	1753.06
246.81	1710.05
247.03	1695.72
247.24	1572.84
247.46	1667.05
247.68	1701.86
247.90	1695.72
248.11	1636.33
248.33	1757.16
248.55	1656.81
248.77	1701.86
248.98	1732.58
249.20	1753.06
249.42	1734.63
249.64	1738.73
249.85	1685.48
250.07	1705.96
250.29	1822.69
250.50	1753.06
250.72	1609.70
250.94	1681.38
251.16	1851.36
251.37	1787.88
251.59	1755.11
251.81	1708.01
252.02	1736.68
252.24	1744.87
252.46	1798.12
252.68	1673.19
252.89	1697.77
253.11	1574.89
253.33	1812.45
253.54	1816.55
253.76	1656.81
253.98	1679.33
254.20	1722.34
254.41	1628.14
254.63	1687.53
254.85	1677.29
255.06	1728.49
255.28	1710.05
255.50	1675.24
255.71	1705.96
255.93	1658.85
256.15	1730.53
256.36	1685.48
256.58	1656.81
256.80	1734.63
257.02	1671.14
257.23	1708.01
257.45	1722.34
257.67	1804.26
257.88	1656.81
258.10	1708.01
258.32	1677.29
258.53	1755.11
258.75	1794.02
258.97	1632.23
259.18	1718.25
259.40	1691.62
259.62	1816.55
259.83	1886.18
260.05	1748.97
260.27	2004.96
260.48	1789.92
260.70	1638.38
260.92	1632.23
261.13	1644.52
261.35	1826.79
261.57	1789.92
261.78	1636.33
262.00	1732.58
262.22	1796.07
262.43	1644.52
262.65	1703.91
262.86	1744.87
263.08	1904.61
263.30	1675.24
263.51	1628.14
263.73	1697.77
263.95	1738.73
264.16	1736.68
264.38	1689.57
264.60	1736.68
264.81	1656.81
265.03	1718.25
265.25	1839.08
265.46	1734.63
265.68	1796.07
265.89	1761.25
266.11	1658.85
266.33	1822.69
266.54	1765.35
266.76	1779.68
266.98	1697.77
267.19	1841.12
267.41	1804.26
267.62	1761.25
267.84	1624.04
268.06	1673.19
268.27	1681.38
268.49	1728.49
268.70	1787.88
268.92	1697.77
269.14	1642.47
269.35	1619.94
269.57	1710.05
269.79	1714.15
270.00	1697.77
270.22	1781.73
270.43	1630.18
270.65	1656.81
270.87	1775.59
271.08	1742.82
271.30	1628.14
271.51	1730.53
271.73	1814.50
271.95	1777.64
272.16	1771.49
272.38	1714.15
272.59	1669.09
272.81	1773.54
273.02	1783.78
273.24	1796.07
273.46	1699.81
273.67	1640.42
273.89	1712.10
274.10	1720.29
274.32	1800.16
274.54	1751.01
274.75	1703.91
274.97	1708.01
275.18	1779.68
275.40	1761.25
275.61	1697.77
275.83	1769.44
276.05	1642.47
276.26	1728.49
276.48	1781.73
276.69	1714.15
276.91	1693.67
277.12	1814.50
277.34	1798.12
277.55	1755.11
277.77	1722.34
277.99	1681.38
278.20	1679.33
278.42	1697.77
278.63	1656.81
278.85	1689.57
279.06	1660.90
279.28	1685.48
279.49	1775.59
279.71	1738.73
279.93	1693.67
280.14	1697.77
280.36	1693.67
280.57	1773.54
280.79	1800.16
281.00	1730.53
281.22	1726.44
281.43	1783.78
281.65	1574.89
281.86	1652.71
282.08	1722.34
282.29	1925.09
282.51	1619.94
282.73	1689.57
282.94	1701.86
283.16	1705.96
283.37	1796.07
283.59	1724.39
283.80	1669.09
284.02	1728.49
284.23	1636.33
284.45	1722.34
284.66	1691.62
284.88	1693.67
285.09	1718.25
285.31	1796.07
285.52	1716.20
285.74	1650.66
285.95	1681.38
286.17	1753.06
286.38	1708.01
286.60	1677.29
286.81	1695.72
287.03	1691.62
287.24	1714.15
287.46	1681.38
287.67	1697.77
287.89	1847.27
288.10	1634.28
288.32	1660.90
288.53	1730.53
288.75	1763.30
288.96	1783.78
289.18	1665.00
289.39	1734.63
289.61	1763.30
289.82	1837.03
290.04	1806.31
290.25	1599.46
290.47	1626.09
290.68	1671.14
290.90	1769.44
291.11	1529.83
291.33	1738.73
291.54	1634.28
291.76	1714.15
291.97	1697.77
292.18	1765.35
292.40	1724.39
292.61	1560.55
292.83	1904.61
293.04	1834.98
293.26	1738.73
293.47	1738.73
293.69	1660.90
293.90	1716.20
294.12	1816.55
294.33	1755.11
294.55	1685.48
294.76	1755.11
294.97	1716.20
295.19	1880.04
295.40	1710.05
295.62	1681.38
295.83	1775.59
296.05	1683.43
296.26	1798.12
296.48	1759.21
296.69	1765.35
296.90	1763.30
297.12	1779.68
297.33	1761.25
297.55	1769.44
297.76	1716.20
297.98	1863.65
298.19	1699.81
298.41	1763.30
298.62	1689.57
298.83	1812.45
299.05	1742.82
299.26	1738.73
299.48	1626.09
299.69	1699.81
299.90	1757.16
300.12	1673.19
300.33	1757.16
300.55	1683.43
300.76	1699.81
300.98	1708.01
301.19	1738.73
301.40	1665.00
301.62	1710.05
301.83	1724.39
302.05	1800.16
302.26	1699.81
302.47	1681.38
302.69	1683.43
302.90	1671.14
303.12	1578.98
303.33	1710.05
303.54	1781.73
303.76	1634.28
303.97	1773.54
304.19	1841.12
304.40	1714.15
304.61	1824.74
304.83	1773.54
305.04	1742.82
305.26	1822.69
305.47	1695.72
305.68	1726.44
305.90	1621.99
306.11	1753.06
306.33	1734.63
306.54	1759.21
306.75	1638.38
306.97	1673.19
307.18	1603.56
307.39	1720.29
307.61	1738.73
307.82	1703.91
308.04	1806.31
308.25	1695.72
308.46	1677.29
308.68	1708.01
308.89	1705.96
309.10	1691.62
309.32	1830.88
309.53	1740.77
309.74	1832.93
309.96	1779.68
310.17	1771.49
310.39	1697.77
310.60	1742.82
310.81	1781.73
311.03	1660.90
311.24	1789.92
311.45	1724.39
311.67	1824.74
311.88	1695.72
312.09	1673.19
312.31	1746.92
312.52	1705.96
312.73	1687.53
312.95	1703.91
313.16	1611.75
313.37	1791.97
313.59	1732.58
313.80	1869.80
314.01	1804.26
314.23	1701.86
314.44	1703.91
314.65	1638.38
314.87	1757.16
315.08	1685.48
315.29	1695.72
315.51	1662.95
315.72	1656.81
315.93	1822.69
316.15	1783.78
316.36	1665.00
316.57	1652.71
316.79	1804.26
317.00	1738.73
317.21	1722.34
317.43	1724.39
317.64	1693.67
317.85	1814.50
318.07	1720.29
318.28	1765.35
318.49	1789.92
318.70	1875.94
318.92	1853.41
319.13	1824.74
319.34	1896.42
319.56	1849.32
319.77	1822.69
319.98	1877.99
320.20	1785.83
320.41	1761.25
320.62	1765.35
320.83	1656.81
321.05	1904.61
321.26	1843.17
321.47	1646.57
321.69	1847.27
321.90	1669.09
322.11	1730.53
322.32	1654.76
322.54	1791.97
322.75	1742.82
322.96	1777.64
323.18	1665.00
323.39	1568.74
323.60	1642.47
323.81	1873.89
324.03	1687.53
324.24	1748.97
324.45	1703.91
324.66	1726.44
324.88	1775.59
325.09	1773.54
325.30	1689.57
325.52	1705.96
325.73	1736.68
325.94	1677.29
326.15	1648.61
326.37	1722.34
326.58	1812.45
326.79	1742.82
327.00	1597.42
327.22	1738.73
327.43	1697.77
327.64	1665.00
327.85	1767.40
328.07	1720.29
328.28	1787.88
328.49	1753.06
328.70	1712.10
328.92	1724.39
329.13	1789.92
329.34	1728.49
329.55	1783.78
329.76	1800.16
329.98	1675.24
330.19	1826.79
330.40	1781.73
330.61	1681.38
330.83	1710.05
331.04	1642.47
331.25	1718.25
331.46	1681.38
331.68	1665.00
331.89	1855.46
332.10	1638.38
332.31	1687.53
332.52	1646.57
332.74	1816.55
332.95	1640.42
333.16	1753.06
333.37	1730.53
333.58	1714.15
333.80	1806.31
334.01	1673.19
334.22	1775.59
334.43	1650.66
334.64	1738.73
334.86	1626.09
335.07	1671.14
335.28	1765.35
335.49	1533.93
335.70	1800.16
335.92	1769.44
336.13	1822.69
336.34	1738.73
336.55	1720.29
336.76	1746.92
336.98	1597.42
337.19	1712.10
337.40	1810.40
337.61	1914.85
337.82	1650.66
338.04	1798.12
338.25	1628.14
338.46	1744.87
338.67	1755.11
338.88	1761.25
339.09	1628.14
339.31	1708.01
339.52	1583.08
339.73	1656.81
339.94	1748.97
340.15	1710.05
340.36	1581.03
340.58	1695.72
340.79	1714.15
341.00	1755.11
341.21	1652.71
341.42	1851.36
341.63	1732.58
341.85	1779.68
342.06	1742.82
342.27	1675.24
342.48	1816.55
342.69	1636.33
342.90	1712.10
343.12	1777.64
343.33	1652.71
343.54	1781.73
343.75	1806.31
343.96	1673.19
344.17	1652.71
344.38	1699.81
344.60	1611.75
344.81	1683.43
345.02	1705.96
345.23	1789.92
345.44	1767.40
345.65	1710.05
345.86	1693.67
346.07	1677.29
346.29	1621.99
346.50	1732.58
346.71	1765.35
346.92	1773.54
347.13	1828.84
347.34	1740.77
347.55	1652.71
347.76	1677.29
347.98	1660.90
348.19	1636.33
348.40	1816.55
348.61	1656.81
348.82	1757.16
349.03	1755.11
349.24	1605.61
349.45	1767.40
349.66	1605.61
349.88	1615.85
350.09	1650.66
350.30	1705.96
350.51	1777.64
350.72	1648.61
350.93	1718.25
351.14	1720.29
351.35	1738.73
351.56	1769.44
351.77	1697.77
351.99	1728.49
352.20	1798.12
352.41	1746.92
352.62	1636.33
352.83	1634.28
353.04	1624.04
353.25	1720.29
353.46	1753.06
353.67	1738.73
353.88	1613.80
354.09	1671.14
354.30	1656.81
354.52	1669.09
354.73	1650.66
354.94	1609.70
355.15	1665.00
355.36	1779.68
355.57	1685.48
355.78	1759.21
355.99	1675.24
356.20	1708.01
356.41	1763.30
356.62	1720.29
356.83	1734.63
357.04	1800.16
357.25	1574.89
357.46	1652.71
357.68	1708.01
357.89	1644.52
358.10	1755.11
358.31	1703.91
358.52	1716.20
358.73	1667.05
358.94	1632.23
359.15	1730.53
359.36	1740.77
359.57	1726.44
359.78	1673.19
359.99	1730.53
360.20	1669.09
360.41	1693.67
360.62	1759.21
360.83	1654.76
361.04	1732.58
361.25	1751.01
361.46	1812.45
361.67	1705.96
361.88	1724.39
362.09	1742.82
362.30	1736.68
362.51	1654.76
362.72	1669.09
362.93	1759.21
363.14	1732.58
363.35	1761.25
363.56	1689.57
363.78	1734.63
363.99	1789.92
364.20	1665.00
364.41	1769.44
364.62	1873.89
364.83	1683.43
365.04	1681.38
365.25	1662.95
365.46	1798.12
365.67	1644.52
365.88	1638.38
366.09	1677.29
366.30	1658.85
366.51	1634.28
366.72	1685.48
366.93	1708.01
367.14	1730.53
367.35	1785.83
367.56	1740.77
367.77	1763.30
367.98	1667.05
368.18	1796.07
368.39	1794.02
368.60	1636.33
368.81	1826.79
369.02	1765.35
369.23	1734.63
369.44	1601.51
369.65	1619.94
369.86	1699.81
370.07	1728.49
370.28	1585.13
370.49	1753.06
370.70	1777.64
370.91	1730.53
371.12	1632.23
371.33	1777.64
371.54	1683.43
371.75	1773.54
371.96	1640.42
372.17	1712.10
372.38	1722.34
372.59	1845.22
372.80	1681.38
373.01	1820.64
373.22	1716.20
373.43	1673.19
373.64	1642.47
373.85	1865.70
374.06	1765.35
374.26	1775.59
374.47	1703.91
374.68	1841.12
374.89	1730.53
375.10	1665.00
375.31	1820.64
375.52	1716.20
375.73	1689.57
375.94	1718.25
376.15	1812.45
376.36	1656.81
376.57	1652.71
376.78	1736.68
376.99	1789.92
377.20	1751.01
377.40	1628.14
377.61	1814.50
377.82	1697.77
378.03	1812.45
378.24	1779.68
378.45	1714.15
378.66	1724.39
378.87	1648.61
379.08	1656.81
379.29	1705.96
379.50	1822.69
379.71	1660.90
379.91	1798.12
380.12	1685.48
380.33	1765.35
380.54	1691.62
380.75	1720.29
380.96	1669.09
381.17	1798.12
381.38	1708.01
381.59	1677.29
381.80	1767.40
382.00	1787.88
382.21	1779.68
382.42	1929.19
382.63	1890.28
382.84	1787.88
383.05	1800.16
383.26	1861.60
383.47	1652.71
383.68	1773.54
383.88	1783.78
384.09	1710.05
384.30	1820.64
384.51	1759.21
384.72	1683.43
384.93	1665.00
385.14	1646.57
385.35	1767.40
385.55	1634.28
385.76	1824.74
385.97	1751.01
386.18	1656.81
386.39	1714.15
386.60	1693.67
386.81	1718.25
387.02	1677.29
387.22	1679.33
387.43	1824.74
387.64	1771.49
387.85	1923.04
388.06	2242.53
388.27	4184.00
388.48	6786.97
388.68	8191.88
388.89	9695.08
389.10	9725.80
389.31	8443.78
389.52	7686.03
389.73	6746.01
389.93	6281.12
390.14	5638.06
390.35	5140.40
390.56	4638.65
390.77	3737.54
390.98	3063.76
391.18	2478.04
391.39	2164.70
391.60	1875.94
391.81	1837.03
392.02	1777.64
392.23	1877.99
392.43	1746.92
392.64	1775.59
392.85	1730.53
393.06	1828.84
393.27	1738.73
393.47	1748.97
393.68	1773.54
393.89	1744.87
394.10	1773.54
394.31	1718.25
394.52	1660.90
394.72	1665.00
394.93	1794.02
395.14	1665.00
395.35	1705.96
395.56	1654.76
395.76	1759.21
395.97	1761.25
396.18	1896.42
396.39	1773.54
396.60	2060.26
396.80	1904.61
397.01	1859.56
397.22	1955.81
397.43	1804.26
397.64	1714.15
397.84	1771.49
398.05	1949.67
398.26	1775.59
398.47	1785.83
398.67	1820.64
398.88	1761.25
399.09	1789.92
399.30	1726.44
399.51	1822.69
399.71	1714.15
399.92	1669.09
400.13	1689.57
400.34	1716.20
400.54	1617.90
400.75	1744.87
400.96	1705.96
401.17	1861.60
401.37	1771.49
401.58	1761.25
401.79	1736.68
402.00	1824.74
402.21	2060.26
402.41	1972.19
402.62	2064.35
402.83	1984.48
403.04	2035.68
403.24	2138.08
403.45	1849.32
403.66	2021.35
403.87	1925.09
404.07	1931.23
404.28	1912.80
404.49	1955.81
404.70	1814.50
404.90	1748.97
405.11	1746.92
405.32	1738.73
405.52	1665.00
405.73	1689.57
405.94	1710.05
406.15	1718.25
406.35	1796.07
406.56	1751.01
406.77	1716.20
406.98	1691.62
407.18	1689.57
407.39	1763.30
407.60	1728.49
407.80	1716.20
408.01	1669.09
408.22	1812.45
408.43	1730.53
408.63	1857.51
408.84	1724.39
409.05	1730.53
409.25	1722.34
409.46	1724.39
409.67	1658.85
409.88	1714.15
410.08	1671.14
410.29	1695.72
410.50	1814.50
410.70	1683.43
410.91	1583.08
411.12	1730.53
411.32	1763.30
411.53	1673.19
411.74	1783.78
411.95	1693.67
412.15	1740.77
412.36	1830.88
412.57	1742.82
412.77	1882.08
412.98	1753.06
413.19	1677.29
413.39	1732.58
413.60	1742.82
413.81	1826.79
414.01	1685.48
414.22	1759.21
414.43	1728.49
414.63	1740.77
414.84	1787.88
415.05	1685.48
415.25	1642.47
415.46	1734.63
415.67	1689.57
415.87	1683.43
416.08	1798.12
416.29	1746.92
416.49	1767.40
416.70	1669.09
416.91	1677.29
417.11	1685.48
417.32	1828.84
417.53	1859.56
417.73	1748.97
417.94	1732.58
418.15	1798.12
418.35	1703.91
418.56	1714.15
418.77	1886.18
418.97	1689.57
419.18	1734.63
419.38	1611.75
419.59	1714.15
419.80	1832.93
420.00	1697.77
420.21	1712.10
420.42	1804.26
420.62	1785.83
420.83	1695.72
421.04	1746.92
421.24	1578.98
421.45	1769.44
421.65	1783.78
421.86	1714.15
422.07	1730.53
422.27	1718.25
422.48	1710.05
422.69	1748.97
422.89	1679.33
423.10	1708.01
423.30	1636.33
423.51	1744.87
423.72	1789.92
423.92	1730.53
424.13	1726.44
424.33	1771.49
424.54	1796.07
424.75	1714.15
424.95	1816.55
425.16	1722.34
425.36	1708.01
425.57	1812.45
425.78	1748.97
425.98	1814.50
426.19	1675.24
426.39	1720.29
426.60	1673.19
426.81	1839.08
427.01	1693.67
427.22	1728.49
427.42	1656.81
427.63	1689.57
427.83	1822.69
428.04	1812.45
428.25	1722.34
428.45	1773.54
428.66	1785.83
428.86	1646.57
429.07	1716.20
429.28	1775.59
429.48	1652.71
429.69	1689.57
429.89	1773.54
430.10	1687.53
430.30	1755.11
430.51	1716.20
430.71	1691.62
430.92	1730.53
431.13	1771.49
431.33	1794.02
431.54	1736.68
431.74	1800.16
431.95	1845.22
432.15	1691.62
432.36	1734.63
432.56	1775.59
432.77	1824.74
432.98	1753.06
433.18	1728.49
433.39	1605.61
433.59	1710.05
433.80	1839.08
434.00	1992.67
434.21	1761.25
434.41	1642.47
434.62	1845.22
434.82	1624.04
435.03	1634.28
435.23	1755.11
435.44	1628.14
435.64	1699.81
435.85	1722.34
436.06	1794.02
436.26	1734.63
436.47	1726.44
436.67	1701.86
436.88	1710.05
437.08	1824.74
437.29	1810.40
437.49	1705.96
437.70	1765.35
437.90	1708.01
438.11	1837.03
438.31	1681.38
438.52	1898.47
438.72	1886.18
438.93	1941.47
439.13	1818.60
439.34	1869.80
439.54	1757.16
439.75	1812.45
439.95	1724.39
440.16	1751.01
440.36	1806.31
440.57	1808.36
440.77	1714.15
440.98	1787.88
441.18	1785.83
441.39	1710.05
441.59	1689.57
441.80	1845.22
442.00	1794.02
442.21	1826.79
442.41	1691.62
442.62	1816.55
442.82	1736.68
443.02	1753.06
443.23	1781.73
443.43	1699.81
443.64	1832.93
443.84	1646.57
444.05	1843.17
444.25	1673.19
444.46	1740.77
444.66	1701.86
444.87	1861.60
445.07	1634.28
445.28	1748.97
445.48	1785.83
445.69	1779.68
445.89	1812.45
446.09	1730.53
446.30	1972.19
446.50	2623.45
446.71	3735.50
446.91	4241.34
447.12	4650.94
447.32	4808.63
447.53	4282.30
447.73	3946.44
447.93	3557.32
448.14	3317.71
448.34	3184.59
448.55	2928.60
448.75	2832.34
448.96	2678.74
449.16	2449.37
449.36	2269.15
449.57	2058.21
449.77	1933.28
449.98	1818.60
450.18	1869.80
450.39	1873.89
450.59	1845.22
450.79	1810.40
451.00	1648.61
451.20	1785.83
451.41	1691.62
451.61	1796.07
451.81	1701.86
452.02	1638.38
452.22	1730.53
452.43	1701.86
452.63	1705.96
452.84	1789.92
453.04	1746.92
453.24	1714.15
453.45	1748.97
453.65	1783.78
453.86	1826.79
454.06	1783.78
454.26	1802.21
454.47	1675.24
454.67	1839.08
454.87	1800.16
455.08	1767.40
455.28	1814.50
455.49	1785.83
455.69	1701.86
455.89	1898.47
456.10	1771.49
456.30	1685.48
456.51	1812.45
456.71	1814.50
456.91	1769.44
457.12	1779.68
457.32	1726.44
457.52	1681.38
457.73	1849.32
457.93	1724.39
458.14	1712.10
458.34	1771.49
458.54	1763.30
458.75	1708.01
458.95	1800.16
459.15	1804.26
459.36	1681.38
459.56	1837.03
459.76	1869.80
459.97	1632.23
460.17	1736.68
460.37	1820.64
460.58	1779.68
460.78	1779.68
460.99	1665.00
461.19	1763.30
461.39	1742.82
461.60	1628.14
461.80	1748.97
462.00	1681.38
462.21	1734.63
462.41	1691.62
462.61	1634.28
462.82	1673.19
463.02	1703.91
463.22	1767.40
463.43	1796.07
463.63	1785.83
463.83	1785.83
464.04	1769.44
464.24	1712.10
464.44	1677.29
464.64	1763.30
464.85	1789.92
465.05	1771.49
465.25	1738.73
465.46	1740.77
465.66	1746.92
465.86	1755.11
466.07	1748.97
466.27	1748.97
466.47	1677.29
466.68	1683.43
466.88	1832.93
467.08	1783.78
467.29	1810.40
467.49	1761.25
467.69	1699.81
467.89	1769.44
468.10	1757.16
468.30	1751.01
468.50	1785.83
468.71	1742.82
468.91	1646.57
469.11	1810.40
469.31	1785.83
469.52	1691.62
469.72	1869.80
469.92	1828.84
470.13	1824.74
470.33	1708.01
470.53	1894.37
470.73	2113.50
470.94	2289.63
471.14	2332.64
471.34	2566.10
471.54	2332.64
471.75	2217.95
471.95	2101.22
472.15	2082.78
472.36	2088.93
472.56	1980.39
472.76	2031.58
472.96	2084.83
473.17	1951.71
473.37	1906.66
473.57	1812.45
473.77	1824.74
473.98	1701.86
474.18	1755.11
474.38	1955.81
474.58	1624.04
474.79	1730.53
474.99	1712.10
475.19	1806.31
475.39	1740.77
475.60	1769.44
475.80	1812.45
476.00	1689.57
476.20	1787.88
476.41	1767.40
476.61	1861.60
476.81	1841.12
477.01	1691.62
477.21	1873.89
477.42	1822.69
477.62	1640.42
477.82	1820.64
478.02	1781.73
478.23	1820.64
478.43	1705.96
478.63	1673.19
478.83	1675.24
479.03	1630.18
479.24	1820.64
479.44	1812.45
479.64	1683.43
479.84	1621.99
480.04	1746.92
480.25	1703.91
480.45	1652.71
480.65	1728.49
480.85	1851.36
481.06	1742.82
481.26	1701.86
481.46	1714.15
481.66	1775.59
481.86	1681.38
482.06	1763.30
482.27	1705.96
482.47	1779.68
482.67	1767.40
482.87	1722.34
483.07	1820.64
483.28	1681.38
483.48	1703.91
483.68	1761.25
483.88	1626.09
484.08	1615.85
484.29	1652.71
484.49	1701.86
484.69	1716.20
484.89	1822.69
485.09	1812.45
485.29	1734.63
485.50	1716.20
485.70	1728.49
485.90	1746.92
486.10	1748.97
486.30	1759.21
486.50	1839.08
486.71	1755.11
486.91	1726.44
487.11	1767.40
487.31	1656.81
487.51	1785.83
487.71	1730.53
487.91	1613.80
488.12	1619.94
488.32	1615.85
488.52	1701.86
488.72	1705.96
488.92	1759.21
489.12	1785.83
489.32	1855.46
489.53	1843.17
489.73	1675.24
489.93	1763.30
490.13	1699.81
490.33	1710.05
490.53	1777.64
490.73	1794.02
490.94	1624.04
491.14	1804.26
491.34	1867.75
491.54	2209.76
491.74	2594.78
491.94	2953.17
492.14	2975.70
492.34	3145.68
492.54	2787.29
492.75	2467.80
492.95	2465.75
493.15	2351.07
493.35	2344.92
493.55	2303.96
493.75	2127.84
493.95	2105.31
494.15	2035.68
494.35	1959.91
494.56	1841.12
494.76	1779.68
494.96	1789.92
495.16	1708.01
495.36	1703.91
495.56	1767.40
495.76	1746.92
495.96	1775.59
496.16	1710.05
496.36	1861.60
496.56	1693.67
496.77	1855.46
496.97	1734.63
497.17	1832.93
497.37	1611.75
497.57	1736.68
497.77	1767.40
497.97	1646.57
498.17	1738.73
498.37	1826.79
498.57	1734.63
498.77	1812.45
498.97	1812.45
499.17	1935.33
499.38	1710.05
499.58	1837.03
499.78	1812.45
499.98	1796.07
500.18	1675.24
500.38	1759.21
500.58	1929.19
500.78	2588.63
500.98	4552.63
501.18	5963.68
501.38	6711.19
501.58	7014.29
501.78	6571.93
501.98	5500.84
502.18	4917.17
502.38	4444.09
502.58	4161.47
502.78	3727.30
502.98	3663.82
503.18	3473.36
503.38	3239.89
503.59	2846.68
503.79	2656.22
503.99	2514.91
504.19	2242.53
504.39	2158.56
504.59	2226.14
504.79	2117.60
504.99	2119.65
505.19	1966.05
505.39	1900.52
505.59	1902.56
505.79	1931.23
505.99	1882.08
506.19	1847.27
506.39	1863.65
506.59	1755.11
506.79	1736.68
506.99	1810.40
507.19	1705.96
507.39	1771.49
507.59	1634.28
507.79	1714.15
507.99	1673.19
508.19	1787.88
508.39	1669.09
508.59	1761.25
508.79	1794.02
508.99	1894.37
509.19	1703.91
509.39	1808.36
509.59	1708.01
509.79	1716.20
509.99	1791.97
510.19	1814.50
510.39	1718.25
510.59	1699.81
510.79	1730.53
510.99	1734.63
511.19	1765.35
511.39	1812.45
511.59	1804.26
511.79	1861.60
511.99	1791.97
512.19	1812.45
512.38	1800.16
512.58	1767.40
512.78	1714.15
512.98	1785.83
513.18	1849.32
513.38	1628.14
513.58	1693.67
513.78	1652.71
513.98	1691.62
514.18	1726.44
514.38	1718.25
514.58	1726.44
514.78	1691.62
514.98	1675.24
515.18	1777.64
515.38	1705.96
515.58	1904.61
515.78	1785.83
515.98	1746.92
516.18	1794.02
516.38	1738.73
516.57	1763.30
516.77	1771.49
516.97	1734.63
517.17	1746.92
517.37	1656.81
517.57	1775.59
517.77	1740.77
517.97	1759.21
518.17	1802.21
518.37	1693.67
518.57	1716.20
518.77	1613.80
518.97	1826.79
519.16	1777.64
519.36	1800.16
519.56	1685.48
519.76	1767.40
519.96	1763.30
520.16	1857.51
520.36	1722.34
520.56	1810.40
520.76	1701.86
520.96	1689.57
521.16	1785.83
521.35	1812.45
521.55	1877.99
521.75	1777.64
521.95	1689.57
522.15	1748.97
522.35	1632.23
522.55	1714.15
522.75	1773.54
522.95	1660.90
523.14	1662.95
523.34	1789.92
523.54	1724.39
523.74	1759.21
523.94	1771.49
524.14	1679.33
524.34	1783.78
524.54	1796.07
524.73	1681.38
524.93	1742.82
525.13	1689.57
525.33	1671.14
525.53	1849.32
525.73	1787.88
525.93	1726.44
526.13	1734.63
526.32	1722.34
526.52	1890.28
526.72	1777.64
526.92	1755.11
527.12	1697.77
527.32	1712.10
527.52	1705.96
527.71	1773.54
527.91	1716.20
528.11	1736.68
528.31	1783.78
528.51	1693.67
528.71	1757.16
528.90	1736.68
529.10	1869.80
529.30	1789.92
529.50	1560.55
529.70	1656.81
529.90	1746.92
530.09	1779.68
530.29	1757.16
530.49	1740.77
530.69	1888.23
530.89	1746.92
531.09	1783.78
531.28	1689.57
531.48	1777.64
531.68	1785.83
531.88	1796.07
532.08	1839.08
532.28	1730.53
532.47	1761.25
532.67	1800.16
532.87	1779.68
533.07	1695.72
533.27	1785.83
533.46	1865.70
533.66	1761.25
533.86	1804.26
534.06	1722.34
534.26	1769.44
534.45	1697.77
534.65	1851.36
534.85	1753.06
535.05	1665.00
535.25	1744.87
535.44	1654.76
535.64	1728.49
535.84	1763.30
536.04	1757.16
536.24	1765.35
536.43	1687.53
536.63	1763.30
536.83	1716.20
537.03	1685.48
537.22	1599.46
537.42	1673.19
537.62	1787.88
537.82	1656.81
538.02	1763.30
538.21	1834.98
538.41	1964.00
538.61	1761.25
538.81	1736.68
539.00	1791.97
539.20	1662.95
539.40	1730.53
539.60	1751.01
539.79	1814.50
539.99	1724.39
540.19	1695.72
540.39	1669.09
540.58	1837.03
540.78	1789.92
540.98	1802.21
541.18	1832.93
541.37	1767.40
541.57	1787.88
541.77	1740.77
541.97	1800.16
542.16	1673.19
542.36	1722.34
542.56	1771.49
542.76	1890.28
542.95	1814.50
543.15	1773.54
543.35	1785.83
543.54	1671.14
543.74	1751.01
543.94	1845.22
544.14	1697.77
544.33	1845.22
544.53	1834.98
544.73	1726.44
544.93	1773.54
545.12	1722.34
545.32	1763.30
545.52	1718.25
545.71	1691.62
545.91	1703.91
546.11	1734.63
546.30	1693.67
546.50	1753.06
546.70	1781.73
546.90	1785.83
547.09	1615.85
547.29	1771.49
547.49	1759.21
547.68	1789.92
547.88	1732.58
548.08	1783.78
548.27	2142.18
548.47	1718.25
548.67	1722.34
548.87	1808.36
549.06	1769.44
549.26	1746.92
549.46	1759.21
549.65	1765.35
549.85	1787.88
550.05	1753.06
550.24	1697.77
550.44	1722.34
550.64	1744.87
550.83	1665.00
551.03	1875.94
551.23	1767.40
551.42	1734.63
551.62	1759.21
551.82	1771.49
552.01	1767.40
552.21	1859.56
552.41	1726.44
552.60	1828.84
552.80	1703.91
553.00	1673.19
553.19	1681.38
553.39	1898.47
553.59	1787.88
553.78	1775.59
553.98	1820.64
554.17	1683.43
554.37	1896.42
554.57	1767.40
554.76	1681.38
554.96	1669.09
555.16	1722.34
555.35	1755.11
555.55	1830.88
555.75	1802.21
555.94	1804.26
556.14	1703.91
556.33	1763.30
556.53	1755.11
556.73	1722.34
556.92	1841.12
557.12	1812.45
557.32	1894.37
557.51	1808.36
557.71	1853.41
557.90	1779.68
558.10	1873.89
558.30	1744.87
558.49	1794.02
558.69	1742.82
558.88	1769.44
559.08	1820.64
559.28	1808.36
559.47	1779.68
559.67	1800.16
559.86	1941.47
560.06	1662.95
560.26	1769.44
560.45	1748.97
560.65	1796.07
560.84	1785.83
561.04	1722.34
561.24	1748.97
561.43	1769.44
561.63	1783.78
561.82	1841.12
562.02	1753.06
562.22	1763.30
562.41	1738.73
562.61	1718.25
562.80	1607.66
563.00	1943.52
563.19	1679.33
563.39	1855.46
563.59	1806.31
563.78	1767.40
563.98	1656.81
564.17	1701.86
564.37	1734.63
564.56	1685.48
564.76	1708.01
564.96	1892.32
565.15	1818.60
565.35	1945.57
565.54	1804.26
565.74	1800.16
565.93	1751.01
566.13	1744.87
566.32	1744.87
566.52	1781.73
566.71	1791.97
566.91	1742.82
567.11	1779.68
567.30	1710.05
567.50	1800.16
567.69	1748.97
567.89	1785.83
568.08	1755.11
568.28	1771.49
568.47	1646.57
568.67	1734.63
568.86	1695.72
569.06	1767.40
569.25	1726.44
569.45	1736.68
569.64	1765.35
569.84	1722.34
570.04	1777.64
570.23	1744.87
570.43	1740.77
570.62	1722.34
570.82	1873.89
571.01	1632.23
571.21	1732.58
571.40	1728.49
571.60	1902.56
571.79	1746.92
571.99	1744.87
572.18	1665.00
572.38	1845.22
572.57	1816.55
572.77	1777.64
572.96	1884.13
573.16	1757.16
573.35	1785.83
573.55	1841.12
573.74	1720.29
573.94	1695.72
574.13	1691.62
574.33	1755.11
574.52	1863.65
574.71	1810.40
574.91	1902.56
575.10	1699.81
575.30	1712.10
575.49	1701.86
575.69	1751.01
575.88	1847.27
576.08	1728.49
576.27	1734.63
576.47	1726.44
576.66	1847.27
576.86	1800.16
577.05	1751.01
577.25	1779.68
577.44	1865.70
577.64	1695.72
577.83	1765.35
578.02	1779.68
578.22	1783.78
578.41	1841.12
578.61	1798.12
578.80	1642.47
579.00	1798.12
579.19	1730.53
579.39	1763.30
579.58	1847.27
579.77	1798.12
579.97	1871.84
580.16	1828.84
580.36	1869.80
580.55	1888.23
580.75	1744.87
580.94	1787.88
581.13	1892.32
581.33	1828.84
581.52	1732.58
581.72	1877.99
581.91	1787.88
582.11	1755.11
582.30	1771.49
582.49	1738.73
582.69	1806.31
582.88	1800.16
583.08	1796.07
583.27	1828.84
583.47	1738.73
583.66	1681.38
583.85	1734.63
584.05	1804.26
584.24	1761.25
584.44	1841.12
584.63	1853.41
584.82	1861.60
585.02	1824.74
585.21	1853.41
585.41	1834.98
585.60	1834.98
585.79	1955.81
585.99	1882.08
586.18	1867.75
586.37	2189.28
586.57	3448.78
586.76	9932.65
586.96	24067.73
587.15	34291.19
587.34	40449.43
587.54	42171.77
587.73	36367.83
587.93	26283.63
588.12	21096.13
588.31	18370.28
588.51	16393.99
588.70	14939.93
588.89	13993.77
589.09	12642.11
589.28	10659.68
589.47	9455.47
589.67	7974.79
589.86	6391.71
590.06	4886.45
590.25	3837.89
590.44	3155.92
590.64	2656.22
590.83	2131.94
591.02	2189.28
591.22	1886.18
591.41	1914.85
591.60	1814.50
591.80	1945.57
591.99	1734.63
592.18	1785.83
592.38	1853.41
592.57	1755.11
592.76	1806.31
592.96	1861.60
593.15	1789.92
593.34	1806.31
593.54	1742.82
593.73	1798.12
593.92	1796.07
594.12	1759.21
594.31	1791.97
594.50	1896.42
594.70	1806.31
594.89	1920.99
595.08	1667.05
595.28	1757.16
595.47	1900.52
595.66	1800.16
595.86	1615.85
596.05	1660.90
596.24	1710.05
596.43	1822.69
596.63	1822.69
596.82	1773.54
597.01	1802.21
597.21	1806.31
597.40	1767.40
597.59	1742.82
597.79	1767.40
597.98	1822.69
598.17	1708.01
598.36	1802.21
598.56	1785.83
598.75	1804.26
598.94	1892.32
599.14	1763.30
599.33	1732.58
599.52	1785.83
599.71	1785.83
599.91	1767.40
600.10	1832.93
600.29	1757.16
600.48	1759.21
600.68	1806.31
600.87	1738.73
601.06	1658.85
601.26	1777.64
601.45	1738.73
601.64	1746.92
601.83	1808.36
602.03	1632.23
602.22	1669.09
602.41	1794.02
602.60	1796.07
602.80	1812.45
602.99	1740.77
603.18	1730.53
603.37	1757.16
603.57	1808.36
603.76	1761.25
603.95	1812.45
604.14	1732.58
604.34	1685.48
604.53	1779.68
604.72	1861.60
604.91	1822.69
605.10	1765.35
605.30	1648.61
605.49	1832.93
605.68	1806.31
605.87	1830.88
606.07	1697.77
606.26	1734.63
606.45	1789.92
606.64	1771.49
606.84	1687.53
607.03	1734.63
607.22	1853.41
607.41	1697.77
607.60	1626.09
607.80	1834.98
607.99	1746.92
608.18	1818.60
608.37	1798.12
608.56	1699.81
608.76	1824.74
608.95	1814.50
609.14	1794.02
609.33	1697.77
609.52	1746.92
609.72	1796.07
609.91	1804.26
610.10	1742.82
610.29	1828.84
610.48	1693.67
610.68	1757.16
610.87	1730.53
611.06	1734.63
611.25	1740.77
611.44	1804.26
611.63	1658.85
611.83	1775.59
612.02	1656.81
612.21	1804.26
612.40	1669.09
612.59	1673.19
612.79	1708.01
612.98	1691.62
613.17	1843.17
613.36	1744.87
613.55	1798.12
613.74	1779.68
613.93	1742.82
614.13	1759.21
614.32	1796.07
614.51	1857.51
614.70	1726.44
614.89	1742.82
615.08	1781.73
615.28	2052.06
615.47	1730.53
615.66	1753.06
615.85	1779.68
616.04	1828.84
616.23	1740.77
616.42	1773.54
616.62	1820.64
616.81	1779.68
617.00	1738.73
617.19	1763.30
617.38	1730.53
617.57	1763.30
617.76	1824.74
617.95	1830.88
618.15	1798.12
618.34	1888.23
618.53	1621.99
618.72	1775.59
618.91	1789.92
619.10	1828.84
619.29	1724.39
619.48	1726.44
619.68	1765.35
619.87	1734.63
620.06	1705.96
620.25	1705.96
620.44	1767.40
620.63	1722.34
620.82	1736.68
621.01	1708.01
621.20	1779.68
621.39	1804.26
621.59	1734.63
621.78	1701.86
621.97	1708.01
622.16	1787.88
622.35	1765.35
622.54	1843.17
622.73	1918.95
622.92	1695.72
623.11	1812.45
623.30	1779.68
623.49	1789.92
623.68	1734.63
623.88	1839.08
624.07	1808.36
624.26	1691.62
624.45	1718.25
624.64	1710.05
624.83	1744.87
625.02	1742.82
625.21	1769.44
625.40	1730.53
625.59	1771.49
625.78	1757.16
625.97	1794.02
626.16	1822.69
626.35	1777.64
626.54	1724.39
626.74	1789.92
626.93	1744.87
627.12	1720.29
627.31	1724.39
627.50	1789.92
627.69	1771.49
627.88	1640.42
628.07	1726.44
628.26	1662.95
628.45	1812.45
628.64	1687.53
628.83	1728.49
629.02	1689.57
629.21	1732.58
629.40	1769.44
629.59	1593.32
629.78	1693.67
629.97	1765.35
630.16	1763.30
630.35	1738.73
630.54	1691.62
630.73	1634.28
630.92	1818.60
631.11	1687.53
631.30	1839.08
631.49	1761.25
631.68	1708.01
631.87	1767.40
632.06	1773.54
632.25	1898.47
632.44	1718.25
632.63	1691.62
632.82	1642.47
633.01	1626.09
633.20	1714.15
633.39	1728.49
633.58	1621.99
633.77	1746.92
633.96	1757.16
634.15	1767.40
634.34	1738.73
634.53	1701.86
634.72	1740.77
634.91	1755.11
635.10	1763.30
635.29	1761.25
635.48	1718.25
635.67	1718.25
635.86	1665.00
636.05	1851.36
636.24	1720.29
636.43	1689.57
636.62	1716.20
636.81	1638.38
637.00	1773.54
637.19	1710.05
637.38	1738.73
637.57	1779.68
637.76	1712.10
637.95	1697.77
638.14	1662.95
638.33	1689.57
638.52	1748.97
638.71	1607.66
638.89	1687.53
639.08	1826.79
639.27	1744.87
639.46	1699.81
639.65	1849.32
639.84	1695.72
640.03	1882.08
640.22	1736.68
640.41	1886.18
640.60	1714.15
640.79	1734.63
640.98	1726.44
641.17	1773.54
641.36	1732.58
641.55	1798.12
641.74	1626.09
641.92	1652.71
642.11	1775.59
642.30	1636.33
642.49	1693.67
642.68	1738.73
642.87	1693.67
643.06	1765.35
643.25	1673.19
643.44	1705.96
643.63	1703.91
643.82	1775.59
644.00	1679.33
644.19	1730.53
644.38	1660.90
644.57	1769.44
644.76	1718.25
644.95	1728.49
645.14	1718.25
645.33	1796.07
645.52	1708.01
645.71	1650.66
645.89	1611.75
646.08	1689.57
646.27	1675.24
646.46	1869.80
646.65	1605.61
646.84	1783.78
647.03	1648.61
647.22	1818.60
647.40	1730.53
647.59	1662.95
647.78	1669.09
647.97	1689.57
648.16	1726.44
648.35	1822.69
648.54	1820.64
648.73	1650.66
648.91	1800.16
649.10	1705.96
649.29	1687.53
649.48	1683.43
649.67	1716.20
649.86	1673.19
650.05	1648.61
650.23	1751.01
650.42	1742.82
650.61	1771.49
650.80	1816.55
650.99	1812.45
651.18	1785.83
651.36	1771.49
651.55	1757.16
651.74	1789.92
651.93	1687.53
652.12	1724.39
652.31	1800.16
652.49	1720.29
652.68	1712.10
652.87	1812.45
653.06	1699.81
653.25	1804.26
653.44	1753.06
653.62	1861.60
653.81	1656.81
654.00	1806.31
654.19	1824.74
654.38	1857.51
654.56	1755.11
654.75	1699.81
654.94	1740.77
655.13	1796.07
655.32	1779.68
655.51	1787.88
655.69	1722.34
655.88	1710.05
656.07	1714.15
656.26	1693.67
656.45	1630.18
656.63	1705.96
656.82	1810.40
657.01	1845.22
657.20	1712.10
657.38	1777.64
657.57	1708.01
657.76	1636.33
657.95	1761.25
658.14	1748.97
658.32	1683.43
658.51	1609.70
658.70	1744.87
658.89	1779.68
659.08	1687.53
659.26	1751.01
659.45	1642.47
659.64	1726.44
659.83	1677.29
660.01	1920.99
660.20	1724.39
660.39	1929.19
660.58	1601.51
660.76	1818.60
660.95	1632.23
661.14	1753.06
661.33	1626.09
661.51	1730.53
661.70	1740.77
661.89	1771.49
662.08	1734.63
662.26	1609.70
662.45	1687.53
662.64	1871.84
662.83	1802.21
663.01	1701.86
663.20	1662.95
663.39	1781.73
663.58	1619.94
663.76	1773.54
663.95	1730.53
664.14	1669.09
664.32	1673.19
664.51	1730.53
664.70	1701.86
664.89	1763.30
665.07	1654.76
665.26	1796.07
665.45	1683.43
665.64	1757.16
665.82	1724.39
666.01	1777.64
666.20	1644.52
666.38	1783.78
666.57	1759.21
666.76	2179.04
666.95	4462.52
667.13	10270.56
667.32	15185.69
667.51	17850.10
667.69	18986.72
667.88	17680.11
668.07	12365.64
668.25	9494.38
668.44	8048.52
668.63	7378.83
668.81	6799.26
669.00	6344.61
669.19	5746.60
669.38	5066.67
669.56	4585.40
669.75	3893.19
669.94	3358.67
670.12	2873.30
670.31	2533.34
670.50	2340.83
670.68	2066.40
670.87	2000.87
671.06	1871.84
671.24	1841.12
671.43	1839.08
671.62	1755.11
671.80	1738.73
671.99	1826.79
672.18	1765.35
672.36	1738.73
672.55	1718.25
672.74	1724.39
672.92	1695.72
673.11	1759.21
673.29	1640.42
673.48	1757.16
673.67	1716.20
673.85	1841.12
674.04	1710.05
674.23	1740.77
674.41	1765.35
674.60	1689.57
674.79	1570.79
674.97	1660.90
675.16	1822.69
675.34	1775.59
675.53	1775.59
675.72	1705.96
675.90	1841.12
676.09	1650.66
676.28	1767.40
676.46	1736.68
676.65	1767.40
676.83	1693.67
677.02	1710.05
677.21	1734.63
677.39	1716.20
677.58	1542.12
677.77	1683.43
677.95	1675.24
678.14	1621.99
678.32	1718.25
678.51	1712.10
678.70	1806.31
678.88	1656.81
679.07	1748.97
679.25	1759.21
679.44	1691.62
679.63	1693.67
679.81	1712.10
680.00	1767.40
680.18	1746.92
680.37	1773.54
680.55	1775.59
680.74	1675.24
680.93	1650.66
681.11	1720.29
681.30	1630.18
681.48	1728.49
681.67	1763.30
681.85	1746.92
682.04	1734.63
682.23	1812.45
682.41	1701.86
682.60	1734.63
682.78	1755.11
682.97	1712.10
683.15	1820.64
683.34	1734.63
683.53	1783.78
683.71	1746.92
683.90	1875.94
684.08	1763.30
684.27	1708.01
684.45	1855.46
684.64	1757.16
684.82	1671.14
685.01	1810.40
685.19	1732.58
685.38	1880.04
685.57	1716.20
685.75	1665.00
685.94	1699.81
686.12	1636.33
686.31	1669.09
686.49	1861.60
686.68	1665.00
686.86	1744.87
687.05	1757.16
687.23	1841.12
687.42	1691.62
687.60	1648.61
687.79	1779.68
687.97	1779.68
688.16	1767.40
688.34	1830.88
688.53	1687.53
688.71	1767.40
688.90	1771.49
689.08	1722.34
689.27	1658.85
689.45	1800.16
689.64	1746.92
689.82	1667.05
690.01	1738.73
690.19	1802.21
690.38	1712.10
690.56	1771.49
690.75	1607.66
690.93	1699.81
691.12	1665.00
691.30	1718.25
691.49	1734.63
691.67	1779.68
691.86	1826.79
692.04	1642.47
692.23	1695.72
692.41	1691.62
692.60	1785.83
692.78	1783.78
692.97	1703.91
693.15	1814.50
693.34	1771.49
693.52	1769.44
693.71	1726.44
693.89	1738.73
694.08	1595.37
694.26	1779.68
694.44	1730.53
694.63	1804.26
694.81	1611.75
695.00	1675.24
695.18	1789.92
695.37	1896.42
695.55	1736.68
695.74	1714.15
695.92	1675.24
696.10	1839.08
696.29	1642.47
696.47	1730.53
696.66	1660.90
696.84	1546.22
697.03	1697.77
697.21	1839.08
697.40	2306.01
697.58	1869.80
697.76	1701.86
697.95	1759.21
698.13	1685.48
698.32	1685.48
698.50	1734.63
698.68	1765.35
698.87	1712.10
699.05	1740.77
699.24	1748.97
699.42	1699.81
699.61	1714.15
699.79	1720.29
699.97	1705.96
700.16	1710.05
700.34	1638.38
700.53	1744.87
700.71	1822.69
700.89	1703.91
701.08	1708.01
701.26	1751.01
701.45	2117.60
701.63	1691.62
701.81	1740.77
702.00	1667.05
702.18	1660.90
702.37	1675.24
702.55	1734.63
702.73	1695.72
702.92	1660.90
703.10	1761.25
703.28	1740.77
703.47	1613.80
703.65	1822.69
703.84	1822.69
704.02	1693.67
704.20	1787.88
704.39	1681.38
704.57	1716.20
704.75	1773.54
704.94	1773.54
705.12	1822.69
705.30	1708.01
705.49	2277.34
705.67	4464.57
705.86	9379.70
706.04	12418.88
706.22	14257.96
706.41	15005.47
706.59	13778.73
706.77	9387.89
706.96	7210.90
707.14	6592.41
707.32	6027.17
707.51	5568.43
707.69	4822.97
707.87	4286.40
708.06	3502.03
708.24	2887.64
708.42	2422.75
708.61	2273.25
708.79	1867.75
708.97	1810.40
709.16	1837.03
709.34	1738.73
709.52	1769.44
709.71	1794.02
709.89	1757.16
710.07	1751.01
710.26	1691.62
710.44	1779.68
710.62	1789.92
710.80	1771.49
710.99	1810.40
711.17	1771.49
711.35	1689.57
711.54	1710.05
711.72	1691.62
711.90	1771.49
712.09	1632.23
712.27	1689.57
712.45	1746.92
712.63	1665.00
712.82	1697.77
713.00	1755.11
713.18	1767.40
713.37	1708.01
713.55	1763.30
713.73	1677.29
713.91	1773.54
714.10	1658.85
714.28	1687.53
714.46	1738.73
714.65	1691.62
714.83	1675.24
715.01	1757.16
715.19	1642.47
715.38	1710.05
715.56	1800.16
715.74	1703.91
715.92	1716.20
716.11	1873.89
716.29	1617.90
716.47	1697.77
716.65	1673.19
716.84	1697.77
717.02	1771.49
717.20	1634.28
717.38	1689.57
717.57	1710.05
717.75	1705.96
717.93	1730.53
718.11	1812.45
718.30	1671.14
718.48	1806.31
718.66	1787.88
718.84	1787.88
719.03	1689.57
719.21	1679.33
719.39	1794.02
719.57	1771.49
719.75	1826.79
719.94	1693.67
720.12	1630.18
720.30	1751.01
720.48	1802.21
720.67	1695.72
720.85	1693.67
721.03	1621.99
721.21	1689.57
721.39	1767.40
721.58	1779.68
721.76	1769.44
721.94	1781.73
722.12	1728.49
722.30	1812.45
722.49	1701.86
722.67	1726.44
722.85	1740.77
723.03	1646.57
723.21	1667.05
723.40	1726.44
723.58	1771.49
723.76	1722.34
723.94	1779.68
724.12	1626.09
724.30	1853.41
724.49	1787.88
724.67	1667.05
724.85	1781.73
725.03	1646.57
725.21	1781.73
725.40	1798.12
725.58	1701.86
725.76	1787.88
725.94	1779.68
726.12	1650.66
726.30	1712.10
726.49	1718.25
726.67	1722.34
726.85	1718.25
727.03	1769.44
727.21	2303.96
727.39	3037.14
727.57	3792.84
727.76	4233.15
727.94	4509.63
728.12	4396.99
728.30	3749.83
728.48	2922.45
728.66	2791.38
728.84	2504.67
729.03	2342.88
729.21	2052.06
729.39	1988.58
729.57	1886.18
729.75	1808.36
729.93	1859.56
730.11	1767.40
730.30	1722.34
730.48	1722.34
730.66	1822.69
730.84	1759.21
731.02	1769.44
731.20	1703.91
731.38	1722.34
731.56	1628.14
731.74	1718.25
731.93	1640.42
732.11	1705.96
732.29	1742.82
732.47	1667.05
732.65	1822.69
732.83	1738.73
733.01	1730.53
733.19	1654.76
733.37	1753.06
733.56	1767.40
733.74	1615.85
733.92	1808.36
734.10	1699.81
734.28	1863.65
734.46	1687.53
734.64	1689.57
734.82	1710.05
735.00	1673.19
735.18	1685.48
735.36	1802.21
735.54	1636.33
735.73	1642.47
735.91	1705.96
736.09	1796.07
736.27	1673.19
736.45	1763.30
736.63	1665.00
736.81	1640.42
736.99	1740.77
737.17	1816.55
737.35	1689.57
737.53	1681.38
737.71	1773.54
737.89	1804.26
738.07	1728.49
738.25	1671.14
738.43	1669.09
738.61	1640.42
738.80	1609.70
738.98	1652.71
739.16	1716.20
739.34	1624.04
739.52	1822.69
739.70	1689.57
739.88	1705.96
740.06	1785.83
740.24	1636.33
740.42	1777.64
740.60	1665.00
740.78	1763.30
740.96	1646.57
741.14	1687.53
741.32	1746.92
741.50	1642.47
741.68	1824.74
741.86	1808.36
742.04	1621.99
742.22	1708.01
742.40	1789.92
742.58	1753.06
742.76	1648.61
742.94	1791.97
743.12	1685.48
743.30	1718.25
743.48	1804.26
743.66	1679.33
743.84	1773.54
744.02	1763.30
744.20	1740.77
744.38	1671.14
744.56	1677.29
744.74	1826.79
744.92	1816.55
745.10	1742.82
745.28	1783.78
745.46	1853.41
745.64	1697.77
745.82	1746.92
746.00	1642.47
746.18	1726.44
746.36	1609.70
746.54	1753.06
746.72	1683.43
746.90	1671.14
747.08	1794.02
747.26	1650.66
747.44	1783.78
747.62	1701.86
747.80	1742.82
747.98	1728.49
748.15	1679.33
748.33	1812.45
748.51	1697.77
748.69	1744.87
748.87	1650.66
749.05	1665.00
749.23	1689.57
749.41	1716.20
749.59	1744.87
749.77	1744.87
749.95	1689.57
750.13	1705.96
750.31	1759.21
750.49	1722.34
750.67	1738.73
750.85	1789.92
751.03	1767.40
751.20	1755.11
751.38	1722.34
751.56	1697.77
751.74	1681.38
751.92	1732.58
752.10	1628.14
752.28	1855.46
752.46	1675.24
752.64	1722.34
752.82	1673.19
753.00	1781.73
753.18	1636.33
753.35	1595.37
753.53	1757.16
753.71	1703.91
753.89	1761.25
754.07	1734.63
754.25	1863.65
754.43	1798.12
754.61	1662.95
754.79	1699.81
754.97	1712.10
755.14	1720.29
755.32	1667.05
755.50	1759.21
755.68	1724.39
755.86	1626.09
756.04	1689.57
756.22	1599.46
756.40	1728.49
756.57	1908.71
756.75	1689.57
756.93	1800.16
757.11	1802.21
757.29	1687.53
757.47	1683.43
757.65	1689.57
757.82	1597.42
758.00	1638.38
758.18	1751.01
758.36	1699.81
758.54	1812.45
758.72	1599.46
758.90	1789.92
759.07	1755.11
759.25	1675.24
759.43	1748.97
759.61	1626.09
759.79	2228.19
759.97	1779.68
760.15	1693.67
760.32	1714.15
760.50	1679.33
760.68	1880.04
760.86	1665.00
761.04	1796.07
761.22	1802.21
761.39	1691.62
761.57	1665.00
761.75	1757.16
761.93	1773.54
762.11	1665.00
762.28	1710.05
762.46	1671.14
762.64	1796.07
762.82	1628.14
763.00	1673.19
763.18	1785.83
763.35	1630.18
763.53	1732.58
763.71	1642.47
763.89	1652.71
764.07	1714.15
764.24	1689.57
764.42	1708.01
764.60	1615.85
764.78	1644.52
764.96	1730.53
765.13	1761.25
765.31	1695.72
765.49	1710.05
765.67	1636.33
765.84	1654.76
766.02	1665.00
766.20	1599.46
766.38	1660.90
766.56	1742.82
766.73	1773.54
766.91	1767.40
767.09	1718.25
767.27	1757.16
767.44	1675.24
767.62	1765.35
767.80	1730.53
767.98	1732.58
768.15	1697.77
768.33	1730.53
768.51	1832.93
768.69	1751.01
768.87	1806.31
769.04	1689.57
769.22	1861.60
769.40	1814.50
769.58	1853.41
769.75	1800.16
769.93	1703.91
770.11	1710.05
770.28	1710.05
770.46	1718.25
770.64	1763.30
770.82	1679.33
770.99	1726.44
771.17	1802.21
771.35	1619.94
771.53	1726.44
771.70	1800.16
771.88	1697.77
772.06	1732.58
772.23	1691.62
772.41	1746.92
772.59	1640.42
772.77	1732.58
772.94	1773.54
773.12	1681.38
773.30	1767.40
773.47	1718.25
773.65	1703.91
773.83	1757.16
774.01	1591.27
774.18	1607.66
774.36	1701.86
774.54	1677.29
774.71	1675.24
774.89	1648.61
775.07	1656.81
775.24	1699.81
775.42	1689.57
775.60	1761.25
775.78	1660.90
775.95	1648.61
776.13	1720.29
776.31	1609.70
776.48	1794.02
776.66	1714.15
776.84	1703.91
777.01	1648.61
777.19	1603.56
777.37	1624.04
777.54	1759.21
777.72	1783.78
777.90	1734.63
778.07	1703.91
778.25	1873.89
778.43	1804.26
778.60	1669.09
778.78	1730.53
778.96	1802.21
779.13	1705.96
779.31	1671.14
779.49	1650.66
779.66	1679.33
779.84	1740.77
780.01	1730.53
780.19	1712.10
780.37	1748.97
780.54	1742.82
780.72	1669.09
780.90	1708.01
781.07	1654.76
781.25	1630.18
781.43	1714.15
781.60	1759.21
781.78	1697.77
781.95	1691.62
782.13	1652.71
782.31	1771.49
782.48	1632.23
782.66	1701.86
782.83	1812.45
783.01	1757.16
783.19	1765.35
783.36	1644.52
783.54	1609.70
783.72	1804.26
783.89	1677.29
784.07	1646.57
784.24	1736.68
784.42	1841.12
784.60	1802.21
784.77	1744.87
784.95	1654.76
785.12	1656.81
785.30	1716.20
785.47	1689.57
785.65	1605.61
785.83	1718.25
786.00	1650.66
786.18	1669.09
786.35	1656.81
786.53	1650.66
786.71	1751.01
786.88	1751.01
787.06	1718.25
787.23	1732.58
787.41	1742.82
787.58	1728.49
787.76	1687.53
787.94	1785.83
788.11	1796.07
788.29	1669.09
788.46	1683.43
788.64	1654.76
788.81	1679.33
788.99	1669.09
789.16	1658.85
789.34	1751.01
789.52	1705.96
789.69	1708.01
789.87	1615.85
790.04	1671.14
790.22	1771.49
790.39	1863.65
790.57	1703.91
790.74	1673.19
790.92	1703.91
791.09	1677.29
791.27	1730.53
791.44	1804.26
791.62	1705.96
791.79	1794.02
791.97	1683.43
792.15	1849.32
792.32	1734.63
792.50	1779.68
792.67	1822.69
792.85	1800.16
793.02	1697.77
793.20	1744.87
793.37	1591.27
793.55	1722.34
793.72	1681.38
793.90	1728.49
794.07	1652.71
794.25	1685.48
794.42	1837.03
794.60	1679.33
794.77	1689.57
794.95	1814.50
795.12	1812.45
795.30	1708.01
795.47	1525.74
795.65	1886.18
795.82	1736.68
796.00	1697.77
796.17	1724.39
796.34	1658.85
796.52	1660.90
796.69	1761.25
796.87	1746.92
797.04	1714.15
797.22	1652.71
797.39	1748.97
797.57	1779.68
797.74	1689.57
797.92	1710.05
798.09	1691.62
798.27	1763.30
798.44	1689.57
798.62	1656.81
798.79	1724.39
798.96	1691.62
799.14	1677.29
799.31	1851.36
799.49	1710.05
799.66	1744.87
799.84	1720.29
800.01	1687.53
800.19	1720.29
800.36	1658.85
800.53	1722.34
800.71	1730.53
800.88	1845.22
801.06	1687.53
801.23	1677.29
801.41	1646.57
801.58	1683.43
801.75	1650.66
801.93	1738.73
802.10	1728.49
802.28	1755.11
802.45	1775.59
802.63	1748.97
802.80	1849.32
802.97	1705.96
803.15	1710.05
803.32	1744.87
803.50	1763.30
803.67	1660.90
803.84	1611.75
804.02	1568.74
804.19	1624.04
804.37	1646.57
804.54	1595.37
804.71	1708.01
804.89	1693.67
805.06	1671.14
805.24	1607.66
805.41	1724.39
805.58	1695.72
805.76	1806.31
805.93	1789.92
806.10	1746.92
806.28	1738.73
806.45	1662.95
806.63	1785.83
806.80	1773.54
806.97	1697.77
807.15	1718.25
807.32	1742.82
807.49	1746.92
807.67	1693.67
807.84	1767.40
808.01	1665.00
808.19	1875.94
808.36	1822.69
808.54	1660.90
808.71	1689.57
808.88	1673.19
809.06	1673.19
809.23	1802.21
809.40	1712.10
809.58	1820.64
809.75	1689.57
809.92	1695.72
810.10	1841.12
810.27	1683.43
810.44	1730.53
810.62	1785.83
810.79	1697.77
810.96	1708.01
811.14	1722.34
811.31	1697.77
811.48	1703.91
811.66	1681.38
811.83	1677.29
812.00	1759.21
812.18	1724.39
812.35	1824.74
812.52	1650.66
812.69	1687.53
812.87	1697.77
813.04	1617.90
813.21	1699.81
813.39	1660.90
813.56	1624.04
813.73	1800.16
813.91	1705.96
814.08	1705.96
814.25	1689.57
814.42	1607.66
814.60	1722.34
814.77	1701.86
814.94	1761.25
815.12	1759.21
815.29	1871.84
815.46	1621.99
815.63	1701.86
815.81	1681.38
815.98	1689.57
816.15	1697.77
816.33	1816.55
816.50	1734.63
816.67	1677.29
816.84	1779.68
817.02	1607.66
817.19	1695.72
817.36	1691.62
817.53	1734.63
817.71	1746.92
817.88	1824.74
818.05	1699.81
818.22	1701.86
818.40	1841.12
818.57	1654.76
818.74	1683.43
818.91	1683.43
819.09	1771.49
819.26	1748.97
819.43	1662.95
819.60	1681.38
819.78	1730.53
819.95	1773.54
820.12	1658.85
820.29	1783.78
820.47	1746.92
820.64	1671.14
820.81	1634.28
820.98	1638.38
821.15	1796.07
821.33	1755.11
821.50	1617.90
821.67	1722.34
821.84	1726.44
822.02	1736.68
822.19	1796.07
822.36	1708.01
822.53	1740.77
822.70	1650.66
822.88	1652.71
823.05	1822.69
823.22	1681.38
823.39	1789.92
823.56	1705.96
823.74	1875.94
823.91	1634.28
824.08	1654.76
824.25	1681.38
824.42	1734.63
824.60	1630.18
824.77	1710.05
824.94	1665.00
825.11	1730.53
825.28	1730.53
825.45	1720.29
825.63	1746.92
825.80	1669.09
825.97	1746.92
826.14	1685.48
826.31	1738.73
826.48	1796.07
826.66	1714.15
826.83	1705.96
827.00	1701.86
827.17	1638.38
827.34	1740.77
827.51	1638.38
827.69	1794.02
827.86	1650.66
828.03	1736.68
828.20	1665.00
828.37	1697.77
828.54	1804.26
828.71	1669.09
828.89	1771.49
829.06	1742.82
829.23	1753.06
829.40	1699.81
829.57	1685.48
829.74	1687.53
829.91	1632.23
830.09	1650.66
830.26	1791.97
830.43	1718.25
830.60	1710.05
830.77	1761.25
830.94	1798.12
831.11	1769.44
831.28	1691.62
831.46	1775.59
831.63	1648.61
831.80	1703.91
831.97	1689.57
832.14	1660.90
832.31	1789.92
832.48	1701.86
832.65	1798.12
832.82	1755.11
832.99	1751.01
833.17	1576.94
833.34	1843.17
833.51	1767.40
833.68	1689.57
833.85	1710.05
834.02	1693.67
834.19	1697.77
834.36	1710.05
834.53	1726.44
834.70	1724.39
834.87	1781.73
835.04	1734.63
835.22	1708.01
835.39	1660.90
835.56	1621.99
835.73	1691.62
835.90	1712.10
836.07	1699.81
836.24	1804.26
836.41	1722.34
836.58	1650.66
836.75	1759.21
836.92	1681.38
837.09	1763.30
837.26	1652.71
837.43	1751.01
837.60	1669.09
837.77	1695.72
837.94	1763.30
838.12	1701.86
838.29	1681.38
838.46	1609.70
838.63	1699.81
838.80	1746.92
838.97	1738.73
839.14	1697.77
839.31	1710.05
839.48	1673.19
839.65	1761.25
839.82	1732.58
839.99	1763.30
840.16	1624.04
840.33	1685.48
840.50	1734.63
840.67	1691.62
840.84	1619.94
841.01	1759.21
841.18	1697.77
841.35	1697.77
841.52	1708.01
841.69	1841.12
841.86	1660.90
842.03	1787.88
842.20	1701.86
842.37	1759.21
842.54	1609.70
842.71	1687.53
842.88	1736.68
843.05	1781.73
843.22	1693.67
843.39	1789.92
843.56	1691.62
843.73	1748.97
843.90	1726.44
844.07	1722.34
844.24	1837.03
844.41	1720.29
844.58	1751.01
844.75	1728.49
844.92	1734.63
845.09	1677.29
845.26	1677.29
845.43	1798.12
845.60	1734.63
845.77	1787.88
845.94	1757.16
846.10	1830.88
846.27	1648.61
846.44	1642.47
846.61	1662.95
846.78	1689.57
846.95	1746.92
847.12	1691.62
847.29	1679.33
847.46	1773.54
847.63	1794.02
847.80	1691.62
847.97	1689.57
848.14	1828.84
848.31	1695.72
848.48	1650.66
848.65	1734.63
848.82	1650.66
848.98	1832.93
849.15	1791.97
849.32	1740.77
849.49	1746.92
849.66	1722.34
849.83	1722.34
850.00	1665.00
850.17	1703.91
850.34	1718.25
850.51	1660.90
850.68	1652.71
850.85	1800.16
851.01	1658.85
851.18	1734.63
851.35	1660.90
851.52	1767.40
851.69	1804.26
851.86	1589.22
852.03	1683.43
852.20	1757.16
852.37	1775.59
852.53	1675.24
852.70	1773.54
852.87	1652.71
853.04	1755.11
853.21	1667.05
853.38	1744.87
853.55	1669.09
853.72	1794.02
853.89	1697.77
854.05	1669.09
854.22	1669.09
854.39	1705.96
854.56	1708.01
854.73	1849.32
854.90	1601.51
855.07	1712.10
855.23	1652.71
855.40	1763.30
855.57	1720.29
855.74	1720.29
855.91	1900.52
856.08	1611.75
856.25	1572.84
856.41	1718.25
856.58	1630.18
856.75	1740.77
856.92	1632.23
857.09	1789.92
857.26	1642.47
857.42	1701.86
857.59	1761.25
857.76	1695.72
857.93	1669.09
858.10	1613.80
858.27	1636.33
858.43	1701.86
858.60	1675.24
858.77	1646.57
858.94	1636.33
859.11	1783.78
859.27	1726.44
859.44	1763.30
859.61	1822.69
859.78	1695.72
859.95	1699.81
860.12	1628.14
860.28	1859.56
860.45	1888.23
860.62	1654.76
860.79	1705.96
860.95	1761.25
861.12	1718.25
861.29	1701.86
861.46	1691.62
861.63	1701.86
861.79	1689.57
861.96	1734.63
862.13	1722.34
862.30	1716.20
862.47	1621.99
862.63	1597.42
862.80	1751.01
862.97	1794.02
863.14	1783.78
863.30	1726.44
863.47	1656.81
863.64	1779.68
863.81	1734.63
863.97	1720.29
864.14	1724.39
864.31	1691.62
864.48	1757.16
864.65	1714.15
864.81	1804.26
864.98	1748.97
865.15	1783.78
865.32	1710.05
865.48	1755.11
865.65	1769.44
865.82	1693.67
865.98	1712.10
866.15	1806.31
866.32	1646.57
866.49	1705.96
866.65	1791.97
866.82	1761.25
866.99	1742.82
867.16	1662.95
867.32	1712.10
867.49	1685.48
867.66	1660.90
867.83	1648.61
867.99	1648.61
868.16	1665.00
868.33	1626.09
868.49	1759.21
868.66	1638.38
868.83	1787.88
868.99	1705.96
869.16	1679.33
869.33	1691.62
869.50	1748.97
869.66	1665.00
869.83	1667.05
870.00	1660.90
870.16	1699.81
870.33	1740.77
870.50	1771.49
870.66	1701.86
870.83	1880.04
871.00	1599.46
871.17	1771.49
871.33	1734.63
871.50	1687.53
871.67	1722.34
871.83	1722.34
872.00	1818.60
872.17	1671.14
872.33	1746.92
872.50	1714.15
872.67	1708.01
872.83	1679.33
873.00	1751.01
873.17	1712.10
873.33	1751.01
873.50	1705.96
873.67	1683.43
873.83	1687.53
874.00	1687.53
874.16	1779.68
874.33	1724.39
874.50	1626.09
874.66	1746.92
874.83	1685.48
875.00	1806.31
875.16	1812.45
875.33	1753.06
875.50	1583.08
875.66	1632.23
875.83	1705.96
875.99	1755.11
876.16	1765.35
876.33	1636.33
876.49	1755.11
876.66	1736.68
876.83	1722.34
876.99	1650.66
877.16	1650.66
877.32	1699.81
877.49	1673.19
877.66	1746.92
877.82	1734.63
877.99	1716.20
878.15	1691.62
878.32	1669.09
878.49	1691.62
878.65	1654.76
878.82	1796.07
878.98	1705.96
879.15	1718.25
879.32	1847.27
879.48	1722.34
879.65	1742.82
879.81	1759.21
879.98	1751.01
880.15	1691.62
880.31	1693.67
880.48	1730.53
880.64	1779.68
880.81	1697.77
880.97	1834.98
881.14	1757.16
881.31	1662.95
881.47	1804.26
881.64	1744.87
881.80	1710.05
881.97	1748.97
882.13	1722.34
882.30	1728.49
882.47	1701.86
882.63	1669.09
882.80	1722.34
882.96	1748.97
883.13	1779.68
883.29	1718.25
883.46	1746.92
883.62	1826.79
883.79	1785.83
883.95	1732.58
884.12	1738.73
884.29	1808.36
884.45	1755.11
884.62	1734.63
884.78	1628.14
884.95	1794.02
885.11	1656.81
885.28	1759.21
885.44	1628.14
885.61	1705.96
885.77	1718.25
885.94	1658.85
886.10	1751.01
886.27	1716.20
886.43	1740.77
886.60	1718.25
886.76	1632.23
886.93	1710.05
887.09	1703.91
887.26	1669.09
887.42	1771.49
887.59	1714.15
887.75	1912.80
887.92	1791.97
888.08	1779.68
888.25	1783.78
888.41	1726.44
888.58	1791.97
888.74	1681.38
888.91	1701.86
>>>>>End Processed Spectral Data<<<<<
