SpectraSuite Data File
++++++++++++++++++++++++++++++++++++
Date: Mon Jun 06 17:23:37 CEST 2016
User: root
Dark Spectrum Present: No
Reference Spectrum Present: No
Number of Sampled Component Spectra: 1
Spectrometers: USB4C02835
Integration Time (usec): 100000 (USB4C02835)
Spectra Averaged: 1 (USB4C02835)
Boxcar Smoothing: 0 (USB4C02835)
Correct for Electrical Dark: No (USB4C02835)
Strobe/Lamp Enabled: No (USB4C02835)
Correct for Detector Non-linearity: No (USB4C02835)
Correct for Stray Light: No (USB4C02835)
Number of Pixels in Processed Spectrum: 3648
>>>>>Begin Processed Spectral Data<<<<<
177.47	1445.87
177.69	1445.87
177.91	1445.87
178.13	1488.87
178.36	1484.78
178.58	1667.05
178.80	1714.15
179.02	1638.38
179.24	1736.68
179.46	1656.81
179.68	1751.01
179.90	1746.92
180.13	1732.58
180.35	1628.14
180.57	1730.53
180.79	1769.44
181.01	1642.47
181.23	1769.44
181.45	1687.53
181.67	1732.58
181.90	1757.16
182.12	1681.38
182.34	1683.43
182.56	1757.16
182.78	1714.15
183.00	1644.52
183.22	1771.49
183.44	1595.37
183.66	1849.32
183.89	1785.83
184.11	1804.26
184.33	1693.67
184.55	1732.58
184.77	1800.16
184.99	1708.01
185.21	1691.62
185.43	1863.65
185.65	1689.57
185.87	1746.92
186.10	1927.14
186.32	1880.04
186.54	1681.38
186.76	1736.68
186.98	1765.35
187.20	1708.01
187.42	1660.90
187.64	1697.77
187.86	1716.20
188.08	1705.96
188.30	1691.62
188.52	1701.86
188.75	1761.25
188.97	1796.07
189.19	1677.29
189.41	1736.68
189.63	1742.82
189.85	1738.73
190.07	1662.95
190.29	1621.99
190.51	1771.49
190.73	1656.81
190.95	1751.01
191.17	1716.20
191.39	1607.66
191.61	1689.57
191.84	1703.91
192.06	1695.72
192.28	1667.05
192.50	1957.86
192.72	1791.97
192.94	1652.71
193.16	1732.58
193.38	1638.38
193.60	1654.76
193.82	1687.53
194.04	1787.88
194.26	1714.15
194.48	1691.62
194.70	1660.90
194.92	1708.01
195.14	1673.19
195.36	1648.61
195.58	1746.92
195.80	1720.29
196.02	1624.04
196.24	1699.81
196.46	1738.73
196.69	1665.00
196.91	1781.73
197.13	1667.05
197.35	1609.70
197.57	1812.45
197.79	1730.53
198.01	1771.49
198.23	1791.97
198.45	1787.88
198.67	1681.38
198.89	1777.64
199.11	1765.35
199.33	1697.77
199.55	1581.03
199.77	1748.97
199.99	1742.82
200.21	1712.10
200.43	1662.95
200.65	1671.14
200.87	1640.42
201.09	1718.25
201.31	1761.25
201.53	1699.81
201.75	1689.57
201.97	1748.97
202.19	1710.05
202.41	1738.73
202.63	1871.84
202.85	1734.63
203.07	1771.49
203.29	1726.44
203.51	1687.53
203.73	1601.51
203.95	1873.89
204.17	1796.07
204.39	1734.63
204.61	1683.43
204.83	1716.20
205.05	1818.60
205.27	1804.26
205.49	1845.22
205.71	1738.73
205.93	1654.76
206.15	1677.29
206.37	1677.29
206.59	1705.96
206.81	1640.42
207.03	1595.37
207.25	1591.27
207.47	1740.77
207.69	1685.48
207.91	1736.68
208.13	1800.16
208.34	1624.04
208.56	1708.01
208.78	1742.82
209.00	1673.19
209.22	1679.33
209.44	1697.77
209.66	1716.20
209.88	1765.35
210.10	1699.81
210.32	1732.58
210.54	1832.93
210.76	1705.96
210.98	1755.11
211.20	1583.08
211.42	1695.72
211.64	1871.84
211.86	1716.20
212.08	1740.77
212.30	1761.25
212.52	1671.14
212.74	1787.88
212.96	1732.58
213.17	1738.73
213.39	1763.30
213.61	1890.28
213.83	1714.15
214.05	1626.09
214.27	1755.11
214.49	1628.14
214.71	1640.42
214.93	1849.32
215.15	1697.77
215.37	1820.64
215.59	1658.85
215.81	1757.16
216.03	1806.31
216.24	1763.30
216.46	1624.04
216.68	1665.00
216.90	1843.17
217.12	1755.11
217.34	1718.25
217.56	1742.82
217.78	1769.44
218.00	1755.11
218.22	1718.25
218.44	1730.53
218.66	1669.09
218.87	1822.69
219.09	1652.71
219.31	1763.30
219.53	1691.62
219.75	1665.00
219.97	1740.77
220.19	1714.15
220.41	1724.39
220.63	1849.32
220.85	1751.01
221.06	1734.63
221.28	1773.54
221.50	1648.61
221.72	1675.24
221.94	1673.19
222.16	1648.61
222.38	1779.68
222.60	1763.30
222.82	1667.05
223.03	1759.21
223.25	1679.33
223.47	1738.73
223.69	1865.70
223.91	1740.77
224.13	1708.01
224.35	1662.95
224.57	1736.68
224.78	1726.44
225.00	1687.53
225.22	1667.05
225.44	1708.01
225.66	1714.15
225.88	1746.92
226.10	1761.25
226.32	1730.53
226.53	1839.08
226.75	1648.61
226.97	1712.10
227.19	1652.71
227.41	1583.08
227.63	1697.77
227.85	1611.75
228.06	1761.25
228.28	1771.49
228.50	1722.34
228.72	1660.90
228.94	1683.43
229.16	1591.27
229.37	1667.05
229.59	1611.75
229.81	1791.97
230.03	1701.86
230.25	1634.28
230.47	1644.52
230.69	1671.14
230.90	1716.20
231.12	1679.33
231.34	1769.44
231.56	1791.97
231.78	1644.52
232.00	1677.29
232.21	1830.88
232.43	1730.53
232.65	1609.70
232.87	1816.55
233.09	1650.66
233.30	1650.66
233.52	1742.82
233.74	1714.15
233.96	1613.80
234.18	1748.97
234.40	1667.05
234.61	1871.84
234.83	1667.05
235.05	1591.27
235.27	1812.45
235.49	1785.83
235.70	1736.68
235.92	1822.69
236.14	1699.81
236.36	1824.74
236.58	1671.14
236.79	1697.77
237.01	1669.09
237.23	1669.09
237.45	1787.88
237.67	1613.80
237.88	1714.15
238.10	1781.73
238.32	1630.18
238.54	1710.05
238.76	1718.25
238.97	1628.14
239.19	1685.48
239.41	1744.87
239.63	1884.13
239.85	1697.77
240.06	1718.25
240.28	1685.48
240.50	1755.11
240.72	1714.15
240.93	1728.49
241.15	1812.45
241.37	1689.57
241.59	1814.50
241.81	1660.90
242.02	1705.96
242.24	1753.06
242.46	1773.54
242.68	1708.01
242.89	1722.34
243.11	1724.39
243.33	1742.82
243.55	1705.96
243.76	1746.92
243.98	1654.76
244.20	1785.83
244.42	1746.92
244.64	1632.23
244.85	1660.90
245.07	1671.14
245.29	1732.58
245.51	1658.85
245.72	1738.73
245.94	1759.21
246.16	1777.64
246.38	1802.21
246.59	1685.48
246.81	1646.57
247.03	1644.52
247.24	1687.53
247.46	1665.00
247.68	1691.62
247.90	1626.09
248.11	1695.72
248.33	1763.30
248.55	1703.91
248.77	1775.59
248.98	1769.44
249.20	1728.49
249.42	1652.71
249.64	1791.97
249.85	1710.05
250.07	1693.67
250.29	1769.44
250.50	1697.77
250.72	1660.90
250.94	1701.86
251.16	1914.85
251.37	1820.64
251.59	1765.35
251.81	1720.29
252.02	1804.26
252.24	1730.53
252.46	1783.78
252.68	1699.81
252.89	1691.62
253.11	1640.42
253.33	1845.22
253.54	1742.82
253.76	1632.23
253.98	1697.77
254.20	1675.24
254.41	1646.57
254.63	1671.14
254.85	1679.33
255.06	1681.38
255.28	1773.54
255.50	1730.53
255.71	1662.95
255.93	1591.27
256.15	1667.05
256.36	1822.69
256.58	1669.09
256.80	1822.69
257.02	1695.72
257.23	1626.09
257.45	1738.73
257.67	1757.16
257.88	1611.75
258.10	1718.25
258.32	1771.49
258.53	1732.58
258.75	1763.30
258.97	1642.47
259.18	1718.25
259.40	1759.21
259.62	1818.60
259.83	1791.97
260.05	1830.88
260.27	1990.63
260.48	1746.92
260.70	1665.00
260.92	1734.63
261.13	1759.21
261.35	1671.14
261.57	1738.73
261.78	1630.18
262.00	1615.85
262.22	1705.96
262.43	1683.43
262.65	1744.87
262.86	1769.44
263.08	1859.56
263.30	1728.49
263.51	1566.70
263.73	1685.48
263.95	1783.78
264.16	1576.94
264.38	1669.09
264.60	1746.92
264.81	1681.38
265.03	1744.87
265.25	1753.06
265.46	1765.35
265.68	1796.07
265.89	1769.44
266.11	1630.18
266.33	1841.12
266.54	1816.55
266.76	1751.01
266.98	1744.87
267.19	1806.31
267.41	1779.68
267.62	1714.15
267.84	1705.96
268.06	1742.82
268.27	1701.86
268.49	1761.25
268.70	1796.07
268.92	1779.68
269.14	1675.24
269.35	1667.05
269.57	1673.19
269.79	1703.91
270.00	1683.43
270.22	1845.22
270.43	1615.85
270.65	1615.85
270.87	1748.97
271.08	1720.29
271.30	1791.97
271.51	1730.53
271.73	1685.48
271.95	1783.78
272.16	1691.62
272.38	1806.31
272.59	1665.00
272.81	1716.20
273.02	1757.16
273.24	1675.24
273.46	1751.01
273.67	1587.18
273.89	1638.38
274.10	1658.85
274.32	1783.78
274.54	1660.90
274.75	1660.90
274.97	1695.72
275.18	1755.11
275.40	1748.97
275.61	1701.86
275.83	1775.59
276.05	1642.47
276.26	1738.73
276.48	1794.02
276.69	1583.08
276.91	1656.81
277.12	1761.25
277.34	1742.82
277.55	1746.92
277.77	1683.43
277.99	1708.01
278.20	1718.25
278.42	1712.10
278.63	1636.33
278.85	1662.95
279.06	1615.85
279.28	1804.26
279.49	1806.31
279.71	1769.44
279.93	1699.81
280.14	1689.57
280.36	1753.06
280.57	1763.30
280.79	1744.87
281.00	1689.57
281.22	1662.95
281.43	1775.59
281.65	1669.09
281.86	1683.43
282.08	1701.86
282.29	1910.75
282.51	1652.71
282.73	1628.14
282.94	1648.61
283.16	1746.92
283.37	1781.73
283.59	1746.92
283.80	1724.39
284.02	1644.52
284.23	1695.72
284.45	1781.73
284.66	1662.95
284.88	1718.25
285.09	1755.11
285.31	1757.16
285.52	1781.73
285.74	1681.38
285.95	1753.06
286.17	1808.36
286.38	1791.97
286.60	1695.72
286.81	1671.14
287.03	1689.57
287.24	1660.90
287.46	1761.25
287.67	1748.97
287.89	1865.70
288.10	1626.09
288.32	1720.29
288.53	1841.12
288.75	1734.63
288.96	1724.39
289.18	1646.57
289.39	1699.81
289.61	1757.16
289.82	1865.70
290.04	1865.70
290.25	1630.18
290.47	1667.05
290.68	1728.49
290.90	1730.53
291.11	1691.62
291.33	1771.49
291.54	1640.42
291.76	1710.05
291.97	1705.96
292.18	1740.77
292.40	1652.71
292.61	1652.71
292.83	1837.03
293.04	1714.15
293.26	1679.33
293.47	1705.96
293.69	1658.85
293.90	1771.49
294.12	1787.88
294.33	1658.85
294.55	1802.21
294.76	1798.12
294.97	1861.60
295.19	1812.45
295.40	1681.38
295.62	1677.29
295.83	1820.64
296.05	1667.05
296.26	1798.12
296.48	1669.09
296.69	1714.15
296.90	1683.43
297.12	1724.39
297.33	1714.15
297.55	1808.36
297.76	1681.38
297.98	1718.25
298.19	1736.68
298.41	1708.01
298.62	1759.21
298.83	1697.77
299.05	1732.58
299.26	1642.47
299.48	1687.53
299.69	1660.90
299.90	1712.10
300.12	1626.09
300.33	1761.25
300.55	1660.90
300.76	1759.21
300.98	1628.14
301.19	1751.01
301.40	1675.24
301.62	1656.81
301.83	1728.49
302.05	1759.21
302.26	1759.21
302.47	1755.11
302.69	1636.33
302.90	1830.88
303.12	1589.22
303.33	1761.25
303.54	1785.83
303.76	1636.33
303.97	1685.48
304.19	1773.54
304.40	1662.95
304.61	1708.01
304.83	1814.50
305.04	1814.50
305.26	1757.16
305.47	1621.99
305.68	1755.11
305.90	1681.38
306.11	1738.73
306.33	1765.35
306.54	1740.77
306.75	1624.04
306.97	1591.27
307.18	1693.67
307.39	1691.62
307.61	1748.97
307.82	1693.67
308.04	1738.73
308.25	1683.43
308.46	1705.96
308.68	1689.57
308.89	1763.30
309.10	1748.97
309.32	1742.82
309.53	1755.11
309.74	1781.73
309.96	1724.39
310.17	1837.03
310.39	1714.15
310.60	1726.44
310.81	1712.10
311.03	1658.85
311.24	1701.86
311.45	1722.34
311.67	1826.79
311.88	1722.34
312.09	1656.81
312.31	1667.05
312.52	1667.05
312.73	1773.54
312.95	1550.31
313.16	1652.71
313.37	1814.50
313.59	1658.85
313.80	1644.52
314.01	1861.60
314.23	1695.72
314.44	1710.05
314.65	1687.53
314.87	1695.72
315.08	1656.81
315.29	1669.09
315.51	1642.47
315.72	1599.46
315.93	1755.11
316.15	1802.21
316.36	1652.71
316.57	1773.54
316.79	1763.30
317.00	1624.04
317.21	1748.97
317.43	1705.96
317.64	1742.82
317.85	1665.00
318.07	1673.19
318.28	1687.53
318.49	1796.07
318.70	1937.38
318.92	1873.89
319.13	1900.52
319.34	1890.28
319.56	1808.36
319.77	1820.64
319.98	1783.78
320.20	1853.41
320.41	1738.73
320.62	1726.44
320.83	1738.73
321.05	1845.22
321.26	1816.55
321.47	1779.68
321.69	1755.11
321.90	1656.81
322.11	1675.24
322.32	1724.39
322.54	1767.40
322.75	1710.05
322.96	1857.51
323.18	1628.14
323.39	1587.18
323.60	1693.67
323.81	1722.34
324.03	1669.09
324.24	1734.63
324.45	1708.01
324.66	1644.52
324.88	1798.12
325.09	1824.74
325.30	1650.66
325.52	1757.16
325.73	1718.25
325.94	1632.23
326.15	1609.70
326.37	1665.00
326.58	1777.64
326.79	1816.55
327.00	1656.81
327.22	1753.06
327.43	1632.23
327.64	1599.46
327.85	1716.20
328.07	1667.05
328.28	1869.80
328.49	1626.09
328.70	1755.11
328.92	1791.97
329.13	1734.63
329.34	1738.73
329.55	1820.64
329.76	1812.45
329.98	1701.86
330.19	1740.77
330.40	1722.34
330.61	1730.53
330.83	1802.21
331.04	1681.38
331.25	1742.82
331.46	1654.76
331.68	1693.67
331.89	1834.98
332.10	1689.57
332.31	1691.62
332.52	1697.77
332.74	1771.49
332.95	1701.86
333.16	1738.73
333.37	1738.73
333.58	1675.24
333.80	1744.87
334.01	1621.99
334.22	1732.58
334.43	1669.09
334.64	1671.14
334.86	1650.66
335.07	1693.67
335.28	1728.49
335.49	1673.19
335.70	1705.96
335.92	1757.16
336.13	1882.08
336.34	1720.29
336.55	1718.25
336.76	1691.62
336.98	1636.33
337.19	1699.81
337.40	1794.02
337.61	1845.22
337.82	1734.63
338.04	1791.97
338.25	1603.56
338.46	1712.10
338.67	1673.19
338.88	1699.81
339.09	1617.90
339.31	1660.90
339.52	1683.43
339.73	1714.15
339.94	1781.73
340.15	1669.09
340.36	1679.33
340.58	1714.15
340.79	1667.05
341.00	1763.30
341.21	1585.13
341.42	1841.12
341.63	1726.44
341.85	1753.06
342.06	1710.05
342.27	1636.33
342.48	1740.77
342.69	1679.33
342.90	1755.11
343.12	1822.69
343.33	1679.33
343.54	1773.54
343.75	1806.31
343.96	1744.87
344.17	1724.39
344.38	1642.47
344.60	1642.47
344.81	1671.14
345.02	1703.91
345.23	1726.44
345.44	1808.36
345.65	1787.88
345.86	1714.15
346.07	1656.81
346.29	1665.00
346.50	1779.68
346.71	1771.49
346.92	1888.23
347.13	1914.85
347.34	1648.61
347.55	1691.62
347.76	1769.44
347.98	1595.37
348.19	1753.06
348.40	1746.92
348.61	1726.44
348.82	1818.60
349.03	1753.06
349.24	1697.77
349.45	1845.22
349.66	1519.59
349.88	1744.87
350.09	1691.62
350.30	1753.06
350.51	1812.45
350.72	1701.86
350.93	1771.49
351.14	1636.33
351.35	1751.01
351.56	1738.73
351.77	1716.20
351.99	1744.87
352.20	1771.49
352.41	1771.49
352.62	1619.94
352.83	1695.72
353.04	1697.77
353.25	1665.00
353.46	1761.25
353.67	1824.74
353.88	1691.62
354.09	1761.25
354.30	1734.63
354.52	1726.44
354.73	1730.53
354.94	1675.24
355.15	1769.44
355.36	1855.46
355.57	1712.10
355.78	1753.06
355.99	1732.58
356.20	1570.79
356.41	1804.26
356.62	1769.44
356.83	1736.68
357.04	1830.88
357.25	1603.56
357.46	1697.77
357.68	1591.27
357.89	1628.14
358.10	1720.29
358.31	1648.61
358.52	1701.86
358.73	1581.03
358.94	1632.23
359.15	1734.63
359.36	1738.73
359.57	1660.90
359.78	1701.86
359.99	1751.01
360.20	1673.19
360.41	1658.85
360.62	1720.29
360.83	1705.96
361.04	1656.81
361.25	1726.44
361.46	1818.60
361.67	1820.64
361.88	1746.92
362.09	1769.44
362.30	1722.34
362.51	1624.04
362.72	1783.78
362.93	1761.25
363.14	1785.83
363.35	1732.58
363.56	1615.85
363.78	1734.63
363.99	1746.92
364.20	1673.19
364.41	1699.81
364.62	1716.20
364.83	1658.85
365.04	1748.97
365.25	1691.62
365.46	1851.36
365.67	1669.09
365.88	1568.74
366.09	1693.67
366.30	1636.33
366.51	1716.20
366.72	1615.85
366.93	1816.55
367.14	1705.96
367.35	1757.16
367.56	1722.34
367.77	1751.01
367.98	1677.29
368.18	1687.53
368.39	1773.54
368.60	1685.48
368.81	1785.83
369.02	1767.40
369.23	1654.76
369.44	1497.07
369.65	1740.77
369.86	1710.05
370.07	1781.73
370.28	1646.57
370.49	1800.16
370.70	1705.96
370.91	1681.38
371.12	1642.47
371.33	1763.30
371.54	1673.19
371.75	1828.84
371.96	1660.90
372.17	1710.05
372.38	1634.28
372.59	1738.73
372.80	1701.86
373.01	1691.62
373.22	1736.68
373.43	1695.72
373.64	1613.80
373.85	1783.78
374.06	1781.73
374.26	1726.44
374.47	1710.05
374.68	1769.44
374.89	1718.25
375.10	1755.11
375.31	1796.07
375.52	1718.25
375.73	1802.21
375.94	1691.62
376.15	1822.69
376.36	1638.38
376.57	1705.96
376.78	1673.19
376.99	1736.68
377.20	1767.40
377.40	1755.11
377.61	1746.92
377.82	1685.48
378.03	1767.40
378.24	1759.21
378.45	1718.25
378.66	1738.73
378.87	1656.81
379.08	1587.18
379.29	1746.92
379.50	1705.96
379.71	1701.86
379.91	1763.30
380.12	1656.81
380.33	1746.92
380.54	1644.52
380.75	1697.77
380.96	1701.86
381.17	1794.02
381.38	1732.58
381.59	1769.44
381.80	1644.52
382.00	1861.60
382.21	1775.59
382.42	1894.37
382.63	1894.37
382.84	1812.45
383.05	1765.35
383.26	1771.49
383.47	1730.53
383.68	1703.91
383.88	1785.83
384.09	1697.77
384.30	1806.31
384.51	1746.92
384.72	1693.67
384.93	1597.42
385.14	1722.34
385.35	1814.50
385.55	1687.53
385.76	1759.21
385.97	1710.05
386.18	1656.81
386.39	1683.43
386.60	1714.15
386.81	1675.24
387.02	1683.43
387.22	1685.48
387.43	1798.12
387.64	1808.36
387.85	1894.37
388.06	2222.05
388.27	4304.83
388.48	6782.87
388.68	8365.95
388.89	9480.05
389.10	9846.63
389.31	8824.70
389.52	7563.15
389.73	6588.32
389.93	6217.63
390.14	5965.73
390.35	5126.07
390.56	4685.75
390.77	3794.89
390.98	3059.67
391.18	2625.50
391.39	2127.84
391.60	1873.89
391.81	1824.74
392.02	1824.74
392.23	1896.42
392.43	1800.16
392.64	1816.55
392.85	1697.77
393.06	1830.88
393.27	1705.96
393.47	1740.77
393.68	1767.40
393.89	1710.05
394.10	1806.31
394.31	1716.20
394.52	1636.33
394.72	1783.78
394.93	1773.54
395.14	1621.99
395.35	1738.73
395.56	1755.11
395.76	1751.01
395.97	1843.17
396.18	1841.12
396.39	1853.41
396.60	2047.97
396.80	1941.47
397.01	1816.55
397.22	1779.68
397.43	1824.74
397.64	1798.12
397.84	1779.68
398.05	1888.23
398.26	1771.49
398.47	1798.12
398.67	1773.54
398.88	1703.91
399.09	1777.64
399.30	1681.38
399.51	1800.16
399.71	1746.92
399.92	1734.63
400.13	1767.40
400.34	1712.10
400.54	1714.15
400.75	1730.53
400.96	1701.86
401.17	1822.69
401.37	1738.73
401.58	1773.54
401.79	1812.45
402.00	1902.56
402.21	1978.34
402.41	1861.60
402.62	2025.44
402.83	2000.87
403.04	2033.63
403.24	2179.04
403.45	1880.04
403.66	1939.43
403.87	1920.99
404.07	1898.47
404.28	1818.60
404.49	1839.08
404.70	1773.54
404.90	1751.01
405.11	1767.40
405.32	1755.11
405.52	1759.21
405.73	1654.76
405.94	1703.91
406.15	1705.96
406.35	1740.77
406.56	1783.78
406.77	1671.14
406.98	1693.67
407.18	1679.33
407.39	1767.40
407.60	1724.39
407.80	1785.83
408.01	1771.49
408.22	1791.97
408.43	1644.52
408.63	1738.73
408.84	1769.44
409.05	1763.30
409.25	1701.86
409.46	1708.01
409.67	1677.29
409.88	1757.16
410.08	1722.34
410.29	1748.97
410.50	1763.30
410.70	1771.49
410.91	1644.52
411.12	1714.15
411.32	1726.44
411.53	1669.09
411.74	1818.60
411.95	1761.25
412.15	1689.57
412.36	1806.31
412.57	1767.40
412.77	1830.88
412.98	1724.39
413.19	1759.21
413.39	1693.67
413.60	1812.45
413.81	1794.02
414.01	1689.57
414.22	1742.82
414.43	1771.49
414.63	1720.29
414.84	1771.49
415.05	1732.58
415.25	1683.43
415.46	1794.02
415.67	1677.29
415.87	1789.92
416.08	1720.29
416.29	1671.14
416.49	1802.21
416.70	1742.82
416.91	1660.90
417.11	1714.15
417.32	1755.11
417.53	1730.53
417.73	1742.82
417.94	1718.25
418.15	1691.62
418.35	1740.77
418.56	1660.90
418.77	1828.84
418.97	1650.66
419.18	1748.97
419.38	1648.61
419.59	1662.95
419.80	1796.07
420.00	1744.87
420.21	1742.82
420.42	1839.08
420.62	1779.68
420.83	1673.19
421.04	1730.53
421.24	1703.91
421.45	1746.92
421.65	1728.49
421.86	1656.81
422.07	1652.71
422.27	1683.43
422.48	1669.09
422.69	1726.44
422.89	1730.53
423.10	1783.78
423.30	1675.24
423.51	1736.68
423.72	1677.29
423.92	1748.97
424.13	1636.33
424.33	1748.97
424.54	1708.01
424.75	1695.72
424.95	1791.97
425.16	1755.11
425.36	1701.86
425.57	1837.03
425.78	1779.68
425.98	1804.26
426.19	1689.57
426.39	1648.61
426.60	1771.49
426.81	1857.51
427.01	1765.35
427.22	1691.62
427.42	1607.66
427.63	1697.77
427.83	1695.72
428.04	1820.64
428.25	1877.99
428.45	1812.45
428.66	1814.50
428.86	1806.31
429.07	1773.54
429.28	1714.15
429.48	1746.92
429.69	1726.44
429.89	1718.25
430.10	1599.46
430.30	1789.92
430.51	1718.25
430.71	1632.23
430.92	1732.58
431.13	1693.67
431.33	1753.06
431.54	1759.21
431.74	1718.25
431.95	1851.36
432.15	1697.77
432.36	1730.53
432.56	1757.16
432.77	1759.21
432.98	1849.32
433.18	1730.53
433.39	1699.81
433.59	1665.00
433.80	1783.78
434.00	1853.41
434.21	1714.15
434.41	1611.75
434.62	1929.19
434.82	1671.14
435.03	1599.46
435.23	1734.63
435.44	1726.44
435.64	1722.34
435.85	1757.16
436.06	1771.49
436.26	1820.64
436.47	1695.72
436.67	1734.63
436.88	1761.25
437.08	1767.40
437.29	1791.97
437.49	1757.16
437.70	1814.50
437.90	1751.01
438.11	1816.55
438.31	1906.66
438.52	1882.08
438.72	1832.93
438.93	1935.33
439.13	1708.01
439.34	1841.12
439.54	1732.58
439.75	1871.84
439.95	1771.49
440.16	1705.96
440.36	1830.88
440.57	1843.17
440.77	1763.30
440.98	1644.52
441.18	1742.82
441.39	1705.96
441.59	1722.34
441.80	1890.28
442.00	1751.01
442.21	1796.07
442.41	1767.40
442.62	1781.73
442.82	1714.15
443.02	1841.12
443.23	1855.46
443.43	1701.86
443.64	1714.15
443.84	1691.62
444.05	1794.02
444.25	1712.10
444.46	1687.53
444.66	1794.02
444.87	1853.41
445.07	1632.23
445.28	1728.49
445.48	1759.21
445.69	1769.44
445.89	1806.31
446.09	1816.55
446.30	2086.88
446.50	2729.94
446.71	3760.07
446.91	4257.73
447.12	4773.82
447.32	4935.60
447.53	4538.30
447.73	3903.43
447.93	3655.62
448.14	3280.85
448.34	3225.55
448.55	2955.22
448.75	2885.59
448.96	2701.27
449.16	2445.27
449.36	2267.10
449.57	2068.45
449.77	1918.95
449.98	1822.69
450.18	1867.75
450.39	1787.88
450.59	1839.08
450.79	1677.29
451.00	1705.96
451.20	1783.78
451.41	1734.63
451.61	1730.53
451.81	1757.16
452.02	1673.19
452.22	1740.77
452.43	1748.97
452.63	1746.92
452.84	1699.81
453.04	1677.29
453.24	1787.88
453.45	1734.63
453.65	1763.30
453.86	1828.84
454.06	1726.44
454.26	1730.53
454.47	1689.57
454.67	1839.08
454.87	1787.88
455.08	1718.25
455.28	1785.83
455.49	1753.06
455.69	1734.63
455.89	1882.08
456.10	1804.26
456.30	1660.90
456.51	1738.73
456.71	1699.81
456.91	1779.68
457.12	1757.16
457.32	1773.54
457.52	1724.39
457.73	1808.36
457.93	1828.84
458.14	1687.53
458.34	1644.52
458.54	1695.72
458.75	1679.33
458.95	1787.88
459.15	1787.88
459.36	1726.44
459.56	1742.82
459.76	1851.36
459.97	1804.26
460.17	1730.53
460.37	1787.88
460.58	1716.20
460.78	1830.88
460.99	1714.15
461.19	1773.54
461.39	1677.29
461.60	1761.25
461.80	1699.81
462.00	1728.49
462.21	1728.49
462.41	1673.19
462.61	1722.34
462.82	1667.05
463.02	1761.25
463.22	1734.63
463.43	1787.88
463.63	1785.83
463.83	1767.40
464.04	1763.30
464.24	1740.77
464.44	1681.38
464.64	1753.06
464.85	1802.21
465.05	1828.84
465.25	1763.30
465.46	1712.10
465.66	1763.30
465.86	1771.49
466.07	1794.02
466.27	1712.10
466.47	1667.05
466.68	1679.33
466.88	1802.21
467.08	1751.01
467.29	1675.24
467.49	1738.73
467.69	1689.57
467.89	1720.29
468.10	1697.77
468.30	1814.50
468.50	1763.30
468.71	1804.26
468.91	1662.95
469.11	1873.89
469.31	1669.09
469.52	1705.96
469.72	1843.17
469.92	1863.65
470.13	1740.77
470.33	1697.77
470.53	1832.93
470.73	2107.36
470.94	2402.27
471.14	2351.07
471.34	2605.02
471.54	2355.16
471.75	2224.09
471.95	2185.18
472.15	2047.97
472.36	2193.37
472.56	2158.56
472.76	2045.92
472.96	2070.50
473.17	1888.23
473.37	1918.95
473.57	1806.31
473.77	1865.70
473.98	1775.59
474.18	1667.05
474.38	1955.81
474.58	1691.62
474.79	1675.24
474.99	1773.54
475.19	1693.67
475.39	1675.24
475.60	1755.11
475.80	1808.36
476.00	1687.53
476.20	1683.43
476.41	1834.98
476.61	1861.60
476.81	1794.02
477.01	1705.96
477.21	1886.18
477.42	1724.39
477.62	1662.95
477.82	1804.26
478.02	1681.38
478.23	1740.77
478.43	1705.96
478.63	1619.94
478.83	1738.73
479.03	1722.34
479.24	1830.88
479.44	1865.70
479.64	1681.38
479.84	1632.23
480.04	1710.05
480.25	1771.49
480.45	1736.68
480.65	1679.33
480.85	1824.74
481.06	1714.15
481.26	1736.68
481.46	1736.68
481.66	1679.33
481.86	1763.30
482.06	1808.36
482.27	1701.86
482.47	1705.96
482.67	1755.11
482.87	1779.68
483.07	1730.53
483.28	1648.61
483.48	1660.90
483.68	1716.20
483.88	1654.76
484.08	1619.94
484.29	1699.81
484.49	1703.91
484.69	1673.19
484.89	1783.78
485.09	1767.40
485.29	1832.93
485.50	1726.44
485.70	1681.38
485.90	1800.16
486.10	1736.68
486.30	1751.01
486.50	1796.07
486.71	1736.68
486.91	1787.88
487.11	1710.05
487.31	1648.61
487.51	1751.01
487.71	1697.77
487.91	1740.77
488.12	1697.77
488.32	1607.66
488.52	1697.77
488.72	1644.52
488.92	1685.48
489.12	1814.50
489.32	1787.88
489.53	1783.78
489.73	1628.14
489.93	1853.41
490.13	1660.90
490.33	1642.47
490.53	1730.53
490.73	1822.69
490.94	1619.94
491.14	1816.55
491.34	1847.27
491.54	2113.50
491.74	2584.54
491.94	2899.92
492.14	3098.58
492.34	3055.57
492.54	2834.39
492.75	2521.05
492.95	2441.18
493.15	2326.49
493.35	2340.83
493.55	2189.28
493.75	2140.13
493.95	2154.46
494.15	2052.06
494.35	1902.56
494.56	1877.99
494.76	1832.93
494.96	1812.45
495.16	1886.18
495.36	1742.82
495.56	1720.29
495.76	1755.11
495.96	1767.40
496.16	1673.19
496.36	1830.88
496.56	1751.01
496.77	1796.07
496.97	1722.34
497.17	1791.97
497.37	1671.14
497.57	1769.44
497.77	1630.18
497.97	1724.39
498.17	1701.86
498.37	1814.50
498.57	1785.83
498.77	1697.77
498.97	1869.80
499.17	1908.71
499.38	1677.29
499.58	1716.20
499.78	1824.74
499.98	1775.59
500.18	1763.30
500.38	1712.10
500.58	1957.86
500.78	2426.84
500.98	4511.68
501.18	5912.49
501.38	6791.06
501.58	7079.83
501.78	6762.39
501.98	5547.95
502.18	4874.17
502.38	4384.70
502.58	4159.42
502.78	3753.93
502.98	3692.49
503.18	3358.67
503.38	3225.55
503.59	2740.18
503.79	2719.70
503.99	2506.71
504.19	2275.29
504.39	2263.01
504.59	2183.13
504.79	2242.53
504.99	2062.30
505.19	1955.81
505.39	1839.08
505.59	1925.09
505.79	1898.47
505.99	1857.51
506.19	1789.92
506.39	1939.43
506.59	1736.68
506.79	1771.49
506.99	1787.88
507.19	1783.78
507.39	1812.45
507.59	1726.44
507.79	1648.61
507.99	1681.38
508.19	1703.91
508.39	1673.19
508.59	1652.71
508.79	1806.31
508.99	1925.09
509.19	1736.68
509.39	1806.31
509.59	1767.40
509.79	1769.44
509.99	1761.25
510.19	1779.68
510.39	1773.54
510.59	1736.68
510.79	1714.15
510.99	1679.33
511.19	1728.49
511.39	1814.50
511.59	1787.88
511.79	1710.05
511.99	1820.64
512.19	1890.28
512.38	1695.72
512.58	1689.57
512.78	1714.15
512.98	1791.97
513.18	1701.86
513.38	1712.10
513.58	1712.10
513.78	1732.58
513.98	1738.73
514.18	1724.39
514.38	1722.34
514.58	1804.26
514.78	1757.16
514.98	1677.29
515.18	1691.62
515.38	1667.05
515.58	1869.80
515.78	1777.64
515.98	1746.92
516.18	1798.12
516.38	1839.08
516.57	1773.54
516.77	1722.34
516.97	1830.88
517.17	1685.48
517.37	1636.33
517.57	1814.50
517.77	1689.57
517.97	1683.43
518.17	1746.92
518.37	1724.39
518.57	1703.91
518.77	1714.15
518.97	1716.20
519.16	1744.87
519.36	1728.49
519.56	1708.01
519.76	1757.16
519.96	1769.44
520.16	1875.94
520.36	1697.77
520.56	1822.69
520.76	1662.95
520.96	1761.25
521.16	1839.08
521.35	1761.25
521.55	1718.25
521.75	1781.73
521.95	1685.48
522.15	1767.40
522.35	1685.48
522.55	1695.72
522.75	1773.54
522.95	1626.09
523.14	1763.30
523.34	1787.88
523.54	1740.77
523.74	1843.17
523.94	1808.36
524.14	1669.09
524.34	1849.32
524.54	1751.01
524.73	1789.92
524.93	1789.92
525.13	1789.92
525.33	1660.90
525.53	1855.46
525.73	1771.49
525.93	1746.92
526.13	1693.67
526.32	1595.37
526.52	1841.12
526.72	1771.49
526.92	1812.45
527.12	1751.01
527.32	1650.66
527.52	1824.74
527.71	1787.88
527.91	1755.11
528.11	1724.39
528.31	1705.96
528.51	1699.81
528.71	1798.12
528.90	1738.73
529.10	1767.40
529.30	1851.36
529.50	1624.04
529.70	1769.44
529.90	1699.81
530.09	1736.68
530.29	1624.04
530.49	1708.01
530.69	1832.93
530.89	1763.30
531.09	1794.02
531.28	1802.21
531.48	1734.63
531.68	1714.15
531.88	1804.26
532.08	1775.59
532.28	1716.20
532.47	1710.05
532.67	1800.16
532.87	1796.07
533.07	1624.04
533.27	1800.16
533.46	1728.49
533.66	1746.92
533.86	1703.91
534.06	1685.48
534.26	1785.83
534.45	1714.15
534.65	1759.21
534.85	1775.59
535.05	1724.39
535.25	1804.26
535.44	1667.05
535.64	1718.25
535.84	1703.91
536.04	1769.44
536.24	1761.25
536.43	1742.82
536.63	1783.78
536.83	1767.40
537.03	1746.92
537.22	1638.38
537.42	1554.41
537.62	1718.25
537.82	1679.33
538.02	1814.50
538.21	1816.55
538.41	1851.36
538.61	1697.77
538.81	1779.68
539.00	1886.18
539.20	1665.00
539.40	1730.53
539.60	1800.16
539.79	1865.70
539.99	1781.73
540.19	1679.33
540.39	1748.97
540.58	1802.21
540.78	1837.03
540.98	1787.88
541.18	1787.88
541.37	1730.53
541.57	1769.44
541.77	1781.73
541.97	1716.20
542.16	1667.05
542.36	1724.39
542.56	1724.39
542.76	1906.66
542.95	1728.49
543.15	1810.40
543.35	1810.40
543.54	1691.62
543.74	1783.78
543.94	1800.16
544.14	1673.19
544.33	1728.49
544.53	1759.21
544.73	1720.29
544.93	1746.92
545.12	1796.07
545.32	1730.53
545.52	1697.77
545.71	1732.58
545.91	1687.53
546.11	1783.78
546.30	1685.48
546.50	1767.40
546.70	1740.77
546.90	1746.92
547.09	1695.72
547.29	1738.73
547.49	1746.92
547.68	1779.68
547.88	1716.20
548.08	1783.78
548.27	2226.14
548.47	1722.34
548.67	1701.86
548.87	1757.16
549.06	1718.25
549.26	1761.25
549.46	1703.91
549.65	1759.21
549.85	1796.07
550.05	1722.34
550.24	1665.00
550.44	1751.01
550.64	1767.40
550.83	1820.64
551.03	1808.36
551.23	1802.21
551.42	1751.01
551.62	1746.92
551.82	1736.68
552.01	1691.62
552.21	1841.12
552.41	1708.01
552.60	1845.22
552.80	1718.25
553.00	1701.86
553.19	1742.82
553.39	1828.84
553.59	1693.67
553.78	1845.22
553.98	1705.96
554.17	1673.19
554.37	1714.15
554.57	1781.73
554.76	1718.25
554.96	1617.90
555.16	1783.78
555.35	1701.86
555.55	1740.77
555.75	1730.53
555.94	1816.55
556.14	1628.14
556.33	1767.40
556.53	1656.81
556.73	1703.91
556.92	1785.83
557.12	1845.22
557.32	1826.79
557.51	1910.75
557.71	1724.39
557.90	1869.80
558.10	1849.32
558.30	1742.82
558.49	1748.97
558.69	1734.63
558.88	1730.53
559.08	1820.64
559.28	1837.03
559.47	1732.58
559.67	1812.45
559.86	1904.61
560.06	1773.54
560.26	1759.21
560.45	1816.55
560.65	1824.74
560.84	1859.56
561.04	1671.14
561.24	1804.26
561.43	1621.99
561.63	1839.08
561.82	1705.96
562.02	1744.87
562.22	1802.21
562.41	1734.63
562.61	1728.49
562.80	1638.38
563.00	1896.42
563.19	1800.16
563.39	1742.82
563.59	1798.12
563.78	1728.49
563.98	1650.66
564.17	1703.91
564.37	1697.77
564.56	1746.92
564.76	1642.47
564.96	1748.97
565.15	1759.21
565.35	1804.26
565.54	1708.01
565.74	1837.03
565.93	1802.21
566.13	1751.01
566.32	1751.01
566.52	1779.68
566.71	1724.39
566.91	1916.90
567.11	1724.39
567.30	1708.01
567.50	1787.88
567.69	1744.87
567.89	1775.59
568.08	1767.40
568.28	1789.92
568.47	1738.73
568.67	1746.92
568.86	1730.53
569.06	1785.83
569.25	1726.44
569.45	1822.69
569.64	1699.81
569.84	1716.20
570.04	1757.16
570.23	1730.53
570.43	1800.16
570.62	1787.88
570.82	1855.46
571.01	1701.86
571.21	1757.16
571.40	1644.52
571.60	1765.35
571.79	1748.97
571.99	1812.45
572.18	1671.14
572.38	1769.44
572.57	1757.16
572.77	1714.15
572.96	1931.23
573.16	1810.40
573.35	1765.35
573.55	1830.88
573.74	1775.59
573.94	1687.53
574.13	1789.92
574.33	1771.49
574.52	1875.94
574.71	1775.59
574.91	1771.49
575.10	1726.44
575.30	1763.30
575.49	1665.00
575.69	1726.44
575.88	1781.73
576.08	1820.64
576.27	1812.45
576.47	1746.92
576.66	1779.68
576.86	1834.98
577.05	1767.40
577.25	1812.45
577.44	1832.93
577.64	1791.97
577.83	1816.55
578.02	1785.83
578.22	1894.37
578.41	1837.03
578.61	1787.88
578.80	1730.53
579.00	1761.25
579.19	1814.50
579.39	1818.60
579.58	1820.64
579.77	1708.01
579.97	1781.73
580.16	1763.30
580.36	1783.78
580.55	1806.31
580.75	1779.68
580.94	1830.88
581.13	1880.04
581.33	1900.52
581.52	1740.77
581.72	1886.18
581.91	1804.26
582.11	1730.53
582.30	1804.26
582.49	1781.73
582.69	1890.28
582.88	1857.51
583.08	1822.69
583.27	1773.54
583.47	1789.92
583.66	1728.49
583.85	1708.01
584.05	1796.07
584.24	1837.03
584.44	1796.07
584.63	1738.73
584.82	1834.98
585.02	1808.36
585.21	1871.84
585.41	1775.59
585.60	1884.13
585.79	1888.23
585.99	1869.80
586.18	1894.37
586.37	2166.75
586.57	3438.54
586.76	10045.29
586.96	24495.75
587.15	34317.81
587.34	40410.52
587.54	42220.92
587.73	36679.12
587.93	26435.18
588.12	21358.27
588.31	18263.79
588.51	16125.71
588.70	15406.87
588.89	14200.62
589.09	12617.54
589.28	11093.85
589.47	9451.38
589.67	7954.31
589.86	6358.94
590.06	4933.56
590.25	3788.74
590.44	3196.88
590.64	2578.39
590.83	2244.57
591.02	2172.89
591.22	2062.30
591.41	1912.80
591.60	1875.94
591.80	1998.82
591.99	1726.44
592.18	1796.07
592.38	1763.30
592.57	1773.54
592.76	1777.64
592.96	1816.55
593.15	1798.12
593.34	1834.98
593.54	1794.02
593.73	1804.26
593.92	1755.11
594.12	1755.11
594.31	1832.93
594.50	1775.59
594.70	1816.55
594.89	1923.04
595.08	1730.53
595.28	1767.40
595.47	1894.37
595.66	1751.01
595.86	1689.57
596.05	1748.97
596.24	1763.30
596.43	1861.60
596.63	1785.83
596.82	1867.75
597.01	1761.25
597.21	1810.40
597.40	1775.59
597.59	1798.12
597.79	1712.10
597.98	1800.16
598.17	1775.59
598.36	1787.88
598.56	1751.01
598.75	1722.34
598.94	1810.40
599.14	1785.83
599.33	1779.68
599.52	1736.68
599.71	1728.49
599.91	1787.88
600.10	1777.64
600.29	1730.53
600.48	1777.64
600.68	1767.40
600.87	1734.63
601.06	1738.73
601.26	1785.83
601.45	1787.88
601.64	1744.87
601.83	1863.65
602.03	1744.87
602.22	1726.44
602.41	1849.32
602.60	1927.14
602.80	1818.60
602.99	1814.50
603.18	1751.01
603.37	1724.39
603.57	1699.81
603.76	1849.32
603.95	1742.82
604.14	1781.73
604.34	1665.00
604.53	1738.73
604.72	1751.01
604.91	1806.31
605.10	1730.53
605.30	1677.29
605.49	1869.80
605.68	1769.44
605.87	1830.88
606.07	1689.57
606.26	1789.92
606.45	1767.40
606.64	1789.92
606.84	1701.86
607.03	1720.29
607.22	1763.30
607.41	1701.86
607.60	1677.29
607.80	1763.30
607.99	1710.05
608.18	1726.44
608.37	1738.73
608.56	1708.01
608.76	1843.17
608.95	1869.80
609.14	1806.31
609.33	1810.40
609.52	1808.36
609.72	1808.36
609.91	1787.88
610.10	1818.60
610.29	1787.88
610.48	1691.62
610.68	1791.97
610.87	1718.25
611.06	1775.59
611.25	1712.10
611.44	1818.60
611.63	1775.59
611.83	1814.50
612.02	1705.96
612.21	1796.07
612.40	1642.47
612.59	1689.57
612.79	1646.57
612.98	1755.11
613.17	1785.83
613.36	1791.97
613.55	1816.55
613.74	1689.57
613.93	1708.01
614.13	1738.73
614.32	1701.86
614.51	1812.45
614.70	1687.53
614.89	1730.53
615.08	1751.01
615.28	2058.21
615.47	1615.85
615.66	1796.07
615.85	1732.58
616.04	1886.18
616.23	1761.25
616.42	1716.20
616.62	1732.58
616.81	1828.84
617.00	1714.15
617.19	1718.25
617.38	1726.44
617.57	1724.39
617.76	1714.15
617.95	1761.25
618.15	1777.64
618.34	1777.64
618.53	1679.33
618.72	1880.04
618.91	1775.59
619.10	1828.84
619.29	1744.87
619.48	1724.39
619.68	1728.49
619.87	1724.39
620.06	1544.17
620.25	1771.49
620.44	1710.05
620.63	1742.82
620.82	1710.05
621.01	1710.05
621.20	1695.72
621.39	1759.21
621.59	1669.09
621.78	1681.38
621.97	1751.01
622.16	1742.82
622.35	1789.92
622.54	1810.40
622.73	1834.98
622.92	1673.19
623.11	1812.45
623.30	1744.87
623.49	1777.64
623.68	1667.05
623.88	1763.30
624.07	1675.24
624.26	1751.01
624.45	1779.68
624.64	1759.21
624.83	1738.73
625.02	1794.02
625.21	1796.07
625.40	1767.40
625.59	1857.51
625.78	1705.96
625.97	1812.45
626.16	1828.84
626.35	1826.79
626.54	1746.92
626.74	1732.58
626.93	1599.46
627.12	1630.18
627.31	1767.40
627.50	1783.78
627.69	1767.40
627.88	1716.20
628.07	1728.49
628.26	1691.62
628.45	1771.49
628.64	1685.48
628.83	1748.97
629.02	1689.57
629.21	1712.10
629.40	1765.35
629.59	1673.19
629.78	1675.24
629.97	1736.68
630.16	1650.66
630.35	1722.34
630.54	1744.87
630.73	1736.68
630.92	1683.43
631.11	1726.44
631.30	1777.64
631.49	1806.31
631.68	1779.68
631.87	1671.14
632.06	1705.96
632.25	1810.40
632.44	1744.87
632.63	1767.40
632.82	1732.58
633.01	1656.81
633.20	1759.21
633.39	1689.57
633.58	1660.90
633.77	1765.35
633.96	1759.21
634.15	1667.05
634.34	1794.02
634.53	1812.45
634.72	1652.71
634.91	1660.90
635.10	1769.44
635.29	1810.40
635.48	1714.15
635.67	1642.47
635.86	1658.85
636.05	1775.59
636.24	1693.67
636.43	1753.06
636.62	1779.68
636.81	1648.61
637.00	1730.53
637.19	1796.07
637.38	1732.58
637.57	1699.81
637.76	1705.96
637.95	1716.20
638.14	1708.01
638.33	1701.86
638.52	1759.21
638.71	1681.38
638.89	1646.57
639.08	1875.94
639.27	1791.97
639.46	1654.76
639.65	1837.03
639.84	1736.68
640.03	1773.54
640.22	1683.43
640.41	1851.36
640.60	1740.77
640.79	1763.30
640.98	1679.33
641.17	1800.16
641.36	1693.67
641.55	1716.20
641.74	1640.42
641.92	1710.05
642.11	1677.29
642.30	1695.72
642.49	1574.89
642.68	1720.29
642.87	1824.74
643.06	1804.26
643.25	1615.85
643.44	1656.81
643.63	1777.64
643.82	1738.73
644.00	1697.77
644.19	1673.19
644.38	1734.63
644.57	1722.34
644.76	1734.63
644.95	1714.15
645.14	1697.77
645.33	1705.96
645.52	1675.24
645.71	1646.57
645.89	1624.04
646.08	1679.33
646.27	1712.10
646.46	1841.12
646.65	1595.37
646.84	1769.44
647.03	1638.38
647.22	1755.11
647.40	1660.90
647.59	1734.63
647.78	1632.23
647.97	1667.05
648.16	1638.38
648.35	1853.41
648.54	1751.01
648.73	1730.53
648.91	1845.22
649.10	1712.10
649.29	1615.85
649.48	1689.57
649.67	1779.68
649.86	1724.39
650.05	1624.04
650.23	1816.55
650.42	1665.00
650.61	1814.50
650.80	1710.05
650.99	1812.45
651.18	1820.64
651.36	1816.55
651.55	1710.05
651.74	1767.40
651.93	1691.62
652.12	1656.81
652.31	1781.73
652.49	1738.73
652.68	1724.39
652.87	1847.27
653.06	1685.48
653.25	1806.31
653.44	1697.77
653.62	1746.92
653.81	1730.53
654.00	1712.10
654.19	1662.95
654.38	1947.62
654.56	1714.15
654.75	1712.10
654.94	1744.87
655.13	1697.77
655.32	1734.63
655.51	1734.63
655.69	1712.10
655.88	1800.16
656.07	1724.39
656.26	1791.97
656.45	1642.47
656.63	1755.11
656.82	1722.34
657.01	1699.81
657.20	1714.15
657.38	1826.79
657.57	1703.91
657.76	1599.46
657.95	1771.49
658.14	1675.24
658.32	1673.19
658.51	1714.15
658.70	1753.06
658.89	1732.58
659.08	1783.78
659.26	1734.63
659.45	1675.24
659.64	1757.16
659.83	1640.42
660.01	1918.95
660.20	1761.25
660.39	1855.46
660.58	1607.66
660.76	1730.53
660.95	1630.18
661.14	1748.97
661.33	1705.96
661.51	1650.66
661.70	1771.49
661.89	1720.29
662.08	1687.53
662.26	1650.66
662.45	1599.46
662.64	1763.30
662.83	1826.79
663.01	1638.38
663.20	1681.38
663.39	1806.31
663.58	1693.67
663.76	1765.35
663.95	1777.64
664.14	1675.24
664.32	1736.68
664.51	1699.81
664.70	1648.61
664.89	1832.93
665.07	1626.09
665.26	1763.30
665.45	1609.70
665.64	1746.92
665.82	1679.33
666.01	1853.41
666.20	1740.77
666.38	1804.26
666.57	1816.55
666.76	2279.39
666.95	4605.88
667.13	10661.73
667.32	15529.75
667.51	17968.88
667.69	19250.91
667.88	17919.73
668.07	12269.38
668.25	9537.39
668.44	8247.17
668.63	7298.96
668.81	7045.01
669.00	6346.66
669.19	5687.21
669.38	5181.36
669.56	4661.18
669.75	3975.11
669.94	3432.40
670.12	2873.30
670.31	2502.62
670.50	2232.29
670.68	2103.26
670.87	1935.33
671.06	1794.02
671.24	1834.98
671.43	1828.84
671.62	1771.49
671.80	1671.14
671.99	1753.06
672.18	1685.48
672.36	1755.11
672.55	1708.01
672.74	1701.86
672.92	1699.81
673.11	1757.16
673.29	1689.57
673.48	1798.12
673.67	1736.68
673.85	1765.35
674.04	1667.05
674.23	1748.97
674.41	1882.08
674.60	1624.04
674.79	1593.32
674.97	1718.25
675.16	1769.44
675.34	1759.21
675.53	1605.61
675.72	1767.40
675.90	1763.30
676.09	1705.96
676.28	1691.62
676.46	1665.00
676.65	1767.40
676.83	1640.42
677.02	1746.92
677.21	1691.62
677.39	1751.01
677.58	1722.34
677.77	1673.19
677.95	1751.01
678.14	1748.97
678.32	1673.19
678.51	1714.15
678.70	1812.45
678.88	1693.67
679.07	1722.34
679.25	1693.67
679.44	1658.85
679.63	1632.23
679.81	1753.06
680.00	1753.06
680.18	1744.87
680.37	1773.54
680.55	1658.85
680.74	1695.72
680.93	1648.61
681.11	1771.49
681.30	1712.10
681.48	1726.44
681.67	1699.81
681.85	1742.82
682.04	1691.62
682.23	1806.31
682.41	1724.39
682.60	1652.71
682.78	1714.15
682.97	1597.42
683.15	1728.49
683.34	1699.81
683.53	1824.74
683.71	1658.85
683.90	1773.54
684.08	1828.84
684.27	1769.44
684.45	1728.49
684.64	1710.05
684.82	1658.85
685.01	1820.64
685.19	1720.29
685.38	1812.45
685.57	1673.19
685.75	1722.34
685.94	1685.48
686.12	1726.44
686.31	1658.85
686.49	1759.21
686.68	1699.81
686.86	1691.62
687.05	1708.01
687.23	1824.74
687.42	1720.29
687.60	1640.42
687.79	1732.58
687.97	1773.54
688.16	1765.35
688.34	1814.50
688.53	1656.81
688.71	1718.25
688.90	1732.58
689.08	1689.57
689.27	1648.61
689.45	1734.63
689.64	1771.49
689.82	1777.64
690.01	1779.68
690.19	1785.83
690.38	1710.05
690.56	1822.69
690.75	1683.43
690.93	1759.21
691.12	1669.09
691.30	1691.62
691.49	1671.14
691.67	1714.15
691.86	1804.26
692.04	1685.48
692.23	1652.71
692.41	1697.77
692.60	1794.02
692.78	1767.40
692.97	1681.38
693.15	1744.87
693.34	1843.17
693.52	1769.44
693.71	1757.16
693.89	1656.81
694.08	1648.61
694.26	1685.48
694.44	1755.11
694.63	1824.74
694.81	1693.67
695.00	1685.48
695.18	1773.54
695.37	1841.12
695.55	1699.81
695.74	1732.58
695.92	1679.33
696.10	1812.45
696.29	1601.51
696.47	1691.62
696.66	1665.00
696.84	1632.23
697.03	1751.01
697.21	1814.50
697.40	2279.39
697.58	1746.92
697.76	1728.49
697.95	1738.73
698.13	1660.90
698.32	1665.00
698.50	1675.24
698.68	1734.63
698.87	1705.96
699.05	1851.36
699.24	1734.63
699.42	1669.09
699.61	1673.19
699.79	1699.81
699.97	1662.95
700.16	1681.38
700.34	1683.43
700.53	1736.68
700.71	1763.30
700.89	1730.53
701.08	1703.91
701.26	1744.87
701.45	2121.70
701.63	1734.63
701.81	1716.20
702.00	1759.21
702.18	1734.63
702.37	1628.14
702.55	1722.34
702.73	1705.96
702.92	1630.18
703.10	1679.33
703.28	1624.04
703.47	1613.80
703.65	1763.30
703.84	1781.73
704.02	1714.15
704.20	1847.27
704.39	1693.67
704.57	1773.54
704.75	1798.12
704.94	1730.53
705.12	1710.05
705.30	1765.35
705.49	2254.81
705.67	4413.37
705.86	9527.15
706.04	12695.36
706.22	14511.91
706.41	15372.05
706.59	13602.61
706.77	9650.03
706.96	7264.15
707.14	6610.84
707.32	5894.05
707.51	5765.03
707.69	4900.79
707.87	4245.44
708.06	3516.36
708.24	2957.27
708.42	2459.61
708.61	2324.44
708.79	1916.90
708.97	1816.55
709.16	1843.17
709.34	1779.68
709.52	1757.16
709.71	1710.05
709.89	1783.78
710.07	1689.57
710.26	1636.33
710.44	1769.44
710.62	1777.64
710.80	1771.49
710.99	1695.72
711.17	1732.58
711.35	1669.09
711.54	1738.73
711.72	1796.07
711.90	1798.12
712.09	1761.25
712.27	1740.77
712.45	1726.44
712.63	1667.05
712.82	1730.53
713.00	1728.49
713.18	1794.02
713.37	1716.20
713.55	1736.68
713.73	1742.82
713.91	1783.78
714.10	1656.81
714.28	1701.86
714.46	1740.77
714.65	1791.97
714.83	1701.86
715.01	1742.82
715.19	1718.25
715.38	1626.09
715.56	1808.36
715.74	1751.01
715.92	1662.95
716.11	1806.31
716.29	1531.88
716.47	1699.81
716.65	1738.73
716.84	1652.71
717.02	1744.87
717.20	1669.09
717.38	1652.71
717.57	1751.01
717.75	1683.43
717.93	1708.01
718.11	1773.54
718.30	1607.66
718.48	1794.02
718.66	1677.29
718.84	1822.69
719.03	1654.76
719.21	1669.09
719.39	1761.25
719.57	1724.39
719.75	1722.34
719.94	1644.52
720.12	1660.90
720.30	1761.25
720.48	1712.10
720.67	1673.19
720.85	1640.42
721.03	1703.91
721.21	1599.46
721.39	1796.07
721.58	1763.30
721.76	1697.77
721.94	1701.86
722.12	1806.31
722.30	1812.45
722.49	1644.52
722.67	1652.71
722.85	1710.05
723.03	1611.75
723.21	1728.49
723.40	1771.49
723.58	1773.54
723.76	1710.05
723.94	1705.96
724.12	1703.91
724.30	1804.26
724.49	1685.48
724.67	1648.61
724.85	1769.44
725.03	1636.33
725.21	1771.49
725.40	1789.92
725.58	1654.76
725.76	1863.65
725.94	1789.92
726.12	1636.33
726.30	1705.96
726.49	1724.39
726.67	1748.97
726.85	1736.68
727.03	1841.12
727.21	2152.42
727.39	2924.50
727.57	3764.17
727.76	4319.17
727.94	4511.68
728.12	4327.36
728.30	3712.97
728.48	2969.55
728.66	2742.23
728.84	2557.91
729.03	2357.21
729.21	2117.60
729.39	1953.76
729.57	1865.70
729.75	1779.68
729.93	1892.32
730.11	1730.53
730.30	1634.28
730.48	1724.39
730.66	1839.08
730.84	1779.68
731.02	1761.25
731.20	1705.96
731.38	1744.87
731.56	1636.33
731.74	1654.76
731.93	1656.81
732.11	1624.04
732.29	1730.53
732.47	1734.63
732.65	1767.40
732.83	1841.12
733.01	1794.02
733.19	1748.97
733.37	1693.67
733.56	1753.06
733.74	1777.64
733.92	1806.31
734.10	1683.43
734.28	1746.92
734.46	1626.09
734.64	1751.01
734.82	1724.39
735.00	1691.62
735.18	1675.24
735.36	1724.39
735.54	1681.38
735.73	1748.97
735.91	1740.77
736.09	1724.39
736.27	1701.86
736.45	1763.30
736.63	1636.33
736.81	1705.96
736.99	1787.88
737.17	1757.16
737.35	1671.14
737.53	1693.67
737.71	1763.30
737.89	1746.92
738.07	1652.71
738.25	1687.53
738.43	1632.23
738.61	1697.77
738.80	1687.53
738.98	1683.43
739.16	1648.61
739.34	1658.85
739.52	1789.92
739.70	1675.24
739.88	1679.33
740.06	1751.01
740.24	1621.99
740.42	1753.06
740.60	1648.61
740.78	1712.10
740.96	1681.38
741.14	1708.01
741.32	1748.97
741.50	1660.90
741.68	1818.60
741.86	1845.22
742.04	1705.96
742.22	1712.10
742.40	1712.10
742.58	1693.67
742.76	1621.99
742.94	1669.09
743.12	1589.22
743.30	1687.53
743.48	1697.77
743.66	1669.09
743.84	1705.96
744.02	1669.09
744.20	1722.34
744.38	1691.62
744.56	1677.29
744.74	1806.31
744.92	1746.92
745.10	1847.27
745.28	1787.88
745.46	1851.36
745.64	1646.57
745.82	1744.87
746.00	1734.63
746.18	1759.21
746.36	1675.24
746.54	1697.77
746.72	1609.70
746.90	1677.29
747.08	1765.35
747.26	1656.81
747.44	1736.68
747.62	1828.84
747.80	1687.53
747.98	1767.40
748.15	1667.05
748.33	1820.64
748.51	1771.49
748.69	1697.77
748.87	1671.14
749.05	1699.81
749.23	1687.53
749.41	1763.30
749.59	1718.25
749.77	1722.34
749.95	1693.67
750.13	1644.52
750.31	1785.83
750.49	1738.73
750.67	1755.11
750.85	1722.34
751.03	1783.78
751.20	1820.64
751.38	1779.68
751.56	1781.73
751.74	1755.11
751.92	1697.77
752.10	1665.00
752.28	1828.84
752.46	1685.48
752.64	1742.82
752.82	1728.49
753.00	1771.49
753.18	1783.78
753.35	1734.63
753.53	1650.66
753.71	1689.57
753.89	1728.49
754.07	1783.78
754.25	1763.30
754.43	1781.73
754.61	1634.28
754.79	1738.73
754.97	1724.39
755.14	1748.97
755.32	1695.72
755.50	1697.77
755.68	1748.97
755.86	1697.77
756.04	1693.67
756.22	1564.65
756.40	1826.79
756.57	1845.22
756.75	1695.72
756.93	1722.34
757.11	1738.73
757.29	1652.71
757.47	1738.73
757.65	1660.90
757.82	1603.56
758.00	1693.67
758.18	1703.91
758.36	1701.86
758.54	1757.16
758.72	1658.85
758.90	1718.25
759.07	1742.82
759.25	1693.67
759.43	1701.86
759.61	1681.38
759.79	2170.85
759.97	1724.39
760.15	1665.00
760.32	1687.53
760.50	1705.96
760.68	1761.25
760.86	1601.51
761.04	1746.92
761.22	1787.88
761.39	1710.05
761.57	1744.87
761.75	1691.62
761.93	1751.01
762.11	1662.95
762.28	1701.86
762.46	1650.66
762.64	1722.34
762.82	1656.81
763.00	1679.33
763.18	1738.73
763.35	1650.66
763.53	1722.34
763.71	1703.91
763.89	1720.29
764.07	1818.60
764.24	1777.64
764.42	1781.73
764.60	1689.57
764.78	1730.53
764.96	1761.25
765.13	1773.54
765.31	1685.48
765.49	1718.25
765.67	1624.04
765.84	1675.24
766.02	1697.77
766.20	1626.09
766.38	1710.05
766.56	1724.39
766.73	1779.68
766.91	1697.77
767.09	1718.25
767.27	1769.44
767.44	1667.05
767.62	1744.87
767.80	1671.14
767.98	1648.61
768.15	1763.30
768.33	1808.36
768.51	1738.73
768.69	1734.63
768.87	1777.64
769.04	1675.24
769.22	1841.12
769.40	1810.40
769.58	1837.03
769.75	1712.10
769.93	1820.64
770.11	1705.96
770.28	1722.34
770.46	1765.35
770.64	1767.40
770.82	1765.35
770.99	1720.29
771.17	1669.09
771.35	1677.29
771.53	1828.84
771.70	1775.59
771.88	1740.77
772.06	1714.15
772.23	1730.53
772.41	1699.81
772.59	1669.09
772.77	1599.46
772.94	1738.73
773.12	1804.26
773.30	1689.57
773.47	1652.71
773.65	1701.86
773.83	1775.59
774.01	1714.15
774.18	1593.32
774.36	1710.05
774.54	1662.95
774.71	1701.86
774.89	1564.65
775.07	1683.43
775.24	1710.05
775.42	1683.43
775.60	1806.31
775.78	1667.05
775.95	1626.09
776.13	1691.62
776.31	1538.02
776.48	1736.68
776.66	1781.73
776.84	1722.34
777.01	1675.24
777.19	1630.18
777.37	1714.15
777.54	1763.30
777.72	1834.98
777.90	1765.35
778.07	1642.47
778.25	1839.08
778.43	1714.15
778.60	1671.14
778.78	1763.30
778.96	1759.21
779.13	1611.75
779.31	1746.92
779.49	1746.92
779.66	1738.73
779.84	1734.63
780.01	1712.10
780.19	1683.43
780.37	1820.64
780.54	1742.82
780.72	1675.24
780.90	1763.30
781.07	1654.76
781.25	1710.05
781.43	1781.73
781.60	1685.48
781.78	1667.05
781.95	1673.19
782.13	1699.81
782.31	1699.81
782.48	1642.47
782.66	1771.49
782.83	1839.08
783.01	1708.01
783.19	1777.64
783.36	1636.33
783.54	1714.15
783.72	1824.74
783.89	1755.11
784.07	1736.68
784.24	1697.77
784.42	1802.21
784.60	1759.21
784.77	1689.57
784.95	1632.23
785.12	1634.28
785.30	1718.25
785.47	1716.20
785.65	1638.38
785.83	1738.73
786.00	1642.47
786.18	1853.41
786.35	1591.27
786.53	1660.90
786.71	1767.40
786.88	1781.73
787.06	1701.86
787.23	1732.58
787.41	1656.81
787.58	1753.06
787.76	1714.15
787.94	1759.21
788.11	1712.10
788.29	1734.63
788.46	1693.67
788.64	1673.19
788.81	1695.72
788.99	1646.57
789.16	1628.14
789.34	1667.05
789.52	1675.24
789.69	1759.21
789.87	1691.62
790.04	1705.96
790.22	1746.92
790.39	1806.31
790.57	1710.05
790.74	1705.96
790.92	1746.92
791.09	1624.04
791.27	1693.67
791.44	1718.25
791.62	1746.92
791.79	1701.86
791.97	1710.05
792.15	1964.00
792.32	1673.19
792.50	1732.58
792.67	1816.55
792.85	1814.50
793.02	1742.82
793.20	1718.25
793.37	1640.42
793.55	1697.77
793.72	1615.85
793.90	1820.64
794.07	1708.01
794.25	1613.80
794.42	1748.97
794.60	1689.57
794.77	1744.87
794.95	1765.35
795.12	1773.54
795.30	1677.29
795.47	1578.98
795.65	1923.04
795.82	1724.39
796.00	1691.62
796.17	1794.02
796.34	1630.18
796.52	1701.86
796.69	1714.15
796.87	1734.63
797.04	1775.59
797.22	1730.53
797.39	1744.87
797.57	1705.96
797.74	1798.12
797.92	1746.92
798.09	1650.66
798.27	1718.25
798.44	1777.64
798.62	1763.30
798.79	1675.24
798.96	1761.25
799.14	1658.85
799.31	1869.80
799.49	1703.91
799.66	1742.82
799.84	1759.21
800.01	1669.09
800.19	1712.10
800.36	1585.13
800.53	1667.05
800.71	1648.61
800.88	1814.50
801.06	1738.73
801.23	1617.90
801.41	1740.77
801.58	1667.05
801.75	1562.60
801.93	1740.77
802.10	1701.86
802.28	1699.81
802.45	1697.77
802.63	1624.04
802.80	1877.99
802.97	1683.43
803.15	1710.05
803.32	1675.24
803.50	1685.48
803.67	1714.15
803.84	1683.43
804.02	1728.49
804.19	1712.10
804.37	1523.69
804.54	1650.66
804.71	1689.57
804.89	1705.96
805.06	1716.20
805.24	1703.91
805.41	1599.46
805.58	1683.43
805.76	1863.65
805.93	1736.68
806.10	1759.21
806.28	1705.96
806.45	1726.44
806.63	1744.87
806.80	1777.64
806.97	1763.30
807.15	1718.25
807.32	1712.10
807.49	1748.97
807.67	1660.90
807.84	1724.39
808.01	1681.38
808.19	1724.39
808.36	1802.21
808.54	1705.96
808.71	1669.09
808.88	1705.96
809.06	1777.64
809.23	1794.02
809.40	1779.68
809.58	1777.64
809.75	1693.67
809.92	1634.28
810.10	1826.79
810.27	1640.42
810.44	1751.01
810.62	1761.25
810.79	1742.82
810.96	1701.86
811.14	1708.01
811.31	1738.73
811.48	1759.21
811.66	1712.10
811.83	1728.49
812.00	1746.92
812.18	1652.71
812.35	1806.31
812.52	1701.86
812.69	1667.05
812.87	1746.92
813.04	1632.23
813.21	1669.09
813.39	1736.68
813.56	1695.72
813.73	1742.82
813.91	1669.09
814.08	1667.05
814.25	1759.21
814.42	1673.19
814.60	1738.73
814.77	1748.97
814.94	1783.78
815.12	1740.77
815.29	1830.88
815.46	1703.91
815.63	1640.42
815.81	1804.26
815.98	1677.29
816.15	1728.49
816.33	1615.85
816.50	1605.61
816.67	1675.24
816.84	1722.34
817.02	1617.90
817.19	1681.38
817.36	1703.91
817.53	1673.19
817.71	1675.24
817.88	1818.60
818.05	1728.49
818.22	1746.92
818.40	1779.68
818.57	1675.24
818.74	1699.81
818.91	1652.71
819.09	1746.92
819.26	1847.27
819.43	1656.81
819.60	1705.96
819.78	1736.68
819.95	1701.86
820.12	1736.68
820.29	1775.59
820.47	1728.49
820.64	1697.77
820.81	1652.71
820.98	1681.38
821.15	1730.53
821.33	1726.44
821.50	1585.13
821.67	1732.58
821.84	1681.38
822.02	1765.35
822.19	1791.97
822.36	1708.01
822.53	1683.43
822.70	1662.95
822.88	1671.14
823.05	1742.82
823.22	1605.61
823.39	1824.74
823.56	1636.33
823.74	1841.12
823.91	1669.09
824.08	1607.66
824.25	1710.05
824.42	1800.16
824.60	1652.71
824.77	1804.26
824.94	1708.01
825.11	1673.19
825.28	1611.75
825.45	1728.49
825.63	1675.24
825.80	1640.42
825.97	1761.25
826.14	1691.62
826.31	1638.38
826.48	1755.11
826.66	1611.75
826.83	1615.85
827.00	1734.63
827.17	1624.04
827.34	1621.99
827.51	1699.81
827.69	1693.67
827.86	1689.57
828.03	1701.86
828.20	1701.86
828.37	1708.01
828.54	1787.88
828.71	1660.90
828.89	1779.68
829.06	1746.92
829.23	1775.59
829.40	1683.43
829.57	1673.19
829.74	1716.20
829.91	1656.81
830.09	1703.91
830.26	1753.06
830.43	1810.40
830.60	1759.21
830.77	1767.40
830.94	1771.49
831.11	1734.63
831.28	1714.15
831.46	1701.86
831.63	1656.81
831.80	1751.01
831.97	1705.96
832.14	1771.49
832.31	1824.74
832.48	1769.44
832.65	1808.36
832.82	1644.52
832.99	1814.50
833.17	1632.23
833.34	1767.40
833.51	1742.82
833.68	1669.09
833.85	1746.92
834.02	1640.42
834.19	1712.10
834.36	1648.61
834.53	1652.71
834.70	1834.98
834.87	1746.92
835.04	1658.85
835.22	1673.19
835.39	1667.05
835.56	1644.52
835.73	1773.54
835.90	1800.16
836.07	1665.00
836.24	1763.30
836.41	1701.86
836.58	1673.19
836.75	1802.21
836.92	1673.19
837.09	1654.76
837.26	1796.07
837.43	1755.11
837.60	1779.68
837.77	1640.42
837.94	1777.64
838.12	1757.16
838.29	1794.02
838.46	1572.84
838.63	1675.24
838.80	1849.32
838.97	1656.81
839.14	1722.34
839.31	1687.53
839.48	1775.59
839.65	1685.48
839.82	1708.01
839.99	1665.00
840.16	1730.53
840.33	1677.29
840.50	1746.92
840.67	1705.96
840.84	1578.98
841.01	1759.21
841.18	1642.47
841.35	1689.57
841.52	1746.92
841.69	1845.22
841.86	1648.61
842.03	1712.10
842.20	1779.68
842.37	1656.81
842.54	1728.49
842.71	1697.77
842.88	1648.61
843.05	1773.54
843.22	1767.40
843.39	1701.86
843.56	1650.66
843.73	1742.82
843.90	1796.07
844.07	1720.29
844.24	1767.40
844.41	1800.16
844.58	1765.35
844.75	1714.15
844.92	1755.11
845.09	1689.57
845.26	1662.95
845.43	1753.06
845.60	1632.23
845.77	1763.30
845.94	1794.02
846.10	1734.63
846.27	1654.76
846.44	1677.29
846.61	1708.01
846.78	1693.67
846.95	1671.14
847.12	1744.87
847.29	1679.33
847.46	1730.53
847.63	1699.81
847.80	1742.82
847.97	1751.01
848.14	1806.31
848.31	1656.81
848.48	1605.61
848.65	1640.42
848.82	1626.09
848.98	1785.83
849.15	1646.57
849.32	1718.25
849.49	1742.82
849.66	1751.01
849.83	1736.68
850.00	1667.05
850.17	1687.53
850.34	1665.00
850.51	1671.14
850.68	1675.24
850.85	1800.16
851.01	1703.91
851.18	1720.29
851.35	1716.20
851.52	1683.43
851.69	1800.16
851.86	1644.52
852.03	1708.01
852.20	1759.21
852.37	1732.58
852.53	1693.67
852.70	1665.00
852.87	1689.57
853.04	1714.15
853.21	1712.10
853.38	1818.60
853.55	1794.02
853.72	1779.68
853.89	1654.76
854.05	1605.61
854.22	1701.86
854.39	1736.68
854.56	1675.24
854.73	1720.29
854.90	1679.33
855.07	1720.29
855.23	1708.01
855.40	1730.53
855.57	1675.24
855.74	1652.71
855.91	1832.93
856.08	1650.66
856.25	1597.42
856.41	1677.29
856.58	1595.37
856.75	1703.91
856.92	1714.15
857.09	1808.36
857.26	1685.48
857.42	1605.61
857.59	1708.01
857.76	1619.94
857.93	1822.69
858.10	1726.44
858.27	1640.42
858.43	1689.57
858.60	1646.57
858.77	1595.37
858.94	1660.90
859.11	1724.39
859.27	1665.00
859.44	1681.38
859.61	1800.16
859.78	1767.40
859.95	1679.33
860.12	1683.43
860.28	1804.26
860.45	1794.02
860.62	1675.24
860.79	1748.97
860.95	1677.29
861.12	1632.23
861.29	1654.76
861.46	1685.48
861.63	1699.81
861.79	1677.29
861.96	1673.19
862.13	1732.58
862.30	1828.84
862.47	1705.96
862.63	1742.82
862.80	1734.63
862.97	1777.64
863.14	1767.40
863.30	1691.62
863.47	1624.04
863.64	1757.16
863.81	1736.68
863.97	1781.73
864.14	1699.81
864.31	1675.24
864.48	1665.00
864.65	1740.77
864.81	1683.43
864.98	1789.92
865.15	1712.10
865.32	1777.64
865.48	1812.45
865.65	1837.03
865.82	1675.24
865.98	1720.29
866.15	1738.73
866.32	1699.81
866.49	1775.59
866.65	1722.34
866.82	1640.42
866.99	1681.38
867.16	1720.29
867.32	1718.25
867.49	1650.66
867.66	1703.91
867.83	1687.53
867.99	1621.99
868.16	1644.52
868.33	1710.05
868.49	1753.06
868.66	1689.57
868.83	1748.97
868.99	1658.85
869.16	1703.91
869.33	1740.77
869.50	1691.62
869.66	1691.62
869.83	1703.91
870.00	1650.66
870.16	1712.10
870.33	1691.62
870.50	1789.92
870.66	1767.40
870.83	1910.75
871.00	1693.67
871.17	1708.01
871.33	1763.30
871.50	1728.49
871.67	1667.05
871.83	1609.70
872.00	1857.51
872.17	1662.95
872.33	1748.97
872.50	1691.62
872.67	1572.84
872.83	1712.10
873.00	1728.49
873.17	1681.38
873.33	1791.97
873.50	1755.11
873.67	1722.34
873.83	1673.19
874.00	1740.77
874.16	1755.11
874.33	1738.73
874.50	1650.66
874.66	1785.83
874.83	1714.15
875.00	1771.49
875.16	1757.16
875.33	1796.07
875.50	1581.03
875.66	1753.06
875.83	1714.15
875.99	1720.29
876.16	1607.66
876.33	1570.79
876.49	1677.29
876.66	1710.05
876.83	1662.95
876.99	1681.38
877.16	1695.72
877.32	1705.96
877.49	1708.01
877.66	1734.63
877.82	1808.36
877.99	1658.85
878.15	1763.30
878.32	1740.77
878.49	1699.81
878.65	1642.47
878.82	1816.55
878.98	1644.52
879.15	1820.64
879.32	1726.44
879.48	1636.33
879.65	1679.33
879.81	1630.18
879.98	1646.57
880.15	1667.05
880.31	1701.86
880.48	1650.66
880.64	1771.49
880.81	1703.91
880.97	1886.18
881.14	1738.73
881.31	1689.57
881.47	1875.94
881.64	1660.90
881.80	1634.28
881.97	1662.95
882.13	1708.01
882.30	1755.11
882.47	1685.48
882.63	1703.91
882.80	1656.81
882.96	1652.71
883.13	1757.16
883.29	1624.04
883.46	1798.12
883.62	1732.58
883.79	1642.47
883.95	1724.39
884.12	1681.38
884.29	1759.21
884.45	1757.16
884.62	1800.16
884.78	1699.81
884.95	1781.73
885.11	1607.66
885.28	1763.30
885.44	1685.48
885.61	1785.83
885.77	1691.62
885.94	1828.84
886.10	1722.34
886.27	1755.11
886.43	1822.69
886.60	1734.63
886.76	1685.48
886.93	1691.62
887.09	1744.87
887.26	1646.57
887.42	1650.66
887.59	1742.82
887.75	1877.99
887.92	1773.54
888.08	1791.97
888.25	1789.92
888.41	1699.81
888.58	1718.25
888.74	1583.08
888.91	1736.68
>>>>>End Processed Spectral Data<<<<<
