SpectraSuite Data File
++++++++++++++++++++++++++++++++++++
Date: Mon Jun 06 12:59:17 CEST 2016
User: root
Dark Spectrum Present: No
Reference Spectrum Present: No
Number of Sampled Component Spectra: 1
Spectrometers: USB4C02835
Integration Time (usec): 100000 (USB4C02835)
Spectra Averaged: 1 (USB4C02835)
Boxcar Smoothing: 0 (USB4C02835)
Correct for Electrical Dark: No (USB4C02835)
Strobe/Lamp Enabled: No (USB4C02835)
Correct for Detector Non-linearity: No (USB4C02835)
Correct for Stray Light: No (USB4C02835)
Number of Pixels in Processed Spectrum: 3648
>>>>>Begin Processed Spectral Data<<<<<
177.47	1468.39
177.69	1468.39
177.91	1468.39
178.13	1472.49
178.36	1525.74
178.58	1650.66
178.80	1695.72
179.02	1607.66
179.24	1574.89
179.46	1710.05
179.68	1728.49
179.90	1656.81
180.13	1724.39
180.35	1699.81
180.57	1658.85
180.79	1783.78
181.01	1703.91
181.23	1728.49
181.45	1798.12
181.67	1710.05
181.90	1710.05
182.12	1683.43
182.34	1679.33
182.56	1718.25
182.78	1646.57
183.00	1734.63
183.22	1730.53
183.44	1673.19
183.66	1834.98
183.89	1751.01
184.11	1683.43
184.33	1679.33
184.55	1820.64
184.77	1726.44
184.99	1697.77
185.21	1701.86
185.43	1783.78
185.65	1673.19
185.87	1724.39
186.10	1771.49
186.32	1855.46
186.54	1708.01
186.76	1708.01
186.98	1740.77
187.20	1552.36
187.42	1710.05
187.64	1656.81
187.86	1699.81
188.08	1716.20
188.30	1691.62
188.52	1771.49
188.75	1824.74
188.97	1849.32
189.19	1613.80
189.41	1691.62
189.63	1712.10
189.85	1658.85
190.07	1662.95
190.29	1542.12
190.51	1705.96
190.73	1644.52
190.95	1724.39
191.17	1681.38
191.39	1624.04
191.61	1693.67
191.84	1697.77
192.06	1785.83
192.28	1599.46
192.50	1970.15
192.72	1708.01
192.94	1669.09
193.16	1755.11
193.38	1697.77
193.60	1677.29
193.82	1681.38
194.04	1816.55
194.26	1767.40
194.48	1742.82
194.70	1632.23
194.92	1650.66
195.14	1748.97
195.36	1675.24
195.58	1656.81
195.80	1712.10
196.02	1665.00
196.24	1771.49
196.46	1708.01
196.69	1660.90
196.91	1851.36
197.13	1669.09
197.35	1607.66
197.57	1779.68
197.79	1783.78
198.01	1742.82
198.23	1621.99
198.45	1718.25
198.67	1675.24
198.89	1656.81
199.11	1728.49
199.33	1564.65
199.55	1587.18
199.77	1718.25
199.99	1777.64
200.21	1644.52
200.43	1665.00
200.65	1615.85
200.87	1531.88
201.09	1746.92
201.31	1705.96
201.53	1783.78
201.75	1720.29
201.97	1742.82
202.19	1718.25
202.41	1722.34
202.63	1763.30
202.85	1693.67
203.07	1748.97
203.29	1691.62
203.51	1523.69
203.73	1681.38
203.95	1945.57
204.17	1738.73
204.39	1720.29
204.61	1613.80
204.83	1693.67
205.05	1777.64
205.27	1708.01
205.49	1837.03
205.71	1681.38
205.93	1712.10
206.15	1732.58
206.37	1689.57
206.59	1626.09
206.81	1640.42
207.03	1564.65
207.25	1660.90
207.47	1714.15
207.69	1718.25
207.91	1777.64
208.13	1759.21
208.34	1646.57
208.56	1677.29
208.78	1619.94
209.00	1708.01
209.22	1642.47
209.44	1605.61
209.66	1626.09
209.88	1701.86
210.10	1624.04
210.32	1675.24
210.54	1742.82
210.76	1677.29
210.98	1757.16
211.20	1599.46
211.42	1722.34
211.64	1759.21
211.86	1708.01
212.08	1708.01
212.30	1638.38
212.52	1656.81
212.74	1734.63
212.96	1767.40
213.17	1699.81
213.39	1757.16
213.61	1810.40
213.83	1734.63
214.05	1624.04
214.27	1796.07
214.49	1609.70
214.71	1640.42
214.93	1734.63
215.15	1687.53
215.37	1800.16
215.59	1705.96
215.81	1624.04
216.03	1746.92
216.24	1718.25
216.46	1656.81
216.68	1665.00
216.90	1673.19
217.12	1730.53
217.34	1689.57
217.56	1679.33
217.78	1810.40
218.00	1691.62
218.22	1701.86
218.44	1812.45
218.66	1720.29
218.87	1740.77
219.09	1705.96
219.31	1679.33
219.53	1730.53
219.75	1736.68
219.97	1626.09
220.19	1632.23
220.41	1669.09
220.63	1783.78
220.85	1732.58
221.06	1755.11
221.28	1785.83
221.50	1718.25
221.72	1671.14
221.94	1705.96
222.16	1703.91
222.38	1779.68
222.60	1771.49
222.82	1755.11
223.03	1697.77
223.25	1675.24
223.47	1720.29
223.69	1843.17
223.91	1716.20
224.13	1665.00
224.35	1632.23
224.57	1787.88
224.78	1744.87
225.00	1621.99
225.22	1675.24
225.44	1710.05
225.66	1804.26
225.88	1738.73
226.10	1763.30
226.32	1714.15
226.53	1759.21
226.75	1691.62
226.97	1638.38
227.19	1673.19
227.41	1730.53
227.63	1730.53
227.85	1673.19
228.06	1755.11
228.28	1757.16
228.50	1806.31
228.72	1712.10
228.94	1681.38
229.16	1554.41
229.37	1667.05
229.59	1644.52
229.81	1746.92
230.03	1636.33
230.25	1578.98
230.47	1744.87
230.69	1636.33
230.90	1689.57
231.12	1638.38
231.34	1685.48
231.56	1744.87
231.78	1632.23
232.00	1693.67
232.21	1705.96
232.43	1687.53
232.65	1554.41
232.87	1765.35
233.09	1744.87
233.30	1697.77
233.52	1716.20
233.74	1695.72
233.96	1671.14
234.18	1683.43
234.40	1699.81
234.61	1767.40
234.83	1652.71
235.05	1681.38
235.27	1828.84
235.49	1724.39
235.70	1677.29
235.92	1804.26
236.14	1667.05
236.36	1783.78
236.58	1613.80
236.79	1726.44
237.01	1675.24
237.23	1648.61
237.45	1789.92
237.67	1531.88
237.88	1720.29
238.10	1837.03
238.32	1646.57
238.54	1722.34
238.76	1763.30
238.97	1656.81
239.19	1665.00
239.41	1798.12
239.63	1730.53
239.85	1681.38
240.06	1732.58
240.28	1697.77
240.50	1761.25
240.72	1708.01
240.93	1599.46
241.15	1738.73
241.37	1783.78
241.59	1826.79
241.81	1705.96
242.02	1624.04
242.24	1673.19
242.46	1748.97
242.68	1585.13
242.89	1738.73
243.11	1722.34
243.33	1693.67
243.55	1765.35
243.76	1673.19
243.98	1705.96
244.20	1683.43
244.42	1708.01
244.64	1728.49
244.85	1658.85
245.07	1609.70
245.29	1755.11
245.51	1751.01
245.72	1652.71
245.94	1720.29
246.16	1679.33
246.38	1705.96
246.59	1697.77
246.81	1642.47
247.03	1660.90
247.24	1636.33
247.46	1665.00
247.68	1689.57
247.90	1662.95
248.11	1671.14
248.33	1791.97
248.55	1644.52
248.77	1667.05
248.98	1677.29
249.20	1802.21
249.42	1789.92
249.64	1720.29
249.85	1634.28
250.07	1714.15
250.29	1830.88
250.50	1765.35
250.72	1626.09
250.94	1677.29
251.16	1806.31
251.37	1751.01
251.59	1652.71
251.81	1648.61
252.02	1757.16
252.24	1685.48
252.46	1759.21
252.68	1642.47
252.89	1632.23
253.11	1578.98
253.33	1775.59
253.54	1746.92
253.76	1667.05
253.98	1679.33
254.20	1722.34
254.41	1699.81
254.63	1654.76
254.85	1566.70
255.06	1740.77
255.28	1652.71
255.50	1697.77
255.71	1728.49
255.93	1632.23
256.15	1751.01
256.36	1738.73
256.58	1656.81
256.80	1699.81
257.02	1611.75
257.23	1710.05
257.45	1648.61
257.67	1763.30
257.88	1728.49
258.10	1675.24
258.32	1642.47
258.53	1667.05
258.75	1763.30
258.97	1658.85
259.18	1673.19
259.40	1697.77
259.62	1781.73
259.83	1751.01
260.05	1757.16
260.27	1978.34
260.48	1665.00
260.70	1589.22
260.92	1689.57
261.13	1724.39
261.35	1693.67
261.57	1710.05
261.78	1621.99
262.00	1705.96
262.22	1669.09
262.43	1628.14
262.65	1734.63
262.86	1708.01
263.08	1875.94
263.30	1751.01
263.51	1617.90
263.73	1685.48
263.95	1761.25
264.16	1593.32
264.38	1632.23
264.60	1617.90
264.81	1603.56
265.03	1763.30
265.25	1714.15
265.46	1665.00
265.68	1720.29
265.89	1742.82
266.11	1687.53
266.33	1751.01
266.54	1767.40
266.76	1761.25
266.98	1746.92
267.19	1802.21
267.41	1697.77
267.62	1705.96
267.84	1640.42
268.06	1673.19
268.27	1757.16
268.49	1753.06
268.70	1767.40
268.92	1691.62
269.14	1679.33
269.35	1634.28
269.57	1630.18
269.79	1724.39
270.00	1681.38
270.22	1746.92
270.43	1693.67
270.65	1607.66
270.87	1761.25
271.08	1679.33
271.30	1802.21
271.51	1681.38
271.73	1748.97
271.95	1773.54
272.16	1730.53
272.38	1683.43
272.59	1599.46
272.81	1726.44
273.02	1740.77
273.24	1667.05
273.46	1714.15
273.67	1716.20
273.89	1593.32
274.10	1617.90
274.32	1724.39
274.54	1693.67
274.75	1642.47
274.97	1662.95
275.18	1742.82
275.40	1841.12
275.61	1681.38
275.83	1785.83
276.05	1642.47
276.26	1638.38
276.48	1671.14
276.69	1669.09
276.91	1679.33
277.12	1791.97
277.34	1748.97
277.55	1812.45
277.77	1732.58
277.99	1701.86
278.20	1669.09
278.42	1671.14
278.63	1589.22
278.85	1662.95
279.06	1593.32
279.28	1669.09
279.49	1808.36
279.71	1783.78
279.93	1765.35
280.14	1748.97
280.36	1669.09
280.57	1775.59
280.79	1761.25
281.00	1587.18
281.22	1656.81
281.43	1820.64
281.65	1538.02
281.86	1636.33
282.08	1671.14
282.29	1824.74
282.51	1693.67
282.73	1640.42
282.94	1697.77
283.16	1689.57
283.37	1796.07
283.59	1716.20
283.80	1728.49
284.02	1681.38
284.23	1720.29
284.45	1728.49
284.66	1671.14
284.88	1613.80
285.09	1689.57
285.31	1705.96
285.52	1791.97
285.74	1644.52
285.95	1753.06
286.17	1718.25
286.38	1722.34
286.60	1691.62
286.81	1646.57
287.03	1675.24
287.24	1683.43
287.46	1722.34
287.67	1675.24
287.89	1800.16
288.10	1671.14
288.32	1671.14
288.53	1814.50
288.75	1660.90
288.96	1712.10
289.18	1660.90
289.39	1720.29
289.61	1716.20
289.82	1791.97
290.04	1767.40
290.25	1617.90
290.47	1716.20
290.68	1652.71
290.90	1660.90
291.11	1607.66
291.33	1812.45
291.54	1603.56
291.76	1632.23
291.97	1724.39
292.18	1730.53
292.40	1677.29
292.61	1775.59
292.83	1869.80
293.04	1796.07
293.26	1685.48
293.47	1746.92
293.69	1679.33
293.90	1740.77
294.12	1724.39
294.33	1679.33
294.55	1687.53
294.76	1783.78
294.97	1863.65
295.19	1787.88
295.40	1714.15
295.62	1697.77
295.83	1732.58
296.05	1642.47
296.26	1716.20
296.48	1660.90
296.69	1695.72
296.90	1722.34
297.12	1789.92
297.33	1785.83
297.55	1726.44
297.76	1722.34
297.98	1796.07
298.19	1656.81
298.41	1667.05
298.62	1587.18
298.83	1777.64
299.05	1669.09
299.26	1667.05
299.48	1652.71
299.69	1800.16
299.90	1712.10
300.12	1599.46
300.33	1755.11
300.55	1738.73
300.76	1687.53
300.98	1634.28
301.19	1701.86
301.40	1574.89
301.62	1757.16
301.83	1826.79
302.05	1667.05
302.26	1665.00
302.47	1726.44
302.69	1595.37
302.90	1665.00
303.12	1634.28
303.33	1724.39
303.54	1816.55
303.76	1621.99
303.97	1763.30
304.19	1783.78
304.40	1697.77
304.61	1705.96
304.83	1851.36
305.04	1763.30
305.26	1699.81
305.47	1595.37
305.68	1595.37
305.90	1683.43
306.11	1722.34
306.33	1722.34
306.54	1644.52
306.75	1634.28
306.97	1705.96
307.18	1683.43
307.39	1673.19
307.61	1746.92
307.82	1701.86
308.04	1722.34
308.25	1683.43
308.46	1775.59
308.68	1699.81
308.89	1714.15
309.10	1779.68
309.32	1775.59
309.53	1748.97
309.74	1755.11
309.96	1697.77
310.17	1775.59
310.39	1687.53
310.60	1705.96
310.81	1712.10
311.03	1675.24
311.24	1771.49
311.45	1669.09
311.67	1761.25
311.88	1751.01
312.09	1662.95
312.31	1681.38
312.52	1630.18
312.73	1689.57
312.95	1617.90
313.16	1640.42
313.37	1736.68
313.59	1785.83
313.80	1687.53
314.01	1820.64
314.23	1687.53
314.44	1652.71
314.65	1621.99
314.87	1689.57
315.08	1665.00
315.29	1658.85
315.51	1701.86
315.72	1626.09
315.93	1732.58
316.15	1757.16
316.36	1689.57
316.57	1740.77
316.79	1769.44
317.00	1685.48
317.21	1705.96
317.43	1671.14
317.64	1687.53
317.85	1748.97
318.07	1738.73
318.28	1720.29
318.49	1832.93
318.70	1914.85
318.92	1804.26
319.13	1767.40
319.34	1894.37
319.56	1738.73
319.77	1798.12
319.98	1853.41
320.20	1810.40
320.41	1767.40
320.62	1714.15
320.83	1716.20
321.05	1828.84
321.26	1738.73
321.47	1646.57
321.69	1845.22
321.90	1648.61
322.11	1656.81
322.32	1718.25
322.54	1687.53
322.75	1673.19
322.96	1873.89
323.18	1634.28
323.39	1542.12
323.60	1669.09
323.81	1693.67
324.03	1699.81
324.24	1708.01
324.45	1736.68
324.66	1607.66
324.88	1748.97
325.09	1806.31
325.30	1675.24
325.52	1720.29
325.73	1691.62
325.94	1669.09
326.15	1587.18
326.37	1687.53
326.58	1763.30
326.79	1814.50
327.00	1621.99
327.22	1832.93
327.43	1689.57
327.64	1615.85
327.85	1677.29
328.07	1642.47
328.28	1765.35
328.49	1656.81
328.70	1691.62
328.92	1703.91
329.13	1638.38
329.34	1742.82
329.55	1804.26
329.76	1697.77
329.98	1734.63
330.19	1742.82
330.40	1806.31
330.61	1779.68
330.83	1773.54
331.04	1681.38
331.25	1671.14
331.46	1722.34
331.68	1708.01
331.89	1742.82
332.10	1669.09
332.31	1634.28
332.52	1736.68
332.74	1773.54
332.95	1689.57
333.16	1656.81
333.37	1734.63
333.58	1738.73
333.80	1644.52
334.01	1656.81
334.22	1683.43
334.43	1687.53
334.64	1777.64
334.86	1634.28
335.07	1685.48
335.28	1783.78
335.49	1671.14
335.70	1718.25
335.92	1775.59
336.13	1927.14
336.34	1660.90
336.55	1708.01
336.76	1763.30
336.98	1597.42
337.19	1710.05
337.40	1771.49
337.61	1781.73
337.82	1708.01
338.04	1783.78
338.25	1632.23
338.46	1638.38
338.67	1656.81
338.88	1589.22
339.09	1714.15
339.31	1587.18
339.52	1701.86
339.73	1697.77
339.94	1751.01
340.15	1755.11
340.36	1675.24
340.58	1728.49
340.79	1648.61
341.00	1710.05
341.21	1601.51
341.42	1894.37
341.63	1642.47
341.85	1748.97
342.06	1755.11
342.27	1558.50
342.48	1751.01
342.69	1607.66
342.90	1718.25
343.12	1734.63
343.33	1652.71
343.54	1800.16
343.75	1812.45
343.96	1746.92
344.17	1701.86
344.38	1748.97
344.60	1671.14
344.81	1613.80
345.02	1732.58
345.23	1767.40
345.44	1746.92
345.65	1726.44
345.86	1736.68
346.07	1718.25
346.29	1648.61
346.50	1652.71
346.71	1701.86
346.92	1734.63
347.13	1751.01
347.34	1728.49
347.55	1689.57
347.76	1744.87
347.98	1630.18
348.19	1638.38
348.40	1765.35
348.61	1642.47
348.82	1779.68
349.03	1761.25
349.24	1624.04
349.45	1783.78
349.66	1583.08
349.88	1667.05
350.09	1681.38
350.30	1800.16
350.51	1734.63
350.72	1775.59
350.93	1708.01
351.14	1656.81
351.35	1640.42
351.56	1687.53
351.77	1730.53
351.99	1675.24
352.20	1837.03
352.41	1761.25
352.62	1630.18
352.83	1730.53
353.04	1742.82
353.25	1662.95
353.46	1734.63
353.67	1673.19
353.88	1607.66
354.09	1669.09
354.30	1667.05
354.52	1708.01
354.73	1705.96
354.94	1714.15
355.15	1652.71
355.36	1806.31
355.57	1708.01
355.78	1695.72
355.99	1673.19
356.20	1703.91
356.41	1822.69
356.62	1755.11
356.83	1658.85
357.04	1806.31
357.25	1593.32
357.46	1628.14
357.68	1646.57
357.89	1669.09
358.10	1671.14
358.31	1716.20
358.52	1751.01
358.73	1578.98
358.94	1667.05
359.15	1607.66
359.36	1652.71
359.57	1761.25
359.78	1685.48
359.99	1697.77
360.20	1656.81
360.41	1675.24
360.62	1779.68
360.83	1712.10
361.04	1724.39
361.25	1736.68
361.46	1816.55
361.67	1724.39
361.88	1697.77
362.09	1787.88
362.30	1701.86
362.51	1662.95
362.72	1726.44
362.93	1765.35
363.14	1722.34
363.35	1667.05
363.56	1636.33
363.78	1701.86
363.99	1699.81
364.20	1773.54
364.41	1714.15
364.62	1832.93
364.83	1726.44
365.04	1755.11
365.25	1691.62
365.46	1820.64
365.67	1636.33
365.88	1611.75
366.09	1632.23
366.30	1710.05
366.51	1705.96
366.72	1710.05
366.93	1708.01
367.14	1691.62
367.35	1822.69
367.56	1673.19
367.77	1677.29
367.98	1728.49
368.18	1691.62
368.39	1771.49
368.60	1624.04
368.81	1794.02
369.02	1767.40
369.23	1701.86
369.44	1615.85
369.65	1665.00
369.86	1753.06
370.07	1775.59
370.28	1665.00
370.49	1716.20
370.70	1757.16
370.91	1742.82
371.12	1683.43
371.33	1759.21
371.54	1648.61
371.75	1771.49
371.96	1585.13
372.17	1718.25
372.38	1703.91
372.59	1761.25
372.80	1681.38
373.01	1660.90
373.22	1703.91
373.43	1665.00
373.64	1642.47
373.85	1779.68
374.06	1814.50
374.26	1767.40
374.47	1644.52
374.68	1757.16
374.89	1699.81
375.10	1757.16
375.31	1789.92
375.52	1718.25
375.73	1685.48
375.94	1679.33
376.15	1748.97
376.36	1636.33
376.57	1732.58
376.78	1732.58
376.99	1804.26
377.20	1816.55
377.40	1697.77
377.61	1804.26
377.82	1646.57
378.03	1728.49
378.24	1734.63
378.45	1617.90
378.66	1597.42
378.87	1648.61
379.08	1656.81
379.29	1697.77
379.50	1722.34
379.71	1742.82
379.91	1732.58
380.12	1738.73
380.33	1730.53
380.54	1728.49
380.75	1621.99
380.96	1685.48
381.17	1753.06
381.38	1714.15
381.59	1771.49
381.80	1703.91
382.00	1861.60
382.21	1695.72
382.42	1740.77
382.63	1890.28
382.84	1697.77
383.05	1755.11
383.26	1822.69
383.47	1726.44
383.68	1689.57
383.88	1857.51
384.09	1746.92
384.30	1804.26
384.51	1740.77
384.72	1658.85
384.93	1634.28
385.14	1744.87
385.35	1851.36
385.55	1728.49
385.76	1781.73
385.97	1660.90
386.18	1638.38
386.39	1570.79
386.60	1665.00
386.81	1677.29
387.02	1687.53
387.22	1669.09
387.43	1744.87
387.64	1724.39
387.85	1894.37
388.06	2250.72
388.27	4177.86
388.48	6778.78
388.68	8255.36
388.89	9615.21
389.10	9885.55
389.31	8609.66
389.52	7681.93
389.73	6813.59
389.93	6303.65
390.14	5861.29
390.35	5093.30
390.56	4620.22
390.77	3678.15
390.98	3086.29
391.18	2549.72
391.39	2078.69
391.60	1898.47
391.81	1826.79
392.02	1685.48
392.23	1828.84
392.43	1759.21
392.64	1781.73
392.85	1695.72
393.06	1761.25
393.27	1658.85
393.47	1720.29
393.68	1722.34
393.89	1693.67
394.10	1824.74
394.31	1601.51
394.52	1759.21
394.72	1669.09
394.93	1873.89
395.14	1714.15
395.35	1734.63
395.56	1652.71
395.76	1775.59
395.97	1798.12
396.18	1851.36
396.39	1863.65
396.60	1972.19
396.80	1873.89
397.01	1884.13
397.22	1832.93
397.43	1781.73
397.64	1691.62
397.84	1796.07
398.05	1769.44
398.26	1796.07
398.47	1746.92
398.67	1863.65
398.88	1710.05
399.09	1697.77
399.30	1712.10
399.51	1640.42
399.71	1697.77
399.92	1705.96
400.13	1708.01
400.34	1652.71
400.54	1689.57
400.75	1849.32
400.96	1679.33
401.17	1832.93
401.37	1701.86
401.58	1644.52
401.79	1697.77
402.00	1869.80
402.21	2004.96
402.41	1935.33
402.62	1869.80
402.83	2017.25
403.04	2025.44
403.24	2072.54
403.45	1785.83
403.66	1933.28
403.87	1875.94
404.07	1961.95
404.28	1918.95
404.49	1947.62
404.70	1773.54
404.90	1771.49
405.11	1779.68
405.32	1759.21
405.52	1626.09
405.73	1621.99
405.94	1619.94
406.15	1654.76
406.35	1814.50
406.56	1796.07
406.77	1693.67
406.98	1699.81
407.18	1662.95
407.39	1824.74
407.60	1769.44
407.80	1689.57
408.01	1667.05
408.22	1763.30
408.43	1691.62
408.63	1710.05
408.84	1783.78
409.05	1679.33
409.25	1728.49
409.46	1697.77
409.67	1636.33
409.88	1615.85
410.08	1724.39
410.29	1665.00
410.50	1724.39
410.70	1673.19
410.91	1656.81
411.12	1759.21
411.32	1701.86
411.53	1675.24
411.74	1722.34
411.95	1802.21
412.15	1771.49
412.36	1757.16
412.57	1755.11
412.77	1802.21
412.98	1673.19
413.19	1681.38
413.39	1619.94
413.60	1744.87
413.81	1804.26
414.01	1699.81
414.22	1740.77
414.43	1683.43
414.63	1658.85
414.84	1861.60
415.05	1708.01
415.25	1611.75
415.46	1736.68
415.67	1697.77
415.87	1789.92
416.08	1650.66
416.29	1656.81
416.49	1732.58
416.70	1712.10
416.91	1742.82
417.11	1708.01
417.32	1699.81
417.53	1845.22
417.73	1796.07
417.94	1730.53
418.15	1705.96
418.35	1638.38
418.56	1738.73
418.77	1742.82
418.97	1773.54
419.18	1796.07
419.38	1558.50
419.59	1712.10
419.80	1818.60
420.00	1630.18
420.21	1746.92
420.42	1779.68
420.62	1773.54
420.83	1662.95
421.04	1708.01
421.24	1654.76
421.45	1755.11
421.65	1753.06
421.86	1656.81
422.07	1697.77
422.27	1716.20
422.48	1742.82
422.69	1658.85
422.89	1683.43
423.10	1673.19
423.30	1626.09
423.51	1779.68
423.72	1765.35
423.92	1775.59
424.13	1583.08
424.33	1746.92
424.54	1771.49
424.75	1685.48
424.95	1812.45
425.16	1699.81
425.36	1654.76
425.57	1730.53
425.78	1789.92
425.98	1767.40
426.19	1640.42
426.39	1685.48
426.60	1718.25
426.81	1755.11
427.01	1724.39
427.22	1699.81
427.42	1705.96
427.63	1691.62
427.83	1677.29
428.04	1839.08
428.25	1742.82
428.45	1744.87
428.66	1812.45
428.86	1634.28
429.07	1699.81
429.28	1708.01
429.48	1689.57
429.69	1667.05
429.89	1720.29
430.10	1621.99
430.30	1736.68
430.51	1865.70
430.71	1671.14
430.92	1619.94
431.13	1626.09
431.33	1734.63
431.54	1746.92
431.74	1746.92
431.95	1755.11
432.15	1609.70
432.36	1736.68
432.56	1697.77
432.77	1789.92
432.98	1763.30
433.18	1683.43
433.39	1740.77
433.59	1697.77
433.80	1783.78
434.00	1937.38
434.21	1730.53
434.41	1615.85
434.62	1964.00
434.82	1644.52
435.03	1652.71
435.23	1740.77
435.44	1640.42
435.64	1732.58
435.85	1691.62
436.06	1705.96
436.26	1783.78
436.47	1667.05
436.67	1730.53
436.88	1714.15
437.08	1699.81
437.29	1810.40
437.49	1673.19
437.70	1714.15
437.90	1746.92
438.11	1818.60
438.31	1779.68
438.52	1816.55
438.72	1867.75
438.93	1906.66
439.13	1834.98
439.34	1781.73
439.54	1824.74
439.75	1804.26
439.95	1830.88
440.16	1730.53
440.36	1746.92
440.57	1804.26
440.77	1716.20
440.98	1718.25
441.18	1789.92
441.39	1626.09
441.59	1677.29
441.80	1820.64
442.00	1617.90
442.21	1834.98
442.41	1656.81
442.62	1744.87
442.82	1677.29
443.02	1767.40
443.23	1783.78
443.43	1642.47
443.64	1828.84
443.84	1648.61
444.05	1802.21
444.25	1712.10
444.46	1652.71
444.66	1730.53
444.87	1816.55
445.07	1697.77
445.28	1703.91
445.48	1740.77
445.69	1783.78
445.89	1810.40
446.09	1773.54
446.30	1966.05
446.50	2779.09
446.71	3698.63
446.91	4286.40
447.12	4691.90
447.32	4784.06
447.53	4233.15
447.73	3813.32
447.93	3471.31
448.14	3395.53
448.34	3114.96
448.55	2906.07
448.75	2844.63
448.96	2600.92
449.16	2459.61
449.36	2297.82
449.57	2064.35
449.77	1925.09
449.98	1785.83
450.18	1812.45
450.39	1794.02
450.59	1724.39
450.79	1656.81
451.00	1771.49
451.20	1761.25
451.41	1679.33
451.61	1828.84
451.81	1751.01
452.02	1708.01
452.22	1636.33
452.43	1677.29
452.63	1732.58
452.84	1742.82
453.04	1638.38
453.24	1718.25
453.45	1693.67
453.65	1781.73
453.86	1761.25
454.06	1816.55
454.26	1724.39
454.47	1732.58
454.67	1857.51
454.87	1769.44
455.08	1738.73
455.28	1740.77
455.49	1697.77
455.69	1767.40
455.89	1796.07
456.10	1779.68
456.30	1726.44
456.51	1767.40
456.71	1738.73
456.91	1746.92
457.12	1785.83
457.32	1677.29
457.52	1693.67
457.73	1730.53
457.93	1818.60
458.14	1665.00
458.34	1609.70
458.54	1708.01
458.75	1673.19
458.95	1886.18
459.15	1710.05
459.36	1722.34
459.56	1730.53
459.76	1789.92
459.97	1751.01
460.17	1710.05
460.37	1777.64
460.58	1708.01
460.78	1703.91
460.99	1656.81
461.19	1730.53
461.39	1728.49
461.60	1814.50
461.80	1695.72
462.00	1650.66
462.21	1716.20
462.41	1654.76
462.61	1693.67
462.82	1632.23
463.02	1759.21
463.22	1705.96
463.43	1794.02
463.63	1765.35
463.83	1847.27
464.04	1812.45
464.24	1679.33
464.44	1660.90
464.64	1708.01
464.85	1816.55
465.05	1800.16
465.25	1724.39
465.46	1726.44
465.66	1779.68
465.86	1724.39
466.07	1736.68
466.27	1767.40
466.47	1624.04
466.68	1650.66
466.88	1832.93
467.08	1808.36
467.29	1773.54
467.49	1726.44
467.69	1705.96
467.89	1783.78
468.10	1662.95
468.30	1695.72
468.50	1767.40
468.71	1796.07
468.91	1695.72
469.11	1853.41
469.31	1726.44
469.52	1617.90
469.72	1814.50
469.92	1834.98
470.13	1767.40
470.33	1714.15
470.53	1779.68
470.73	2164.70
470.94	2281.44
471.14	2367.45
471.34	2566.10
471.54	2398.17
471.75	2213.85
471.95	2181.09
472.15	2152.42
472.36	2052.06
472.56	2164.70
472.76	1931.23
472.96	1920.99
473.17	1939.43
473.37	1992.67
473.57	1755.11
473.77	1767.40
473.98	1814.50
474.18	1675.24
474.38	1925.09
474.58	1687.53
474.79	1615.85
474.99	1734.63
475.19	1789.92
475.39	1691.62
475.60	1705.96
475.80	1746.92
476.00	1712.10
476.20	1742.82
476.41	1798.12
476.61	1796.07
476.81	1802.21
477.01	1701.86
477.21	1877.99
477.42	1796.07
477.62	1648.61
477.82	1812.45
478.02	1681.38
478.23	1701.86
478.43	1652.71
478.63	1755.11
478.83	1710.05
479.03	1652.71
479.24	1730.53
479.44	1884.13
479.64	1728.49
479.84	1611.75
480.04	1701.86
480.25	1783.78
480.45	1697.77
480.65	1681.38
480.85	1791.97
481.06	1757.16
481.26	1607.66
481.46	1681.38
481.66	1705.96
481.86	1724.39
482.06	1791.97
482.27	1681.38
482.47	1619.94
482.67	1685.48
482.87	1699.81
483.07	1828.84
483.28	1677.29
483.48	1644.52
483.68	1675.24
483.88	1722.34
484.08	1589.22
484.29	1757.16
484.49	1714.15
484.69	1697.77
484.89	1736.68
485.09	1785.83
485.29	1773.54
485.50	1718.25
485.70	1693.67
485.90	1832.93
486.10	1726.44
486.30	1755.11
486.50	1775.59
486.71	1755.11
486.91	1832.93
487.11	1738.73
487.31	1615.85
487.51	1738.73
487.71	1675.24
487.91	1632.23
488.12	1714.15
488.32	1570.79
488.52	1689.57
488.72	1648.61
488.92	1773.54
489.12	1679.33
489.32	1785.83
489.53	1826.79
489.73	1695.72
489.93	1877.99
490.13	1691.62
490.33	1669.09
490.53	1834.98
490.73	1814.50
490.94	1628.14
491.14	1781.73
491.34	1873.89
491.54	2133.98
491.74	2578.39
491.94	2975.70
492.14	3176.40
492.34	3006.42
492.54	2719.70
492.75	2441.18
492.95	2400.22
493.15	2330.59
493.35	2260.96
493.55	2252.77
493.75	2123.74
493.95	2072.54
494.15	1972.19
494.35	1902.56
494.56	1890.28
494.76	1769.44
494.96	1826.79
495.16	1791.97
495.36	1689.57
495.56	1769.44
495.76	1767.40
495.96	1720.29
496.16	1669.09
496.36	1828.84
496.56	1789.92
496.77	1712.10
496.97	1761.25
497.17	1785.83
497.37	1656.81
497.57	1755.11
497.77	1681.38
497.97	1576.94
498.17	1736.68
498.37	1701.86
498.57	1812.45
498.77	1761.25
498.97	1755.11
499.17	1796.07
499.38	1726.44
499.58	1744.87
499.78	1781.73
499.98	1818.60
500.18	1773.54
500.38	1689.57
500.58	1945.57
500.78	2592.73
500.98	4485.05
501.18	5740.46
501.38	6905.75
501.58	7122.84
501.78	6621.08
501.98	5482.41
502.18	4892.60
502.38	4415.42
502.58	4083.65
502.78	3737.54
502.98	3602.38
503.18	3420.11
503.38	3141.58
503.59	2828.24
503.79	2660.31
503.99	2439.13
504.19	2306.01
504.39	2170.85
504.59	2183.13
504.79	2191.33
504.99	2031.58
505.19	2025.44
505.39	1886.18
505.59	1982.43
505.79	1931.23
505.99	1900.52
506.19	1726.44
506.39	1918.95
506.59	1738.73
506.79	1718.25
506.99	1832.93
507.19	1683.43
507.39	1740.77
507.59	1755.11
507.79	1757.16
507.99	1652.71
508.19	1679.33
508.39	1755.11
508.59	1658.85
508.79	1781.73
508.99	1794.02
509.19	1687.53
509.39	1791.97
509.59	1746.92
509.79	1695.72
509.99	1712.10
510.19	1804.26
510.39	1830.88
510.59	1615.85
510.79	1675.24
510.99	1665.00
511.19	1720.29
511.39	1847.27
511.59	1751.01
511.79	1773.54
511.99	1734.63
512.19	1861.60
512.38	1767.40
512.58	1753.06
512.78	1753.06
512.98	1767.40
513.18	1763.30
513.38	1677.29
513.58	1777.64
513.78	1724.39
513.98	1716.20
514.18	1753.06
514.38	1660.90
514.58	1722.34
514.78	1748.97
514.98	1667.05
515.18	1621.99
515.38	1693.67
515.58	1822.69
515.78	1695.72
515.98	1732.58
516.18	1757.16
516.38	1726.44
516.57	1701.86
516.77	1710.05
516.97	1814.50
517.17	1767.40
517.37	1630.18
517.57	1720.29
517.77	1785.83
517.97	1701.86
518.17	1699.81
518.37	1687.53
518.57	1724.39
518.77	1642.47
518.97	1744.87
519.16	1820.64
519.36	1763.30
519.56	1699.81
519.76	1705.96
519.96	1763.30
520.16	1845.22
520.36	1667.05
520.56	1769.44
520.76	1689.57
520.96	1699.81
521.16	1812.45
521.35	1765.35
521.55	1865.70
521.75	1701.86
521.95	1777.64
522.15	1689.57
522.35	1640.42
522.55	1671.14
522.75	1757.16
522.95	1677.29
523.14	1652.71
523.34	1802.21
523.54	1757.16
523.74	1822.69
523.94	1722.34
524.14	1636.33
524.34	1753.06
524.54	1904.61
524.73	1714.15
524.93	1796.07
525.13	1720.29
525.33	1679.33
525.53	1953.76
525.73	1804.26
525.93	1656.81
526.13	1769.44
526.32	1677.29
526.52	1789.92
526.72	1794.02
526.92	1712.10
527.12	1671.14
527.32	1609.70
527.52	1757.16
527.71	1732.58
527.91	1722.34
528.11	1726.44
528.31	1693.67
528.51	1619.94
528.71	1755.11
528.90	1767.40
529.10	1818.60
529.30	1720.29
529.50	1593.32
529.70	1720.29
529.90	1740.77
530.09	1679.33
530.29	1689.57
530.49	1773.54
530.69	1820.64
530.89	1761.25
531.09	1812.45
531.28	1718.25
531.48	1755.11
531.68	1730.53
531.88	1736.68
532.08	1775.59
532.28	1759.21
532.47	1718.25
532.67	1796.07
532.87	1738.73
533.07	1695.72
533.27	1751.01
533.46	1769.44
533.66	1708.01
533.86	1824.74
534.06	1781.73
534.26	1804.26
534.45	1632.23
534.65	1765.35
534.85	1740.77
535.05	1732.58
535.25	1740.77
535.44	1665.00
535.64	1748.97
535.84	1734.63
536.04	1734.63
536.24	1642.47
536.43	1736.68
536.63	1820.64
536.83	1794.02
537.03	1773.54
537.22	1660.90
537.42	1648.61
537.62	1748.97
537.82	1646.57
538.02	1703.91
538.21	1773.54
538.41	1843.17
538.61	1806.31
538.81	1744.87
539.00	1806.31
539.20	1650.66
539.40	1789.92
539.60	1812.45
539.79	1824.74
539.99	1773.54
540.19	1689.57
540.39	1703.91
540.58	1654.76
540.78	1738.73
540.98	1746.92
541.18	1818.60
541.37	1753.06
541.57	1705.96
541.77	1726.44
541.97	1662.95
542.16	1632.23
542.36	1644.52
542.56	1697.77
542.76	1851.36
542.95	1738.73
543.15	1695.72
543.35	1783.78
543.54	1642.47
543.74	1656.81
543.94	1841.12
544.14	1751.01
544.33	1677.29
544.53	1710.05
544.73	1708.01
544.93	1697.77
545.12	1755.11
545.32	1767.40
545.52	1738.73
545.71	1644.52
545.91	1712.10
546.11	1802.21
546.30	1695.72
546.50	1802.21
546.70	1759.21
546.90	1796.07
547.09	1652.71
547.29	1761.25
547.49	1771.49
547.68	1718.25
547.88	1695.72
548.08	1738.73
548.27	2164.70
548.47	1675.24
548.67	1652.71
548.87	1800.16
549.06	1763.30
549.26	1763.30
549.46	1744.87
549.65	1677.29
549.85	1806.31
550.05	1728.49
550.24	1687.53
550.44	1646.57
550.64	1736.68
550.83	1722.34
551.03	1800.16
551.23	1853.41
551.42	1755.11
551.62	1740.77
551.82	1751.01
552.01	1732.58
552.21	1734.63
552.41	1783.78
552.60	1759.21
552.80	1742.82
553.00	1675.24
553.19	1779.68
553.39	1834.98
553.59	1736.68
553.78	1783.78
553.98	1783.78
554.17	1662.95
554.37	1718.25
554.57	1804.26
554.76	1699.81
554.96	1673.19
555.16	1695.72
555.35	1697.77
555.55	1738.73
555.75	1714.15
555.94	1744.87
556.14	1677.29
556.33	1759.21
556.53	1761.25
556.73	1687.53
556.92	1847.27
557.12	1753.06
557.32	1730.53
557.51	1771.49
557.71	1734.63
557.90	1845.22
558.10	1779.68
558.30	1734.63
558.49	1732.58
558.69	1691.62
558.88	1742.82
559.08	1615.85
559.28	1699.81
559.47	1755.11
559.67	1757.16
559.86	1810.40
560.06	1718.25
560.26	1714.15
560.45	1658.85
560.65	1665.00
560.84	1779.68
561.04	1755.11
561.24	1771.49
561.43	1662.95
561.63	1841.12
561.82	1705.96
562.02	1701.86
562.22	1714.15
562.41	1689.57
562.61	1591.27
562.80	1677.29
563.00	1949.67
563.19	1718.25
563.39	1716.20
563.59	1869.80
563.78	1718.25
563.98	1652.71
564.17	1634.28
564.37	1603.56
564.56	1740.77
564.76	1718.25
564.96	1820.64
565.15	1798.12
565.35	1855.46
565.54	1701.86
565.74	1742.82
565.93	1746.92
566.13	1759.21
566.32	1798.12
566.52	1714.15
566.71	1722.34
566.91	1769.44
567.11	1726.44
567.30	1648.61
567.50	1769.44
567.69	1769.44
567.89	1767.40
568.08	1736.68
568.28	1740.77
568.47	1679.33
568.67	1779.68
568.86	1818.60
569.06	1820.64
569.25	1681.38
569.45	1646.57
569.64	1785.83
569.84	1724.39
570.04	1781.73
570.23	1673.19
570.43	1701.86
570.62	1773.54
570.82	1781.73
571.01	1710.05
571.21	1665.00
571.40	1746.92
571.60	1771.49
571.79	1742.82
571.99	1814.50
572.18	1662.95
572.38	1800.16
572.57	1759.21
572.77	1718.25
572.96	1910.75
573.16	1753.06
573.35	1753.06
573.55	1861.60
573.74	1875.94
573.94	1630.18
574.13	1705.96
574.33	1783.78
574.52	1736.68
574.71	1748.97
574.91	1671.14
575.10	1724.39
575.30	1677.29
575.49	1751.01
575.69	1675.24
575.88	1781.73
576.08	1626.09
576.27	1830.88
576.47	1742.82
576.66	1808.36
576.86	1787.88
577.05	1779.68
577.25	1923.04
577.44	1877.99
577.64	1685.48
577.83	1843.17
578.02	1701.86
578.22	1826.79
578.41	1804.26
578.61	1781.73
578.80	1634.28
579.00	1767.40
579.19	1763.30
579.39	1791.97
579.58	1773.54
579.77	1683.43
579.97	1869.80
580.16	1802.21
580.36	1908.71
580.55	1810.40
580.75	1726.44
580.94	1798.12
581.13	1830.88
581.33	1863.65
581.52	1742.82
581.72	1865.70
581.91	1865.70
582.11	1748.97
582.30	1746.92
582.49	1740.77
582.69	1828.84
582.88	1753.06
583.08	1824.74
583.27	1796.07
583.47	1734.63
583.66	1736.68
583.85	1693.67
584.05	1652.71
584.24	1763.30
584.44	1789.92
584.63	1746.92
584.82	1822.69
585.02	1843.17
585.21	1800.16
585.41	1800.16
585.60	1755.11
585.79	1894.37
585.99	1890.28
586.18	1837.03
586.37	2183.13
586.57	3387.34
586.76	10030.95
586.96	24620.68
587.15	34618.86
587.34	40658.32
587.54	42599.80
587.73	36355.54
587.93	26541.68
588.12	21477.05
588.31	18398.95
588.51	16236.30
588.70	15243.03
588.89	13981.48
589.09	12615.49
589.28	11034.46
589.47	9598.83
589.67	7948.17
589.86	6444.96
590.06	4886.45
590.25	3985.35
590.44	3059.67
590.64	2555.86
590.83	2215.90
591.02	2090.98
591.22	1959.91
591.41	1933.28
591.60	1886.18
591.80	1894.37
591.99	1677.29
592.18	1785.83
592.38	1751.01
592.57	1748.97
592.76	1744.87
592.96	1779.68
593.15	1763.30
593.34	1847.27
593.54	1718.25
593.73	1851.36
593.92	1771.49
594.12	1673.19
594.31	1771.49
594.50	1824.74
594.70	1794.02
594.89	1898.47
595.08	1712.10
595.28	1800.16
595.47	1959.91
595.66	1730.53
595.86	1714.15
596.05	1740.77
596.24	1722.34
596.43	1853.41
596.63	1863.65
596.82	1740.77
597.01	1683.43
597.21	1861.60
597.40	1734.63
597.59	1828.84
597.79	1714.15
597.98	1783.78
598.17	1800.16
598.36	1791.97
598.56	1734.63
598.75	1697.77
598.94	1683.43
599.14	1742.82
599.33	1703.91
599.52	1746.92
599.71	1789.92
599.91	1828.84
600.10	1679.33
600.29	1765.35
600.48	1742.82
600.68	1773.54
600.87	1742.82
601.06	1767.40
601.26	1748.97
601.45	1748.97
601.64	1708.01
601.83	1785.83
602.03	1693.67
602.22	1693.67
602.41	1775.59
602.60	1849.32
602.80	1744.87
602.99	1773.54
603.18	1724.39
603.37	1730.53
603.57	1744.87
603.76	1669.09
603.95	1791.97
604.14	1730.53
604.34	1693.67
604.53	1755.11
604.72	1763.30
604.91	1820.64
605.10	1791.97
605.30	1683.43
605.49	1896.42
605.68	1779.68
605.87	1736.68
606.07	1734.63
606.26	1759.21
606.45	1738.73
606.64	1642.47
606.84	1738.73
607.03	1765.35
607.22	1730.53
607.41	1697.77
607.60	1683.43
607.80	1718.25
607.99	1701.86
608.18	1736.68
608.37	1705.96
608.56	1703.91
608.76	1789.92
608.95	1853.41
609.14	1697.77
609.33	1675.24
609.52	1828.84
609.72	1675.24
609.91	1744.87
610.10	1722.34
610.29	1798.12
610.48	1791.97
610.68	1683.43
610.87	1736.68
611.06	1751.01
611.25	1691.62
611.44	1742.82
611.63	1708.01
611.83	1720.29
612.02	1640.42
612.21	1796.07
612.40	1628.14
612.59	1619.94
612.79	1681.38
612.98	1671.14
613.17	1839.08
613.36	1716.20
613.55	1763.30
613.74	1718.25
613.93	1654.76
614.13	1632.23
614.32	1738.73
614.51	1771.49
614.70	1800.16
614.89	1740.77
615.08	1794.02
615.28	2045.92
615.47	1650.66
615.66	1726.44
615.85	1789.92
616.04	1826.79
616.23	1722.34
616.42	1744.87
616.62	1767.40
616.81	1665.00
617.00	1656.81
617.19	1810.40
617.38	1677.29
617.57	1697.77
617.76	1789.92
617.95	1742.82
618.15	1708.01
618.34	1757.16
618.53	1703.91
618.72	1767.40
618.91	1820.64
619.10	1894.37
619.29	1687.53
619.48	1681.38
619.68	1669.09
619.87	1765.35
620.06	1677.29
620.25	1751.01
620.44	1796.07
620.63	1667.05
620.82	1767.40
621.01	1730.53
621.20	1710.05
621.39	1722.34
621.59	1720.29
621.78	1769.44
621.97	1755.11
622.16	1853.41
622.35	1740.77
622.54	1753.06
622.73	1775.59
622.92	1628.14
623.11	1794.02
623.30	1724.39
623.49	1738.73
623.68	1673.19
623.88	1837.03
624.07	1677.29
624.26	1656.81
624.45	1734.63
624.64	1687.53
624.83	1703.91
625.02	1708.01
625.21	1691.62
625.40	1689.57
625.59	1822.69
625.78	1722.34
625.97	1742.82
626.16	1806.31
626.35	1771.49
626.54	1712.10
626.74	1789.92
626.93	1744.87
627.12	1644.52
627.31	1742.82
627.50	1765.35
627.69	1773.54
627.88	1673.19
628.07	1710.05
628.26	1619.94
628.45	1662.95
628.64	1665.00
628.83	1691.62
629.02	1677.29
629.21	1730.53
629.40	1738.73
629.59	1724.39
629.78	1716.20
629.97	1753.06
630.16	1640.42
630.35	1710.05
630.54	1734.63
630.73	1693.67
630.92	1755.11
631.11	1578.98
631.30	1771.49
631.49	1775.59
631.68	1679.33
631.87	1783.78
632.06	1738.73
632.25	1859.56
632.44	1769.44
632.63	1693.67
632.82	1693.67
633.01	1640.42
633.20	1722.34
633.39	1705.96
633.58	1619.94
633.77	1718.25
633.96	1699.81
634.15	1763.30
634.34	1802.21
634.53	1748.97
634.72	1634.28
634.91	1621.99
635.10	1701.86
635.29	1732.58
635.48	1728.49
635.67	1732.58
635.86	1646.57
636.05	1730.53
636.24	1669.09
636.43	1798.12
636.62	1755.11
636.81	1601.51
637.00	1726.44
637.19	1767.40
637.38	1763.30
637.57	1710.05
637.76	1578.98
637.95	1759.21
638.14	1691.62
638.33	1630.18
638.52	1665.00
638.71	1714.15
638.89	1732.58
639.08	1814.50
639.27	1714.15
639.46	1658.85
639.65	1800.16
639.84	1714.15
640.03	1777.64
640.22	1619.94
640.41	1851.36
640.60	1687.53
640.79	1689.57
640.98	1699.81
641.17	1746.92
641.36	1687.53
641.55	1742.82
641.74	1650.66
641.92	1685.48
642.11	1718.25
642.30	1712.10
642.49	1658.85
642.68	1708.01
642.87	1681.38
643.06	1767.40
643.25	1691.62
643.44	1740.77
643.63	1738.73
643.82	1722.34
644.00	1673.19
644.19	1716.20
644.38	1705.96
644.57	1718.25
644.76	1708.01
644.95	1691.62
645.14	1732.58
645.33	1705.96
645.52	1742.82
645.71	1628.14
645.89	1658.85
646.08	1753.06
646.27	1654.76
646.46	1865.70
646.65	1583.08
646.84	1744.87
647.03	1640.42
647.22	1783.78
647.40	1724.39
647.59	1689.57
647.78	1591.27
647.97	1705.96
648.16	1671.14
648.35	1789.92
648.54	1759.21
648.73	1675.24
648.91	1746.92
649.10	1708.01
649.29	1736.68
649.48	1746.92
649.67	1757.16
649.86	1703.91
650.05	1654.76
650.23	1789.92
650.42	1628.14
650.61	1693.67
650.80	1726.44
650.99	1841.12
651.18	1787.88
651.36	1757.16
651.55	1728.49
651.74	1667.05
651.93	1734.63
652.12	1628.14
652.31	1673.19
652.49	1683.43
652.68	1656.81
652.87	1791.97
653.06	1703.91
653.25	1802.21
653.44	1722.34
653.62	1826.79
653.81	1718.25
654.00	1701.86
654.19	1691.62
654.38	1882.08
654.56	1759.21
654.75	1693.67
654.94	1734.63
655.13	1732.58
655.32	1679.33
655.51	1773.54
655.69	1646.57
655.88	1736.68
656.07	1574.89
656.26	1634.28
656.45	1675.24
656.63	1726.44
656.82	1726.44
657.01	1779.68
657.20	1703.91
657.38	1796.07
657.57	1765.35
657.76	1667.05
657.95	1732.58
658.14	1728.49
658.32	1677.29
658.51	1660.90
658.70	1712.10
658.89	1738.73
659.08	1746.92
659.26	1816.55
659.45	1597.42
659.64	1728.49
659.83	1712.10
660.01	1857.51
660.20	1722.34
660.39	1720.29
660.58	1630.18
660.76	1773.54
660.95	1658.85
661.14	1746.92
661.33	1718.25
661.51	1634.28
661.70	1730.53
661.89	1714.15
662.08	1679.33
662.26	1621.99
662.45	1699.81
662.64	1789.92
662.83	1738.73
663.01	1732.58
663.20	1669.09
663.39	1769.44
663.58	1742.82
663.76	1751.01
663.95	1875.94
664.14	1632.23
664.32	1753.06
664.51	1621.99
664.70	1656.81
664.89	1677.29
665.07	1617.90
665.26	1712.10
665.45	1642.47
665.64	1701.86
665.82	1800.16
666.01	1841.12
666.20	1734.63
666.38	1794.02
666.57	1777.64
666.76	2144.22
666.95	4589.50
667.13	10321.76
667.32	15378.20
667.51	17833.71
667.69	19113.69
667.88	17766.13
668.07	12390.21
668.25	9437.04
668.44	8044.42
668.63	7460.75
668.81	6870.94
669.00	6350.75
669.19	5648.30
669.38	5171.12
669.56	4583.35
669.75	3958.72
669.94	3461.07
670.12	2895.83
670.31	2537.43
670.50	2340.83
670.68	2000.87
670.87	2035.68
671.06	1820.64
671.24	1734.63
671.43	1826.79
671.62	1685.48
671.80	1613.80
671.99	1734.63
672.18	1677.29
672.36	1820.64
672.55	1791.97
672.74	1744.87
672.92	1644.52
673.11	1730.53
673.29	1669.09
673.48	1681.38
673.67	1736.68
673.85	1765.35
674.04	1665.00
674.23	1691.62
674.41	1779.68
674.60	1699.81
674.79	1679.33
674.97	1716.20
675.16	1808.36
675.34	1669.09
675.53	1673.19
675.72	1757.16
675.90	1839.08
676.09	1656.81
676.28	1648.61
676.46	1693.67
676.65	1761.25
676.83	1665.00
677.02	1681.38
677.21	1763.30
677.39	1667.05
677.58	1679.33
677.77	1644.52
677.95	1673.19
678.14	1646.57
678.32	1722.34
678.51	1693.67
678.70	1898.47
678.88	1710.05
679.07	1691.62
679.25	1677.29
679.44	1650.66
679.63	1677.29
679.81	1804.26
680.00	1779.68
680.18	1765.35
680.37	1738.73
680.55	1714.15
680.74	1660.90
680.93	1503.21
681.11	1734.63
681.30	1708.01
681.48	1728.49
681.67	1656.81
681.85	1705.96
682.04	1705.96
682.23	1812.45
682.41	1697.77
682.60	1675.24
682.78	1798.12
682.97	1697.77
683.15	1695.72
683.34	1732.58
683.53	1849.32
683.71	1632.23
683.90	1757.16
684.08	1763.30
684.27	1701.86
684.45	1685.48
684.64	1861.60
684.82	1685.48
685.01	1701.86
685.19	1648.61
685.38	1777.64
685.57	1699.81
685.75	1728.49
685.94	1638.38
686.12	1648.61
686.31	1644.52
686.49	1800.16
686.68	1591.27
686.86	1794.02
687.05	1648.61
687.23	1763.30
687.42	1673.19
687.60	1703.91
687.79	1662.95
687.97	1822.69
688.16	1730.53
688.34	1800.16
688.53	1595.37
688.71	1654.76
688.90	1767.40
689.08	1714.15
689.27	1632.23
689.45	1742.82
689.64	1755.11
689.82	1714.15
690.01	1798.12
690.19	1730.53
690.38	1773.54
690.56	1767.40
690.75	1701.86
690.93	1718.25
691.12	1691.62
691.30	1652.71
691.49	1611.75
691.67	1720.29
691.86	1861.60
692.04	1591.27
692.23	1679.33
692.41	1705.96
692.60	1925.09
692.78	1796.07
692.97	1656.81
693.15	1777.64
693.34	1753.06
693.52	1748.97
693.71	1652.71
693.89	1662.95
694.08	1611.75
694.26	1767.40
694.44	1767.40
694.63	1779.68
694.81	1640.42
695.00	1679.33
695.18	1767.40
695.37	1865.70
695.55	1722.34
695.74	1605.61
695.92	1746.92
696.10	1734.63
696.29	1665.00
696.47	1718.25
696.66	1640.42
696.84	1642.47
697.03	1701.86
697.21	1789.92
697.40	2238.43
697.58	1781.73
697.76	1667.05
697.95	1669.09
698.13	1615.85
698.32	1722.34
698.50	1755.11
698.68	1685.48
698.87	1736.68
699.05	1789.92
699.24	1708.01
699.42	1634.28
699.61	1785.83
699.79	1595.37
699.97	1765.35
700.16	1599.46
700.34	1730.53
700.53	1669.09
700.71	1789.92
700.89	1810.40
701.08	1705.96
701.26	1677.29
701.45	2115.55
701.63	1636.33
701.81	1742.82
702.00	1628.14
702.18	1765.35
702.37	1671.14
702.55	1714.15
702.73	1710.05
702.92	1650.66
703.10	1781.73
703.28	1673.19
703.47	1585.13
703.65	1845.22
703.84	1785.83
704.02	1763.30
704.20	1800.16
704.39	1742.82
704.57	1667.05
704.75	1771.49
704.94	1779.68
705.12	1669.09
705.30	1814.50
705.49	2267.10
705.67	4372.41
705.86	9391.98
706.04	12631.87
706.22	14516.00
706.41	15249.18
706.59	13846.32
706.77	9561.97
706.96	7468.94
707.14	6606.75
707.32	5984.16
707.51	5586.86
707.69	4884.41
707.87	4265.92
708.06	3555.27
708.24	2940.88
708.42	2406.36
708.61	2269.15
708.79	1943.52
708.97	1828.84
709.16	1755.11
709.34	1822.69
709.52	1773.54
709.71	1724.39
709.89	1681.38
710.07	1646.57
710.26	1634.28
710.44	1724.39
710.62	1734.63
710.80	1718.25
710.99	1740.77
711.17	1773.54
711.35	1716.20
711.54	1701.86
711.72	1716.20
711.90	1814.50
712.09	1775.59
712.27	1652.71
712.45	1703.91
712.63	1673.19
712.82	1734.63
713.00	1701.86
713.18	1667.05
713.37	1736.68
713.55	1804.26
713.73	1701.86
713.91	1699.81
714.10	1662.95
714.28	1761.25
714.46	1726.44
714.65	1705.96
714.83	1740.77
715.01	1699.81
715.19	1724.39
715.38	1724.39
715.56	1732.58
715.74	1695.72
715.92	1656.81
716.11	1847.27
716.29	1634.28
716.47	1724.39
716.65	1687.53
716.84	1601.51
717.02	1787.88
717.20	1669.09
717.38	1617.90
717.57	1734.63
717.75	1683.43
717.93	1718.25
718.11	1765.35
718.30	1628.14
718.48	1732.58
718.66	1753.06
718.84	1812.45
719.03	1691.62
719.21	1652.71
719.39	1845.22
719.57	1689.57
719.75	1751.01
719.94	1626.09
720.12	1640.42
720.30	1697.77
720.48	1742.82
720.67	1611.75
720.85	1716.20
721.03	1705.96
721.21	1683.43
721.39	1849.32
721.58	1720.29
721.76	1644.52
721.94	1748.97
722.12	1724.39
722.30	1791.97
722.49	1642.47
722.67	1689.57
722.85	1675.24
723.03	1660.90
723.21	1710.05
723.40	1714.15
723.58	1773.54
723.76	1701.86
723.94	1718.25
724.12	1751.01
724.30	1732.58
724.49	1751.01
724.67	1609.70
724.85	1656.81
725.03	1607.66
725.21	1728.49
725.40	1771.49
725.58	1587.18
725.76	1781.73
725.94	1734.63
726.12	1581.03
726.30	1673.19
726.49	1705.96
726.67	1738.73
726.85	1667.05
727.03	1751.01
727.21	2189.28
727.39	3041.23
727.57	3925.96
727.76	4233.15
727.94	4458.43
728.12	4368.32
728.30	3712.97
728.48	2944.98
728.66	2713.56
728.84	2623.45
729.03	2279.39
729.21	2156.51
729.39	2002.91
729.57	1832.93
729.75	1775.59
729.93	1882.08
730.11	1732.58
730.30	1763.30
730.48	1673.19
730.66	1853.41
730.84	1697.77
731.02	1730.53
731.20	1609.70
731.38	1796.07
731.56	1640.42
731.74	1660.90
731.93	1726.44
732.11	1669.09
732.29	1693.67
732.47	1751.01
732.65	1759.21
732.83	1785.83
733.01	1710.05
733.19	1640.42
733.37	1718.25
733.56	1714.15
733.74	1701.86
733.92	1740.77
734.10	1728.49
734.28	1716.20
734.46	1646.57
734.64	1699.81
734.82	1624.04
735.00	1703.91
735.18	1660.90
735.36	1667.05
735.54	1720.29
735.73	1662.95
735.91	1671.14
736.09	1763.30
736.27	1761.25
736.45	1716.20
736.63	1642.47
736.81	1673.19
736.99	1800.16
737.17	1796.07
737.35	1718.25
737.53	1728.49
737.71	1714.15
737.89	1759.21
738.07	1701.86
738.25	1693.67
738.43	1546.22
738.61	1718.25
738.80	1685.48
738.98	1716.20
739.16	1648.61
739.34	1691.62
739.52	1726.44
739.70	1667.05
739.88	1767.40
740.06	1826.79
740.24	1611.75
740.42	1646.57
740.60	1714.15
740.78	1761.25
740.96	1630.18
741.14	1658.85
741.32	1716.20
741.50	1654.76
741.68	1822.69
741.86	1800.16
742.04	1689.57
742.22	1564.65
742.40	1753.06
742.58	1689.57
742.76	1710.05
742.94	1796.07
743.12	1570.79
743.30	1624.04
743.48	1677.29
743.66	1703.91
743.84	1693.67
744.02	1578.98
744.20	1746.92
744.38	1619.94
744.56	1722.34
744.74	1742.82
744.92	1816.55
745.10	1757.16
745.28	1708.01
745.46	1822.69
745.64	1609.70
745.82	1720.29
746.00	1742.82
746.18	1722.34
746.36	1585.13
746.54	1755.11
746.72	1769.44
746.90	1658.85
747.08	1757.16
747.26	1660.90
747.44	1771.49
747.62	1724.39
747.80	1744.87
747.98	1830.88
748.15	1654.76
748.33	1800.16
748.51	1675.24
748.69	1779.68
748.87	1699.81
749.05	1693.67
749.23	1640.42
749.41	1718.25
749.59	1685.48
749.77	1742.82
749.95	1681.38
750.13	1716.20
750.31	1714.15
750.49	1644.52
750.67	1755.11
750.85	1843.17
751.03	1685.48
751.20	1800.16
751.38	1791.97
751.56	1718.25
751.74	1685.48
751.92	1703.91
752.10	1595.37
752.28	1703.91
752.46	1650.66
752.64	1646.57
752.82	1695.72
753.00	1746.92
753.18	1566.70
753.35	1681.38
753.53	1656.81
753.71	1746.92
753.89	1665.00
754.07	1722.34
754.25	1769.44
754.43	1714.15
754.61	1640.42
754.79	1759.21
754.97	1673.19
755.14	1767.40
755.32	1681.38
755.50	1816.55
755.68	1740.77
755.86	1679.33
756.04	1685.48
756.22	1615.85
756.40	1781.73
756.57	1751.01
756.75	1660.90
756.93	1843.17
757.11	1781.73
757.29	1744.87
757.47	1724.39
757.65	1611.75
757.82	1658.85
758.00	1646.57
758.18	1710.05
758.36	1630.18
758.54	1800.16
758.72	1669.09
758.90	1738.73
759.07	1734.63
759.25	1722.34
759.43	1673.19
759.61	1609.70
759.79	2187.23
759.97	1757.16
760.15	1728.49
760.32	1675.24
760.50	1634.28
760.68	1863.65
760.86	1683.43
761.04	1742.82
761.22	1748.97
761.39	1681.38
761.57	1726.44
761.75	1644.52
761.93	1771.49
762.11	1619.94
762.28	1634.28
762.46	1718.25
762.64	1820.64
762.82	1699.81
763.00	1638.38
763.18	1767.40
763.35	1652.71
763.53	1701.86
763.71	1689.57
763.89	1777.64
764.07	1695.72
764.24	1724.39
764.42	1699.81
764.60	1619.94
764.78	1683.43
764.96	1744.87
765.13	1703.91
765.31	1685.48
765.49	1722.34
765.67	1597.42
765.84	1759.21
766.02	1665.00
766.20	1667.05
766.38	1724.39
766.56	1728.49
766.73	1691.62
766.91	1646.57
767.09	1720.29
767.27	1734.63
767.44	1646.57
767.62	1755.11
767.80	1691.62
767.98	1671.14
768.15	1716.20
768.33	1757.16
768.51	1720.29
768.69	1748.97
768.87	1789.92
769.04	1740.77
769.22	1822.69
769.40	1742.82
769.58	1785.83
769.75	1759.21
769.93	1818.60
770.11	1617.90
770.28	1638.38
770.46	1789.92
770.64	1763.30
770.82	1656.81
770.99	1722.34
771.17	1728.49
771.35	1730.53
771.53	1648.61
771.70	1691.62
771.88	1734.63
772.06	1650.66
772.23	1697.77
772.41	1736.68
772.59	1654.76
772.77	1615.85
772.94	1712.10
773.12	1789.92
773.30	1689.57
773.47	1779.68
773.65	1587.18
773.83	1763.30
774.01	1779.68
774.18	1525.74
774.36	1701.86
774.54	1615.85
774.71	1683.43
774.89	1617.90
775.07	1595.37
775.24	1716.20
775.42	1656.81
775.60	1791.97
775.78	1646.57
775.95	1632.23
776.13	1673.19
776.31	1583.08
776.48	1685.48
776.66	1767.40
776.84	1675.24
777.01	1708.01
777.19	1679.33
777.37	1617.90
777.54	1681.38
777.72	1783.78
777.90	1710.05
778.07	1640.42
778.25	1849.32
778.43	1722.34
778.60	1656.81
778.78	1673.19
778.96	1744.87
779.13	1619.94
779.31	1705.96
779.49	1636.33
779.66	1785.83
779.84	1656.81
780.01	1691.62
780.19	1660.90
780.37	1769.44
780.54	1781.73
780.72	1691.62
780.90	1710.05
781.07	1693.67
781.25	1689.57
781.43	1748.97
781.60	1642.47
781.78	1800.16
781.95	1658.85
782.13	1628.14
782.31	1630.18
782.48	1576.94
782.66	1767.40
782.83	1755.11
783.01	1722.34
783.19	1714.15
783.36	1626.09
783.54	1665.00
783.72	1667.05
783.89	1685.48
784.07	1744.87
784.24	1779.68
784.42	1740.77
784.60	1740.77
784.77	1726.44
784.95	1638.38
785.12	1665.00
785.30	1617.90
785.47	1650.66
785.65	1697.77
785.83	1613.80
786.00	1693.67
786.18	1718.25
786.35	1673.19
786.53	1662.95
786.71	1783.78
786.88	1699.81
787.06	1734.63
787.23	1714.15
787.41	1675.24
787.58	1673.19
787.76	1634.28
787.94	1718.25
788.11	1746.92
788.29	1626.09
788.46	1681.38
788.64	1722.34
788.81	1734.63
788.99	1685.48
789.16	1724.39
789.34	1697.77
789.52	1624.04
789.69	1644.52
789.87	1548.26
790.04	1716.20
790.22	1648.61
790.39	1810.40
790.57	1658.85
790.74	1718.25
790.92	1773.54
791.09	1648.61
791.27	1662.95
791.44	1730.53
791.62	1759.21
791.79	1753.06
791.97	1693.67
792.15	1869.80
792.32	1710.05
792.50	1722.34
792.67	1730.53
792.85	1775.59
793.02	1675.24
793.20	1699.81
793.37	1624.04
793.55	1669.09
793.72	1525.74
793.90	1753.06
794.07	1675.24
794.25	1542.12
794.42	1722.34
794.60	1675.24
794.77	1767.40
794.95	1785.83
795.12	1726.44
795.30	1755.11
795.47	1634.28
795.65	1841.12
795.82	1771.49
796.00	1665.00
796.17	1632.23
796.34	1742.82
796.52	1734.63
796.69	1830.88
796.87	1660.90
797.04	1689.57
797.22	1746.92
797.39	1701.86
797.57	1730.53
797.74	1724.39
797.92	1712.10
798.09	1630.18
798.27	1751.01
798.44	1724.39
798.62	1705.96
798.79	1638.38
798.96	1773.54
799.14	1755.11
799.31	1890.28
799.49	1669.09
799.66	1701.86
799.84	1710.05
800.01	1640.42
800.19	1755.11
800.36	1626.09
800.53	1708.01
800.71	1679.33
800.88	1802.21
801.06	1675.24
801.23	1660.90
801.41	1669.09
801.58	1597.42
801.75	1601.51
801.93	1667.05
802.10	1771.49
802.28	1712.10
802.45	1646.57
802.63	1724.39
802.80	1685.48
802.97	1703.91
803.15	1751.01
803.32	1724.39
803.50	1679.33
803.67	1630.18
803.84	1626.09
804.02	1699.81
804.19	1646.57
804.37	1564.65
804.54	1710.05
804.71	1632.23
804.89	1597.42
805.06	1650.66
805.24	1656.81
805.41	1601.51
805.58	1640.42
805.76	1882.08
805.93	1710.05
806.10	1748.97
806.28	1775.59
806.45	1808.36
806.63	1640.42
806.80	1687.53
806.97	1791.97
807.15	1691.62
807.32	1783.78
807.49	1716.20
807.67	1646.57
807.84	1660.90
808.01	1546.22
808.19	1740.77
808.36	1814.50
808.54	1595.37
808.71	1685.48
808.88	1718.25
809.06	1777.64
809.23	1710.05
809.40	1712.10
809.58	1697.77
809.75	1689.57
809.92	1640.42
810.10	1871.84
810.27	1699.81
810.44	1744.87
810.62	1667.05
810.79	1677.29
810.96	1611.75
811.14	1646.57
811.31	1710.05
811.48	1669.09
811.66	1675.24
811.83	1753.06
812.00	1740.77
812.18	1748.97
812.35	1736.68
812.52	1632.23
812.69	1662.95
812.87	1708.01
813.04	1646.57
813.21	1662.95
813.39	1648.61
813.56	1642.47
813.73	1812.45
813.91	1628.14
814.08	1693.67
814.25	1712.10
814.42	1576.94
814.60	1632.23
814.77	1738.73
814.94	1685.48
815.12	1697.77
815.29	1742.82
815.46	1673.19
815.63	1763.30
815.81	1681.38
815.98	1665.00
816.15	1597.42
816.33	1767.40
816.50	1691.62
816.67	1691.62
816.84	1669.09
817.02	1626.09
817.19	1734.63
817.36	1642.47
817.53	1734.63
817.71	1626.09
817.88	1734.63
818.05	1677.29
818.22	1669.09
818.40	1837.03
818.57	1632.23
818.74	1771.49
818.91	1787.88
819.09	1673.19
819.26	1753.06
819.43	1763.30
819.60	1642.47
819.78	1669.09
819.95	1791.97
820.12	1615.85
820.29	1734.63
820.47	1759.21
820.64	1611.75
820.81	1597.42
820.98	1667.05
821.15	1628.14
821.33	1787.88
821.50	1566.70
821.67	1755.11
821.84	1681.38
822.02	1740.77
822.19	1742.82
822.36	1665.00
822.53	1722.34
822.70	1603.56
822.88	1656.81
823.05	1746.92
823.22	1689.57
823.39	1732.58
823.56	1724.39
823.74	1771.49
823.91	1648.61
824.08	1716.20
824.25	1699.81
824.42	1802.21
824.60	1669.09
824.77	1701.86
824.94	1648.61
825.11	1728.49
825.28	1558.50
825.45	1708.01
825.63	1730.53
825.80	1669.09
825.97	1718.25
826.14	1722.34
826.31	1677.29
826.48	1742.82
826.66	1679.33
826.83	1693.67
827.00	1763.30
827.17	1599.46
827.34	1603.56
827.51	1619.94
827.69	1703.91
827.86	1632.23
828.03	1642.47
828.20	1693.67
828.37	1693.67
828.54	1722.34
828.71	1695.72
828.89	1867.75
829.06	1697.77
829.23	1814.50
829.40	1667.05
829.57	1660.90
829.74	1728.49
829.91	1648.61
830.09	1722.34
830.26	1724.39
830.43	1701.86
830.60	1671.14
830.77	1687.53
830.94	1757.16
831.11	1724.39
831.28	1695.72
831.46	1783.78
831.63	1685.48
831.80	1763.30
831.97	1603.56
832.14	1751.01
832.31	1665.00
832.48	1665.00
832.65	1708.01
832.82	1705.96
832.99	1708.01
833.17	1601.51
833.34	1718.25
833.51	1746.92
833.68	1583.08
833.85	1773.54
834.02	1681.38
834.19	1628.14
834.36	1691.62
834.53	1722.34
834.70	1761.25
834.87	1681.38
835.04	1667.05
835.22	1589.22
835.39	1634.28
835.56	1576.94
835.73	1654.76
835.90	1837.03
836.07	1665.00
836.24	1857.51
836.41	1683.43
836.58	1603.56
836.75	1703.91
836.92	1687.53
837.09	1640.42
837.26	1708.01
837.43	1755.11
837.60	1679.33
837.77	1632.23
837.94	1744.87
838.12	1767.40
838.29	1736.68
838.46	1640.42
838.63	1665.00
838.80	1828.84
838.97	1695.72
839.14	1708.01
839.31	1673.19
839.48	1677.29
839.65	1648.61
839.82	1695.72
839.99	1708.01
840.16	1654.76
840.33	1617.90
840.50	1671.14
840.67	1646.57
840.84	1624.04
841.01	1699.81
841.18	1697.77
841.35	1601.51
841.52	1773.54
841.69	1773.54
841.86	1755.11
842.03	1628.14
842.20	1691.62
842.37	1673.19
842.54	1665.00
842.71	1746.92
842.88	1636.33
843.05	1787.88
843.22	1691.62
843.39	1718.25
843.56	1761.25
843.73	1638.38
843.90	1710.05
844.07	1708.01
844.24	1712.10
844.41	1708.01
844.58	1673.19
844.75	1689.57
844.92	1722.34
845.09	1656.81
845.26	1644.52
845.43	1742.82
845.60	1671.14
845.77	1751.01
845.94	1644.52
846.10	1695.72
846.27	1609.70
846.44	1626.09
846.61	1683.43
846.78	1675.24
846.95	1730.53
847.12	1693.67
847.29	1769.44
847.46	1660.90
847.63	1646.57
847.80	1619.94
847.97	1687.53
848.14	1771.49
848.31	1714.15
848.48	1667.05
848.65	1716.20
848.82	1677.29
848.98	1773.54
849.15	1710.05
849.32	1714.15
849.49	1695.72
849.66	1753.06
849.83	1611.75
850.00	1701.86
850.17	1738.73
850.34	1646.57
850.51	1632.23
850.68	1724.39
850.85	1789.92
851.01	1626.09
851.18	1675.24
851.35	1740.77
851.52	1685.48
851.69	1708.01
851.86	1646.57
852.03	1759.21
852.20	1708.01
852.37	1701.86
852.53	1613.80
852.70	1642.47
852.87	1691.62
853.04	1742.82
853.21	1759.21
853.38	1703.91
853.55	1748.97
853.72	1744.87
853.89	1652.71
854.05	1650.66
854.22	1599.46
854.39	1667.05
854.56	1712.10
854.73	1724.39
854.90	1667.05
855.07	1665.00
855.23	1687.53
855.40	1640.42
855.57	1712.10
855.74	1632.23
855.91	1869.80
856.08	1689.57
856.25	1621.99
856.41	1667.05
856.58	1593.32
856.75	1685.48
856.92	1632.23
857.09	1800.16
857.26	1662.95
857.42	1558.50
857.59	1720.29
857.76	1673.19
857.93	1695.72
858.10	1722.34
858.27	1667.05
858.43	1665.00
858.60	1677.29
858.77	1558.50
858.94	1667.05
859.11	1783.78
859.27	1660.90
859.44	1634.28
859.61	1779.68
859.78	1730.53
859.95	1712.10
860.12	1665.00
860.28	1808.36
860.45	1773.54
860.62	1665.00
860.79	1736.68
860.95	1671.14
861.12	1624.04
861.29	1632.23
861.46	1642.47
861.63	1667.05
861.79	1673.19
861.96	1564.65
862.13	1650.66
862.30	1740.77
862.47	1726.44
862.63	1611.75
862.80	1738.73
862.97	1730.53
863.14	1703.91
863.30	1718.25
863.47	1621.99
863.64	1730.53
863.81	1681.38
863.97	1738.73
864.14	1701.86
864.31	1675.24
864.48	1775.59
864.65	1675.24
864.81	1763.30
864.98	1755.11
865.15	1787.88
865.32	1736.68
865.48	1789.92
865.65	1757.16
865.82	1705.96
865.98	1708.01
866.15	1742.82
866.32	1671.14
866.49	1728.49
866.65	1765.35
866.82	1632.23
866.99	1693.67
867.16	1632.23
867.32	1703.91
867.49	1683.43
867.66	1681.38
867.83	1632.23
867.99	1615.85
868.16	1583.08
868.33	1591.27
868.49	1658.85
868.66	1671.14
868.83	1779.68
868.99	1697.77
869.16	1638.38
869.33	1718.25
869.50	1818.60
869.66	1730.53
869.83	1738.73
870.00	1656.81
870.16	1744.87
870.33	1599.46
870.50	1699.81
870.66	1742.82
870.83	1837.03
871.00	1673.19
871.17	1714.15
871.33	1712.10
871.50	1718.25
871.67	1697.77
871.83	1550.31
872.00	1810.40
872.17	1703.91
872.33	1746.92
872.50	1705.96
872.67	1720.29
872.83	1695.72
873.00	1746.92
873.17	1665.00
873.33	1722.34
873.50	1658.85
873.67	1685.48
873.83	1683.43
874.00	1732.58
874.16	1708.01
874.33	1695.72
874.50	1644.52
874.66	1757.16
874.83	1720.29
875.00	1826.79
875.16	1742.82
875.33	1796.07
875.50	1650.66
875.66	1603.56
875.83	1675.24
875.99	1691.62
876.16	1673.19
876.33	1705.96
876.49	1669.09
876.66	1742.82
876.83	1724.39
876.99	1605.61
877.16	1665.00
877.32	1679.33
877.49	1660.90
877.66	1667.05
877.82	1812.45
877.99	1738.73
878.15	1740.77
878.32	1705.96
878.49	1751.01
878.65	1765.35
878.82	1812.45
878.98	1708.01
879.15	1769.44
879.32	1757.16
879.48	1716.20
879.65	1658.85
879.81	1621.99
879.98	1660.90
880.15	1710.05
880.31	1757.16
880.48	1722.34
880.64	1714.15
880.81	1722.34
880.97	1777.64
881.14	1746.92
881.31	1652.71
881.47	1828.84
881.64	1726.44
881.80	1595.37
881.97	1746.92
882.13	1716.20
882.30	1632.23
882.47	1667.05
882.63	1712.10
882.80	1665.00
882.96	1679.33
883.13	1751.01
883.29	1685.48
883.46	1683.43
883.62	1759.21
883.79	1673.19
883.95	1794.02
884.12	1626.09
884.29	1701.86
884.45	1699.81
884.62	1687.53
884.78	1617.90
884.95	1740.77
885.11	1634.28
885.28	1781.73
885.44	1691.62
885.61	1728.49
885.77	1716.20
885.94	1755.11
886.10	1669.09
886.27	1650.66
886.43	1751.01
886.60	1701.86
886.76	1605.61
886.93	1673.19
887.09	1734.63
887.26	1607.66
887.42	1648.61
887.59	1830.88
887.75	1783.78
887.92	1773.54
888.08	1705.96
888.25	1853.41
888.41	1779.68
888.58	1767.40
888.74	1650.66
888.91	1708.01
>>>>>End Processed Spectral Data<<<<<
