SpectraSuite Data File
++++++++++++++++++++++++++++++++++++
Date: Mon Jun 06 13:42:57 CEST 2016
User: root
Dark Spectrum Present: No
Reference Spectrum Present: No
Number of Sampled Component Spectra: 1
Spectrometers: USB4C02835
Integration Time (usec): 100000 (USB4C02835)
Spectra Averaged: 1 (USB4C02835)
Boxcar Smoothing: 0 (USB4C02835)
Correct for Electrical Dark: No (USB4C02835)
Strobe/Lamp Enabled: No (USB4C02835)
Correct for Detector Non-linearity: No (USB4C02835)
Correct for Stray Light: No (USB4C02835)
Number of Pixels in Processed Spectrum: 3648
>>>>>Begin Processed Spectral Data<<<<<
177.47	1390.57
177.69	1390.57
177.91	1390.57
178.13	1454.06
178.36	1507.30
178.58	1605.61
178.80	1722.34
179.02	1634.28
179.24	1617.90
179.46	1683.43
179.68	1734.63
179.90	1679.33
180.13	1746.92
180.35	1644.52
180.57	1636.33
180.79	1728.49
181.01	1759.21
181.23	1755.11
181.45	1757.16
181.67	1730.53
181.90	1781.73
182.12	1722.34
182.34	1632.23
182.56	1777.64
182.78	1771.49
183.00	1677.29
183.22	1710.05
183.44	1609.70
183.66	1771.49
183.89	1732.58
184.11	1667.05
184.33	1757.16
184.55	1771.49
184.77	1726.44
184.99	1785.83
185.21	1613.80
185.43	1781.73
185.65	1605.61
185.87	1679.33
186.10	1841.12
186.32	1869.80
186.54	1714.15
186.76	1720.29
186.98	1800.16
187.20	1685.48
187.42	1685.48
187.64	1640.42
187.86	1724.39
188.08	1751.01
188.30	1665.00
188.52	1693.67
188.75	1730.53
188.97	1832.93
189.19	1687.53
189.41	1765.35
189.63	1665.00
189.85	1589.22
190.07	1701.86
190.29	1636.33
190.51	1740.77
190.73	1658.85
190.95	1834.98
191.17	1644.52
191.39	1615.85
191.61	1660.90
191.84	1642.47
192.06	1746.92
192.28	1679.33
192.50	1910.75
192.72	1779.68
192.94	1675.24
193.16	1796.07
193.38	1732.58
193.60	1710.05
193.82	1638.38
194.04	1759.21
194.26	1703.91
194.48	1718.25
194.70	1626.09
194.92	1628.14
195.14	1675.24
195.36	1626.09
195.58	1693.67
195.80	1673.19
196.02	1724.39
196.24	1630.18
196.46	1710.05
196.69	1720.29
196.91	1804.26
197.13	1714.15
197.35	1665.00
197.57	1775.59
197.79	1738.73
198.01	1671.14
198.23	1740.77
198.45	1697.77
198.67	1632.23
198.89	1763.30
199.11	1658.85
199.33	1656.81
199.55	1634.28
199.77	1660.90
199.99	1742.82
200.21	1724.39
200.43	1689.57
200.65	1581.03
200.87	1562.60
201.09	1738.73
201.31	1693.67
201.53	1757.16
201.75	1746.92
201.97	1703.91
202.19	1716.20
202.41	1734.63
202.63	1804.26
202.85	1732.58
203.07	1667.05
203.29	1675.24
203.51	1681.38
203.73	1662.95
203.95	1845.22
204.17	1746.92
204.39	1722.34
204.61	1681.38
204.83	1665.00
205.05	1675.24
205.27	1673.19
205.49	1847.27
205.71	1673.19
205.93	1605.61
206.15	1658.85
206.37	1734.63
206.59	1734.63
206.81	1626.09
207.03	1615.85
207.25	1712.10
207.47	1757.16
207.69	1761.25
207.91	1701.86
208.13	1779.68
208.34	1716.20
208.56	1613.80
208.78	1765.35
209.00	1710.05
209.22	1648.61
209.44	1640.42
209.66	1619.94
209.88	1691.62
210.10	1652.71
210.32	1685.48
210.54	1847.27
210.76	1689.57
210.98	1751.01
211.20	1624.04
211.42	1773.54
211.64	1804.26
211.86	1691.62
212.08	1779.68
212.30	1677.29
212.52	1632.23
212.74	1783.78
212.96	1638.38
213.17	1765.35
213.39	1695.72
213.61	1806.31
213.83	1738.73
214.05	1632.23
214.27	1779.68
214.49	1646.57
214.71	1703.91
214.93	1765.35
215.15	1722.34
215.37	1701.86
215.59	1636.33
215.81	1783.78
216.03	1767.40
216.24	1691.62
216.46	1671.14
216.68	1691.62
216.90	1757.16
217.12	1751.01
217.34	1705.96
217.56	1683.43
217.78	1777.64
218.00	1724.39
218.22	1675.24
218.44	1646.57
218.66	1718.25
218.87	1851.36
219.09	1681.38
219.31	1710.05
219.53	1697.77
219.75	1656.81
219.97	1738.73
220.19	1662.95
220.41	1687.53
220.63	1849.32
220.85	1693.67
221.06	1652.71
221.28	1771.49
221.50	1683.43
221.72	1697.77
221.94	1755.11
222.16	1716.20
222.38	1722.34
222.60	1671.14
222.82	1720.29
223.03	1814.50
223.25	1650.66
223.47	1744.87
223.69	1843.17
223.91	1742.82
224.13	1689.57
224.35	1722.34
224.57	1757.16
224.78	1720.29
225.00	1632.23
225.22	1714.15
225.44	1710.05
225.66	1761.25
225.88	1685.48
226.10	1824.74
226.32	1755.11
226.53	1773.54
226.75	1673.19
226.97	1722.34
227.19	1630.18
227.41	1773.54
227.63	1722.34
227.85	1578.98
228.06	1669.09
228.28	1724.39
228.50	1626.09
228.72	1722.34
228.94	1718.25
229.16	1675.24
229.37	1654.76
229.59	1660.90
229.81	1761.25
230.03	1617.90
230.25	1658.85
230.47	1687.53
230.69	1710.05
230.90	1773.54
231.12	1630.18
231.34	1751.01
231.56	1736.68
231.78	1665.00
232.00	1695.72
232.21	1736.68
232.43	1685.48
232.65	1607.66
232.87	1695.72
233.09	1603.56
233.30	1626.09
233.52	1732.58
233.74	1681.38
233.96	1763.30
234.18	1665.00
234.40	1675.24
234.61	1789.92
234.83	1574.89
235.05	1603.56
235.27	1877.99
235.49	1839.08
235.70	1724.39
235.92	1744.87
236.14	1687.53
236.36	1865.70
236.58	1665.00
236.79	1744.87
237.01	1626.09
237.23	1675.24
237.45	1851.36
237.67	1746.92
237.88	1673.19
238.10	1841.12
238.32	1605.61
238.54	1714.15
238.76	1644.52
238.97	1687.53
239.19	1654.76
239.41	1785.83
239.63	1697.77
239.85	1669.09
240.06	1677.29
240.28	1701.86
240.50	1677.29
240.72	1662.95
240.93	1800.16
241.15	1791.97
241.37	1644.52
241.59	1748.97
241.81	1691.62
242.02	1626.09
242.24	1814.50
242.46	1681.38
242.68	1648.61
242.89	1677.29
243.11	1787.88
243.33	1703.91
243.55	1748.97
243.76	1691.62
243.98	1654.76
244.20	1755.11
244.42	1685.48
244.64	1726.44
244.85	1617.90
245.07	1585.13
245.29	1714.15
245.51	1740.77
245.72	1691.62
245.94	1714.15
246.16	1695.72
246.38	1783.78
246.59	1640.42
246.81	1697.77
247.03	1656.81
247.24	1691.62
247.46	1605.61
247.68	1773.54
247.90	1703.91
248.11	1652.71
248.33	1771.49
248.55	1714.15
248.77	1724.39
248.98	1761.25
249.20	1789.92
249.42	1703.91
249.64	1732.58
249.85	1634.28
250.07	1640.42
250.29	1738.73
250.50	1695.72
250.72	1570.79
250.94	1718.25
251.16	1824.74
251.37	1830.88
251.59	1742.82
251.81	1714.15
252.02	1753.06
252.24	1714.15
252.46	1767.40
252.68	1642.47
252.89	1669.09
253.11	1611.75
253.33	1789.92
253.54	1744.87
253.76	1646.57
253.98	1705.96
254.20	1708.01
254.41	1679.33
254.63	1673.19
254.85	1566.70
255.06	1681.38
255.28	1744.87
255.50	1652.71
255.71	1697.77
255.93	1615.85
256.15	1679.33
256.36	1683.43
256.58	1693.67
256.80	1708.01
257.02	1638.38
257.23	1695.72
257.45	1751.01
257.67	1695.72
257.88	1634.28
258.10	1765.35
258.32	1695.72
258.53	1718.25
258.75	1773.54
258.97	1650.66
259.18	1718.25
259.40	1665.00
259.62	1818.60
259.83	1773.54
260.05	1638.38
260.27	1972.19
260.48	1701.86
260.70	1589.22
260.92	1665.00
261.13	1714.15
261.35	1689.57
261.57	1746.92
261.78	1634.28
262.00	1603.56
262.22	1726.44
262.43	1613.80
262.65	1656.81
262.86	1693.67
263.08	1832.93
263.30	1740.77
263.51	1632.23
263.73	1636.33
263.95	1796.07
264.16	1587.18
264.38	1742.82
264.60	1728.49
264.81	1605.61
265.03	1767.40
265.25	1722.34
265.46	1746.92
265.68	1761.25
265.89	1720.29
266.11	1654.76
266.33	1722.34
266.54	1751.01
266.76	1726.44
266.98	1789.92
267.19	1769.44
267.41	1789.92
267.62	1660.90
267.84	1644.52
268.06	1665.00
268.27	1695.72
268.49	1789.92
268.70	1761.25
268.92	1687.53
269.14	1710.05
269.35	1681.38
269.57	1646.57
269.79	1703.91
270.00	1693.67
270.22	1791.97
270.43	1685.48
270.65	1546.22
270.87	1705.96
271.08	1787.88
271.30	1816.55
271.51	1775.59
271.73	1775.59
271.95	1734.63
272.16	1716.20
272.38	1775.59
272.59	1708.01
272.81	1753.06
273.02	1724.39
273.24	1783.78
273.46	1804.26
273.67	1640.42
273.89	1640.42
274.10	1691.62
274.32	1746.92
274.54	1730.53
274.75	1738.73
274.97	1642.47
275.18	1810.40
275.40	1761.25
275.61	1720.29
275.83	1720.29
276.05	1660.90
276.26	1728.49
276.48	1769.44
276.69	1648.61
276.91	1671.14
277.12	1759.21
277.34	1812.45
277.55	1730.53
277.77	1675.24
277.99	1658.85
278.20	1656.81
278.42	1656.81
278.63	1685.48
278.85	1603.56
279.06	1568.74
279.28	1728.49
279.49	1720.29
279.71	1755.11
279.93	1685.48
280.14	1689.57
280.36	1613.80
280.57	1689.57
280.79	1730.53
281.00	1648.61
281.22	1658.85
281.43	1728.49
281.65	1587.18
281.86	1644.52
282.08	1734.63
282.29	1814.50
282.51	1619.94
282.73	1716.20
282.94	1583.08
283.16	1701.86
283.37	1783.78
283.59	1730.53
283.80	1757.16
284.02	1708.01
284.23	1773.54
284.45	1640.42
284.66	1628.14
284.88	1642.47
285.09	1779.68
285.31	1703.91
285.52	1734.63
285.74	1605.61
285.95	1644.52
286.17	1748.97
286.38	1771.49
286.60	1691.62
286.81	1669.09
287.03	1671.14
287.24	1724.39
287.46	1736.68
287.67	1695.72
287.89	1849.32
288.10	1669.09
288.32	1703.91
288.53	1765.35
288.75	1763.30
288.96	1646.57
289.18	1652.71
289.39	1716.20
289.61	1695.72
289.82	1796.07
290.04	1849.32
290.25	1585.13
290.47	1705.96
290.68	1673.19
290.90	1779.68
291.11	1583.08
291.33	1734.63
291.54	1601.51
291.76	1656.81
291.97	1689.57
292.18	1753.06
292.40	1611.75
292.61	1683.43
292.83	1820.64
293.04	1714.15
293.26	1814.50
293.47	1683.43
293.69	1669.09
293.90	1681.38
294.12	1796.07
294.33	1624.04
294.55	1718.25
294.76	1763.30
294.97	1800.16
295.19	1773.54
295.40	1609.70
295.62	1787.88
295.83	1753.06
296.05	1648.61
296.26	1751.01
296.48	1726.44
296.69	1671.14
296.90	1683.43
297.12	1777.64
297.33	1757.16
297.55	1693.67
297.76	1732.58
297.98	1714.15
298.19	1648.61
298.41	1699.81
298.62	1650.66
298.83	1738.73
299.05	1720.29
299.26	1683.43
299.48	1667.05
299.69	1703.91
299.90	1742.82
300.12	1671.14
300.33	1755.11
300.55	1665.00
300.76	1791.97
300.98	1697.77
301.19	1777.64
301.40	1624.04
301.62	1708.01
301.83	1746.92
302.05	1732.58
302.26	1689.57
302.47	1816.55
302.69	1685.48
302.90	1722.34
303.12	1583.08
303.33	1759.21
303.54	1789.92
303.76	1656.81
303.97	1675.24
304.19	1855.46
304.40	1621.99
304.61	1755.11
304.83	1826.79
305.04	1791.97
305.26	1712.10
305.47	1705.96
305.68	1710.05
305.90	1554.41
306.11	1691.62
306.33	1734.63
306.54	1660.90
306.75	1587.18
306.97	1617.90
307.18	1665.00
307.39	1662.95
307.61	1748.97
307.82	1646.57
308.04	1642.47
308.25	1648.61
308.46	1710.05
308.68	1624.04
308.89	1687.53
309.10	1720.29
309.32	1703.91
309.53	1732.58
309.74	1734.63
309.96	1734.63
310.17	1806.31
310.39	1609.70
310.60	1685.48
310.81	1654.76
311.03	1599.46
311.24	1658.85
311.45	1648.61
311.67	1787.88
311.88	1734.63
312.09	1660.90
312.31	1634.28
312.52	1689.57
312.73	1716.20
312.95	1697.77
313.16	1660.90
313.37	1669.09
313.59	1691.62
313.80	1779.68
314.01	1779.68
314.23	1652.71
314.44	1667.05
314.65	1564.65
314.87	1755.11
315.08	1671.14
315.29	1671.14
315.51	1587.18
315.72	1648.61
315.93	1775.59
316.15	1728.49
316.36	1673.19
316.57	1705.96
316.79	1744.87
317.00	1673.19
317.21	1701.86
317.43	1677.29
317.64	1716.20
317.85	1611.75
318.07	1675.24
318.28	1744.87
318.49	1849.32
318.70	1943.52
318.92	1791.97
319.13	1785.83
319.34	1810.40
319.56	1857.51
319.77	1814.50
319.98	1708.01
320.20	1748.97
320.41	1763.30
320.62	1722.34
320.83	1619.94
321.05	1841.12
321.26	1757.16
321.47	1728.49
321.69	1701.86
321.90	1693.67
322.11	1687.53
322.32	1759.21
322.54	1675.24
322.75	1673.19
322.96	1839.08
323.18	1644.52
323.39	1576.94
323.60	1591.27
323.81	1761.25
324.03	1718.25
324.24	1667.05
324.45	1703.91
324.66	1695.72
324.88	1687.53
325.09	1738.73
325.30	1763.30
325.52	1804.26
325.73	1705.96
325.94	1642.47
326.15	1628.14
326.37	1691.62
326.58	1687.53
326.79	1789.92
327.00	1628.14
327.22	1730.53
327.43	1714.15
327.64	1652.71
327.85	1671.14
328.07	1681.38
328.28	1820.64
328.49	1701.86
328.70	1681.38
328.92	1662.95
329.13	1679.33
329.34	1740.77
329.55	1767.40
329.76	1771.49
329.98	1656.81
330.19	1763.30
330.40	1693.67
330.61	1716.20
330.83	1685.48
331.04	1658.85
331.25	1710.05
331.46	1767.40
331.68	1585.13
331.89	1716.20
332.10	1621.99
332.31	1660.90
332.52	1640.42
332.74	1789.92
332.95	1660.90
333.16	1667.05
333.37	1685.48
333.58	1699.81
333.80	1683.43
334.01	1716.20
334.22	1662.95
334.43	1611.75
334.64	1728.49
334.86	1673.19
335.07	1632.23
335.28	1828.84
335.49	1636.33
335.70	1757.16
335.92	1751.01
336.13	1841.12
336.34	1763.30
336.55	1738.73
336.76	1689.57
336.98	1558.50
337.19	1755.11
337.40	1814.50
337.61	1908.71
337.82	1687.53
338.04	1800.16
338.25	1665.00
338.46	1681.38
338.67	1652.71
338.88	1660.90
339.09	1628.14
339.31	1703.91
339.52	1697.77
339.73	1685.48
339.94	1681.38
340.15	1644.52
340.36	1601.51
340.58	1697.77
340.79	1689.57
341.00	1761.25
341.21	1665.00
341.42	1808.36
341.63	1708.01
341.85	1763.30
342.06	1675.24
342.27	1556.46
342.48	1712.10
342.69	1677.29
342.90	1763.30
343.12	1720.29
343.33	1724.39
343.54	1791.97
343.75	1900.52
343.96	1626.09
344.17	1660.90
344.38	1734.63
344.60	1714.15
344.81	1685.48
345.02	1685.48
345.23	1773.54
345.44	1841.12
345.65	1697.77
345.86	1773.54
346.07	1744.87
346.29	1687.53
346.50	1714.15
346.71	1705.96
346.92	1818.60
347.13	1777.64
347.34	1681.38
347.55	1691.62
347.76	1794.02
347.98	1640.42
348.19	1654.76
348.40	1783.78
348.61	1652.71
348.82	1738.73
349.03	1726.44
349.24	1599.46
349.45	1705.96
349.66	1591.27
349.88	1671.14
350.09	1673.19
350.30	1822.69
350.51	1785.83
350.72	1785.83
350.93	1748.97
351.14	1669.09
351.35	1708.01
351.56	1738.73
351.77	1738.73
351.99	1716.20
352.20	1816.55
352.41	1812.45
352.62	1564.65
352.83	1695.72
353.04	1714.15
353.25	1697.77
353.46	1697.77
353.67	1806.31
353.88	1578.98
354.09	1734.63
354.30	1867.75
354.52	1738.73
354.73	1603.56
354.94	1660.90
355.15	1656.81
355.36	1724.39
355.57	1714.15
355.78	1683.43
355.99	1671.14
356.20	1736.68
356.41	1779.68
356.62	1779.68
356.83	1675.24
357.04	1769.44
357.25	1619.94
357.46	1583.08
357.68	1632.23
357.89	1671.14
358.10	1744.87
358.31	1683.43
358.52	1730.53
358.73	1607.66
358.94	1724.39
359.15	1722.34
359.36	1746.92
359.57	1652.71
359.78	1599.46
359.99	1689.57
360.20	1595.37
360.41	1685.48
360.62	1847.27
360.83	1660.90
361.04	1781.73
361.25	1726.44
361.46	1806.31
361.67	1728.49
361.88	1708.01
362.09	1683.43
362.30	1748.97
362.51	1650.66
362.72	1748.97
362.93	1730.53
363.14	1730.53
363.35	1722.34
363.56	1640.42
363.78	1730.53
363.99	1808.36
364.20	1716.20
364.41	1736.68
364.62	1781.73
364.83	1740.77
365.04	1726.44
365.25	1777.64
365.46	1871.84
365.67	1662.95
365.88	1638.38
366.09	1755.11
366.30	1626.09
366.51	1640.42
366.72	1605.61
366.93	1675.24
367.14	1656.81
367.35	1791.97
367.56	1693.67
367.77	1769.44
367.98	1665.00
368.18	1712.10
368.39	1695.72
368.60	1624.04
368.81	1736.68
369.02	1701.86
369.23	1761.25
369.44	1568.74
369.65	1714.15
369.86	1822.69
370.07	1720.29
370.28	1785.83
370.49	1699.81
370.70	1738.73
370.91	1656.81
371.12	1697.77
371.33	1794.02
371.54	1699.81
371.75	1839.08
371.96	1558.50
372.17	1726.44
372.38	1667.05
372.59	1748.97
372.80	1714.15
373.01	1697.77
373.22	1740.77
373.43	1734.63
373.64	1581.03
373.85	1726.44
374.06	1800.16
374.26	1697.77
374.47	1691.62
374.68	1771.49
374.89	1746.92
375.10	1656.81
375.31	1740.77
375.52	1705.96
375.73	1667.05
375.94	1619.94
376.15	1841.12
376.36	1603.56
376.57	1677.29
376.78	1710.05
376.99	1720.29
377.20	1861.60
377.40	1669.09
377.61	1771.49
377.82	1658.85
378.03	1771.49
378.24	1691.62
378.45	1718.25
378.66	1697.77
378.87	1638.38
379.08	1617.90
379.29	1665.00
379.50	1687.53
379.71	1689.57
379.91	1802.21
380.12	1607.66
380.33	1710.05
380.54	1761.25
380.75	1699.81
380.96	1685.48
381.17	1724.39
381.38	1722.34
381.59	1771.49
381.80	1716.20
382.00	1841.12
382.21	1722.34
382.42	1853.41
382.63	1869.80
382.84	1822.69
383.05	1796.07
383.26	1769.44
383.47	1665.00
383.68	1751.01
383.88	1693.67
384.09	1679.33
384.30	1830.88
384.51	1753.06
384.72	1716.20
384.93	1626.09
385.14	1671.14
385.35	1669.09
385.55	1644.52
385.76	1716.20
385.97	1724.39
386.18	1718.25
386.39	1681.38
386.60	1689.57
386.81	1751.01
387.02	1683.43
387.22	1693.67
387.43	1787.88
387.64	1798.12
387.85	1867.75
388.06	2291.68
388.27	4157.38
388.48	6637.47
388.68	8365.95
388.89	9682.80
389.10	9674.60
389.31	8542.08
389.52	7688.07
389.73	6731.67
389.93	6328.22
390.14	5904.29
390.35	5181.36
390.56	4571.07
390.77	3813.32
390.98	3059.67
391.18	2600.92
391.39	2125.79
391.60	1796.07
391.81	1888.23
392.02	1724.39
392.23	1796.07
392.43	1718.25
392.64	1757.16
392.85	1712.10
393.06	1755.11
393.27	1660.90
393.47	1703.91
393.68	1708.01
393.89	1658.85
394.10	1765.35
394.31	1693.67
394.52	1640.42
394.72	1675.24
394.93	1804.26
395.14	1689.57
395.35	1742.82
395.56	1720.29
395.76	1720.29
395.97	1740.77
396.18	1837.03
396.39	1816.55
396.60	2047.97
396.80	1935.33
397.01	1806.31
397.22	1775.59
397.43	1820.64
397.64	1669.09
397.84	1834.98
398.05	1869.80
398.26	1740.77
398.47	1785.83
398.67	1783.78
398.88	1740.77
399.09	1640.42
399.30	1708.01
399.51	1742.82
399.71	1638.38
399.92	1736.68
400.13	1753.06
400.34	1699.81
400.54	1740.77
400.75	1861.60
400.96	1806.31
401.17	1798.12
401.37	1839.08
401.58	1648.61
401.79	1697.77
402.00	1818.60
402.21	1996.77
402.41	1982.43
402.62	2052.06
402.83	2062.30
403.04	2017.25
403.24	2072.54
403.45	1820.64
403.66	1943.52
403.87	1824.74
404.07	1923.04
404.28	1933.28
404.49	1894.37
404.70	1767.40
404.90	1763.30
405.11	1755.11
405.32	1802.21
405.52	1708.01
405.73	1669.09
405.94	1650.66
406.15	1712.10
406.35	1640.42
406.56	1662.95
406.77	1763.30
406.98	1691.62
407.18	1683.43
407.39	1714.15
407.60	1736.68
407.80	1757.16
408.01	1736.68
408.22	1724.39
408.43	1697.77
408.63	1767.40
408.84	1705.96
409.05	1804.26
409.25	1691.62
409.46	1722.34
409.67	1652.71
409.88	1691.62
410.08	1724.39
410.29	1722.34
410.50	1761.25
410.70	1712.10
410.91	1591.27
411.12	1671.14
411.32	1714.15
411.53	1693.67
411.74	1826.79
411.95	1738.73
412.15	1738.73
412.36	1843.17
412.57	1791.97
412.77	1806.31
412.98	1732.58
413.19	1675.24
413.39	1763.30
413.60	1687.53
413.81	1800.16
414.01	1699.81
414.22	1744.87
414.43	1718.25
414.63	1751.01
414.84	1789.92
415.05	1691.62
415.25	1660.90
415.46	1693.67
415.67	1736.68
415.87	1720.29
416.08	1683.43
416.29	1718.25
416.49	1740.77
416.70	1726.44
416.91	1728.49
417.11	1675.24
417.32	1697.77
417.53	1767.40
417.73	1800.16
417.94	1685.48
418.15	1755.11
418.35	1763.30
418.56	1681.38
418.77	1837.03
418.97	1658.85
419.18	1615.85
419.38	1652.71
419.59	1665.00
419.80	1775.59
420.00	1689.57
420.21	1679.33
420.42	1796.07
420.62	1736.68
420.83	1689.57
421.04	1816.55
421.24	1767.40
421.45	1751.01
421.65	1730.53
421.86	1658.85
422.07	1779.68
422.27	1708.01
422.48	1710.05
422.69	1656.81
422.89	1681.38
423.10	1691.62
423.30	1652.71
423.51	1730.53
423.72	1726.44
423.92	1814.50
424.13	1619.94
424.33	1660.90
424.54	1738.73
424.75	1759.21
424.95	1794.02
425.16	1730.53
425.36	1673.19
425.57	1832.93
425.78	1753.06
425.98	1769.44
426.19	1695.72
426.39	1662.95
426.60	1716.20
426.81	1816.55
427.01	1675.24
427.22	1691.62
427.42	1632.23
427.63	1595.37
427.83	1798.12
428.04	1808.36
428.25	1800.16
428.45	1744.87
428.66	1734.63
428.86	1695.72
429.07	1697.77
429.28	1773.54
429.48	1673.19
429.69	1687.53
429.89	1742.82
430.10	1628.14
430.30	1736.68
430.51	1701.86
430.71	1671.14
430.92	1673.19
431.13	1665.00
431.33	1759.21
431.54	1818.60
431.74	1787.88
431.95	1855.46
432.15	1699.81
432.36	1693.67
432.56	1781.73
432.77	1763.30
432.98	1845.22
433.18	1714.15
433.39	1636.33
433.59	1695.72
433.80	1861.60
434.00	1841.12
434.21	1665.00
434.41	1710.05
434.62	1873.89
434.82	1576.94
435.03	1607.66
435.23	1730.53
435.44	1630.18
435.64	1705.96
435.85	1773.54
436.06	1701.86
436.26	1728.49
436.47	1665.00
436.67	1722.34
436.88	1767.40
437.08	1720.29
437.29	1820.64
437.49	1691.62
437.70	1828.84
437.90	1751.01
438.11	1845.22
438.31	1812.45
438.52	1867.75
438.72	1818.60
438.93	1888.23
439.13	1808.36
439.34	1834.98
439.54	1722.34
439.75	1738.73
439.95	1804.26
440.16	1736.68
440.36	1781.73
440.57	1779.68
440.77	1699.81
440.98	1710.05
441.18	1689.57
441.39	1697.77
441.59	1677.29
441.80	1742.82
442.00	1683.43
442.21	1873.89
442.41	1603.56
442.62	1734.63
442.82	1724.39
443.02	1726.44
443.23	1740.77
443.43	1789.92
443.64	1814.50
443.84	1724.39
444.05	1759.21
444.25	1716.20
444.46	1738.73
444.66	1812.45
444.87	1787.88
445.07	1603.56
445.28	1712.10
445.48	1695.72
445.69	1785.83
445.89	1920.99
446.09	1759.21
446.30	1992.67
446.50	2709.46
446.71	3729.35
446.91	4372.41
447.12	4841.40
447.32	4812.73
447.53	4351.93
447.73	3887.04
447.93	3557.32
448.14	3209.17
448.34	3162.06
448.55	2926.55
448.75	2848.72
448.96	2717.65
449.16	2424.80
449.36	2248.67
449.57	2062.30
449.77	1947.62
449.98	1798.12
450.18	1830.88
450.39	1755.11
450.59	1808.36
450.79	1763.30
451.00	1701.86
451.20	1818.60
451.41	1701.86
451.61	1718.25
451.81	1708.01
452.02	1779.68
452.22	1775.59
452.43	1675.24
452.63	1742.82
452.84	1746.92
453.04	1640.42
453.24	1675.24
453.45	1734.63
453.65	1650.66
453.86	1808.36
454.06	1742.82
454.26	1726.44
454.47	1685.48
454.67	1816.55
454.87	1744.87
455.08	1658.85
455.28	1869.80
455.49	1755.11
455.69	1744.87
455.89	1849.32
456.10	1820.64
456.30	1812.45
456.51	1808.36
456.71	1724.39
456.91	1740.77
457.12	1777.64
457.32	1675.24
457.52	1646.57
457.73	1728.49
457.93	1783.78
458.14	1748.97
458.34	1695.72
458.54	1728.49
458.75	1701.86
458.95	1785.83
459.15	1738.73
459.36	1710.05
459.56	1746.92
459.76	1853.41
459.97	1691.62
460.17	1775.59
460.37	1728.49
460.58	1791.97
460.78	1738.73
460.99	1634.28
461.19	1724.39
461.39	1642.47
461.60	1665.00
461.80	1736.68
462.00	1603.56
462.21	1724.39
462.41	1691.62
462.61	1646.57
462.82	1691.62
463.02	1710.05
463.22	1781.73
463.43	1728.49
463.63	1816.55
463.83	1791.97
464.04	1773.54
464.24	1708.01
464.44	1675.24
464.64	1714.15
464.85	1730.53
465.05	1773.54
465.25	1751.01
465.46	1673.19
465.66	1771.49
465.86	1771.49
466.07	1759.21
466.27	1691.62
466.47	1636.33
466.68	1669.09
466.88	1806.31
467.08	1734.63
467.29	1804.26
467.49	1761.25
467.69	1744.87
467.89	1716.20
468.10	1736.68
468.30	1716.20
468.50	1822.69
468.71	1783.78
468.91	1726.44
469.11	1830.88
469.31	1675.24
469.52	1726.44
469.72	1796.07
469.92	1894.37
470.13	1662.95
470.33	1767.40
470.53	1832.93
470.73	2099.17
470.94	2279.39
471.14	2295.77
471.34	2484.19
471.54	2281.44
471.75	2228.19
471.95	2179.04
472.15	2076.64
472.36	2144.22
472.56	2123.74
472.76	2076.64
472.96	1927.14
473.17	1951.71
473.37	1861.60
473.57	1736.68
473.77	1855.46
473.98	1828.84
474.18	1718.25
474.38	1818.60
474.58	1724.39
474.79	1701.86
474.99	1730.53
475.19	1753.06
475.39	1728.49
475.60	1804.26
475.80	1783.78
476.00	1679.33
476.20	1718.25
476.41	1699.81
476.61	1742.82
476.81	1789.92
477.01	1710.05
477.21	1828.84
477.42	1759.21
477.62	1691.62
477.82	1708.01
478.02	1738.73
478.23	1773.54
478.43	1658.85
478.63	1667.05
478.83	1728.49
479.03	1675.24
479.24	1742.82
479.44	1898.47
479.64	1626.09
479.84	1646.57
480.04	1708.01
480.25	1755.11
480.45	1642.47
480.65	1798.12
480.85	1802.21
481.06	1603.56
481.26	1665.00
481.46	1648.61
481.66	1724.39
481.86	1681.38
482.06	1798.12
482.27	1738.73
482.47	1640.42
482.67	1757.16
482.87	1705.96
483.07	1763.30
483.28	1705.96
483.48	1691.62
483.68	1744.87
483.88	1619.94
484.08	1554.41
484.29	1626.09
484.49	1779.68
484.69	1626.09
484.89	1738.73
485.09	1730.53
485.29	1828.84
485.50	1753.06
485.70	1632.23
485.90	1771.49
486.10	1773.54
486.30	1685.48
486.50	1746.92
486.71	1789.92
486.91	1779.68
487.11	1789.92
487.31	1738.73
487.51	1708.01
487.71	1591.27
487.91	1662.95
488.12	1662.95
488.32	1626.09
488.52	1722.34
488.72	1640.42
488.92	1693.67
489.12	1730.53
489.32	1705.96
489.53	1804.26
489.73	1654.76
489.93	1877.99
490.13	1683.43
490.33	1636.33
490.53	1740.77
490.73	1781.73
490.94	1636.33
491.14	1771.49
491.34	1705.96
491.54	2047.97
491.74	2547.67
491.94	2975.70
492.14	3059.67
492.34	2992.08
492.54	2758.61
492.75	2406.36
492.95	2381.79
493.15	2291.68
493.35	2369.50
493.55	2185.18
493.75	2125.79
493.95	2156.51
494.15	2017.25
494.35	1892.32
494.56	1802.21
494.76	1781.73
494.96	1796.07
495.16	1757.16
495.36	1738.73
495.56	1718.25
495.76	1726.44
495.96	1722.34
496.16	1671.14
496.36	1798.12
496.56	1705.96
496.77	1685.48
496.97	1701.86
497.17	1828.84
497.37	1665.00
497.57	1746.92
497.77	1720.29
497.97	1732.58
498.17	1671.14
498.37	1744.87
498.57	1728.49
498.77	1652.71
498.97	1798.12
499.17	1843.17
499.38	1718.25
499.58	1789.92
499.78	1734.63
499.98	1798.12
500.18	1773.54
500.38	1683.43
500.58	1935.33
500.78	2508.76
500.98	4650.94
501.18	5726.12
501.38	6659.99
501.58	7188.37
501.78	6737.82
501.98	5535.66
502.18	4988.85
502.38	4464.57
502.58	4114.37
502.78	3821.51
502.98	3551.18
503.18	3518.41
503.38	3133.39
503.59	2828.24
503.79	2801.62
503.99	2455.51
504.19	2326.49
504.39	2234.33
504.59	2168.80
504.79	2074.59
504.99	2037.73
505.19	1959.91
505.39	1839.08
505.59	1996.77
505.79	1966.05
505.99	1794.02
506.19	1794.02
506.39	1863.65
506.59	1708.01
506.79	1757.16
506.99	1814.50
507.19	1808.36
507.39	1730.53
507.59	1658.85
507.79	1708.01
507.99	1644.52
508.19	1714.15
508.39	1662.95
508.59	1644.52
508.79	1794.02
508.99	1871.84
509.19	1685.48
509.39	1800.16
509.59	1722.34
509.79	1742.82
509.99	1724.39
510.19	1759.21
510.39	1775.59
510.59	1687.53
510.79	1685.48
510.99	1652.71
511.19	1716.20
511.39	1896.42
511.59	1765.35
511.79	1804.26
511.99	1763.30
512.19	1863.65
512.38	1818.60
512.58	1697.77
512.78	1728.49
512.98	1744.87
513.18	1730.53
513.38	1626.09
513.58	1814.50
513.78	1656.81
513.98	1777.64
514.18	1685.48
514.38	1753.06
514.58	1703.91
514.78	1693.67
514.98	1681.38
515.18	1779.68
515.38	1619.94
515.58	1775.59
515.78	1724.39
515.98	1761.25
516.18	1714.15
516.38	1683.43
516.57	1697.77
516.77	1689.57
516.97	1742.82
517.17	1652.71
517.37	1693.67
517.57	1746.92
517.77	1736.68
517.97	1617.90
518.17	1804.26
518.37	1667.05
518.57	1656.81
518.77	1744.87
518.97	1755.11
519.16	1849.32
519.36	1714.15
519.56	1697.77
519.76	1728.49
519.96	1656.81
520.16	1849.32
520.36	1656.81
520.56	1839.08
520.76	1724.39
520.96	1734.63
521.16	1699.81
521.35	1763.30
521.55	1841.12
521.75	1818.60
521.95	1697.77
522.15	1685.48
522.35	1644.52
522.55	1667.05
522.75	1722.34
522.95	1734.63
523.14	1763.30
523.34	1724.39
523.54	1699.81
523.74	1804.26
523.94	1748.97
524.14	1746.92
524.34	1708.01
524.54	1818.60
524.73	1722.34
524.93	1779.68
525.13	1753.06
525.33	1599.46
525.53	1839.08
525.73	1740.77
525.93	1691.62
526.13	1712.10
526.32	1681.38
526.52	1806.31
526.72	1765.35
526.92	1701.86
527.12	1669.09
527.32	1626.09
527.52	1730.53
527.71	1800.16
527.91	1738.73
528.11	1703.91
528.31	1769.44
528.51	1693.67
528.71	1740.77
528.90	1757.16
529.10	1777.64
529.30	1779.68
529.50	1634.28
529.70	1697.77
529.90	1767.40
530.09	1730.53
530.29	1665.00
530.49	1628.14
530.69	1890.28
530.89	1755.11
531.09	1767.40
531.28	1712.10
531.48	1847.27
531.68	1763.30
531.88	1744.87
532.08	1771.49
532.28	1724.39
532.47	1822.69
532.67	1820.64
532.87	1726.44
533.07	1716.20
533.27	1746.92
533.46	1767.40
533.66	1736.68
533.86	1757.16
534.06	1703.91
534.26	1712.10
534.45	1687.53
534.65	1800.16
534.85	1732.58
535.05	1673.19
535.25	1748.97
535.44	1652.71
535.64	1675.24
535.84	1699.81
536.04	1638.38
536.24	1720.29
536.43	1671.14
536.63	1755.11
536.83	1675.24
537.03	1683.43
537.22	1662.95
537.42	1640.42
537.62	1771.49
537.82	1724.39
538.02	1746.92
538.21	1787.88
538.41	1980.39
538.61	1736.68
538.81	1732.58
539.00	1849.32
539.20	1652.71
539.40	1652.71
539.60	1730.53
539.79	1763.30
539.99	1632.23
540.19	1718.25
540.39	1656.81
540.58	1796.07
540.78	1804.26
540.98	1738.73
541.18	1769.44
541.37	1818.60
541.57	1716.20
541.77	1679.33
541.97	1691.62
542.16	1652.71
542.36	1746.92
542.56	1708.01
542.76	1791.97
542.95	1859.56
543.15	1716.20
543.35	1748.97
543.54	1665.00
543.74	1681.38
543.94	1697.77
544.14	1671.14
544.33	1783.78
544.53	1765.35
544.73	1810.40
544.93	1671.14
545.12	1687.53
545.32	1783.78
545.52	1660.90
545.71	1724.39
545.91	1742.82
546.11	1736.68
546.30	1714.15
546.50	1644.52
546.70	1806.31
546.90	1736.68
547.09	1658.85
547.29	1775.59
547.49	1697.77
547.68	1724.39
547.88	1660.90
548.08	1705.96
548.27	2191.33
548.47	1697.77
548.67	1718.25
548.87	1693.67
549.06	1701.86
549.26	1746.92
549.46	1660.90
549.65	1726.44
549.85	1738.73
550.05	1769.44
550.24	1734.63
550.44	1724.39
550.64	1736.68
550.83	1763.30
551.03	1753.06
551.23	1839.08
551.42	1767.40
551.62	1755.11
551.82	1697.77
552.01	1734.63
552.21	1789.92
552.41	1759.21
552.60	1857.51
552.80	1748.97
553.00	1660.90
553.19	1755.11
553.39	1755.11
553.59	1642.47
553.78	1781.73
553.98	1701.86
554.17	1703.91
554.37	1665.00
554.57	1746.92
554.76	1710.05
554.96	1714.15
555.16	1724.39
555.35	1804.26
555.55	1767.40
555.75	1759.21
555.94	1779.68
556.14	1599.46
556.33	1826.79
556.53	1794.02
556.73	1693.67
556.92	1781.73
557.12	1814.50
557.32	1837.03
557.51	1863.65
557.71	1794.02
557.90	1755.11
558.10	1847.27
558.30	1724.39
558.49	1693.67
558.69	1796.07
558.88	1843.17
559.08	1671.14
559.28	1736.68
559.47	1689.57
559.67	1673.19
559.86	1902.56
560.06	1714.15
560.26	1779.68
560.45	1730.53
560.65	1763.30
560.84	1787.88
561.04	1673.19
561.24	1730.53
561.43	1705.96
561.63	1888.23
561.82	1796.07
562.02	1761.25
562.22	1665.00
562.41	1742.82
562.61	1738.73
562.80	1724.39
563.00	1880.04
563.19	1767.40
563.39	1781.73
563.59	1751.01
563.78	1669.09
563.98	1630.18
564.17	1656.81
564.37	1640.42
564.56	1720.29
564.76	1648.61
564.96	1771.49
565.15	1728.49
565.35	1855.46
565.54	1734.63
565.74	1763.30
565.93	1771.49
566.13	1777.64
566.32	1859.56
566.52	1710.05
566.71	1689.57
566.91	1773.54
567.11	1695.72
567.30	1671.14
567.50	1753.06
567.69	1669.09
567.89	1697.77
568.08	1765.35
568.28	1716.20
568.47	1761.25
568.67	1736.68
568.86	1675.24
569.06	1808.36
569.25	1669.09
569.45	1634.28
569.64	1683.43
569.84	1714.15
570.04	1656.81
570.23	1705.96
570.43	1667.05
570.62	1722.34
570.82	1841.12
571.01	1751.01
571.21	1720.29
571.40	1724.39
571.60	1800.16
571.79	1660.90
571.99	1824.74
572.18	1701.86
572.38	1757.16
572.57	1669.09
572.77	1785.83
572.96	1908.71
573.16	1751.01
573.35	1736.68
573.55	1826.79
573.74	1740.77
573.94	1681.38
574.13	1677.29
574.33	1796.07
574.52	1812.45
574.71	1763.30
574.91	1816.55
575.10	1767.40
575.30	1628.14
575.49	1714.15
575.69	1660.90
575.88	1712.10
576.08	1714.15
576.27	1767.40
576.47	1691.62
576.66	1863.65
576.86	1800.16
577.05	1718.25
577.25	1742.82
577.44	1775.59
577.64	1669.09
577.83	1779.68
578.02	1716.20
578.22	1806.31
578.41	1769.44
578.61	1716.20
578.80	1673.19
579.00	1779.68
579.19	1779.68
579.39	1755.11
579.58	1800.16
579.77	1812.45
579.97	1916.90
580.16	1800.16
580.36	1859.56
580.55	1773.54
580.75	1736.68
580.94	1705.96
581.13	1851.36
581.33	1857.51
581.52	1742.82
581.72	1806.31
581.91	1810.40
582.11	1746.92
582.30	1757.16
582.49	1771.49
582.69	1798.12
582.88	1791.97
583.08	1703.91
583.27	1746.92
583.47	1712.10
583.66	1638.38
583.85	1683.43
584.05	1759.21
584.24	1777.64
584.44	1845.22
584.63	1779.68
584.82	1773.54
585.02	1884.13
585.21	1818.60
585.41	1779.68
585.60	1748.97
585.79	1984.48
585.99	1863.65
586.18	1910.75
586.37	2156.51
586.57	3416.01
586.76	9989.99
586.96	24749.70
587.15	34981.35
587.34	40492.44
587.54	42618.23
587.73	36591.06
587.93	26508.91
588.12	21745.33
588.31	18392.81
588.51	16350.98
588.70	15363.86
588.89	14276.39
589.09	12654.40
589.28	11138.90
589.47	9559.92
589.67	7956.36
589.86	6555.55
590.06	4990.90
590.25	4007.87
590.44	3198.93
590.64	2566.10
590.83	2275.29
591.02	2111.46
591.22	1943.52
591.41	1990.63
591.60	1865.70
591.80	1959.91
591.99	1726.44
592.18	1753.06
592.38	1777.64
592.57	1751.01
592.76	1679.33
592.96	1755.11
593.15	1755.11
593.34	1828.84
593.54	1783.78
593.73	1748.97
593.92	1810.40
594.12	1759.21
594.31	1763.30
594.50	1794.02
594.70	1742.82
594.89	1923.04
595.08	1689.57
595.28	1791.97
595.47	1920.99
595.66	1783.78
595.86	1601.51
596.05	1771.49
596.24	1734.63
596.43	1837.03
596.63	1759.21
596.82	1724.39
597.01	1777.64
597.21	1871.84
597.40	1746.92
597.59	1777.64
597.79	1718.25
597.98	1744.87
598.17	1726.44
598.36	1656.81
598.56	1744.87
598.75	1671.14
598.94	1703.91
599.14	1726.44
599.33	1728.49
599.52	1830.88
599.71	1689.57
599.91	1806.31
600.10	1804.26
600.29	1722.34
600.48	1812.45
600.68	1708.01
600.87	1775.59
601.06	1689.57
601.26	1755.11
601.45	1740.77
601.64	1714.15
601.83	1775.59
602.03	1755.11
602.22	1624.04
602.41	1810.40
602.60	1888.23
602.80	1718.25
602.99	1763.30
603.18	1650.66
603.37	1808.36
603.57	1826.79
603.76	1736.68
603.95	1736.68
604.14	1705.96
604.34	1644.52
604.53	1787.88
604.72	1714.15
604.91	1724.39
605.10	1744.87
605.30	1705.96
605.49	1796.07
605.68	1789.92
605.87	1669.09
606.07	1708.01
606.26	1740.77
606.45	1783.78
606.64	1757.16
606.84	1771.49
607.03	1667.05
607.22	1753.06
607.41	1691.62
607.60	1673.19
607.80	1779.68
607.99	1820.64
608.18	1806.31
608.37	1681.38
608.56	1648.61
608.76	1699.81
608.95	1742.82
609.14	1755.11
609.33	1767.40
609.52	1787.88
609.72	1775.59
609.91	1740.77
610.10	1734.63
610.29	1798.12
610.48	1767.40
610.68	1716.20
610.87	1773.54
611.06	1738.73
611.25	1746.92
611.44	1820.64
611.63	1734.63
611.83	1775.59
612.02	1667.05
612.21	1798.12
612.40	1587.18
612.59	1652.71
612.79	1730.53
612.98	1687.53
613.17	1794.02
613.36	1714.15
613.55	1810.40
613.74	1710.05
613.93	1628.14
614.13	1748.97
614.32	1720.29
614.51	1738.73
614.70	1724.39
614.89	1681.38
615.08	1744.87
615.28	1978.34
615.47	1675.24
615.66	1683.43
615.85	1705.96
616.04	1755.11
616.23	1769.44
616.42	1740.77
616.62	1722.34
616.81	1732.58
617.00	1710.05
617.19	1738.73
617.38	1701.86
617.57	1685.48
617.76	1730.53
617.95	1765.35
618.15	1681.38
618.34	1882.08
618.53	1564.65
618.72	1832.93
618.91	1804.26
619.10	1847.27
619.29	1703.91
619.48	1800.16
619.68	1710.05
619.87	1724.39
620.06	1658.85
620.25	1742.82
620.44	1767.40
620.63	1685.48
620.82	1697.77
621.01	1755.11
621.20	1703.91
621.39	1781.73
621.59	1658.85
621.78	1748.97
621.97	1826.79
622.16	1748.97
622.35	1673.19
622.54	1751.01
622.73	1777.64
622.92	1654.76
623.11	1759.21
623.30	1753.06
623.49	1771.49
623.68	1681.38
623.88	1779.68
624.07	1671.14
624.26	1769.44
624.45	1736.68
624.64	1660.90
624.83	1738.73
625.02	1712.10
625.21	1755.11
625.40	1705.96
625.59	1771.49
625.78	1763.30
625.97	1814.50
626.16	1728.49
626.35	1834.98
626.54	1810.40
626.74	1818.60
626.93	1667.05
627.12	1652.71
627.31	1742.82
627.50	1658.85
627.69	1806.31
627.88	1658.85
628.07	1728.49
628.26	1687.53
628.45	1699.81
628.64	1636.33
628.83	1671.14
629.02	1607.66
629.21	1742.82
629.40	1697.77
629.59	1669.09
629.78	1716.20
629.97	1683.43
630.16	1734.63
630.35	1681.38
630.54	1724.39
630.73	1730.53
630.92	1652.71
631.11	1669.09
631.30	1722.34
631.49	1791.97
631.68	1693.67
631.87	1744.87
632.06	1662.95
632.25	1863.65
632.44	1648.61
632.63	1724.39
632.82	1683.43
633.01	1714.15
633.20	1708.01
633.39	1611.75
633.58	1607.66
633.77	1748.97
633.96	1703.91
634.15	1726.44
634.34	1701.86
634.53	1759.21
634.72	1695.72
634.91	1701.86
635.10	1689.57
635.29	1710.05
635.48	1742.82
635.67	1669.09
635.86	1628.14
636.05	1746.92
636.24	1714.15
636.43	1755.11
636.62	1738.73
636.81	1640.42
637.00	1699.81
637.19	1802.21
637.38	1693.67
637.57	1726.44
637.76	1693.67
637.95	1681.38
638.14	1732.58
638.33	1826.79
638.52	1693.67
638.71	1699.81
638.89	1685.48
639.08	1810.40
639.27	1783.78
639.46	1669.09
639.65	1755.11
639.84	1759.21
640.03	1783.78
640.22	1751.01
640.41	1800.16
640.60	1619.94
640.79	1648.61
640.98	1677.29
641.17	1691.62
641.36	1751.01
641.55	1773.54
641.74	1669.09
641.92	1650.66
642.11	1654.76
642.30	1761.25
642.49	1714.15
642.68	1665.00
642.87	1722.34
643.06	1773.54
643.25	1669.09
643.44	1640.42
643.63	1697.77
643.82	1781.73
644.00	1681.38
644.19	1753.06
644.38	1697.77
644.57	1710.05
644.76	1712.10
644.95	1716.20
645.14	1710.05
645.33	1679.33
645.52	1746.92
645.71	1583.08
645.89	1675.24
646.08	1667.05
646.27	1669.09
646.46	1828.84
646.65	1683.43
646.84	1732.58
647.03	1687.53
647.22	1777.64
647.40	1781.73
647.59	1771.49
647.78	1662.95
647.97	1712.10
648.16	1726.44
648.35	1748.97
648.54	1744.87
648.73	1724.39
648.91	1765.35
649.10	1728.49
649.29	1726.44
649.48	1734.63
649.67	1724.39
649.86	1689.57
650.05	1652.71
650.23	1812.45
650.42	1701.86
650.61	1804.26
650.80	1787.88
650.99	1910.75
651.18	1708.01
651.36	1804.26
651.55	1722.34
651.74	1767.40
651.93	1689.57
652.12	1773.54
652.31	1738.73
652.49	1746.92
652.68	1701.86
652.87	1781.73
653.06	1714.15
653.25	1882.08
653.44	1736.68
653.62	1832.93
653.81	1691.62
654.00	1708.01
654.19	1740.77
654.38	1826.79
654.56	1746.92
654.75	1691.62
654.94	1773.54
655.13	1732.58
655.32	1681.38
655.51	1812.45
655.69	1654.76
655.88	1669.09
656.07	1628.14
656.26	1703.91
656.45	1624.04
656.63	1673.19
656.82	1699.81
657.01	1724.39
657.20	1640.42
657.38	1804.26
657.57	1689.57
657.76	1667.05
657.95	1767.40
658.14	1708.01
658.32	1761.25
658.51	1681.38
658.70	1738.73
658.89	1742.82
659.08	1708.01
659.26	1822.69
659.45	1708.01
659.64	1783.78
659.83	1710.05
660.01	1906.66
660.20	1685.48
660.39	1804.26
660.58	1615.85
660.76	1804.26
660.95	1634.28
661.14	1746.92
661.33	1650.66
661.51	1716.20
661.70	1822.69
661.89	1718.25
662.08	1689.57
662.26	1705.96
662.45	1638.38
662.64	1863.65
662.83	1755.11
663.01	1683.43
663.20	1701.86
663.39	1753.06
663.58	1656.81
663.76	1720.29
663.95	1812.45
664.14	1683.43
664.32	1773.54
664.51	1638.38
664.70	1683.43
664.89	1712.10
665.07	1644.52
665.26	1826.79
665.45	1599.46
665.64	1826.79
665.82	1720.29
666.01	1804.26
666.20	1667.05
666.38	1814.50
666.57	1789.92
666.76	2158.56
666.95	4548.54
667.13	10573.66
667.32	15306.52
667.51	18015.98
667.69	19234.52
667.88	17792.75
668.07	12545.86
668.25	9553.77
668.44	8189.83
668.63	7235.47
668.81	6758.30
669.00	6393.76
669.19	5779.37
669.38	5076.91
669.56	4587.45
669.75	3979.20
669.94	3502.03
670.12	2895.83
670.31	2535.39
670.50	2246.62
670.68	2090.98
670.87	2013.15
671.06	1804.26
671.24	1751.01
671.43	1783.78
671.62	1773.54
671.80	1677.29
671.99	1767.40
672.18	1765.35
672.36	1732.58
672.55	1720.29
672.74	1689.57
672.92	1679.33
673.11	1744.87
673.29	1658.85
673.48	1796.07
673.67	1718.25
673.85	1705.96
674.04	1775.59
674.23	1644.52
674.41	1798.12
674.60	1662.95
674.79	1566.70
674.97	1679.33
675.16	1791.97
675.34	1751.01
675.53	1611.75
675.72	1765.35
675.90	1837.03
676.09	1683.43
676.28	1685.48
676.46	1593.32
676.65	1718.25
676.83	1626.09
677.02	1669.09
677.21	1740.77
677.39	1671.14
677.58	1640.42
677.77	1658.85
677.95	1615.85
678.14	1738.73
678.32	1693.67
678.51	1689.57
678.70	1955.81
678.88	1761.25
679.07	1714.15
679.25	1705.96
679.44	1675.24
679.63	1624.04
679.81	1705.96
680.00	1798.12
680.18	1738.73
680.37	1837.03
680.55	1648.61
680.74	1673.19
680.93	1617.90
681.11	1785.83
681.30	1796.07
681.48	1705.96
681.67	1671.14
681.85	1751.01
682.04	1673.19
682.23	1746.92
682.41	1705.96
682.60	1693.67
682.78	1699.81
682.97	1738.73
683.15	1724.39
683.34	1679.33
683.53	1730.53
683.71	1587.18
683.90	1718.25
684.08	1736.68
684.27	1665.00
684.45	1695.72
684.64	1771.49
684.82	1755.11
685.01	1781.73
685.19	1654.76
685.38	1783.78
685.57	1699.81
685.75	1624.04
685.94	1732.58
686.12	1679.33
686.31	1607.66
686.49	1820.64
686.68	1634.28
686.86	1808.36
687.05	1746.92
687.23	1773.54
687.42	1732.58
687.60	1603.56
687.79	1787.88
687.97	1736.68
688.16	1783.78
688.34	1804.26
688.53	1603.56
688.71	1761.25
688.90	1742.82
689.08	1689.57
689.27	1669.09
689.45	1705.96
689.64	1683.43
689.82	1714.15
690.01	1791.97
690.19	1722.34
690.38	1730.53
690.56	1791.97
690.75	1675.24
690.93	1691.62
691.12	1685.48
691.30	1669.09
691.49	1636.33
691.67	1632.23
691.86	1800.16
692.04	1691.62
692.23	1665.00
692.41	1693.67
692.60	1828.84
692.78	1769.44
692.97	1671.14
693.15	1820.64
693.34	1804.26
693.52	1802.21
693.71	1619.94
693.89	1658.85
694.08	1568.74
694.26	1732.58
694.44	1763.30
694.63	1681.38
694.81	1626.09
695.00	1683.43
695.18	1716.20
695.37	1816.55
695.55	1726.44
695.74	1730.53
695.92	1599.46
696.10	1759.21
696.29	1542.12
696.47	1669.09
696.66	1611.75
696.84	1695.72
697.03	1708.01
697.21	1812.45
697.40	2279.39
697.58	1712.10
697.76	1689.57
697.95	1628.14
698.13	1675.24
698.32	1724.39
698.50	1724.39
698.68	1746.92
698.87	1675.24
699.05	1804.26
699.24	1722.34
699.42	1609.70
699.61	1726.44
699.79	1693.67
699.97	1693.67
700.16	1628.14
700.34	1583.08
700.53	1632.23
700.71	1753.06
700.89	1769.44
701.08	1675.24
701.26	1712.10
701.45	2099.17
701.63	1685.48
701.81	1642.47
702.00	1638.38
702.18	1726.44
702.37	1607.66
702.55	1757.16
702.73	1697.77
702.92	1642.47
703.10	1757.16
703.28	1802.21
703.47	1714.15
703.65	1736.68
703.84	1732.58
704.02	1724.39
704.20	1875.94
704.39	1605.61
704.57	1708.01
704.75	1775.59
704.94	1714.15
705.12	1763.30
705.30	1761.25
705.49	2265.05
705.67	4458.43
705.86	9310.07
706.04	12904.25
706.22	14413.60
706.41	15353.62
706.59	13760.30
706.77	9701.23
706.96	7573.39
707.14	6459.29
707.32	5943.21
707.51	5631.91
707.69	5052.34
707.87	4104.13
708.06	3508.17
708.24	3047.38
708.42	2441.18
708.61	2289.63
708.79	1880.04
708.97	1755.11
709.16	1742.82
709.34	1837.03
709.52	1722.34
709.71	1722.34
709.89	1865.70
710.07	1632.23
710.26	1656.81
710.44	1701.86
710.62	1806.31
710.80	1624.04
710.99	1828.84
711.17	1767.40
711.35	1697.77
711.54	1730.53
711.72	1822.69
711.90	1671.14
712.09	1738.73
712.27	1650.66
712.45	1687.53
712.63	1665.00
712.82	1685.48
713.00	1736.68
713.18	1708.01
713.37	1691.62
713.55	1710.05
713.73	1708.01
713.91	1679.33
714.10	1708.01
714.28	1691.62
714.46	1755.11
714.65	1785.83
714.83	1710.05
715.01	1697.77
715.19	1716.20
715.38	1624.04
715.56	1695.72
715.74	1681.38
715.92	1593.32
716.11	1857.51
716.29	1714.15
716.47	1681.38
716.65	1726.44
716.84	1624.04
717.02	1759.21
717.20	1665.00
717.38	1669.09
717.57	1693.67
717.75	1796.07
717.93	1705.96
718.11	1712.10
718.30	1695.72
718.48	1701.86
718.66	1716.20
718.84	1789.92
719.03	1718.25
719.21	1665.00
719.39	1767.40
719.57	1695.72
719.75	1732.58
719.94	1665.00
720.12	1701.86
720.30	1650.66
720.48	1755.11
720.67	1626.09
720.85	1638.38
721.03	1636.33
721.21	1638.38
721.39	1730.53
721.58	1730.53
721.76	1726.44
721.94	1693.67
722.12	1689.57
722.30	1796.07
722.49	1708.01
722.67	1718.25
722.85	1722.34
723.03	1601.51
723.21	1697.77
723.40	1603.56
723.58	1781.73
723.76	1771.49
723.94	1699.81
724.12	1728.49
724.30	1785.83
724.49	1675.24
724.67	1648.61
724.85	1808.36
725.03	1656.81
725.21	1757.16
725.40	1794.02
725.58	1648.61
725.76	1810.40
725.94	1699.81
726.12	1710.05
726.30	1697.77
726.49	1634.28
726.67	1624.04
726.85	1644.52
727.03	1748.97
727.21	2258.91
727.39	2918.36
727.57	3825.61
727.76	4278.21
727.94	4448.19
728.12	4507.58
728.30	3696.58
728.48	3039.19
728.66	2746.33
728.84	2506.71
729.03	2297.82
729.21	2256.86
729.39	1931.23
729.57	1783.78
729.75	1834.98
729.93	1880.04
730.11	1669.09
730.30	1712.10
730.48	1683.43
730.66	1771.49
730.84	1734.63
731.02	1689.57
731.20	1720.29
731.38	1722.34
731.56	1603.56
731.74	1624.04
731.93	1699.81
732.11	1714.15
732.29	1695.72
732.47	1724.39
732.65	1736.68
732.83	1751.01
733.01	1667.05
733.19	1699.81
733.37	1767.40
733.56	1777.64
733.74	1734.63
733.92	1814.50
734.10	1673.19
734.28	1708.01
734.46	1632.23
734.64	1742.82
734.82	1654.76
735.00	1703.91
735.18	1685.48
735.36	1677.29
735.54	1708.01
735.73	1724.39
735.91	1789.92
736.09	1753.06
736.27	1648.61
736.45	1705.96
736.63	1665.00
736.81	1650.66
736.99	1787.88
737.17	1855.46
737.35	1722.34
737.53	1703.91
737.71	1697.77
737.89	1681.38
738.07	1679.33
738.25	1669.09
738.43	1656.81
738.61	1691.62
738.80	1646.57
738.98	1636.33
739.16	1681.38
739.34	1675.24
739.52	1816.55
739.70	1634.28
739.88	1701.86
740.06	1771.49
740.24	1595.37
740.42	1824.74
740.60	1558.50
740.78	1691.62
740.96	1521.64
741.14	1683.43
741.32	1755.11
741.50	1615.85
741.68	1796.07
741.86	1783.78
742.04	1626.09
742.22	1648.61
742.40	1730.53
742.58	1705.96
742.76	1697.77
742.94	1767.40
743.12	1650.66
743.30	1669.09
743.48	1751.01
743.66	1681.38
743.84	1738.73
744.02	1617.90
744.20	1656.81
744.38	1634.28
744.56	1667.05
744.74	1839.08
744.92	1755.11
745.10	1845.22
745.28	1730.53
745.46	1814.50
745.64	1652.71
745.82	1755.11
746.00	1671.14
746.18	1669.09
746.36	1632.23
746.54	1683.43
746.72	1708.01
746.90	1669.09
747.08	1834.98
747.26	1652.71
747.44	1765.35
747.62	1650.66
747.80	1742.82
747.98	1742.82
748.15	1722.34
748.33	1755.11
748.51	1697.77
748.69	1677.29
748.87	1656.81
749.05	1669.09
749.23	1767.40
749.41	1744.87
749.59	1697.77
749.77	1740.77
749.95	1699.81
750.13	1699.81
750.31	1722.34
750.49	1716.20
750.67	1710.05
750.85	1810.40
751.03	1718.25
751.20	1771.49
751.38	1681.38
751.56	1687.53
751.74	1730.53
751.92	1689.57
752.10	1665.00
752.28	1767.40
752.46	1671.14
752.64	1628.14
752.82	1716.20
753.00	1757.16
753.18	1675.24
753.35	1671.14
753.53	1722.34
753.71	1673.19
753.89	1673.19
754.07	1644.52
754.25	1771.49
754.43	1705.96
754.61	1654.76
754.79	1671.14
754.97	1798.12
755.14	1804.26
755.32	1601.51
755.50	1665.00
755.68	1724.39
755.86	1683.43
756.04	1708.01
756.22	1654.76
756.40	1787.88
756.57	1763.30
756.75	1665.00
756.93	1740.77
757.11	1730.53
757.29	1624.04
757.47	1568.74
757.65	1607.66
757.82	1587.18
758.00	1710.05
758.18	1763.30
758.36	1632.23
758.54	1789.92
758.72	1554.41
758.90	1773.54
759.07	1667.05
759.25	1648.61
759.43	1720.29
759.61	1595.37
759.79	2185.18
759.97	1873.89
760.15	1699.81
760.32	1675.24
760.50	1638.38
760.68	1746.92
760.86	1632.23
761.04	1703.91
761.22	1726.44
761.39	1630.18
761.57	1773.54
761.75	1687.53
761.93	1744.87
762.11	1697.77
762.28	1722.34
762.46	1652.71
762.64	1759.21
762.82	1615.85
763.00	1662.95
763.18	1748.97
763.35	1648.61
763.53	1732.58
763.71	1689.57
763.89	1740.77
764.07	1675.24
764.24	1689.57
764.42	1720.29
764.60	1730.53
764.78	1810.40
764.96	1685.48
765.13	1732.58
765.31	1767.40
765.49	1759.21
765.67	1644.52
765.84	1667.05
766.02	1714.15
766.20	1638.38
766.38	1763.30
766.56	1681.38
766.73	1771.49
766.91	1748.97
767.09	1667.05
767.27	1675.24
767.44	1728.49
767.62	1724.39
767.80	1673.19
767.98	1671.14
768.15	1685.48
768.33	1730.53
768.51	1712.10
768.69	1681.38
768.87	1730.53
769.04	1730.53
769.22	1845.22
769.40	1767.40
769.58	1785.83
769.75	1679.33
769.93	1742.82
770.11	1640.42
770.28	1691.62
770.46	1769.44
770.64	1697.77
770.82	1662.95
770.99	1697.77
771.17	1710.05
771.35	1681.38
771.53	1640.42
771.70	1681.38
771.88	1771.49
772.06	1628.14
772.23	1675.24
772.41	1740.77
772.59	1724.39
772.77	1605.61
772.94	1714.15
773.12	1765.35
773.30	1705.96
773.47	1658.85
773.65	1753.06
773.83	1738.73
774.01	1673.19
774.18	1630.18
774.36	1634.28
774.54	1611.75
774.71	1751.01
774.89	1605.61
775.07	1701.86
775.24	1716.20
775.42	1705.96
775.60	1794.02
775.78	1634.28
775.95	1658.85
776.13	1599.46
776.31	1542.12
776.48	1708.01
776.66	1761.25
776.84	1599.46
777.01	1673.19
777.19	1654.76
777.37	1632.23
777.54	1726.44
777.72	1777.64
777.90	1642.47
778.07	1673.19
778.25	1855.46
778.43	1730.53
778.60	1634.28
778.78	1781.73
778.96	1775.59
779.13	1642.47
779.31	1789.92
779.49	1705.96
779.66	1722.34
779.84	1695.72
780.01	1742.82
780.19	1679.33
780.37	1746.92
780.54	1781.73
780.72	1656.81
780.90	1650.66
781.07	1734.63
781.25	1656.81
781.43	1724.39
781.60	1701.86
781.78	1718.25
781.95	1697.77
782.13	1669.09
782.31	1660.90
782.48	1560.55
782.66	1667.05
782.83	1851.36
783.01	1742.82
783.19	1681.38
783.36	1748.97
783.54	1656.81
783.72	1689.57
783.89	1626.09
784.07	1656.81
784.24	1648.61
784.42	1771.49
784.60	1712.10
784.77	1755.11
784.95	1640.42
785.12	1730.53
785.30	1746.92
785.47	1679.33
785.65	1662.95
785.83	1660.90
786.00	1740.77
786.18	1722.34
786.35	1669.09
786.53	1660.90
786.71	1763.30
786.88	1744.87
787.06	1695.72
787.23	1728.49
787.41	1695.72
787.58	1605.61
787.76	1605.61
787.94	1699.81
788.11	1736.68
788.29	1642.47
788.46	1710.05
788.64	1673.19
788.81	1689.57
788.99	1652.71
789.16	1660.90
789.34	1652.71
789.52	1681.38
789.69	1687.53
789.87	1646.57
790.04	1712.10
790.22	1759.21
790.39	1753.06
790.57	1617.90
790.74	1574.89
790.92	1757.16
791.09	1619.94
791.27	1689.57
791.44	1796.07
791.62	1656.81
791.79	1775.59
791.97	1669.09
792.15	1832.93
792.32	1738.73
792.50	1755.11
792.67	1796.07
792.85	1773.54
793.02	1648.61
793.20	1624.04
793.37	1538.02
793.55	1693.67
793.72	1595.37
793.90	1734.63
794.07	1628.14
794.25	1648.61
794.42	1656.81
794.60	1697.77
794.77	1716.20
794.95	1716.20
795.12	1730.53
795.30	1748.97
795.47	1601.51
795.65	1867.75
795.82	1646.57
796.00	1632.23
796.17	1724.39
796.34	1626.09
796.52	1697.77
796.69	1787.88
796.87	1736.68
797.04	1714.15
797.22	1714.15
797.39	1710.05
797.57	1722.34
797.74	1718.25
797.92	1720.29
798.09	1673.19
798.27	1767.40
798.44	1830.88
798.62	1687.53
798.79	1615.85
798.96	1771.49
799.14	1648.61
799.31	1845.22
799.49	1703.91
799.66	1689.57
799.84	1693.67
800.01	1665.00
800.19	1755.11
800.36	1644.52
800.53	1771.49
800.71	1742.82
800.88	1769.44
801.06	1681.38
801.23	1632.23
801.41	1705.96
801.58	1705.96
801.75	1710.05
801.93	1689.57
802.10	1755.11
802.28	1681.38
802.45	1632.23
802.63	1710.05
802.80	1722.34
802.97	1736.68
803.15	1640.42
803.32	1603.56
803.50	1689.57
803.67	1697.77
803.84	1734.63
804.02	1695.72
804.19	1689.57
804.37	1595.37
804.54	1613.80
804.71	1554.41
804.89	1722.34
805.06	1660.90
805.24	1642.47
805.41	1605.61
805.58	1681.38
805.76	1796.07
805.93	1675.24
806.10	1746.92
806.28	1748.97
806.45	1685.48
806.63	1689.57
806.80	1806.31
806.97	1732.58
807.15	1742.82
807.32	1679.33
807.49	1650.66
807.67	1697.77
807.84	1708.01
808.01	1658.85
808.19	1689.57
808.36	1843.17
808.54	1722.34
808.71	1660.90
808.88	1714.15
809.06	1705.96
809.23	1808.36
809.40	1597.42
809.58	1716.20
809.75	1718.25
809.92	1697.77
810.10	1847.27
810.27	1699.81
810.44	1714.15
810.62	1714.15
810.79	1644.52
810.96	1640.42
811.14	1632.23
811.31	1701.86
811.48	1740.77
811.66	1665.00
811.83	1789.92
812.00	1753.06
812.18	1730.53
812.35	1853.41
812.52	1728.49
812.69	1716.20
812.87	1740.77
813.04	1701.86
813.21	1753.06
813.39	1691.62
813.56	1656.81
813.73	1695.72
813.91	1607.66
814.08	1742.82
814.25	1748.97
814.42	1683.43
814.60	1658.85
814.77	1697.77
814.94	1607.66
815.12	1720.29
815.29	1804.26
815.46	1720.29
815.63	1720.29
815.81	1703.91
815.98	1673.19
816.15	1736.68
816.33	1722.34
816.50	1578.98
816.67	1699.81
816.84	1728.49
817.02	1646.57
817.19	1652.71
817.36	1695.72
817.53	1654.76
817.71	1617.90
817.88	1744.87
818.05	1732.58
818.22	1656.81
818.40	1779.68
818.57	1624.04
818.74	1708.01
818.91	1660.90
819.09	1705.96
819.26	1753.06
819.43	1675.24
819.60	1689.57
819.78	1714.15
819.95	1781.73
820.12	1603.56
820.29	1798.12
820.47	1701.86
820.64	1675.24
820.81	1632.23
820.98	1677.29
821.15	1697.77
821.33	1748.97
821.50	1667.05
821.67	1718.25
821.84	1654.76
822.02	1714.15
822.19	1769.44
822.36	1720.29
822.53	1675.24
822.70	1624.04
822.88	1644.52
823.05	1820.64
823.22	1697.77
823.39	1705.96
823.56	1677.29
823.74	1806.31
823.91	1578.98
824.08	1658.85
824.25	1603.56
824.42	1751.01
824.60	1640.42
824.77	1720.29
824.94	1660.90
825.11	1736.68
825.28	1587.18
825.45	1703.91
825.63	1667.05
825.80	1615.85
825.97	1712.10
826.14	1681.38
826.31	1597.42
826.48	1765.35
826.66	1644.52
826.83	1597.42
827.00	1730.53
827.17	1609.70
827.34	1759.21
827.51	1685.48
827.69	1630.18
827.86	1642.47
828.03	1677.29
828.20	1675.24
828.37	1681.38
828.54	1742.82
828.71	1710.05
828.89	1798.12
829.06	1779.68
829.23	1763.30
829.40	1660.90
829.57	1667.05
829.74	1585.13
829.91	1685.48
830.09	1705.96
830.26	1632.23
830.43	1708.01
830.60	1683.43
830.77	1726.44
830.94	1769.44
831.11	1720.29
831.28	1703.91
831.46	1748.97
831.63	1714.15
831.80	1695.72
831.97	1712.10
832.14	1640.42
832.31	1748.97
832.48	1662.95
832.65	1697.77
832.82	1720.29
832.99	1697.77
833.17	1660.90
833.34	1728.49
833.51	1736.68
833.68	1638.38
833.85	1769.44
834.02	1658.85
834.19	1658.85
834.36	1626.09
834.53	1673.19
834.70	1730.53
834.87	1763.30
835.04	1701.86
835.22	1718.25
835.39	1648.61
835.56	1687.53
835.73	1660.90
835.90	1759.21
836.07	1687.53
836.24	1775.59
836.41	1613.80
836.58	1621.99
836.75	1746.92
836.92	1665.00
837.09	1691.62
837.26	1732.58
837.43	1689.57
837.60	1748.97
837.77	1634.28
837.94	1716.20
838.12	1775.59
838.29	1716.20
838.46	1558.50
838.63	1665.00
838.80	1748.97
838.97	1773.54
839.14	1714.15
839.31	1710.05
839.48	1765.35
839.65	1626.09
839.82	1736.68
839.99	1730.53
840.16	1718.25
840.33	1683.43
840.50	1656.81
840.67	1671.14
840.84	1576.94
841.01	1683.43
841.18	1621.99
841.35	1660.90
841.52	1740.77
841.69	1783.78
841.86	1761.25
842.03	1710.05
842.20	1718.25
842.37	1632.23
842.54	1669.09
842.71	1726.44
842.88	1652.71
843.05	1775.59
843.22	1660.90
843.39	1683.43
843.56	1722.34
843.73	1699.81
843.90	1703.91
844.07	1718.25
844.24	1755.11
844.41	1726.44
844.58	1658.85
844.75	1710.05
844.92	1763.30
845.09	1636.33
845.26	1669.09
845.43	1783.78
845.60	1732.58
845.77	1734.63
845.94	1634.28
846.10	1736.68
846.27	1642.47
846.44	1656.81
846.61	1660.90
846.78	1722.34
846.95	1783.78
847.12	1648.61
847.29	1681.38
847.46	1685.48
847.63	1732.58
847.80	1703.91
847.97	1685.48
848.14	1832.93
848.31	1689.57
848.48	1591.27
848.65	1691.62
848.82	1658.85
848.98	1861.60
849.15	1687.53
849.32	1650.66
849.49	1728.49
849.66	1693.67
849.83	1681.38
850.00	1621.99
850.17	1751.01
850.34	1763.30
850.51	1660.90
850.68	1697.77
850.85	1796.07
851.01	1675.24
851.18	1658.85
851.35	1701.86
851.52	1775.59
851.69	1791.97
851.86	1646.57
852.03	1683.43
852.20	1736.68
852.37	1632.23
852.53	1556.46
852.70	1671.14
852.87	1691.62
853.04	1722.34
853.21	1667.05
853.38	1765.35
853.55	1781.73
853.72	1779.68
853.89	1558.50
854.05	1617.90
854.22	1718.25
854.39	1660.90
854.56	1722.34
854.73	1740.77
854.90	1581.03
855.07	1751.01
855.23	1683.43
855.40	1671.14
855.57	1650.66
855.74	1662.95
855.91	1849.32
856.08	1660.90
856.25	1679.33
856.41	1708.01
856.58	1665.00
856.75	1703.91
856.92	1601.51
857.09	1701.86
857.26	1613.80
857.42	1683.43
857.59	1730.53
857.76	1662.95
857.93	1701.86
858.10	1759.21
858.27	1652.71
858.43	1615.85
858.60	1640.42
858.77	1642.47
858.94	1683.43
859.11	1775.59
859.27	1714.15
859.44	1640.42
859.61	1767.40
859.78	1732.58
859.95	1658.85
860.12	1617.90
860.28	1824.74
860.45	1806.31
860.62	1628.14
860.79	1724.39
860.95	1730.53
861.12	1687.53
861.29	1697.77
861.46	1613.80
861.63	1695.72
861.79	1769.44
861.96	1628.14
862.13	1654.76
862.30	1812.45
862.47	1701.86
862.63	1601.51
862.80	1724.39
862.97	1677.29
863.14	1736.68
863.30	1789.92
863.47	1679.33
863.64	1800.16
863.81	1699.81
863.97	1677.29
864.14	1751.01
864.31	1705.96
864.48	1742.82
864.65	1681.38
864.81	1628.14
864.98	1730.53
865.15	1738.73
865.32	1777.64
865.48	1808.36
865.65	1767.40
865.82	1726.44
865.98	1714.15
866.15	1742.82
866.32	1693.67
866.49	1718.25
866.65	1699.81
866.82	1660.90
866.99	1708.01
867.16	1701.86
867.32	1636.33
867.49	1626.09
867.66	1728.49
867.83	1613.80
867.99	1632.23
868.16	1675.24
868.33	1648.61
868.49	1665.00
868.66	1669.09
868.83	1767.40
868.99	1708.01
869.16	1662.95
869.33	1726.44
869.50	1675.24
869.66	1736.68
869.83	1736.68
870.00	1636.33
870.16	1705.96
870.33	1691.62
870.50	1658.85
870.66	1683.43
870.83	1849.32
871.00	1677.29
871.17	1716.20
871.33	1775.59
871.50	1697.77
871.67	1699.81
871.83	1640.42
872.00	1753.06
872.17	1705.96
872.33	1802.21
872.50	1763.30
872.67	1630.18
872.83	1691.62
873.00	1673.19
873.17	1724.39
873.33	1775.59
873.50	1718.25
873.67	1624.04
873.83	1658.85
874.00	1671.14
874.16	1693.67
874.33	1771.49
874.50	1632.23
874.66	1798.12
874.83	1703.91
875.00	1769.44
875.16	1810.40
875.33	1810.40
875.50	1585.13
875.66	1722.34
875.83	1660.90
875.99	1767.40
876.16	1798.12
876.33	1679.33
876.49	1667.05
876.66	1667.05
876.83	1699.81
876.99	1617.90
877.16	1703.91
877.32	1683.43
877.49	1675.24
877.66	1669.09
877.82	1757.16
877.99	1642.47
878.15	1777.64
878.32	1699.81
878.49	1771.49
878.65	1712.10
878.82	1751.01
878.98	1689.57
879.15	1720.29
879.32	1742.82
879.48	1742.82
879.65	1669.09
879.81	1658.85
879.98	1650.66
880.15	1675.24
880.31	1689.57
880.48	1628.14
880.64	1710.05
880.81	1781.73
880.97	1810.40
881.14	1746.92
881.31	1644.52
881.47	1796.07
881.64	1675.24
881.80	1554.41
881.97	1708.01
882.13	1791.97
882.30	1677.29
882.47	1667.05
882.63	1685.48
882.80	1699.81
882.96	1687.53
883.13	1773.54
883.29	1724.39
883.46	1720.29
883.62	1730.53
883.79	1697.77
883.95	1714.15
884.12	1665.00
884.29	1767.40
884.45	1708.01
884.62	1654.76
884.78	1615.85
884.95	1689.57
885.11	1640.42
885.28	1763.30
885.44	1648.61
885.61	1724.39
885.77	1853.41
885.94	1730.53
886.10	1759.21
886.27	1665.00
886.43	1865.70
886.60	1679.33
886.76	1609.70
886.93	1673.19
887.09	1662.95
887.26	1597.42
887.42	1662.95
887.59	1736.68
887.75	1810.40
887.92	1753.06
888.08	1730.53
888.25	1814.50
888.41	1830.88
888.58	1712.10
888.74	1601.51
888.91	1673.19
>>>>>End Processed Spectral Data<<<<<
