SpectraSuite Data File
++++++++++++++++++++++++++++++++++++
Date: Mon Jun 06 16:52:17 CEST 2016
User: root
Dark Spectrum Present: No
Reference Spectrum Present: No
Number of Sampled Component Spectra: 1
Spectrometers: USB4C02835
Integration Time (usec): 100000 (USB4C02835)
Spectra Averaged: 1 (USB4C02835)
Boxcar Smoothing: 0 (USB4C02835)
Correct for Electrical Dark: No (USB4C02835)
Strobe/Lamp Enabled: No (USB4C02835)
Correct for Detector Non-linearity: No (USB4C02835)
Correct for Stray Light: No (USB4C02835)
Number of Pixels in Processed Spectrum: 3648
>>>>>Begin Processed Spectral Data<<<<<
177.47	1503.21
177.69	1503.21
177.91	1503.21
178.13	1447.91
178.36	1511.40
178.58	1693.67
178.80	1703.91
179.02	1556.46
179.24	1658.85
179.46	1769.44
179.68	1779.68
179.90	1736.68
180.13	1767.40
180.35	1675.24
180.57	1755.11
180.79	1775.59
181.01	1689.57
181.23	1722.34
181.45	1779.68
181.67	1640.42
181.90	1789.92
182.12	1703.91
182.34	1656.81
182.56	1755.11
182.78	1808.36
183.00	1636.33
183.22	1660.90
183.44	1615.85
183.66	1853.41
183.89	1781.73
184.11	1712.10
184.33	1726.44
184.55	1789.92
184.77	1734.63
184.99	1699.81
185.21	1724.39
185.43	1841.12
185.65	1714.15
185.87	1763.30
186.10	1877.99
186.32	1824.74
186.54	1722.34
186.76	1771.49
186.98	1708.01
187.20	1705.96
187.42	1718.25
187.64	1808.36
187.86	1689.57
188.08	1775.59
188.30	1634.28
188.52	1697.77
188.75	1845.22
188.97	1730.53
189.19	1697.77
189.41	1679.33
189.63	1763.30
189.85	1759.21
190.07	1644.52
190.29	1576.94
190.51	1697.77
190.73	1640.42
190.95	1751.01
191.17	1722.34
191.39	1648.61
191.61	1785.83
191.84	1683.43
192.06	1751.01
192.28	1681.38
192.50	1873.89
192.72	1732.58
192.94	1677.29
193.16	1785.83
193.38	1765.35
193.60	1697.77
193.82	1705.96
194.04	1785.83
194.26	1669.09
194.48	1751.01
194.70	1701.86
194.92	1626.09
195.14	1710.05
195.36	1724.39
195.58	1689.57
195.80	1742.82
196.02	1734.63
196.24	1699.81
196.46	1714.15
196.69	1695.72
196.91	1847.27
197.13	1691.62
197.35	1652.71
197.57	1871.84
197.79	1785.83
198.01	1730.53
198.23	1757.16
198.45	1767.40
198.67	1624.04
198.89	1660.90
199.11	1746.92
199.33	1667.05
199.55	1587.18
199.77	1677.29
199.99	1830.88
200.21	1742.82
200.43	1683.43
200.65	1687.53
200.87	1591.27
201.09	1710.05
201.31	1642.47
201.53	1755.11
201.75	1703.91
201.97	1691.62
202.19	1812.45
202.41	1716.20
202.63	1865.70
202.85	1746.92
203.07	1722.34
203.29	1652.71
203.51	1636.33
203.73	1720.29
203.95	1908.71
204.17	1718.25
204.39	1796.07
204.61	1712.10
204.83	1738.73
205.05	1828.84
205.27	1761.25
205.49	1773.54
205.71	1685.48
205.93	1626.09
206.15	1689.57
206.37	1716.20
206.59	1685.48
206.81	1636.33
207.03	1732.58
207.25	1724.39
207.47	1748.97
207.69	1693.67
207.91	1681.38
208.13	1843.17
208.34	1720.29
208.56	1621.99
208.78	1748.97
209.00	1705.96
209.22	1697.77
209.44	1718.25
209.66	1673.19
209.88	1724.39
210.10	1656.81
210.32	1714.15
210.54	1777.64
210.76	1671.14
210.98	1710.05
211.20	1593.32
211.42	1804.26
211.64	1773.54
211.86	1771.49
212.08	1765.35
212.30	1736.68
212.52	1683.43
212.74	1730.53
212.96	1685.48
213.17	1824.74
213.39	1755.11
213.61	1755.11
213.83	1783.78
214.05	1626.09
214.27	1730.53
214.49	1748.97
214.71	1658.85
214.93	1787.88
215.15	1726.44
215.37	1732.58
215.59	1591.27
215.81	1714.15
216.03	1759.21
216.24	1748.97
216.46	1744.87
216.68	1652.71
216.90	1748.97
217.12	1773.54
217.34	1777.64
217.56	1697.77
217.78	1802.21
218.00	1757.16
218.22	1712.10
218.44	1781.73
218.66	1703.91
218.87	1783.78
219.09	1648.61
219.31	1714.15
219.53	1683.43
219.75	1718.25
219.97	1603.56
220.19	1718.25
220.41	1705.96
220.63	1853.41
220.85	1755.11
221.06	1714.15
221.28	1761.25
221.50	1710.05
221.72	1720.29
221.94	1773.54
222.16	1644.52
222.38	1845.22
222.60	1734.63
222.82	1712.10
223.03	1789.92
223.25	1683.43
223.47	1734.63
223.69	1867.75
223.91	1814.50
224.13	1660.90
224.35	1691.62
224.57	1738.73
224.78	1794.02
225.00	1667.05
225.22	1730.53
225.44	1740.77
225.66	1734.63
225.88	1685.48
226.10	1802.21
226.32	1763.30
226.53	1746.92
226.75	1759.21
226.97	1763.30
227.19	1742.82
227.41	1669.09
227.63	1699.81
227.85	1652.71
228.06	1806.31
228.28	1681.38
228.50	1755.11
228.72	1632.23
228.94	1755.11
229.16	1552.36
229.37	1560.55
229.59	1638.38
229.81	1783.78
230.03	1722.34
230.25	1550.31
230.47	1615.85
230.69	1634.28
230.90	1744.87
231.12	1714.15
231.34	1744.87
231.56	1714.15
231.78	1615.85
232.00	1740.77
232.21	1738.73
232.43	1621.99
232.65	1589.22
232.87	1767.40
233.09	1626.09
233.30	1628.14
233.52	1816.55
233.74	1691.62
233.96	1708.01
234.18	1687.53
234.40	1732.58
234.61	1751.01
234.83	1650.66
235.05	1636.33
235.27	1894.37
235.49	1736.68
235.70	1677.29
235.92	1755.11
236.14	1800.16
236.36	1869.80
236.58	1607.66
236.79	1794.02
237.01	1716.20
237.23	1789.92
237.45	1851.36
237.67	1705.96
237.88	1703.91
238.10	1873.89
238.32	1669.09
238.54	1619.94
238.76	1808.36
238.97	1644.52
239.19	1753.06
239.41	1794.02
239.63	1794.02
239.85	1738.73
240.06	1691.62
240.28	1667.05
240.50	1730.53
240.72	1763.30
240.93	1716.20
241.15	1767.40
241.37	1714.15
241.59	1847.27
241.81	1683.43
242.02	1789.92
242.24	1734.63
242.46	1675.24
242.68	1716.20
242.89	1757.16
243.11	1730.53
243.33	1800.16
243.55	1705.96
243.76	1791.97
243.98	1634.28
244.20	1722.34
244.42	1699.81
244.64	1683.43
244.85	1660.90
245.07	1658.85
245.29	1765.35
245.51	1675.24
245.72	1740.77
245.94	1677.29
246.16	1816.55
246.38	1740.77
246.59	1677.29
246.81	1642.47
247.03	1689.57
247.24	1585.13
247.46	1687.53
247.68	1660.90
247.90	1783.78
248.11	1673.19
248.33	1777.64
248.55	1574.89
248.77	1675.24
248.98	1759.21
249.20	1738.73
249.42	1710.05
249.64	1761.25
249.85	1642.47
250.07	1724.39
250.29	1808.36
250.50	1683.43
250.72	1615.85
250.94	1683.43
251.16	1785.83
251.37	1751.01
251.59	1796.07
251.81	1716.20
252.02	1738.73
252.24	1720.29
252.46	1763.30
252.68	1677.29
252.89	1683.43
253.11	1609.70
253.33	1818.60
253.54	1781.73
253.76	1601.51
253.98	1708.01
254.20	1683.43
254.41	1730.53
254.63	1701.86
254.85	1609.70
255.06	1646.57
255.28	1720.29
255.50	1681.38
255.71	1607.66
255.93	1632.23
256.15	1728.49
256.36	1734.63
256.58	1701.86
256.80	1708.01
257.02	1701.86
257.23	1648.61
257.45	1667.05
257.67	1755.11
257.88	1660.90
258.10	1771.49
258.32	1738.73
258.53	1691.62
258.75	1781.73
258.97	1689.57
259.18	1718.25
259.40	1697.77
259.62	1767.40
259.83	1822.69
260.05	1708.01
260.27	1953.76
260.48	1753.06
260.70	1634.28
260.92	1636.33
261.13	1660.90
261.35	1691.62
261.57	1791.97
261.78	1632.23
262.00	1681.38
262.22	1683.43
262.43	1650.66
262.65	1681.38
262.86	1669.09
263.08	1789.92
263.30	1673.19
263.51	1636.33
263.73	1701.86
263.95	1808.36
264.16	1669.09
264.38	1740.77
264.60	1767.40
264.81	1722.34
265.03	1789.92
265.25	1722.34
265.46	1626.09
265.68	1847.27
265.89	1720.29
266.11	1619.94
266.33	1728.49
266.54	1755.11
266.76	1759.21
266.98	1683.43
267.19	1728.49
267.41	1767.40
267.62	1734.63
267.84	1636.33
268.06	1759.21
268.27	1718.25
268.49	1839.08
268.70	1746.92
268.92	1738.73
269.14	1611.75
269.35	1650.66
269.57	1755.11
269.79	1787.88
270.00	1681.38
270.22	1787.88
270.43	1613.80
270.65	1591.27
270.87	1669.09
271.08	1787.88
271.30	1748.97
271.51	1755.11
271.73	1730.53
271.95	1701.86
272.16	1646.57
272.38	1699.81
272.59	1665.00
272.81	1763.30
273.02	1687.53
273.24	1660.90
273.46	1673.19
273.67	1642.47
273.89	1693.67
274.10	1658.85
274.32	1796.07
274.54	1689.57
274.75	1675.24
274.97	1718.25
275.18	1755.11
275.40	1771.49
275.61	1728.49
275.83	1722.34
276.05	1671.14
276.26	1742.82
276.48	1738.73
276.69	1685.48
276.91	1730.53
277.12	1812.45
277.34	1789.92
277.55	1785.83
277.77	1734.63
277.99	1681.38
278.20	1669.09
278.42	1718.25
278.63	1617.90
278.85	1697.77
279.06	1681.38
279.28	1703.91
279.49	1765.35
279.71	1775.59
279.93	1695.72
280.14	1667.05
280.36	1679.33
280.57	1755.11
280.79	1812.45
281.00	1667.05
281.22	1761.25
281.43	1724.39
281.65	1562.60
281.86	1746.92
282.08	1769.44
282.29	1820.64
282.51	1720.29
282.73	1593.32
282.94	1621.99
283.16	1800.16
283.37	1810.40
283.59	1677.29
283.80	1744.87
284.02	1685.48
284.23	1744.87
284.45	1744.87
284.66	1675.24
284.88	1685.48
285.09	1787.88
285.31	1755.11
285.52	1751.01
285.74	1656.81
285.95	1716.20
286.17	1667.05
286.38	1722.34
286.60	1718.25
286.81	1701.86
287.03	1656.81
287.24	1634.28
287.46	1738.73
287.67	1654.76
287.89	1832.93
288.10	1714.15
288.32	1712.10
288.53	1761.25
288.75	1755.11
288.96	1791.97
289.18	1685.48
289.39	1744.87
289.61	1798.12
289.82	1824.74
290.04	1773.54
290.25	1634.28
290.47	1656.81
290.68	1755.11
290.90	1816.55
291.11	1685.48
291.33	1716.20
291.54	1660.90
291.76	1662.95
291.97	1724.39
292.18	1806.31
292.40	1644.52
292.61	1720.29
292.83	1806.31
293.04	1771.49
293.26	1826.79
293.47	1751.01
293.69	1683.43
293.90	1705.96
294.12	1798.12
294.33	1685.48
294.55	1662.95
294.76	1771.49
294.97	1814.50
295.19	1806.31
295.40	1650.66
295.62	1722.34
295.83	1767.40
296.05	1691.62
296.26	1746.92
296.48	1755.11
296.69	1728.49
296.90	1736.68
297.12	1726.44
297.33	1757.16
297.55	1763.30
297.76	1802.21
297.98	1716.20
298.19	1714.15
298.41	1728.49
298.62	1714.15
298.83	1808.36
299.05	1718.25
299.26	1646.57
299.48	1708.01
299.69	1693.67
299.90	1658.85
300.12	1642.47
300.33	1673.19
300.55	1722.34
300.76	1685.48
300.98	1638.38
301.19	1746.92
301.40	1718.25
301.62	1746.92
301.83	1722.34
302.05	1681.38
302.26	1765.35
302.47	1779.68
302.69	1654.76
302.90	1738.73
303.12	1558.50
303.33	1714.15
303.54	1808.36
303.76	1656.81
303.97	1740.77
304.19	1738.73
304.40	1611.75
304.61	1734.63
304.83	1806.31
305.04	1763.30
305.26	1695.72
305.47	1613.80
305.68	1718.25
305.90	1691.62
306.11	1730.53
306.33	1708.01
306.54	1681.38
306.75	1644.52
306.97	1673.19
307.18	1746.92
307.39	1708.01
307.61	1767.40
307.82	1738.73
308.04	1714.15
308.25	1656.81
308.46	1757.16
308.68	1771.49
308.89	1712.10
309.10	1834.98
309.32	1734.63
309.53	1712.10
309.74	1751.01
309.96	1673.19
310.17	1783.78
310.39	1687.53
310.60	1667.05
310.81	1732.58
311.03	1626.09
311.24	1712.10
311.45	1640.42
311.67	1818.60
311.88	1755.11
312.09	1714.15
312.31	1660.90
312.52	1714.15
312.73	1648.61
312.95	1656.81
313.16	1675.24
313.37	1703.91
313.59	1775.59
313.80	1693.67
314.01	1824.74
314.23	1697.77
314.44	1689.57
314.65	1628.14
314.87	1656.81
315.08	1613.80
315.29	1642.47
315.51	1677.29
315.72	1656.81
315.93	1841.12
316.15	1796.07
316.36	1650.66
316.57	1640.42
316.79	1798.12
317.00	1724.39
317.21	1791.97
317.43	1617.90
317.64	1703.91
317.85	1665.00
318.07	1730.53
318.28	1687.53
318.49	1814.50
318.70	1916.90
318.92	1791.97
319.13	1847.27
319.34	1802.21
319.56	1736.68
319.77	1726.44
319.98	1787.88
320.20	1779.68
320.41	1765.35
320.62	1771.49
320.83	1652.71
321.05	1849.32
321.26	1796.07
321.47	1728.49
321.69	1798.12
321.90	1581.03
322.11	1722.34
322.32	1693.67
322.54	1783.78
322.75	1736.68
322.96	1804.26
323.18	1660.90
323.39	1581.03
323.60	1656.81
323.81	1810.40
324.03	1632.23
324.24	1695.72
324.45	1681.38
324.66	1642.47
324.88	1734.63
325.09	1783.78
325.30	1714.15
325.52	1720.29
325.73	1730.53
325.94	1703.91
326.15	1597.42
326.37	1650.66
326.58	1681.38
326.79	1804.26
327.00	1687.53
327.22	1773.54
327.43	1644.52
327.64	1677.29
327.85	1751.01
328.07	1650.66
328.28	1775.59
328.49	1669.09
328.70	1761.25
328.92	1691.62
329.13	1646.57
329.34	1755.11
329.55	1880.04
329.76	1802.21
329.98	1591.27
330.19	1705.96
330.40	1722.34
330.61	1691.62
330.83	1779.68
331.04	1626.09
331.25	1748.97
331.46	1697.77
331.68	1660.90
331.89	1837.03
332.10	1738.73
332.31	1572.84
332.52	1701.86
332.74	1783.78
332.95	1609.70
333.16	1677.29
333.37	1826.79
333.58	1769.44
333.80	1744.87
334.01	1712.10
334.22	1691.62
334.43	1669.09
334.64	1720.29
334.86	1605.61
335.07	1662.95
335.28	1726.44
335.49	1587.18
335.70	1763.30
335.92	1777.64
336.13	1791.97
336.34	1720.29
336.55	1716.20
336.76	1841.12
336.98	1611.75
337.19	1660.90
337.40	1779.68
337.61	1824.74
337.82	1712.10
338.04	1767.40
338.25	1581.03
338.46	1716.20
338.67	1697.77
338.88	1603.56
339.09	1697.77
339.31	1736.68
339.52	1562.60
339.73	1673.19
339.94	1724.39
340.15	1726.44
340.36	1652.71
340.58	1669.09
340.79	1656.81
341.00	1730.53
341.21	1667.05
341.42	1773.54
341.63	1632.23
341.85	1732.58
342.06	1796.07
342.27	1763.30
342.48	1783.78
342.69	1609.70
342.90	1708.01
343.12	1783.78
343.33	1701.86
343.54	1755.11
343.75	1755.11
343.96	1691.62
344.17	1615.85
344.38	1705.96
344.60	1646.57
344.81	1632.23
345.02	1642.47
345.23	1785.83
345.44	1781.73
345.65	1771.49
345.86	1722.34
346.07	1728.49
346.29	1667.05
346.50	1701.86
346.71	1738.73
346.92	1730.53
347.13	1808.36
347.34	1720.29
347.55	1679.33
347.76	1755.11
347.98	1652.71
348.19	1722.34
348.40	1796.07
348.61	1683.43
348.82	1740.77
349.03	1714.15
349.24	1708.01
349.45	1796.07
349.66	1560.55
349.88	1736.68
350.09	1685.48
350.30	1771.49
350.51	1839.08
350.72	1689.57
350.93	1679.33
351.14	1710.05
351.35	1691.62
351.56	1746.92
351.77	1652.71
351.99	1712.10
352.20	1785.83
352.41	1814.50
352.62	1652.71
352.83	1679.33
353.04	1665.00
353.25	1759.21
353.46	1755.11
353.67	1771.49
353.88	1603.56
354.09	1685.48
354.30	1705.96
354.52	1800.16
354.73	1710.05
354.94	1732.58
355.15	1714.15
355.36	1857.51
355.57	1697.77
355.78	1777.64
355.99	1617.90
356.20	1628.14
356.41	1781.73
356.62	1746.92
356.83	1718.25
357.04	1740.77
357.25	1525.74
357.46	1699.81
357.68	1673.19
357.89	1665.00
358.10	1658.85
358.31	1683.43
358.52	1665.00
358.73	1652.71
358.94	1619.94
359.15	1699.81
359.36	1746.92
359.57	1703.91
359.78	1732.58
359.99	1736.68
360.20	1560.55
360.41	1675.24
360.62	1818.60
360.83	1726.44
361.04	1744.87
361.25	1845.22
361.46	1751.01
361.67	1705.96
361.88	1755.11
362.09	1738.73
362.30	1818.60
362.51	1687.53
362.72	1738.73
362.93	1753.06
363.14	1748.97
363.35	1732.58
363.56	1699.81
363.78	1787.88
363.99	1683.43
364.20	1708.01
364.41	1636.33
364.62	1783.78
364.83	1710.05
365.04	1710.05
365.25	1716.20
365.46	1794.02
365.67	1650.66
365.88	1662.95
366.09	1652.71
366.30	1718.25
366.51	1714.15
366.72	1689.57
366.93	1740.77
367.14	1722.34
367.35	1812.45
367.56	1738.73
367.77	1757.16
367.98	1669.09
368.18	1763.30
368.39	1787.88
368.60	1662.95
368.81	1751.01
369.02	1746.92
369.23	1730.53
369.44	1599.46
369.65	1722.34
369.86	1703.91
370.07	1800.16
370.28	1689.57
370.49	1718.25
370.70	1695.72
370.91	1675.24
371.12	1603.56
371.33	1712.10
371.54	1718.25
371.75	1820.64
371.96	1642.47
372.17	1744.87
372.38	1716.20
372.59	1796.07
372.80	1656.81
373.01	1705.96
373.22	1638.38
373.43	1677.29
373.64	1601.51
373.85	1730.53
374.06	1814.50
374.26	1806.31
374.47	1708.01
374.68	1820.64
374.89	1689.57
375.10	1673.19
375.31	1779.68
375.52	1699.81
375.73	1714.15
375.94	1644.52
376.15	1777.64
376.36	1714.15
376.57	1712.10
376.78	1673.19
376.99	1787.88
377.20	1726.44
377.40	1624.04
377.61	1837.03
377.82	1667.05
378.03	1773.54
378.24	1718.25
378.45	1761.25
378.66	1705.96
378.87	1619.94
379.08	1595.37
379.29	1800.16
379.50	1767.40
379.71	1736.68
379.91	1806.31
380.12	1695.72
380.33	1740.77
380.54	1701.86
380.75	1724.39
380.96	1708.01
381.17	1775.59
381.38	1763.30
381.59	1726.44
381.80	1759.21
382.00	1796.07
382.21	1839.08
382.42	1855.46
382.63	1869.80
382.84	1771.49
383.05	1730.53
383.26	1832.93
383.47	1634.28
383.68	1712.10
383.88	1777.64
384.09	1742.82
384.30	1791.97
384.51	1722.34
384.72	1820.64
384.93	1695.72
385.14	1679.33
385.35	1785.83
385.55	1677.29
385.76	1767.40
385.97	1638.38
386.18	1585.13
386.39	1730.53
386.60	1624.04
386.81	1695.72
387.02	1705.96
387.22	1578.98
387.43	1755.11
387.64	1820.64
387.85	1920.99
388.06	2230.24
388.27	4294.59
388.48	6770.58
388.68	8335.23
388.89	9647.98
389.10	9645.93
389.31	8683.39
389.52	7544.72
389.73	6711.19
389.93	6242.21
390.14	5887.91
390.35	5265.33
390.56	4646.84
390.77	3811.27
390.98	3069.91
391.18	2502.62
391.39	2056.16
391.60	1886.18
391.81	1781.73
392.02	1660.90
392.23	1773.54
392.43	1710.05
392.64	1810.40
392.85	1748.97
393.06	1863.65
393.27	1726.44
393.47	1673.19
393.68	1718.25
393.89	1636.33
394.10	1789.92
394.31	1730.53
394.52	1642.47
394.72	1679.33
394.93	1837.03
395.14	1736.68
395.35	1738.73
395.56	1705.96
395.76	1675.24
395.97	1810.40
396.18	1855.46
396.39	1847.27
396.60	2000.87
396.80	1849.32
397.01	1787.88
397.22	1802.21
397.43	1816.55
397.64	1701.86
397.84	1843.17
398.05	1877.99
398.26	1677.29
398.47	1800.16
398.67	1742.82
398.88	1759.21
399.09	1740.77
399.30	1724.39
399.51	1855.46
399.71	1718.25
399.92	1699.81
400.13	1730.53
400.34	1712.10
400.54	1720.29
400.75	1767.40
400.96	1726.44
401.17	1812.45
401.37	1675.24
401.58	1753.06
401.79	1705.96
402.00	1890.28
402.21	2009.06
402.41	1931.23
402.62	1986.53
402.83	1945.57
403.04	1988.58
403.24	2023.39
403.45	1865.70
403.66	1929.19
403.87	1863.65
404.07	1875.94
404.28	1923.04
404.49	1796.07
404.70	1806.31
404.90	1773.54
405.11	1748.97
405.32	1626.09
405.52	1701.86
405.73	1751.01
405.94	1628.14
406.15	1728.49
406.35	1789.92
406.56	1746.92
406.77	1742.82
406.98	1724.39
407.18	1742.82
407.39	1773.54
407.60	1685.48
407.80	1753.06
408.01	1636.33
408.22	1796.07
408.43	1628.14
408.63	1787.88
408.84	1814.50
409.05	1855.46
409.25	1675.24
409.46	1646.57
409.67	1714.15
409.88	1755.11
410.08	1712.10
410.29	1673.19
410.50	1742.82
410.70	1744.87
410.91	1681.38
411.12	1779.68
411.32	1708.01
411.53	1763.30
411.74	1785.83
411.95	1804.26
412.15	1808.36
412.36	1714.15
412.57	1759.21
412.77	1808.36
412.98	1714.15
413.19	1677.29
413.39	1759.21
413.60	1705.96
413.81	1804.26
414.01	1708.01
414.22	1742.82
414.43	1773.54
414.63	1724.39
414.84	1787.88
415.05	1677.29
415.25	1644.52
415.46	1673.19
415.67	1687.53
415.87	1742.82
416.08	1697.77
416.29	1628.14
416.49	1705.96
416.70	1703.91
416.91	1738.73
417.11	1767.40
417.32	1773.54
417.53	1757.16
417.73	1691.62
417.94	1658.85
418.15	1701.86
418.35	1738.73
418.56	1796.07
418.77	1845.22
418.97	1697.77
419.18	1617.90
419.38	1605.61
419.59	1693.67
419.80	1791.97
420.00	1683.43
420.21	1708.01
420.42	1691.62
420.62	1812.45
420.83	1603.56
421.04	1658.85
421.24	1693.67
421.45	1837.03
421.65	1806.31
421.86	1746.92
422.07	1710.05
422.27	1757.16
422.48	1726.44
422.69	1714.15
422.89	1705.96
423.10	1718.25
423.30	1599.46
423.51	1695.72
423.72	1712.10
423.92	1773.54
424.13	1652.71
424.33	1716.20
424.54	1767.40
424.75	1767.40
424.95	1773.54
425.16	1714.15
425.36	1693.67
425.57	1794.02
425.78	1773.54
425.98	1828.84
426.19	1705.96
426.39	1599.46
426.60	1714.15
426.81	1789.92
427.01	1773.54
427.22	1697.77
427.42	1613.80
427.63	1611.75
427.83	1769.44
428.04	1789.92
428.25	1755.11
428.45	1789.92
428.66	1738.73
428.86	1703.91
429.07	1677.29
429.28	1710.05
429.48	1673.19
429.69	1689.57
429.89	1710.05
430.10	1687.53
430.30	1703.91
430.51	1751.01
430.71	1617.90
430.92	1755.11
431.13	1763.30
431.33	1718.25
431.54	1773.54
431.74	1769.44
431.95	1794.02
432.15	1648.61
432.36	1619.94
432.56	1701.86
432.77	1877.99
432.98	1736.68
433.18	1673.19
433.39	1689.57
433.59	1691.62
433.80	1812.45
434.00	1834.98
434.21	1726.44
434.41	1724.39
434.62	1943.52
434.82	1701.86
435.03	1720.29
435.23	1763.30
435.44	1599.46
435.64	1720.29
435.85	1695.72
436.06	1798.12
436.26	1765.35
436.47	1656.81
436.67	1652.71
436.88	1722.34
437.08	1746.92
437.29	1849.32
437.49	1748.97
437.70	1812.45
437.90	1746.92
438.11	1857.51
438.31	1732.58
438.52	1877.99
438.72	1820.64
438.93	1990.63
439.13	1769.44
439.34	1894.37
439.54	1751.01
439.75	1771.49
439.95	1775.59
440.16	1662.95
440.36	1767.40
440.57	1800.16
440.77	1755.11
440.98	1765.35
441.18	1722.34
441.39	1783.78
441.59	1619.94
441.80	1869.80
442.00	1753.06
442.21	1783.78
442.41	1648.61
442.62	1837.03
442.82	1744.87
443.02	1746.92
443.23	1783.78
443.43	1740.77
443.64	1785.83
443.84	1728.49
444.05	1794.02
444.25	1765.35
444.46	1701.86
444.66	1816.55
444.87	1808.36
445.07	1695.72
445.28	1748.97
445.48	1892.32
445.69	1697.77
445.89	1873.89
446.09	1759.21
446.30	1998.82
446.50	2668.50
446.71	3674.06
446.91	4405.18
447.12	4728.76
447.32	4892.60
447.53	4227.01
447.73	3917.76
447.93	3641.29
448.14	3313.61
448.34	3291.09
448.55	2865.11
448.75	2992.08
448.96	2731.99
449.16	2349.02
449.36	2295.77
449.57	2062.30
449.77	1918.95
449.98	1763.30
450.18	1765.35
450.39	1861.60
450.59	1771.49
450.79	1730.53
451.00	1673.19
451.20	1753.06
451.41	1730.53
451.61	1753.06
451.81	1738.73
452.02	1697.77
452.22	1726.44
452.43	1681.38
452.63	1705.96
452.84	1687.53
453.04	1730.53
453.24	1738.73
453.45	1652.71
453.65	1710.05
453.86	1773.54
454.06	1746.92
454.26	1798.12
454.47	1615.85
454.67	1845.22
454.87	1820.64
455.08	1767.40
455.28	1875.94
455.49	1849.32
455.69	1769.44
455.89	1810.40
456.10	1789.92
456.30	1755.11
456.51	1753.06
456.71	1691.62
456.91	1763.30
457.12	1730.53
457.32	1830.88
457.52	1701.86
457.73	1761.25
457.93	1779.68
458.14	1724.39
458.34	1638.38
458.54	1681.38
458.75	1667.05
458.95	1808.36
459.15	1800.16
459.36	1763.30
459.56	1748.97
459.76	1789.92
459.97	1812.45
460.17	1734.63
460.37	1804.26
460.58	1755.11
460.78	1802.21
460.99	1683.43
461.19	1765.35
461.39	1730.53
461.60	1740.77
461.80	1832.93
462.00	1675.24
462.21	1705.96
462.41	1673.19
462.61	1697.77
462.82	1607.66
463.02	1769.44
463.22	1755.11
463.43	1753.06
463.63	1732.58
463.83	1824.74
464.04	1763.30
464.24	1763.30
464.44	1791.97
464.64	1767.40
464.85	1791.97
465.05	1773.54
465.25	1714.15
465.46	1759.21
465.66	1794.02
465.86	1769.44
466.07	1673.19
466.27	1710.05
466.47	1621.99
466.68	1626.09
466.88	1841.12
467.08	1669.09
467.29	1695.72
467.49	1742.82
467.69	1730.53
467.89	1660.90
468.10	1736.68
468.30	1757.16
468.50	1785.83
468.71	1789.92
468.91	1634.28
469.11	1834.98
469.31	1689.57
469.52	1679.33
469.72	1845.22
469.92	1888.23
470.13	1740.77
470.33	1791.97
470.53	1898.47
470.73	2109.41
470.94	2254.81
471.14	2267.10
471.34	2531.29
471.54	2314.20
471.75	2199.52
471.95	2101.22
472.15	2121.70
472.36	2070.50
472.56	2021.35
472.76	2131.94
472.96	1986.53
473.17	1949.67
473.37	1931.23
473.57	1855.46
473.77	1832.93
473.98	1814.50
474.18	1695.72
474.38	1867.75
474.58	1632.23
474.79	1728.49
474.99	1757.16
475.19	1740.77
475.39	1656.81
475.60	1753.06
475.80	1767.40
476.00	1740.77
476.20	1740.77
476.41	1755.11
476.61	1812.45
476.81	1849.32
477.01	1624.04
477.21	1834.98
477.42	1724.39
477.62	1656.81
477.82	1775.59
478.02	1703.91
478.23	1820.64
478.43	1603.56
478.63	1740.77
478.83	1712.10
479.03	1687.53
479.24	1796.07
479.44	1886.18
479.64	1673.19
479.84	1652.71
480.04	1710.05
480.25	1808.36
480.45	1687.53
480.65	1738.73
480.85	1783.78
481.06	1769.44
481.26	1755.11
481.46	1753.06
481.66	1771.49
481.86	1652.71
482.06	1781.73
482.27	1720.29
482.47	1675.24
482.67	1765.35
482.87	1687.53
483.07	1841.12
483.28	1701.86
483.48	1712.10
483.68	1787.88
483.88	1671.14
484.08	1658.85
484.29	1656.81
484.49	1777.64
484.69	1730.53
484.89	1785.83
485.09	1810.40
485.29	1812.45
485.50	1753.06
485.70	1755.11
485.90	1900.52
486.10	1773.54
486.30	1755.11
486.50	1845.22
486.71	1695.72
486.91	1720.29
487.11	1828.84
487.31	1642.47
487.51	1720.29
487.71	1665.00
487.91	1617.90
488.12	1619.94
488.32	1640.42
488.52	1650.66
488.72	1591.27
488.92	1785.83
489.12	1796.07
489.32	1763.30
489.53	1806.31
489.73	1693.67
489.93	1796.07
490.13	1638.38
490.33	1619.94
490.53	1742.82
490.73	1824.74
490.94	1681.38
491.14	1808.36
491.34	1894.37
491.54	2117.60
491.74	2555.86
491.94	2838.48
492.14	2930.64
492.34	2977.75
492.54	2738.13
492.75	2480.09
492.95	2422.75
493.15	2326.49
493.35	2277.34
493.55	2189.28
493.75	2185.18
493.95	2166.75
494.15	1998.82
494.35	1910.75
494.56	1812.45
494.76	1753.06
494.96	1759.21
495.16	1849.32
495.36	1728.49
495.56	1677.29
495.76	1705.96
495.96	1783.78
496.16	1771.49
496.36	1796.07
496.56	1753.06
496.77	1720.29
496.97	1738.73
497.17	1755.11
497.37	1642.47
497.57	1798.12
497.77	1730.53
497.97	1697.77
498.17	1732.58
498.37	1742.82
498.57	1767.40
498.77	1734.63
498.97	1765.35
499.17	1898.47
499.38	1757.16
499.58	1806.31
499.78	1773.54
499.98	1759.21
500.18	1724.39
500.38	1691.62
500.58	1841.12
500.78	2500.57
500.98	4538.30
501.18	5900.20
501.38	6758.30
501.58	7141.27
501.78	6801.30
501.98	5482.41
502.18	4878.26
502.38	4378.56
502.58	4249.54
502.78	3774.41
502.98	3813.32
503.18	3409.87
503.38	3237.84
503.59	2811.86
503.79	2680.79
503.99	2519.00
504.19	2279.39
504.39	2232.29
504.59	2258.91
504.79	2179.04
504.99	2023.39
505.19	1904.61
505.39	1867.75
505.59	1986.53
505.79	1978.34
505.99	1945.57
506.19	1785.83
506.39	1869.80
506.59	1740.77
506.79	1705.96
506.99	1798.12
507.19	1724.39
507.39	1736.68
507.59	1728.49
507.79	1665.00
507.99	1787.88
508.19	1781.73
508.39	1699.81
508.59	1748.97
508.79	1863.65
508.99	1853.41
509.19	1794.02
509.39	1804.26
509.59	1732.58
509.79	1701.86
509.99	1763.30
510.19	1855.46
510.39	1771.49
510.59	1695.72
510.79	1687.53
510.99	1640.42
511.19	1775.59
511.39	1810.40
511.59	1765.35
511.79	1839.08
511.99	1738.73
512.19	1806.31
512.38	1720.29
512.58	1665.00
512.78	1767.40
512.98	1871.84
513.18	1826.79
513.38	1626.09
513.58	1806.31
513.78	1732.58
513.98	1697.77
514.18	1804.26
514.38	1718.25
514.58	1804.26
514.78	1658.85
514.98	1665.00
515.18	1789.92
515.38	1574.89
515.58	1816.55
515.78	1714.15
515.98	1705.96
516.18	1875.94
516.38	1705.96
516.57	1761.25
516.77	1736.68
516.97	1773.54
517.17	1722.34
517.37	1636.33
517.57	1773.54
517.77	1748.97
517.97	1738.73
518.17	1818.60
518.37	1681.38
518.57	1716.20
518.77	1712.10
518.97	1740.77
519.16	1742.82
519.36	1781.73
519.56	1738.73
519.76	1738.73
519.96	1765.35
520.16	1726.44
520.36	1771.49
520.56	1722.34
520.76	1648.61
520.96	1798.12
521.16	1777.64
521.35	1767.40
521.55	1828.84
521.75	1693.67
521.95	1722.34
522.15	1738.73
522.35	1644.52
522.55	1726.44
522.75	1767.40
522.95	1703.91
523.14	1712.10
523.34	1785.83
523.54	1732.58
523.74	1791.97
523.94	1775.59
524.14	1654.76
524.34	1808.36
524.54	1834.98
524.73	1734.63
524.93	1734.63
525.13	1755.11
525.33	1662.95
525.53	1937.38
525.73	1920.99
525.93	1767.40
526.13	1710.05
526.32	1791.97
526.52	1787.88
526.72	1740.77
526.92	1771.49
527.12	1730.53
527.32	1708.01
527.52	1765.35
527.71	1681.38
527.91	1718.25
528.11	1716.20
528.31	1744.87
528.51	1681.38
528.71	1685.48
528.90	1751.01
529.10	1736.68
529.30	1837.03
529.50	1619.94
529.70	1738.73
529.90	1777.64
530.09	1716.20
530.29	1730.53
530.49	1644.52
530.69	1804.26
530.89	1724.39
531.09	1751.01
531.28	1728.49
531.48	1763.30
531.68	1730.53
531.88	1753.06
532.08	1820.64
532.28	1669.09
532.47	1757.16
532.67	1736.68
532.87	1783.78
533.07	1732.58
533.27	1746.92
533.46	1802.21
533.66	1779.68
533.86	1701.86
534.06	1753.06
534.26	1740.77
534.45	1685.48
534.65	1773.54
534.85	1716.20
535.05	1708.01
535.25	1816.55
535.44	1660.90
535.64	1789.92
535.84	1726.44
536.04	1734.63
536.24	1716.20
536.43	1638.38
536.63	1849.32
536.83	1705.96
537.03	1791.97
537.22	1656.81
537.42	1632.23
537.62	1765.35
537.82	1658.85
538.02	1812.45
538.21	1794.02
538.41	1873.89
538.61	1740.77
538.81	1791.97
539.00	1816.55
539.20	1705.96
539.40	1736.68
539.60	1757.16
539.79	1753.06
539.99	1726.44
540.19	1685.48
540.39	1652.71
540.58	1751.01
540.78	1853.41
540.98	1744.87
541.18	1886.18
541.37	1855.46
541.57	1718.25
541.77	1822.69
541.97	1718.25
542.16	1556.46
542.36	1712.10
542.56	1714.15
542.76	1890.28
542.95	1718.25
543.15	1714.15
543.35	1746.92
543.54	1677.29
543.74	1669.09
543.94	1722.34
544.14	1744.87
544.33	1832.93
544.53	1728.49
544.73	1777.64
544.93	1710.05
545.12	1796.07
545.32	1751.01
545.52	1726.44
545.71	1621.99
545.91	1728.49
546.11	1767.40
546.30	1740.77
546.50	1734.63
546.70	1753.06
546.90	1746.92
547.09	1619.94
547.29	1744.87
547.49	1724.39
547.68	1765.35
547.88	1708.01
548.08	1746.92
548.27	2209.76
548.47	1669.09
548.67	1744.87
548.87	1771.49
549.06	1646.57
549.26	1763.30
549.46	1736.68
549.65	1705.96
549.85	1785.83
550.05	1798.12
550.24	1644.52
550.44	1755.11
550.64	1726.44
550.83	1699.81
551.03	1892.32
551.23	1802.21
551.42	1734.63
551.62	1722.34
551.82	1775.59
552.01	1777.64
552.21	1849.32
552.41	1714.15
552.60	1800.16
552.80	1814.50
553.00	1687.53
553.19	1714.15
553.39	1794.02
553.59	1634.28
553.78	1763.30
553.98	1777.64
554.17	1611.75
554.37	1775.59
554.57	1789.92
554.76	1697.77
554.96	1710.05
555.16	1740.77
555.35	1763.30
555.55	1742.82
555.75	1767.40
555.94	1755.11
556.14	1695.72
556.33	1730.53
556.53	1779.68
556.73	1740.77
556.92	1691.62
557.12	1859.56
557.32	1867.75
557.51	1873.89
557.71	1875.94
557.90	1773.54
558.10	1867.75
558.30	1785.83
558.49	1753.06
558.69	1701.86
558.88	1759.21
559.08	1816.55
559.28	1755.11
559.47	1744.87
559.67	1812.45
559.86	1871.84
560.06	1812.45
560.26	1816.55
560.45	1824.74
560.65	1771.49
560.84	1826.79
561.04	1675.24
561.24	1773.54
561.43	1738.73
561.63	1830.88
561.82	1662.95
562.02	1787.88
562.22	1746.92
562.41	1667.05
562.61	1699.81
562.80	1714.15
563.00	1904.61
563.19	1802.21
563.39	1806.31
563.59	1746.92
563.78	1705.96
563.98	1628.14
564.17	1724.39
564.37	1656.81
564.56	1728.49
564.76	1691.62
564.96	1800.16
565.15	1720.29
565.35	1832.93
565.54	1755.11
565.74	1814.50
565.93	1748.97
566.13	1771.49
566.32	1808.36
566.52	1789.92
566.71	1656.81
566.91	1816.55
567.11	1787.88
567.30	1701.86
567.50	1804.26
567.69	1824.74
567.89	1673.19
568.08	1689.57
568.28	1787.88
568.47	1685.48
568.67	1816.55
568.86	1665.00
569.06	1806.31
569.25	1724.39
569.45	1691.62
569.64	1675.24
569.84	1763.30
570.04	1785.83
570.23	1746.92
570.43	1767.40
570.62	1767.40
570.82	1929.19
571.01	1685.48
571.21	1679.33
571.40	1742.82
571.60	1781.73
571.79	1812.45
571.99	1787.88
572.18	1683.43
572.38	1865.70
572.57	1734.63
572.77	1882.08
572.96	1945.57
573.16	1718.25
573.35	1759.21
573.55	1830.88
573.74	1773.54
573.94	1775.59
574.13	1665.00
574.33	1775.59
574.52	1759.21
574.71	1757.16
574.91	1677.29
575.10	1648.61
575.30	1759.21
575.49	1652.71
575.69	1751.01
575.88	1710.05
576.08	1726.44
576.27	1822.69
576.47	1708.01
576.66	1834.98
576.86	1853.41
577.05	1767.40
577.25	1808.36
577.44	1898.47
577.64	1734.63
577.83	1814.50
578.02	1789.92
578.22	1902.56
578.41	1886.18
578.61	1736.68
578.80	1712.10
579.00	1767.40
579.19	1714.15
579.39	1800.16
579.58	1767.40
579.77	1716.20
579.97	1820.64
580.16	1869.80
580.36	1865.70
580.55	1867.75
580.75	1763.30
580.94	1845.22
581.13	1843.17
581.33	1904.61
581.52	1765.35
581.72	1890.28
581.91	1847.27
582.11	1783.78
582.30	1771.49
582.49	1738.73
582.69	1830.88
582.88	1867.75
583.08	1744.87
583.27	1775.59
583.47	1806.31
583.66	1667.05
583.85	1701.86
584.05	1804.26
584.24	1712.10
584.44	1865.70
584.63	1857.51
584.82	1800.16
585.02	1808.36
585.21	1853.41
585.41	1841.12
585.60	1734.63
585.79	1847.27
585.99	1992.67
586.18	1920.99
586.37	2240.48
586.57	3385.29
586.76	10043.24
586.96	24422.03
587.15	34362.87
587.34	40422.81
587.54	42290.55
587.73	36810.19
587.93	26402.41
588.12	21597.88
588.31	18435.81
588.51	16486.15
588.70	15036.19
588.89	14032.68
589.09	12949.31
589.28	11018.07
589.47	9523.05
589.67	8112.00
589.86	6434.72
590.06	4923.32
590.25	3977.16
590.44	3088.34
590.64	2631.64
590.83	2277.34
591.02	2082.78
591.22	1953.76
591.41	1945.57
591.60	1865.70
591.80	1964.00
591.99	1773.54
592.18	1751.01
592.38	1826.79
592.57	1773.54
592.76	1804.26
592.96	1744.87
593.15	1759.21
593.34	1834.98
593.54	1714.15
593.73	1779.68
593.92	1732.58
594.12	1802.21
594.31	1810.40
594.50	1800.16
594.70	1869.80
594.89	1898.47
595.08	1683.43
595.28	1757.16
595.47	1974.24
595.66	1814.50
595.86	1730.53
596.05	1761.25
596.24	1667.05
596.43	1857.51
596.63	1896.42
596.82	1755.11
597.01	1708.01
597.21	1798.12
597.40	1800.16
597.59	1714.15
597.79	1753.06
597.98	1802.21
598.17	1830.88
598.36	1724.39
598.56	1808.36
598.75	1701.86
598.94	1730.53
599.14	1753.06
599.33	1703.91
599.52	1824.74
599.71	1675.24
599.91	1812.45
600.10	1785.83
600.29	1718.25
600.48	1779.68
600.68	1775.59
600.87	1800.16
601.06	1708.01
601.26	1796.07
601.45	1730.53
601.64	1648.61
601.83	1847.27
602.03	1720.29
602.22	1658.85
602.41	1767.40
602.60	1859.56
602.80	1794.02
602.99	1763.30
603.18	1712.10
603.37	1777.64
603.57	1746.92
603.76	1738.73
603.95	1822.69
604.14	1716.20
604.34	1722.34
604.53	1773.54
604.72	1775.59
604.91	1714.15
605.10	1699.81
605.30	1697.77
605.49	1845.22
605.68	1822.69
605.87	1816.55
606.07	1640.42
606.26	1736.68
606.45	1777.64
606.64	1669.09
606.84	1691.62
607.03	1685.48
607.22	1751.01
607.41	1687.53
607.60	1718.25
607.80	1765.35
607.99	1662.95
608.18	1769.44
608.37	1759.21
608.56	1695.72
608.76	1755.11
608.95	1861.60
609.14	1742.82
609.33	1738.73
609.52	1796.07
609.72	1736.68
609.91	1812.45
610.10	1683.43
610.29	1822.69
610.48	1740.77
610.68	1662.95
610.87	1763.30
611.06	1759.21
611.25	1740.77
611.44	1742.82
611.63	1740.77
611.83	1742.82
612.02	1626.09
612.21	1794.02
612.40	1660.90
612.59	1714.15
612.79	1697.77
612.98	1783.78
613.17	1847.27
613.36	1722.34
613.55	1814.50
613.74	1662.95
613.93	1658.85
614.13	1703.91
614.32	1787.88
614.51	1767.40
614.70	1716.20
614.89	1724.39
615.08	1767.40
615.28	2133.98
615.47	1673.19
615.66	1734.63
615.85	1705.96
616.04	1828.84
616.23	1716.20
616.42	1724.39
616.62	1705.96
616.81	1740.77
617.00	1718.25
617.19	1751.01
617.38	1652.71
617.57	1746.92
617.76	1701.86
617.95	1726.44
618.15	1716.20
618.34	1757.16
618.53	1626.09
618.72	1877.99
618.91	1800.16
619.10	1853.41
619.29	1718.25
619.48	1736.68
619.68	1695.72
619.87	1697.77
620.06	1613.80
620.25	1783.78
620.44	1744.87
620.63	1732.58
620.82	1748.97
621.01	1783.78
621.20	1708.01
621.39	1808.36
621.59	1808.36
621.78	1728.49
621.97	1777.64
622.16	1779.68
622.35	1669.09
622.54	1751.01
622.73	1728.49
622.92	1626.09
623.11	1724.39
623.30	1630.18
623.49	1660.90
623.68	1654.76
623.88	1734.63
624.07	1685.48
624.26	1650.66
624.45	1798.12
624.64	1699.81
624.83	1738.73
625.02	1781.73
625.21	1738.73
625.40	1738.73
625.59	1886.18
625.78	1744.87
625.97	1769.44
626.16	1691.62
626.35	1693.67
626.54	1736.68
626.74	1783.78
626.93	1638.38
627.12	1683.43
627.31	1726.44
627.50	1714.15
627.69	1769.44
627.88	1689.57
628.07	1802.21
628.26	1607.66
628.45	1697.77
628.64	1722.34
628.83	1734.63
629.02	1679.33
629.21	1832.93
629.40	1734.63
629.59	1675.24
629.78	1722.34
629.97	1718.25
630.16	1730.53
630.35	1634.28
630.54	1679.33
630.73	1716.20
630.92	1740.77
631.11	1697.77
631.30	1722.34
631.49	1775.59
631.68	1794.02
631.87	1683.43
632.06	1634.28
632.25	1794.02
632.44	1699.81
632.63	1742.82
632.82	1658.85
633.01	1654.76
633.20	1714.15
633.39	1636.33
633.58	1611.75
633.77	1746.92
633.96	1732.58
634.15	1826.79
634.34	1722.34
634.53	1851.36
634.72	1714.15
634.91	1654.76
635.10	1746.92
635.29	1724.39
635.48	1697.77
635.67	1716.20
635.86	1681.38
636.05	1808.36
636.24	1683.43
636.43	1781.73
636.62	1755.11
636.81	1624.04
637.00	1726.44
637.19	1783.78
637.38	1695.72
637.57	1630.18
637.76	1705.96
637.95	1658.85
638.14	1673.19
638.33	1695.72
638.52	1673.19
638.71	1695.72
638.89	1732.58
639.08	1851.36
639.27	1869.80
639.46	1714.15
639.65	1826.79
639.84	1765.35
640.03	1697.77
640.22	1699.81
640.41	1773.54
640.60	1691.62
640.79	1804.26
640.98	1665.00
641.17	1800.16
641.36	1748.97
641.55	1730.53
641.74	1667.05
641.92	1691.62
642.11	1693.67
642.30	1652.71
642.49	1726.44
642.68	1660.90
642.87	1742.82
643.06	1761.25
643.25	1757.16
643.44	1705.96
643.63	1734.63
643.82	1812.45
644.00	1683.43
644.19	1751.01
644.38	1626.09
644.57	1781.73
644.76	1716.20
644.95	1673.19
645.14	1755.11
645.33	1781.73
645.52	1691.62
645.71	1683.43
645.89	1640.42
646.08	1730.53
646.27	1607.66
646.46	1859.56
646.65	1660.90
646.84	1675.24
647.03	1683.43
647.22	1798.12
647.40	1767.40
647.59	1712.10
647.78	1665.00
647.97	1697.77
648.16	1652.71
648.35	1746.92
648.54	1763.30
648.73	1660.90
648.91	1718.25
649.10	1703.91
649.29	1722.34
649.48	1757.16
649.67	1755.11
649.86	1648.61
650.05	1705.96
650.23	1796.07
650.42	1628.14
650.61	1746.92
650.80	1716.20
650.99	1902.56
651.18	1763.30
651.36	1714.15
651.55	1665.00
651.74	1687.53
651.93	1603.56
652.12	1722.34
652.31	1775.59
652.49	1681.38
652.68	1710.05
652.87	1767.40
653.06	1693.67
653.25	1820.64
653.44	1716.20
653.62	1777.64
653.81	1748.97
654.00	1714.15
654.19	1777.64
654.38	1912.80
654.56	1775.59
654.75	1642.47
654.94	1816.55
655.13	1791.97
655.32	1820.64
655.51	1761.25
655.69	1660.90
655.88	1800.16
656.07	1716.20
656.26	1705.96
656.45	1607.66
656.63	1683.43
656.82	1726.44
657.01	1796.07
657.20	1693.67
657.38	1806.31
657.57	1701.86
657.76	1589.22
657.95	1759.21
658.14	1720.29
658.32	1722.34
658.51	1712.10
658.70	1757.16
658.89	1734.63
659.08	1800.16
659.26	1890.28
659.45	1677.29
659.64	1761.25
659.83	1615.85
660.01	1839.08
660.20	1742.82
660.39	1779.68
660.58	1642.47
660.76	1757.16
660.95	1640.42
661.14	1781.73
661.33	1611.75
661.51	1693.67
661.70	1734.63
661.89	1824.74
662.08	1708.01
662.26	1705.96
662.45	1642.47
662.64	1898.47
662.83	1804.26
663.01	1697.77
663.20	1667.05
663.39	1740.77
663.58	1771.49
663.76	1781.73
663.95	1761.25
664.14	1673.19
664.32	1744.87
664.51	1671.14
664.70	1675.24
664.89	1699.81
665.07	1714.15
665.26	1759.21
665.45	1642.47
665.64	1804.26
665.82	1796.07
666.01	1751.01
666.20	1628.14
666.38	1839.08
666.57	1826.79
666.76	2211.81
666.95	4683.70
667.13	10448.74
667.32	15093.53
667.51	18036.46
667.69	19103.45
667.88	17798.90
668.07	12607.30
668.25	9777.00
668.44	8243.07
668.63	7389.07
668.81	6817.69
669.00	6317.98
669.19	5734.31
669.38	5093.30
669.56	4493.24
669.75	4081.60
669.94	3438.54
670.12	2938.84
670.31	2584.54
670.50	2328.54
670.68	2125.79
670.87	1892.32
671.06	1796.07
671.24	1800.16
671.43	1804.26
671.62	1732.58
671.80	1697.77
671.99	1751.01
672.18	1744.87
672.36	1861.60
672.55	1697.77
672.74	1769.44
672.92	1675.24
673.11	1722.34
673.29	1638.38
673.48	1767.40
673.67	1675.24
673.85	1748.97
674.04	1681.38
674.23	1812.45
674.41	1888.23
674.60	1658.85
674.79	1636.33
674.97	1728.49
675.16	1734.63
675.34	1697.77
675.53	1710.05
675.72	1834.98
675.90	1910.75
676.09	1722.34
676.28	1761.25
676.46	1705.96
676.65	1800.16
676.83	1683.43
677.02	1732.58
677.21	1703.91
677.39	1693.67
677.58	1714.15
677.77	1738.73
677.95	1697.77
678.14	1665.00
678.32	1665.00
678.51	1730.53
678.70	1824.74
678.88	1720.29
679.07	1687.53
679.25	1703.91
679.44	1714.15
679.63	1716.20
679.81	1677.29
680.00	1779.68
680.18	1781.73
680.37	1800.16
680.55	1681.38
680.74	1722.34
680.93	1650.66
681.11	1767.40
681.30	1701.86
681.48	1720.29
681.67	1746.92
681.85	1677.29
682.04	1572.84
682.23	1779.68
682.41	1714.15
682.60	1683.43
682.78	1724.39
682.97	1662.95
683.15	1734.63
683.34	1701.86
683.53	1810.40
683.71	1720.29
683.90	1816.55
684.08	1851.36
684.27	1681.38
684.45	1722.34
684.64	1816.55
684.82	1673.19
685.01	1775.59
685.19	1689.57
685.38	1781.73
685.57	1705.96
685.75	1687.53
685.94	1763.30
686.12	1693.67
686.31	1630.18
686.49	1802.21
686.68	1583.08
686.86	1757.16
687.05	1728.49
687.23	1863.65
687.42	1691.62
687.60	1611.75
687.79	1798.12
687.97	1828.84
688.16	1767.40
688.34	1808.36
688.53	1640.42
688.71	1701.86
688.90	1859.56
689.08	1681.38
689.27	1722.34
689.45	1818.60
689.64	1783.78
689.82	1697.77
690.01	1751.01
690.19	1728.49
690.38	1699.81
690.56	1734.63
690.75	1665.00
690.93	1699.81
691.12	1693.67
691.30	1669.09
691.49	1734.63
691.67	1710.05
691.86	1787.88
692.04	1632.23
692.23	1658.85
692.41	1685.48
692.60	1877.99
692.78	1738.73
692.97	1693.67
693.15	1761.25
693.34	1785.83
693.52	1796.07
693.71	1701.86
693.89	1685.48
694.08	1644.52
694.26	1746.92
694.44	1763.30
694.63	1728.49
694.81	1677.29
695.00	1697.77
695.18	1716.20
695.37	1822.69
695.55	1695.72
695.74	1624.04
695.92	1599.46
696.10	1726.44
696.29	1660.90
696.47	1697.77
696.66	1687.53
696.84	1685.48
697.03	1753.06
697.21	1814.50
697.40	2326.49
697.58	1732.58
697.76	1705.96
697.95	1724.39
698.13	1665.00
698.32	1679.33
698.50	1748.97
698.68	1699.81
698.87	1759.21
699.05	1808.36
699.24	1783.78
699.42	1648.61
699.61	1714.15
699.79	1716.20
699.97	1683.43
700.16	1640.42
700.34	1638.38
700.53	1636.33
700.71	1794.02
700.89	1738.73
701.08	1699.81
701.26	1695.72
701.45	2158.56
701.63	1615.85
701.81	1736.68
702.00	1697.77
702.18	1779.68
702.37	1601.51
702.55	1787.88
702.73	1677.29
702.92	1648.61
703.10	1736.68
703.28	1712.10
703.47	1642.47
703.65	1828.84
703.84	1736.68
704.02	1689.57
704.20	1796.07
704.39	1658.85
704.57	1679.33
704.75	1753.06
704.94	1738.73
705.12	1695.72
705.30	1769.44
705.49	2207.71
705.67	4364.22
705.86	9396.08
706.04	12498.75
706.22	14499.62
706.41	15494.93
706.59	13987.63
706.77	9744.24
706.96	7333.78
707.14	6639.51
707.32	5869.48
707.51	5535.66
707.69	4829.11
707.87	4247.49
708.06	3571.66
708.24	2897.88
708.42	2512.86
708.61	2193.37
708.79	1839.08
708.97	1894.37
709.16	1886.18
709.34	1839.08
709.52	1718.25
709.71	1746.92
709.89	1738.73
710.07	1683.43
710.26	1669.09
710.44	1736.68
710.62	1765.35
710.80	1673.19
710.99	1679.33
711.17	1691.62
711.35	1730.53
711.54	1687.53
711.72	1787.88
711.90	1757.16
712.09	1730.53
712.27	1708.01
712.45	1734.63
712.63	1685.48
712.82	1740.77
713.00	1746.92
713.18	1708.01
713.37	1742.82
713.55	1779.68
713.73	1701.86
713.91	1751.01
714.10	1658.85
714.28	1699.81
714.46	1755.11
714.65	1796.07
714.83	1728.49
715.01	1687.53
715.19	1753.06
715.38	1640.42
715.56	1710.05
715.74	1673.19
715.92	1689.57
716.11	1748.97
716.29	1566.70
716.47	1683.43
716.65	1685.48
716.84	1642.47
717.02	1822.69
717.20	1628.14
717.38	1689.57
717.57	1638.38
717.75	1759.21
717.93	1652.71
718.11	1738.73
718.30	1669.09
718.48	1771.49
718.66	1730.53
718.84	1746.92
719.03	1748.97
719.21	1595.37
719.39	1730.53
719.57	1650.66
719.75	1722.34
719.94	1724.39
720.12	1691.62
720.30	1755.11
720.48	1767.40
720.67	1697.77
720.85	1644.52
721.03	1759.21
721.21	1574.89
721.39	1718.25
721.58	1712.10
721.76	1761.25
721.94	1775.59
722.12	1777.64
722.30	1820.64
722.49	1642.47
722.67	1791.97
722.85	1728.49
723.03	1611.75
723.21	1744.87
723.40	1708.01
723.58	1820.64
723.76	1660.90
723.94	1802.21
724.12	1773.54
724.30	1734.63
724.49	1806.31
724.67	1652.71
724.85	1834.98
725.03	1685.48
725.21	1742.82
725.40	1724.39
725.58	1650.66
725.76	1783.78
725.94	1738.73
726.12	1650.66
726.30	1691.62
726.49	1755.11
726.67	1699.81
726.85	1748.97
727.03	1779.68
727.21	2181.09
727.39	2959.31
727.57	3792.84
727.76	4192.19
727.94	4517.82
728.12	4392.89
728.30	3809.22
728.48	3071.95
728.66	2770.90
728.84	2533.34
729.03	2377.69
729.21	2138.08
729.39	2002.91
729.57	1812.45
729.75	1834.98
729.93	1853.41
730.11	1724.39
730.30	1812.45
730.48	1687.53
730.66	1882.08
730.84	1841.12
731.02	1718.25
731.20	1722.34
731.38	1767.40
731.56	1685.48
731.74	1578.98
731.93	1738.73
732.11	1742.82
732.29	1718.25
732.47	1671.14
732.65	1755.11
732.83	1757.16
733.01	1779.68
733.19	1650.66
733.37	1755.11
733.56	1746.92
733.74	1665.00
733.92	1794.02
734.10	1742.82
734.28	1744.87
734.46	1615.85
734.64	1679.33
734.82	1652.71
735.00	1621.99
735.18	1714.15
735.36	1777.64
735.54	1689.57
735.73	1730.53
735.91	1753.06
736.09	1734.63
736.27	1718.25
736.45	1796.07
736.63	1591.27
736.81	1697.77
736.99	1728.49
737.17	1734.63
737.35	1675.24
737.53	1722.34
737.71	1662.95
737.89	1796.07
738.07	1646.57
738.25	1615.85
738.43	1603.56
738.61	1738.73
738.80	1624.04
738.98	1681.38
739.16	1705.96
739.34	1675.24
739.52	1779.68
739.70	1720.29
739.88	1771.49
740.06	1787.88
740.24	1521.64
740.42	1720.29
740.60	1710.05
740.78	1646.57
740.96	1624.04
741.14	1693.67
741.32	1753.06
741.50	1699.81
741.68	1830.88
741.86	1843.17
742.04	1593.32
742.22	1636.33
742.40	1746.92
742.58	1710.05
742.76	1650.66
742.94	1669.09
743.12	1626.09
743.30	1724.39
743.48	1712.10
743.66	1714.15
743.84	1722.34
744.02	1662.95
744.20	1660.90
744.38	1703.91
744.56	1736.68
744.74	1806.31
744.92	1738.73
745.10	1806.31
745.28	1773.54
745.46	1873.89
745.64	1613.80
745.82	1808.36
746.00	1718.25
746.18	1830.88
746.36	1615.85
746.54	1781.73
746.72	1683.43
746.90	1662.95
747.08	1789.92
747.26	1734.63
747.44	1748.97
747.62	1765.35
747.80	1675.24
747.98	1732.58
748.15	1681.38
748.33	1783.78
748.51	1714.15
748.69	1800.16
748.87	1609.70
749.05	1648.61
749.23	1701.86
749.41	1714.15
749.59	1763.30
749.77	1757.16
749.95	1691.62
750.13	1648.61
750.31	1689.57
750.49	1738.73
750.67	1722.34
750.85	1798.12
751.03	1708.01
751.20	1734.63
751.38	1718.25
751.56	1652.71
751.74	1714.15
751.92	1665.00
752.10	1771.49
752.28	1822.69
752.46	1673.19
752.64	1665.00
752.82	1720.29
753.00	1853.41
753.18	1652.71
753.35	1703.91
753.53	1724.39
753.71	1699.81
753.89	1738.73
754.07	1728.49
754.25	1759.21
754.43	1751.01
754.61	1628.14
754.79	1822.69
754.97	1796.07
755.14	1789.92
755.32	1691.62
755.50	1730.53
755.68	1691.62
755.86	1658.85
756.04	1732.58
756.22	1578.98
756.40	1734.63
756.57	1773.54
756.75	1695.72
756.93	1785.83
757.11	1693.67
757.29	1640.42
757.47	1626.09
757.65	1675.24
757.82	1615.85
758.00	1628.14
758.18	1671.14
758.36	1640.42
758.54	1699.81
758.72	1621.99
758.90	1837.03
759.07	1662.95
759.25	1648.61
759.43	1796.07
759.61	1746.92
759.79	2199.52
759.97	1724.39
760.15	1738.73
760.32	1699.81
760.50	1681.38
760.68	1763.30
760.86	1677.29
761.04	1834.98
761.22	1697.77
761.39	1755.11
761.57	1703.91
761.75	1636.33
761.93	1742.82
762.11	1662.95
762.28	1791.97
762.46	1724.39
762.64	1804.26
762.82	1689.57
763.00	1689.57
763.18	1810.40
763.35	1626.09
763.53	1728.49
763.71	1669.09
763.89	1654.76
764.07	1677.29
764.24	1689.57
764.42	1734.63
764.60	1658.85
764.78	1740.77
764.96	1697.77
765.13	1722.34
765.31	1695.72
765.49	1822.69
765.67	1578.98
765.84	1697.77
766.02	1648.61
766.20	1624.04
766.38	1689.57
766.56	1699.81
766.73	1732.58
766.91	1730.53
767.09	1708.01
767.27	1818.60
767.44	1681.38
767.62	1693.67
767.80	1683.43
767.98	1679.33
768.15	1671.14
768.33	1746.92
768.51	1759.21
768.69	1714.15
768.87	1757.16
769.04	1689.57
769.22	1884.13
769.40	1744.87
769.58	1828.84
769.75	1720.29
769.93	1804.26
770.11	1703.91
770.28	1732.58
770.46	1757.16
770.64	1695.72
770.82	1658.85
770.99	1689.57
771.17	1701.86
771.35	1701.86
771.53	1703.91
771.70	1697.77
771.88	1708.01
772.06	1730.53
772.23	1681.38
772.41	1746.92
772.59	1722.34
772.77	1638.38
772.94	1677.29
773.12	1816.55
773.30	1734.63
773.47	1705.96
773.65	1685.48
773.83	1843.17
774.01	1736.68
774.18	1572.84
774.36	1660.90
774.54	1619.94
774.71	1732.58
774.89	1605.61
775.07	1703.91
775.24	1656.81
775.42	1613.80
775.60	1802.21
775.78	1710.05
775.95	1724.39
776.13	1583.08
776.31	1595.37
776.48	1757.16
776.66	1746.92
776.84	1685.48
777.01	1640.42
777.19	1685.48
777.37	1681.38
777.54	1728.49
777.72	1906.66
777.90	1759.21
778.07	1654.76
778.25	1937.38
778.43	1763.30
778.60	1656.81
778.78	1824.74
778.96	1794.02
779.13	1640.42
779.31	1767.40
779.49	1662.95
779.66	1693.67
779.84	1722.34
780.01	1685.48
780.19	1660.90
780.37	1755.11
780.54	1708.01
780.72	1650.66
780.90	1736.68
781.07	1628.14
781.25	1605.61
781.43	1798.12
781.60	1742.82
781.78	1802.21
781.95	1710.05
782.13	1681.38
782.31	1714.15
782.48	1658.85
782.66	1742.82
782.83	1853.41
783.01	1761.25
783.19	1701.86
783.36	1662.95
783.54	1652.71
783.72	1710.05
783.89	1587.18
784.07	1697.77
784.24	1734.63
784.42	1820.64
784.60	1753.06
784.77	1738.73
784.95	1615.85
785.12	1601.51
785.30	1722.34
785.47	1599.46
785.65	1640.42
785.83	1675.24
786.00	1728.49
786.18	1720.29
786.35	1605.61
786.53	1673.19
786.71	1773.54
786.88	1779.68
787.06	1705.96
787.23	1677.29
787.41	1619.94
787.58	1736.68
787.76	1708.01
787.94	1757.16
788.11	1746.92
788.29	1542.12
788.46	1708.01
788.64	1585.13
788.81	1728.49
788.99	1648.61
789.16	1677.29
789.34	1652.71
789.52	1589.22
789.69	1654.76
789.87	1628.14
790.04	1708.01
790.22	1726.44
790.39	1845.22
790.57	1628.14
790.74	1671.14
790.92	1804.26
791.09	1562.60
791.27	1701.86
791.44	1759.21
791.62	1746.92
791.79	1740.77
791.97	1689.57
792.15	1853.41
792.32	1755.11
792.50	1759.21
792.67	1738.73
792.85	1773.54
793.02	1708.01
793.20	1728.49
793.37	1644.52
793.55	1708.01
793.72	1615.85
793.90	1755.11
794.07	1654.76
794.25	1603.56
794.42	1705.96
794.60	1658.85
794.77	1759.21
794.95	1755.11
795.12	1791.97
795.30	1736.68
795.47	1679.33
795.65	1853.41
795.82	1691.62
796.00	1708.01
796.17	1695.72
796.34	1667.05
796.52	1753.06
796.69	1738.73
796.87	1814.50
797.04	1830.88
797.22	1710.05
797.39	1753.06
797.57	1765.35
797.74	1726.44
797.92	1798.12
798.09	1687.53
798.27	1753.06
798.44	1673.19
798.62	1658.85
798.79	1728.49
798.96	1753.06
799.14	1710.05
799.31	1871.84
799.49	1712.10
799.66	1681.38
799.84	1681.38
800.01	1673.19
800.19	1708.01
800.36	1611.75
800.53	1755.11
800.71	1722.34
800.88	1812.45
801.06	1691.62
801.23	1763.30
801.41	1697.77
801.58	1642.47
801.75	1693.67
801.93	1703.91
802.10	1787.88
802.28	1689.57
802.45	1662.95
802.63	1693.67
802.80	1746.92
802.97	1722.34
803.15	1724.39
803.32	1669.09
803.50	1638.38
803.67	1740.77
803.84	1576.94
804.02	1701.86
804.19	1681.38
804.37	1628.14
804.54	1611.75
804.71	1681.38
804.89	1699.81
805.06	1681.38
805.24	1599.46
805.41	1705.96
805.58	1718.25
805.76	1888.23
805.93	1685.48
806.10	1779.68
806.28	1771.49
806.45	1652.71
806.63	1724.39
806.80	1718.25
806.97	1828.84
807.15	1693.67
807.32	1744.87
807.49	1677.29
807.67	1654.76
807.84	1730.53
808.01	1566.70
808.19	1828.84
808.36	1810.40
808.54	1781.73
808.71	1671.14
808.88	1708.01
809.06	1787.88
809.23	1720.29
809.40	1693.67
809.58	1810.40
809.75	1687.53
809.92	1619.94
810.10	1894.37
810.27	1708.01
810.44	1720.29
810.62	1759.21
810.79	1705.96
810.96	1746.92
811.14	1691.62
811.31	1714.15
811.48	1730.53
811.66	1658.85
811.83	1708.01
812.00	1769.44
812.18	1771.49
812.35	1818.60
812.52	1699.81
812.69	1656.81
812.87	1728.49
813.04	1615.85
813.21	1703.91
813.39	1683.43
813.56	1638.38
813.73	1746.92
813.91	1716.20
814.08	1687.53
814.25	1667.05
814.42	1607.66
814.60	1695.72
814.77	1677.29
814.94	1617.90
815.12	1703.91
815.29	1773.54
815.46	1714.15
815.63	1736.68
815.81	1716.20
815.98	1646.57
816.15	1681.38
816.33	1695.72
816.50	1724.39
816.67	1673.19
816.84	1718.25
817.02	1669.09
817.19	1710.05
817.36	1632.23
817.53	1722.34
817.71	1667.05
817.88	1728.49
818.05	1714.15
818.22	1718.25
818.40	1787.88
818.57	1738.73
818.74	1751.01
818.91	1595.37
819.09	1638.38
819.26	1751.01
819.43	1716.20
819.60	1673.19
819.78	1726.44
819.95	1830.88
820.12	1722.34
820.29	1808.36
820.47	1791.97
820.64	1677.29
820.81	1642.47
820.98	1675.24
821.15	1683.43
821.33	1761.25
821.50	1607.66
821.67	1781.73
821.84	1648.61
822.02	1804.26
822.19	1791.97
822.36	1738.73
822.53	1705.96
822.70	1605.61
822.88	1585.13
823.05	1783.78
823.22	1710.05
823.39	1671.14
823.56	1683.43
823.74	1834.98
823.91	1652.71
824.08	1601.51
824.25	1609.70
824.42	1779.68
824.60	1669.09
824.77	1701.86
824.94	1708.01
825.11	1783.78
825.28	1697.77
825.45	1757.16
825.63	1681.38
825.80	1673.19
825.97	1685.48
826.14	1687.53
826.31	1613.80
826.48	1730.53
826.66	1599.46
826.83	1740.77
827.00	1679.33
827.17	1673.19
827.34	1685.48
827.51	1693.67
827.69	1693.67
827.86	1640.42
828.03	1619.94
828.20	1619.94
828.37	1720.29
828.54	1763.30
828.71	1705.96
828.89	1794.02
829.06	1765.35
829.23	1720.29
829.40	1665.00
829.57	1673.19
829.74	1730.53
829.91	1667.05
830.09	1632.23
830.26	1689.57
830.43	1734.63
830.60	1691.62
830.77	1675.24
830.94	1730.53
831.11	1791.97
831.28	1722.34
831.46	1794.02
831.63	1658.85
831.80	1746.92
831.97	1644.52
832.14	1728.49
832.31	1718.25
832.48	1695.72
832.65	1722.34
832.82	1777.64
832.99	1734.63
833.17	1646.57
833.34	1783.78
833.51	1665.00
833.68	1632.23
833.85	1800.16
834.02	1640.42
834.19	1665.00
834.36	1630.18
834.53	1730.53
834.70	1806.31
834.87	1779.68
835.04	1640.42
835.22	1650.66
835.39	1716.20
835.56	1605.61
835.73	1705.96
835.90	1714.15
836.07	1675.24
836.24	1767.40
836.41	1595.37
836.58	1681.38
836.75	1746.92
836.92	1671.14
837.09	1691.62
837.26	1828.84
837.43	1720.29
837.60	1738.73
837.77	1679.33
837.94	1765.35
838.12	1877.99
838.29	1755.11
838.46	1697.77
838.63	1658.85
838.80	1742.82
838.97	1681.38
839.14	1755.11
839.31	1710.05
839.48	1791.97
839.65	1617.90
839.82	1757.16
839.99	1687.53
840.16	1710.05
840.33	1742.82
840.50	1738.73
840.67	1681.38
840.84	1538.02
841.01	1730.53
841.18	1703.91
841.35	1732.58
841.52	1722.34
841.69	1837.03
841.86	1773.54
842.03	1726.44
842.20	1742.82
842.37	1648.61
842.54	1665.00
842.71	1736.68
842.88	1615.85
843.05	1679.33
843.22	1724.39
843.39	1740.77
843.56	1607.66
843.73	1628.14
843.90	1708.01
844.07	1714.15
844.24	1763.30
844.41	1720.29
844.58	1734.63
844.75	1701.86
844.92	1759.21
845.09	1697.77
845.26	1679.33
845.43	1718.25
845.60	1693.67
845.77	1746.92
845.94	1728.49
846.10	1744.87
846.27	1628.14
846.44	1656.81
846.61	1697.77
846.78	1730.53
846.95	1789.92
847.12	1667.05
847.29	1769.44
847.46	1726.44
847.63	1761.25
847.80	1677.29
847.97	1673.19
848.14	1853.41
848.31	1583.08
848.48	1693.67
848.65	1751.01
848.82	1677.29
848.98	1843.17
849.15	1740.77
849.32	1746.92
849.49	1720.29
849.66	1697.77
849.83	1720.29
850.00	1656.81
850.17	1761.25
850.34	1734.63
850.51	1720.29
850.68	1685.48
850.85	1757.16
851.01	1710.05
851.18	1746.92
851.35	1677.29
851.52	1730.53
851.69	1814.50
851.86	1615.85
852.03	1773.54
852.20	1759.21
852.37	1681.38
852.53	1640.42
852.70	1722.34
852.87	1724.39
853.04	1734.63
853.21	1685.48
853.38	1822.69
853.55	1744.87
853.72	1716.20
853.89	1681.38
854.05	1695.72
854.22	1617.90
854.39	1697.77
854.56	1710.05
854.73	1761.25
854.90	1621.99
855.07	1724.39
855.23	1718.25
855.40	1638.38
855.57	1708.01
855.74	1593.32
855.91	1896.42
856.08	1667.05
856.25	1644.52
856.41	1732.58
856.58	1679.33
856.75	1761.25
856.92	1656.81
857.09	1753.06
857.26	1640.42
857.42	1677.29
857.59	1683.43
857.76	1691.62
857.93	1751.01
858.10	1669.09
858.27	1619.94
858.43	1691.62
858.60	1687.53
858.77	1646.57
858.94	1755.11
859.11	1734.63
859.27	1687.53
859.44	1724.39
859.61	1775.59
859.78	1738.73
859.95	1685.48
860.12	1669.09
860.28	1851.36
860.45	1761.25
860.62	1597.42
860.79	1691.62
860.95	1759.21
861.12	1591.27
861.29	1640.42
861.46	1724.39
861.63	1724.39
861.79	1742.82
861.96	1632.23
862.13	1697.77
862.30	1818.60
862.47	1570.79
862.63	1597.42
862.80	1759.21
862.97	1779.68
863.14	1753.06
863.30	1789.92
863.47	1683.43
863.64	1732.58
863.81	1802.21
863.97	1617.90
864.14	1740.77
864.31	1640.42
864.48	1767.40
864.65	1665.00
864.81	1714.15
864.98	1751.01
865.15	1751.01
865.32	1796.07
865.48	1732.58
865.65	1839.08
865.82	1644.52
865.98	1703.91
866.15	1808.36
866.32	1738.73
866.49	1634.28
866.65	1830.88
866.82	1626.09
866.99	1650.66
867.16	1646.57
867.32	1671.14
867.49	1689.57
867.66	1697.77
867.83	1603.56
867.99	1669.09
868.16	1671.14
868.33	1658.85
868.49	1718.25
868.66	1748.97
868.83	1755.11
868.99	1794.02
869.16	1742.82
869.33	1742.82
869.50	1759.21
869.66	1763.30
869.83	1671.14
870.00	1632.23
870.16	1693.67
870.33	1742.82
870.50	1839.08
870.66	1751.01
870.83	1853.41
871.00	1654.76
871.17	1691.62
871.33	1734.63
871.50	1667.05
871.67	1712.10
871.83	1638.38
872.00	1798.12
872.17	1673.19
872.33	1771.49
872.50	1767.40
872.67	1652.71
872.83	1730.53
873.00	1759.21
873.17	1658.85
873.33	1753.06
873.50	1771.49
873.67	1673.19
873.83	1630.18
874.00	1677.29
874.16	1736.68
874.33	1697.77
874.50	1617.90
874.66	1763.30
874.83	1730.53
875.00	1722.34
875.16	1759.21
875.33	1761.25
875.50	1574.89
875.66	1716.20
875.83	1705.96
875.99	1730.53
876.16	1660.90
876.33	1656.81
876.49	1693.67
876.66	1777.64
876.83	1718.25
876.99	1646.57
877.16	1697.77
877.32	1753.06
877.49	1708.01
877.66	1705.96
877.82	1714.15
877.99	1757.16
878.15	1771.49
878.32	1738.73
878.49	1734.63
878.65	1691.62
878.82	1837.03
878.98	1693.67
879.15	1796.07
879.32	1689.57
879.48	1718.25
879.65	1728.49
879.81	1638.38
879.98	1701.86
880.15	1626.09
880.31	1746.92
880.48	1665.00
880.64	1761.25
880.81	1775.59
880.97	1802.21
881.14	1812.45
881.31	1648.61
881.47	1871.84
881.64	1691.62
881.80	1691.62
881.97	1699.81
882.13	1718.25
882.30	1656.81
882.47	1560.55
882.63	1734.63
882.80	1679.33
882.96	1669.09
883.13	1718.25
883.29	1738.73
883.46	1757.16
883.62	1746.92
883.79	1724.39
883.95	1736.68
884.12	1708.01
884.29	1748.97
884.45	1714.15
884.62	1761.25
884.78	1701.86
884.95	1865.70
885.11	1675.24
885.28	1777.64
885.44	1656.81
885.61	1714.15
885.77	1689.57
885.94	1708.01
886.10	1710.05
886.27	1699.81
886.43	1675.24
886.60	1779.68
886.76	1671.14
886.93	1619.94
887.09	1699.81
887.26	1558.50
887.42	1732.58
887.59	1767.40
887.75	1759.21
887.92	1763.30
888.08	1751.01
888.25	1796.07
888.41	1757.16
888.58	1703.91
888.74	1640.42
888.91	1568.74
>>>>>End Processed Spectral Data<<<<<
