SpectraSuite Data File
++++++++++++++++++++++++++++++++++++
Date: Mon Jun 06 15:36:17 CEST 2016
User: root
Dark Spectrum Present: No
Reference Spectrum Present: No
Number of Sampled Component Spectra: 1
Spectrometers: USB4C02835
Integration Time (usec): 100000 (USB4C02835)
Spectra Averaged: 1 (USB4C02835)
Boxcar Smoothing: 0 (USB4C02835)
Correct for Electrical Dark: No (USB4C02835)
Strobe/Lamp Enabled: No (USB4C02835)
Correct for Detector Non-linearity: No (USB4C02835)
Correct for Stray Light: No (USB4C02835)
Number of Pixels in Processed Spectrum: 3648
>>>>>Begin Processed Spectral Data<<<<<
177.47	1460.20
177.69	1460.20
177.91	1460.20
178.13	1468.39
178.36	1511.40
178.58	1628.14
178.80	1771.49
179.02	1669.09
179.24	1619.94
179.46	1701.86
179.68	1832.93
179.90	1654.76
180.13	1740.77
180.35	1660.90
180.57	1724.39
180.79	1695.72
181.01	1697.77
181.23	1763.30
181.45	1697.77
181.67	1751.01
181.90	1781.73
182.12	1646.57
182.34	1673.19
182.56	1759.21
182.78	1763.30
183.00	1621.99
183.22	1765.35
183.44	1636.33
183.66	1789.92
183.89	1849.32
184.11	1722.34
184.33	1759.21
184.55	1722.34
184.77	1755.11
184.99	1683.43
185.21	1710.05
185.43	1841.12
185.65	1638.38
185.87	1693.67
186.10	1834.98
186.32	1834.98
186.54	1718.25
186.76	1757.16
186.98	1816.55
187.20	1648.61
187.42	1701.86
187.64	1804.26
187.86	1722.34
188.08	1728.49
188.30	1746.92
188.52	1708.01
188.75	1814.50
188.97	1742.82
189.19	1691.62
189.41	1703.91
189.63	1673.19
189.85	1726.44
190.07	1652.71
190.29	1609.70
190.51	1791.97
190.73	1605.61
190.95	1744.87
191.17	1757.16
191.39	1648.61
191.61	1652.71
191.84	1650.66
192.06	1701.86
192.28	1701.86
192.50	1955.81
192.72	1798.12
192.94	1789.92
193.16	1751.01
193.38	1726.44
193.60	1665.00
193.82	1613.80
194.04	1873.89
194.26	1687.53
194.48	1738.73
194.70	1646.57
194.92	1675.24
195.14	1732.58
195.36	1683.43
195.58	1734.63
195.80	1734.63
196.02	1744.87
196.24	1732.58
196.46	1701.86
196.69	1683.43
196.91	1910.75
197.13	1626.09
197.35	1609.70
197.57	1794.02
197.79	1708.01
198.01	1738.73
198.23	1740.77
198.45	1742.82
198.67	1638.38
198.89	1693.67
199.11	1761.25
199.33	1640.42
199.55	1632.23
199.77	1685.48
199.99	1767.40
200.21	1640.42
200.43	1763.30
200.65	1669.09
200.87	1589.22
201.09	1761.25
201.31	1640.42
201.53	1759.21
201.75	1718.25
201.97	1638.38
202.19	1753.06
202.41	1656.81
202.63	1855.46
202.85	1757.16
203.07	1746.92
203.29	1626.09
203.51	1662.95
203.73	1652.71
203.95	1929.19
204.17	1732.58
204.39	1730.53
204.61	1708.01
204.83	1679.33
205.05	1740.77
205.27	1781.73
205.49	1820.64
205.71	1656.81
205.93	1689.57
206.15	1722.34
206.37	1671.14
206.59	1679.33
206.81	1656.81
207.03	1673.19
207.25	1658.85
207.47	1705.96
207.69	1734.63
207.91	1839.08
208.13	1796.07
208.34	1669.09
208.56	1714.15
208.78	1701.86
209.00	1716.20
209.22	1714.15
209.44	1787.88
209.66	1648.61
209.88	1785.83
210.10	1677.29
210.32	1669.09
210.54	1796.07
210.76	1781.73
210.98	1714.15
211.20	1660.90
211.42	1660.90
211.64	1763.30
211.86	1755.11
212.08	1738.73
212.30	1699.81
212.52	1665.00
212.74	1804.26
212.96	1728.49
213.17	1708.01
213.39	1669.09
213.61	1798.12
213.83	1654.76
214.05	1609.70
214.27	1771.49
214.49	1673.19
214.71	1701.86
214.93	1753.06
215.15	1746.92
215.37	1689.57
215.59	1621.99
215.81	1738.73
216.03	1834.98
216.24	1714.15
216.46	1714.15
216.68	1673.19
216.90	1820.64
217.12	1734.63
217.34	1716.20
217.56	1755.11
217.78	1837.03
218.00	1789.92
218.22	1746.92
218.44	1755.11
218.66	1738.73
218.87	1859.56
219.09	1732.58
219.31	1757.16
219.53	1726.44
219.75	1710.05
219.97	1609.70
220.19	1665.00
220.41	1703.91
220.63	1787.88
220.85	1824.74
221.06	1652.71
221.28	1826.79
221.50	1787.88
221.72	1685.48
221.94	1740.77
222.16	1734.63
222.38	1773.54
222.60	1730.53
222.82	1665.00
223.03	1759.21
223.25	1660.90
223.47	1777.64
223.69	1767.40
223.91	1699.81
224.13	1650.66
224.35	1701.86
224.57	1695.72
224.78	1759.21
225.00	1667.05
225.22	1687.53
225.44	1779.68
225.66	1783.78
225.88	1732.58
226.10	1738.73
226.32	1675.24
226.53	1867.75
226.75	1718.25
226.97	1738.73
227.19	1718.25
227.41	1673.19
227.63	1650.66
227.85	1617.90
228.06	1724.39
228.28	1710.05
228.50	1763.30
228.72	1681.38
228.94	1667.05
229.16	1599.46
229.37	1644.52
229.59	1708.01
229.81	1818.60
230.03	1695.72
230.25	1581.03
230.47	1652.71
230.69	1642.47
230.90	1769.44
231.12	1660.90
231.34	1748.97
231.56	1716.20
231.78	1628.14
232.00	1701.86
232.21	1687.53
232.43	1650.66
232.65	1593.32
232.87	1740.77
233.09	1650.66
233.30	1634.28
233.52	1742.82
233.74	1722.34
233.96	1695.72
234.18	1763.30
234.40	1681.38
234.61	1781.73
234.83	1554.41
235.05	1673.19
235.27	1871.84
235.49	1779.68
235.70	1751.01
235.92	1849.32
236.14	1687.53
236.36	1781.73
236.58	1656.81
236.79	1726.44
237.01	1734.63
237.23	1660.90
237.45	1796.07
237.67	1675.24
237.88	1683.43
238.10	1771.49
238.32	1724.39
238.54	1640.42
238.76	1675.24
238.97	1601.51
239.19	1624.04
239.41	1834.98
239.63	1753.06
239.85	1626.09
240.06	1734.63
240.28	1716.20
240.50	1728.49
240.72	1660.90
240.93	1662.95
241.15	1732.58
241.37	1681.38
241.59	1773.54
241.81	1714.15
242.02	1718.25
242.24	1728.49
242.46	1781.73
242.68	1710.05
242.89	1751.01
243.11	1742.82
243.33	1681.38
243.55	1701.86
243.76	1759.21
243.98	1658.85
244.20	1644.52
244.42	1695.72
244.64	1734.63
244.85	1601.51
245.07	1648.61
245.29	1699.81
245.51	1677.29
245.72	1730.53
245.94	1697.77
246.16	1775.59
246.38	1705.96
246.59	1685.48
246.81	1638.38
247.03	1665.00
247.24	1558.50
247.46	1732.58
247.68	1748.97
247.90	1697.77
248.11	1730.53
248.33	1773.54
248.55	1679.33
248.77	1705.96
248.98	1714.15
249.20	1781.73
249.42	1695.72
249.64	1677.29
249.85	1777.64
250.07	1701.86
250.29	1757.16
250.50	1667.05
250.72	1626.09
250.94	1683.43
251.16	1777.64
251.37	1777.64
251.59	1699.81
251.81	1751.01
252.02	1796.07
252.24	1689.57
252.46	1757.16
252.68	1615.85
252.89	1660.90
253.11	1681.38
253.33	1773.54
253.54	1794.02
253.76	1658.85
253.98	1691.62
254.20	1734.63
254.41	1615.85
254.63	1720.29
254.85	1691.62
255.06	1669.09
255.28	1759.21
255.50	1734.63
255.71	1671.14
255.93	1626.09
256.15	1740.77
256.36	1763.30
256.58	1695.72
256.80	1724.39
257.02	1671.14
257.23	1710.05
257.45	1746.92
257.67	1775.59
257.88	1681.38
258.10	1734.63
258.32	1650.66
258.53	1726.44
258.75	1814.50
258.97	1691.62
259.18	1734.63
259.40	1726.44
259.62	1761.25
259.83	1834.98
260.05	1675.24
260.27	2056.16
260.48	1789.92
260.70	1699.81
260.92	1658.85
261.13	1718.25
261.35	1673.19
261.57	1757.16
261.78	1638.38
262.00	1605.61
262.22	1759.21
262.43	1693.67
262.65	1665.00
262.86	1699.81
263.08	1894.37
263.30	1675.24
263.51	1660.90
263.73	1656.81
263.95	1783.78
264.16	1669.09
264.38	1640.42
264.60	1671.14
264.81	1720.29
265.03	1751.01
265.25	1830.88
265.46	1712.10
265.68	1771.49
265.89	1726.44
266.11	1589.22
266.33	1736.68
266.54	1787.88
266.76	1724.39
266.98	1744.87
267.19	1716.20
267.41	1775.59
267.62	1724.39
267.84	1658.85
268.06	1703.91
268.27	1728.49
268.49	1804.26
268.70	1781.73
268.92	1669.09
269.14	1624.04
269.35	1660.90
269.57	1691.62
269.79	1775.59
270.00	1685.48
270.22	1824.74
270.43	1691.62
270.65	1585.13
270.87	1789.92
271.08	1746.92
271.30	1726.44
271.51	1771.49
271.73	1728.49
271.95	1798.12
272.16	1730.53
272.38	1779.68
272.59	1648.61
272.81	1708.01
273.02	1759.21
273.24	1812.45
273.46	1740.77
273.67	1722.34
273.89	1613.80
274.10	1695.72
274.32	1839.08
274.54	1665.00
274.75	1755.11
274.97	1697.77
275.18	1779.68
275.40	1718.25
275.61	1658.85
275.83	1699.81
276.05	1679.33
276.26	1705.96
276.48	1681.38
276.69	1703.91
276.91	1667.05
277.12	1769.44
277.34	1798.12
277.55	1816.55
277.77	1734.63
277.99	1730.53
278.20	1705.96
278.42	1712.10
278.63	1742.82
278.85	1701.86
279.06	1673.19
279.28	1789.92
279.49	1759.21
279.71	1712.10
279.93	1726.44
280.14	1689.57
280.36	1689.57
280.57	1804.26
280.79	1779.68
281.00	1658.85
281.22	1593.32
281.43	1820.64
281.65	1533.93
281.86	1650.66
282.08	1783.78
282.29	1767.40
282.51	1654.76
282.73	1648.61
282.94	1609.70
283.16	1783.78
283.37	1855.46
283.59	1695.72
283.80	1781.73
284.02	1718.25
284.23	1757.16
284.45	1736.68
284.66	1701.86
284.88	1609.70
285.09	1714.15
285.31	1773.54
285.52	1751.01
285.74	1685.48
285.95	1746.92
286.17	1714.15
286.38	1753.06
286.60	1669.09
286.81	1638.38
287.03	1697.77
287.24	1710.05
287.46	1777.64
287.67	1740.77
287.89	1843.17
288.10	1742.82
288.32	1691.62
288.53	1767.40
288.75	1665.00
288.96	1820.64
289.18	1705.96
289.39	1638.38
289.61	1718.25
289.82	1822.69
290.04	1853.41
290.25	1624.04
290.47	1701.86
290.68	1693.67
290.90	1757.16
291.11	1669.09
291.33	1794.02
291.54	1607.66
291.76	1683.43
291.97	1759.21
292.18	1658.85
292.40	1683.43
292.61	1808.36
292.83	1806.31
293.04	1675.24
293.26	1751.01
293.47	1724.39
293.69	1736.68
293.90	1714.15
294.12	1769.44
294.33	1732.58
294.55	1767.40
294.76	1691.62
294.97	1738.73
295.19	1771.49
295.40	1710.05
295.62	1777.64
295.83	1824.74
296.05	1656.81
296.26	1773.54
296.48	1650.66
296.69	1695.72
296.90	1660.90
297.12	1843.17
297.33	1832.93
297.55	1697.77
297.76	1697.77
297.98	1757.16
298.19	1810.40
298.41	1810.40
298.62	1648.61
298.83	1816.55
299.05	1732.58
299.26	1759.21
299.48	1650.66
299.69	1759.21
299.90	1652.71
300.12	1695.72
300.33	1746.92
300.55	1693.67
300.76	1697.77
300.98	1621.99
301.19	1751.01
301.40	1617.90
301.62	1648.61
301.83	1660.90
302.05	1748.97
302.26	1687.53
302.47	1751.01
302.69	1626.09
302.90	1732.58
303.12	1605.61
303.33	1759.21
303.54	1822.69
303.76	1705.96
303.97	1742.82
304.19	1781.73
304.40	1693.67
304.61	1779.68
304.83	1828.84
305.04	1820.64
305.26	1763.30
305.47	1554.41
305.68	1724.39
305.90	1675.24
306.11	1794.02
306.33	1730.53
306.54	1660.90
306.75	1658.85
306.97	1591.27
307.18	1667.05
307.39	1644.52
307.61	1658.85
307.82	1669.09
308.04	1734.63
308.25	1652.71
308.46	1701.86
308.68	1720.29
308.89	1746.92
309.10	1775.59
309.32	1728.49
309.53	1785.83
309.74	1712.10
309.96	1644.52
310.17	1818.60
310.39	1679.33
310.60	1759.21
310.81	1710.05
311.03	1687.53
311.24	1769.44
311.45	1755.11
311.67	1806.31
311.88	1671.14
312.09	1675.24
312.31	1724.39
312.52	1722.34
312.73	1597.42
312.95	1648.61
313.16	1744.87
313.37	1806.31
313.59	1744.87
313.80	1734.63
314.01	1800.16
314.23	1638.38
314.44	1658.85
314.65	1648.61
314.87	1634.28
315.08	1697.77
315.29	1751.01
315.51	1615.85
315.72	1632.23
315.93	1914.85
316.15	1730.53
316.36	1724.39
316.57	1607.66
316.79	1732.58
317.00	1673.19
317.21	1662.95
317.43	1736.68
317.64	1738.73
317.85	1710.05
318.07	1648.61
318.28	1769.44
318.49	1869.80
318.70	1906.66
318.92	1775.59
319.13	1877.99
319.34	1890.28
319.56	1802.21
319.77	1769.44
319.98	1812.45
320.20	1785.83
320.41	1787.88
320.62	1783.78
320.83	1611.75
321.05	1853.41
321.26	1730.53
321.47	1783.78
321.69	1775.59
321.90	1617.90
322.11	1720.29
322.32	1748.97
322.54	1746.92
322.75	1710.05
322.96	1855.46
323.18	1574.89
323.39	1642.47
323.60	1691.62
323.81	1699.81
324.03	1714.15
324.24	1710.05
324.45	1720.29
324.66	1705.96
324.88	1759.21
325.09	1804.26
325.30	1667.05
325.52	1669.09
325.73	1759.21
325.94	1671.14
326.15	1683.43
326.37	1689.57
326.58	1736.68
326.79	1830.88
327.00	1669.09
327.22	1742.82
327.43	1609.70
327.64	1591.27
327.85	1714.15
328.07	1718.25
328.28	1841.12
328.49	1667.05
328.70	1697.77
328.92	1765.35
329.13	1660.90
329.34	1734.63
329.55	1845.22
329.76	1703.91
329.98	1769.44
330.19	1763.30
330.40	1783.78
330.61	1765.35
330.83	1761.25
331.04	1708.01
331.25	1687.53
331.46	1730.53
331.68	1619.94
331.89	1742.82
332.10	1718.25
332.31	1650.66
332.52	1699.81
332.74	1812.45
332.95	1781.73
333.16	1732.58
333.37	1767.40
333.58	1681.38
333.80	1722.34
334.01	1689.57
334.22	1687.53
334.43	1665.00
334.64	1746.92
334.86	1673.19
335.07	1726.44
335.28	1775.59
335.49	1703.91
335.70	1697.77
335.92	1789.92
336.13	1810.40
336.34	1787.88
336.55	1744.87
336.76	1736.68
336.98	1662.95
337.19	1763.30
337.40	1765.35
337.61	1937.38
337.82	1691.62
338.04	1785.83
338.25	1595.37
338.46	1697.77
338.67	1730.53
338.88	1650.66
339.09	1742.82
339.31	1697.77
339.52	1624.04
339.73	1644.52
339.94	1720.29
340.15	1753.06
340.36	1650.66
340.58	1677.29
340.79	1671.14
341.00	1742.82
341.21	1658.85
341.42	1781.73
341.63	1724.39
341.85	1816.55
342.06	1699.81
342.27	1626.09
342.48	1753.06
342.69	1685.48
342.90	1687.53
343.12	1763.30
343.33	1705.96
343.54	1781.73
343.75	1787.88
343.96	1730.53
344.17	1705.96
344.38	1708.01
344.60	1640.42
344.81	1667.05
345.02	1638.38
345.23	1720.29
345.44	1724.39
345.65	1783.78
345.86	1722.34
346.07	1730.53
346.29	1722.34
346.50	1724.39
346.71	1722.34
346.92	1767.40
347.13	1880.04
347.34	1656.81
347.55	1599.46
347.76	1753.06
347.98	1595.37
348.19	1687.53
348.40	1730.53
348.61	1701.86
348.82	1744.87
349.03	1751.01
349.24	1613.80
349.45	1818.60
349.66	1660.90
349.88	1748.97
350.09	1652.71
350.30	1757.16
350.51	1787.88
350.72	1730.53
350.93	1789.92
351.14	1693.67
351.35	1722.34
351.56	1720.29
351.77	1675.24
351.99	1753.06
352.20	1828.84
352.41	1773.54
352.62	1562.60
352.83	1781.73
353.04	1712.10
353.25	1710.05
353.46	1726.44
353.67	1728.49
353.88	1677.29
354.09	1714.15
354.30	1718.25
354.52	1767.40
354.73	1656.81
354.94	1619.94
355.15	1740.77
355.36	1818.60
355.57	1660.90
355.78	1740.77
355.99	1697.77
356.20	1687.53
356.41	1751.01
356.62	1796.07
356.83	1652.71
357.04	1847.27
357.25	1595.37
357.46	1650.66
357.68	1691.62
357.89	1607.66
358.10	1648.61
358.31	1722.34
358.52	1708.01
358.73	1599.46
358.94	1746.92
359.15	1708.01
359.36	1779.68
359.57	1726.44
359.78	1746.92
359.99	1771.49
360.20	1669.09
360.41	1642.47
360.62	1697.77
360.83	1699.81
361.04	1642.47
361.25	1763.30
361.46	1751.01
361.67	1771.49
361.88	1708.01
362.09	1769.44
362.30	1732.58
362.51	1669.09
362.72	1695.72
362.93	1734.63
363.14	1763.30
363.35	1693.67
363.56	1667.05
363.78	1751.01
363.99	1763.30
364.20	1693.67
364.41	1671.14
364.62	1816.55
364.83	1808.36
365.04	1669.09
365.25	1701.86
365.46	1914.85
365.67	1685.48
365.88	1574.89
366.09	1658.85
366.30	1658.85
366.51	1667.05
366.72	1636.33
366.93	1691.62
367.14	1730.53
367.35	1685.48
367.56	1757.16
367.77	1812.45
367.98	1787.88
368.18	1783.78
368.39	1728.49
368.60	1685.48
368.81	1771.49
369.02	1693.67
369.23	1705.96
369.44	1595.37
369.65	1650.66
369.86	1724.39
370.07	1789.92
370.28	1660.90
370.49	1775.59
370.70	1724.39
370.91	1636.33
371.12	1634.28
371.33	1787.88
371.54	1695.72
371.75	1798.12
371.96	1621.99
372.17	1738.73
372.38	1726.44
372.59	1808.36
372.80	1730.53
373.01	1675.24
373.22	1718.25
373.43	1714.15
373.64	1695.72
373.85	1759.21
374.06	1849.32
374.26	1796.07
374.47	1701.86
374.68	1867.75
374.89	1742.82
375.10	1759.21
375.31	1882.08
375.52	1746.92
375.73	1710.05
375.94	1656.81
376.15	1767.40
376.36	1665.00
376.57	1640.42
376.78	1759.21
376.99	1681.38
377.20	1791.97
377.40	1646.57
377.61	1841.12
377.82	1660.90
378.03	1759.21
378.24	1689.57
378.45	1714.15
378.66	1845.22
378.87	1677.29
379.08	1716.20
379.29	1744.87
379.50	1787.88
379.71	1660.90
379.91	1757.16
380.12	1695.72
380.33	1716.20
380.54	1677.29
380.75	1683.43
380.96	1734.63
381.17	1775.59
381.38	1699.81
381.59	1783.78
381.80	1708.01
382.00	1966.05
382.21	1820.64
382.42	1763.30
382.63	1837.03
382.84	1763.30
383.05	1650.66
383.26	1832.93
383.47	1783.78
383.68	1771.49
383.88	1701.86
384.09	1697.77
384.30	1759.21
384.51	1763.30
384.72	1636.33
384.93	1701.86
385.14	1734.63
385.35	1787.88
385.55	1626.09
385.76	1839.08
385.97	1726.44
386.18	1626.09
386.39	1769.44
386.60	1740.77
386.81	1701.86
387.02	1751.01
387.22	1624.04
387.43	1767.40
387.64	1773.54
387.85	1898.47
388.06	2242.53
388.27	4149.18
388.48	6635.42
388.68	8075.14
388.89	9316.21
389.10	9635.69
389.31	8566.65
389.52	7260.05
389.73	6641.56
389.93	6221.73
390.14	5762.98
390.35	5040.05
390.56	4489.15
390.77	3680.20
390.98	2965.46
391.18	2531.29
391.39	1998.82
391.60	1910.75
391.81	1802.21
392.02	1732.58
392.23	1927.14
392.43	1738.73
392.64	1763.30
392.85	1757.16
393.06	1767.40
393.27	1716.20
393.47	1677.29
393.68	1767.40
393.89	1716.20
394.10	1849.32
394.31	1695.72
394.52	1630.18
394.72	1740.77
394.93	1818.60
395.14	1660.90
395.35	1763.30
395.56	1705.96
395.76	1699.81
395.97	1775.59
396.18	1896.42
396.39	1832.93
396.60	2058.21
396.80	1980.39
397.01	1910.75
397.22	1779.68
397.43	1769.44
397.64	1751.01
397.84	1798.12
398.05	1853.41
398.26	1849.32
398.47	1746.92
398.67	1777.64
398.88	1800.16
399.09	1775.59
399.30	1665.00
399.51	1722.34
399.71	1617.90
399.92	1652.71
400.13	1765.35
400.34	1705.96
400.54	1718.25
400.75	1816.55
400.96	1779.68
401.17	1884.13
401.37	1744.87
401.58	1667.05
401.79	1765.35
402.00	1859.56
402.21	1947.62
402.41	1953.76
402.62	1939.43
402.83	2013.15
403.04	2021.35
403.24	2066.40
403.45	1826.79
403.66	1914.85
403.87	1837.03
404.07	1920.99
404.28	1933.28
404.49	1837.03
404.70	1818.60
404.90	1810.40
405.11	1734.63
405.32	1830.88
405.52	1675.24
405.73	1708.01
405.94	1720.29
406.15	1722.34
406.35	1751.01
406.56	1701.86
406.77	1708.01
406.98	1697.77
407.18	1630.18
407.39	1771.49
407.60	1708.01
407.80	1685.48
408.01	1748.97
408.22	1751.01
408.43	1671.14
408.63	1679.33
408.84	1843.17
409.05	1826.79
409.25	1728.49
409.46	1730.53
409.67	1726.44
409.88	1687.53
410.08	1763.30
410.29	1701.86
410.50	1748.97
410.70	1744.87
410.91	1591.27
411.12	1816.55
411.32	1779.68
411.53	1695.72
411.74	1871.84
411.95	1810.40
412.15	1710.05
412.36	1777.64
412.57	1785.83
412.77	1738.73
412.98	1714.15
413.19	1720.29
413.39	1765.35
413.60	1724.39
413.81	1826.79
414.01	1658.85
414.22	1796.07
414.43	1716.20
414.63	1685.48
414.84	1699.81
415.05	1730.53
415.25	1583.08
415.46	1759.21
415.67	1697.77
415.87	1783.78
416.08	1705.96
416.29	1636.33
416.49	1730.53
416.70	1716.20
416.91	1708.01
417.11	1732.58
417.32	1800.16
417.53	1753.06
417.73	1746.92
417.94	1716.20
418.15	1689.57
418.35	1730.53
418.56	1742.82
418.77	1853.41
418.97	1669.09
419.18	1748.97
419.38	1607.66
419.59	1708.01
419.80	1837.03
420.00	1703.91
420.21	1732.58
420.42	1777.64
420.62	1695.72
420.83	1656.81
421.04	1728.49
421.24	1640.42
421.45	1730.53
421.65	1689.57
421.86	1701.86
422.07	1820.64
422.27	1654.76
422.48	1730.53
422.69	1726.44
422.89	1652.71
423.10	1689.57
423.30	1722.34
423.51	1755.11
423.72	1693.67
423.92	1761.25
424.13	1673.19
424.33	1759.21
424.54	1740.77
424.75	1800.16
424.95	1804.26
425.16	1667.05
425.36	1726.44
425.57	1738.73
425.78	1763.30
425.98	1742.82
426.19	1689.57
426.39	1710.05
426.60	1763.30
426.81	1755.11
427.01	1769.44
427.22	1718.25
427.42	1660.90
427.63	1673.19
427.83	1761.25
428.04	1843.17
428.25	1769.44
428.45	1783.78
428.66	1783.78
428.86	1679.33
429.07	1691.62
429.28	1761.25
429.48	1708.01
429.69	1636.33
429.89	1722.34
430.10	1617.90
430.30	1789.92
430.51	1746.92
430.71	1767.40
430.92	1685.48
431.13	1646.57
431.33	1710.05
431.54	1728.49
431.74	1775.59
431.95	1839.08
432.15	1693.67
432.36	1751.01
432.56	1740.77
432.77	1812.45
432.98	1728.49
433.18	1751.01
433.39	1689.57
433.59	1628.14
433.80	1861.60
434.00	1824.74
434.21	1744.87
434.41	1673.19
434.62	1808.36
434.82	1695.72
435.03	1595.37
435.23	1771.49
435.44	1583.08
435.64	1765.35
435.85	1759.21
436.06	1728.49
436.26	1738.73
436.47	1785.83
436.67	1712.10
436.88	1669.09
437.08	1708.01
437.29	1855.46
437.49	1736.68
437.70	1783.78
437.90	1673.19
438.11	1781.73
438.31	1718.25
438.52	1886.18
438.72	1857.51
438.93	1949.67
439.13	1802.21
439.34	1873.89
439.54	1716.20
439.75	1843.17
439.95	1796.07
440.16	1716.20
440.36	1714.15
440.57	1767.40
440.77	1734.63
440.98	1791.97
441.18	1783.78
441.39	1687.53
441.59	1675.24
441.80	1785.83
442.00	1775.59
442.21	1800.16
442.41	1646.57
442.62	1759.21
442.82	1748.97
443.02	1738.73
443.23	1726.44
443.43	1763.30
443.64	1796.07
443.84	1638.38
444.05	1845.22
444.25	1789.92
444.46	1726.44
444.66	1779.68
444.87	1798.12
445.07	1665.00
445.28	1697.77
445.48	1789.92
445.69	1783.78
445.89	1845.22
446.09	1789.92
446.30	2072.54
446.50	2627.54
446.71	3661.77
446.91	4286.40
447.12	4644.79
447.32	4743.10
447.53	4229.06
447.73	3823.56
447.93	3465.16
448.14	3250.13
448.34	3164.11
448.55	2824.15
448.75	2789.33
448.96	2709.46
449.16	2406.36
449.36	2334.68
449.57	2072.54
449.77	1886.18
449.98	1806.31
450.18	1816.55
450.39	1761.25
450.59	1734.63
450.79	1734.63
451.00	1675.24
451.20	1794.02
451.41	1755.11
451.61	1814.50
451.81	1632.23
452.02	1755.11
452.22	1716.20
452.43	1701.86
452.63	1699.81
452.84	1751.01
453.04	1777.64
453.24	1812.45
453.45	1726.44
453.65	1714.15
453.86	1689.57
454.06	1779.68
454.26	1695.72
454.47	1683.43
454.67	1873.89
454.87	1738.73
455.08	1699.81
455.28	1851.36
455.49	1771.49
455.69	1701.86
455.89	1892.32
456.10	1783.78
456.30	1703.91
456.51	1753.06
456.71	1748.97
456.91	1771.49
457.12	1746.92
457.32	1808.36
457.52	1662.95
457.73	1822.69
457.93	1734.63
458.14	1585.13
458.34	1607.66
458.54	1763.30
458.75	1697.77
458.95	1845.22
459.15	1753.06
459.36	1753.06
459.56	1781.73
459.76	1794.02
459.97	1759.21
460.17	1726.44
460.37	1810.40
460.58	1691.62
460.78	1767.40
460.99	1712.10
461.19	1789.92
461.39	1687.53
461.60	1658.85
461.80	1867.75
462.00	1714.15
462.21	1687.53
462.41	1703.91
462.61	1656.81
462.82	1662.95
463.02	1730.53
463.22	1826.79
463.43	1771.49
463.63	1705.96
463.83	1783.78
464.04	1759.21
464.24	1730.53
464.44	1689.57
464.64	1673.19
464.85	1738.73
465.05	1761.25
465.25	1730.53
465.46	1755.11
465.66	1789.92
465.86	1826.79
466.07	1771.49
466.27	1769.44
466.47	1722.34
466.68	1621.99
466.88	1824.74
467.08	1826.79
467.29	1748.97
467.49	1710.05
467.69	1716.20
467.89	1761.25
468.10	1726.44
468.30	1763.30
468.50	1779.68
468.71	1746.92
468.91	1671.14
469.11	1789.92
469.31	1751.01
469.52	1675.24
469.72	1787.88
469.92	1877.99
470.13	1718.25
470.33	1671.14
470.53	1880.04
470.73	2097.12
470.94	2308.06
471.14	2293.72
471.34	2459.61
471.54	2332.64
471.75	2166.75
471.95	2203.61
472.15	2113.50
472.36	2148.32
472.56	2119.65
472.76	2019.30
472.96	2070.50
473.17	1970.15
473.37	1935.33
473.57	1820.64
473.77	1765.35
473.98	1734.63
474.18	1708.01
474.38	1890.28
474.58	1734.63
474.79	1736.68
474.99	1779.68
475.19	1728.49
475.39	1656.81
475.60	1824.74
475.80	1794.02
476.00	1763.30
476.20	1726.44
476.41	1695.72
476.61	1791.97
476.81	1861.60
477.01	1644.52
477.21	1814.50
477.42	1892.32
477.62	1671.14
477.82	1855.46
478.02	1751.01
478.23	1828.84
478.43	1691.62
478.63	1703.91
478.83	1679.33
479.03	1695.72
479.24	1775.59
479.44	1820.64
479.64	1708.01
479.84	1585.13
480.04	1712.10
480.25	1761.25
480.45	1714.15
480.65	1691.62
480.85	1798.12
481.06	1667.05
481.26	1748.97
481.46	1767.40
481.66	1783.78
481.86	1701.86
482.06	1798.12
482.27	1703.91
482.47	1619.94
482.67	1728.49
482.87	1779.68
483.07	1759.21
483.28	1613.80
483.48	1650.66
483.68	1714.15
483.88	1660.90
484.08	1628.14
484.29	1648.61
484.49	1742.82
484.69	1683.43
484.89	1757.16
485.09	1802.21
485.29	1742.82
485.50	1814.50
485.70	1730.53
485.90	1818.60
486.10	1669.09
486.30	1757.16
486.50	1804.26
486.71	1726.44
486.91	1816.55
487.11	1740.77
487.31	1693.67
487.51	1765.35
487.71	1726.44
487.91	1644.52
488.12	1683.43
488.32	1642.47
488.52	1701.86
488.72	1675.24
488.92	1794.02
489.12	1804.26
489.32	1894.37
489.53	1877.99
489.73	1677.29
489.93	1783.78
490.13	1714.15
490.33	1679.33
490.53	1755.11
490.73	1796.07
490.94	1621.99
491.14	1794.02
491.34	1816.55
491.54	2111.46
491.74	2541.53
491.94	2883.54
492.14	2951.12
492.34	3049.43
492.54	2818.00
492.75	2478.04
492.95	2430.94
493.15	2238.43
493.35	2328.54
493.55	2314.20
493.75	2086.88
493.95	2181.09
494.15	2019.30
494.35	1888.23
494.56	1873.89
494.76	1810.40
494.96	1804.26
495.16	1740.77
495.36	1753.06
495.56	1744.87
495.76	1710.05
495.96	1796.07
496.16	1701.86
496.36	1773.54
496.56	1742.82
496.77	1767.40
496.97	1728.49
497.17	1822.69
497.37	1662.95
497.57	1804.26
497.77	1726.44
497.97	1675.24
498.17	1728.49
498.37	1746.92
498.57	1740.77
498.77	1744.87
498.97	1732.58
499.17	1839.08
499.38	1667.05
499.58	1765.35
499.78	1877.99
499.98	1791.97
500.18	1837.03
500.38	1701.86
500.58	1945.57
500.78	2584.54
500.98	4454.33
501.18	5754.79
501.38	6561.69
501.58	7012.24
501.78	6465.44
501.98	5461.93
502.18	4792.25
502.38	4343.74
502.58	4042.69
502.78	3788.74
502.98	3516.36
503.18	3370.96
503.38	3112.91
503.59	2779.09
503.79	2670.55
503.99	2467.80
504.19	2324.44
504.39	2252.77
504.59	2164.70
504.79	2158.56
504.99	2107.36
505.19	1910.75
505.39	1853.41
505.59	1925.09
505.79	1929.19
505.99	1931.23
506.19	1853.41
506.39	1882.08
506.59	1763.30
506.79	1816.55
506.99	1779.68
507.19	1781.73
507.39	1800.16
507.59	1705.96
507.79	1652.71
507.99	1708.01
508.19	1777.64
508.39	1724.39
508.59	1722.34
508.79	1787.88
508.99	1867.75
509.19	1656.81
509.39	1837.03
509.59	1767.40
509.79	1689.57
509.99	1710.05
510.19	1818.60
510.39	1748.97
510.59	1777.64
510.79	1689.57
510.99	1718.25
511.19	1718.25
511.39	1814.50
511.59	1787.88
511.79	1744.87
511.99	1744.87
512.19	1802.21
512.38	1755.11
512.58	1722.34
512.78	1734.63
512.98	1818.60
513.18	1802.21
513.38	1628.14
513.58	1841.12
513.78	1736.68
513.98	1695.72
514.18	1712.10
514.38	1708.01
514.58	1734.63
514.78	1744.87
514.98	1673.19
515.18	1697.77
515.38	1722.34
515.58	1798.12
515.78	1759.21
515.98	1781.73
516.18	1755.11
516.38	1697.77
516.57	1683.43
516.77	1683.43
516.97	1859.56
517.17	1693.67
517.37	1689.57
517.57	1761.25
517.77	1771.49
517.97	1609.70
518.17	1798.12
518.37	1677.29
518.57	1728.49
518.77	1767.40
518.97	1787.88
519.16	1791.97
519.36	1771.49
519.56	1757.16
519.76	1728.49
519.96	1789.92
520.16	1894.37
520.36	1693.67
520.56	1818.60
520.76	1726.44
520.96	1730.53
521.16	1804.26
521.35	1794.02
521.55	1789.92
521.75	1779.68
521.95	1675.24
522.15	1755.11
522.35	1744.87
522.55	1753.06
522.75	1781.73
522.95	1734.63
523.14	1714.15
523.34	1796.07
523.54	1783.78
523.74	1820.64
523.94	1775.59
524.14	1648.61
524.34	1806.31
524.54	1755.11
524.73	1679.33
524.93	1761.25
525.13	1837.03
525.33	1732.58
525.53	1867.75
525.73	1767.40
525.93	1767.40
526.13	1759.21
526.32	1740.77
526.52	1796.07
526.72	1783.78
526.92	1757.16
527.12	1691.62
527.32	1673.19
527.52	1796.07
527.71	1751.01
527.91	1726.44
528.11	1683.43
528.31	1691.62
528.51	1679.33
528.71	1769.44
528.90	1822.69
529.10	1746.92
529.30	1783.78
529.50	1650.66
529.70	1814.50
529.90	1728.49
530.09	1761.25
530.29	1716.20
530.49	1662.95
530.69	1931.23
530.89	1775.59
531.09	1771.49
531.28	1816.55
531.48	1767.40
531.68	1779.68
531.88	1751.01
532.08	1810.40
532.28	1689.57
532.47	1714.15
532.67	1791.97
532.87	1761.25
533.07	1755.11
533.27	1785.83
533.46	1830.88
533.66	1730.53
533.86	1763.30
534.06	1773.54
534.26	1724.39
534.45	1728.49
534.65	1804.26
534.85	1718.25
535.05	1722.34
535.25	1820.64
535.44	1683.43
535.64	1820.64
535.84	1730.53
536.04	1722.34
536.24	1665.00
536.43	1638.38
536.63	1798.12
536.83	1785.83
537.03	1726.44
537.22	1691.62
537.42	1699.81
537.62	1787.88
537.82	1652.71
538.02	1779.68
538.21	1800.16
538.41	1884.13
538.61	1771.49
538.81	1771.49
539.00	1812.45
539.20	1636.33
539.40	1652.71
539.60	1787.88
539.79	1771.49
539.99	1722.34
540.19	1798.12
540.39	1724.39
540.58	1744.87
540.78	1822.69
540.98	1740.77
541.18	1763.30
541.37	1775.59
541.57	1798.12
541.77	1693.67
541.97	1673.19
542.16	1613.80
542.36	1740.77
542.56	1710.05
542.76	1873.89
542.95	1826.79
543.15	1783.78
543.35	1796.07
543.54	1656.81
543.74	1734.63
543.94	1781.73
544.14	1730.53
544.33	1800.16
544.53	1681.38
544.73	1746.92
544.93	1708.01
545.12	1740.77
545.32	1705.96
545.52	1662.95
545.71	1701.86
545.91	1685.48
546.11	1759.21
546.30	1681.38
546.50	1746.92
546.70	1761.25
546.90	1857.51
547.09	1728.49
547.29	1759.21
547.49	1753.06
547.68	1755.11
547.88	1720.29
548.08	1720.29
548.27	2189.28
548.47	1806.31
548.67	1667.05
548.87	1791.97
549.06	1652.71
549.26	1763.30
549.46	1773.54
549.65	1685.48
549.85	1751.01
550.05	1751.01
550.24	1675.24
550.44	1716.20
550.64	1710.05
550.83	1759.21
551.03	1757.16
551.23	1791.97
551.42	1775.59
551.62	1720.29
551.82	1808.36
552.01	1697.77
552.21	1759.21
552.41	1775.59
552.60	1748.97
552.80	1777.64
553.00	1673.19
553.19	1759.21
553.39	1808.36
553.59	1630.18
553.78	1751.01
553.98	1748.97
554.17	1722.34
554.37	1830.88
554.57	1759.21
554.76	1677.29
554.96	1714.15
555.16	1730.53
555.35	1722.34
555.55	1712.10
555.75	1855.46
555.94	1787.88
556.14	1697.77
556.33	1828.84
556.53	1769.44
556.73	1755.11
556.92	1775.59
557.12	1802.21
557.32	1920.99
557.51	1779.68
557.71	1775.59
557.90	1873.89
558.10	1771.49
558.30	1722.34
558.49	1701.86
558.69	1740.77
558.88	1742.82
559.08	1759.21
559.28	1736.68
559.47	1800.16
559.67	1810.40
559.86	1880.04
560.06	1777.64
560.26	1796.07
560.45	1691.62
560.65	1751.01
560.84	1873.89
561.04	1728.49
561.24	1814.50
561.43	1644.52
561.63	1808.36
561.82	1740.77
562.02	1787.88
562.22	1714.15
562.41	1722.34
562.61	1662.95
562.80	1712.10
563.00	1982.43
563.19	1724.39
563.39	1822.69
563.59	1773.54
563.78	1685.48
563.98	1611.75
564.17	1724.39
564.37	1665.00
564.56	1705.96
564.76	1695.72
564.96	1880.04
565.15	1791.97
565.35	1877.99
565.54	1669.09
565.74	1726.44
565.93	1732.58
566.13	1748.97
566.32	1703.91
566.52	1748.97
566.71	1679.33
566.91	1806.31
567.11	1722.34
567.30	1814.50
567.50	1785.83
567.69	1845.22
567.89	1759.21
568.08	1746.92
568.28	1767.40
568.47	1646.57
568.67	1736.68
568.86	1734.63
569.06	1710.05
569.25	1722.34
569.45	1687.53
569.64	1740.77
569.84	1791.97
570.04	1746.92
570.23	1695.72
570.43	1730.53
570.62	1730.53
570.82	1843.17
571.01	1710.05
571.21	1759.21
571.40	1718.25
571.60	1736.68
571.79	1824.74
571.99	1761.25
572.18	1730.53
572.38	1740.77
572.57	1697.77
572.77	1781.73
572.96	1828.84
573.16	1724.39
573.35	1755.11
573.55	1865.70
573.74	1755.11
573.94	1722.34
574.13	1640.42
574.33	1787.88
574.52	1857.51
574.71	1775.59
574.91	1759.21
575.10	1736.68
575.30	1728.49
575.49	1751.01
575.69	1716.20
575.88	1740.77
576.08	1742.82
576.27	1740.77
576.47	1763.30
576.66	1933.28
576.86	1837.03
577.05	1748.97
577.25	1759.21
577.44	1822.69
577.64	1748.97
577.83	1720.29
578.02	1763.30
578.22	1806.31
578.41	1939.43
578.61	1705.96
578.80	1734.63
579.00	1779.68
579.19	1759.21
579.39	1800.16
579.58	1855.46
579.77	1759.21
579.97	1806.31
580.16	1787.88
580.36	1812.45
580.55	1861.60
580.75	1845.22
580.94	1787.88
581.13	1812.45
581.33	1816.55
581.52	1740.77
581.72	1816.55
581.91	1808.36
582.11	1765.35
582.30	1810.40
582.49	1851.36
582.69	1859.56
582.88	1724.39
583.08	1826.79
583.27	1796.07
583.47	1751.01
583.66	1718.25
583.85	1681.38
584.05	1753.06
584.24	1771.49
584.44	1716.20
584.63	1824.74
584.82	1877.99
585.02	1839.08
585.21	1865.70
585.41	1773.54
585.60	1882.08
585.79	1898.47
585.99	1927.14
586.18	1820.64
586.37	2131.94
586.57	3360.72
586.76	9748.33
586.96	24155.79
587.15	33910.27
587.34	39542.18
587.54	41155.98
587.73	35624.42
587.93	25800.31
588.12	21003.97
588.31	17901.29
588.51	15726.35
588.70	14847.77
588.89	13834.03
589.09	12308.29
589.28	10817.37
589.47	9224.05
589.67	7681.93
589.86	6295.46
590.06	4773.82
590.25	3776.45
590.44	3057.62
590.64	2500.57
590.83	2246.62
591.02	2000.87
591.22	1912.80
591.41	1882.08
591.60	1832.93
591.80	1894.37
591.99	1861.60
592.18	1781.73
592.38	1818.60
592.57	1753.06
592.76	1748.97
592.96	1820.64
593.15	1742.82
593.34	1867.75
593.54	1771.49
593.73	1781.73
593.92	1822.69
594.12	1746.92
594.31	1734.63
594.50	1787.88
594.70	1730.53
594.89	1931.23
595.08	1632.23
595.28	1814.50
595.47	1986.53
595.66	1779.68
595.86	1724.39
596.05	1685.48
596.24	1708.01
596.43	1832.93
596.63	1767.40
596.82	1773.54
597.01	1757.16
597.21	1888.23
597.40	1771.49
597.59	1806.31
597.79	1746.92
597.98	1804.26
598.17	1730.53
598.36	1845.22
598.56	1783.78
598.75	1753.06
598.94	1820.64
599.14	1697.77
599.33	1742.82
599.52	1787.88
599.71	1761.25
599.91	1779.68
600.10	1732.58
600.29	1804.26
600.48	1783.78
600.68	1722.34
600.87	1732.58
601.06	1685.48
601.26	1730.53
601.45	1714.15
601.64	1810.40
601.83	1886.18
602.03	1675.24
602.22	1652.71
602.41	1779.68
602.60	1859.56
602.80	1820.64
602.99	1777.64
603.18	1742.82
603.37	1738.73
603.57	1755.11
603.76	1843.17
603.95	1789.92
604.14	1755.11
604.34	1738.73
604.53	1724.39
604.72	1783.78
604.91	1765.35
605.10	1867.75
605.30	1640.42
605.49	1826.79
605.68	1716.20
605.87	1820.64
606.07	1658.85
606.26	1658.85
606.45	1765.35
606.64	1726.44
606.84	1757.16
607.03	1757.16
607.22	1742.82
607.41	1697.77
607.60	1691.62
607.80	1890.28
607.99	1681.38
608.18	1751.01
608.37	1769.44
608.56	1720.29
608.76	1783.78
608.95	1902.56
609.14	1724.39
609.33	1763.30
609.52	1728.49
609.72	1718.25
609.91	1789.92
610.10	1720.29
610.29	1822.69
610.48	1787.88
610.68	1771.49
610.87	1746.92
611.06	1777.64
611.25	1779.68
611.44	1773.54
611.63	1689.57
611.83	1785.83
612.02	1712.10
612.21	1818.60
612.40	1640.42
612.59	1714.15
612.79	1650.66
612.98	1710.05
613.17	1814.50
613.36	1726.44
613.55	1871.84
613.74	1644.52
613.93	1687.53
614.13	1751.01
614.32	1753.06
614.51	1763.30
614.70	1730.53
614.89	1720.29
615.08	1806.31
615.28	2142.18
615.47	1605.61
615.66	1679.33
615.85	1710.05
616.04	1804.26
616.23	1728.49
616.42	1708.01
616.62	1787.88
616.81	1779.68
617.00	1734.63
617.19	1751.01
617.38	1738.73
617.57	1804.26
617.76	1728.49
617.95	1832.93
618.15	1683.43
618.34	1886.18
618.53	1660.90
618.72	1775.59
618.91	1834.98
619.10	1861.60
619.29	1814.50
619.48	1783.78
619.68	1701.86
619.87	1755.11
620.06	1705.96
620.25	1720.29
620.44	1736.68
620.63	1736.68
620.82	1777.64
621.01	1779.68
621.20	1671.14
621.39	1720.29
621.59	1746.92
621.78	1693.67
621.97	1738.73
622.16	1751.01
622.35	1818.60
622.54	1781.73
622.73	1804.26
622.92	1628.14
623.11	1779.68
623.30	1777.64
623.49	1724.39
623.68	1771.49
623.88	1832.93
624.07	1755.11
624.26	1697.77
624.45	1701.86
624.64	1753.06
624.83	1726.44
625.02	1716.20
625.21	1773.54
625.40	1728.49
625.59	1730.53
625.78	1703.91
625.97	1755.11
626.16	1859.56
626.35	1769.44
626.54	1746.92
626.74	1779.68
626.93	1757.16
627.12	1691.62
627.31	1748.97
627.50	1794.02
627.69	1730.53
627.88	1660.90
628.07	1685.48
628.26	1673.19
628.45	1648.61
628.64	1570.79
628.83	1734.63
629.02	1669.09
629.21	1738.73
629.40	1673.19
629.59	1699.81
629.78	1720.29
629.97	1687.53
630.16	1771.49
630.35	1646.57
630.54	1738.73
630.73	1648.61
630.92	1675.24
631.11	1718.25
631.30	1714.15
631.49	1769.44
631.68	1720.29
631.87	1755.11
632.06	1671.14
632.25	1902.56
632.44	1773.54
632.63	1687.53
632.82	1615.85
633.01	1675.24
633.20	1804.26
633.39	1701.86
633.58	1644.52
633.77	1751.01
633.96	1730.53
634.15	1828.84
634.34	1722.34
634.53	1669.09
634.72	1705.96
634.91	1652.71
635.10	1712.10
635.29	1796.07
635.48	1755.11
635.67	1693.67
635.86	1697.77
636.05	1832.93
636.24	1746.92
636.43	1773.54
636.62	1720.29
636.81	1593.32
637.00	1669.09
637.19	1703.91
637.38	1683.43
637.57	1738.73
637.76	1755.11
637.95	1730.53
638.14	1730.53
638.33	1738.73
638.52	1697.77
638.71	1673.19
638.89	1646.57
639.08	1824.74
639.27	1761.25
639.46	1708.01
639.65	1769.44
639.84	1710.05
640.03	1751.01
640.22	1675.24
640.41	1894.37
640.60	1701.86
640.79	1726.44
640.98	1701.86
641.17	1812.45
641.36	1779.68
641.55	1773.54
641.74	1656.81
641.92	1681.38
642.11	1697.77
642.30	1675.24
642.49	1722.34
642.68	1722.34
642.87	1796.07
643.06	1785.83
643.25	1726.44
643.44	1695.72
643.63	1738.73
643.82	1767.40
644.00	1712.10
644.19	1705.96
644.38	1734.63
644.57	1738.73
644.76	1658.85
644.95	1757.16
645.14	1804.26
645.33	1662.95
645.52	1708.01
645.71	1673.19
645.89	1693.67
646.08	1662.95
646.27	1708.01
646.46	1849.32
646.65	1689.57
646.84	1716.20
647.03	1677.29
647.22	1806.31
647.40	1824.74
647.59	1677.29
647.78	1638.38
647.97	1744.87
648.16	1699.81
648.35	1849.32
648.54	1847.27
648.73	1753.06
648.91	1767.40
649.10	1701.86
649.29	1746.92
649.48	1734.63
649.67	1767.40
649.86	1699.81
650.05	1703.91
650.23	1751.01
650.42	1648.61
650.61	1765.35
650.80	1724.39
650.99	1880.04
651.18	1804.26
651.36	1806.31
651.55	1638.38
651.74	1763.30
651.93	1710.05
652.12	1712.10
652.31	1703.91
652.49	1726.44
652.68	1689.57
652.87	1734.63
653.06	1644.52
653.25	1855.46
653.44	1619.94
653.62	1814.50
653.81	1746.92
654.00	1816.55
654.19	1748.97
654.38	1818.60
654.56	1734.63
654.75	1662.95
654.94	1763.30
655.13	1726.44
655.32	1671.14
655.51	1705.96
655.69	1736.68
655.88	1794.02
656.07	1611.75
656.26	1824.74
656.45	1640.42
656.63	1767.40
656.82	1761.25
657.01	1832.93
657.20	1609.70
657.38	1824.74
657.57	1712.10
657.76	1636.33
657.95	1798.12
658.14	1675.24
658.32	1695.72
658.51	1640.42
658.70	1691.62
658.89	1693.67
659.08	1748.97
659.26	1812.45
659.45	1679.33
659.64	1652.71
659.83	1687.53
660.01	1890.28
660.20	1759.21
660.39	1798.12
660.58	1599.46
660.76	1767.40
660.95	1650.66
661.14	1718.25
661.33	1656.81
661.51	1636.33
661.70	1712.10
661.89	1693.67
662.08	1755.11
662.26	1644.52
662.45	1658.85
662.64	1832.93
662.83	1761.25
663.01	1626.09
663.20	1687.53
663.39	1751.01
663.58	1724.39
663.76	1742.82
663.95	1757.16
664.14	1673.19
664.32	1669.09
664.51	1718.25
664.70	1665.00
664.89	1791.97
665.07	1662.95
665.26	1779.68
665.45	1677.29
665.64	1757.16
665.82	1675.24
666.01	1804.26
666.20	1701.86
666.38	1828.84
666.57	1843.17
666.76	2207.71
666.95	4579.26
667.13	10192.74
667.32	14966.56
667.51	17684.21
667.69	18583.27
667.88	17080.06
668.07	12060.49
668.25	9455.47
668.44	7927.69
668.63	7266.19
668.81	6844.31
669.00	6068.13
669.19	5365.68
669.38	4984.76
669.56	4331.45
669.75	4026.31
669.94	3368.91
670.12	2879.44
670.31	2508.76
670.50	2224.09
670.68	2058.21
670.87	1953.76
671.06	1769.44
671.24	1849.32
671.43	1900.52
671.62	1804.26
671.80	1660.90
671.99	1724.39
672.18	1734.63
672.36	1773.54
672.55	1689.57
672.74	1665.00
672.92	1785.83
673.11	1765.35
673.29	1675.24
673.48	1751.01
673.67	1646.57
673.85	1738.73
674.04	1689.57
674.23	1671.14
674.41	1843.17
674.60	1701.86
674.79	1667.05
674.97	1787.88
675.16	1781.73
675.34	1814.50
675.53	1705.96
675.72	1796.07
675.90	1802.21
676.09	1660.90
676.28	1677.29
676.46	1656.81
676.65	1728.49
676.83	1701.86
677.02	1787.88
677.21	1761.25
677.39	1787.88
677.58	1669.09
677.77	1662.95
677.95	1718.25
678.14	1693.67
678.32	1681.38
678.51	1687.53
678.70	1816.55
678.88	1716.20
679.07	1751.01
679.25	1726.44
679.44	1714.15
679.63	1673.19
679.81	1757.16
680.00	1826.79
680.18	1738.73
680.37	1820.64
680.55	1730.53
680.74	1734.63
680.93	1615.85
681.11	1712.10
681.30	1734.63
681.48	1769.44
681.67	1710.05
681.85	1742.82
682.04	1718.25
682.23	1695.72
682.41	1738.73
682.60	1705.96
682.78	1765.35
682.97	1679.33
683.15	1738.73
683.34	1777.64
683.53	1728.49
683.71	1669.09
683.90	1830.88
684.08	1808.36
684.27	1699.81
684.45	1722.34
684.64	1820.64
684.82	1755.11
685.01	1751.01
685.19	1785.83
685.38	1806.31
685.57	1718.25
685.75	1714.15
685.94	1638.38
686.12	1701.86
686.31	1689.57
686.49	1787.88
686.68	1714.15
686.86	1794.02
687.05	1748.97
687.23	1738.73
687.42	1687.53
687.60	1603.56
687.79	1720.29
687.97	1730.53
688.16	1826.79
688.34	1769.44
688.53	1589.22
688.71	1759.21
688.90	1794.02
689.08	1789.92
689.27	1644.52
689.45	1791.97
689.64	1736.68
689.82	1773.54
690.01	1683.43
690.19	1753.06
690.38	1728.49
690.56	1830.88
690.75	1685.48
690.93	1662.95
691.12	1669.09
691.30	1695.72
691.49	1615.85
691.67	1722.34
691.86	1820.64
692.04	1665.00
692.23	1689.57
692.41	1683.43
692.60	1794.02
692.78	1742.82
692.97	1669.09
693.15	1777.64
693.34	1779.68
693.52	1722.34
693.71	1677.29
693.89	1630.18
694.08	1703.91
694.26	1771.49
694.44	1705.96
694.63	1763.30
694.81	1601.51
695.00	1699.81
695.18	1853.41
695.37	1822.69
695.55	1718.25
695.74	1687.53
695.92	1665.00
696.10	1777.64
696.29	1640.42
696.47	1654.76
696.66	1767.40
696.84	1724.39
697.03	1759.21
697.21	1759.21
697.40	2357.21
697.58	1832.93
697.76	1675.24
697.95	1677.29
698.13	1648.61
698.32	1699.81
698.50	1708.01
698.68	1791.97
698.87	1697.77
699.05	1794.02
699.24	1738.73
699.42	1701.86
699.61	1759.21
699.79	1765.35
699.97	1708.01
700.16	1640.42
700.34	1695.72
700.53	1757.16
700.71	1806.31
700.89	1800.16
701.08	1722.34
701.26	1701.86
701.45	2119.65
701.63	1718.25
701.81	1667.05
702.00	1583.08
702.18	1665.00
702.37	1691.62
702.55	1734.63
702.73	1796.07
702.92	1642.47
703.10	1800.16
703.28	1763.30
703.47	1701.86
703.65	1767.40
703.84	1718.25
704.02	1714.15
704.20	1753.06
704.39	1665.00
704.57	1677.29
704.75	1787.88
704.94	1726.44
705.12	1806.31
705.30	1710.05
705.49	2258.91
705.67	4466.62
705.86	9262.96
706.04	12334.92
706.22	14196.52
706.41	15025.95
706.59	13403.96
706.77	9275.25
706.96	7251.86
707.14	6473.63
707.32	5963.68
707.51	5420.97
707.69	4655.03
707.87	4179.90
708.06	3477.45
708.24	2811.86
708.42	2371.55
708.61	2238.43
708.79	1877.99
708.97	1892.32
709.16	1779.68
709.34	1798.12
709.52	1755.11
709.71	1691.62
709.89	1775.59
710.07	1642.47
710.26	1681.38
710.44	1767.40
710.62	1857.51
710.80	1746.92
710.99	1804.26
711.17	1769.44
711.35	1685.48
711.54	1683.43
711.72	1769.44
711.90	1804.26
712.09	1716.20
712.27	1658.85
712.45	1722.34
712.63	1593.32
712.82	1730.53
713.00	1656.81
713.18	1720.29
713.37	1736.68
713.55	1748.97
713.73	1734.63
713.91	1753.06
714.10	1665.00
714.28	1599.46
714.46	1751.01
714.65	1755.11
714.83	1748.97
715.01	1748.97
715.19	1738.73
715.38	1681.38
715.56	1689.57
715.74	1703.91
715.92	1681.38
716.11	1767.40
716.29	1648.61
716.47	1761.25
716.65	1669.09
716.84	1665.00
717.02	1789.92
717.20	1652.71
717.38	1708.01
717.57	1675.24
717.75	1753.06
717.93	1669.09
718.11	1746.92
718.30	1656.81
718.48	1693.67
718.66	1777.64
718.84	1777.64
719.03	1701.86
719.21	1632.23
719.39	1851.36
719.57	1689.57
719.75	1730.53
719.94	1671.14
720.12	1699.81
720.30	1769.44
720.48	1814.50
720.67	1665.00
720.85	1636.33
721.03	1697.77
721.21	1759.21
721.39	1771.49
721.58	1824.74
721.76	1744.87
721.94	1722.34
722.12	1708.01
722.30	1820.64
722.49	1751.01
722.67	1695.72
722.85	1675.24
723.03	1667.05
723.21	1648.61
723.40	1724.39
723.58	1804.26
723.76	1734.63
723.94	1796.07
724.12	1667.05
724.30	1746.92
724.49	1767.40
724.67	1730.53
724.85	1746.92
725.03	1578.98
725.21	1761.25
725.40	1791.97
725.58	1732.58
725.76	1763.30
725.94	1742.82
726.12	1665.00
726.30	1728.49
726.49	1679.33
726.67	1712.10
726.85	1779.68
727.03	1841.12
727.21	2160.61
727.39	2881.49
727.57	3825.61
727.76	4108.23
727.94	4550.59
728.12	4231.10
728.30	3569.61
728.48	2963.41
728.66	2643.93
728.84	2523.10
729.03	2308.06
729.21	2113.50
729.39	2035.68
729.57	1920.99
729.75	1796.07
729.93	1800.16
730.11	1689.57
730.30	1683.43
730.48	1765.35
730.66	1791.97
730.84	1730.53
731.02	1718.25
731.20	1710.05
731.38	1732.58
731.56	1681.38
731.74	1650.66
731.93	1794.02
732.11	1800.16
732.29	1691.62
732.47	1777.64
732.65	1773.54
732.83	1779.68
733.01	1796.07
733.19	1685.48
733.37	1757.16
733.56	1759.21
733.74	1708.01
733.92	1765.35
734.10	1669.09
734.28	1746.92
734.46	1624.04
734.64	1650.66
734.82	1677.29
735.00	1746.92
735.18	1642.47
735.36	1710.05
735.54	1708.01
735.73	1753.06
735.91	1730.53
736.09	1847.27
736.27	1679.33
736.45	1761.25
736.63	1648.61
736.81	1650.66
736.99	1830.88
737.17	1802.21
737.35	1687.53
737.53	1669.09
737.71	1718.25
737.89	1794.02
738.07	1599.46
738.25	1687.53
738.43	1685.48
738.61	1646.57
738.80	1681.38
738.98	1652.71
739.16	1720.29
739.34	1626.09
739.52	1781.73
739.70	1742.82
739.88	1783.78
740.06	1759.21
740.24	1615.85
740.42	1822.69
740.60	1628.14
740.78	1738.73
740.96	1701.86
741.14	1685.48
741.32	1732.58
741.50	1615.85
741.68	1791.97
741.86	1820.64
742.04	1683.43
742.22	1734.63
742.40	1722.34
742.58	1677.29
742.76	1734.63
742.94	1771.49
743.12	1665.00
743.30	1755.11
743.48	1763.30
743.66	1705.96
743.84	1796.07
744.02	1669.09
744.20	1626.09
744.38	1669.09
744.56	1617.90
744.74	1871.84
744.92	1746.92
745.10	1783.78
745.28	1681.38
745.46	1744.87
745.64	1710.05
745.82	1722.34
746.00	1718.25
746.18	1748.97
746.36	1611.75
746.54	1794.02
746.72	1689.57
746.90	1675.24
747.08	1746.92
747.26	1646.57
747.44	1777.64
747.62	1734.63
747.80	1791.97
747.98	1810.40
748.15	1736.68
748.33	1701.86
748.51	1738.73
748.69	1738.73
748.87	1632.23
749.05	1671.14
749.23	1716.20
749.41	1859.56
749.59	1701.86
749.77	1763.30
749.95	1681.38
750.13	1669.09
750.31	1712.10
750.49	1787.88
750.67	1791.97
750.85	1763.30
751.03	1755.11
751.20	1853.41
751.38	1722.34
751.56	1667.05
751.74	1781.73
751.92	1591.27
752.10	1665.00
752.28	1828.84
752.46	1691.62
752.64	1763.30
752.82	1650.66
753.00	1808.36
753.18	1761.25
753.35	1654.76
753.53	1779.68
753.71	1673.19
753.89	1753.06
754.07	1718.25
754.25	1767.40
754.43	1675.24
754.61	1665.00
754.79	1748.97
754.97	1685.48
755.14	1734.63
755.32	1716.20
755.50	1736.68
755.68	1679.33
755.86	1648.61
756.04	1644.52
756.22	1646.57
756.40	1763.30
756.57	1888.23
756.75	1689.57
756.93	1757.16
757.11	1718.25
757.29	1660.90
757.47	1644.52
757.65	1656.81
757.82	1589.22
758.00	1613.80
758.18	1691.62
758.36	1705.96
758.54	1806.31
758.72	1601.51
758.90	1730.53
759.07	1685.48
759.25	1652.71
759.43	1701.86
759.61	1624.04
759.79	2187.23
759.97	1751.01
760.15	1693.67
760.32	1675.24
760.50	1748.97
760.68	1783.78
760.86	1640.42
761.04	1759.21
761.22	1777.64
761.39	1732.58
761.57	1697.77
761.75	1757.16
761.93	1783.78
762.11	1689.57
762.28	1783.78
762.46	1609.70
762.64	1726.44
762.82	1652.71
763.00	1650.66
763.18	1765.35
763.35	1765.35
763.53	1755.11
763.71	1718.25
763.89	1718.25
764.07	1736.68
764.24	1761.25
764.42	1761.25
764.60	1777.64
764.78	1744.87
764.96	1822.69
765.13	1714.15
765.31	1806.31
765.49	1751.01
765.67	1689.57
765.84	1689.57
766.02	1648.61
766.20	1636.33
766.38	1769.44
766.56	1894.37
766.73	1771.49
766.91	1738.73
767.09	1759.21
767.27	1722.34
767.44	1662.95
767.62	1757.16
767.80	1708.01
767.98	1695.72
768.15	1607.66
768.33	1789.92
768.51	1771.49
768.69	1708.01
768.87	1841.12
769.04	1677.29
769.22	1796.07
769.40	1765.35
769.58	1841.12
769.75	1730.53
769.93	1787.88
770.11	1667.05
770.28	1687.53
770.46	1738.73
770.64	1734.63
770.82	1738.73
770.99	1642.47
771.17	1771.49
771.35	1738.73
771.53	1693.67
771.70	1712.10
771.88	1720.29
772.06	1693.67
772.23	1746.92
772.41	1800.16
772.59	1621.99
772.77	1691.62
772.94	1636.33
773.12	1775.59
773.30	1716.20
773.47	1740.77
773.65	1708.01
773.83	1798.12
774.01	1691.62
774.18	1615.85
774.36	1722.34
774.54	1654.76
774.71	1761.25
774.89	1665.00
775.07	1642.47
775.24	1738.73
775.42	1619.94
775.60	1771.49
775.78	1642.47
775.95	1652.71
776.13	1648.61
776.31	1607.66
776.48	1787.88
776.66	1783.78
776.84	1734.63
777.01	1650.66
777.19	1619.94
777.37	1589.22
777.54	1703.91
777.72	1910.75
777.90	1759.21
778.07	1648.61
778.25	1812.45
778.43	1796.07
778.60	1726.44
778.78	1785.83
778.96	1740.77
779.13	1673.19
779.31	1771.49
779.49	1697.77
779.66	1744.87
779.84	1751.01
780.01	1669.09
780.19	1595.37
780.37	1808.36
780.54	1804.26
780.72	1748.97
780.90	1679.33
781.07	1691.62
781.25	1683.43
781.43	1751.01
781.60	1656.81
781.78	1820.64
781.95	1669.09
782.13	1681.38
782.31	1710.05
782.48	1615.85
782.66	1714.15
782.83	1853.41
783.01	1740.77
783.19	1687.53
783.36	1708.01
783.54	1652.71
783.72	1722.34
783.89	1699.81
784.07	1699.81
784.24	1787.88
784.42	1802.21
784.60	1746.92
784.77	1722.34
784.95	1628.14
785.12	1703.91
785.30	1701.86
785.47	1697.77
785.65	1654.76
785.83	1681.38
786.00	1578.98
786.18	1712.10
786.35	1671.14
786.53	1689.57
786.71	1675.24
786.88	1804.26
787.06	1767.40
787.23	1658.85
787.41	1677.29
787.58	1785.83
787.76	1621.99
787.94	1730.53
788.11	1781.73
788.29	1632.23
788.46	1660.90
788.64	1675.24
788.81	1767.40
788.99	1640.42
789.16	1597.42
789.34	1718.25
789.52	1697.77
789.69	1722.34
789.87	1654.76
790.04	1689.57
790.22	1718.25
790.39	1875.94
790.57	1671.14
790.74	1689.57
790.92	1742.82
791.09	1708.01
791.27	1710.05
791.44	1824.74
791.62	1697.77
791.79	1736.68
791.97	1636.33
792.15	1904.61
792.32	1714.15
792.50	1710.05
792.67	1787.88
792.85	1798.12
793.02	1726.44
793.20	1662.95
793.37	1619.94
793.55	1675.24
793.72	1687.53
793.90	1718.25
794.07	1638.38
794.25	1636.33
794.42	1687.53
794.60	1734.63
794.77	1714.15
794.95	1720.29
795.12	1738.73
795.30	1710.05
795.47	1660.90
795.65	1929.19
795.82	1728.49
796.00	1722.34
796.17	1683.43
796.34	1656.81
796.52	1714.15
796.69	1814.50
796.87	1740.77
797.04	1744.87
797.22	1744.87
797.39	1712.10
797.57	1781.73
797.74	1671.14
797.92	1755.11
798.09	1640.42
798.27	1789.92
798.44	1701.86
798.62	1695.72
798.79	1765.35
798.96	1724.39
799.14	1730.53
799.31	1863.65
799.49	1642.47
799.66	1634.28
799.84	1648.61
800.01	1619.94
800.19	1742.82
800.36	1669.09
800.53	1708.01
800.71	1724.39
800.88	1781.73
801.06	1656.81
801.23	1683.43
801.41	1767.40
801.58	1699.81
801.75	1593.32
801.93	1710.05
802.10	1703.91
802.28	1693.67
802.45	1718.25
802.63	1716.20
802.80	1730.53
802.97	1677.29
803.15	1656.81
803.32	1681.38
803.50	1718.25
803.67	1679.33
803.84	1617.90
804.02	1783.78
804.19	1744.87
804.37	1646.57
804.54	1712.10
804.71	1667.05
804.89	1660.90
805.06	1630.18
805.24	1708.01
805.41	1621.99
805.58	1705.96
805.76	1816.55
805.93	1673.19
806.10	1783.78
806.28	1791.97
806.45	1771.49
806.63	1714.15
806.80	1828.84
806.97	1748.97
807.15	1683.43
807.32	1650.66
807.49	1740.77
807.67	1660.90
807.84	1773.54
808.01	1621.99
808.19	1767.40
808.36	1863.65
808.54	1683.43
808.71	1667.05
808.88	1759.21
809.06	1714.15
809.23	1812.45
809.40	1621.99
809.58	1771.49
809.75	1751.01
809.92	1667.05
810.10	1857.51
810.27	1753.06
810.44	1751.01
810.62	1751.01
810.79	1740.77
810.96	1681.38
811.14	1662.95
811.31	1734.63
811.48	1736.68
811.66	1714.15
811.83	1757.16
812.00	1765.35
812.18	1798.12
812.35	1794.02
812.52	1716.20
812.69	1697.77
812.87	1660.90
813.04	1677.29
813.21	1714.15
813.39	1689.57
813.56	1628.14
813.73	1761.25
813.91	1576.94
814.08	1718.25
814.25	1738.73
814.42	1650.66
814.60	1665.00
814.77	1652.71
814.94	1693.67
815.12	1701.86
815.29	1853.41
815.46	1667.05
815.63	1685.48
815.81	1712.10
815.98	1701.86
816.15	1669.09
816.33	1669.09
816.50	1710.05
816.67	1646.57
816.84	1705.96
817.02	1658.85
817.19	1681.38
817.36	1730.53
817.53	1642.47
817.71	1683.43
817.88	1753.06
818.05	1669.09
818.22	1814.50
818.40	1853.41
818.57	1677.29
818.74	1671.14
818.91	1708.01
819.09	1757.16
819.26	1812.45
819.43	1689.57
819.60	1603.56
819.78	1777.64
819.95	1720.29
820.12	1574.89
820.29	1837.03
820.47	1830.88
820.64	1615.85
820.81	1626.09
820.98	1642.47
821.15	1630.18
821.33	1765.35
821.50	1583.08
821.67	1691.62
821.84	1642.47
822.02	1755.11
822.19	1779.68
822.36	1667.05
822.53	1736.68
822.70	1660.90
822.88	1701.86
823.05	1808.36
823.22	1718.25
823.39	1710.05
823.56	1701.86
823.74	1816.55
823.91	1662.95
824.08	1607.66
824.25	1730.53
824.42	1753.06
824.60	1667.05
824.77	1748.97
824.94	1681.38
825.11	1714.15
825.28	1609.70
825.45	1763.30
825.63	1746.92
825.80	1683.43
825.97	1791.97
826.14	1685.48
826.31	1581.03
826.48	1738.73
826.66	1636.33
826.83	1634.28
827.00	1734.63
827.17	1648.61
827.34	1734.63
827.51	1738.73
827.69	1705.96
827.86	1607.66
828.03	1673.19
828.20	1767.40
828.37	1738.73
828.54	1730.53
828.71	1628.14
828.89	1757.16
829.06	1705.96
829.23	1734.63
829.40	1712.10
829.57	1687.53
829.74	1722.34
829.91	1736.68
830.09	1681.38
830.26	1720.29
830.43	1802.21
830.60	1673.19
830.77	1796.07
830.94	1718.25
831.11	1771.49
831.28	1712.10
831.46	1785.83
831.63	1699.81
831.80	1736.68
831.97	1712.10
832.14	1718.25
832.31	1808.36
832.48	1726.44
832.65	1763.30
832.82	1726.44
832.99	1724.39
833.17	1640.42
833.34	1773.54
833.51	1775.59
833.68	1603.56
833.85	1748.97
834.02	1677.29
834.19	1695.72
834.36	1710.05
834.53	1701.86
834.70	1771.49
834.87	1789.92
835.04	1730.53
835.22	1703.91
835.39	1667.05
835.56	1675.24
835.73	1650.66
835.90	1800.16
836.07	1683.43
836.24	1722.34
836.41	1675.24
836.58	1671.14
836.75	1779.68
836.92	1746.92
837.09	1642.47
837.26	1771.49
837.43	1693.67
837.60	1669.09
837.77	1705.96
837.94	1730.53
838.12	1785.83
838.29	1673.19
838.46	1570.79
838.63	1677.29
838.80	1867.75
838.97	1738.73
839.14	1730.53
839.31	1744.87
839.48	1773.54
839.65	1716.20
839.82	1800.16
839.99	1714.15
840.16	1718.25
840.33	1736.68
840.50	1726.44
840.67	1621.99
840.84	1607.66
841.01	1718.25
841.18	1679.33
841.35	1617.90
841.52	1722.34
841.69	1822.69
841.86	1699.81
842.03	1644.52
842.20	1861.60
842.37	1611.75
842.54	1693.67
842.71	1740.77
842.88	1583.08
843.05	1759.21
843.22	1699.81
843.39	1781.73
843.56	1621.99
843.73	1728.49
843.90	1658.85
844.07	1665.00
844.24	1789.92
844.41	1716.20
844.58	1697.77
844.75	1671.14
844.92	1722.34
845.09	1718.25
845.26	1652.71
845.43	1771.49
845.60	1636.33
845.77	1816.55
845.94	1697.77
846.10	1804.26
846.27	1718.25
846.44	1595.37
846.61	1572.84
846.78	1722.34
846.95	1832.93
847.12	1740.77
847.29	1665.00
847.46	1695.72
847.63	1755.11
847.80	1662.95
847.97	1748.97
848.14	1826.79
848.31	1677.29
848.48	1673.19
848.65	1705.96
848.82	1685.48
848.98	1755.11
849.15	1716.20
849.32	1773.54
849.49	1779.68
849.66	1724.39
849.83	1705.96
850.00	1665.00
850.17	1697.77
850.34	1638.38
850.51	1681.38
850.68	1619.94
850.85	1789.92
851.01	1724.39
851.18	1746.92
851.35	1669.09
851.52	1656.81
851.69	1818.60
851.86	1607.66
852.03	1679.33
852.20	1777.64
852.37	1767.40
852.53	1669.09
852.70	1710.05
852.87	1765.35
853.04	1785.83
853.21	1718.25
853.38	1822.69
853.55	1820.64
853.72	1796.07
853.89	1695.72
854.05	1761.25
854.22	1642.47
854.39	1716.20
854.56	1720.29
854.73	1755.11
854.90	1699.81
855.07	1761.25
855.23	1693.67
855.40	1660.90
855.57	1642.47
855.74	1591.27
855.91	1882.08
856.08	1703.91
856.25	1658.85
856.41	1681.38
856.58	1740.77
856.75	1773.54
856.92	1581.03
857.09	1798.12
857.26	1687.53
857.42	1730.53
857.59	1687.53
857.76	1687.53
857.93	1771.49
858.10	1779.68
858.27	1591.27
858.43	1720.29
858.60	1652.71
858.77	1609.70
858.94	1701.86
859.11	1695.72
859.27	1665.00
859.44	1673.19
859.61	1898.47
859.78	1716.20
859.95	1654.76
860.12	1546.22
860.28	1851.36
860.45	1904.61
860.62	1783.78
860.79	1710.05
860.95	1712.10
861.12	1626.09
861.29	1751.01
861.46	1621.99
861.63	1650.66
861.79	1738.73
861.96	1695.72
862.13	1695.72
862.30	1794.02
862.47	1708.01
862.63	1667.05
862.80	1777.64
862.97	1826.79
863.14	1791.97
863.30	1730.53
863.47	1652.71
863.64	1777.64
863.81	1734.63
863.97	1640.42
864.14	1646.57
864.31	1656.81
864.48	1744.87
864.65	1734.63
864.81	1826.79
864.98	1734.63
865.15	1742.82
865.32	1748.97
865.48	1789.92
865.65	1757.16
865.82	1687.53
865.98	1730.53
866.15	1763.30
866.32	1669.09
866.49	1697.77
866.65	1806.31
866.82	1642.47
866.99	1736.68
867.16	1716.20
867.32	1617.90
867.49	1710.05
867.66	1646.57
867.83	1640.42
867.99	1597.42
868.16	1701.86
868.33	1613.80
868.49	1681.38
868.66	1654.76
868.83	1767.40
868.99	1660.90
869.16	1740.77
869.33	1789.92
869.50	1837.03
869.66	1718.25
869.83	1714.15
870.00	1642.47
870.16	1804.26
870.33	1710.05
870.50	1771.49
870.66	1679.33
870.83	1814.50
871.00	1701.86
871.17	1687.53
871.33	1720.29
871.50	1718.25
871.67	1720.29
871.83	1546.22
872.00	1861.60
872.17	1675.24
872.33	1718.25
872.50	1736.68
872.67	1708.01
872.83	1685.48
873.00	1767.40
873.17	1689.57
873.33	1828.84
873.50	1708.01
873.67	1660.90
873.83	1648.61
874.00	1679.33
874.16	1771.49
874.33	1730.53
874.50	1632.23
874.66	1732.58
874.83	1703.91
875.00	1748.97
875.16	1783.78
875.33	1781.73
875.50	1615.85
875.66	1746.92
875.83	1679.33
875.99	1712.10
876.16	1789.92
876.33	1665.00
876.49	1783.78
876.66	1763.30
876.83	1658.85
876.99	1640.42
877.16	1716.20
877.32	1693.67
877.49	1703.91
877.66	1761.25
877.82	1757.16
877.99	1775.59
878.15	1728.49
878.32	1710.05
878.49	1691.62
878.65	1654.76
878.82	1828.84
878.98	1703.91
879.15	1697.77
879.32	1677.29
879.48	1789.92
879.65	1583.08
879.81	1621.99
879.98	1665.00
880.15	1734.63
880.31	1699.81
880.48	1705.96
880.64	1744.87
880.81	1742.82
880.97	1847.27
881.14	1804.26
881.31	1673.19
881.47	1890.28
881.64	1699.81
881.80	1609.70
881.97	1683.43
882.13	1703.91
882.30	1691.62
882.47	1628.14
882.63	1691.62
882.80	1644.52
882.96	1654.76
883.13	1789.92
883.29	1685.48
883.46	1730.53
883.62	1755.11
883.79	1738.73
883.95	1705.96
884.12	1736.68
884.29	1771.49
884.45	1714.15
884.62	1763.30
884.78	1669.09
884.95	1800.16
885.11	1611.75
885.28	1695.72
885.44	1718.25
885.61	1714.15
885.77	1847.27
885.94	1783.78
886.10	1755.11
886.27	1734.63
886.43	1783.78
886.60	1845.22
886.76	1800.16
886.93	1671.14
887.09	1732.58
887.26	1624.04
887.42	1726.44
887.59	1728.49
887.75	1892.32
887.92	1810.40
888.08	1767.40
888.25	1722.34
888.41	1824.74
888.58	1662.95
888.74	1617.90
888.91	1644.52
>>>>>End Processed Spectral Data<<<<<
