SpectraSuite Data File
++++++++++++++++++++++++++++++++++++
Date: Mon Jun 06 14:01:17 CEST 2016
User: root
Dark Spectrum Present: No
Reference Spectrum Present: No
Number of Sampled Component Spectra: 1
Spectrometers: USB4C02835
Integration Time (usec): 100000 (USB4C02835)
Spectra Averaged: 1 (USB4C02835)
Boxcar Smoothing: 0 (USB4C02835)
Correct for Electrical Dark: No (USB4C02835)
Strobe/Lamp Enabled: No (USB4C02835)
Correct for Detector Non-linearity: No (USB4C02835)
Correct for Stray Light: No (USB4C02835)
Number of Pixels in Processed Spectrum: 3648
>>>>>Begin Processed Spectral Data<<<<<
177.47	1486.83
177.69	1486.83
177.91	1486.83
178.13	1525.74
178.36	1501.16
178.58	1642.47
178.80	1675.24
179.02	1681.38
179.24	1597.42
179.46	1636.33
179.68	1701.86
179.90	1677.29
180.13	1656.81
180.35	1660.90
180.57	1751.01
180.79	1740.77
181.01	1736.68
181.23	1738.73
181.45	1753.06
181.67	1722.34
181.90	1746.92
182.12	1617.90
182.34	1570.79
182.56	1740.77
182.78	1656.81
183.00	1742.82
183.22	1800.16
183.44	1613.80
183.66	1865.70
183.89	1789.92
184.11	1673.19
184.33	1691.62
184.55	1773.54
184.77	1767.40
184.99	1753.06
185.21	1716.20
185.43	1896.42
185.65	1628.14
185.87	1675.24
186.10	1841.12
186.32	1863.65
186.54	1748.97
186.76	1738.73
186.98	1751.01
187.20	1669.09
187.42	1669.09
187.64	1673.19
187.86	1785.83
188.08	1734.63
188.30	1695.72
188.52	1640.42
188.75	1728.49
188.97	1791.97
189.19	1701.86
189.41	1755.11
189.63	1701.86
189.85	1665.00
190.07	1662.95
190.29	1595.37
190.51	1665.00
190.73	1609.70
190.95	1736.68
191.17	1673.19
191.39	1615.85
191.61	1740.77
191.84	1710.05
192.06	1732.58
192.28	1560.55
192.50	1853.41
192.72	1730.53
192.94	1777.64
193.16	1708.01
193.38	1697.77
193.60	1644.52
193.82	1685.48
194.04	1828.84
194.26	1703.91
194.48	1740.77
194.70	1677.29
194.92	1730.53
195.14	1691.62
195.36	1630.18
195.58	1759.21
195.80	1701.86
196.02	1656.81
196.24	1695.72
196.46	1712.10
196.69	1732.58
196.91	1742.82
197.13	1701.86
197.35	1689.57
197.57	1740.77
197.79	1740.77
198.01	1701.86
198.23	1697.77
198.45	1617.90
198.67	1583.08
198.89	1683.43
199.11	1781.73
199.33	1732.58
199.55	1585.13
199.77	1734.63
199.99	1712.10
200.21	1665.00
200.43	1695.72
200.65	1671.14
200.87	1544.17
201.09	1740.77
201.31	1730.53
201.53	1798.12
201.75	1683.43
201.97	1701.86
202.19	1695.72
202.41	1693.67
202.63	1804.26
202.85	1736.68
203.07	1779.68
203.29	1673.19
203.51	1667.05
203.73	1603.56
203.95	1830.88
204.17	1697.77
204.39	1773.54
204.61	1652.71
204.83	1671.14
205.05	1667.05
205.27	1710.05
205.49	1755.11
205.71	1650.66
205.93	1675.24
206.15	1609.70
206.37	1660.90
206.59	1681.38
206.81	1585.13
207.03	1718.25
207.25	1609.70
207.47	1777.64
207.69	1669.09
207.91	1769.44
208.13	1742.82
208.34	1705.96
208.56	1677.29
208.78	1779.68
209.00	1650.66
209.22	1720.29
209.44	1767.40
209.66	1787.88
209.88	1810.40
210.10	1671.14
210.32	1724.39
210.54	1759.21
210.76	1708.01
210.98	1769.44
211.20	1578.98
211.42	1794.02
211.64	1789.92
211.86	1738.73
212.08	1718.25
212.30	1736.68
212.52	1679.33
212.74	1734.63
212.96	1773.54
213.17	1783.78
213.39	1708.01
213.61	1734.63
213.83	1759.21
214.05	1673.19
214.27	1751.01
214.49	1660.90
214.71	1642.47
214.93	1718.25
215.15	1677.29
215.37	1730.53
215.59	1642.47
215.81	1751.01
216.03	1740.77
216.24	1691.62
216.46	1691.62
216.68	1744.87
216.90	1705.96
217.12	1822.69
217.34	1636.33
217.56	1703.91
217.78	1740.77
218.00	1703.91
218.22	1611.75
218.44	1662.95
218.66	1708.01
218.87	1828.84
219.09	1630.18
219.31	1746.92
219.53	1687.53
219.75	1624.04
219.97	1757.16
220.19	1712.10
220.41	1656.81
220.63	1744.87
220.85	1718.25
221.06	1734.63
221.28	1722.34
221.50	1693.67
221.72	1712.10
221.94	1705.96
222.16	1699.81
222.38	1708.01
222.60	1720.29
222.82	1675.24
223.03	1726.44
223.25	1634.28
223.47	1804.26
223.69	1814.50
223.91	1683.43
224.13	1693.67
224.35	1632.23
224.57	1695.72
224.78	1724.39
225.00	1675.24
225.22	1685.48
225.44	1732.58
225.66	1701.86
225.88	1652.71
226.10	1748.97
226.32	1699.81
226.53	1837.03
226.75	1644.52
226.97	1714.15
227.19	1771.49
227.41	1669.09
227.63	1691.62
227.85	1712.10
228.06	1765.35
228.28	1732.58
228.50	1753.06
228.72	1675.24
228.94	1691.62
229.16	1595.37
229.37	1662.95
229.59	1697.77
229.81	1769.44
230.03	1673.19
230.25	1654.76
230.47	1652.71
230.69	1646.57
230.90	1728.49
231.12	1701.86
231.34	1722.34
231.56	1742.82
231.78	1683.43
232.00	1726.44
232.21	1759.21
232.43	1615.85
232.65	1603.56
232.87	1730.53
233.09	1679.33
233.30	1619.94
233.52	1759.21
233.74	1697.77
233.96	1636.33
234.18	1656.81
234.40	1720.29
234.61	1855.46
234.83	1617.90
235.05	1626.09
235.27	1871.84
235.49	1787.88
235.70	1658.85
235.92	1773.54
236.14	1757.16
236.36	1791.97
236.58	1615.85
236.79	1693.67
237.01	1753.06
237.23	1720.29
237.45	1796.07
237.67	1671.14
237.88	1734.63
238.10	1839.08
238.32	1638.38
238.54	1699.81
238.76	1636.33
238.97	1679.33
239.19	1738.73
239.41	1710.05
239.63	1710.05
239.85	1658.85
240.06	1671.14
240.28	1673.19
240.50	1722.34
240.72	1718.25
240.93	1675.24
241.15	1802.21
241.37	1771.49
241.59	1783.78
241.81	1648.61
242.02	1665.00
242.24	1722.34
242.46	1716.20
242.68	1677.29
242.89	1660.90
243.11	1691.62
243.33	1603.56
243.55	1742.82
243.76	1689.57
243.98	1658.85
244.20	1724.39
244.42	1720.29
244.64	1708.01
244.85	1699.81
245.07	1626.09
245.29	1724.39
245.51	1755.11
245.72	1646.57
245.94	1804.26
246.16	1718.25
246.38	1705.96
246.59	1613.80
246.81	1708.01
247.03	1669.09
247.24	1605.61
247.46	1609.70
247.68	1693.67
247.90	1708.01
248.11	1667.05
248.33	1671.14
248.55	1673.19
248.77	1693.67
248.98	1845.22
249.20	1834.98
249.42	1742.82
249.64	1730.53
249.85	1662.95
250.07	1611.75
250.29	1765.35
250.50	1824.74
250.72	1550.31
250.94	1720.29
251.16	1757.16
251.37	1753.06
251.59	1654.76
251.81	1738.73
252.02	1716.20
252.24	1632.23
252.46	1630.18
252.68	1701.86
252.89	1646.57
253.11	1613.80
253.33	1826.79
253.54	1744.87
253.76	1648.61
253.98	1716.20
254.20	1673.19
254.41	1662.95
254.63	1673.19
254.85	1652.71
255.06	1624.04
255.28	1703.91
255.50	1656.81
255.71	1654.76
255.93	1675.24
256.15	1716.20
256.36	1751.01
256.58	1636.33
256.80	1691.62
257.02	1644.52
257.23	1691.62
257.45	1636.33
257.67	1791.97
257.88	1607.66
258.10	1673.19
258.32	1671.14
258.53	1699.81
258.75	1738.73
258.97	1667.05
259.18	1671.14
259.40	1673.19
259.62	1814.50
259.83	1755.11
260.05	1839.08
260.27	2009.06
260.48	1808.36
260.70	1699.81
260.92	1769.44
261.13	1710.05
261.35	1685.48
261.57	1744.87
261.78	1630.18
262.00	1624.04
262.22	1646.57
262.43	1634.28
262.65	1681.38
262.86	1705.96
263.08	1828.84
263.30	1685.48
263.51	1587.18
263.73	1656.81
263.95	1736.68
264.16	1603.56
264.38	1693.67
264.60	1667.05
264.81	1732.58
265.03	1765.35
265.25	1681.38
265.46	1669.09
265.68	1822.69
265.89	1775.59
266.11	1603.56
266.33	1765.35
266.54	1781.73
266.76	1755.11
266.98	1716.20
267.19	1736.68
267.41	1763.30
267.62	1734.63
267.84	1609.70
268.06	1767.40
268.27	1734.63
268.49	1675.24
268.70	1744.87
268.92	1722.34
269.14	1699.81
269.35	1587.18
269.57	1683.43
269.79	1740.77
270.00	1634.28
270.22	1789.92
270.43	1609.70
270.65	1609.70
270.87	1748.97
271.08	1816.55
271.30	1794.02
271.51	1683.43
271.73	1701.86
271.95	1763.30
272.16	1763.30
272.38	1771.49
272.59	1679.33
272.81	1783.78
273.02	1662.95
273.24	1701.86
273.46	1748.97
273.67	1615.85
273.89	1609.70
274.10	1675.24
274.32	1818.60
274.54	1796.07
274.75	1683.43
274.97	1665.00
275.18	1671.14
275.40	1658.85
275.61	1796.07
275.83	1716.20
276.05	1621.99
276.26	1656.81
276.48	1753.06
276.69	1669.09
276.91	1710.05
277.12	1710.05
277.34	1734.63
277.55	1734.63
277.77	1695.72
277.99	1722.34
278.20	1656.81
278.42	1681.38
278.63	1634.28
278.85	1697.77
279.06	1640.42
279.28	1732.58
279.49	1767.40
279.71	1728.49
279.93	1708.01
280.14	1671.14
280.36	1642.47
280.57	1751.01
280.79	1691.62
281.00	1570.79
281.22	1615.85
281.43	1814.50
281.65	1636.33
281.86	1689.57
282.08	1798.12
282.29	1798.12
282.51	1669.09
282.73	1617.90
282.94	1617.90
283.16	1804.26
283.37	1789.92
283.59	1665.00
283.80	1691.62
284.02	1681.38
284.23	1677.29
284.45	1685.48
284.66	1650.66
284.88	1697.77
285.09	1824.74
285.31	1785.83
285.52	1804.26
285.74	1673.19
285.95	1687.53
286.17	1734.63
286.38	1763.30
286.60	1603.56
286.81	1650.66
287.03	1716.20
287.24	1734.63
287.46	1722.34
287.67	1656.81
287.89	1796.07
288.10	1722.34
288.32	1693.67
288.53	1748.97
288.75	1665.00
288.96	1697.77
289.18	1621.99
289.39	1613.80
289.61	1808.36
289.82	1785.83
290.04	1849.32
290.25	1642.47
290.47	1656.81
290.68	1662.95
290.90	1796.07
291.11	1660.90
291.33	1714.15
291.54	1656.81
291.76	1671.14
291.97	1689.57
292.18	1724.39
292.40	1613.80
292.61	1671.14
292.83	1839.08
293.04	1787.88
293.26	1705.96
293.47	1656.81
293.69	1642.47
293.90	1677.29
294.12	1781.73
294.33	1773.54
294.55	1683.43
294.76	1732.58
294.97	1748.97
295.19	1781.73
295.40	1660.90
295.62	1742.82
295.83	1759.21
296.05	1675.24
296.26	1695.72
296.48	1660.90
296.69	1712.10
296.90	1767.40
297.12	1701.86
297.33	1787.88
297.55	1687.53
297.76	1734.63
297.98	1753.06
298.19	1681.38
298.41	1687.53
298.62	1673.19
298.83	1769.44
299.05	1759.21
299.26	1681.38
299.48	1632.23
299.69	1722.34
299.90	1775.59
300.12	1708.01
300.33	1751.01
300.55	1689.57
300.76	1732.58
300.98	1681.38
301.19	1787.88
301.40	1685.48
301.62	1716.20
301.83	1787.88
302.05	1683.43
302.26	1697.77
302.47	1718.25
302.69	1644.52
302.90	1656.81
303.12	1626.09
303.33	1757.16
303.54	1841.12
303.76	1689.57
303.97	1650.66
304.19	1824.74
304.40	1619.94
304.61	1716.20
304.83	1751.01
305.04	1812.45
305.26	1748.97
305.47	1685.48
305.68	1585.13
305.90	1658.85
306.11	1769.44
306.33	1726.44
306.54	1660.90
306.75	1662.95
306.97	1650.66
307.18	1665.00
307.39	1714.15
307.61	1730.53
307.82	1646.57
308.04	1714.15
308.25	1566.70
308.46	1685.48
308.68	1722.34
308.89	1697.77
309.10	1781.73
309.32	1693.67
309.53	1775.59
309.74	1716.20
309.96	1662.95
310.17	1679.33
310.39	1665.00
310.60	1765.35
310.81	1652.71
311.03	1638.38
311.24	1767.40
311.45	1705.96
311.67	1843.17
311.88	1679.33
312.09	1689.57
312.31	1642.47
312.52	1710.05
312.73	1681.38
312.95	1585.13
313.16	1632.23
313.37	1710.05
313.59	1738.73
313.80	1669.09
314.01	1859.56
314.23	1605.61
314.44	1673.19
314.65	1652.71
314.87	1640.42
315.08	1669.09
315.29	1669.09
315.51	1632.23
315.72	1626.09
315.93	1886.18
316.15	1724.39
316.36	1607.66
316.57	1716.20
316.79	1763.30
317.00	1691.62
317.21	1720.29
317.43	1755.11
317.64	1687.53
317.85	1712.10
318.07	1656.81
318.28	1689.57
318.49	1779.68
318.70	1923.04
318.92	1724.39
319.13	1824.74
319.34	1863.65
319.56	1810.40
319.77	1796.07
319.98	1716.20
320.20	1820.64
320.41	1791.97
320.62	1712.10
320.83	1685.48
321.05	1800.16
321.26	1703.91
321.47	1705.96
321.69	1765.35
321.90	1632.23
322.11	1746.92
322.32	1673.19
322.54	1804.26
322.75	1646.57
322.96	1789.92
323.18	1638.38
323.39	1585.13
323.60	1662.95
323.81	1761.25
324.03	1648.61
324.24	1675.24
324.45	1689.57
324.66	1632.23
324.88	1720.29
325.09	1841.12
325.30	1699.81
325.52	1677.29
325.73	1769.44
325.94	1714.15
326.15	1662.95
326.37	1632.23
326.58	1787.88
326.79	1732.58
327.00	1662.95
327.22	1650.66
327.43	1716.20
327.64	1613.80
327.85	1726.44
328.07	1667.05
328.28	1787.88
328.49	1650.66
328.70	1665.00
328.92	1730.53
329.13	1689.57
329.34	1705.96
329.55	1806.31
329.76	1837.03
329.98	1746.92
330.19	1834.98
330.40	1773.54
330.61	1710.05
330.83	1789.92
331.04	1699.81
331.25	1619.94
331.46	1654.76
331.68	1615.85
331.89	1783.78
332.10	1732.58
332.31	1630.18
332.52	1626.09
332.74	1738.73
332.95	1570.79
333.16	1765.35
333.37	1759.21
333.58	1691.62
333.80	1746.92
334.01	1658.85
334.22	1679.33
334.43	1642.47
334.64	1683.43
334.86	1652.71
335.07	1617.90
335.28	1720.29
335.49	1634.28
335.70	1720.29
335.92	1769.44
336.13	1771.49
336.34	1738.73
336.55	1759.21
336.76	1673.19
336.98	1564.65
337.19	1718.25
337.40	1732.58
337.61	1845.22
337.82	1648.61
338.04	1781.73
338.25	1652.71
338.46	1615.85
338.67	1681.38
338.88	1583.08
339.09	1642.47
339.31	1710.05
339.52	1609.70
339.73	1683.43
339.94	1681.38
340.15	1742.82
340.36	1697.77
340.58	1716.20
340.79	1636.33
341.00	1744.87
341.21	1724.39
341.42	1785.83
341.63	1697.77
341.85	1738.73
342.06	1689.57
342.27	1640.42
342.48	1705.96
342.69	1693.67
342.90	1759.21
343.12	1759.21
343.33	1628.14
343.54	1691.62
343.75	1714.15
343.96	1720.29
344.17	1683.43
344.38	1689.57
344.60	1699.81
344.81	1626.09
345.02	1671.14
345.23	1736.68
345.44	1734.63
345.65	1730.53
345.86	1697.77
346.07	1644.52
346.29	1640.42
346.50	1708.01
346.71	1730.53
346.92	1705.96
347.13	1851.36
347.34	1710.05
347.55	1771.49
347.76	1767.40
347.98	1566.70
348.19	1681.38
348.40	1804.26
348.61	1605.61
348.82	1724.39
349.03	1777.64
349.24	1605.61
349.45	1861.60
349.66	1638.38
349.88	1751.01
350.09	1703.91
350.30	1726.44
350.51	1763.30
350.72	1718.25
350.93	1757.16
351.14	1675.24
351.35	1755.11
351.56	1662.95
351.77	1689.57
351.99	1693.67
352.20	1755.11
352.41	1701.86
352.62	1640.42
352.83	1693.67
353.04	1734.63
353.25	1626.09
353.46	1701.86
353.67	1767.40
353.88	1615.85
354.09	1728.49
354.30	1742.82
354.52	1730.53
354.73	1716.20
354.94	1697.77
355.15	1667.05
355.36	1871.84
355.57	1681.38
355.78	1683.43
355.99	1646.57
356.20	1607.66
356.41	1740.77
356.62	1650.66
356.83	1714.15
357.04	1724.39
357.25	1665.00
357.46	1732.58
357.68	1576.94
357.89	1683.43
358.10	1689.57
358.31	1675.24
358.52	1740.77
358.73	1665.00
358.94	1632.23
359.15	1646.57
359.36	1736.68
359.57	1679.33
359.78	1675.24
359.99	1789.92
360.20	1603.56
360.41	1613.80
360.62	1710.05
360.83	1742.82
361.04	1665.00
361.25	1691.62
361.46	1787.88
361.67	1771.49
361.88	1677.29
362.09	1777.64
362.30	1771.49
362.51	1652.71
362.72	1703.91
362.93	1769.44
363.14	1751.01
363.35	1665.00
363.56	1689.57
363.78	1822.69
363.99	1812.45
364.20	1695.72
364.41	1742.82
364.62	1802.21
364.83	1689.57
365.04	1679.33
365.25	1683.43
365.46	1781.73
365.67	1683.43
365.88	1576.94
366.09	1697.77
366.30	1681.38
366.51	1671.14
366.72	1667.05
366.93	1640.42
367.14	1746.92
367.35	1771.49
367.56	1662.95
367.77	1714.15
367.98	1705.96
368.18	1710.05
368.39	1759.21
368.60	1656.81
368.81	1714.15
369.02	1744.87
369.23	1728.49
369.44	1589.22
369.65	1658.85
369.86	1734.63
370.07	1734.63
370.28	1693.67
370.49	1767.40
370.70	1708.01
370.91	1640.42
371.12	1585.13
371.33	1683.43
371.54	1691.62
371.75	1865.70
371.96	1576.94
372.17	1677.29
372.38	1769.44
372.59	1791.97
372.80	1703.91
373.01	1685.48
373.22	1685.48
373.43	1701.86
373.64	1755.11
373.85	1710.05
374.06	1773.54
374.26	1730.53
374.47	1791.97
374.68	1785.83
374.89	1708.01
375.10	1640.42
375.31	1791.97
375.52	1734.63
375.73	1796.07
375.94	1648.61
376.15	1791.97
376.36	1648.61
376.57	1714.15
376.78	1634.28
376.99	1701.86
377.20	1734.63
377.40	1701.86
377.61	1828.84
377.82	1642.47
378.03	1734.63
378.24	1720.29
378.45	1673.19
378.66	1757.16
378.87	1615.85
379.08	1650.66
379.29	1677.29
379.50	1777.64
379.71	1724.39
379.91	1683.43
380.12	1693.67
380.33	1691.62
380.54	1724.39
380.75	1732.58
380.96	1703.91
381.17	1759.21
381.38	1656.81
381.59	1642.47
381.80	1755.11
382.00	1828.84
382.21	1779.68
382.42	1855.46
382.63	1820.64
382.84	1701.86
383.05	1804.26
383.26	1767.40
383.47	1722.34
383.68	1806.31
383.88	1746.92
384.09	1703.91
384.30	1865.70
384.51	1716.20
384.72	1697.77
384.93	1638.38
385.14	1675.24
385.35	1800.16
385.55	1685.48
385.76	1712.10
385.97	1681.38
386.18	1644.52
386.39	1652.71
386.60	1753.06
386.81	1687.53
387.02	1718.25
387.22	1712.10
387.43	1789.92
387.64	1796.07
387.85	1877.99
388.06	2222.05
388.27	4323.26
388.48	6891.41
388.68	8386.43
388.89	9963.37
389.10	10012.52
389.31	8542.08
389.52	7620.49
389.73	6823.83
389.93	6442.91
390.14	5873.57
390.35	5324.72
390.56	4718.52
390.77	3958.72
390.98	3033.04
391.18	2463.71
391.39	2117.60
391.60	1822.69
391.81	1839.08
392.02	1728.49
392.23	1791.97
392.43	1712.10
392.64	1667.05
392.85	1769.44
393.06	1742.82
393.27	1708.01
393.47	1613.80
393.68	1687.53
393.89	1626.09
394.10	1812.45
394.31	1603.56
394.52	1654.76
394.72	1648.61
394.93	1740.77
395.14	1683.43
395.35	1757.16
395.56	1662.95
395.76	1757.16
395.97	1722.34
396.18	1796.07
396.39	1865.70
396.60	2035.68
396.80	1863.65
397.01	1847.27
397.22	1806.31
397.43	1761.25
397.64	1742.82
397.84	1828.84
398.05	1923.04
398.26	1769.44
398.47	1736.68
398.67	1789.92
398.88	1705.96
399.09	1773.54
399.30	1734.63
399.51	1812.45
399.71	1681.38
399.92	1593.32
400.13	1728.49
400.34	1722.34
400.54	1705.96
400.75	1773.54
400.96	1726.44
401.17	1789.92
401.37	1728.49
401.58	1683.43
401.79	1718.25
402.00	1853.41
402.21	2082.78
402.41	1824.74
402.62	2011.11
402.83	2058.21
403.04	1937.38
403.24	1996.77
403.45	1867.75
403.66	1927.14
403.87	1945.57
404.07	1834.98
404.28	1871.84
404.49	1806.31
404.70	1785.83
404.90	1740.77
405.11	1693.67
405.32	1830.88
405.52	1593.32
405.73	1654.76
405.94	1615.85
406.15	1656.81
406.35	1708.01
406.56	1742.82
406.77	1632.23
406.98	1712.10
407.18	1650.66
407.39	1853.41
407.60	1687.53
407.80	1697.77
408.01	1665.00
408.22	1693.67
408.43	1660.90
408.63	1671.14
408.84	1808.36
409.05	1742.82
409.25	1650.66
409.46	1648.61
409.67	1654.76
409.88	1617.90
410.08	1757.16
410.29	1673.19
410.50	1814.50
410.70	1710.05
410.91	1554.41
411.12	1751.01
411.32	1703.91
411.53	1669.09
411.74	1773.54
411.95	1755.11
412.15	1683.43
412.36	1763.30
412.57	1785.83
412.77	1882.08
412.98	1703.91
413.19	1757.16
413.39	1773.54
413.60	1816.55
413.81	1800.16
414.01	1642.47
414.22	1736.68
414.43	1689.57
414.63	1624.04
414.84	1841.12
415.05	1714.15
415.25	1617.90
415.46	1785.83
415.67	1683.43
415.87	1710.05
416.08	1718.25
416.29	1671.14
416.49	1808.36
416.70	1693.67
416.91	1738.73
417.11	1703.91
417.32	1812.45
417.53	1755.11
417.73	1742.82
417.94	1669.09
418.15	1738.73
418.35	1759.21
418.56	1708.01
418.77	1845.22
418.97	1714.15
419.18	1720.29
419.38	1564.65
419.59	1644.52
419.80	1859.56
420.00	1699.81
420.21	1708.01
420.42	1810.40
420.62	1710.05
420.83	1617.90
421.04	1773.54
421.24	1730.53
421.45	1730.53
421.65	1744.87
421.86	1648.61
422.07	1712.10
422.27	1685.48
422.48	1740.77
422.69	1691.62
422.89	1732.58
423.10	1701.86
423.30	1691.62
423.51	1667.05
423.72	1665.00
423.92	1732.58
424.13	1685.48
424.33	1677.29
424.54	1769.44
424.75	1724.39
424.95	1812.45
425.16	1767.40
425.36	1701.86
425.57	1746.92
425.78	1708.01
425.98	1720.29
426.19	1757.16
426.39	1687.53
426.60	1824.74
426.81	1714.15
427.01	1695.72
427.22	1697.77
427.42	1617.90
427.63	1669.09
427.83	1667.05
428.04	1810.40
428.25	1755.11
428.45	1763.30
428.66	1775.59
428.86	1730.53
429.07	1689.57
429.28	1648.61
429.48	1634.28
429.69	1685.48
429.89	1738.73
430.10	1646.57
430.30	1751.01
430.51	1638.38
430.71	1701.86
430.92	1705.96
431.13	1662.95
431.33	1763.30
431.54	1773.54
431.74	1744.87
431.95	1818.60
432.15	1662.95
432.36	1673.19
432.56	1755.11
432.77	1728.49
432.98	1755.11
433.18	1701.86
433.39	1693.67
433.59	1660.90
433.80	1746.92
434.00	1773.54
434.21	1761.25
434.41	1677.29
434.62	1845.22
434.82	1656.81
435.03	1732.58
435.23	1765.35
435.44	1636.33
435.64	1722.34
435.85	1781.73
436.06	1771.49
436.26	1800.16
436.47	1710.05
436.67	1720.29
436.88	1669.09
437.08	1759.21
437.29	1806.31
437.49	1673.19
437.70	1763.30
437.90	1685.48
438.11	1882.08
438.31	1740.77
438.52	1877.99
438.72	1855.46
438.93	1923.04
439.13	1873.89
439.34	1767.40
439.54	1761.25
439.75	1769.44
439.95	1748.97
440.16	1693.67
440.36	1791.97
440.57	1730.53
440.77	1753.06
440.98	1669.09
441.18	1746.92
441.39	1705.96
441.59	1665.00
441.80	1757.16
442.00	1724.39
442.21	1726.44
442.41	1583.08
442.62	1824.74
442.82	1693.67
443.02	1724.39
443.23	1769.44
443.43	1691.62
443.64	1847.27
443.84	1701.86
444.05	1812.45
444.25	1712.10
444.46	1683.43
444.66	1775.59
444.87	1812.45
445.07	1673.19
445.28	1802.21
445.48	1761.25
445.69	1765.35
445.89	1888.23
446.09	1675.24
446.30	1968.10
446.50	2584.54
446.71	3684.30
446.91	4288.45
447.12	4855.73
447.32	4937.65
447.53	4390.84
447.73	3891.14
447.93	3571.66
448.14	3381.20
448.34	3274.70
448.55	2858.96
448.75	2879.44
448.96	2729.94
449.16	2459.61
449.36	2265.05
449.57	2117.60
449.77	1906.66
449.98	1857.51
450.18	1785.83
450.39	1849.32
450.59	1757.16
450.79	1716.20
451.00	1675.24
451.20	1689.57
451.41	1689.57
451.61	1751.01
451.81	1759.21
452.02	1665.00
452.22	1705.96
452.43	1667.05
452.63	1732.58
452.84	1761.25
453.04	1679.33
453.24	1730.53
453.45	1712.10
453.65	1818.60
453.86	1740.77
454.06	1818.60
454.26	1687.53
454.47	1687.53
454.67	1773.54
454.87	1740.77
455.08	1726.44
455.28	1832.93
455.49	1767.40
455.69	1640.42
455.89	1845.22
456.10	1775.59
456.30	1677.29
456.51	1767.40
456.71	1787.88
456.91	1726.44
457.12	1654.76
457.32	1697.77
457.52	1695.72
457.73	1763.30
457.93	1710.05
458.14	1714.15
458.34	1665.00
458.54	1630.18
458.75	1748.97
458.95	1816.55
459.15	1701.86
459.36	1738.73
459.56	1800.16
459.76	1761.25
459.97	1679.33
460.17	1693.67
460.37	1718.25
460.58	1722.34
460.78	1808.36
460.99	1675.24
461.19	1763.30
461.39	1701.86
461.60	1699.81
461.80	1794.02
462.00	1710.05
462.21	1763.30
462.41	1667.05
462.61	1716.20
462.82	1621.99
463.02	1775.59
463.22	1703.91
463.43	1767.40
463.63	1732.58
463.83	1847.27
464.04	1734.63
464.24	1726.44
464.44	1587.18
464.64	1763.30
464.85	1771.49
465.05	1728.49
465.25	1671.14
465.46	1722.34
465.66	1789.92
465.86	1755.11
466.07	1785.83
466.27	1689.57
466.47	1601.51
466.68	1679.33
466.88	1818.60
467.08	1802.21
467.29	1734.63
467.49	1769.44
467.69	1660.90
467.89	1779.68
468.10	1746.92
468.30	1834.98
468.50	1783.78
468.71	1568.74
468.91	1693.67
469.11	1779.68
469.31	1791.97
469.52	1714.15
469.72	1798.12
469.92	1820.64
470.13	1722.34
470.33	1677.29
470.53	1734.63
470.73	2113.50
470.94	2322.40
471.14	2379.74
471.34	2467.80
471.54	2484.19
471.75	2260.96
471.95	2160.61
472.15	2058.21
472.36	2027.49
472.56	1988.58
472.76	2060.26
472.96	1935.33
473.17	1931.23
473.37	1931.23
473.57	1796.07
473.77	1785.83
473.98	1751.01
474.18	1746.92
474.38	1847.27
474.58	1732.58
474.79	1683.43
474.99	1804.26
475.19	1769.44
475.39	1656.81
475.60	1693.67
475.80	1695.72
476.00	1726.44
476.20	1701.86
476.41	1738.73
476.61	1810.40
476.81	1869.80
477.01	1671.14
477.21	1791.97
477.42	1771.49
477.62	1679.33
477.82	1767.40
478.02	1734.63
478.23	1751.01
478.43	1619.94
478.63	1736.68
478.83	1744.87
479.03	1685.48
479.24	1773.54
479.44	1871.84
479.64	1654.76
479.84	1644.52
480.04	1640.42
480.25	1751.01
480.45	1718.25
480.65	1701.86
480.85	1832.93
481.06	1685.48
481.26	1738.73
481.46	1703.91
481.66	1710.05
481.86	1716.20
482.06	1865.70
482.27	1759.21
482.47	1644.52
482.67	1753.06
482.87	1671.14
483.07	1804.26
483.28	1652.71
483.48	1660.90
483.68	1705.96
483.88	1738.73
484.08	1578.98
484.29	1624.04
484.49	1710.05
484.69	1662.95
484.89	1890.28
485.09	1812.45
485.29	1732.58
485.50	1820.64
485.70	1705.96
485.90	1794.02
486.10	1783.78
486.30	1693.67
486.50	1714.15
486.71	1732.58
486.91	1779.68
487.11	1789.92
487.31	1646.57
487.51	1716.20
487.71	1665.00
487.91	1599.46
488.12	1675.24
488.32	1624.04
488.52	1695.72
488.72	1628.14
488.92	1712.10
489.12	1697.77
489.32	1787.88
489.53	1753.06
489.73	1597.42
489.93	1853.41
490.13	1699.81
490.33	1566.70
490.53	1697.77
490.73	1783.78
490.94	1654.76
491.14	1734.63
491.34	1818.60
491.54	2160.61
491.74	2545.63
491.94	2877.40
492.14	3020.75
492.34	3041.23
492.54	2791.38
492.75	2627.54
492.95	2486.23
493.15	2340.83
493.35	2215.90
493.55	2336.73
493.75	2131.94
493.95	2160.61
494.15	1992.67
494.35	1943.52
494.56	1783.78
494.76	1724.39
494.96	1818.60
495.16	1742.82
495.36	1763.30
495.56	1726.44
495.76	1683.43
495.96	1714.15
496.16	1652.71
496.36	1877.99
496.56	1716.20
496.77	1732.58
496.97	1673.19
497.17	1781.73
497.37	1699.81
497.57	1814.50
497.77	1751.01
497.97	1576.94
498.17	1738.73
498.37	1615.85
498.57	1742.82
498.77	1679.33
498.97	1734.63
499.17	1742.82
499.38	1718.25
499.58	1755.11
499.78	1798.12
499.98	1839.08
500.18	1701.86
500.38	1693.67
500.58	1894.37
500.78	2559.96
500.98	4509.63
501.18	5918.63
501.38	6825.88
501.58	7352.21
501.78	6866.84
501.98	5556.14
502.18	5033.91
502.38	4476.86
502.58	4243.39
502.78	3782.60
502.98	3678.15
503.18	3622.86
503.38	3235.79
503.59	2805.72
503.79	2756.57
503.99	2521.05
504.19	2279.39
504.39	2125.79
504.59	2256.86
504.79	2193.37
504.99	2045.92
505.19	1964.00
505.39	1875.94
505.59	1984.48
505.79	1877.99
505.99	1767.40
506.19	1814.50
506.39	1869.80
506.59	1816.55
506.79	1689.57
506.99	1816.55
507.19	1736.68
507.39	1767.40
507.59	1691.62
507.79	1728.49
507.99	1673.19
508.19	1742.82
508.39	1710.05
508.59	1681.38
508.79	1886.18
508.99	1796.07
509.19	1718.25
509.39	1808.36
509.59	1675.24
509.79	1720.29
509.99	1720.29
510.19	1736.68
510.39	1751.01
510.59	1681.38
510.79	1789.92
510.99	1730.53
511.19	1732.58
511.39	1845.22
511.59	1796.07
511.79	1812.45
511.99	1806.31
512.19	1763.30
512.38	1662.95
512.58	1646.57
512.78	1615.85
512.98	1830.88
513.18	1908.71
513.38	1695.72
513.58	1755.11
513.78	1740.77
513.98	1759.21
514.18	1724.39
514.38	1669.09
514.58	1687.53
514.78	1722.34
514.98	1652.71
515.18	1728.49
515.38	1601.51
515.58	1873.89
515.78	1757.16
515.98	1732.58
516.18	1759.21
516.38	1652.71
516.57	1789.92
516.77	1632.23
516.97	1683.43
517.17	1730.53
517.37	1701.86
517.57	1728.49
517.77	1720.29
517.97	1624.04
518.17	1775.59
518.37	1736.68
518.57	1751.01
518.77	1708.01
518.97	1787.88
519.16	1783.78
519.36	1871.84
519.56	1726.44
519.76	1751.01
519.96	1804.26
520.16	1748.97
520.36	1685.48
520.56	1789.92
520.76	1722.34
520.96	1746.92
521.16	1751.01
521.35	1851.36
521.55	1873.89
521.75	1742.82
521.95	1720.29
522.15	1767.40
522.35	1609.70
522.55	1646.57
522.75	1787.88
522.95	1662.95
523.14	1636.33
523.34	1759.21
523.54	1732.58
523.74	1726.44
523.94	1697.77
524.14	1720.29
524.34	1734.63
524.54	1771.49
524.73	1724.39
524.93	1724.39
525.13	1718.25
525.33	1675.24
525.53	1900.52
525.73	1771.49
525.93	1726.44
526.13	1757.16
526.32	1697.77
526.52	1798.12
526.72	1789.92
526.92	1726.44
527.12	1785.83
527.32	1599.46
527.52	1794.02
527.71	1732.58
527.91	1773.54
528.11	1662.95
528.31	1679.33
528.51	1650.66
528.71	1728.49
528.90	1763.30
529.10	1830.88
529.30	1839.08
529.50	1607.66
529.70	1763.30
529.90	1685.48
530.09	1814.50
530.29	1667.05
530.49	1658.85
530.69	1822.69
530.89	1675.24
531.09	1759.21
531.28	1662.95
531.48	1787.88
531.68	1734.63
531.88	1779.68
532.08	1839.08
532.28	1718.25
532.47	1781.73
532.67	1806.31
532.87	1724.39
533.07	1624.04
533.27	1730.53
533.46	1798.12
533.66	1802.21
533.86	1730.53
534.06	1716.20
534.26	1771.49
534.45	1691.62
534.65	1804.26
534.85	1718.25
535.05	1677.29
535.25	1724.39
535.44	1615.85
535.64	1765.35
535.84	1679.33
536.04	1646.57
536.24	1744.87
536.43	1703.91
536.63	1800.16
536.83	1791.97
537.03	1646.57
537.22	1634.28
537.42	1634.28
537.62	1712.10
537.82	1738.73
538.02	1785.83
538.21	1800.16
538.41	1882.08
538.61	1789.92
538.81	1689.57
539.00	1804.26
539.20	1673.19
539.40	1665.00
539.60	1703.91
539.79	1753.06
539.99	1671.14
540.19	1710.05
540.39	1701.86
540.58	1761.25
540.78	1755.11
540.98	1767.40
541.18	1873.89
541.37	1757.16
541.57	1662.95
541.77	1763.30
541.97	1681.38
542.16	1695.72
542.36	1697.77
542.56	1724.39
542.76	1853.41
542.95	1765.35
543.15	1728.49
543.35	1759.21
543.54	1695.72
543.74	1638.38
543.94	1751.01
544.14	1679.33
544.33	1703.91
544.53	1798.12
544.73	1728.49
544.93	1757.16
545.12	1705.96
545.32	1775.59
545.52	1712.10
545.71	1681.38
545.91	1687.53
546.11	1738.73
546.30	1695.72
546.50	1722.34
546.70	1710.05
546.90	1767.40
547.09	1611.75
547.29	1796.07
547.49	1759.21
547.68	1705.96
547.88	1693.67
548.08	1779.68
548.27	2220.00
548.47	1613.80
548.67	1656.81
548.87	1783.78
549.06	1677.29
549.26	1656.81
549.46	1746.92
549.65	1724.39
549.85	1744.87
550.05	1771.49
550.24	1609.70
550.44	1738.73
550.64	1748.97
550.83	1746.92
551.03	1826.79
551.23	1800.16
551.42	1787.88
551.62	1703.91
551.82	1638.38
552.01	1665.00
552.21	1843.17
552.41	1734.63
552.60	1830.88
552.80	1642.47
553.00	1773.54
553.19	1728.49
553.39	1763.30
553.59	1714.15
553.78	1796.07
553.98	1736.68
554.17	1740.77
554.37	1746.92
554.57	1806.31
554.76	1656.81
554.96	1720.29
555.16	1771.49
555.35	1753.06
555.55	1722.34
555.75	1769.44
555.94	1755.11
556.14	1695.72
556.33	1875.94
556.53	1724.39
556.73	1691.62
556.92	1763.30
557.12	1830.88
557.32	1787.88
557.51	1732.58
557.71	1740.77
557.90	1875.94
558.10	1884.13
558.30	1722.34
558.49	1759.21
558.69	1744.87
558.88	1726.44
559.08	1671.14
559.28	1744.87
559.47	1708.01
559.67	1779.68
559.86	1751.01
560.06	1765.35
560.26	1787.88
560.45	1771.49
560.65	1712.10
560.84	1771.49
561.04	1650.66
561.24	1742.82
561.43	1669.09
561.63	1818.60
561.82	1744.87
562.02	1765.35
562.22	1693.67
562.41	1673.19
562.61	1656.81
562.80	1652.71
563.00	1853.41
563.19	1763.30
563.39	1791.97
563.59	1763.30
563.78	1673.19
563.98	1644.52
564.17	1708.01
564.37	1632.23
564.56	1718.25
564.76	1615.85
564.96	1814.50
565.15	1814.50
565.35	1933.28
565.54	1757.16
565.74	1773.54
565.93	1701.86
566.13	1716.20
566.32	1744.87
566.52	1753.06
566.71	1757.16
566.91	1744.87
567.11	1742.82
567.30	1712.10
567.50	1765.35
567.69	1775.59
567.89	1705.96
568.08	1724.39
568.28	1810.40
568.47	1662.95
568.67	1769.44
568.86	1714.15
569.06	1757.16
569.25	1730.53
569.45	1654.76
569.64	1710.05
569.84	1691.62
570.04	1748.97
570.23	1701.86
570.43	1794.02
570.62	1734.63
570.82	1755.11
571.01	1658.85
571.21	1732.58
571.40	1669.09
571.60	1830.88
571.79	1771.49
571.99	1800.16
572.18	1605.61
572.38	1820.64
572.57	1714.15
572.77	1742.82
572.96	1826.79
573.16	1783.78
573.35	1730.53
573.55	1853.41
573.74	1769.44
573.94	1740.77
574.13	1759.21
574.33	1769.44
574.52	1857.51
574.71	1769.44
574.91	1791.97
575.10	1724.39
575.30	1773.54
575.49	1679.33
575.69	1695.72
575.88	1771.49
576.08	1791.97
576.27	1769.44
576.47	1724.39
576.66	1763.30
576.86	1851.36
577.05	1746.92
577.25	1808.36
577.44	1820.64
577.64	1699.81
577.83	1783.78
578.02	1710.05
578.22	1726.44
578.41	1791.97
578.61	1755.11
578.80	1654.76
579.00	1724.39
579.19	1785.83
579.39	1796.07
579.58	1882.08
579.77	1720.29
579.97	1824.74
580.16	1845.22
580.36	1808.36
580.55	1824.74
580.75	1757.16
580.94	1728.49
581.13	1828.84
581.33	1746.92
581.52	1763.30
581.72	1888.23
581.91	1828.84
582.11	1724.39
582.30	1834.98
582.49	1718.25
582.69	1824.74
582.88	1886.18
583.08	1787.88
583.27	1781.73
583.47	1701.86
583.66	1699.81
583.85	1742.82
584.05	1716.20
584.24	1812.45
584.44	1753.06
584.63	1765.35
584.82	1902.56
585.02	1755.11
585.21	1851.36
585.41	1841.12
585.60	1873.89
585.79	1900.52
585.99	1914.85
586.18	1880.04
586.37	2158.56
586.57	3422.16
586.76	10116.97
586.96	25187.97
587.15	35390.95
587.34	41846.15
587.54	42900.85
587.73	37701.06
587.93	27000.42
588.12	22107.82
588.31	18851.55
588.51	16576.26
588.70	15415.06
588.89	14636.83
589.09	12820.28
589.28	11175.77
589.47	9592.69
589.67	8181.64
589.86	6526.88
590.06	4929.46
590.25	3928.00
590.44	3239.89
590.64	2615.26
590.83	2281.44
591.02	2095.07
591.22	1904.61
591.41	1884.13
591.60	1810.40
591.80	2004.96
591.99	1697.77
592.18	1734.63
592.38	1779.68
592.57	1716.20
592.76	1812.45
592.96	1800.16
593.15	1753.06
593.34	1822.69
593.54	1665.00
593.73	1785.83
593.92	1841.12
594.12	1781.73
594.31	1759.21
594.50	1761.25
594.70	1781.73
594.89	1869.80
595.08	1654.76
595.28	1834.98
595.47	1914.85
595.66	1757.16
595.86	1722.34
596.05	1703.91
596.24	1681.38
596.43	1861.60
596.63	1773.54
596.82	1734.63
597.01	1742.82
597.21	1851.36
597.40	1810.40
597.59	1742.82
597.79	1671.14
597.98	1837.03
598.17	1810.40
598.36	1705.96
598.56	1765.35
598.75	1693.67
598.94	1845.22
599.14	1726.44
599.33	1757.16
599.52	1808.36
599.71	1738.73
599.91	1755.11
600.10	1841.12
600.29	1763.30
600.48	1802.21
600.68	1718.25
600.87	1714.15
601.06	1689.57
601.26	1779.68
601.45	1751.01
601.64	1791.97
601.83	1882.08
602.03	1681.38
602.22	1759.21
602.41	1742.82
602.60	1867.75
602.80	1800.16
602.99	1751.01
603.18	1779.68
603.37	1771.49
603.57	1763.30
603.76	1798.12
603.95	1812.45
604.14	1667.05
604.34	1742.82
604.53	1685.48
604.72	1701.86
604.91	1773.54
605.10	1796.07
605.30	1605.61
605.49	1796.07
605.68	1779.68
605.87	1697.77
606.07	1720.29
606.26	1703.91
606.45	1757.16
606.64	1763.30
606.84	1734.63
607.03	1712.10
607.22	1740.77
607.41	1683.43
607.60	1730.53
607.80	1843.17
607.99	1714.15
608.18	1767.40
608.37	1757.16
608.56	1710.05
608.76	1839.08
608.95	1777.64
609.14	1728.49
609.33	1746.92
609.52	1806.31
609.72	1810.40
609.91	1814.50
610.10	1744.87
610.29	1783.78
610.48	1738.73
610.68	1779.68
610.87	1746.92
611.06	1802.21
611.25	1771.49
611.44	1808.36
611.63	1714.15
611.83	1765.35
612.02	1656.81
612.21	1751.01
612.40	1615.85
612.59	1708.01
612.79	1628.14
612.98	1753.06
613.17	1794.02
613.36	1689.57
613.55	1824.74
613.74	1630.18
613.93	1675.24
614.13	1718.25
614.32	1703.91
614.51	1716.20
614.70	1767.40
614.89	1681.38
615.08	1787.88
615.28	2082.78
615.47	1624.04
615.66	1769.44
615.85	1656.81
616.04	1828.84
616.23	1728.49
616.42	1636.33
616.62	1796.07
616.81	1728.49
617.00	1693.67
617.19	1769.44
617.38	1705.96
617.57	1794.02
617.76	1767.40
617.95	1667.05
618.15	1724.39
618.34	1798.12
618.53	1636.33
618.72	1796.07
618.91	1767.40
619.10	1820.64
619.29	1648.61
619.48	1736.68
619.68	1685.48
619.87	1730.53
620.06	1716.20
620.25	1714.15
620.44	1613.80
620.63	1701.86
620.82	1763.30
621.01	1773.54
621.20	1714.15
621.39	1705.96
621.59	1722.34
621.78	1722.34
621.97	1714.15
622.16	1685.48
622.35	1722.34
622.54	1732.58
622.73	1779.68
622.92	1640.42
623.11	1802.21
623.30	1744.87
623.49	1724.39
623.68	1712.10
623.88	1865.70
624.07	1697.77
624.26	1761.25
624.45	1738.73
624.64	1699.81
624.83	1697.77
625.02	1734.63
625.21	1826.79
625.40	1701.86
625.59	1814.50
625.78	1705.96
625.97	1765.35
626.16	1689.57
626.35	1800.16
626.54	1701.86
626.74	1869.80
626.93	1630.18
627.12	1732.58
627.31	1736.68
627.50	1748.97
627.69	1794.02
627.88	1746.92
628.07	1751.01
628.26	1648.61
628.45	1673.19
628.64	1632.23
628.83	1769.44
629.02	1689.57
629.21	1773.54
629.40	1708.01
629.59	1683.43
629.78	1714.15
629.97	1744.87
630.16	1798.12
630.35	1716.20
630.54	1703.91
630.73	1744.87
630.92	1746.92
631.11	1652.71
631.30	1732.58
631.49	1777.64
631.68	1687.53
631.87	1761.25
632.06	1658.85
632.25	1886.18
632.44	1759.21
632.63	1675.24
632.82	1714.15
633.01	1710.05
633.20	1716.20
633.39	1660.90
633.58	1644.52
633.77	1767.40
633.96	1705.96
634.15	1753.06
634.34	1726.44
634.53	1673.19
634.72	1697.77
634.91	1656.81
635.10	1757.16
635.29	1791.97
635.48	1673.19
635.67	1705.96
635.86	1603.56
636.05	1761.25
636.24	1683.43
636.43	1751.01
636.62	1740.77
636.81	1609.70
637.00	1755.11
637.19	1753.06
637.38	1667.05
637.57	1638.38
637.76	1677.29
637.95	1722.34
638.14	1624.04
638.33	1742.82
638.52	1716.20
638.71	1671.14
638.89	1548.26
639.08	1802.21
639.27	1818.60
639.46	1687.53
639.65	1783.78
639.84	1759.21
640.03	1746.92
640.22	1667.05
640.41	1851.36
640.60	1650.66
640.79	1708.01
640.98	1765.35
641.17	1765.35
641.36	1734.63
641.55	1716.20
641.74	1656.81
641.92	1716.20
642.11	1654.76
642.30	1724.39
642.49	1693.67
642.68	1691.62
642.87	1714.15
643.06	1746.92
643.25	1708.01
643.44	1687.53
643.63	1718.25
643.82	1714.15
644.00	1656.81
644.19	1744.87
644.38	1656.81
644.57	1783.78
644.76	1753.06
644.95	1691.62
645.14	1751.01
645.33	1732.58
645.52	1691.62
645.71	1650.66
645.89	1689.57
646.08	1726.44
646.27	1660.90
646.46	1789.92
646.65	1640.42
646.84	1734.63
647.03	1693.67
647.22	1757.16
647.40	1689.57
647.59	1701.86
647.78	1681.38
647.97	1677.29
648.16	1665.00
648.35	1791.97
648.54	1787.88
648.73	1691.62
648.91	1712.10
649.10	1746.92
649.29	1693.67
649.48	1693.67
649.67	1755.11
649.86	1716.20
650.05	1699.81
650.23	1722.34
650.42	1640.42
650.61	1755.11
650.80	1775.59
650.99	1916.90
651.18	1806.31
651.36	1701.86
651.55	1705.96
651.74	1759.21
651.93	1671.14
652.12	1693.67
652.31	1726.44
652.49	1705.96
652.68	1679.33
652.87	1812.45
653.06	1697.77
653.25	1802.21
653.44	1705.96
653.62	1763.30
653.81	1685.48
654.00	1732.58
654.19	1730.53
654.38	1824.74
654.56	1785.83
654.75	1648.61
654.94	1751.01
655.13	1681.38
655.32	1742.82
655.51	1724.39
655.69	1617.90
655.88	1820.64
656.07	1667.05
656.26	1769.44
656.45	1609.70
656.63	1662.95
656.82	1767.40
657.01	1753.06
657.20	1718.25
657.38	1773.54
657.57	1722.34
657.76	1669.09
657.95	1755.11
658.14	1714.15
658.32	1724.39
658.51	1656.81
658.70	1710.05
658.89	1714.15
659.08	1697.77
659.26	1822.69
659.45	1630.18
659.64	1732.58
659.83	1662.95
660.01	1890.28
660.20	1722.34
660.39	1849.32
660.58	1591.27
660.76	1671.14
660.95	1669.09
661.14	1722.34
661.33	1673.19
661.51	1683.43
661.70	1748.97
661.89	1677.29
662.08	1667.05
662.26	1613.80
662.45	1671.14
662.64	1781.73
662.83	1675.24
663.01	1669.09
663.20	1642.47
663.39	1824.74
663.58	1701.86
663.76	1718.25
663.95	1740.77
664.14	1697.77
664.32	1726.44
664.51	1699.81
664.70	1531.88
664.89	1767.40
665.07	1665.00
665.26	1740.77
665.45	1652.71
665.64	1773.54
665.82	1685.48
666.01	1777.64
666.20	1687.53
666.38	1837.03
666.57	1783.78
666.76	2230.24
666.95	4579.26
667.13	10729.31
667.32	15666.96
667.51	18235.11
667.69	19504.85
667.88	18198.25
668.07	12629.82
668.25	9668.46
668.44	8265.60
668.63	7440.27
668.81	7047.06
669.00	6289.31
669.19	5762.98
669.38	5234.61
669.56	4556.73
669.75	4143.04
669.94	3416.01
670.12	3041.23
670.31	2564.06
670.50	2324.44
670.68	2162.66
670.87	1923.04
671.06	1853.41
671.24	1847.27
671.43	1841.12
671.62	1804.26
671.80	1673.19
671.99	1837.03
672.18	1726.44
672.36	1796.07
672.55	1742.82
672.74	1712.10
672.92	1677.29
673.11	1771.49
673.29	1691.62
673.48	1738.73
673.67	1705.96
673.85	1701.86
674.04	1748.97
674.23	1624.04
674.41	1845.22
674.60	1697.77
674.79	1589.22
674.97	1718.25
675.16	1740.77
675.34	1796.07
675.53	1697.77
675.72	1730.53
675.90	1847.27
676.09	1638.38
676.28	1710.05
676.46	1640.42
676.65	1732.58
676.83	1673.19
677.02	1761.25
677.21	1755.11
677.39	1626.09
677.58	1648.61
677.77	1740.77
677.95	1738.73
678.14	1628.14
678.32	1679.33
678.51	1716.20
678.70	1800.16
678.88	1685.48
679.07	1773.54
679.25	1726.44
679.44	1658.85
679.63	1583.08
679.81	1816.55
680.00	1744.87
680.18	1701.86
680.37	1767.40
680.55	1802.21
680.74	1591.27
680.93	1642.47
681.11	1697.77
681.30	1794.02
681.48	1710.05
681.67	1689.57
681.85	1705.96
682.04	1708.01
682.23	1810.40
682.41	1697.77
682.60	1667.05
682.78	1675.24
682.97	1693.67
683.15	1763.30
683.34	1740.77
683.53	1767.40
683.71	1591.27
683.90	1775.59
684.08	1789.92
684.27	1607.66
684.45	1820.64
684.64	1720.29
684.82	1716.20
685.01	1679.33
685.19	1648.61
685.38	1796.07
685.57	1665.00
685.75	1693.67
685.94	1703.91
686.12	1697.77
686.31	1681.38
686.49	1794.02
686.68	1628.14
686.86	1701.86
687.05	1757.16
687.23	1818.60
687.42	1697.77
687.60	1650.66
687.79	1738.73
687.97	1763.30
688.16	1814.50
688.34	1773.54
688.53	1662.95
688.71	1673.19
688.90	1742.82
689.08	1738.73
689.27	1619.94
689.45	1679.33
689.64	1794.02
689.82	1753.06
690.01	1748.97
690.19	1722.34
690.38	1591.27
690.56	1798.12
690.75	1658.85
690.93	1751.01
691.12	1701.86
691.30	1699.81
691.49	1712.10
691.67	1697.77
691.86	1781.73
692.04	1660.90
692.23	1710.05
692.41	1703.91
692.60	1775.59
692.78	1697.77
692.97	1656.81
693.15	1708.01
693.34	1789.92
693.52	1751.01
693.71	1703.91
693.89	1697.77
694.08	1572.84
694.26	1753.06
694.44	1757.16
694.63	1779.68
694.81	1648.61
695.00	1669.09
695.18	1730.53
695.37	1816.55
695.55	1689.57
695.74	1708.01
695.92	1732.58
696.10	1757.16
696.29	1597.42
696.47	1699.81
696.66	1656.81
696.84	1656.81
697.03	1693.67
697.21	1886.18
697.40	2265.05
697.58	1884.13
697.76	1691.62
697.95	1665.00
698.13	1701.86
698.32	1679.33
698.50	1755.11
698.68	1828.84
698.87	1697.77
699.05	1800.16
699.24	1654.76
699.42	1654.76
699.61	1644.52
699.79	1673.19
699.97	1746.92
700.16	1624.04
700.34	1593.32
700.53	1761.25
700.71	1675.24
700.89	1665.00
701.08	1697.77
701.26	1699.81
701.45	2045.92
701.63	1613.80
701.81	1689.57
702.00	1685.48
702.18	1763.30
702.37	1738.73
702.55	1712.10
702.73	1740.77
702.92	1644.52
703.10	1738.73
703.28	1693.67
703.47	1646.57
703.65	1810.40
703.84	1736.68
704.02	1624.04
704.20	1746.92
704.39	1695.72
704.57	1656.81
704.75	1775.59
704.94	1773.54
705.12	1677.29
705.30	1708.01
705.49	2312.16
705.67	4466.62
705.86	9695.08
706.04	12707.65
706.22	14685.98
706.41	15927.05
706.59	14374.69
706.77	9734.00
706.96	7514.00
707.14	6737.82
707.32	6133.67
707.51	5599.15
707.69	4945.84
707.87	4394.94
708.06	3592.14
708.24	3022.80
708.42	2392.03
708.61	2211.81
708.79	1925.09
708.97	1804.26
709.16	1759.21
709.34	1798.12
709.52	1746.92
709.71	1808.36
709.89	1851.36
710.07	1693.67
710.26	1665.00
710.44	1705.96
710.62	1722.34
710.80	1634.28
710.99	1740.77
711.17	1724.39
711.35	1644.52
711.54	1646.57
711.72	1648.61
711.90	1787.88
712.09	1755.11
712.27	1634.28
712.45	1753.06
712.63	1658.85
712.82	1675.24
713.00	1757.16
713.18	1755.11
713.37	1802.21
713.55	1751.01
713.73	1771.49
713.91	1767.40
714.10	1667.05
714.28	1644.52
714.46	1740.77
714.65	1759.21
714.83	1695.72
715.01	1759.21
715.19	1691.62
715.38	1697.77
715.56	1722.34
715.74	1656.81
715.92	1548.26
716.11	1773.54
716.29	1570.79
716.47	1757.16
716.65	1722.34
716.84	1624.04
717.02	1810.40
717.20	1554.41
717.38	1685.48
717.57	1726.44
717.75	1732.58
717.93	1673.19
718.11	1697.77
718.30	1654.76
718.48	1746.92
718.66	1775.59
718.84	1798.12
719.03	1705.96
719.21	1630.18
719.39	1796.07
719.57	1839.08
719.75	1783.78
719.94	1755.11
720.12	1689.57
720.30	1638.38
720.48	1738.73
720.67	1722.34
720.85	1662.95
721.03	1642.47
721.21	1644.52
721.39	1822.69
721.58	1783.78
721.76	1683.43
721.94	1757.16
722.12	1818.60
722.30	1714.15
722.49	1652.71
722.67	1685.48
722.85	1697.77
723.03	1640.42
723.21	1601.51
723.40	1671.14
723.58	1665.00
723.76	1712.10
723.94	1759.21
724.12	1740.77
724.30	1816.55
724.49	1759.21
724.67	1599.46
724.85	1681.38
725.03	1624.04
725.21	1818.60
725.40	1751.01
725.58	1665.00
725.76	1765.35
725.94	1751.01
726.12	1617.90
726.30	1744.87
726.49	1665.00
726.67	1665.00
726.85	1716.20
727.03	1734.63
727.21	2060.26
727.39	2891.73
727.57	3784.65
727.76	4198.34
727.94	4560.83
728.12	4476.86
728.30	3669.96
728.48	3004.37
728.66	2705.37
728.84	2510.81
729.03	2355.16
729.21	2220.00
729.39	1916.90
729.57	1855.46
729.75	1834.98
729.93	1769.44
730.11	1751.01
730.30	1689.57
730.48	1736.68
730.66	1738.73
730.84	1693.67
731.02	1712.10
731.20	1755.11
731.38	1724.39
731.56	1638.38
731.74	1583.08
731.93	1789.92
732.11	1763.30
732.29	1724.39
732.47	1781.73
732.65	1746.92
732.83	1812.45
733.01	1695.72
733.19	1628.14
733.37	1734.63
733.56	1783.78
733.74	1621.99
733.92	1759.21
734.10	1716.20
734.28	1728.49
734.46	1644.52
734.64	1724.39
734.82	1660.90
735.00	1705.96
735.18	1716.20
735.36	1742.82
735.54	1714.15
735.73	1677.29
735.91	1732.58
736.09	1716.20
736.27	1683.43
736.45	1761.25
736.63	1638.38
736.81	1683.43
736.99	1771.49
737.17	1759.21
737.35	1640.42
737.53	1714.15
737.71	1710.05
737.89	1703.91
738.07	1699.81
738.25	1648.61
738.43	1644.52
738.61	1689.57
738.80	1632.23
738.98	1656.81
739.16	1648.61
739.34	1708.01
739.52	1869.80
739.70	1665.00
739.88	1798.12
740.06	1771.49
740.24	1556.46
740.42	1783.78
740.60	1566.70
740.78	1669.09
740.96	1576.94
741.14	1679.33
741.32	1703.91
741.50	1652.71
741.68	1900.52
741.86	1751.01
742.04	1628.14
742.22	1587.18
742.40	1695.72
742.58	1714.15
742.76	1671.14
742.94	1767.40
743.12	1685.48
743.30	1755.11
743.48	1671.14
743.66	1705.96
743.84	1669.09
744.02	1675.24
744.20	1705.96
744.38	1630.18
744.56	1660.90
744.74	1787.88
744.92	1722.34
745.10	1800.16
745.28	1724.39
745.46	1701.86
745.64	1732.58
745.82	1701.86
746.00	1734.63
746.18	1773.54
746.36	1607.66
746.54	1660.90
746.72	1699.81
746.90	1652.71
747.08	1798.12
747.26	1646.57
747.44	1748.97
747.62	1742.82
747.80	1732.58
747.98	1804.26
748.15	1705.96
748.33	1771.49
748.51	1660.90
748.69	1802.21
748.87	1652.71
749.05	1677.29
749.23	1697.77
749.41	1720.29
749.59	1710.05
749.77	1800.16
749.95	1638.38
750.13	1648.61
750.31	1677.29
750.49	1636.33
750.67	1730.53
750.85	1785.83
751.03	1726.44
751.20	1779.68
751.38	1730.53
751.56	1679.33
751.74	1728.49
751.92	1656.81
752.10	1591.27
752.28	1822.69
752.46	1730.53
752.64	1667.05
752.82	1740.77
753.00	1781.73
753.18	1652.71
753.35	1634.28
753.53	1701.86
753.71	1638.38
753.89	1722.34
754.07	1773.54
754.25	1693.67
754.43	1708.01
754.61	1648.61
754.79	1726.44
754.97	1699.81
755.14	1791.97
755.32	1648.61
755.50	1757.16
755.68	1708.01
755.86	1714.15
756.04	1693.67
756.22	1615.85
756.40	1726.44
756.57	1753.06
756.75	1716.20
756.93	1771.49
757.11	1781.73
757.29	1630.18
757.47	1636.33
757.65	1693.67
757.82	1576.94
758.00	1648.61
758.18	1648.61
758.36	1603.56
758.54	1779.68
758.72	1652.71
758.90	1744.87
759.07	1779.68
759.25	1638.38
759.43	1734.63
759.61	1597.42
759.79	2140.13
759.97	1720.29
760.15	1726.44
760.32	1716.20
760.50	1751.01
760.68	1791.97
760.86	1691.62
761.04	1738.73
761.22	1697.77
761.39	1673.19
761.57	1730.53
761.75	1644.52
761.93	1654.76
762.11	1742.82
762.28	1718.25
762.46	1605.61
762.64	1757.16
762.82	1675.24
763.00	1642.47
763.18	1849.32
763.35	1695.72
763.53	1763.30
763.71	1712.10
763.89	1646.57
764.07	1728.49
764.24	1654.76
764.42	1710.05
764.60	1656.81
764.78	1716.20
764.96	1755.11
765.13	1732.58
765.31	1732.58
765.49	1787.88
765.67	1597.42
765.84	1656.81
766.02	1648.61
766.20	1578.98
766.38	1755.11
766.56	1708.01
766.73	1636.33
766.91	1683.43
767.09	1693.67
767.27	1708.01
767.44	1755.11
767.62	1687.53
767.80	1710.05
767.98	1615.85
768.15	1763.30
768.33	1755.11
768.51	1775.59
768.69	1705.96
768.87	1779.68
769.04	1703.91
769.22	1847.27
769.40	1837.03
769.58	1896.42
769.75	1718.25
769.93	1701.86
770.11	1632.23
770.28	1685.48
770.46	1722.34
770.64	1738.73
770.82	1675.24
770.99	1781.73
771.17	1744.87
771.35	1611.75
771.53	1734.63
771.70	1646.57
771.88	1648.61
772.06	1701.86
772.23	1693.67
772.41	1781.73
772.59	1673.19
772.77	1695.72
772.94	1689.57
773.12	1701.86
773.30	1677.29
773.47	1689.57
773.65	1681.38
773.83	1683.43
774.01	1742.82
774.18	1644.52
774.36	1632.23
774.54	1597.42
774.71	1738.73
774.89	1654.76
775.07	1691.62
775.24	1687.53
775.42	1671.14
775.60	1808.36
775.78	1644.52
775.95	1648.61
776.13	1617.90
776.31	1615.85
776.48	1728.49
776.66	1816.55
776.84	1550.31
777.01	1673.19
777.19	1630.18
777.37	1673.19
777.54	1703.91
777.72	1812.45
777.90	1730.53
778.07	1705.96
778.25	1847.27
778.43	1718.25
778.60	1679.33
778.78	1705.96
778.96	1697.77
779.13	1583.08
779.31	1759.21
779.49	1642.47
779.66	1736.68
779.84	1673.19
780.01	1673.19
780.19	1519.59
780.37	1761.25
780.54	1724.39
780.72	1716.20
780.90	1611.75
781.07	1658.85
781.25	1644.52
781.43	1708.01
781.60	1660.90
781.78	1746.92
781.95	1738.73
782.13	1695.72
782.31	1716.20
782.48	1617.90
782.66	1615.85
782.83	1816.55
783.01	1759.21
783.19	1660.90
783.36	1675.24
783.54	1648.61
783.72	1802.21
783.89	1630.18
784.07	1757.16
784.24	1679.33
784.42	1804.26
784.60	1701.86
784.77	1689.57
784.95	1601.51
785.12	1642.47
785.30	1632.23
785.47	1660.90
785.65	1736.68
785.83	1644.52
786.00	1667.05
786.18	1796.07
786.35	1685.48
786.53	1574.89
786.71	1765.35
786.88	1767.40
787.06	1693.67
787.23	1654.76
787.41	1611.75
787.58	1689.57
787.76	1669.09
787.94	1693.67
788.11	1683.43
788.29	1673.19
788.46	1671.14
788.64	1630.18
788.81	1556.46
788.99	1644.52
789.16	1658.85
789.34	1656.81
789.52	1689.57
789.69	1628.14
789.87	1630.18
790.04	1697.77
790.22	1619.94
790.39	1796.07
790.57	1607.66
790.74	1667.05
790.92	1763.30
791.09	1648.61
791.27	1675.24
791.44	1746.92
791.62	1695.72
791.79	1781.73
791.97	1703.91
792.15	1923.04
792.32	1656.81
792.50	1728.49
792.67	1800.16
792.85	1824.74
793.02	1671.14
793.20	1662.95
793.37	1699.81
793.55	1751.01
793.72	1640.42
793.90	1763.30
794.07	1654.76
794.25	1683.43
794.42	1742.82
794.60	1712.10
794.77	1669.09
794.95	1681.38
795.12	1716.20
795.30	1710.05
795.47	1583.08
795.65	1886.18
795.82	1740.77
796.00	1630.18
796.17	1626.09
796.34	1685.48
796.52	1695.72
796.69	1718.25
796.87	1730.53
797.04	1685.48
797.22	1714.15
797.39	1703.91
797.57	1763.30
797.74	1658.85
797.92	1755.11
798.09	1626.09
798.27	1773.54
798.44	1701.86
798.62	1634.28
798.79	1728.49
798.96	1701.86
799.14	1611.75
799.31	1861.60
799.49	1644.52
799.66	1685.48
799.84	1703.91
800.01	1585.13
800.19	1644.52
800.36	1656.81
800.53	1722.34
800.71	1675.24
800.88	1785.83
801.06	1732.58
801.23	1652.71
801.41	1708.01
801.58	1736.68
801.75	1689.57
801.93	1697.77
802.10	1714.15
802.28	1665.00
802.45	1648.61
802.63	1773.54
802.80	1722.34
802.97	1607.66
803.15	1710.05
803.32	1603.56
803.50	1699.81
803.67	1687.53
803.84	1673.19
804.02	1705.96
804.19	1644.52
804.37	1599.46
804.54	1667.05
804.71	1759.21
804.89	1646.57
805.06	1613.80
805.24	1683.43
805.41	1695.72
805.58	1685.48
805.76	1851.36
805.93	1691.62
806.10	1732.58
806.28	1716.20
806.45	1701.86
806.63	1685.48
806.80	1716.20
806.97	1687.53
807.15	1755.11
807.32	1738.73
807.49	1654.76
807.67	1632.23
807.84	1669.09
808.01	1583.08
808.19	1865.70
808.36	1773.54
808.54	1695.72
808.71	1660.90
808.88	1751.01
809.06	1748.97
809.23	1804.26
809.40	1703.91
809.58	1736.68
809.75	1720.29
809.92	1656.81
810.10	1816.55
810.27	1757.16
810.44	1673.19
810.62	1751.01
810.79	1865.70
810.96	1636.33
811.14	1662.95
811.31	1812.45
811.48	1701.86
811.66	1732.58
811.83	1734.63
812.00	1726.44
812.18	1724.39
812.35	1779.68
812.52	1673.19
812.69	1662.95
812.87	1730.53
813.04	1656.81
813.21	1621.99
813.39	1673.19
813.56	1595.37
813.73	1724.39
813.91	1630.18
814.08	1730.53
814.25	1701.86
814.42	1619.94
814.60	1611.75
814.77	1681.38
814.94	1640.42
815.12	1662.95
815.29	1777.64
815.46	1654.76
815.63	1650.66
815.81	1685.48
815.98	1710.05
816.15	1775.59
816.33	1708.01
816.50	1638.38
816.67	1712.10
816.84	1673.19
817.02	1648.61
817.19	1685.48
817.36	1755.11
817.53	1710.05
817.71	1677.29
817.88	1720.29
818.05	1769.44
818.22	1679.33
818.40	1834.98
818.57	1724.39
818.74	1755.11
818.91	1656.81
819.09	1767.40
819.26	1753.06
819.43	1699.81
819.60	1624.04
819.78	1695.72
819.95	1789.92
820.12	1689.57
820.29	1697.77
820.47	1748.97
820.64	1640.42
820.81	1603.56
820.98	1662.95
821.15	1802.21
821.33	1738.73
821.50	1640.42
821.67	1703.91
821.84	1705.96
822.02	1726.44
822.19	1761.25
822.36	1583.08
822.53	1712.10
822.70	1665.00
822.88	1660.90
823.05	1732.58
823.22	1648.61
823.39	1779.68
823.56	1646.57
823.74	1736.68
823.91	1630.18
824.08	1642.47
824.25	1714.15
824.42	1818.60
824.60	1654.76
824.77	1738.73
824.94	1675.24
825.11	1765.35
825.28	1601.51
825.45	1734.63
825.63	1738.73
825.80	1621.99
825.97	1726.44
826.14	1703.91
826.31	1714.15
826.48	1710.05
826.66	1683.43
826.83	1662.95
827.00	1648.61
827.17	1624.04
827.34	1673.19
827.51	1669.09
827.69	1712.10
827.86	1636.33
828.03	1730.53
828.20	1632.23
828.37	1617.90
828.54	1699.81
828.71	1701.86
828.89	1767.40
829.06	1738.73
829.23	1722.34
829.40	1650.66
829.57	1628.14
829.74	1763.30
829.91	1689.57
830.09	1667.05
830.26	1755.11
830.43	1738.73
830.60	1730.53
830.77	1726.44
830.94	1822.69
831.11	1726.44
831.28	1634.28
831.46	1802.21
831.63	1677.29
831.80	1787.88
831.97	1630.18
832.14	1656.81
832.31	1736.68
832.48	1761.25
832.65	1765.35
832.82	1648.61
832.99	1744.87
833.17	1630.18
833.34	1757.16
833.51	1753.06
833.68	1591.27
833.85	1742.82
834.02	1654.76
834.19	1638.38
834.36	1605.61
834.53	1665.00
834.70	1732.58
834.87	1798.12
835.04	1693.67
835.22	1632.23
835.39	1710.05
835.56	1624.04
835.73	1703.91
835.90	1742.82
836.07	1642.47
836.24	1714.15
836.41	1646.57
836.58	1589.22
836.75	1714.15
836.92	1689.57
837.09	1697.77
837.26	1689.57
837.43	1732.58
837.60	1773.54
837.77	1755.11
837.94	1763.30
838.12	1781.73
838.29	1730.53
838.46	1574.89
838.63	1587.18
838.80	1814.50
838.97	1744.87
839.14	1691.62
839.31	1695.72
839.48	1820.64
839.65	1742.82
839.82	1748.97
839.99	1730.53
840.16	1751.01
840.33	1667.05
840.50	1691.62
840.67	1638.38
840.84	1624.04
841.01	1773.54
841.18	1621.99
841.35	1617.90
841.52	1828.84
841.69	1771.49
841.86	1740.77
842.03	1734.63
842.20	1751.01
842.37	1736.68
842.54	1738.73
842.71	1673.19
842.88	1628.14
843.05	1736.68
843.22	1677.29
843.39	1777.64
843.56	1685.48
843.73	1701.86
843.90	1734.63
844.07	1699.81
844.24	1773.54
844.41	1728.49
844.58	1689.57
844.75	1665.00
844.92	1736.68
845.09	1724.39
845.26	1685.48
845.43	1730.53
845.60	1689.57
845.77	1853.41
845.94	1662.95
846.10	1687.53
846.27	1599.46
846.44	1581.03
846.61	1646.57
846.78	1699.81
846.95	1748.97
847.12	1613.80
847.29	1720.29
847.46	1695.72
847.63	1714.15
847.80	1708.01
847.97	1632.23
848.14	1765.35
848.31	1746.92
848.48	1656.81
848.65	1677.29
848.82	1628.14
848.98	1759.21
849.15	1720.29
849.32	1826.79
849.49	1724.39
849.66	1730.53
849.83	1693.67
850.00	1656.81
850.17	1687.53
850.34	1718.25
850.51	1642.47
850.68	1689.57
850.85	1880.04
851.01	1640.42
851.18	1718.25
851.35	1636.33
851.52	1710.05
851.69	1785.83
851.86	1638.38
852.03	1724.39
852.20	1796.07
852.37	1757.16
852.53	1640.42
852.70	1615.85
852.87	1673.19
853.04	1703.91
853.21	1683.43
853.38	1742.82
853.55	1714.15
853.72	1656.81
853.89	1683.43
854.05	1677.29
854.22	1726.44
854.39	1624.04
854.56	1810.40
854.73	1798.12
854.90	1683.43
855.07	1613.80
855.23	1687.53
855.40	1634.28
855.57	1708.01
855.74	1576.94
855.91	1896.42
856.08	1609.70
856.25	1673.19
856.41	1648.61
856.58	1759.21
856.75	1683.43
856.92	1578.98
857.09	1755.11
857.26	1658.85
857.42	1683.43
857.59	1804.26
857.76	1576.94
857.93	1671.14
858.10	1726.44
858.27	1652.71
858.43	1763.30
858.60	1662.95
858.77	1605.61
858.94	1677.29
859.11	1742.82
859.27	1724.39
859.44	1693.67
859.61	1738.73
859.78	1769.44
859.95	1656.81
860.12	1691.62
860.28	1789.92
860.45	1810.40
860.62	1636.33
860.79	1705.96
860.95	1642.47
861.12	1628.14
861.29	1765.35
861.46	1646.57
861.63	1673.19
861.79	1732.58
861.96	1675.24
862.13	1689.57
862.30	1724.39
862.47	1701.86
862.63	1648.61
862.80	1699.81
862.97	1656.81
863.14	1730.53
863.30	1718.25
863.47	1683.43
863.64	1853.41
863.81	1751.01
863.97	1658.85
864.14	1646.57
864.31	1654.76
864.48	1783.78
864.65	1691.62
864.81	1677.29
864.98	1740.77
865.15	1736.68
865.32	1748.97
865.48	1765.35
865.65	1779.68
865.82	1679.33
865.98	1724.39
866.15	1767.40
866.32	1673.19
866.49	1648.61
866.65	1714.15
866.82	1478.63
866.99	1628.14
867.16	1673.19
867.32	1710.05
867.49	1744.87
867.66	1662.95
867.83	1748.97
867.99	1652.71
868.16	1654.76
868.33	1574.89
868.49	1705.96
868.66	1728.49
868.83	1746.92
868.99	1624.04
869.16	1677.29
869.33	1744.87
869.50	1828.84
869.66	1736.68
869.83	1665.00
870.00	1652.71
870.16	1734.63
870.33	1656.81
870.50	1775.59
870.66	1699.81
870.83	1757.16
871.00	1695.72
871.17	1771.49
871.33	1705.96
871.50	1675.24
871.67	1691.62
871.83	1632.23
872.00	1796.07
872.17	1746.92
872.33	1812.45
872.50	1767.40
872.67	1701.86
872.83	1720.29
873.00	1716.20
873.17	1720.29
873.33	1669.09
873.50	1798.12
873.67	1628.14
873.83	1642.47
874.00	1740.77
874.16	1699.81
874.33	1730.53
874.50	1576.94
874.66	1757.16
874.83	1730.53
875.00	1804.26
875.16	1685.48
875.33	1767.40
875.50	1603.56
875.66	1726.44
875.83	1662.95
875.99	1685.48
876.16	1667.05
876.33	1613.80
876.49	1708.01
876.66	1839.08
876.83	1650.66
876.99	1615.85
877.16	1679.33
877.32	1708.01
877.49	1658.85
877.66	1689.57
877.82	1757.16
877.99	1718.25
878.15	1697.77
878.32	1748.97
878.49	1695.72
878.65	1691.62
878.82	1757.16
878.98	1619.94
879.15	1816.55
879.32	1693.67
879.48	1683.43
879.65	1722.34
879.81	1677.29
879.98	1751.01
880.15	1708.01
880.31	1712.10
880.48	1619.94
880.64	1777.64
880.81	1710.05
880.97	1837.03
881.14	1783.78
881.31	1689.57
881.47	1855.46
881.64	1689.57
881.80	1662.95
881.97	1642.47
882.13	1738.73
882.30	1652.71
882.47	1665.00
882.63	1652.71
882.80	1671.14
882.96	1638.38
883.13	1699.81
883.29	1710.05
883.46	1677.29
883.62	1748.97
883.79	1652.71
883.95	1697.77
884.12	1650.66
884.29	1720.29
884.45	1837.03
884.62	1767.40
884.78	1650.66
884.95	1746.92
885.11	1634.28
885.28	1724.39
885.44	1728.49
885.61	1740.77
885.77	1759.21
885.94	1728.49
886.10	1738.73
886.27	1755.11
886.43	1767.40
886.60	1816.55
886.76	1656.81
886.93	1650.66
887.09	1751.01
887.26	1615.85
887.42	1632.23
887.59	1712.10
887.75	1847.27
887.92	1759.21
888.08	1773.54
888.25	1755.11
888.41	1791.97
888.58	1603.56
888.74	1673.19
888.91	1587.18
>>>>>End Processed Spectral Data<<<<<
