SpectraSuite Data File
++++++++++++++++++++++++++++++++++++
Date: Mon Jun 06 15:31:37 CEST 2016
User: root
Dark Spectrum Present: No
Reference Spectrum Present: No
Number of Sampled Component Spectra: 1
Spectrometers: USB4C02835
Integration Time (usec): 100000 (USB4C02835)
Spectra Averaged: 1 (USB4C02835)
Boxcar Smoothing: 0 (USB4C02835)
Correct for Electrical Dark: No (USB4C02835)
Strobe/Lamp Enabled: No (USB4C02835)
Correct for Detector Non-linearity: No (USB4C02835)
Correct for Stray Light: No (USB4C02835)
Number of Pixels in Processed Spectrum: 3648
>>>>>Begin Processed Spectral Data<<<<<
177.47	1462.25
177.69	1462.25
177.91	1462.25
178.13	1447.91
178.36	1449.96
178.58	1689.57
178.80	1685.48
179.02	1624.04
179.24	1617.90
179.46	1697.77
179.68	1710.05
179.90	1646.57
180.13	1697.77
180.35	1628.14
180.57	1738.73
180.79	1767.40
181.01	1730.53
181.23	1742.82
181.45	1789.92
181.67	1710.05
181.90	1787.88
182.12	1617.90
182.34	1589.22
182.56	1802.21
182.78	1746.92
183.00	1761.25
183.22	1687.53
183.44	1660.90
183.66	1814.50
183.89	1761.25
184.11	1724.39
184.33	1744.87
184.55	1791.97
184.77	1708.01
184.99	1775.59
185.21	1648.61
185.43	1818.60
185.65	1789.92
185.87	1753.06
186.10	1884.13
186.32	1855.46
186.54	1699.81
186.76	1785.83
186.98	1769.44
187.20	1720.29
187.42	1724.39
187.64	1712.10
187.86	1783.78
188.08	1783.78
188.30	1714.15
188.52	1669.09
188.75	1757.16
188.97	1720.29
189.19	1722.34
189.41	1740.77
189.63	1759.21
189.85	1654.76
190.07	1652.71
190.29	1703.91
190.51	1675.24
190.73	1548.26
190.95	1826.79
191.17	1798.12
191.39	1599.46
191.61	1611.75
191.84	1685.48
192.06	1675.24
192.28	1621.99
192.50	1941.47
192.72	1746.92
192.94	1656.81
193.16	1785.83
193.38	1726.44
193.60	1746.92
193.82	1673.19
194.04	1796.07
194.26	1681.38
194.48	1740.77
194.70	1728.49
194.92	1638.38
195.14	1722.34
195.36	1673.19
195.58	1683.43
195.80	1681.38
196.02	1669.09
196.24	1714.15
196.46	1712.10
196.69	1599.46
196.91	1820.64
197.13	1662.95
197.35	1701.86
197.57	1751.01
197.79	1722.34
198.01	1740.77
198.23	1665.00
198.45	1736.68
198.67	1755.11
198.89	1720.29
199.11	1738.73
199.33	1736.68
199.55	1681.38
199.77	1648.61
199.99	1812.45
200.21	1632.23
200.43	1748.97
200.65	1677.29
200.87	1626.09
201.09	1722.34
201.31	1687.53
201.53	1722.34
201.75	1767.40
201.97	1744.87
202.19	1775.59
202.41	1732.58
202.63	1884.13
202.85	1699.81
203.07	1665.00
203.29	1693.67
203.51	1640.42
203.73	1724.39
203.95	1804.26
204.17	1734.63
204.39	1783.78
204.61	1634.28
204.83	1662.95
205.05	1738.73
205.27	1820.64
205.49	1820.64
205.71	1691.62
205.93	1669.09
206.15	1677.29
206.37	1724.39
206.59	1730.53
206.81	1667.05
207.03	1677.29
207.25	1613.80
207.47	1734.63
207.69	1742.82
207.91	1781.73
208.13	1796.07
208.34	1691.62
208.56	1665.00
208.78	1783.78
209.00	1628.14
209.22	1683.43
209.44	1607.66
209.66	1689.57
209.88	1701.86
210.10	1695.72
210.32	1687.53
210.54	1806.31
210.76	1656.81
210.98	1740.77
211.20	1656.81
211.42	1771.49
211.64	1746.92
211.86	1738.73
212.08	1796.07
212.30	1724.39
212.52	1656.81
212.74	1718.25
212.96	1753.06
213.17	1734.63
213.39	1744.87
213.61	1834.98
213.83	1734.63
214.05	1685.48
214.27	1787.88
214.49	1660.90
214.71	1665.00
214.93	1785.83
215.15	1730.53
215.37	1753.06
215.59	1634.28
215.81	1744.87
216.03	1814.50
216.24	1681.38
216.46	1697.77
216.68	1699.81
216.90	1763.30
217.12	1802.21
217.34	1724.39
217.56	1738.73
217.78	1753.06
218.00	1714.15
218.22	1679.33
218.44	1714.15
218.66	1667.05
218.87	1853.41
219.09	1705.96
219.31	1730.53
219.53	1763.30
219.75	1660.90
219.97	1679.33
220.19	1658.85
220.41	1665.00
220.63	1785.83
220.85	1763.30
221.06	1644.52
221.28	1822.69
221.50	1734.63
221.72	1728.49
221.94	1699.81
222.16	1736.68
222.38	1693.67
222.60	1755.11
222.82	1724.39
223.03	1816.55
223.25	1648.61
223.47	1794.02
223.69	1824.74
223.91	1767.40
224.13	1812.45
224.35	1714.15
224.57	1748.97
224.78	1814.50
225.00	1685.48
225.22	1669.09
225.44	1660.90
225.66	1742.82
225.88	1689.57
226.10	1767.40
226.32	1761.25
226.53	1818.60
226.75	1732.58
226.97	1710.05
227.19	1683.43
227.41	1687.53
227.63	1624.04
227.85	1662.95
228.06	1716.20
228.28	1677.29
228.50	1773.54
228.72	1673.19
228.94	1648.61
229.16	1652.71
229.37	1667.05
229.59	1677.29
229.81	1826.79
230.03	1630.18
230.25	1683.43
230.47	1660.90
230.69	1669.09
230.90	1689.57
231.12	1773.54
231.34	1791.97
231.56	1763.30
231.78	1615.85
232.00	1662.95
232.21	1673.19
232.43	1669.09
232.65	1570.79
232.87	1697.77
233.09	1697.77
233.30	1697.77
233.52	1736.68
233.74	1689.57
233.96	1634.28
234.18	1708.01
234.40	1693.67
234.61	1804.26
234.83	1576.94
235.05	1609.70
235.27	1806.31
235.49	1800.16
235.70	1751.01
235.92	1779.68
236.14	1757.16
236.36	1847.27
236.58	1632.23
236.79	1730.53
237.01	1681.38
237.23	1677.29
237.45	1820.64
237.67	1626.09
237.88	1730.53
238.10	1755.11
238.32	1619.94
238.54	1775.59
238.76	1740.77
238.97	1705.96
239.19	1783.78
239.41	1726.44
239.63	1832.93
239.85	1712.10
240.06	1720.29
240.28	1665.00
240.50	1763.30
240.72	1642.47
240.93	1736.68
241.15	1748.97
241.37	1656.81
241.59	1773.54
241.81	1751.01
242.02	1640.42
242.24	1720.29
242.46	1738.73
242.68	1671.14
242.89	1767.40
243.11	1720.29
243.33	1781.73
243.55	1712.10
243.76	1765.35
243.98	1642.47
244.20	1712.10
244.42	1757.16
244.64	1669.09
244.85	1738.73
245.07	1726.44
245.29	1746.92
245.51	1718.25
245.72	1724.39
245.94	1775.59
246.16	1708.01
246.38	1787.88
246.59	1716.20
246.81	1660.90
247.03	1671.14
247.24	1603.56
247.46	1636.33
247.68	1751.01
247.90	1787.88
248.11	1689.57
248.33	1820.64
248.55	1691.62
248.77	1828.84
248.98	1738.73
249.20	1894.37
249.42	1665.00
249.64	1744.87
249.85	1699.81
250.07	1656.81
250.29	1773.54
250.50	1712.10
250.72	1605.61
250.94	1734.63
251.16	1882.08
251.37	1843.17
251.59	1763.30
251.81	1746.92
252.02	1767.40
252.24	1697.77
252.46	1787.88
252.68	1652.71
252.89	1769.44
253.11	1591.27
253.33	1810.40
253.54	1738.73
253.76	1650.66
253.98	1640.42
254.20	1679.33
254.41	1679.33
254.63	1701.86
254.85	1667.05
255.06	1691.62
255.28	1748.97
255.50	1656.81
255.71	1642.47
255.93	1695.72
256.15	1693.67
256.36	1783.78
256.58	1632.23
256.80	1798.12
257.02	1695.72
257.23	1742.82
257.45	1732.58
257.67	1728.49
257.88	1640.42
258.10	1742.82
258.32	1734.63
258.53	1763.30
258.75	1751.01
258.97	1740.77
259.18	1710.05
259.40	1681.38
259.62	1814.50
259.83	1800.16
260.05	1701.86
260.27	2000.87
260.48	1755.11
260.70	1716.20
260.92	1673.19
261.13	1685.48
261.35	1734.63
261.57	1716.20
261.78	1646.57
262.00	1681.38
262.22	1708.01
262.43	1662.95
262.65	1722.34
262.86	1748.97
263.08	1851.36
263.30	1662.95
263.51	1613.80
263.73	1677.29
263.95	1779.68
264.16	1720.29
264.38	1665.00
264.60	1765.35
264.81	1755.11
265.03	1681.38
265.25	1730.53
265.46	1673.19
265.68	1740.77
265.89	1714.15
266.11	1697.77
266.33	1701.86
266.54	1771.49
266.76	1722.34
266.98	1738.73
267.19	1804.26
267.41	1763.30
267.62	1755.11
267.84	1589.22
268.06	1685.48
268.27	1740.77
268.49	1755.11
268.70	1775.59
268.92	1718.25
269.14	1619.94
269.35	1589.22
269.57	1759.21
269.79	1794.02
270.00	1675.24
270.22	1791.97
270.43	1708.01
270.65	1615.85
270.87	1785.83
271.08	1732.58
271.30	1736.68
271.51	1744.87
271.73	1714.15
271.95	1791.97
272.16	1738.73
272.38	1763.30
272.59	1718.25
272.81	1722.34
273.02	1753.06
273.24	1753.06
273.46	1708.01
273.67	1693.67
273.89	1681.38
274.10	1740.77
274.32	1787.88
274.54	1665.00
274.75	1736.68
274.97	1626.09
275.18	1791.97
275.40	1746.92
275.61	1667.05
275.83	1730.53
276.05	1677.29
276.26	1597.42
276.48	1722.34
276.69	1705.96
276.91	1697.77
277.12	1812.45
277.34	1820.64
277.55	1783.78
277.77	1771.49
277.99	1701.86
278.20	1632.23
278.42	1607.66
278.63	1701.86
278.85	1642.47
279.06	1705.96
279.28	1738.73
279.49	1665.00
279.71	1734.63
279.93	1695.72
280.14	1734.63
280.36	1638.38
280.57	1740.77
280.79	1773.54
281.00	1660.90
281.22	1656.81
281.43	1751.01
281.65	1656.81
281.86	1667.05
282.08	1765.35
282.29	1755.11
282.51	1619.94
282.73	1644.52
282.94	1675.24
283.16	1724.39
283.37	1853.41
283.59	1640.42
283.80	1720.29
284.02	1679.33
284.23	1761.25
284.45	1695.72
284.66	1630.18
284.88	1716.20
285.09	1703.91
285.31	1716.20
285.52	1746.92
285.74	1671.14
285.95	1757.16
286.17	1705.96
286.38	1779.68
286.60	1705.96
286.81	1685.48
287.03	1751.01
287.24	1746.92
287.46	1771.49
287.67	1699.81
287.89	1896.42
288.10	1683.43
288.32	1646.57
288.53	1830.88
288.75	1701.86
288.96	1789.92
289.18	1695.72
289.39	1746.92
289.61	1703.91
289.82	1871.84
290.04	1808.36
290.25	1681.38
290.47	1787.88
290.68	1753.06
290.90	1837.03
291.11	1665.00
291.33	1728.49
291.54	1726.44
291.76	1656.81
291.97	1654.76
292.18	1755.11
292.40	1751.01
292.61	1716.20
292.83	1871.84
293.04	1763.30
293.26	1777.64
293.47	1736.68
293.69	1669.09
293.90	1779.68
294.12	1804.26
294.33	1601.51
294.55	1665.00
294.76	1822.69
294.97	1841.12
295.19	1800.16
295.40	1783.78
295.62	1660.90
295.83	1724.39
296.05	1638.38
296.26	1773.54
296.48	1669.09
296.69	1685.48
296.90	1773.54
297.12	1755.11
297.33	1791.97
297.55	1748.97
297.76	1763.30
297.98	1734.63
298.19	1665.00
298.41	1746.92
298.62	1628.14
298.83	1724.39
299.05	1796.07
299.26	1609.70
299.48	1714.15
299.69	1699.81
299.90	1667.05
300.12	1650.66
300.33	1744.87
300.55	1673.19
300.76	1726.44
300.98	1708.01
301.19	1757.16
301.40	1757.16
301.62	1734.63
301.83	1667.05
302.05	1705.96
302.26	1722.34
302.47	1812.45
302.69	1693.67
302.90	1738.73
303.12	1648.61
303.33	1736.68
303.54	1771.49
303.76	1697.77
303.97	1677.29
304.19	1800.16
304.40	1693.67
304.61	1771.49
304.83	1775.59
305.04	1810.40
305.26	1757.16
305.47	1681.38
305.68	1695.72
305.90	1701.86
306.11	1730.53
306.33	1697.77
306.54	1638.38
306.75	1658.85
306.97	1669.09
307.18	1656.81
307.39	1693.67
307.61	1712.10
307.82	1744.87
308.04	1767.40
308.25	1673.19
308.46	1730.53
308.68	1732.58
308.89	1677.29
309.10	1761.25
309.32	1769.44
309.53	1738.73
309.74	1722.34
309.96	1730.53
310.17	1800.16
310.39	1736.68
310.60	1816.55
310.81	1730.53
311.03	1708.01
311.24	1667.05
311.45	1718.25
311.67	1849.32
311.88	1667.05
312.09	1742.82
312.31	1644.52
312.52	1701.86
312.73	1697.77
312.95	1662.95
313.16	1677.29
313.37	1779.68
313.59	1665.00
313.80	1742.82
314.01	1763.30
314.23	1712.10
314.44	1722.34
314.65	1699.81
314.87	1677.29
315.08	1636.33
315.29	1720.29
315.51	1619.94
315.72	1583.08
315.93	1787.88
316.15	1849.32
316.36	1628.14
316.57	1751.01
316.79	1714.15
317.00	1615.85
317.21	1730.53
317.43	1722.34
317.64	1746.92
317.85	1665.00
318.07	1710.05
318.28	1736.68
318.49	1781.73
318.70	1939.43
318.92	1882.08
319.13	1755.11
319.34	1861.60
319.56	1834.98
319.77	1857.51
319.98	1849.32
320.20	1814.50
320.41	1736.68
320.62	1759.21
320.83	1632.23
321.05	1822.69
321.26	1767.40
321.47	1673.19
321.69	1822.69
321.90	1628.14
322.11	1673.19
322.32	1763.30
322.54	1818.60
322.75	1705.96
322.96	1875.94
323.18	1624.04
323.39	1603.56
323.60	1757.16
323.81	1769.44
324.03	1669.09
324.24	1697.77
324.45	1751.01
324.66	1667.05
324.88	1748.97
325.09	1882.08
325.30	1716.20
325.52	1783.78
325.73	1746.92
325.94	1683.43
326.15	1722.34
326.37	1773.54
326.58	1734.63
326.79	1816.55
327.00	1642.47
327.22	1679.33
327.43	1740.77
327.64	1665.00
327.85	1779.68
328.07	1718.25
328.28	1763.30
328.49	1738.73
328.70	1675.24
328.92	1716.20
329.13	1769.44
329.34	1728.49
329.55	1896.42
329.76	1783.78
329.98	1759.21
330.19	1808.36
330.40	1689.57
330.61	1705.96
330.83	1712.10
331.04	1634.28
331.25	1832.93
331.46	1669.09
331.68	1626.09
331.89	1714.15
332.10	1710.05
332.31	1669.09
332.52	1667.05
332.74	1683.43
332.95	1609.70
333.16	1724.39
333.37	1708.01
333.58	1746.92
333.80	1732.58
334.01	1525.74
334.22	1714.15
334.43	1601.51
334.64	1679.33
334.86	1695.72
335.07	1683.43
335.28	1783.78
335.49	1669.09
335.70	1720.29
335.92	1763.30
336.13	1828.84
336.34	1800.16
336.55	1652.71
336.76	1689.57
336.98	1613.80
337.19	1730.53
337.40	1730.53
337.61	1824.74
337.82	1691.62
338.04	1765.35
338.25	1576.94
338.46	1728.49
338.67	1710.05
338.88	1695.72
339.09	1634.28
339.31	1798.12
339.52	1599.46
339.73	1669.09
339.94	1722.34
340.15	1746.92
340.36	1716.20
340.58	1697.77
340.79	1650.66
341.00	1685.48
341.21	1603.56
341.42	1763.30
341.63	1701.86
341.85	1771.49
342.06	1732.58
342.27	1615.85
342.48	1837.03
342.69	1601.51
342.90	1734.63
343.12	1789.92
343.33	1611.75
343.54	1736.68
343.75	1841.12
343.96	1744.87
344.17	1667.05
344.38	1697.77
344.60	1656.81
344.81	1658.85
345.02	1693.67
345.23	1744.87
345.44	1794.02
345.65	1724.39
345.86	1796.07
346.07	1720.29
346.29	1675.24
346.50	1705.96
346.71	1771.49
346.92	1701.86
347.13	1855.46
347.34	1701.86
347.55	1730.53
347.76	1705.96
347.98	1554.41
348.19	1679.33
348.40	1755.11
348.61	1656.81
348.82	1822.69
349.03	1742.82
349.24	1675.24
349.45	1830.88
349.66	1648.61
349.88	1783.78
350.09	1665.00
350.30	1755.11
350.51	1757.16
350.72	1660.90
350.93	1828.84
351.14	1703.91
351.35	1710.05
351.56	1742.82
351.77	1697.77
351.99	1773.54
352.20	1804.26
352.41	1753.06
352.62	1615.85
352.83	1683.43
353.04	1687.53
353.25	1624.04
353.46	1818.60
353.67	1699.81
353.88	1607.66
354.09	1734.63
354.30	1716.20
354.52	1671.14
354.73	1732.58
354.94	1710.05
355.15	1724.39
355.36	1789.92
355.57	1669.09
355.78	1722.34
355.99	1675.24
356.20	1671.14
356.41	1763.30
356.62	1665.00
356.83	1777.64
357.04	1781.73
357.25	1646.57
357.46	1730.53
357.68	1669.09
357.89	1730.53
358.10	1787.88
358.31	1677.29
358.52	1714.15
358.73	1697.77
358.94	1662.95
359.15	1724.39
359.36	1779.68
359.57	1679.33
359.78	1685.48
359.99	1697.77
360.20	1697.77
360.41	1671.14
360.62	1701.86
360.83	1759.21
361.04	1722.34
361.25	1703.91
361.46	1761.25
361.67	1761.25
361.88	1738.73
362.09	1712.10
362.30	1781.73
362.51	1734.63
362.72	1775.59
362.93	1818.60
363.14	1767.40
363.35	1650.66
363.56	1650.66
363.78	1728.49
363.99	1753.06
364.20	1667.05
364.41	1730.53
364.62	1875.94
364.83	1685.48
365.04	1718.25
365.25	1681.38
365.46	1808.36
365.67	1636.33
365.88	1669.09
366.09	1671.14
366.30	1665.00
366.51	1730.53
366.72	1654.76
366.93	1693.67
367.14	1775.59
367.35	1730.53
367.56	1665.00
367.77	1779.68
367.98	1771.49
368.18	1697.77
368.39	1742.82
368.60	1654.76
368.81	1718.25
369.02	1720.29
369.23	1671.14
369.44	1691.62
369.65	1648.61
369.86	1726.44
370.07	1771.49
370.28	1611.75
370.49	1798.12
370.70	1724.39
370.91	1703.91
371.12	1677.29
371.33	1740.77
371.54	1705.96
371.75	1818.60
371.96	1591.27
372.17	1699.81
372.38	1615.85
372.59	1705.96
372.80	1736.68
373.01	1744.87
373.22	1730.53
373.43	1683.43
373.64	1771.49
373.85	1853.41
374.06	1822.69
374.26	1771.49
374.47	1730.53
374.68	1824.74
374.89	1720.29
375.10	1693.67
375.31	1812.45
375.52	1720.29
375.73	1746.92
375.94	1671.14
376.15	1865.70
376.36	1669.09
376.57	1669.09
376.78	1665.00
376.99	1720.29
377.20	1812.45
377.40	1767.40
377.61	1871.84
377.82	1642.47
378.03	1710.05
378.24	1714.15
378.45	1728.49
378.66	1708.01
378.87	1638.38
379.08	1638.38
379.29	1720.29
379.50	1757.16
379.71	1753.06
379.91	1781.73
380.12	1736.68
380.33	1718.25
380.54	1691.62
380.75	1699.81
380.96	1736.68
381.17	1705.96
381.38	1693.67
381.59	1763.30
381.80	1773.54
382.00	1939.43
382.21	1777.64
382.42	1779.68
382.63	1875.94
382.84	1796.07
383.05	1757.16
383.26	1740.77
383.47	1724.39
383.68	1804.26
383.88	1783.78
384.09	1726.44
384.30	1814.50
384.51	1695.72
384.72	1638.38
384.93	1689.57
385.14	1728.49
385.35	1716.20
385.55	1597.42
385.76	1783.78
385.97	1658.85
386.18	1697.77
386.39	1716.20
386.60	1824.74
386.81	1669.09
387.02	1658.85
387.22	1662.95
387.43	1746.92
387.64	1716.20
387.85	1894.37
388.06	2193.37
388.27	4149.18
388.48	6580.12
388.68	8017.80
388.89	9426.80
389.10	9789.29
389.31	8277.89
389.52	7415.69
389.73	6623.13
389.93	6111.14
390.14	5681.07
390.35	5126.07
390.56	4446.14
390.77	3872.71
390.98	2918.36
391.18	2422.75
391.39	2043.87
391.60	1837.03
391.81	1808.36
392.02	1732.58
392.23	1904.61
392.43	1865.70
392.64	1877.99
392.85	1730.53
393.06	1755.11
393.27	1671.14
393.47	1646.57
393.68	1820.64
393.89	1734.63
394.10	1783.78
394.31	1693.67
394.52	1593.32
394.72	1648.61
394.93	1832.93
395.14	1634.28
395.35	1808.36
395.56	1621.99
395.76	1726.44
395.97	1759.21
396.18	1845.22
396.39	1832.93
396.60	2029.54
396.80	1959.91
397.01	1867.75
397.22	1740.77
397.43	1808.36
397.64	1746.92
397.84	1882.08
398.05	1861.60
398.26	1705.96
398.47	1810.40
398.67	1730.53
398.88	1718.25
399.09	1787.88
399.30	1728.49
399.51	1830.88
399.71	1599.46
399.92	1708.01
400.13	1781.73
400.34	1742.82
400.54	1726.44
400.75	1810.40
400.96	1689.57
401.17	1775.59
401.37	1662.95
401.58	1708.01
401.79	1744.87
402.00	1923.04
402.21	2007.01
402.41	1918.95
402.62	1994.72
402.83	1959.91
403.04	1976.29
403.24	2023.39
403.45	1783.78
403.66	1923.04
403.87	1828.84
404.07	1867.75
404.28	1896.42
404.49	1873.89
404.70	1728.49
404.90	1757.16
405.11	1769.44
405.32	1714.15
405.52	1771.49
405.73	1648.61
405.94	1665.00
406.15	1718.25
406.35	1732.58
406.56	1783.78
406.77	1740.77
406.98	1716.20
407.18	1708.01
407.39	1779.68
407.60	1697.77
407.80	1757.16
408.01	1628.14
408.22	1712.10
408.43	1726.44
408.63	1728.49
408.84	1687.53
409.05	1816.55
409.25	1714.15
409.46	1638.38
409.67	1648.61
409.88	1742.82
410.08	1710.05
410.29	1697.77
410.50	1724.39
410.70	1714.15
410.91	1648.61
411.12	1687.53
411.32	1726.44
411.53	1687.53
411.74	1806.31
411.95	1755.11
412.15	1699.81
412.36	1789.92
412.57	1738.73
412.77	1837.03
412.98	1726.44
413.19	1730.53
413.39	1748.97
413.60	1763.30
413.81	1894.37
414.01	1689.57
414.22	1755.11
414.43	1812.45
414.63	1617.90
414.84	1736.68
415.05	1763.30
415.25	1718.25
415.46	1710.05
415.67	1701.86
415.87	1669.09
416.08	1656.81
416.29	1703.91
416.49	1753.06
416.70	1818.60
416.91	1675.24
417.11	1732.58
417.32	1798.12
417.53	1806.31
417.73	1789.92
417.94	1712.10
418.15	1697.77
418.35	1708.01
418.56	1724.39
418.77	1826.79
418.97	1710.05
419.18	1744.87
419.38	1607.66
419.59	1714.15
419.80	1787.88
420.00	1708.01
420.21	1685.48
420.42	1748.97
420.62	1667.05
420.83	1697.77
421.04	1726.44
421.24	1693.67
421.45	1746.92
421.65	1779.68
421.86	1759.21
422.07	1751.01
422.27	1773.54
422.48	1736.68
422.69	1667.05
422.89	1736.68
423.10	1697.77
423.30	1654.76
423.51	1769.44
423.72	1734.63
423.92	1665.00
424.13	1660.90
424.33	1679.33
424.54	1728.49
424.75	1785.83
424.95	1841.12
425.16	1701.86
425.36	1742.82
425.57	1800.16
425.78	1798.12
425.98	1894.37
426.19	1689.57
426.39	1699.81
426.60	1689.57
426.81	1757.16
427.01	1695.72
427.22	1703.91
427.42	1572.84
427.63	1708.01
427.83	1689.57
428.04	1740.77
428.25	1769.44
428.45	1789.92
428.66	1691.62
428.86	1693.67
429.07	1673.19
429.28	1734.63
429.48	1699.81
429.69	1650.66
429.89	1843.17
430.10	1677.29
430.30	1812.45
430.51	1783.78
430.71	1683.43
430.92	1710.05
431.13	1767.40
431.33	1783.78
431.54	1800.16
431.74	1755.11
431.95	1843.17
432.15	1667.05
432.36	1687.53
432.56	1771.49
432.77	1779.68
432.98	1853.41
433.18	1701.86
433.39	1687.53
433.59	1640.42
433.80	1798.12
434.00	1853.41
434.21	1695.72
434.41	1658.85
434.62	1779.68
434.82	1662.95
435.03	1675.24
435.23	1767.40
435.44	1554.41
435.64	1693.67
435.85	1728.49
436.06	1734.63
436.26	1716.20
436.47	1748.97
436.67	1699.81
436.88	1687.53
437.08	1828.84
437.29	1843.17
437.49	1751.01
437.70	1845.22
437.90	1660.90
438.11	1888.23
438.31	1804.26
438.52	1888.23
438.72	1804.26
438.93	1990.63
439.13	1763.30
439.34	1894.37
439.54	1757.16
439.75	1814.50
439.95	1857.51
440.16	1751.01
440.36	1787.88
440.57	1751.01
440.77	1755.11
440.98	1755.11
441.18	1798.12
441.39	1660.90
441.59	1738.73
441.80	1910.75
442.00	1740.77
442.21	1806.31
442.41	1726.44
442.62	1753.06
442.82	1687.53
443.02	1679.33
443.23	1806.31
443.43	1769.44
443.64	1837.03
443.84	1636.33
444.05	1806.31
444.25	1746.92
444.46	1738.73
444.66	1705.96
444.87	1828.84
445.07	1624.04
445.28	1759.21
445.48	1867.75
445.69	1791.97
445.89	1877.99
446.09	1728.49
446.30	2009.06
446.50	2572.25
446.71	3694.54
446.91	4292.54
447.12	4589.50
447.32	4775.86
447.53	4378.56
447.73	3821.51
447.93	3551.18
448.14	3301.33
448.34	3213.26
448.55	2901.97
448.75	2867.16
448.96	2623.45
449.16	2459.61
449.36	2201.57
449.57	1986.53
449.77	1953.76
449.98	1757.16
450.18	1742.82
450.39	1806.31
450.59	1736.68
450.79	1701.86
451.00	1773.54
451.20	1763.30
451.41	1759.21
451.61	1761.25
451.81	1716.20
452.02	1742.82
452.22	1669.09
452.43	1755.11
452.63	1701.86
452.84	1712.10
453.04	1697.77
453.24	1779.68
453.45	1753.06
453.65	1748.97
453.86	1742.82
454.06	1798.12
454.26	1763.30
454.47	1755.11
454.67	1783.78
454.87	1765.35
455.08	1738.73
455.28	1843.17
455.49	1740.77
455.69	1761.25
455.89	1841.12
456.10	1796.07
456.30	1785.83
456.51	1822.69
456.71	1757.16
456.91	1742.82
457.12	1767.40
457.32	1748.97
457.52	1693.67
457.73	1771.49
457.93	1808.36
458.14	1701.86
458.34	1658.85
458.54	1730.53
458.75	1742.82
458.95	1716.20
459.15	1767.40
459.36	1746.92
459.56	1740.77
459.76	1841.12
459.97	1751.01
460.17	1724.39
460.37	1732.58
460.58	1777.64
460.78	1800.16
460.99	1705.96
461.19	1759.21
461.39	1710.05
461.60	1665.00
461.80	1724.39
462.00	1738.73
462.21	1636.33
462.41	1687.53
462.61	1646.57
462.82	1624.04
463.02	1816.55
463.22	1738.73
463.43	1892.32
463.63	1738.73
463.83	1798.12
464.04	1730.53
464.24	1775.59
464.44	1714.15
464.64	1730.53
464.85	1783.78
465.05	1748.97
465.25	1738.73
465.46	1746.92
465.66	1789.92
465.86	1720.29
466.07	1785.83
466.27	1796.07
466.47	1701.86
466.68	1669.09
466.88	1816.55
467.08	1822.69
467.29	1753.06
467.49	1730.53
467.69	1677.29
467.89	1771.49
468.10	1720.29
468.30	1740.77
468.50	1791.97
468.71	1808.36
468.91	1689.57
469.11	1800.16
469.31	1777.64
469.52	1609.70
469.72	1849.32
469.92	1826.79
470.13	1789.92
470.33	1679.33
470.53	1847.27
470.73	2086.88
470.94	2195.42
471.14	2373.60
471.34	2582.49
471.54	2383.84
471.75	2236.38
471.95	2152.42
472.15	2066.40
472.36	2107.36
472.56	2023.39
472.76	2070.50
472.96	2027.49
473.17	1933.28
473.37	1931.23
473.57	1800.16
473.77	1748.97
473.98	1757.16
474.18	1617.90
474.38	1968.10
474.58	1710.05
474.79	1718.25
474.99	1710.05
475.19	1712.10
475.39	1759.21
475.60	1769.44
475.80	1783.78
476.00	1814.50
476.20	1722.34
476.41	1769.44
476.61	1804.26
476.81	1734.63
477.01	1718.25
477.21	1820.64
477.42	1740.77
477.62	1660.90
477.82	1824.74
478.02	1685.48
478.23	1791.97
478.43	1681.38
478.63	1665.00
478.83	1720.29
479.03	1665.00
479.24	1802.21
479.44	1785.83
479.64	1710.05
479.84	1658.85
480.04	1669.09
480.25	1798.12
480.45	1652.71
480.65	1712.10
480.85	1810.40
481.06	1722.34
481.26	1798.12
481.46	1761.25
481.66	1695.72
481.86	1628.14
482.06	1742.82
482.27	1781.73
482.47	1624.04
482.67	1822.69
482.87	1644.52
483.07	1748.97
483.28	1615.85
483.48	1646.57
483.68	1681.38
483.88	1708.01
484.08	1636.33
484.29	1726.44
484.49	1726.44
484.69	1699.81
484.89	1787.88
485.09	1814.50
485.29	1734.63
485.50	1710.05
485.70	1716.20
485.90	1783.78
486.10	1779.68
486.30	1763.30
486.50	1828.84
486.71	1757.16
486.91	1787.88
487.11	1777.64
487.31	1689.57
487.51	1789.92
487.71	1638.38
487.91	1626.09
488.12	1710.05
488.32	1619.94
488.52	1757.16
488.72	1615.85
488.92	1785.83
489.12	1781.73
489.32	1832.93
489.53	1783.78
489.73	1617.90
489.93	1806.31
490.13	1699.81
490.33	1665.00
490.53	1726.44
490.73	1777.64
490.94	1716.20
491.14	1755.11
491.34	1816.55
491.54	2103.26
491.74	2574.30
491.94	2887.64
492.14	3119.06
492.34	2901.97
492.54	2803.67
492.75	2465.75
492.95	2459.61
493.15	2373.60
493.35	2277.34
493.55	2248.67
493.75	2142.18
493.95	2156.51
494.15	1974.24
494.35	1880.04
494.56	1789.92
494.76	1765.35
494.96	1787.88
495.16	1789.92
495.36	1783.78
495.56	1800.16
495.76	1855.46
495.96	1687.53
496.16	1728.49
496.36	1816.55
496.56	1746.92
496.77	1699.81
496.97	1759.21
497.17	1837.03
497.37	1742.82
497.57	1820.64
497.77	1746.92
497.97	1742.82
498.17	1794.02
498.37	1699.81
498.57	1828.84
498.77	1724.39
498.97	1779.68
499.17	1853.41
499.38	1769.44
499.58	1806.31
499.78	1802.21
499.98	1888.23
500.18	1757.16
500.38	1722.34
500.58	1980.39
500.78	2478.04
500.98	4511.68
501.18	5672.87
501.38	6743.96
501.58	7032.72
501.78	6541.21
501.98	5423.02
502.18	4995.00
502.38	4378.56
502.58	4143.04
502.78	3708.87
502.98	3583.95
503.18	3418.06
503.38	3094.48
503.59	2852.82
503.79	2711.51
503.99	2439.13
504.19	2387.93
504.39	2263.01
504.59	2140.13
504.79	2062.30
504.99	2041.82
505.19	1949.67
505.39	1918.95
505.59	2025.44
505.79	1937.38
505.99	1812.45
506.19	1830.88
506.39	1837.03
506.59	1722.34
506.79	1705.96
506.99	1843.17
507.19	1773.54
507.39	1810.40
507.59	1656.81
507.79	1714.15
507.99	1652.71
508.19	1773.54
508.39	1697.77
508.59	1740.77
508.79	1853.41
508.99	1871.84
509.19	1691.62
509.39	1724.39
509.59	1667.05
509.79	1703.91
509.99	1751.01
510.19	1814.50
510.39	1773.54
510.59	1767.40
510.79	1697.77
510.99	1730.53
511.19	1783.78
511.39	1857.51
511.59	1769.44
511.79	1914.85
511.99	1765.35
512.19	1826.79
512.38	1744.87
512.58	1753.06
512.78	1744.87
512.98	1814.50
513.18	1802.21
513.38	1665.00
513.58	1761.25
513.78	1675.24
513.98	1665.00
514.18	1771.49
514.38	1693.67
514.58	1865.70
514.78	1679.33
514.98	1724.39
515.18	1687.53
515.38	1693.67
515.58	1802.21
515.78	1734.63
515.98	1732.58
516.18	1802.21
516.38	1771.49
516.57	1673.19
516.77	1712.10
516.97	1828.84
517.17	1699.81
517.37	1642.47
517.57	1871.84
517.77	1746.92
517.97	1708.01
518.17	1785.83
518.37	1648.61
518.57	1753.06
518.77	1695.72
518.97	1681.38
519.16	1843.17
519.36	1779.68
519.56	1665.00
519.76	1744.87
519.96	1705.96
520.16	1845.22
520.36	1640.42
520.56	1841.12
520.76	1728.49
520.96	1705.96
521.16	1789.92
521.35	1806.31
521.55	1841.12
521.75	1697.77
521.95	1708.01
522.15	1591.27
522.35	1671.14
522.55	1732.58
522.75	1824.74
522.95	1703.91
523.14	1699.81
523.34	1742.82
523.54	1722.34
523.74	1791.97
523.94	1748.97
524.14	1662.95
524.34	1738.73
524.54	1759.21
524.73	1767.40
524.93	1759.21
525.13	1759.21
525.33	1626.09
525.53	1894.37
525.73	1787.88
525.93	1738.73
526.13	1755.11
526.32	1683.43
526.52	1740.77
526.72	1755.11
526.92	1708.01
527.12	1658.85
527.32	1681.38
527.52	1748.97
527.71	1794.02
527.91	1755.11
528.11	1673.19
528.31	1757.16
528.51	1712.10
528.71	1796.07
528.90	1712.10
529.10	1738.73
529.30	1781.73
529.50	1634.28
529.70	1687.53
529.90	1748.97
530.09	1748.97
530.29	1681.38
530.49	1679.33
530.69	1804.26
530.89	1822.69
531.09	1779.68
531.28	1681.38
531.48	1845.22
531.68	1755.11
531.88	1761.25
532.08	1830.88
532.28	1673.19
532.47	1824.74
532.67	1775.59
532.87	1853.41
533.07	1669.09
533.27	1824.74
533.46	1802.21
533.66	1781.73
533.86	1732.58
534.06	1748.97
534.26	1826.79
534.45	1720.29
534.65	1834.98
534.85	1724.39
535.05	1708.01
535.25	1777.64
535.44	1677.29
535.64	1771.49
535.84	1773.54
536.04	1751.01
536.24	1624.04
536.43	1716.20
536.63	1705.96
536.83	1705.96
537.03	1826.79
537.22	1630.18
537.42	1693.67
537.62	1738.73
537.82	1710.05
538.02	1802.21
538.21	1845.22
538.41	1906.66
538.61	1851.36
538.81	1708.01
539.00	1734.63
539.20	1679.33
539.40	1685.48
539.60	1738.73
539.79	1804.26
539.99	1753.06
540.19	1716.20
540.39	1816.55
540.58	1808.36
540.78	1810.40
540.98	1769.44
541.18	1789.92
541.37	1775.59
541.57	1658.85
541.77	1748.97
541.97	1724.39
542.16	1718.25
542.36	1755.11
542.56	1718.25
542.76	1900.52
542.95	1779.68
543.15	1779.68
543.35	1783.78
543.54	1726.44
543.74	1654.76
543.94	1771.49
544.14	1757.16
544.33	1800.16
544.53	1746.92
544.73	1738.73
544.93	1705.96
545.12	1769.44
545.32	1787.88
545.52	1708.01
545.71	1675.24
545.91	1746.92
546.11	1810.40
546.30	1673.19
546.50	1802.21
546.70	1710.05
546.90	1775.59
547.09	1646.57
547.29	1691.62
547.49	1736.68
547.68	1783.78
547.88	1689.57
548.08	1736.68
548.27	2172.89
548.47	1656.81
548.67	1751.01
548.87	1744.87
549.06	1665.00
549.26	1779.68
549.46	1845.22
549.65	1705.96
549.85	1730.53
550.05	1802.21
550.24	1671.14
550.44	1796.07
550.64	1810.40
550.83	1759.21
551.03	1761.25
551.23	1763.30
551.42	1810.40
551.62	1783.78
551.82	1781.73
552.01	1716.20
552.21	1935.33
552.41	1824.74
552.60	1861.60
552.80	1718.25
553.00	1771.49
553.19	1742.82
553.39	1863.65
553.59	1683.43
553.78	1730.53
553.98	1755.11
554.17	1652.71
554.37	1687.53
554.57	1748.97
554.76	1665.00
554.96	1712.10
555.16	1724.39
555.35	1677.29
555.55	1705.96
555.75	1744.87
555.94	1824.74
556.14	1705.96
556.33	1773.54
556.53	1669.09
556.73	1796.07
556.92	1822.69
557.12	1753.06
557.32	1796.07
557.51	1875.94
557.71	1783.78
557.90	1877.99
558.10	1812.45
558.30	1767.40
558.49	1740.77
558.69	1798.12
558.88	1708.01
559.08	1769.44
559.28	1744.87
559.47	1738.73
559.67	1779.68
559.86	1816.55
560.06	1748.97
560.26	1761.25
560.45	1771.49
560.65	1738.73
560.84	1857.51
561.04	1765.35
561.24	1775.59
561.43	1722.34
561.63	1861.60
561.82	1757.16
562.02	1783.78
562.22	1755.11
562.41	1673.19
562.61	1748.97
562.80	1626.09
563.00	1896.42
563.19	1789.92
563.39	1769.44
563.59	1757.16
563.78	1646.57
563.98	1685.48
564.17	1718.25
564.37	1624.04
564.56	1705.96
564.76	1755.11
564.96	1869.80
565.15	1720.29
565.35	1849.32
565.54	1734.63
565.74	1755.11
565.93	1746.92
566.13	1812.45
566.32	1701.86
566.52	1738.73
566.71	1701.86
566.91	1798.12
567.11	1730.53
567.30	1722.34
567.50	1832.93
567.69	1734.63
567.89	1718.25
568.08	1710.05
568.28	1751.01
568.47	1689.57
568.67	1763.30
568.86	1734.63
569.06	1730.53
569.25	1736.68
569.45	1679.33
569.64	1656.81
569.84	1691.62
570.04	1740.77
570.23	1691.62
570.43	1751.01
570.62	1697.77
570.82	1839.08
571.01	1636.33
571.21	1667.05
571.40	1679.33
571.60	1814.50
571.79	1783.78
571.99	1724.39
572.18	1748.97
572.38	1779.68
572.57	1748.97
572.77	1808.36
572.96	1865.70
573.16	1742.82
573.35	1771.49
573.55	1781.73
573.74	1796.07
573.94	1771.49
574.13	1748.97
574.33	1746.92
574.52	1781.73
574.71	1718.25
574.91	1777.64
575.10	1671.14
575.30	1626.09
575.49	1677.29
575.69	1753.06
575.88	1808.36
576.08	1746.92
576.27	1822.69
576.47	1785.83
576.66	1943.52
576.86	1824.74
577.05	1826.79
577.25	1824.74
577.44	1869.80
577.64	1679.33
577.83	1779.68
578.02	1767.40
578.22	1861.60
578.41	1787.88
578.61	1744.87
578.80	1669.09
579.00	1820.64
579.19	1787.88
579.39	1765.35
579.58	1720.29
579.77	1775.59
579.97	1759.21
580.16	1822.69
580.36	1837.03
580.55	1908.71
580.75	1777.64
580.94	1746.92
581.13	1908.71
581.33	1890.28
581.52	1728.49
581.72	1869.80
581.91	1820.64
582.11	1689.57
582.30	1796.07
582.49	1761.25
582.69	1822.69
582.88	1808.36
583.08	1679.33
583.27	1810.40
583.47	1839.08
583.66	1718.25
583.85	1712.10
584.05	1773.54
584.24	1695.72
584.44	1783.78
584.63	1828.84
584.82	1898.47
585.02	1826.79
585.21	1785.83
585.41	1847.27
585.60	1818.60
585.79	1910.75
585.99	1882.08
586.18	1912.80
586.37	2215.90
586.57	3475.40
586.76	9766.76
586.96	24080.02
587.15	33875.45
587.34	39503.27
587.54	41661.83
587.73	35462.63
587.93	25681.53
588.12	20936.38
588.31	17905.39
588.51	15904.53
588.70	14911.26
588.89	14010.15
589.09	12189.51
589.28	10768.22
589.47	9138.04
589.67	7739.27
589.86	6236.06
590.06	4732.86
590.25	3770.31
590.44	3078.10
590.64	2578.39
590.83	2265.05
591.02	2121.70
591.22	1884.13
591.41	1888.23
591.60	1759.21
591.80	1894.37
591.99	1763.30
592.18	1812.45
592.38	1832.93
592.57	1730.53
592.76	1757.16
592.96	1697.77
593.15	1796.07
593.34	1892.32
593.54	1798.12
593.73	1830.88
593.92	1806.31
594.12	1787.88
594.31	1779.68
594.50	1853.41
594.70	1886.18
594.89	2004.96
595.08	1757.16
595.28	1796.07
595.47	1937.38
595.66	1837.03
595.86	1636.33
596.05	1736.68
596.24	1789.92
596.43	1779.68
596.63	1855.46
596.82	1738.73
597.01	1751.01
597.21	1865.70
597.40	1736.68
597.59	1757.16
597.79	1757.16
597.98	1837.03
598.17	1720.29
598.36	1828.84
598.56	1722.34
598.75	1767.40
598.94	1748.97
599.14	1763.30
599.33	1742.82
599.52	1798.12
599.71	1765.35
599.91	1783.78
600.10	1851.36
600.29	1722.34
600.48	1820.64
600.68	1736.68
600.87	1761.25
601.06	1714.15
601.26	1722.34
601.45	1757.16
601.64	1677.29
601.83	1828.84
602.03	1708.01
602.22	1693.67
602.41	1804.26
602.60	1845.22
602.80	1845.22
602.99	1730.53
603.18	1683.43
603.37	1765.35
603.57	1710.05
603.76	1841.12
603.95	1773.54
604.14	1677.29
604.34	1736.68
604.53	1828.84
604.72	1746.92
604.91	1785.83
605.10	1759.21
605.30	1751.01
605.49	1884.13
605.68	1796.07
605.87	1822.69
606.07	1804.26
606.26	1759.21
606.45	1761.25
606.64	1800.16
606.84	1714.15
607.03	1804.26
607.22	1783.78
607.41	1714.15
607.60	1687.53
607.80	1814.50
607.99	1671.14
608.18	1701.86
608.37	1769.44
608.56	1693.67
608.76	1802.21
608.95	1851.36
609.14	1757.16
609.33	1746.92
609.52	1808.36
609.72	1730.53
609.91	1744.87
610.10	1775.59
610.29	1808.36
610.48	1798.12
610.68	1673.19
610.87	1718.25
611.06	1738.73
611.25	1830.88
611.44	1810.40
611.63	1773.54
611.83	1828.84
612.02	1648.61
612.21	1849.32
612.40	1648.61
612.59	1621.99
612.79	1648.61
612.98	1783.78
613.17	1740.77
613.36	1767.40
613.55	1804.26
613.74	1714.15
613.93	1732.58
614.13	1828.84
614.32	1738.73
614.51	1806.31
614.70	1744.87
614.89	1679.33
615.08	1734.63
615.28	2070.50
615.47	1646.57
615.66	1732.58
615.85	1718.25
616.04	1822.69
616.23	1798.12
616.42	1689.57
616.62	1777.64
616.81	1781.73
617.00	1699.81
617.19	1775.59
617.38	1710.05
617.57	1730.53
617.76	1804.26
617.95	1748.97
618.15	1769.44
618.34	1863.65
618.53	1628.14
618.72	1732.58
618.91	1783.78
619.10	1871.84
619.29	1781.73
619.48	1685.48
619.68	1683.43
619.87	1781.73
620.06	1654.76
620.25	1820.64
620.44	1693.67
620.63	1757.16
620.82	1685.48
621.01	1757.16
621.20	1716.20
621.39	1796.07
621.59	1755.11
621.78	1691.62
621.97	1787.88
622.16	1802.21
622.35	1798.12
622.54	1773.54
622.73	1837.03
622.92	1656.81
623.11	1814.50
623.30	1726.44
623.49	1779.68
623.68	1812.45
623.88	1777.64
624.07	1697.77
624.26	1744.87
624.45	1746.92
624.64	1716.20
624.83	1714.15
625.02	1753.06
625.21	1718.25
625.40	1714.15
625.59	1841.12
625.78	1771.49
625.97	1787.88
626.16	1814.50
626.35	1767.40
626.54	1667.05
626.74	1843.17
626.93	1740.77
627.12	1726.44
627.31	1751.01
627.50	1816.55
627.69	1812.45
627.88	1660.90
628.07	1691.62
628.26	1683.43
628.45	1759.21
628.64	1665.00
628.83	1767.40
629.02	1624.04
629.21	1734.63
629.40	1800.16
629.59	1685.48
629.78	1730.53
629.97	1710.05
630.16	1679.33
630.35	1781.73
630.54	1609.70
630.73	1642.47
630.92	1769.44
631.11	1753.06
631.30	1673.19
631.49	1763.30
631.68	1767.40
631.87	1767.40
632.06	1687.53
632.25	1935.33
632.44	1748.97
632.63	1771.49
632.82	1697.77
633.01	1763.30
633.20	1761.25
633.39	1744.87
633.58	1708.01
633.77	1712.10
633.96	1744.87
634.15	1775.59
634.34	1796.07
634.53	1726.44
634.72	1703.91
634.91	1656.81
635.10	1714.15
635.29	1738.73
635.48	1726.44
635.67	1767.40
635.86	1685.48
636.05	1802.21
636.24	1757.16
636.43	1785.83
636.62	1794.02
636.81	1550.31
637.00	1722.34
637.19	1753.06
637.38	1746.92
637.57	1732.58
637.76	1669.09
637.95	1726.44
638.14	1671.14
638.33	1722.34
638.52	1740.77
638.71	1671.14
638.89	1601.51
639.08	1828.84
639.27	1771.49
639.46	1617.90
639.65	1816.55
639.84	1767.40
640.03	1845.22
640.22	1761.25
640.41	1847.27
640.60	1689.57
640.79	1740.77
640.98	1675.24
641.17	1765.35
641.36	1705.96
641.55	1705.96
641.74	1617.90
641.92	1695.72
642.11	1634.28
642.30	1693.67
642.49	1714.15
642.68	1738.73
642.87	1705.96
643.06	1763.30
643.25	1679.33
643.44	1665.00
643.63	1796.07
643.82	1753.06
644.00	1712.10
644.19	1689.57
644.38	1621.99
644.57	1755.11
644.76	1738.73
644.95	1710.05
645.14	1734.63
645.33	1714.15
645.52	1763.30
645.71	1624.04
645.89	1716.20
646.08	1763.30
646.27	1677.29
646.46	1900.52
646.65	1656.81
646.84	1742.82
647.03	1720.29
647.22	1757.16
647.40	1757.16
647.59	1716.20
647.78	1634.28
647.97	1693.67
648.16	1646.57
648.35	1839.08
648.54	1740.77
648.73	1722.34
648.91	1843.17
649.10	1658.85
649.29	1667.05
649.48	1783.78
649.67	1742.82
649.86	1708.01
650.05	1716.20
650.23	1781.73
650.42	1589.22
650.61	1738.73
650.80	1681.38
650.99	1871.84
651.18	1755.11
651.36	1791.97
651.55	1683.43
651.74	1794.02
651.93	1638.38
652.12	1660.90
652.31	1687.53
652.49	1804.26
652.68	1726.44
652.87	1753.06
653.06	1738.73
653.25	1765.35
653.44	1730.53
653.62	1849.32
653.81	1705.96
654.00	1732.58
654.19	1814.50
654.38	1900.52
654.56	1761.25
654.75	1667.05
654.94	1837.03
655.13	1708.01
655.32	1775.59
655.51	1834.98
655.69	1818.60
655.88	1701.86
656.07	1675.24
656.26	1787.88
656.45	1646.57
656.63	1665.00
656.82	1699.81
657.01	1767.40
657.20	1648.61
657.38	1873.89
657.57	1665.00
657.76	1632.23
657.95	1837.03
658.14	1779.68
658.32	1673.19
658.51	1693.67
658.70	1779.68
658.89	1773.54
659.08	1701.86
659.26	1744.87
659.45	1708.01
659.64	1769.44
659.83	1685.48
660.01	1865.70
660.20	1609.70
660.39	1843.17
660.58	1587.18
660.76	1675.24
660.95	1654.76
661.14	1740.77
661.33	1652.71
661.51	1724.39
661.70	1736.68
661.89	1800.16
662.08	1714.15
662.26	1644.52
662.45	1636.33
662.64	1828.84
662.83	1802.21
663.01	1681.38
663.20	1761.25
663.39	1804.26
663.58	1708.01
663.76	1677.29
663.95	1755.11
664.14	1722.34
664.32	1642.47
664.51	1648.61
664.70	1685.48
664.89	1769.44
665.07	1726.44
665.26	1906.66
665.45	1650.66
665.64	1765.35
665.82	1742.82
666.01	1810.40
666.20	1638.38
666.38	1769.44
666.57	1859.56
666.76	2295.77
666.95	4495.29
667.13	10485.60
667.32	14974.75
667.51	17338.10
667.69	18738.91
667.88	17338.10
668.07	11972.43
668.25	9191.28
668.44	7911.30
668.63	7276.43
668.81	6887.32
669.00	6279.07
669.19	5429.17
669.38	5035.96
669.56	4532.15
669.75	3936.20
669.94	3356.62
670.12	2885.59
670.31	2504.67
670.50	2254.81
670.68	2070.50
670.87	1873.89
671.06	1810.40
671.24	1800.16
671.43	1783.78
671.62	1742.82
671.80	1714.15
671.99	1734.63
672.18	1773.54
672.36	1837.03
672.55	1814.50
672.74	1763.30
672.92	1693.67
673.11	1738.73
673.29	1656.81
673.48	1746.92
673.67	1726.44
673.85	1845.22
674.04	1642.47
674.23	1656.81
674.41	1869.80
674.60	1654.76
674.79	1656.81
674.97	1648.61
675.16	1746.92
675.34	1800.16
675.53	1656.81
675.72	1759.21
675.90	1839.08
676.09	1656.81
676.28	1656.81
676.46	1611.75
676.65	1701.86
676.83	1677.29
677.02	1761.25
677.21	1773.54
677.39	1740.77
677.58	1626.09
677.77	1718.25
677.95	1736.68
678.14	1757.16
678.32	1763.30
678.51	1708.01
678.70	1822.69
678.88	1654.76
679.07	1826.79
679.25	1669.09
679.44	1730.53
679.63	1681.38
679.81	1732.58
680.00	1828.84
680.18	1800.16
680.37	1841.12
680.55	1722.34
680.74	1646.57
680.93	1632.23
681.11	1681.38
681.30	1753.06
681.48	1738.73
681.67	1701.86
681.85	1728.49
682.04	1665.00
682.23	1755.11
682.41	1775.59
682.60	1683.43
682.78	1730.53
682.97	1675.24
683.15	1722.34
683.34	1730.53
683.53	1744.87
683.71	1640.42
683.90	1765.35
684.08	1845.22
684.27	1601.51
684.45	1724.39
684.64	1783.78
684.82	1734.63
685.01	1785.83
685.19	1660.90
685.38	1865.70
685.57	1732.58
685.75	1765.35
685.94	1695.72
686.12	1599.46
686.31	1736.68
686.49	1869.80
686.68	1640.42
686.86	1781.73
687.05	1685.48
687.23	1834.98
687.42	1738.73
687.60	1642.47
687.79	1789.92
687.97	1734.63
688.16	1722.34
688.34	1828.84
688.53	1619.94
688.71	1734.63
688.90	1808.36
689.08	1744.87
689.27	1656.81
689.45	1789.92
689.64	1689.57
689.82	1755.11
690.01	1830.88
690.19	1701.86
690.38	1681.38
690.56	1783.78
690.75	1669.09
690.93	1695.72
691.12	1701.86
691.30	1763.30
691.49	1685.48
691.67	1642.47
691.86	1742.82
692.04	1675.24
692.23	1691.62
692.41	1738.73
692.60	1779.68
692.78	1828.84
692.97	1662.95
693.15	1742.82
693.34	1789.92
693.52	1781.73
693.71	1722.34
693.89	1773.54
694.08	1589.22
694.26	1705.96
694.44	1800.16
694.63	1730.53
694.81	1656.81
695.00	1769.44
695.18	1724.39
695.37	1800.16
695.55	1720.29
695.74	1662.95
695.92	1679.33
696.10	1742.82
696.29	1605.61
696.47	1726.44
696.66	1697.77
696.84	1720.29
697.03	1744.87
697.21	1845.22
697.40	2338.78
697.58	1822.69
697.76	1671.14
697.95	1681.38
698.13	1730.53
698.32	1654.76
698.50	1751.01
698.68	1751.01
698.87	1748.97
699.05	1814.50
699.24	1728.49
699.42	1619.94
699.61	1785.83
699.79	1730.53
699.97	1697.77
700.16	1667.05
700.34	1712.10
700.53	1755.11
700.71	1777.64
700.89	1810.40
701.08	1673.19
701.26	1697.77
701.45	2148.32
701.63	1650.66
701.81	1730.53
702.00	1603.56
702.18	1705.96
702.37	1767.40
702.55	1734.63
702.73	1802.21
702.92	1665.00
703.10	1830.88
703.28	1810.40
703.47	1650.66
703.65	1761.25
703.84	1724.39
704.02	1712.10
704.20	1804.26
704.39	1736.68
704.57	1765.35
704.75	1847.27
704.94	1740.77
705.12	1787.88
705.30	1724.39
705.49	2236.38
705.67	4448.19
705.86	9467.76
706.04	12289.86
706.22	14329.64
706.41	15032.09
706.59	13365.04
706.77	9123.70
706.96	7149.46
707.14	6463.39
707.32	5846.95
707.51	5472.17
707.69	4794.29
707.87	4136.90
708.06	3383.24
708.24	3000.27
708.42	2385.88
708.61	2215.90
708.79	1851.36
708.97	1855.46
709.16	1816.55
709.34	1781.73
709.52	1677.29
709.71	1716.20
709.89	1763.30
710.07	1660.90
710.26	1671.14
710.44	1763.30
710.62	1757.16
710.80	1742.82
710.99	1808.36
711.17	1837.03
711.35	1726.44
711.54	1691.62
711.72	1761.25
711.90	1746.92
712.09	1732.58
712.27	1660.90
712.45	1714.15
712.63	1757.16
712.82	1712.10
713.00	1683.43
713.18	1722.34
713.37	1888.23
713.55	1839.08
713.73	1734.63
713.91	1724.39
714.10	1710.05
714.28	1681.38
714.46	1779.68
714.65	1755.11
714.83	1685.48
715.01	1738.73
715.19	1763.30
715.38	1683.43
715.56	1689.57
715.74	1697.77
715.92	1570.79
716.11	1771.49
716.29	1648.61
716.47	1691.62
716.65	1718.25
716.84	1671.14
717.02	1726.44
717.20	1605.61
717.38	1652.71
717.57	1742.82
717.75	1714.15
717.93	1708.01
718.11	1804.26
718.30	1615.85
718.48	1794.02
718.66	1734.63
718.84	1787.88
719.03	1687.53
719.21	1669.09
719.39	1837.03
719.57	1734.63
719.75	1834.98
719.94	1607.66
720.12	1607.66
720.30	1730.53
720.48	1736.68
720.67	1691.62
720.85	1693.67
721.03	1689.57
721.21	1591.27
721.39	1779.68
721.58	1865.70
721.76	1652.71
721.94	1751.01
722.12	1732.58
722.30	1871.84
722.49	1662.95
722.67	1753.06
722.85	1691.62
723.03	1611.75
723.21	1646.57
723.40	1748.97
723.58	1857.51
723.76	1787.88
723.94	1722.34
724.12	1742.82
724.30	1816.55
724.49	1748.97
724.67	1652.71
724.85	1738.73
725.03	1667.05
725.21	1755.11
725.40	1753.06
725.58	1716.20
725.76	1767.40
725.94	1730.53
726.12	1658.85
726.30	1748.97
726.49	1724.39
726.67	1697.77
726.85	1705.96
727.03	1841.12
727.21	2107.36
727.39	2906.07
727.57	3696.58
727.76	4220.86
727.94	4411.32
728.12	4231.10
728.30	3577.80
728.48	2883.54
728.66	2764.76
728.84	2514.91
729.03	2279.39
729.21	2164.70
729.39	2070.50
729.57	1865.70
729.75	1849.32
729.93	1820.64
730.11	1691.62
730.30	1753.06
730.48	1761.25
730.66	1761.25
730.84	1712.10
731.02	1699.81
731.20	1703.91
731.38	1773.54
731.56	1662.95
731.74	1652.71
731.93	1738.73
732.11	1716.20
732.29	1705.96
732.47	1787.88
732.65	1673.19
732.83	1796.07
733.01	1712.10
733.19	1761.25
733.37	1744.87
733.56	1804.26
733.74	1652.71
733.92	1761.25
734.10	1699.81
734.28	1740.77
734.46	1640.42
734.64	1722.34
734.82	1689.57
735.00	1640.42
735.18	1687.53
735.36	1716.20
735.54	1617.90
735.73	1791.97
735.91	1789.92
736.09	1753.06
736.27	1753.06
736.45	1742.82
736.63	1619.94
736.81	1716.20
736.99	1753.06
737.17	1822.69
737.35	1658.85
737.53	1746.92
737.71	1677.29
737.89	1785.83
738.07	1667.05
738.25	1685.48
738.43	1626.09
738.61	1718.25
738.80	1642.47
738.98	1658.85
739.16	1718.25
739.34	1621.99
739.52	1851.36
739.70	1726.44
739.88	1761.25
740.06	1839.08
740.24	1626.09
740.42	1849.32
740.60	1689.57
740.78	1611.75
740.96	1525.74
741.14	1740.77
741.32	1689.57
741.50	1599.46
741.68	1851.36
741.86	1759.21
742.04	1683.43
742.22	1673.19
742.40	1724.39
742.58	1730.53
742.76	1703.91
742.94	1830.88
743.12	1597.42
743.30	1712.10
743.48	1802.21
743.66	1654.76
743.84	1751.01
744.02	1693.67
744.20	1722.34
744.38	1613.80
744.56	1705.96
744.74	1855.46
744.92	1798.12
745.10	1775.59
745.28	1765.35
745.46	1751.01
745.64	1593.32
745.82	1789.92
746.00	1830.88
746.18	1724.39
746.36	1708.01
746.54	1759.21
746.72	1691.62
746.90	1652.71
747.08	1812.45
747.26	1658.85
747.44	1763.30
747.62	1763.30
747.80	1705.96
747.98	1824.74
748.15	1693.67
748.33	1804.26
748.51	1634.28
748.69	1736.68
748.87	1665.00
749.05	1689.57
749.23	1751.01
749.41	1789.92
749.59	1677.29
749.77	1773.54
749.95	1703.91
750.13	1646.57
750.31	1828.84
750.49	1722.34
750.67	1771.49
750.85	1832.93
751.03	1648.61
751.20	1886.18
751.38	1726.44
751.56	1675.24
751.74	1718.25
751.92	1636.33
752.10	1578.98
752.28	1746.92
752.46	1611.75
752.64	1687.53
752.82	1751.01
753.00	1763.30
753.18	1679.33
753.35	1732.58
753.53	1699.81
753.71	1742.82
753.89	1789.92
754.07	1697.77
754.25	1775.59
754.43	1708.01
754.61	1624.04
754.79	1726.44
754.97	1691.62
755.14	1787.88
755.32	1621.99
755.50	1722.34
755.68	1703.91
755.86	1705.96
756.04	1701.86
756.22	1693.67
756.40	1808.36
756.57	1820.64
756.75	1652.71
756.93	1867.75
757.11	1779.68
757.29	1675.24
757.47	1720.29
757.65	1650.66
757.82	1607.66
758.00	1677.29
758.18	1669.09
758.36	1732.58
758.54	1791.97
758.72	1757.16
758.90	1685.48
759.07	1726.44
759.25	1703.91
759.43	1738.73
759.61	1619.94
759.79	2121.70
759.97	1824.74
760.15	1689.57
760.32	1718.25
760.50	1732.58
760.68	1677.29
760.86	1722.34
761.04	1816.55
761.22	1744.87
761.39	1734.63
761.57	1720.29
761.75	1697.77
761.93	1683.43
762.11	1740.77
762.28	1718.25
762.46	1628.14
762.64	1742.82
762.82	1701.86
763.00	1712.10
763.18	1804.26
763.35	1691.62
763.53	1824.74
763.71	1765.35
763.89	1751.01
764.07	1691.62
764.24	1748.97
764.42	1812.45
764.60	1646.57
764.78	1656.81
764.96	1800.16
765.13	1826.79
765.31	1624.04
765.49	1748.97
765.67	1650.66
765.84	1615.85
766.02	1714.15
766.20	1628.14
766.38	1722.34
766.56	1834.98
766.73	1808.36
766.91	1695.72
767.09	1683.43
767.27	1777.64
767.44	1687.53
767.62	1777.64
767.80	1736.68
767.98	1773.54
768.15	1757.16
768.33	1757.16
768.51	1740.77
768.69	1720.29
768.87	1732.58
769.04	1693.67
769.22	1837.03
769.40	1728.49
769.58	1871.84
769.75	1796.07
769.93	1787.88
770.11	1673.19
770.28	1673.19
770.46	1703.91
770.64	1736.68
770.82	1679.33
770.99	1716.20
771.17	1718.25
771.35	1748.97
771.53	1722.34
771.70	1724.39
771.88	1716.20
772.06	1697.77
772.23	1683.43
772.41	1810.40
772.59	1716.20
772.77	1675.24
772.94	1677.29
773.12	1710.05
773.30	1720.29
773.47	1693.67
773.65	1701.86
773.83	1814.50
774.01	1691.62
774.18	1691.62
774.36	1722.34
774.54	1619.94
774.71	1757.16
774.89	1665.00
775.07	1626.09
775.24	1726.44
775.42	1695.72
775.60	1767.40
775.78	1677.29
775.95	1683.43
776.13	1652.71
776.31	1626.09
776.48	1634.28
776.66	1744.87
776.84	1720.29
777.01	1662.95
777.19	1636.33
777.37	1660.90
777.54	1746.92
777.72	1812.45
777.90	1662.95
778.07	1605.61
778.25	1906.66
778.43	1710.05
778.60	1710.05
778.78	1837.03
778.96	1800.16
779.13	1701.86
779.31	1740.77
779.49	1693.67
779.66	1685.48
779.84	1642.47
780.01	1703.91
780.19	1755.11
780.37	1767.40
780.54	1769.44
780.72	1689.57
780.90	1656.81
781.07	1693.67
781.25	1705.96
781.43	1791.97
781.60	1683.43
781.78	1751.01
781.95	1638.38
782.13	1652.71
782.31	1662.95
782.48	1587.18
782.66	1730.53
782.83	1906.66
783.01	1791.97
783.19	1746.92
783.36	1734.63
783.54	1669.09
783.72	1802.21
783.89	1732.58
784.07	1671.14
784.24	1708.01
784.42	1871.84
784.60	1701.86
784.77	1751.01
784.95	1638.38
785.12	1679.33
785.30	1710.05
785.47	1611.75
785.65	1718.25
785.83	1689.57
786.00	1658.85
786.18	1714.15
786.35	1624.04
786.53	1699.81
786.71	1734.63
786.88	1732.58
787.06	1689.57
787.23	1708.01
787.41	1669.09
787.58	1632.23
787.76	1669.09
787.94	1714.15
788.11	1785.83
788.29	1673.19
788.46	1636.33
788.64	1677.29
788.81	1720.29
788.99	1677.29
789.16	1646.57
789.34	1746.92
789.52	1652.71
789.69	1671.14
789.87	1634.28
790.04	1701.86
790.22	1781.73
790.39	1857.51
790.57	1624.04
790.74	1660.90
790.92	1775.59
791.09	1558.50
791.27	1730.53
791.44	1746.92
791.62	1697.77
791.79	1716.20
791.97	1763.30
792.15	1964.00
792.32	1826.79
792.50	1757.16
792.67	1843.17
792.85	1804.26
793.02	1736.68
793.20	1660.90
793.37	1660.90
793.55	1665.00
793.72	1675.24
793.90	1783.78
794.07	1708.01
794.25	1669.09
794.42	1751.01
794.60	1656.81
794.77	1785.83
794.95	1773.54
795.12	1789.92
795.30	1630.18
795.47	1611.75
795.65	1880.04
795.82	1714.15
796.00	1607.66
796.17	1652.71
796.34	1703.91
796.52	1675.24
796.69	1724.39
796.87	1785.83
797.04	1673.19
797.22	1849.32
797.39	1695.72
797.57	1767.40
797.74	1767.40
797.92	1777.64
798.09	1679.33
798.27	1777.64
798.44	1791.97
798.62	1650.66
798.79	1730.53
798.96	1777.64
799.14	1722.34
799.31	1894.37
799.49	1673.19
799.66	1724.39
799.84	1785.83
800.01	1644.52
800.19	1714.15
800.36	1630.18
800.53	1802.21
800.71	1658.85
800.88	1724.39
801.06	1730.53
801.23	1662.95
801.41	1751.01
801.58	1673.19
801.75	1650.66
801.93	1722.34
802.10	1746.92
802.28	1671.14
802.45	1691.62
802.63	1736.68
802.80	1734.63
802.97	1648.61
803.15	1695.72
803.32	1755.11
803.50	1726.44
803.67	1650.66
803.84	1701.86
804.02	1669.09
804.19	1697.77
804.37	1605.61
804.54	1583.08
804.71	1759.21
804.89	1728.49
805.06	1665.00
805.24	1640.42
805.41	1712.10
805.58	1681.38
805.76	1802.21
805.93	1755.11
806.10	1726.44
806.28	1783.78
806.45	1744.87
806.63	1691.62
806.80	1759.21
806.97	1744.87
807.15	1746.92
807.32	1791.97
807.49	1703.91
807.67	1665.00
807.84	1763.30
808.01	1669.09
808.19	1923.04
808.36	1847.27
808.54	1634.28
808.71	1720.29
808.88	1724.39
809.06	1671.14
809.23	1804.26
809.40	1681.38
809.58	1796.07
809.75	1683.43
809.92	1652.71
810.10	1886.18
810.27	1695.72
810.44	1742.82
810.62	1660.90
810.79	1703.91
810.96	1718.25
811.14	1699.81
811.31	1757.16
811.48	1775.59
811.66	1697.77
811.83	1773.54
812.00	1734.63
812.18	1671.14
812.35	1818.60
812.52	1605.61
812.69	1654.76
812.87	1621.99
813.04	1658.85
813.21	1689.57
813.39	1740.77
813.56	1630.18
813.73	1716.20
813.91	1605.61
814.08	1654.76
814.25	1718.25
814.42	1540.07
814.60	1732.58
814.77	1689.57
814.94	1636.33
815.12	1703.91
815.29	1818.60
815.46	1671.14
815.63	1687.53
815.81	1794.02
815.98	1701.86
816.15	1751.01
816.33	1748.97
816.50	1646.57
816.67	1701.86
816.84	1656.81
817.02	1656.81
817.19	1740.77
817.36	1720.29
817.53	1732.58
817.71	1693.67
817.88	1769.44
818.05	1705.96
818.22	1714.15
818.40	1875.94
818.57	1656.81
818.74	1759.21
818.91	1652.71
819.09	1814.50
819.26	1773.54
819.43	1648.61
819.60	1712.10
819.78	1738.73
819.95	1816.55
820.12	1652.71
820.29	1808.36
820.47	1740.77
820.64	1703.91
820.81	1624.04
820.98	1697.77
821.15	1751.01
821.33	1755.11
821.50	1640.42
821.67	1640.42
821.84	1624.04
822.02	1748.97
822.19	1783.78
822.36	1695.72
822.53	1746.92
822.70	1732.58
822.88	1714.15
823.05	1785.83
823.22	1683.43
823.39	1730.53
823.56	1732.58
823.74	1820.64
823.91	1687.53
824.08	1699.81
824.25	1716.20
824.42	1832.93
824.60	1667.05
824.77	1724.39
824.94	1642.47
825.11	1705.96
825.28	1652.71
825.45	1826.79
825.63	1632.23
825.80	1722.34
825.97	1787.88
826.14	1757.16
826.31	1693.67
826.48	1769.44
826.66	1705.96
826.83	1658.85
827.00	1783.78
827.17	1675.24
827.34	1773.54
827.51	1701.86
827.69	1628.14
827.86	1562.60
828.03	1662.95
828.20	1703.91
828.37	1689.57
828.54	1738.73
828.71	1712.10
828.89	1820.64
829.06	1744.87
829.23	1763.30
829.40	1671.14
829.57	1671.14
829.74	1755.11
829.91	1658.85
830.09	1617.90
830.26	1767.40
830.43	1779.68
830.60	1697.77
830.77	1669.09
830.94	1781.73
831.11	1724.39
831.28	1675.24
831.46	1781.73
831.63	1699.81
831.80	1761.25
831.97	1722.34
832.14	1660.90
832.31	1787.88
832.48	1648.61
832.65	1734.63
832.82	1757.16
832.99	1714.15
833.17	1673.19
833.34	1828.84
833.51	1701.86
833.68	1636.33
833.85	1771.49
834.02	1634.28
834.19	1671.14
834.36	1656.81
834.53	1763.30
834.70	1757.16
834.87	1791.97
835.04	1701.86
835.22	1646.57
835.39	1681.38
835.56	1691.62
835.73	1720.29
835.90	1746.92
836.07	1667.05
836.24	1767.40
836.41	1685.48
836.58	1613.80
836.75	1787.88
836.92	1761.25
837.09	1640.42
837.26	1763.30
837.43	1697.77
837.60	1771.49
837.77	1689.57
837.94	1734.63
838.12	1796.07
838.29	1746.92
838.46	1673.19
838.63	1644.52
838.80	1816.55
838.97	1804.26
839.14	1632.23
839.31	1734.63
839.48	1755.11
839.65	1744.87
839.82	1802.21
839.99	1769.44
840.16	1683.43
840.33	1640.42
840.50	1665.00
840.67	1697.77
840.84	1609.70
841.01	1740.77
841.18	1630.18
841.35	1746.92
841.52	1730.53
841.69	1855.46
841.86	1685.48
842.03	1730.53
842.20	1800.16
842.37	1644.52
842.54	1708.01
842.71	1710.05
842.88	1636.33
843.05	1718.25
843.22	1720.29
843.39	1732.58
843.56	1675.24
843.73	1759.21
843.90	1615.85
844.07	1757.16
844.24	1726.44
844.41	1753.06
844.58	1773.54
844.75	1744.87
844.92	1746.92
845.09	1669.09
845.26	1648.61
845.43	1759.21
845.60	1710.05
845.77	1736.68
845.94	1685.48
846.10	1746.92
846.27	1665.00
846.44	1714.15
846.61	1638.38
846.78	1748.97
846.95	1724.39
847.12	1665.00
847.29	1697.77
847.46	1669.09
847.63	1734.63
847.80	1667.05
847.97	1705.96
848.14	1865.70
848.31	1683.43
848.48	1683.43
848.65	1710.05
848.82	1677.29
848.98	1834.98
849.15	1726.44
849.32	1796.07
849.49	1714.15
849.66	1714.15
849.83	1791.97
850.00	1648.61
850.17	1757.16
850.34	1646.57
850.51	1675.24
850.68	1691.62
850.85	1826.79
851.01	1773.54
851.18	1685.48
851.35	1671.14
851.52	1734.63
851.69	1763.30
851.86	1630.18
852.03	1712.10
852.20	1791.97
852.37	1642.47
852.53	1615.85
852.70	1720.29
852.87	1644.52
853.04	1753.06
853.21	1714.15
853.38	1789.92
853.55	1818.60
853.72	1744.87
853.89	1697.77
854.05	1687.53
854.22	1755.11
854.39	1693.67
854.56	1712.10
854.73	1804.26
854.90	1679.33
855.07	1621.99
855.23	1667.05
855.40	1689.57
855.57	1632.23
855.74	1693.67
855.91	1892.32
856.08	1669.09
856.25	1665.00
856.41	1609.70
856.58	1767.40
856.75	1660.90
856.92	1683.43
857.09	1800.16
857.26	1644.52
857.42	1673.19
857.59	1744.87
857.76	1648.61
857.93	1730.53
858.10	1685.48
858.27	1589.22
858.43	1748.97
858.60	1734.63
858.77	1624.04
858.94	1705.96
859.11	1765.35
859.27	1691.62
859.44	1785.83
859.61	1812.45
859.78	1751.01
859.95	1781.73
860.12	1675.24
860.28	1820.64
860.45	1794.02
860.62	1662.95
860.79	1746.92
860.95	1662.95
861.12	1660.90
861.29	1634.28
861.46	1687.53
861.63	1650.66
861.79	1712.10
861.96	1636.33
862.13	1673.19
862.30	1781.73
862.47	1701.86
862.63	1669.09
862.80	1761.25
862.97	1736.68
863.14	1765.35
863.30	1740.77
863.47	1601.51
863.64	1798.12
863.81	1757.16
863.97	1697.77
864.14	1691.62
864.31	1693.67
864.48	1697.77
864.65	1703.91
864.81	1787.88
864.98	1755.11
865.15	1785.83
865.32	1759.21
865.48	1794.02
865.65	1816.55
865.82	1742.82
865.98	1740.77
866.15	1791.97
866.32	1632.23
866.49	1681.38
866.65	1791.97
866.82	1673.19
866.99	1748.97
867.16	1675.24
867.32	1718.25
867.49	1687.53
867.66	1748.97
867.83	1638.38
867.99	1574.89
868.16	1654.76
868.33	1755.11
868.49	1767.40
868.66	1646.57
868.83	1769.44
868.99	1736.68
869.16	1695.72
869.33	1765.35
869.50	1808.36
869.66	1701.86
869.83	1681.38
870.00	1669.09
870.16	1744.87
870.33	1738.73
870.50	1744.87
870.66	1724.39
870.83	1732.58
871.00	1710.05
871.17	1822.69
871.33	1662.95
871.50	1751.01
871.67	1701.86
871.83	1708.01
872.00	1765.35
872.17	1757.16
872.33	1789.92
872.50	1724.39
872.67	1716.20
872.83	1634.28
873.00	1648.61
873.17	1777.64
873.33	1767.40
873.50	1763.30
873.67	1683.43
873.83	1681.38
874.00	1654.76
874.16	1740.77
874.33	1701.86
874.50	1652.71
874.66	1816.55
874.83	1710.05
875.00	1779.68
875.16	1714.15
875.33	1810.40
875.50	1673.19
875.66	1708.01
875.83	1763.30
875.99	1783.78
876.16	1708.01
876.33	1601.51
876.49	1693.67
876.66	1751.01
876.83	1578.98
876.99	1656.81
877.16	1646.57
877.32	1658.85
877.49	1703.91
877.66	1705.96
877.82	1824.74
877.99	1714.15
878.15	1765.35
878.32	1718.25
878.49	1789.92
878.65	1742.82
878.82	1738.73
878.98	1689.57
879.15	1800.16
879.32	1775.59
879.48	1644.52
879.65	1630.18
879.81	1638.38
879.98	1652.71
880.15	1755.11
880.31	1705.96
880.48	1736.68
880.64	1787.88
880.81	1697.77
880.97	1830.88
881.14	1769.44
881.31	1683.43
881.47	1867.75
881.64	1697.77
881.80	1626.09
881.97	1746.92
882.13	1779.68
882.30	1683.43
882.47	1669.09
882.63	1685.48
882.80	1640.42
882.96	1683.43
883.13	1781.73
883.29	1677.29
883.46	1699.81
883.62	1744.87
883.79	1654.76
883.95	1736.68
884.12	1683.43
884.29	1802.21
884.45	1763.30
884.62	1746.92
884.78	1624.04
884.95	1789.92
885.11	1642.47
885.28	1673.19
885.44	1691.62
885.61	1761.25
885.77	1763.30
885.94	1705.96
886.10	1673.19
886.27	1701.86
886.43	1810.40
886.60	1748.97
886.76	1718.25
886.93	1660.90
887.09	1675.24
887.26	1687.53
887.42	1726.44
887.59	1812.45
887.75	1849.32
887.92	1738.73
888.08	1732.58
888.25	1837.03
888.41	1779.68
888.58	1660.90
888.74	1685.48
888.91	1652.71
>>>>>End Processed Spectral Data<<<<<
