SpectraSuite Data File
++++++++++++++++++++++++++++++++++++
Date: Mon Jun 06 15:53:17 CEST 2016
User: root
Dark Spectrum Present: No
Reference Spectrum Present: No
Number of Sampled Component Spectra: 1
Spectrometers: USB4C02835
Integration Time (usec): 100000 (USB4C02835)
Spectra Averaged: 1 (USB4C02835)
Boxcar Smoothing: 0 (USB4C02835)
Correct for Electrical Dark: No (USB4C02835)
Strobe/Lamp Enabled: No (USB4C02835)
Correct for Detector Non-linearity: No (USB4C02835)
Correct for Stray Light: No (USB4C02835)
Number of Pixels in Processed Spectrum: 3648
>>>>>Begin Processed Spectral Data<<<<<
177.47	1458.15
177.69	1458.15
177.91	1458.15
178.13	1417.19
178.36	1488.87
178.58	1583.08
178.80	1714.15
179.02	1652.71
179.24	1667.05
179.46	1693.67
179.68	1759.21
179.90	1744.87
180.13	1730.53
180.35	1640.42
180.57	1734.63
180.79	1789.92
181.01	1765.35
181.23	1777.64
181.45	1748.97
181.67	1757.16
181.90	1820.64
182.12	1603.56
182.34	1578.98
182.56	1732.58
182.78	1812.45
183.00	1708.01
183.22	1662.95
183.44	1601.51
183.66	1804.26
183.89	1871.84
184.11	1808.36
184.33	1734.63
184.55	1734.63
184.77	1761.25
184.99	1820.64
185.21	1695.72
185.43	1818.60
185.65	1724.39
185.87	1699.81
186.10	1708.01
186.32	1886.18
186.54	1705.96
186.76	1757.16
186.98	1724.39
187.20	1683.43
187.42	1724.39
187.64	1763.30
187.86	1691.62
188.08	1742.82
188.30	1671.14
188.52	1787.88
188.75	1779.68
188.97	1830.88
189.19	1683.43
189.41	1677.29
189.63	1755.11
189.85	1630.18
190.07	1675.24
190.29	1615.85
190.51	1726.44
190.73	1607.66
190.95	1816.55
191.17	1753.06
191.39	1572.84
191.61	1767.40
191.84	1691.62
192.06	1773.54
192.28	1667.05
192.50	1892.32
192.72	1787.88
192.94	1701.86
193.16	1785.83
193.38	1728.49
193.60	1628.14
193.82	1736.68
194.04	1734.63
194.26	1722.34
194.48	1767.40
194.70	1658.85
194.92	1710.05
195.14	1724.39
195.36	1744.87
195.58	1730.53
195.80	1665.00
196.02	1685.48
196.24	1705.96
196.46	1751.01
196.69	1630.18
196.91	1843.17
197.13	1695.72
197.35	1642.47
197.57	1806.31
197.79	1740.77
198.01	1673.19
198.23	1804.26
198.45	1648.61
198.67	1705.96
198.89	1669.09
199.11	1703.91
199.33	1654.76
199.55	1581.03
199.77	1677.29
199.99	1728.49
200.21	1701.86
200.43	1734.63
200.65	1591.27
200.87	1583.08
201.09	1673.19
201.31	1751.01
201.53	1802.21
201.75	1701.86
201.97	1714.15
202.19	1722.34
202.41	1789.92
202.63	1763.30
202.85	1718.25
203.07	1720.29
203.29	1673.19
203.51	1652.71
203.73	1728.49
203.95	1873.89
204.17	1740.77
204.39	1740.77
204.61	1683.43
204.83	1705.96
205.05	1789.92
205.27	1787.88
205.49	1841.12
205.71	1656.81
205.93	1634.28
206.15	1695.72
206.37	1699.81
206.59	1683.43
206.81	1677.29
207.03	1673.19
207.25	1609.70
207.47	1740.77
207.69	1665.00
207.91	1791.97
208.13	1779.68
208.34	1638.38
208.56	1675.24
208.78	1755.11
209.00	1646.57
209.22	1640.42
209.44	1791.97
209.66	1619.94
209.88	1708.01
210.10	1720.29
210.32	1656.81
210.54	1845.22
210.76	1710.05
210.98	1783.78
211.20	1669.09
211.42	1703.91
211.64	1748.97
211.86	1724.39
212.08	1751.01
212.30	1687.53
212.52	1771.49
212.74	1763.30
212.96	1703.91
213.17	1746.92
213.39	1738.73
213.61	1828.84
213.83	1714.15
214.05	1607.66
214.27	1714.15
214.49	1646.57
214.71	1693.67
214.93	1771.49
215.15	1771.49
215.37	1722.34
215.59	1662.95
215.81	1804.26
216.03	1742.82
216.24	1734.63
216.46	1763.30
216.68	1681.38
216.90	1712.10
217.12	1814.50
217.34	1619.94
217.56	1724.39
217.78	1816.55
218.00	1732.58
218.22	1677.29
218.44	1777.64
218.66	1748.97
218.87	1777.64
219.09	1730.53
219.31	1816.55
219.53	1730.53
219.75	1624.04
219.97	1660.90
220.19	1708.01
220.41	1677.29
220.63	1789.92
220.85	1751.01
221.06	1697.77
221.28	1830.88
221.50	1738.73
221.72	1804.26
221.94	1669.09
222.16	1753.06
222.38	1816.55
222.60	1689.57
222.82	1650.66
223.03	1796.07
223.25	1714.15
223.47	1740.77
223.69	1888.23
223.91	1771.49
224.13	1617.90
224.35	1654.76
224.57	1767.40
224.78	1755.11
225.00	1681.38
225.22	1665.00
225.44	1753.06
225.66	1785.83
225.88	1701.86
226.10	1763.30
226.32	1718.25
226.53	1722.34
226.75	1693.67
226.97	1699.81
227.19	1705.96
227.41	1662.95
227.63	1687.53
227.85	1687.53
228.06	1677.29
228.28	1775.59
228.50	1753.06
228.72	1621.99
228.94	1646.57
229.16	1583.08
229.37	1658.85
229.59	1681.38
229.81	1783.78
230.03	1716.20
230.25	1656.81
230.47	1693.67
230.69	1621.99
230.90	1779.68
231.12	1679.33
231.34	1732.58
231.56	1791.97
231.78	1665.00
232.00	1748.97
232.21	1677.29
232.43	1679.33
232.65	1560.55
232.87	1755.11
233.09	1642.47
233.30	1728.49
233.52	1710.05
233.74	1697.77
233.96	1701.86
234.18	1726.44
234.40	1681.38
234.61	1896.42
234.83	1658.85
235.05	1652.71
235.27	1851.36
235.49	1699.81
235.70	1787.88
235.92	1730.53
236.14	1722.34
236.36	1867.75
236.58	1689.57
236.79	1681.38
237.01	1648.61
237.23	1714.15
237.45	1841.12
237.67	1654.76
237.88	1796.07
238.10	1820.64
238.32	1619.94
238.54	1681.38
238.76	1796.07
238.97	1626.09
239.19	1632.23
239.41	1781.73
239.63	1699.81
239.85	1617.90
240.06	1722.34
240.28	1728.49
240.50	1722.34
240.72	1744.87
240.93	1718.25
241.15	1746.92
241.37	1730.53
241.59	1794.02
241.81	1689.57
242.02	1699.81
242.24	1814.50
242.46	1761.25
242.68	1724.39
242.89	1718.25
243.11	1834.98
243.33	1662.95
243.55	1734.63
243.76	1740.77
243.98	1652.71
244.20	1759.21
244.42	1724.39
244.64	1710.05
244.85	1693.67
245.07	1591.27
245.29	1771.49
245.51	1650.66
245.72	1677.29
245.94	1761.25
246.16	1718.25
246.38	1779.68
246.59	1662.95
246.81	1624.04
247.03	1708.01
247.24	1531.88
247.46	1701.86
247.68	1687.53
247.90	1613.80
248.11	1656.81
248.33	1767.40
248.55	1681.38
248.77	1718.25
248.98	1757.16
249.20	1820.64
249.42	1693.67
249.64	1830.88
249.85	1720.29
250.07	1681.38
250.29	1734.63
250.50	1714.15
250.72	1728.49
250.94	1675.24
251.16	1781.73
251.37	1847.27
251.59	1734.63
251.81	1783.78
252.02	1755.11
252.24	1673.19
252.46	1804.26
252.68	1703.91
252.89	1636.33
253.11	1599.46
253.33	1814.50
253.54	1794.02
253.76	1632.23
253.98	1726.44
254.20	1687.53
254.41	1626.09
254.63	1660.90
254.85	1615.85
255.06	1652.71
255.28	1716.20
255.50	1642.47
255.71	1669.09
255.93	1654.76
256.15	1685.48
256.36	1695.72
256.58	1642.47
256.80	1783.78
257.02	1765.35
257.23	1675.24
257.45	1605.61
257.67	1845.22
257.88	1689.57
258.10	1691.62
258.32	1638.38
258.53	1693.67
258.75	1843.17
258.97	1681.38
259.18	1763.30
259.40	1703.91
259.62	1904.61
259.83	1734.63
260.05	1755.11
260.27	2007.01
260.48	1804.26
260.70	1658.85
260.92	1644.52
261.13	1722.34
261.35	1771.49
261.57	1824.74
261.78	1585.13
262.00	1673.19
262.22	1783.78
262.43	1648.61
262.65	1650.66
262.86	1683.43
263.08	1849.32
263.30	1656.81
263.51	1665.00
263.73	1648.61
263.95	1748.97
264.16	1656.81
264.38	1591.27
264.60	1757.16
264.81	1714.15
265.03	1787.88
265.25	1781.73
265.46	1724.39
265.68	1732.58
265.89	1769.44
266.11	1599.46
266.33	1800.16
266.54	1787.88
266.76	1779.68
266.98	1806.31
267.19	1771.49
267.41	1705.96
267.62	1755.11
267.84	1636.33
268.06	1759.21
268.27	1705.96
268.49	1765.35
268.70	1755.11
268.92	1699.81
269.14	1628.14
269.35	1634.28
269.57	1806.31
269.79	1767.40
270.00	1665.00
270.22	1781.73
270.43	1677.29
270.65	1587.18
270.87	1652.71
271.08	1755.11
271.30	1771.49
271.51	1748.97
271.73	1646.57
271.95	1816.55
272.16	1730.53
272.38	1730.53
272.59	1626.09
272.81	1722.34
273.02	1703.91
273.24	1777.64
273.46	1718.25
273.67	1708.01
273.89	1601.51
274.10	1718.25
274.32	1736.68
274.54	1769.44
274.75	1693.67
274.97	1667.05
275.18	1705.96
275.40	1660.90
275.61	1685.48
275.83	1738.73
276.05	1701.86
276.26	1718.25
276.48	1722.34
276.69	1740.77
276.91	1587.18
277.12	1775.59
277.34	1730.53
277.55	1808.36
277.77	1751.01
277.99	1626.09
278.20	1638.38
278.42	1576.94
278.63	1652.71
278.85	1671.14
279.06	1667.05
279.28	1722.34
279.49	1742.82
279.71	1761.25
279.93	1748.97
280.14	1724.39
280.36	1589.22
280.57	1839.08
280.79	1712.10
281.00	1687.53
281.22	1703.91
281.43	1773.54
281.65	1605.61
281.86	1691.62
282.08	1740.77
282.29	1837.03
282.51	1658.85
282.73	1716.20
282.94	1603.56
283.16	1763.30
283.37	1773.54
283.59	1699.81
283.80	1640.42
284.02	1640.42
284.23	1689.57
284.45	1679.33
284.66	1705.96
284.88	1732.58
285.09	1701.86
285.31	1705.96
285.52	1759.21
285.74	1591.27
285.95	1773.54
286.17	1689.57
286.38	1781.73
286.60	1656.81
286.81	1695.72
287.03	1662.95
287.24	1763.30
287.46	1710.05
287.67	1730.53
287.89	1800.16
288.10	1722.34
288.32	1742.82
288.53	1818.60
288.75	1667.05
288.96	1746.92
289.18	1732.58
289.39	1705.96
289.61	1773.54
289.82	1837.03
290.04	1820.64
290.25	1662.95
290.47	1708.01
290.68	1738.73
290.90	1861.60
291.11	1648.61
291.33	1742.82
291.54	1605.61
291.76	1654.76
291.97	1699.81
292.18	1759.21
292.40	1671.14
292.61	1683.43
292.83	1826.79
293.04	1812.45
293.26	1769.44
293.47	1771.49
293.69	1691.62
293.90	1699.81
294.12	1726.44
294.33	1734.63
294.55	1708.01
294.76	1822.69
294.97	1728.49
295.19	1865.70
295.40	1748.97
295.62	1732.58
295.83	1681.38
296.05	1697.77
296.26	1771.49
296.48	1703.91
296.69	1724.39
296.90	1656.81
297.12	1791.97
297.33	1796.07
297.55	1681.38
297.76	1771.49
297.98	1808.36
298.19	1615.85
298.41	1748.97
298.62	1660.90
298.83	1771.49
299.05	1722.34
299.26	1605.61
299.48	1681.38
299.69	1789.92
299.90	1759.21
300.12	1669.09
300.33	1665.00
300.55	1708.01
300.76	1765.35
300.98	1673.19
301.19	1755.11
301.40	1742.82
301.62	1712.10
301.83	1810.40
302.05	1794.02
302.26	1720.29
302.47	1714.15
302.69	1624.04
302.90	1691.62
303.12	1554.41
303.33	1697.77
303.54	1740.77
303.76	1642.47
303.97	1697.77
304.19	1824.74
304.40	1607.66
304.61	1751.01
304.83	1824.74
305.04	1785.83
305.26	1773.54
305.47	1695.72
305.68	1742.82
305.90	1699.81
306.11	1771.49
306.33	1679.33
306.54	1675.24
306.75	1673.19
306.97	1605.61
307.18	1712.10
307.39	1714.15
307.61	1771.49
307.82	1740.77
308.04	1673.19
308.25	1724.39
308.46	1695.72
308.68	1685.48
308.89	1714.15
309.10	1845.22
309.32	1720.29
309.53	1677.29
309.74	1665.00
309.96	1708.01
310.17	1839.08
310.39	1744.87
310.60	1673.19
310.81	1708.01
311.03	1617.90
311.24	1773.54
311.45	1746.92
311.67	1898.47
311.88	1673.19
312.09	1630.18
312.31	1693.67
312.52	1728.49
312.73	1740.77
312.95	1615.85
313.16	1675.24
313.37	1781.73
313.59	1716.20
313.80	1724.39
314.01	1771.49
314.23	1685.48
314.44	1642.47
314.65	1710.05
314.87	1699.81
315.08	1708.01
315.29	1689.57
315.51	1703.91
315.72	1595.37
315.93	1748.97
316.15	1773.54
316.36	1697.77
316.57	1751.01
316.79	1728.49
317.00	1714.15
317.21	1736.68
317.43	1644.52
317.64	1781.73
317.85	1671.14
318.07	1691.62
318.28	1697.77
318.49	1830.88
318.70	1896.42
318.92	1796.07
319.13	1816.55
319.34	1927.14
319.56	1769.44
319.77	1761.25
319.98	1822.69
320.20	1785.83
320.41	1763.30
320.62	1740.77
320.83	1648.61
321.05	1816.55
321.26	1673.19
321.47	1693.67
321.69	1787.88
321.90	1636.33
322.11	1718.25
322.32	1705.96
322.54	1794.02
322.75	1701.86
322.96	1843.17
323.18	1681.38
323.39	1560.55
323.60	1679.33
323.81	1787.88
324.03	1712.10
324.24	1691.62
324.45	1671.14
324.66	1748.97
324.88	1748.97
325.09	1834.98
325.30	1718.25
325.52	1708.01
325.73	1720.29
325.94	1658.85
326.15	1669.09
326.37	1662.95
326.58	1708.01
326.79	1851.36
327.00	1671.14
327.22	1759.21
327.43	1714.15
327.64	1665.00
327.85	1714.15
328.07	1722.34
328.28	1882.08
328.49	1693.67
328.70	1714.15
328.92	1740.77
329.13	1791.97
329.34	1705.96
329.55	1808.36
329.76	1794.02
329.98	1718.25
330.19	1703.91
330.40	1763.30
330.61	1683.43
330.83	1832.93
331.04	1667.05
331.25	1730.53
331.46	1667.05
331.68	1609.70
331.89	1773.54
332.10	1624.04
332.31	1572.84
332.52	1769.44
332.74	1736.68
332.95	1619.94
333.16	1761.25
333.37	1746.92
333.58	1648.61
333.80	1734.63
334.01	1640.42
334.22	1703.91
334.43	1656.81
334.64	1658.85
334.86	1597.42
335.07	1654.76
335.28	1738.73
335.49	1681.38
335.70	1759.21
335.92	1714.15
336.13	1839.08
336.34	1726.44
336.55	1724.39
336.76	1757.16
336.98	1642.47
337.19	1730.53
337.40	1755.11
337.61	1871.84
337.82	1656.81
338.04	1722.34
338.25	1648.61
338.46	1660.90
338.67	1705.96
338.88	1675.24
339.09	1685.48
339.31	1638.38
339.52	1638.38
339.73	1638.38
339.94	1652.71
340.15	1771.49
340.36	1695.72
340.58	1773.54
340.79	1685.48
341.00	1746.92
341.21	1667.05
341.42	1873.89
341.63	1691.62
341.85	1806.31
342.06	1720.29
342.27	1628.14
342.48	1767.40
342.69	1617.90
342.90	1667.05
343.12	1701.86
343.33	1662.95
343.54	1779.68
343.75	1857.51
343.96	1724.39
344.17	1681.38
344.38	1695.72
344.60	1693.67
344.81	1619.94
345.02	1656.81
345.23	1791.97
345.44	1832.93
345.65	1730.53
345.86	1710.05
346.07	1644.52
346.29	1718.25
346.50	1804.26
346.71	1742.82
346.92	1769.44
347.13	1839.08
347.34	1773.54
347.55	1613.80
347.76	1724.39
347.98	1611.75
348.19	1624.04
348.40	1701.86
348.61	1742.82
348.82	1789.92
349.03	1757.16
349.24	1640.42
349.45	1787.88
349.66	1611.75
349.88	1734.63
350.09	1652.71
350.30	1716.20
350.51	1759.21
350.72	1685.48
350.93	1667.05
351.14	1708.01
351.35	1708.01
351.56	1755.11
351.77	1705.96
351.99	1724.39
352.20	1822.69
352.41	1757.16
352.62	1615.85
352.83	1701.86
353.04	1697.77
353.25	1640.42
353.46	1759.21
353.67	1736.68
353.88	1591.27
354.09	1720.29
354.30	1701.86
354.52	1849.32
354.73	1730.53
354.94	1693.67
355.15	1742.82
355.36	1820.64
355.57	1683.43
355.78	1658.85
355.99	1640.42
356.20	1701.86
356.41	1742.82
356.62	1779.68
356.83	1695.72
357.04	1849.32
357.25	1675.24
357.46	1701.86
357.68	1679.33
357.89	1693.67
358.10	1734.63
358.31	1773.54
358.52	1716.20
358.73	1621.99
358.94	1646.57
359.15	1693.67
359.36	1697.77
359.57	1689.57
359.78	1669.09
359.99	1716.20
360.20	1611.75
360.41	1714.15
360.62	1675.24
360.83	1759.21
361.04	1738.73
361.25	1738.73
361.46	1779.68
361.67	1701.86
361.88	1734.63
362.09	1705.96
362.30	1748.97
362.51	1710.05
362.72	1708.01
362.93	1724.39
363.14	1763.30
363.35	1781.73
363.56	1697.77
363.78	1787.88
363.99	1740.77
364.20	1669.09
364.41	1683.43
364.62	1824.74
364.83	1675.24
365.04	1726.44
365.25	1748.97
365.46	1832.93
365.67	1626.09
365.88	1689.57
366.09	1683.43
366.30	1658.85
366.51	1679.33
366.72	1683.43
366.93	1775.59
367.14	1697.77
367.35	1773.54
367.56	1710.05
367.77	1830.88
367.98	1685.48
368.18	1785.83
368.39	1730.53
368.60	1662.95
368.81	1869.80
369.02	1812.45
369.23	1718.25
369.44	1556.46
369.65	1665.00
369.86	1724.39
370.07	1734.63
370.28	1617.90
370.49	1779.68
370.70	1683.43
370.91	1740.77
371.12	1685.48
371.33	1796.07
371.54	1671.14
371.75	1773.54
371.96	1626.09
372.17	1716.20
372.38	1654.76
372.59	1828.84
372.80	1787.88
373.01	1656.81
373.22	1759.21
373.43	1681.38
373.64	1687.53
373.85	1771.49
374.06	1732.58
374.26	1767.40
374.47	1763.30
374.68	1851.36
374.89	1669.09
375.10	1667.05
375.31	1732.58
375.52	1742.82
375.73	1710.05
375.94	1624.04
376.15	1746.92
376.36	1669.09
376.57	1734.63
376.78	1732.58
376.99	1712.10
377.20	1851.36
377.40	1687.53
377.61	1816.55
377.82	1611.75
378.03	1791.97
378.24	1751.01
378.45	1685.48
378.66	1712.10
378.87	1576.94
379.08	1605.61
379.29	1710.05
379.50	1828.84
379.71	1689.57
379.91	1734.63
380.12	1695.72
380.33	1658.85
380.54	1769.44
380.75	1789.92
380.96	1763.30
381.17	1753.06
381.38	1677.29
381.59	1751.01
381.80	1708.01
382.00	1855.46
382.21	1816.55
382.42	1861.60
382.63	1857.51
382.84	1789.92
383.05	1765.35
383.26	1814.50
383.47	1718.25
383.68	1830.88
383.88	1789.92
384.09	1746.92
384.30	1800.16
384.51	1724.39
384.72	1669.09
384.93	1650.66
385.14	1669.09
385.35	1834.98
385.55	1624.04
385.76	1763.30
385.97	1693.67
386.18	1662.95
386.39	1658.85
386.60	1742.82
386.81	1712.10
387.02	1669.09
387.22	1687.53
387.43	1759.21
387.64	1800.16
387.85	1849.32
388.06	2199.52
388.27	4263.87
388.48	6606.75
388.68	8087.43
388.89	9647.98
389.10	9742.19
389.31	8374.14
389.52	7485.33
389.73	6725.53
389.93	6244.26
390.14	5760.94
390.35	5109.68
390.56	4507.58
390.77	3692.49
390.98	2879.44
391.18	2445.27
391.39	2140.13
391.60	1851.36
391.81	1896.42
392.02	1673.19
392.23	1877.99
392.43	1740.77
392.64	1802.21
392.85	1675.24
393.06	1748.97
393.27	1775.59
393.47	1675.24
393.68	1675.24
393.89	1689.57
394.10	1710.05
394.31	1679.33
394.52	1683.43
394.72	1648.61
394.93	1763.30
395.14	1648.61
395.35	1714.15
395.56	1681.38
395.76	1734.63
395.97	1794.02
396.18	1783.78
396.39	1767.40
396.60	2095.07
396.80	1964.00
397.01	1800.16
397.22	1820.64
397.43	1896.42
397.64	1767.40
397.84	1832.93
398.05	1898.47
398.26	1722.34
398.47	1769.44
398.67	1765.35
398.88	1701.86
399.09	1714.15
399.30	1646.57
399.51	1828.84
399.71	1640.42
399.92	1724.39
400.13	1695.72
400.34	1714.15
400.54	1751.01
400.75	1820.64
400.96	1804.26
401.17	1828.84
401.37	1818.60
401.58	1611.75
401.79	1646.57
402.00	1902.56
402.21	1990.63
402.41	1992.67
402.62	2058.21
402.83	2086.88
403.04	2080.74
403.24	2039.78
403.45	1806.31
403.66	1894.37
403.87	1877.99
404.07	1968.10
404.28	1978.34
404.49	1869.80
404.70	1837.03
404.90	1775.59
405.11	1734.63
405.32	1808.36
405.52	1810.40
405.73	1671.14
405.94	1714.15
406.15	1755.11
406.35	1720.29
406.56	1599.46
406.77	1724.39
406.98	1738.73
407.18	1644.52
407.39	1785.83
407.60	1681.38
407.80	1765.35
408.01	1794.02
408.22	1751.01
408.43	1658.85
408.63	1732.58
408.84	1769.44
409.05	1771.49
409.25	1703.91
409.46	1673.19
409.67	1771.49
409.88	1642.47
410.08	1638.38
410.29	1718.25
410.50	1742.82
410.70	1769.44
410.91	1685.48
411.12	1669.09
411.32	1783.78
411.53	1753.06
411.74	1777.64
411.95	1816.55
412.15	1753.06
412.36	1781.73
412.57	1740.77
412.77	1869.80
412.98	1783.78
413.19	1665.00
413.39	1820.64
413.60	1763.30
413.81	1724.39
414.01	1746.92
414.22	1732.58
414.43	1767.40
414.63	1671.14
414.84	1771.49
415.05	1726.44
415.25	1591.27
415.46	1810.40
415.67	1714.15
415.87	1738.73
416.08	1755.11
416.29	1728.49
416.49	1718.25
416.70	1708.01
416.91	1689.57
417.11	1726.44
417.32	1820.64
417.53	1755.11
417.73	1736.68
417.94	1798.12
418.15	1689.57
418.35	1669.09
418.56	1712.10
418.77	1855.46
418.97	1701.86
419.18	1734.63
419.38	1593.32
419.59	1683.43
419.80	1771.49
420.00	1617.90
420.21	1683.43
420.42	1791.97
420.62	1722.34
420.83	1703.91
421.04	1710.05
421.24	1730.53
421.45	1714.15
421.65	1757.16
421.86	1650.66
422.07	1746.92
422.27	1699.81
422.48	1730.53
422.69	1626.09
422.89	1761.25
423.10	1732.58
423.30	1669.09
423.51	1708.01
423.72	1705.96
423.92	1746.92
424.13	1581.03
424.33	1677.29
424.54	1769.44
424.75	1691.62
424.95	1826.79
425.16	1755.11
425.36	1742.82
425.57	1775.59
425.78	1720.29
425.98	1759.21
426.19	1626.09
426.39	1675.24
426.60	1794.02
426.81	1705.96
427.01	1726.44
427.22	1691.62
427.42	1591.27
427.63	1640.42
427.83	1806.31
428.04	1859.56
428.25	1802.21
428.45	1783.78
428.66	1822.69
428.86	1740.77
429.07	1636.33
429.28	1691.62
429.48	1722.34
429.69	1693.67
429.89	1685.48
430.10	1591.27
430.30	1765.35
430.51	1814.50
430.71	1734.63
430.92	1665.00
431.13	1697.77
431.33	1724.39
431.54	1753.06
431.74	1816.55
431.95	1841.12
432.15	1626.09
432.36	1669.09
432.56	1742.82
432.77	1857.51
432.98	1802.21
433.18	1787.88
433.39	1695.72
433.59	1757.16
433.80	1798.12
434.00	1896.42
434.21	1695.72
434.41	1724.39
434.62	1882.08
434.82	1642.47
435.03	1667.05
435.23	1808.36
435.44	1710.05
435.64	1728.49
435.85	1708.01
436.06	1757.16
436.26	1775.59
436.47	1753.06
436.67	1683.43
436.88	1683.43
437.08	1722.34
437.29	1830.88
437.49	1759.21
437.70	1730.53
437.90	1683.43
438.11	1845.22
438.31	1779.68
438.52	1853.41
438.72	1828.84
438.93	1925.09
439.13	1796.07
439.34	1763.30
439.54	1720.29
439.75	1789.92
439.95	1771.49
440.16	1697.77
440.36	1746.92
440.57	1789.92
440.77	1736.68
440.98	1728.49
441.18	1767.40
441.39	1652.71
441.59	1701.86
441.80	1808.36
442.00	1714.15
442.21	1837.03
442.41	1669.09
442.62	1798.12
442.82	1701.86
443.02	1740.77
443.23	1730.53
443.43	1734.63
443.64	1787.88
443.84	1681.38
444.05	1882.08
444.25	1654.76
444.46	1777.64
444.66	1794.02
444.87	1818.60
445.07	1628.14
445.28	1726.44
445.48	1757.16
445.69	1751.01
445.89	1853.41
446.09	1779.68
446.30	2013.15
446.50	2676.70
446.71	3749.83
446.91	4206.53
447.12	4691.90
447.32	4683.70
447.53	4358.08
447.73	3741.64
447.93	3635.14
448.14	3295.18
448.34	3248.08
448.55	2869.20
448.75	2779.09
448.96	2729.94
449.16	2389.98
449.36	2224.09
449.57	2062.30
449.77	1959.91
449.98	1849.32
450.18	1802.21
450.39	1849.32
450.59	1781.73
450.79	1730.53
451.00	1746.92
451.20	1828.84
451.41	1771.49
451.61	1773.54
451.81	1689.57
452.02	1738.73
452.22	1732.58
452.43	1634.28
452.63	1761.25
452.84	1675.24
453.04	1714.15
453.24	1726.44
453.45	1710.05
453.65	1808.36
453.86	1728.49
454.06	1730.53
454.26	1632.23
454.47	1679.33
454.67	1839.08
454.87	1656.81
455.08	1720.29
455.28	1931.23
455.49	1757.16
455.69	1695.72
455.89	1888.23
456.10	1773.54
456.30	1703.91
456.51	1746.92
456.71	1742.82
456.91	1845.22
457.12	1779.68
457.32	1783.78
457.52	1697.77
457.73	1814.50
457.93	1779.68
458.14	1640.42
458.34	1718.25
458.54	1740.77
458.75	1740.77
458.95	1773.54
459.15	1771.49
459.36	1724.39
459.56	1771.49
459.76	1877.99
459.97	1679.33
460.17	1779.68
460.37	1867.75
460.58	1759.21
460.78	1816.55
460.99	1675.24
461.19	1714.15
461.39	1667.05
461.60	1695.72
461.80	1783.78
462.00	1662.95
462.21	1677.29
462.41	1734.63
462.61	1708.01
462.82	1636.33
463.02	1775.59
463.22	1724.39
463.43	1761.25
463.63	1716.20
463.83	1779.68
464.04	1746.92
464.24	1734.63
464.44	1677.29
464.64	1755.11
464.85	1830.88
465.05	1847.27
465.25	1705.96
465.46	1728.49
465.66	1812.45
465.86	1853.41
466.07	1796.07
466.27	1720.29
466.47	1574.89
466.68	1599.46
466.88	1814.50
467.08	1736.68
467.29	1726.44
467.49	1781.73
467.69	1740.77
467.89	1755.11
468.10	1738.73
468.30	1765.35
468.50	1818.60
468.71	1751.01
468.91	1677.29
469.11	1890.28
469.31	1787.88
469.52	1720.29
469.72	1830.88
469.92	1845.22
470.13	1730.53
470.33	1757.16
470.53	1802.21
470.73	2099.17
470.94	2277.34
471.14	2435.03
471.34	2568.15
471.54	2336.73
471.75	2228.19
471.95	2123.74
472.15	2097.12
472.36	2070.50
472.56	2095.07
472.76	2068.45
472.96	2017.25
473.17	1877.99
473.37	1974.24
473.57	1931.23
473.77	1767.40
473.98	1822.69
474.18	1658.85
474.38	1853.41
474.58	1732.58
474.79	1720.29
474.99	1730.53
475.19	1748.97
475.39	1689.57
475.60	1779.68
475.80	1828.84
476.00	1718.25
476.20	1781.73
476.41	1714.15
476.61	1865.70
476.81	1824.74
477.01	1718.25
477.21	1857.51
477.42	1755.11
477.62	1628.14
477.82	1867.75
478.02	1624.04
478.23	1751.01
478.43	1703.91
478.63	1683.43
478.83	1740.77
479.03	1695.72
479.24	1751.01
479.44	1826.79
479.64	1714.15
479.84	1554.41
480.04	1693.67
480.25	1763.30
480.45	1718.25
480.65	1654.76
480.85	1777.64
481.06	1708.01
481.26	1726.44
481.46	1748.97
481.66	1777.64
481.86	1748.97
482.06	1789.92
482.27	1730.53
482.47	1652.71
482.67	1748.97
482.87	1716.20
483.07	1753.06
483.28	1710.05
483.48	1665.00
483.68	1716.20
483.88	1681.38
484.08	1574.89
484.29	1634.28
484.49	1689.57
484.69	1673.19
484.89	1832.93
485.09	1755.11
485.29	1730.53
485.50	1679.33
485.70	1712.10
485.90	1839.08
486.10	1712.10
486.30	1755.11
486.50	1839.08
486.71	1769.44
486.91	1802.21
487.11	1779.68
487.31	1687.53
487.51	1705.96
487.71	1613.80
487.91	1662.95
488.12	1767.40
488.32	1632.23
488.52	1714.15
488.72	1624.04
488.92	1849.32
489.12	1802.21
489.32	1820.64
489.53	1695.72
489.73	1640.42
489.93	1789.92
490.13	1624.04
490.33	1673.19
490.53	1726.44
490.73	1808.36
490.94	1660.90
491.14	1759.21
491.34	1910.75
491.54	2222.05
491.74	2570.20
491.94	3049.43
492.14	2944.98
492.34	2887.64
492.54	2785.24
492.75	2539.48
492.95	2439.13
493.15	2381.79
493.35	2279.39
493.55	2213.85
493.75	2150.37
493.95	2054.11
494.15	2013.15
494.35	1908.71
494.56	1875.94
494.76	1818.60
494.96	1796.07
495.16	1794.02
495.36	1771.49
495.56	1824.74
495.76	1820.64
495.96	1714.15
496.16	1667.05
496.36	1834.98
496.56	1693.67
496.77	1748.97
496.97	1726.44
497.17	1794.02
497.37	1693.67
497.57	1794.02
497.77	1857.51
497.97	1705.96
498.17	1746.92
498.37	1697.77
498.57	1728.49
498.77	1726.44
498.97	1794.02
499.17	1814.50
499.38	1771.49
499.58	1705.96
499.78	1863.65
499.98	1847.27
500.18	1759.21
500.38	1722.34
500.58	1929.19
500.78	2535.39
500.98	4517.82
501.18	5863.33
501.38	6797.21
501.58	7096.21
501.78	6627.23
501.98	5367.73
502.18	4913.08
502.38	4353.98
502.58	4134.85
502.78	3674.06
502.98	3678.15
503.18	3299.28
503.38	3145.68
503.59	2889.68
503.79	2654.17
503.99	2471.90
504.19	2332.64
504.39	2306.01
504.59	2189.28
504.79	2113.50
504.99	2078.69
505.19	1914.85
505.39	1853.41
505.59	1937.38
505.79	1888.23
505.99	1902.56
506.19	1820.64
506.39	1832.93
506.59	1746.92
506.79	1783.78
506.99	1859.56
507.19	1763.30
507.39	1767.40
507.59	1691.62
507.79	1691.62
507.99	1703.91
508.19	1708.01
508.39	1697.77
508.59	1753.06
508.79	1800.16
508.99	1869.80
509.19	1761.25
509.39	1804.26
509.59	1718.25
509.79	1652.71
509.99	1742.82
510.19	1779.68
510.39	1810.40
510.59	1769.44
510.79	1669.09
510.99	1689.57
511.19	1808.36
511.39	1865.70
511.59	1763.30
511.79	1822.69
511.99	1703.91
512.19	1890.28
512.38	1763.30
512.58	1677.29
512.78	1705.96
512.98	1777.64
513.18	1871.84
513.38	1683.43
513.58	1763.30
513.78	1697.77
513.98	1697.77
514.18	1771.49
514.38	1708.01
514.58	1775.59
514.78	1601.51
514.98	1730.53
515.18	1652.71
515.38	1708.01
515.58	1722.34
515.78	1656.81
515.98	1710.05
516.18	1775.59
516.38	1775.59
516.57	1730.53
516.77	1642.47
516.97	1888.23
517.17	1746.92
517.37	1730.53
517.57	1830.88
517.77	1728.49
517.97	1734.63
518.17	1818.60
518.37	1675.24
518.57	1763.30
518.77	1759.21
518.97	1712.10
519.16	1806.31
519.36	1781.73
519.56	1644.52
519.76	1748.97
519.96	1693.67
520.16	1804.26
520.36	1728.49
520.56	1839.08
520.76	1673.19
520.96	1814.50
521.16	1771.49
521.35	1794.02
521.55	1800.16
521.75	1759.21
521.95	1744.87
522.15	1701.86
522.35	1673.19
522.55	1673.19
522.75	1843.17
522.95	1744.87
523.14	1658.85
523.34	1738.73
523.54	1714.15
523.74	1804.26
523.94	1697.77
524.14	1687.53
524.34	1802.21
524.54	1773.54
524.73	1787.88
524.93	1845.22
525.13	1722.34
525.33	1683.43
525.53	1968.10
525.73	1728.49
525.93	1796.07
526.13	1800.16
526.32	1736.68
526.52	1837.03
526.72	1886.18
526.92	1796.07
527.12	1714.15
527.32	1673.19
527.52	1798.12
527.71	1699.81
527.91	1738.73
528.11	1718.25
528.31	1804.26
528.51	1660.90
528.71	1820.64
528.90	1771.49
529.10	1736.68
529.30	1779.68
529.50	1621.99
529.70	1775.59
529.90	1724.39
530.09	1726.44
530.29	1718.25
530.49	1705.96
530.69	1894.37
530.89	1751.01
531.09	1855.46
531.28	1728.49
531.48	1800.16
531.68	1822.69
531.88	1773.54
532.08	1808.36
532.28	1712.10
532.47	1701.86
532.67	1837.03
532.87	1753.06
533.07	1628.14
533.27	1751.01
533.46	1812.45
533.66	1751.01
533.86	1804.26
534.06	1720.29
534.26	1767.40
534.45	1691.62
534.65	1812.45
534.85	1798.12
535.05	1720.29
535.25	1847.27
535.44	1722.34
535.64	1779.68
535.84	1722.34
536.04	1673.19
536.24	1691.62
536.43	1687.53
536.63	1796.07
536.83	1783.78
537.03	1730.53
537.22	1630.18
537.42	1617.90
537.62	1730.53
537.82	1691.62
538.02	1753.06
538.21	1849.32
538.41	1927.14
538.61	1744.87
538.81	1691.62
539.00	1794.02
539.20	1654.76
539.40	1710.05
539.60	1705.96
539.79	1796.07
539.99	1677.29
540.19	1726.44
540.39	1789.92
540.58	1748.97
540.78	1804.26
540.98	1802.21
541.18	1785.83
541.37	1714.15
541.57	1722.34
541.77	1796.07
541.97	1712.10
542.16	1597.42
542.36	1716.20
542.56	1730.53
542.76	1867.75
542.95	1761.25
543.15	1757.16
543.35	1791.97
543.54	1687.53
543.74	1599.46
543.94	1730.53
544.14	1689.57
544.33	1773.54
544.53	1732.58
544.73	1720.29
544.93	1640.42
545.12	1816.55
545.32	1691.62
545.52	1740.77
545.71	1681.38
545.91	1720.29
546.11	1734.63
546.30	1738.73
546.50	1814.50
546.70	1812.45
546.90	1763.30
547.09	1693.67
547.29	1798.12
547.49	1748.97
547.68	1732.58
547.88	1662.95
548.08	1787.88
548.27	2193.37
548.47	1742.82
548.67	1720.29
548.87	1789.92
549.06	1720.29
549.26	1847.27
549.46	1746.92
549.65	1714.15
549.85	1851.36
550.05	1837.03
550.24	1720.29
550.44	1767.40
550.64	1748.97
550.83	1720.29
551.03	1865.70
551.23	1798.12
551.42	1820.64
551.62	1839.08
551.82	1744.87
552.01	1669.09
552.21	1738.73
552.41	1705.96
552.60	1781.73
552.80	1759.21
553.00	1701.86
553.19	1796.07
553.39	1814.50
553.59	1714.15
553.78	1728.49
553.98	1794.02
554.17	1806.31
554.37	1755.11
554.57	1734.63
554.76	1712.10
554.96	1695.72
555.16	1775.59
555.35	1708.01
555.55	1687.53
555.75	1699.81
555.94	1763.30
556.14	1667.05
556.33	1804.26
556.53	1767.40
556.73	1685.48
556.92	1816.55
557.12	1882.08
557.32	1910.75
557.51	1824.74
557.71	1851.36
557.90	1761.25
558.10	1740.77
558.30	1740.77
558.49	1800.16
558.69	1689.57
558.88	1843.17
559.08	1767.40
559.28	1763.30
559.47	1757.16
559.67	1738.73
559.86	1820.64
560.06	1697.77
560.26	1714.15
560.45	1781.73
560.65	1730.53
560.84	1865.70
561.04	1781.73
561.24	1787.88
561.43	1689.57
561.63	1806.31
561.82	1843.17
562.02	1718.25
562.22	1665.00
562.41	1665.00
562.61	1734.63
562.80	1642.47
563.00	1927.14
563.19	1765.35
563.39	1798.12
563.59	1753.06
563.78	1714.15
563.98	1648.61
564.17	1609.70
564.37	1615.85
564.56	1757.16
564.76	1716.20
564.96	1812.45
565.15	1710.05
565.35	1877.99
565.54	1775.59
565.74	1755.11
565.93	1853.41
566.13	1808.36
566.32	1736.68
566.52	1740.77
566.71	1714.15
566.91	1810.40
567.11	1699.81
567.30	1724.39
567.50	1841.12
567.69	1808.36
567.89	1697.77
568.08	1681.38
568.28	1791.97
568.47	1708.01
568.67	1791.97
568.86	1755.11
569.06	1826.79
569.25	1738.73
569.45	1796.07
569.64	1757.16
569.84	1640.42
570.04	1738.73
570.23	1710.05
570.43	1691.62
570.62	1781.73
570.82	1849.32
571.01	1712.10
571.21	1718.25
571.40	1726.44
571.60	1810.40
571.79	1761.25
571.99	1740.77
572.18	1734.63
572.38	1787.88
572.57	1738.73
572.77	1824.74
572.96	1970.15
573.16	1722.34
573.35	1791.97
573.55	1812.45
573.74	1724.39
573.94	1755.11
574.13	1689.57
574.33	1814.50
574.52	1806.31
574.71	1767.40
574.91	1693.67
575.10	1681.38
575.30	1732.58
575.49	1712.10
575.69	1714.15
575.88	1802.21
576.08	1755.11
576.27	1798.12
576.47	1812.45
576.66	1806.31
576.86	1841.12
577.05	1771.49
577.25	1806.31
577.44	1859.56
577.64	1632.23
577.83	1796.07
578.02	1685.48
578.22	1841.12
578.41	1867.75
578.61	1753.06
578.80	1744.87
579.00	1718.25
579.19	1824.74
579.39	1810.40
579.58	1812.45
579.77	1720.29
579.97	1701.86
580.16	1869.80
580.36	1810.40
580.55	1822.69
580.75	1751.01
580.94	1734.63
581.13	1824.74
581.33	1857.51
581.52	1757.16
581.72	1861.60
581.91	1859.56
582.11	1775.59
582.30	1728.49
582.49	1712.10
582.69	1810.40
582.88	1812.45
583.08	1744.87
583.27	1847.27
583.47	1693.67
583.66	1755.11
583.85	1755.11
584.05	1783.78
584.24	1900.52
584.44	1763.30
584.63	1837.03
584.82	1892.32
585.02	1761.25
585.21	1857.51
585.41	1849.32
585.60	1816.55
585.79	1970.15
585.99	1957.86
586.18	1875.94
586.37	2230.24
586.57	3286.99
586.76	9998.18
586.96	24278.67
587.15	33744.38
587.34	39820.70
587.54	41414.02
587.73	35982.81
587.93	25706.10
588.12	21276.35
588.31	17782.51
588.51	16084.75
588.70	14999.32
588.89	13846.32
589.09	12345.16
589.28	10831.71
589.47	9301.87
589.67	7849.86
589.86	6522.78
590.06	4796.34
590.25	3889.09
590.44	3080.14
590.64	2527.19
590.83	2301.92
591.02	2136.03
591.22	2015.20
591.41	1869.80
591.60	1886.18
591.80	2035.68
591.99	1789.92
592.18	1808.36
592.38	1761.25
592.57	1708.01
592.76	1785.83
592.96	1877.99
593.15	1757.16
593.34	1853.41
593.54	1787.88
593.73	1826.79
593.92	1763.30
594.12	1796.07
594.31	1685.48
594.50	1855.46
594.70	1822.69
594.89	1925.09
595.08	1681.38
595.28	1804.26
595.47	1910.75
595.66	1722.34
595.86	1693.67
596.05	1748.97
596.24	1714.15
596.43	1828.84
596.63	1812.45
596.82	1746.92
597.01	1800.16
597.21	1800.16
597.40	1828.84
597.59	1771.49
597.79	1693.67
597.98	1828.84
598.17	1718.25
598.36	1757.16
598.56	1763.30
598.75	1687.53
598.94	1726.44
599.14	1703.91
599.33	1767.40
599.52	1830.88
599.71	1834.98
599.91	1742.82
600.10	1769.44
600.29	1738.73
600.48	1812.45
600.68	1734.63
600.87	1796.07
601.06	1808.36
601.26	1675.24
601.45	1785.83
601.64	1744.87
601.83	1806.31
602.03	1675.24
602.22	1669.09
602.41	1773.54
602.60	1912.80
602.80	1791.97
602.99	1839.08
603.18	1669.09
603.37	1734.63
603.57	1808.36
603.76	1820.64
603.95	1763.30
604.14	1718.25
604.34	1726.44
604.53	1779.68
604.72	1767.40
604.91	1746.92
605.10	1710.05
605.30	1644.52
605.49	1880.04
605.68	1775.59
605.87	1804.26
606.07	1742.82
606.26	1824.74
606.45	1748.97
606.64	1785.83
606.84	1677.29
607.03	1767.40
607.22	1740.77
607.41	1691.62
607.60	1675.24
607.80	1785.83
607.99	1710.05
608.18	1695.72
608.37	1738.73
608.56	1708.01
608.76	1808.36
608.95	1769.44
609.14	1779.68
609.33	1777.64
609.52	1818.60
609.72	1703.91
609.91	1808.36
610.10	1738.73
610.29	1877.99
610.48	1744.87
610.68	1767.40
610.87	1716.20
611.06	1781.73
611.25	1734.63
611.44	1777.64
611.63	1685.48
611.83	1789.92
612.02	1675.24
612.21	1816.55
612.40	1728.49
612.59	1718.25
612.79	1685.48
612.98	1726.44
613.17	1849.32
613.36	1746.92
613.55	1832.93
613.74	1697.77
613.93	1761.25
614.13	1701.86
614.32	1832.93
614.51	1796.07
614.70	1693.67
614.89	1689.57
615.08	1712.10
615.28	2039.78
615.47	1722.34
615.66	1701.86
615.85	1757.16
616.04	1830.88
616.23	1800.16
616.42	1675.24
616.62	1722.34
616.81	1712.10
617.00	1785.83
617.19	1761.25
617.38	1687.53
617.57	1720.29
617.76	1648.61
617.95	1808.36
618.15	1744.87
618.34	1853.41
618.53	1679.33
618.72	1775.59
618.91	1791.97
619.10	1834.98
619.29	1720.29
619.48	1714.15
619.68	1701.86
619.87	1746.92
620.06	1630.18
620.25	1742.82
620.44	1673.19
620.63	1701.86
620.82	1652.71
621.01	1828.84
621.20	1665.00
621.39	1746.92
621.59	1746.92
621.78	1753.06
621.97	1804.26
622.16	1859.56
622.35	1734.63
622.54	1785.83
622.73	1726.44
622.92	1607.66
623.11	1863.65
623.30	1738.73
623.49	1822.69
623.68	1738.73
623.88	1785.83
624.07	1683.43
624.26	1753.06
624.45	1775.59
624.64	1738.73
624.83	1724.39
625.02	1703.91
625.21	1691.62
625.40	1712.10
625.59	1783.78
625.78	1701.86
625.97	1771.49
626.16	1773.54
626.35	1789.92
626.54	1738.73
626.74	1824.74
626.93	1757.16
627.12	1677.29
627.31	1789.92
627.50	1810.40
627.69	1796.07
627.88	1628.14
628.07	1771.49
628.26	1708.01
628.45	1671.14
628.64	1757.16
628.83	1777.64
629.02	1718.25
629.21	1822.69
629.40	1832.93
629.59	1675.24
629.78	1708.01
629.97	1718.25
630.16	1708.01
630.35	1757.16
630.54	1730.53
630.73	1671.14
630.92	1720.29
631.11	1662.95
631.30	1746.92
631.49	1769.44
631.68	1746.92
631.87	1734.63
632.06	1765.35
632.25	1839.08
632.44	1646.57
632.63	1738.73
632.82	1634.28
633.01	1687.53
633.20	1701.86
633.39	1673.19
633.58	1648.61
633.77	1759.21
633.96	1746.92
634.15	1697.77
634.34	1777.64
634.53	1751.01
634.72	1691.62
634.91	1636.33
635.10	1708.01
635.29	1769.44
635.48	1767.40
635.67	1708.01
635.86	1597.42
636.05	1800.16
636.24	1648.61
636.43	1693.67
636.62	1796.07
636.81	1613.80
637.00	1742.82
637.19	1710.05
637.38	1734.63
637.57	1765.35
637.76	1722.34
637.95	1732.58
638.14	1636.33
638.33	1710.05
638.52	1693.67
638.71	1708.01
638.89	1589.22
639.08	1857.51
639.27	1783.78
639.46	1689.57
639.65	1824.74
639.84	1787.88
640.03	1746.92
640.22	1656.81
640.41	1839.08
640.60	1624.04
640.79	1687.53
640.98	1771.49
641.17	1785.83
641.36	1708.01
641.55	1779.68
641.74	1558.50
641.92	1673.19
642.11	1771.49
642.30	1673.19
642.49	1654.76
642.68	1746.92
642.87	1826.79
643.06	1740.77
643.25	1644.52
643.44	1665.00
643.63	1697.77
643.82	1662.95
644.00	1654.76
644.19	1705.96
644.38	1628.14
644.57	1716.20
644.76	1716.20
644.95	1730.53
645.14	1753.06
645.33	1638.38
645.52	1701.86
645.71	1626.09
645.89	1636.33
646.08	1738.73
646.27	1683.43
646.46	1839.08
646.65	1572.84
646.84	1708.01
647.03	1677.29
647.22	1789.92
647.40	1695.72
647.59	1691.62
647.78	1716.20
647.97	1648.61
648.16	1648.61
648.35	1779.68
648.54	1769.44
648.73	1703.91
648.91	1746.92
649.10	1765.35
649.29	1699.81
649.48	1695.72
649.67	1736.68
649.86	1701.86
650.05	1646.57
650.23	1753.06
650.42	1681.38
650.61	1800.16
650.80	1796.07
650.99	1763.30
651.18	1740.77
651.36	1800.16
651.55	1718.25
651.74	1746.92
651.93	1691.62
652.12	1673.19
652.31	1746.92
652.49	1728.49
652.68	1759.21
652.87	1775.59
653.06	1779.68
653.25	1857.51
653.44	1726.44
653.62	1918.95
653.81	1740.77
654.00	1734.63
654.19	1828.84
654.38	1849.32
654.56	1755.11
654.75	1714.15
654.94	1765.35
655.13	1773.54
655.32	1708.01
655.51	1720.29
655.69	1660.90
655.88	1804.26
656.07	1689.57
656.26	1783.78
656.45	1677.29
656.63	1746.92
656.82	1740.77
657.01	1755.11
657.20	1708.01
657.38	1791.97
657.57	1681.38
657.76	1591.27
657.95	1740.77
658.14	1712.10
658.32	1759.21
658.51	1665.00
658.70	1667.05
658.89	1734.63
659.08	1748.97
659.26	1863.65
659.45	1669.09
659.64	1812.45
659.83	1695.72
660.01	1857.51
660.20	1699.81
660.39	1791.97
660.58	1607.66
660.76	1759.21
660.95	1683.43
661.14	1658.85
661.33	1640.42
661.51	1757.16
661.70	1705.96
661.89	1798.12
662.08	1736.68
662.26	1613.80
662.45	1716.20
662.64	1859.56
662.83	1826.79
663.01	1570.79
663.20	1722.34
663.39	1853.41
663.58	1660.90
663.76	1697.77
663.95	1814.50
664.14	1736.68
664.32	1695.72
664.51	1699.81
664.70	1574.89
664.89	1783.78
665.07	1634.28
665.26	1828.84
665.45	1720.29
665.64	1761.25
665.82	1771.49
666.01	1796.07
666.20	1644.52
666.38	1783.78
666.57	1869.80
666.76	2244.57
666.95	4503.48
667.13	10282.85
667.32	15095.58
667.51	17393.40
667.69	18892.51
667.88	17393.40
668.07	12189.51
668.25	9353.07
668.44	8077.19
668.63	7229.33
668.81	6770.58
669.00	6203.30
669.19	5515.18
669.38	4976.56
669.56	4556.73
669.75	4059.07
669.94	3334.09
670.12	2861.01
670.31	2535.39
670.50	2258.91
670.68	2074.59
670.87	1951.71
671.06	1802.21
671.24	1769.44
671.43	1900.52
671.62	1691.62
671.80	1769.44
671.99	1769.44
672.18	1693.67
672.36	1806.31
672.55	1791.97
672.74	1748.97
672.92	1746.92
673.11	1822.69
673.29	1658.85
673.48	1753.06
673.67	1726.44
673.85	1871.84
674.04	1695.72
674.23	1679.33
674.41	1830.88
674.60	1683.43
674.79	1607.66
674.97	1640.42
675.16	1740.77
675.34	1775.59
675.53	1720.29
675.72	1791.97
675.90	1800.16
676.09	1703.91
676.28	1751.01
676.46	1642.47
676.65	1791.97
676.83	1693.67
677.02	1730.53
677.21	1789.92
677.39	1708.01
677.58	1724.39
677.77	1662.95
677.95	1757.16
678.14	1771.49
678.32	1775.59
678.51	1591.27
678.70	1877.99
678.88	1697.77
679.07	1828.84
679.25	1757.16
679.44	1722.34
679.63	1660.90
679.81	1587.18
680.00	1759.21
680.18	1765.35
680.37	1791.97
680.55	1734.63
680.74	1593.32
680.93	1628.14
681.11	1794.02
681.30	1730.53
681.48	1744.87
681.67	1683.43
681.85	1730.53
682.04	1697.77
682.23	1708.01
682.41	1660.90
682.60	1677.29
682.78	1767.40
682.97	1689.57
683.15	1675.24
683.34	1724.39
683.53	1753.06
683.71	1691.62
683.90	1810.40
684.08	1759.21
684.27	1644.52
684.45	1789.92
684.64	1896.42
684.82	1615.85
685.01	1691.62
685.19	1757.16
685.38	1798.12
685.57	1691.62
685.75	1722.34
685.94	1738.73
686.12	1677.29
686.31	1736.68
686.49	1822.69
686.68	1642.47
686.86	1751.01
687.05	1746.92
687.23	1787.88
687.42	1716.20
687.60	1681.38
687.79	1814.50
687.97	1880.04
688.16	1783.78
688.34	1865.70
688.53	1650.66
688.71	1730.53
688.90	1722.34
689.08	1755.11
689.27	1640.42
689.45	1816.55
689.64	1728.49
689.82	1724.39
690.01	1699.81
690.19	1740.77
690.38	1644.52
690.56	1751.01
690.75	1693.67
690.93	1718.25
691.12	1644.52
691.30	1687.53
691.49	1650.66
691.67	1740.77
691.86	1843.17
692.04	1701.86
692.23	1693.67
692.41	1767.40
692.60	1873.89
692.78	1746.92
692.97	1738.73
693.15	1689.57
693.34	1808.36
693.52	1796.07
693.71	1669.09
693.89	1636.33
694.08	1556.46
694.26	1804.26
694.44	1744.87
694.63	1767.40
694.81	1665.00
695.00	1744.87
695.18	1787.88
695.37	1865.70
695.55	1781.73
695.74	1734.63
695.92	1681.38
696.10	1748.97
696.29	1650.66
696.47	1677.29
696.66	1665.00
696.84	1691.62
697.03	1693.67
697.21	1859.56
697.40	2371.55
697.58	1767.40
697.76	1742.82
697.95	1648.61
698.13	1681.38
698.32	1677.29
698.50	1734.63
698.68	1697.77
698.87	1720.29
699.05	1783.78
699.24	1669.09
699.42	1642.47
699.61	1638.38
699.79	1763.30
699.97	1636.33
700.16	1654.76
700.34	1640.42
700.53	1693.67
700.71	1851.36
700.89	1755.11
701.08	1765.35
701.26	1777.64
701.45	2152.42
701.63	1691.62
701.81	1703.91
702.00	1636.33
702.18	1658.85
702.37	1703.91
702.55	1699.81
702.73	1718.25
702.92	1642.47
703.10	1787.88
703.28	1753.06
703.47	1693.67
703.65	1800.16
703.84	1783.78
704.02	1683.43
704.20	1814.50
704.39	1697.77
704.57	1652.71
704.75	1863.65
704.94	1779.68
705.12	1683.43
705.30	1787.88
705.49	2220.00
705.67	4390.84
705.86	9279.35
706.04	12193.61
706.22	14237.48
706.41	15025.95
706.59	13618.99
706.77	9486.19
706.96	7389.07
707.14	6571.93
707.32	5885.86
707.51	5636.01
707.69	4876.21
707.87	4093.89
708.06	3461.07
708.24	2944.98
708.42	2402.27
708.61	2199.52
708.79	1853.41
708.97	1886.18
709.16	1828.84
709.34	1763.30
709.52	1673.19
709.71	1757.16
709.89	1769.44
710.07	1669.09
710.26	1624.04
710.44	1712.10
710.62	1857.51
710.80	1687.53
710.99	1798.12
711.17	1839.08
711.35	1701.86
711.54	1667.05
711.72	1779.68
711.90	1796.07
712.09	1734.63
712.27	1687.53
712.45	1771.49
712.63	1648.61
712.82	1689.57
713.00	1730.53
713.18	1779.68
713.37	1693.67
713.55	1814.50
713.73	1691.62
713.91	1804.26
714.10	1679.33
714.28	1775.59
714.46	1794.02
714.65	1748.97
714.83	1667.05
715.01	1652.71
715.19	1691.62
715.38	1767.40
715.56	1751.01
715.74	1550.31
715.92	1708.01
716.11	1712.10
716.29	1665.00
716.47	1685.48
716.65	1656.81
716.84	1632.23
717.02	1785.83
717.20	1673.19
717.38	1730.53
717.57	1683.43
717.75	1691.62
717.93	1701.86
718.11	1679.33
718.30	1658.85
718.48	1742.82
718.66	1726.44
718.84	1771.49
719.03	1722.34
719.21	1554.41
719.39	1886.18
719.57	1755.11
719.75	1820.64
719.94	1671.14
720.12	1685.48
720.30	1761.25
720.48	1773.54
720.67	1665.00
720.85	1638.38
721.03	1751.01
721.21	1732.58
721.39	1810.40
721.58	1753.06
721.76	1726.44
721.94	1714.15
722.12	1734.63
722.30	1726.44
722.49	1693.67
722.67	1728.49
722.85	1703.91
723.03	1724.39
723.21	1671.14
723.40	1814.50
723.58	1779.68
723.76	1662.95
723.94	1839.08
724.12	1669.09
724.30	1791.97
724.49	1759.21
724.67	1675.24
724.85	1812.45
725.03	1607.66
725.21	1693.67
725.40	1675.24
725.58	1599.46
725.76	1828.84
725.94	1712.10
726.12	1705.96
726.30	1744.87
726.49	1701.86
726.67	1703.91
726.85	1699.81
727.03	1812.45
727.21	2269.15
727.39	2908.12
727.57	3794.89
727.76	4224.96
727.94	4425.66
728.12	4360.13
728.30	3596.23
728.48	2904.02
728.66	2666.46
728.84	2535.39
729.03	2265.05
729.21	2117.60
729.39	1941.47
729.57	1918.95
729.75	1816.55
729.93	1927.14
730.11	1695.72
730.30	1726.44
730.48	1699.81
730.66	1812.45
730.84	1787.88
731.02	1679.33
731.20	1685.48
731.38	1732.58
731.56	1675.24
731.74	1638.38
731.93	1742.82
732.11	1738.73
732.29	1660.90
732.47	1800.16
732.65	1759.21
732.83	1779.68
733.01	1683.43
733.19	1650.66
733.37	1765.35
733.56	1705.96
733.74	1710.05
733.92	1777.64
734.10	1738.73
734.28	1744.87
734.46	1554.41
734.64	1710.05
734.82	1708.01
735.00	1599.46
735.18	1665.00
735.36	1746.92
735.54	1640.42
735.73	1705.96
735.91	1724.39
736.09	1804.26
736.27	1634.28
736.45	1705.96
736.63	1611.75
736.81	1705.96
736.99	1808.36
737.17	1898.47
737.35	1648.61
737.53	1763.30
737.71	1714.15
737.89	1804.26
738.07	1697.77
738.25	1728.49
738.43	1658.85
738.61	1736.68
738.80	1720.29
738.98	1755.11
739.16	1716.20
739.34	1667.05
739.52	1730.53
739.70	1662.95
739.88	1650.66
740.06	1841.12
740.24	1589.22
740.42	1765.35
740.60	1605.61
740.78	1703.91
740.96	1660.90
741.14	1763.30
741.32	1687.53
741.50	1632.23
741.68	1871.84
741.86	1808.36
742.04	1613.80
742.22	1658.85
742.40	1736.68
742.58	1714.15
742.76	1724.39
742.94	1771.49
743.12	1630.18
743.30	1732.58
743.48	1800.16
743.66	1673.19
743.84	1734.63
744.02	1685.48
744.20	1693.67
744.38	1744.87
744.56	1654.76
744.74	1744.87
744.92	1714.15
745.10	1802.21
745.28	1771.49
745.46	1814.50
745.64	1746.92
745.82	1763.30
746.00	1765.35
746.18	1695.72
746.36	1658.85
746.54	1748.97
746.72	1685.48
746.90	1701.86
747.08	1802.21
747.26	1667.05
747.44	1785.83
747.62	1730.53
747.80	1636.33
747.98	1837.03
748.15	1665.00
748.33	1898.47
748.51	1722.34
748.69	1763.30
748.87	1767.40
749.05	1669.09
749.23	1708.01
749.41	1775.59
749.59	1667.05
749.77	1751.01
749.95	1699.81
750.13	1634.28
750.31	1746.92
750.49	1685.48
750.67	1769.44
750.85	1763.30
751.03	1701.86
751.20	1865.70
751.38	1738.73
751.56	1665.00
751.74	1785.83
751.92	1611.75
752.10	1726.44
752.28	1769.44
752.46	1624.04
752.64	1689.57
752.82	1710.05
753.00	1699.81
753.18	1660.90
753.35	1736.68
753.53	1708.01
753.71	1656.81
753.89	1814.50
754.07	1734.63
754.25	1615.85
754.43	1728.49
754.61	1667.05
754.79	1691.62
754.97	1746.92
755.14	1843.17
755.32	1726.44
755.50	1662.95
755.68	1738.73
755.86	1673.19
756.04	1699.81
756.22	1673.19
756.40	1728.49
756.57	1785.83
756.75	1691.62
756.93	1755.11
757.11	1791.97
757.29	1665.00
757.47	1712.10
757.65	1568.74
757.82	1681.38
758.00	1669.09
758.18	1601.51
758.36	1667.05
758.54	1888.23
758.72	1665.00
758.90	1820.64
759.07	1671.14
759.25	1708.01
759.43	1730.53
759.61	1673.19
759.79	2250.72
759.97	1824.74
760.15	1722.34
760.32	1679.33
760.50	1789.92
760.68	1761.25
760.86	1693.67
761.04	1693.67
761.22	1720.29
761.39	1724.39
761.57	1796.07
761.75	1648.61
761.93	1734.63
762.11	1683.43
762.28	1673.19
762.46	1652.71
762.64	1699.81
762.82	1695.72
763.00	1744.87
763.18	1894.37
763.35	1640.42
763.53	1783.78
763.71	1679.33
763.89	1763.30
764.07	1630.18
764.24	1615.85
764.42	1789.92
764.60	1757.16
764.78	1665.00
764.96	1693.67
765.13	1800.16
765.31	1734.63
765.49	1724.39
765.67	1621.99
765.84	1726.44
766.02	1599.46
766.20	1636.33
766.38	1693.67
766.56	1763.30
766.73	1656.81
766.91	1646.57
767.09	1708.01
767.27	1648.61
767.44	1697.77
767.62	1746.92
767.80	1781.73
767.98	1681.38
768.15	1691.62
768.33	1775.59
768.51	1757.16
768.69	1732.58
768.87	1701.86
769.04	1763.30
769.22	1884.13
769.40	1861.60
769.58	1867.75
769.75	1832.93
769.93	1779.68
770.11	1736.68
770.28	1660.90
770.46	1697.77
770.64	1667.05
770.82	1677.29
770.99	1667.05
771.17	1779.68
771.35	1708.01
771.53	1683.43
771.70	1732.58
771.88	1703.91
772.06	1738.73
772.23	1759.21
772.41	1781.73
772.59	1710.05
772.77	1712.10
772.94	1708.01
773.12	1699.81
773.30	1710.05
773.47	1648.61
773.65	1652.71
773.83	1804.26
774.01	1654.76
774.18	1648.61
774.36	1693.67
774.54	1646.57
774.71	1703.91
774.89	1662.95
775.07	1609.70
775.24	1603.56
775.42	1722.34
775.60	1861.60
775.78	1703.91
775.95	1605.61
776.13	1636.33
776.31	1609.70
776.48	1699.81
776.66	1820.64
776.84	1673.19
777.01	1640.42
777.19	1734.63
777.37	1689.57
777.54	1701.86
777.72	1812.45
777.90	1730.53
778.07	1656.81
778.25	1916.90
778.43	1828.84
778.60	1660.90
778.78	1697.77
778.96	1820.64
779.13	1669.09
779.31	1834.98
779.49	1753.06
779.66	1691.62
779.84	1693.67
780.01	1773.54
780.19	1691.62
780.37	1761.25
780.54	1734.63
780.72	1665.00
780.90	1720.29
781.07	1722.34
781.25	1658.85
781.43	1830.88
781.60	1675.24
781.78	1705.96
781.95	1665.00
782.13	1642.47
782.31	1683.43
782.48	1554.41
782.66	1646.57
782.83	1767.40
783.01	1779.68
783.19	1738.73
783.36	1705.96
783.54	1683.43
783.72	1740.77
783.89	1658.85
784.07	1646.57
784.24	1705.96
784.42	1753.06
784.60	1746.92
784.77	1689.57
784.95	1564.65
785.12	1634.28
785.30	1761.25
785.47	1632.23
785.65	1650.66
785.83	1667.05
786.00	1697.77
786.18	1681.38
786.35	1613.80
786.53	1617.90
786.71	1738.73
786.88	1740.77
787.06	1738.73
787.23	1771.49
787.41	1724.39
787.58	1665.00
787.76	1662.95
787.94	1730.53
788.11	1816.55
788.29	1650.66
788.46	1689.57
788.64	1652.71
788.81	1736.68
788.99	1669.09
789.16	1720.29
789.34	1683.43
789.52	1699.81
789.69	1716.20
789.87	1640.42
790.04	1736.68
790.22	1685.48
790.39	1855.46
790.57	1732.58
790.74	1587.18
790.92	1769.44
791.09	1585.13
791.27	1718.25
791.44	1871.84
791.62	1720.29
791.79	1787.88
791.97	1753.06
792.15	1875.94
792.32	1730.53
792.50	1755.11
792.67	1875.94
792.85	1779.68
793.02	1787.88
793.20	1679.33
793.37	1650.66
793.55	1705.96
793.72	1593.32
793.90	1800.16
794.07	1687.53
794.25	1652.71
794.42	1732.58
794.60	1730.53
794.77	1669.09
794.95	1705.96
795.12	1781.73
795.30	1728.49
795.47	1615.85
795.65	1861.60
795.82	1730.53
796.00	1679.33
796.17	1595.37
796.34	1712.10
796.52	1748.97
796.69	1746.92
796.87	1751.01
797.04	1693.67
797.22	1779.68
797.39	1714.15
797.57	1697.77
797.74	1693.67
797.92	1816.55
798.09	1689.57
798.27	1773.54
798.44	1681.38
798.62	1675.24
798.79	1671.14
798.96	1710.05
799.14	1722.34
799.31	1849.32
799.49	1761.25
799.66	1644.52
799.84	1712.10
800.01	1650.66
800.19	1705.96
800.36	1605.61
800.53	1779.68
800.71	1701.86
800.88	1794.02
801.06	1742.82
801.23	1667.05
801.41	1675.24
801.58	1665.00
801.75	1624.04
801.93	1763.30
802.10	1787.88
802.28	1734.63
802.45	1689.57
802.63	1710.05
802.80	1763.30
802.97	1720.29
803.15	1740.77
803.32	1726.44
803.50	1671.14
803.67	1683.43
803.84	1669.09
804.02	1671.14
804.19	1746.92
804.37	1525.74
804.54	1660.90
804.71	1806.31
804.89	1828.84
805.06	1662.95
805.24	1691.62
805.41	1675.24
805.58	1705.96
805.76	1798.12
805.93	1726.44
806.10	1736.68
806.28	1787.88
806.45	1701.86
806.63	1763.30
806.80	1656.81
806.97	1806.31
807.15	1726.44
807.32	1724.39
807.49	1656.81
807.67	1591.27
807.84	1742.82
808.01	1605.61
808.19	1849.32
808.36	1794.02
808.54	1667.05
808.71	1687.53
808.88	1748.97
809.06	1738.73
809.23	1828.84
809.40	1619.94
809.58	1736.68
809.75	1705.96
809.92	1667.05
810.10	1777.64
810.27	1656.81
810.44	1720.29
810.62	1763.30
810.79	1734.63
810.96	1761.25
811.14	1636.33
811.31	1708.01
811.48	1667.05
811.66	1599.46
811.83	1753.06
812.00	1746.92
812.18	1728.49
812.35	1804.26
812.52	1646.57
812.69	1673.19
812.87	1699.81
813.04	1689.57
813.21	1712.10
813.39	1730.53
813.56	1615.85
813.73	1771.49
813.91	1656.81
814.08	1705.96
814.25	1773.54
814.42	1617.90
814.60	1650.66
814.77	1746.92
814.94	1703.91
815.12	1691.62
815.29	1775.59
815.46	1628.14
815.63	1703.91
815.81	1689.57
815.98	1718.25
816.15	1722.34
816.33	1720.29
816.50	1632.23
816.67	1667.05
816.84	1763.30
817.02	1708.01
817.19	1619.94
817.36	1667.05
817.53	1791.97
817.71	1660.90
817.88	1718.25
818.05	1681.38
818.22	1716.20
818.40	1785.83
818.57	1644.52
818.74	1691.62
818.91	1710.05
819.09	1787.88
819.26	1800.16
819.43	1646.57
819.60	1642.47
819.78	1685.48
819.95	1763.30
820.12	1748.97
820.29	1773.54
820.47	1730.53
820.64	1650.66
820.81	1660.90
820.98	1636.33
821.15	1654.76
821.33	1722.34
821.50	1710.05
821.67	1724.39
821.84	1662.95
822.02	1722.34
822.19	1796.07
822.36	1654.76
822.53	1578.98
822.70	1669.09
822.88	1644.52
823.05	1853.41
823.22	1724.39
823.39	1771.49
823.56	1759.21
823.74	1820.64
823.91	1617.90
824.08	1697.77
824.25	1615.85
824.42	1783.78
824.60	1628.14
824.77	1742.82
824.94	1654.76
825.11	1740.77
825.28	1568.74
825.45	1697.77
825.63	1621.99
825.80	1646.57
825.97	1701.86
826.14	1748.97
826.31	1656.81
826.48	1761.25
826.66	1630.18
826.83	1740.77
827.00	1705.96
827.17	1583.08
827.34	1669.09
827.51	1671.14
827.69	1662.95
827.86	1621.99
828.03	1699.81
828.20	1658.85
828.37	1669.09
828.54	1722.34
828.71	1669.09
828.89	1837.03
829.06	1656.81
829.23	1781.73
829.40	1662.95
829.57	1734.63
829.74	1710.05
829.91	1634.28
830.09	1654.76
830.26	1693.67
830.43	1796.07
830.60	1681.38
830.77	1804.26
830.94	1718.25
831.11	1763.30
831.28	1736.68
831.46	1767.40
831.63	1689.57
831.80	1769.44
831.97	1761.25
832.14	1728.49
832.31	1771.49
832.48	1740.77
832.65	1718.25
832.82	1665.00
832.99	1673.19
833.17	1619.94
833.34	1761.25
833.51	1769.44
833.68	1658.85
833.85	1755.11
834.02	1681.38
834.19	1636.33
834.36	1667.05
834.53	1710.05
834.70	1800.16
834.87	1730.53
835.04	1814.50
835.22	1685.48
835.39	1550.31
835.56	1648.61
835.73	1703.91
835.90	1789.92
836.07	1693.67
836.24	1769.44
836.41	1619.94
836.58	1714.15
836.75	1798.12
836.92	1740.77
837.09	1671.14
837.26	1775.59
837.43	1730.53
837.60	1687.53
837.77	1718.25
837.94	1691.62
838.12	1798.12
838.29	1779.68
838.46	1593.32
838.63	1660.90
838.80	1816.55
838.97	1824.74
839.14	1703.91
839.31	1705.96
839.48	1751.01
839.65	1785.83
839.82	1689.57
839.99	1746.92
840.16	1763.30
840.33	1671.14
840.50	1658.85
840.67	1617.90
840.84	1576.94
841.01	1720.29
841.18	1636.33
841.35	1728.49
841.52	1812.45
841.69	1898.47
841.86	1669.09
842.03	1726.44
842.20	1746.92
842.37	1644.52
842.54	1712.10
842.71	1640.42
842.88	1511.40
843.05	1714.15
843.22	1687.53
843.39	1767.40
843.56	1648.61
843.73	1697.77
843.90	1759.21
844.07	1740.77
844.24	1779.68
844.41	1763.30
844.58	1722.34
844.75	1718.25
844.92	1730.53
845.09	1683.43
845.26	1685.48
845.43	1748.97
845.60	1734.63
845.77	1777.64
845.94	1595.37
846.10	1724.39
846.27	1685.48
846.44	1667.05
846.61	1675.24
846.78	1644.52
846.95	1787.88
847.12	1644.52
847.29	1701.86
847.46	1681.38
847.63	1816.55
847.80	1654.76
847.97	1683.43
848.14	1869.80
848.31	1732.58
848.48	1652.71
848.65	1796.07
848.82	1712.10
848.98	1744.87
849.15	1697.77
849.32	1738.73
849.49	1701.86
849.66	1722.34
849.83	1742.82
850.00	1716.20
850.17	1720.29
850.34	1734.63
850.51	1632.23
850.68	1662.95
850.85	1824.74
851.01	1732.58
851.18	1744.87
851.35	1697.77
851.52	1738.73
851.69	1849.32
851.86	1626.09
852.03	1742.82
852.20	1806.31
852.37	1740.77
852.53	1605.61
852.70	1798.12
852.87	1708.01
853.04	1738.73
853.21	1751.01
853.38	1783.78
853.55	1748.97
853.72	1830.88
853.89	1654.76
854.05	1679.33
854.22	1662.95
854.39	1759.21
854.56	1689.57
854.73	1732.58
854.90	1693.67
855.07	1720.29
855.23	1662.95
855.40	1712.10
855.57	1720.29
855.74	1542.12
855.91	1861.60
856.08	1574.89
856.25	1632.23
856.41	1685.48
856.58	1681.38
856.75	1771.49
856.92	1675.24
857.09	1775.59
857.26	1601.51
857.42	1638.38
857.59	1789.92
857.76	1677.29
857.93	1722.34
858.10	1746.92
858.27	1714.15
858.43	1794.02
858.60	1671.14
858.77	1611.75
858.94	1675.24
859.11	1826.79
859.27	1646.57
859.44	1656.81
859.61	1851.36
859.78	1787.88
859.95	1759.21
860.12	1681.38
860.28	1736.68
860.45	1820.64
860.62	1634.28
860.79	1679.33
860.95	1699.81
861.12	1634.28
861.29	1632.23
861.46	1712.10
861.63	1728.49
861.79	1648.61
861.96	1611.75
862.13	1703.91
862.30	1785.83
862.47	1601.51
862.63	1624.04
862.80	1773.54
862.97	1755.11
863.14	1699.81
863.30	1681.38
863.47	1724.39
863.64	1791.97
863.81	1773.54
863.97	1662.95
864.14	1867.75
864.31	1710.05
864.48	1705.96
864.65	1642.47
864.81	1685.48
864.98	1716.20
865.15	1671.14
865.32	1712.10
865.48	1671.14
865.65	1865.70
865.82	1701.86
865.98	1718.25
866.15	1724.39
866.32	1710.05
866.49	1710.05
866.65	1787.88
866.82	1716.20
866.99	1730.53
867.16	1718.25
867.32	1671.14
867.49	1671.14
867.66	1751.01
867.83	1683.43
867.99	1683.43
868.16	1669.09
868.33	1624.04
868.49	1734.63
868.66	1708.01
868.83	1779.68
868.99	1683.43
869.16	1687.53
869.33	1738.73
869.50	1732.58
869.66	1712.10
869.83	1728.49
870.00	1621.99
870.16	1697.77
870.33	1722.34
870.50	1800.16
870.66	1726.44
870.83	1861.60
871.00	1660.90
871.17	1714.15
871.33	1763.30
871.50	1683.43
871.67	1701.86
871.83	1621.99
872.00	1791.97
872.17	1628.14
872.33	1808.36
872.50	1697.77
872.67	1724.39
872.83	1671.14
873.00	1755.11
873.17	1679.33
873.33	1671.14
873.50	1638.38
873.67	1613.80
873.83	1691.62
874.00	1689.57
874.16	1755.11
874.33	1679.33
874.50	1675.24
874.66	1714.15
874.83	1714.15
875.00	1738.73
875.16	1759.21
875.33	1716.20
875.50	1585.13
875.66	1660.90
875.83	1687.53
875.99	1708.01
876.16	1669.09
876.33	1621.99
876.49	1771.49
876.66	1689.57
876.83	1705.96
876.99	1642.47
877.16	1675.24
877.32	1724.39
877.49	1695.72
877.66	1798.12
877.82	1800.16
877.99	1703.91
878.15	1714.15
878.32	1736.68
878.49	1783.78
878.65	1658.85
878.82	1847.27
878.98	1669.09
879.15	1763.30
879.32	1720.29
879.48	1703.91
879.65	1775.59
879.81	1705.96
879.98	1697.77
880.15	1673.19
880.31	1736.68
880.48	1716.20
880.64	1834.98
880.81	1681.38
880.97	1841.12
881.14	1732.58
881.31	1656.81
881.47	1841.12
881.64	1714.15
881.80	1599.46
881.97	1755.11
882.13	1769.44
882.30	1675.24
882.47	1642.47
882.63	1660.90
882.80	1685.48
882.96	1685.48
883.13	1722.34
883.29	1769.44
883.46	1710.05
883.62	1789.92
883.79	1718.25
883.95	1761.25
884.12	1740.77
884.29	1746.92
884.45	1763.30
884.62	1810.40
884.78	1654.76
884.95	1781.73
885.11	1693.67
885.28	1736.68
885.44	1658.85
885.61	1748.97
885.77	1816.55
885.94	1683.43
886.10	1701.86
886.27	1634.28
886.43	1812.45
886.60	1748.97
886.76	1699.81
886.93	1665.00
887.09	1767.40
887.26	1646.57
887.42	1681.38
887.59	1720.29
887.75	1839.08
887.92	1849.32
888.08	1738.73
888.25	1787.88
888.41	1665.00
888.58	1800.16
888.74	1679.33
888.91	1662.95
>>>>>End Processed Spectral Data<<<<<
