SpectraSuite Data File
++++++++++++++++++++++++++++++++++++
Date: Mon Jun 06 17:04:17 CEST 2016
User: root
Dark Spectrum Present: No
Reference Spectrum Present: No
Number of Sampled Component Spectra: 1
Spectrometers: USB4C02835
Integration Time (usec): 100000 (USB4C02835)
Spectra Averaged: 1 (USB4C02835)
Boxcar Smoothing: 0 (USB4C02835)
Correct for Electrical Dark: No (USB4C02835)
Strobe/Lamp Enabled: No (USB4C02835)
Correct for Detector Non-linearity: No (USB4C02835)
Correct for Stray Light: No (USB4C02835)
Number of Pixels in Processed Spectrum: 3648
>>>>>Begin Processed Spectral Data<<<<<
177.47	1456.11
177.69	1456.11
177.91	1456.11
178.13	1447.91
178.36	1480.68
178.58	1685.48
178.80	1722.34
179.02	1648.61
179.24	1705.96
179.46	1693.67
179.68	1740.77
179.90	1671.14
180.13	1675.24
180.35	1665.00
180.57	1716.20
180.79	1787.88
181.01	1673.19
181.23	1775.59
181.45	1771.49
181.67	1685.48
181.90	1718.25
182.12	1660.90
182.34	1587.18
182.56	1720.29
182.78	1710.05
183.00	1742.82
183.22	1703.91
183.44	1597.42
183.66	1830.88
183.89	1798.12
184.11	1701.86
184.33	1726.44
184.55	1775.59
184.77	1744.87
184.99	1738.73
185.21	1689.57
185.43	1906.66
185.65	1736.68
185.87	1701.86
186.10	1859.56
186.32	1861.60
186.54	1767.40
186.76	1662.95
186.98	1796.07
187.20	1658.85
187.42	1703.91
187.64	1646.57
187.86	1714.15
188.08	1869.80
188.30	1726.44
188.52	1722.34
188.75	1742.82
188.97	1748.97
189.19	1613.80
189.41	1757.16
189.63	1791.97
189.85	1714.15
190.07	1642.47
190.29	1640.42
190.51	1779.68
190.73	1656.81
190.95	1800.16
191.17	1662.95
191.39	1660.90
191.61	1683.43
191.84	1724.39
192.06	1849.32
192.28	1621.99
192.50	1861.60
192.72	1714.15
192.94	1712.10
193.16	1763.30
193.38	1769.44
193.60	1685.48
193.82	1755.11
194.04	1736.68
194.26	1667.05
194.48	1714.15
194.70	1642.47
194.92	1683.43
195.14	1763.30
195.36	1689.57
195.58	1691.62
195.80	1697.77
196.02	1597.42
196.24	1718.25
196.46	1740.77
196.69	1671.14
196.91	1873.89
197.13	1708.01
197.35	1699.81
197.57	1818.60
197.79	1755.11
198.01	1652.71
198.23	1699.81
198.45	1683.43
198.67	1679.33
198.89	1671.14
199.11	1718.25
199.33	1726.44
199.55	1626.09
199.77	1703.91
199.99	1765.35
200.21	1648.61
200.43	1697.77
200.65	1624.04
200.87	1576.94
201.09	1767.40
201.31	1740.77
201.53	1814.50
201.75	1765.35
201.97	1726.44
202.19	1673.19
202.41	1718.25
202.63	1851.36
202.85	1748.97
203.07	1714.15
203.29	1679.33
203.51	1718.25
203.73	1667.05
203.95	1859.56
204.17	1693.67
204.39	1667.05
204.61	1712.10
204.83	1703.91
205.05	1767.40
205.27	1796.07
205.49	1808.36
205.71	1730.53
205.93	1654.76
206.15	1646.57
206.37	1720.29
206.59	1763.30
206.81	1656.81
207.03	1632.23
207.25	1656.81
207.47	1746.92
207.69	1705.96
207.91	1773.54
208.13	1736.68
208.34	1638.38
208.56	1714.15
208.78	1800.16
209.00	1675.24
209.22	1746.92
209.44	1662.95
209.66	1712.10
209.88	1667.05
210.10	1730.53
210.32	1701.86
210.54	1781.73
210.76	1634.28
210.98	1708.01
211.20	1628.14
211.42	1701.86
211.64	1718.25
211.86	1730.53
212.08	1744.87
212.30	1746.92
212.52	1642.47
212.74	1740.77
212.96	1734.63
213.17	1814.50
213.39	1744.87
213.61	1873.89
213.83	1742.82
214.05	1669.09
214.27	1732.58
214.49	1683.43
214.71	1710.05
214.93	1757.16
215.15	1740.77
215.37	1818.60
215.59	1638.38
215.81	1734.63
216.03	1857.51
216.24	1732.58
216.46	1673.19
216.68	1677.29
216.90	1789.92
217.12	1699.81
217.34	1734.63
217.56	1708.01
217.78	1761.25
218.00	1751.01
218.22	1695.72
218.44	1740.77
218.66	1718.25
218.87	1824.74
219.09	1712.10
219.31	1757.16
219.53	1718.25
219.75	1757.16
219.97	1703.91
220.19	1695.72
220.41	1738.73
220.63	1730.53
220.85	1763.30
221.06	1671.14
221.28	1787.88
221.50	1736.68
221.72	1720.29
221.94	1705.96
222.16	1734.63
222.38	1738.73
222.60	1763.30
222.82	1673.19
223.03	1771.49
223.25	1634.28
223.47	1695.72
223.69	1775.59
223.91	1697.77
224.13	1734.63
224.35	1658.85
224.57	1740.77
224.78	1779.68
225.00	1667.05
225.22	1679.33
225.44	1691.62
225.66	1667.05
225.88	1765.35
226.10	1808.36
226.32	1701.86
226.53	1808.36
226.75	1742.82
226.97	1748.97
227.19	1699.81
227.41	1675.24
227.63	1685.48
227.85	1673.19
228.06	1757.16
228.28	1658.85
228.50	1759.21
228.72	1609.70
228.94	1716.20
229.16	1648.61
229.37	1632.23
229.59	1746.92
229.81	1779.68
230.03	1736.68
230.25	1660.90
230.47	1632.23
230.69	1660.90
230.90	1841.12
231.12	1648.61
231.34	1705.96
231.56	1808.36
231.78	1656.81
232.00	1730.53
232.21	1781.73
232.43	1621.99
232.65	1626.09
232.87	1691.62
233.09	1665.00
233.30	1685.48
233.52	1767.40
233.74	1685.48
233.96	1685.48
234.18	1767.40
234.40	1656.81
234.61	1767.40
234.83	1677.29
235.05	1644.52
235.27	1898.47
235.49	1822.69
235.70	1716.20
235.92	1771.49
236.14	1734.63
236.36	1925.09
236.58	1638.38
236.79	1691.62
237.01	1687.53
237.23	1748.97
237.45	1781.73
237.67	1632.23
237.88	1753.06
238.10	1841.12
238.32	1634.28
238.54	1615.85
238.76	1775.59
238.97	1705.96
239.19	1679.33
239.41	1781.73
239.63	1753.06
239.85	1675.24
240.06	1683.43
240.28	1693.67
240.50	1742.82
240.72	1689.57
240.93	1705.96
241.15	1755.11
241.37	1689.57
241.59	1812.45
241.81	1677.29
242.02	1658.85
242.24	1777.64
242.46	1734.63
242.68	1691.62
242.89	1726.44
243.11	1779.68
243.33	1734.63
243.55	1658.85
243.76	1732.58
243.98	1634.28
244.20	1662.95
244.42	1710.05
244.64	1652.71
244.85	1642.47
245.07	1667.05
245.29	1695.72
245.51	1744.87
245.72	1744.87
245.94	1710.05
246.16	1703.91
246.38	1810.40
246.59	1699.81
246.81	1669.09
247.03	1648.61
247.24	1648.61
247.46	1621.99
247.68	1736.68
247.90	1636.33
248.11	1705.96
248.33	1761.25
248.55	1691.62
248.77	1646.57
248.98	1714.15
249.20	1824.74
249.42	1691.62
249.64	1761.25
249.85	1697.77
250.07	1665.00
250.29	1810.40
250.50	1673.19
250.72	1611.75
250.94	1701.86
251.16	1812.45
251.37	1789.92
251.59	1677.29
251.81	1675.24
252.02	1746.92
252.24	1656.81
252.46	1787.88
252.68	1638.38
252.89	1699.81
253.11	1724.39
253.33	1849.32
253.54	1779.68
253.76	1624.04
253.98	1746.92
254.20	1746.92
254.41	1648.61
254.63	1689.57
254.85	1632.23
255.06	1642.47
255.28	1730.53
255.50	1677.29
255.71	1634.28
255.93	1708.01
256.15	1656.81
256.36	1763.30
256.58	1621.99
256.80	1751.01
257.02	1720.29
257.23	1636.33
257.45	1736.68
257.67	1785.83
257.88	1724.39
258.10	1744.87
258.32	1634.28
258.53	1738.73
258.75	1845.22
258.97	1669.09
259.18	1773.54
259.40	1718.25
259.62	1787.88
259.83	1781.73
260.05	1699.81
260.27	1978.34
260.48	1775.59
260.70	1634.28
260.92	1769.44
261.13	1746.92
261.35	1673.19
261.57	1744.87
261.78	1630.18
262.00	1578.98
262.22	1816.55
262.43	1681.38
262.65	1697.77
262.86	1714.15
263.08	1832.93
263.30	1726.44
263.51	1636.33
263.73	1658.85
263.95	1740.77
264.16	1691.62
264.38	1656.81
264.60	1738.73
264.81	1679.33
265.03	1753.06
265.25	1738.73
265.46	1679.33
265.68	1812.45
265.89	1759.21
266.11	1624.04
266.33	1740.77
266.54	1808.36
266.76	1701.86
266.98	1746.92
267.19	1767.40
267.41	1783.78
267.62	1687.53
267.84	1626.09
268.06	1687.53
268.27	1757.16
268.49	1798.12
268.70	1826.79
268.92	1767.40
269.14	1701.86
269.35	1656.81
269.57	1724.39
269.79	1779.68
270.00	1642.47
270.22	1804.26
270.43	1632.23
270.65	1619.94
270.87	1624.04
271.08	1730.53
271.30	1689.57
271.51	1703.91
271.73	1742.82
271.95	1812.45
272.16	1701.86
272.38	1734.63
272.59	1644.52
272.81	1708.01
273.02	1699.81
273.24	1673.19
273.46	1746.92
273.67	1640.42
273.89	1660.90
274.10	1732.58
274.32	1769.44
274.54	1753.06
274.75	1689.57
274.97	1728.49
275.18	1740.77
275.40	1738.73
275.61	1714.15
275.83	1738.73
276.05	1654.76
276.26	1742.82
276.48	1714.15
276.69	1660.90
276.91	1705.96
277.12	1714.15
277.34	1765.35
277.55	1818.60
277.77	1738.73
277.99	1673.19
278.20	1691.62
278.42	1656.81
278.63	1714.15
278.85	1632.23
279.06	1650.66
279.28	1710.05
279.49	1710.05
279.71	1779.68
279.93	1671.14
280.14	1736.68
280.36	1679.33
280.57	1742.82
280.79	1841.12
281.00	1583.08
281.22	1650.66
281.43	1787.88
281.65	1603.56
281.86	1615.85
282.08	1757.16
282.29	1806.31
282.51	1615.85
282.73	1665.00
282.94	1673.19
283.16	1697.77
283.37	1765.35
283.59	1644.52
283.80	1701.86
284.02	1681.38
284.23	1691.62
284.45	1587.18
284.66	1693.67
284.88	1609.70
285.09	1800.16
285.31	1693.67
285.52	1759.21
285.74	1566.70
285.95	1740.77
286.17	1667.05
286.38	1771.49
286.60	1708.01
286.81	1714.15
287.03	1683.43
287.24	1732.58
287.46	1724.39
287.67	1665.00
287.89	1794.02
288.10	1716.20
288.32	1683.43
288.53	1806.31
288.75	1740.77
288.96	1794.02
289.18	1654.76
289.39	1652.71
289.61	1767.40
289.82	1841.12
290.04	1763.30
290.25	1617.90
290.47	1767.40
290.68	1593.32
290.90	1810.40
291.11	1638.38
291.33	1705.96
291.54	1642.47
291.76	1638.38
291.97	1710.05
292.18	1775.59
292.40	1724.39
292.61	1669.09
292.83	1859.56
293.04	1783.78
293.26	1691.62
293.47	1662.95
293.69	1677.29
293.90	1658.85
294.12	1744.87
294.33	1697.77
294.55	1660.90
294.76	1769.44
294.97	1802.21
295.19	1757.16
295.40	1687.53
295.62	1730.53
295.83	1746.92
296.05	1662.95
296.26	1773.54
296.48	1662.95
296.69	1701.86
296.90	1660.90
297.12	1714.15
297.33	1751.01
297.55	1722.34
297.76	1708.01
297.98	1757.16
298.19	1789.92
298.41	1773.54
298.62	1656.81
298.83	1796.07
299.05	1783.78
299.26	1703.91
299.48	1708.01
299.69	1687.53
299.90	1740.77
300.12	1679.33
300.33	1746.92
300.55	1697.77
300.76	1724.39
300.98	1673.19
301.19	1734.63
301.40	1708.01
301.62	1720.29
301.83	1748.97
302.05	1724.39
302.26	1603.56
302.47	1630.18
302.69	1632.23
302.90	1730.53
303.12	1624.04
303.33	1802.21
303.54	1800.16
303.76	1626.09
303.97	1681.38
304.19	1789.92
304.40	1679.33
304.61	1720.29
304.83	1853.41
305.04	1775.59
305.26	1744.87
305.47	1691.62
305.68	1712.10
305.90	1689.57
306.11	1748.97
306.33	1665.00
306.54	1687.53
306.75	1738.73
306.97	1628.14
307.18	1636.33
307.39	1642.47
307.61	1697.77
307.82	1705.96
308.04	1769.44
308.25	1628.14
308.46	1718.25
308.68	1714.15
308.89	1722.34
309.10	1724.39
309.32	1740.77
309.53	1691.62
309.74	1753.06
309.96	1759.21
310.17	1808.36
310.39	1689.57
310.60	1828.84
310.81	1658.85
311.03	1630.18
311.24	1687.53
311.45	1640.42
311.67	1804.26
311.88	1742.82
312.09	1669.09
312.31	1697.77
312.52	1679.33
312.73	1798.12
312.95	1624.04
313.16	1591.27
313.37	1865.70
313.59	1665.00
313.80	1779.68
314.01	1785.83
314.23	1724.39
314.44	1675.24
314.65	1615.85
314.87	1626.09
315.08	1652.71
315.29	1611.75
315.51	1632.23
315.72	1683.43
315.93	1812.45
316.15	1779.68
316.36	1771.49
316.57	1693.67
316.79	1765.35
317.00	1722.34
317.21	1691.62
317.43	1632.23
317.64	1742.82
317.85	1669.09
318.07	1712.10
318.28	1675.24
318.49	1810.40
318.70	1861.60
318.92	1841.12
319.13	1777.64
319.34	1804.26
319.56	1857.51
319.77	1882.08
319.98	1763.30
320.20	1726.44
320.41	1820.64
320.62	1789.92
320.83	1687.53
321.05	1822.69
321.26	1683.43
321.47	1738.73
321.69	1771.49
321.90	1669.09
322.11	1652.71
322.32	1724.39
322.54	1761.25
322.75	1685.48
322.96	1824.74
323.18	1662.95
323.39	1615.85
323.60	1677.29
323.81	1669.09
324.03	1630.18
324.24	1642.47
324.45	1697.77
324.66	1636.33
324.88	1730.53
325.09	1826.79
325.30	1710.05
325.52	1718.25
325.73	1730.53
325.94	1658.85
326.15	1654.76
326.37	1660.90
326.58	1738.73
326.79	1800.16
327.00	1677.29
327.22	1726.44
327.43	1730.53
327.64	1599.46
327.85	1679.33
328.07	1656.81
328.28	1783.78
328.49	1699.81
328.70	1685.48
328.92	1693.67
329.13	1705.96
329.34	1783.78
329.55	1824.74
329.76	1716.20
329.98	1691.62
330.19	1740.77
330.40	1791.97
330.61	1705.96
330.83	1726.44
331.04	1650.66
331.25	1736.68
331.46	1683.43
331.68	1644.52
331.89	1755.11
332.10	1714.15
332.31	1591.27
332.52	1724.39
332.74	1757.16
332.95	1634.28
333.16	1710.05
333.37	1718.25
333.58	1681.38
333.80	1712.10
334.01	1535.98
334.22	1648.61
334.43	1689.57
334.64	1746.92
334.86	1656.81
335.07	1685.48
335.28	1773.54
335.49	1730.53
335.70	1691.62
335.92	1757.16
336.13	1871.84
336.34	1818.60
336.55	1765.35
336.76	1712.10
336.98	1642.47
337.19	1681.38
337.40	1796.07
337.61	1863.65
337.82	1714.15
338.04	1804.26
338.25	1599.46
338.46	1685.48
338.67	1671.14
338.88	1720.29
339.09	1671.14
339.31	1646.57
339.52	1662.95
339.73	1595.37
339.94	1648.61
340.15	1744.87
340.36	1574.89
340.58	1677.29
340.79	1701.86
341.00	1693.67
341.21	1673.19
341.42	1773.54
341.63	1738.73
341.85	1722.34
342.06	1744.87
342.27	1578.98
342.48	1753.06
342.69	1689.57
342.90	1771.49
343.12	1689.57
343.33	1644.52
343.54	1734.63
343.75	1755.11
343.96	1679.33
344.17	1665.00
344.38	1638.38
344.60	1665.00
344.81	1724.39
345.02	1759.21
345.23	1767.40
345.44	1859.56
345.65	1753.06
345.86	1710.05
346.07	1726.44
346.29	1681.38
346.50	1703.91
346.71	1781.73
346.92	1746.92
347.13	1757.16
347.34	1687.53
347.55	1751.01
347.76	1763.30
347.98	1583.08
348.19	1640.42
348.40	1753.06
348.61	1679.33
348.82	1810.40
349.03	1800.16
349.24	1701.86
349.45	1773.54
349.66	1572.84
349.88	1728.49
350.09	1681.38
350.30	1775.59
350.51	1763.30
350.72	1701.86
350.93	1701.86
351.14	1656.81
351.35	1730.53
351.56	1724.39
351.77	1665.00
351.99	1765.35
352.20	1789.92
352.41	1822.69
352.62	1652.71
352.83	1718.25
353.04	1683.43
353.25	1697.77
353.46	1791.97
353.67	1744.87
353.88	1648.61
354.09	1734.63
354.30	1703.91
354.52	1748.97
354.73	1738.73
354.94	1640.42
355.15	1771.49
355.36	1841.12
355.57	1705.96
355.78	1703.91
355.99	1691.62
356.20	1654.76
356.41	1822.69
356.62	1738.73
356.83	1708.01
357.04	1791.97
357.25	1587.18
357.46	1648.61
357.68	1652.71
357.89	1746.92
358.10	1644.52
358.31	1708.01
358.52	1730.53
358.73	1609.70
358.94	1701.86
359.15	1685.48
359.36	1726.44
359.57	1732.58
359.78	1718.25
359.99	1818.60
360.20	1630.18
360.41	1759.21
360.62	1703.91
360.83	1785.83
361.04	1769.44
361.25	1755.11
361.46	1785.83
361.67	1662.95
361.88	1777.64
362.09	1710.05
362.30	1798.12
362.51	1677.29
362.72	1728.49
362.93	1748.97
363.14	1763.30
363.35	1730.53
363.56	1667.05
363.78	1744.87
363.99	1775.59
364.20	1650.66
364.41	1697.77
364.62	1832.93
364.83	1673.19
365.04	1665.00
365.25	1701.86
365.46	1787.88
365.67	1617.90
365.88	1644.52
366.09	1724.39
366.30	1701.86
366.51	1640.42
366.72	1603.56
366.93	1718.25
367.14	1765.35
367.35	1812.45
367.56	1744.87
367.77	1781.73
367.98	1695.72
368.18	1761.25
368.39	1746.92
368.60	1632.23
368.81	1689.57
369.02	1720.29
369.23	1746.92
369.44	1576.94
369.65	1724.39
369.86	1677.29
370.07	1689.57
370.28	1705.96
370.49	1671.14
370.70	1734.63
370.91	1695.72
371.12	1650.66
371.33	1796.07
371.54	1611.75
371.75	1869.80
371.96	1648.61
372.17	1759.21
372.38	1697.77
372.59	1744.87
372.80	1669.09
373.01	1742.82
373.22	1722.34
373.43	1718.25
373.64	1615.85
373.85	1773.54
374.06	1779.68
374.26	1755.11
374.47	1763.30
374.68	1818.60
374.89	1732.58
375.10	1667.05
375.31	1716.20
375.52	1724.39
375.73	1767.40
375.94	1656.81
376.15	1767.40
376.36	1718.25
376.57	1697.77
376.78	1665.00
376.99	1796.07
377.20	1785.83
377.40	1652.71
377.61	1798.12
377.82	1695.72
378.03	1783.78
378.24	1773.54
378.45	1724.39
378.66	1638.38
378.87	1560.55
379.08	1607.66
379.29	1701.86
379.50	1822.69
379.71	1714.15
379.91	1705.96
380.12	1683.43
380.33	1812.45
380.54	1722.34
380.75	1648.61
380.96	1669.09
381.17	1781.73
381.38	1736.68
381.59	1705.96
381.80	1701.86
382.00	1802.21
382.21	1765.35
382.42	1902.56
382.63	1824.74
382.84	1693.67
383.05	1781.73
383.26	1845.22
383.47	1808.36
383.68	1687.53
383.88	1728.49
384.09	1732.58
384.30	1755.11
384.51	1718.25
384.72	1603.56
384.93	1628.14
385.14	1726.44
385.35	1691.62
385.55	1691.62
385.76	1734.63
385.97	1658.85
386.18	1705.96
386.39	1626.09
386.60	1718.25
386.81	1746.92
387.02	1726.44
387.22	1705.96
387.43	1812.45
387.64	1822.69
387.85	1882.08
388.06	2215.90
388.27	4251.58
388.48	6807.45
388.68	8308.61
388.89	9713.52
389.10	9836.39
389.31	8836.99
389.52	7575.44
389.73	6795.16
389.93	6229.92
390.14	5953.45
390.35	5183.41
390.56	4558.78
390.77	3932.10
390.98	3074.00
391.18	2527.19
391.39	2193.37
391.60	1961.95
391.81	1714.15
392.02	1691.62
392.23	1798.12
392.43	1798.12
392.64	1757.16
392.85	1806.31
393.06	1802.21
393.27	1755.11
393.47	1689.57
393.68	1785.83
393.89	1673.19
394.10	1812.45
394.31	1693.67
394.52	1642.47
394.72	1740.77
394.93	1808.36
395.14	1667.05
395.35	1748.97
395.56	1656.81
395.76	1816.55
395.97	1738.73
396.18	1873.89
396.39	1834.98
396.60	2060.26
396.80	1880.04
397.01	1855.46
397.22	1847.27
397.43	1863.65
397.64	1753.06
397.84	1814.50
398.05	1998.82
398.26	1710.05
398.47	1804.26
398.67	1787.88
398.88	1765.35
399.09	1765.35
399.30	1705.96
399.51	1716.20
399.71	1615.85
399.92	1714.15
400.13	1716.20
400.34	1732.58
400.54	1710.05
400.75	1847.27
400.96	1716.20
401.17	1828.84
401.37	1765.35
401.58	1652.71
401.79	1755.11
402.00	1845.22
402.21	2004.96
402.41	1923.04
402.62	1929.19
402.83	2086.88
403.04	2009.06
403.24	2088.93
403.45	1875.94
403.66	1898.47
403.87	1937.38
404.07	1949.67
404.28	1873.89
404.49	1847.27
404.70	1751.01
404.90	1785.83
405.11	1791.97
405.32	1802.21
405.52	1728.49
405.73	1701.86
405.94	1685.48
406.15	1724.39
406.35	1796.07
406.56	1728.49
406.77	1722.34
406.98	1779.68
407.18	1679.33
407.39	1832.93
407.60	1708.01
407.80	1705.96
408.01	1796.07
408.22	1738.73
408.43	1738.73
408.63	1746.92
408.84	1759.21
409.05	1759.21
409.25	1667.05
409.46	1787.88
409.67	1656.81
409.88	1744.87
410.08	1763.30
410.29	1621.99
410.50	1757.16
410.70	1665.00
410.91	1794.02
411.12	1714.15
411.32	1742.82
411.53	1769.44
411.74	1738.73
411.95	1789.92
412.15	1701.86
412.36	1779.68
412.57	1744.87
412.77	1728.49
412.98	1705.96
413.19	1650.66
413.39	1818.60
413.60	1703.91
413.81	1761.25
414.01	1632.23
414.22	1814.50
414.43	1775.59
414.63	1689.57
414.84	1822.69
415.05	1693.67
415.25	1685.48
415.46	1669.09
415.67	1656.81
415.87	1736.68
416.08	1701.86
416.29	1740.77
416.49	1689.57
416.70	1679.33
416.91	1744.87
417.11	1652.71
417.32	1800.16
417.53	1726.44
417.73	1751.01
417.94	1665.00
418.15	1681.38
418.35	1699.81
418.56	1751.01
418.77	1751.01
418.97	1759.21
419.18	1751.01
419.38	1585.13
419.59	1701.86
419.80	1839.08
420.00	1634.28
420.21	1705.96
420.42	1822.69
420.62	1753.06
420.83	1724.39
421.04	1699.81
421.24	1708.01
421.45	1769.44
421.65	1722.34
421.86	1722.34
422.07	1789.92
422.27	1837.03
422.48	1751.01
422.69	1673.19
422.89	1665.00
423.10	1728.49
423.30	1617.90
423.51	1802.21
423.72	1705.96
423.92	1765.35
424.13	1708.01
424.33	1767.40
424.54	1730.53
424.75	1695.72
424.95	1841.12
425.16	1810.40
425.36	1689.57
425.57	1806.31
425.78	1714.15
425.98	1828.84
426.19	1759.21
426.39	1642.47
426.60	1705.96
426.81	1769.44
427.01	1757.16
427.22	1644.52
427.42	1679.33
427.63	1730.53
427.83	1845.22
428.04	1798.12
428.25	1783.78
428.45	1804.26
428.66	1744.87
428.86	1615.85
429.07	1693.67
429.28	1673.19
429.48	1667.05
429.69	1691.62
429.89	1693.67
430.10	1611.75
430.30	1775.59
430.51	1722.34
430.71	1583.08
430.92	1738.73
431.13	1748.97
431.33	1738.73
431.54	1665.00
431.74	1804.26
431.95	1843.17
432.15	1701.86
432.36	1746.92
432.56	1746.92
432.77	1789.92
432.98	1834.98
433.18	1761.25
433.39	1677.29
433.59	1699.81
433.80	1787.88
434.00	1796.07
434.21	1734.63
434.41	1753.06
434.62	1896.42
434.82	1697.77
435.03	1624.04
435.23	1730.53
435.44	1646.57
435.64	1767.40
435.85	1665.00
436.06	1742.82
436.26	1822.69
436.47	1662.95
436.67	1599.46
436.88	1734.63
437.08	1748.97
437.29	1818.60
437.49	1744.87
437.70	1736.68
437.90	1714.15
438.11	1834.98
438.31	1869.80
438.52	1877.99
438.72	1816.55
438.93	1861.60
439.13	1744.87
439.34	1818.60
439.54	1730.53
439.75	1865.70
439.95	1763.30
440.16	1697.77
440.36	1769.44
440.57	1708.01
440.77	1728.49
440.98	1734.63
441.18	1773.54
441.39	1675.24
441.59	1687.53
441.80	1779.68
442.00	1697.77
442.21	1822.69
442.41	1667.05
442.62	1832.93
442.82	1697.77
443.02	1761.25
443.23	1765.35
443.43	1734.63
443.64	1843.17
443.84	1658.85
444.05	1800.16
444.25	1759.21
444.46	1681.38
444.66	1691.62
444.87	1816.55
445.07	1689.57
445.28	1695.72
445.48	1820.64
445.69	1712.10
445.89	1898.47
446.09	1746.92
446.30	2050.02
446.50	2703.32
446.71	3790.79
446.91	4386.75
447.12	4745.14
447.32	4888.50
447.53	4376.51
447.73	3958.72
447.93	3508.17
448.14	3383.24
448.34	3270.61
448.55	2885.59
448.75	2873.30
448.96	2754.52
449.16	2453.47
449.36	2312.16
449.57	2131.94
449.77	1914.85
449.98	1806.31
450.18	1877.99
450.39	1812.45
450.59	1796.07
450.79	1732.58
451.00	1748.97
451.20	1796.07
451.41	1714.15
451.61	1775.59
451.81	1710.05
452.02	1640.42
452.22	1781.73
452.43	1687.53
452.63	1791.97
452.84	1705.96
453.04	1691.62
453.24	1777.64
453.45	1673.19
453.65	1820.64
453.86	1703.91
454.06	1742.82
454.26	1773.54
454.47	1665.00
454.67	1847.27
454.87	1742.82
455.08	1728.49
455.28	1832.93
455.49	1751.01
455.69	1748.97
455.89	1877.99
456.10	1810.40
456.30	1730.53
456.51	1783.78
456.71	1820.64
456.91	1767.40
457.12	1779.68
457.32	1769.44
457.52	1613.80
457.73	1705.96
457.93	1751.01
458.14	1681.38
458.34	1658.85
458.54	1742.82
458.75	1757.16
458.95	1894.37
459.15	1714.15
459.36	1734.63
459.56	1751.01
459.76	1824.74
459.97	1736.68
460.17	1839.08
460.37	1847.27
460.58	1734.63
460.78	1761.25
460.99	1669.09
461.19	1681.38
461.39	1708.01
461.60	1679.33
461.80	1767.40
462.00	1718.25
462.21	1744.87
462.41	1689.57
462.61	1722.34
462.82	1701.86
463.02	1771.49
463.22	1787.88
463.43	1884.13
463.63	1685.48
463.83	1779.68
464.04	1781.73
464.24	1789.92
464.44	1689.57
464.64	1789.92
464.85	1806.31
465.05	1744.87
465.25	1726.44
465.46	1718.25
465.66	1751.01
465.86	1777.64
466.07	1767.40
466.27	1667.05
466.47	1714.15
466.68	1634.28
466.88	1822.69
467.08	1695.72
467.29	1775.59
467.49	1787.88
467.69	1728.49
467.89	1699.81
468.10	1703.91
468.30	1718.25
468.50	1785.83
468.71	1798.12
468.91	1683.43
469.11	1855.46
469.31	1705.96
469.52	1665.00
469.72	1839.08
469.92	1863.65
470.13	1710.05
470.33	1748.97
470.53	1849.32
470.73	2099.17
470.94	2306.01
471.14	2332.64
471.34	2525.15
471.54	2408.41
471.75	2263.01
471.95	2260.96
472.15	2129.89
472.36	2070.50
472.56	2029.54
472.76	2056.16
472.96	1974.24
473.17	1884.13
473.37	1943.52
473.57	1785.83
473.77	1757.16
473.98	1814.50
474.18	1675.24
474.38	1912.80
474.58	1671.14
474.79	1708.01
474.99	1726.44
475.19	1718.25
475.39	1705.96
475.60	1718.25
475.80	1824.74
476.00	1789.92
476.20	1603.56
476.41	1779.68
476.61	1812.45
476.81	1849.32
477.01	1732.58
477.21	1865.70
477.42	1785.83
477.62	1791.97
477.82	1789.92
478.02	1722.34
478.23	1755.11
478.43	1634.28
478.63	1734.63
478.83	1740.77
479.03	1687.53
479.24	1787.88
479.44	1839.08
479.64	1718.25
479.84	1689.57
480.04	1716.20
480.25	1765.35
480.45	1738.73
480.65	1695.72
480.85	1781.73
481.06	1714.15
481.26	1699.81
481.46	1773.54
481.66	1794.02
481.86	1736.68
482.06	1800.16
482.27	1673.19
482.47	1757.16
482.67	1724.39
482.87	1681.38
483.07	1779.68
483.28	1652.71
483.48	1650.66
483.68	1736.68
483.88	1732.58
484.08	1669.09
484.29	1683.43
484.49	1791.97
484.69	1695.72
484.89	1834.98
485.09	1777.64
485.29	1757.16
485.50	1775.59
485.70	1626.09
485.90	1837.03
486.10	1714.15
486.30	1775.59
486.50	1814.50
486.71	1679.33
486.91	1744.87
487.11	1769.44
487.31	1630.18
487.51	1763.30
487.71	1675.24
487.91	1675.24
488.12	1689.57
488.32	1576.94
488.52	1742.82
488.72	1691.62
488.92	1746.92
489.12	1763.30
489.32	1687.53
489.53	1804.26
489.73	1679.33
489.93	1839.08
490.13	1724.39
490.33	1652.71
490.53	1798.12
490.73	1763.30
490.94	1669.09
491.14	1832.93
491.34	1851.36
491.54	2172.89
491.74	2582.49
491.94	2992.08
492.14	3002.32
492.34	3043.28
492.54	2758.61
492.75	2496.47
492.95	2414.56
493.15	2371.55
493.35	2340.83
493.55	2209.76
493.75	2217.95
493.95	2125.79
494.15	2125.79
494.35	2021.35
494.56	1820.64
494.76	1814.50
494.96	1806.31
495.16	1804.26
495.36	1775.59
495.56	1816.55
495.76	1724.39
495.96	1734.63
496.16	1697.77
496.36	1808.36
496.56	1673.19
496.77	1753.06
496.97	1714.15
497.17	1865.70
497.37	1695.72
497.57	1775.59
497.77	1757.16
497.97	1665.00
498.17	1742.82
498.37	1681.38
498.57	1748.97
498.77	1726.44
498.97	1779.68
499.17	1841.12
499.38	1687.53
499.58	1796.07
499.78	1746.92
499.98	1812.45
500.18	1775.59
500.38	1716.20
500.58	1968.10
500.78	2551.77
500.98	4558.78
501.18	5773.22
501.38	6930.33
501.58	7274.38
501.78	6756.25
501.98	5633.96
502.18	5085.11
502.38	4478.91
502.58	4157.38
502.78	3876.80
502.98	3590.09
503.18	3536.84
503.38	3225.55
503.59	2944.98
503.79	2787.29
503.99	2424.80
504.19	2383.84
504.39	2217.95
504.59	2181.09
504.79	2185.18
504.99	2097.12
505.19	1970.15
505.39	1931.23
505.59	1982.43
505.79	1873.89
505.99	1933.28
506.19	1837.03
506.39	1849.32
506.59	1742.82
506.79	1732.58
506.99	1800.16
507.19	1781.73
507.39	1767.40
507.59	1738.73
507.79	1740.77
507.99	1693.67
508.19	1679.33
508.39	1761.25
508.59	1744.87
508.79	1820.64
508.99	1820.64
509.19	1644.52
509.39	1736.68
509.59	1732.58
509.79	1712.10
509.99	1730.53
510.19	1783.78
510.39	1812.45
510.59	1611.75
510.79	1619.94
510.99	1607.66
511.19	1767.40
511.39	1794.02
511.59	1789.92
511.79	1796.07
511.99	1722.34
512.19	1822.69
512.38	1746.92
512.58	1755.11
512.78	1720.29
512.98	1812.45
513.18	1837.03
513.38	1718.25
513.58	1857.51
513.78	1695.72
513.98	1757.16
514.18	1648.61
514.38	1746.92
514.58	1757.16
514.78	1751.01
514.98	1726.44
515.18	1775.59
515.38	1699.81
515.58	1861.60
515.78	1697.77
515.98	1695.72
516.18	1728.49
516.38	1744.87
516.57	1648.61
516.77	1671.14
516.97	1732.58
517.17	1695.72
517.37	1722.34
517.57	1771.49
517.77	1730.53
517.97	1675.24
518.17	1781.73
518.37	1632.23
518.57	1716.20
518.77	1677.29
518.97	1687.53
519.16	1791.97
519.36	1777.64
519.56	1732.58
519.76	1798.12
519.96	1683.43
520.16	1800.16
520.36	1699.81
520.56	1757.16
520.76	1732.58
520.96	1734.63
521.16	1761.25
521.35	1808.36
521.55	1740.77
521.75	1714.15
521.95	1705.96
522.15	1669.09
522.35	1554.41
522.55	1773.54
522.75	1759.21
522.95	1734.63
523.14	1738.73
523.34	1728.49
523.54	1703.91
523.74	1794.02
523.94	1828.84
524.14	1636.33
524.34	1716.20
524.54	1810.40
524.73	1763.30
524.93	1734.63
525.13	1730.53
525.33	1691.62
525.53	1937.38
525.73	1796.07
525.93	1759.21
526.13	1671.14
526.32	1667.05
526.52	1791.97
526.72	1796.07
526.92	1746.92
527.12	1691.62
527.32	1689.57
527.52	1779.68
527.71	1779.68
527.91	1736.68
528.11	1695.72
528.31	1710.05
528.51	1693.67
528.71	1746.92
528.90	1843.17
529.10	1837.03
529.30	1779.68
529.50	1652.71
529.70	1775.59
529.90	1683.43
530.09	1744.87
530.29	1611.75
530.49	1660.90
530.69	1898.47
530.89	1785.83
531.09	1771.49
531.28	1722.34
531.48	1763.30
531.68	1718.25
531.88	1787.88
532.08	1761.25
532.28	1765.35
532.47	1808.36
532.67	1794.02
532.87	1755.11
533.07	1648.61
533.27	1736.68
533.46	1804.26
533.66	1808.36
533.86	1757.16
534.06	1728.49
534.26	1753.06
534.45	1708.01
534.65	1767.40
534.85	1804.26
535.05	1714.15
535.25	1751.01
535.44	1656.81
535.64	1839.08
535.84	1687.53
536.04	1791.97
536.24	1728.49
536.43	1771.49
536.63	1759.21
536.83	1742.82
537.03	1738.73
537.22	1585.13
537.42	1636.33
537.62	1767.40
537.82	1669.09
538.02	1794.02
538.21	1775.59
538.41	1906.66
538.61	1789.92
538.81	1769.44
539.00	1742.82
539.20	1656.81
539.40	1755.11
539.60	1744.87
539.79	1755.11
539.99	1740.77
540.19	1667.05
540.39	1701.86
540.58	1708.01
540.78	1816.55
540.98	1671.14
541.18	1712.10
541.37	1771.49
541.57	1808.36
541.77	1742.82
541.97	1720.29
542.16	1615.85
542.36	1716.20
542.56	1771.49
542.76	1877.99
542.95	1816.55
543.15	1656.81
543.35	1816.55
543.54	1667.05
543.74	1740.77
543.94	1808.36
544.14	1746.92
544.33	1820.64
544.53	1753.06
544.73	1791.97
544.93	1746.92
545.12	1708.01
545.32	1775.59
545.52	1777.64
545.71	1634.28
545.91	1740.77
546.11	1755.11
546.30	1697.77
546.50	1675.24
546.70	1861.60
546.90	1730.53
547.09	1677.29
547.29	1755.11
547.49	1796.07
547.68	1703.91
547.88	1804.26
548.08	1787.88
548.27	2168.80
548.47	1691.62
548.67	1744.87
548.87	1728.49
549.06	1826.79
549.26	1738.73
549.46	1820.64
549.65	1636.33
549.85	1767.40
550.05	1785.83
550.24	1726.44
550.44	1691.62
550.64	1783.78
550.83	1869.80
551.03	1933.28
551.23	1794.02
551.42	1791.97
551.62	1773.54
551.82	1751.01
552.01	1701.86
552.21	1824.74
552.41	1804.26
552.60	1785.83
552.80	1732.58
553.00	1748.97
553.19	1787.88
553.39	1849.32
553.59	1665.00
553.78	1798.12
553.98	1724.39
554.17	1695.72
554.37	1787.88
554.57	1925.09
554.76	1689.57
554.96	1701.86
555.16	1683.43
555.35	1716.20
555.55	1767.40
555.75	1781.73
555.94	1796.07
556.14	1695.72
556.33	1796.07
556.53	1708.01
556.73	1726.44
556.92	1820.64
557.12	1804.26
557.32	1781.73
557.51	1849.32
557.71	1820.64
557.90	1869.80
558.10	1828.84
558.30	1691.62
558.49	1658.85
558.69	1755.11
558.88	1787.88
559.08	1798.12
559.28	1763.30
559.47	1759.21
559.67	1794.02
559.86	1824.74
560.06	1697.77
560.26	1757.16
560.45	1722.34
560.65	1669.09
560.84	1812.45
561.04	1695.72
561.24	1726.44
561.43	1669.09
561.63	1816.55
561.82	1742.82
562.02	1736.68
562.22	1759.21
562.41	1634.28
562.61	1718.25
562.80	1722.34
563.00	1816.55
563.19	1771.49
563.39	1755.11
563.59	1751.01
563.78	1742.82
563.98	1626.09
564.17	1742.82
564.37	1642.47
564.56	1720.29
564.76	1791.97
564.96	1837.03
565.15	1755.11
565.35	1882.08
565.54	1734.63
565.74	1763.30
565.93	1738.73
566.13	1742.82
566.32	1779.68
566.52	1843.17
566.71	1738.73
566.91	1804.26
567.11	1767.40
567.30	1748.97
567.50	1740.77
567.69	1730.53
567.89	1744.87
568.08	1738.73
568.28	1822.69
568.47	1671.14
568.67	1757.16
568.86	1724.39
569.06	1693.67
569.25	1787.88
569.45	1728.49
569.64	1714.15
569.84	1740.77
570.04	1748.97
570.23	1718.25
570.43	1693.67
570.62	1830.88
570.82	1814.50
571.01	1646.57
571.21	1675.24
571.40	1746.92
571.60	1789.92
571.79	1775.59
571.99	1763.30
572.18	1738.73
572.38	1724.39
572.57	1761.25
572.77	1806.31
572.96	1894.37
573.16	1806.31
573.35	1718.25
573.55	1802.21
573.74	1826.79
573.94	1673.19
574.13	1791.97
574.33	1828.84
574.52	1767.40
574.71	1703.91
574.91	1832.93
575.10	1652.71
575.30	1728.49
575.49	1667.05
575.69	1718.25
575.88	1820.64
576.08	1757.16
576.27	1834.98
576.47	1671.14
576.66	1863.65
576.86	1822.69
577.05	1779.68
577.25	1779.68
577.44	1830.88
577.64	1705.96
577.83	1767.40
578.02	1665.00
578.22	1802.21
578.41	1834.98
578.61	1755.11
578.80	1705.96
579.00	1808.36
579.19	1769.44
579.39	1783.78
579.58	1794.02
579.77	1787.88
579.97	1865.70
580.16	1855.46
580.36	1845.22
580.55	1777.64
580.75	1796.07
580.94	1732.58
581.13	1888.23
581.33	1925.09
581.52	1763.30
581.72	1820.64
581.91	1779.68
582.11	1787.88
582.30	1849.32
582.49	1763.30
582.69	1822.69
582.88	1845.22
583.08	1761.25
583.27	1796.07
583.47	1775.59
583.66	1718.25
583.85	1722.34
584.05	1806.31
584.24	1779.68
584.44	1841.12
584.63	1834.98
584.82	1853.41
585.02	1849.32
585.21	1869.80
585.41	1822.69
585.60	1886.18
585.79	1929.19
585.99	1968.10
586.18	1894.37
586.37	2189.28
586.57	3409.87
586.76	9946.98
586.96	24643.21
587.15	34864.62
587.34	41104.78
587.54	42718.58
587.73	37094.86
587.93	26754.66
588.12	21954.22
588.31	18642.66
588.51	16543.49
588.70	15267.61
588.89	14280.49
589.09	12719.93
589.28	11247.44
589.47	9512.81
589.67	8198.02
589.86	6553.50
590.06	4970.42
590.25	3862.47
590.44	3188.69
590.64	2713.56
590.83	2242.53
591.02	2064.35
591.22	2015.20
591.41	1867.75
591.60	1755.11
591.80	1937.38
591.99	1740.77
592.18	1779.68
592.38	1810.40
592.57	1759.21
592.76	1832.93
592.96	1828.84
593.15	1742.82
593.34	1859.56
593.54	1767.40
593.73	1787.88
593.92	1730.53
594.12	1773.54
594.31	1763.30
594.50	1896.42
594.70	1845.22
594.89	1847.27
595.08	1734.63
595.28	1789.92
595.47	1904.61
595.66	1808.36
595.86	1673.19
596.05	1796.07
596.24	1685.48
596.43	1875.94
596.63	1837.03
596.82	1755.11
597.01	1779.68
597.21	1918.95
597.40	1726.44
597.59	1783.78
597.79	1732.58
597.98	1697.77
598.17	1722.34
598.36	1859.56
598.56	1718.25
598.75	1718.25
598.94	1748.97
599.14	1712.10
599.33	1720.29
599.52	1716.20
599.71	1744.87
599.91	1837.03
600.10	1769.44
600.29	1714.15
600.48	1794.02
600.68	1843.17
600.87	1781.73
601.06	1767.40
601.26	1726.44
601.45	1779.68
601.64	1761.25
601.83	1804.26
602.03	1759.21
602.22	1656.81
602.41	1847.27
602.60	1906.66
602.80	1800.16
602.99	1740.77
603.18	1787.88
603.37	1718.25
603.57	1755.11
603.76	1753.06
603.95	1757.16
604.14	1804.26
604.34	1705.96
604.53	1771.49
604.72	1720.29
604.91	1824.74
605.10	1763.30
605.30	1720.29
605.49	1914.85
605.68	1773.54
605.87	1705.96
606.07	1697.77
606.26	1800.16
606.45	1740.77
606.64	1708.01
606.84	1708.01
607.03	1744.87
607.22	1773.54
607.41	1609.70
607.60	1701.86
607.80	1861.60
607.99	1736.68
608.18	1732.58
608.37	1779.68
608.56	1630.18
608.76	1771.49
608.95	1896.42
609.14	1779.68
609.33	1708.01
609.52	1808.36
609.72	1798.12
609.91	1777.64
610.10	1775.59
610.29	1851.36
610.48	1812.45
610.68	1685.48
610.87	1728.49
611.06	1751.01
611.25	1714.15
611.44	1798.12
611.63	1675.24
611.83	1734.63
612.02	1669.09
612.21	1710.05
612.40	1642.47
612.59	1656.81
612.79	1712.10
612.98	1726.44
613.17	1808.36
613.36	1679.33
613.55	1787.88
613.74	1728.49
613.93	1640.42
614.13	1757.16
614.32	1751.01
614.51	1789.92
614.70	1785.83
614.89	1640.42
615.08	1730.53
615.28	2025.44
615.47	1689.57
615.66	1746.92
615.85	1728.49
616.04	1804.26
616.23	1726.44
616.42	1738.73
616.62	1748.97
616.81	1773.54
617.00	1769.44
617.19	1724.39
617.38	1632.23
617.57	1746.92
617.76	1740.77
617.95	1779.68
618.15	1701.86
618.34	1771.49
618.53	1660.90
618.72	1710.05
618.91	1798.12
619.10	1830.88
619.29	1730.53
619.48	1726.44
619.68	1673.19
619.87	1753.06
620.06	1615.85
620.25	1755.11
620.44	1777.64
620.63	1722.34
620.82	1728.49
621.01	1767.40
621.20	1718.25
621.39	1714.15
621.59	1796.07
621.78	1597.42
621.97	1728.49
622.16	1820.64
622.35	1740.77
622.54	1789.92
622.73	1820.64
622.92	1648.61
623.11	1851.36
623.30	1697.77
623.49	1789.92
623.68	1697.77
623.88	1765.35
624.07	1699.81
624.26	1724.39
624.45	1783.78
624.64	1695.72
624.83	1683.43
625.02	1718.25
625.21	1763.30
625.40	1753.06
625.59	1834.98
625.78	1705.96
625.97	1789.92
626.16	1755.11
626.35	1693.67
626.54	1738.73
626.74	1794.02
626.93	1763.30
627.12	1759.21
627.31	1800.16
627.50	1765.35
627.69	1746.92
627.88	1695.72
628.07	1673.19
628.26	1632.23
628.45	1724.39
628.64	1710.05
628.83	1722.34
629.02	1683.43
629.21	1834.98
629.40	1779.68
629.59	1650.66
629.78	1697.77
629.97	1691.62
630.16	1685.48
630.35	1679.33
630.54	1744.87
630.73	1675.24
630.92	1783.78
631.11	1665.00
631.30	1689.57
631.49	1775.59
631.68	1755.11
631.87	1728.49
632.06	1617.90
632.25	1902.56
632.44	1724.39
632.63	1650.66
632.82	1730.53
633.01	1742.82
633.20	1658.85
633.39	1718.25
633.58	1589.22
633.77	1718.25
633.96	1718.25
634.15	1738.73
634.34	1697.77
634.53	1652.71
634.72	1699.81
634.91	1648.61
635.10	1708.01
635.29	1705.96
635.48	1687.53
635.67	1691.62
635.86	1662.95
636.05	1791.97
636.24	1695.72
636.43	1755.11
636.62	1755.11
636.81	1634.28
637.00	1697.77
637.19	1738.73
637.38	1679.33
637.57	1695.72
637.76	1769.44
637.95	1646.57
638.14	1691.62
638.33	1785.83
638.52	1667.05
638.71	1730.53
638.89	1611.75
639.08	1812.45
639.27	1740.77
639.46	1740.77
639.65	1755.11
639.84	1693.67
640.03	1769.44
640.22	1681.38
640.41	1810.40
640.60	1673.19
640.79	1744.87
640.98	1667.05
641.17	1720.29
641.36	1779.68
641.55	1720.29
641.74	1732.58
641.92	1685.48
642.11	1705.96
642.30	1703.91
642.49	1665.00
642.68	1683.43
642.87	1798.12
643.06	1761.25
643.25	1685.48
643.44	1753.06
643.63	1722.34
643.82	1751.01
644.00	1744.87
644.19	1744.87
644.38	1673.19
644.57	1814.50
644.76	1693.67
644.95	1689.57
645.14	1771.49
645.33	1742.82
645.52	1689.57
645.71	1683.43
645.89	1636.33
646.08	1773.54
646.27	1671.14
646.46	1880.04
646.65	1658.85
646.84	1730.53
647.03	1679.33
647.22	1769.44
647.40	1691.62
647.59	1665.00
647.78	1640.42
647.97	1681.38
648.16	1650.66
648.35	1832.93
648.54	1781.73
648.73	1748.97
648.91	1814.50
649.10	1783.78
649.29	1695.72
649.48	1671.14
649.67	1761.25
649.86	1689.57
650.05	1640.42
650.23	1755.11
650.42	1650.66
650.61	1740.77
650.80	1718.25
650.99	1877.99
651.18	1785.83
651.36	1689.57
651.55	1669.09
651.74	1832.93
651.93	1705.96
652.12	1705.96
652.31	1810.40
652.49	1724.39
652.68	1798.12
652.87	1767.40
653.06	1724.39
653.25	1888.23
653.44	1683.43
653.62	1849.32
653.81	1767.40
654.00	1751.01
654.19	1744.87
654.38	1853.41
654.56	1667.05
654.75	1697.77
654.94	1808.36
655.13	1746.92
655.32	1689.57
655.51	1724.39
655.69	1669.09
655.88	1802.21
656.07	1644.52
656.26	1748.97
656.45	1726.44
656.63	1794.02
656.82	1730.53
657.01	1808.36
657.20	1712.10
657.38	1746.92
657.57	1652.71
657.76	1615.85
657.95	1738.73
658.14	1685.48
658.32	1705.96
658.51	1607.66
658.70	1728.49
658.89	1785.83
659.08	1736.68
659.26	1738.73
659.45	1662.95
659.64	1806.31
659.83	1667.05
660.01	1935.33
660.20	1787.88
660.39	1890.28
660.58	1636.33
660.76	1759.21
660.95	1658.85
661.14	1787.88
661.33	1636.33
661.51	1718.25
661.70	1675.24
661.89	1701.86
662.08	1812.45
662.26	1703.91
662.45	1652.71
662.64	1894.37
662.83	1773.54
663.01	1699.81
663.20	1675.24
663.39	1851.36
663.58	1718.25
663.76	1736.68
663.95	1738.73
664.14	1683.43
664.32	1726.44
664.51	1699.81
664.70	1701.86
664.89	1732.58
665.07	1685.48
665.26	1691.62
665.45	1732.58
665.64	1814.50
665.82	1740.77
666.01	1736.68
666.20	1757.16
666.38	1789.92
666.57	1832.93
666.76	2222.05
666.95	4478.91
667.13	10551.14
667.32	15716.11
667.51	18058.99
667.69	19207.90
667.88	18122.48
668.07	12683.07
668.25	9615.21
668.44	8290.18
668.63	7432.08
668.81	6952.85
669.00	6440.86
669.19	5896.10
669.38	5169.07
669.56	4607.93
669.75	4116.42
669.94	3424.20
670.12	2926.55
670.31	2453.47
670.50	2295.77
670.68	1972.19
670.87	2009.06
671.06	1820.64
671.24	1757.16
671.43	1818.60
671.62	1685.48
671.80	1722.34
671.99	1755.11
672.18	1685.48
672.36	1738.73
672.55	1705.96
672.74	1740.77
672.92	1712.10
673.11	1746.92
673.29	1701.86
673.48	1748.97
673.67	1701.86
673.85	1824.74
674.04	1761.25
674.23	1751.01
674.41	1857.51
674.60	1613.80
674.79	1652.71
674.97	1734.63
675.16	1783.78
675.34	1789.92
675.53	1728.49
675.72	1791.97
675.90	1761.25
676.09	1697.77
676.28	1771.49
676.46	1574.89
676.65	1787.88
676.83	1675.24
677.02	1755.11
677.21	1734.63
677.39	1703.91
677.58	1638.38
677.77	1685.48
677.95	1705.96
678.14	1640.42
678.32	1648.61
678.51	1710.05
678.70	1849.32
678.88	1667.05
679.07	1791.97
679.25	1718.25
679.44	1628.14
679.63	1677.29
679.81	1679.33
680.00	1769.44
680.18	1804.26
680.37	1783.78
680.55	1726.44
680.74	1683.43
680.93	1658.85
681.11	1738.73
681.30	1669.09
681.48	1712.10
681.67	1699.81
681.85	1708.01
682.04	1728.49
682.23	1687.53
682.41	1791.97
682.60	1738.73
682.78	1738.73
682.97	1642.47
683.15	1671.14
683.34	1718.25
683.53	1781.73
683.71	1701.86
683.90	1796.07
684.08	1837.03
684.27	1738.73
684.45	1691.62
684.64	1724.39
684.82	1724.39
685.01	1798.12
685.19	1644.52
685.38	1789.92
685.57	1683.43
685.75	1669.09
685.94	1724.39
686.12	1685.48
686.31	1669.09
686.49	1798.12
686.68	1671.14
686.86	1718.25
687.05	1681.38
687.23	1808.36
687.42	1714.15
687.60	1642.47
687.79	1794.02
687.97	1789.92
688.16	1796.07
688.34	1691.62
688.53	1718.25
688.71	1773.54
688.90	1779.68
689.08	1777.64
689.27	1683.43
689.45	1720.29
689.64	1748.97
689.82	1736.68
690.01	1834.98
690.19	1751.01
690.38	1677.29
690.56	1877.99
690.75	1662.95
690.93	1699.81
691.12	1687.53
691.30	1775.59
691.49	1697.77
691.67	1705.96
691.86	1826.79
692.04	1683.43
692.23	1730.53
692.41	1679.33
692.60	1796.07
692.78	1718.25
692.97	1742.82
693.15	1710.05
693.34	1755.11
693.52	1777.64
693.71	1683.43
693.89	1714.15
694.08	1634.28
694.26	1775.59
694.44	1701.86
694.63	1777.64
694.81	1632.23
695.00	1640.42
695.18	1724.39
695.37	1861.60
695.55	1728.49
695.74	1726.44
695.92	1617.90
696.10	1765.35
696.29	1642.47
696.47	1665.00
696.66	1679.33
696.84	1654.76
697.03	1697.77
697.21	1947.62
697.40	2330.59
697.58	1759.21
697.76	1697.77
697.95	1681.38
698.13	1673.19
698.32	1693.67
698.50	1656.81
698.68	1722.34
698.87	1734.63
699.05	1806.31
699.24	1675.24
699.42	1667.05
699.61	1751.01
699.79	1730.53
699.97	1687.53
700.16	1638.38
700.34	1615.85
700.53	1740.77
700.71	1843.17
700.89	1742.82
701.08	1650.66
701.26	1753.06
701.45	2117.60
701.63	1705.96
701.81	1716.20
702.00	1724.39
702.18	1742.82
702.37	1660.90
702.55	1738.73
702.73	1689.57
702.92	1673.19
703.10	1796.07
703.28	1691.62
703.47	1691.62
703.65	1806.31
703.84	1732.58
704.02	1716.20
704.20	1779.68
704.39	1712.10
704.57	1708.01
704.75	1783.78
704.94	1730.53
705.12	1794.02
705.30	1771.49
705.49	2295.77
705.67	4368.32
705.86	9600.88
706.04	12769.09
706.22	14638.88
706.41	15765.26
706.59	13946.67
706.77	9582.45
706.96	7339.92
707.14	6647.71
707.32	6080.42
707.51	5719.98
707.69	5001.14
707.87	4208.58
708.06	3561.42
708.24	2934.74
708.42	2451.42
708.61	2265.05
708.79	1964.00
708.97	1857.51
709.16	1849.32
709.34	1853.41
709.52	1755.11
709.71	1773.54
709.89	1785.83
710.07	1693.67
710.26	1701.86
710.44	1726.44
710.62	1767.40
710.80	1755.11
710.99	1771.49
711.17	1775.59
711.35	1587.18
711.54	1697.77
711.72	1777.64
711.90	1671.14
712.09	1785.83
712.27	1652.71
712.45	1779.68
712.63	1744.87
712.82	1683.43
713.00	1791.97
713.18	1722.34
713.37	1779.68
713.55	1787.88
713.73	1779.68
713.91	1665.00
714.10	1718.25
714.28	1679.33
714.46	1708.01
714.65	1785.83
714.83	1767.40
715.01	1703.91
715.19	1695.72
715.38	1685.48
715.56	1738.73
715.74	1660.90
715.92	1619.94
716.11	1757.16
716.29	1597.42
716.47	1671.14
716.65	1640.42
716.84	1607.66
717.02	1826.79
717.20	1640.42
717.38	1718.25
717.57	1761.25
717.75	1798.12
717.93	1681.38
718.11	1730.53
718.30	1748.97
718.48	1710.05
718.66	1744.87
718.84	1812.45
719.03	1724.39
719.21	1705.96
719.39	1847.27
719.57	1691.62
719.75	1763.30
719.94	1681.38
720.12	1722.34
720.30	1708.01
720.48	1785.83
720.67	1644.52
720.85	1636.33
721.03	1720.29
721.21	1691.62
721.39	1720.29
721.58	1660.90
721.76	1697.77
721.94	1810.40
722.12	1787.88
722.30	1714.15
722.49	1703.91
722.67	1751.01
722.85	1718.25
723.03	1650.66
723.21	1695.72
723.40	1722.34
723.58	1746.92
723.76	1677.29
723.94	1753.06
724.12	1638.38
724.30	1783.78
724.49	1832.93
724.67	1624.04
724.85	1787.88
725.03	1681.38
725.21	1751.01
725.40	1804.26
725.58	1761.25
725.76	1800.16
725.94	1697.77
726.12	1662.95
726.30	1730.53
726.49	1714.15
726.67	1646.57
726.85	1755.11
727.03	1802.21
727.21	2150.37
727.39	3018.71
727.57	3778.50
727.76	4186.05
727.94	4542.39
728.12	4478.91
728.30	3733.45
728.48	3096.53
728.66	2670.55
728.84	2619.35
729.03	2279.39
729.21	2189.28
729.39	1894.37
729.57	1906.66
729.75	1830.88
729.93	1847.27
730.11	1763.30
730.30	1679.33
730.48	1746.92
730.66	1802.21
730.84	1822.69
731.02	1701.86
731.20	1648.61
731.38	1718.25
731.56	1660.90
731.74	1685.48
731.93	1761.25
732.11	1697.77
732.29	1710.05
732.47	1728.49
732.65	1705.96
732.83	1755.11
733.01	1773.54
733.19	1681.38
733.37	1673.19
733.56	1824.74
733.74	1644.52
733.92	1710.05
734.10	1708.01
734.28	1718.25
734.46	1658.85
734.64	1716.20
734.82	1724.39
735.00	1695.72
735.18	1755.11
735.36	1755.11
735.54	1667.05
735.73	1701.86
735.91	1810.40
736.09	1718.25
736.27	1763.30
736.45	1744.87
736.63	1601.51
736.81	1671.14
736.99	1730.53
737.17	1755.11
737.35	1671.14
737.53	1738.73
737.71	1744.87
737.89	1812.45
738.07	1607.66
738.25	1646.57
738.43	1570.79
738.61	1677.29
738.80	1603.56
738.98	1660.90
739.16	1705.96
739.34	1724.39
739.52	1796.07
739.70	1701.86
739.88	1783.78
740.06	1808.36
740.24	1578.98
740.42	1710.05
740.60	1667.05
740.78	1611.75
740.96	1599.46
741.14	1755.11
741.32	1777.64
741.50	1630.18
741.68	1837.03
741.86	1783.78
742.04	1683.43
742.22	1701.86
742.40	1755.11
742.58	1724.39
742.76	1658.85
742.94	1753.06
743.12	1527.78
743.30	1673.19
743.48	1685.48
743.66	1646.57
743.84	1771.49
744.02	1748.97
744.20	1652.71
744.38	1621.99
744.56	1705.96
744.74	1824.74
744.92	1722.34
745.10	1779.68
745.28	1822.69
745.46	1796.07
745.64	1763.30
745.82	1769.44
746.00	1726.44
746.18	1718.25
746.36	1685.48
746.54	1765.35
746.72	1697.77
746.90	1689.57
747.08	1783.78
747.26	1703.91
747.44	1802.21
747.62	1708.01
747.80	1714.15
747.98	1746.92
748.15	1652.71
748.33	1814.50
748.51	1644.52
748.69	1710.05
748.87	1634.28
749.05	1632.23
749.23	1724.39
749.41	1738.73
749.59	1689.57
749.77	1736.68
749.95	1708.01
750.13	1673.19
750.31	1812.45
750.49	1714.15
750.67	1779.68
750.85	1755.11
751.03	1757.16
751.20	1779.68
751.38	1658.85
751.56	1712.10
751.74	1685.48
751.92	1683.43
752.10	1689.57
752.28	1738.73
752.46	1644.52
752.64	1652.71
752.82	1665.00
753.00	1740.77
753.18	1636.33
753.35	1710.05
753.53	1791.97
753.71	1710.05
753.89	1765.35
754.07	1716.20
754.25	1771.49
754.43	1632.23
754.61	1703.91
754.79	1703.91
754.97	1771.49
755.14	1742.82
755.32	1628.14
755.50	1705.96
755.68	1720.29
755.86	1648.61
756.04	1617.90
756.22	1640.42
756.40	1775.59
756.57	1820.64
756.75	1683.43
756.93	1757.16
757.11	1705.96
757.29	1673.19
757.47	1630.18
757.65	1607.66
757.82	1589.22
758.00	1607.66
758.18	1705.96
758.36	1648.61
758.54	1830.88
758.72	1607.66
758.90	1691.62
759.07	1755.11
759.25	1685.48
759.43	1699.81
759.61	1665.00
759.79	2252.77
759.97	1734.63
760.15	1689.57
760.32	1636.33
760.50	1650.66
760.68	1798.12
760.86	1640.42
761.04	1834.98
761.22	1650.66
761.39	1638.38
761.57	1714.15
761.75	1691.62
761.93	1710.05
762.11	1746.92
762.28	1679.33
762.46	1652.71
762.64	1814.50
762.82	1605.61
763.00	1632.23
763.18	1789.92
763.35	1671.14
763.53	1748.97
763.71	1665.00
763.89	1751.01
764.07	1712.10
764.24	1705.96
764.42	1837.03
764.60	1656.81
764.78	1728.49
764.96	1732.58
765.13	1738.73
765.31	1687.53
765.49	1681.38
765.67	1673.19
765.84	1619.94
766.02	1705.96
766.20	1650.66
766.38	1748.97
766.56	1775.59
766.73	1753.06
766.91	1742.82
767.09	1781.73
767.27	1769.44
767.44	1716.20
767.62	1789.92
767.80	1705.96
767.98	1671.14
768.15	1724.39
768.33	1658.85
768.51	1697.77
768.69	1708.01
768.87	1763.30
769.04	1648.61
769.22	1761.25
769.40	1828.84
769.58	1843.17
769.75	1755.11
769.93	1763.30
770.11	1679.33
770.28	1646.57
770.46	1665.00
770.64	1685.48
770.82	1658.85
770.99	1703.91
771.17	1763.30
771.35	1693.67
771.53	1697.77
771.70	1691.62
771.88	1701.86
772.06	1730.53
772.23	1677.29
772.41	1769.44
772.59	1722.34
772.77	1652.71
772.94	1593.32
773.12	1712.10
773.30	1705.96
773.47	1742.82
773.65	1650.66
773.83	1871.84
774.01	1669.09
774.18	1507.30
774.36	1726.44
774.54	1626.09
774.71	1681.38
774.89	1605.61
775.07	1640.42
775.24	1720.29
775.42	1665.00
775.60	1818.60
775.78	1652.71
775.95	1701.86
776.13	1564.65
776.31	1568.74
776.48	1751.01
776.66	1767.40
776.84	1697.77
777.01	1640.42
777.19	1660.90
777.37	1660.90
777.54	1763.30
777.72	1791.97
777.90	1753.06
778.07	1710.05
778.25	1978.34
778.43	1738.73
778.60	1611.75
778.78	1771.49
778.96	1712.10
779.13	1636.33
779.31	1740.77
779.49	1628.14
779.66	1681.38
779.84	1714.15
780.01	1673.19
780.19	1718.25
780.37	1681.38
780.54	1826.79
780.72	1685.48
780.90	1787.88
781.07	1695.72
781.25	1669.09
781.43	1794.02
781.60	1695.72
781.78	1804.26
781.95	1708.01
782.13	1656.81
782.31	1722.34
782.48	1550.31
782.66	1728.49
782.83	1847.27
783.01	1738.73
783.19	1718.25
783.36	1708.01
783.54	1636.33
783.72	1744.87
783.89	1716.20
784.07	1726.44
784.24	1722.34
784.42	1796.07
784.60	1759.21
784.77	1730.53
784.95	1669.09
785.12	1605.61
785.30	1773.54
785.47	1656.81
785.65	1624.04
785.83	1632.23
786.00	1669.09
786.18	1603.56
786.35	1632.23
786.53	1665.00
786.71	1761.25
786.88	1761.25
787.06	1658.85
787.23	1652.71
787.41	1662.95
787.58	1742.82
787.76	1687.53
787.94	1748.97
788.11	1671.14
788.29	1619.94
788.46	1646.57
788.64	1542.12
788.81	1701.86
788.99	1599.46
789.16	1738.73
789.34	1685.48
789.52	1613.80
789.69	1685.48
789.87	1624.04
790.04	1730.53
790.22	1656.81
790.39	1853.41
790.57	1681.38
790.74	1699.81
790.92	1820.64
791.09	1638.38
791.27	1775.59
791.44	1751.01
791.62	1712.10
791.79	1753.06
791.97	1771.49
792.15	1914.85
792.32	1791.97
792.50	1728.49
792.67	1730.53
792.85	1791.97
793.02	1658.85
793.20	1720.29
793.37	1660.90
793.55	1746.92
793.72	1654.76
793.90	1724.39
794.07	1693.67
794.25	1718.25
794.42	1693.67
794.60	1697.77
794.77	1781.73
794.95	1718.25
795.12	1806.31
795.30	1671.14
795.47	1642.47
795.65	1871.84
795.82	1746.92
796.00	1665.00
796.17	1630.18
796.34	1689.57
796.52	1656.81
796.69	1730.53
796.87	1746.92
797.04	1677.29
797.22	1744.87
797.39	1726.44
797.57	1732.58
797.74	1648.61
797.92	1787.88
798.09	1656.81
798.27	1732.58
798.44	1806.31
798.62	1624.04
798.79	1675.24
798.96	1644.52
799.14	1712.10
799.31	1771.49
799.49	1644.52
799.66	1734.63
799.84	1716.20
800.01	1611.75
800.19	1671.14
800.36	1568.74
800.53	1685.48
800.71	1746.92
800.88	1761.25
801.06	1708.01
801.23	1662.95
801.41	1705.96
801.58	1677.29
801.75	1656.81
801.93	1753.06
802.10	1763.30
802.28	1765.35
802.45	1642.47
802.63	1759.21
802.80	1710.05
802.97	1673.19
803.15	1726.44
803.32	1671.14
803.50	1658.85
803.67	1689.57
803.84	1660.90
804.02	1722.34
804.19	1710.05
804.37	1552.36
804.54	1697.77
804.71	1703.91
804.89	1705.96
805.06	1705.96
805.24	1603.56
805.41	1689.57
805.58	1673.19
805.76	1759.21
805.93	1689.57
806.10	1785.83
806.28	1736.68
806.45	1798.12
806.63	1679.33
806.80	1726.44
806.97	1748.97
807.15	1744.87
807.32	1789.92
807.49	1658.85
807.67	1634.28
807.84	1730.53
808.01	1646.57
808.19	1869.80
808.36	1841.12
808.54	1671.14
808.71	1673.19
808.88	1751.01
809.06	1712.10
809.23	1822.69
809.40	1662.95
809.58	1738.73
809.75	1695.72
809.92	1685.48
810.10	1912.80
810.27	1677.29
810.44	1796.07
810.62	1720.29
810.79	1773.54
810.96	1720.29
811.14	1677.29
811.31	1781.73
811.48	1791.97
811.66	1677.29
811.83	1759.21
812.00	1691.62
812.18	1769.44
812.35	1884.13
812.52	1667.05
812.69	1681.38
812.87	1681.38
813.04	1656.81
813.21	1710.05
813.39	1685.48
813.56	1572.84
813.73	1748.97
813.91	1689.57
814.08	1675.24
814.25	1740.77
814.42	1550.31
814.60	1626.09
814.77	1728.49
814.94	1665.00
815.12	1710.05
815.29	1751.01
815.46	1675.24
815.63	1646.57
815.81	1646.57
815.98	1652.71
816.15	1667.05
816.33	1732.58
816.50	1691.62
816.67	1763.30
816.84	1724.39
817.02	1665.00
817.19	1675.24
817.36	1714.15
817.53	1763.30
817.71	1685.48
817.88	1771.49
818.05	1673.19
818.22	1683.43
818.40	1789.92
818.57	1701.86
818.74	1759.21
818.91	1689.57
819.09	1738.73
819.26	1773.54
819.43	1705.96
819.60	1701.86
819.78	1736.68
819.95	1755.11
820.12	1697.77
820.29	1748.97
820.47	1656.81
820.64	1691.62
820.81	1652.71
820.98	1667.05
821.15	1716.20
821.33	1734.63
821.50	1556.46
821.67	1740.77
821.84	1634.28
822.02	1730.53
822.19	1759.21
822.36	1695.72
822.53	1714.15
822.70	1673.19
822.88	1714.15
823.05	1710.05
823.22	1658.85
823.39	1730.53
823.56	1716.20
823.74	1816.55
823.91	1697.77
824.08	1613.80
824.25	1640.42
824.42	1800.16
824.60	1675.24
824.77	1740.77
824.94	1699.81
825.11	1787.88
825.28	1652.71
825.45	1716.20
825.63	1759.21
825.80	1642.47
825.97	1765.35
826.14	1712.10
826.31	1624.04
826.48	1683.43
826.66	1615.85
826.83	1767.40
827.00	1689.57
827.17	1708.01
827.34	1652.71
827.51	1697.77
827.69	1730.53
827.86	1583.08
828.03	1736.68
828.20	1748.97
828.37	1705.96
828.54	1714.15
828.71	1615.85
828.89	1759.21
829.06	1679.33
829.23	1839.08
829.40	1660.90
829.57	1689.57
829.74	1669.09
829.91	1650.66
830.09	1691.62
830.26	1738.73
830.43	1746.92
830.60	1767.40
830.77	1691.62
830.94	1851.36
831.11	1789.92
831.28	1726.44
831.46	1726.44
831.63	1624.04
831.80	1728.49
831.97	1624.04
832.14	1593.32
832.31	1753.06
832.48	1742.82
832.65	1773.54
832.82	1746.92
832.99	1753.06
833.17	1640.42
833.34	1816.55
833.51	1730.53
833.68	1607.66
833.85	1781.73
834.02	1597.42
834.19	1662.95
834.36	1722.34
834.53	1734.63
834.70	1701.86
834.87	1798.12
835.04	1617.90
835.22	1722.34
835.39	1751.01
835.56	1654.76
835.73	1699.81
835.90	1726.44
836.07	1656.81
836.24	1849.32
836.41	1722.34
836.58	1652.71
836.75	1781.73
836.92	1748.97
837.09	1695.72
837.26	1744.87
837.43	1652.71
837.60	1773.54
837.77	1718.25
837.94	1775.59
838.12	1738.73
838.29	1769.44
838.46	1624.04
838.63	1681.38
838.80	1724.39
838.97	1783.78
839.14	1763.30
839.31	1730.53
839.48	1744.87
839.65	1652.71
839.82	1800.16
839.99	1699.81
840.16	1677.29
840.33	1720.29
840.50	1769.44
840.67	1628.14
840.84	1589.22
841.01	1677.29
841.18	1714.15
841.35	1703.91
841.52	1751.01
841.69	1875.94
841.86	1728.49
842.03	1728.49
842.20	1744.87
842.37	1710.05
842.54	1628.14
842.71	1734.63
842.88	1617.90
843.05	1730.53
843.22	1673.19
843.39	1785.83
843.56	1761.25
843.73	1699.81
843.90	1685.48
844.07	1730.53
844.24	1789.92
844.41	1771.49
844.58	1753.06
844.75	1708.01
844.92	1705.96
845.09	1701.86
845.26	1705.96
845.43	1787.88
845.60	1652.71
845.77	1748.97
845.94	1732.58
846.10	1632.23
846.27	1660.90
846.44	1660.90
846.61	1693.67
846.78	1734.63
846.95	1685.48
847.12	1654.76
847.29	1763.30
847.46	1630.18
847.63	1812.45
847.80	1656.81
847.97	1708.01
848.14	1837.03
848.31	1736.68
848.48	1611.75
848.65	1708.01
848.82	1746.92
848.98	1818.60
849.15	1834.98
849.32	1740.77
849.49	1761.25
849.66	1642.47
849.83	1724.39
850.00	1638.38
850.17	1705.96
850.34	1748.97
850.51	1652.71
850.68	1689.57
850.85	1871.84
851.01	1685.48
851.18	1732.58
851.35	1695.72
851.52	1705.96
851.69	1812.45
851.86	1601.51
852.03	1708.01
852.20	1734.63
852.37	1714.15
852.53	1738.73
852.70	1681.38
852.87	1726.44
853.04	1777.64
853.21	1712.10
853.38	1677.29
853.55	1816.55
853.72	1777.64
853.89	1701.86
854.05	1667.05
854.22	1648.61
854.39	1685.48
854.56	1767.40
854.73	1812.45
854.90	1665.00
855.07	1679.33
855.23	1673.19
855.40	1656.81
855.57	1724.39
855.74	1574.89
855.91	1796.07
856.08	1628.14
856.25	1548.26
856.41	1718.25
856.58	1669.09
856.75	1714.15
856.92	1687.53
857.09	1816.55
857.26	1628.14
857.42	1718.25
857.59	1777.64
857.76	1667.05
857.93	1730.53
858.10	1738.73
858.27	1607.66
858.43	1738.73
858.60	1644.52
858.77	1632.23
858.94	1669.09
859.11	1693.67
859.27	1683.43
859.44	1705.96
859.61	1791.97
859.78	1798.12
859.95	1695.72
860.12	1624.04
860.28	1742.82
860.45	1798.12
860.62	1667.05
860.79	1675.24
860.95	1665.00
861.12	1624.04
861.29	1658.85
861.46	1701.86
861.63	1720.29
861.79	1730.53
861.96	1662.95
862.13	1609.70
862.30	1763.30
862.47	1667.05
862.63	1689.57
862.80	1740.77
862.97	1755.11
863.14	1691.62
863.30	1726.44
863.47	1619.94
863.64	1787.88
863.81	1710.05
863.97	1665.00
864.14	1689.57
864.31	1640.42
864.48	1669.09
864.65	1677.29
864.81	1746.92
864.98	1708.01
865.15	1718.25
865.32	1683.43
865.48	1767.40
865.65	1796.07
865.82	1648.61
865.98	1761.25
866.15	1726.44
866.32	1697.77
866.49	1693.67
866.65	1783.78
866.82	1675.24
866.99	1720.29
867.16	1724.39
867.32	1669.09
867.49	1701.86
867.66	1712.10
867.83	1681.38
867.99	1656.81
868.16	1648.61
868.33	1611.75
868.49	1667.05
868.66	1656.81
868.83	1816.55
868.99	1691.62
869.16	1699.81
869.33	1734.63
869.50	1705.96
869.66	1693.67
869.83	1697.77
870.00	1681.38
870.16	1734.63
870.33	1730.53
870.50	1703.91
870.66	1714.15
870.83	1789.92
871.00	1732.58
871.17	1697.77
871.33	1714.15
871.50	1738.73
871.67	1662.95
871.83	1734.63
872.00	1712.10
872.17	1720.29
872.33	1710.05
872.50	1753.06
872.67	1677.29
872.83	1701.86
873.00	1736.68
873.17	1755.11
873.33	1763.30
873.50	1720.29
873.67	1621.99
873.83	1712.10
874.00	1689.57
874.16	1767.40
874.33	1722.34
874.50	1689.57
874.66	1736.68
874.83	1738.73
875.00	1763.30
875.16	1738.73
875.33	1712.10
875.50	1585.13
875.66	1677.29
875.83	1689.57
875.99	1812.45
876.16	1634.28
876.33	1660.90
876.49	1652.71
876.66	1763.30
876.83	1728.49
876.99	1671.14
877.16	1685.48
877.32	1667.05
877.49	1634.28
877.66	1787.88
877.82	1820.64
877.99	1705.96
878.15	1681.38
878.32	1781.73
878.49	1722.34
878.65	1705.96
878.82	1816.55
878.98	1695.72
879.15	1671.14
879.32	1767.40
879.48	1724.39
879.65	1609.70
879.81	1691.62
879.98	1671.14
880.15	1679.33
880.31	1660.90
880.48	1640.42
880.64	1746.92
880.81	1712.10
880.97	1806.31
881.14	1802.21
881.31	1697.77
881.47	1898.47
881.64	1765.35
881.80	1630.18
881.97	1804.26
882.13	1738.73
882.30	1644.52
882.47	1746.92
882.63	1677.29
882.80	1693.67
882.96	1738.73
883.13	1806.31
883.29	1662.95
883.46	1728.49
883.62	1851.36
883.79	1783.78
883.95	1761.25
884.12	1708.01
884.29	1705.96
884.45	1763.30
884.62	1726.44
884.78	1609.70
884.95	1806.31
885.11	1677.29
885.28	1681.38
885.44	1671.14
885.61	1744.87
885.77	1751.01
885.94	1728.49
886.10	1751.01
886.27	1708.01
886.43	1783.78
886.60	1710.05
886.76	1714.15
886.93	1583.08
887.09	1804.26
887.26	1603.56
887.42	1738.73
887.59	1710.05
887.75	1867.75
887.92	1748.97
888.08	1800.16
888.25	1781.73
888.41	1785.83
888.58	1746.92
888.74	1671.14
888.91	1634.28
>>>>>End Processed Spectral Data<<<<<
