SpectraSuite Data File
++++++++++++++++++++++++++++++++++++
Date: Mon Jun 06 12:19:17 CEST 2016
User: root
Dark Spectrum Present: No
Reference Spectrum Present: No
Number of Sampled Component Spectra: 1
Spectrometers: USB4C02835
Integration Time (usec): 100000 (USB4C02835)
Spectra Averaged: 1 (USB4C02835)
Boxcar Smoothing: 0 (USB4C02835)
Correct for Electrical Dark: No (USB4C02835)
Strobe/Lamp Enabled: No (USB4C02835)
Correct for Detector Non-linearity: No (USB4C02835)
Correct for Stray Light: No (USB4C02835)
Number of Pixels in Processed Spectrum: 3648
>>>>>Begin Processed Spectral Data<<<<<
177.47	1437.67
177.69	1437.67
177.91	1437.67
178.13	1384.43
178.36	1452.01
178.58	1658.85
178.80	1634.28
179.02	1650.66
179.24	1607.66
179.46	1638.38
179.68	1746.92
179.90	1693.67
180.13	1632.23
180.35	1642.47
180.57	1734.63
180.79	1667.05
181.01	1697.77
181.23	1814.50
181.45	1814.50
181.67	1708.01
181.90	1748.97
182.12	1599.46
182.34	1605.61
182.56	1718.25
182.78	1638.38
183.00	1667.05
183.22	1703.91
183.44	1585.13
183.66	1744.87
183.89	1812.45
184.11	1757.16
184.33	1697.77
184.55	1689.57
184.77	1656.81
184.99	1748.97
185.21	1656.81
185.43	1853.41
185.65	1730.53
185.87	1669.09
186.10	1738.73
186.32	1810.40
186.54	1673.19
186.76	1746.92
186.98	1685.48
187.20	1665.00
187.42	1656.81
187.64	1736.68
187.86	1714.15
188.08	1710.05
188.30	1730.53
188.52	1705.96
188.75	1660.90
188.97	1746.92
189.19	1628.14
189.41	1710.05
189.63	1710.05
189.85	1732.58
190.07	1615.85
190.29	1697.77
190.51	1705.96
190.73	1626.09
190.95	1785.83
191.17	1656.81
191.39	1626.09
191.61	1599.46
191.84	1697.77
192.06	1683.43
192.28	1544.17
192.50	1822.69
192.72	1683.43
192.94	1640.42
193.16	1808.36
193.38	1673.19
193.60	1662.95
193.82	1671.14
194.04	1755.11
194.26	1791.97
194.48	1726.44
194.70	1699.81
194.92	1662.95
195.14	1773.54
195.36	1626.09
195.58	1658.85
195.80	1701.86
196.02	1675.24
196.24	1669.09
196.46	1771.49
196.69	1599.46
196.91	1837.03
197.13	1654.76
197.35	1652.71
197.57	1808.36
197.79	1701.86
198.01	1746.92
198.23	1710.05
198.45	1648.61
198.67	1589.22
198.89	1685.48
199.11	1673.19
199.33	1630.18
199.55	1617.90
199.77	1751.01
199.99	1697.77
200.21	1599.46
200.43	1669.09
200.65	1613.80
200.87	1640.42
201.09	1730.53
201.31	1718.25
201.53	1736.68
201.75	1755.11
201.97	1712.10
202.19	1703.91
202.41	1804.26
202.63	1771.49
202.85	1796.07
203.07	1710.05
203.29	1660.90
203.51	1609.70
203.73	1677.29
203.95	1914.85
204.17	1726.44
204.39	1759.21
204.61	1714.15
204.83	1642.47
205.05	1652.71
205.27	1656.81
205.49	1695.72
205.71	1703.91
205.93	1642.47
206.15	1607.66
206.37	1648.61
206.59	1675.24
206.81	1681.38
207.03	1667.05
207.25	1640.42
207.47	1695.72
207.69	1673.19
207.91	1853.41
208.13	1785.83
208.34	1644.52
208.56	1632.23
208.78	1714.15
209.00	1619.94
209.22	1642.47
209.44	1687.53
209.66	1648.61
209.88	1681.38
210.10	1621.99
210.32	1675.24
210.54	1775.59
210.76	1650.66
210.98	1738.73
211.20	1566.70
211.42	1667.05
211.64	1701.86
211.86	1712.10
212.08	1691.62
212.30	1687.53
212.52	1708.01
212.74	1738.73
212.96	1671.14
213.17	1738.73
213.39	1693.67
213.61	1787.88
213.83	1773.54
214.05	1570.79
214.27	1769.44
214.49	1695.72
214.71	1675.24
214.93	1740.77
215.15	1738.73
215.37	1740.77
215.59	1654.76
215.81	1695.72
216.03	1841.12
216.24	1718.25
216.46	1665.00
216.68	1693.67
216.90	1738.73
217.12	1757.16
217.34	1611.75
217.56	1714.15
217.78	1765.35
218.00	1769.44
218.22	1677.29
218.44	1716.20
218.66	1660.90
218.87	1751.01
219.09	1710.05
219.31	1699.81
219.53	1667.05
219.75	1730.53
219.97	1734.63
220.19	1665.00
220.41	1705.96
220.63	1728.49
220.85	1773.54
221.06	1685.48
221.28	1759.21
221.50	1699.81
221.72	1693.67
221.94	1640.42
222.16	1654.76
222.38	1773.54
222.60	1757.16
222.82	1665.00
223.03	1757.16
223.25	1634.28
223.47	1697.77
223.69	1773.54
223.91	1703.91
224.13	1652.71
224.35	1628.14
224.57	1742.82
224.78	1730.53
225.00	1724.39
225.22	1691.62
225.44	1744.87
225.66	1724.39
225.88	1726.44
226.10	1791.97
226.32	1777.64
226.53	1763.30
226.75	1697.77
226.97	1654.76
227.19	1656.81
227.41	1724.39
227.63	1785.83
227.85	1587.18
228.06	1652.71
228.28	1677.29
228.50	1730.53
228.72	1634.28
228.94	1665.00
229.16	1513.45
229.37	1632.23
229.59	1701.86
229.81	1804.26
230.03	1638.38
230.25	1585.13
230.47	1613.80
230.69	1669.09
230.90	1703.91
231.12	1613.80
231.34	1685.48
231.56	1781.73
231.78	1720.29
232.00	1656.81
232.21	1656.81
232.43	1703.91
232.65	1542.12
232.87	1683.43
233.09	1607.66
233.30	1667.05
233.52	1716.20
233.74	1640.42
233.96	1726.44
234.18	1658.85
234.40	1634.28
234.61	1773.54
234.83	1683.43
235.05	1589.22
235.27	1869.80
235.49	1734.63
235.70	1695.72
235.92	1765.35
236.14	1665.00
236.36	1777.64
236.58	1570.79
236.79	1753.06
237.01	1771.49
237.23	1714.15
237.45	1751.01
237.67	1691.62
237.88	1671.14
238.10	1861.60
238.32	1609.70
238.54	1691.62
238.76	1673.19
238.97	1646.57
239.19	1617.90
239.41	1763.30
239.63	1708.01
239.85	1648.61
240.06	1705.96
240.28	1681.38
240.50	1701.86
240.72	1697.77
240.93	1646.57
241.15	1800.16
241.37	1628.14
241.59	1734.63
241.81	1785.83
242.02	1773.54
242.24	1697.77
242.46	1691.62
242.68	1665.00
242.89	1718.25
243.11	1697.77
243.33	1734.63
243.55	1685.48
243.76	1703.91
243.98	1599.46
244.20	1660.90
244.42	1689.57
244.64	1748.97
244.85	1611.75
245.07	1619.94
245.29	1736.68
245.51	1716.20
245.72	1677.29
245.94	1742.82
246.16	1695.72
246.38	1710.05
246.59	1652.71
246.81	1566.70
247.03	1611.75
247.24	1642.47
247.46	1656.81
247.68	1734.63
247.90	1687.53
248.11	1671.14
248.33	1722.34
248.55	1716.20
248.77	1607.66
248.98	1773.54
249.20	1738.73
249.42	1716.20
249.64	1773.54
249.85	1587.18
250.07	1677.29
250.29	1695.72
250.50	1730.53
250.72	1613.80
250.94	1806.31
251.16	1802.21
251.37	1800.16
251.59	1718.25
251.81	1710.05
252.02	1769.44
252.24	1587.18
252.46	1771.49
252.68	1677.29
252.89	1667.05
253.11	1605.61
253.33	1773.54
253.54	1710.05
253.76	1644.52
253.98	1669.09
254.20	1732.58
254.41	1699.81
254.63	1644.52
254.85	1574.89
255.06	1669.09
255.28	1724.39
255.50	1681.38
255.71	1636.33
255.93	1701.86
256.15	1658.85
256.36	1689.57
256.58	1669.09
256.80	1738.73
257.02	1673.19
257.23	1789.92
257.45	1701.86
257.67	1732.58
257.88	1669.09
258.10	1656.81
258.32	1734.63
258.53	1673.19
258.75	1724.39
258.97	1640.42
259.18	1677.29
259.40	1648.61
259.62	1740.77
259.83	1753.06
260.05	1734.63
260.27	1966.05
260.48	1769.44
260.70	1617.90
260.92	1703.91
261.13	1720.29
261.35	1787.88
261.57	1734.63
261.78	1593.32
262.00	1628.14
262.22	1828.84
262.43	1679.33
262.65	1648.61
262.86	1667.05
263.08	1775.59
263.30	1669.09
263.51	1697.77
263.73	1634.28
263.95	1773.54
264.16	1638.38
264.38	1644.52
264.60	1736.68
264.81	1683.43
265.03	1791.97
265.25	1798.12
265.46	1773.54
265.68	1796.07
265.89	1724.39
266.11	1525.74
266.33	1734.63
266.54	1755.11
266.76	1722.34
266.98	1751.01
267.19	1781.73
267.41	1791.97
267.62	1734.63
267.84	1607.66
268.06	1761.25
268.27	1689.57
268.49	1673.19
268.70	1818.60
268.92	1757.16
269.14	1642.47
269.35	1615.85
269.57	1718.25
269.79	1714.15
270.00	1716.20
270.22	1824.74
270.43	1673.19
270.65	1562.60
270.87	1695.72
271.08	1728.49
271.30	1712.10
271.51	1720.29
271.73	1796.07
271.95	1757.16
272.16	1734.63
272.38	1720.29
272.59	1660.90
272.81	1746.92
273.02	1728.49
273.24	1718.25
273.46	1763.30
273.67	1636.33
273.89	1691.62
274.10	1705.96
274.32	1812.45
274.54	1759.21
274.75	1693.67
274.97	1626.09
275.18	1779.68
275.40	1726.44
275.61	1673.19
275.83	1740.77
276.05	1607.66
276.26	1646.57
276.48	1679.33
276.69	1611.75
276.91	1617.90
277.12	1740.77
277.34	1736.68
277.55	1699.81
277.77	1722.34
277.99	1669.09
278.20	1628.14
278.42	1583.08
278.63	1611.75
278.85	1673.19
279.06	1576.94
279.28	1738.73
279.49	1736.68
279.71	1718.25
279.93	1742.82
280.14	1697.77
280.36	1681.38
280.57	1687.53
280.79	1724.39
281.00	1673.19
281.22	1634.28
281.43	1798.12
281.65	1609.70
281.86	1601.51
282.08	1638.38
282.29	1738.73
282.51	1613.80
282.73	1636.33
282.94	1621.99
283.16	1730.53
283.37	1826.79
283.59	1751.01
283.80	1732.58
284.02	1650.66
284.23	1722.34
284.45	1669.09
284.66	1669.09
284.88	1669.09
285.09	1755.11
285.31	1708.01
285.52	1808.36
285.74	1591.27
285.95	1794.02
286.17	1724.39
286.38	1755.11
286.60	1593.32
286.81	1615.85
287.03	1665.00
287.24	1662.95
287.46	1710.05
287.67	1636.33
287.89	1818.60
288.10	1722.34
288.32	1697.77
288.53	1726.44
288.75	1660.90
288.96	1746.92
289.18	1718.25
289.39	1726.44
289.61	1759.21
289.82	1800.16
290.04	1746.92
290.25	1640.42
290.47	1621.99
290.68	1642.47
290.90	1763.30
291.11	1634.28
291.33	1652.71
291.54	1644.52
291.76	1675.24
291.97	1765.35
292.18	1667.05
292.40	1640.42
292.61	1673.19
292.83	1748.97
293.04	1650.66
293.26	1667.05
293.47	1716.20
293.69	1673.19
293.90	1716.20
294.12	1705.96
294.33	1691.62
294.55	1685.48
294.76	1781.73
294.97	1773.54
295.19	1818.60
295.40	1714.15
295.62	1679.33
295.83	1736.68
296.05	1757.16
296.26	1640.42
296.48	1734.63
296.69	1691.62
296.90	1638.38
297.12	1687.53
297.33	1681.38
297.55	1734.63
297.76	1794.02
297.98	1734.63
298.19	1687.53
298.41	1718.25
298.62	1646.57
298.83	1787.88
299.05	1689.57
299.26	1650.66
299.48	1693.67
299.69	1615.85
299.90	1705.96
300.12	1624.04
300.33	1791.97
300.55	1732.58
300.76	1695.72
300.98	1683.43
301.19	1714.15
301.40	1660.90
301.62	1636.33
301.83	1730.53
302.05	1685.48
302.26	1703.91
302.47	1689.57
302.69	1665.00
302.90	1826.79
303.12	1632.23
303.33	1767.40
303.54	1816.55
303.76	1619.94
303.97	1671.14
304.19	1761.25
304.40	1708.01
304.61	1716.20
304.83	1837.03
305.04	1779.68
305.26	1658.85
305.47	1619.94
305.68	1705.96
305.90	1644.52
306.11	1796.07
306.33	1689.57
306.54	1669.09
306.75	1648.61
306.97	1587.18
307.18	1665.00
307.39	1658.85
307.61	1734.63
307.82	1667.05
308.04	1675.24
308.25	1699.81
308.46	1677.29
308.68	1685.48
308.89	1685.48
309.10	1738.73
309.32	1734.63
309.53	1673.19
309.74	1714.15
309.96	1732.58
310.17	1742.82
310.39	1658.85
310.60	1736.68
310.81	1730.53
311.03	1673.19
311.24	1748.97
311.45	1652.71
311.67	1859.56
311.88	1744.87
312.09	1646.57
312.31	1652.71
312.52	1697.77
312.73	1695.72
312.95	1572.84
313.16	1626.09
313.37	1718.25
313.59	1726.44
313.80	1724.39
314.01	1810.40
314.23	1697.77
314.44	1728.49
314.65	1644.52
314.87	1662.95
315.08	1669.09
315.29	1710.05
315.51	1693.67
315.72	1683.43
315.93	1751.01
316.15	1673.19
316.36	1710.05
316.57	1796.07
316.79	1701.86
317.00	1681.38
317.21	1708.01
317.43	1687.53
317.64	1705.96
317.85	1636.33
318.07	1675.24
318.28	1763.30
318.49	1759.21
318.70	1877.99
318.92	1841.12
319.13	1818.60
319.34	1912.80
319.56	1746.92
319.77	1757.16
319.98	1771.49
320.20	1740.77
320.41	1767.40
320.62	1753.06
320.83	1576.94
321.05	1791.97
321.26	1697.77
321.47	1726.44
321.69	1796.07
321.90	1685.48
322.11	1681.38
322.32	1736.68
322.54	1736.68
322.75	1642.47
322.96	1748.97
323.18	1691.62
323.39	1617.90
323.60	1636.33
323.81	1779.68
324.03	1636.33
324.24	1628.14
324.45	1734.63
324.66	1697.77
324.88	1775.59
325.09	1681.38
325.30	1722.34
325.52	1714.15
325.73	1742.82
325.94	1644.52
326.15	1650.66
326.37	1685.48
326.58	1763.30
326.79	1763.30
327.00	1585.13
327.22	1708.01
327.43	1689.57
327.64	1591.27
327.85	1681.38
328.07	1673.19
328.28	1794.02
328.49	1636.33
328.70	1636.33
328.92	1705.96
329.13	1607.66
329.34	1751.01
329.55	1763.30
329.76	1761.25
329.98	1705.96
330.19	1779.68
330.40	1728.49
330.61	1613.80
330.83	1662.95
331.04	1675.24
331.25	1751.01
331.46	1648.61
331.68	1632.23
331.89	1775.59
332.10	1736.68
332.31	1603.56
332.52	1701.86
332.74	1783.78
332.95	1621.99
333.16	1744.87
333.37	1765.35
333.58	1693.67
333.80	1617.90
334.01	1535.98
334.22	1648.61
334.43	1634.28
334.64	1658.85
334.86	1540.07
335.07	1609.70
335.28	1765.35
335.49	1619.94
335.70	1685.48
335.92	1695.72
336.13	1796.07
336.34	1714.15
336.55	1714.15
336.76	1730.53
336.98	1576.94
337.19	1693.67
337.40	1816.55
337.61	1761.25
337.82	1669.09
338.04	1775.59
338.25	1599.46
338.46	1656.81
338.67	1708.01
338.88	1652.71
339.09	1619.94
339.31	1697.77
339.52	1656.81
339.73	1640.42
339.94	1742.82
340.15	1748.97
340.36	1595.37
340.58	1742.82
340.79	1638.38
341.00	1632.23
341.21	1720.29
341.42	1748.97
341.63	1654.76
341.85	1730.53
342.06	1677.29
342.27	1552.36
342.48	1769.44
342.69	1613.80
342.90	1708.01
343.12	1765.35
343.33	1578.98
343.54	1738.73
343.75	1738.73
343.96	1712.10
344.17	1665.00
344.38	1708.01
344.60	1671.14
344.81	1632.23
345.02	1658.85
345.23	1693.67
345.44	1724.39
345.65	1730.53
345.86	1705.96
346.07	1617.90
346.29	1673.19
346.50	1708.01
346.71	1755.11
346.92	1738.73
347.13	1806.31
347.34	1708.01
347.55	1724.39
347.76	1742.82
347.98	1511.40
348.19	1654.76
348.40	1744.87
348.61	1650.66
348.82	1771.49
349.03	1716.20
349.24	1650.66
349.45	1820.64
349.66	1691.62
349.88	1652.71
350.09	1687.53
350.30	1673.19
350.51	1683.43
350.72	1693.67
350.93	1806.31
351.14	1599.46
351.35	1703.91
351.56	1679.33
351.77	1644.52
351.99	1798.12
352.20	1804.26
352.41	1722.34
352.62	1552.36
352.83	1656.81
353.04	1626.09
353.25	1673.19
353.46	1681.38
353.67	1734.63
353.88	1607.66
354.09	1736.68
354.30	1755.11
354.52	1716.20
354.73	1748.97
354.94	1665.00
355.15	1656.81
355.36	1826.79
355.57	1658.85
355.78	1763.30
355.99	1705.96
356.20	1656.81
356.41	1765.35
356.62	1638.38
356.83	1718.25
357.04	1708.01
357.25	1619.94
357.46	1724.39
357.68	1632.23
357.89	1734.63
358.10	1730.53
358.31	1685.48
358.52	1634.28
358.73	1675.24
358.94	1701.86
359.15	1677.29
359.36	1685.48
359.57	1689.57
359.78	1652.71
359.99	1738.73
360.20	1593.32
360.41	1718.25
360.62	1724.39
360.83	1718.25
361.04	1619.94
361.25	1736.68
361.46	1771.49
361.67	1755.11
361.88	1748.97
362.09	1761.25
362.30	1697.77
362.51	1615.85
362.72	1673.19
362.93	1736.68
363.14	1630.18
363.35	1785.83
363.56	1652.71
363.78	1816.55
363.99	1722.34
364.20	1589.22
364.41	1734.63
364.62	1779.68
364.83	1685.48
365.04	1646.57
365.25	1701.86
365.46	1800.16
365.67	1652.71
365.88	1677.29
366.09	1748.97
366.30	1564.65
366.51	1683.43
366.72	1585.13
366.93	1722.34
367.14	1738.73
367.35	1757.16
367.56	1662.95
367.77	1800.16
367.98	1685.48
368.18	1681.38
368.39	1816.55
368.60	1642.47
368.81	1773.54
369.02	1714.15
369.23	1695.72
369.44	1591.27
369.65	1632.23
369.86	1701.86
370.07	1746.92
370.28	1697.77
370.49	1710.05
370.70	1759.21
370.91	1658.85
371.12	1718.25
371.33	1734.63
371.54	1712.10
371.75	1920.99
371.96	1613.80
372.17	1732.58
372.38	1738.73
372.59	1751.01
372.80	1615.85
373.01	1730.53
373.22	1724.39
373.43	1683.43
373.64	1646.57
373.85	1824.74
374.06	1869.80
374.26	1714.15
374.47	1673.19
374.68	1679.33
374.89	1751.01
375.10	1712.10
375.31	1742.82
375.52	1701.86
375.73	1716.20
375.94	1699.81
376.15	1724.39
376.36	1648.61
376.57	1732.58
376.78	1683.43
376.99	1730.53
377.20	1689.57
377.40	1705.96
377.61	1734.63
377.82	1632.23
378.03	1791.97
378.24	1665.00
378.45	1757.16
378.66	1740.77
378.87	1568.74
379.08	1578.98
379.29	1656.81
379.50	1753.06
379.71	1640.42
379.91	1763.30
380.12	1640.42
380.33	1755.11
380.54	1724.39
380.75	1748.97
380.96	1718.25
381.17	1738.73
381.38	1669.09
381.59	1714.15
381.80	1681.38
382.00	1802.21
382.21	1652.71
382.42	1753.06
382.63	1849.32
382.84	1689.57
383.05	1763.30
383.26	1787.88
383.47	1699.81
383.68	1755.11
383.88	1742.82
384.09	1660.90
384.30	1771.49
384.51	1697.77
384.72	1671.14
384.93	1634.28
385.14	1634.28
385.35	1746.92
385.55	1589.22
385.76	1796.07
385.97	1724.39
386.18	1525.74
386.39	1703.91
386.60	1662.95
386.81	1740.77
387.02	1601.51
387.22	1626.09
387.43	1802.21
387.64	1728.49
387.85	1820.64
388.06	2285.53
388.27	4310.97
388.48	6780.82
388.68	8171.40
388.89	9811.82
389.10	9879.40
389.31	8707.96
389.52	7673.74
389.73	6819.74
389.93	6211.49
390.14	5988.26
390.35	5187.50
390.56	4642.75
390.77	3887.04
390.98	3071.95
391.18	2500.57
391.39	2052.06
391.60	1814.50
391.81	1855.46
392.02	1675.24
392.23	1845.22
392.43	1710.05
392.64	1824.74
392.85	1779.68
393.06	1818.60
393.27	1777.64
393.47	1650.66
393.68	1724.39
393.89	1650.66
394.10	1822.69
394.31	1677.29
394.52	1667.05
394.72	1634.28
394.93	1777.64
395.14	1671.14
395.35	1683.43
395.56	1724.39
395.76	1740.77
395.97	1751.01
396.18	1769.44
396.39	1884.13
396.60	1964.00
396.80	1785.83
397.01	1810.40
397.22	1794.02
397.43	1822.69
397.64	1667.05
397.84	1771.49
398.05	1812.45
398.26	1712.10
398.47	1738.73
398.67	1726.44
398.88	1757.16
399.09	1746.92
399.30	1658.85
399.51	1669.09
399.71	1636.33
399.92	1662.95
400.13	1724.39
400.34	1783.78
400.54	1701.86
400.75	1761.25
400.96	1755.11
401.17	1820.64
401.37	1789.92
401.58	1681.38
401.79	1687.53
402.00	1892.32
402.21	1980.39
402.41	2021.35
402.62	1945.57
402.83	2013.15
403.04	1970.15
403.24	2068.45
403.45	1767.40
403.66	1929.19
403.87	1826.79
404.07	1890.28
404.28	1908.71
404.49	1834.98
404.70	1800.16
404.90	1806.31
405.11	1742.82
405.32	1816.55
405.52	1660.90
405.73	1660.90
405.94	1724.39
406.15	1714.15
406.35	1837.03
406.56	1730.53
406.77	1753.06
406.98	1677.29
407.18	1630.18
407.39	1734.63
407.60	1583.08
407.80	1734.63
408.01	1714.15
408.22	1708.01
408.43	1648.61
408.63	1691.62
408.84	1673.19
409.05	1738.73
409.25	1644.52
409.46	1683.43
409.67	1730.53
409.88	1689.57
410.08	1738.73
410.29	1603.56
410.50	1656.81
410.70	1771.49
410.91	1605.61
411.12	1748.97
411.32	1744.87
411.53	1665.00
411.74	1751.01
411.95	1826.79
412.15	1722.34
412.36	1757.16
412.57	1769.44
412.77	1781.73
412.98	1732.58
413.19	1691.62
413.39	1771.49
413.60	1822.69
413.81	1759.21
414.01	1652.71
414.22	1789.92
414.43	1767.40
414.63	1650.66
414.84	1734.63
415.05	1660.90
415.25	1626.09
415.46	1742.82
415.67	1724.39
415.87	1687.53
416.08	1662.95
416.29	1636.33
416.49	1736.68
416.70	1728.49
416.91	1648.61
417.11	1718.25
417.32	1736.68
417.53	1755.11
417.73	1693.67
417.94	1751.01
418.15	1726.44
418.35	1714.15
418.56	1673.19
418.77	1837.03
418.97	1753.06
419.18	1658.85
419.38	1490.92
419.59	1619.94
419.80	1763.30
420.00	1644.52
420.21	1697.77
420.42	1734.63
420.62	1726.44
420.83	1671.14
421.04	1673.19
421.24	1687.53
421.45	1718.25
421.65	1755.11
421.86	1669.09
422.07	1701.86
422.27	1701.86
422.48	1638.38
422.69	1679.33
422.89	1736.68
423.10	1667.05
423.30	1673.19
423.51	1726.44
423.72	1665.00
423.92	1820.64
424.13	1644.52
424.33	1761.25
424.54	1712.10
424.75	1757.16
424.95	1771.49
425.16	1787.88
425.36	1650.66
425.57	1705.96
425.78	1652.71
425.98	1773.54
426.19	1695.72
426.39	1609.70
426.60	1697.77
426.81	1759.21
427.01	1730.53
427.22	1601.51
427.42	1617.90
427.63	1597.42
427.83	1796.07
428.04	1773.54
428.25	1718.25
428.45	1759.21
428.66	1771.49
428.86	1779.68
429.07	1646.57
429.28	1701.86
429.48	1697.77
429.69	1654.76
429.89	1718.25
430.10	1644.52
430.30	1708.01
430.51	1740.77
430.71	1683.43
430.92	1650.66
431.13	1695.72
431.33	1699.81
431.54	1718.25
431.74	1738.73
431.95	1791.97
432.15	1708.01
432.36	1675.24
432.56	1738.73
432.77	1812.45
432.98	1816.55
433.18	1783.78
433.39	1669.09
433.59	1689.57
433.80	1775.59
434.00	1818.60
434.21	1642.47
434.41	1589.22
434.62	1832.93
434.82	1638.38
435.03	1624.04
435.23	1689.57
435.44	1656.81
435.64	1650.66
435.85	1701.86
436.06	1679.33
436.26	1783.78
436.47	1689.57
436.67	1697.77
436.88	1738.73
437.08	1710.05
437.29	1787.88
437.49	1656.81
437.70	1701.86
437.90	1689.57
438.11	1826.79
438.31	1693.67
438.52	1847.27
438.72	1822.69
438.93	1929.19
439.13	1753.06
439.34	1816.55
439.54	1732.58
439.75	1742.82
439.95	1818.60
440.16	1695.72
440.36	1746.92
440.57	1759.21
440.77	1802.21
440.98	1703.91
441.18	1710.05
441.39	1697.77
441.59	1675.24
441.80	1789.92
442.00	1669.09
442.21	1734.63
442.41	1630.18
442.62	1763.30
442.82	1640.42
443.02	1767.40
443.23	1705.96
443.43	1712.10
443.64	1755.11
443.84	1714.15
444.05	1808.36
444.25	1730.53
444.46	1703.91
444.66	1648.61
444.87	1845.22
445.07	1677.29
445.28	1738.73
445.48	1775.59
445.69	1781.73
445.89	1845.22
446.09	1724.39
446.30	2062.30
446.50	2545.63
446.71	3774.41
446.91	4347.84
447.12	4683.70
447.32	4911.03
447.53	4315.07
447.73	3762.12
447.93	3581.90
448.14	3381.20
448.34	3106.77
448.55	2846.68
448.75	2815.96
448.96	2643.93
449.16	2404.32
449.36	2224.09
449.57	2021.35
449.77	1857.51
449.98	1746.92
450.18	1761.25
450.39	1800.16
450.59	1683.43
450.79	1775.59
451.00	1685.48
451.20	1757.16
451.41	1685.48
451.61	1679.33
451.81	1665.00
452.02	1708.01
452.22	1669.09
452.43	1665.00
452.63	1708.01
452.84	1757.16
453.04	1740.77
453.24	1791.97
453.45	1642.47
453.65	1757.16
453.86	1708.01
454.06	1794.02
454.26	1685.48
454.47	1689.57
454.67	1759.21
454.87	1714.15
455.08	1714.15
455.28	1841.12
455.49	1789.92
455.69	1681.38
455.89	1824.74
456.10	1839.08
456.30	1609.70
456.51	1783.78
456.71	1718.25
456.91	1693.67
457.12	1789.92
457.32	1787.88
457.52	1658.85
457.73	1867.75
457.93	1845.22
458.14	1656.81
458.34	1642.47
458.54	1708.01
458.75	1632.23
458.95	1720.29
459.15	1675.24
459.36	1740.77
459.56	1871.84
459.76	1802.21
459.97	1738.73
460.17	1765.35
460.37	1705.96
460.58	1675.24
460.78	1748.97
460.99	1751.01
461.19	1693.67
461.39	1710.05
461.60	1695.72
461.80	1812.45
462.00	1634.28
462.21	1683.43
462.41	1648.61
462.61	1705.96
462.82	1656.81
463.02	1791.97
463.22	1716.20
463.43	1800.16
463.63	1746.92
463.83	1791.97
464.04	1712.10
464.24	1746.92
464.44	1714.15
464.64	1742.82
464.85	1800.16
465.05	1753.06
465.25	1734.63
465.46	1716.20
465.66	1818.60
465.86	1781.73
466.07	1759.21
466.27	1687.53
466.47	1607.66
466.68	1591.27
466.88	1875.94
467.08	1726.44
467.29	1781.73
467.49	1691.62
467.69	1763.30
467.89	1791.97
468.10	1605.61
468.30	1791.97
468.50	1812.45
468.71	1753.06
468.91	1654.76
469.11	1880.04
469.31	1683.43
469.52	1691.62
469.72	1783.78
469.92	1826.79
470.13	1705.96
470.33	1775.59
470.53	1820.64
470.73	2113.50
470.94	2248.67
471.14	2301.92
471.34	2545.63
471.54	2349.02
471.75	2199.52
471.95	2099.17
472.15	2066.40
472.36	2027.49
472.56	2072.54
472.76	2007.01
472.96	2076.64
473.17	1984.48
473.37	1896.42
473.57	1736.68
473.77	1869.80
473.98	1738.73
474.18	1718.25
474.38	1861.60
474.58	1609.70
474.79	1665.00
474.99	1673.19
475.19	1632.23
475.39	1654.76
475.60	1744.87
475.80	1769.44
476.00	1765.35
476.20	1718.25
476.41	1699.81
476.61	1787.88
476.81	1804.26
477.01	1705.96
477.21	1861.60
477.42	1761.25
477.62	1628.14
477.82	1751.01
478.02	1728.49
478.23	1763.30
478.43	1642.47
478.63	1665.00
478.83	1685.48
479.03	1677.29
479.24	1761.25
479.44	1853.41
479.64	1632.23
479.84	1673.19
480.04	1626.09
480.25	1789.92
480.45	1624.04
480.65	1644.52
480.85	1785.83
481.06	1638.38
481.26	1730.53
481.46	1695.72
481.66	1726.44
481.86	1687.53
482.06	1796.07
482.27	1722.34
482.47	1710.05
482.67	1781.73
482.87	1650.66
483.07	1697.77
483.28	1656.81
483.48	1601.51
483.68	1759.21
483.88	1611.75
484.08	1654.76
484.29	1621.99
484.49	1693.67
484.69	1669.09
484.89	1849.32
485.09	1587.18
485.29	1734.63
485.50	1667.05
485.70	1665.00
485.90	1822.69
486.10	1646.57
486.30	1734.63
486.50	1740.77
486.71	1697.77
486.91	1703.91
487.11	1689.57
487.31	1667.05
487.51	1671.14
487.71	1617.90
487.91	1632.23
488.12	1624.04
488.32	1601.51
488.52	1658.85
488.72	1677.29
488.92	1748.97
489.12	1810.40
489.32	1763.30
489.53	1693.67
489.73	1675.24
489.93	1755.11
490.13	1673.19
490.33	1599.46
490.53	1775.59
490.73	1824.74
490.94	1671.14
491.14	1794.02
491.34	1849.32
491.54	2168.80
491.74	2557.91
491.94	2938.84
492.14	3012.56
492.34	2998.23
492.54	2672.60
492.75	2439.13
492.95	2451.42
493.15	2338.78
493.35	2217.95
493.55	2258.91
493.75	2146.27
493.95	2084.83
494.15	2007.01
494.35	1908.71
494.56	1783.78
494.76	1828.84
494.96	1839.08
495.16	1744.87
495.36	1703.91
495.56	1785.83
495.76	1679.33
495.96	1671.14
496.16	1638.38
496.36	1796.07
496.56	1689.57
496.77	1732.58
496.97	1779.68
497.17	1730.53
497.37	1730.53
497.57	1822.69
497.77	1730.53
497.97	1607.66
498.17	1714.15
498.37	1644.52
498.57	1718.25
498.77	1699.81
498.97	1814.50
499.17	1824.74
499.38	1730.53
499.58	1755.11
499.78	1808.36
499.98	1865.70
500.18	1701.86
500.38	1673.19
500.58	1837.03
500.78	2559.96
500.98	4532.15
501.18	5887.91
501.38	6840.22
501.58	7235.47
501.78	6598.56
501.98	5545.90
502.18	5005.24
502.38	4532.15
502.58	4206.53
502.78	3841.99
502.98	3715.02
503.18	3561.42
503.38	3166.16
503.59	2828.24
503.79	2672.60
503.99	2525.15
504.19	2308.06
504.39	2230.24
504.59	2174.94
504.79	2060.26
504.99	2086.88
505.19	1910.75
505.39	1902.56
505.59	2002.91
505.79	1906.66
505.99	1785.83
506.19	1759.21
506.39	1853.41
506.59	1746.92
506.79	1791.97
506.99	1777.64
507.19	1785.83
507.39	1781.73
507.59	1632.23
507.79	1697.77
507.99	1675.24
508.19	1673.19
508.39	1703.91
508.59	1740.77
508.79	1759.21
508.99	1806.31
509.19	1658.85
509.39	1693.67
509.59	1650.66
509.79	1677.29
509.99	1736.68
510.19	1748.97
510.39	1763.30
510.59	1742.82
510.79	1652.71
510.99	1724.39
511.19	1767.40
511.39	1781.73
511.59	1744.87
511.79	1822.69
511.99	1714.15
512.19	1767.40
512.38	1673.19
512.58	1693.67
512.78	1708.01
512.98	1857.51
513.18	1806.31
513.38	1652.71
513.58	1779.68
513.78	1802.21
513.98	1775.59
514.18	1720.29
514.38	1705.96
514.58	1734.63
514.78	1646.57
514.98	1679.33
515.18	1740.77
515.38	1605.61
515.58	1771.49
515.78	1673.19
515.98	1685.48
516.18	1748.97
516.38	1712.10
516.57	1665.00
516.77	1656.81
516.97	1738.73
517.17	1714.15
517.37	1593.32
517.57	1765.35
517.77	1769.44
517.97	1722.34
518.17	1726.44
518.37	1626.09
518.57	1574.89
518.77	1726.44
518.97	1714.15
519.16	1763.30
519.36	1800.16
519.56	1714.15
519.76	1679.33
519.96	1730.53
520.16	1744.87
520.36	1691.62
520.56	1783.78
520.76	1671.14
520.96	1712.10
521.16	1759.21
521.35	1812.45
521.55	1789.92
521.75	1757.16
521.95	1636.33
522.15	1675.24
522.35	1699.81
522.55	1744.87
522.75	1726.44
522.95	1634.28
523.14	1685.48
523.34	1771.49
523.54	1751.01
523.74	1785.83
523.94	1662.95
524.14	1710.05
524.34	1656.81
524.54	1798.12
524.73	1761.25
524.93	1808.36
525.13	1638.38
525.33	1660.90
525.53	1884.13
525.73	1777.64
525.93	1734.63
526.13	1669.09
526.32	1697.77
526.52	1816.55
526.72	1757.16
526.92	1730.53
527.12	1689.57
527.32	1712.10
527.52	1687.53
527.71	1771.49
527.91	1724.39
528.11	1630.18
528.31	1712.10
528.51	1644.52
528.71	1761.25
528.90	1791.97
529.10	1710.05
529.30	1804.26
529.50	1601.51
529.70	1716.20
529.90	1685.48
530.09	1693.67
530.29	1730.53
530.49	1714.15
530.69	1867.75
530.89	1705.96
531.09	1755.11
531.28	1699.81
531.48	1791.97
531.68	1681.38
531.88	1714.15
532.08	1759.21
532.28	1650.66
532.47	1732.58
532.67	1871.84
532.87	1777.64
533.07	1681.38
533.27	1724.39
533.46	1771.49
533.66	1740.77
533.86	1662.95
534.06	1753.06
534.26	1716.20
534.45	1679.33
534.65	1763.30
534.85	1775.59
535.05	1687.53
535.25	1769.44
535.44	1630.18
535.64	1738.73
535.84	1689.57
536.04	1671.14
536.24	1679.33
536.43	1669.09
536.63	1701.86
536.83	1769.44
537.03	1714.15
537.22	1656.81
537.42	1601.51
537.62	1785.83
537.82	1675.24
538.02	1832.93
538.21	1755.11
538.41	1851.36
538.61	1777.64
538.81	1753.06
539.00	1834.98
539.20	1615.85
539.40	1697.77
539.60	1757.16
539.79	1642.47
539.99	1665.00
540.19	1691.62
540.39	1755.11
540.58	1744.87
540.78	1783.78
540.98	1693.67
541.18	1796.07
541.37	1742.82
541.57	1777.64
541.77	1689.57
541.97	1703.91
542.16	1662.95
542.36	1722.34
542.56	1740.77
542.76	1826.79
542.95	1761.25
543.15	1804.26
543.35	1746.92
543.54	1632.23
543.74	1748.97
543.94	1794.02
544.14	1722.34
544.33	1708.01
544.53	1648.61
544.73	1742.82
544.93	1675.24
545.12	1699.81
545.32	1779.68
545.52	1718.25
545.71	1595.37
545.91	1671.14
546.11	1765.35
546.30	1744.87
546.50	1722.34
546.70	1693.67
546.90	1773.54
547.09	1603.56
547.29	1691.62
547.49	1734.63
547.68	1624.04
547.88	1730.53
548.08	1771.49
548.27	2238.43
548.47	1626.09
548.67	1669.09
548.87	1775.59
549.06	1742.82
549.26	1773.54
549.46	1701.86
549.65	1703.91
549.85	1701.86
550.05	1689.57
550.24	1638.38
550.44	1773.54
550.64	1691.62
550.83	1689.57
551.03	1691.62
551.23	1763.30
551.42	1806.31
551.62	1708.01
551.82	1751.01
552.01	1693.67
552.21	1802.21
552.41	1701.86
552.60	1789.92
552.80	1716.20
553.00	1734.63
553.19	1720.29
553.39	1894.37
553.59	1679.33
553.78	1744.87
553.98	1787.88
554.17	1595.37
554.37	1787.88
554.57	1736.68
554.76	1572.84
554.96	1744.87
555.16	1785.83
555.35	1744.87
555.55	1791.97
555.75	1660.90
555.94	1763.30
556.14	1609.70
556.33	1777.64
556.53	1695.72
556.73	1767.40
556.92	1783.78
557.12	1839.08
557.32	1771.49
557.51	1837.03
557.71	1794.02
557.90	1800.16
558.10	1839.08
558.30	1736.68
558.49	1712.10
558.69	1705.96
558.88	1779.68
559.08	1703.91
559.28	1677.29
559.47	1748.97
559.67	1851.36
559.86	1777.64
560.06	1748.97
560.26	1675.24
560.45	1798.12
560.65	1767.40
560.84	1798.12
561.04	1648.61
561.24	1787.88
561.43	1677.29
561.63	1767.40
561.82	1705.96
562.02	1763.30
562.22	1740.77
562.41	1730.53
562.61	1712.10
562.80	1642.47
563.00	1888.23
563.19	1701.86
563.39	1777.64
563.59	1812.45
563.78	1673.19
563.98	1560.55
564.17	1695.72
564.37	1638.38
564.56	1763.30
564.76	1675.24
564.96	1789.92
565.15	1726.44
565.35	1806.31
565.54	1705.96
565.74	1779.68
565.93	1748.97
566.13	1751.01
566.32	1746.92
566.52	1828.84
566.71	1738.73
566.91	1783.78
567.11	1738.73
567.30	1730.53
567.50	1724.39
567.69	1705.96
567.89	1757.16
568.08	1644.52
568.28	1712.10
568.47	1714.15
568.67	1718.25
568.86	1763.30
569.06	1789.92
569.25	1708.01
569.45	1644.52
569.64	1648.61
569.84	1718.25
570.04	1789.92
570.23	1671.14
570.43	1730.53
570.62	1671.14
570.82	1720.29
571.01	1728.49
571.21	1728.49
571.40	1681.38
571.60	1724.39
571.79	1734.63
571.99	1763.30
572.18	1603.56
572.38	1703.91
572.57	1699.81
572.77	1763.30
572.96	1808.36
573.16	1755.11
573.35	1658.85
573.55	1906.66
573.74	1804.26
573.94	1724.39
574.13	1712.10
574.33	1857.51
574.52	1826.79
574.71	1796.07
574.91	1748.97
575.10	1708.01
575.30	1724.39
575.49	1679.33
575.69	1699.81
575.88	1798.12
576.08	1660.90
576.27	1822.69
576.47	1697.77
576.66	1853.41
576.86	1763.30
577.05	1775.59
577.25	1726.44
577.44	1812.45
577.64	1789.92
577.83	1748.97
578.02	1669.09
578.22	1837.03
578.41	1804.26
578.61	1726.44
578.80	1675.24
579.00	1718.25
579.19	1708.01
579.39	1779.68
579.58	1820.64
579.77	1761.25
579.97	1841.12
580.16	1777.64
580.36	1748.97
580.55	1804.26
580.75	1759.21
580.94	1763.30
581.13	1892.32
581.33	1837.03
581.52	1812.45
581.72	1828.84
581.91	1853.41
582.11	1718.25
582.30	1783.78
582.49	1804.26
582.69	1740.77
582.88	1695.72
583.08	1765.35
583.27	1806.31
583.47	1791.97
583.66	1660.90
583.85	1759.21
584.05	1697.77
584.24	1716.20
584.44	1759.21
584.63	1751.01
584.82	1804.26
585.02	1769.44
585.21	1767.40
585.41	1884.13
585.60	1847.27
585.79	1953.76
585.99	1908.71
586.18	1873.89
586.37	2129.89
586.57	3364.81
586.76	9914.22
586.96	24999.55
587.15	35022.31
587.34	40629.65
587.54	42931.57
587.73	37277.13
587.93	26648.17
588.12	21857.97
588.31	18312.94
588.51	16549.64
588.70	15132.44
588.89	14307.11
589.09	12777.28
589.28	11214.68
589.47	9486.19
589.67	7958.41
589.86	6569.88
590.06	4947.89
590.25	3936.20
590.44	3205.07
590.64	2535.39
590.83	2306.01
591.02	2183.13
591.22	1939.43
591.41	1849.32
591.60	1857.51
591.80	1920.99
591.99	1742.82
592.18	1765.35
592.38	1800.16
592.57	1761.25
592.76	1732.58
592.96	1783.78
593.15	1732.58
593.34	1808.36
593.54	1759.21
593.73	1814.50
593.92	1742.82
594.12	1718.25
594.31	1740.77
594.50	1783.78
594.70	1746.92
594.89	1929.19
595.08	1683.43
595.28	1726.44
595.47	1865.70
595.66	1773.54
595.86	1656.81
596.05	1673.19
596.24	1726.44
596.43	1736.68
596.63	1763.30
596.82	1705.96
597.01	1740.77
597.21	1812.45
597.40	1703.91
597.59	1787.88
597.79	1746.92
597.98	1859.56
598.17	1724.39
598.36	1746.92
598.56	1746.92
598.75	1701.86
598.94	1742.82
599.14	1751.01
599.33	1673.19
599.52	1777.64
599.71	1703.91
599.91	1738.73
600.10	1744.87
600.29	1730.53
600.48	1730.53
600.68	1798.12
600.87	1742.82
601.06	1673.19
601.26	1751.01
601.45	1744.87
601.64	1708.01
601.83	1728.49
602.03	1642.47
602.22	1677.29
602.41	1765.35
602.60	1808.36
602.80	1837.03
602.99	1722.34
603.18	1705.96
603.37	1724.39
603.57	1775.59
603.76	1761.25
603.95	1822.69
604.14	1724.39
604.34	1718.25
604.53	1718.25
604.72	1730.53
604.91	1834.98
605.10	1738.73
605.30	1685.48
605.49	1814.50
605.68	1759.21
605.87	1724.39
606.07	1677.29
606.26	1726.44
606.45	1816.55
606.64	1673.19
606.84	1685.48
607.03	1632.23
607.22	1767.40
607.41	1710.05
607.60	1708.01
607.80	1806.31
607.99	1685.48
608.18	1722.34
608.37	1732.58
608.56	1714.15
608.76	1767.40
608.95	1845.22
609.14	1689.57
609.33	1767.40
609.52	1818.60
609.72	1763.30
609.91	1812.45
610.10	1767.40
610.29	1820.64
610.48	1828.84
610.68	1759.21
610.87	1564.65
611.06	1720.29
611.25	1726.44
611.44	1837.03
611.63	1677.29
611.83	1796.07
612.02	1701.86
612.21	1746.92
612.40	1595.37
612.59	1691.62
612.79	1665.00
612.98	1763.30
613.17	1781.73
613.36	1746.92
613.55	1834.98
613.74	1681.38
613.93	1703.91
614.13	1650.66
614.32	1744.87
614.51	1761.25
614.70	1685.48
614.89	1716.20
615.08	1691.62
615.28	2056.16
615.47	1589.22
615.66	1767.40
615.85	1724.39
616.04	1798.12
616.23	1708.01
616.42	1658.85
616.62	1714.15
616.81	1757.16
617.00	1693.67
617.19	1734.63
617.38	1669.09
617.57	1691.62
617.76	1744.87
617.95	1757.16
618.15	1734.63
618.34	1796.07
618.53	1626.09
618.72	1761.25
618.91	1769.44
619.10	1851.36
619.29	1697.77
619.48	1705.96
619.68	1671.14
619.87	1683.43
620.06	1685.48
620.25	1767.40
620.44	1716.20
620.63	1740.77
620.82	1785.83
621.01	1697.77
621.20	1642.47
621.39	1708.01
621.59	1712.10
621.78	1650.66
621.97	1691.62
622.16	1746.92
622.35	1695.72
622.54	1814.50
622.73	1822.69
622.92	1648.61
623.11	1839.08
623.30	1669.09
623.49	1705.96
623.68	1689.57
623.88	1767.40
624.07	1697.77
624.26	1720.29
624.45	1722.34
624.64	1689.57
624.83	1675.24
625.02	1673.19
625.21	1714.15
625.40	1656.81
625.59	1783.78
625.78	1710.05
625.97	1757.16
626.16	1691.62
626.35	1753.06
626.54	1710.05
626.74	1841.12
626.93	1740.77
627.12	1685.48
627.31	1812.45
627.50	1726.44
627.69	1761.25
627.88	1771.49
628.07	1746.92
628.26	1560.55
628.45	1636.33
628.64	1624.04
628.83	1708.01
629.02	1685.48
629.21	1714.15
629.40	1779.68
629.59	1650.66
629.78	1675.24
629.97	1687.53
630.16	1742.82
630.35	1640.42
630.54	1665.00
630.73	1656.81
630.92	1675.24
631.11	1626.09
631.30	1789.92
631.49	1748.97
631.68	1712.10
631.87	1697.77
632.06	1644.52
632.25	1789.92
632.44	1748.97
632.63	1720.29
632.82	1626.09
633.01	1662.95
633.20	1718.25
633.39	1746.92
633.58	1746.92
633.77	1722.34
633.96	1712.10
634.15	1722.34
634.34	1751.01
634.53	1714.15
634.72	1634.28
634.91	1656.81
635.10	1746.92
635.29	1685.48
635.48	1665.00
635.67	1652.71
635.86	1626.09
636.05	1800.16
636.24	1691.62
636.43	1746.92
636.62	1708.01
636.81	1601.51
637.00	1703.91
637.19	1705.96
637.38	1705.96
637.57	1671.14
637.76	1703.91
637.95	1701.86
638.14	1591.27
638.33	1652.71
638.52	1763.30
638.71	1673.19
638.89	1708.01
639.08	1865.70
639.27	1765.35
639.46	1728.49
639.65	1791.97
639.84	1642.47
640.03	1789.92
640.22	1705.96
640.41	1861.60
640.60	1722.34
640.79	1718.25
640.98	1677.29
641.17	1732.58
641.36	1736.68
641.55	1710.05
641.74	1611.75
641.92	1642.47
642.11	1574.89
642.30	1687.53
642.49	1757.16
642.68	1701.86
642.87	1730.53
643.06	1683.43
643.25	1675.24
643.44	1677.29
643.63	1726.44
643.82	1767.40
644.00	1660.90
644.19	1708.01
644.38	1583.08
644.57	1730.53
644.76	1736.68
644.95	1634.28
645.14	1691.62
645.33	1619.94
645.52	1767.40
645.71	1658.85
645.89	1644.52
646.08	1738.73
646.27	1689.57
646.46	1820.64
646.65	1701.86
646.84	1716.20
647.03	1613.80
647.22	1781.73
647.40	1710.05
647.59	1673.19
647.78	1634.28
647.97	1626.09
648.16	1744.87
648.35	1785.83
648.54	1751.01
648.73	1630.18
648.91	1769.44
649.10	1742.82
649.29	1636.33
649.48	1681.38
649.67	1769.44
649.86	1617.90
650.05	1693.67
650.23	1753.06
650.42	1617.90
650.61	1718.25
650.80	1695.72
650.99	1779.68
651.18	1771.49
651.36	1755.11
651.55	1744.87
651.74	1783.78
651.93	1609.70
652.12	1662.95
652.31	1761.25
652.49	1755.11
652.68	1548.26
652.87	1734.63
653.06	1769.44
653.25	1820.64
653.44	1697.77
653.62	1816.55
653.81	1734.63
654.00	1703.91
654.19	1767.40
654.38	1804.26
654.56	1759.21
654.75	1722.34
654.94	1748.97
655.13	1714.15
655.32	1736.68
655.51	1738.73
655.69	1695.72
655.88	1646.57
656.07	1654.76
656.26	1714.15
656.45	1566.70
656.63	1757.16
656.82	1751.01
657.01	1796.07
657.20	1718.25
657.38	1779.68
657.57	1755.11
657.76	1626.09
657.95	1726.44
658.14	1656.81
658.32	1689.57
658.51	1642.47
658.70	1734.63
658.89	1791.97
659.08	1722.34
659.26	1834.98
659.45	1681.38
659.64	1763.30
659.83	1652.71
660.01	1888.23
660.20	1673.19
660.39	1783.78
660.58	1662.95
660.76	1658.85
660.95	1650.66
661.14	1671.14
661.33	1662.95
661.51	1648.61
661.70	1734.63
661.89	1796.07
662.08	1683.43
662.26	1603.56
662.45	1652.71
662.64	1851.36
662.83	1744.87
663.01	1687.53
663.20	1759.21
663.39	1751.01
663.58	1740.77
663.76	1740.77
663.95	1722.34
664.14	1624.04
664.32	1671.14
664.51	1683.43
664.70	1632.23
664.89	1777.64
665.07	1671.14
665.26	1791.97
665.45	1615.85
665.64	1781.73
665.82	1736.68
666.01	1738.73
666.20	1669.09
666.38	1828.84
666.57	1812.45
666.76	2189.28
666.95	4603.83
667.13	10413.92
667.32	15329.05
667.51	18056.94
667.69	19220.19
667.88	18028.27
668.07	12322.63
668.25	9633.64
668.44	8085.38
668.63	7356.30
668.81	6868.89
669.00	6268.83
669.19	5771.18
669.38	5156.79
669.56	4566.97
669.75	3995.59
669.94	3491.79
670.12	2922.45
670.31	2484.19
670.50	2353.12
670.68	2052.06
670.87	1882.08
671.06	1730.53
671.24	1800.16
671.43	1804.26
671.62	1738.73
671.80	1716.20
671.99	1675.24
672.18	1689.57
672.36	1705.96
672.55	1714.15
672.74	1730.53
672.92	1685.48
673.11	1689.57
673.29	1679.33
673.48	1751.01
673.67	1683.43
673.85	1814.50
674.04	1712.10
674.23	1771.49
674.41	1783.78
674.60	1589.22
674.79	1615.85
674.97	1583.08
675.16	1642.47
675.34	1716.20
675.53	1708.01
675.72	1800.16
675.90	1759.21
676.09	1685.48
676.28	1685.48
676.46	1544.17
676.65	1746.92
676.83	1658.85
677.02	1671.14
677.21	1654.76
677.39	1683.43
677.58	1658.85
677.77	1722.34
677.95	1738.73
678.14	1736.68
678.32	1660.90
678.51	1630.18
678.70	1820.64
678.88	1665.00
679.07	1730.53
679.25	1732.58
679.44	1644.52
679.63	1591.27
679.81	1687.53
680.00	1767.40
680.18	1716.20
680.37	1722.34
680.55	1726.44
680.74	1646.57
680.93	1624.04
681.11	1732.58
681.30	1667.05
681.48	1765.35
681.67	1722.34
681.85	1785.83
682.04	1667.05
682.23	1742.82
682.41	1769.44
682.60	1701.86
682.78	1720.29
682.97	1656.81
683.15	1675.24
683.34	1779.68
683.53	1771.49
683.71	1615.85
683.90	1697.77
684.08	1832.93
684.27	1697.77
684.45	1679.33
684.64	1751.01
684.82	1765.35
685.01	1744.87
685.19	1671.14
685.38	1796.07
685.57	1705.96
685.75	1640.42
685.94	1624.04
686.12	1710.05
686.31	1712.10
686.49	1818.60
686.68	1581.03
686.86	1705.96
687.05	1673.19
687.23	1822.69
687.42	1683.43
687.60	1615.85
687.79	1751.01
687.97	1746.92
688.16	1783.78
688.34	1800.16
688.53	1595.37
688.71	1708.01
688.90	1710.05
689.08	1689.57
689.27	1609.70
689.45	1796.07
689.64	1755.11
689.82	1673.19
690.01	1751.01
690.19	1703.91
690.38	1656.81
690.56	1689.57
690.75	1685.48
690.93	1638.38
691.12	1593.32
691.30	1697.77
691.49	1710.05
691.67	1744.87
691.86	1802.21
692.04	1677.29
692.23	1667.05
692.41	1669.09
692.60	1826.79
692.78	1691.62
692.97	1683.43
693.15	1689.57
693.34	1767.40
693.52	1814.50
693.71	1687.53
693.89	1669.09
694.08	1609.70
694.26	1740.77
694.44	1722.34
694.63	1710.05
694.81	1673.19
695.00	1681.38
695.18	1787.88
695.37	1822.69
695.55	1671.14
695.74	1705.96
695.92	1621.99
696.10	1712.10
696.29	1585.13
696.47	1648.61
696.66	1609.70
696.84	1636.33
697.03	1767.40
697.21	1751.01
697.40	2295.77
697.58	1796.07
697.76	1646.57
697.95	1640.42
698.13	1675.24
698.32	1681.38
698.50	1648.61
698.68	1648.61
698.87	1712.10
699.05	1759.21
699.24	1673.19
699.42	1621.99
699.61	1742.82
699.79	1687.53
699.97	1677.29
700.16	1624.04
700.34	1660.90
700.53	1640.42
700.71	1843.17
700.89	1703.91
701.08	1669.09
701.26	1720.29
701.45	2000.87
701.63	1613.80
701.81	1662.95
702.00	1648.61
702.18	1646.57
702.37	1603.56
702.55	1660.90
702.73	1751.01
702.92	1619.94
703.10	1712.10
703.28	1722.34
703.47	1603.56
703.65	1810.40
703.84	1662.95
704.02	1716.20
704.20	1765.35
704.39	1658.85
704.57	1681.38
704.75	1755.11
704.94	1751.01
705.12	1677.29
705.30	1804.26
705.49	2250.72
705.67	4323.26
705.86	9529.20
706.04	12709.69
706.22	14536.48
706.41	15566.61
706.59	14059.31
706.77	9701.23
706.96	7546.76
707.14	6705.05
707.32	6055.84
707.51	5615.53
707.69	5007.28
707.87	4274.11
708.06	3506.12
708.24	2973.65
708.42	2478.04
708.61	2271.20
708.79	1898.47
708.97	1929.19
709.16	1787.88
709.34	1748.97
709.52	1816.55
709.71	1691.62
709.89	1769.44
710.07	1669.09
710.26	1730.53
710.44	1746.92
710.62	1714.15
710.80	1675.24
710.99	1746.92
711.17	1677.29
711.35	1691.62
711.54	1685.48
711.72	1777.64
711.90	1705.96
712.09	1742.82
712.27	1681.38
712.45	1681.38
712.63	1609.70
712.82	1695.72
713.00	1712.10
713.18	1746.92
713.37	1751.01
713.55	1714.15
713.73	1712.10
713.91	1695.72
714.10	1621.99
714.28	1705.96
714.46	1724.39
714.65	1693.67
714.83	1689.57
715.01	1701.86
715.19	1734.63
715.38	1642.47
715.56	1701.86
715.74	1705.96
715.92	1621.99
716.11	1744.87
716.29	1613.80
716.47	1675.24
716.65	1800.16
716.84	1636.33
717.02	1753.06
717.20	1613.80
717.38	1570.79
717.57	1712.10
717.75	1685.48
717.93	1665.00
718.11	1763.30
718.30	1665.00
718.48	1726.44
718.66	1773.54
718.84	1724.39
719.03	1728.49
719.21	1648.61
719.39	1863.65
719.57	1703.91
719.75	1775.59
719.94	1597.42
720.12	1636.33
720.30	1732.58
720.48	1781.73
720.67	1613.80
720.85	1693.67
721.03	1708.01
721.21	1654.76
721.39	1806.31
721.58	1753.06
721.76	1689.57
721.94	1759.21
722.12	1794.02
722.30	1722.34
722.49	1710.05
722.67	1767.40
722.85	1708.01
723.03	1628.14
723.21	1644.52
723.40	1738.73
723.58	1732.58
723.76	1742.82
723.94	1665.00
724.12	1744.87
724.30	1705.96
724.49	1763.30
724.67	1599.46
724.85	1744.87
725.03	1613.80
725.21	1720.29
725.40	1757.16
725.58	1703.91
725.76	1783.78
725.94	1734.63
726.12	1701.86
726.30	1736.68
726.49	1712.10
726.67	1687.53
726.85	1759.21
727.03	1804.26
727.21	2162.66
727.39	2781.14
727.57	3958.72
727.76	4267.97
727.94	4401.08
728.12	4337.60
728.30	3667.91
728.48	2922.45
728.66	2731.99
728.84	2570.20
729.03	2293.72
729.21	2150.37
729.39	2013.15
729.57	1767.40
729.75	1832.93
729.93	1804.26
730.11	1708.01
730.30	1683.43
730.48	1650.66
730.66	1802.21
730.84	1687.53
731.02	1662.95
731.20	1703.91
731.38	1648.61
731.56	1628.14
731.74	1535.98
731.93	1724.39
732.11	1665.00
732.29	1603.56
732.47	1734.63
732.65	1697.77
732.83	1734.63
733.01	1738.73
733.19	1675.24
733.37	1705.96
733.56	1708.01
733.74	1677.29
733.92	1785.83
734.10	1669.09
734.28	1734.63
734.46	1662.95
734.64	1689.57
734.82	1665.00
735.00	1658.85
735.18	1689.57
735.36	1697.77
735.54	1667.05
735.73	1712.10
735.91	1718.25
736.09	1738.73
736.27	1665.00
736.45	1705.96
736.63	1583.08
736.81	1714.15
736.99	1699.81
737.17	1718.25
737.35	1634.28
737.53	1665.00
737.71	1703.91
737.89	1734.63
738.07	1701.86
738.25	1685.48
738.43	1654.76
738.61	1589.22
738.80	1642.47
738.98	1617.90
739.16	1667.05
739.34	1689.57
739.52	1746.92
739.70	1689.57
739.88	1746.92
740.06	1753.06
740.24	1572.84
740.42	1730.53
740.60	1552.36
740.78	1617.90
740.96	1574.89
741.14	1636.33
741.32	1671.14
741.50	1646.57
741.68	1837.03
741.86	1787.88
742.04	1753.06
742.22	1660.90
742.40	1691.62
742.58	1609.70
742.76	1628.14
742.94	1769.44
743.12	1576.94
743.30	1726.44
743.48	1640.42
743.66	1736.68
743.84	1646.57
744.02	1662.95
744.20	1693.67
744.38	1599.46
744.56	1660.90
744.74	1802.21
744.92	1763.30
745.10	1789.92
745.28	1765.35
745.46	1759.21
745.64	1671.14
745.82	1761.25
746.00	1785.83
746.18	1699.81
746.36	1669.09
746.54	1736.68
746.72	1658.85
746.90	1732.58
747.08	1765.35
747.26	1609.70
747.44	1816.55
747.62	1722.34
747.80	1712.10
747.98	1642.47
748.15	1667.05
748.33	1787.88
748.51	1742.82
748.69	1802.21
748.87	1640.42
749.05	1609.70
749.23	1697.77
749.41	1648.61
749.59	1691.62
749.77	1771.49
749.95	1708.01
750.13	1644.52
750.31	1656.81
750.49	1687.53
750.67	1787.88
750.85	1818.60
751.03	1687.53
751.20	1787.88
751.38	1624.04
751.56	1701.86
751.74	1624.04
751.92	1593.32
752.10	1640.42
752.28	1798.12
752.46	1621.99
752.64	1685.48
752.82	1705.96
753.00	1724.39
753.18	1703.91
753.35	1654.76
753.53	1687.53
753.71	1642.47
753.89	1789.92
754.07	1691.62
754.25	1769.44
754.43	1669.09
754.61	1595.37
754.79	1738.73
754.97	1585.13
755.14	1814.50
755.32	1621.99
755.50	1656.81
755.68	1742.82
755.86	1642.47
756.04	1613.80
756.22	1560.55
756.40	1796.07
756.57	1779.68
756.75	1650.66
756.93	1742.82
757.11	1734.63
757.29	1562.60
757.47	1642.47
757.65	1595.37
757.82	1615.85
758.00	1652.71
758.18	1638.38
758.36	1687.53
758.54	1759.21
758.72	1597.42
758.90	1697.77
759.07	1718.25
759.25	1624.04
759.43	1773.54
759.61	1652.71
759.79	2185.18
759.97	1705.96
760.15	1660.90
760.32	1654.76
760.50	1699.81
760.68	1769.44
760.86	1648.61
761.04	1748.97
761.22	1669.09
761.39	1701.86
761.57	1685.48
761.75	1689.57
761.93	1781.73
762.11	1640.42
762.28	1763.30
762.46	1558.50
762.64	1757.16
762.82	1609.70
763.00	1587.18
763.18	1732.58
763.35	1669.09
763.53	1691.62
763.71	1640.42
763.89	1683.43
764.07	1705.96
764.24	1685.48
764.42	1742.82
764.60	1703.91
764.78	1728.49
764.96	1746.92
765.13	1746.92
765.31	1673.19
765.49	1644.52
765.67	1665.00
765.84	1632.23
766.02	1687.53
766.20	1656.81
766.38	1681.38
766.56	1695.72
766.73	1734.63
766.91	1656.81
767.09	1683.43
767.27	1697.77
767.44	1701.86
767.62	1675.24
767.80	1726.44
767.98	1642.47
768.15	1677.29
768.33	1714.15
768.51	1742.82
768.69	1667.05
768.87	1753.06
769.04	1703.91
769.22	1810.40
769.40	1732.58
769.58	1810.40
769.75	1724.39
769.93	1697.77
770.11	1662.95
770.28	1615.85
770.46	1720.29
770.64	1703.91
770.82	1775.59
770.99	1673.19
771.17	1736.68
771.35	1789.92
771.53	1703.91
771.70	1708.01
771.88	1714.15
772.06	1636.33
772.23	1693.67
772.41	1753.06
772.59	1619.94
772.77	1581.03
772.94	1746.92
773.12	1673.19
773.30	1728.49
773.47	1720.29
773.65	1624.04
773.83	1718.25
774.01	1685.48
774.18	1662.95
774.36	1662.95
774.54	1656.81
774.71	1728.49
774.89	1656.81
775.07	1771.49
775.24	1693.67
775.42	1642.47
775.60	1761.25
775.78	1615.85
775.95	1634.28
776.13	1628.14
776.31	1593.32
776.48	1718.25
776.66	1771.49
776.84	1654.76
777.01	1650.66
777.19	1681.38
777.37	1699.81
777.54	1681.38
777.72	1834.98
777.90	1779.68
778.07	1654.76
778.25	1847.27
778.43	1720.29
778.60	1697.77
778.78	1712.10
778.96	1800.16
779.13	1699.81
779.31	1740.77
779.49	1648.61
779.66	1708.01
779.84	1654.76
780.01	1667.05
780.19	1673.19
780.37	1718.25
780.54	1738.73
780.72	1599.46
780.90	1718.25
781.07	1693.67
781.25	1669.09
781.43	1701.86
781.60	1697.77
781.78	1753.06
781.95	1650.66
782.13	1681.38
782.31	1730.53
782.48	1642.47
782.66	1642.47
782.83	1779.68
783.01	1675.24
783.19	1808.36
783.36	1648.61
783.54	1650.66
783.72	1705.96
783.89	1716.20
784.07	1669.09
784.24	1775.59
784.42	1689.57
784.60	1693.67
784.77	1621.99
784.95	1607.66
785.12	1665.00
785.30	1734.63
785.47	1652.71
785.65	1628.14
785.83	1626.09
786.00	1693.67
786.18	1638.38
786.35	1677.29
786.53	1665.00
786.71	1730.53
786.88	1714.15
787.06	1699.81
787.23	1671.14
787.41	1585.13
787.58	1722.34
787.76	1671.14
787.94	1693.67
788.11	1619.94
788.29	1716.20
788.46	1574.89
788.64	1652.71
788.81	1624.04
788.99	1646.57
789.16	1640.42
789.34	1705.96
789.52	1638.38
789.69	1693.67
789.87	1617.90
790.04	1667.05
790.22	1693.67
790.39	1816.55
790.57	1632.23
790.74	1669.09
790.92	1720.29
791.09	1591.27
791.27	1693.67
791.44	1662.95
791.62	1746.92
791.79	1681.38
791.97	1746.92
792.15	1808.36
792.32	1767.40
792.50	1796.07
792.67	1746.92
792.85	1726.44
793.02	1687.53
793.20	1701.86
793.37	1693.67
793.55	1652.71
793.72	1677.29
793.90	1720.29
794.07	1652.71
794.25	1650.66
794.42	1677.29
794.60	1716.20
794.77	1652.71
794.95	1730.53
795.12	1761.25
795.30	1673.19
795.47	1617.90
795.65	1767.40
795.82	1718.25
796.00	1640.42
796.17	1693.67
796.34	1697.77
796.52	1636.33
796.69	1691.62
796.87	1710.05
797.04	1679.33
797.22	1818.60
797.39	1763.30
797.57	1710.05
797.74	1650.66
797.92	1703.91
798.09	1636.33
798.27	1742.82
798.44	1705.96
798.62	1660.90
798.79	1648.61
798.96	1800.16
799.14	1669.09
799.31	1828.84
799.49	1628.14
799.66	1751.01
799.84	1742.82
800.01	1652.71
800.19	1744.87
800.36	1550.31
800.53	1687.53
800.71	1734.63
800.88	1802.21
801.06	1597.42
801.23	1658.85
801.41	1658.85
801.58	1624.04
801.75	1671.14
801.93	1712.10
802.10	1697.77
802.28	1626.09
802.45	1689.57
802.63	1669.09
802.80	1783.78
802.97	1687.53
803.15	1691.62
803.32	1691.62
803.50	1701.86
803.67	1722.34
803.84	1566.70
804.02	1757.16
804.19	1693.67
804.37	1550.31
804.54	1644.52
804.71	1673.19
804.89	1656.81
805.06	1617.90
805.24	1644.52
805.41	1701.86
805.58	1710.05
805.76	1871.84
805.93	1753.06
806.10	1734.63
806.28	1710.05
806.45	1652.71
806.63	1744.87
806.80	1671.14
806.97	1716.20
807.15	1722.34
807.32	1677.29
807.49	1673.19
807.67	1591.27
807.84	1675.24
808.01	1583.08
808.19	1738.73
808.36	1716.20
808.54	1695.72
808.71	1570.79
808.88	1714.15
809.06	1748.97
809.23	1710.05
809.40	1648.61
809.58	1714.15
809.75	1695.72
809.92	1654.76
810.10	1755.11
810.27	1681.38
810.44	1722.34
810.62	1681.38
810.79	1742.82
810.96	1607.66
811.14	1710.05
811.31	1710.05
811.48	1746.92
811.66	1654.76
811.83	1710.05
812.00	1837.03
812.18	1714.15
812.35	1812.45
812.52	1572.84
812.69	1656.81
812.87	1701.86
813.04	1656.81
813.21	1669.09
813.39	1632.23
813.56	1644.52
813.73	1796.07
813.91	1636.33
814.08	1662.95
814.25	1701.86
814.42	1685.48
814.60	1687.53
814.77	1630.18
814.94	1681.38
815.12	1693.67
815.29	1779.68
815.46	1583.08
815.63	1701.86
815.81	1675.24
815.98	1693.67
816.15	1691.62
816.33	1781.73
816.50	1644.52
816.67	1624.04
816.84	1738.73
817.02	1652.71
817.19	1660.90
817.36	1689.57
817.53	1654.76
817.71	1654.76
817.88	1703.91
818.05	1675.24
818.22	1638.38
818.40	1789.92
818.57	1693.67
818.74	1800.16
818.91	1656.81
819.09	1757.16
819.26	1689.57
819.43	1652.71
819.60	1675.24
819.78	1691.62
819.95	1796.07
820.12	1624.04
820.29	1767.40
820.47	1775.59
820.64	1683.43
820.81	1556.46
820.98	1763.30
821.15	1624.04
821.33	1740.77
821.50	1667.05
821.67	1705.96
821.84	1640.42
822.02	1710.05
822.19	1783.78
822.36	1685.48
822.53	1665.00
822.70	1656.81
822.88	1681.38
823.05	1734.63
823.22	1603.56
823.39	1767.40
823.56	1642.47
823.74	1757.16
823.91	1648.61
824.08	1607.66
824.25	1570.79
824.42	1779.68
824.60	1726.44
824.77	1726.44
824.94	1599.46
825.11	1736.68
825.28	1605.61
825.45	1687.53
825.63	1769.44
825.80	1587.18
825.97	1730.53
826.14	1662.95
826.31	1621.99
826.48	1748.97
826.66	1621.99
826.83	1640.42
827.00	1650.66
827.17	1628.14
827.34	1691.62
827.51	1701.86
827.69	1708.01
827.86	1583.08
828.03	1642.47
828.20	1681.38
828.37	1658.85
828.54	1753.06
828.71	1683.43
828.89	1781.73
829.06	1763.30
829.23	1822.69
829.40	1646.57
829.57	1710.05
829.74	1728.49
829.91	1662.95
830.09	1669.09
830.26	1744.87
830.43	1802.21
830.60	1656.81
830.77	1720.29
830.94	1759.21
831.11	1808.36
831.28	1687.53
831.46	1730.53
831.63	1667.05
831.80	1675.24
831.97	1595.37
832.14	1677.29
832.31	1708.01
832.48	1685.48
832.65	1757.16
832.82	1728.49
832.99	1673.19
833.17	1591.27
833.34	1763.30
833.51	1843.17
833.68	1525.74
833.85	1720.29
834.02	1554.41
834.19	1632.23
834.36	1718.25
834.53	1748.97
834.70	1724.39
834.87	1759.21
835.04	1726.44
835.22	1535.98
835.39	1638.38
835.56	1667.05
835.73	1626.09
835.90	1730.53
836.07	1685.48
836.24	1767.40
836.41	1660.90
836.58	1634.28
836.75	1687.53
836.92	1714.15
837.09	1689.57
837.26	1718.25
837.43	1726.44
837.60	1705.96
837.77	1626.09
837.94	1675.24
838.12	1832.93
838.29	1742.82
838.46	1587.18
838.63	1636.33
838.80	1802.21
838.97	1716.20
839.14	1644.52
839.31	1736.68
839.48	1718.25
839.65	1607.66
839.82	1716.20
839.99	1677.29
840.16	1630.18
840.33	1654.76
840.50	1646.57
840.67	1636.33
840.84	1578.98
841.01	1775.59
841.18	1671.14
841.35	1665.00
841.52	1699.81
841.69	1828.84
841.86	1738.73
842.03	1683.43
842.20	1742.82
842.37	1656.81
842.54	1679.33
842.71	1787.88
842.88	1611.75
843.05	1665.00
843.22	1705.96
843.39	1716.20
843.56	1667.05
843.73	1710.05
843.90	1732.58
844.07	1718.25
844.24	1617.90
844.41	1744.87
844.58	1730.53
844.75	1658.85
844.92	1693.67
845.09	1744.87
845.26	1626.09
845.43	1740.77
845.60	1712.10
845.77	1761.25
845.94	1712.10
846.10	1722.34
846.27	1615.85
846.44	1673.19
846.61	1621.99
846.78	1669.09
846.95	1701.86
847.12	1644.52
847.29	1601.51
847.46	1681.38
847.63	1726.44
847.80	1658.85
847.97	1648.61
848.14	1892.32
848.31	1652.71
848.48	1617.90
848.65	1689.57
848.82	1638.38
848.98	1751.01
849.15	1726.44
849.32	1687.53
849.49	1744.87
849.66	1722.34
849.83	1722.34
850.00	1677.29
850.17	1722.34
850.34	1685.48
850.51	1619.94
850.68	1636.33
850.85	1804.26
851.01	1701.86
851.18	1677.29
851.35	1650.66
851.52	1779.68
851.69	1714.15
851.86	1646.57
852.03	1732.58
852.20	1759.21
852.37	1757.16
852.53	1626.09
852.70	1722.34
852.87	1691.62
853.04	1767.40
853.21	1701.86
853.38	1679.33
853.55	1748.97
853.72	1755.11
853.89	1597.42
854.05	1646.57
854.22	1679.33
854.39	1621.99
854.56	1669.09
854.73	1765.35
854.90	1675.24
855.07	1642.47
855.23	1621.99
855.40	1718.25
855.57	1734.63
855.74	1630.18
855.91	1880.04
856.08	1648.61
856.25	1511.40
856.41	1652.71
856.58	1703.91
856.75	1650.66
856.92	1609.70
857.09	1779.68
857.26	1576.94
857.42	1679.33
857.59	1738.73
857.76	1732.58
857.93	1683.43
858.10	1753.06
858.27	1558.50
858.43	1734.63
858.60	1615.85
858.77	1671.14
858.94	1607.66
859.11	1746.92
859.27	1679.33
859.44	1722.34
859.61	1757.16
859.78	1681.38
859.95	1624.04
860.12	1665.00
860.28	1785.83
860.45	1787.88
860.62	1673.19
860.79	1673.19
860.95	1693.67
861.12	1675.24
861.29	1628.14
861.46	1679.33
861.63	1642.47
861.79	1718.25
861.96	1597.42
862.13	1679.33
862.30	1794.02
862.47	1583.08
862.63	1642.47
862.80	1759.21
862.97	1671.14
863.14	1732.58
863.30	1662.95
863.47	1675.24
863.64	1763.30
863.81	1763.30
863.97	1703.91
864.14	1757.16
864.31	1652.71
864.48	1794.02
864.65	1619.94
864.81	1726.44
864.98	1755.11
865.15	1765.35
865.32	1722.34
865.48	1722.34
865.65	1714.15
865.82	1636.33
865.98	1675.24
866.15	1820.64
866.32	1607.66
866.49	1703.91
866.65	1746.92
866.82	1617.90
866.99	1710.05
867.16	1705.96
867.32	1630.18
867.49	1683.43
867.66	1738.73
867.83	1617.90
867.99	1644.52
868.16	1687.53
868.33	1656.81
868.49	1667.05
868.66	1611.75
868.83	1683.43
868.99	1658.85
869.16	1669.09
869.33	1757.16
869.50	1673.19
869.66	1744.87
869.83	1730.53
870.00	1583.08
870.16	1675.24
870.33	1630.18
870.50	1738.73
870.66	1710.05
870.83	1787.88
871.00	1765.35
871.17	1705.96
871.33	1710.05
871.50	1716.20
871.67	1697.77
871.83	1570.79
872.00	1812.45
872.17	1675.24
872.33	1685.48
872.50	1701.86
872.67	1775.59
872.83	1673.19
873.00	1687.53
873.17	1712.10
873.33	1710.05
873.50	1757.16
873.67	1529.83
873.83	1642.47
874.00	1660.90
874.16	1738.73
874.33	1693.67
874.50	1572.84
874.66	1738.73
874.83	1718.25
875.00	1699.81
875.16	1730.53
875.33	1744.87
875.50	1556.46
875.66	1644.52
875.83	1595.37
875.99	1751.01
876.16	1679.33
876.33	1646.57
876.49	1685.48
876.66	1738.73
876.83	1601.51
876.99	1636.33
877.16	1755.11
877.32	1802.21
877.49	1689.57
877.66	1796.07
877.82	1705.96
877.99	1710.05
878.15	1730.53
878.32	1628.14
878.49	1640.42
878.65	1652.71
878.82	1736.68
878.98	1619.94
879.15	1740.77
879.32	1728.49
879.48	1724.39
879.65	1724.39
879.81	1695.72
879.98	1683.43
880.15	1570.79
880.31	1742.82
880.48	1675.24
880.64	1751.01
880.81	1757.16
880.97	1818.60
881.14	1718.25
881.31	1611.75
881.47	1798.12
881.64	1677.29
881.80	1589.22
881.97	1646.57
882.13	1734.63
882.30	1638.38
882.47	1621.99
882.63	1656.81
882.80	1560.55
882.96	1624.04
883.13	1693.67
883.29	1636.33
883.46	1767.40
883.62	1742.82
883.79	1662.95
883.95	1669.09
884.12	1675.24
884.29	1699.81
884.45	1654.76
884.62	1732.58
884.78	1669.09
884.95	1708.01
885.11	1642.47
885.28	1640.42
885.44	1607.66
885.61	1757.16
885.77	1748.97
885.94	1705.96
886.10	1626.09
886.27	1632.23
886.43	1789.92
886.60	1787.88
886.76	1636.33
886.93	1687.53
887.09	1626.09
887.26	1576.94
887.42	1734.63
887.59	1775.59
887.75	1769.44
887.92	1720.29
888.08	1781.73
888.25	1820.64
888.41	1748.97
888.58	1687.53
888.74	1611.75
888.91	1652.71
>>>>>End Processed Spectral Data<<<<<
