SpectraSuite Data File
++++++++++++++++++++++++++++++++++++
Date: Mon Jun 06 14:59:57 CEST 2016
User: root
Dark Spectrum Present: No
Reference Spectrum Present: No
Number of Sampled Component Spectra: 1
Spectrometers: USB4C02835
Integration Time (usec): 100000 (USB4C02835)
Spectra Averaged: 1 (USB4C02835)
Boxcar Smoothing: 0 (USB4C02835)
Correct for Electrical Dark: No (USB4C02835)
Strobe/Lamp Enabled: No (USB4C02835)
Correct for Detector Non-linearity: No (USB4C02835)
Correct for Stray Light: No (USB4C02835)
Number of Pixels in Processed Spectrum: 3648
>>>>>Begin Processed Spectral Data<<<<<
177.47	1454.06
177.69	1454.06
177.91	1454.06
178.13	1507.30
178.36	1535.98
178.58	1724.39
178.80	1699.81
179.02	1591.27
179.24	1636.33
179.46	1679.33
179.68	1734.63
179.90	1662.95
180.13	1708.01
180.35	1615.85
180.57	1677.29
180.79	1769.44
181.01	1681.38
181.23	1765.35
181.45	1783.78
181.67	1710.05
181.90	1771.49
182.12	1660.90
182.34	1703.91
182.56	1710.05
182.78	1718.25
183.00	1685.48
183.22	1705.96
183.44	1636.33
183.66	1849.32
183.89	1812.45
184.11	1646.57
184.33	1753.06
184.55	1755.11
184.77	1751.01
184.99	1785.83
185.21	1683.43
185.43	1849.32
185.65	1546.22
185.87	1679.33
186.10	1865.70
186.32	1781.73
186.54	1673.19
186.76	1746.92
186.98	1646.57
187.20	1714.15
187.42	1695.72
187.64	1771.49
187.86	1703.91
188.08	1740.77
188.30	1703.91
188.52	1630.18
188.75	1712.10
188.97	1796.07
189.19	1652.71
189.41	1710.05
189.63	1746.92
189.85	1751.01
190.07	1652.71
190.29	1630.18
190.51	1785.83
190.73	1695.72
190.95	1736.68
191.17	1691.62
191.39	1660.90
191.61	1679.33
191.84	1677.29
192.06	1734.63
192.28	1640.42
192.50	1816.55
192.72	1736.68
192.94	1703.91
193.16	1759.21
193.38	1640.42
193.60	1626.09
193.82	1681.38
194.04	1806.31
194.26	1693.67
194.48	1683.43
194.70	1675.24
194.92	1628.14
195.14	1654.76
195.36	1658.85
195.58	1734.63
195.80	1701.86
196.02	1701.86
196.24	1705.96
196.46	1753.06
196.69	1695.72
196.91	1902.56
197.13	1675.24
197.35	1673.19
197.57	1791.97
197.79	1705.96
198.01	1783.78
198.23	1798.12
198.45	1781.73
198.67	1640.42
198.89	1695.72
199.11	1738.73
199.33	1746.92
199.55	1566.70
199.77	1654.76
199.99	1720.29
200.21	1683.43
200.43	1751.01
200.65	1669.09
200.87	1560.55
201.09	1691.62
201.31	1693.67
201.53	1724.39
201.75	1736.68
201.97	1679.33
202.19	1705.96
202.41	1746.92
202.63	1834.98
202.85	1708.01
203.07	1742.82
203.29	1648.61
203.51	1683.43
203.73	1667.05
203.95	1906.66
204.17	1691.62
204.39	1722.34
204.61	1656.81
204.83	1667.05
205.05	1753.06
205.27	1738.73
205.49	1791.97
205.71	1634.28
205.93	1695.72
206.15	1665.00
206.37	1724.39
206.59	1662.95
206.81	1679.33
207.03	1665.00
207.25	1667.05
207.47	1703.91
207.69	1656.81
207.91	1714.15
208.13	1789.92
208.34	1681.38
208.56	1650.66
208.78	1779.68
209.00	1689.57
209.22	1605.61
209.44	1603.56
209.66	1703.91
209.88	1740.77
210.10	1759.21
210.32	1617.90
210.54	1748.97
210.76	1720.29
210.98	1781.73
211.20	1578.98
211.42	1804.26
211.64	1689.57
211.86	1705.96
212.08	1759.21
212.30	1734.63
212.52	1759.21
212.74	1757.16
212.96	1726.44
213.17	1761.25
213.39	1705.96
213.61	1837.03
213.83	1718.25
214.05	1624.04
214.27	1656.81
214.49	1667.05
214.71	1675.24
214.93	1804.26
215.15	1734.63
215.37	1791.97
215.59	1583.08
215.81	1746.92
216.03	1791.97
216.24	1681.38
216.46	1685.48
216.68	1695.72
216.90	1736.68
217.12	1785.83
217.34	1714.15
217.56	1722.34
217.78	1785.83
218.00	1779.68
218.22	1699.81
218.44	1701.86
218.66	1720.29
218.87	1798.12
219.09	1669.09
219.31	1748.97
219.53	1677.29
219.75	1581.03
219.97	1748.97
220.19	1699.81
220.41	1640.42
220.63	1824.74
220.85	1693.67
221.06	1640.42
221.28	1767.40
221.50	1652.71
221.72	1648.61
221.94	1658.85
222.16	1722.34
222.38	1691.62
222.60	1804.26
222.82	1648.61
223.03	1759.21
223.25	1654.76
223.47	1648.61
223.69	1806.31
223.91	1789.92
224.13	1710.05
224.35	1662.95
224.57	1751.01
224.78	1779.68
225.00	1726.44
225.22	1656.81
225.44	1716.20
225.66	1746.92
225.88	1724.39
226.10	1693.67
226.32	1734.63
226.53	1763.30
226.75	1726.44
226.97	1730.53
227.19	1685.48
227.41	1701.86
227.63	1689.57
227.85	1685.48
228.06	1730.53
228.28	1693.67
228.50	1738.73
228.72	1646.57
228.94	1718.25
229.16	1648.61
229.37	1591.27
229.59	1585.13
229.81	1681.38
230.03	1673.19
230.25	1650.66
230.47	1607.66
230.69	1644.52
230.90	1734.63
231.12	1730.53
231.34	1726.44
231.56	1734.63
231.78	1638.38
232.00	1757.16
232.21	1701.86
232.43	1687.53
232.65	1574.89
232.87	1755.11
233.09	1615.85
233.30	1624.04
233.52	1781.73
233.74	1734.63
233.96	1662.95
234.18	1685.48
234.40	1759.21
234.61	1804.26
234.83	1650.66
235.05	1665.00
235.27	1785.83
235.49	1769.44
235.70	1630.18
235.92	1748.97
236.14	1689.57
236.36	1834.98
236.58	1683.43
236.79	1726.44
237.01	1654.76
237.23	1755.11
237.45	1767.40
237.67	1634.28
237.88	1730.53
238.10	1820.64
238.32	1603.56
238.54	1660.90
238.76	1712.10
238.97	1658.85
239.19	1710.05
239.41	1687.53
239.63	1744.87
239.85	1730.53
240.06	1636.33
240.28	1640.42
240.50	1718.25
240.72	1675.24
240.93	1710.05
241.15	1732.58
241.37	1714.15
241.59	1826.79
241.81	1710.05
242.02	1646.57
242.24	1742.82
242.46	1693.67
242.68	1712.10
242.89	1755.11
243.11	1652.71
243.33	1701.86
243.55	1718.25
243.76	1759.21
243.98	1720.29
244.20	1712.10
244.42	1689.57
244.64	1748.97
244.85	1677.29
245.07	1691.62
245.29	1787.88
245.51	1685.48
245.72	1722.34
245.94	1783.78
246.16	1726.44
246.38	1773.54
246.59	1636.33
246.81	1677.29
247.03	1673.19
247.24	1652.71
247.46	1652.71
247.68	1722.34
247.90	1722.34
248.11	1665.00
248.33	1779.68
248.55	1687.53
248.77	1681.38
248.98	1724.39
249.20	1800.16
249.42	1665.00
249.64	1804.26
249.85	1714.15
250.07	1708.01
250.29	1802.21
250.50	1705.96
250.72	1685.48
250.94	1701.86
251.16	1865.70
251.37	1744.87
251.59	1740.77
251.81	1751.01
252.02	1730.53
252.24	1642.47
252.46	1746.92
252.68	1648.61
252.89	1679.33
253.11	1648.61
253.33	1839.08
253.54	1710.05
253.76	1624.04
253.98	1673.19
254.20	1703.91
254.41	1650.66
254.63	1640.42
254.85	1650.66
255.06	1736.68
255.28	1742.82
255.50	1724.39
255.71	1644.52
255.93	1619.94
256.15	1621.99
256.36	1753.06
256.58	1603.56
256.80	1730.53
257.02	1748.97
257.23	1695.72
257.45	1712.10
257.67	1759.21
257.88	1677.29
258.10	1640.42
258.32	1744.87
258.53	1687.53
258.75	1773.54
258.97	1648.61
259.18	1665.00
259.40	1773.54
259.62	1791.97
259.83	1742.82
260.05	1710.05
260.27	1994.72
260.48	1761.25
260.70	1710.05
260.92	1677.29
261.13	1595.37
261.35	1677.29
261.57	1697.77
261.78	1615.85
262.00	1613.80
262.22	1701.86
262.43	1730.53
262.65	1660.90
262.86	1619.94
263.08	1890.28
263.30	1710.05
263.51	1576.94
263.73	1630.18
263.95	1767.40
264.16	1691.62
264.38	1722.34
264.60	1763.30
264.81	1695.72
265.03	1720.29
265.25	1736.68
265.46	1730.53
265.68	1726.44
265.89	1712.10
266.11	1642.47
266.33	1679.33
266.54	1726.44
266.76	1665.00
266.98	1695.72
267.19	1814.50
267.41	1724.39
267.62	1708.01
267.84	1628.14
268.06	1662.95
268.27	1701.86
268.49	1740.77
268.70	1757.16
268.92	1656.81
269.14	1685.48
269.35	1568.74
269.57	1738.73
269.79	1798.12
270.00	1708.01
270.22	1781.73
270.43	1607.66
270.65	1605.61
270.87	1736.68
271.08	1671.14
271.30	1720.29
271.51	1714.15
271.73	1765.35
271.95	1730.53
272.16	1726.44
272.38	1705.96
272.59	1734.63
272.81	1742.82
273.02	1734.63
273.24	1773.54
273.46	1726.44
273.67	1626.09
273.89	1605.61
274.10	1605.61
274.32	1820.64
274.54	1699.81
274.75	1757.16
274.97	1718.25
275.18	1724.39
275.40	1718.25
275.61	1761.25
275.83	1748.97
276.05	1642.47
276.26	1681.38
276.48	1726.44
276.69	1708.01
276.91	1619.94
277.12	1699.81
277.34	1763.30
277.55	1730.53
277.77	1703.91
277.99	1726.44
278.20	1667.05
278.42	1679.33
278.63	1527.78
278.85	1648.61
279.06	1621.99
279.28	1781.73
279.49	1705.96
279.71	1712.10
279.93	1705.96
280.14	1662.95
280.36	1636.33
280.57	1730.53
280.79	1763.30
281.00	1587.18
281.22	1624.04
281.43	1703.91
281.65	1640.42
281.86	1619.94
282.08	1732.58
282.29	1773.54
282.51	1587.18
282.73	1644.52
282.94	1636.33
283.16	1740.77
283.37	1748.97
283.59	1691.62
283.80	1699.81
284.02	1665.00
284.23	1763.30
284.45	1626.09
284.66	1681.38
284.88	1642.47
285.09	1712.10
285.31	1699.81
285.52	1677.29
285.74	1572.84
285.95	1736.68
286.17	1728.49
286.38	1673.19
286.60	1771.49
286.81	1628.14
287.03	1648.61
287.24	1724.39
287.46	1753.06
287.67	1748.97
287.89	1771.49
288.10	1726.44
288.32	1658.85
288.53	1839.08
288.75	1689.57
288.96	1734.63
289.18	1646.57
289.39	1665.00
289.61	1720.29
289.82	1820.64
290.04	1890.28
290.25	1615.85
290.47	1705.96
290.68	1662.95
290.90	1695.72
291.11	1648.61
291.33	1720.29
291.54	1570.79
291.76	1710.05
291.97	1693.67
292.18	1734.63
292.40	1673.19
292.61	1665.00
292.83	1804.26
293.04	1716.20
293.26	1728.49
293.47	1710.05
293.69	1681.38
293.90	1775.59
294.12	1775.59
294.33	1626.09
294.55	1705.96
294.76	1736.68
294.97	1781.73
295.19	1812.45
295.40	1675.24
295.62	1669.09
295.83	1775.59
296.05	1632.23
296.26	1763.30
296.48	1642.47
296.69	1644.52
296.90	1720.29
297.12	1810.40
297.33	1734.63
297.55	1679.33
297.76	1722.34
297.98	1691.62
298.19	1734.63
298.41	1630.18
298.62	1591.27
298.83	1806.31
299.05	1761.25
299.26	1617.90
299.48	1701.86
299.69	1718.25
299.90	1691.62
300.12	1679.33
300.33	1734.63
300.55	1699.81
300.76	1652.71
300.98	1656.81
301.19	1748.97
301.40	1673.19
301.62	1681.38
301.83	1726.44
302.05	1746.92
302.26	1679.33
302.47	1691.62
302.69	1701.86
302.90	1789.92
303.12	1599.46
303.33	1648.61
303.54	1802.21
303.76	1705.96
303.97	1765.35
304.19	1751.01
304.40	1630.18
304.61	1779.68
304.83	1787.88
305.04	1726.44
305.26	1726.44
305.47	1624.04
305.68	1720.29
305.90	1597.42
306.11	1710.05
306.33	1730.53
306.54	1656.81
306.75	1609.70
306.97	1603.56
307.18	1648.61
307.39	1681.38
307.61	1710.05
307.82	1675.24
308.04	1669.09
308.25	1656.81
308.46	1730.53
308.68	1703.91
308.89	1757.16
309.10	1802.21
309.32	1718.25
309.53	1677.29
309.74	1689.57
309.96	1648.61
310.17	1771.49
310.39	1636.33
310.60	1759.21
310.81	1671.14
311.03	1619.94
311.24	1681.38
311.45	1673.19
311.67	1814.50
311.88	1697.77
312.09	1757.16
312.31	1755.11
312.52	1656.81
312.73	1683.43
312.95	1640.42
313.16	1640.42
313.37	1775.59
313.59	1734.63
313.80	1796.07
314.01	1851.36
314.23	1687.53
314.44	1732.58
314.65	1589.22
314.87	1667.05
315.08	1689.57
315.29	1722.34
315.51	1646.57
315.72	1705.96
315.93	1800.16
316.15	1783.78
316.36	1705.96
316.57	1710.05
316.79	1759.21
317.00	1734.63
317.21	1701.86
317.43	1669.09
317.64	1781.73
317.85	1640.42
318.07	1691.62
318.28	1699.81
318.49	1841.12
318.70	1914.85
318.92	1820.64
319.13	1722.34
319.34	1767.40
319.56	1705.96
319.77	1800.16
319.98	1705.96
320.20	1736.68
320.41	1755.11
320.62	1705.96
320.83	1660.90
321.05	1837.03
321.26	1773.54
321.47	1705.96
321.69	1755.11
321.90	1648.61
322.11	1697.77
322.32	1734.63
322.54	1787.88
322.75	1648.61
322.96	1865.70
323.18	1644.52
323.39	1607.66
323.60	1705.96
323.81	1759.21
324.03	1685.48
324.24	1708.01
324.45	1665.00
324.66	1724.39
324.88	1732.58
325.09	1714.15
325.30	1685.48
325.52	1753.06
325.73	1740.77
325.94	1685.48
326.15	1632.23
326.37	1665.00
326.58	1767.40
326.79	1808.36
327.00	1654.76
327.22	1705.96
327.43	1673.19
327.64	1712.10
327.85	1767.40
328.07	1654.76
328.28	1755.11
328.49	1724.39
328.70	1761.25
328.92	1738.73
329.13	1693.67
329.34	1796.07
329.55	1875.94
329.76	1724.39
329.98	1621.99
330.19	1789.92
330.40	1673.19
330.61	1724.39
330.83	1724.39
331.04	1673.19
331.25	1710.05
331.46	1665.00
331.68	1615.85
331.89	1665.00
332.10	1687.53
332.31	1552.36
332.52	1658.85
332.74	1738.73
332.95	1683.43
333.16	1673.19
333.37	1683.43
333.58	1708.01
333.80	1742.82
334.01	1658.85
334.22	1761.25
334.43	1626.09
334.64	1650.66
334.86	1621.99
335.07	1609.70
335.28	1755.11
335.49	1587.18
335.70	1673.19
335.92	1705.96
336.13	1837.03
336.34	1701.86
336.55	1675.24
336.76	1691.62
336.98	1581.03
337.19	1710.05
337.40	1783.78
337.61	1859.56
337.82	1714.15
338.04	1679.33
338.25	1585.13
338.46	1720.29
338.67	1665.00
338.88	1656.81
339.09	1621.99
339.31	1697.77
339.52	1615.85
339.73	1742.82
339.94	1658.85
340.15	1740.77
340.36	1646.57
340.58	1691.62
340.79	1626.09
341.00	1744.87
341.21	1626.09
341.42	1751.01
341.63	1697.77
341.85	1691.62
342.06	1714.15
342.27	1601.51
342.48	1730.53
342.69	1619.94
342.90	1757.16
343.12	1710.05
343.33	1665.00
343.54	1734.63
343.75	1820.64
343.96	1695.72
344.17	1712.10
344.38	1701.86
344.60	1636.33
344.81	1673.19
345.02	1710.05
345.23	1808.36
345.44	1740.77
345.65	1744.87
345.86	1681.38
346.07	1753.06
346.29	1677.29
346.50	1714.15
346.71	1736.68
346.92	1806.31
347.13	1765.35
347.34	1607.66
347.55	1701.86
347.76	1738.73
347.98	1591.27
348.19	1673.19
348.40	1746.92
348.61	1701.86
348.82	1748.97
349.03	1769.44
349.24	1697.77
349.45	1884.13
349.66	1589.22
349.88	1650.66
350.09	1681.38
350.30	1736.68
350.51	1767.40
350.72	1742.82
350.93	1777.64
351.14	1671.14
351.35	1808.36
351.56	1681.38
351.77	1710.05
351.99	1687.53
352.20	1724.39
352.41	1701.86
352.62	1525.74
352.83	1644.52
353.04	1634.28
353.25	1677.29
353.46	1693.67
353.67	1775.59
353.88	1613.80
354.09	1775.59
354.30	1681.38
354.52	1761.25
354.73	1701.86
354.94	1693.67
355.15	1683.43
355.36	1783.78
355.57	1722.34
355.78	1691.62
355.99	1681.38
356.20	1716.20
356.41	1804.26
356.62	1673.19
356.83	1720.29
357.04	1826.79
357.25	1558.50
357.46	1673.19
357.68	1593.32
357.89	1708.01
358.10	1693.67
358.31	1708.01
358.52	1669.09
358.73	1613.80
358.94	1609.70
359.15	1753.06
359.36	1740.77
359.57	1665.00
359.78	1613.80
359.99	1714.15
360.20	1695.72
360.41	1669.09
360.62	1755.11
360.83	1708.01
361.04	1708.01
361.25	1681.38
361.46	1806.31
361.67	1675.24
361.88	1681.38
362.09	1775.59
362.30	1701.86
362.51	1654.76
362.72	1738.73
362.93	1710.05
363.14	1712.10
363.35	1650.66
363.56	1667.05
363.78	1679.33
363.99	1781.73
364.20	1701.86
364.41	1726.44
364.62	1744.87
364.83	1703.91
365.04	1667.05
365.25	1716.20
365.46	1728.49
365.67	1658.85
365.88	1624.04
366.09	1669.09
366.30	1728.49
366.51	1783.78
366.72	1679.33
366.93	1708.01
367.14	1638.38
367.35	1871.84
367.56	1685.48
367.77	1791.97
367.98	1734.63
368.18	1714.15
368.39	1695.72
368.60	1671.14
368.81	1660.90
369.02	1722.34
369.23	1757.16
369.44	1595.37
369.65	1656.81
369.86	1697.77
370.07	1787.88
370.28	1765.35
370.49	1701.86
370.70	1675.24
370.91	1658.85
371.12	1730.53
371.33	1738.73
371.54	1683.43
371.75	1826.79
371.96	1574.89
372.17	1669.09
372.38	1722.34
372.59	1716.20
372.80	1708.01
373.01	1705.96
373.22	1693.67
373.43	1628.14
373.64	1617.90
373.85	1746.92
374.06	1857.51
374.26	1755.11
374.47	1746.92
374.68	1763.30
374.89	1679.33
375.10	1675.24
375.31	1783.78
375.52	1656.81
375.73	1697.77
375.94	1597.42
376.15	1785.83
376.36	1632.23
376.57	1699.81
376.78	1671.14
376.99	1753.06
377.20	1818.60
377.40	1691.62
377.61	1746.92
377.82	1681.38
378.03	1736.68
378.24	1712.10
378.45	1699.81
378.66	1685.48
378.87	1656.81
379.08	1601.51
379.29	1681.38
379.50	1802.21
379.71	1699.81
379.91	1771.49
380.12	1640.42
380.33	1738.73
380.54	1722.34
380.75	1689.57
380.96	1648.61
381.17	1755.11
381.38	1683.43
381.59	1714.15
381.80	1679.33
382.00	1859.56
382.21	1695.72
382.42	1779.68
382.63	1861.60
382.84	1732.58
383.05	1812.45
383.26	1820.64
383.47	1701.86
383.68	1783.78
383.88	1753.06
384.09	1712.10
384.30	1789.92
384.51	1683.43
384.72	1728.49
384.93	1683.43
385.14	1720.29
385.35	1794.02
385.55	1628.14
385.76	1773.54
385.97	1665.00
386.18	1691.62
386.39	1646.57
386.60	1673.19
386.81	1673.19
387.02	1699.81
387.22	1593.32
387.43	1791.97
387.64	1746.92
387.85	1916.90
388.06	2246.62
388.27	4167.62
388.48	6436.77
388.68	7913.35
388.89	9357.17
389.10	9377.65
389.31	8165.25
389.52	7210.90
389.73	6483.87
389.93	6059.94
390.14	5605.29
390.35	4923.32
390.56	4239.30
390.77	3559.37
390.98	3061.71
391.18	2463.71
391.39	2107.36
391.60	1845.22
391.81	1808.36
392.02	1742.82
392.23	1910.75
392.43	1734.63
392.64	1800.16
392.85	1734.63
393.06	1757.16
393.27	1748.97
393.47	1656.81
393.68	1677.29
393.89	1683.43
394.10	1837.03
394.31	1671.14
394.52	1632.23
394.72	1726.44
394.93	1808.36
395.14	1681.38
395.35	1755.11
395.56	1607.66
395.76	1781.73
395.97	1748.97
396.18	1839.08
396.39	1859.56
396.60	1935.33
396.80	1818.60
397.01	1763.30
397.22	1851.36
397.43	1843.17
397.64	1730.53
397.84	1863.65
398.05	1865.70
398.26	1714.15
398.47	1693.67
398.67	1779.68
398.88	1701.86
399.09	1683.43
399.30	1708.01
399.51	1720.29
399.71	1685.48
399.92	1730.53
400.13	1834.98
400.34	1746.92
400.54	1691.62
400.75	1738.73
400.96	1701.86
401.17	1783.78
401.37	1746.92
401.58	1679.33
401.79	1726.44
402.00	1880.04
402.21	1978.34
402.41	1945.57
402.62	1939.43
402.83	1998.82
403.04	1990.63
403.24	2035.68
403.45	1773.54
403.66	1875.94
403.87	1863.65
404.07	1849.32
404.28	1947.62
404.49	1918.95
404.70	1824.74
404.90	1798.12
405.11	1738.73
405.32	1785.83
405.52	1699.81
405.73	1712.10
405.94	1673.19
406.15	1724.39
406.35	1773.54
406.56	1748.97
406.77	1755.11
406.98	1757.16
407.18	1665.00
407.39	1665.00
407.60	1695.72
407.80	1736.68
408.01	1673.19
408.22	1718.25
408.43	1693.67
408.63	1744.87
408.84	1640.42
409.05	1755.11
409.25	1669.09
409.46	1533.93
409.67	1650.66
409.88	1718.25
410.08	1726.44
410.29	1673.19
410.50	1806.31
410.70	1691.62
410.91	1603.56
411.12	1806.31
411.32	1722.34
411.53	1648.61
411.74	1861.60
411.95	1800.16
412.15	1683.43
412.36	1746.92
412.57	1611.75
412.77	1787.88
412.98	1716.20
413.19	1662.95
413.39	1720.29
413.60	1718.25
413.81	1763.30
414.01	1648.61
414.22	1853.41
414.43	1769.44
414.63	1685.48
414.84	1738.73
415.05	1660.90
415.25	1734.63
415.46	1744.87
415.67	1685.48
415.87	1650.66
416.08	1710.05
416.29	1621.99
416.49	1703.91
416.70	1693.67
416.91	1675.24
417.11	1677.29
417.32	1767.40
417.53	1845.22
417.73	1724.39
417.94	1730.53
418.15	1677.29
418.35	1679.33
418.56	1689.57
418.77	1824.74
418.97	1732.58
419.18	1689.57
419.38	1519.59
419.59	1746.92
419.80	1769.44
420.00	1667.05
420.21	1662.95
420.42	1746.92
420.62	1687.53
420.83	1638.38
421.04	1716.20
421.24	1654.76
421.45	1765.35
421.65	1763.30
421.86	1662.95
422.07	1800.16
422.27	1828.84
422.48	1759.21
422.69	1593.32
422.89	1736.68
423.10	1755.11
423.30	1665.00
423.51	1699.81
423.72	1697.77
423.92	1746.92
424.13	1626.09
424.33	1775.59
424.54	1746.92
424.75	1734.63
424.95	1773.54
425.16	1789.92
425.36	1695.72
425.57	1761.25
425.78	1781.73
425.98	1806.31
426.19	1695.72
426.39	1660.90
426.60	1669.09
426.81	1730.53
427.01	1699.81
427.22	1671.14
427.42	1640.42
427.63	1656.81
427.83	1794.02
428.04	1810.40
428.25	1742.82
428.45	1806.31
428.66	1726.44
428.86	1718.25
429.07	1656.81
429.28	1697.77
429.48	1705.96
429.69	1648.61
429.89	1794.02
430.10	1665.00
430.30	1818.60
430.51	1751.01
430.71	1677.29
430.92	1734.63
431.13	1648.61
431.33	1744.87
431.54	1705.96
431.74	1828.84
431.95	1861.60
432.15	1615.85
432.36	1736.68
432.56	1744.87
432.77	1802.21
432.98	1796.07
433.18	1726.44
433.39	1665.00
433.59	1644.52
433.80	1748.97
434.00	1771.49
434.21	1683.43
434.41	1636.33
434.62	1828.84
434.82	1632.23
435.03	1613.80
435.23	1617.90
435.44	1589.22
435.64	1683.43
435.85	1736.68
436.06	1746.92
436.26	1785.83
436.47	1753.06
436.67	1681.38
436.88	1662.95
437.08	1732.58
437.29	1755.11
437.49	1660.90
437.70	1800.16
437.90	1613.80
438.11	1841.12
438.31	1773.54
438.52	1830.88
438.72	1824.74
438.93	1816.55
439.13	1763.30
439.34	1816.55
439.54	1681.38
439.75	1755.11
439.95	1791.97
440.16	1673.19
440.36	1783.78
440.57	1708.01
440.77	1769.44
440.98	1726.44
441.18	1738.73
441.39	1710.05
441.59	1617.90
441.80	1845.22
442.00	1665.00
442.21	1812.45
442.41	1714.15
442.62	1742.82
442.82	1658.85
443.02	1734.63
443.23	1695.72
443.43	1730.53
443.64	1800.16
443.84	1615.85
444.05	1730.53
444.25	1675.24
444.46	1689.57
444.66	1736.68
444.87	1777.64
445.07	1632.23
445.28	1691.62
445.48	1896.42
445.69	1775.59
445.89	1748.97
446.09	1779.68
446.30	2045.92
446.50	2541.53
446.71	3655.62
446.91	4087.75
447.12	4499.39
447.32	4753.34
447.53	4190.14
447.73	3749.83
447.93	3422.16
448.14	3190.74
448.34	3174.35
448.55	2813.91
448.75	2840.53
448.96	2650.07
449.16	2402.27
449.36	2232.29
449.57	2074.59
449.77	1873.89
449.98	1765.35
450.18	1843.17
450.39	1800.16
450.59	1759.21
450.79	1728.49
451.00	1791.97
451.20	1753.06
451.41	1632.23
451.61	1744.87
451.81	1769.44
452.02	1728.49
452.22	1849.32
452.43	1652.71
452.63	1697.77
452.84	1761.25
453.04	1681.38
453.24	1738.73
453.45	1644.52
453.65	1722.34
453.86	1736.68
454.06	1753.06
454.26	1658.85
454.47	1716.20
454.67	1794.02
454.87	1722.34
455.08	1757.16
455.28	1869.80
455.49	1712.10
455.69	1599.46
455.89	1865.70
456.10	1685.48
456.30	1787.88
456.51	1748.97
456.71	1748.97
456.91	1751.01
457.12	1720.29
457.32	1779.68
457.52	1722.34
457.73	1757.16
457.93	1736.68
458.14	1728.49
458.34	1630.18
458.54	1736.68
458.75	1718.25
458.95	1759.21
459.15	1722.34
459.36	1806.31
459.56	1767.40
459.76	1910.75
459.97	1660.90
460.17	1759.21
460.37	1767.40
460.58	1722.34
460.78	1730.53
460.99	1705.96
461.19	1761.25
461.39	1703.91
461.60	1753.06
461.80	1726.44
462.00	1613.80
462.21	1621.99
462.41	1732.58
462.61	1601.51
462.82	1611.75
463.02	1708.01
463.22	1718.25
463.43	1730.53
463.63	1740.77
463.83	1726.44
464.04	1681.38
464.24	1814.50
464.44	1619.94
464.64	1771.49
464.85	1775.59
465.05	1816.55
465.25	1705.96
465.46	1705.96
465.66	1724.39
465.86	1796.07
466.07	1736.68
466.27	1724.39
466.47	1638.38
466.68	1654.76
466.88	1796.07
467.08	1851.36
467.29	1769.44
467.49	1726.44
467.69	1685.48
467.89	1794.02
468.10	1732.58
468.30	1753.06
468.50	1794.02
468.71	1716.20
468.91	1656.81
469.11	1931.23
469.31	1693.67
469.52	1654.76
469.72	1820.64
469.92	1841.12
470.13	1638.38
470.33	1705.96
470.53	1808.36
470.73	2101.22
470.94	2281.44
471.14	2342.88
471.34	2449.37
471.54	2308.06
471.75	2142.18
471.95	2066.40
472.15	1988.58
472.36	2131.94
472.56	2084.83
472.76	1935.33
472.96	1976.29
473.17	1988.58
473.37	1837.03
473.57	1798.12
473.77	1796.07
473.98	1767.40
474.18	1683.43
474.38	1771.49
474.58	1687.53
474.79	1652.71
474.99	1800.16
475.19	1757.16
475.39	1720.29
475.60	1695.72
475.80	1841.12
476.00	1703.91
476.20	1660.90
476.41	1677.29
476.61	1886.18
476.81	1867.75
477.01	1652.71
477.21	1839.08
477.42	1843.17
477.62	1738.73
477.82	1767.40
478.02	1726.44
478.23	1791.97
478.43	1703.91
478.63	1722.34
478.83	1755.11
479.03	1667.05
479.24	1773.54
479.44	1851.36
479.64	1697.77
479.84	1581.03
480.04	1689.57
480.25	1779.68
480.45	1658.85
480.65	1703.91
480.85	1800.16
481.06	1695.72
481.26	1746.92
481.46	1832.93
481.66	1714.15
481.86	1689.57
482.06	1796.07
482.27	1687.53
482.47	1683.43
482.67	1767.40
482.87	1703.91
483.07	1683.43
483.28	1660.90
483.48	1751.01
483.68	1763.30
483.88	1636.33
484.08	1669.09
484.29	1658.85
484.49	1685.48
484.69	1638.38
484.89	1802.21
485.09	1888.23
485.29	1779.68
485.50	1665.00
485.70	1681.38
485.90	1841.12
486.10	1738.73
486.30	1712.10
486.50	1718.25
486.71	1722.34
486.91	1675.24
487.11	1808.36
487.31	1673.19
487.51	1718.25
487.71	1714.15
487.91	1673.19
488.12	1636.33
488.32	1624.04
488.52	1667.05
488.72	1646.57
488.92	1718.25
489.12	1845.22
489.32	1777.64
489.53	1812.45
489.73	1619.94
489.93	1882.08
490.13	1658.85
490.33	1632.23
490.53	1787.88
490.73	1728.49
490.94	1728.49
491.14	1775.59
491.34	1863.65
491.54	2047.97
491.74	2475.99
491.94	2856.92
492.14	3053.52
492.34	2904.02
492.54	2676.70
492.75	2463.71
492.95	2412.51
493.15	2359.26
493.35	2265.05
493.55	2209.76
493.75	2127.84
493.95	2140.13
494.15	2004.96
494.35	1953.76
494.56	1845.22
494.76	1765.35
494.96	1822.69
495.16	1726.44
495.36	1714.15
495.56	1695.72
495.76	1726.44
495.96	1708.01
496.16	1650.66
496.36	1779.68
496.56	1740.77
496.77	1775.59
496.97	1693.67
497.17	1828.84
497.37	1626.09
497.57	1769.44
497.77	1716.20
497.97	1716.20
498.17	1701.86
498.37	1738.73
498.57	1744.87
498.77	1703.91
498.97	1834.98
499.17	1755.11
499.38	1708.01
499.58	1783.78
499.78	1779.68
499.98	1742.82
500.18	1722.34
500.38	1716.20
500.58	1877.99
500.78	2475.99
500.98	4435.90
501.18	5584.81
501.38	6547.36
501.58	6932.37
501.78	6412.19
501.98	5248.94
502.18	4835.25
502.38	4302.78
502.58	3872.71
502.78	3760.07
502.98	3504.07
503.18	3352.52
503.38	3061.71
503.59	2846.68
503.79	2621.40
503.99	2510.81
504.19	2209.76
504.39	2236.38
504.59	2148.32
504.79	2121.70
504.99	1964.00
505.19	1890.28
505.39	1920.99
505.59	1910.75
505.79	1759.21
505.99	1877.99
506.19	1849.32
506.39	1869.80
506.59	1724.39
506.79	1751.01
506.99	1744.87
507.19	1832.93
507.39	1718.25
507.59	1644.52
507.79	1699.81
507.99	1667.05
508.19	1642.47
508.39	1763.30
508.59	1712.10
508.79	1785.83
508.99	1812.45
509.19	1755.11
509.39	1720.29
509.59	1701.86
509.79	1677.29
509.99	1746.92
510.19	1781.73
510.39	1796.07
510.59	1787.88
510.79	1705.96
510.99	1693.67
511.19	1742.82
511.39	1791.97
511.59	1771.49
511.79	1789.92
511.99	1685.48
512.19	1748.97
512.38	1748.97
512.58	1697.77
512.78	1759.21
512.98	1773.54
513.18	1832.93
513.38	1685.48
513.58	1767.40
513.78	1742.82
513.98	1712.10
514.18	1693.67
514.38	1708.01
514.58	1759.21
514.78	1656.81
514.98	1681.38
515.18	1740.77
515.38	1763.30
515.58	1869.80
515.78	1748.97
515.98	1757.16
516.18	1718.25
516.38	1787.88
516.57	1710.05
516.77	1710.05
516.97	1740.77
517.17	1736.68
517.37	1665.00
517.57	1714.15
517.77	1746.92
517.97	1716.20
518.17	1806.31
518.37	1615.85
518.57	1710.05
518.77	1716.20
518.97	1673.19
519.16	1769.44
519.36	1779.68
519.56	1689.57
519.76	1705.96
519.96	1730.53
520.16	1777.64
520.36	1662.95
520.56	1728.49
520.76	1695.72
520.96	1701.86
521.16	1791.97
521.35	1779.68
521.55	1802.21
521.75	1800.16
521.95	1699.81
522.15	1613.80
522.35	1679.33
522.55	1730.53
522.75	1818.60
522.95	1689.57
523.14	1716.20
523.34	1783.78
523.54	1683.43
523.74	1665.00
523.94	1777.64
524.14	1632.23
524.34	1738.73
524.54	1796.07
524.73	1746.92
524.93	1712.10
525.13	1691.62
525.33	1630.18
525.53	1771.49
525.73	1685.48
525.93	1722.34
526.13	1744.87
526.32	1753.06
526.52	1802.21
526.72	1816.55
526.92	1693.67
527.12	1804.26
527.32	1656.81
527.52	1660.90
527.71	1779.68
527.91	1738.73
528.11	1697.77
528.31	1748.97
528.51	1710.05
528.71	1785.83
528.90	1796.07
529.10	1845.22
529.30	1755.11
529.50	1650.66
529.70	1828.84
529.90	1734.63
530.09	1744.87
530.29	1689.57
530.49	1628.14
530.69	1853.41
530.89	1685.48
531.09	1794.02
531.28	1767.40
531.48	1763.30
531.68	1742.82
531.88	1806.31
532.08	1753.06
532.28	1765.35
532.47	1765.35
532.67	1800.16
532.87	1763.30
533.07	1705.96
533.27	1701.86
533.46	1712.10
533.66	1822.69
533.86	1732.58
534.06	1744.87
534.26	1794.02
534.45	1656.81
534.65	1732.58
534.85	1708.01
535.05	1806.31
535.25	1712.10
535.44	1718.25
535.64	1796.07
535.84	1652.71
536.04	1685.48
536.24	1730.53
536.43	1724.39
536.63	1732.58
536.83	1693.67
537.03	1685.48
537.22	1681.38
537.42	1677.29
537.62	1675.24
537.82	1718.25
538.02	1755.11
538.21	1822.69
538.41	1890.28
538.61	1816.55
538.81	1714.15
539.00	1882.08
539.20	1697.77
539.40	1677.29
539.60	1802.21
539.79	1755.11
539.99	1703.91
540.19	1675.24
540.39	1665.00
540.58	1771.49
540.78	1734.63
540.98	1761.25
541.18	1753.06
541.37	1791.97
541.57	1730.53
541.77	1802.21
541.97	1632.23
542.16	1621.99
542.36	1724.39
542.56	1677.29
542.76	1853.41
542.95	1779.68
543.15	1681.38
543.35	1765.35
543.54	1689.57
543.74	1740.77
543.94	1789.92
544.14	1755.11
544.33	1724.39
544.53	1705.96
544.73	1732.58
544.93	1654.76
545.12	1765.35
545.32	1705.96
545.52	1779.68
545.71	1626.09
545.91	1771.49
546.11	1746.92
546.30	1660.90
546.50	1740.77
546.70	1726.44
546.90	1779.68
547.09	1677.29
547.29	1785.83
547.49	1837.03
547.68	1722.34
547.88	1624.04
548.08	1685.48
548.27	2246.62
548.47	1691.62
548.67	1722.34
548.87	1738.73
549.06	1658.85
549.26	1751.01
549.46	1732.58
549.65	1662.95
549.85	1755.11
550.05	1816.55
550.24	1703.91
550.44	1753.06
550.64	1771.49
550.83	1753.06
551.03	1824.74
551.23	1861.60
551.42	1859.56
551.62	1767.40
551.82	1730.53
552.01	1687.53
552.21	1712.10
552.41	1781.73
552.60	1777.64
552.80	1726.44
553.00	1693.67
553.19	1779.68
553.39	1832.93
553.59	1708.01
553.78	1748.97
553.98	1728.49
554.17	1701.86
554.37	1779.68
554.57	1791.97
554.76	1656.81
554.96	1679.33
555.16	1681.38
555.35	1738.73
555.55	1720.29
555.75	1701.86
555.94	1777.64
556.14	1685.48
556.33	1812.45
556.53	1742.82
556.73	1662.95
556.92	1697.77
557.12	1812.45
557.32	1839.08
557.51	1849.32
557.71	1771.49
557.90	1781.73
558.10	1783.78
558.30	1779.68
558.49	1646.57
558.69	1767.40
558.88	1798.12
559.08	1718.25
559.28	1705.96
559.47	1783.78
559.67	1810.40
559.86	1785.83
560.06	1851.36
560.26	1621.99
560.45	1740.77
560.65	1775.59
560.84	1826.79
561.04	1763.30
561.24	1718.25
561.43	1701.86
561.63	1845.22
561.82	1779.68
562.02	1771.49
562.22	1720.29
562.41	1703.91
562.61	1708.01
562.80	1673.19
563.00	1955.81
563.19	1755.11
563.39	1765.35
563.59	1740.77
563.78	1673.19
563.98	1689.57
564.17	1691.62
564.37	1677.29
564.56	1757.16
564.76	1601.51
564.96	1742.82
565.15	1648.61
565.35	1812.45
565.54	1701.86
565.74	1800.16
565.93	1712.10
566.13	1693.67
566.32	1748.97
566.52	1789.92
566.71	1734.63
566.91	1789.92
567.11	1744.87
567.30	1691.62
567.50	1683.43
567.69	1701.86
567.89	1714.15
568.08	1716.20
568.28	1740.77
568.47	1599.46
568.67	1773.54
568.86	1716.20
569.06	1732.58
569.25	1779.68
569.45	1746.92
569.64	1683.43
569.84	1769.44
570.04	1781.73
570.23	1701.86
570.43	1716.20
570.62	1763.30
570.82	1794.02
571.01	1679.33
571.21	1724.39
571.40	1730.53
571.60	1826.79
571.79	1701.86
571.99	1783.78
572.18	1710.05
572.38	1808.36
572.57	1734.63
572.77	1820.64
572.96	1886.18
573.16	1660.90
573.35	1722.34
573.55	1802.21
573.74	1763.30
573.94	1755.11
574.13	1683.43
574.33	1716.20
574.52	1888.23
574.71	1736.68
574.91	1734.63
575.10	1708.01
575.30	1654.76
575.49	1761.25
575.69	1728.49
575.88	1722.34
576.08	1662.95
576.27	1757.16
576.47	1742.82
576.66	1818.60
576.86	1734.63
577.05	1755.11
577.25	1779.68
577.44	1791.97
577.64	1679.33
577.83	1783.78
578.02	1705.96
578.22	1751.01
578.41	1796.07
578.61	1740.77
578.80	1701.86
579.00	1695.72
579.19	1800.16
579.39	1763.30
579.58	1830.88
579.77	1724.39
579.97	1804.26
580.16	1761.25
580.36	1847.27
580.55	1789.92
580.75	1730.53
580.94	1738.73
581.13	1882.08
581.33	1877.99
581.52	1714.15
581.72	1869.80
581.91	1826.79
582.11	1658.85
582.30	1720.29
582.49	1740.77
582.69	1834.98
582.88	1759.21
583.08	1687.53
583.27	1886.18
583.47	1748.97
583.66	1708.01
583.85	1718.25
584.05	1697.77
584.24	1824.74
584.44	1726.44
584.63	1824.74
584.82	1814.50
585.02	1822.69
585.21	1781.73
585.41	1853.41
585.60	1783.78
585.79	1855.46
585.99	1892.32
586.18	1892.32
586.37	2230.24
586.57	3297.23
586.76	9488.24
586.96	23094.94
587.15	32720.40
587.34	38426.04
587.54	40002.97
587.73	34934.25
587.93	24960.64
588.12	20555.46
588.31	17460.98
588.51	15464.21
588.70	14440.23
588.89	13602.61
589.09	12298.05
589.28	10491.74
589.47	9054.07
589.67	7675.79
589.86	6160.29
590.06	4730.81
590.25	3950.53
590.44	2955.22
590.64	2557.91
590.83	2207.71
591.02	2099.17
591.22	1935.33
591.41	1902.56
591.60	1824.74
591.80	1906.66
591.99	1806.31
592.18	1806.31
592.38	1791.97
592.57	1759.21
592.76	1787.88
592.96	1814.50
593.15	1785.83
593.34	1830.88
593.54	1767.40
593.73	1769.44
593.92	1687.53
594.12	1796.07
594.31	1675.24
594.50	1869.80
594.70	1845.22
594.89	1828.84
595.08	1667.05
595.28	1818.60
595.47	1791.97
595.66	1789.92
595.86	1705.96
596.05	1736.68
596.24	1632.23
596.43	1818.60
596.63	1857.51
596.82	1708.01
597.01	1755.11
597.21	1830.88
597.40	1722.34
597.59	1759.21
597.79	1724.39
597.98	1748.97
598.17	1683.43
598.36	1736.68
598.56	1734.63
598.75	1708.01
598.94	1744.87
599.14	1751.01
599.33	1718.25
599.52	1744.87
599.71	1705.96
599.91	1769.44
600.10	1796.07
600.29	1789.92
600.48	1818.60
600.68	1714.15
600.87	1705.96
601.06	1679.33
601.26	1710.05
601.45	1787.88
601.64	1689.57
601.83	1822.69
602.03	1773.54
602.22	1626.09
602.41	1796.07
602.60	1933.28
602.80	1767.40
602.99	1636.33
603.18	1671.14
603.37	1644.52
603.57	1736.68
603.76	1794.02
603.95	1800.16
604.14	1617.90
604.34	1724.39
604.53	1748.97
604.72	1695.72
604.91	1689.57
605.10	1755.11
605.30	1689.57
605.49	1855.46
605.68	1800.16
605.87	1748.97
606.07	1732.58
606.26	1720.29
606.45	1783.78
606.64	1791.97
606.84	1761.25
607.03	1724.39
607.22	1824.74
607.41	1669.09
607.60	1753.06
607.80	1742.82
607.99	1673.19
608.18	1736.68
608.37	1724.39
608.56	1656.81
608.76	1796.07
608.95	1822.69
609.14	1730.53
609.33	1726.44
609.52	1755.11
609.72	1781.73
609.91	1787.88
610.10	1712.10
610.29	1777.64
610.48	1816.55
610.68	1755.11
610.87	1724.39
611.06	1804.26
611.25	1726.44
611.44	1820.64
611.63	1628.14
611.83	1863.65
612.02	1662.95
612.21	1820.64
612.40	1693.67
612.59	1687.53
612.79	1665.00
612.98	1744.87
613.17	1798.12
613.36	1736.68
613.55	1882.08
613.74	1632.23
613.93	1722.34
614.13	1730.53
614.32	1765.35
614.51	1740.77
614.70	1716.20
614.89	1722.34
615.08	1708.01
615.28	2099.17
615.47	1734.63
615.66	1732.58
615.85	1710.05
616.04	1816.55
616.23	1718.25
616.42	1716.20
616.62	1771.49
616.81	1751.01
617.00	1736.68
617.19	1730.53
617.38	1662.95
617.57	1738.73
617.76	1771.49
617.95	1730.53
618.15	1802.21
618.34	1857.51
618.53	1632.23
618.72	1755.11
618.91	1832.93
619.10	1834.98
619.29	1665.00
619.48	1689.57
619.68	1632.23
619.87	1781.73
620.06	1687.53
620.25	1722.34
620.44	1724.39
620.63	1769.44
620.82	1675.24
621.01	1800.16
621.20	1665.00
621.39	1757.16
621.59	1763.30
621.78	1722.34
621.97	1673.19
622.16	1798.12
622.35	1656.81
622.54	1740.77
622.73	1865.70
622.92	1613.80
623.11	1769.44
623.30	1701.86
623.49	1761.25
623.68	1718.25
623.88	1820.64
624.07	1632.23
624.26	1732.58
624.45	1695.72
624.64	1759.21
624.83	1710.05
625.02	1677.29
625.21	1738.73
625.40	1810.40
625.59	1714.15
625.78	1665.00
625.97	1744.87
626.16	1787.88
626.35	1679.33
626.54	1708.01
626.74	1820.64
626.93	1732.58
627.12	1800.16
627.31	1683.43
627.50	1730.53
627.69	1824.74
627.88	1624.04
628.07	1695.72
628.26	1652.71
628.45	1587.18
628.64	1656.81
628.83	1732.58
629.02	1667.05
629.21	1814.50
629.40	1746.92
629.59	1609.70
629.78	1689.57
629.97	1779.68
630.16	1765.35
630.35	1714.15
630.54	1734.63
630.73	1665.00
630.92	1753.06
631.11	1689.57
631.30	1753.06
631.49	1779.68
631.68	1712.10
631.87	1701.86
632.06	1601.51
632.25	1867.75
632.44	1736.68
632.63	1804.26
632.82	1665.00
633.01	1683.43
633.20	1751.01
633.39	1566.70
633.58	1558.50
633.77	1691.62
633.96	1746.92
634.15	1802.21
634.34	1656.81
634.53	1773.54
634.72	1693.67
634.91	1558.50
635.10	1722.34
635.29	1746.92
635.48	1681.38
635.67	1650.66
635.86	1652.71
636.05	1753.06
636.24	1787.88
636.43	1789.92
636.62	1759.21
636.81	1621.99
637.00	1679.33
637.19	1722.34
637.38	1738.73
637.57	1679.33
637.76	1753.06
637.95	1740.77
638.14	1695.72
638.33	1673.19
638.52	1751.01
638.71	1695.72
638.89	1601.51
639.08	1806.31
639.27	1726.44
639.46	1593.32
639.65	1697.77
639.84	1744.87
640.03	1712.10
640.22	1781.73
640.41	1779.68
640.60	1693.67
640.79	1736.68
640.98	1685.48
641.17	1779.68
641.36	1746.92
641.55	1734.63
641.74	1648.61
641.92	1665.00
642.11	1681.38
642.30	1724.39
642.49	1650.66
642.68	1693.67
642.87	1687.53
643.06	1667.05
643.25	1763.30
643.44	1624.04
643.63	1667.05
643.82	1718.25
644.00	1654.76
644.19	1785.83
644.38	1705.96
644.57	1748.97
644.76	1714.15
644.95	1673.19
645.14	1722.34
645.33	1660.90
645.52	1759.21
645.71	1572.84
645.89	1656.81
646.08	1628.14
646.27	1638.38
646.46	1837.03
646.65	1595.37
646.84	1650.66
647.03	1665.00
647.22	1789.92
647.40	1703.91
647.59	1708.01
647.78	1722.34
647.97	1697.77
648.16	1607.66
648.35	1746.92
648.54	1769.44
648.73	1718.25
648.91	1691.62
649.10	1732.58
649.29	1703.91
649.48	1673.19
649.67	1689.57
649.86	1681.38
650.05	1658.85
650.23	1701.86
650.42	1697.77
650.61	1740.77
650.80	1722.34
650.99	1820.64
651.18	1738.73
651.36	1681.38
651.55	1697.77
651.74	1683.43
651.93	1728.49
652.12	1685.48
652.31	1691.62
652.49	1701.86
652.68	1726.44
652.87	1738.73
653.06	1765.35
653.25	1841.12
653.44	1701.86
653.62	1845.22
653.81	1660.90
654.00	1783.78
654.19	1755.11
654.38	1886.18
654.56	1689.57
654.75	1730.53
654.94	1771.49
655.13	1738.73
655.32	1726.44
655.51	1804.26
655.69	1685.48
655.88	1744.87
656.07	1669.09
656.26	1714.15
656.45	1712.10
656.63	1679.33
656.82	1808.36
657.01	1773.54
657.20	1681.38
657.38	1734.63
657.57	1669.09
657.76	1619.94
657.95	1812.45
658.14	1671.14
658.32	1675.24
658.51	1675.24
658.70	1767.40
658.89	1705.96
659.08	1699.81
659.26	1742.82
659.45	1705.96
659.64	1753.06
659.83	1675.24
660.01	1822.69
660.20	1652.71
660.39	1773.54
660.58	1501.16
660.76	1787.88
660.95	1669.09
661.14	1755.11
661.33	1673.19
661.51	1642.47
661.70	1650.66
661.89	1744.87
662.08	1669.09
662.26	1665.00
662.45	1667.05
662.64	1849.32
662.83	1714.15
663.01	1665.00
663.20	1640.42
663.39	1787.88
663.58	1685.48
663.76	1710.05
663.95	1736.68
664.14	1712.10
664.32	1689.57
664.51	1628.14
664.70	1583.08
664.89	1683.43
665.07	1681.38
665.26	1730.53
665.45	1660.90
665.64	1773.54
665.82	1683.43
666.01	1816.55
666.20	1683.43
666.38	1802.21
666.57	1820.64
666.76	2162.66
666.95	4327.36
667.13	10067.81
667.32	14610.21
667.51	16791.30
667.69	18261.74
667.88	17012.48
668.07	11906.89
668.25	8998.77
668.44	7671.69
668.63	7032.72
668.81	6506.40
669.00	6129.57
669.19	5582.76
669.38	4980.66
669.56	4409.28
669.75	3733.45
669.94	3454.92
670.12	2840.53
670.31	2521.05
670.50	2211.81
670.68	2066.40
670.87	1853.41
671.06	1849.32
671.24	1755.11
671.43	1861.60
671.62	1753.06
671.80	1630.18
671.99	1753.06
672.18	1798.12
672.36	1789.92
672.55	1714.15
672.74	1791.97
672.92	1742.82
673.11	1810.40
673.29	1730.53
673.48	1853.41
673.67	1720.29
673.85	1763.30
674.04	1677.29
674.23	1734.63
674.41	1783.78
674.60	1634.28
674.79	1652.71
674.97	1722.34
675.16	1716.20
675.34	1806.31
675.53	1615.85
675.72	1683.43
675.90	1843.17
676.09	1665.00
676.28	1718.25
676.46	1640.42
676.65	1796.07
676.83	1755.11
677.02	1683.43
677.21	1705.96
677.39	1685.48
677.58	1671.14
677.77	1665.00
677.95	1646.57
678.14	1738.73
678.32	1744.87
678.51	1675.24
678.70	1791.97
678.88	1650.66
679.07	1626.09
679.25	1726.44
679.44	1722.34
679.63	1748.97
679.81	1814.50
680.00	1828.84
680.18	1789.92
680.37	1675.24
680.55	1699.81
680.74	1650.66
680.93	1595.37
681.11	1691.62
681.30	1644.52
681.48	1783.78
681.67	1720.29
681.85	1718.25
682.04	1734.63
682.23	1716.20
682.41	1681.38
682.60	1669.09
682.78	1740.77
682.97	1640.42
683.15	1705.96
683.34	1634.28
683.53	1781.73
683.71	1644.52
683.90	1748.97
684.08	1824.74
684.27	1691.62
684.45	1769.44
684.64	1761.25
684.82	1673.19
685.01	1730.53
685.19	1681.38
685.38	1808.36
685.57	1699.81
685.75	1615.85
685.94	1640.42
686.12	1671.14
686.31	1648.61
686.49	1839.08
686.68	1609.70
686.86	1728.49
687.05	1650.66
687.23	1808.36
687.42	1681.38
687.60	1603.56
687.79	1800.16
687.97	1787.88
688.16	1738.73
688.34	1771.49
688.53	1628.14
688.71	1798.12
688.90	1830.88
689.08	1718.25
689.27	1605.61
689.45	1761.25
689.64	1720.29
689.82	1701.86
690.01	1785.83
690.19	1656.81
690.38	1738.73
690.56	1796.07
690.75	1556.46
690.93	1701.86
691.12	1624.04
691.30	1648.61
691.49	1662.95
691.67	1705.96
691.86	1822.69
692.04	1615.85
692.23	1591.27
692.41	1654.76
692.60	1796.07
692.78	1755.11
692.97	1656.81
693.15	1744.87
693.34	1837.03
693.52	1681.38
693.71	1705.96
693.89	1652.71
694.08	1599.46
694.26	1832.93
694.44	1728.49
694.63	1675.24
694.81	1662.95
695.00	1697.77
695.18	1740.77
695.37	1847.27
695.55	1701.86
695.74	1673.19
695.92	1634.28
696.10	1802.21
696.29	1626.09
696.47	1667.05
696.66	1589.22
696.84	1656.81
697.03	1644.52
697.21	1787.88
697.40	2146.27
697.58	1748.97
697.76	1722.34
697.95	1685.48
698.13	1667.05
698.32	1619.94
698.50	1712.10
698.68	1789.92
698.87	1726.44
699.05	1730.53
699.24	1695.72
699.42	1648.61
699.61	1669.09
699.79	1681.38
699.97	1646.57
700.16	1697.77
700.34	1697.77
700.53	1767.40
700.71	1718.25
700.89	1828.84
701.08	1673.19
701.26	1785.83
701.45	2090.98
701.63	1746.92
701.81	1683.43
702.00	1691.62
702.18	1748.97
702.37	1681.38
702.55	1781.73
702.73	1710.05
702.92	1632.23
703.10	1697.77
703.28	1732.58
703.47	1638.38
703.65	1769.44
703.84	1726.44
704.02	1687.53
704.20	1769.44
704.39	1578.98
704.57	1662.95
704.75	1763.30
704.94	1722.34
705.12	1755.11
705.30	1748.97
705.49	2242.53
705.67	4239.30
705.86	8990.58
706.04	11945.80
706.22	13735.73
706.41	14616.35
706.59	13229.88
706.77	9168.76
706.96	7110.55
707.14	6227.87
707.32	5867.43
707.51	5302.19
707.69	4720.57
707.87	4184.00
708.06	3456.97
708.24	2973.65
708.42	2373.60
708.61	2217.95
708.79	1875.94
708.97	1882.08
709.16	1798.12
709.34	1771.49
709.52	1708.01
709.71	1748.97
709.89	1785.83
710.07	1681.38
710.26	1658.85
710.44	1751.01
710.62	1828.84
710.80	1744.87
710.99	1806.31
711.17	1753.06
711.35	1714.15
711.54	1640.42
711.72	1740.77
711.90	1697.77
712.09	1732.58
712.27	1662.95
712.45	1695.72
712.63	1687.53
712.82	1658.85
713.00	1832.93
713.18	1648.61
713.37	1736.68
713.55	1740.77
713.73	1710.05
713.91	1718.25
714.10	1640.42
714.28	1703.91
714.46	1679.33
714.65	1736.68
714.83	1734.63
715.01	1685.48
715.19	1708.01
715.38	1658.85
715.56	1726.44
715.74	1714.15
715.92	1669.09
716.11	1810.40
716.29	1587.18
716.47	1708.01
716.65	1742.82
716.84	1601.51
717.02	1812.45
717.20	1595.37
717.38	1619.94
717.57	1714.15
717.75	1650.66
717.93	1689.57
718.11	1714.15
718.30	1667.05
718.48	1724.39
718.66	1718.25
718.84	1708.01
719.03	1681.38
719.21	1660.90
719.39	1757.16
719.57	1775.59
719.75	1726.44
719.94	1656.81
720.12	1701.86
720.30	1689.57
720.48	1724.39
720.67	1658.85
720.85	1669.09
721.03	1665.00
721.21	1626.09
721.39	1746.92
721.58	1712.10
721.76	1708.01
721.94	1697.77
722.12	1773.54
722.30	1824.74
722.49	1617.90
722.67	1703.91
722.85	1679.33
723.03	1593.32
723.21	1759.21
723.40	1714.15
723.58	1705.96
723.76	1761.25
723.94	1837.03
724.12	1730.53
724.30	1757.16
724.49	1730.53
724.67	1611.75
724.85	1767.40
725.03	1671.14
725.21	1736.68
725.40	1746.92
725.58	1681.38
725.76	1742.82
725.94	1705.96
726.12	1654.76
726.30	1697.77
726.49	1693.67
726.67	1656.81
726.85	1699.81
727.03	1705.96
727.21	2166.75
727.39	2840.53
727.57	3680.20
727.76	3962.82
727.94	4290.49
728.12	4306.88
728.30	3602.38
728.48	2889.68
728.66	2734.04
728.84	2527.19
729.03	2275.29
729.21	2164.70
729.39	1953.76
729.57	1830.88
729.75	1914.85
729.93	1861.60
730.11	1705.96
730.30	1703.91
730.48	1761.25
730.66	1730.53
730.84	1718.25
731.02	1695.72
731.20	1675.24
731.38	1724.39
731.56	1601.51
731.74	1636.33
731.93	1648.61
732.11	1699.81
732.29	1640.42
732.47	1763.30
732.65	1689.57
732.83	1753.06
733.01	1714.15
733.19	1665.00
733.37	1697.77
733.56	1671.14
733.74	1679.33
733.92	1740.77
734.10	1667.05
734.28	1742.82
734.46	1685.48
734.64	1650.66
734.82	1646.57
735.00	1712.10
735.18	1646.57
735.36	1607.66
735.54	1693.67
735.73	1724.39
735.91	1734.63
736.09	1673.19
736.27	1648.61
736.45	1722.34
736.63	1615.85
736.81	1742.82
736.99	1763.30
737.17	1779.68
737.35	1652.71
737.53	1654.76
737.71	1624.04
737.89	1703.91
738.07	1720.29
738.25	1681.38
738.43	1634.28
738.61	1669.09
738.80	1642.47
738.98	1708.01
739.16	1683.43
739.34	1689.57
739.52	1740.77
739.70	1669.09
739.88	1755.11
740.06	1728.49
740.24	1597.42
740.42	1796.07
740.60	1624.04
740.78	1646.57
740.96	1593.32
741.14	1681.38
741.32	1667.05
741.50	1601.51
741.68	1812.45
741.86	1861.60
742.04	1742.82
742.22	1626.09
742.40	1763.30
742.58	1632.23
742.76	1595.37
742.94	1740.77
743.12	1617.90
743.30	1660.90
743.48	1710.05
743.66	1728.49
743.84	1705.96
744.02	1746.92
744.20	1697.77
744.38	1642.47
744.56	1656.81
744.74	1828.84
744.92	1714.15
745.10	1705.96
745.28	1740.77
745.46	1734.63
745.64	1744.87
745.82	1746.92
746.00	1689.57
746.18	1757.16
746.36	1673.19
746.54	1703.91
746.72	1624.04
746.90	1689.57
747.08	1683.43
747.26	1685.48
747.44	1755.11
747.62	1755.11
747.80	1722.34
747.98	1828.84
748.15	1669.09
748.33	1681.38
748.51	1662.95
748.69	1771.49
748.87	1738.73
749.05	1769.44
749.23	1642.47
749.41	1730.53
749.59	1714.15
749.77	1775.59
749.95	1703.91
750.13	1630.18
750.31	1757.16
750.49	1748.97
750.67	1740.77
750.85	1814.50
751.03	1763.30
751.20	1771.49
751.38	1656.81
751.56	1687.53
751.74	1679.33
751.92	1652.71
752.10	1621.99
752.28	1787.88
752.46	1699.81
752.64	1667.05
752.82	1728.49
753.00	1845.22
753.18	1695.72
753.35	1679.33
753.53	1779.68
753.71	1716.20
753.89	1724.39
754.07	1662.95
754.25	1730.53
754.43	1710.05
754.61	1667.05
754.79	1775.59
754.97	1679.33
755.14	1757.16
755.32	1679.33
755.50	1712.10
755.68	1722.34
755.86	1681.38
756.04	1673.19
756.22	1595.37
756.40	1689.57
756.57	1812.45
756.75	1691.62
756.93	1757.16
757.11	1820.64
757.29	1660.90
757.47	1638.38
757.65	1646.57
757.82	1603.56
758.00	1599.46
758.18	1685.48
758.36	1681.38
758.54	1804.26
758.72	1648.61
758.90	1755.11
759.07	1718.25
759.25	1726.44
759.43	1636.33
759.61	1626.09
759.79	2174.94
759.97	1757.16
760.15	1710.05
760.32	1710.05
760.50	1742.82
760.68	1863.65
760.86	1683.43
761.04	1763.30
761.22	1689.57
761.39	1673.19
761.57	1757.16
761.75	1701.86
761.93	1742.82
762.11	1628.14
762.28	1763.30
762.46	1681.38
762.64	1693.67
762.82	1591.27
763.00	1630.18
763.18	1705.96
763.35	1632.23
763.53	1710.05
763.71	1679.33
763.89	1714.15
764.07	1673.19
764.24	1644.52
764.42	1730.53
764.60	1722.34
764.78	1712.10
764.96	1689.57
765.13	1730.53
765.31	1732.58
765.49	1742.82
765.67	1685.48
765.84	1695.72
766.02	1683.43
766.20	1624.04
766.38	1708.01
766.56	1765.35
766.73	1757.16
766.91	1667.05
767.09	1718.25
767.27	1699.81
767.44	1630.18
767.62	1728.49
767.80	1744.87
767.98	1695.72
768.15	1714.15
768.33	1695.72
768.51	1777.64
768.69	1820.64
768.87	1671.14
769.04	1703.91
769.22	1826.79
769.40	1820.64
769.58	1955.81
769.75	1757.16
769.93	1794.02
770.11	1722.34
770.28	1748.97
770.46	1701.86
770.64	1701.86
770.82	1687.53
770.99	1677.29
771.17	1652.71
771.35	1660.90
771.53	1636.33
771.70	1656.81
771.88	1675.24
772.06	1757.16
772.23	1630.18
772.41	1787.88
772.59	1695.72
772.77	1671.14
772.94	1720.29
773.12	1769.44
773.30	1753.06
773.47	1705.96
773.65	1624.04
773.83	1751.01
774.01	1685.48
774.18	1667.05
774.36	1718.25
774.54	1718.25
774.71	1638.38
774.89	1560.55
775.07	1654.76
775.24	1734.63
775.42	1777.64
775.60	1849.32
775.78	1628.14
775.95	1642.47
776.13	1644.52
776.31	1621.99
776.48	1710.05
776.66	1769.44
776.84	1683.43
777.01	1681.38
777.19	1615.85
777.37	1601.51
777.54	1783.78
777.72	1820.64
777.90	1695.72
778.07	1669.09
778.25	1877.99
778.43	1759.21
778.60	1703.91
778.78	1769.44
778.96	1730.53
779.13	1632.23
779.31	1697.77
779.49	1718.25
779.66	1724.39
779.84	1671.14
780.01	1695.72
780.19	1665.00
780.37	1769.44
780.54	1693.67
780.72	1708.01
780.90	1744.87
781.07	1675.24
781.25	1654.76
781.43	1689.57
781.60	1744.87
781.78	1775.59
781.95	1703.91
782.13	1712.10
782.31	1710.05
782.48	1560.55
782.66	1581.03
782.83	1882.08
783.01	1765.35
783.19	1697.77
783.36	1658.85
783.54	1644.52
783.72	1759.21
783.89	1683.43
784.07	1679.33
784.24	1783.78
784.42	1720.29
784.60	1619.94
784.77	1724.39
784.95	1675.24
785.12	1751.01
785.30	1621.99
785.47	1624.04
785.65	1697.77
785.83	1656.81
786.00	1656.81
786.18	1693.67
786.35	1742.82
786.53	1658.85
786.71	1767.40
786.88	1787.88
787.06	1773.54
787.23	1775.59
787.41	1656.81
787.58	1769.44
787.76	1632.23
787.94	1736.68
788.11	1705.96
788.29	1656.81
788.46	1658.85
788.64	1605.61
788.81	1656.81
788.99	1775.59
789.16	1595.37
789.34	1660.90
789.52	1660.90
789.69	1714.15
789.87	1669.09
790.04	1660.90
790.22	1712.10
790.39	1755.11
790.57	1652.71
790.74	1574.89
790.92	1744.87
791.09	1738.73
791.27	1708.01
791.44	1740.77
791.62	1673.19
791.79	1716.20
791.97	1716.20
792.15	1834.98
792.32	1654.76
792.50	1767.40
792.67	1806.31
792.85	1800.16
793.02	1705.96
793.20	1679.33
793.37	1656.81
793.55	1699.81
793.72	1658.85
793.90	1722.34
794.07	1640.42
794.25	1603.56
794.42	1785.83
794.60	1720.29
794.77	1691.62
794.95	1697.77
795.12	1794.02
795.30	1742.82
795.47	1681.38
795.65	1865.70
795.82	1763.30
796.00	1544.17
796.17	1691.62
796.34	1632.23
796.52	1640.42
796.69	1689.57
796.87	1767.40
797.04	1726.44
797.22	1699.81
797.39	1654.76
797.57	1665.00
797.74	1730.53
797.92	1796.07
798.09	1714.15
798.27	1703.91
798.44	1751.01
798.62	1681.38
798.79	1714.15
798.96	1689.57
799.14	1650.66
799.31	1869.80
799.49	1742.82
799.66	1603.56
799.84	1689.57
800.01	1652.71
800.19	1714.15
800.36	1591.27
800.53	1689.57
800.71	1740.77
800.88	1714.15
801.06	1675.24
801.23	1753.06
801.41	1736.68
801.58	1646.57
801.75	1697.77
801.93	1710.05
802.10	1769.44
802.28	1779.68
802.45	1624.04
802.63	1738.73
802.80	1812.45
802.97	1687.53
803.15	1755.11
803.32	1634.28
803.50	1628.14
803.67	1640.42
803.84	1628.14
804.02	1708.01
804.19	1734.63
804.37	1568.74
804.54	1630.18
804.71	1681.38
804.89	1693.67
805.06	1683.43
805.24	1673.19
805.41	1751.01
805.58	1681.38
805.76	1804.26
805.93	1650.66
806.10	1724.39
806.28	1736.68
806.45	1621.99
806.63	1763.30
806.80	1714.15
806.97	1595.37
807.15	1738.73
807.32	1740.77
807.49	1699.81
807.67	1591.27
807.84	1740.77
808.01	1611.75
808.19	1755.11
808.36	1871.84
808.54	1681.38
808.71	1611.75
808.88	1673.19
809.06	1720.29
809.23	1812.45
809.40	1685.48
809.58	1718.25
809.75	1685.48
809.92	1720.29
810.10	1820.64
810.27	1708.01
810.44	1660.90
810.62	1798.12
810.79	1673.19
810.96	1677.29
811.14	1705.96
811.31	1656.81
811.48	1679.33
811.66	1683.43
811.83	1800.16
812.00	1730.53
812.18	1689.57
812.35	1871.84
812.52	1665.00
812.69	1714.15
812.87	1644.52
813.04	1693.67
813.21	1650.66
813.39	1638.38
813.56	1634.28
813.73	1757.16
813.91	1632.23
814.08	1701.86
814.25	1708.01
814.42	1607.66
814.60	1642.47
814.77	1691.62
814.94	1701.86
815.12	1607.66
815.29	1732.58
815.46	1621.99
815.63	1753.06
815.81	1716.20
815.98	1681.38
816.15	1681.38
816.33	1703.91
816.50	1673.19
816.67	1710.05
816.84	1708.01
817.02	1689.57
817.19	1703.91
817.36	1701.86
817.53	1708.01
817.71	1619.94
817.88	1777.64
818.05	1681.38
818.22	1642.47
818.40	1802.21
818.57	1677.29
818.74	1732.58
818.91	1621.99
819.09	1699.81
819.26	1691.62
819.43	1718.25
819.60	1626.09
819.78	1726.44
819.95	1730.53
820.12	1708.01
820.29	1748.97
820.47	1683.43
820.64	1718.25
820.81	1597.42
820.98	1628.14
821.15	1640.42
821.33	1687.53
821.50	1701.86
821.67	1683.43
821.84	1609.70
822.02	1712.10
822.19	1779.68
822.36	1699.81
822.53	1591.27
822.70	1636.33
822.88	1669.09
823.05	1765.35
823.22	1681.38
823.39	1685.48
823.56	1771.49
823.74	1859.56
823.91	1593.32
824.08	1609.70
824.25	1574.89
824.42	1736.68
824.60	1628.14
824.77	1730.53
824.94	1681.38
825.11	1738.73
825.28	1638.38
825.45	1710.05
825.63	1751.01
825.80	1628.14
825.97	1728.49
826.14	1708.01
826.31	1730.53
826.48	1695.72
826.66	1634.28
826.83	1662.95
827.00	1800.16
827.17	1634.28
827.34	1746.92
827.51	1677.29
827.69	1677.29
827.86	1646.57
828.03	1742.82
828.20	1806.31
828.37	1689.57
828.54	1691.62
828.71	1744.87
828.89	1830.88
829.06	1681.38
829.23	1800.16
829.40	1693.67
829.57	1667.05
829.74	1720.29
829.91	1630.18
830.09	1695.72
830.26	1683.43
830.43	1791.97
830.60	1677.29
830.77	1759.21
830.94	1701.86
831.11	1761.25
831.28	1634.28
831.46	1736.68
831.63	1734.63
831.80	1667.05
831.97	1689.57
832.14	1658.85
832.31	1748.97
832.48	1640.42
832.65	1806.31
832.82	1781.73
832.99	1738.73
833.17	1585.13
833.34	1804.26
833.51	1734.63
833.68	1638.38
833.85	1742.82
834.02	1576.94
834.19	1656.81
834.36	1640.42
834.53	1710.05
834.70	1761.25
834.87	1796.07
835.04	1701.86
835.22	1597.42
835.39	1710.05
835.56	1665.00
835.73	1710.05
835.90	1681.38
836.07	1646.57
836.24	1744.87
836.41	1710.05
836.58	1619.94
836.75	1847.27
836.92	1734.63
837.09	1656.81
837.26	1679.33
837.43	1740.77
837.60	1800.16
837.77	1683.43
837.94	1796.07
838.12	1691.62
838.29	1638.38
838.46	1697.77
838.63	1593.32
838.80	1705.96
838.97	1687.53
839.14	1701.86
839.31	1673.19
839.48	1753.06
839.65	1636.33
839.82	1673.19
839.99	1724.39
840.16	1685.48
840.33	1693.67
840.50	1650.66
840.67	1656.81
840.84	1591.27
841.01	1748.97
841.18	1726.44
841.35	1671.14
841.52	1775.59
841.69	1740.77
841.86	1687.53
842.03	1675.24
842.20	1757.16
842.37	1683.43
842.54	1732.58
842.71	1767.40
842.88	1609.70
843.05	1785.83
843.22	1693.67
843.39	1759.21
843.56	1662.95
843.73	1697.77
843.90	1673.19
844.07	1699.81
844.24	1644.52
844.41	1734.63
844.58	1673.19
844.75	1617.90
844.92	1712.10
845.09	1619.94
845.26	1660.90
845.43	1695.72
845.60	1669.09
845.77	1742.82
845.94	1710.05
846.10	1791.97
846.27	1640.42
846.44	1695.72
846.61	1621.99
846.78	1751.01
846.95	1728.49
847.12	1703.91
847.29	1761.25
847.46	1695.72
847.63	1765.35
847.80	1742.82
847.97	1730.53
848.14	1718.25
848.31	1736.68
848.48	1599.46
848.65	1763.30
848.82	1640.42
848.98	1863.65
849.15	1787.88
849.32	1732.58
849.49	1767.40
849.66	1677.29
849.83	1656.81
850.00	1640.42
850.17	1730.53
850.34	1683.43
850.51	1621.99
850.68	1677.29
850.85	1812.45
851.01	1746.92
851.18	1740.77
851.35	1703.91
851.52	1767.40
851.69	1746.92
851.86	1593.32
852.03	1736.68
852.20	1759.21
852.37	1638.38
852.53	1671.14
852.70	1681.38
852.87	1669.09
853.04	1708.01
853.21	1710.05
853.38	1683.43
853.55	1746.92
853.72	1691.62
853.89	1607.66
854.05	1679.33
854.22	1669.09
854.39	1665.00
854.56	1771.49
854.73	1730.53
854.90	1603.56
855.07	1683.43
855.23	1607.66
855.40	1669.09
855.57	1619.94
855.74	1554.41
855.91	1843.17
856.08	1662.95
856.25	1642.47
856.41	1660.90
856.58	1714.15
856.75	1718.25
856.92	1628.14
857.09	1705.96
857.26	1609.70
857.42	1656.81
857.59	1691.62
857.76	1669.09
857.93	1654.76
858.10	1708.01
858.27	1615.85
858.43	1718.25
858.60	1642.47
858.77	1597.42
858.94	1728.49
859.11	1796.07
859.27	1708.01
859.44	1683.43
859.61	1849.32
859.78	1751.01
859.95	1630.18
860.12	1636.33
860.28	1775.59
860.45	1830.88
860.62	1701.86
860.79	1705.96
860.95	1716.20
861.12	1701.86
861.29	1621.99
861.46	1673.19
861.63	1562.60
861.79	1656.81
861.96	1665.00
862.13	1705.96
862.30	1689.57
862.47	1730.53
862.63	1630.18
862.80	1828.84
862.97	1765.35
863.14	1673.19
863.30	1665.00
863.47	1662.95
863.64	1771.49
863.81	1677.29
863.97	1701.86
864.14	1679.33
864.31	1689.57
864.48	1667.05
864.65	1689.57
864.81	1746.92
864.98	1697.77
865.15	1714.15
865.32	1703.91
865.48	1687.53
865.65	1851.36
865.82	1677.29
865.98	1673.19
866.15	1765.35
866.32	1679.33
866.49	1703.91
866.65	1804.26
866.82	1628.14
866.99	1732.58
867.16	1648.61
867.32	1701.86
867.49	1679.33
867.66	1730.53
867.83	1677.29
867.99	1591.27
868.16	1673.19
868.33	1648.61
868.49	1699.81
868.66	1681.38
868.83	1755.11
868.99	1724.39
869.16	1716.20
869.33	1734.63
869.50	1738.73
869.66	1689.57
869.83	1662.95
870.00	1742.82
870.16	1718.25
870.33	1662.95
870.50	1810.40
870.66	1693.67
870.83	1798.12
871.00	1662.95
871.17	1679.33
871.33	1699.81
871.50	1644.52
871.67	1740.77
871.83	1642.47
872.00	1812.45
872.17	1714.15
872.33	1800.16
872.50	1779.68
872.67	1703.91
872.83	1673.19
873.00	1714.15
873.17	1705.96
873.33	1753.06
873.50	1718.25
873.67	1652.71
873.83	1656.81
874.00	1746.92
874.16	1708.01
874.33	1677.29
874.50	1621.99
874.66	1771.49
874.83	1613.80
875.00	1673.19
875.16	1755.11
875.33	1740.77
875.50	1550.31
875.66	1695.72
875.83	1677.29
875.99	1714.15
876.16	1673.19
876.33	1712.10
876.49	1708.01
876.66	1667.05
876.83	1665.00
876.99	1662.95
877.16	1701.86
877.32	1615.85
877.49	1634.28
877.66	1675.24
877.82	1771.49
877.99	1759.21
878.15	1779.68
878.32	1708.01
878.49	1699.81
878.65	1652.71
878.82	1755.11
878.98	1683.43
879.15	1757.16
879.32	1677.29
879.48	1667.05
879.65	1681.38
879.81	1652.71
879.98	1685.48
880.15	1673.19
880.31	1763.30
880.48	1697.77
880.64	1730.53
880.81	1716.20
880.97	1734.63
881.14	1755.11
881.31	1673.19
881.47	1771.49
881.64	1712.10
881.80	1636.33
881.97	1804.26
882.13	1716.20
882.30	1624.04
882.47	1675.24
882.63	1656.81
882.80	1685.48
882.96	1705.96
883.13	1771.49
883.29	1665.00
883.46	1746.92
883.62	1843.17
883.79	1763.30
883.95	1742.82
884.12	1726.44
884.29	1748.97
884.45	1705.96
884.62	1779.68
884.78	1710.05
884.95	1728.49
885.11	1642.47
885.28	1701.86
885.44	1669.09
885.61	1718.25
885.77	1765.35
885.94	1759.21
886.10	1691.62
886.27	1669.09
886.43	1822.69
886.60	1740.77
886.76	1681.38
886.93	1646.57
887.09	1712.10
887.26	1601.51
887.42	1667.05
887.59	1751.01
887.75	1857.51
887.92	1775.59
888.08	1800.16
888.25	1712.10
888.41	1824.74
888.58	1671.14
888.74	1646.57
888.91	1675.24
>>>>>End Processed Spectral Data<<<<<
