SpectraSuite Data File
++++++++++++++++++++++++++++++++++++
Date: Mon Jun 06 16:02:57 CEST 2016
User: root
Dark Spectrum Present: No
Reference Spectrum Present: No
Number of Sampled Component Spectra: 1
Spectrometers: USB4C02835
Integration Time (usec): 100000 (USB4C02835)
Spectra Averaged: 1 (USB4C02835)
Boxcar Smoothing: 0 (USB4C02835)
Correct for Electrical Dark: No (USB4C02835)
Strobe/Lamp Enabled: No (USB4C02835)
Correct for Detector Non-linearity: No (USB4C02835)
Correct for Stray Light: No (USB4C02835)
Number of Pixels in Processed Spectrum: 3648
>>>>>Begin Processed Spectral Data<<<<<
177.47	1531.88
177.69	1531.88
177.91	1531.88
178.13	1484.78
178.36	1501.16
178.58	1665.00
178.80	1722.34
179.02	1691.62
179.24	1677.29
179.46	1693.67
179.68	1714.15
179.90	1724.39
180.13	1734.63
180.35	1607.66
180.57	1714.15
180.79	1785.83
181.01	1748.97
181.23	1794.02
181.45	1748.97
181.67	1775.59
181.90	1783.78
182.12	1660.90
182.34	1681.38
182.56	1820.64
182.78	1748.97
183.00	1714.15
183.22	1708.01
183.44	1617.90
183.66	1822.69
183.89	1783.78
184.11	1671.14
184.33	1718.25
184.55	1767.40
184.77	1708.01
184.99	1722.34
185.21	1671.14
185.43	1832.93
185.65	1714.15
185.87	1746.92
186.10	1806.31
186.32	1787.88
186.54	1693.67
186.76	1751.01
186.98	1738.73
187.20	1734.63
187.42	1726.44
187.64	1728.49
187.86	1769.44
188.08	1740.77
188.30	1705.96
188.52	1646.57
188.75	1763.30
188.97	1734.63
189.19	1669.09
189.41	1718.25
189.63	1785.83
189.85	1736.68
190.07	1685.48
190.29	1665.00
190.51	1761.25
190.73	1603.56
190.95	1726.44
191.17	1652.71
191.39	1566.70
191.61	1703.91
191.84	1677.29
192.06	1777.64
192.28	1691.62
192.50	1830.88
192.72	1753.06
192.94	1658.85
193.16	1722.34
193.38	1775.59
193.60	1724.39
193.82	1701.86
194.04	1779.68
194.26	1701.86
194.48	1677.29
194.70	1644.52
194.92	1769.44
195.14	1779.68
195.36	1628.14
195.58	1658.85
195.80	1724.39
196.02	1748.97
196.24	1718.25
196.46	1742.82
196.69	1708.01
196.91	1845.22
197.13	1642.47
197.35	1677.29
197.57	1818.60
197.79	1728.49
198.01	1705.96
198.23	1769.44
198.45	1751.01
198.67	1611.75
198.89	1748.97
199.11	1673.19
199.33	1671.14
199.55	1619.94
199.77	1757.16
199.99	1748.97
200.21	1716.20
200.43	1785.83
200.65	1671.14
200.87	1542.12
201.09	1710.05
201.31	1660.90
201.53	1693.67
201.75	1681.38
201.97	1746.92
202.19	1710.05
202.41	1757.16
202.63	1830.88
202.85	1746.92
203.07	1794.02
203.29	1722.34
203.51	1679.33
203.73	1644.52
203.95	1847.27
204.17	1751.01
204.39	1757.16
204.61	1714.15
204.83	1685.48
205.05	1734.63
205.27	1671.14
205.49	1845.22
205.71	1656.81
205.93	1679.33
206.15	1736.68
206.37	1689.57
206.59	1708.01
206.81	1679.33
207.03	1693.67
207.25	1669.09
207.47	1722.34
207.69	1728.49
207.91	1814.50
208.13	1695.72
208.34	1720.29
208.56	1662.95
208.78	1683.43
209.00	1634.28
209.22	1693.67
209.44	1689.57
209.66	1708.01
209.88	1689.57
210.10	1568.74
210.32	1730.53
210.54	1757.16
210.76	1687.53
210.98	1757.16
211.20	1587.18
211.42	1667.05
211.64	1730.53
211.86	1748.97
212.08	1699.81
212.30	1757.16
212.52	1636.33
212.74	1699.81
212.96	1738.73
213.17	1748.97
213.39	1710.05
213.61	1789.92
213.83	1800.16
214.05	1671.14
214.27	1791.97
214.49	1615.85
214.71	1728.49
214.93	1740.77
215.15	1703.91
215.37	1714.15
215.59	1691.62
215.81	1740.77
216.03	1763.30
216.24	1636.33
216.46	1697.77
216.68	1730.53
216.90	1757.16
217.12	1746.92
217.34	1708.01
217.56	1791.97
217.78	1748.97
218.00	1714.15
218.22	1765.35
218.44	1759.21
218.66	1675.24
218.87	1886.18
219.09	1675.24
219.31	1769.44
219.53	1738.73
219.75	1642.47
219.97	1640.42
220.19	1718.25
220.41	1703.91
220.63	1814.50
220.85	1789.92
221.06	1746.92
221.28	1785.83
221.50	1781.73
221.72	1736.68
221.94	1634.28
222.16	1789.92
222.38	1765.35
222.60	1785.83
222.82	1640.42
223.03	1757.16
223.25	1697.77
223.47	1796.07
223.69	1785.83
223.91	1746.92
224.13	1656.81
224.35	1665.00
224.57	1685.48
224.78	1734.63
225.00	1726.44
225.22	1607.66
225.44	1751.01
225.66	1716.20
225.88	1751.01
226.10	1716.20
226.32	1697.77
226.53	1865.70
226.75	1644.52
226.97	1740.77
227.19	1708.01
227.41	1716.20
227.63	1673.19
227.85	1630.18
228.06	1718.25
228.28	1724.39
228.50	1736.68
228.72	1675.24
228.94	1734.63
229.16	1681.38
229.37	1722.34
229.59	1644.52
229.81	1822.69
230.03	1673.19
230.25	1576.94
230.47	1683.43
230.69	1648.61
230.90	1763.30
231.12	1722.34
231.34	1781.73
231.56	1710.05
231.78	1679.33
232.00	1783.78
232.21	1665.00
232.43	1665.00
232.65	1619.94
232.87	1728.49
233.09	1697.77
233.30	1591.27
233.52	1718.25
233.74	1722.34
233.96	1679.33
234.18	1673.19
234.40	1710.05
234.61	1830.88
234.83	1687.53
235.05	1628.14
235.27	1855.46
235.49	1728.49
235.70	1703.91
235.92	1794.02
236.14	1787.88
236.36	1918.95
236.58	1644.52
236.79	1710.05
237.01	1728.49
237.23	1667.05
237.45	1796.07
237.67	1669.09
237.88	1599.46
238.10	1824.74
238.32	1640.42
238.54	1718.25
238.76	1640.42
238.97	1574.89
239.19	1628.14
239.41	1779.68
239.63	1755.11
239.85	1701.86
240.06	1744.87
240.28	1701.86
240.50	1802.21
240.72	1744.87
240.93	1703.91
241.15	1851.36
241.37	1748.97
241.59	1794.02
241.81	1636.33
242.02	1679.33
242.24	1734.63
242.46	1765.35
242.68	1681.38
242.89	1644.52
243.11	1767.40
243.33	1619.94
243.55	1763.30
243.76	1736.68
243.98	1710.05
244.20	1742.82
244.42	1744.87
244.64	1665.00
244.85	1667.05
245.07	1687.53
245.29	1757.16
245.51	1693.67
245.72	1677.29
245.94	1839.08
246.16	1773.54
246.38	1710.05
246.59	1720.29
246.81	1634.28
247.03	1593.32
247.24	1583.08
247.46	1593.32
247.68	1705.96
247.90	1599.46
248.11	1722.34
248.33	1732.58
248.55	1669.09
248.77	1718.25
248.98	1732.58
249.20	1783.78
249.42	1738.73
249.64	1748.97
249.85	1675.24
250.07	1660.90
250.29	1771.49
250.50	1746.92
250.72	1658.85
250.94	1703.91
251.16	1826.79
251.37	1720.29
251.59	1791.97
251.81	1712.10
252.02	1763.30
252.24	1710.05
252.46	1718.25
252.68	1695.72
252.89	1648.61
253.11	1554.41
253.33	1820.64
253.54	1681.38
253.76	1691.62
253.98	1630.18
254.20	1703.91
254.41	1624.04
254.63	1734.63
254.85	1583.08
255.06	1691.62
255.28	1763.30
255.50	1730.53
255.71	1619.94
255.93	1677.29
256.15	1732.58
256.36	1712.10
256.58	1705.96
256.80	1820.64
257.02	1671.14
257.23	1730.53
257.45	1673.19
257.67	1787.88
257.88	1714.15
258.10	1738.73
258.32	1777.64
258.53	1699.81
258.75	1845.22
258.97	1710.05
259.18	1703.91
259.40	1714.15
259.62	1857.51
259.83	1757.16
260.05	1773.54
260.27	1972.19
260.48	1683.43
260.70	1701.86
260.92	1648.61
261.13	1681.38
261.35	1712.10
261.57	1759.21
261.78	1642.47
262.00	1734.63
262.22	1734.63
262.43	1705.96
262.65	1691.62
262.86	1679.33
263.08	1916.90
263.30	1705.96
263.51	1636.33
263.73	1681.38
263.95	1783.78
264.16	1738.73
264.38	1652.71
264.60	1806.31
264.81	1724.39
265.03	1822.69
265.25	1789.92
265.46	1685.48
265.68	1800.16
265.89	1687.53
266.11	1640.42
266.33	1738.73
266.54	1783.78
266.76	1718.25
266.98	1734.63
267.19	1783.78
267.41	1738.73
267.62	1705.96
267.84	1628.14
268.06	1777.64
268.27	1697.77
268.49	1773.54
268.70	1771.49
268.92	1701.86
269.14	1644.52
269.35	1732.58
269.57	1701.86
269.79	1789.92
270.00	1673.19
270.22	1820.64
270.43	1732.58
270.65	1648.61
270.87	1728.49
271.08	1681.38
271.30	1742.82
271.51	1730.53
271.73	1738.73
271.95	1855.46
272.16	1738.73
272.38	1765.35
272.59	1722.34
272.81	1796.07
273.02	1730.53
273.24	1703.91
273.46	1789.92
273.67	1609.70
273.89	1652.71
274.10	1673.19
274.32	1781.73
274.54	1765.35
274.75	1767.40
274.97	1724.39
275.18	1765.35
275.40	1681.38
275.61	1742.82
275.83	1800.16
276.05	1603.56
276.26	1652.71
276.48	1712.10
276.69	1656.81
276.91	1755.11
277.12	1759.21
277.34	1816.55
277.55	1769.44
277.77	1742.82
277.99	1746.92
278.20	1675.24
278.42	1730.53
278.63	1679.33
278.85	1632.23
279.06	1646.57
279.28	1695.72
279.49	1746.92
279.71	1720.29
279.93	1697.77
280.14	1677.29
280.36	1652.71
280.57	1773.54
280.79	1753.06
281.00	1619.94
281.22	1716.20
281.43	1845.22
281.65	1652.71
281.86	1638.38
282.08	1691.62
282.29	1804.26
282.51	1564.65
282.73	1714.15
282.94	1615.85
283.16	1787.88
283.37	1796.07
283.59	1722.34
283.80	1767.40
284.02	1710.05
284.23	1708.01
284.45	1675.24
284.66	1652.71
284.88	1697.77
285.09	1673.19
285.31	1710.05
285.52	1687.53
285.74	1634.28
285.95	1738.73
286.17	1701.86
286.38	1746.92
286.60	1693.67
286.81	1685.48
287.03	1740.77
287.24	1753.06
287.46	1771.49
287.67	1716.20
287.89	1802.21
288.10	1685.48
288.32	1732.58
288.53	1837.03
288.75	1730.53
288.96	1738.73
289.18	1642.47
289.39	1640.42
289.61	1791.97
289.82	1900.52
290.04	1794.02
290.25	1728.49
290.47	1710.05
290.68	1765.35
290.90	1789.92
291.11	1679.33
291.33	1755.11
291.54	1619.94
291.76	1650.66
291.97	1689.57
292.18	1710.05
292.40	1650.66
292.61	1691.62
292.83	1808.36
293.04	1755.11
293.26	1740.77
293.47	1755.11
293.69	1656.81
293.90	1712.10
294.12	1734.63
294.33	1683.43
294.55	1689.57
294.76	1849.32
294.97	1775.59
295.19	1863.65
295.40	1673.19
295.62	1730.53
295.83	1738.73
296.05	1683.43
296.26	1746.92
296.48	1740.77
296.69	1710.05
296.90	1636.33
297.12	1746.92
297.33	1697.77
297.55	1742.82
297.76	1695.72
297.98	1730.53
298.19	1755.11
298.41	1701.86
298.62	1669.09
298.83	1804.26
299.05	1740.77
299.26	1720.29
299.48	1617.90
299.69	1761.25
299.90	1806.31
300.12	1640.42
300.33	1722.34
300.55	1761.25
300.76	1748.97
300.98	1667.05
301.19	1716.20
301.40	1681.38
301.62	1640.42
301.83	1761.25
302.05	1726.44
302.26	1748.97
302.47	1662.95
302.69	1673.19
302.90	1683.43
303.12	1679.33
303.33	1755.11
303.54	1779.68
303.76	1699.81
303.97	1765.35
304.19	1791.97
304.40	1662.95
304.61	1771.49
304.83	1869.80
305.04	1681.38
305.26	1732.58
305.47	1656.81
305.68	1720.29
305.90	1644.52
306.11	1808.36
306.33	1722.34
306.54	1714.15
306.75	1675.24
306.97	1599.46
307.18	1712.10
307.39	1771.49
307.61	1765.35
307.82	1665.00
308.04	1759.21
308.25	1644.52
308.46	1763.30
308.68	1783.78
308.89	1687.53
309.10	1742.82
309.32	1736.68
309.53	1753.06
309.74	1773.54
309.96	1648.61
310.17	1853.41
310.39	1691.62
310.60	1763.30
310.81	1755.11
311.03	1603.56
311.24	1738.73
311.45	1593.32
311.67	1779.68
311.88	1789.92
312.09	1730.53
312.31	1656.81
312.52	1755.11
312.73	1716.20
312.95	1636.33
313.16	1660.90
313.37	1824.74
313.59	1802.21
313.80	1857.51
314.01	1810.40
314.23	1619.94
314.44	1591.27
314.65	1675.24
314.87	1730.53
315.08	1730.53
315.29	1675.24
315.51	1671.14
315.72	1720.29
315.93	1814.50
316.15	1761.25
316.36	1703.91
316.57	1814.50
316.79	1701.86
317.00	1703.91
317.21	1724.39
317.43	1748.97
317.64	1753.06
317.85	1701.86
318.07	1656.81
318.28	1693.67
318.49	1804.26
318.70	1910.75
318.92	1873.89
319.13	1783.78
319.34	1767.40
319.56	1843.17
319.77	1820.64
319.98	1798.12
320.20	1779.68
320.41	1787.88
320.62	1800.16
320.83	1624.04
321.05	1875.94
321.26	1689.57
321.47	1748.97
321.69	1781.73
321.90	1681.38
322.11	1675.24
322.32	1771.49
322.54	1826.79
322.75	1642.47
322.96	1789.92
323.18	1646.57
323.39	1609.70
323.60	1761.25
323.81	1777.64
324.03	1679.33
324.24	1708.01
324.45	1755.11
324.66	1687.53
324.88	1740.77
325.09	1755.11
325.30	1751.01
325.52	1769.44
325.73	1673.19
325.94	1634.28
326.15	1591.27
326.37	1632.23
326.58	1757.16
326.79	1804.26
327.00	1699.81
327.22	1761.25
327.43	1677.29
327.64	1675.24
327.85	1703.91
328.07	1746.92
328.28	1867.75
328.49	1619.94
328.70	1701.86
328.92	1800.16
329.13	1681.38
329.34	1730.53
329.55	1826.79
329.76	1748.97
329.98	1705.96
330.19	1853.41
330.40	1705.96
330.61	1687.53
330.83	1771.49
331.04	1722.34
331.25	1683.43
331.46	1708.01
331.68	1619.94
331.89	1810.40
332.10	1722.34
332.31	1634.28
332.52	1697.77
332.74	1798.12
332.95	1665.00
333.16	1658.85
333.37	1787.88
333.58	1611.75
333.80	1738.73
334.01	1619.94
334.22	1667.05
334.43	1644.52
334.64	1677.29
334.86	1710.05
335.07	1736.68
335.28	1798.12
335.49	1611.75
335.70	1779.68
335.92	1773.54
336.13	1861.60
336.34	1806.31
336.55	1767.40
336.76	1685.48
336.98	1611.75
337.19	1724.39
337.40	1845.22
337.61	1816.55
337.82	1617.90
338.04	1746.92
338.25	1683.43
338.46	1681.38
338.67	1708.01
338.88	1701.86
339.09	1656.81
339.31	1611.75
339.52	1656.81
339.73	1742.82
339.94	1640.42
340.15	1757.16
340.36	1787.88
340.58	1787.88
340.79	1665.00
341.00	1753.06
341.21	1656.81
341.42	1824.74
341.63	1697.77
341.85	1798.12
342.06	1748.97
342.27	1683.43
342.48	1765.35
342.69	1613.80
342.90	1777.64
343.12	1736.68
343.33	1675.24
343.54	1777.64
343.75	1761.25
343.96	1710.05
344.17	1726.44
344.38	1724.39
344.60	1660.90
344.81	1708.01
345.02	1791.97
345.23	1773.54
345.44	1886.18
345.65	1755.11
345.86	1785.83
346.07	1738.73
346.29	1732.58
346.50	1783.78
346.71	1693.67
346.92	1839.08
347.13	1834.98
347.34	1718.25
347.55	1767.40
347.76	1775.59
347.98	1646.57
348.19	1660.90
348.40	1763.30
348.61	1736.68
348.82	1851.36
349.03	1742.82
349.24	1626.09
349.45	1896.42
349.66	1693.67
349.88	1779.68
350.09	1642.47
350.30	1763.30
350.51	1804.26
350.72	1791.97
350.93	1751.01
351.14	1599.46
351.35	1744.87
351.56	1693.67
351.77	1710.05
351.99	1816.55
352.20	1812.45
352.41	1771.49
352.62	1642.47
352.83	1710.05
353.04	1656.81
353.25	1714.15
353.46	1710.05
353.67	1746.92
353.88	1667.05
354.09	1746.92
354.30	1751.01
354.52	1710.05
354.73	1732.58
354.94	1646.57
355.15	1708.01
355.36	1794.02
355.57	1679.33
355.78	1714.15
355.99	1701.86
356.20	1611.75
356.41	1728.49
356.62	1705.96
356.83	1783.78
357.04	1828.84
357.25	1619.94
357.46	1660.90
357.68	1574.89
357.89	1677.29
358.10	1658.85
358.31	1654.76
358.52	1726.44
358.73	1607.66
358.94	1619.94
359.15	1656.81
359.36	1705.96
359.57	1701.86
359.78	1703.91
359.99	1804.26
360.20	1611.75
360.41	1679.33
360.62	1775.59
360.83	1759.21
361.04	1697.77
361.25	1730.53
361.46	1865.70
361.67	1787.88
361.88	1763.30
362.09	1730.53
362.30	1720.29
362.51	1669.09
362.72	1716.20
362.93	1699.81
363.14	1722.34
363.35	1634.28
363.56	1660.90
363.78	1820.64
363.99	1832.93
364.20	1675.24
364.41	1730.53
364.62	1814.50
364.83	1718.25
365.04	1632.23
365.25	1693.67
365.46	1845.22
365.67	1701.86
365.88	1658.85
366.09	1628.14
366.30	1728.49
366.51	1656.81
366.72	1621.99
366.93	1732.58
367.14	1710.05
367.35	1789.92
367.56	1683.43
367.77	1773.54
367.98	1683.43
368.18	1675.24
368.39	1789.92
368.60	1640.42
368.81	1828.84
369.02	1763.30
369.23	1656.81
369.44	1658.85
369.65	1697.77
369.86	1761.25
370.07	1726.44
370.28	1648.61
370.49	1751.01
370.70	1728.49
370.91	1669.09
371.12	1726.44
371.33	1736.68
371.54	1695.72
371.75	1761.25
371.96	1583.08
372.17	1685.48
372.38	1636.33
372.59	1767.40
372.80	1757.16
373.01	1683.43
373.22	1722.34
373.43	1710.05
373.64	1701.86
373.85	1769.44
374.06	1798.12
374.26	1724.39
374.47	1763.30
374.68	1781.73
374.89	1732.58
375.10	1730.53
375.31	1746.92
375.52	1710.05
375.73	1705.96
375.94	1624.04
376.15	1742.82
376.36	1662.95
376.57	1636.33
376.78	1638.38
376.99	1738.73
377.20	1761.25
377.40	1687.53
377.61	1787.88
377.82	1646.57
378.03	1767.40
378.24	1746.92
378.45	1712.10
378.66	1732.58
378.87	1624.04
379.08	1669.09
379.29	1736.68
379.50	1765.35
379.71	1669.09
379.91	1794.02
380.12	1697.77
380.33	1681.38
380.54	1732.58
380.75	1665.00
380.96	1718.25
381.17	1816.55
381.38	1765.35
381.59	1742.82
381.80	1722.34
382.00	1814.50
382.21	1654.76
382.42	1818.60
382.63	1929.19
382.84	1710.05
383.05	1779.68
383.26	1826.79
383.47	1728.49
383.68	1796.07
383.88	1789.92
384.09	1689.57
384.30	1798.12
384.51	1796.07
384.72	1691.62
384.93	1667.05
385.14	1757.16
385.35	1783.78
385.55	1605.61
385.76	1732.58
385.97	1677.29
386.18	1687.53
386.39	1677.29
386.60	1761.25
386.81	1724.39
387.02	1693.67
387.22	1640.42
387.43	1771.49
387.64	1837.03
387.85	1910.75
388.06	2244.57
388.27	4280.25
388.48	6727.58
388.68	8107.91
388.89	9441.14
389.10	9674.60
389.31	8683.39
389.52	7550.86
389.73	6592.41
389.93	6350.75
390.14	5648.30
390.35	5150.64
390.56	4552.63
390.77	3770.31
390.98	3030.99
391.18	2594.78
391.39	2101.22
391.60	1859.56
391.81	1849.32
392.02	1738.73
392.23	1871.84
392.43	1767.40
392.64	1808.36
392.85	1755.11
393.06	1880.04
393.27	1671.14
393.47	1695.72
393.68	1773.54
393.89	1712.10
394.10	1771.49
394.31	1675.24
394.52	1648.61
394.72	1624.04
394.93	1867.75
395.14	1705.96
395.35	1789.92
395.56	1716.20
395.76	1744.87
395.97	1767.40
396.18	1808.36
396.39	1830.88
396.60	2007.01
396.80	1820.64
397.01	1886.18
397.22	1759.21
397.43	1935.33
397.64	1726.44
397.84	1888.23
398.05	1900.52
398.26	1714.15
398.47	1892.32
398.67	1824.74
398.88	1720.29
399.09	1738.73
399.30	1734.63
399.51	1697.77
399.71	1732.58
399.92	1734.63
400.13	1722.34
400.34	1685.48
400.54	1746.92
400.75	1794.02
400.96	1695.72
401.17	1812.45
401.37	1822.69
401.58	1794.02
401.79	1755.11
402.00	1859.56
402.21	2103.26
402.41	2015.20
402.62	2033.63
402.83	2068.45
403.04	2015.20
403.24	2101.22
403.45	1834.98
403.66	1920.99
403.87	1875.94
404.07	1910.75
404.28	1867.75
404.49	1900.52
404.70	1785.83
404.90	1767.40
405.11	1714.15
405.32	1761.25
405.52	1685.48
405.73	1679.33
405.94	1669.09
406.15	1703.91
406.35	1757.16
406.56	1753.06
406.77	1730.53
406.98	1763.30
407.18	1677.29
407.39	1808.36
407.60	1652.71
407.80	1781.73
408.01	1646.57
408.22	1712.10
408.43	1751.01
408.63	1705.96
408.84	1806.31
409.05	1732.58
409.25	1675.24
409.46	1751.01
409.67	1769.44
409.88	1652.71
410.08	1787.88
410.29	1658.85
410.50	1755.11
410.70	1732.58
410.91	1734.63
411.12	1753.06
411.32	1705.96
411.53	1722.34
411.74	1834.98
411.95	1789.92
412.15	1730.53
412.36	1787.88
412.57	1687.53
412.77	1773.54
412.98	1769.44
413.19	1685.48
413.39	1705.96
413.60	1769.44
413.81	1808.36
414.01	1691.62
414.22	1802.21
414.43	1849.32
414.63	1681.38
414.84	1765.35
415.05	1796.07
415.25	1644.52
415.46	1726.44
415.67	1695.72
415.87	1710.05
416.08	1675.24
416.29	1771.49
416.49	1669.09
416.70	1732.58
416.91	1791.97
417.11	1771.49
417.32	1718.25
417.53	1765.35
417.73	1783.78
417.94	1705.96
418.15	1691.62
418.35	1724.39
418.56	1759.21
418.77	1791.97
418.97	1693.67
419.18	1703.91
419.38	1714.15
419.59	1746.92
419.80	1794.02
420.00	1681.38
420.21	1761.25
420.42	1816.55
420.62	1820.64
420.83	1751.01
421.04	1689.57
421.24	1738.73
421.45	1742.82
421.65	1753.06
421.86	1697.77
422.07	1775.59
422.27	1765.35
422.48	1714.15
422.69	1724.39
422.89	1693.67
423.10	1705.96
423.30	1697.77
423.51	1722.34
423.72	1599.46
423.92	1775.59
424.13	1609.70
424.33	1810.40
424.54	1744.87
424.75	1742.82
424.95	1736.68
425.16	1798.12
425.36	1716.20
425.57	1796.07
425.78	1771.49
425.98	1777.64
426.19	1763.30
426.39	1689.57
426.60	1734.63
426.81	1804.26
427.01	1683.43
427.22	1736.68
427.42	1634.28
427.63	1691.62
427.83	1699.81
428.04	1800.16
428.25	1843.17
428.45	1828.84
428.66	1773.54
428.86	1669.09
429.07	1654.76
429.28	1689.57
429.48	1794.02
429.69	1681.38
429.89	1718.25
430.10	1738.73
430.30	1771.49
430.51	1806.31
430.71	1767.40
430.92	1683.43
431.13	1689.57
431.33	1726.44
431.54	1779.68
431.74	1890.28
431.95	1802.21
432.15	1695.72
432.36	1662.95
432.56	1787.88
432.77	1808.36
432.98	1800.16
433.18	1708.01
433.39	1689.57
433.59	1724.39
433.80	1888.23
434.00	1941.47
434.21	1703.91
434.41	1701.86
434.62	1839.08
434.82	1673.19
435.03	1677.29
435.23	1759.21
435.44	1681.38
435.64	1740.77
435.85	1691.62
436.06	1820.64
436.26	1755.11
436.47	1730.53
436.67	1665.00
436.88	1755.11
437.08	1781.73
437.29	1847.27
437.49	1738.73
437.70	1740.77
437.90	1697.77
438.11	1810.40
438.31	1826.79
438.52	1896.42
438.72	1806.31
438.93	1939.43
439.13	1765.35
439.34	1845.22
439.54	1718.25
439.75	1785.83
439.95	1755.11
440.16	1742.82
440.36	1730.53
440.57	1789.92
440.77	1828.84
440.98	1775.59
441.18	1730.53
441.39	1742.82
441.59	1751.01
441.80	1849.32
442.00	1720.29
442.21	1857.51
442.41	1691.62
442.62	1818.60
442.82	1646.57
443.02	1765.35
443.23	1757.16
443.43	1697.77
443.64	1859.56
443.84	1669.09
444.05	1812.45
444.25	1751.01
444.46	1761.25
444.66	1742.82
444.87	1765.35
445.07	1648.61
445.28	1824.74
445.48	1855.46
445.69	1748.97
445.89	1890.28
446.09	1791.97
446.30	2109.41
446.50	2590.68
446.71	3712.97
446.91	4339.65
447.12	4714.42
447.32	4818.87
447.53	4378.56
447.73	3794.89
447.93	3418.06
448.14	3356.62
448.34	3139.54
448.55	2856.92
448.75	2912.21
448.96	2719.70
449.16	2482.14
449.36	2240.48
449.57	2060.26
449.77	1869.80
449.98	1818.60
450.18	1761.25
450.39	1804.26
450.59	1798.12
450.79	1728.49
451.00	1777.64
451.20	1812.45
451.41	1755.11
451.61	1697.77
451.81	1716.20
452.02	1777.64
452.22	1673.19
452.43	1650.66
452.63	1798.12
452.84	1703.91
453.04	1753.06
453.24	1816.55
453.45	1722.34
453.65	1687.53
453.86	1816.55
454.06	1705.96
454.26	1806.31
454.47	1720.29
454.67	1791.97
454.87	1748.97
455.08	1685.48
455.28	1816.55
455.49	1822.69
455.69	1679.33
455.89	1849.32
456.10	1855.46
456.30	1705.96
456.51	1724.39
456.71	1814.50
456.91	1714.15
457.12	1771.49
457.32	1732.58
457.52	1675.24
457.73	1757.16
457.93	1722.34
458.14	1724.39
458.34	1656.81
458.54	1710.05
458.75	1730.53
458.95	1761.25
459.15	1748.97
459.36	1755.11
459.56	1753.06
459.76	1916.90
459.97	1746.92
460.17	1730.53
460.37	1863.65
460.58	1662.95
460.78	1802.21
460.99	1685.48
461.19	1724.39
461.39	1648.61
461.60	1724.39
461.80	1736.68
462.00	1648.61
462.21	1671.14
462.41	1632.23
462.61	1667.05
462.82	1593.32
463.02	1761.25
463.22	1685.48
463.43	1822.69
463.63	1716.20
463.83	1734.63
464.04	1748.97
464.24	1783.78
464.44	1710.05
464.64	1712.10
464.85	1802.21
465.05	1849.32
465.25	1665.00
465.46	1699.81
465.66	1757.16
465.86	1748.97
466.07	1755.11
466.27	1726.44
466.47	1691.62
466.68	1652.71
466.88	1791.97
467.08	1783.78
467.29	1716.20
467.49	1720.29
467.69	1675.24
467.89	1720.29
468.10	1740.77
468.30	1834.98
468.50	1771.49
468.71	1816.55
468.91	1669.09
469.11	1861.60
469.31	1826.79
469.52	1689.57
469.72	1814.50
469.92	1935.33
470.13	1771.49
470.33	1759.21
470.53	1806.31
470.73	2138.08
470.94	2238.43
471.14	2230.24
471.34	2527.19
471.54	2432.99
471.75	2164.70
471.95	2162.66
472.15	2076.64
472.36	2043.87
472.56	2084.83
472.76	2125.79
472.96	1927.14
473.17	1943.52
473.37	1949.67
473.57	1808.36
473.77	1812.45
473.98	1802.21
474.18	1636.33
474.38	1945.57
474.58	1734.63
474.79	1687.53
474.99	1742.82
475.19	1808.36
475.39	1812.45
475.60	1779.68
475.80	1724.39
476.00	1742.82
476.20	1775.59
476.41	1740.77
476.61	1828.84
476.81	1798.12
477.01	1673.19
477.21	1781.73
477.42	1863.65
477.62	1716.20
477.82	1804.26
478.02	1808.36
478.23	1818.60
478.43	1619.94
478.63	1695.72
478.83	1806.31
479.03	1683.43
479.24	1798.12
479.44	1859.56
479.64	1677.29
479.84	1636.33
480.04	1675.24
480.25	1701.86
480.45	1736.68
480.65	1720.29
480.85	1685.48
481.06	1685.48
481.26	1693.67
481.46	1759.21
481.66	1757.16
481.86	1679.33
482.06	1853.41
482.27	1699.81
482.47	1703.91
482.67	1708.01
482.87	1695.72
483.07	1824.74
483.28	1689.57
483.48	1640.42
483.68	1728.49
483.88	1730.53
484.08	1642.47
484.29	1691.62
484.49	1681.38
484.69	1693.67
484.89	1849.32
485.09	1837.03
485.29	1775.59
485.50	1777.64
485.70	1753.06
485.90	1767.40
486.10	1738.73
486.30	1738.73
486.50	1769.44
486.71	1781.73
486.91	1804.26
487.11	1767.40
487.31	1718.25
487.51	1783.78
487.71	1740.77
487.91	1732.58
488.12	1753.06
488.32	1609.70
488.52	1744.87
488.72	1578.98
488.92	1728.49
489.12	1705.96
489.32	1820.64
489.53	1765.35
489.73	1626.09
489.93	1798.12
490.13	1789.92
490.33	1624.04
490.53	1724.39
490.73	1820.64
490.94	1728.49
491.14	1845.22
491.34	1828.84
491.54	2093.02
491.74	2584.54
491.94	3028.95
492.14	2979.79
492.34	2942.93
492.54	2715.61
492.75	2500.57
492.95	2467.80
493.15	2295.77
493.35	2230.24
493.55	2234.33
493.75	2117.60
493.95	2150.37
494.15	2007.01
494.35	1923.04
494.56	1855.46
494.76	1761.25
494.96	1802.21
495.16	1787.88
495.36	1748.97
495.56	1730.53
495.76	1751.01
495.96	1740.77
496.16	1603.56
496.36	1845.22
496.56	1722.34
496.77	1791.97
496.97	1761.25
497.17	1800.16
497.37	1691.62
497.57	1800.16
497.77	1742.82
497.97	1708.01
498.17	1732.58
498.37	1732.58
498.57	1810.40
498.77	1763.30
498.97	1746.92
499.17	1785.83
499.38	1740.77
499.58	1738.73
499.78	1810.40
499.98	1832.93
500.18	1890.28
500.38	1781.73
500.58	1904.61
500.78	2547.67
500.98	4460.48
501.18	5879.72
501.38	6723.48
501.58	7085.97
501.78	6662.04
501.98	5566.38
502.18	4911.03
502.38	4550.59
502.58	4155.33
502.78	3844.04
502.98	3645.38
503.18	3424.20
503.38	3102.67
503.59	2838.48
503.79	2684.89
503.99	2467.80
504.19	2285.53
504.39	2172.89
504.59	2172.89
504.79	2205.66
504.99	2086.88
505.19	1884.13
505.39	1910.75
505.59	1970.15
505.79	1851.36
505.99	1896.42
506.19	1824.74
506.39	1890.28
506.59	1824.74
506.79	1804.26
506.99	1714.15
507.19	1744.87
507.39	1781.73
507.59	1740.77
507.79	1654.76
507.99	1730.53
508.19	1755.11
508.39	1718.25
508.59	1701.86
508.79	1855.46
508.99	1847.27
509.19	1716.20
509.39	1724.39
509.59	1736.68
509.79	1646.57
509.99	1837.03
510.19	1757.16
510.39	1800.16
510.59	1712.10
510.79	1632.23
510.99	1730.53
511.19	1755.11
511.39	1751.01
511.59	1789.92
511.79	1810.40
511.99	1744.87
512.19	1808.36
512.38	1744.87
512.58	1644.52
512.78	1701.86
512.98	1761.25
513.18	1816.55
513.38	1681.38
513.58	1816.55
513.78	1753.06
513.98	1712.10
514.18	1832.93
514.38	1658.85
514.58	1826.79
514.78	1689.57
514.98	1671.14
515.18	1730.53
515.38	1675.24
515.58	1843.17
515.78	1730.53
515.98	1779.68
516.18	1773.54
516.38	1773.54
516.57	1689.57
516.77	1687.53
516.97	1742.82
517.17	1665.00
517.37	1656.81
517.57	1806.31
517.77	1720.29
517.97	1716.20
518.17	1744.87
518.37	1710.05
518.57	1712.10
518.77	1734.63
518.97	1714.15
519.16	1765.35
519.36	1769.44
519.56	1681.38
519.76	1724.39
519.96	1632.23
520.16	1920.99
520.36	1699.81
520.56	1894.37
520.76	1724.39
520.96	1726.44
521.16	1759.21
521.35	1773.54
521.55	1841.12
521.75	1767.40
521.95	1697.77
522.15	1720.29
522.35	1609.70
522.55	1714.15
522.75	1761.25
522.95	1744.87
523.14	1656.81
523.34	1732.58
523.54	1738.73
523.74	1796.07
523.94	1804.26
524.14	1585.13
524.34	1726.44
524.54	1701.86
524.73	1748.97
524.93	1759.21
525.13	1763.30
525.33	1736.68
525.53	1869.80
525.73	1783.78
525.93	1779.68
526.13	1710.05
526.32	1785.83
526.52	1839.08
526.72	1796.07
526.92	1701.86
527.12	1708.01
527.32	1705.96
527.52	1804.26
527.71	1806.31
527.91	1726.44
528.11	1695.72
528.31	1726.44
528.51	1683.43
528.71	1740.77
528.90	1820.64
529.10	1779.68
529.30	1847.27
529.50	1634.28
529.70	1744.87
529.90	1742.82
530.09	1636.33
530.29	1665.00
530.49	1771.49
530.69	1900.52
530.89	1751.01
531.09	1794.02
531.28	1677.29
531.48	1802.21
531.68	1755.11
531.88	1705.96
532.08	1849.32
532.28	1679.33
532.47	1753.06
532.67	1834.98
532.87	1761.25
533.07	1650.66
533.27	1789.92
533.46	1806.31
533.66	1773.54
533.86	1761.25
534.06	1708.01
534.26	1710.05
534.45	1781.73
534.65	1716.20
534.85	1796.07
535.05	1714.15
535.25	1861.60
535.44	1669.09
535.64	1800.16
535.84	1751.01
536.04	1771.49
536.24	1689.57
536.43	1705.96
536.63	1726.44
536.83	1757.16
537.03	1746.92
537.22	1689.57
537.42	1732.58
537.62	1757.16
537.82	1673.19
538.02	1839.08
538.21	1814.50
538.41	1918.95
538.61	1718.25
538.81	1736.68
539.00	1808.36
539.20	1677.29
539.40	1650.66
539.60	1748.97
539.79	1763.30
539.99	1724.39
540.19	1687.53
540.39	1728.49
540.58	1757.16
540.78	1810.40
540.98	1779.68
541.18	1763.30
541.37	1828.84
541.57	1730.53
541.77	1791.97
541.97	1710.05
542.16	1644.52
542.36	1726.44
542.56	1812.45
542.76	1925.09
542.95	1849.32
543.15	1767.40
543.35	1742.82
543.54	1734.63
543.74	1734.63
543.94	1820.64
544.14	1761.25
544.33	1769.44
544.53	1748.97
544.73	1781.73
544.93	1726.44
545.12	1740.77
545.32	1714.15
545.52	1738.73
545.71	1708.01
545.91	1638.38
546.11	1738.73
546.30	1669.09
546.50	1685.48
546.70	1753.06
546.90	1665.00
547.09	1652.71
547.29	1773.54
547.49	1763.30
547.68	1748.97
547.88	1738.73
548.08	1748.97
548.27	2222.05
548.47	1699.81
548.67	1714.15
548.87	1763.30
549.06	1726.44
549.26	1787.88
549.46	1779.68
549.65	1757.16
549.85	1767.40
550.05	1798.12
550.24	1685.48
550.44	1751.01
550.64	1705.96
550.83	1710.05
551.03	1777.64
551.23	1822.69
551.42	1740.77
551.62	1703.91
551.82	1753.06
552.01	1738.73
552.21	1755.11
552.41	1759.21
552.60	1853.41
552.80	1751.01
553.00	1726.44
553.19	1708.01
553.39	1814.50
553.59	1699.81
553.78	1763.30
553.98	1783.78
554.17	1769.44
554.37	1814.50
554.57	1791.97
554.76	1738.73
554.96	1689.57
555.16	1769.44
555.35	1738.73
555.55	1779.68
555.75	1773.54
555.94	1785.83
556.14	1660.90
556.33	1761.25
556.53	1738.73
556.73	1718.25
556.92	1841.12
557.12	1851.36
557.32	1873.89
557.51	1863.65
557.71	1804.26
557.90	1849.32
558.10	1820.64
558.30	1777.64
558.49	1765.35
558.69	1738.73
558.88	1724.39
559.08	1726.44
559.28	1720.29
559.47	1732.58
559.67	1753.06
559.86	1849.32
560.06	1720.29
560.26	1783.78
560.45	1705.96
560.65	1800.16
560.84	1839.08
561.04	1703.91
561.24	1740.77
561.43	1787.88
561.63	1785.83
561.82	1779.68
562.02	1734.63
562.22	1732.58
562.41	1751.01
562.61	1728.49
562.80	1701.86
563.00	1859.56
563.19	1808.36
563.39	1804.26
563.59	1683.43
563.78	1705.96
563.98	1632.23
564.17	1722.34
564.37	1652.71
564.56	1859.56
564.76	1720.29
564.96	1884.13
565.15	1849.32
565.35	1830.88
565.54	1667.05
565.74	1751.01
565.93	1789.92
566.13	1732.58
566.32	1701.86
566.52	1816.55
566.71	1755.11
566.91	1765.35
567.11	1767.40
567.30	1730.53
567.50	1800.16
567.69	1677.29
567.89	1773.54
568.08	1761.25
568.28	1771.49
568.47	1695.72
568.67	1734.63
568.86	1708.01
569.06	1806.31
569.25	1714.15
569.45	1638.38
569.64	1708.01
569.84	1689.57
570.04	1800.16
570.23	1751.01
570.43	1699.81
570.62	1751.01
570.82	1800.16
571.01	1593.32
571.21	1703.91
571.40	1685.48
571.60	1855.46
571.79	1763.30
571.99	1787.88
572.18	1617.90
572.38	1732.58
572.57	1701.86
572.77	1808.36
572.96	1908.71
573.16	1722.34
573.35	1783.78
573.55	1871.84
573.74	1759.21
573.94	1697.77
574.13	1734.63
574.33	1839.08
574.52	1882.08
574.71	1740.77
574.91	1728.49
575.10	1576.94
575.30	1714.15
575.49	1753.06
575.69	1681.38
575.88	1765.35
576.08	1798.12
576.27	1800.16
576.47	1763.30
576.66	1802.21
576.86	1859.56
577.05	1773.54
577.25	1779.68
577.44	1822.69
577.64	1736.68
577.83	1828.84
578.02	1736.68
578.22	1796.07
578.41	1849.32
578.61	1841.12
578.80	1691.62
579.00	1802.21
579.19	1695.72
579.39	1773.54
579.58	1853.41
579.77	1767.40
579.97	1832.93
580.16	1816.55
580.36	1847.27
580.55	1746.92
580.75	1826.79
580.94	1738.73
581.13	1834.98
581.33	1937.38
581.52	1738.73
581.72	1843.17
581.91	1783.78
582.11	1765.35
582.30	1812.45
582.49	1798.12
582.69	1851.36
582.88	1798.12
583.08	1744.87
583.27	1787.88
583.47	1722.34
583.66	1755.11
583.85	1732.58
584.05	1742.82
584.24	1761.25
584.44	1806.31
584.63	1794.02
584.82	1882.08
585.02	1841.12
585.21	1804.26
585.41	1851.36
585.60	1855.46
585.79	1892.32
585.99	1906.66
586.18	1861.60
586.37	2246.62
586.57	3360.72
586.76	9772.91
586.96	24161.94
587.15	34248.18
587.34	40045.98
587.54	41688.45
587.73	36478.42
587.93	25734.78
588.12	21245.63
588.31	18081.52
588.51	16029.45
588.70	15169.30
588.89	14018.35
589.09	12693.31
589.28	11050.84
589.47	9342.83
589.67	7960.45
589.86	6281.12
590.06	4784.06
590.25	3872.71
590.44	3055.57
590.64	2578.39
590.83	2279.39
591.02	2029.54
591.22	1959.91
591.41	1896.42
591.60	1857.51
591.80	1976.29
591.99	1746.92
592.18	1789.92
592.38	1849.32
592.57	1773.54
592.76	1775.59
592.96	1789.92
593.15	1783.78
593.34	1818.60
593.54	1773.54
593.73	1820.64
593.92	1869.80
594.12	1769.44
594.31	1705.96
594.50	1816.55
594.70	1769.44
594.89	1882.08
595.08	1648.61
595.28	1806.31
595.47	1994.72
595.66	1773.54
595.86	1751.01
596.05	1695.72
596.24	1724.39
596.43	1886.18
596.63	1816.55
596.82	1787.88
597.01	1753.06
597.21	1828.84
597.40	1753.06
597.59	1683.43
597.79	1781.73
597.98	1796.07
598.17	1816.55
598.36	1800.16
598.56	1779.68
598.75	1716.20
598.94	1820.64
599.14	1761.25
599.33	1742.82
599.52	1718.25
599.71	1789.92
599.91	1886.18
600.10	1798.12
600.29	1695.72
600.48	1800.16
600.68	1757.16
600.87	1722.34
601.06	1781.73
601.26	1785.83
601.45	1806.31
601.64	1736.68
601.83	1771.49
602.03	1712.10
602.22	1703.91
602.41	1775.59
602.60	1820.64
602.80	1761.25
602.99	1732.58
603.18	1654.76
603.37	1714.15
603.57	1781.73
603.76	1773.54
603.95	1890.28
604.14	1763.30
604.34	1755.11
604.53	1757.16
604.72	1773.54
604.91	1744.87
605.10	1843.17
605.30	1703.91
605.49	1955.81
605.68	1798.12
605.87	1798.12
606.07	1771.49
606.26	1736.68
606.45	1775.59
606.64	1765.35
606.84	1742.82
607.03	1728.49
607.22	1775.59
607.41	1701.86
607.60	1710.05
607.80	1779.68
607.99	1746.92
608.18	1771.49
608.37	1763.30
608.56	1757.16
608.76	1791.97
608.95	1849.32
609.14	1820.64
609.33	1742.82
609.52	1746.92
609.72	1757.16
609.91	1703.91
610.10	1716.20
610.29	1742.82
610.48	1771.49
610.68	1730.53
610.87	1810.40
611.06	1757.16
611.25	1691.62
611.44	1828.84
611.63	1701.86
611.83	1888.23
612.02	1687.53
612.21	1789.92
612.40	1587.18
612.59	1660.90
612.79	1632.23
612.98	1742.82
613.17	1851.36
613.36	1736.68
613.55	1898.47
613.74	1744.87
613.93	1605.61
614.13	1693.67
614.32	1789.92
614.51	1828.84
614.70	1734.63
614.89	1710.05
615.08	1808.36
615.28	2103.26
615.47	1642.47
615.66	1818.60
615.85	1755.11
616.04	1837.03
616.23	1693.67
616.42	1753.06
616.62	1773.54
616.81	1779.68
617.00	1763.30
617.19	1845.22
617.38	1722.34
617.57	1802.21
617.76	1814.50
617.95	1730.53
618.15	1742.82
618.34	1802.21
618.53	1705.96
618.72	1705.96
618.91	1849.32
619.10	1900.52
619.29	1624.04
619.48	1691.62
619.68	1687.53
619.87	1783.78
620.06	1685.48
620.25	1767.40
620.44	1712.10
620.63	1773.54
620.82	1775.59
621.01	1677.29
621.20	1767.40
621.39	1689.57
621.59	1789.92
621.78	1722.34
621.97	1691.62
622.16	1785.83
622.35	1722.34
622.54	1800.16
622.73	1800.16
622.92	1673.19
623.11	1804.26
623.30	1695.72
623.49	1730.53
623.68	1689.57
623.88	1767.40
624.07	1726.44
624.26	1753.06
624.45	1781.73
624.64	1691.62
624.83	1699.81
625.02	1665.00
625.21	1789.92
625.40	1705.96
625.59	1779.68
625.78	1730.53
625.97	1839.08
626.16	1642.47
626.35	1791.97
626.54	1679.33
626.74	1816.55
626.93	1671.14
627.12	1681.38
627.31	1834.98
627.50	1779.68
627.69	1763.30
627.88	1703.91
628.07	1697.77
628.26	1665.00
628.45	1724.39
628.64	1603.56
628.83	1789.92
629.02	1720.29
629.21	1732.58
629.40	1787.88
629.59	1585.13
629.78	1767.40
629.97	1753.06
630.16	1751.01
630.35	1712.10
630.54	1783.78
630.73	1644.52
630.92	1699.81
631.11	1619.94
631.30	1658.85
631.49	1800.16
631.68	1660.90
631.87	1771.49
632.06	1632.23
632.25	1873.89
632.44	1683.43
632.63	1701.86
632.82	1730.53
633.01	1753.06
633.20	1710.05
633.39	1693.67
633.58	1656.81
633.77	1712.10
633.96	1787.88
634.15	1744.87
634.34	1738.73
634.53	1822.69
634.72	1642.47
634.91	1695.72
635.10	1689.57
635.29	1740.77
635.48	1724.39
635.67	1685.48
635.86	1691.62
636.05	1812.45
636.24	1671.14
636.43	1738.73
636.62	1800.16
636.81	1619.94
637.00	1789.92
637.19	1777.64
637.38	1759.21
637.57	1636.33
637.76	1746.92
637.95	1773.54
638.14	1730.53
638.33	1730.53
638.52	1798.12
638.71	1683.43
638.89	1658.85
639.08	1937.38
639.27	1779.68
639.46	1753.06
639.65	1806.31
639.84	1734.63
640.03	1773.54
640.22	1708.01
640.41	1861.60
640.60	1673.19
640.79	1720.29
640.98	1650.66
641.17	1785.83
641.36	1734.63
641.55	1714.15
641.74	1697.77
641.92	1681.38
642.11	1638.38
642.30	1791.97
642.49	1667.05
642.68	1701.86
642.87	1763.30
643.06	1712.10
643.25	1744.87
643.44	1697.77
643.63	1701.86
643.82	1763.30
644.00	1671.14
644.19	1681.38
644.38	1603.56
644.57	1726.44
644.76	1740.77
644.95	1714.15
645.14	1714.15
645.33	1734.63
645.52	1665.00
645.71	1703.91
645.89	1665.00
646.08	1708.01
646.27	1699.81
646.46	1880.04
646.65	1593.32
646.84	1761.25
647.03	1746.92
647.22	1742.82
647.40	1703.91
647.59	1609.70
647.78	1611.75
647.97	1771.49
648.16	1689.57
648.35	1775.59
648.54	1769.44
648.73	1677.29
648.91	1718.25
649.10	1779.68
649.29	1677.29
649.48	1761.25
649.67	1705.96
649.86	1691.62
650.05	1660.90
650.23	1785.83
650.42	1697.77
650.61	1771.49
650.80	1708.01
650.99	1800.16
651.18	1800.16
651.36	1773.54
651.55	1785.83
651.74	1738.73
651.93	1693.67
652.12	1705.96
652.31	1722.34
652.49	1705.96
652.68	1746.92
652.87	1791.97
653.06	1673.19
653.25	1861.60
653.44	1718.25
653.62	1796.07
653.81	1800.16
654.00	1714.15
654.19	1814.50
654.38	1843.17
654.56	1693.67
654.75	1718.25
654.94	1785.83
655.13	1798.12
655.32	1738.73
655.51	1746.92
655.69	1677.29
655.88	1796.07
656.07	1595.37
656.26	1839.08
656.45	1712.10
656.63	1689.57
656.82	1716.20
657.01	1777.64
657.20	1683.43
657.38	1794.02
657.57	1730.53
657.76	1609.70
657.95	1771.49
658.14	1708.01
658.32	1697.77
658.51	1648.61
658.70	1779.68
658.89	1691.62
659.08	1732.58
659.26	1771.49
659.45	1648.61
659.64	1769.44
659.83	1658.85
660.01	1927.14
660.20	1761.25
660.39	1755.11
660.58	1591.27
660.76	1820.64
660.95	1648.61
661.14	1771.49
661.33	1708.01
661.51	1675.24
661.70	1705.96
661.89	1791.97
662.08	1683.43
662.26	1757.16
662.45	1654.76
662.64	1851.36
662.83	1826.79
663.01	1652.71
663.20	1712.10
663.39	1763.30
663.58	1728.49
663.76	1726.44
663.95	1812.45
664.14	1691.62
664.32	1708.01
664.51	1728.49
664.70	1611.75
664.89	1730.53
665.07	1619.94
665.26	1804.26
665.45	1691.62
665.64	1755.11
665.82	1753.06
666.01	1828.84
666.20	1714.15
666.38	1882.08
666.57	1837.03
666.76	2185.18
666.95	4532.15
667.13	10501.98
667.32	15150.87
667.51	17829.62
667.69	18951.90
667.88	17501.94
668.07	12279.62
668.25	9527.15
668.44	7939.97
668.63	7278.48
668.81	6768.54
669.00	6031.27
669.19	5642.15
669.38	4962.23
669.56	4536.25
669.75	3938.24
669.94	3358.67
670.12	2881.49
670.31	2582.49
670.50	2267.10
670.68	2052.06
670.87	1935.33
671.06	1744.87
671.24	1779.68
671.43	1888.23
671.62	1732.58
671.80	1783.78
671.99	1798.12
672.18	1736.68
672.36	1779.68
672.55	1746.92
672.74	1705.96
672.92	1710.05
673.11	1789.92
673.29	1708.01
673.48	1679.33
673.67	1728.49
673.85	1812.45
674.04	1646.57
674.23	1708.01
674.41	1742.82
674.60	1689.57
674.79	1601.51
674.97	1656.81
675.16	1718.25
675.34	1769.44
675.53	1624.04
675.72	1775.59
675.90	1802.21
676.09	1701.86
676.28	1751.01
676.46	1662.95
676.65	1755.11
676.83	1796.07
677.02	1824.74
677.21	1789.92
677.39	1718.25
677.58	1585.13
677.77	1732.58
677.95	1638.38
678.14	1705.96
678.32	1740.77
678.51	1628.14
678.70	1832.93
678.88	1736.68
679.07	1734.63
679.25	1701.86
679.44	1728.49
679.63	1628.14
679.81	1761.25
680.00	1742.82
680.18	1808.36
680.37	1814.50
680.55	1757.16
680.74	1619.94
680.93	1685.48
681.11	1724.39
681.30	1746.92
681.48	1679.33
681.67	1665.00
681.85	1667.05
682.04	1742.82
682.23	1753.06
682.41	1693.67
682.60	1718.25
682.78	1730.53
682.97	1687.53
683.15	1818.60
683.34	1718.25
683.53	1730.53
683.71	1685.48
683.90	1839.08
684.08	1804.26
684.27	1728.49
684.45	1738.73
684.64	1789.92
684.82	1650.66
685.01	1740.77
685.19	1736.68
685.38	1814.50
685.57	1710.05
685.75	1624.04
685.94	1710.05
686.12	1660.90
686.31	1720.29
686.49	1824.74
686.68	1591.27
686.86	1726.44
687.05	1738.73
687.23	1839.08
687.42	1714.15
687.60	1630.18
687.79	1720.29
687.97	1767.40
688.16	1759.21
688.34	1781.73
688.53	1578.98
688.71	1685.48
688.90	1755.11
689.08	1652.71
689.27	1669.09
689.45	1804.26
689.64	1736.68
689.82	1781.73
690.01	1779.68
690.19	1800.16
690.38	1679.33
690.56	1794.02
690.75	1712.10
690.93	1669.09
691.12	1691.62
691.30	1751.01
691.49	1710.05
691.67	1714.15
691.86	1877.99
692.04	1734.63
692.23	1705.96
692.41	1728.49
692.60	1882.08
692.78	1812.45
692.97	1769.44
693.15	1826.79
693.34	1794.02
693.52	1773.54
693.71	1667.05
693.89	1740.77
694.08	1675.24
694.26	1767.40
694.44	1744.87
694.63	1738.73
694.81	1669.09
695.00	1660.90
695.18	1787.88
695.37	1812.45
695.55	1718.25
695.74	1722.34
695.92	1718.25
696.10	1695.72
696.29	1658.85
696.47	1656.81
696.66	1589.22
696.84	1685.48
697.03	1636.33
697.21	1845.22
697.40	2277.34
697.58	1771.49
697.76	1587.18
697.95	1705.96
698.13	1669.09
698.32	1667.05
698.50	1697.77
698.68	1789.92
698.87	1701.86
699.05	1873.89
699.24	1746.92
699.42	1605.61
699.61	1765.35
699.79	1710.05
699.97	1816.55
700.16	1685.48
700.34	1585.13
700.53	1798.12
700.71	1800.16
700.89	1755.11
701.08	1734.63
701.26	1738.73
701.45	2043.87
701.63	1708.01
701.81	1718.25
702.00	1628.14
702.18	1763.30
702.37	1718.25
702.55	1712.10
702.73	1699.81
702.92	1726.44
703.10	1736.68
703.28	1689.57
703.47	1624.04
703.65	1808.36
703.84	1755.11
704.02	1695.72
704.20	1787.88
704.39	1736.68
704.57	1755.11
704.75	1755.11
704.94	1824.74
705.12	1665.00
705.30	1789.92
705.49	2314.20
705.67	4401.08
705.86	9244.53
706.04	12414.79
706.22	14206.76
706.41	15300.37
706.59	13473.59
706.77	9590.64
706.96	7212.95
707.14	6627.23
707.32	5832.62
707.51	5504.94
707.69	4868.02
707.87	4114.37
708.06	3504.07
708.24	2865.11
708.42	2400.22
708.61	2238.43
708.79	1939.43
708.97	1927.14
709.16	1914.85
709.34	1742.82
709.52	1763.30
709.71	1685.48
709.89	1787.88
710.07	1759.21
710.26	1726.44
710.44	1769.44
710.62	1759.21
710.80	1701.86
710.99	1810.40
711.17	1734.63
711.35	1714.15
711.54	1708.01
711.72	1767.40
711.90	1828.84
712.09	1759.21
712.27	1714.15
712.45	1789.92
712.63	1718.25
712.82	1724.39
713.00	1671.14
713.18	1773.54
713.37	1757.16
713.55	1767.40
713.73	1751.01
713.91	1748.97
714.10	1708.01
714.28	1785.83
714.46	1685.48
714.65	1765.35
714.83	1765.35
715.01	1761.25
715.19	1746.92
715.38	1703.91
715.56	1775.59
715.74	1654.76
715.92	1705.96
716.11	1808.36
716.29	1624.04
716.47	1605.61
716.65	1648.61
716.84	1581.03
717.02	1855.46
717.20	1654.76
717.38	1785.83
717.57	1734.63
717.75	1708.01
717.93	1650.66
718.11	1746.92
718.30	1642.47
718.48	1800.16
718.66	1728.49
718.84	1689.57
719.03	1697.77
719.21	1585.13
719.39	1808.36
719.57	1816.55
719.75	1775.59
719.94	1671.14
720.12	1718.25
720.30	1738.73
720.48	1771.49
720.67	1742.82
720.85	1712.10
721.03	1681.38
721.21	1683.43
721.39	1826.79
721.58	1761.25
721.76	1701.86
721.94	1785.83
722.12	1703.91
722.30	1859.56
722.49	1699.81
722.67	1744.87
722.85	1771.49
723.03	1658.85
723.21	1679.33
723.40	1677.29
723.58	1781.73
723.76	1734.63
723.94	1777.64
724.12	1775.59
724.30	1820.64
724.49	1732.58
724.67	1685.48
724.85	1705.96
725.03	1650.66
725.21	1728.49
725.40	1695.72
725.58	1673.19
725.76	1761.25
725.94	1693.67
726.12	1642.47
726.30	1648.61
726.49	1697.77
726.67	1669.09
726.85	1806.31
727.03	1841.12
727.21	2191.33
727.39	2924.50
727.57	3798.98
727.76	4145.09
727.94	4421.56
728.12	4288.45
728.30	3704.78
728.48	3024.85
728.66	2760.66
728.84	2469.85
729.03	2308.06
729.21	2203.61
729.39	1980.39
729.57	1818.60
729.75	1851.36
729.93	1837.03
730.11	1777.64
730.30	1710.05
730.48	1679.33
730.66	1804.26
730.84	1769.44
731.02	1691.62
731.20	1740.77
731.38	1701.86
731.56	1605.61
731.74	1660.90
731.93	1693.67
732.11	1787.88
732.29	1677.29
732.47	1806.31
732.65	1716.20
732.83	1765.35
733.01	1714.15
733.19	1708.01
733.37	1701.86
733.56	1730.53
733.74	1673.19
733.92	1798.12
734.10	1699.81
734.28	1738.73
734.46	1699.81
734.64	1656.81
734.82	1724.39
735.00	1669.09
735.18	1646.57
735.36	1705.96
735.54	1759.21
735.73	1695.72
735.91	1779.68
736.09	1730.53
736.27	1708.01
736.45	1726.44
736.63	1705.96
736.81	1705.96
736.99	1681.38
737.17	1744.87
737.35	1722.34
737.53	1740.77
737.71	1783.78
737.89	1771.49
738.07	1679.33
738.25	1689.57
738.43	1648.61
738.61	1738.73
738.80	1677.29
738.98	1619.94
739.16	1730.53
739.34	1703.91
739.52	1816.55
739.70	1673.19
739.88	1791.97
740.06	1783.78
740.24	1570.79
740.42	1775.59
740.60	1628.14
740.78	1748.97
740.96	1585.13
741.14	1714.15
741.32	1755.11
741.50	1611.75
741.68	1837.03
741.86	1767.40
742.04	1626.09
742.22	1632.23
742.40	1685.48
742.58	1697.77
742.76	1673.19
742.94	1697.77
743.12	1648.61
743.30	1660.90
743.48	1744.87
743.66	1662.95
743.84	1691.62
744.02	1730.53
744.20	1671.14
744.38	1673.19
744.56	1624.04
744.74	1843.17
744.92	1722.34
745.10	1769.44
745.28	1779.68
745.46	1841.12
745.64	1763.30
745.82	1820.64
746.00	1675.24
746.18	1796.07
746.36	1710.05
746.54	1710.05
746.72	1660.90
746.90	1619.94
747.08	1771.49
747.26	1701.86
747.44	1738.73
747.62	1701.86
747.80	1728.49
747.98	1765.35
748.15	1779.68
748.33	1830.88
748.51	1738.73
748.69	1744.87
748.87	1662.95
749.05	1742.82
749.23	1767.40
749.41	1796.07
749.59	1722.34
749.77	1816.55
749.95	1701.86
750.13	1660.90
750.31	1705.96
750.49	1685.48
750.67	1697.77
750.85	1794.02
751.03	1757.16
751.20	1785.83
751.38	1703.91
751.56	1687.53
751.74	1699.81
751.92	1742.82
752.10	1607.66
752.28	1781.73
752.46	1630.18
752.64	1673.19
752.82	1693.67
753.00	1740.77
753.18	1689.57
753.35	1736.68
753.53	1712.10
753.71	1716.20
753.89	1730.53
754.07	1753.06
754.25	1726.44
754.43	1703.91
754.61	1697.77
754.79	1701.86
754.97	1689.57
755.14	1804.26
755.32	1724.39
755.50	1787.88
755.68	1773.54
755.86	1695.72
756.04	1751.01
756.22	1675.24
756.40	1771.49
756.57	1781.73
756.75	1716.20
756.93	1818.60
757.11	1732.58
757.29	1679.33
757.47	1613.80
757.65	1669.09
757.82	1533.93
758.00	1603.56
758.18	1677.29
758.36	1679.33
758.54	1697.77
758.72	1589.22
758.90	1748.97
759.07	1677.29
759.25	1730.53
759.43	1718.25
759.61	1656.81
759.79	2224.09
759.97	1775.59
760.15	1697.77
760.32	1660.90
760.50	1730.53
760.68	1839.08
760.86	1640.42
761.04	1798.12
761.22	1751.01
761.39	1648.61
761.57	1751.01
761.75	1773.54
761.93	1808.36
762.11	1712.10
762.28	1771.49
762.46	1642.47
762.64	1705.96
762.82	1656.81
763.00	1812.45
763.18	1785.83
763.35	1712.10
763.53	1794.02
763.71	1710.05
763.89	1701.86
764.07	1681.38
764.24	1755.11
764.42	1804.26
764.60	1642.47
764.78	1697.77
764.96	1710.05
765.13	1710.05
765.31	1714.15
765.49	1781.73
765.67	1634.28
765.84	1644.52
766.02	1681.38
766.20	1605.61
766.38	1705.96
766.56	1812.45
766.73	1771.49
766.91	1671.14
767.09	1673.19
767.27	1791.97
767.44	1751.01
767.62	1800.16
767.80	1695.72
767.98	1681.38
768.15	1691.62
768.33	1722.34
768.51	1724.39
768.69	1701.86
768.87	1699.81
769.04	1724.39
769.22	1834.98
769.40	1832.93
769.58	1794.02
769.75	1730.53
769.93	1798.12
770.11	1660.90
770.28	1736.68
770.46	1714.15
770.64	1787.88
770.82	1656.81
770.99	1730.53
771.17	1734.63
771.35	1701.86
771.53	1722.34
771.70	1730.53
771.88	1736.68
772.06	1759.21
772.23	1644.52
772.41	1800.16
772.59	1701.86
772.77	1673.19
772.94	1697.77
773.12	1769.44
773.30	1728.49
773.47	1761.25
773.65	1738.73
773.83	1845.22
774.01	1748.97
774.18	1642.47
774.36	1644.52
774.54	1654.76
774.71	1677.29
774.89	1673.19
775.07	1742.82
775.24	1693.67
775.42	1660.90
775.60	1779.68
775.78	1609.70
775.95	1640.42
776.13	1642.47
776.31	1636.33
776.48	1710.05
776.66	1728.49
776.84	1671.14
777.01	1714.15
777.19	1630.18
777.37	1650.66
777.54	1722.34
777.72	1787.88
777.90	1689.57
778.07	1656.81
778.25	1912.80
778.43	1751.01
778.60	1726.44
778.78	1708.01
778.96	1753.06
779.13	1626.09
779.31	1777.64
779.49	1697.77
779.66	1679.33
779.84	1738.73
780.01	1705.96
780.19	1658.85
780.37	1843.17
780.54	1697.77
780.72	1712.10
780.90	1685.48
781.07	1710.05
781.25	1779.68
781.43	1748.97
781.60	1699.81
781.78	1886.18
781.95	1720.29
782.13	1697.77
782.31	1724.39
782.48	1601.51
782.66	1718.25
782.83	1841.12
783.01	1718.25
783.19	1796.07
783.36	1730.53
783.54	1683.43
783.72	1783.78
783.89	1632.23
784.07	1683.43
784.24	1791.97
784.42	1812.45
784.60	1783.78
784.77	1746.92
784.95	1660.90
785.12	1646.57
785.30	1710.05
785.47	1662.95
785.65	1675.24
785.83	1652.71
786.00	1705.96
786.18	1718.25
786.35	1630.18
786.53	1712.10
786.71	1767.40
786.88	1669.09
787.06	1730.53
787.23	1708.01
787.41	1693.67
787.58	1771.49
787.76	1607.66
787.94	1771.49
788.11	1775.59
788.29	1751.01
788.46	1703.91
788.64	1609.70
788.81	1714.15
788.99	1746.92
789.16	1667.05
789.34	1658.85
789.52	1640.42
789.69	1738.73
789.87	1703.91
790.04	1673.19
790.22	1765.35
790.39	1832.93
790.57	1699.81
790.74	1740.77
790.92	1689.57
791.09	1660.90
791.27	1771.49
791.44	1832.93
791.62	1691.62
791.79	1783.78
791.97	1654.76
792.15	1894.37
792.32	1757.16
792.50	1857.51
792.67	1851.36
792.85	1804.26
793.02	1726.44
793.20	1619.94
793.37	1642.47
793.55	1710.05
793.72	1564.65
793.90	1810.40
794.07	1673.19
794.25	1591.27
794.42	1701.86
794.60	1767.40
794.77	1691.62
794.95	1746.92
795.12	1785.83
795.30	1699.81
795.47	1587.18
795.65	1916.90
795.82	1736.68
796.00	1810.40
796.17	1755.11
796.34	1675.24
796.52	1736.68
796.69	1800.16
796.87	1843.17
797.04	1652.71
797.22	1769.44
797.39	1755.11
797.57	1849.32
797.74	1615.85
797.92	1710.05
798.09	1689.57
798.27	1812.45
798.44	1775.59
798.62	1671.14
798.79	1720.29
798.96	1775.59
799.14	1767.40
799.31	1859.56
799.49	1779.68
799.66	1677.29
799.84	1785.83
800.01	1658.85
800.19	1742.82
800.36	1640.42
800.53	1777.64
800.71	1769.44
800.88	1822.69
801.06	1751.01
801.23	1660.90
801.41	1726.44
801.58	1701.86
801.75	1726.44
801.93	1767.40
802.10	1751.01
802.28	1705.96
802.45	1718.25
802.63	1740.77
802.80	1837.03
802.97	1687.53
803.15	1691.62
803.32	1718.25
803.50	1654.76
803.67	1656.81
803.84	1650.66
804.02	1765.35
804.19	1710.05
804.37	1611.75
804.54	1722.34
804.71	1662.95
804.89	1718.25
805.06	1681.38
805.24	1636.33
805.41	1667.05
805.58	1748.97
805.76	1867.75
805.93	1669.09
806.10	1888.23
806.28	1783.78
806.45	1667.05
806.63	1744.87
806.80	1675.24
806.97	1703.91
807.15	1728.49
807.32	1626.09
807.49	1732.58
807.67	1619.94
807.84	1757.16
808.01	1648.61
808.19	1830.88
808.36	1789.92
808.54	1701.86
808.71	1669.09
808.88	1757.16
809.06	1699.81
809.23	1839.08
809.40	1689.57
809.58	1800.16
809.75	1802.21
809.92	1691.62
810.10	1906.66
810.27	1648.61
810.44	1738.73
810.62	1767.40
810.79	1751.01
810.96	1646.57
811.14	1718.25
811.31	1687.53
811.48	1734.63
811.66	1697.77
811.83	1777.64
812.00	1763.30
812.18	1779.68
812.35	1783.78
812.52	1665.00
812.69	1720.29
812.87	1687.53
813.04	1687.53
813.21	1728.49
813.39	1681.38
813.56	1644.52
813.73	1748.97
813.91	1681.38
814.08	1761.25
814.25	1800.16
814.42	1632.23
814.60	1681.38
814.77	1753.06
814.94	1683.43
815.12	1714.15
815.29	1732.58
815.46	1695.72
815.63	1724.39
815.81	1773.54
815.98	1742.82
816.15	1726.44
816.33	1720.29
816.50	1656.81
816.67	1662.95
816.84	1748.97
817.02	1720.29
817.19	1720.29
817.36	1755.11
817.53	1705.96
817.71	1648.61
817.88	1724.39
818.05	1746.92
818.22	1667.05
818.40	1763.30
818.57	1718.25
818.74	1746.92
818.91	1658.85
819.09	1742.82
819.26	1794.02
819.43	1714.15
819.60	1601.51
819.78	1732.58
819.95	1738.73
820.12	1642.47
820.29	1808.36
820.47	1722.34
820.64	1656.81
820.81	1728.49
820.98	1683.43
821.15	1675.24
821.33	1837.03
821.50	1648.61
821.67	1744.87
821.84	1697.77
822.02	1722.34
822.19	1753.06
822.36	1673.19
822.53	1742.82
822.70	1712.10
822.88	1728.49
823.05	1830.88
823.22	1665.00
823.39	1730.53
823.56	1691.62
823.74	1763.30
823.91	1646.57
824.08	1701.86
824.25	1564.65
824.42	1853.41
824.60	1652.71
824.77	1742.82
824.94	1687.53
825.11	1679.33
825.28	1611.75
825.45	1712.10
825.63	1705.96
825.80	1599.46
825.97	1742.82
826.14	1705.96
826.31	1734.63
826.48	1796.07
826.66	1683.43
826.83	1644.52
827.00	1728.49
827.17	1679.33
827.34	1669.09
827.51	1597.42
827.69	1671.14
827.86	1605.61
828.03	1705.96
828.20	1679.33
828.37	1724.39
828.54	1771.49
828.71	1789.92
828.89	1826.79
829.06	1691.62
829.23	1837.03
829.40	1751.01
829.57	1724.39
829.74	1781.73
829.91	1677.29
830.09	1615.85
830.26	1796.07
830.43	1847.27
830.60	1687.53
830.77	1718.25
830.94	1845.22
831.11	1777.64
831.28	1634.28
831.46	1738.73
831.63	1677.29
831.80	1800.16
831.97	1677.29
832.14	1636.33
832.31	1779.68
832.48	1716.20
832.65	1808.36
832.82	1751.01
832.99	1660.90
833.17	1658.85
833.34	1773.54
833.51	1775.59
833.68	1599.46
833.85	1742.82
834.02	1703.91
834.19	1662.95
834.36	1734.63
834.53	1716.20
834.70	1755.11
834.87	1755.11
835.04	1697.77
835.22	1656.81
835.39	1681.38
835.56	1695.72
835.73	1673.19
835.90	1767.40
836.07	1638.38
836.24	1656.81
836.41	1634.28
836.58	1658.85
836.75	1798.12
836.92	1744.87
837.09	1609.70
837.26	1798.12
837.43	1771.49
837.60	1712.10
837.77	1665.00
837.94	1742.82
838.12	1824.74
838.29	1771.49
838.46	1644.52
838.63	1662.95
838.80	1828.84
838.97	1771.49
839.14	1755.11
839.31	1714.15
839.48	1820.64
839.65	1708.01
839.82	1759.21
839.99	1734.63
840.16	1722.34
840.33	1681.38
840.50	1720.29
840.67	1681.38
840.84	1646.57
841.01	1722.34
841.18	1642.47
841.35	1691.62
841.52	1779.68
841.69	1828.84
841.86	1615.85
842.03	1718.25
842.20	1810.40
842.37	1722.34
842.54	1650.66
842.71	1726.44
842.88	1691.62
843.05	1685.48
843.22	1656.81
843.39	1695.72
843.56	1665.00
843.73	1656.81
843.90	1718.25
844.07	1734.63
844.24	1755.11
844.41	1736.68
844.58	1720.29
844.75	1642.47
844.92	1794.02
845.09	1701.86
845.26	1679.33
845.43	1765.35
845.60	1722.34
845.77	1771.49
845.94	1763.30
846.10	1781.73
846.27	1716.20
846.44	1697.77
846.61	1648.61
846.78	1785.83
846.95	1775.59
847.12	1732.58
847.29	1673.19
847.46	1673.19
847.63	1773.54
847.80	1648.61
847.97	1636.33
848.14	1880.04
848.31	1662.95
848.48	1669.09
848.65	1695.72
848.82	1689.57
848.98	1748.97
849.15	1755.11
849.32	1763.30
849.49	1789.92
849.66	1714.15
849.83	1800.16
850.00	1677.29
850.17	1751.01
850.34	1615.85
850.51	1605.61
850.68	1673.19
850.85	1802.21
851.01	1710.05
851.18	1720.29
851.35	1665.00
851.52	1769.44
851.69	1894.37
851.86	1589.22
852.03	1734.63
852.20	1802.21
852.37	1724.39
852.53	1624.04
852.70	1613.80
852.87	1724.39
853.04	1794.02
853.21	1765.35
853.38	1761.25
853.55	1812.45
853.72	1748.97
853.89	1652.71
854.05	1650.66
854.22	1591.27
854.39	1744.87
854.56	1763.30
854.73	1779.68
854.90	1732.58
855.07	1773.54
855.23	1705.96
855.40	1726.44
855.57	1607.66
855.74	1613.80
855.91	1810.40
856.08	1632.23
856.25	1642.47
856.41	1697.77
856.58	1673.19
856.75	1712.10
856.92	1671.14
857.09	1708.01
857.26	1689.57
857.42	1654.76
857.59	1773.54
857.76	1708.01
857.93	1789.92
858.10	1693.67
858.27	1624.04
858.43	1703.91
858.60	1679.33
858.77	1591.27
858.94	1718.25
859.11	1722.34
859.27	1656.81
859.44	1724.39
859.61	1845.22
859.78	1796.07
859.95	1619.94
860.12	1695.72
860.28	1841.12
860.45	1816.55
860.62	1718.25
860.79	1708.01
860.95	1665.00
861.12	1646.57
861.29	1708.01
861.46	1677.29
861.63	1650.66
861.79	1734.63
861.96	1603.56
862.13	1662.95
862.30	1710.05
862.47	1669.09
862.63	1644.52
862.80	1783.78
862.97	1781.73
863.14	1648.61
863.30	1667.05
863.47	1703.91
863.64	1767.40
863.81	1736.68
863.97	1634.28
864.14	1759.21
864.31	1722.34
864.48	1701.86
864.65	1705.96
864.81	1753.06
864.98	1734.63
865.15	1738.73
865.32	1775.59
865.48	1755.11
865.65	1804.26
865.82	1689.57
865.98	1732.58
866.15	1771.49
866.32	1658.85
866.49	1656.81
866.65	1855.46
866.82	1589.22
866.99	1773.54
867.16	1667.05
867.32	1681.38
867.49	1787.88
867.66	1673.19
867.83	1746.92
867.99	1603.56
868.16	1736.68
868.33	1714.15
868.49	1708.01
868.66	1734.63
868.83	1763.30
868.99	1714.15
869.16	1732.58
869.33	1724.39
869.50	1732.58
869.66	1660.90
869.83	1699.81
870.00	1685.48
870.16	1759.21
870.33	1705.96
870.50	1791.97
870.66	1722.34
870.83	1777.64
871.00	1685.48
871.17	1763.30
871.33	1777.64
871.50	1701.86
871.67	1671.14
871.83	1640.42
872.00	1804.26
872.17	1669.09
872.33	1804.26
872.50	1763.30
872.67	1683.43
872.83	1656.81
873.00	1703.91
873.17	1714.15
873.33	1708.01
873.50	1708.01
873.67	1570.79
873.83	1771.49
874.00	1679.33
874.16	1734.63
874.33	1701.86
874.50	1619.94
874.66	1671.14
874.83	1660.90
875.00	1785.83
875.16	1697.77
875.33	1777.64
875.50	1642.47
875.66	1736.68
875.83	1714.15
875.99	1732.58
876.16	1667.05
876.33	1656.81
876.49	1734.63
876.66	1675.24
876.83	1640.42
876.99	1677.29
877.16	1673.19
877.32	1679.33
877.49	1697.77
877.66	1710.05
877.82	1843.17
877.99	1724.39
878.15	1757.16
878.32	1695.72
878.49	1734.63
878.65	1708.01
878.82	1853.41
878.98	1697.77
879.15	1744.87
879.32	1800.16
879.48	1761.25
879.65	1646.57
879.81	1658.85
879.98	1667.05
880.15	1634.28
880.31	1798.12
880.48	1669.09
880.64	1736.68
880.81	1787.88
880.97	1734.63
881.14	1665.00
881.31	1699.81
881.47	1904.61
881.64	1662.95
881.80	1603.56
881.97	1787.88
882.13	1796.07
882.30	1685.48
882.47	1681.38
882.63	1671.14
882.80	1699.81
882.96	1652.71
883.13	1714.15
883.29	1650.66
883.46	1695.72
883.62	1818.60
883.79	1722.34
883.95	1791.97
884.12	1755.11
884.29	1742.82
884.45	1757.16
884.62	1763.30
884.78	1662.95
884.95	1814.50
885.11	1671.14
885.28	1685.48
885.44	1689.57
885.61	1748.97
885.77	1777.64
885.94	1738.73
886.10	1777.64
886.27	1716.20
886.43	1796.07
886.60	1753.06
886.76	1800.16
886.93	1675.24
887.09	1757.16
887.26	1632.23
887.42	1658.85
887.59	1810.40
887.75	1849.32
887.92	1767.40
888.08	1785.83
888.25	1837.03
888.41	1722.34
888.58	1669.09
888.74	1691.62
888.91	1628.14
>>>>>End Processed Spectral Data<<<<<
