SpectraSuite Data File
++++++++++++++++++++++++++++++++++++
Date: Mon Jun 06 13:33:57 CEST 2016
User: root
Dark Spectrum Present: No
Reference Spectrum Present: No
Number of Sampled Component Spectra: 1
Spectrometers: USB4C02835
Integration Time (usec): 100000 (USB4C02835)
Spectra Averaged: 1 (USB4C02835)
Boxcar Smoothing: 0 (USB4C02835)
Correct for Electrical Dark: No (USB4C02835)
Strobe/Lamp Enabled: No (USB4C02835)
Correct for Detector Non-linearity: No (USB4C02835)
Correct for Stray Light: No (USB4C02835)
Number of Pixels in Processed Spectrum: 3648
>>>>>Begin Processed Spectral Data<<<<<
177.47	1390.57
177.69	1390.57
177.91	1390.57
178.13	1523.69
178.36	1480.68
178.58	1650.66
178.80	1699.81
179.02	1626.09
179.24	1640.42
179.46	1650.66
179.68	1693.67
179.90	1708.01
180.13	1689.57
180.35	1665.00
180.57	1714.15
180.79	1751.01
181.01	1667.05
181.23	1714.15
181.45	1826.79
181.67	1693.67
181.90	1742.82
182.12	1638.38
182.34	1611.75
182.56	1714.15
182.78	1697.77
183.00	1669.09
183.22	1724.39
183.44	1556.46
183.66	1849.32
183.89	1771.49
184.11	1701.86
184.33	1695.72
184.55	1814.50
184.77	1669.09
184.99	1708.01
185.21	1624.04
185.43	1800.16
185.65	1679.33
185.87	1730.53
186.10	1863.65
186.32	1775.59
186.54	1742.82
186.76	1771.49
186.98	1789.92
187.20	1751.01
187.42	1767.40
187.64	1736.68
187.86	1695.72
188.08	1742.82
188.30	1728.49
188.52	1718.25
188.75	1654.76
188.97	1769.44
189.19	1722.34
189.41	1570.79
189.63	1783.78
189.85	1714.15
190.07	1683.43
190.29	1687.53
190.51	1742.82
190.73	1605.61
190.95	1753.06
191.17	1767.40
191.39	1652.71
191.61	1679.33
191.84	1673.19
192.06	1708.01
192.28	1624.04
192.50	1861.60
192.72	1728.49
192.94	1652.71
193.16	1802.21
193.38	1699.81
193.60	1601.51
193.82	1662.95
194.04	1730.53
194.26	1705.96
194.48	1724.39
194.70	1665.00
194.92	1554.41
195.14	1765.35
195.36	1648.61
195.58	1658.85
195.80	1675.24
196.02	1644.52
196.24	1708.01
196.46	1734.63
196.69	1667.05
196.91	1796.07
197.13	1658.85
197.35	1617.90
197.57	1712.10
197.79	1806.31
198.01	1701.86
198.23	1724.39
198.45	1808.36
198.67	1574.89
198.89	1724.39
199.11	1687.53
199.33	1630.18
199.55	1665.00
199.77	1648.61
199.99	1736.68
200.21	1675.24
200.43	1767.40
200.65	1632.23
200.87	1568.74
201.09	1654.76
201.31	1689.57
201.53	1714.15
201.75	1798.12
201.97	1765.35
202.19	1656.81
202.41	1726.44
202.63	1806.31
202.85	1746.92
203.07	1734.63
203.29	1679.33
203.51	1691.62
203.73	1689.57
203.95	1920.99
204.17	1687.53
204.39	1738.73
204.61	1648.61
204.83	1621.99
205.05	1734.63
205.27	1689.57
205.49	1779.68
205.71	1691.62
205.93	1619.94
206.15	1679.33
206.37	1812.45
206.59	1710.05
206.81	1611.75
207.03	1644.52
207.25	1648.61
207.47	1742.82
207.69	1718.25
207.91	1765.35
208.13	1714.15
208.34	1744.87
208.56	1675.24
208.78	1724.39
209.00	1701.86
209.22	1712.10
209.44	1699.81
209.66	1667.05
209.88	1656.81
210.10	1728.49
210.32	1748.97
210.54	1771.49
210.76	1732.58
210.98	1744.87
211.20	1595.37
211.42	1636.33
211.64	1779.68
211.86	1718.25
212.08	1712.10
212.30	1669.09
212.52	1720.29
212.74	1726.44
212.96	1695.72
213.17	1742.82
213.39	1695.72
213.61	1732.58
213.83	1703.91
214.05	1585.13
214.27	1695.72
214.49	1642.47
214.71	1779.68
214.93	1783.78
215.15	1667.05
215.37	1714.15
215.59	1603.56
215.81	1716.20
216.03	1714.15
216.24	1617.90
216.46	1656.81
216.68	1781.73
216.90	1779.68
217.12	1724.39
217.34	1677.29
217.56	1732.58
217.78	1822.69
218.00	1771.49
218.22	1751.01
218.44	1650.66
218.66	1855.46
218.87	1867.75
219.09	1636.33
219.31	1710.05
219.53	1761.25
219.75	1761.25
219.97	1718.25
220.19	1759.21
220.41	1701.86
220.63	1769.44
220.85	1763.30
221.06	1679.33
221.28	1767.40
221.50	1746.92
221.72	1746.92
221.94	1669.09
222.16	1708.01
222.38	1740.77
222.60	1667.05
222.82	1669.09
223.03	1742.82
223.25	1617.90
223.47	1804.26
223.69	1769.44
223.91	1759.21
224.13	1621.99
224.35	1624.04
224.57	1722.34
224.78	1785.83
225.00	1685.48
225.22	1636.33
225.44	1705.96
225.66	1718.25
225.88	1722.34
226.10	1742.82
226.32	1669.09
226.53	1765.35
226.75	1656.81
226.97	1658.85
227.19	1697.77
227.41	1691.62
227.63	1685.48
227.85	1638.38
228.06	1685.48
228.28	1642.47
228.50	1751.01
228.72	1695.72
228.94	1632.23
229.16	1632.23
229.37	1628.14
229.59	1681.38
229.81	1763.30
230.03	1658.85
230.25	1667.05
230.47	1687.53
230.69	1632.23
230.90	1703.91
231.12	1648.61
231.34	1748.97
231.56	1744.87
231.78	1669.09
232.00	1730.53
232.21	1714.15
232.43	1642.47
232.65	1601.51
232.87	1687.53
233.09	1677.29
233.30	1701.86
233.52	1759.21
233.74	1673.19
233.96	1742.82
234.18	1654.76
234.40	1665.00
234.61	1796.07
234.83	1601.51
235.05	1677.29
235.27	1824.74
235.49	1789.92
235.70	1648.61
235.92	1779.68
236.14	1693.67
236.36	1775.59
236.58	1589.22
236.79	1705.96
237.01	1705.96
237.23	1640.42
237.45	1826.79
237.67	1619.94
237.88	1689.57
238.10	1804.26
238.32	1640.42
238.54	1722.34
238.76	1697.77
238.97	1738.73
239.19	1642.47
239.41	1708.01
239.63	1658.85
239.85	1656.81
240.06	1718.25
240.28	1708.01
240.50	1785.83
240.72	1732.58
240.93	1681.38
241.15	1791.97
241.37	1691.62
241.59	1746.92
241.81	1714.15
242.02	1667.05
242.24	1671.14
242.46	1738.73
242.68	1673.19
242.89	1734.63
243.11	1652.71
243.33	1667.05
243.55	1679.33
243.76	1738.73
243.98	1669.09
244.20	1720.29
244.42	1687.53
244.64	1701.86
244.85	1648.61
245.07	1640.42
245.29	1746.92
245.51	1701.86
245.72	1736.68
245.94	1726.44
246.16	1714.15
246.38	1767.40
246.59	1744.87
246.81	1617.90
247.03	1648.61
247.24	1667.05
247.46	1691.62
247.68	1740.77
247.90	1566.70
248.11	1648.61
248.33	1802.21
248.55	1656.81
248.77	1654.76
248.98	1718.25
249.20	1763.30
249.42	1718.25
249.64	1705.96
249.85	1677.29
250.07	1726.44
250.29	1732.58
250.50	1804.26
250.72	1589.22
250.94	1718.25
251.16	1791.97
251.37	1748.97
251.59	1748.97
251.81	1751.01
252.02	1773.54
252.24	1665.00
252.46	1734.63
252.68	1679.33
252.89	1677.29
253.11	1650.66
253.33	1832.93
253.54	1763.30
253.76	1675.24
253.98	1648.61
254.20	1691.62
254.41	1650.66
254.63	1650.66
254.85	1662.95
255.06	1609.70
255.28	1669.09
255.50	1632.23
255.71	1703.91
255.93	1689.57
256.15	1683.43
256.36	1763.30
256.58	1718.25
256.80	1736.68
257.02	1683.43
257.23	1628.14
257.45	1630.18
257.67	1763.30
257.88	1691.62
258.10	1744.87
258.32	1712.10
258.53	1681.38
258.75	1744.87
258.97	1658.85
259.18	1712.10
259.40	1730.53
259.62	1789.92
259.83	1767.40
260.05	1716.20
260.27	1947.62
260.48	1773.54
260.70	1660.90
260.92	1656.81
261.13	1683.43
261.35	1716.20
261.57	1632.23
261.78	1642.47
262.00	1599.46
262.22	1710.05
262.43	1634.28
262.65	1583.08
262.86	1656.81
263.08	1853.41
263.30	1675.24
263.51	1656.81
263.73	1652.71
263.95	1785.83
264.16	1669.09
264.38	1726.44
264.60	1724.39
264.81	1669.09
265.03	1837.03
265.25	1763.30
265.46	1708.01
265.68	1732.58
265.89	1730.53
266.11	1683.43
266.33	1712.10
266.54	1718.25
266.76	1720.29
266.98	1742.82
267.19	1740.77
267.41	1742.82
267.62	1722.34
267.84	1613.80
268.06	1746.92
268.27	1671.14
268.49	1730.53
268.70	1751.01
268.92	1757.16
269.14	1695.72
269.35	1621.99
269.57	1626.09
269.79	1757.16
270.00	1730.53
270.22	1806.31
270.43	1642.47
270.65	1533.93
270.87	1705.96
271.08	1712.10
271.30	1703.91
271.51	1681.38
271.73	1708.01
271.95	1761.25
272.16	1665.00
272.38	1656.81
272.59	1705.96
272.81	1695.72
273.02	1640.42
273.24	1779.68
273.46	1771.49
273.67	1683.43
273.89	1630.18
274.10	1662.95
274.32	1755.11
274.54	1708.01
274.75	1742.82
274.97	1646.57
275.18	1853.41
275.40	1785.83
275.61	1619.94
275.83	1667.05
276.05	1630.18
276.26	1769.44
276.48	1724.39
276.69	1681.38
276.91	1667.05
277.12	1730.53
277.34	1753.06
277.55	1714.15
277.77	1810.40
277.99	1675.24
278.20	1695.72
278.42	1648.61
278.63	1601.51
278.85	1662.95
279.06	1677.29
279.28	1708.01
279.49	1687.53
279.71	1791.97
279.93	1603.56
280.14	1669.09
280.36	1675.24
280.57	1671.14
280.79	1656.81
281.00	1687.53
281.22	1644.52
281.43	1761.25
281.65	1621.99
281.86	1665.00
282.08	1740.77
282.29	1796.07
282.51	1578.98
282.73	1675.24
282.94	1611.75
283.16	1767.40
283.37	1845.22
283.59	1701.86
283.80	1718.25
284.02	1761.25
284.23	1740.77
284.45	1705.96
284.66	1757.16
284.88	1687.53
285.09	1751.01
285.31	1701.86
285.52	1718.25
285.74	1585.13
285.95	1755.11
286.17	1757.16
286.38	1726.44
286.60	1673.19
286.81	1697.77
287.03	1599.46
287.24	1710.05
287.46	1794.02
287.67	1697.77
287.89	1714.15
288.10	1685.48
288.32	1777.64
288.53	1708.01
288.75	1738.73
288.96	1734.63
289.18	1669.09
289.39	1712.10
289.61	1738.73
289.82	1822.69
290.04	1791.97
290.25	1683.43
290.47	1724.39
290.68	1638.38
290.90	1771.49
291.11	1669.09
291.33	1718.25
291.54	1658.85
291.76	1640.42
291.97	1726.44
292.18	1724.39
292.40	1619.94
292.61	1640.42
292.83	1863.65
293.04	1753.06
293.26	1693.67
293.47	1751.01
293.69	1642.47
293.90	1722.34
294.12	1740.77
294.33	1705.96
294.55	1660.90
294.76	1744.87
294.97	1785.83
295.19	1806.31
295.40	1734.63
295.62	1701.86
295.83	1759.21
296.05	1656.81
296.26	1703.91
296.48	1566.70
296.69	1636.33
296.90	1736.68
297.12	1667.05
297.33	1810.40
297.55	1718.25
297.76	1763.30
297.98	1691.62
298.19	1695.72
298.41	1759.21
298.62	1660.90
298.83	1783.78
299.05	1730.53
299.26	1615.85
299.48	1630.18
299.69	1755.11
299.90	1687.53
300.12	1730.53
300.33	1718.25
300.55	1712.10
300.76	1708.01
300.98	1640.42
301.19	1734.63
301.40	1738.73
301.62	1632.23
301.83	1710.05
302.05	1732.58
302.26	1714.15
302.47	1775.59
302.69	1630.18
302.90	1691.62
303.12	1566.70
303.33	1761.25
303.54	1826.79
303.76	1667.05
303.97	1712.10
304.19	1828.84
304.40	1669.09
304.61	1708.01
304.83	1791.97
305.04	1810.40
305.26	1763.30
305.47	1697.77
305.68	1660.90
305.90	1591.27
306.11	1679.33
306.33	1648.61
306.54	1640.42
306.75	1658.85
306.97	1605.61
307.18	1628.14
307.39	1697.77
307.61	1757.16
307.82	1734.63
308.04	1757.16
308.25	1638.38
308.46	1736.68
308.68	1718.25
308.89	1648.61
309.10	1683.43
309.32	1796.07
309.53	1693.67
309.74	1669.09
309.96	1703.91
310.17	1777.64
310.39	1693.67
310.60	1751.01
310.81	1687.53
311.03	1683.43
311.24	1722.34
311.45	1656.81
311.67	1779.68
311.88	1740.77
312.09	1687.53
312.31	1734.63
312.52	1677.29
312.73	1738.73
312.95	1667.05
313.16	1642.47
313.37	1751.01
313.59	1703.91
313.80	1726.44
314.01	1732.58
314.23	1746.92
314.44	1650.66
314.65	1593.32
314.87	1693.67
315.08	1640.42
315.29	1720.29
315.51	1660.90
315.72	1634.28
315.93	1740.77
316.15	1697.77
316.36	1652.71
316.57	1726.44
316.79	1736.68
317.00	1722.34
317.21	1787.88
317.43	1646.57
317.64	1718.25
317.85	1599.46
318.07	1640.42
318.28	1730.53
318.49	1814.50
318.70	1959.91
318.92	1802.21
319.13	1779.68
319.34	1896.42
319.56	1781.73
319.77	1828.84
319.98	1769.44
320.20	1744.87
320.41	1724.39
320.62	1654.76
320.83	1722.34
321.05	1794.02
321.26	1738.73
321.47	1705.96
321.69	1615.85
321.90	1636.33
322.11	1673.19
322.32	1720.29
322.54	1845.22
322.75	1687.53
322.96	1742.82
323.18	1683.43
323.39	1617.90
323.60	1705.96
323.81	1777.64
324.03	1601.51
324.24	1701.86
324.45	1701.86
324.66	1669.09
324.88	1705.96
325.09	1839.08
325.30	1652.71
325.52	1724.39
325.73	1683.43
325.94	1642.47
326.15	1652.71
326.37	1609.70
326.58	1800.16
326.79	1773.54
327.00	1683.43
327.22	1669.09
327.43	1730.53
327.64	1593.32
327.85	1693.67
328.07	1714.15
328.28	1800.16
328.49	1636.33
328.70	1763.30
328.92	1638.38
329.13	1667.05
329.34	1785.83
329.55	1751.01
329.76	1734.63
329.98	1705.96
330.19	1822.69
330.40	1730.53
330.61	1757.16
330.83	1683.43
331.04	1677.29
331.25	1642.47
331.46	1642.47
331.68	1662.95
331.89	1804.26
332.10	1697.77
332.31	1699.81
332.52	1681.38
332.74	1736.68
332.95	1581.03
333.16	1644.52
333.37	1722.34
333.58	1624.04
333.80	1638.38
334.01	1654.76
334.22	1697.77
334.43	1683.43
334.64	1652.71
334.86	1695.72
335.07	1636.33
335.28	1763.30
335.49	1619.94
335.70	1759.21
335.92	1771.49
336.13	1849.32
336.34	1726.44
336.55	1705.96
336.76	1708.01
336.98	1581.03
337.19	1693.67
337.40	1806.31
337.61	1871.84
337.82	1683.43
338.04	1683.43
338.25	1628.14
338.46	1708.01
338.67	1597.42
338.88	1695.72
339.09	1642.47
339.31	1701.86
339.52	1632.23
339.73	1626.09
339.94	1648.61
340.15	1689.57
340.36	1611.75
340.58	1726.44
340.79	1636.33
341.00	1755.11
341.21	1611.75
341.42	1763.30
341.63	1699.81
341.85	1722.34
342.06	1675.24
342.27	1558.50
342.48	1748.97
342.69	1685.48
342.90	1771.49
343.12	1804.26
343.33	1644.52
343.54	1746.92
343.75	1718.25
343.96	1736.68
344.17	1665.00
344.38	1660.90
344.60	1640.42
344.81	1703.91
345.02	1718.25
345.23	1734.63
345.44	1701.86
345.65	1740.77
345.86	1753.06
346.07	1738.73
346.29	1634.28
346.50	1660.90
346.71	1705.96
346.92	1796.07
347.13	1744.87
347.34	1738.73
347.55	1775.59
347.76	1638.38
347.98	1636.33
348.19	1677.29
348.40	1791.97
348.61	1693.67
348.82	1834.98
349.03	1755.11
349.24	1697.77
349.45	1806.31
349.66	1550.31
349.88	1646.57
350.09	1611.75
350.30	1791.97
350.51	1789.92
350.72	1720.29
350.93	1794.02
351.14	1609.70
351.35	1794.02
351.56	1644.52
351.77	1654.76
351.99	1714.15
352.20	1798.12
352.41	1695.72
352.62	1583.08
352.83	1708.01
353.04	1708.01
353.25	1701.86
353.46	1724.39
353.67	1724.39
353.88	1591.27
354.09	1683.43
354.30	1730.53
354.52	1687.53
354.73	1640.42
354.94	1632.23
355.15	1675.24
355.36	1785.83
355.57	1687.53
355.78	1734.63
355.99	1619.94
356.20	1665.00
356.41	1791.97
356.62	1701.86
356.83	1648.61
357.04	1804.26
357.25	1658.85
357.46	1601.51
357.68	1636.33
357.89	1628.14
358.10	1656.81
358.31	1705.96
358.52	1751.01
358.73	1654.76
358.94	1632.23
359.15	1609.70
359.36	1730.53
359.57	1693.67
359.78	1681.38
359.99	1748.97
360.20	1617.90
360.41	1634.28
360.62	1689.57
360.83	1734.63
361.04	1714.15
361.25	1738.73
361.46	1746.92
361.67	1744.87
361.88	1728.49
362.09	1781.73
362.30	1701.86
362.51	1685.48
362.72	1697.77
362.93	1730.53
363.14	1703.91
363.35	1644.52
363.56	1634.28
363.78	1691.62
363.99	1779.68
364.20	1652.71
364.41	1675.24
364.62	1734.63
364.83	1763.30
365.04	1734.63
365.25	1679.33
365.46	1894.37
365.67	1638.38
365.88	1566.70
366.09	1611.75
366.30	1687.53
366.51	1691.62
366.72	1585.13
366.93	1681.38
367.14	1681.38
367.35	1767.40
367.56	1767.40
367.77	1732.58
367.98	1626.09
368.18	1689.57
368.39	1728.49
368.60	1689.57
368.81	1771.49
369.02	1742.82
369.23	1656.81
369.44	1583.08
369.65	1740.77
369.86	1708.01
370.07	1746.92
370.28	1730.53
370.49	1683.43
370.70	1687.53
370.91	1710.05
371.12	1576.94
371.33	1767.40
371.54	1671.14
371.75	1830.88
371.96	1556.46
372.17	1652.71
372.38	1667.05
372.59	1738.73
372.80	1687.53
373.01	1656.81
373.22	1712.10
373.43	1716.20
373.64	1638.38
373.85	1775.59
374.06	1824.74
374.26	1755.11
374.47	1710.05
374.68	1869.80
374.89	1710.05
375.10	1578.98
375.31	1763.30
375.52	1652.71
375.73	1677.29
375.94	1720.29
376.15	1794.02
376.36	1683.43
376.57	1656.81
376.78	1644.52
376.99	1742.82
377.20	1771.49
377.40	1720.29
377.61	1779.68
377.82	1699.81
378.03	1789.92
378.24	1755.11
378.45	1814.50
378.66	1769.44
378.87	1611.75
379.08	1716.20
379.29	1673.19
379.50	1738.73
379.71	1624.04
379.91	1708.01
380.12	1626.09
380.33	1689.57
380.54	1757.16
380.75	1740.77
380.96	1693.67
381.17	1724.39
381.38	1765.35
381.59	1716.20
381.80	1734.63
382.00	1923.04
382.21	1724.39
382.42	1796.07
382.63	1791.97
382.84	1779.68
383.05	1720.29
383.26	1791.97
383.47	1703.91
383.68	1783.78
383.88	1744.87
384.09	1724.39
384.30	1802.21
384.51	1708.01
384.72	1732.58
384.93	1601.51
385.14	1714.15
385.35	1730.53
385.55	1595.37
385.76	1740.77
385.97	1771.49
386.18	1646.57
386.39	1685.48
386.60	1712.10
386.81	1589.22
387.02	1656.81
387.22	1691.62
387.43	1742.82
387.64	1742.82
387.85	1896.42
388.06	2203.61
388.27	4239.30
388.48	6913.94
388.68	8294.27
388.89	9729.90
389.10	9938.79
389.31	8660.86
389.52	7675.79
389.73	6696.86
389.93	6338.46
390.14	5822.38
390.35	5101.49
390.56	4714.42
390.77	3829.70
390.98	3092.43
391.18	2459.61
391.39	2066.40
391.60	1849.32
391.81	1837.03
392.02	1712.10
392.23	1865.70
392.43	1771.49
392.64	1773.54
392.85	1705.96
393.06	1794.02
393.27	1769.44
393.47	1619.94
393.68	1730.53
393.89	1728.49
394.10	1775.59
394.31	1640.42
394.52	1634.28
394.72	1781.73
394.93	1787.88
395.14	1626.09
395.35	1716.20
395.56	1705.96
395.76	1751.01
395.97	1806.31
396.18	1869.80
396.39	1843.17
396.60	2037.73
396.80	1957.86
397.01	1843.17
397.22	1779.68
397.43	1851.36
397.64	1746.92
397.84	1855.46
398.05	1882.08
398.26	1701.86
398.47	1771.49
398.67	1740.77
398.88	1650.66
399.09	1734.63
399.30	1642.47
399.51	1724.39
399.71	1687.53
399.92	1693.67
400.13	1740.77
400.34	1662.95
400.54	1687.53
400.75	1730.53
400.96	1714.15
401.17	1746.92
401.37	1748.97
401.58	1671.14
401.79	1705.96
402.00	1880.04
402.21	1996.77
402.41	1906.66
402.62	1957.86
402.83	2002.91
403.04	2021.35
403.24	2025.44
403.45	1826.79
403.66	1984.48
403.87	1839.08
404.07	1863.65
404.28	1904.61
404.49	1820.64
404.70	1787.88
404.90	1748.97
405.11	1685.48
405.32	1771.49
405.52	1648.61
405.73	1593.32
405.94	1648.61
406.15	1683.43
406.35	1761.25
406.56	1726.44
406.77	1667.05
406.98	1652.71
407.18	1681.38
407.39	1746.92
407.60	1695.72
407.80	1644.52
408.01	1759.21
408.22	1681.38
408.43	1687.53
408.63	1765.35
408.84	1800.16
409.05	1730.53
409.25	1677.29
409.46	1701.86
409.67	1720.29
409.88	1705.96
410.08	1742.82
410.29	1748.97
410.50	1697.77
410.70	1714.15
410.91	1701.86
411.12	1722.34
411.32	1718.25
411.53	1724.39
411.74	1843.17
411.95	1736.68
412.15	1712.10
412.36	1810.40
412.57	1734.63
412.77	1845.22
412.98	1730.53
413.19	1689.57
413.39	1773.54
413.60	1724.39
413.81	1832.93
414.01	1701.86
414.22	1755.11
414.43	1738.73
414.63	1675.24
414.84	1738.73
415.05	1710.05
415.25	1621.99
415.46	1665.00
415.67	1703.91
415.87	1714.15
416.08	1683.43
416.29	1697.77
416.49	1722.34
416.70	1673.19
416.91	1705.96
417.11	1701.86
417.32	1757.16
417.53	1759.21
417.73	1677.29
417.94	1699.81
418.15	1697.77
418.35	1748.97
418.56	1730.53
418.77	1914.85
418.97	1699.81
419.18	1714.15
419.38	1544.17
419.59	1691.62
419.80	1810.40
420.00	1685.48
420.21	1722.34
420.42	1710.05
420.62	1650.66
420.83	1632.23
421.04	1675.24
421.24	1595.37
421.45	1697.77
421.65	1679.33
421.86	1730.53
422.07	1802.21
422.27	1681.38
422.48	1769.44
422.69	1603.56
422.89	1681.38
423.10	1681.38
423.30	1601.51
423.51	1726.44
423.72	1691.62
423.92	1671.14
424.13	1732.58
424.33	1681.38
424.54	1681.38
424.75	1636.33
424.95	1791.97
425.16	1685.48
425.36	1712.10
425.57	1757.16
425.78	1722.34
425.98	1753.06
426.19	1712.10
426.39	1646.57
426.60	1748.97
426.81	1820.64
427.01	1724.39
427.22	1652.71
427.42	1628.14
427.63	1673.19
427.83	1693.67
428.04	1808.36
428.25	1808.36
428.45	1826.79
428.66	1808.36
428.86	1724.39
429.07	1691.62
429.28	1703.91
429.48	1667.05
429.69	1613.80
429.89	1660.90
430.10	1667.05
430.30	1722.34
430.51	1796.07
430.71	1644.52
430.92	1693.67
431.13	1689.57
431.33	1818.60
431.54	1718.25
431.74	1812.45
431.95	1863.65
432.15	1632.23
432.36	1695.72
432.56	1820.64
432.77	1771.49
432.98	1732.58
433.18	1720.29
433.39	1691.62
433.59	1683.43
433.80	1738.73
434.00	1822.69
434.21	1714.15
434.41	1695.72
434.62	1859.56
434.82	1691.62
435.03	1617.90
435.23	1654.76
435.44	1591.27
435.64	1716.20
435.85	1732.58
436.06	1736.68
436.26	1761.25
436.47	1720.29
436.67	1705.96
436.88	1710.05
437.08	1753.06
437.29	1787.88
437.49	1791.97
437.70	1794.02
437.90	1675.24
438.11	1869.80
438.31	1740.77
438.52	1841.12
438.72	1896.42
438.93	1908.71
439.13	1798.12
439.34	1816.55
439.54	1755.11
439.75	1800.16
439.95	1753.06
440.16	1660.90
440.36	1767.40
440.57	1716.20
440.77	1787.88
440.98	1787.88
441.18	1746.92
441.39	1748.97
441.59	1734.63
441.80	1828.84
442.00	1730.53
442.21	1804.26
442.41	1658.85
442.62	1763.30
442.82	1669.09
443.02	1677.29
443.23	1738.73
443.43	1662.95
443.64	1830.88
443.84	1720.29
444.05	1789.92
444.25	1677.29
444.46	1701.86
444.66	1642.47
444.87	1787.88
445.07	1591.27
445.28	1738.73
445.48	1845.22
445.69	1804.26
445.89	1849.32
446.09	1720.29
446.30	1976.29
446.50	2602.97
446.71	3704.78
446.91	4462.52
447.12	4665.27
447.32	4747.19
447.53	4290.49
447.73	3854.28
447.93	3583.95
448.14	3239.89
448.34	3184.59
448.55	2912.21
448.75	2805.72
448.96	2605.02
449.16	2422.75
449.36	2209.76
449.57	2009.06
449.77	1904.61
449.98	1839.08
450.18	1845.22
450.39	1875.94
450.59	1751.01
450.79	1724.39
451.00	1716.20
451.20	1740.77
451.41	1699.81
451.61	1779.68
451.81	1845.22
452.02	1677.29
452.22	1716.20
452.43	1748.97
452.63	1697.77
452.84	1699.81
453.04	1601.51
453.24	1695.72
453.45	1738.73
453.65	1767.40
453.86	1738.73
454.06	1777.64
454.26	1718.25
454.47	1701.86
454.67	1761.25
454.87	1828.84
455.08	1728.49
455.28	1781.73
455.49	1730.53
455.69	1734.63
455.89	1796.07
456.10	1794.02
456.30	1669.09
456.51	1798.12
456.71	1759.21
456.91	1816.55
457.12	1763.30
457.32	1742.82
457.52	1738.73
457.73	1710.05
457.93	1732.58
458.14	1646.57
458.34	1591.27
458.54	1708.01
458.75	1763.30
458.95	1769.44
459.15	1746.92
459.36	1830.88
459.56	1787.88
459.76	1834.98
459.97	1738.73
460.17	1703.91
460.37	1763.30
460.58	1712.10
460.78	1767.40
460.99	1613.80
461.19	1720.29
461.39	1736.68
461.60	1722.34
461.80	1763.30
462.00	1609.70
462.21	1767.40
462.41	1718.25
462.61	1644.52
462.82	1679.33
463.02	1763.30
463.22	1697.77
463.43	1775.59
463.63	1730.53
463.83	1722.34
464.04	1720.29
464.24	1691.62
464.44	1683.43
464.64	1701.86
464.85	1857.51
465.05	1755.11
465.25	1775.59
465.46	1648.61
465.66	1818.60
465.86	1751.01
466.07	1777.64
466.27	1658.85
466.47	1681.38
466.68	1697.77
466.88	1783.78
467.08	1816.55
467.29	1781.73
467.49	1714.15
467.69	1718.25
467.89	1685.48
468.10	1675.24
468.30	1804.26
468.50	1769.44
468.71	1777.64
468.91	1632.23
469.11	1841.12
469.31	1789.92
469.52	1683.43
469.72	1824.74
469.92	1859.56
470.13	1699.81
470.33	1738.73
470.53	1779.68
470.73	2043.87
470.94	2289.63
471.14	2392.03
471.34	2557.91
471.54	2422.75
471.75	2244.57
471.95	2029.54
472.15	2052.06
472.36	2068.45
472.56	2090.98
472.76	2058.21
472.96	2052.06
473.17	1918.95
473.37	1961.95
473.57	1804.26
473.77	1769.44
473.98	1728.49
474.18	1652.71
474.38	1871.84
474.58	1632.23
474.79	1726.44
474.99	1804.26
475.19	1755.11
475.39	1656.81
475.60	1748.97
475.80	1771.49
476.00	1722.34
476.20	1667.05
476.41	1693.67
476.61	1755.11
476.81	1812.45
477.01	1714.15
477.21	1787.88
477.42	1806.31
477.62	1603.56
477.82	1720.29
478.02	1751.01
478.23	1701.86
478.43	1650.66
478.63	1699.81
478.83	1742.82
479.03	1716.20
479.24	1822.69
479.44	1904.61
479.64	1693.67
479.84	1587.18
480.04	1691.62
480.25	1728.49
480.45	1761.25
480.65	1722.34
480.85	1843.17
481.06	1667.05
481.26	1751.01
481.46	1718.25
481.66	1701.86
481.86	1683.43
482.06	1789.92
482.27	1722.34
482.47	1699.81
482.67	1689.57
482.87	1708.01
483.07	1851.36
483.28	1697.77
483.48	1642.47
483.68	1730.53
483.88	1685.48
484.08	1646.57
484.29	1683.43
484.49	1691.62
484.69	1644.52
484.89	1781.73
485.09	1755.11
485.29	1777.64
485.50	1771.49
485.70	1673.19
485.90	1839.08
486.10	1773.54
486.30	1714.15
486.50	1701.86
486.71	1716.20
486.91	1771.49
487.11	1769.44
487.31	1607.66
487.51	1816.55
487.71	1583.08
487.91	1646.57
488.12	1685.48
488.32	1566.70
488.52	1654.76
488.72	1607.66
488.92	1751.01
489.12	1738.73
489.32	1728.49
489.53	1748.97
489.73	1624.04
489.93	1783.78
490.13	1701.86
490.33	1636.33
490.53	1714.15
490.73	1800.16
490.94	1691.62
491.14	1699.81
491.34	1822.69
491.54	2103.26
491.74	2529.24
491.94	2977.75
492.14	2932.69
492.34	2971.60
492.54	2756.57
492.75	2459.61
492.95	2447.32
493.15	2258.91
493.35	2271.20
493.55	2172.89
493.75	2226.14
493.95	2070.50
494.15	1988.58
494.35	1943.52
494.56	1796.07
494.76	1720.29
494.96	1767.40
495.16	1769.44
495.36	1718.25
495.56	1746.92
495.76	1738.73
495.96	1691.62
496.16	1667.05
496.36	1818.60
496.56	1712.10
496.77	1753.06
496.97	1710.05
497.17	1812.45
497.37	1607.66
497.57	1785.83
497.77	1763.30
497.97	1687.53
498.17	1669.09
498.37	1650.66
498.57	1738.73
498.77	1712.10
498.97	1769.44
499.17	1744.87
499.38	1701.86
499.58	1753.06
499.78	1740.77
499.98	1812.45
500.18	1718.25
500.38	1689.57
500.58	1869.80
500.78	2557.91
500.98	4552.63
501.18	5834.66
501.38	6676.38
501.58	7174.03
501.78	6604.70
501.98	5619.63
502.18	4937.65
502.38	4456.38
502.58	4151.23
502.78	3837.89
502.98	3604.42
503.18	3456.97
503.38	3094.48
503.59	2746.33
503.79	2615.26
503.99	2396.12
504.19	2279.39
504.39	2181.09
504.59	2129.89
504.79	2152.42
504.99	2064.35
505.19	1853.41
505.39	1894.37
505.59	1959.91
505.79	1894.37
505.99	1875.94
506.19	1839.08
506.39	1882.08
506.59	1732.58
506.79	1791.97
506.99	1814.50
507.19	1705.96
507.39	1687.53
507.59	1662.95
507.79	1740.77
507.99	1634.28
508.19	1675.24
508.39	1710.05
508.59	1744.87
508.79	1744.87
508.99	1781.73
509.19	1705.96
509.39	1740.77
509.59	1658.85
509.79	1708.01
509.99	1740.77
510.19	1740.77
510.39	1767.40
510.59	1685.48
510.79	1718.25
510.99	1638.38
511.19	1824.74
511.39	1810.40
511.59	1785.83
511.79	1761.25
511.99	1839.08
512.19	1808.36
512.38	1699.81
512.58	1736.68
512.78	1759.21
512.98	1890.28
513.18	1853.41
513.38	1689.57
513.58	1783.78
513.78	1677.29
513.98	1654.76
514.18	1716.20
514.38	1763.30
514.58	1693.67
514.78	1771.49
514.98	1665.00
515.18	1699.81
515.38	1607.66
515.58	1830.88
515.78	1716.20
515.98	1740.77
516.18	1697.77
516.38	1759.21
516.57	1710.05
516.77	1677.29
516.97	1740.77
517.17	1656.81
517.37	1595.37
517.57	1812.45
517.77	1814.50
517.97	1648.61
518.17	1765.35
518.37	1665.00
518.57	1677.29
518.77	1722.34
518.97	1726.44
519.16	1677.29
519.36	1798.12
519.56	1740.77
519.76	1767.40
519.96	1685.48
520.16	1800.16
520.36	1679.33
520.56	1759.21
520.76	1648.61
520.96	1730.53
521.16	1730.53
521.35	1841.12
521.55	1798.12
521.75	1783.78
521.95	1763.30
522.15	1705.96
522.35	1642.47
522.55	1716.20
522.75	1759.21
522.95	1673.19
523.14	1599.46
523.34	1718.25
523.54	1732.58
523.74	1775.59
523.94	1667.05
524.14	1615.85
524.34	1736.68
524.54	1791.97
524.73	1718.25
524.93	1814.50
525.13	1685.48
525.33	1675.24
525.53	1812.45
525.73	1787.88
525.93	1687.53
526.13	1654.76
526.32	1658.85
526.52	1761.25
526.72	1734.63
526.92	1624.04
527.12	1755.11
527.32	1671.14
527.52	1789.92
527.71	1714.15
527.91	1644.52
528.11	1697.77
528.31	1673.19
528.51	1681.38
528.71	1697.77
528.90	1722.34
529.10	1724.39
529.30	1775.59
529.50	1681.38
529.70	1783.78
529.90	1695.72
530.09	1765.35
530.29	1656.81
530.49	1619.94
530.69	1794.02
530.89	1703.91
531.09	1796.07
531.28	1730.53
531.48	1779.68
531.68	1796.07
531.88	1689.57
532.08	1800.16
532.28	1759.21
532.47	1753.06
532.67	1787.88
532.87	1705.96
533.07	1730.53
533.27	1691.62
533.46	1765.35
533.66	1748.97
533.86	1701.86
534.06	1662.95
534.26	1773.54
534.45	1714.15
534.65	1757.16
534.85	1660.90
535.05	1710.05
535.25	1785.83
535.44	1660.90
535.64	1791.97
535.84	1712.10
536.04	1730.53
536.24	1765.35
536.43	1644.52
536.63	1732.58
536.83	1714.15
537.03	1611.75
537.22	1681.38
537.42	1673.19
537.62	1699.81
537.82	1701.86
538.02	1841.12
538.21	1798.12
538.41	1884.13
538.61	1724.39
538.81	1771.49
539.00	1773.54
539.20	1730.53
539.40	1683.43
539.60	1769.44
539.79	1744.87
539.99	1753.06
540.19	1740.77
540.39	1744.87
540.58	1746.92
540.78	1798.12
540.98	1728.49
541.18	1767.40
541.37	1798.12
541.57	1718.25
541.77	1763.30
541.97	1673.19
542.16	1621.99
542.36	1710.05
542.56	1800.16
542.76	1867.75
542.95	1771.49
543.15	1675.24
543.35	1755.11
543.54	1683.43
543.74	1658.85
543.94	1806.31
544.14	1697.77
544.33	1744.87
544.53	1687.53
544.73	1693.67
544.93	1695.72
545.12	1724.39
545.32	1763.30
545.52	1746.92
545.71	1677.29
545.91	1742.82
546.11	1751.01
546.30	1736.68
546.50	1712.10
546.70	1746.92
546.90	1796.07
547.09	1597.42
547.29	1712.10
547.49	1746.92
547.68	1724.39
547.88	1656.81
548.08	1714.15
548.27	2189.28
548.47	1626.09
548.67	1708.01
548.87	1753.06
549.06	1763.30
549.26	1728.49
549.46	1765.35
549.65	1728.49
549.85	1693.67
550.05	1746.92
550.24	1636.33
550.44	1751.01
550.64	1681.38
550.83	1705.96
551.03	1773.54
551.23	1779.68
551.42	1728.49
551.62	1730.53
551.82	1779.68
552.01	1687.53
552.21	1740.77
552.41	1728.49
552.60	1847.27
552.80	1775.59
553.00	1724.39
553.19	1708.01
553.39	1822.69
553.59	1691.62
553.78	1769.44
553.98	1773.54
554.17	1695.72
554.37	1726.44
554.57	1787.88
554.76	1630.18
554.96	1748.97
555.16	1812.45
555.35	1720.29
555.55	1802.21
555.75	1675.24
555.94	1796.07
556.14	1720.29
556.33	1802.21
556.53	1832.93
556.73	1708.01
556.92	1853.41
557.12	1806.31
557.32	1789.92
557.51	1787.88
557.71	1755.11
557.90	1767.40
558.10	1787.88
558.30	1710.05
558.49	1693.67
558.69	1738.73
558.88	1787.88
559.08	1787.88
559.28	1724.39
559.47	1779.68
559.67	1787.88
559.86	1914.85
560.06	1685.48
560.26	1685.48
560.45	1701.86
560.65	1812.45
560.84	1832.93
561.04	1730.53
561.24	1775.59
561.43	1677.29
561.63	1925.09
561.82	1789.92
562.02	1816.55
562.22	1718.25
562.41	1685.48
562.61	1693.67
562.80	1689.57
563.00	1894.37
563.19	1800.16
563.39	1701.86
563.59	1744.87
563.78	1689.57
563.98	1681.38
564.17	1722.34
564.37	1630.18
564.56	1654.76
564.76	1685.48
564.96	1818.60
565.15	1824.74
565.35	1861.60
565.54	1685.48
565.74	1796.07
565.93	1708.01
566.13	1710.05
566.32	1669.09
566.52	1751.01
566.71	1757.16
566.91	1845.22
567.11	1734.63
567.30	1697.77
567.50	1673.19
567.69	1638.38
567.89	1748.97
568.08	1675.24
568.28	1769.44
568.47	1677.29
568.67	1720.29
568.86	1712.10
569.06	1810.40
569.25	1697.77
569.45	1656.81
569.64	1665.00
569.84	1753.06
570.04	1732.58
570.23	1669.09
570.43	1714.15
570.62	1742.82
570.82	1763.30
571.01	1697.77
571.21	1642.47
571.40	1740.77
571.60	1832.93
571.79	1708.01
571.99	1726.44
572.18	1683.43
572.38	1736.68
572.57	1691.62
572.77	1751.01
572.96	1908.71
573.16	1771.49
573.35	1775.59
573.55	1877.99
573.74	1724.39
573.94	1748.97
574.13	1787.88
574.33	1767.40
574.52	1783.78
574.71	1777.64
574.91	1730.53
575.10	1683.43
575.30	1781.73
575.49	1716.20
575.69	1701.86
575.88	1699.81
576.08	1697.77
576.27	1718.25
576.47	1771.49
576.66	1873.89
576.86	1802.21
577.05	1759.21
577.25	1771.49
577.44	1830.88
577.64	1722.34
577.83	1722.34
578.02	1687.53
578.22	1818.60
578.41	1857.51
578.61	1689.57
578.80	1652.71
579.00	1777.64
579.19	1705.96
579.39	1751.01
579.58	1759.21
579.77	1796.07
579.97	1894.37
580.16	1845.22
580.36	1779.68
580.55	1929.19
580.75	1767.40
580.94	1757.16
581.13	1828.84
581.33	1830.88
581.52	1761.25
581.72	1888.23
581.91	1796.07
582.11	1738.73
582.30	1771.49
582.49	1712.10
582.69	1841.12
582.88	1800.16
583.08	1789.92
583.27	1787.88
583.47	1705.96
583.66	1761.25
583.85	1667.05
584.05	1802.21
584.24	1755.11
584.44	1839.08
584.63	1822.69
584.82	1933.28
585.02	1804.26
585.21	1804.26
585.41	1888.23
585.60	1832.93
585.79	1939.43
585.99	1937.38
586.18	1855.46
586.37	2099.17
586.57	3399.63
586.76	9934.70
586.96	24460.94
587.15	34551.28
587.34	40678.80
587.54	42167.68
587.73	36806.09
587.93	26439.28
588.12	21782.20
588.31	18693.86
588.51	16490.24
588.70	15351.57
588.89	14298.92
589.09	12865.34
589.28	11145.05
589.47	9611.12
589.67	8128.39
589.86	6444.96
590.06	4966.32
590.25	3995.59
590.44	3135.44
590.64	2643.93
590.83	2269.15
591.02	2125.79
591.22	1904.61
591.41	1845.22
591.60	1880.04
591.80	1953.76
591.99	1701.86
592.18	1757.16
592.38	1871.84
592.57	1757.16
592.76	1822.69
592.96	1787.88
593.15	1744.87
593.34	1796.07
593.54	1734.63
593.73	1763.30
593.92	1855.46
594.12	1726.44
594.31	1804.26
594.50	1859.56
594.70	1839.08
594.89	1886.18
595.08	1712.10
595.28	1771.49
595.47	1933.28
595.66	1798.12
595.86	1712.10
596.05	1714.15
596.24	1712.10
596.43	1814.50
596.63	1834.98
596.82	1763.30
597.01	1718.25
597.21	1837.03
597.40	1730.53
597.59	1662.95
597.79	1806.31
597.98	1783.78
598.17	1748.97
598.36	1708.01
598.56	1761.25
598.75	1619.94
598.94	1775.59
599.14	1814.50
599.33	1710.05
599.52	1751.01
599.71	1761.25
599.91	1789.92
600.10	1703.91
600.29	1765.35
600.48	1804.26
600.68	1777.64
600.87	1734.63
601.06	1697.77
601.26	1771.49
601.45	1669.09
601.64	1630.18
601.83	1765.35
602.03	1652.71
602.22	1640.42
602.41	1783.78
602.60	1912.80
602.80	1804.26
602.99	1732.58
603.18	1705.96
603.37	1818.60
603.57	1755.11
603.76	1744.87
603.95	1746.92
604.14	1751.01
604.34	1720.29
604.53	1724.39
604.72	1724.39
604.91	1816.55
605.10	1824.74
605.30	1710.05
605.49	1867.75
605.68	1771.49
605.87	1722.34
606.07	1701.86
606.26	1746.92
606.45	1773.54
606.64	1751.01
606.84	1720.29
607.03	1675.24
607.22	1757.16
607.41	1646.57
607.60	1605.61
607.80	1804.26
607.99	1679.33
608.18	1730.53
608.37	1699.81
608.56	1652.71
608.76	1767.40
608.95	1794.02
609.14	1681.38
609.33	1718.25
609.52	1839.08
609.72	1710.05
609.91	1808.36
610.10	1720.29
610.29	1810.40
610.48	1757.16
610.68	1755.11
610.87	1714.15
611.06	1730.53
611.25	1662.95
611.44	1773.54
611.63	1621.99
611.83	1742.82
612.02	1638.38
612.21	1814.50
612.40	1667.05
612.59	1703.91
612.79	1669.09
612.98	1761.25
613.17	1845.22
613.36	1740.77
613.55	1765.35
613.74	1675.24
613.93	1671.14
614.13	1677.29
614.32	1712.10
614.51	1697.77
614.70	1648.61
614.89	1652.71
615.08	1728.49
615.28	2090.98
615.47	1714.15
615.66	1777.64
615.85	1767.40
616.04	1884.13
616.23	1615.85
616.42	1699.81
616.62	1785.83
616.81	1773.54
617.00	1667.05
617.19	1769.44
617.38	1644.52
617.57	1841.12
617.76	1710.05
617.95	1730.53
618.15	1746.92
618.34	1890.28
618.53	1699.81
618.72	1771.49
618.91	1769.44
619.10	1822.69
619.29	1765.35
619.48	1722.34
619.68	1640.42
619.87	1744.87
620.06	1673.19
620.25	1693.67
620.44	1665.00
620.63	1646.57
620.82	1656.81
621.01	1771.49
621.20	1693.67
621.39	1730.53
621.59	1736.68
621.78	1736.68
621.97	1783.78
622.16	1779.68
622.35	1693.67
622.54	1806.31
622.73	1761.25
622.92	1632.23
623.11	1742.82
623.30	1703.91
623.49	1730.53
623.68	1703.91
623.88	1740.77
624.07	1730.53
624.26	1691.62
624.45	1751.01
624.64	1710.05
624.83	1734.63
625.02	1654.76
625.21	1662.95
625.40	1691.62
625.59	1726.44
625.78	1781.73
625.97	1798.12
626.16	1763.30
626.35	1771.49
626.54	1644.52
626.74	1787.88
626.93	1697.77
627.12	1617.90
627.31	1808.36
627.50	1798.12
627.69	1806.31
627.88	1658.85
628.07	1656.81
628.26	1576.94
628.45	1644.52
628.64	1658.85
628.83	1798.12
629.02	1658.85
629.21	1744.87
629.40	1783.78
629.59	1693.67
629.78	1660.90
629.97	1708.01
630.16	1662.95
630.35	1660.90
630.54	1566.70
630.73	1665.00
630.92	1740.77
631.11	1642.47
631.30	1699.81
631.49	1740.77
631.68	1675.24
631.87	1722.34
632.06	1722.34
632.25	1816.55
632.44	1705.96
632.63	1724.39
632.82	1734.63
633.01	1648.61
633.20	1738.73
633.39	1679.33
633.58	1687.53
633.77	1730.53
633.96	1751.01
634.15	1722.34
634.34	1755.11
634.53	1724.39
634.72	1593.32
634.91	1626.09
635.10	1710.05
635.29	1763.30
635.48	1734.63
635.67	1601.51
635.86	1679.33
636.05	1755.11
636.24	1701.86
636.43	1693.67
636.62	1810.40
636.81	1617.90
637.00	1705.96
637.19	1757.16
637.38	1671.14
637.57	1734.63
637.76	1716.20
637.95	1695.72
638.14	1697.77
638.33	1615.85
638.52	1699.81
638.71	1669.09
638.89	1626.09
639.08	1816.55
639.27	1685.48
639.46	1767.40
639.65	1783.78
639.84	1763.30
640.03	1738.73
640.22	1705.96
640.41	1800.16
640.60	1644.52
640.79	1718.25
640.98	1732.58
641.17	1697.77
641.36	1730.53
641.55	1748.97
641.74	1574.89
641.92	1683.43
642.11	1636.33
642.30	1677.29
642.49	1646.57
642.68	1667.05
642.87	1660.90
643.06	1691.62
643.25	1671.14
643.44	1705.96
643.63	1771.49
643.82	1771.49
644.00	1646.57
644.19	1675.24
644.38	1601.51
644.57	1779.68
644.76	1742.82
644.95	1701.86
645.14	1673.19
645.33	1636.33
645.52	1748.97
645.71	1593.32
645.89	1660.90
646.08	1789.92
646.27	1705.96
646.46	1787.88
646.65	1609.70
646.84	1734.63
647.03	1607.66
647.22	1751.01
647.40	1757.16
647.59	1648.61
647.78	1695.72
647.97	1673.19
648.16	1652.71
648.35	1769.44
648.54	1806.31
648.73	1630.18
648.91	1757.16
649.10	1751.01
649.29	1753.06
649.48	1746.92
649.67	1673.19
649.86	1681.38
650.05	1636.33
650.23	1720.29
650.42	1675.24
650.61	1695.72
650.80	1695.72
650.99	1867.75
651.18	1841.12
651.36	1689.57
651.55	1720.29
651.74	1734.63
651.93	1714.15
652.12	1662.95
652.31	1703.91
652.49	1689.57
652.68	1714.15
652.87	1751.01
653.06	1683.43
653.25	1773.54
653.44	1716.20
653.62	1822.69
653.81	1732.58
654.00	1718.25
654.19	1767.40
654.38	1910.75
654.56	1730.53
654.75	1736.68
654.94	1767.40
655.13	1619.94
655.32	1781.73
655.51	1839.08
655.69	1697.77
655.88	1753.06
656.07	1658.85
656.26	1751.01
656.45	1658.85
656.63	1665.00
656.82	1742.82
657.01	1746.92
657.20	1697.77
657.38	1769.44
657.57	1697.77
657.76	1570.79
657.95	1722.34
658.14	1650.66
658.32	1759.21
658.51	1648.61
658.70	1736.68
658.89	1800.16
659.08	1710.05
659.26	1746.92
659.45	1638.38
659.64	1714.15
659.83	1669.09
660.01	1912.80
660.20	1732.58
660.39	1755.11
660.58	1587.18
660.76	1650.66
660.95	1626.09
661.14	1763.30
661.33	1683.43
661.51	1679.33
661.70	1720.29
661.89	1748.97
662.08	1712.10
662.26	1665.00
662.45	1671.14
662.64	1771.49
662.83	1740.77
663.01	1652.71
663.20	1646.57
663.39	1746.92
663.58	1654.76
663.76	1734.63
663.95	1714.15
664.14	1673.19
664.32	1681.38
664.51	1720.29
664.70	1595.37
664.89	1791.97
665.07	1628.14
665.26	1757.16
665.45	1708.01
665.64	1726.44
665.82	1687.53
666.01	1746.92
666.20	1593.32
666.38	1755.11
666.57	1800.16
666.76	2183.13
666.95	4569.02
667.13	10350.43
667.32	15374.10
667.51	18102.00
667.69	19031.77
667.88	17823.47
668.07	12482.37
668.25	9518.96
668.44	8347.52
668.63	7409.55
668.81	6864.79
669.00	6496.16
669.19	5818.28
669.38	5081.01
669.56	4614.07
669.75	3950.53
669.94	3282.89
670.12	2955.22
670.31	2545.63
670.50	2295.77
670.68	2103.26
670.87	1920.99
671.06	1806.31
671.24	1734.63
671.43	1826.79
671.62	1726.44
671.80	1744.87
671.99	1781.73
672.18	1656.81
672.36	1773.54
672.55	1802.21
672.74	1763.30
672.92	1705.96
673.11	1730.53
673.29	1648.61
673.48	1839.08
673.67	1646.57
673.85	1732.58
674.04	1697.77
674.23	1730.53
674.41	1802.21
674.60	1634.28
674.79	1589.22
674.97	1691.62
675.16	1755.11
675.34	1736.68
675.53	1665.00
675.72	1689.57
675.90	1744.87
676.09	1746.92
676.28	1714.15
676.46	1650.66
676.65	1773.54
676.83	1574.89
677.02	1669.09
677.21	1759.21
677.39	1730.53
677.58	1665.00
677.77	1691.62
677.95	1675.24
678.14	1695.72
678.32	1673.19
678.51	1650.66
678.70	1816.55
678.88	1660.90
679.07	1681.38
679.25	1679.33
679.44	1748.97
679.63	1644.52
679.81	1705.96
680.00	1837.03
680.18	1759.21
680.37	1710.05
680.55	1611.75
680.74	1648.61
680.93	1609.70
681.11	1734.63
681.30	1624.04
681.48	1660.90
681.67	1699.81
681.85	1779.68
682.04	1656.81
682.23	1732.58
682.41	1755.11
682.60	1695.72
682.78	1726.44
682.97	1656.81
683.15	1779.68
683.34	1685.48
683.53	1773.54
683.71	1558.50
683.90	1828.84
684.08	1783.78
684.27	1675.24
684.45	1646.57
684.64	1822.69
684.82	1806.31
685.01	1734.63
685.19	1734.63
685.38	1816.55
685.57	1640.42
685.75	1652.71
685.94	1681.38
686.12	1581.03
686.31	1710.05
686.49	1773.54
686.68	1589.22
686.86	1703.91
687.05	1712.10
687.23	1794.02
687.42	1695.72
687.60	1634.28
687.79	1796.07
687.97	1810.40
688.16	1814.50
688.34	1828.84
688.53	1576.94
688.71	1693.67
688.90	1800.16
689.08	1742.82
689.27	1679.33
689.45	1777.64
689.64	1742.82
689.82	1808.36
690.01	1718.25
690.19	1732.58
690.38	1669.09
690.56	1781.73
690.75	1716.20
690.93	1654.76
691.12	1621.99
691.30	1669.09
691.49	1650.66
691.67	1705.96
691.86	1808.36
692.04	1705.96
692.23	1617.90
692.41	1679.33
692.60	1828.84
692.78	1730.53
692.97	1646.57
693.15	1736.68
693.34	1765.35
693.52	1753.06
693.71	1597.42
693.89	1642.47
694.08	1703.91
694.26	1746.92
694.44	1722.34
694.63	1726.44
694.81	1634.28
695.00	1644.52
695.18	1712.10
695.37	1961.95
695.55	1652.71
695.74	1734.63
695.92	1644.52
696.10	1718.25
696.29	1644.52
696.47	1675.24
696.66	1662.95
696.84	1695.72
697.03	1677.29
697.21	1789.92
697.40	2260.96
697.58	1705.96
697.76	1720.29
697.95	1689.57
698.13	1701.86
698.32	1681.38
698.50	1665.00
698.68	1740.77
698.87	1769.44
699.05	1796.07
699.24	1761.25
699.42	1687.53
699.61	1701.86
699.79	1671.14
699.97	1716.20
700.16	1701.86
700.34	1601.51
700.53	1656.81
700.71	1820.64
700.89	1794.02
701.08	1736.68
701.26	1730.53
701.45	2107.36
701.63	1714.15
701.81	1640.42
702.00	1665.00
702.18	1714.15
702.37	1648.61
702.55	1834.98
702.73	1710.05
702.92	1593.32
703.10	1751.01
703.28	1714.15
703.47	1646.57
703.65	1724.39
703.84	1796.07
704.02	1681.38
704.20	1736.68
704.39	1634.28
704.57	1673.19
704.75	1804.26
704.94	1767.40
705.12	1685.48
705.30	1746.92
705.49	2275.29
705.67	4407.23
705.86	9500.53
706.04	12781.37
706.22	14636.83
706.41	15568.66
706.59	13872.94
706.77	9713.52
706.96	7446.41
707.14	6705.05
707.32	5900.20
707.51	5689.26
707.69	5011.38
707.87	4165.57
708.06	3602.38
708.24	2963.41
708.42	2414.56
708.61	2283.49
708.79	1906.66
708.97	1826.79
709.16	1824.74
709.34	1771.49
709.52	1748.97
709.71	1726.44
709.89	1777.64
710.07	1699.81
710.26	1705.96
710.44	1675.24
710.62	1734.63
710.80	1638.38
710.99	1734.63
711.17	1771.49
711.35	1689.57
711.54	1753.06
711.72	1755.11
711.90	1771.49
712.09	1726.44
712.27	1705.96
712.45	1779.68
712.63	1708.01
712.82	1603.56
713.00	1724.39
713.18	1804.26
713.37	1757.16
713.55	1767.40
713.73	1763.30
713.91	1619.94
714.10	1665.00
714.28	1716.20
714.46	1771.49
714.65	1783.78
714.83	1734.63
715.01	1634.28
715.19	1624.04
715.38	1646.57
715.56	1742.82
715.74	1628.14
715.92	1587.18
716.11	1753.06
716.29	1585.13
716.47	1724.39
716.65	1685.48
716.84	1597.42
717.02	1855.46
717.20	1642.47
717.38	1667.05
717.57	1767.40
717.75	1708.01
717.93	1665.00
718.11	1730.53
718.30	1609.70
718.48	1812.45
718.66	1744.87
718.84	1783.78
719.03	1736.68
719.21	1636.33
719.39	1771.49
719.57	1738.73
719.75	1755.11
719.94	1656.81
720.12	1650.66
720.30	1720.29
720.48	1716.20
720.67	1722.34
720.85	1699.81
721.03	1671.14
721.21	1644.52
721.39	1779.68
721.58	1781.73
721.76	1673.19
721.94	1724.39
722.12	1697.77
722.30	1724.39
722.49	1632.23
722.67	1652.71
722.85	1697.77
723.03	1624.04
723.21	1599.46
723.40	1738.73
723.58	1828.84
723.76	1744.87
723.94	1773.54
724.12	1710.05
724.30	1857.51
724.49	1769.44
724.67	1591.27
724.85	1734.63
725.03	1624.04
725.21	1712.10
725.40	1734.63
725.58	1605.61
725.76	1746.92
725.94	1708.01
726.12	1638.38
726.30	1767.40
726.49	1685.48
726.67	1652.71
726.85	1791.97
727.03	1818.60
727.21	2115.55
727.39	2822.10
727.57	3823.56
727.76	4206.53
727.94	4358.08
728.12	4360.13
728.30	3768.26
728.48	2951.12
728.66	2764.76
728.84	2588.63
729.03	2324.44
729.21	2121.70
729.39	1943.52
729.57	1896.42
729.75	1820.64
729.93	1873.89
730.11	1734.63
730.30	1660.90
730.48	1695.72
730.66	1861.60
730.84	1763.30
731.02	1660.90
731.20	1665.00
731.38	1605.61
731.56	1632.23
731.74	1656.81
731.93	1691.62
732.11	1689.57
732.29	1695.72
732.47	1783.78
732.65	1726.44
732.83	1769.44
733.01	1703.91
733.19	1619.94
733.37	1761.25
733.56	1718.25
733.74	1644.52
733.92	1837.03
734.10	1681.38
734.28	1705.96
734.46	1621.99
734.64	1763.30
734.82	1759.21
735.00	1634.28
735.18	1716.20
735.36	1695.72
735.54	1656.81
735.73	1665.00
735.91	1714.15
736.09	1746.92
736.27	1685.48
736.45	1722.34
736.63	1546.22
736.81	1708.01
736.99	1716.20
737.17	1714.15
737.35	1621.99
737.53	1720.29
737.71	1691.62
737.89	1828.84
738.07	1638.38
738.25	1679.33
738.43	1662.95
738.61	1665.00
738.80	1681.38
738.98	1648.61
739.16	1693.67
739.34	1572.84
739.52	1808.36
739.70	1712.10
739.88	1837.03
740.06	1800.16
740.24	1628.14
740.42	1761.25
740.60	1595.37
740.78	1705.96
740.96	1681.38
741.14	1703.91
741.32	1677.29
741.50	1669.09
741.68	1820.64
741.86	1828.84
742.04	1667.05
742.22	1677.29
742.40	1699.81
742.58	1742.82
742.76	1621.99
742.94	1740.77
743.12	1632.23
743.30	1728.49
743.48	1716.20
743.66	1679.33
743.84	1755.11
744.02	1648.61
744.20	1683.43
744.38	1734.63
744.56	1699.81
744.74	1753.06
744.92	1785.83
745.10	1701.86
745.28	1697.77
745.46	1779.68
745.64	1638.38
745.82	1757.16
746.00	1753.06
746.18	1722.34
746.36	1667.05
746.54	1701.86
746.72	1681.38
746.90	1677.29
747.08	1824.74
747.26	1632.23
747.44	1761.25
747.62	1701.86
747.80	1691.62
747.98	1796.07
748.15	1712.10
748.33	1755.11
748.51	1656.81
748.69	1716.20
748.87	1669.09
749.05	1695.72
749.23	1720.29
749.41	1667.05
749.59	1714.15
749.77	1726.44
749.95	1669.09
750.13	1718.25
750.31	1656.81
750.49	1654.76
750.67	1779.68
750.85	1783.78
751.03	1683.43
751.20	1867.75
751.38	1755.11
751.56	1656.81
751.74	1753.06
751.92	1720.29
752.10	1648.61
752.28	1800.16
752.46	1652.71
752.64	1683.43
752.82	1740.77
753.00	1751.01
753.18	1667.05
753.35	1675.24
753.53	1701.86
753.71	1667.05
753.89	1787.88
754.07	1697.77
754.25	1781.73
754.43	1736.68
754.61	1626.09
754.79	1691.62
754.97	1671.14
755.14	1843.17
755.32	1658.85
755.50	1644.52
755.68	1746.92
755.86	1570.79
756.04	1718.25
756.22	1581.03
756.40	1697.77
756.57	1945.57
756.75	1681.38
756.93	1689.57
757.11	1722.34
757.29	1619.94
757.47	1667.05
757.65	1523.69
757.82	1585.13
758.00	1675.24
758.18	1705.96
758.36	1673.19
758.54	1857.51
758.72	1603.56
758.90	1820.64
759.07	1720.29
759.25	1673.19
759.43	1751.01
759.61	1665.00
759.79	2160.61
759.97	1722.34
760.15	1632.23
760.32	1667.05
760.50	1701.86
760.68	1791.97
760.86	1591.27
761.04	1722.34
761.22	1705.96
761.39	1712.10
761.57	1763.30
761.75	1671.14
761.93	1697.77
762.11	1656.81
762.28	1665.00
762.46	1751.01
762.64	1767.40
762.82	1570.79
763.00	1714.15
763.18	1728.49
763.35	1720.29
763.53	1732.58
763.71	1767.40
763.89	1679.33
764.07	1722.34
764.24	1806.31
764.42	1714.15
764.60	1714.15
764.78	1744.87
764.96	1767.40
765.13	1722.34
765.31	1705.96
765.49	1769.44
765.67	1595.37
765.84	1705.96
766.02	1644.52
766.20	1601.51
766.38	1730.53
766.56	1746.92
766.73	1798.12
766.91	1796.07
767.09	1773.54
767.27	1744.87
767.44	1671.14
767.62	1695.72
767.80	1701.86
767.98	1693.67
768.15	1656.81
768.33	1720.29
768.51	1765.35
768.69	1751.01
768.87	1619.94
769.04	1765.35
769.22	1822.69
769.40	1712.10
769.58	1808.36
769.75	1716.20
769.93	1787.88
770.11	1667.05
770.28	1607.66
770.46	1673.19
770.64	1771.49
770.82	1691.62
770.99	1681.38
771.17	1734.63
771.35	1638.38
771.53	1697.77
771.70	1693.67
771.88	1695.72
772.06	1697.77
772.23	1572.84
772.41	1716.20
772.59	1662.95
772.77	1679.33
772.94	1724.39
773.12	1687.53
773.30	1656.81
773.47	1720.29
773.65	1562.60
773.83	1724.39
774.01	1695.72
774.18	1658.85
774.36	1656.81
774.54	1621.99
774.71	1708.01
774.89	1591.27
775.07	1585.13
775.24	1673.19
775.42	1660.90
775.60	1808.36
775.78	1673.19
775.95	1609.70
776.13	1568.74
776.31	1652.71
776.48	1744.87
776.66	1802.21
776.84	1734.63
777.01	1615.85
777.19	1689.57
777.37	1677.29
777.54	1687.53
777.72	1779.68
777.90	1718.25
778.07	1619.94
778.25	1880.04
778.43	1738.73
778.60	1671.14
778.78	1734.63
778.96	1744.87
779.13	1617.90
779.31	1724.39
779.49	1669.09
779.66	1662.95
779.84	1689.57
780.01	1689.57
780.19	1742.82
780.37	1748.97
780.54	1675.24
780.72	1581.03
780.90	1679.33
781.07	1703.91
781.25	1716.20
781.43	1748.97
781.60	1701.86
781.78	1705.96
781.95	1683.43
782.13	1613.80
782.31	1757.16
782.48	1619.94
782.66	1685.48
782.83	1763.30
783.01	1675.24
783.19	1673.19
783.36	1675.24
783.54	1648.61
783.72	1781.73
783.89	1689.57
784.07	1714.15
784.24	1736.68
784.42	1738.73
784.60	1728.49
784.77	1755.11
784.95	1648.61
785.12	1683.43
785.30	1687.53
785.47	1720.29
785.65	1656.81
785.83	1726.44
786.00	1771.49
786.18	1650.66
786.35	1601.51
786.53	1656.81
786.71	1681.38
786.88	1677.29
787.06	1644.52
787.23	1632.23
787.41	1669.09
787.58	1665.00
787.76	1601.51
787.94	1738.73
788.11	1636.33
788.29	1669.09
788.46	1564.65
788.64	1644.52
788.81	1667.05
788.99	1677.29
789.16	1689.57
789.34	1650.66
789.52	1638.38
789.69	1708.01
789.87	1660.90
790.04	1734.63
790.22	1675.24
790.39	1820.64
790.57	1638.38
790.74	1660.90
790.92	1728.49
791.09	1687.53
791.27	1718.25
791.44	1728.49
791.62	1726.44
791.79	1771.49
791.97	1671.14
792.15	1816.55
792.32	1673.19
792.50	1691.62
792.67	1703.91
792.85	1775.59
793.02	1677.29
793.20	1685.48
793.37	1658.85
793.55	1708.01
793.72	1634.28
793.90	1763.30
794.07	1644.52
794.25	1652.71
794.42	1740.77
794.60	1740.77
794.77	1736.68
794.95	1763.30
795.12	1755.11
795.30	1671.14
795.47	1624.04
795.65	1832.93
795.82	1718.25
796.00	1634.28
796.17	1746.92
796.34	1660.90
796.52	1699.81
796.69	1712.10
796.87	1771.49
797.04	1708.01
797.22	1804.26
797.39	1703.91
797.57	1746.92
797.74	1689.57
797.92	1716.20
798.09	1648.61
798.27	1753.06
798.44	1705.96
798.62	1660.90
798.79	1716.20
798.96	1699.81
799.14	1671.14
799.31	1808.36
799.49	1724.39
799.66	1611.75
799.84	1744.87
800.01	1634.28
800.19	1695.72
800.36	1593.32
800.53	1669.09
800.71	1712.10
800.88	1794.02
801.06	1677.29
801.23	1671.14
801.41	1656.81
801.58	1636.33
801.75	1646.57
801.93	1775.59
802.10	1681.38
802.28	1665.00
802.45	1650.66
802.63	1701.86
802.80	1796.07
802.97	1609.70
803.15	1712.10
803.32	1662.95
803.50	1667.05
803.67	1595.37
803.84	1634.28
804.02	1683.43
804.19	1681.38
804.37	1607.66
804.54	1607.66
804.71	1708.01
804.89	1685.48
805.06	1572.84
805.24	1638.38
805.41	1634.28
805.58	1673.19
805.76	1851.36
805.93	1632.23
806.10	1757.16
806.28	1701.86
806.45	1738.73
806.63	1720.29
806.80	1742.82
806.97	1632.23
807.15	1773.54
807.32	1726.44
807.49	1757.16
807.67	1630.18
807.84	1732.58
808.01	1591.27
808.19	1882.08
808.36	1748.97
808.54	1656.81
808.71	1626.09
808.88	1720.29
809.06	1755.11
809.23	1695.72
809.40	1593.32
809.58	1722.34
809.75	1658.85
809.92	1710.05
810.10	1806.31
810.27	1667.05
810.44	1705.96
810.62	1662.95
810.79	1748.97
810.96	1675.24
811.14	1648.61
811.31	1675.24
811.48	1757.16
811.66	1691.62
811.83	1740.77
812.00	1744.87
812.18	1726.44
812.35	1785.83
812.52	1759.21
812.69	1683.43
812.87	1681.38
813.04	1648.61
813.21	1640.42
813.39	1634.28
813.56	1654.76
813.73	1794.02
813.91	1607.66
814.08	1779.68
814.25	1744.87
814.42	1693.67
814.60	1701.86
814.77	1789.92
814.94	1650.66
815.12	1628.14
815.29	1699.81
815.46	1705.96
815.63	1609.70
815.81	1699.81
815.98	1742.82
816.15	1701.86
816.33	1708.01
816.50	1697.77
816.67	1744.87
816.84	1609.70
817.02	1564.65
817.19	1642.47
817.36	1705.96
817.53	1746.92
817.71	1605.61
817.88	1802.21
818.05	1660.90
818.22	1710.05
818.40	1865.70
818.57	1675.24
818.74	1761.25
818.91	1742.82
819.09	1744.87
819.26	1728.49
819.43	1642.47
819.60	1656.81
819.78	1730.53
819.95	1746.92
820.12	1556.46
820.29	1763.30
820.47	1769.44
820.64	1570.79
820.81	1621.99
820.98	1650.66
821.15	1642.47
821.33	1777.64
821.50	1654.76
821.67	1710.05
821.84	1726.44
822.02	1703.91
822.19	1730.53
822.36	1705.96
822.53	1626.09
822.70	1621.99
822.88	1673.19
823.05	1720.29
823.22	1665.00
823.39	1724.39
823.56	1720.29
823.74	1757.16
823.91	1654.76
824.08	1599.46
824.25	1687.53
824.42	1812.45
824.60	1640.42
824.77	1617.90
824.94	1646.57
825.11	1634.28
825.28	1550.31
825.45	1683.43
825.63	1703.91
825.80	1624.04
825.97	1724.39
826.14	1710.05
826.31	1607.66
826.48	1728.49
826.66	1634.28
826.83	1665.00
827.00	1644.52
827.17	1624.04
827.34	1662.95
827.51	1679.33
827.69	1681.38
827.86	1667.05
828.03	1669.09
828.20	1660.90
828.37	1660.90
828.54	1714.15
828.71	1636.33
828.89	1808.36
829.06	1656.81
829.23	1759.21
829.40	1691.62
829.57	1628.14
829.74	1687.53
829.91	1658.85
830.09	1679.33
830.26	1736.68
830.43	1685.48
830.60	1675.24
830.77	1759.21
830.94	1759.21
831.11	1789.92
831.28	1656.81
831.46	1753.06
831.63	1671.14
831.80	1691.62
831.97	1677.29
832.14	1658.85
832.31	1665.00
832.48	1703.91
832.65	1738.73
832.82	1712.10
832.99	1705.96
833.17	1568.74
833.34	1763.30
833.51	1751.01
833.68	1593.32
833.85	1753.06
834.02	1673.19
834.19	1650.66
834.36	1646.57
834.53	1609.70
834.70	1761.25
834.87	1748.97
835.04	1730.53
835.22	1689.57
835.39	1667.05
835.56	1605.61
835.73	1693.67
835.90	1730.53
836.07	1714.15
836.24	1767.40
836.41	1656.81
836.58	1601.51
836.75	1705.96
836.92	1669.09
837.09	1675.24
837.26	1687.53
837.43	1693.67
837.60	1763.30
837.77	1732.58
837.94	1777.64
838.12	1761.25
838.29	1703.91
838.46	1617.90
838.63	1603.56
838.80	1761.25
838.97	1810.40
839.14	1601.51
839.31	1693.67
839.48	1667.05
839.65	1679.33
839.82	1734.63
839.99	1789.92
840.16	1673.19
840.33	1615.85
840.50	1693.67
840.67	1665.00
840.84	1558.50
841.01	1681.38
841.18	1685.48
841.35	1624.04
841.52	1660.90
841.69	1796.07
841.86	1665.00
842.03	1697.77
842.20	1675.24
842.37	1724.39
842.54	1746.92
842.71	1691.62
842.88	1564.65
843.05	1767.40
843.22	1738.73
843.39	1626.09
843.56	1679.33
843.73	1732.58
843.90	1650.66
844.07	1683.43
844.24	1695.72
844.41	1810.40
844.58	1662.95
844.75	1654.76
844.92	1738.73
845.09	1736.68
845.26	1665.00
845.43	1701.86
845.60	1679.33
845.77	1800.16
845.94	1742.82
846.10	1765.35
846.27	1636.33
846.44	1673.19
846.61	1626.09
846.78	1685.48
846.95	1722.34
847.12	1595.37
847.29	1718.25
847.46	1617.90
847.63	1751.01
847.80	1665.00
847.97	1609.70
848.14	1830.88
848.31	1708.01
848.48	1665.00
848.65	1701.86
848.82	1689.57
848.98	1796.07
849.15	1705.96
849.32	1814.50
849.49	1777.64
849.66	1724.39
849.83	1714.15
850.00	1617.90
850.17	1785.83
850.34	1673.19
850.51	1615.85
850.68	1718.25
850.85	1818.60
851.01	1785.83
851.18	1607.66
851.35	1644.52
851.52	1687.53
851.69	1773.54
851.86	1662.95
852.03	1726.44
852.20	1753.06
852.37	1640.42
852.53	1591.27
852.70	1640.42
852.87	1699.81
853.04	1763.30
853.21	1742.82
853.38	1722.34
853.55	1738.73
853.72	1806.31
853.89	1572.84
854.05	1695.72
854.22	1673.19
854.39	1683.43
854.56	1687.53
854.73	1845.22
854.90	1693.67
855.07	1699.81
855.23	1677.29
855.40	1691.62
855.57	1669.09
855.74	1542.12
855.91	1822.69
856.08	1673.19
856.25	1619.94
856.41	1683.43
856.58	1667.05
856.75	1695.72
856.92	1695.72
857.09	1757.16
857.26	1667.05
857.42	1673.19
857.59	1753.06
857.76	1644.52
857.93	1757.16
858.10	1665.00
858.27	1636.33
858.43	1689.57
858.60	1642.47
858.77	1599.46
858.94	1689.57
859.11	1751.01
859.27	1568.74
859.44	1673.19
859.61	1804.26
859.78	1689.57
859.95	1693.67
860.12	1681.38
860.28	1826.79
860.45	1832.93
860.62	1662.95
860.79	1687.53
860.95	1718.25
861.12	1658.85
861.29	1671.14
861.46	1662.95
861.63	1621.99
861.79	1669.09
861.96	1650.66
862.13	1601.51
862.30	1730.53
862.47	1742.82
862.63	1601.51
862.80	1765.35
862.97	1777.64
863.14	1826.79
863.30	1699.81
863.47	1697.77
863.64	1781.73
863.81	1638.38
863.97	1552.36
864.14	1740.77
864.31	1624.04
864.48	1740.77
864.65	1648.61
864.81	1744.87
864.98	1730.53
865.15	1769.44
865.32	1716.20
865.48	1689.57
865.65	1757.16
865.82	1630.18
865.98	1710.05
866.15	1730.53
866.32	1740.77
866.49	1742.82
866.65	1789.92
866.82	1667.05
866.99	1728.49
867.16	1714.15
867.32	1638.38
867.49	1646.57
867.66	1605.61
867.83	1724.39
867.99	1617.90
868.16	1671.14
868.33	1617.90
868.49	1673.19
868.66	1597.42
868.83	1777.64
868.99	1685.48
869.16	1669.09
869.33	1734.63
869.50	1791.97
869.66	1662.95
869.83	1677.29
870.00	1576.94
870.16	1837.03
870.33	1671.14
870.50	1714.15
870.66	1742.82
870.83	1798.12
871.00	1658.85
871.17	1726.44
871.33	1746.92
871.50	1681.38
871.67	1683.43
871.83	1568.74
872.00	1822.69
872.17	1654.76
872.33	1818.60
872.50	1787.88
872.67	1636.33
872.83	1665.00
873.00	1722.34
873.17	1738.73
873.33	1718.25
873.50	1753.06
873.67	1636.33
873.83	1710.05
874.00	1673.19
874.16	1738.73
874.33	1751.01
874.50	1576.94
874.66	1802.21
874.83	1679.33
875.00	1730.53
875.16	1798.12
875.33	1646.57
875.50	1572.84
875.66	1665.00
875.83	1691.62
875.99	1746.92
876.16	1638.38
876.33	1615.85
876.49	1679.33
876.66	1761.25
876.83	1648.61
876.99	1679.33
877.16	1705.96
877.32	1726.44
877.49	1689.57
877.66	1687.53
877.82	1820.64
877.99	1714.15
878.15	1648.61
878.32	1681.38
878.49	1685.48
878.65	1613.80
878.82	1701.86
878.98	1656.81
879.15	1748.97
879.32	1701.86
879.48	1728.49
879.65	1714.15
879.81	1675.24
879.98	1673.19
880.15	1697.77
880.31	1722.34
880.48	1587.18
880.64	1708.01
880.81	1720.29
880.97	1861.60
881.14	1830.88
881.31	1630.18
881.47	1880.04
881.64	1665.00
881.80	1593.32
881.97	1726.44
882.13	1787.88
882.30	1675.24
882.47	1628.14
882.63	1669.09
882.80	1705.96
882.96	1701.86
883.13	1685.48
883.29	1685.48
883.46	1675.24
883.62	1847.27
883.79	1673.19
883.95	1826.79
884.12	1738.73
884.29	1748.97
884.45	1699.81
884.62	1730.53
884.78	1656.81
884.95	1693.67
885.11	1708.01
885.28	1689.57
885.44	1679.33
885.61	1726.44
885.77	1791.97
885.94	1681.38
886.10	1648.61
886.27	1740.77
886.43	1783.78
886.60	1740.77
886.76	1732.58
886.93	1710.05
887.09	1738.73
887.26	1669.09
887.42	1697.77
887.59	1783.78
887.75	1806.31
887.92	1683.43
888.08	1724.39
888.25	1753.06
888.41	1728.49
888.58	1599.46
888.74	1658.85
888.91	1628.14
>>>>>End Processed Spectral Data<<<<<
