SpectraSuite Data File
++++++++++++++++++++++++++++++++++++
Date: Mon Jun 06 16:39:37 CEST 2016
User: root
Dark Spectrum Present: No
Reference Spectrum Present: No
Number of Sampled Component Spectra: 1
Spectrometers: USB4C02835
Integration Time (usec): 100000 (USB4C02835)
Spectra Averaged: 1 (USB4C02835)
Boxcar Smoothing: 0 (USB4C02835)
Correct for Electrical Dark: No (USB4C02835)
Strobe/Lamp Enabled: No (USB4C02835)
Correct for Detector Non-linearity: No (USB4C02835)
Correct for Stray Light: No (USB4C02835)
Number of Pixels in Processed Spectrum: 3648
>>>>>Begin Processed Spectral Data<<<<<
177.47	1478.63
177.69	1478.63
177.91	1478.63
178.13	1533.93
178.36	1443.82
178.58	1691.62
178.80	1783.78
179.02	1705.96
179.24	1769.44
179.46	1718.25
179.68	1761.25
179.90	1697.77
180.13	1697.77
180.35	1667.05
180.57	1648.61
180.79	1718.25
181.01	1681.38
181.23	1865.70
181.45	1734.63
181.67	1742.82
181.90	1791.97
182.12	1669.09
182.34	1648.61
182.56	1683.43
182.78	1734.63
183.00	1722.34
183.22	1746.92
183.44	1576.94
183.66	1904.61
183.89	1787.88
184.11	1732.58
184.33	1697.77
184.55	1767.40
184.77	1683.43
184.99	1767.40
185.21	1714.15
185.43	1839.08
185.65	1675.24
185.87	1751.01
186.10	1767.40
186.32	1828.84
186.54	1744.87
186.76	1683.43
186.98	1738.73
187.20	1634.28
187.42	1726.44
187.64	1652.71
187.86	1660.90
188.08	1791.97
188.30	1720.29
188.52	1685.48
188.75	1773.54
188.97	1794.02
189.19	1703.91
189.41	1660.90
189.63	1728.49
189.85	1695.72
190.07	1632.23
190.29	1642.47
190.51	1746.92
190.73	1665.00
190.95	1734.63
191.17	1722.34
191.39	1669.09
191.61	1697.77
191.84	1634.28
192.06	1665.00
192.28	1648.61
192.50	1871.84
192.72	1695.72
192.94	1675.24
193.16	1775.59
193.38	1773.54
193.60	1605.61
193.82	1714.15
194.04	1748.97
194.26	1710.05
194.48	1708.01
194.70	1665.00
194.92	1736.68
195.14	1748.97
195.36	1607.66
195.58	1693.67
195.80	1759.21
196.02	1728.49
196.24	1662.95
196.46	1712.10
196.69	1646.57
196.91	1837.03
197.13	1736.68
197.35	1660.90
197.57	1828.84
197.79	1703.91
198.01	1732.58
198.23	1691.62
198.45	1699.81
198.67	1673.19
198.89	1615.85
199.11	1673.19
199.33	1691.62
199.55	1595.37
199.77	1728.49
199.99	1759.21
200.21	1611.75
200.43	1681.38
200.65	1654.76
200.87	1560.55
201.09	1671.14
201.31	1675.24
201.53	1765.35
201.75	1736.68
201.97	1695.72
202.19	1648.61
202.41	1763.30
202.63	1775.59
202.85	1724.39
203.07	1761.25
203.29	1705.96
203.51	1644.52
203.73	1650.66
203.95	1943.52
204.17	1660.90
204.39	1742.82
204.61	1695.72
204.83	1755.11
205.05	1759.21
205.27	1818.60
205.49	1800.16
205.71	1687.53
205.93	1642.47
206.15	1675.24
206.37	1753.06
206.59	1642.47
206.81	1724.39
207.03	1660.90
207.25	1642.47
207.47	1681.38
207.69	1685.48
207.91	1783.78
208.13	1861.60
208.34	1689.57
208.56	1685.48
208.78	1701.86
209.00	1695.72
209.22	1648.61
209.44	1687.53
209.66	1648.61
209.88	1683.43
210.10	1695.72
210.32	1693.67
210.54	1730.53
210.76	1687.53
210.98	1677.29
211.20	1540.07
211.42	1689.57
211.64	1781.73
211.86	1742.82
212.08	1708.01
212.30	1626.09
212.52	1751.01
212.74	1716.20
212.96	1759.21
213.17	1689.57
213.39	1777.64
213.61	1746.92
213.83	1624.04
214.05	1675.24
214.27	1775.59
214.49	1665.00
214.71	1720.29
214.93	1744.87
215.15	1718.25
215.37	1763.30
215.59	1531.88
215.81	1683.43
216.03	1810.40
216.24	1699.81
216.46	1656.81
216.68	1722.34
216.90	1800.16
217.12	1783.78
217.34	1712.10
217.56	1771.49
217.78	1759.21
218.00	1728.49
218.22	1701.86
218.44	1765.35
218.66	1728.49
218.87	1837.03
219.09	1732.58
219.31	1798.12
219.53	1775.59
219.75	1662.95
219.97	1724.39
220.19	1757.16
220.41	1650.66
220.63	1832.93
220.85	1746.92
221.06	1687.53
221.28	1853.41
221.50	1759.21
221.72	1742.82
221.94	1640.42
222.16	1773.54
222.38	1742.82
222.60	1767.40
222.82	1710.05
223.03	1705.96
223.25	1581.03
223.47	1769.44
223.69	1857.51
223.91	1771.49
224.13	1671.14
224.35	1632.23
224.57	1712.10
224.78	1773.54
225.00	1654.76
225.22	1695.72
225.44	1650.66
225.66	1779.68
225.88	1703.91
226.10	1693.67
226.32	1746.92
226.53	1775.59
226.75	1689.57
226.97	1681.38
227.19	1677.29
227.41	1644.52
227.63	1726.44
227.85	1640.42
228.06	1710.05
228.28	1681.38
228.50	1761.25
228.72	1673.19
228.94	1783.78
229.16	1601.51
229.37	1654.76
229.59	1642.47
229.81	1779.68
230.03	1728.49
230.25	1701.86
230.47	1646.57
230.69	1624.04
230.90	1734.63
231.12	1665.00
231.34	1798.12
231.56	1753.06
231.78	1617.90
232.00	1675.24
232.21	1693.67
232.43	1740.77
232.65	1628.14
232.87	1751.01
233.09	1720.29
233.30	1705.96
233.52	1730.53
233.74	1689.57
233.96	1679.33
234.18	1761.25
234.40	1742.82
234.61	1873.89
234.83	1597.42
235.05	1609.70
235.27	1847.27
235.49	1804.26
235.70	1736.68
235.92	1759.21
236.14	1736.68
236.36	1841.12
236.58	1595.37
236.79	1798.12
237.01	1722.34
237.23	1675.24
237.45	1753.06
237.67	1619.94
237.88	1652.71
238.10	1806.31
238.32	1656.81
238.54	1708.01
238.76	1751.01
238.97	1650.66
239.19	1685.48
239.41	1796.07
239.63	1742.82
239.85	1681.38
240.06	1677.29
240.28	1683.43
240.50	1730.53
240.72	1701.86
240.93	1710.05
241.15	1695.72
241.37	1765.35
241.59	1785.83
241.81	1648.61
242.02	1658.85
242.24	1798.12
242.46	1724.39
242.68	1628.14
242.89	1673.19
243.11	1740.77
243.33	1730.53
243.55	1742.82
243.76	1740.77
243.98	1673.19
244.20	1673.19
244.42	1742.82
244.64	1671.14
244.85	1624.04
245.07	1687.53
245.29	1767.40
245.51	1654.76
245.72	1720.29
245.94	1859.56
246.16	1695.72
246.38	1681.38
246.59	1691.62
246.81	1679.33
247.03	1675.24
247.24	1697.77
247.46	1705.96
247.68	1794.02
247.90	1667.05
248.11	1736.68
248.33	1763.30
248.55	1748.97
248.77	1652.71
248.98	1757.16
249.20	1734.63
249.42	1671.14
249.64	1710.05
249.85	1658.85
250.07	1748.97
250.29	1791.97
250.50	1777.64
250.72	1767.40
250.94	1755.11
251.16	1773.54
251.37	1822.69
251.59	1720.29
251.81	1724.39
252.02	1791.97
252.24	1652.71
252.46	1816.55
252.68	1669.09
252.89	1591.27
253.11	1656.81
253.33	1773.54
253.54	1738.73
253.76	1640.42
253.98	1708.01
254.20	1640.42
254.41	1662.95
254.63	1710.05
254.85	1552.36
255.06	1675.24
255.28	1753.06
255.50	1751.01
255.71	1720.29
255.93	1607.66
256.15	1675.24
256.36	1755.11
256.58	1609.70
256.80	1685.48
257.02	1665.00
257.23	1675.24
257.45	1736.68
257.67	1734.63
257.88	1654.76
258.10	1710.05
258.32	1757.16
258.53	1691.62
258.75	1853.41
258.97	1595.37
259.18	1724.39
259.40	1732.58
259.62	1816.55
259.83	1718.25
260.05	1716.20
260.27	1947.62
260.48	1773.54
260.70	1662.95
260.92	1644.52
261.13	1675.24
261.35	1662.95
261.57	1677.29
261.78	1611.75
262.00	1660.90
262.22	1773.54
262.43	1701.86
262.65	1740.77
262.86	1763.30
263.08	1777.64
263.30	1746.92
263.51	1578.98
263.73	1669.09
263.95	1796.07
264.16	1550.31
264.38	1662.95
264.60	1685.48
264.81	1640.42
265.03	1710.05
265.25	1761.25
265.46	1662.95
265.68	1808.36
265.89	1775.59
266.11	1591.27
266.33	1714.15
266.54	1757.16
266.76	1791.97
266.98	1806.31
267.19	1773.54
267.41	1773.54
267.62	1724.39
267.84	1628.14
268.06	1689.57
268.27	1740.77
268.49	1730.53
268.70	1810.40
268.92	1660.90
269.14	1716.20
269.35	1640.42
269.57	1708.01
269.79	1697.77
270.00	1675.24
270.22	1818.60
270.43	1726.44
270.65	1550.31
270.87	1748.97
271.08	1796.07
271.30	1726.44
271.51	1726.44
271.73	1748.97
271.95	1753.06
272.16	1697.77
272.38	1800.16
272.59	1654.76
272.81	1736.68
273.02	1740.77
273.24	1718.25
273.46	1740.77
273.67	1648.61
273.89	1738.73
274.10	1667.05
274.32	1755.11
274.54	1759.21
274.75	1734.63
274.97	1720.29
275.18	1718.25
275.40	1732.58
275.61	1734.63
275.83	1677.29
276.05	1621.99
276.26	1730.53
276.48	1791.97
276.69	1662.95
276.91	1646.57
277.12	1783.78
277.34	1753.06
277.55	1791.97
277.77	1738.73
277.99	1720.29
278.20	1689.57
278.42	1642.47
278.63	1669.09
278.85	1677.29
279.06	1675.24
279.28	1718.25
279.49	1796.07
279.71	1701.86
279.93	1789.92
280.14	1718.25
280.36	1705.96
280.57	1722.34
280.79	1718.25
281.00	1648.61
281.22	1677.29
281.43	1812.45
281.65	1589.22
281.86	1632.23
282.08	1767.40
282.29	1751.01
282.51	1654.76
282.73	1677.29
282.94	1630.18
283.16	1761.25
283.37	1824.74
283.59	1660.90
283.80	1691.62
284.02	1736.68
284.23	1730.53
284.45	1712.10
284.66	1665.00
284.88	1681.38
285.09	1767.40
285.31	1769.44
285.52	1744.87
285.74	1656.81
285.95	1761.25
286.17	1695.72
286.38	1771.49
286.60	1671.14
286.81	1626.09
287.03	1681.38
287.24	1736.68
287.46	1699.81
287.67	1703.91
287.89	1787.88
288.10	1693.67
288.32	1687.53
288.53	1808.36
288.75	1732.58
288.96	1732.58
289.18	1656.81
289.39	1701.86
289.61	1742.82
289.82	1798.12
290.04	1773.54
290.25	1691.62
290.47	1667.05
290.68	1671.14
290.90	1767.40
291.11	1679.33
291.33	1755.11
291.54	1708.01
291.76	1689.57
291.97	1683.43
292.18	1728.49
292.40	1697.77
292.61	1679.33
292.83	1847.27
293.04	1724.39
293.26	1746.92
293.47	1662.95
293.69	1640.42
293.90	1697.77
294.12	1703.91
294.33	1738.73
294.55	1724.39
294.76	1796.07
294.97	1812.45
295.19	1828.84
295.40	1730.53
295.62	1724.39
295.83	1744.87
296.05	1712.10
296.26	1791.97
296.48	1781.73
296.69	1683.43
296.90	1681.38
297.12	1779.68
297.33	1806.31
297.55	1714.15
297.76	1763.30
297.98	1783.78
298.19	1755.11
298.41	1751.01
298.62	1720.29
298.83	1804.26
299.05	1669.09
299.26	1636.33
299.48	1652.71
299.69	1746.92
299.90	1720.29
300.12	1669.09
300.33	1773.54
300.55	1689.57
300.76	1755.11
300.98	1636.33
301.19	1785.83
301.40	1677.29
301.62	1757.16
301.83	1789.92
302.05	1699.81
302.26	1761.25
302.47	1714.15
302.69	1640.42
302.90	1728.49
303.12	1550.31
303.33	1697.77
303.54	1804.26
303.76	1642.47
303.97	1720.29
304.19	1830.88
304.40	1632.23
304.61	1734.63
304.83	1796.07
305.04	1714.15
305.26	1703.91
305.47	1738.73
305.68	1677.29
305.90	1658.85
306.11	1781.73
306.33	1677.29
306.54	1683.43
306.75	1654.76
306.97	1578.98
307.18	1710.05
307.39	1648.61
307.61	1783.78
307.82	1691.62
308.04	1730.53
308.25	1701.86
308.46	1775.59
308.68	1675.24
308.89	1652.71
309.10	1800.16
309.32	1708.01
309.53	1705.96
309.74	1742.82
309.96	1734.63
310.17	1695.72
310.39	1744.87
310.60	1748.97
310.81	1701.86
311.03	1658.85
311.24	1843.17
311.45	1732.58
311.67	1869.80
311.88	1748.97
312.09	1693.67
312.31	1728.49
312.52	1755.11
312.73	1740.77
312.95	1648.61
313.16	1675.24
313.37	1763.30
313.59	1724.39
313.80	1796.07
314.01	1802.21
314.23	1673.19
314.44	1583.08
314.65	1712.10
314.87	1683.43
315.08	1660.90
315.29	1638.38
315.51	1716.20
315.72	1621.99
315.93	1820.64
316.15	1796.07
316.36	1693.67
316.57	1693.67
316.79	1714.15
317.00	1687.53
317.21	1742.82
317.43	1675.24
317.64	1759.21
317.85	1728.49
318.07	1654.76
318.28	1732.58
318.49	1767.40
318.70	1964.00
318.92	1791.97
319.13	1855.46
319.34	1918.95
319.56	1787.88
319.77	1794.02
319.98	1763.30
320.20	1777.64
320.41	1708.01
320.62	1748.97
320.83	1687.53
321.05	1820.64
321.26	1761.25
321.47	1738.73
321.69	1699.81
321.90	1611.75
322.11	1759.21
322.32	1697.77
322.54	1791.97
322.75	1693.67
322.96	1791.97
323.18	1671.14
323.39	1630.18
323.60	1607.66
323.81	1695.72
324.03	1628.14
324.24	1669.09
324.45	1722.34
324.66	1605.61
324.88	1738.73
325.09	1732.58
325.30	1742.82
325.52	1722.34
325.73	1781.73
325.94	1742.82
326.15	1642.47
326.37	1646.57
326.58	1755.11
326.79	1894.37
327.00	1693.67
327.22	1740.77
327.43	1691.62
327.64	1728.49
327.85	1714.15
328.07	1691.62
328.28	1810.40
328.49	1724.39
328.70	1740.77
328.92	1677.29
329.13	1697.77
329.34	1691.62
329.55	1843.17
329.76	1726.44
329.98	1687.53
330.19	1794.02
330.40	1736.68
330.61	1685.48
330.83	1796.07
331.04	1687.53
331.25	1777.64
331.46	1728.49
331.68	1660.90
331.89	1757.16
332.10	1718.25
332.31	1654.76
332.52	1693.67
332.74	1781.73
332.95	1665.00
333.16	1640.42
333.37	1746.92
333.58	1640.42
333.80	1744.87
334.01	1644.52
334.22	1660.90
334.43	1683.43
334.64	1755.11
334.86	1675.24
335.07	1730.53
335.28	1814.50
335.49	1648.61
335.70	1771.49
335.92	1710.05
336.13	1736.68
336.34	1708.01
336.55	1701.86
336.76	1710.05
336.98	1634.28
337.19	1720.29
337.40	1849.32
337.61	1832.93
337.82	1679.33
338.04	1834.98
338.25	1599.46
338.46	1632.23
338.67	1691.62
338.88	1687.53
339.09	1673.19
339.31	1593.32
339.52	1617.90
339.73	1619.94
339.94	1714.15
340.15	1777.64
340.36	1695.72
340.58	1759.21
340.79	1748.97
341.00	1783.78
341.21	1591.27
341.42	1810.40
341.63	1624.04
341.85	1734.63
342.06	1775.59
342.27	1675.24
342.48	1765.35
342.69	1597.42
342.90	1722.34
343.12	1677.29
343.33	1720.29
343.54	1726.44
343.75	1798.12
343.96	1699.81
344.17	1779.68
344.38	1695.72
344.60	1714.15
344.81	1632.23
345.02	1726.44
345.23	1708.01
345.44	1746.92
345.65	1779.68
345.86	1734.63
346.07	1728.49
346.29	1599.46
346.50	1726.44
346.71	1722.34
346.92	1775.59
347.13	1804.26
347.34	1683.43
347.55	1656.81
347.76	1712.10
347.98	1624.04
348.19	1595.37
348.40	1824.74
348.61	1677.29
348.82	1818.60
349.03	1777.64
349.24	1726.44
349.45	1820.64
349.66	1568.74
349.88	1658.85
350.09	1650.66
350.30	1857.51
350.51	1777.64
350.72	1712.10
350.93	1681.38
351.14	1665.00
351.35	1777.64
351.56	1693.67
351.77	1648.61
351.99	1800.16
352.20	1812.45
352.41	1722.34
352.62	1644.52
352.83	1769.44
353.04	1656.81
353.25	1708.01
353.46	1751.01
353.67	1802.21
353.88	1628.14
354.09	1742.82
354.30	1771.49
354.52	1773.54
354.73	1734.63
354.94	1650.66
355.15	1724.39
355.36	1849.32
355.57	1607.66
355.78	1685.48
355.99	1675.24
356.20	1714.15
356.41	1818.60
356.62	1697.77
356.83	1714.15
357.04	1794.02
357.25	1665.00
357.46	1765.35
357.68	1636.33
357.89	1603.56
358.10	1683.43
358.31	1675.24
358.52	1728.49
358.73	1605.61
358.94	1654.76
359.15	1650.66
359.36	1763.30
359.57	1689.57
359.78	1775.59
359.99	1753.06
360.20	1654.76
360.41	1654.76
360.62	1699.81
360.83	1638.38
361.04	1691.62
361.25	1730.53
361.46	1759.21
361.67	1720.29
361.88	1773.54
362.09	1720.29
362.30	1697.77
362.51	1656.81
362.72	1691.62
362.93	1736.68
363.14	1722.34
363.35	1751.01
363.56	1660.90
363.78	1761.25
363.99	1730.53
364.20	1669.09
364.41	1751.01
364.62	1804.26
364.83	1691.62
365.04	1748.97
365.25	1724.39
365.46	1832.93
365.67	1708.01
365.88	1689.57
366.09	1691.62
366.30	1708.01
366.51	1755.11
366.72	1644.52
366.93	1753.06
367.14	1722.34
367.35	1783.78
367.56	1695.72
367.77	1742.82
367.98	1701.86
368.18	1724.39
368.39	1689.57
368.60	1675.24
368.81	1769.44
369.02	1789.92
369.23	1701.86
369.44	1621.99
369.65	1656.81
369.86	1685.48
370.07	1798.12
370.28	1667.05
370.49	1771.49
370.70	1728.49
370.91	1722.34
371.12	1632.23
371.33	1769.44
371.54	1665.00
371.75	1783.78
371.96	1593.32
372.17	1689.57
372.38	1648.61
372.59	1693.67
372.80	1693.67
373.01	1816.55
373.22	1744.87
373.43	1765.35
373.64	1660.90
373.85	1757.16
374.06	1830.88
374.26	1787.88
374.47	1650.66
374.68	1787.88
374.89	1708.01
375.10	1753.06
375.31	1804.26
375.52	1679.33
375.73	1763.30
375.94	1677.29
376.15	1796.07
376.36	1673.19
376.57	1605.61
376.78	1785.83
376.99	1685.48
377.20	1796.07
377.40	1765.35
377.61	1802.21
377.82	1656.81
378.03	1759.21
378.24	1683.43
378.45	1679.33
378.66	1695.72
378.87	1519.59
379.08	1550.31
379.29	1728.49
379.50	1761.25
379.71	1658.85
379.91	1798.12
380.12	1677.29
380.33	1730.53
380.54	1705.96
380.75	1716.20
380.96	1755.11
381.17	1771.49
381.38	1658.85
381.59	1687.53
381.80	1794.02
382.00	1830.88
382.21	1800.16
382.42	1814.50
382.63	1853.41
382.84	1751.01
383.05	1787.88
383.26	1736.68
383.47	1728.49
383.68	1724.39
383.88	1763.30
384.09	1726.44
384.30	1796.07
384.51	1701.86
384.72	1683.43
384.93	1652.71
385.14	1720.29
385.35	1843.17
385.55	1708.01
385.76	1783.78
385.97	1740.77
386.18	1640.42
386.39	1691.62
386.60	1740.77
386.81	1673.19
387.02	1648.61
387.22	1685.48
387.43	1773.54
387.64	1802.21
387.85	1845.22
388.06	2109.41
388.27	4253.63
388.48	6713.24
388.68	8183.68
388.89	9586.54
389.10	9752.43
389.31	8484.73
389.52	7702.41
389.73	6752.15
389.93	6148.00
390.14	5801.90
390.35	5238.70
390.56	4532.15
390.77	3825.61
390.98	3016.66
391.18	2443.23
391.39	2086.88
391.60	1890.28
391.81	1900.52
392.02	1675.24
392.23	1822.69
392.43	1732.58
392.64	1859.56
392.85	1742.82
393.06	1806.31
393.27	1767.40
393.47	1728.49
393.68	1765.35
393.89	1683.43
394.10	1785.83
394.31	1716.20
394.52	1595.37
394.72	1681.38
394.93	1785.83
395.14	1644.52
395.35	1771.49
395.56	1687.53
395.76	1834.98
395.97	1806.31
396.18	1791.97
396.39	1789.92
396.60	2045.92
396.80	1865.70
397.01	1906.66
397.22	1845.22
397.43	1779.68
397.64	1757.16
397.84	1787.88
398.05	1925.09
398.26	1804.26
398.47	1843.17
398.67	1814.50
398.88	1742.82
399.09	1765.35
399.30	1738.73
399.51	1820.64
399.71	1689.57
399.92	1785.83
400.13	1730.53
400.34	1759.21
400.54	1658.85
400.75	1808.36
400.96	1716.20
401.17	1855.46
401.37	1744.87
401.58	1671.14
401.79	1746.92
402.00	1920.99
402.21	1984.48
402.41	1976.29
402.62	2029.54
402.83	2064.35
403.04	1990.63
403.24	2095.07
403.45	1796.07
403.66	1882.08
403.87	1896.42
404.07	1918.95
404.28	1918.95
404.49	1857.51
404.70	1712.10
404.90	1763.30
405.11	1689.57
405.32	1794.02
405.52	1742.82
405.73	1574.89
405.94	1681.38
406.15	1755.11
406.35	1710.05
406.56	1826.79
406.77	1779.68
406.98	1765.35
407.18	1669.09
407.39	1896.42
407.60	1787.88
407.80	1757.16
408.01	1632.23
408.22	1662.95
408.43	1673.19
408.63	1740.77
408.84	1669.09
409.05	1798.12
409.25	1714.15
409.46	1652.71
409.67	1701.86
409.88	1730.53
410.08	1720.29
410.29	1726.44
410.50	1748.97
410.70	1675.24
410.91	1615.85
411.12	1748.97
411.32	1630.18
411.53	1708.01
411.74	1738.73
411.95	1812.45
412.15	1744.87
412.36	1839.08
412.57	1789.92
412.77	1841.12
412.98	1734.63
413.19	1687.53
413.39	1755.11
413.60	1775.59
413.81	1798.12
414.01	1605.61
414.22	1769.44
414.43	1759.21
414.63	1718.25
414.84	1787.88
415.05	1738.73
415.25	1744.87
415.46	1816.55
415.67	1697.77
415.87	1718.25
416.08	1734.63
416.29	1746.92
416.49	1826.79
416.70	1658.85
416.91	1640.42
417.11	1681.38
417.32	1800.16
417.53	1808.36
417.73	1798.12
417.94	1595.37
418.15	1763.30
418.35	1673.19
418.56	1732.58
418.77	1789.92
418.97	1785.83
419.18	1703.91
419.38	1644.52
419.59	1701.86
419.80	1791.97
420.00	1695.72
420.21	1724.39
420.42	1734.63
420.62	1732.58
420.83	1669.09
421.04	1638.38
421.24	1724.39
421.45	1775.59
421.65	1755.11
421.86	1732.58
422.07	1705.96
422.27	1722.34
422.48	1701.86
422.69	1708.01
422.89	1808.36
423.10	1800.16
423.30	1785.83
423.51	1787.88
423.72	1714.15
423.92	1730.53
424.13	1687.53
424.33	1771.49
424.54	1839.08
424.75	1665.00
424.95	1742.82
425.16	1761.25
425.36	1738.73
425.57	1826.79
425.78	1720.29
425.98	1730.53
426.19	1759.21
426.39	1665.00
426.60	1640.42
426.81	1908.71
427.01	1738.73
427.22	1660.90
427.42	1697.77
427.63	1718.25
427.83	1767.40
428.04	1871.84
428.25	1767.40
428.45	1722.34
428.66	1771.49
428.86	1718.25
429.07	1638.38
429.28	1708.01
429.48	1675.24
429.69	1691.62
429.89	1718.25
430.10	1585.13
430.30	1736.68
430.51	1773.54
430.71	1638.38
430.92	1681.38
431.13	1710.05
431.33	1779.68
431.54	1767.40
431.74	1734.63
431.95	1877.99
432.15	1679.33
432.36	1673.19
432.56	1677.29
432.77	1789.92
432.98	1816.55
433.18	1714.15
433.39	1730.53
433.59	1681.38
433.80	1812.45
434.00	1900.52
434.21	1685.48
434.41	1660.90
434.62	1789.92
434.82	1687.53
435.03	1624.04
435.23	1771.49
435.44	1628.14
435.64	1683.43
435.85	1771.49
436.06	1759.21
436.26	1708.01
436.47	1773.54
436.67	1708.01
436.88	1701.86
437.08	1720.29
437.29	1865.70
437.49	1789.92
437.70	1759.21
437.90	1701.86
438.11	1843.17
438.31	1787.88
438.52	1820.64
438.72	1884.13
438.93	1869.80
439.13	1841.12
439.34	1882.08
439.54	1753.06
439.75	1863.65
439.95	1863.65
440.16	1671.14
440.36	1740.77
440.57	1771.49
440.77	1771.49
440.98	1714.15
441.18	1796.07
441.39	1697.77
441.59	1705.96
441.80	1871.84
442.00	1763.30
442.21	1843.17
442.41	1648.61
442.62	1791.97
442.82	1718.25
443.02	1730.53
443.23	1773.54
443.43	1697.77
443.64	1794.02
443.84	1640.42
444.05	1771.49
444.25	1722.34
444.46	1673.19
444.66	1767.40
444.87	1808.36
445.07	1591.27
445.28	1771.49
445.48	1746.92
445.69	1732.58
445.89	1943.52
446.09	1730.53
446.30	1984.48
446.50	2625.50
446.71	3731.40
446.91	4417.47
447.12	4820.92
447.32	4822.97
447.53	4368.32
447.73	3907.52
447.93	3598.28
448.14	3246.03
448.34	3221.45
448.55	2883.54
448.75	2807.77
448.96	2731.99
449.16	2371.55
449.36	2271.20
449.57	2088.93
449.77	1916.90
449.98	1808.36
450.18	1820.64
450.39	1847.27
450.59	1826.79
450.79	1798.12
451.00	1689.57
451.20	1761.25
451.41	1736.68
451.61	1816.55
451.81	1791.97
452.02	1759.21
452.22	1734.63
452.43	1701.86
452.63	1708.01
452.84	1748.97
453.04	1730.53
453.24	1757.16
453.45	1769.44
453.65	1718.25
453.86	1789.92
454.06	1708.01
454.26	1730.53
454.47	1671.14
454.67	1855.46
454.87	1843.17
455.08	1738.73
455.28	1843.17
455.49	1748.97
455.69	1759.21
455.89	1877.99
456.10	1865.70
456.30	1675.24
456.51	1761.25
456.71	1783.78
456.91	1765.35
457.12	1783.78
457.32	1796.07
457.52	1673.19
457.73	1810.40
457.93	1796.07
458.14	1710.05
458.34	1667.05
458.54	1710.05
458.75	1777.64
458.95	1757.16
459.15	1718.25
459.36	1771.49
459.56	1812.45
459.76	1900.52
459.97	1697.77
460.17	1812.45
460.37	1767.40
460.58	1726.44
460.78	1794.02
460.99	1730.53
461.19	1748.97
461.39	1755.11
461.60	1722.34
461.80	1712.10
462.00	1613.80
462.21	1759.21
462.41	1765.35
462.61	1636.33
462.82	1677.29
463.02	1804.26
463.22	1775.59
463.43	1769.44
463.63	1802.21
463.83	1798.12
464.04	1738.73
464.24	1751.01
464.44	1693.67
464.64	1708.01
464.85	1732.58
465.05	1783.78
465.25	1689.57
465.46	1695.72
465.66	1708.01
465.86	1812.45
466.07	1822.69
466.27	1744.87
466.47	1574.89
466.68	1683.43
466.88	1794.02
467.08	1759.21
467.29	1724.39
467.49	1705.96
467.69	1716.20
467.89	1761.25
468.10	1681.38
468.30	1800.16
468.50	1775.59
468.71	1785.83
468.91	1632.23
469.11	1857.51
469.31	1705.96
469.52	1691.62
469.72	1824.74
469.92	1875.94
470.13	1652.71
470.33	1777.64
470.53	1783.78
470.73	2086.88
470.94	2287.58
471.14	2326.49
471.34	2510.81
471.54	2418.65
471.75	2174.94
471.95	2074.59
472.15	2088.93
472.36	2039.78
472.56	2127.84
472.76	2080.74
472.96	2002.91
473.17	1943.52
473.37	1851.36
473.57	1767.40
473.77	1828.84
473.98	1732.58
474.18	1697.77
474.38	1828.84
474.58	1763.30
474.79	1665.00
474.99	1773.54
475.19	1865.70
475.39	1617.90
475.60	1828.84
475.80	1689.57
476.00	1652.71
476.20	1722.34
476.41	1726.44
476.61	1855.46
476.81	1761.25
477.01	1701.86
477.21	1873.89
477.42	1837.03
477.62	1640.42
477.82	1818.60
478.02	1755.11
478.23	1763.30
478.43	1654.76
478.63	1697.77
478.83	1730.53
479.03	1775.59
479.24	1746.92
479.44	1824.74
479.64	1609.70
479.84	1656.81
480.04	1699.81
480.25	1763.30
480.45	1734.63
480.65	1740.77
480.85	1761.25
481.06	1822.69
481.26	1689.57
481.46	1726.44
481.66	1757.16
481.86	1630.18
482.06	1837.03
482.27	1796.07
482.47	1650.66
482.67	1740.77
482.87	1714.15
483.07	1783.78
483.28	1628.14
483.48	1705.96
483.68	1681.38
483.88	1681.38
484.08	1630.18
484.29	1677.29
484.49	1787.88
484.69	1763.30
484.89	1843.17
485.09	1716.20
485.29	1783.78
485.50	1755.11
485.70	1728.49
485.90	1812.45
486.10	1679.33
486.30	1804.26
486.50	1814.50
486.71	1703.91
486.91	1769.44
487.11	1802.21
487.31	1626.09
487.51	1748.97
487.71	1621.99
487.91	1679.33
488.12	1638.38
488.32	1538.02
488.52	1679.33
488.72	1628.14
488.92	1818.60
489.12	1763.30
489.32	1818.60
489.53	1826.79
489.73	1654.76
489.93	1804.26
490.13	1671.14
490.33	1679.33
490.53	1705.96
490.73	1708.01
490.94	1648.61
491.14	1787.88
491.34	1843.17
491.54	2131.94
491.74	2594.78
491.94	2867.16
492.14	2944.98
492.34	3024.85
492.54	2791.38
492.75	2443.23
492.95	2451.42
493.15	2330.59
493.35	2283.49
493.55	2254.81
493.75	2172.89
493.95	2189.28
494.15	1988.58
494.35	1849.32
494.56	1812.45
494.76	1808.36
494.96	1787.88
495.16	1796.07
495.36	1775.59
495.56	1781.73
495.76	1787.88
495.96	1773.54
496.16	1708.01
496.36	1814.50
496.56	1658.85
496.77	1832.93
496.97	1783.78
497.17	1869.80
497.37	1685.48
497.57	1796.07
497.77	1761.25
497.97	1705.96
498.17	1757.16
498.37	1691.62
498.57	1763.30
498.77	1744.87
498.97	1751.01
499.17	1789.92
499.38	1761.25
499.58	1730.53
499.78	1773.54
499.98	1865.70
500.18	1781.73
500.38	1763.30
500.58	1886.18
500.78	2543.58
500.98	4632.51
501.18	5937.06
501.38	6739.87
501.58	7239.57
501.78	6801.30
501.98	5590.95
502.18	4882.36
502.38	4444.09
502.58	4104.13
502.78	3770.31
502.98	3729.35
503.18	3559.37
503.38	3123.15
503.59	2863.06
503.79	2654.17
503.99	2531.29
504.19	2185.18
504.39	2168.80
504.59	2185.18
504.79	2076.64
504.99	2115.55
505.19	1939.43
505.39	1875.94
505.59	1933.28
505.79	1931.23
505.99	1933.28
506.19	1863.65
506.39	1806.31
506.59	1771.49
506.79	1791.97
506.99	1787.88
507.19	1744.87
507.39	1767.40
507.59	1675.24
507.79	1753.06
507.99	1748.97
508.19	1703.91
508.39	1705.96
508.59	1701.86
508.79	1806.31
508.99	1865.70
509.19	1732.58
509.39	1845.22
509.59	1662.95
509.79	1621.99
509.99	1744.87
510.19	1812.45
510.39	1802.21
510.59	1740.77
510.79	1722.34
510.99	1617.90
511.19	1736.68
511.39	1841.12
511.59	1765.35
511.79	1863.65
511.99	1699.81
512.19	1849.32
512.38	1695.72
512.58	1685.48
512.78	1734.63
512.98	1880.04
513.18	1863.65
513.38	1632.23
513.58	1753.06
513.78	1779.68
513.98	1806.31
514.18	1693.67
514.38	1681.38
514.58	1759.21
514.78	1726.44
514.98	1626.09
515.18	1683.43
515.38	1685.48
515.58	1777.64
515.78	1736.68
515.98	1689.57
516.18	1753.06
516.38	1705.96
516.57	1697.77
516.77	1658.85
516.97	1771.49
517.17	1722.34
517.37	1673.19
517.57	1861.60
517.77	1728.49
517.97	1683.43
518.17	1808.36
518.37	1658.85
518.57	1718.25
518.77	1718.25
518.97	1787.88
519.16	1728.49
519.36	1851.36
519.56	1730.53
519.76	1695.72
519.96	1742.82
520.16	1800.16
520.36	1699.81
520.56	1826.79
520.76	1705.96
520.96	1660.90
521.16	1775.59
521.35	1785.83
521.55	1853.41
521.75	1740.77
521.95	1798.12
522.15	1832.93
522.35	1621.99
522.55	1746.92
522.75	1783.78
522.95	1767.40
523.14	1697.77
523.34	1769.44
523.54	1705.96
523.74	1884.13
523.94	1640.42
524.14	1630.18
524.34	1796.07
524.54	1769.44
524.73	1779.68
524.93	1763.30
525.13	1714.15
525.33	1675.24
525.53	1886.18
525.73	1751.01
525.93	1773.54
526.13	1720.29
526.32	1828.84
526.52	1755.11
526.72	1818.60
526.92	1748.97
527.12	1726.44
527.32	1660.90
527.52	1718.25
527.71	1812.45
527.91	1701.86
528.11	1718.25
528.31	1650.66
528.51	1660.90
528.71	1814.50
528.90	1722.34
529.10	1722.34
529.30	1794.02
529.50	1624.04
529.70	1744.87
529.90	1734.63
530.09	1748.97
530.29	1658.85
530.49	1748.97
530.69	1863.65
530.89	1734.63
531.09	1726.44
531.28	1796.07
531.48	1779.68
531.68	1796.07
531.88	1832.93
532.08	1777.64
532.28	1677.29
532.47	1771.49
532.67	1798.12
532.87	1767.40
533.07	1732.58
533.27	1791.97
533.46	1791.97
533.66	1826.79
533.86	1734.63
534.06	1761.25
534.26	1734.63
534.45	1806.31
534.65	1748.97
534.85	1734.63
535.05	1742.82
535.25	1787.88
535.44	1761.25
535.64	1755.11
535.84	1691.62
536.04	1738.73
536.24	1710.05
536.43	1654.76
536.63	1724.39
536.83	1779.68
537.03	1705.96
537.22	1626.09
537.42	1636.33
537.62	1734.63
537.82	1740.77
538.02	1849.32
538.21	1779.68
538.41	1974.24
538.61	1775.59
538.81	1730.53
539.00	1781.73
539.20	1607.66
539.40	1716.20
539.60	1679.33
539.79	1783.78
539.99	1673.19
540.19	1681.38
540.39	1748.97
540.58	1718.25
540.78	1789.92
540.98	1736.68
541.18	1798.12
541.37	1767.40
541.57	1761.25
541.77	1679.33
541.97	1683.43
542.16	1675.24
542.36	1646.57
542.56	1736.68
542.76	1914.85
542.95	1767.40
543.15	1695.72
543.35	1773.54
543.54	1697.77
543.74	1724.39
543.94	1853.41
544.14	1742.82
544.33	1773.54
544.53	1738.73
544.73	1757.16
544.93	1775.59
545.12	1699.81
545.32	1755.11
545.52	1785.83
545.71	1632.23
545.91	1648.61
546.11	1708.01
546.30	1630.18
546.50	1830.88
546.70	1779.68
546.90	1732.58
547.09	1650.66
547.29	1726.44
547.49	1808.36
547.68	1730.53
547.88	1665.00
548.08	1736.68
548.27	2146.27
548.47	1730.53
548.67	1763.30
548.87	1765.35
549.06	1769.44
549.26	1730.53
549.46	1824.74
549.65	1714.15
549.85	1746.92
550.05	1869.80
550.24	1718.25
550.44	1816.55
550.64	1771.49
550.83	1771.49
551.03	1783.78
551.23	1826.79
551.42	1820.64
551.62	1755.11
551.82	1773.54
552.01	1667.05
552.21	1869.80
552.41	1851.36
552.60	1867.75
552.80	1849.32
553.00	1755.11
553.19	1738.73
553.39	1869.80
553.59	1671.14
553.78	1701.86
553.98	1759.21
554.17	1736.68
554.37	1777.64
554.57	1853.41
554.76	1767.40
554.96	1769.44
555.16	1779.68
555.35	1744.87
555.55	1826.79
555.75	1804.26
555.94	1732.58
556.14	1699.81
556.33	1720.29
556.53	1769.44
556.73	1740.77
556.92	1783.78
557.12	1869.80
557.32	1810.40
557.51	1808.36
557.71	1783.78
557.90	1910.75
558.10	1808.36
558.30	1787.88
558.49	1751.01
558.69	1761.25
558.88	1810.40
559.08	1689.57
559.28	1810.40
559.47	1755.11
559.67	1816.55
559.86	1837.03
560.06	1779.68
560.26	1673.19
560.45	1753.06
560.65	1695.72
560.84	1914.85
561.04	1677.29
561.24	1781.73
561.43	1640.42
561.63	1779.68
561.82	1824.74
562.02	1767.40
562.22	1783.78
562.41	1662.95
562.61	1722.34
562.80	1718.25
563.00	1896.42
563.19	1802.21
563.39	1787.88
563.59	1863.65
563.78	1697.77
563.98	1654.76
564.17	1636.33
564.37	1617.90
564.56	1777.64
564.76	1683.43
564.96	1804.26
565.15	1759.21
565.35	1898.47
565.54	1779.68
565.74	1738.73
565.93	1808.36
566.13	1771.49
566.32	1777.64
566.52	1796.07
566.71	1824.74
566.91	1875.94
567.11	1708.01
567.30	1742.82
567.50	1791.97
567.69	1808.36
567.89	1710.05
568.08	1689.57
568.28	1732.58
568.47	1675.24
568.67	1660.90
568.86	1798.12
569.06	1771.49
569.25	1730.53
569.45	1681.38
569.64	1699.81
569.84	1751.01
570.04	1781.73
570.23	1730.53
570.43	1738.73
570.62	1736.68
570.82	1822.69
571.01	1781.73
571.21	1732.58
571.40	1742.82
571.60	1820.64
571.79	1771.49
571.99	1808.36
572.18	1705.96
572.38	1759.21
572.57	1740.77
572.77	1765.35
572.96	1882.08
573.16	1730.53
573.35	1687.53
573.55	1896.42
573.74	1761.25
573.94	1697.77
574.13	1691.62
574.33	1785.83
574.52	1826.79
574.71	1855.46
574.91	1732.58
575.10	1673.19
575.30	1757.16
575.49	1705.96
575.69	1765.35
575.88	1724.39
576.08	1746.92
576.27	1839.08
576.47	1759.21
576.66	1830.88
576.86	1753.06
577.05	1771.49
577.25	1855.46
577.44	1992.67
577.64	1673.19
577.83	1837.03
578.02	1734.63
578.22	1837.03
578.41	1855.46
578.61	1724.39
578.80	1748.97
579.00	1773.54
579.19	1753.06
579.39	1730.53
579.58	1755.11
579.77	1734.63
579.97	1808.36
580.16	1861.60
580.36	1818.60
580.55	1902.56
580.75	1767.40
580.94	1785.83
581.13	1873.89
581.33	1804.26
581.52	1787.88
581.72	1871.84
581.91	1814.50
582.11	1746.92
582.30	1861.60
582.49	1806.31
582.69	1824.74
582.88	1753.06
583.08	1759.21
583.27	1904.61
583.47	1781.73
583.66	1744.87
583.85	1687.53
584.05	1685.48
584.24	1822.69
584.44	1742.82
584.63	1839.08
584.82	1845.22
585.02	1853.41
585.21	1890.28
585.41	1865.70
585.60	1794.02
585.79	1898.47
585.99	1976.29
586.18	1939.43
586.37	2267.10
586.57	3330.00
586.76	9672.56
586.96	24274.57
587.15	34393.59
587.34	40072.60
587.54	41934.21
587.73	36410.84
587.93	26291.82
588.12	21538.49
588.31	18292.46
588.51	16213.77
588.70	15183.64
588.89	14102.31
589.09	12619.58
589.28	11063.13
589.47	9527.15
589.67	8089.48
589.86	6475.68
590.06	4868.02
590.25	4020.16
590.44	3135.44
590.64	2570.20
590.83	2252.77
591.02	2117.60
591.22	1939.43
591.41	1957.86
591.60	1849.32
591.80	1918.95
591.99	1816.55
592.18	1796.07
592.38	1875.94
592.57	1730.53
592.76	1804.26
592.96	1804.26
593.15	1787.88
593.34	1832.93
593.54	1740.77
593.73	1828.84
593.92	1748.97
594.12	1753.06
594.31	1800.16
594.50	1810.40
594.70	1759.21
594.89	1822.69
595.08	1712.10
595.28	1822.69
595.47	1894.37
595.66	1779.68
595.86	1662.95
596.05	1769.44
596.24	1753.06
596.43	1908.71
596.63	1832.93
596.82	1855.46
597.01	1822.69
597.21	1877.99
597.40	1796.07
597.59	1810.40
597.79	1736.68
597.98	1816.55
598.17	1767.40
598.36	1769.44
598.56	1718.25
598.75	1734.63
598.94	1720.29
599.14	1765.35
599.33	1705.96
599.52	1820.64
599.71	1802.21
599.91	1791.97
600.10	1787.88
600.29	1779.68
600.48	1775.59
600.68	1787.88
600.87	1777.64
601.06	1689.57
601.26	1730.53
601.45	1824.74
601.64	1701.86
601.83	1933.28
602.03	1662.95
602.22	1714.15
602.41	1753.06
602.60	1886.18
602.80	1796.07
602.99	1691.62
603.18	1746.92
603.37	1705.96
603.57	1712.10
603.76	1884.13
603.95	1847.27
604.14	1732.58
604.34	1708.01
604.53	1714.15
604.72	1796.07
604.91	1732.58
605.10	1742.82
605.30	1691.62
605.49	1912.80
605.68	1730.53
605.87	1832.93
606.07	1724.39
606.26	1740.77
606.45	1695.72
606.64	1775.59
606.84	1771.49
607.03	1720.29
607.22	1763.30
607.41	1630.18
607.60	1751.01
607.80	1761.25
607.99	1658.85
608.18	1665.00
608.37	1730.53
608.56	1669.09
608.76	1832.93
608.95	1832.93
609.14	1726.44
609.33	1808.36
609.52	1812.45
609.72	1716.20
609.91	1718.25
610.10	1761.25
610.29	1853.41
610.48	1783.78
610.68	1732.58
610.87	1728.49
611.06	1744.87
611.25	1800.16
611.44	1818.60
611.63	1763.30
611.83	1783.78
612.02	1656.81
612.21	1796.07
612.40	1628.14
612.59	1728.49
612.79	1740.77
612.98	1744.87
613.17	1818.60
613.36	1736.68
613.55	1789.92
613.74	1718.25
613.93	1714.15
614.13	1796.07
614.32	1726.44
614.51	1697.77
614.70	1761.25
614.89	1730.53
615.08	1769.44
615.28	2068.45
615.47	1685.48
615.66	1675.24
615.85	1757.16
616.04	1785.83
616.23	1748.97
616.42	1699.81
616.62	1771.49
616.81	1718.25
617.00	1697.77
617.19	1732.58
617.38	1673.19
617.57	1673.19
617.76	1771.49
617.95	1746.92
618.15	1769.44
618.34	1861.60
618.53	1650.66
618.72	1822.69
618.91	1857.51
619.10	1834.98
619.29	1765.35
619.48	1734.63
619.68	1769.44
619.87	1773.54
620.06	1574.89
620.25	1753.06
620.44	1724.39
620.63	1828.84
620.82	1716.20
621.01	1751.01
621.20	1759.21
621.39	1746.92
621.59	1728.49
621.78	1679.33
621.97	1748.97
622.16	1781.73
622.35	1810.40
622.54	1800.16
622.73	1816.55
622.92	1624.04
623.11	1710.05
623.30	1726.44
623.49	1808.36
623.68	1738.73
623.88	1806.31
624.07	1724.39
624.26	1736.68
624.45	1718.25
624.64	1722.34
624.83	1710.05
625.02	1658.85
625.21	1705.96
625.40	1724.39
625.59	1761.25
625.78	1759.21
625.97	1708.01
626.16	1742.82
626.35	1734.63
626.54	1728.49
626.74	1824.74
626.93	1675.24
627.12	1710.05
627.31	1814.50
627.50	1800.16
627.69	1724.39
627.88	1753.06
628.07	1671.14
628.26	1619.94
628.45	1697.77
628.64	1658.85
628.83	1701.86
629.02	1632.23
629.21	1775.59
629.40	1753.06
629.59	1671.14
629.78	1716.20
629.97	1753.06
630.16	1685.48
630.35	1689.57
630.54	1746.92
630.73	1667.05
630.92	1806.31
631.11	1630.18
631.30	1765.35
631.49	1796.07
631.68	1722.34
631.87	1746.92
632.06	1646.57
632.25	1796.07
632.44	1724.39
632.63	1683.43
632.82	1701.86
633.01	1669.09
633.20	1724.39
633.39	1677.29
633.58	1642.47
633.77	1730.53
633.96	1798.12
634.15	1800.16
634.34	1787.88
634.53	1724.39
634.72	1660.90
634.91	1662.95
635.10	1773.54
635.29	1683.43
635.48	1740.77
635.67	1669.09
635.86	1660.90
636.05	1748.97
636.24	1628.14
636.43	1685.48
636.62	1781.73
636.81	1599.46
637.00	1728.49
637.19	1820.64
637.38	1751.01
637.57	1607.66
637.76	1787.88
637.95	1740.77
638.14	1726.44
638.33	1789.92
638.52	1712.10
638.71	1716.20
638.89	1603.56
639.08	1902.56
639.27	1718.25
639.46	1691.62
639.65	1751.01
639.84	1765.35
640.03	1824.74
640.22	1656.81
640.41	1853.41
640.60	1701.86
640.79	1781.73
640.98	1722.34
641.17	1673.19
641.36	1728.49
641.55	1855.46
641.74	1636.33
641.92	1740.77
642.11	1617.90
642.30	1763.30
642.49	1654.76
642.68	1708.01
642.87	1724.39
643.06	1746.92
643.25	1736.68
643.44	1660.90
643.63	1699.81
643.82	1718.25
644.00	1724.39
644.19	1755.11
644.38	1695.72
644.57	1767.40
644.76	1683.43
644.95	1748.97
645.14	1777.64
645.33	1689.57
645.52	1755.11
645.71	1658.85
645.89	1626.09
646.08	1714.15
646.27	1708.01
646.46	1855.46
646.65	1669.09
646.84	1722.34
647.03	1677.29
647.22	1828.84
647.40	1757.16
647.59	1710.05
647.78	1617.90
647.97	1654.76
648.16	1751.01
648.35	1814.50
648.54	1699.81
648.73	1779.68
648.91	1763.30
649.10	1710.05
649.29	1681.38
649.48	1732.58
649.67	1701.86
649.86	1734.63
650.05	1685.48
650.23	1748.97
650.42	1603.56
650.61	1755.11
650.80	1796.07
650.99	1787.88
651.18	1769.44
651.36	1851.36
651.55	1648.61
651.74	1701.86
651.93	1650.66
652.12	1648.61
652.31	1720.29
652.49	1683.43
652.68	1773.54
652.87	1773.54
653.06	1705.96
653.25	1841.12
653.44	1607.66
653.62	1837.03
653.81	1769.44
654.00	1763.30
654.19	1681.38
654.38	1828.84
654.56	1796.07
654.75	1681.38
654.94	1738.73
655.13	1699.81
655.32	1746.92
655.51	1804.26
655.69	1757.16
655.88	1783.78
656.07	1642.47
656.26	1748.97
656.45	1708.01
656.63	1767.40
656.82	1773.54
657.01	1796.07
657.20	1806.31
657.38	1834.98
657.57	1720.29
657.76	1669.09
657.95	1771.49
658.14	1667.05
658.32	1720.29
658.51	1642.47
658.70	1689.57
658.89	1740.77
659.08	1779.68
659.26	1843.17
659.45	1646.57
659.64	1740.77
659.83	1695.72
660.01	1918.95
660.20	1789.92
660.39	1744.87
660.58	1656.81
660.76	1751.01
660.95	1681.38
661.14	1718.25
661.33	1591.27
661.51	1671.14
661.70	1730.53
661.89	1708.01
662.08	1667.05
662.26	1691.62
662.45	1689.57
662.64	1814.50
662.83	1726.44
663.01	1615.85
663.20	1773.54
663.39	1839.08
663.58	1703.91
663.76	1761.25
663.95	1841.12
664.14	1689.57
664.32	1681.38
664.51	1681.38
664.70	1607.66
664.89	1771.49
665.07	1697.77
665.26	1796.07
665.45	1697.77
665.64	1779.68
665.82	1791.97
666.01	1800.16
666.20	1701.86
666.38	1822.69
666.57	1828.84
666.76	2111.46
666.95	4530.11
667.13	10252.13
667.32	15310.61
667.51	17878.77
667.69	18790.11
667.88	17583.86
668.07	12537.66
668.25	9693.04
668.44	8062.85
668.63	7331.73
668.81	6848.41
669.00	6401.95
669.19	5744.55
669.38	5056.43
669.56	4526.01
669.75	4038.59
669.94	3405.77
670.12	2852.82
670.31	2625.50
670.50	2254.81
670.68	2058.21
670.87	1888.23
671.06	1822.69
671.24	1783.78
671.43	1908.71
671.62	1787.88
671.80	1777.64
671.99	1761.25
672.18	1769.44
672.36	1759.21
672.55	1746.92
672.74	1746.92
672.92	1660.90
673.11	1685.48
673.29	1671.14
673.48	1783.78
673.67	1708.01
673.85	1851.36
674.04	1665.00
674.23	1712.10
674.41	1875.94
674.60	1648.61
674.79	1652.71
674.97	1732.58
675.16	1724.39
675.34	1804.26
675.53	1650.66
675.72	1837.03
675.90	1851.36
676.09	1701.86
676.28	1742.82
676.46	1691.62
676.65	1769.44
676.83	1679.33
677.02	1681.38
677.21	1697.77
677.39	1771.49
677.58	1669.09
677.77	1667.05
677.95	1703.91
678.14	1722.34
678.32	1652.71
678.51	1701.86
678.70	1849.32
678.88	1693.67
679.07	1822.69
679.25	1681.38
679.44	1730.53
679.63	1595.37
679.81	1728.49
680.00	1742.82
680.18	1777.64
680.37	1777.64
680.55	1734.63
680.74	1656.81
680.93	1634.28
681.11	1783.78
681.30	1722.34
681.48	1775.59
681.67	1728.49
681.85	1662.95
682.04	1656.81
682.23	1722.34
682.41	1724.39
682.60	1693.67
682.78	1746.92
682.97	1667.05
683.15	1777.64
683.34	1763.30
683.53	1787.88
683.71	1673.19
683.90	1841.12
684.08	1765.35
684.27	1757.16
684.45	1693.67
684.64	1710.05
684.82	1720.29
685.01	1759.21
685.19	1746.92
685.38	1734.63
685.57	1794.02
685.75	1689.57
685.94	1722.34
686.12	1648.61
686.31	1615.85
686.49	1839.08
686.68	1628.14
686.86	1798.12
687.05	1753.06
687.23	1791.97
687.42	1724.39
687.60	1646.57
687.79	1734.63
687.97	1777.64
688.16	1816.55
688.34	1837.03
688.53	1632.23
688.71	1755.11
688.90	1884.13
689.08	1681.38
689.27	1628.14
689.45	1787.88
689.64	1779.68
689.82	1693.67
690.01	1718.25
690.19	1783.78
690.38	1728.49
690.56	1824.74
690.75	1705.96
690.93	1646.57
691.12	1705.96
691.30	1755.11
691.49	1673.19
691.67	1722.34
691.86	1882.08
692.04	1630.18
692.23	1697.77
692.41	1665.00
692.60	1826.79
692.78	1804.26
692.97	1714.15
693.15	1746.92
693.34	1789.92
693.52	1757.16
693.71	1722.34
693.89	1699.81
694.08	1710.05
694.26	1746.92
694.44	1718.25
694.63	1759.21
694.81	1597.42
695.00	1720.29
695.18	1677.29
695.37	1845.22
695.55	1730.53
695.74	1718.25
695.92	1751.01
696.10	1755.11
696.29	1648.61
696.47	1742.82
696.66	1626.09
696.84	1710.05
697.03	1742.82
697.21	1849.32
697.40	2328.54
697.58	1804.26
697.76	1658.85
697.95	1712.10
698.13	1669.09
698.32	1673.19
698.50	1603.56
698.68	1748.97
698.87	1769.44
699.05	1783.78
699.24	1671.14
699.42	1691.62
699.61	1675.24
699.79	1703.91
699.97	1720.29
700.16	1656.81
700.34	1652.71
700.53	1751.01
700.71	1787.88
700.89	1751.01
701.08	1701.86
701.26	1732.58
701.45	2129.89
701.63	1685.48
701.81	1732.58
702.00	1734.63
702.18	1761.25
702.37	1757.16
702.55	1757.16
702.73	1712.10
702.92	1552.36
703.10	1769.44
703.28	1689.57
703.47	1685.48
703.65	1744.87
703.84	1763.30
704.02	1658.85
704.20	1855.46
704.39	1712.10
704.57	1730.53
704.75	1720.29
704.94	1775.59
705.12	1701.86
705.30	1755.11
705.49	2275.29
705.67	4374.46
705.86	9420.66
706.04	12515.14
706.22	14423.84
706.41	15390.49
706.59	13889.32
706.77	9650.03
706.96	7329.68
707.14	6659.99
707.32	5814.18
707.51	5556.14
707.69	4939.70
707.87	4212.67
708.06	3602.38
708.24	3020.75
708.42	2498.52
708.61	2377.69
708.79	1888.23
708.97	1908.71
709.16	1796.07
709.34	1773.54
709.52	1689.57
709.71	1744.87
709.89	1714.15
710.07	1648.61
710.26	1609.70
710.44	1634.28
710.62	1757.16
710.80	1736.68
710.99	1730.53
711.17	1738.73
711.35	1675.24
711.54	1732.58
711.72	1796.07
711.90	1730.53
712.09	1748.97
712.27	1701.86
712.45	1697.77
712.63	1693.67
712.82	1748.97
713.00	1714.15
713.18	1732.58
713.37	1701.86
713.55	1796.07
713.73	1695.72
713.91	1708.01
714.10	1685.48
714.28	1712.10
714.46	1703.91
714.65	1759.21
714.83	1789.92
715.01	1679.33
715.19	1759.21
715.38	1701.86
715.56	1787.88
715.74	1656.81
715.92	1679.33
716.11	1830.88
716.29	1652.71
716.47	1658.85
716.65	1703.91
716.84	1621.99
717.02	1751.01
717.20	1595.37
717.38	1671.14
717.57	1720.29
717.75	1679.33
717.93	1634.28
718.11	1736.68
718.30	1638.38
718.48	1740.77
718.66	1761.25
718.84	1773.54
719.03	1742.82
719.21	1615.85
719.39	1789.92
719.57	1773.54
719.75	1726.44
719.94	1630.18
720.12	1681.38
720.30	1746.92
720.48	1724.39
720.67	1691.62
720.85	1597.42
721.03	1681.38
721.21	1638.38
721.39	1824.74
721.58	1701.86
721.76	1753.06
721.94	1726.44
722.12	1769.44
722.30	1820.64
722.49	1703.91
722.67	1746.92
722.85	1732.58
723.03	1652.71
723.21	1681.38
723.40	1726.44
723.58	1771.49
723.76	1740.77
723.94	1759.21
724.12	1685.48
724.30	1751.01
724.49	1796.07
724.67	1656.81
724.85	1777.64
725.03	1648.61
725.21	1730.53
725.40	1716.20
725.58	1607.66
725.76	1738.73
725.94	1726.44
726.12	1705.96
726.30	1744.87
726.49	1773.54
726.67	1703.91
726.85	1738.73
727.03	1744.87
727.21	2232.29
727.39	2955.22
727.57	3739.59
727.76	4257.73
727.94	4444.09
728.12	4425.66
728.30	3690.44
728.48	2942.93
728.66	2787.29
728.84	2553.82
729.03	2422.75
729.21	2148.32
729.39	1986.53
729.57	1810.40
729.75	1755.11
729.93	1873.89
730.11	1734.63
730.30	1630.18
730.48	1757.16
730.66	1757.16
730.84	1742.82
731.02	1681.38
731.20	1652.71
731.38	1730.53
731.56	1656.81
731.74	1626.09
731.93	1656.81
732.11	1716.20
732.29	1669.09
732.47	1845.22
732.65	1748.97
732.83	1779.68
733.01	1771.49
733.19	1650.66
733.37	1822.69
733.56	1730.53
733.74	1638.38
733.92	1824.74
734.10	1667.05
734.28	1695.72
734.46	1642.47
734.64	1695.72
734.82	1701.86
735.00	1652.71
735.18	1675.24
735.36	1669.09
735.54	1728.49
735.73	1697.77
735.91	1681.38
736.09	1740.77
736.27	1681.38
736.45	1775.59
736.63	1691.62
736.81	1726.44
736.99	1779.68
737.17	1800.16
737.35	1669.09
737.53	1818.60
737.71	1710.05
737.89	1767.40
738.07	1757.16
738.25	1654.76
738.43	1593.32
738.61	1683.43
738.80	1636.33
738.98	1650.66
739.16	1689.57
739.34	1677.29
739.52	1787.88
739.70	1710.05
739.88	1769.44
740.06	1828.84
740.24	1554.41
740.42	1839.08
740.60	1591.27
740.78	1673.19
740.96	1656.81
741.14	1665.00
741.32	1718.25
741.50	1601.51
741.68	1812.45
741.86	1783.78
742.04	1693.67
742.22	1710.05
742.40	1695.72
742.58	1705.96
742.76	1740.77
742.94	1765.35
743.12	1667.05
743.30	1785.83
743.48	1734.63
743.66	1693.67
743.84	1773.54
744.02	1644.52
744.20	1718.25
744.38	1617.90
744.56	1601.51
744.74	1759.21
744.92	1742.82
745.10	1765.35
745.28	1710.05
745.46	1689.57
745.64	1665.00
745.82	1800.16
746.00	1656.81
746.18	1695.72
746.36	1697.77
746.54	1791.97
746.72	1812.45
746.90	1636.33
747.08	1806.31
747.26	1751.01
747.44	1632.23
747.62	1744.87
747.80	1767.40
747.98	1740.77
748.15	1730.53
748.33	1732.58
748.51	1759.21
748.69	1740.77
748.87	1679.33
749.05	1603.56
749.23	1746.92
749.41	1796.07
749.59	1710.05
749.77	1759.21
749.95	1691.62
750.13	1681.38
750.31	1740.77
750.49	1759.21
750.67	1773.54
750.85	1769.44
751.03	1738.73
751.20	1826.79
751.38	1669.09
751.56	1701.86
751.74	1673.19
751.92	1681.38
752.10	1667.05
752.28	1726.44
752.46	1681.38
752.64	1708.01
752.82	1708.01
753.00	1751.01
753.18	1689.57
753.35	1683.43
753.53	1710.05
753.71	1701.86
753.89	1718.25
754.07	1687.53
754.25	1855.46
754.43	1714.15
754.61	1540.07
754.79	1667.05
754.97	1689.57
755.14	1841.12
755.32	1650.66
755.50	1607.66
755.68	1718.25
755.86	1660.90
756.04	1640.42
756.22	1628.14
756.40	1791.97
756.57	1755.11
756.75	1728.49
756.93	1826.79
757.11	1736.68
757.29	1681.38
757.47	1654.76
757.65	1619.94
757.82	1597.42
758.00	1624.04
758.18	1689.57
758.36	1658.85
758.54	1787.88
758.72	1642.47
758.90	1796.07
759.07	1742.82
759.25	1654.76
759.43	1701.86
759.61	1720.29
759.79	2234.33
759.97	1687.53
760.15	1679.33
760.32	1701.86
760.50	1681.38
760.68	1808.36
760.86	1630.18
761.04	1796.07
761.22	1791.97
761.39	1667.05
761.57	1736.68
761.75	1720.29
761.93	1757.16
762.11	1716.20
762.28	1679.33
762.46	1722.34
762.64	1724.39
762.82	1619.94
763.00	1710.05
763.18	1824.74
763.35	1656.81
763.53	1873.89
763.71	1691.62
763.89	1662.95
764.07	1742.82
764.24	1681.38
764.42	1765.35
764.60	1669.09
764.78	1794.02
764.96	1751.01
765.13	1789.92
765.31	1716.20
765.49	1785.83
765.67	1554.41
765.84	1697.77
766.02	1644.52
766.20	1626.09
766.38	1705.96
766.56	1720.29
766.73	1779.68
766.91	1683.43
767.09	1722.34
767.27	1724.39
767.44	1710.05
767.62	1675.24
767.80	1759.21
767.98	1654.76
768.15	1681.38
768.33	1783.78
768.51	1693.67
768.69	1730.53
768.87	1681.38
769.04	1705.96
769.22	1859.56
769.40	1777.64
769.58	1888.23
769.75	1744.87
769.93	1767.40
770.11	1646.57
770.28	1714.15
770.46	1673.19
770.64	1730.53
770.82	1751.01
770.99	1718.25
771.17	1718.25
771.35	1742.82
771.53	1658.85
771.70	1708.01
771.88	1699.81
772.06	1753.06
772.23	1677.29
772.41	1791.97
772.59	1677.29
772.77	1667.05
772.94	1693.67
773.12	1765.35
773.30	1693.67
773.47	1691.62
773.65	1726.44
773.83	1773.54
774.01	1726.44
774.18	1673.19
774.36	1675.24
774.54	1650.66
774.71	1638.38
774.89	1656.81
775.07	1634.28
775.24	1638.38
775.42	1632.23
775.60	1761.25
775.78	1695.72
775.95	1636.33
776.13	1597.42
776.31	1558.50
776.48	1716.20
776.66	1748.97
776.84	1652.71
777.01	1697.77
777.19	1619.94
777.37	1689.57
777.54	1697.77
777.72	1920.99
777.90	1767.40
778.07	1665.00
778.25	1849.32
778.43	1746.92
778.60	1595.37
778.78	1779.68
778.96	1824.74
779.13	1636.33
779.31	1796.07
779.49	1744.87
779.66	1720.29
779.84	1767.40
780.01	1734.63
780.19	1708.01
780.37	1755.11
780.54	1699.81
780.72	1732.58
780.90	1640.42
781.07	1695.72
781.25	1710.05
781.43	1806.31
781.60	1685.48
781.78	1761.25
781.95	1755.11
782.13	1669.09
782.31	1652.71
782.48	1638.38
782.66	1779.68
782.83	1826.79
783.01	1683.43
783.19	1755.11
783.36	1714.15
783.54	1683.43
783.72	1705.96
783.89	1689.57
784.07	1726.44
784.24	1640.42
784.42	1722.34
784.60	1675.24
784.77	1757.16
784.95	1611.75
785.12	1677.29
785.30	1695.72
785.47	1691.62
785.65	1767.40
785.83	1720.29
786.00	1689.57
786.18	1671.14
786.35	1677.29
786.53	1667.05
786.71	1718.25
786.88	1703.91
787.06	1722.34
787.23	1646.57
787.41	1587.18
787.58	1689.57
787.76	1646.57
787.94	1669.09
788.11	1701.86
788.29	1722.34
788.46	1628.14
788.64	1689.57
788.81	1681.38
788.99	1710.05
789.16	1691.62
789.34	1718.25
789.52	1730.53
789.69	1710.05
789.87	1566.70
790.04	1732.58
790.22	1738.73
790.39	1785.83
790.57	1695.72
790.74	1685.48
790.92	1808.36
791.09	1656.81
791.27	1761.25
791.44	1767.40
791.62	1718.25
791.79	1677.29
791.97	1726.44
792.15	1869.80
792.32	1798.12
792.50	1697.77
792.67	1783.78
792.85	1740.77
793.02	1765.35
793.20	1697.77
793.37	1662.95
793.55	1701.86
793.72	1693.67
793.90	1697.77
794.07	1673.19
794.25	1728.49
794.42	1642.47
794.60	1640.42
794.77	1757.16
794.95	1681.38
795.12	1763.30
795.30	1730.53
795.47	1646.57
795.65	1925.09
795.82	1712.10
796.00	1667.05
796.17	1683.43
796.34	1687.53
796.52	1699.81
796.69	1828.84
796.87	1761.25
797.04	1708.01
797.22	1638.38
797.39	1714.15
797.57	1718.25
797.74	1759.21
797.92	1722.34
798.09	1665.00
798.27	1849.32
798.44	1783.78
798.62	1628.14
798.79	1796.07
798.96	1669.09
799.14	1689.57
799.31	1906.66
799.49	1718.25
799.66	1689.57
799.84	1718.25
800.01	1648.61
800.19	1681.38
800.36	1642.47
800.53	1751.01
800.71	1726.44
800.88	1800.16
801.06	1642.47
801.23	1675.24
801.41	1667.05
801.58	1667.05
801.75	1669.09
801.93	1732.58
802.10	1748.97
802.28	1738.73
802.45	1636.33
802.63	1781.73
802.80	1787.88
802.97	1712.10
803.15	1685.48
803.32	1689.57
803.50	1634.28
803.67	1677.29
803.84	1654.76
804.02	1699.81
804.19	1642.47
804.37	1589.22
804.54	1675.24
804.71	1619.94
804.89	1660.90
805.06	1691.62
805.24	1650.66
805.41	1605.61
805.58	1613.80
805.76	1828.84
805.93	1632.23
806.10	1779.68
806.28	1699.81
806.45	1675.24
806.63	1730.53
806.80	1787.88
806.97	1697.77
807.15	1726.44
807.32	1781.73
807.49	1751.01
807.67	1624.04
807.84	1638.38
808.01	1630.18
808.19	1787.88
808.36	1783.78
808.54	1718.25
808.71	1644.52
808.88	1697.77
809.06	1824.74
809.23	1816.55
809.40	1671.14
809.58	1841.12
809.75	1648.61
809.92	1636.33
810.10	1810.40
810.27	1693.67
810.44	1687.53
810.62	1757.16
810.79	1710.05
810.96	1681.38
811.14	1708.01
811.31	1630.18
811.48	1746.92
811.66	1738.73
811.83	1763.30
812.00	1685.48
812.18	1740.77
812.35	1802.21
812.52	1660.90
812.69	1685.48
812.87	1705.96
813.04	1658.85
813.21	1726.44
813.39	1722.34
813.56	1605.61
813.73	1814.50
813.91	1695.72
814.08	1691.62
814.25	1718.25
814.42	1624.04
814.60	1634.28
814.77	1771.49
814.94	1724.39
815.12	1830.88
815.29	1701.86
815.46	1699.81
815.63	1767.40
815.81	1722.34
815.98	1699.81
816.15	1724.39
816.33	1757.16
816.50	1576.94
816.67	1665.00
816.84	1720.29
817.02	1701.86
817.19	1732.58
817.36	1697.77
817.53	1794.02
817.71	1646.57
817.88	1746.92
818.05	1701.86
818.22	1636.33
818.40	1767.40
818.57	1671.14
818.74	1654.76
818.91	1621.99
819.09	1791.97
819.26	1789.92
819.43	1665.00
819.60	1640.42
819.78	1773.54
819.95	1767.40
820.12	1607.66
820.29	1828.84
820.47	1695.72
820.64	1689.57
820.81	1683.43
820.98	1644.52
821.15	1691.62
821.33	1728.49
821.50	1677.29
821.67	1775.59
821.84	1640.42
822.02	1677.29
822.19	1763.30
822.36	1687.53
822.53	1626.09
822.70	1675.24
822.88	1744.87
823.05	1787.88
823.22	1753.06
823.39	1724.39
823.56	1744.87
823.74	1742.82
823.91	1630.18
824.08	1644.52
824.25	1652.71
824.42	1830.88
824.60	1687.53
824.77	1705.96
824.94	1738.73
825.11	1779.68
825.28	1683.43
825.45	1767.40
825.63	1720.29
825.80	1691.62
825.97	1656.81
826.14	1738.73
826.31	1632.23
826.48	1697.77
826.66	1662.95
826.83	1697.77
827.00	1730.53
827.17	1660.90
827.34	1681.38
827.51	1658.85
827.69	1746.92
827.86	1634.28
828.03	1677.29
828.20	1779.68
828.37	1652.71
828.54	1630.18
828.71	1589.22
828.89	1775.59
829.06	1693.67
829.23	1734.63
829.40	1665.00
829.57	1689.57
829.74	1695.72
829.91	1720.29
830.09	1671.14
830.26	1751.01
830.43	1767.40
830.60	1632.23
830.77	1665.00
830.94	1800.16
831.11	1738.73
831.28	1658.85
831.46	1728.49
831.63	1691.62
831.80	1699.81
831.97	1671.14
832.14	1669.09
832.31	1761.25
832.48	1603.56
832.65	1705.96
832.82	1701.86
832.99	1757.16
833.17	1556.46
833.34	1853.41
833.51	1757.16
833.68	1609.70
833.85	1763.30
834.02	1636.33
834.19	1617.90
834.36	1746.92
834.53	1740.77
834.70	1753.06
834.87	1783.78
835.04	1708.01
835.22	1677.29
835.39	1665.00
835.56	1675.24
835.73	1695.72
835.90	1736.68
836.07	1656.81
836.24	1738.73
836.41	1652.71
836.58	1726.44
836.75	1755.11
836.92	1722.34
837.09	1718.25
837.26	1734.63
837.43	1748.97
837.60	1705.96
837.77	1689.57
837.94	1726.44
838.12	1703.91
838.29	1730.53
838.46	1650.66
838.63	1628.14
838.80	1834.98
838.97	1742.82
839.14	1759.21
839.31	1718.25
839.48	1728.49
839.65	1748.97
839.82	1699.81
839.99	1708.01
840.16	1734.63
840.33	1687.53
840.50	1732.58
840.67	1644.52
840.84	1605.61
841.01	1703.91
841.18	1632.23
841.35	1779.68
841.52	1763.30
841.69	1810.40
841.86	1742.82
842.03	1677.29
842.20	1757.16
842.37	1673.19
842.54	1677.29
842.71	1705.96
842.88	1683.43
843.05	1746.92
843.22	1687.53
843.39	1705.96
843.56	1589.22
843.73	1675.24
843.90	1802.21
844.07	1695.72
844.24	1742.82
844.41	1783.78
844.58	1734.63
844.75	1689.57
844.92	1728.49
845.09	1738.73
845.26	1671.14
845.43	1767.40
845.60	1634.28
845.77	1746.92
845.94	1730.53
846.10	1779.68
846.27	1665.00
846.44	1691.62
846.61	1658.85
846.78	1671.14
846.95	1755.11
847.12	1632.23
847.29	1728.49
847.46	1667.05
847.63	1730.53
847.80	1665.00
847.97	1757.16
848.14	1771.49
848.31	1675.24
848.48	1640.42
848.65	1732.58
848.82	1658.85
848.98	1855.46
849.15	1800.16
849.32	1787.88
849.49	1724.39
849.66	1681.38
849.83	1736.68
850.00	1710.05
850.17	1636.33
850.34	1685.48
850.51	1640.42
850.68	1613.80
850.85	1816.55
851.01	1785.83
851.18	1669.09
851.35	1699.81
851.52	1734.63
851.69	1789.92
851.86	1687.53
852.03	1759.21
852.20	1718.25
852.37	1660.90
852.53	1632.23
852.70	1621.99
852.87	1736.68
853.04	1748.97
853.21	1814.50
853.38	1681.38
853.55	1734.63
853.72	1808.36
853.89	1656.81
854.05	1673.19
854.22	1687.53
854.39	1683.43
854.56	1769.44
854.73	1738.73
854.90	1636.33
855.07	1703.91
855.23	1718.25
855.40	1681.38
855.57	1689.57
855.74	1597.42
855.91	1906.66
856.08	1638.38
856.25	1669.09
856.41	1646.57
856.58	1693.67
856.75	1726.44
856.92	1675.24
857.09	1728.49
857.26	1673.19
857.42	1746.92
857.59	1767.40
857.76	1658.85
857.93	1746.92
858.10	1708.01
858.27	1636.33
858.43	1665.00
858.60	1626.09
858.77	1597.42
858.94	1705.96
859.11	1746.92
859.27	1679.33
859.44	1714.15
859.61	1847.27
859.78	1734.63
859.95	1683.43
860.12	1689.57
860.28	1781.73
860.45	1765.35
860.62	1681.38
860.79	1697.77
860.95	1712.10
861.12	1714.15
861.29	1640.42
861.46	1662.95
861.63	1687.53
861.79	1742.82
861.96	1705.96
862.13	1689.57
862.30	1783.78
862.47	1695.72
862.63	1619.94
862.80	1794.02
862.97	1767.40
863.14	1693.67
863.30	1693.67
863.47	1660.90
863.64	1757.16
863.81	1738.73
863.97	1669.09
864.14	1728.49
864.31	1681.38
864.48	1755.11
864.65	1634.28
864.81	1744.87
864.98	1712.10
865.15	1796.07
865.32	1744.87
865.48	1783.78
865.65	1716.20
865.82	1726.44
865.98	1730.53
866.15	1759.21
866.32	1724.39
866.49	1648.61
866.65	1771.49
866.82	1728.49
866.99	1679.33
867.16	1683.43
867.32	1695.72
867.49	1710.05
867.66	1683.43
867.83	1683.43
867.99	1609.70
868.16	1763.30
868.33	1658.85
868.49	1722.34
868.66	1667.05
868.83	1791.97
868.99	1796.07
869.16	1718.25
869.33	1791.97
869.50	1732.58
869.66	1779.68
869.83	1701.86
870.00	1669.09
870.16	1832.93
870.33	1640.42
870.50	1755.11
870.66	1705.96
870.83	1787.88
871.00	1767.40
871.17	1697.77
871.33	1771.49
871.50	1781.73
871.67	1699.81
871.83	1681.38
872.00	1755.11
872.17	1701.86
872.33	1861.60
872.50	1753.06
872.67	1665.00
872.83	1648.61
873.00	1619.94
873.17	1798.12
873.33	1705.96
873.50	1775.59
873.67	1673.19
873.83	1740.77
874.00	1722.34
874.16	1718.25
874.33	1703.91
874.50	1691.62
874.66	1757.16
874.83	1697.77
875.00	1798.12
875.16	1806.31
875.33	1787.88
875.50	1615.85
875.66	1630.18
875.83	1718.25
875.99	1703.91
876.16	1632.23
876.33	1646.57
876.49	1765.35
876.66	1779.68
876.83	1675.24
876.99	1636.33
877.16	1695.72
877.32	1705.96
877.49	1722.34
877.66	1746.92
877.82	1718.25
877.99	1728.49
878.15	1734.63
878.32	1693.67
878.49	1708.01
878.65	1705.96
878.82	1796.07
878.98	1652.71
879.15	1787.88
879.32	1769.44
879.48	1708.01
879.65	1730.53
879.81	1755.11
879.98	1701.86
880.15	1640.42
880.31	1705.96
880.48	1626.09
880.64	1748.97
880.81	1701.86
880.97	1826.79
881.14	1767.40
881.31	1685.48
881.47	1808.36
881.64	1708.01
881.80	1679.33
881.97	1705.96
882.13	1722.34
882.30	1638.38
882.47	1734.63
882.63	1681.38
882.80	1644.52
882.96	1646.57
883.13	1763.30
883.29	1716.20
883.46	1757.16
883.62	1814.50
883.79	1705.96
883.95	1783.78
884.12	1753.06
884.29	1765.35
884.45	1732.58
884.62	1765.35
884.78	1689.57
884.95	1734.63
885.11	1658.85
885.28	1650.66
885.44	1724.39
885.61	1697.77
885.77	1753.06
885.94	1769.44
886.10	1710.05
886.27	1685.48
886.43	1779.68
886.60	1802.21
886.76	1701.86
886.93	1716.20
887.09	1638.38
887.26	1642.47
887.42	1673.19
887.59	1753.06
887.75	1847.27
887.92	1767.40
888.08	1732.58
888.25	1738.73
888.41	1730.53
888.58	1703.91
888.74	1677.29
888.91	1779.68
>>>>>End Processed Spectral Data<<<<<
