SpectraSuite Data File
++++++++++++++++++++++++++++++++++++
Date: Mon Jun 06 16:09:17 CEST 2016
User: root
Dark Spectrum Present: No
Reference Spectrum Present: No
Number of Sampled Component Spectra: 1
Spectrometers: USB4C02835
Integration Time (usec): 100000 (USB4C02835)
Spectra Averaged: 1 (USB4C02835)
Boxcar Smoothing: 0 (USB4C02835)
Correct for Electrical Dark: No (USB4C02835)
Strobe/Lamp Enabled: No (USB4C02835)
Correct for Detector Non-linearity: No (USB4C02835)
Correct for Stray Light: No (USB4C02835)
Number of Pixels in Processed Spectrum: 3648
>>>>>Begin Processed Spectral Data<<<<<
177.47	1497.07
177.69	1497.07
177.91	1497.07
178.13	1468.39
178.36	1501.16
178.58	1632.23
178.80	1755.11
179.02	1619.94
179.24	1679.33
179.46	1665.00
179.68	1816.55
179.90	1728.49
180.13	1636.33
180.35	1771.49
180.57	1744.87
180.79	1736.68
181.01	1667.05
181.23	1783.78
181.45	1753.06
181.67	1779.68
181.90	1841.12
182.12	1681.38
182.34	1671.14
182.56	1734.63
182.78	1718.25
183.00	1728.49
183.22	1724.39
183.44	1701.86
183.66	1834.98
183.89	1834.98
184.11	1693.67
184.33	1806.31
184.55	1781.73
184.77	1681.38
184.99	1757.16
185.21	1716.20
185.43	1789.92
185.65	1662.95
185.87	1722.34
186.10	1849.32
186.32	1869.80
186.54	1716.20
186.76	1771.49
186.98	1759.21
187.20	1744.87
187.42	1755.11
187.64	1728.49
187.86	1701.86
188.08	1765.35
188.30	1677.29
188.52	1769.44
188.75	1796.07
188.97	1855.46
189.19	1767.40
189.41	1722.34
189.63	1748.97
189.85	1665.00
190.07	1624.04
190.29	1634.28
190.51	1798.12
190.73	1636.33
190.95	1751.01
191.17	1722.34
191.39	1603.56
191.61	1636.33
191.84	1738.73
192.06	1705.96
192.28	1638.38
192.50	1968.10
192.72	1724.39
192.94	1677.29
193.16	1732.58
193.38	1718.25
193.60	1646.57
193.82	1683.43
194.04	1757.16
194.26	1767.40
194.48	1726.44
194.70	1708.01
194.92	1724.39
195.14	1691.62
195.36	1683.43
195.58	1767.40
195.80	1716.20
196.02	1730.53
196.24	1665.00
196.46	1669.09
196.69	1677.29
196.91	1857.51
197.13	1708.01
197.35	1724.39
197.57	1814.50
197.79	1746.92
198.01	1716.20
198.23	1763.30
198.45	1767.40
198.67	1611.75
198.89	1710.05
199.11	1720.29
199.33	1646.57
199.55	1587.18
199.77	1697.77
199.99	1828.84
200.21	1693.67
200.43	1746.92
200.65	1714.15
200.87	1558.50
201.09	1730.53
201.31	1712.10
201.53	1791.97
201.75	1761.25
201.97	1722.34
202.19	1732.58
202.41	1724.39
202.63	1757.16
202.85	1697.77
203.07	1681.38
203.29	1671.14
203.51	1699.81
203.73	1619.94
203.95	1869.80
204.17	1761.25
204.39	1757.16
204.61	1744.87
204.83	1662.95
205.05	1773.54
205.27	1787.88
205.49	1828.84
205.71	1806.31
205.93	1615.85
206.15	1626.09
206.37	1701.86
206.59	1689.57
206.81	1671.14
207.03	1576.94
207.25	1636.33
207.47	1740.77
207.69	1701.86
207.91	1837.03
208.13	1718.25
208.34	1720.29
208.56	1681.38
208.78	1759.21
209.00	1726.44
209.22	1697.77
209.44	1701.86
209.66	1705.96
209.88	1646.57
210.10	1693.67
210.32	1722.34
210.54	1783.78
210.76	1740.77
210.98	1814.50
211.20	1578.98
211.42	1732.58
211.64	1759.21
211.86	1742.82
212.08	1771.49
212.30	1703.91
212.52	1718.25
212.74	1699.81
212.96	1751.01
213.17	1751.01
213.39	1720.29
213.61	1863.65
213.83	1748.97
214.05	1658.85
214.27	1814.50
214.49	1652.71
214.71	1611.75
214.93	1722.34
215.15	1746.92
215.37	1785.83
215.59	1652.71
215.81	1755.11
216.03	1716.20
216.24	1697.77
216.46	1646.57
216.68	1763.30
216.90	1847.27
217.12	1796.07
217.34	1728.49
217.56	1759.21
217.78	1775.59
218.00	1802.21
218.22	1667.05
218.44	1705.96
218.66	1708.01
218.87	1765.35
219.09	1689.57
219.31	1748.97
219.53	1740.77
219.75	1746.92
219.97	1722.34
220.19	1677.29
220.41	1726.44
220.63	1783.78
220.85	1800.16
221.06	1712.10
221.28	1810.40
221.50	1736.68
221.72	1687.53
221.94	1746.92
222.16	1710.05
222.38	1740.77
222.60	1734.63
222.82	1710.05
223.03	1755.11
223.25	1669.09
223.47	1757.16
223.69	1820.64
223.91	1748.97
224.13	1804.26
224.35	1708.01
224.57	1736.68
224.78	1808.36
225.00	1601.51
225.22	1669.09
225.44	1773.54
225.66	1720.29
225.88	1685.48
226.10	1746.92
226.32	1755.11
226.53	1824.74
226.75	1736.68
226.97	1671.14
227.19	1734.63
227.41	1695.72
227.63	1761.25
227.85	1566.70
228.06	1724.39
228.28	1695.72
228.50	1783.78
228.72	1685.48
228.94	1693.67
229.16	1656.81
229.37	1667.05
229.59	1669.09
229.81	1751.01
230.03	1697.77
230.25	1652.71
230.47	1673.19
230.69	1658.85
230.90	1710.05
231.12	1677.29
231.34	1755.11
231.56	1751.01
231.78	1740.77
232.00	1726.44
232.21	1716.20
232.43	1726.44
232.65	1624.04
232.87	1759.21
233.09	1685.48
233.30	1683.43
233.52	1751.01
233.74	1714.15
233.96	1771.49
234.18	1691.62
234.40	1691.62
234.61	1816.55
234.83	1726.44
235.05	1566.70
235.27	1796.07
235.49	1834.98
235.70	1736.68
235.92	1814.50
236.14	1693.67
236.36	1845.22
236.58	1650.66
236.79	1714.15
237.01	1665.00
237.23	1646.57
237.45	1859.56
237.67	1658.85
237.88	1705.96
238.10	1748.97
238.32	1693.67
238.54	1728.49
238.76	1771.49
238.97	1697.77
239.19	1693.67
239.41	1683.43
239.63	1736.68
239.85	1671.14
240.06	1751.01
240.28	1716.20
240.50	1773.54
240.72	1714.15
240.93	1691.62
241.15	1736.68
241.37	1679.33
241.59	1839.08
241.81	1648.61
242.02	1714.15
242.24	1730.53
242.46	1775.59
242.68	1691.62
242.89	1697.77
243.11	1697.77
243.33	1744.87
243.55	1816.55
243.76	1751.01
243.98	1599.46
244.20	1714.15
244.42	1738.73
244.64	1724.39
244.85	1720.29
245.07	1689.57
245.29	1765.35
245.51	1722.34
245.72	1740.77
245.94	1808.36
246.16	1773.54
246.38	1679.33
246.59	1665.00
246.81	1644.52
247.03	1746.92
247.24	1683.43
247.46	1759.21
247.68	1697.77
247.90	1773.54
248.11	1705.96
248.33	1763.30
248.55	1730.53
248.77	1705.96
248.98	1746.92
249.20	1785.83
249.42	1679.33
249.64	1744.87
249.85	1683.43
250.07	1646.57
250.29	1777.64
250.50	1662.95
250.72	1726.44
250.94	1765.35
251.16	1865.70
251.37	1777.64
251.59	1775.59
251.81	1753.06
252.02	1773.54
252.24	1656.81
252.46	1767.40
252.68	1628.14
252.89	1683.43
253.11	1605.61
253.33	1816.55
253.54	1824.74
253.76	1611.75
253.98	1718.25
254.20	1761.25
254.41	1654.76
254.63	1683.43
254.85	1665.00
255.06	1705.96
255.28	1736.68
255.50	1693.67
255.71	1634.28
255.93	1644.52
256.15	1675.24
256.36	1767.40
256.58	1724.39
256.80	1757.16
257.02	1732.58
257.23	1632.23
257.45	1695.72
257.67	1724.39
257.88	1675.24
258.10	1736.68
258.32	1728.49
258.53	1730.53
258.75	1763.30
258.97	1724.39
259.18	1720.29
259.40	1728.49
259.62	1791.97
259.83	1812.45
260.05	1834.98
260.27	1957.86
260.48	1781.73
260.70	1693.67
260.92	1665.00
261.13	1738.73
261.35	1753.06
261.57	1734.63
261.78	1605.61
262.00	1642.47
262.22	1738.73
262.43	1671.14
262.65	1687.53
262.86	1755.11
263.08	1841.12
263.30	1730.53
263.51	1542.12
263.73	1613.80
263.95	1855.46
264.16	1634.28
264.38	1611.75
264.60	1710.05
264.81	1722.34
265.03	1695.72
265.25	1781.73
265.46	1689.57
265.68	1748.97
265.89	1673.19
266.11	1585.13
266.33	1744.87
266.54	1738.73
266.76	1738.73
266.98	1808.36
267.19	1824.74
267.41	1771.49
267.62	1703.91
267.84	1603.56
268.06	1798.12
268.27	1740.77
268.49	1744.87
268.70	1753.06
268.92	1759.21
269.14	1615.85
269.35	1632.23
269.57	1722.34
269.79	1798.12
270.00	1703.91
270.22	1834.98
270.43	1642.47
270.65	1585.13
270.87	1675.24
271.08	1767.40
271.30	1783.78
271.51	1759.21
271.73	1687.53
271.95	1775.59
272.16	1777.64
272.38	1767.40
272.59	1642.47
272.81	1775.59
273.02	1656.81
273.24	1665.00
273.46	1816.55
273.67	1744.87
273.89	1687.53
274.10	1742.82
274.32	1773.54
274.54	1722.34
274.75	1732.58
274.97	1714.15
275.18	1714.15
275.40	1738.73
275.61	1763.30
275.83	1730.53
276.05	1708.01
276.26	1738.73
276.48	1632.23
276.69	1677.29
276.91	1687.53
277.12	1863.65
277.34	1718.25
277.55	1755.11
277.77	1744.87
277.99	1726.44
278.20	1640.42
278.42	1621.99
278.63	1755.11
278.85	1650.66
279.06	1624.04
279.28	1689.57
279.49	1671.14
279.71	1853.41
279.93	1677.29
280.14	1712.10
280.36	1673.19
280.57	1783.78
280.79	1763.30
281.00	1671.14
281.22	1626.09
281.43	1791.97
281.65	1583.08
281.86	1669.09
282.08	1787.88
282.29	1810.40
282.51	1681.38
282.73	1712.10
282.94	1619.94
283.16	1763.30
283.37	1796.07
283.59	1722.34
283.80	1693.67
284.02	1691.62
284.23	1726.44
284.45	1656.81
284.66	1699.81
284.88	1763.30
285.09	1683.43
285.31	1648.61
285.52	1673.19
285.74	1646.57
285.95	1708.01
286.17	1800.16
286.38	1769.44
286.60	1650.66
286.81	1740.77
287.03	1767.40
287.24	1736.68
287.46	1822.69
287.67	1755.11
287.89	1847.27
288.10	1687.53
288.32	1773.54
288.53	1789.92
288.75	1748.97
288.96	1693.67
289.18	1665.00
289.39	1705.96
289.61	1751.01
289.82	1791.97
290.04	1861.60
290.25	1626.09
290.47	1753.06
290.68	1650.66
290.90	1730.53
291.11	1593.32
291.33	1701.86
291.54	1726.44
291.76	1736.68
291.97	1687.53
292.18	1738.73
292.40	1675.24
292.61	1695.72
292.83	1869.80
293.04	1765.35
293.26	1728.49
293.47	1730.53
293.69	1650.66
293.90	1671.14
294.12	1791.97
294.33	1771.49
294.55	1714.15
294.76	1693.67
294.97	1791.97
295.19	1873.89
295.40	1689.57
295.62	1738.73
295.83	1783.78
296.05	1722.34
296.26	1789.92
296.48	1722.34
296.69	1755.11
296.90	1656.81
297.12	1722.34
297.33	1837.03
297.55	1683.43
297.76	1728.49
297.98	1761.25
298.19	1757.16
298.41	1710.05
298.62	1628.14
298.83	1771.49
299.05	1722.34
299.26	1699.81
299.48	1683.43
299.69	1769.44
299.90	1802.21
300.12	1677.29
300.33	1748.97
300.55	1687.53
300.76	1791.97
300.98	1718.25
301.19	1781.73
301.40	1761.25
301.62	1785.83
301.83	1701.86
302.05	1744.87
302.26	1701.86
302.47	1722.34
302.69	1656.81
302.90	1699.81
303.12	1712.10
303.33	1703.91
303.54	1787.88
303.76	1744.87
303.97	1730.53
304.19	1855.46
304.40	1736.68
304.61	1736.68
304.83	1802.21
305.04	1740.77
305.26	1757.16
305.47	1624.04
305.68	1691.62
305.90	1634.28
306.11	1751.01
306.33	1685.48
306.54	1708.01
306.75	1677.29
306.97	1626.09
307.18	1654.76
307.39	1648.61
307.61	1796.07
307.82	1697.77
308.04	1777.64
308.25	1636.33
308.46	1671.14
308.68	1685.48
308.89	1693.67
309.10	1800.16
309.32	1761.25
309.53	1669.09
309.74	1726.44
309.96	1742.82
310.17	1800.16
310.39	1740.77
310.60	1755.11
310.81	1810.40
311.03	1607.66
311.24	1759.21
311.45	1755.11
311.67	1757.16
311.88	1804.26
312.09	1726.44
312.31	1675.24
312.52	1679.33
312.73	1679.33
312.95	1638.38
313.16	1599.46
313.37	1828.84
313.59	1763.30
313.80	1736.68
314.01	1746.92
314.23	1738.73
314.44	1701.86
314.65	1630.18
314.87	1681.38
315.08	1640.42
315.29	1685.48
315.51	1656.81
315.72	1601.51
315.93	1820.64
316.15	1824.74
316.36	1724.39
316.57	1812.45
316.79	1748.97
317.00	1708.01
317.21	1697.77
317.43	1591.27
317.64	1785.83
317.85	1736.68
318.07	1648.61
318.28	1714.15
318.49	1794.02
318.70	2007.01
318.92	1841.12
319.13	1812.45
319.34	1929.19
319.56	1830.88
319.77	1794.02
319.98	1714.15
320.20	1763.30
320.41	1724.39
320.62	1794.02
320.83	1644.52
321.05	1775.59
321.26	1765.35
321.47	1742.82
321.69	1746.92
321.90	1630.18
322.11	1683.43
322.32	1691.62
322.54	1773.54
322.75	1669.09
322.96	1818.60
323.18	1599.46
323.39	1550.31
323.60	1638.38
323.81	1744.87
324.03	1654.76
324.24	1734.63
324.45	1740.77
324.66	1669.09
324.88	1796.07
325.09	1726.44
325.30	1656.81
325.52	1734.63
325.73	1767.40
325.94	1630.18
326.15	1624.04
326.37	1722.34
326.58	1804.26
326.79	1892.32
327.00	1685.48
327.22	1716.20
327.43	1716.20
327.64	1585.13
327.85	1794.02
328.07	1753.06
328.28	1826.79
328.49	1675.24
328.70	1671.14
328.92	1673.19
329.13	1726.44
329.34	1665.00
329.55	1802.21
329.76	1722.34
329.98	1697.77
330.19	1816.55
330.40	1800.16
330.61	1699.81
330.83	1761.25
331.04	1644.52
331.25	1837.03
331.46	1660.90
331.68	1621.99
331.89	1810.40
332.10	1675.24
332.31	1652.71
332.52	1773.54
332.74	1800.16
332.95	1619.94
333.16	1714.15
333.37	1775.59
333.58	1724.39
333.80	1726.44
334.01	1638.38
334.22	1626.09
334.43	1667.05
334.64	1648.61
334.86	1644.52
335.07	1712.10
335.28	1771.49
335.49	1681.38
335.70	1761.25
335.92	1785.83
336.13	1822.69
336.34	1763.30
336.55	1755.11
336.76	1742.82
336.98	1685.48
337.19	1677.29
337.40	1781.73
337.61	1853.41
337.82	1683.43
338.04	1767.40
338.25	1693.67
338.46	1656.81
338.67	1658.85
338.88	1624.04
339.09	1724.39
339.31	1695.72
339.52	1572.84
339.73	1630.18
339.94	1675.24
340.15	1775.59
340.36	1665.00
340.58	1771.49
340.79	1660.90
341.00	1753.06
341.21	1671.14
341.42	1845.22
341.63	1667.05
341.85	1755.11
342.06	1738.73
342.27	1755.11
342.48	1771.49
342.69	1652.71
342.90	1822.69
343.12	1763.30
343.33	1642.47
343.54	1746.92
343.75	1869.80
343.96	1691.62
344.17	1669.09
344.38	1691.62
344.60	1697.77
344.81	1689.57
345.02	1722.34
345.23	1742.82
345.44	1830.88
345.65	1798.12
345.86	1701.86
346.07	1759.21
346.29	1724.39
346.50	1675.24
346.71	1705.96
346.92	1800.16
347.13	1812.45
347.34	1714.15
347.55	1742.82
347.76	1732.58
347.98	1632.23
348.19	1681.38
348.40	1875.94
348.61	1640.42
348.82	1812.45
349.03	1767.40
349.24	1662.95
349.45	1828.84
349.66	1705.96
349.88	1736.68
350.09	1644.52
350.30	1798.12
350.51	1820.64
350.72	1660.90
350.93	1775.59
351.14	1763.30
351.35	1708.01
351.56	1650.66
351.77	1712.10
351.99	1763.30
352.20	1837.03
352.41	1830.88
352.62	1601.51
352.83	1652.71
353.04	1732.58
353.25	1697.77
353.46	1757.16
353.67	1740.77
353.88	1583.08
354.09	1740.77
354.30	1726.44
354.52	1662.95
354.73	1720.29
354.94	1705.96
355.15	1740.77
355.36	1724.39
355.57	1730.53
355.78	1689.57
355.99	1679.33
356.20	1736.68
356.41	1753.06
356.62	1718.25
356.83	1714.15
357.04	1734.63
357.25	1705.96
357.46	1699.81
357.68	1675.24
357.89	1660.90
358.10	1720.29
358.31	1722.34
358.52	1685.48
358.73	1601.51
358.94	1675.24
359.15	1675.24
359.36	1687.53
359.57	1673.19
359.78	1652.71
359.99	1755.11
360.20	1746.92
360.41	1716.20
360.62	1716.20
360.83	1716.20
361.04	1783.78
361.25	1732.58
361.46	1820.64
361.67	1710.05
361.88	1839.08
362.09	1761.25
362.30	1771.49
362.51	1644.52
362.72	1734.63
362.93	1769.44
363.14	1740.77
363.35	1699.81
363.56	1744.87
363.78	1796.07
363.99	1679.33
364.20	1740.77
364.41	1734.63
364.62	1759.21
364.83	1787.88
365.04	1681.38
365.25	1734.63
365.46	1822.69
365.67	1609.70
365.88	1572.84
366.09	1705.96
366.30	1730.53
366.51	1808.36
366.72	1628.14
366.93	1720.29
367.14	1703.91
367.35	1820.64
367.56	1681.38
367.77	1920.99
367.98	1732.58
368.18	1785.83
368.39	1738.73
368.60	1740.77
368.81	1751.01
369.02	1822.69
369.23	1718.25
369.44	1689.57
369.65	1720.29
369.86	1744.87
370.07	1806.31
370.28	1705.96
370.49	1742.82
370.70	1783.78
370.91	1683.43
371.12	1667.05
371.33	1738.73
371.54	1681.38
371.75	1834.98
371.96	1665.00
372.17	1755.11
372.38	1714.15
372.59	1728.49
372.80	1677.29
373.01	1683.43
373.22	1720.29
373.43	1748.97
373.64	1705.96
373.85	1781.73
374.06	1779.68
374.26	1816.55
374.47	1744.87
374.68	1798.12
374.89	1693.67
375.10	1734.63
375.31	1705.96
375.52	1728.49
375.73	1736.68
375.94	1738.73
376.15	1771.49
376.36	1626.09
376.57	1695.72
376.78	1687.53
376.99	1697.77
377.20	1843.17
377.40	1716.20
377.61	1826.79
377.82	1656.81
378.03	1779.68
378.24	1800.16
378.45	1740.77
378.66	1720.29
378.87	1675.24
379.08	1667.05
379.29	1738.73
379.50	1806.31
379.71	1646.57
379.91	1761.25
380.12	1677.29
380.33	1738.73
380.54	1660.90
380.75	1703.91
380.96	1753.06
381.17	1728.49
381.38	1710.05
381.59	1738.73
381.80	1714.15
382.00	1884.13
382.21	1800.16
382.42	1847.27
382.63	1875.94
382.84	1785.83
383.05	1730.53
383.26	1818.60
383.47	1683.43
383.68	1726.44
383.88	1732.58
384.09	1740.77
384.30	1771.49
384.51	1722.34
384.72	1748.97
384.93	1662.95
385.14	1744.87
385.35	1775.59
385.55	1636.33
385.76	1753.06
385.97	1753.06
386.18	1609.70
386.39	1730.53
386.60	1742.82
386.81	1753.06
387.02	1628.14
387.22	1619.94
387.43	1765.35
387.64	1708.01
387.85	1927.14
388.06	2133.98
388.27	4235.20
388.48	6539.16
388.68	8191.88
388.89	9469.81
389.10	9680.75
389.31	8525.69
389.52	7360.40
389.73	6705.05
389.93	6170.53
390.14	5722.02
390.35	5007.28
390.56	4554.68
390.77	3733.45
390.98	3043.28
391.18	2435.03
391.39	2172.89
391.60	1875.94
391.81	1857.51
392.02	1687.53
392.23	1826.79
392.43	1722.34
392.64	1769.44
392.85	1687.53
393.06	1892.32
393.27	1734.63
393.47	1757.16
393.68	1759.21
393.89	1695.72
394.10	1824.74
394.31	1697.77
394.52	1740.77
394.72	1667.05
394.93	1806.31
395.14	1763.30
395.35	1712.10
395.56	1679.33
395.76	1755.11
395.97	1767.40
396.18	1865.70
396.39	1845.22
396.60	1986.53
396.80	1890.28
397.01	1837.03
397.22	1775.59
397.43	1818.60
397.64	1810.40
397.84	1751.01
398.05	1869.80
398.26	1763.30
398.47	1824.74
398.67	1810.40
398.88	1767.40
399.09	1677.29
399.30	1697.77
399.51	1800.16
399.71	1646.57
399.92	1724.39
400.13	1681.38
400.34	1703.91
400.54	1701.86
400.75	1853.41
400.96	1763.30
401.17	1845.22
401.37	1791.97
401.58	1714.15
401.79	1701.86
402.00	1947.62
402.21	1957.86
402.41	1910.75
402.62	2015.20
402.83	2033.63
403.04	1996.77
403.24	2047.97
403.45	1880.04
403.66	1927.14
403.87	1894.37
404.07	1964.00
404.28	1904.61
404.49	1873.89
404.70	1837.03
404.90	1789.92
405.11	1726.44
405.32	1759.21
405.52	1691.62
405.73	1691.62
405.94	1636.33
406.15	1730.53
406.35	1808.36
406.56	1722.34
406.77	1771.49
406.98	1746.92
407.18	1689.57
407.39	1841.12
407.60	1722.34
407.80	1746.92
408.01	1701.86
408.22	1714.15
408.43	1675.24
408.63	1767.40
408.84	1783.78
409.05	1789.92
409.25	1603.56
409.46	1740.77
409.67	1689.57
409.88	1652.71
410.08	1753.06
410.29	1681.38
410.50	1744.87
410.70	1748.97
410.91	1648.61
411.12	1816.55
411.32	1734.63
411.53	1689.57
411.74	1826.79
411.95	1845.22
412.15	1806.31
412.36	1796.07
412.57	1814.50
412.77	1773.54
412.98	1769.44
413.19	1724.39
413.39	1650.66
413.60	1757.16
413.81	1726.44
414.01	1736.68
414.22	1783.78
414.43	1857.51
414.63	1660.90
414.84	1761.25
415.05	1703.91
415.25	1679.33
415.46	1736.68
415.67	1701.86
415.87	1726.44
416.08	1748.97
416.29	1753.06
416.49	1759.21
416.70	1751.01
416.91	1617.90
417.11	1771.49
417.32	1738.73
417.53	1816.55
417.73	1783.78
417.94	1705.96
418.15	1800.16
418.35	1624.04
418.56	1685.48
418.77	1837.03
418.97	1681.38
419.18	1703.91
419.38	1542.12
419.59	1740.77
419.80	1787.88
420.00	1726.44
420.21	1720.29
420.42	1834.98
420.62	1667.05
420.83	1671.14
421.04	1705.96
421.24	1687.53
421.45	1751.01
421.65	1738.73
421.86	1708.01
422.07	1755.11
422.27	1759.21
422.48	1708.01
422.69	1671.14
422.89	1712.10
423.10	1685.48
423.30	1648.61
423.51	1724.39
423.72	1767.40
423.92	1738.73
424.13	1626.09
424.33	1718.25
424.54	1726.44
424.75	1695.72
424.95	1824.74
425.16	1775.59
425.36	1726.44
425.57	1853.41
425.78	1753.06
425.98	1800.16
426.19	1736.68
426.39	1656.81
426.60	1679.33
426.81	1871.84
427.01	1710.05
427.22	1687.53
427.42	1691.62
427.63	1681.38
427.83	1789.92
428.04	1789.92
428.25	1695.72
428.45	1767.40
428.66	1822.69
428.86	1691.62
429.07	1667.05
429.28	1728.49
429.48	1771.49
429.69	1617.90
429.89	1699.81
430.10	1746.92
430.30	1779.68
430.51	1785.83
430.71	1632.23
430.92	1716.20
431.13	1695.72
431.33	1777.64
431.54	1755.11
431.74	1781.73
431.95	1931.23
432.15	1724.39
432.36	1730.53
432.56	1777.64
432.77	1853.41
432.98	1765.35
433.18	1703.91
433.39	1708.01
433.59	1734.63
433.80	1839.08
434.00	1837.03
434.21	1722.34
434.41	1679.33
434.62	1845.22
434.82	1658.85
435.03	1685.48
435.23	1773.54
435.44	1617.90
435.64	1708.01
435.85	1689.57
436.06	1730.53
436.26	1769.44
436.47	1744.87
436.67	1798.12
436.88	1703.91
437.08	1779.68
437.29	1816.55
437.49	1748.97
437.70	1757.16
437.90	1689.57
438.11	1865.70
438.31	1843.17
438.52	1855.46
438.72	1943.52
438.93	1886.18
439.13	1720.29
439.34	1800.16
439.54	1781.73
439.75	1804.26
439.95	1781.73
440.16	1738.73
440.36	1781.73
440.57	1744.87
440.77	1806.31
440.98	1714.15
441.18	1802.21
441.39	1716.20
441.59	1738.73
441.80	1875.94
442.00	1859.56
442.21	1759.21
442.41	1695.72
442.62	1800.16
442.82	1642.47
443.02	1656.81
443.23	1787.88
443.43	1701.86
443.64	1857.51
443.84	1656.81
444.05	1812.45
444.25	1783.78
444.46	1697.77
444.66	1763.30
444.87	1847.27
445.07	1730.53
445.28	1757.16
445.48	1902.56
445.69	1687.53
445.89	1877.99
446.09	1687.53
446.30	1986.53
446.50	2682.84
446.71	3688.39
446.91	4290.49
447.12	4818.87
447.32	4984.76
447.53	4239.30
447.73	3819.46
447.93	3487.69
448.14	3338.19
448.34	3227.60
448.55	2879.44
448.75	2885.59
448.96	2693.08
449.16	2402.27
449.36	2336.73
449.57	2058.21
449.77	1882.08
449.98	1800.16
450.18	1812.45
450.39	1800.16
450.59	1789.92
450.79	1773.54
451.00	1746.92
451.20	1767.40
451.41	1773.54
451.61	1765.35
451.81	1769.44
452.02	1794.02
452.22	1777.64
452.43	1730.53
452.63	1691.62
452.84	1785.83
453.04	1705.96
453.24	1740.77
453.45	1732.58
453.65	1775.59
453.86	1740.77
454.06	1769.44
454.26	1763.30
454.47	1650.66
454.67	1839.08
454.87	1759.21
455.08	1685.48
455.28	1822.69
455.49	1746.92
455.69	1638.38
455.89	1855.46
456.10	1755.11
456.30	1716.20
456.51	1779.68
456.71	1767.40
456.91	1800.16
457.12	1703.91
457.32	1771.49
457.52	1662.95
457.73	1791.97
457.93	1746.92
458.14	1746.92
458.34	1744.87
458.54	1771.49
458.75	1699.81
458.95	1816.55
459.15	1837.03
459.36	1767.40
459.56	1796.07
459.76	1871.84
459.97	1800.16
460.17	1767.40
460.37	1855.46
460.58	1726.44
460.78	1753.06
460.99	1689.57
461.19	1722.34
461.39	1753.06
461.60	1746.92
461.80	1789.92
462.00	1677.29
462.21	1751.01
462.41	1765.35
462.61	1619.94
462.82	1619.94
463.02	1736.68
463.22	1779.68
463.43	1787.88
463.63	1714.15
463.83	1824.74
464.04	1767.40
464.24	1798.12
464.44	1669.09
464.64	1783.78
464.85	1830.88
465.05	1771.49
465.25	1746.92
465.46	1757.16
465.66	1777.64
465.86	1832.93
466.07	1738.73
466.27	1705.96
466.47	1652.71
466.68	1648.61
466.88	1806.31
467.08	1734.63
467.29	1716.20
467.49	1816.55
467.69	1679.33
467.89	1802.21
468.10	1726.44
468.30	1810.40
468.50	1787.88
468.71	1763.30
468.91	1728.49
469.11	1845.22
469.31	1785.83
469.52	1646.57
469.72	1802.21
469.92	1857.51
470.13	1759.21
470.33	1689.57
470.53	1806.31
470.73	2072.54
470.94	2291.68
471.14	2334.68
471.34	2516.95
471.54	2447.32
471.75	2248.67
471.95	2109.41
472.15	2090.98
472.36	2136.03
472.56	2117.60
472.76	2105.31
472.96	2066.40
473.17	2043.87
473.37	1890.28
473.57	1710.05
473.77	1853.41
473.98	1734.63
474.18	1732.58
474.38	1849.32
474.58	1677.29
474.79	1658.85
474.99	1759.21
475.19	1763.30
475.39	1619.94
475.60	1794.02
475.80	1705.96
476.00	1771.49
476.20	1726.44
476.41	1746.92
476.61	1845.22
476.81	1781.73
477.01	1724.39
477.21	1851.36
477.42	1906.66
477.62	1710.05
477.82	1796.07
478.02	1646.57
478.23	1781.73
478.43	1640.42
478.63	1677.29
478.83	1716.20
479.03	1746.92
479.24	1800.16
479.44	1789.92
479.64	1646.57
479.84	1677.29
480.04	1646.57
480.25	1710.05
480.45	1654.76
480.65	1730.53
480.85	1810.40
481.06	1796.07
481.26	1740.77
481.46	1757.16
481.66	1681.38
481.86	1742.82
482.06	1787.88
482.27	1753.06
482.47	1691.62
482.67	1759.21
482.87	1699.81
483.07	1810.40
483.28	1703.91
483.48	1722.34
483.68	1712.10
483.88	1724.39
484.08	1708.01
484.29	1718.25
484.49	1763.30
484.69	1619.94
484.89	1769.44
485.09	1781.73
485.29	1839.08
485.50	1746.92
485.70	1673.19
485.90	1767.40
486.10	1775.59
486.30	1808.36
486.50	1773.54
486.71	1802.21
486.91	1767.40
487.11	1855.46
487.31	1636.33
487.51	1779.68
487.71	1701.86
487.91	1667.05
488.12	1656.81
488.32	1640.42
488.52	1638.38
488.72	1660.90
488.92	1673.19
489.12	1839.08
489.32	1744.87
489.53	1746.92
489.73	1640.42
489.93	1800.16
490.13	1685.48
490.33	1568.74
490.53	1779.68
490.73	1894.37
490.94	1632.23
491.14	1701.86
491.34	1894.37
491.54	2154.46
491.74	2641.88
491.94	2981.84
492.14	3053.52
492.34	3057.62
492.54	2756.57
492.75	2475.99
492.95	2355.16
493.15	2328.54
493.35	2349.02
493.55	2195.42
493.75	2109.41
493.95	2127.84
494.15	1980.39
494.35	1910.75
494.56	1882.08
494.76	1804.26
494.96	1863.65
495.16	1818.60
495.36	1794.02
495.56	1714.15
495.76	1742.82
495.96	1755.11
496.16	1656.81
496.36	1826.79
496.56	1746.92
496.77	1740.77
496.97	1746.92
497.17	1814.50
497.37	1656.81
497.57	1849.32
497.77	1789.92
497.97	1775.59
498.17	1726.44
498.37	1673.19
498.57	1724.39
498.77	1746.92
498.97	1730.53
499.17	1834.98
499.38	1746.92
499.58	1806.31
499.78	1804.26
499.98	1746.92
500.18	1712.10
500.38	1746.92
500.58	1964.00
500.78	2457.56
500.98	4501.44
501.18	5859.24
501.38	6840.22
501.58	7126.93
501.78	6490.01
501.98	5533.61
502.18	4908.98
502.38	4323.26
502.58	4159.42
502.78	3733.45
502.98	3631.05
503.18	3526.60
503.38	3100.62
503.59	2768.85
503.79	2754.52
503.99	2447.32
504.19	2211.81
504.39	2224.09
504.59	2150.37
504.79	2158.56
504.99	2076.64
505.19	1968.10
505.39	1908.71
505.59	1970.15
505.79	1880.04
505.99	1912.80
506.19	1810.40
506.39	1863.65
506.59	1730.53
506.79	1722.34
506.99	1822.69
507.19	1777.64
507.39	1724.39
507.59	1681.38
507.79	1705.96
507.99	1740.77
508.19	1738.73
508.39	1679.33
508.59	1732.58
508.79	1796.07
508.99	1875.94
509.19	1728.49
509.39	1775.59
509.59	1808.36
509.79	1728.49
509.99	1718.25
510.19	1814.50
510.39	1718.25
510.59	1761.25
510.79	1716.20
510.99	1603.56
511.19	1656.81
511.39	1839.08
511.59	1751.01
511.79	1884.13
511.99	1796.07
512.19	1896.42
512.38	1765.35
512.58	1705.96
512.78	1665.00
512.98	1845.22
513.18	1808.36
513.38	1675.24
513.58	1775.59
513.78	1724.39
513.98	1718.25
514.18	1718.25
514.38	1660.90
514.58	1779.68
514.78	1679.33
514.98	1665.00
515.18	1683.43
515.38	1638.38
515.58	1716.20
515.78	1691.62
515.98	1736.68
516.18	1806.31
516.38	1798.12
516.57	1691.62
516.77	1720.29
516.97	1794.02
517.17	1714.15
517.37	1667.05
517.57	1830.88
517.77	1798.12
517.97	1734.63
518.17	1814.50
518.37	1742.82
518.57	1730.53
518.77	1781.73
518.97	1648.61
519.16	1847.27
519.36	1796.07
519.56	1802.21
519.76	1673.19
519.96	1767.40
520.16	1757.16
520.36	1777.64
520.56	1722.34
520.76	1748.97
520.96	1755.11
521.16	1843.17
521.35	1759.21
521.55	1806.31
521.75	1753.06
521.95	1716.20
522.15	1697.77
522.35	1640.42
522.55	1656.81
522.75	1775.59
522.95	1708.01
523.14	1726.44
523.34	1753.06
523.54	1712.10
523.74	1816.55
523.94	1800.16
524.14	1644.52
524.34	1755.11
524.54	1853.41
524.73	1738.73
524.93	1796.07
525.13	1812.45
525.33	1697.77
525.53	1923.04
525.73	1808.36
525.93	1693.67
526.13	1671.14
526.32	1785.83
526.52	1875.94
526.72	1751.01
526.92	1806.31
527.12	1691.62
527.32	1656.81
527.52	1718.25
527.71	1787.88
527.91	1699.81
528.11	1726.44
528.31	1738.73
528.51	1732.58
528.71	1830.88
528.90	1720.29
529.10	1855.46
529.30	1791.97
529.50	1697.77
529.70	1724.39
529.90	1732.58
530.09	1734.63
530.29	1703.91
530.49	1826.79
530.69	1869.80
530.89	1751.01
531.09	1843.17
531.28	1773.54
531.48	1841.12
531.68	1718.25
531.88	1765.35
532.08	1832.93
532.28	1718.25
532.47	1769.44
532.67	1775.59
532.87	1775.59
533.07	1648.61
533.27	1814.50
533.46	1787.88
533.66	1761.25
533.86	1697.77
534.06	1689.57
534.26	1808.36
534.45	1708.01
534.65	1810.40
534.85	1789.92
535.05	1687.53
535.25	1808.36
535.44	1626.09
535.64	1763.30
535.84	1751.01
536.04	1632.23
536.24	1789.92
536.43	1726.44
536.63	1804.26
536.83	1753.06
537.03	1720.29
537.22	1693.67
537.42	1697.77
537.62	1714.15
537.82	1671.14
538.02	1767.40
538.21	1834.98
538.41	1877.99
538.61	1738.73
538.81	1677.29
539.00	1845.22
539.20	1699.81
539.40	1730.53
539.60	1755.11
539.79	1734.63
539.99	1726.44
540.19	1746.92
540.39	1691.62
540.58	1828.84
540.78	1832.93
540.98	1755.11
541.18	1746.92
541.37	1681.38
541.57	1769.44
541.77	1771.49
541.97	1677.29
542.16	1634.28
542.36	1693.67
542.56	1767.40
542.76	1830.88
542.95	1767.40
543.15	1746.92
543.35	1845.22
543.54	1779.68
543.74	1681.38
543.94	1834.98
544.14	1722.34
544.33	1863.65
544.53	1818.60
544.73	1783.78
544.93	1675.24
545.12	1708.01
545.32	1804.26
545.52	1777.64
545.71	1613.80
545.91	1662.95
546.11	1732.58
546.30	1652.71
546.50	1689.57
546.70	1791.97
546.90	1746.92
547.09	1564.65
547.29	1751.01
547.49	1726.44
547.68	1787.88
547.88	1794.02
548.08	1816.55
548.27	2127.84
548.47	1767.40
548.67	1691.62
548.87	1771.49
549.06	1716.20
549.26	1771.49
549.46	1802.21
549.65	1724.39
549.85	1714.15
550.05	1796.07
550.24	1644.52
550.44	1726.44
550.64	1757.16
550.83	1701.86
551.03	1728.49
551.23	1791.97
551.42	1759.21
551.62	1724.39
551.82	1742.82
552.01	1708.01
552.21	1783.78
552.41	1656.81
552.60	1869.80
552.80	1697.77
553.00	1703.91
553.19	1757.16
553.39	1822.69
553.59	1648.61
553.78	1794.02
553.98	1710.05
554.17	1789.92
554.37	1697.77
554.57	1816.55
554.76	1705.96
554.96	1697.77
555.16	1806.31
555.35	1728.49
555.55	1810.40
555.75	1734.63
555.94	1822.69
556.14	1693.67
556.33	1845.22
556.53	1779.68
556.73	1740.77
556.92	1820.64
557.12	1824.74
557.32	1824.74
557.51	1746.92
557.71	1800.16
557.90	1843.17
558.10	1810.40
558.30	1775.59
558.49	1716.20
558.69	1714.15
558.88	1732.58
559.08	1701.86
559.28	1730.53
559.47	1812.45
559.67	1761.25
559.86	1796.07
560.06	1679.33
560.26	1691.62
560.45	1794.02
560.65	1708.01
560.84	1785.83
561.04	1734.63
561.24	1775.59
561.43	1679.33
561.63	1773.54
561.82	1736.68
562.02	1796.07
562.22	1728.49
562.41	1712.10
562.61	1730.53
562.80	1697.77
563.00	1892.32
563.19	1775.59
563.39	1755.11
563.59	1757.16
563.78	1667.05
563.98	1609.70
564.17	1714.15
564.37	1685.48
564.56	1816.55
564.76	1669.09
564.96	1832.93
565.15	1712.10
565.35	1837.03
565.54	1710.05
565.74	1728.49
565.93	1775.59
566.13	1783.78
566.32	1718.25
566.52	1796.07
566.71	1730.53
566.91	1824.74
567.11	1722.34
567.30	1683.43
567.50	1767.40
567.69	1761.25
567.89	1726.44
568.08	1648.61
568.28	1769.44
568.47	1578.98
568.67	1757.16
568.86	1720.29
569.06	1785.83
569.25	1699.81
569.45	1667.05
569.64	1726.44
569.84	1689.57
570.04	1779.68
570.23	1644.52
570.43	1748.97
570.62	1748.97
570.82	1804.26
571.01	1718.25
571.21	1734.63
571.40	1695.72
571.60	1802.21
571.79	1757.16
571.99	1730.53
572.18	1726.44
572.38	1777.64
572.57	1751.01
572.77	1796.07
572.96	1982.43
573.16	1794.02
573.35	1677.29
573.55	1761.25
573.74	1791.97
573.94	1802.21
574.13	1767.40
574.33	1832.93
574.52	1783.78
574.71	1695.72
574.91	1757.16
575.10	1679.33
575.30	1779.68
575.49	1736.68
575.69	1759.21
575.88	1736.68
576.08	1708.01
576.27	1769.44
576.47	1697.77
576.66	1828.84
576.86	1890.28
577.05	1818.60
577.25	1837.03
577.44	1837.03
577.64	1734.63
577.83	1869.80
578.02	1759.21
578.22	1820.64
578.41	1834.98
578.61	1789.92
578.80	1687.53
579.00	1771.49
579.19	1775.59
579.39	1845.22
579.58	1855.46
579.77	1816.55
579.97	1804.26
580.16	1839.08
580.36	1806.31
580.55	1873.89
580.75	1705.96
580.94	1746.92
581.13	1847.27
581.33	1806.31
581.52	1710.05
581.72	1959.91
581.91	1880.04
582.11	1845.22
582.30	1820.64
582.49	1781.73
582.69	1822.69
582.88	1755.11
583.08	1783.78
583.27	1875.94
583.47	1753.06
583.66	1689.57
583.85	1705.96
584.05	1843.17
584.24	1794.02
584.44	1822.69
584.63	1769.44
584.82	1871.84
585.02	1892.32
585.21	1830.88
585.41	1837.03
585.60	1830.88
585.79	1951.71
585.99	1910.75
586.18	1877.99
586.37	2236.38
586.57	3463.12
586.76	9711.47
586.96	24319.63
587.15	34022.90
587.34	39873.95
587.54	41403.78
587.73	36097.50
587.93	25714.30
588.12	21239.48
588.31	17987.31
588.51	16172.81
588.70	14952.22
588.89	13879.08
589.09	12447.55
589.28	10848.09
589.47	9344.88
589.67	7790.47
589.86	6313.89
590.06	4792.25
590.25	3874.76
590.44	3022.80
590.64	2605.02
590.83	2279.39
591.02	2150.37
591.22	1947.62
591.41	1877.99
591.60	1816.55
591.80	2019.30
591.99	1685.48
592.18	1771.49
592.38	1820.64
592.57	1732.58
592.76	1759.21
592.96	1806.31
593.15	1804.26
593.34	1773.54
593.54	1873.89
593.73	1806.31
593.92	1798.12
594.12	1755.11
594.31	1767.40
594.50	1857.51
594.70	1814.50
594.89	1826.79
595.08	1773.54
595.28	1853.41
595.47	1953.76
595.66	1822.69
595.86	1730.53
596.05	1730.53
596.24	1730.53
596.43	1808.36
596.63	1847.27
596.82	1794.02
597.01	1822.69
597.21	1851.36
597.40	1814.50
597.59	1691.62
597.79	1699.81
597.98	1839.08
598.17	1791.97
598.36	1751.01
598.56	1824.74
598.75	1753.06
598.94	1744.87
599.14	1777.64
599.33	1759.21
599.52	1794.02
599.71	1697.77
599.91	1886.18
600.10	1818.60
600.29	1755.11
600.48	1767.40
600.68	1761.25
600.87	1775.59
601.06	1730.53
601.26	1755.11
601.45	1718.25
601.64	1710.05
601.83	1822.69
602.03	1675.24
602.22	1728.49
602.41	1808.36
602.60	1859.56
602.80	1791.97
602.99	1757.16
603.18	1755.11
603.37	1751.01
603.57	1771.49
603.76	1810.40
603.95	1755.11
604.14	1767.40
604.34	1744.87
604.53	1773.54
604.72	1687.53
604.91	1810.40
605.10	1785.83
605.30	1675.24
605.49	1828.84
605.68	1794.02
605.87	1812.45
606.07	1708.01
606.26	1738.73
606.45	1820.64
606.64	1701.86
606.84	1738.73
607.03	1748.97
607.22	1812.45
607.41	1775.59
607.60	1765.35
607.80	1800.16
607.99	1796.07
608.18	1757.16
608.37	1708.01
608.56	1744.87
608.76	1777.64
608.95	1834.98
609.14	1746.92
609.33	1783.78
609.52	1839.08
609.72	1783.78
609.91	1841.12
610.10	1716.20
610.29	1869.80
610.48	1828.84
610.68	1787.88
610.87	1789.92
611.06	1771.49
611.25	1697.77
611.44	1777.64
611.63	1677.29
611.83	1832.93
612.02	1634.28
612.21	1802.21
612.40	1591.27
612.59	1681.38
612.79	1642.47
612.98	1738.73
613.17	1902.56
613.36	1826.79
613.55	1794.02
613.74	1638.38
613.93	1683.43
614.13	1701.86
614.32	1726.44
614.51	1796.07
614.70	1714.15
614.89	1693.67
615.08	1724.39
615.28	2084.83
615.47	1714.15
615.66	1781.73
615.85	1751.01
616.04	1816.55
616.23	1779.68
616.42	1710.05
616.62	1697.77
616.81	1804.26
617.00	1697.77
617.19	1824.74
617.38	1658.85
617.57	1724.39
617.76	1763.30
617.95	1771.49
618.15	1771.49
618.34	1841.12
618.53	1589.22
618.72	1763.30
618.91	1779.68
619.10	1849.32
619.29	1732.58
619.48	1771.49
619.68	1626.09
619.87	1699.81
620.06	1587.18
620.25	1789.92
620.44	1781.73
620.63	1683.43
620.82	1796.07
621.01	1806.31
621.20	1728.49
621.39	1763.30
621.59	1742.82
621.78	1783.78
621.97	1662.95
622.16	1773.54
622.35	1734.63
622.54	1765.35
622.73	1789.92
622.92	1648.61
623.11	1730.53
623.30	1705.96
623.49	1785.83
623.68	1740.77
623.88	1800.16
624.07	1726.44
624.26	1740.77
624.45	1798.12
624.64	1710.05
624.83	1771.49
625.02	1726.44
625.21	1689.57
625.40	1699.81
625.59	1787.88
625.78	1677.29
625.97	1712.10
626.16	1746.92
626.35	1693.67
626.54	1699.81
626.74	1816.55
626.93	1708.01
627.12	1773.54
627.31	1816.55
627.50	1775.59
627.69	1746.92
627.88	1746.92
628.07	1642.47
628.26	1673.19
628.45	1677.29
628.64	1607.66
628.83	1654.76
629.02	1726.44
629.21	1761.25
629.40	1677.29
629.59	1611.75
629.78	1660.90
629.97	1716.20
630.16	1693.67
630.35	1665.00
630.54	1746.92
630.73	1662.95
630.92	1736.68
631.11	1796.07
631.30	1767.40
631.49	1806.31
631.68	1816.55
631.87	1826.79
632.06	1720.29
632.25	1869.80
632.44	1609.70
632.63	1710.05
632.82	1638.38
633.01	1742.82
633.20	1671.14
633.39	1685.48
633.58	1669.09
633.77	1724.39
633.96	1740.77
634.15	1738.73
634.34	1716.20
634.53	1773.54
634.72	1705.96
634.91	1597.42
635.10	1621.99
635.29	1849.32
635.48	1814.50
635.67	1662.95
635.86	1662.95
636.05	1708.01
636.24	1724.39
636.43	1701.86
636.62	1746.92
636.81	1636.33
637.00	1710.05
637.19	1751.01
637.38	1771.49
637.57	1654.76
637.76	1683.43
637.95	1738.73
638.14	1679.33
638.33	1726.44
638.52	1753.06
638.71	1671.14
638.89	1697.77
639.08	1861.60
639.27	1771.49
639.46	1742.82
639.65	1808.36
639.84	1763.30
640.03	1773.54
640.22	1638.38
640.41	1888.23
640.60	1695.72
640.79	1693.67
640.98	1751.01
641.17	1697.77
641.36	1775.59
641.55	1689.57
641.74	1710.05
641.92	1636.33
642.11	1626.09
642.30	1812.45
642.49	1767.40
642.68	1689.57
642.87	1656.81
643.06	1763.30
643.25	1665.00
643.44	1603.56
643.63	1681.38
643.82	1746.92
644.00	1701.86
644.19	1746.92
644.38	1621.99
644.57	1851.36
644.76	1767.40
644.95	1746.92
645.14	1759.21
645.33	1779.68
645.52	1673.19
645.71	1693.67
645.89	1617.90
646.08	1763.30
646.27	1695.72
646.46	1820.64
646.65	1624.04
646.84	1853.41
647.03	1681.38
647.22	1804.26
647.40	1824.74
647.59	1652.71
647.78	1640.42
647.97	1724.39
648.16	1628.14
648.35	1890.28
648.54	1865.70
648.73	1798.12
648.91	1712.10
649.10	1689.57
649.29	1820.64
649.48	1742.82
649.67	1769.44
649.86	1742.82
650.05	1673.19
650.23	1804.26
650.42	1703.91
650.61	1810.40
650.80	1781.73
650.99	1859.56
651.18	1730.53
651.36	1810.40
651.55	1687.53
651.74	1802.21
651.93	1695.72
652.12	1652.71
652.31	1718.25
652.49	1744.87
652.68	1658.85
652.87	1812.45
653.06	1806.31
653.25	1779.68
653.44	1689.57
653.62	1736.68
653.81	1656.81
654.00	1814.50
654.19	1798.12
654.38	1898.47
654.56	1722.34
654.75	1724.39
654.94	1738.73
655.13	1736.68
655.32	1769.44
655.51	1798.12
655.69	1665.00
655.88	1759.21
656.07	1701.86
656.26	1734.63
656.45	1718.25
656.63	1748.97
656.82	1828.84
657.01	1767.40
657.20	1720.29
657.38	1867.75
657.57	1746.92
657.76	1652.71
657.95	1800.16
658.14	1718.25
658.32	1710.05
658.51	1642.47
658.70	1744.87
658.89	1679.33
659.08	1714.15
659.26	1822.69
659.45	1675.24
659.64	1773.54
659.83	1667.05
660.01	1890.28
660.20	1648.61
660.39	1783.78
660.58	1671.14
660.76	1877.99
660.95	1648.61
661.14	1671.14
661.33	1683.43
661.51	1740.77
661.70	1718.25
661.89	1673.19
662.08	1759.21
662.26	1601.51
662.45	1646.57
662.64	1888.23
662.83	1734.63
663.01	1658.85
663.20	1650.66
663.39	1705.96
663.58	1679.33
663.76	1720.29
663.95	1734.63
664.14	1708.01
664.32	1691.62
664.51	1714.15
664.70	1617.90
664.89	1783.78
665.07	1669.09
665.26	1806.31
665.45	1708.01
665.64	1722.34
665.82	1652.71
666.01	1777.64
666.20	1665.00
666.38	1900.52
666.57	1796.07
666.76	2185.18
666.95	4523.96
667.13	10372.96
667.32	15171.35
667.51	17792.75
667.69	18917.09
667.88	17503.99
668.07	12185.41
668.25	9361.27
668.44	7917.45
668.63	7309.20
668.81	6786.97
669.00	6139.81
669.19	5631.91
669.38	5074.87
669.56	4636.60
669.75	3909.57
669.94	3502.03
670.12	2803.67
670.31	2502.62
670.50	2265.05
670.68	2072.54
670.87	1920.99
671.06	1839.08
671.24	1828.84
671.43	1853.41
671.62	1781.73
671.80	1726.44
671.99	1746.92
672.18	1705.96
672.36	1812.45
672.55	1722.34
672.74	1730.53
672.92	1746.92
673.11	1751.01
673.29	1652.71
673.48	1763.30
673.67	1720.29
673.85	1763.30
674.04	1703.91
674.23	1720.29
674.41	1847.27
674.60	1681.38
674.79	1613.80
674.97	1734.63
675.16	1759.21
675.34	1794.02
675.53	1722.34
675.72	1730.53
675.90	1808.36
676.09	1705.96
676.28	1765.35
676.46	1671.14
676.65	1853.41
676.83	1628.14
677.02	1742.82
677.21	1714.15
677.39	1777.64
677.58	1718.25
677.77	1726.44
677.95	1691.62
678.14	1789.92
678.32	1675.24
678.51	1669.09
678.70	1822.69
678.88	1652.71
679.07	1744.87
679.25	1718.25
679.44	1734.63
679.63	1656.81
679.81	1705.96
680.00	1781.73
680.18	1751.01
680.37	1865.70
680.55	1767.40
680.74	1644.52
680.93	1595.37
681.11	1769.44
681.30	1738.73
681.48	1673.19
681.67	1640.42
681.85	1624.04
682.04	1660.90
682.23	1665.00
682.41	1816.55
682.60	1646.57
682.78	1697.77
682.97	1734.63
683.15	1710.05
683.34	1773.54
683.53	1794.02
683.71	1675.24
683.90	1794.02
684.08	1816.55
684.27	1726.44
684.45	1730.53
684.64	1791.97
684.82	1697.77
685.01	1742.82
685.19	1730.53
685.38	1812.45
685.57	1742.82
685.75	1708.01
685.94	1710.05
686.12	1691.62
686.31	1683.43
686.49	1822.69
686.68	1648.61
686.86	1689.57
687.05	1665.00
687.23	1767.40
687.42	1710.05
687.60	1673.19
687.79	1675.24
687.97	1871.84
688.16	1787.88
688.34	1808.36
688.53	1665.00
688.71	1685.48
688.90	1824.74
689.08	1699.81
689.27	1593.32
689.45	1726.44
689.64	1740.77
689.82	1699.81
690.01	1779.68
690.19	1763.30
690.38	1726.44
690.56	1787.88
690.75	1693.67
690.93	1724.39
691.12	1708.01
691.30	1732.58
691.49	1648.61
691.67	1673.19
691.86	1826.79
692.04	1652.71
692.23	1689.57
692.41	1728.49
692.60	1837.03
692.78	1763.30
692.97	1675.24
693.15	1730.53
693.34	1859.56
693.52	1775.59
693.71	1742.82
693.89	1724.39
694.08	1710.05
694.26	1757.16
694.44	1695.72
694.63	1761.25
694.81	1660.90
695.00	1781.73
695.18	1804.26
695.37	1920.99
695.55	1722.34
695.74	1687.53
695.92	1693.67
696.10	1789.92
696.29	1720.29
696.47	1703.91
696.66	1636.33
696.84	1665.00
697.03	1779.68
697.21	1888.23
697.40	2303.96
697.58	1800.16
697.76	1642.47
697.95	1705.96
698.13	1716.20
698.32	1679.33
698.50	1744.87
698.68	1746.92
698.87	1720.29
699.05	1800.16
699.24	1775.59
699.42	1679.33
699.61	1691.62
699.79	1675.24
699.97	1689.57
700.16	1644.52
700.34	1660.90
700.53	1681.38
700.71	1767.40
700.89	1816.55
701.08	1689.57
701.26	1716.20
701.45	2164.70
701.63	1626.09
701.81	1708.01
702.00	1705.96
702.18	1748.97
702.37	1617.90
702.55	1751.01
702.73	1708.01
702.92	1632.23
703.10	1816.55
703.28	1746.92
703.47	1669.09
703.65	1830.88
703.84	1789.92
704.02	1667.05
704.20	1785.83
704.39	1632.23
704.57	1617.90
704.75	1751.01
704.94	1787.88
705.12	1693.67
705.30	1832.93
705.49	2308.06
705.67	4480.96
705.86	9394.03
706.04	12558.14
706.22	14427.94
706.41	15034.14
706.59	13346.61
706.77	9402.22
706.96	7331.73
707.14	6299.55
707.32	5973.92
707.51	5562.28
707.69	4777.91
707.87	4083.65
708.06	3489.74
708.24	2973.65
708.42	2394.08
708.61	2289.63
708.79	1978.34
708.97	1880.04
709.16	1871.84
709.34	1808.36
709.52	1769.44
709.71	1742.82
709.89	1787.88
710.07	1708.01
710.26	1607.66
710.44	1685.48
710.62	1808.36
710.80	1773.54
710.99	1734.63
711.17	1771.49
711.35	1716.20
711.54	1746.92
711.72	1824.74
711.90	1697.77
712.09	1812.45
712.27	1708.01
712.45	1746.92
712.63	1665.00
712.82	1855.46
713.00	1714.15
713.18	1775.59
713.37	1757.16
713.55	1712.10
713.73	1714.15
713.91	1689.57
714.10	1632.23
714.28	1695.72
714.46	1748.97
714.65	1697.77
714.83	1773.54
715.01	1728.49
715.19	1718.25
715.38	1710.05
715.56	1691.62
715.74	1644.52
715.92	1644.52
716.11	1798.12
716.29	1634.28
716.47	1695.72
716.65	1722.34
716.84	1656.81
717.02	1744.87
717.20	1640.42
717.38	1714.15
717.57	1777.64
717.75	1621.99
717.93	1732.58
718.11	1767.40
718.30	1611.75
718.48	1839.08
718.66	1783.78
718.84	1736.68
719.03	1732.58
719.21	1689.57
719.39	1783.78
719.57	1726.44
719.75	1763.30
719.94	1650.66
720.12	1714.15
720.30	1714.15
720.48	1771.49
720.67	1718.25
720.85	1660.90
721.03	1636.33
721.21	1656.81
721.39	1757.16
721.58	1714.15
721.76	1755.11
721.94	1665.00
722.12	1796.07
722.30	1785.83
722.49	1642.47
722.67	1695.72
722.85	1726.44
723.03	1689.57
723.21	1662.95
723.40	1673.19
723.58	1783.78
723.76	1701.86
723.94	1705.96
724.12	1763.30
724.30	1806.31
724.49	1675.24
724.67	1601.51
724.85	1800.16
725.03	1640.42
725.21	1808.36
725.40	1763.30
725.58	1685.48
725.76	1759.21
725.94	1738.73
726.12	1685.48
726.30	1718.25
726.49	1665.00
726.67	1767.40
726.85	1638.38
727.03	1804.26
727.21	2140.13
727.39	2852.82
727.57	3696.58
727.76	4220.86
727.94	4421.56
728.12	4349.89
728.30	3678.15
728.48	2973.65
728.66	2756.57
728.84	2535.39
729.03	2260.96
729.21	2209.76
729.39	2062.30
729.57	1916.90
729.75	1851.36
729.93	1867.75
730.11	1724.39
730.30	1699.81
730.48	1732.58
730.66	1757.16
730.84	1769.44
731.02	1689.57
731.20	1746.92
731.38	1773.54
731.56	1656.81
731.74	1646.57
731.93	1712.10
732.11	1673.19
732.29	1716.20
732.47	1695.72
732.65	1718.25
732.83	1783.78
733.01	1728.49
733.19	1681.38
733.37	1716.20
733.56	1712.10
733.74	1736.68
733.92	1796.07
734.10	1763.30
734.28	1785.83
734.46	1660.90
734.64	1699.81
734.82	1658.85
735.00	1667.05
735.18	1703.91
735.36	1714.15
735.54	1697.77
735.73	1693.67
735.91	1746.92
736.09	1787.88
736.27	1718.25
736.45	1714.15
736.63	1638.38
736.81	1708.01
736.99	1740.77
737.17	1804.26
737.35	1724.39
737.53	1671.14
737.71	1697.77
737.89	1746.92
738.07	1708.01
738.25	1705.96
738.43	1673.19
738.61	1675.24
738.80	1689.57
738.98	1640.42
739.16	1712.10
739.34	1646.57
739.52	1843.17
739.70	1667.05
739.88	1787.88
740.06	1765.35
740.24	1626.09
740.42	1746.92
740.60	1650.66
740.78	1712.10
740.96	1636.33
741.14	1730.53
741.32	1734.63
741.50	1630.18
741.68	1808.36
741.86	1818.60
742.04	1673.19
742.22	1724.39
742.40	1695.72
742.58	1683.43
742.76	1697.77
742.94	1769.44
743.12	1665.00
743.30	1691.62
743.48	1699.81
743.66	1654.76
743.84	1744.87
744.02	1703.91
744.20	1746.92
744.38	1646.57
744.56	1665.00
744.74	1785.83
744.92	1746.92
745.10	1775.59
745.28	1777.64
745.46	1791.97
745.64	1648.61
745.82	1724.39
746.00	1777.64
746.18	1728.49
746.36	1644.52
746.54	1820.64
746.72	1759.21
746.90	1689.57
747.08	1779.68
747.26	1658.85
747.44	1693.67
747.62	1806.31
747.80	1746.92
747.98	1742.82
748.15	1665.00
748.33	1810.40
748.51	1746.92
748.69	1658.85
748.87	1624.04
749.05	1728.49
749.23	1773.54
749.41	1726.44
749.59	1705.96
749.77	1773.54
749.95	1685.48
750.13	1757.16
750.31	1724.39
750.49	1683.43
750.67	1763.30
750.85	1794.02
751.03	1699.81
751.20	1824.74
751.38	1771.49
751.56	1665.00
751.74	1718.25
751.92	1746.92
752.10	1652.71
752.28	1798.12
752.46	1710.05
752.64	1679.33
752.82	1708.01
753.00	1779.68
753.18	1675.24
753.35	1697.77
753.53	1677.29
753.71	1701.86
753.89	1703.91
754.07	1685.48
754.25	1699.81
754.43	1718.25
754.61	1609.70
754.79	1781.73
754.97	1685.48
755.14	1773.54
755.32	1671.14
755.50	1755.11
755.68	1755.11
755.86	1626.09
756.04	1732.58
756.22	1617.90
756.40	1791.97
756.57	1808.36
756.75	1697.77
756.93	1837.03
757.11	1720.29
757.29	1652.71
757.47	1748.97
757.65	1705.96
757.82	1607.66
758.00	1701.86
758.18	1714.15
758.36	1638.38
758.54	1830.88
758.72	1667.05
758.90	1785.83
759.07	1710.05
759.25	1642.47
759.43	1789.92
759.61	1617.90
759.79	2125.79
759.97	1822.69
760.15	1767.40
760.32	1656.81
760.50	1689.57
760.68	1779.68
760.86	1689.57
761.04	1804.26
761.22	1638.38
761.39	1751.01
761.57	1839.08
761.75	1730.53
761.93	1710.05
762.11	1681.38
762.28	1736.68
762.46	1652.71
762.64	1839.08
762.82	1683.43
763.00	1615.85
763.18	1816.55
763.35	1642.47
763.53	1785.83
763.71	1722.34
763.89	1705.96
764.07	1658.85
764.24	1646.57
764.42	1837.03
764.60	1599.46
764.78	1728.49
764.96	1701.86
765.13	1714.15
765.31	1665.00
765.49	1724.39
765.67	1675.24
765.84	1687.53
766.02	1644.52
766.20	1648.61
766.38	1814.50
766.56	1712.10
766.73	1736.68
766.91	1720.29
767.09	1697.77
767.27	1816.55
767.44	1697.77
767.62	1748.97
767.80	1746.92
767.98	1687.53
768.15	1660.90
768.33	1705.96
768.51	1755.11
768.69	1724.39
768.87	1775.59
769.04	1640.42
769.22	1828.84
769.40	1755.11
769.58	1882.08
769.75	1748.97
769.93	1837.03
770.11	1703.91
770.28	1708.01
770.46	1824.74
770.64	1656.81
770.82	1740.77
770.99	1695.72
771.17	1691.62
771.35	1738.73
771.53	1734.63
771.70	1662.95
771.88	1740.77
772.06	1703.91
772.23	1679.33
772.41	1726.44
772.59	1744.87
772.77	1658.85
772.94	1730.53
773.12	1759.21
773.30	1718.25
773.47	1699.81
773.65	1669.09
773.83	1826.79
774.01	1730.53
774.18	1609.70
774.36	1726.44
774.54	1675.24
774.71	1724.39
774.89	1665.00
775.07	1660.90
775.24	1734.63
775.42	1677.29
775.60	1804.26
775.78	1640.42
775.95	1705.96
776.13	1576.94
776.31	1558.50
776.48	1728.49
776.66	1791.97
776.84	1689.57
777.01	1683.43
777.19	1746.92
777.37	1734.63
777.54	1718.25
777.72	1802.21
777.90	1753.06
778.07	1626.09
778.25	1837.03
778.43	1660.90
778.60	1740.77
778.78	1763.30
778.96	1755.11
779.13	1667.05
779.31	1783.78
779.49	1789.92
779.66	1734.63
779.84	1736.68
780.01	1800.16
780.19	1656.81
780.37	1820.64
780.54	1726.44
780.72	1691.62
780.90	1759.21
781.07	1744.87
781.25	1656.81
781.43	1759.21
781.60	1665.00
781.78	1753.06
781.95	1789.92
782.13	1734.63
782.31	1673.19
782.48	1667.05
782.66	1697.77
782.83	1882.08
783.01	1751.01
783.19	1679.33
783.36	1642.47
783.54	1640.42
783.72	1736.68
783.89	1728.49
784.07	1701.86
784.24	1789.92
784.42	1771.49
784.60	1802.21
784.77	1714.15
784.95	1654.76
785.12	1757.16
785.30	1777.64
785.47	1624.04
785.65	1615.85
785.83	1773.54
786.00	1646.57
786.18	1714.15
786.35	1621.99
786.53	1607.66
786.71	1787.88
786.88	1681.38
787.06	1697.77
787.23	1708.01
787.41	1650.66
787.58	1761.25
787.76	1662.95
787.94	1722.34
788.11	1765.35
788.29	1640.42
788.46	1638.38
788.64	1632.23
788.81	1665.00
788.99	1654.76
789.16	1652.71
789.34	1689.57
789.52	1681.38
789.69	1712.10
789.87	1591.27
790.04	1714.15
790.22	1689.57
790.39	1822.69
790.57	1665.00
790.74	1662.95
790.92	1767.40
791.09	1669.09
791.27	1744.87
791.44	1820.64
791.62	1708.01
791.79	1718.25
791.97	1687.53
792.15	1816.55
792.32	1730.53
792.50	1746.92
792.67	1845.22
792.85	1783.78
793.02	1671.14
793.20	1671.14
793.37	1687.53
793.55	1734.63
793.72	1595.37
793.90	1716.20
794.07	1658.85
794.25	1710.05
794.42	1693.67
794.60	1726.44
794.77	1781.73
794.95	1759.21
795.12	1669.09
795.30	1701.86
795.47	1673.19
795.65	1837.03
795.82	1773.54
796.00	1675.24
796.17	1681.38
796.34	1656.81
796.52	1738.73
796.69	1763.30
796.87	1730.53
797.04	1638.38
797.22	1765.35
797.39	1746.92
797.57	1777.64
797.74	1751.01
797.92	1800.16
798.09	1716.20
798.27	1765.35
798.44	1763.30
798.62	1708.01
798.79	1701.86
798.96	1808.36
799.14	1689.57
799.31	1818.60
799.49	1658.85
799.66	1669.09
799.84	1738.73
800.01	1599.46
800.19	1673.19
800.36	1589.22
800.53	1718.25
800.71	1732.58
800.88	1767.40
801.06	1691.62
801.23	1642.47
801.41	1748.97
801.58	1665.00
801.75	1675.24
801.93	1726.44
802.10	1810.40
802.28	1701.86
802.45	1681.38
802.63	1714.15
802.80	1732.58
802.97	1677.29
803.15	1714.15
803.32	1626.09
803.50	1654.76
803.67	1644.52
803.84	1617.90
804.02	1730.53
804.19	1675.24
804.37	1648.61
804.54	1669.09
804.71	1662.95
804.89	1761.25
805.06	1722.34
805.24	1628.14
805.41	1667.05
805.58	1636.33
805.76	1882.08
805.93	1740.77
806.10	1775.59
806.28	1785.83
806.45	1783.78
806.63	1763.30
806.80	1798.12
806.97	1720.29
807.15	1757.16
807.32	1701.86
807.49	1746.92
807.67	1591.27
807.84	1794.02
808.01	1689.57
808.19	1804.26
808.36	1814.50
808.54	1658.85
808.71	1757.16
808.88	1796.07
809.06	1701.86
809.23	1871.84
809.40	1611.75
809.58	1728.49
809.75	1728.49
809.92	1658.85
810.10	1882.08
810.27	1755.11
810.44	1748.97
810.62	1746.92
810.79	1675.24
810.96	1644.52
811.14	1718.25
811.31	1755.11
811.48	1726.44
811.66	1697.77
811.83	1738.73
812.00	1755.11
812.18	1699.81
812.35	1828.84
812.52	1728.49
812.69	1607.66
812.87	1640.42
813.04	1671.14
813.21	1656.81
813.39	1669.09
813.56	1681.38
813.73	1802.21
813.91	1556.46
814.08	1738.73
814.25	1675.24
814.42	1660.90
814.60	1689.57
814.77	1722.34
814.94	1773.54
815.12	1697.77
815.29	1746.92
815.46	1595.37
815.63	1656.81
815.81	1708.01
815.98	1673.19
816.15	1724.39
816.33	1703.91
816.50	1746.92
816.67	1667.05
816.84	1683.43
817.02	1699.81
817.19	1738.73
817.36	1742.82
817.53	1714.15
817.71	1667.05
817.88	1734.63
818.05	1720.29
818.22	1761.25
818.40	1812.45
818.57	1634.28
818.74	1734.63
818.91	1632.23
819.09	1751.01
819.26	1710.05
819.43	1585.13
819.60	1677.29
819.78	1708.01
819.95	1699.81
820.12	1632.23
820.29	1755.11
820.47	1716.20
820.64	1722.34
820.81	1671.14
820.98	1662.95
821.15	1712.10
821.33	1740.77
821.50	1624.04
821.67	1761.25
821.84	1728.49
822.02	1779.68
822.19	1779.68
822.36	1689.57
822.53	1679.33
822.70	1603.56
822.88	1677.29
823.05	1755.11
823.22	1736.68
823.39	1714.15
823.56	1714.15
823.74	1757.16
823.91	1624.04
824.08	1607.66
824.25	1617.90
824.42	1771.49
824.60	1697.77
824.77	1781.73
824.94	1689.57
825.11	1808.36
825.28	1574.89
825.45	1712.10
825.63	1759.21
825.80	1640.42
825.97	1734.63
826.14	1765.35
826.31	1621.99
826.48	1736.68
826.66	1691.62
826.83	1697.77
827.00	1701.86
827.17	1636.33
827.34	1748.97
827.51	1718.25
827.69	1699.81
827.86	1634.28
828.03	1751.01
828.20	1730.53
828.37	1701.86
828.54	1677.29
828.71	1687.53
828.89	1843.17
829.06	1697.77
829.23	1744.87
829.40	1677.29
829.57	1683.43
829.74	1785.83
829.91	1697.77
830.09	1574.89
830.26	1794.02
830.43	1837.03
830.60	1665.00
830.77	1773.54
830.94	1851.36
831.11	1738.73
831.28	1769.44
831.46	1683.43
831.63	1699.81
831.80	1755.11
831.97	1691.62
832.14	1724.39
832.31	1775.59
832.48	1665.00
832.65	1773.54
832.82	1734.63
832.99	1675.24
833.17	1642.47
833.34	1783.78
833.51	1757.16
833.68	1646.57
833.85	1826.79
834.02	1714.15
834.19	1665.00
834.36	1632.23
834.53	1697.77
834.70	1753.06
834.87	1765.35
835.04	1722.34
835.22	1638.38
835.39	1701.86
835.56	1591.27
835.73	1681.38
835.90	1699.81
836.07	1644.52
836.24	1722.34
836.41	1738.73
836.58	1624.04
836.75	1759.21
836.92	1699.81
837.09	1681.38
837.26	1771.49
837.43	1699.81
837.60	1783.78
837.77	1697.77
837.94	1816.55
838.12	1726.44
838.29	1738.73
838.46	1646.57
838.63	1589.22
838.80	1789.92
838.97	1724.39
839.14	1628.14
839.31	1681.38
839.48	1736.68
839.65	1650.66
839.82	1843.17
839.99	1708.01
840.16	1724.39
840.33	1699.81
840.50	1718.25
840.67	1673.19
840.84	1560.55
841.01	1748.97
841.18	1626.09
841.35	1767.40
841.52	1806.31
841.69	1824.74
841.86	1667.05
842.03	1726.44
842.20	1681.38
842.37	1681.38
842.54	1724.39
842.71	1765.35
842.88	1636.33
843.05	1755.11
843.22	1691.62
843.39	1816.55
843.56	1755.11
843.73	1689.57
843.90	1789.92
844.07	1767.40
844.24	1740.77
844.41	1746.92
844.58	1669.09
844.75	1771.49
844.92	1689.57
845.09	1718.25
845.26	1593.32
845.43	1734.63
845.60	1658.85
845.77	1763.30
845.94	1718.25
846.10	1722.34
846.27	1611.75
846.44	1640.42
846.61	1716.20
846.78	1705.96
846.95	1757.16
847.12	1708.01
847.29	1820.64
847.46	1656.81
847.63	1806.31
847.80	1689.57
847.97	1722.34
848.14	1861.60
848.31	1689.57
848.48	1660.90
848.65	1748.97
848.82	1714.15
848.98	1800.16
849.15	1755.11
849.32	1767.40
849.49	1763.30
849.66	1703.91
849.83	1746.92
850.00	1722.34
850.17	1814.50
850.34	1718.25
850.51	1673.19
850.68	1687.53
850.85	1847.27
851.01	1724.39
851.18	1716.20
851.35	1673.19
851.52	1693.67
851.69	1751.01
851.86	1656.81
852.03	1705.96
852.20	1775.59
852.37	1708.01
852.53	1585.13
852.70	1705.96
852.87	1650.66
853.04	1744.87
853.21	1755.11
853.38	1761.25
853.55	1712.10
853.72	1748.97
853.89	1648.61
854.05	1619.94
854.22	1652.71
854.39	1724.39
854.56	1691.62
854.73	1755.11
854.90	1708.01
855.07	1753.06
855.23	1701.86
855.40	1667.05
855.57	1705.96
855.74	1644.52
855.91	1916.90
856.08	1689.57
856.25	1654.76
856.41	1691.62
856.58	1681.38
856.75	1724.39
856.92	1718.25
857.09	1804.26
857.26	1613.80
857.42	1751.01
857.59	1765.35
857.76	1605.61
857.93	1683.43
858.10	1701.86
858.27	1636.33
858.43	1691.62
858.60	1644.52
858.77	1634.28
858.94	1691.62
859.11	1783.78
859.27	1701.86
859.44	1699.81
859.61	1845.22
859.78	1769.44
859.95	1708.01
860.12	1669.09
860.28	1744.87
860.45	1869.80
860.62	1697.77
860.79	1714.15
860.95	1685.48
861.12	1652.71
861.29	1636.33
861.46	1665.00
861.63	1687.53
861.79	1646.57
861.96	1689.57
862.13	1675.24
862.30	1705.96
862.47	1687.53
862.63	1665.00
862.80	1748.97
862.97	1720.29
863.14	1767.40
863.30	1705.96
863.47	1681.38
863.64	1753.06
863.81	1783.78
863.97	1648.61
864.14	1642.47
864.31	1730.53
864.48	1781.73
864.65	1662.95
864.81	1832.93
864.98	1689.57
865.15	1724.39
865.32	1763.30
865.48	1767.40
865.65	1746.92
865.82	1734.63
865.98	1816.55
866.15	1759.21
866.32	1685.48
866.49	1679.33
866.65	1734.63
866.82	1765.35
866.99	1783.78
867.16	1693.67
867.32	1683.43
867.49	1650.66
867.66	1710.05
867.83	1708.01
867.99	1685.48
868.16	1710.05
868.33	1699.81
868.49	1783.78
868.66	1744.87
868.83	1675.24
868.99	1802.21
869.16	1814.50
869.33	1667.05
869.50	1757.16
869.66	1736.68
869.83	1665.00
870.00	1609.70
870.16	1751.01
870.33	1699.81
870.50	1730.53
870.66	1638.38
870.83	1918.95
871.00	1753.06
871.17	1685.48
871.33	1714.15
871.50	1634.28
871.67	1724.39
871.83	1640.42
872.00	1808.36
872.17	1718.25
872.33	1800.16
872.50	1839.08
872.67	1751.01
872.83	1708.01
873.00	1730.53
873.17	1650.66
873.33	1767.40
873.50	1785.83
873.67	1617.90
873.83	1628.14
874.00	1585.13
874.16	1763.30
874.33	1761.25
874.50	1689.57
874.66	1726.44
874.83	1716.20
875.00	1779.68
875.16	1716.20
875.33	1804.26
875.50	1509.35
875.66	1626.09
875.83	1693.67
875.99	1722.34
876.16	1738.73
876.33	1648.61
876.49	1699.81
876.66	1777.64
876.83	1744.87
876.99	1675.24
877.16	1654.76
877.32	1742.82
877.49	1708.01
877.66	1738.73
877.82	1808.36
877.99	1781.73
878.15	1779.68
878.32	1734.63
878.49	1748.97
878.65	1665.00
878.82	1710.05
878.98	1689.57
879.15	1697.77
879.32	1665.00
879.48	1718.25
879.65	1720.29
879.81	1646.57
879.98	1671.14
880.15	1681.38
880.31	1701.86
880.48	1705.96
880.64	1722.34
880.81	1812.45
880.97	1832.93
881.14	1832.93
881.31	1581.03
881.47	1841.12
881.64	1708.01
881.80	1662.95
881.97	1714.15
882.13	1728.49
882.30	1669.09
882.47	1705.96
882.63	1652.71
882.80	1648.61
882.96	1679.33
883.13	1767.40
883.29	1634.28
883.46	1722.34
883.62	1812.45
883.79	1734.63
883.95	1796.07
884.12	1683.43
884.29	1732.58
884.45	1783.78
884.62	1777.64
884.78	1595.37
884.95	1767.40
885.11	1685.48
885.28	1783.78
885.44	1724.39
885.61	1753.06
885.77	1759.21
885.94	1720.29
886.10	1665.00
886.27	1712.10
886.43	1724.39
886.60	1779.68
886.76	1665.00
886.93	1691.62
887.09	1736.68
887.26	1665.00
887.42	1699.81
887.59	1779.68
887.75	1832.93
887.92	1826.79
888.08	1796.07
888.25	1779.68
888.41	1751.01
888.58	1785.83
888.74	1572.84
888.91	1675.24
>>>>>End Processed Spectral Data<<<<<
