SpectraSuite Data File
++++++++++++++++++++++++++++++++++++
Date: Mon Jun 06 15:19:37 CEST 2016
User: root
Dark Spectrum Present: No
Reference Spectrum Present: No
Number of Sampled Component Spectra: 1
Spectrometers: USB4C02835
Integration Time (usec): 100000 (USB4C02835)
Spectra Averaged: 1 (USB4C02835)
Boxcar Smoothing: 0 (USB4C02835)
Correct for Electrical Dark: No (USB4C02835)
Strobe/Lamp Enabled: No (USB4C02835)
Correct for Detector Non-linearity: No (USB4C02835)
Correct for Stray Light: No (USB4C02835)
Number of Pixels in Processed Spectrum: 3648
>>>>>Begin Processed Spectral Data<<<<<
177.47	1427.43
177.69	1427.43
177.91	1427.43
178.13	1490.92
178.36	1476.59
178.58	1662.95
178.80	1710.05
179.02	1642.47
179.24	1703.91
179.46	1730.53
179.68	1779.68
179.90	1677.29
180.13	1695.72
180.35	1632.23
180.57	1697.77
180.79	1767.40
181.01	1669.09
181.23	1748.97
181.45	1699.81
181.67	1724.39
181.90	1714.15
182.12	1656.81
182.34	1578.98
182.56	1705.96
182.78	1609.70
183.00	1689.57
183.22	1746.92
183.44	1665.00
183.66	1894.37
183.89	1880.04
184.11	1681.38
184.33	1761.25
184.55	1796.07
184.77	1710.05
184.99	1683.43
185.21	1695.72
185.43	1781.73
185.65	1716.20
185.87	1699.81
186.10	1828.84
186.32	1839.08
186.54	1742.82
186.76	1789.92
186.98	1812.45
187.20	1691.62
187.42	1722.34
187.64	1683.43
187.86	1705.96
188.08	1722.34
188.30	1693.67
188.52	1722.34
188.75	1769.44
188.97	1781.73
189.19	1619.94
189.41	1740.77
189.63	1726.44
189.85	1712.10
190.07	1677.29
190.29	1634.28
190.51	1794.02
190.73	1621.99
190.95	1753.06
191.17	1681.38
191.39	1638.38
191.61	1630.18
191.84	1703.91
192.06	1726.44
192.28	1560.55
192.50	1900.52
192.72	1746.92
192.94	1689.57
193.16	1759.21
193.38	1765.35
193.60	1607.66
193.82	1691.62
194.04	1720.29
194.26	1744.87
194.48	1683.43
194.70	1691.62
194.92	1701.86
195.14	1789.92
195.36	1609.70
195.58	1722.34
195.80	1646.57
196.02	1697.77
196.24	1673.19
196.46	1681.38
196.69	1624.04
196.91	1890.28
197.13	1683.43
197.35	1724.39
197.57	1804.26
197.79	1777.64
198.01	1724.39
198.23	1740.77
198.45	1673.19
198.67	1656.81
198.89	1685.48
199.11	1748.97
199.33	1605.61
199.55	1585.13
199.77	1730.53
199.99	1755.11
200.21	1679.33
200.43	1759.21
200.65	1662.95
200.87	1601.51
201.09	1701.86
201.31	1687.53
201.53	1777.64
201.75	1705.96
201.97	1748.97
202.19	1775.59
202.41	1640.42
202.63	1757.16
202.85	1814.50
203.07	1697.77
203.29	1746.92
203.51	1726.44
203.73	1642.47
203.95	1968.10
204.17	1730.53
204.39	1773.54
204.61	1685.48
204.83	1687.53
205.05	1781.73
205.27	1761.25
205.49	1880.04
205.71	1730.53
205.93	1675.24
206.15	1722.34
206.37	1744.87
206.59	1673.19
206.81	1632.23
207.03	1712.10
207.25	1621.99
207.47	1755.11
207.69	1652.71
207.91	1794.02
208.13	1765.35
208.34	1675.24
208.56	1703.91
208.78	1763.30
209.00	1730.53
209.22	1697.77
209.44	1720.29
209.66	1701.86
209.88	1650.66
210.10	1652.71
210.32	1714.15
210.54	1746.92
210.76	1710.05
210.98	1781.73
211.20	1572.84
211.42	1705.96
211.64	1763.30
211.86	1748.97
212.08	1701.86
212.30	1740.77
212.52	1693.67
212.74	1697.77
212.96	1673.19
213.17	1673.19
213.39	1796.07
213.61	1730.53
213.83	1705.96
214.05	1662.95
214.27	1738.73
214.49	1748.97
214.71	1656.81
214.93	1777.64
215.15	1740.77
215.37	1738.73
215.59	1751.01
215.81	1712.10
216.03	1769.44
216.24	1703.91
216.46	1746.92
216.68	1699.81
216.90	1718.25
217.12	1722.34
217.34	1736.68
217.56	1804.26
217.78	1796.07
218.00	1759.21
218.22	1679.33
218.44	1730.53
218.66	1673.19
218.87	1748.97
219.09	1665.00
219.31	1714.15
219.53	1730.53
219.75	1626.09
219.97	1726.44
220.19	1675.24
220.41	1681.38
220.63	1685.48
220.85	1656.81
221.06	1730.53
221.28	1748.97
221.50	1740.77
221.72	1660.90
221.94	1791.97
222.16	1656.81
222.38	1705.96
222.60	1753.06
222.82	1677.29
223.03	1728.49
223.25	1662.95
223.47	1726.44
223.69	1857.51
223.91	1742.82
224.13	1746.92
224.35	1732.58
224.57	1726.44
224.78	1763.30
225.00	1669.09
225.22	1689.57
225.44	1734.63
225.66	1746.92
225.88	1689.57
226.10	1767.40
226.32	1656.81
226.53	1818.60
226.75	1646.57
226.97	1712.10
227.19	1710.05
227.41	1628.14
227.63	1681.38
227.85	1619.94
228.06	1658.85
228.28	1834.98
228.50	1718.25
228.72	1632.23
228.94	1675.24
229.16	1589.22
229.37	1720.29
229.59	1689.57
229.81	1726.44
230.03	1650.66
230.25	1558.50
230.47	1617.90
230.69	1667.05
230.90	1703.91
231.12	1677.29
231.34	1742.82
231.56	1738.73
231.78	1599.46
232.00	1738.73
232.21	1681.38
232.43	1705.96
232.65	1640.42
232.87	1751.01
233.09	1593.32
233.30	1716.20
233.52	1712.10
233.74	1712.10
233.96	1691.62
234.18	1736.68
234.40	1732.58
234.61	1757.16
234.83	1632.23
235.05	1648.61
235.27	1781.73
235.49	1740.77
235.70	1685.48
235.92	1834.98
236.14	1697.77
236.36	1861.60
236.58	1607.66
236.79	1746.92
237.01	1740.77
237.23	1660.90
237.45	1839.08
237.67	1662.95
237.88	1718.25
238.10	1834.98
238.32	1638.38
238.54	1693.67
238.76	1689.57
238.97	1634.28
239.19	1671.14
239.41	1753.06
239.63	1789.92
239.85	1644.52
240.06	1671.14
240.28	1634.28
240.50	1845.22
240.72	1765.35
240.93	1687.53
241.15	1724.39
241.37	1701.86
241.59	1744.87
241.81	1748.97
242.02	1710.05
242.24	1695.72
242.46	1699.81
242.68	1681.38
242.89	1732.58
243.11	1689.57
243.33	1787.88
243.55	1652.71
243.76	1767.40
243.98	1632.23
244.20	1689.57
244.42	1753.06
244.64	1673.19
244.85	1699.81
245.07	1642.47
245.29	1755.11
245.51	1773.54
245.72	1755.11
245.94	1697.77
246.16	1783.78
246.38	1808.36
246.59	1701.86
246.81	1689.57
247.03	1591.27
247.24	1607.66
247.46	1705.96
247.68	1785.83
247.90	1730.53
248.11	1722.34
248.33	1718.25
248.55	1650.66
248.77	1720.29
248.98	1755.11
249.20	1832.93
249.42	1779.68
249.64	1779.68
249.85	1669.09
250.07	1636.33
250.29	1742.82
250.50	1761.25
250.72	1677.29
250.94	1722.34
251.16	1849.32
251.37	1804.26
251.59	1724.39
251.81	1742.82
252.02	1722.34
252.24	1685.48
252.46	1777.64
252.68	1671.14
252.89	1695.72
253.11	1693.67
253.33	1806.31
253.54	1804.26
253.76	1619.94
253.98	1761.25
254.20	1734.63
254.41	1654.76
254.63	1665.00
254.85	1656.81
255.06	1689.57
255.28	1777.64
255.50	1732.58
255.71	1662.95
255.93	1673.19
256.15	1642.47
256.36	1730.53
256.58	1665.00
256.80	1738.73
257.02	1652.71
257.23	1712.10
257.45	1689.57
257.67	1746.92
257.88	1636.33
258.10	1777.64
258.32	1718.25
258.53	1714.15
258.75	1789.92
258.97	1607.66
259.18	1726.44
259.40	1785.83
259.62	1728.49
259.83	1820.64
260.05	1791.97
260.27	2021.35
260.48	1771.49
260.70	1658.85
260.92	1703.91
261.13	1679.33
261.35	1740.77
261.57	1718.25
261.78	1701.86
262.00	1626.09
262.22	1722.34
262.43	1626.09
262.65	1732.58
262.86	1722.34
263.08	1877.99
263.30	1759.21
263.51	1628.14
263.73	1726.44
263.95	1761.25
264.16	1730.53
264.38	1679.33
264.60	1712.10
264.81	1736.68
265.03	1787.88
265.25	1697.77
265.46	1660.90
265.68	1791.97
265.89	1689.57
266.11	1652.71
266.33	1800.16
266.54	1748.97
266.76	1722.34
266.98	1781.73
267.19	1871.84
267.41	1781.73
267.62	1718.25
267.84	1621.99
268.06	1789.92
268.27	1730.53
268.49	1857.51
268.70	1748.97
268.92	1769.44
269.14	1693.67
269.35	1705.96
269.57	1701.86
269.79	1683.43
270.00	1820.64
270.22	1812.45
270.43	1640.42
270.65	1515.50
270.87	1658.85
271.08	1701.86
271.30	1755.11
271.51	1710.05
271.73	1759.21
271.95	1740.77
272.16	1734.63
272.38	1701.86
272.59	1607.66
272.81	1730.53
273.02	1738.73
273.24	1714.15
273.46	1832.93
273.67	1718.25
273.89	1544.17
274.10	1593.32
274.32	1753.06
274.54	1705.96
274.75	1654.76
274.97	1697.77
275.18	1767.40
275.40	1763.30
275.61	1718.25
275.83	1802.21
276.05	1683.43
276.26	1722.34
276.48	1742.82
276.69	1722.34
276.91	1578.98
277.12	1763.30
277.34	1734.63
277.55	1738.73
277.77	1773.54
277.99	1732.58
278.20	1624.04
278.42	1734.63
278.63	1667.05
278.85	1722.34
279.06	1681.38
279.28	1757.16
279.49	1834.98
279.71	1683.43
279.93	1710.05
280.14	1779.68
280.36	1665.00
280.57	1783.78
280.79	1705.96
281.00	1697.77
281.22	1685.48
281.43	1734.63
281.65	1609.70
281.86	1675.24
282.08	1791.97
282.29	1787.88
282.51	1662.95
282.73	1695.72
282.94	1605.61
283.16	1724.39
283.37	1824.74
283.59	1728.49
283.80	1742.82
284.02	1744.87
284.23	1718.25
284.45	1697.77
284.66	1595.37
284.88	1697.77
285.09	1695.72
285.31	1724.39
285.52	1806.31
285.74	1624.04
285.95	1787.88
286.17	1742.82
286.38	1753.06
286.60	1667.05
286.81	1665.00
287.03	1589.22
287.24	1683.43
287.46	1757.16
287.67	1824.74
287.89	1832.93
288.10	1673.19
288.32	1728.49
288.53	1738.73
288.75	1744.87
288.96	1751.01
289.18	1656.81
289.39	1724.39
289.61	1746.92
289.82	1777.64
290.04	1767.40
290.25	1675.24
290.47	1714.15
290.68	1660.90
290.90	1767.40
291.11	1658.85
291.33	1824.74
291.54	1650.66
291.76	1634.28
291.97	1683.43
292.18	1730.53
292.40	1669.09
292.61	1726.44
292.83	1890.28
293.04	1695.72
293.26	1681.38
293.47	1740.77
293.69	1675.24
293.90	1667.05
294.12	1820.64
294.33	1648.61
294.55	1701.86
294.76	1722.34
294.97	1867.75
295.19	1812.45
295.40	1695.72
295.62	1742.82
295.83	1751.01
296.05	1705.96
296.26	1738.73
296.48	1669.09
296.69	1712.10
296.90	1712.10
297.12	1722.34
297.33	1853.41
297.55	1716.20
297.76	1689.57
297.98	1744.87
298.19	1781.73
298.41	1746.92
298.62	1603.56
298.83	1806.31
299.05	1812.45
299.26	1636.33
299.48	1621.99
299.69	1660.90
299.90	1708.01
300.12	1654.76
300.33	1716.20
300.55	1683.43
300.76	1802.21
300.98	1636.33
301.19	1802.21
301.40	1722.34
301.62	1714.15
301.83	1800.16
302.05	1732.58
302.26	1626.09
302.47	1736.68
302.69	1697.77
302.90	1697.77
303.12	1599.46
303.33	1785.83
303.54	1816.55
303.76	1701.86
303.97	1716.20
304.19	1779.68
304.40	1646.57
304.61	1800.16
304.83	1757.16
305.04	1800.16
305.26	1775.59
305.47	1705.96
305.68	1763.30
305.90	1654.76
306.11	1826.79
306.33	1656.81
306.54	1615.85
306.75	1746.92
306.97	1578.98
307.18	1656.81
307.39	1748.97
307.61	1816.55
307.82	1740.77
308.04	1757.16
308.25	1701.86
308.46	1742.82
308.68	1714.15
308.89	1730.53
309.10	1779.68
309.32	1802.21
309.53	1740.77
309.74	1662.95
309.96	1685.48
310.17	1818.60
310.39	1585.13
310.60	1673.19
310.81	1712.10
311.03	1591.27
311.24	1726.44
311.45	1705.96
311.67	1873.89
311.88	1742.82
312.09	1724.39
312.31	1726.44
312.52	1701.86
312.73	1740.77
312.95	1572.84
313.16	1615.85
313.37	1820.64
313.59	1789.92
313.80	1822.69
314.01	1783.78
314.23	1656.81
314.44	1681.38
314.65	1634.28
314.87	1714.15
315.08	1718.25
315.29	1648.61
315.51	1626.09
315.72	1654.76
315.93	1779.68
316.15	1753.06
316.36	1714.15
316.57	1658.85
316.79	1751.01
317.00	1738.73
317.21	1761.25
317.43	1705.96
317.64	1716.20
317.85	1593.32
318.07	1695.72
318.28	1724.39
318.49	1771.49
318.70	1908.71
318.92	1808.36
319.13	1859.56
319.34	1861.60
319.56	1787.88
319.77	1773.54
319.98	1822.69
320.20	1761.25
320.41	1701.86
320.62	1757.16
320.83	1656.81
321.05	1857.51
321.26	1703.91
321.47	1703.91
321.69	1783.78
321.90	1632.23
322.11	1742.82
322.32	1667.05
322.54	1730.53
322.75	1630.18
322.96	1847.27
323.18	1624.04
323.39	1624.04
323.60	1722.34
323.81	1755.11
324.03	1677.29
324.24	1738.73
324.45	1734.63
324.66	1669.09
324.88	1720.29
325.09	1808.36
325.30	1697.77
325.52	1775.59
325.73	1691.62
325.94	1708.01
326.15	1658.85
326.37	1619.94
326.58	1720.29
326.79	1839.08
327.00	1632.23
327.22	1746.92
327.43	1650.66
327.64	1636.33
327.85	1753.06
328.07	1701.86
328.28	1806.31
328.49	1691.62
328.70	1660.90
328.92	1738.73
329.13	1699.81
329.34	1763.30
329.55	1748.97
329.76	1783.78
329.98	1669.09
330.19	1736.68
330.40	1710.05
330.61	1714.15
330.83	1787.88
331.04	1673.19
331.25	1695.72
331.46	1636.33
331.68	1716.20
331.89	1763.30
332.10	1695.72
332.31	1624.04
332.52	1679.33
332.74	1789.92
332.95	1615.85
333.16	1687.53
333.37	1744.87
333.58	1689.57
333.80	1798.12
334.01	1626.09
334.22	1669.09
334.43	1607.66
334.64	1740.77
334.86	1558.50
335.07	1726.44
335.28	1769.44
335.49	1656.81
335.70	1785.83
335.92	1800.16
336.13	1839.08
336.34	1757.16
336.55	1720.29
336.76	1685.48
336.98	1609.70
337.19	1701.86
337.40	1796.07
337.61	1935.33
337.82	1703.91
338.04	1712.10
338.25	1665.00
338.46	1726.44
338.67	1718.25
338.88	1646.57
339.09	1646.57
339.31	1656.81
339.52	1611.75
339.73	1632.23
339.94	1789.92
340.15	1693.67
340.36	1658.85
340.58	1712.10
340.79	1630.18
341.00	1718.25
341.21	1626.09
341.42	1804.26
341.63	1671.14
341.85	1744.87
342.06	1732.58
342.27	1689.57
342.48	1708.01
342.69	1658.85
342.90	1718.25
343.12	1732.58
343.33	1705.96
343.54	1691.62
343.75	1816.55
343.96	1738.73
344.17	1640.42
344.38	1695.72
344.60	1636.33
344.81	1695.72
345.02	1689.57
345.23	1744.87
345.44	1787.88
345.65	1748.97
345.86	1775.59
346.07	1759.21
346.29	1703.91
346.50	1789.92
346.71	1687.53
346.92	1818.60
347.13	1935.33
347.34	1648.61
347.55	1699.81
347.76	1753.06
347.98	1626.09
348.19	1738.73
348.40	1804.26
348.61	1767.40
348.82	1800.16
349.03	1763.30
349.24	1691.62
349.45	1798.12
349.66	1611.75
349.88	1665.00
350.09	1665.00
350.30	1767.40
350.51	1777.64
350.72	1740.77
350.93	1697.77
351.14	1697.77
351.35	1644.52
351.56	1730.53
351.77	1726.44
351.99	1718.25
352.20	1828.84
352.41	1783.78
352.62	1619.94
352.83	1724.39
353.04	1703.91
353.25	1742.82
353.46	1699.81
353.67	1720.29
353.88	1587.18
354.09	1699.81
354.30	1718.25
354.52	1732.58
354.73	1742.82
354.94	1689.57
355.15	1691.62
355.36	1867.75
355.57	1724.39
355.78	1828.84
355.99	1667.05
356.20	1693.67
356.41	1859.56
356.62	1759.21
356.83	1794.02
357.04	1822.69
357.25	1593.32
357.46	1605.61
357.68	1603.56
357.89	1656.81
358.10	1730.53
358.31	1675.24
358.52	1658.85
358.73	1628.14
358.94	1667.05
359.15	1722.34
359.36	1761.25
359.57	1673.19
359.78	1746.92
359.99	1761.25
360.20	1665.00
360.41	1714.15
360.62	1746.92
360.83	1710.05
361.04	1681.38
361.25	1687.53
361.46	1824.74
361.67	1755.11
361.88	1724.39
362.09	1722.34
362.30	1718.25
362.51	1701.86
362.72	1714.15
362.93	1728.49
363.14	1751.01
363.35	1730.53
363.56	1650.66
363.78	1738.73
363.99	1779.68
364.20	1693.67
364.41	1779.68
364.62	1818.60
364.83	1757.16
365.04	1654.76
365.25	1683.43
365.46	1865.70
365.67	1642.47
365.88	1589.22
366.09	1722.34
366.30	1720.29
366.51	1712.10
366.72	1681.38
366.93	1746.92
367.14	1691.62
367.35	1867.75
367.56	1703.91
367.77	1748.97
367.98	1751.01
368.18	1800.16
368.39	1683.43
368.60	1640.42
368.81	1673.19
369.02	1685.48
369.23	1673.19
369.44	1542.12
369.65	1667.05
369.86	1722.34
370.07	1769.44
370.28	1714.15
370.49	1689.57
370.70	1740.77
370.91	1677.29
371.12	1669.09
371.33	1734.63
371.54	1746.92
371.75	1701.86
371.96	1611.75
372.17	1695.72
372.38	1775.59
372.59	1759.21
372.80	1691.62
373.01	1798.12
373.22	1701.86
373.43	1695.72
373.64	1708.01
373.85	1779.68
374.06	1845.22
374.26	1722.34
374.47	1740.77
374.68	1841.12
374.89	1763.30
375.10	1669.09
375.31	1732.58
375.52	1765.35
375.73	1677.29
375.94	1648.61
376.15	1826.79
376.36	1648.61
376.57	1705.96
376.78	1665.00
376.99	1699.81
377.20	1765.35
377.40	1595.37
377.61	1869.80
377.82	1699.81
378.03	1845.22
378.24	1728.49
378.45	1708.01
378.66	1712.10
378.87	1624.04
379.08	1648.61
379.29	1753.06
379.50	1755.11
379.71	1673.19
379.91	1730.53
380.12	1650.66
380.33	1798.12
380.54	1714.15
380.75	1791.97
380.96	1679.33
381.17	1785.83
381.38	1720.29
381.59	1787.88
381.80	1632.23
382.00	1830.88
382.21	1691.62
382.42	1798.12
382.63	1857.51
382.84	1804.26
383.05	1794.02
383.26	1791.97
383.47	1693.67
383.68	1787.88
383.88	1808.36
384.09	1748.97
384.30	1843.17
384.51	1763.30
384.72	1642.47
384.93	1595.37
385.14	1685.48
385.35	1740.77
385.55	1587.18
385.76	1783.78
385.97	1685.48
386.18	1689.57
386.39	1617.90
386.60	1703.91
386.81	1685.48
387.02	1638.38
387.22	1669.09
387.43	1732.58
387.64	1796.07
387.85	1908.71
388.06	2277.34
388.27	4229.06
388.48	6578.08
388.68	8038.28
388.89	9246.58
389.10	9402.22
389.31	8208.26
389.52	7395.22
389.73	6678.43
389.93	6164.39
390.14	5629.87
390.35	5152.69
390.56	4446.14
390.77	3719.11
390.98	3061.71
391.18	2527.19
391.39	2181.09
391.60	1841.12
391.81	1796.07
392.02	1728.49
392.23	1880.04
392.43	1677.29
392.64	1898.47
392.85	1701.86
393.06	1779.68
393.27	1763.30
393.47	1767.40
393.68	1697.77
393.89	1691.62
394.10	1720.29
394.31	1671.14
394.52	1632.23
394.72	1636.33
394.93	1859.56
395.14	1693.67
395.35	1775.59
395.56	1589.22
395.76	1751.01
395.97	1736.68
396.18	1759.21
396.39	1851.36
396.60	2011.11
396.80	1877.99
397.01	1861.60
397.22	1859.56
397.43	1849.32
397.64	1796.07
397.84	1806.31
398.05	1871.84
398.26	1705.96
398.47	1861.60
398.67	1738.73
398.88	1720.29
399.09	1742.82
399.30	1628.14
399.51	1789.92
399.71	1628.14
399.92	1677.29
400.13	1654.76
400.34	1736.68
400.54	1757.16
400.75	1841.12
400.96	1820.64
401.17	1806.31
401.37	1724.39
401.58	1744.87
401.79	1654.76
402.00	1820.64
402.21	2072.54
402.41	1982.43
402.62	1972.19
402.83	2007.01
403.04	1937.38
403.24	2029.54
403.45	1841.12
403.66	1865.70
403.87	1859.56
404.07	1902.56
404.28	1875.94
404.49	1910.75
404.70	1761.25
404.90	1714.15
405.11	1759.21
405.32	1814.50
405.52	1693.67
405.73	1691.62
405.94	1683.43
406.15	1748.97
406.35	1685.48
406.56	1757.16
406.77	1683.43
406.98	1724.39
407.18	1634.28
407.39	1769.44
407.60	1710.05
407.80	1736.68
408.01	1671.14
408.22	1751.01
408.43	1691.62
408.63	1751.01
408.84	1773.54
409.05	1697.77
409.25	1673.19
409.46	1714.15
409.67	1693.67
409.88	1720.29
410.08	1703.91
410.29	1691.62
410.50	1730.53
410.70	1724.39
410.91	1636.33
411.12	1720.29
411.32	1736.68
411.53	1605.61
411.74	1787.88
411.95	1796.07
412.15	1783.78
412.36	1779.68
412.57	1781.73
412.77	1787.88
412.98	1693.67
413.19	1697.77
413.39	1699.81
413.60	1773.54
413.81	1748.97
414.01	1646.57
414.22	1720.29
414.43	1742.82
414.63	1720.29
414.84	1736.68
415.05	1824.74
415.25	1574.89
415.46	1736.68
415.67	1673.19
415.87	1744.87
416.08	1806.31
416.29	1671.14
416.49	1691.62
416.70	1630.18
416.91	1667.05
417.11	1683.43
417.32	1828.84
417.53	1753.06
417.73	1628.14
417.94	1646.57
418.15	1771.49
418.35	1705.96
418.56	1675.24
418.77	1847.27
418.97	1671.14
419.18	1642.47
419.38	1591.27
419.59	1771.49
419.80	1800.16
420.00	1665.00
420.21	1787.88
420.42	1783.78
420.62	1740.77
420.83	1667.05
421.04	1703.91
421.24	1665.00
421.45	1728.49
421.65	1697.77
421.86	1667.05
422.07	1701.86
422.27	1742.82
422.48	1773.54
422.69	1703.91
422.89	1724.39
423.10	1650.66
423.30	1699.81
423.51	1697.77
423.72	1804.26
423.92	1763.30
424.13	1673.19
424.33	1724.39
424.54	1732.58
424.75	1740.77
424.95	1873.89
425.16	1759.21
425.36	1783.78
425.57	1740.77
425.78	1759.21
425.98	1855.46
426.19	1748.97
426.39	1656.81
426.60	1683.43
426.81	1796.07
427.01	1781.73
427.22	1632.23
427.42	1667.05
427.63	1665.00
427.83	1697.77
428.04	1787.88
428.25	1822.69
428.45	1708.01
428.66	1771.49
428.86	1728.49
429.07	1646.57
429.28	1679.33
429.48	1695.72
429.69	1638.38
429.89	1773.54
430.10	1644.52
430.30	1839.08
430.51	1773.54
430.71	1648.61
430.92	1748.97
431.13	1675.24
431.33	1798.12
431.54	1699.81
431.74	1814.50
431.95	1867.75
432.15	1722.34
432.36	1734.63
432.56	1787.88
432.77	1861.60
432.98	1832.93
433.18	1753.06
433.39	1675.24
433.59	1814.50
433.80	1834.98
434.00	1738.73
434.21	1673.19
434.41	1708.01
434.62	1798.12
434.82	1654.76
435.03	1626.09
435.23	1763.30
435.44	1593.32
435.64	1683.43
435.85	1798.12
436.06	1789.92
436.26	1683.43
436.47	1812.45
436.67	1722.34
436.88	1769.44
437.08	1679.33
437.29	1802.21
437.49	1650.66
437.70	1740.77
437.90	1701.86
438.11	1830.88
438.31	1779.68
438.52	1822.69
438.72	1861.60
438.93	1914.85
439.13	1775.59
439.34	1837.03
439.54	1783.78
439.75	1744.87
439.95	1851.36
440.16	1712.10
440.36	1816.55
440.57	1742.82
440.77	1722.34
440.98	1730.53
441.18	1755.11
441.39	1687.53
441.59	1660.90
441.80	1912.80
442.00	1673.19
442.21	1877.99
442.41	1679.33
442.62	1816.55
442.82	1687.53
443.02	1738.73
443.23	1748.97
443.43	1777.64
443.64	1806.31
443.84	1626.09
444.05	1798.12
444.25	1691.62
444.46	1734.63
444.66	1732.58
444.87	1888.23
445.07	1669.09
445.28	1726.44
445.48	1746.92
445.69	1800.16
445.89	1759.21
446.09	1826.79
446.30	2039.78
446.50	2648.02
446.71	3680.20
446.91	4165.57
447.12	4605.88
447.32	4665.27
447.53	4257.73
447.73	3794.89
447.93	3536.84
448.14	3295.18
448.34	3114.96
448.55	2752.47
448.75	2848.72
448.96	2703.32
449.16	2365.40
449.36	2283.49
449.57	2002.91
449.77	1941.47
449.98	1816.55
450.18	1812.45
450.39	1802.21
450.59	1728.49
450.79	1724.39
451.00	1748.97
451.20	1824.74
451.41	1751.01
451.61	1832.93
451.81	1755.11
452.02	1699.81
452.22	1771.49
452.43	1697.77
452.63	1724.39
452.84	1732.58
453.04	1689.57
453.24	1714.15
453.45	1683.43
453.65	1779.68
453.86	1773.54
454.06	1757.16
454.26	1767.40
454.47	1630.18
454.67	1796.07
454.87	1781.73
455.08	1685.48
455.28	1822.69
455.49	1783.78
455.69	1751.01
455.89	1882.08
456.10	1869.80
456.30	1718.25
456.51	1791.97
456.71	1738.73
456.91	1798.12
457.12	1767.40
457.32	1755.11
457.52	1673.19
457.73	1841.12
457.93	1781.73
458.14	1693.67
458.34	1667.05
458.54	1667.05
458.75	1761.25
458.95	1812.45
459.15	1765.35
459.36	1828.84
459.56	1783.78
459.76	1853.41
459.97	1665.00
460.17	1718.25
460.37	1828.84
460.58	1783.78
460.78	1724.39
460.99	1712.10
461.19	1705.96
461.39	1751.01
461.60	1800.16
461.80	1783.78
462.00	1646.57
462.21	1777.64
462.41	1695.72
462.61	1685.48
462.82	1648.61
463.02	1683.43
463.22	1730.53
463.43	1806.31
463.63	1779.68
463.83	1810.40
464.04	1753.06
464.24	1705.96
464.44	1736.68
464.64	1740.77
464.85	1718.25
465.05	1724.39
465.25	1740.77
465.46	1665.00
465.66	1751.01
465.86	1834.98
466.07	1763.30
466.27	1746.92
466.47	1697.77
466.68	1673.19
466.88	1781.73
467.08	1751.01
467.29	1820.64
467.49	1746.92
467.69	1736.68
467.89	1714.15
468.10	1619.94
468.30	1763.30
468.50	1824.74
468.71	1753.06
468.91	1574.89
469.11	1841.12
469.31	1658.85
469.52	1648.61
469.72	1828.84
469.92	1939.43
470.13	1630.18
470.33	1718.25
470.53	1830.88
470.73	2103.26
470.94	2312.16
471.14	2242.53
471.34	2525.15
471.54	2418.65
471.75	2215.90
471.95	2140.13
472.15	2090.98
472.36	2150.37
472.56	2136.03
472.76	2146.27
472.96	2064.35
473.17	1955.81
473.37	1877.99
473.57	1783.78
473.77	1816.55
473.98	1783.78
474.18	1681.38
474.38	1888.23
474.58	1724.39
474.79	1685.48
474.99	1740.77
475.19	1812.45
475.39	1759.21
475.60	1759.21
475.80	1740.77
476.00	1769.44
476.20	1656.81
476.41	1837.03
476.61	1853.41
476.81	1812.45
477.01	1691.62
477.21	1818.60
477.42	1800.16
477.62	1677.29
477.82	1802.21
478.02	1738.73
478.23	1748.97
478.43	1757.16
478.63	1701.86
478.83	1773.54
479.03	1691.62
479.24	1812.45
479.44	1853.41
479.64	1771.49
479.84	1697.77
480.04	1626.09
480.25	1779.68
480.45	1736.68
480.65	1693.67
480.85	1712.10
481.06	1675.24
481.26	1738.73
481.46	1738.73
481.66	1777.64
481.86	1714.15
482.06	1824.74
482.27	1648.61
482.47	1716.20
482.67	1720.29
482.87	1734.63
483.07	1751.01
483.28	1650.66
483.48	1691.62
483.68	1701.86
483.88	1644.52
484.08	1607.66
484.29	1652.71
484.49	1695.72
484.69	1665.00
484.89	1859.56
485.09	1773.54
485.29	1808.36
485.50	1681.38
485.70	1609.70
485.90	1796.07
486.10	1755.11
486.30	1761.25
486.50	1773.54
486.71	1753.06
486.91	1744.87
487.11	1794.02
487.31	1699.81
487.51	1714.15
487.71	1673.19
487.91	1730.53
488.12	1624.04
488.32	1660.90
488.52	1718.25
488.72	1621.99
488.92	1720.29
489.12	1753.06
489.32	1734.63
489.53	1830.88
489.73	1722.34
489.93	1746.92
490.13	1679.33
490.33	1677.29
490.53	1775.59
490.73	1789.92
490.94	1595.37
491.14	1728.49
491.34	1812.45
491.54	2127.84
491.74	2633.69
491.94	2809.81
492.14	2990.03
492.34	3022.80
492.54	2775.00
492.75	2496.47
492.95	2426.84
493.15	2303.96
493.35	2271.20
493.55	2273.25
493.75	2119.65
493.95	2093.02
494.15	1947.62
494.35	1955.81
494.56	1847.27
494.76	1755.11
494.96	1796.07
495.16	1730.53
495.36	1763.30
495.56	1753.06
495.76	1738.73
495.96	1753.06
496.16	1652.71
496.36	1880.04
496.56	1693.67
496.77	1804.26
496.97	1712.10
497.17	1796.07
497.37	1662.95
497.57	1755.11
497.77	1804.26
497.97	1658.85
498.17	1716.20
498.37	1687.53
498.57	1734.63
498.77	1738.73
498.97	1771.49
499.17	1873.89
499.38	1705.96
499.58	1740.77
499.78	1693.67
499.98	1796.07
500.18	1716.20
500.38	1667.05
500.58	1877.99
500.78	2510.81
500.98	4388.80
501.18	5787.56
501.38	6545.31
501.58	6922.13
501.78	6508.44
501.98	5367.73
502.18	4835.25
502.38	4327.36
502.58	4003.78
502.78	3776.45
502.98	3590.09
503.18	3422.16
503.38	3041.23
503.59	2852.82
503.79	2639.83
503.99	2531.29
504.19	2271.20
504.39	2222.05
504.59	2127.84
504.79	2119.65
504.99	2033.63
505.19	1871.84
505.39	1945.57
505.59	1941.47
505.79	1857.51
505.99	1814.50
506.19	1914.85
506.39	1863.65
506.59	1712.10
506.79	1812.45
506.99	1851.36
507.19	1783.78
507.39	1837.03
507.59	1740.77
507.79	1728.49
507.99	1703.91
508.19	1730.53
508.39	1736.68
508.59	1775.59
508.79	1853.41
508.99	1808.36
509.19	1720.29
509.39	1826.79
509.59	1705.96
509.79	1685.48
509.99	1753.06
510.19	1730.53
510.39	1863.65
510.59	1763.30
510.79	1640.42
510.99	1708.01
511.19	1820.64
511.39	1812.45
511.59	1744.87
511.79	1814.50
511.99	1777.64
512.19	1734.63
512.38	1732.58
512.58	1767.40
512.78	1728.49
512.98	1869.80
513.18	1849.32
513.38	1705.96
513.58	1761.25
513.78	1773.54
513.98	1746.92
514.18	1703.91
514.38	1673.19
514.58	1775.59
514.78	1714.15
514.98	1761.25
515.18	1751.01
515.38	1697.77
515.58	1837.03
515.78	1662.95
515.98	1734.63
516.18	1789.92
516.38	1781.73
516.57	1673.19
516.77	1656.81
516.97	1761.25
517.17	1789.92
517.37	1640.42
517.57	1775.59
517.77	1726.44
517.97	1701.86
518.17	1769.44
518.37	1658.85
518.57	1673.19
518.77	1771.49
518.97	1716.20
519.16	1787.88
519.36	1794.02
519.56	1746.92
519.76	1748.97
519.96	1691.62
520.16	1828.84
520.36	1734.63
520.56	1787.88
520.76	1746.92
520.96	1654.76
521.16	1777.64
521.35	1800.16
521.55	1832.93
521.75	1712.10
521.95	1765.35
522.15	1751.01
522.35	1744.87
522.55	1714.15
522.75	1736.68
522.95	1726.44
523.14	1705.96
523.34	1714.15
523.54	1775.59
523.74	1701.86
523.94	1816.55
524.14	1654.76
524.34	1773.54
524.54	1865.70
524.73	1779.68
524.93	1751.01
525.13	1787.88
525.33	1648.61
525.53	1953.76
525.73	1789.92
525.93	1787.88
526.13	1742.82
526.32	1736.68
526.52	1796.07
526.72	1787.88
526.92	1759.21
527.12	1710.05
527.32	1716.20
527.52	1736.68
527.71	1726.44
527.91	1740.77
528.11	1720.29
528.31	1738.73
528.51	1578.98
528.71	1734.63
528.90	1730.53
529.10	1830.88
529.30	1820.64
529.50	1617.90
529.70	1660.90
529.90	1738.73
530.09	1748.97
530.29	1740.77
530.49	1701.86
530.69	1857.51
530.89	1654.76
531.09	1824.74
531.28	1720.29
531.48	1814.50
531.68	1810.40
531.88	1726.44
532.08	1785.83
532.28	1701.86
532.47	1810.40
532.67	1828.84
532.87	1718.25
533.07	1779.68
533.27	1890.28
533.46	1710.05
533.66	1695.72
533.86	1779.68
534.06	1736.68
534.26	1755.11
534.45	1656.81
534.65	1787.88
534.85	1726.44
535.05	1697.77
535.25	1783.78
535.44	1681.38
535.64	1824.74
535.84	1783.78
536.04	1701.86
536.24	1746.92
536.43	1734.63
536.63	1757.16
536.83	1650.66
537.03	1732.58
537.22	1697.77
537.42	1609.70
537.62	1761.25
537.82	1771.49
538.02	1753.06
538.21	1787.88
538.41	1841.12
538.61	1722.34
538.81	1765.35
539.00	1828.84
539.20	1636.33
539.40	1714.15
539.60	1738.73
539.79	1736.68
539.99	1796.07
540.19	1624.04
540.39	1732.58
540.58	1691.62
540.78	1822.69
540.98	1722.34
541.18	1767.40
541.37	1759.21
541.57	1751.01
541.77	1748.97
541.97	1742.82
542.16	1736.68
542.36	1681.38
542.56	1773.54
542.76	1857.51
542.95	1773.54
543.15	1742.82
543.35	1794.02
543.54	1710.05
543.74	1710.05
543.94	1837.03
544.14	1691.62
544.33	1834.98
544.53	1724.39
544.73	1738.73
544.93	1671.14
545.12	1738.73
545.32	1789.92
545.52	1705.96
545.71	1673.19
545.91	1718.25
546.11	1783.78
546.30	1669.09
546.50	1734.63
546.70	1771.49
546.90	1796.07
547.09	1708.01
547.29	1759.21
547.49	1810.40
547.68	1781.73
547.88	1740.77
548.08	1789.92
548.27	2211.81
548.47	1724.39
548.67	1734.63
548.87	1789.92
549.06	1705.96
549.26	1787.88
549.46	1775.59
549.65	1736.68
549.85	1728.49
550.05	1830.88
550.24	1753.06
550.44	1714.15
550.64	1734.63
550.83	1714.15
551.03	1777.64
551.23	1849.32
551.42	1769.44
551.62	1691.62
551.82	1726.44
552.01	1665.00
552.21	1791.97
552.41	1765.35
552.60	1800.16
552.80	1748.97
553.00	1628.14
553.19	1820.64
553.39	1800.16
553.59	1705.96
553.78	1826.79
553.98	1798.12
554.17	1669.09
554.37	1757.16
554.57	1789.92
554.76	1626.09
554.96	1730.53
555.16	1714.15
555.35	1773.54
555.55	1773.54
555.75	1841.12
555.94	1791.97
556.14	1722.34
556.33	1755.11
556.53	1720.29
556.73	1755.11
556.92	1738.73
557.12	1814.50
557.32	1877.99
557.51	1867.75
557.71	1783.78
557.90	1830.88
558.10	1904.61
558.30	1626.09
558.49	1748.97
558.69	1695.72
558.88	1783.78
559.08	1742.82
559.28	1736.68
559.47	1757.16
559.67	1765.35
559.86	1865.70
560.06	1746.92
560.26	1767.40
560.45	1738.73
560.65	1761.25
560.84	1839.08
561.04	1665.00
561.24	1851.36
561.43	1695.72
561.63	1851.36
561.82	1777.64
562.02	1771.49
562.22	1779.68
562.41	1722.34
562.61	1806.31
562.80	1708.01
563.00	1884.13
563.19	1818.60
563.39	1724.39
563.59	1736.68
563.78	1693.67
563.98	1705.96
564.17	1785.83
564.37	1689.57
564.56	1742.82
564.76	1697.77
564.96	1806.31
565.15	1773.54
565.35	1783.78
565.54	1705.96
565.74	1806.31
565.93	1693.67
566.13	1714.15
566.32	1775.59
566.52	1810.40
566.71	1662.95
566.91	1714.15
567.11	1775.59
567.30	1730.53
567.50	1773.54
567.69	1769.44
567.89	1787.88
568.08	1755.11
568.28	1720.29
568.47	1697.77
568.67	1753.06
568.86	1648.61
569.06	1841.12
569.25	1697.77
569.45	1701.86
569.64	1673.19
569.84	1740.77
570.04	1744.87
570.23	1705.96
570.43	1767.40
570.62	1695.72
570.82	1826.79
571.01	1718.25
571.21	1677.29
571.40	1660.90
571.60	1757.16
571.79	1714.15
571.99	1773.54
572.18	1681.38
572.38	1791.97
572.57	1787.88
572.77	1837.03
572.96	1941.47
573.16	1738.73
573.35	1736.68
573.55	1861.60
573.74	1720.29
573.94	1742.82
574.13	1675.24
574.33	1857.51
574.52	1843.17
574.71	1789.92
574.91	1820.64
575.10	1722.34
575.30	1714.15
575.49	1673.19
575.69	1755.11
575.88	1685.48
576.08	1701.86
576.27	1787.88
576.47	1781.73
576.66	1826.79
576.86	1855.46
577.05	1744.87
577.25	1757.16
577.44	1906.66
577.64	1763.30
577.83	1828.84
578.02	1751.01
578.22	1742.82
578.41	1847.27
578.61	1705.96
578.80	1636.33
579.00	1794.02
579.19	1755.11
579.39	1828.84
579.58	1798.12
579.77	1806.31
579.97	1925.09
580.16	1869.80
580.36	1802.21
580.55	1867.75
580.75	1800.16
580.94	1818.60
581.13	1832.93
581.33	1796.07
581.52	1759.21
581.72	1843.17
581.91	1849.32
582.11	1718.25
582.30	1847.27
582.49	1824.74
582.69	1841.12
582.88	1855.46
583.08	1869.80
583.27	1886.18
583.47	1769.44
583.66	1660.90
583.85	1740.77
584.05	1712.10
584.24	1773.54
584.44	1728.49
584.63	1810.40
584.82	1849.32
585.02	1830.88
585.21	1877.99
585.41	1824.74
585.60	1837.03
585.79	1875.94
585.99	1992.67
586.18	1892.32
586.37	2213.85
586.57	3545.03
586.76	9768.81
586.96	24047.25
587.15	33414.66
587.34	39361.96
587.54	41129.36
587.73	35739.10
587.93	25462.40
588.12	21024.45
588.31	17921.77
588.51	15859.47
588.70	14980.89
588.89	13627.18
589.09	12169.03
589.28	10833.75
589.47	9164.66
589.67	7888.78
589.86	6375.33
590.06	4929.46
590.25	3760.07
590.44	3041.23
590.64	2533.34
590.83	2250.72
591.02	2123.74
591.22	1908.71
591.41	1888.23
591.60	1775.59
591.80	1873.89
591.99	1730.53
592.18	1759.21
592.38	1791.97
592.57	1746.92
592.76	1789.92
592.96	1802.21
593.15	1769.44
593.34	1826.79
593.54	1781.73
593.73	1755.11
593.92	1738.73
594.12	1800.16
594.31	1722.34
594.50	1796.07
594.70	1798.12
594.89	1894.37
595.08	1691.62
595.28	1873.89
595.47	1875.94
595.66	1769.44
595.86	1730.53
596.05	1732.58
596.24	1746.92
596.43	1888.23
596.63	1830.88
596.82	1742.82
597.01	1808.36
597.21	1798.12
597.40	1800.16
597.59	1695.72
597.79	1757.16
597.98	1783.78
598.17	1773.54
598.36	1771.49
598.56	1693.67
598.75	1800.16
598.94	1748.97
599.14	1742.82
599.33	1714.15
599.52	1730.53
599.71	1763.30
599.91	1789.92
600.10	1863.65
600.29	1759.21
600.48	1742.82
600.68	1781.73
600.87	1734.63
601.06	1656.81
601.26	1730.53
601.45	1845.22
601.64	1710.05
601.83	1781.73
602.03	1724.39
602.22	1673.19
602.41	1738.73
602.60	1787.88
602.80	1771.49
602.99	1716.20
603.18	1671.14
603.37	1834.98
603.57	1683.43
603.76	1808.36
603.95	1851.36
604.14	1755.11
604.34	1681.38
604.53	1720.29
604.72	1761.25
604.91	1822.69
605.10	1841.12
605.30	1769.44
605.49	1884.13
605.68	1734.63
605.87	1722.34
606.07	1763.30
606.26	1699.81
606.45	1740.77
606.64	1689.57
606.84	1755.11
607.03	1712.10
607.22	1798.12
607.41	1722.34
607.60	1839.08
607.80	1722.34
607.99	1701.86
608.18	1740.77
608.37	1701.86
608.56	1710.05
608.76	1808.36
608.95	1873.89
609.14	1777.64
609.33	1765.35
609.52	1861.60
609.72	1677.29
609.91	1738.73
610.10	1648.61
610.29	1779.68
610.48	1783.78
610.68	1791.97
610.87	1789.92
611.06	1783.78
611.25	1773.54
611.44	1816.55
611.63	1683.43
611.83	1730.53
612.02	1683.43
612.21	1857.51
612.40	1638.38
612.59	1691.62
612.79	1628.14
612.98	1773.54
613.17	1828.84
613.36	1701.86
613.55	1841.12
613.74	1654.76
613.93	1685.48
614.13	1773.54
614.32	1699.81
614.51	1751.01
614.70	1691.62
614.89	1732.58
615.08	1785.83
615.28	2052.06
615.47	1619.94
615.66	1757.16
615.85	1738.73
616.04	1800.16
616.23	1738.73
616.42	1699.81
616.62	1763.30
616.81	1765.35
617.00	1794.02
617.19	1740.77
617.38	1812.45
617.57	1714.15
617.76	1796.07
617.95	1701.86
618.15	1730.53
618.34	1851.36
618.53	1624.04
618.72	1796.07
618.91	1798.12
619.10	1820.64
619.29	1669.09
619.48	1757.16
619.68	1628.14
619.87	1740.77
620.06	1667.05
620.25	1820.64
620.44	1728.49
620.63	1742.82
620.82	1740.77
621.01	1806.31
621.20	1662.95
621.39	1794.02
621.59	1718.25
621.78	1720.29
621.97	1732.58
622.16	1779.68
622.35	1787.88
622.54	1816.55
622.73	1775.59
622.92	1599.46
623.11	1775.59
623.30	1689.57
623.49	1718.25
623.68	1675.24
623.88	1824.74
624.07	1712.10
624.26	1724.39
624.45	1757.16
624.64	1710.05
624.83	1734.63
625.02	1746.92
625.21	1755.11
625.40	1742.82
625.59	1857.51
625.78	1777.64
625.97	1816.55
626.16	1726.44
626.35	1767.40
626.54	1746.92
626.74	1804.26
626.93	1693.67
627.12	1701.86
627.31	1779.68
627.50	1724.39
627.69	1818.60
627.88	1628.14
628.07	1738.73
628.26	1578.98
628.45	1710.05
628.64	1718.25
628.83	1722.34
629.02	1683.43
629.21	1722.34
629.40	1763.30
629.59	1642.47
629.78	1689.57
629.97	1732.58
630.16	1771.49
630.35	1728.49
630.54	1718.25
630.73	1654.76
630.92	1732.58
631.11	1701.86
631.30	1746.92
631.49	1722.34
631.68	1658.85
631.87	1769.44
632.06	1644.52
632.25	1904.61
632.44	1677.29
632.63	1691.62
632.82	1767.40
633.01	1701.86
633.20	1705.96
633.39	1705.96
633.58	1601.51
633.77	1665.00
633.96	1746.92
634.15	1781.73
634.34	1808.36
634.53	1791.97
634.72	1687.53
634.91	1576.94
635.10	1810.40
635.29	1697.77
635.48	1718.25
635.67	1730.53
635.86	1607.66
636.05	1822.69
636.24	1767.40
636.43	1781.73
636.62	1769.44
636.81	1576.94
637.00	1714.15
637.19	1724.39
637.38	1683.43
637.57	1679.33
637.76	1753.06
637.95	1748.97
638.14	1753.06
638.33	1734.63
638.52	1781.73
638.71	1646.57
638.89	1669.09
639.08	1920.99
639.27	1812.45
639.46	1726.44
639.65	1798.12
639.84	1765.35
640.03	1730.53
640.22	1714.15
640.41	1894.37
640.60	1642.47
640.79	1783.78
640.98	1708.01
641.17	1769.44
641.36	1705.96
641.55	1785.83
641.74	1630.18
641.92	1642.47
642.11	1591.27
642.30	1787.88
642.49	1703.91
642.68	1656.81
642.87	1763.30
643.06	1695.72
643.25	1648.61
643.44	1708.01
643.63	1720.29
643.82	1820.64
644.00	1646.57
644.19	1724.39
644.38	1638.38
644.57	1773.54
644.76	1787.88
644.95	1730.53
645.14	1716.20
645.33	1703.91
645.52	1765.35
645.71	1642.47
645.89	1671.14
646.08	1740.77
646.27	1763.30
646.46	1783.78
646.65	1642.47
646.84	1724.39
647.03	1640.42
647.22	1718.25
647.40	1705.96
647.59	1632.23
647.78	1640.42
647.97	1615.85
648.16	1669.09
648.35	1798.12
648.54	1789.92
648.73	1726.44
648.91	1773.54
649.10	1615.85
649.29	1671.14
649.48	1763.30
649.67	1658.85
649.86	1675.24
650.05	1677.29
650.23	1746.92
650.42	1642.47
650.61	1708.01
650.80	1738.73
650.99	1828.84
651.18	1716.20
651.36	1765.35
651.55	1648.61
651.74	1722.34
651.93	1701.86
652.12	1710.05
652.31	1781.73
652.49	1677.29
652.68	1734.63
652.87	1730.53
653.06	1708.01
653.25	1818.60
653.44	1728.49
653.62	1732.58
653.81	1693.67
654.00	1716.20
654.19	1775.59
654.38	1886.18
654.56	1820.64
654.75	1746.92
654.94	1740.77
655.13	1718.25
655.32	1720.29
655.51	1716.20
655.69	1710.05
655.88	1746.92
656.07	1675.24
656.26	1656.81
656.45	1626.09
656.63	1730.53
656.82	1734.63
657.01	1738.73
657.20	1650.66
657.38	1767.40
657.57	1681.38
657.76	1644.52
657.95	1802.21
658.14	1732.58
658.32	1755.11
658.51	1691.62
658.70	1742.82
658.89	1796.07
659.08	1773.54
659.26	1820.64
659.45	1628.14
659.64	1802.21
659.83	1730.53
660.01	1943.52
660.20	1689.57
660.39	1746.92
660.58	1568.74
660.76	1671.14
660.95	1607.66
661.14	1712.10
661.33	1628.14
661.51	1705.96
661.70	1708.01
661.89	1779.68
662.08	1740.77
662.26	1624.04
662.45	1656.81
662.64	1818.60
662.83	1765.35
663.01	1705.96
663.20	1689.57
663.39	1875.94
663.58	1769.44
663.76	1728.49
663.95	1787.88
664.14	1683.43
664.32	1685.48
664.51	1685.48
664.70	1669.09
664.89	1755.11
665.07	1705.96
665.26	1757.16
665.45	1640.42
665.64	1810.40
665.82	1746.92
666.01	1759.21
666.20	1652.71
666.38	1814.50
666.57	1843.17
666.76	2263.01
666.95	4429.76
667.13	10209.12
667.32	15245.08
667.51	17401.59
667.69	18552.55
667.88	16856.83
668.07	12128.07
668.25	9246.58
668.44	7935.88
668.63	7301.01
668.81	6573.98
669.00	6234.02
669.19	5666.73
669.38	4958.13
669.56	4458.43
669.75	3989.44
669.94	3403.72
670.12	2854.87
670.31	2562.01
670.50	2267.10
670.68	2074.59
670.87	1877.99
671.06	1783.78
671.24	1841.12
671.43	1861.60
671.62	1787.88
671.80	1705.96
671.99	1845.22
672.18	1744.87
672.36	1779.68
672.55	1705.96
672.74	1714.15
672.92	1654.76
673.11	1794.02
673.29	1652.71
673.48	1837.03
673.67	1703.91
673.85	1775.59
674.04	1714.15
674.23	1722.34
674.41	1808.36
674.60	1675.24
674.79	1570.79
674.97	1677.29
675.16	1703.91
675.34	1712.10
675.53	1714.15
675.72	1798.12
675.90	1738.73
676.09	1685.48
676.28	1785.83
676.46	1626.09
676.65	1734.63
676.83	1726.44
677.02	1849.32
677.21	1634.28
677.39	1771.49
677.58	1708.01
677.77	1703.91
677.95	1701.86
678.14	1765.35
678.32	1701.86
678.51	1679.33
678.70	1869.80
678.88	1728.49
679.07	1789.92
679.25	1714.15
679.44	1701.86
679.63	1648.61
679.81	1722.34
680.00	1777.64
680.18	1761.25
680.37	1814.50
680.55	1708.01
680.74	1669.09
680.93	1642.47
681.11	1718.25
681.30	1703.91
681.48	1716.20
681.67	1744.87
681.85	1746.92
682.04	1710.05
682.23	1800.16
682.41	1701.86
682.60	1667.05
682.78	1726.44
682.97	1705.96
683.15	1681.38
683.34	1753.06
683.53	1738.73
683.71	1638.38
683.90	1818.60
684.08	1742.82
684.27	1701.86
684.45	1751.01
684.64	1761.25
684.82	1691.62
685.01	1746.92
685.19	1701.86
685.38	1800.16
685.57	1726.44
685.75	1691.62
685.94	1701.86
686.12	1687.53
686.31	1660.90
686.49	1812.45
686.68	1705.96
686.86	1689.57
687.05	1712.10
687.23	1818.60
687.42	1710.05
687.60	1632.23
687.79	1687.53
687.97	1845.22
688.16	1728.49
688.34	1781.73
688.53	1572.84
688.71	1724.39
688.90	1712.10
689.08	1755.11
689.27	1652.71
689.45	1703.91
689.64	1767.40
689.82	1753.06
690.01	1699.81
690.19	1746.92
690.38	1734.63
690.56	1765.35
690.75	1624.04
690.93	1636.33
691.12	1681.38
691.30	1757.16
691.49	1640.42
691.67	1691.62
691.86	1820.64
692.04	1763.30
692.23	1640.42
692.41	1695.72
692.60	1812.45
692.78	1738.73
692.97	1746.92
693.15	1705.96
693.34	1767.40
693.52	1738.73
693.71	1691.62
693.89	1689.57
694.08	1636.33
694.26	1757.16
694.44	1769.44
694.63	1710.05
694.81	1669.09
695.00	1658.85
695.18	1855.46
695.37	1761.25
695.55	1755.11
695.74	1697.77
695.92	1671.14
696.10	1726.44
696.29	1595.37
696.47	1689.57
696.66	1753.06
696.84	1628.14
697.03	1646.57
697.21	1806.31
697.40	2336.73
697.58	1794.02
697.76	1654.76
697.95	1732.58
698.13	1740.77
698.32	1689.57
698.50	1689.57
698.68	1759.21
698.87	1759.21
699.05	1789.92
699.24	1701.86
699.42	1691.62
699.61	1744.87
699.79	1800.16
699.97	1791.97
700.16	1708.01
700.34	1619.94
700.53	1660.90
700.71	1837.03
700.89	1798.12
701.08	1708.01
701.26	1742.82
701.45	2064.35
701.63	1642.47
701.81	1732.58
702.00	1636.33
702.18	1675.24
702.37	1720.29
702.55	1783.78
702.73	1671.14
702.92	1638.38
703.10	1689.57
703.28	1738.73
703.47	1628.14
703.65	1740.77
703.84	1824.74
704.02	1761.25
704.20	1751.01
704.39	1652.71
704.57	1656.81
704.75	1765.35
704.94	1779.68
705.12	1742.82
705.30	1789.92
705.49	2238.43
705.67	4239.30
705.86	9437.04
706.04	12197.70
706.22	14219.05
706.41	15060.76
706.59	13498.16
706.77	9244.53
706.96	7096.21
707.14	6424.48
707.32	5803.94
707.51	5525.42
707.69	4763.58
707.87	4032.45
708.06	3520.46
708.24	2904.02
708.42	2379.74
708.61	2240.48
708.79	1961.95
708.97	1892.32
709.16	1716.20
709.34	1773.54
709.52	1744.87
709.71	1726.44
709.89	1759.21
710.07	1644.52
710.26	1767.40
710.44	1787.88
710.62	1806.31
710.80	1761.25
710.99	1732.58
711.17	1787.88
711.35	1621.99
711.54	1736.68
711.72	1757.16
711.90	1771.49
712.09	1683.43
712.27	1617.90
712.45	1748.97
712.63	1626.09
712.82	1757.16
713.00	1679.33
713.18	1773.54
713.37	1718.25
713.55	1800.16
713.73	1822.69
713.91	1740.77
714.10	1767.40
714.28	1722.34
714.46	1779.68
714.65	1769.44
714.83	1746.92
715.01	1724.39
715.19	1695.72
715.38	1726.44
715.56	1759.21
715.74	1667.05
715.92	1630.18
716.11	1828.84
716.29	1705.96
716.47	1646.57
716.65	1671.14
716.84	1685.48
717.02	1845.22
717.20	1638.38
717.38	1708.01
717.57	1740.77
717.75	1656.81
717.93	1669.09
718.11	1718.25
718.30	1710.05
718.48	1724.39
718.66	1765.35
718.84	1734.63
719.03	1720.29
719.21	1697.77
719.39	1755.11
719.57	1759.21
719.75	1740.77
719.94	1681.38
720.12	1708.01
720.30	1738.73
720.48	1785.83
720.67	1718.25
720.85	1652.71
721.03	1705.96
721.21	1687.53
721.39	1708.01
721.58	1802.21
721.76	1746.92
721.94	1751.01
722.12	1697.77
722.30	1753.06
722.49	1671.14
722.67	1638.38
722.85	1724.39
723.03	1613.80
723.21	1605.61
723.40	1728.49
723.58	1746.92
723.76	1722.34
723.94	1757.16
724.12	1775.59
724.30	1705.96
724.49	1751.01
724.67	1621.99
724.85	1826.79
725.03	1636.33
725.21	1714.15
725.40	1820.64
725.58	1720.29
725.76	1759.21
725.94	1665.00
726.12	1722.34
726.30	1744.87
726.49	1689.57
726.67	1689.57
726.85	1673.19
727.03	1808.36
727.21	2187.23
727.39	2955.22
727.57	3604.42
727.76	4147.14
727.94	4366.27
728.12	4335.55
728.30	3622.86
728.48	2918.36
728.66	2809.81
728.84	2545.63
729.03	2330.59
729.21	2150.37
729.39	1998.82
729.57	1814.50
729.75	1800.16
729.93	1888.23
730.11	1722.34
730.30	1728.49
730.48	1767.40
730.66	1837.03
730.84	1703.91
731.02	1791.97
731.20	1665.00
731.38	1824.74
731.56	1648.61
731.74	1650.66
731.93	1689.57
732.11	1748.97
732.29	1675.24
732.47	1689.57
732.65	1748.97
732.83	1804.26
733.01	1722.34
733.19	1626.09
733.37	1755.11
733.56	1777.64
733.74	1712.10
733.92	1791.97
734.10	1718.25
734.28	1716.20
734.46	1646.57
734.64	1683.43
734.82	1671.14
735.00	1671.14
735.18	1712.10
735.36	1703.91
735.54	1742.82
735.73	1685.48
735.91	1812.45
736.09	1839.08
736.27	1648.61
736.45	1759.21
736.63	1646.57
736.81	1705.96
736.99	1789.92
737.17	1791.97
737.35	1683.43
737.53	1662.95
737.71	1716.20
737.89	1796.07
738.07	1693.67
738.25	1667.05
738.43	1640.42
738.61	1757.16
738.80	1652.71
738.98	1626.09
739.16	1742.82
739.34	1699.81
739.52	1861.60
739.70	1722.34
739.88	1683.43
740.06	1849.32
740.24	1583.08
740.42	1816.55
740.60	1587.18
740.78	1695.72
740.96	1628.14
741.14	1689.57
741.32	1691.62
741.50	1636.33
741.68	1871.84
741.86	1763.30
742.04	1699.81
742.22	1642.47
742.40	1687.53
742.58	1722.34
742.76	1636.33
742.94	1703.91
743.12	1630.18
743.30	1695.72
743.48	1730.53
743.66	1650.66
743.84	1757.16
744.02	1679.33
744.20	1705.96
744.38	1609.70
744.56	1652.71
744.74	1775.59
744.92	1624.04
745.10	1816.55
745.28	1736.68
745.46	1841.12
745.64	1603.56
745.82	1771.49
746.00	1722.34
746.18	1656.81
746.36	1667.05
746.54	1738.73
746.72	1732.58
746.90	1720.29
747.08	1724.39
747.26	1673.19
747.44	1783.78
747.62	1744.87
747.80	1691.62
747.98	1742.82
748.15	1728.49
748.33	1857.51
748.51	1726.44
748.69	1726.44
748.87	1626.09
749.05	1716.20
749.23	1658.85
749.41	1794.02
749.59	1691.62
749.77	1759.21
749.95	1673.19
750.13	1652.71
750.31	1746.92
750.49	1679.33
750.67	1677.29
750.85	1849.32
751.03	1703.91
751.20	1853.41
751.38	1642.47
751.56	1734.63
751.74	1613.80
751.92	1767.40
752.10	1665.00
752.28	1769.44
752.46	1705.96
752.64	1738.73
752.82	1820.64
753.00	1718.25
753.18	1712.10
753.35	1683.43
753.53	1648.61
753.71	1693.67
753.89	1771.49
754.07	1671.14
754.25	1740.77
754.43	1804.26
754.61	1691.62
754.79	1687.53
754.97	1624.04
755.14	1849.32
755.32	1681.38
755.50	1693.67
755.68	1730.53
755.86	1689.57
756.04	1685.48
756.22	1540.07
756.40	1773.54
756.57	1783.78
756.75	1669.09
756.93	1820.64
757.11	1810.40
757.29	1697.77
757.47	1695.72
757.65	1681.38
757.82	1607.66
758.00	1660.90
758.18	1722.34
758.36	1648.61
758.54	1894.37
758.72	1615.85
758.90	1763.30
759.07	1775.59
759.25	1648.61
759.43	1671.14
759.61	1703.91
759.79	2160.61
759.97	1685.48
760.15	1656.81
760.32	1640.42
760.50	1718.25
760.68	1839.08
760.86	1656.81
761.04	1798.12
761.22	1740.77
761.39	1656.81
761.57	1675.24
761.75	1720.29
761.93	1722.34
762.11	1730.53
762.28	1695.72
762.46	1665.00
762.64	1746.92
762.82	1660.90
763.00	1693.67
763.18	1742.82
763.35	1679.33
763.53	1810.40
763.71	1724.39
763.89	1685.48
764.07	1683.43
764.24	1773.54
764.42	1783.78
764.60	1648.61
764.78	1769.44
764.96	1736.68
765.13	1763.30
765.31	1689.57
765.49	1683.43
765.67	1656.81
765.84	1667.05
766.02	1724.39
766.20	1650.66
766.38	1712.10
766.56	1716.20
766.73	1679.33
766.91	1681.38
767.09	1699.81
767.27	1728.49
767.44	1656.81
767.62	1693.67
767.80	1699.81
767.98	1626.09
768.15	1687.53
768.33	1765.35
768.51	1785.83
768.69	1724.39
768.87	1718.25
769.04	1701.86
769.22	1832.93
769.40	1802.21
769.58	1834.98
769.75	1710.05
769.93	1779.68
770.11	1720.29
770.28	1662.95
770.46	1701.86
770.64	1730.53
770.82	1679.33
770.99	1710.05
771.17	1781.73
771.35	1650.66
771.53	1685.48
771.70	1636.33
771.88	1732.58
772.06	1701.86
772.23	1746.92
772.41	1693.67
772.59	1656.81
772.77	1648.61
772.94	1736.68
773.12	1730.53
773.30	1724.39
773.47	1724.39
773.65	1656.81
773.83	1781.73
774.01	1669.09
774.18	1673.19
774.36	1693.67
774.54	1642.47
774.71	1777.64
774.89	1658.85
775.07	1728.49
775.24	1624.04
775.42	1724.39
775.60	1769.44
775.78	1665.00
775.95	1601.51
776.13	1595.37
776.31	1665.00
776.48	1755.11
776.66	1808.36
776.84	1722.34
777.01	1648.61
777.19	1593.32
777.37	1677.29
777.54	1787.88
777.72	1816.55
777.90	1726.44
778.07	1703.91
778.25	1853.41
778.43	1779.68
778.60	1742.82
778.78	1781.73
778.96	1703.91
779.13	1673.19
779.31	1794.02
779.49	1636.33
779.66	1728.49
779.84	1650.66
780.01	1714.15
780.19	1638.38
780.37	1849.32
780.54	1697.77
780.72	1621.99
780.90	1710.05
781.07	1683.43
781.25	1658.85
781.43	1722.34
781.60	1648.61
781.78	1740.77
781.95	1732.58
782.13	1652.71
782.31	1718.25
782.48	1544.17
782.66	1726.44
782.83	1839.08
783.01	1728.49
783.19	1753.06
783.36	1722.34
783.54	1683.43
783.72	1796.07
783.89	1683.43
784.07	1681.38
784.24	1695.72
784.42	1839.08
784.60	1710.05
784.77	1716.20
784.95	1527.78
785.12	1652.71
785.30	1652.71
785.47	1675.24
785.65	1626.09
785.83	1724.39
786.00	1685.48
786.18	1615.85
786.35	1665.00
786.53	1583.08
786.71	1730.53
786.88	1771.49
787.06	1755.11
787.23	1730.53
787.41	1699.81
787.58	1673.19
787.76	1589.22
787.94	1677.29
788.11	1726.44
788.29	1601.51
788.46	1677.29
788.64	1662.95
788.81	1722.34
788.99	1652.71
789.16	1644.52
789.34	1691.62
789.52	1636.33
789.69	1771.49
789.87	1619.94
790.04	1636.33
790.22	1757.16
790.39	1849.32
790.57	1665.00
790.74	1716.20
790.92	1703.91
791.09	1599.46
791.27	1755.11
791.44	1742.82
791.62	1748.97
791.79	1734.63
791.97	1665.00
792.15	1912.80
792.32	1763.30
792.50	1759.21
792.67	1785.83
792.85	1732.58
793.02	1726.44
793.20	1662.95
793.37	1599.46
793.55	1701.86
793.72	1679.33
793.90	1777.64
794.07	1652.71
794.25	1677.29
794.42	1683.43
794.60	1708.01
794.77	1728.49
794.95	1738.73
795.12	1730.53
795.30	1652.71
795.47	1583.08
795.65	1863.65
795.82	1771.49
796.00	1654.76
796.17	1648.61
796.34	1689.57
796.52	1693.67
796.69	1738.73
796.87	1708.01
797.04	1708.01
797.22	1732.58
797.39	1740.77
797.57	1822.69
797.74	1802.21
797.92	1703.91
798.09	1763.30
798.27	1751.01
798.44	1769.44
798.62	1642.47
798.79	1783.78
798.96	1720.29
799.14	1697.77
799.31	1738.73
799.49	1699.81
799.66	1660.90
799.84	1755.11
800.01	1677.29
800.19	1742.82
800.36	1617.90
800.53	1740.77
800.71	1679.33
800.88	1812.45
801.06	1699.81
801.23	1728.49
801.41	1726.44
801.58	1703.91
801.75	1673.19
801.93	1695.72
802.10	1748.97
802.28	1683.43
802.45	1609.70
802.63	1783.78
802.80	1736.68
802.97	1724.39
803.15	1794.02
803.32	1660.90
803.50	1638.38
803.67	1679.33
803.84	1634.28
804.02	1697.77
804.19	1705.96
804.37	1619.94
804.54	1679.33
804.71	1691.62
804.89	1667.05
805.06	1775.59
805.24	1595.37
805.41	1675.24
805.58	1697.77
805.76	1861.60
805.93	1638.38
806.10	1736.68
806.28	1722.34
806.45	1675.24
806.63	1736.68
806.80	1765.35
806.97	1708.01
807.15	1671.14
807.32	1681.38
807.49	1708.01
807.67	1648.61
807.84	1654.76
808.01	1603.56
808.19	1740.77
808.36	1933.28
808.54	1693.67
808.71	1648.61
808.88	1724.39
809.06	1724.39
809.23	1796.07
809.40	1660.90
809.58	1738.73
809.75	1740.77
809.92	1554.41
810.10	1873.89
810.27	1693.67
810.44	1753.06
810.62	1751.01
810.79	1746.92
810.96	1617.90
811.14	1695.72
811.31	1730.53
811.48	1675.24
811.66	1730.53
811.83	1742.82
812.00	1738.73
812.18	1800.16
812.35	1804.26
812.52	1644.52
812.69	1699.81
812.87	1671.14
813.04	1689.57
813.21	1765.35
813.39	1685.48
813.56	1642.47
813.73	1761.25
813.91	1628.14
814.08	1691.62
814.25	1744.87
814.42	1619.94
814.60	1701.86
814.77	1771.49
814.94	1710.05
815.12	1660.90
815.29	1853.41
815.46	1716.20
815.63	1705.96
815.81	1718.25
815.98	1746.92
816.15	1701.86
816.33	1734.63
816.50	1624.04
816.67	1708.01
816.84	1667.05
817.02	1624.04
817.19	1634.28
817.36	1716.20
817.53	1732.58
817.71	1673.19
817.88	1761.25
818.05	1701.86
818.22	1626.09
818.40	1755.11
818.57	1665.00
818.74	1691.62
818.91	1648.61
819.09	1810.40
819.26	1800.16
819.43	1718.25
819.60	1630.18
819.78	1712.10
819.95	1808.36
820.12	1685.48
820.29	1767.40
820.47	1771.49
820.64	1699.81
820.81	1617.90
820.98	1701.86
821.15	1679.33
821.33	1693.67
821.50	1574.89
821.67	1761.25
821.84	1681.38
822.02	1765.35
822.19	1738.73
822.36	1626.09
822.53	1724.39
822.70	1660.90
822.88	1720.29
823.05	1767.40
823.22	1744.87
823.39	1736.68
823.56	1736.68
823.74	1798.12
823.91	1669.09
824.08	1757.16
824.25	1677.29
824.42	1920.99
824.60	1591.27
824.77	1689.57
824.94	1689.57
825.11	1773.54
825.28	1585.13
825.45	1691.62
825.63	1718.25
825.80	1658.85
825.97	1675.24
826.14	1794.02
826.31	1615.85
826.48	1789.92
826.66	1660.90
826.83	1738.73
827.00	1726.44
827.17	1685.48
827.34	1732.58
827.51	1722.34
827.69	1703.91
827.86	1658.85
828.03	1718.25
828.20	1687.53
828.37	1673.19
828.54	1744.87
828.71	1708.01
828.89	1695.72
829.06	1646.57
829.23	1789.92
829.40	1574.89
829.57	1689.57
829.74	1726.44
829.91	1695.72
830.09	1669.09
830.26	1716.20
830.43	1751.01
830.60	1634.28
830.77	1722.34
830.94	1794.02
831.11	1798.12
831.28	1685.48
831.46	1753.06
831.63	1667.05
831.80	1734.63
831.97	1615.85
832.14	1789.92
832.31	1732.58
832.48	1755.11
832.65	1783.78
832.82	1685.48
832.99	1785.83
833.17	1624.04
833.34	1726.44
833.51	1812.45
833.68	1609.70
833.85	1744.87
834.02	1652.71
834.19	1599.46
834.36	1697.77
834.53	1705.96
834.70	1798.12
834.87	1703.91
835.04	1757.16
835.22	1642.47
835.39	1714.15
835.56	1701.86
835.73	1619.94
835.90	1773.54
836.07	1648.61
836.24	1781.73
836.41	1630.18
836.58	1644.52
836.75	1798.12
836.92	1759.21
837.09	1613.80
837.26	1757.16
837.43	1708.01
837.60	1728.49
837.77	1712.10
837.94	1744.87
838.12	1804.26
838.29	1765.35
838.46	1609.70
838.63	1697.77
838.80	1767.40
838.97	1673.19
839.14	1689.57
839.31	1738.73
839.48	1724.39
839.65	1703.91
839.82	1712.10
839.99	1632.23
840.16	1687.53
840.33	1626.09
840.50	1757.16
840.67	1583.08
840.84	1562.60
841.01	1798.12
841.18	1705.96
841.35	1665.00
841.52	1751.01
841.69	1875.94
841.86	1673.19
842.03	1697.77
842.20	1738.73
842.37	1697.77
842.54	1746.92
842.71	1726.44
842.88	1632.23
843.05	1751.01
843.22	1687.53
843.39	1773.54
843.56	1718.25
843.73	1710.05
843.90	1718.25
844.07	1703.91
844.24	1693.67
844.41	1771.49
844.58	1767.40
844.75	1691.62
844.92	1724.39
845.09	1708.01
845.26	1613.80
845.43	1687.53
845.60	1734.63
845.77	1736.68
845.94	1693.67
846.10	1826.79
846.27	1611.75
846.44	1570.79
846.61	1701.86
846.78	1705.96
846.95	1767.40
847.12	1677.29
847.29	1681.38
847.46	1746.92
847.63	1656.81
847.80	1613.80
847.97	1652.71
848.14	1810.40
848.31	1675.24
848.48	1654.76
848.65	1701.86
848.82	1701.86
848.98	1787.88
849.15	1832.93
849.32	1773.54
849.49	1765.35
849.66	1728.49
849.83	1626.09
850.00	1626.09
850.17	1730.53
850.34	1693.67
850.51	1673.19
850.68	1644.52
850.85	1826.79
851.01	1681.38
851.18	1621.99
851.35	1724.39
851.52	1730.53
851.69	1804.26
851.86	1652.71
852.03	1718.25
852.20	1789.92
852.37	1708.01
852.53	1558.50
852.70	1652.71
852.87	1642.47
853.04	1681.38
853.21	1695.72
853.38	1771.49
853.55	1738.73
853.72	1789.92
853.89	1644.52
854.05	1679.33
854.22	1660.90
854.39	1699.81
854.56	1640.42
854.73	1726.44
854.90	1638.38
855.07	1701.86
855.23	1679.33
855.40	1781.73
855.57	1726.44
855.74	1550.31
855.91	1902.56
856.08	1648.61
856.25	1685.48
856.41	1652.71
856.58	1736.68
856.75	1675.24
856.92	1646.57
857.09	1714.15
857.26	1652.71
857.42	1691.62
857.59	1685.48
857.76	1775.59
857.93	1708.01
858.10	1722.34
858.27	1691.62
858.43	1722.34
858.60	1691.62
858.77	1615.85
858.94	1714.15
859.11	1744.87
859.27	1675.24
859.44	1624.04
859.61	1859.56
859.78	1726.44
859.95	1644.52
860.12	1644.52
860.28	1892.32
860.45	1732.58
860.62	1705.96
860.79	1718.25
860.95	1671.14
861.12	1630.18
861.29	1650.66
861.46	1650.66
861.63	1667.05
861.79	1697.77
861.96	1640.42
862.13	1730.53
862.30	1845.22
862.47	1640.42
862.63	1710.05
862.80	1755.11
862.97	1691.62
863.14	1673.19
863.30	1693.67
863.47	1619.94
863.64	1765.35
863.81	1712.10
863.97	1662.95
864.14	1755.11
864.31	1726.44
864.48	1726.44
864.65	1701.86
864.81	1798.12
864.98	1636.33
865.15	1730.53
865.32	1757.16
865.48	1728.49
865.65	1820.64
865.82	1638.38
865.98	1761.25
866.15	1755.11
866.32	1726.44
866.49	1689.57
866.65	1763.30
866.82	1648.61
866.99	1695.72
867.16	1665.00
867.32	1652.71
867.49	1689.57
867.66	1699.81
867.83	1685.48
867.99	1693.67
868.16	1658.85
868.33	1722.34
868.49	1742.82
868.66	1656.81
868.83	1810.40
868.99	1703.91
869.16	1730.53
869.33	1816.55
869.50	1806.31
869.66	1740.77
869.83	1742.82
870.00	1656.81
870.16	1748.97
870.33	1681.38
870.50	1740.77
870.66	1640.42
870.83	1755.11
871.00	1728.49
871.17	1697.77
871.33	1802.21
871.50	1624.04
871.67	1687.53
871.83	1634.28
872.00	1834.98
872.17	1722.34
872.33	1738.73
872.50	1783.78
872.67	1685.48
872.83	1699.81
873.00	1634.28
873.17	1691.62
873.33	1705.96
873.50	1810.40
873.67	1671.14
873.83	1652.71
874.00	1753.06
874.16	1734.63
874.33	1662.95
874.50	1578.98
874.66	1808.36
874.83	1718.25
875.00	1804.26
875.16	1775.59
875.33	1771.49
875.50	1513.45
875.66	1632.23
875.83	1695.72
875.99	1712.10
876.16	1665.00
876.33	1634.28
876.49	1718.25
876.66	1714.15
876.83	1726.44
876.99	1654.76
877.16	1697.77
877.32	1601.51
877.49	1658.85
877.66	1699.81
877.82	1796.07
877.99	1693.67
878.15	1789.92
878.32	1716.20
878.49	1824.74
878.65	1718.25
878.82	1732.58
878.98	1632.23
879.15	1808.36
879.32	1718.25
879.48	1742.82
879.65	1693.67
879.81	1695.72
879.98	1740.77
880.15	1701.86
880.31	1781.73
880.48	1757.16
880.64	1695.72
880.81	1779.68
880.97	1763.30
881.14	1800.16
881.31	1673.19
881.47	1839.08
881.64	1665.00
881.80	1628.14
881.97	1730.53
882.13	1748.97
882.30	1662.95
882.47	1714.15
882.63	1710.05
882.80	1650.66
882.96	1695.72
883.13	1824.74
883.29	1662.95
883.46	1708.01
883.62	1843.17
883.79	1738.73
883.95	1791.97
884.12	1667.05
884.29	1767.40
884.45	1730.53
884.62	1720.29
884.78	1632.23
884.95	1822.69
885.11	1591.27
885.28	1761.25
885.44	1673.19
885.61	1683.43
885.77	1718.25
885.94	1679.33
886.10	1708.01
886.27	1771.49
886.43	1839.08
886.60	1789.92
886.76	1681.38
886.93	1640.42
887.09	1748.97
887.26	1675.24
887.42	1710.05
887.59	1755.11
887.75	1886.18
887.92	1828.84
888.08	1781.73
888.25	1820.64
888.41	1746.92
888.58	1710.05
888.74	1660.90
888.91	1660.90
>>>>>End Processed Spectral Data<<<<<
