SpectraSuite Data File
++++++++++++++++++++++++++++++++++++
Date: Mon Jun 06 12:10:37 CEST 2016
User: root
Dark Spectrum Present: No
Reference Spectrum Present: No
Number of Sampled Component Spectra: 1
Spectrometers: USB4C02835
Integration Time (usec): 100000 (USB4C02835)
Spectra Averaged: 1 (USB4C02835)
Boxcar Smoothing: 0 (USB4C02835)
Correct for Electrical Dark: No (USB4C02835)
Strobe/Lamp Enabled: No (USB4C02835)
Correct for Detector Non-linearity: No (USB4C02835)
Correct for Stray Light: No (USB4C02835)
Number of Pixels in Processed Spectrum: 3648
>>>>>Begin Processed Spectral Data<<<<<
177.47	1511.40
177.69	1511.40
177.91	1511.40
178.13	1466.35
178.36	1458.15
178.58	1632.23
178.80	1691.62
179.02	1566.70
179.24	1648.61
179.46	1740.77
179.68	1738.73
179.90	1695.72
180.13	1687.53
180.35	1679.33
180.57	1652.71
180.79	1734.63
181.01	1667.05
181.23	1718.25
181.45	1767.40
181.67	1712.10
181.90	1794.02
182.12	1599.46
182.34	1613.80
182.56	1738.73
182.78	1708.01
183.00	1640.42
183.22	1714.15
183.44	1609.70
183.66	1806.31
183.89	1771.49
184.11	1617.90
184.33	1685.48
184.55	1828.84
184.77	1726.44
184.99	1718.25
185.21	1648.61
185.43	1851.36
185.65	1650.66
185.87	1724.39
186.10	1822.69
186.32	1828.84
186.54	1669.09
186.76	1697.77
186.98	1722.34
187.20	1626.09
187.42	1714.15
187.64	1730.53
187.86	1673.19
188.08	1708.01
188.30	1718.25
188.52	1773.54
188.75	1712.10
188.97	1748.97
189.19	1697.77
189.41	1675.24
189.63	1675.24
189.85	1630.18
190.07	1615.85
190.29	1587.18
190.51	1703.91
190.73	1640.42
190.95	1732.58
191.17	1671.14
191.39	1607.66
191.61	1677.29
191.84	1583.08
192.06	1673.19
192.28	1572.84
192.50	1957.86
192.72	1732.58
192.94	1726.44
193.16	1775.59
193.38	1767.40
193.60	1568.74
193.82	1667.05
194.04	1736.68
194.26	1746.92
194.48	1689.57
194.70	1607.66
194.92	1660.90
195.14	1757.16
195.36	1730.53
195.58	1730.53
195.80	1689.57
196.02	1640.42
196.24	1699.81
196.46	1677.29
196.69	1716.20
196.91	1882.08
197.13	1613.80
197.35	1634.28
197.57	1798.12
197.79	1689.57
198.01	1665.00
198.23	1689.57
198.45	1652.71
198.67	1701.86
198.89	1718.25
199.11	1742.82
199.33	1654.76
199.55	1566.70
199.77	1617.90
199.99	1710.05
200.21	1632.23
200.43	1753.06
200.65	1638.38
200.87	1601.51
201.09	1644.52
201.31	1681.38
201.53	1755.11
201.75	1738.73
201.97	1679.33
202.19	1712.10
202.41	1755.11
202.63	1783.78
202.85	1736.68
203.07	1685.48
203.29	1730.53
203.51	1634.28
203.73	1599.46
203.95	1871.84
204.17	1724.39
204.39	1755.11
204.61	1669.09
204.83	1658.85
205.05	1744.87
205.27	1691.62
205.49	1767.40
205.71	1658.85
205.93	1624.04
206.15	1617.90
206.37	1724.39
206.59	1699.81
206.81	1656.81
207.03	1605.61
207.25	1621.99
207.47	1746.92
207.69	1646.57
207.91	1728.49
208.13	1828.84
208.34	1611.75
208.56	1699.81
208.78	1726.44
209.00	1683.43
209.22	1595.37
209.44	1665.00
209.66	1593.32
209.88	1759.21
210.10	1757.16
210.32	1589.22
210.54	1716.20
210.76	1667.05
210.98	1748.97
211.20	1550.31
211.42	1695.72
211.64	1732.58
211.86	1708.01
212.08	1765.35
212.30	1722.34
212.52	1693.67
212.74	1714.15
212.96	1746.92
213.17	1724.39
213.39	1734.63
213.61	1820.64
213.83	1810.40
214.05	1587.18
214.27	1757.16
214.49	1669.09
214.71	1638.38
214.93	1738.73
215.15	1667.05
215.37	1708.01
215.59	1640.42
215.81	1714.15
216.03	1761.25
216.24	1712.10
216.46	1669.09
216.68	1689.57
216.90	1710.05
217.12	1673.19
217.34	1718.25
217.56	1644.52
217.78	1724.39
218.00	1697.77
218.22	1705.96
218.44	1742.82
218.66	1751.01
218.87	1802.21
219.09	1744.87
219.31	1648.61
219.53	1689.57
219.75	1687.53
219.97	1679.33
220.19	1673.19
220.41	1681.38
220.63	1736.68
220.85	1648.61
221.06	1701.86
221.28	1669.09
221.50	1701.86
221.72	1722.34
221.94	1777.64
222.16	1644.52
222.38	1697.77
222.60	1718.25
222.82	1726.44
223.03	1689.57
223.25	1587.18
223.47	1726.44
223.69	1787.88
223.91	1724.39
224.13	1652.71
224.35	1681.38
224.57	1689.57
224.78	1689.57
225.00	1703.91
225.22	1665.00
225.44	1652.71
225.66	1632.23
225.88	1660.90
226.10	1705.96
226.32	1673.19
226.53	1740.77
226.75	1685.48
226.97	1673.19
227.19	1638.38
227.41	1681.38
227.63	1626.09
227.85	1566.70
228.06	1673.19
228.28	1687.53
228.50	1796.07
228.72	1566.70
228.94	1683.43
229.16	1599.46
229.37	1658.85
229.59	1671.14
229.81	1708.01
230.03	1581.03
230.25	1619.94
230.47	1624.04
230.69	1589.22
230.90	1726.44
231.12	1677.29
231.34	1617.90
231.56	1714.15
231.78	1591.27
232.00	1699.81
232.21	1716.20
232.43	1648.61
232.65	1619.94
232.87	1753.06
233.09	1638.38
233.30	1644.52
233.52	1740.77
233.74	1714.15
233.96	1634.28
234.18	1673.19
234.40	1693.67
234.61	1765.35
234.83	1585.13
235.05	1632.23
235.27	1832.93
235.49	1767.40
235.70	1673.19
235.92	1822.69
236.14	1796.07
236.36	1853.41
236.58	1630.18
236.79	1701.86
237.01	1722.34
237.23	1710.05
237.45	1726.44
237.67	1667.05
237.88	1681.38
238.10	1773.54
238.32	1619.94
238.54	1730.53
238.76	1619.94
238.97	1656.81
239.19	1679.33
239.41	1708.01
239.63	1716.20
239.85	1583.08
240.06	1720.29
240.28	1658.85
240.50	1810.40
240.72	1708.01
240.93	1769.44
241.15	1847.27
241.37	1660.90
241.59	1779.68
241.81	1718.25
242.02	1742.82
242.24	1673.19
242.46	1667.05
242.68	1615.85
242.89	1718.25
243.11	1728.49
243.33	1703.91
243.55	1667.05
243.76	1722.34
243.98	1605.61
244.20	1689.57
244.42	1687.53
244.64	1681.38
244.85	1626.09
245.07	1630.18
245.29	1714.15
245.51	1640.42
245.72	1775.59
245.94	1724.39
246.16	1624.04
246.38	1720.29
246.59	1681.38
246.81	1640.42
247.03	1744.87
247.24	1540.07
247.46	1681.38
247.68	1755.11
247.90	1628.14
248.11	1699.81
248.33	1734.63
248.55	1691.62
248.77	1681.38
248.98	1734.63
249.20	1771.49
249.42	1624.04
249.64	1701.86
249.85	1699.81
250.07	1724.39
250.29	1755.11
250.50	1818.60
250.72	1591.27
250.94	1677.29
251.16	1822.69
251.37	1730.53
251.59	1744.87
251.81	1728.49
252.02	1722.34
252.24	1716.20
252.46	1806.31
252.68	1630.18
252.89	1607.66
253.11	1591.27
253.33	1845.22
253.54	1730.53
253.76	1636.33
253.98	1726.44
254.20	1693.67
254.41	1607.66
254.63	1716.20
254.85	1669.09
255.06	1636.33
255.28	1689.57
255.50	1712.10
255.71	1691.62
255.93	1648.61
256.15	1667.05
256.36	1638.38
256.58	1648.61
256.80	1763.30
257.02	1669.09
257.23	1716.20
257.45	1611.75
257.67	1779.68
257.88	1708.01
258.10	1703.91
258.32	1632.23
258.53	1646.57
258.75	1755.11
258.97	1646.57
259.18	1640.42
259.40	1689.57
259.62	1863.65
259.83	1724.39
260.05	1685.48
260.27	1929.19
260.48	1724.39
260.70	1576.94
260.92	1736.68
261.13	1630.18
261.35	1671.14
261.57	1656.81
261.78	1697.77
262.00	1656.81
262.22	1703.91
262.43	1660.90
262.65	1652.71
262.86	1798.12
263.08	1828.84
263.30	1746.92
263.51	1646.57
263.73	1736.68
263.95	1763.30
264.16	1642.47
264.38	1732.58
264.60	1681.38
264.81	1679.33
265.03	1728.49
265.25	1714.15
265.46	1669.09
265.68	1701.86
265.89	1679.33
266.11	1615.85
266.33	1681.38
266.54	1695.72
266.76	1789.92
266.98	1726.44
267.19	1789.92
267.41	1695.72
267.62	1689.57
267.84	1662.95
268.06	1765.35
268.27	1736.68
268.49	1724.39
268.70	1718.25
268.92	1691.62
269.14	1732.58
269.35	1652.71
269.57	1652.71
269.79	1697.77
270.00	1660.90
270.22	1845.22
270.43	1605.61
270.65	1642.47
270.87	1669.09
271.08	1744.87
271.30	1748.97
271.51	1771.49
271.73	1656.81
271.95	1755.11
272.16	1730.53
272.38	1695.72
272.59	1652.71
272.81	1642.47
273.02	1779.68
273.24	1689.57
273.46	1746.92
273.67	1644.52
273.89	1609.70
274.10	1654.76
274.32	1769.44
274.54	1806.31
274.75	1736.68
274.97	1599.46
275.18	1767.40
275.40	1777.64
275.61	1640.42
275.83	1624.04
276.05	1595.37
276.26	1691.62
276.48	1779.68
276.69	1646.57
276.91	1708.01
277.12	1769.44
277.34	1681.38
277.55	1853.41
277.77	1718.25
277.99	1660.90
278.20	1597.42
278.42	1671.14
278.63	1665.00
278.85	1607.66
279.06	1697.77
279.28	1710.05
279.49	1712.10
279.71	1728.49
279.93	1716.20
280.14	1722.34
280.36	1697.77
280.57	1738.73
280.79	1726.44
281.00	1646.57
281.22	1630.18
281.43	1755.11
281.65	1636.33
281.86	1658.85
282.08	1757.16
282.29	1761.25
282.51	1605.61
282.73	1638.38
282.94	1624.04
283.16	1738.73
283.37	1767.40
283.59	1665.00
283.80	1687.53
284.02	1714.15
284.23	1785.83
284.45	1650.66
284.66	1665.00
284.88	1656.81
285.09	1685.48
285.31	1730.53
285.52	1777.64
285.74	1548.26
285.95	1767.40
286.17	1628.14
286.38	1728.49
286.60	1667.05
286.81	1667.05
287.03	1722.34
287.24	1705.96
287.46	1787.88
287.67	1708.01
287.89	1794.02
288.10	1615.85
288.32	1710.05
288.53	1822.69
288.75	1650.66
288.96	1689.57
289.18	1701.86
289.39	1677.29
289.61	1714.15
289.82	1761.25
290.04	1765.35
290.25	1648.61
290.47	1615.85
290.68	1667.05
290.90	1751.01
291.11	1527.78
291.33	1689.57
291.54	1710.05
291.76	1533.93
291.97	1769.44
292.18	1755.11
292.40	1619.94
292.61	1710.05
292.83	1857.51
293.04	1675.24
293.26	1683.43
293.47	1673.19
293.69	1601.51
293.90	1720.29
294.12	1685.48
294.33	1685.48
294.55	1640.42
294.76	1708.01
294.97	1744.87
295.19	1843.17
295.40	1687.53
295.62	1730.53
295.83	1822.69
296.05	1677.29
296.26	1708.01
296.48	1609.70
296.69	1652.71
296.90	1607.66
297.12	1701.86
297.33	1710.05
297.55	1722.34
297.76	1779.68
297.98	1781.73
298.19	1734.63
298.41	1648.61
298.62	1638.38
298.83	1773.54
299.05	1722.34
299.26	1628.14
299.48	1646.57
299.69	1730.53
299.90	1701.86
300.12	1619.94
300.33	1710.05
300.55	1675.24
300.76	1667.05
300.98	1624.04
301.19	1673.19
301.40	1665.00
301.62	1665.00
301.83	1677.29
302.05	1705.96
302.26	1738.73
302.47	1667.05
302.69	1587.18
302.90	1687.53
303.12	1548.26
303.33	1691.62
303.54	1818.60
303.76	1710.05
303.97	1697.77
304.19	1800.16
304.40	1632.23
304.61	1753.06
304.83	1841.12
305.04	1738.73
305.26	1738.73
305.47	1632.23
305.68	1687.53
305.90	1609.70
306.11	1640.42
306.33	1714.15
306.54	1667.05
306.75	1630.18
306.97	1587.18
307.18	1624.04
307.39	1603.56
307.61	1699.81
307.82	1593.32
308.04	1722.34
308.25	1650.66
308.46	1687.53
308.68	1718.25
308.89	1753.06
309.10	1718.25
309.32	1716.20
309.53	1669.09
309.74	1716.20
309.96	1689.57
310.17	1761.25
310.39	1685.48
310.60	1708.01
310.81	1624.04
311.03	1677.29
311.24	1705.96
311.45	1708.01
311.67	1783.78
311.88	1767.40
312.09	1636.33
312.31	1683.43
312.52	1681.38
312.73	1662.95
312.95	1634.28
313.16	1648.61
313.37	1761.25
313.59	1650.66
313.80	1843.17
314.01	1818.60
314.23	1638.38
314.44	1665.00
314.65	1617.90
314.87	1640.42
315.08	1662.95
315.29	1755.11
315.51	1695.72
315.72	1675.24
315.93	1771.49
316.15	1691.62
316.36	1718.25
316.57	1689.57
316.79	1656.81
317.00	1644.52
317.21	1738.73
317.43	1619.94
317.64	1673.19
317.85	1578.98
318.07	1644.52
318.28	1722.34
318.49	1810.40
318.70	1890.28
318.92	1761.25
319.13	1746.92
319.34	1898.47
319.56	1718.25
319.77	1757.16
319.98	1759.21
320.20	1759.21
320.41	1734.63
320.62	1751.01
320.83	1630.18
321.05	1794.02
321.26	1722.34
321.47	1660.90
321.69	1722.34
321.90	1595.37
322.11	1648.61
322.32	1687.53
322.54	1779.68
322.75	1640.42
322.96	1814.50
323.18	1654.76
323.39	1572.84
323.60	1677.29
323.81	1769.44
324.03	1673.19
324.24	1683.43
324.45	1681.38
324.66	1671.14
324.88	1716.20
325.09	1826.79
325.30	1685.48
325.52	1794.02
325.73	1703.91
325.94	1705.96
326.15	1662.95
326.37	1644.52
326.58	1755.11
326.79	1755.11
327.00	1722.34
327.22	1640.42
327.43	1603.56
327.64	1624.04
327.85	1710.05
328.07	1693.67
328.28	1826.79
328.49	1613.80
328.70	1658.85
328.92	1753.06
329.13	1599.46
329.34	1726.44
329.55	1767.40
329.76	1759.21
329.98	1730.53
330.19	1769.44
330.40	1722.34
330.61	1681.38
330.83	1685.48
331.04	1652.71
331.25	1722.34
331.46	1726.44
331.68	1617.90
331.89	1720.29
332.10	1675.24
332.31	1634.28
332.52	1675.24
332.74	1720.29
332.95	1693.67
333.16	1640.42
333.37	1660.90
333.58	1720.29
333.80	1708.01
334.01	1621.99
334.22	1617.90
334.43	1718.25
334.64	1644.52
334.86	1585.13
335.07	1603.56
335.28	1744.87
335.49	1640.42
335.70	1708.01
335.92	1759.21
336.13	1800.16
336.34	1771.49
336.55	1746.92
336.76	1705.96
336.98	1632.23
337.19	1753.06
337.40	1849.32
337.61	1763.30
337.82	1607.66
338.04	1738.73
338.25	1617.90
338.46	1597.42
338.67	1636.33
338.88	1642.47
339.09	1632.23
339.31	1667.05
339.52	1595.37
339.73	1581.03
339.94	1654.76
340.15	1775.59
340.36	1658.85
340.58	1646.57
340.79	1640.42
341.00	1693.67
341.21	1576.94
341.42	1800.16
341.63	1695.72
341.85	1705.96
342.06	1716.20
342.27	1644.52
342.48	1722.34
342.69	1517.54
342.90	1763.30
343.12	1757.16
343.33	1609.70
343.54	1759.21
343.75	1802.21
343.96	1724.39
344.17	1656.81
344.38	1677.29
344.60	1681.38
344.81	1701.86
345.02	1599.46
345.23	1683.43
345.44	1751.01
345.65	1697.77
345.86	1730.53
346.07	1716.20
346.29	1640.42
346.50	1681.38
346.71	1712.10
346.92	1775.59
347.13	1775.59
347.34	1685.48
347.55	1714.15
347.76	1695.72
347.98	1716.20
348.19	1581.03
348.40	1806.31
348.61	1646.57
348.82	1773.54
349.03	1812.45
349.24	1640.42
349.45	1865.70
349.66	1554.41
349.88	1718.25
350.09	1634.28
350.30	1724.39
350.51	1726.44
350.72	1693.67
350.93	1763.30
351.14	1636.33
351.35	1650.66
351.56	1675.24
351.77	1648.61
351.99	1697.77
352.20	1746.92
352.41	1777.64
352.62	1570.79
352.83	1624.04
353.04	1669.09
353.25	1640.42
353.46	1773.54
353.67	1710.05
353.88	1615.85
354.09	1734.63
354.30	1632.23
354.52	1740.77
354.73	1714.15
354.94	1671.14
355.15	1716.20
355.36	1806.31
355.57	1701.86
355.78	1673.19
355.99	1630.18
356.20	1613.80
356.41	1785.83
356.62	1677.29
356.83	1718.25
357.04	1783.78
357.25	1615.85
357.46	1732.58
357.68	1538.02
357.89	1628.14
358.10	1634.28
358.31	1652.71
358.52	1720.29
358.73	1593.32
358.94	1685.48
359.15	1714.15
359.36	1697.77
359.57	1777.64
359.78	1685.48
359.99	1712.10
360.20	1693.67
360.41	1681.38
360.62	1710.05
360.83	1683.43
361.04	1648.61
361.25	1693.67
361.46	1773.54
361.67	1822.69
361.88	1716.20
362.09	1714.15
362.30	1687.53
362.51	1605.61
362.72	1746.92
362.93	1714.15
363.14	1726.44
363.35	1673.19
363.56	1644.52
363.78	1638.38
363.99	1728.49
364.20	1650.66
364.41	1722.34
364.62	1867.75
364.83	1705.96
365.04	1687.53
365.25	1667.05
365.46	1732.58
365.67	1648.61
365.88	1593.32
366.09	1677.29
366.30	1665.00
366.51	1599.46
366.72	1613.80
366.93	1718.25
367.14	1701.86
367.35	1796.07
367.56	1683.43
367.77	1740.77
367.98	1671.14
368.18	1632.23
368.39	1669.09
368.60	1617.90
368.81	1746.92
369.02	1748.97
369.23	1595.37
369.44	1540.07
369.65	1619.94
369.86	1656.81
370.07	1775.59
370.28	1681.38
370.49	1689.57
370.70	1748.97
370.91	1583.08
371.12	1597.42
371.33	1693.67
371.54	1540.07
371.75	1763.30
371.96	1632.23
372.17	1716.20
372.38	1626.09
372.59	1742.82
372.80	1681.38
373.01	1683.43
373.22	1671.14
373.43	1708.01
373.64	1648.61
373.85	1683.43
374.06	1791.97
374.26	1681.38
374.47	1765.35
374.68	1759.21
374.89	1671.14
375.10	1693.67
375.31	1693.67
375.52	1701.86
375.73	1689.57
375.94	1652.71
376.15	1671.14
376.36	1591.27
376.57	1710.05
376.78	1652.71
376.99	1781.73
377.20	1789.92
377.40	1619.94
377.61	1806.31
377.82	1574.89
378.03	1730.53
378.24	1705.96
378.45	1667.05
378.66	1708.01
378.87	1611.75
379.08	1601.51
379.29	1656.81
379.50	1824.74
379.71	1671.14
379.91	1773.54
380.12	1693.67
380.33	1714.15
380.54	1689.57
380.75	1650.66
380.96	1644.52
381.17	1734.63
381.38	1650.66
381.59	1755.11
381.80	1751.01
382.00	1828.84
382.21	1677.29
382.42	1857.51
382.63	1800.16
382.84	1671.14
383.05	1699.81
383.26	1777.64
383.47	1746.92
383.68	1763.30
383.88	1687.53
384.09	1646.57
384.30	1800.16
384.51	1679.33
384.72	1656.81
384.93	1662.95
385.14	1667.05
385.35	1783.78
385.55	1654.76
385.76	1832.93
385.97	1677.29
386.18	1646.57
386.39	1636.33
386.60	1636.33
386.81	1648.61
387.02	1693.67
387.22	1656.81
387.43	1669.09
387.64	1777.64
387.85	1859.56
388.06	2152.42
388.27	4323.26
388.48	6979.48
388.68	8380.29
388.89	9750.38
389.10	10059.62
389.31	8724.35
389.52	7692.17
389.73	6872.98
389.93	6223.78
390.14	5992.36
390.35	5337.01
390.56	4624.31
390.77	3698.63
390.98	3065.81
391.18	2586.58
391.39	2170.85
391.60	1880.04
391.81	1894.37
392.02	1718.25
392.23	1843.17
392.43	1775.59
392.64	1804.26
392.85	1703.91
393.06	1757.16
393.27	1689.57
393.47	1656.81
393.68	1714.15
393.89	1626.09
394.10	1828.84
394.31	1599.46
394.52	1632.23
394.72	1681.38
394.93	1673.19
395.14	1660.90
395.35	1753.06
395.56	1667.05
395.76	1673.19
395.97	1845.22
396.18	1826.79
396.39	1757.16
396.60	2066.40
396.80	1812.45
397.01	1839.08
397.22	1820.64
397.43	1832.93
397.64	1697.77
397.84	1863.65
398.05	1832.93
398.26	1705.96
398.47	1744.87
398.67	1865.70
398.88	1687.53
399.09	1708.01
399.30	1665.00
399.51	1796.07
399.71	1691.62
399.92	1656.81
400.13	1705.96
400.34	1728.49
400.54	1728.49
400.75	1724.39
400.96	1662.95
401.17	1810.40
401.37	1742.82
401.58	1718.25
401.79	1669.09
402.00	1816.55
402.21	2000.87
402.41	1800.16
402.62	1947.62
402.83	2066.40
403.04	1945.57
403.24	2113.50
403.45	1843.17
403.66	1935.33
403.87	1847.27
404.07	1931.23
404.28	1877.99
404.49	1830.88
404.70	1789.92
404.90	1746.92
405.11	1773.54
405.32	1683.43
405.52	1679.33
405.73	1667.05
405.94	1730.53
406.15	1710.05
406.35	1785.83
406.56	1746.92
406.77	1689.57
406.98	1728.49
407.18	1607.66
407.39	1822.69
407.60	1667.05
407.80	1705.96
408.01	1646.57
408.22	1712.10
408.43	1656.81
408.63	1665.00
408.84	1734.63
409.05	1763.30
409.25	1669.09
409.46	1667.05
409.67	1685.48
409.88	1689.57
410.08	1710.05
410.29	1705.96
410.50	1644.52
410.70	1710.05
410.91	1617.90
411.12	1757.16
411.32	1681.38
411.53	1644.52
411.74	1781.73
411.95	1820.64
412.15	1705.96
412.36	1869.80
412.57	1810.40
412.77	1763.30
412.98	1640.42
413.19	1689.57
413.39	1755.11
413.60	1771.49
413.81	1763.30
414.01	1628.14
414.22	1771.49
414.43	1703.91
414.63	1716.20
414.84	1679.33
415.05	1669.09
415.25	1660.90
415.46	1738.73
415.67	1662.95
415.87	1755.11
416.08	1716.20
416.29	1669.09
416.49	1794.02
416.70	1703.91
416.91	1667.05
417.11	1644.52
417.32	1722.34
417.53	1755.11
417.73	1783.78
417.94	1656.81
418.15	1650.66
418.35	1726.44
418.56	1705.96
418.77	1828.84
418.97	1734.63
419.18	1673.19
419.38	1597.42
419.59	1630.18
419.80	1765.35
420.00	1650.66
420.21	1642.47
420.42	1777.64
420.62	1712.10
420.83	1710.05
421.04	1644.52
421.24	1724.39
421.45	1738.73
421.65	1701.86
421.86	1658.85
422.07	1716.20
422.27	1714.15
422.48	1695.72
422.69	1615.85
422.89	1654.76
423.10	1638.38
423.30	1605.61
423.51	1660.90
423.72	1718.25
423.92	1697.77
424.13	1685.48
424.33	1624.04
424.54	1730.53
424.75	1662.95
424.95	1847.27
425.16	1740.77
425.36	1755.11
425.57	1705.96
425.78	1681.38
425.98	1738.73
426.19	1689.57
426.39	1691.62
426.60	1701.86
426.81	1724.39
427.01	1650.66
427.22	1669.09
427.42	1648.61
427.63	1597.42
427.83	1767.40
428.04	1757.16
428.25	1781.73
428.45	1697.77
428.66	1755.11
428.86	1665.00
429.07	1675.24
429.28	1689.57
429.48	1679.33
429.69	1597.42
429.89	1718.25
430.10	1619.94
430.30	1734.63
430.51	1755.11
430.71	1615.85
430.92	1712.10
431.13	1677.29
431.33	1748.97
431.54	1703.91
431.74	1777.64
431.95	1826.79
432.15	1648.61
432.36	1681.38
432.56	1695.72
432.77	1820.64
432.98	1765.35
433.18	1712.10
433.39	1732.58
433.59	1667.05
433.80	1873.89
434.00	1787.88
434.21	1693.67
434.41	1705.96
434.62	1808.36
434.82	1628.14
435.03	1658.85
435.23	1736.68
435.44	1593.32
435.64	1740.77
435.85	1628.14
436.06	1763.30
436.26	1697.77
436.47	1728.49
436.67	1656.81
436.88	1658.85
437.08	1740.77
437.29	1781.73
437.49	1681.38
437.70	1751.01
437.90	1685.48
438.11	1751.01
438.31	1740.77
438.52	1810.40
438.72	1865.70
438.93	1832.93
439.13	1796.07
439.34	1785.83
439.54	1755.11
439.75	1794.02
439.95	1816.55
440.16	1720.29
440.36	1800.16
440.57	1814.50
440.77	1705.96
440.98	1693.67
441.18	1759.21
441.39	1613.80
441.59	1636.33
441.80	1816.55
442.00	1732.58
442.21	1826.79
442.41	1697.77
442.62	1781.73
442.82	1722.34
443.02	1712.10
443.23	1685.48
443.43	1662.95
443.64	1800.16
443.84	1632.23
444.05	1771.49
444.25	1687.53
444.46	1697.77
444.66	1759.21
444.87	1800.16
445.07	1601.51
445.28	1775.59
445.48	1810.40
445.69	1787.88
445.89	1914.85
446.09	1775.59
446.30	2086.88
446.50	2723.80
446.71	3823.56
446.91	4386.75
447.12	4868.02
447.32	4888.50
447.53	4337.60
447.73	3803.08
447.93	3559.37
448.14	3262.41
448.34	3205.07
448.55	2869.20
448.75	2840.53
448.96	2791.38
449.16	2435.03
449.36	2248.67
449.57	2054.11
449.77	1890.28
449.98	1779.68
450.18	1845.22
450.39	1837.03
450.59	1701.86
450.79	1730.53
451.00	1699.81
451.20	1742.82
451.41	1738.73
451.61	1746.92
451.81	1724.39
452.02	1693.67
452.22	1714.15
452.43	1564.65
452.63	1730.53
452.84	1681.38
453.04	1607.66
453.24	1689.57
453.45	1744.87
453.65	1728.49
453.86	1773.54
454.06	1708.01
454.26	1730.53
454.47	1662.95
454.67	1773.54
454.87	1712.10
455.08	1738.73
455.28	1865.70
455.49	1701.86
455.69	1765.35
455.89	1763.30
456.10	1783.78
456.30	1720.29
456.51	1818.60
456.71	1689.57
456.91	1695.72
457.12	1771.49
457.32	1779.68
457.52	1589.22
457.73	1748.97
457.93	1753.06
458.14	1697.77
458.34	1568.74
458.54	1679.33
458.75	1746.92
458.95	1724.39
459.15	1783.78
459.36	1748.97
459.56	1710.05
459.76	1810.40
459.97	1744.87
460.17	1730.53
460.37	1882.08
460.58	1675.24
460.78	1679.33
460.99	1708.01
461.19	1769.44
461.39	1613.80
461.60	1669.09
461.80	1691.62
462.00	1658.85
462.21	1716.20
462.41	1660.90
462.61	1656.81
462.82	1619.94
463.02	1785.83
463.22	1665.00
463.43	1824.74
463.63	1775.59
463.83	1757.16
464.04	1730.53
464.24	1689.57
464.44	1730.53
464.64	1679.33
464.85	1714.15
465.05	1814.50
465.25	1744.87
465.46	1703.91
465.66	1759.21
465.86	1695.72
466.07	1699.81
466.27	1734.63
466.47	1669.09
466.68	1642.47
466.88	1767.40
467.08	1677.29
467.29	1744.87
467.49	1689.57
467.69	1689.57
467.89	1648.61
468.10	1675.24
468.30	1697.77
468.50	1785.83
468.71	1714.15
468.91	1658.85
469.11	1843.17
469.31	1705.96
469.52	1665.00
469.72	1810.40
469.92	1869.80
470.13	1824.74
470.33	1787.88
470.53	1853.41
470.73	2158.56
470.94	2228.19
471.14	2353.12
471.34	2533.34
471.54	2396.12
471.75	2240.48
471.95	2076.64
472.15	2050.02
472.36	2172.89
472.56	2047.97
472.76	2031.58
472.96	1902.56
473.17	1859.56
473.37	1943.52
473.57	1773.54
473.77	1834.98
473.98	1804.26
474.18	1636.33
474.38	1904.61
474.58	1650.66
474.79	1681.38
474.99	1701.86
475.19	1789.92
475.39	1708.01
475.60	1685.48
475.80	1728.49
476.00	1595.37
476.20	1669.09
476.41	1718.25
476.61	1765.35
476.81	1787.88
477.01	1644.52
477.21	1791.97
477.42	1759.21
477.62	1609.70
477.82	1828.84
478.02	1718.25
478.23	1685.48
478.43	1669.09
478.63	1675.24
478.83	1712.10
479.03	1697.77
479.24	1767.40
479.44	1888.23
479.64	1685.48
479.84	1531.88
480.04	1703.91
480.25	1759.21
480.45	1650.66
480.65	1755.11
480.85	1796.07
481.06	1687.53
481.26	1714.15
481.46	1763.30
481.66	1744.87
481.86	1681.38
482.06	1755.11
482.27	1732.58
482.47	1626.09
482.67	1656.81
482.87	1705.96
483.07	1740.77
483.28	1665.00
483.48	1626.09
483.68	1714.15
483.88	1552.36
484.08	1683.43
484.29	1591.27
484.49	1779.68
484.69	1710.05
484.89	1832.93
485.09	1755.11
485.29	1718.25
485.50	1769.44
485.70	1689.57
485.90	1742.82
486.10	1783.78
486.30	1730.53
486.50	1830.88
486.71	1822.69
486.91	1724.39
487.11	1773.54
487.31	1646.57
487.51	1710.05
487.71	1671.14
487.91	1638.38
488.12	1589.22
488.32	1578.98
488.52	1658.85
488.72	1542.12
488.92	1693.67
489.12	1724.39
489.32	1845.22
489.53	1734.63
489.73	1624.04
489.93	1746.92
490.13	1685.48
490.33	1581.03
490.53	1701.86
490.73	1763.30
490.94	1648.61
491.14	1757.16
491.34	1791.97
491.54	2066.40
491.74	2551.77
491.94	2846.68
492.14	3127.25
492.34	3024.85
492.54	2836.44
492.75	2498.52
492.95	2449.37
493.15	2303.96
493.35	2230.24
493.55	2199.52
493.75	2172.89
493.95	2041.82
494.15	1984.48
494.35	1888.23
494.56	1767.40
494.76	1705.96
494.96	1812.45
495.16	1658.85
495.36	1665.00
495.56	1740.77
495.76	1726.44
495.96	1677.29
496.16	1687.53
496.36	1806.31
496.56	1775.59
496.77	1703.91
496.97	1662.95
497.17	1816.55
497.37	1720.29
497.57	1763.30
497.77	1677.29
497.97	1646.57
498.17	1697.77
498.37	1669.09
498.57	1728.49
498.77	1695.72
498.97	1720.29
499.17	1884.13
499.38	1644.52
499.58	1830.88
499.78	1779.68
499.98	1886.18
500.18	1757.16
500.38	1738.73
500.58	1880.04
500.78	2639.83
500.98	4523.96
501.18	5820.33
501.38	6883.22
501.58	7155.60
501.78	6537.12
501.98	5556.14
502.18	5064.63
502.38	4519.87
502.58	4134.85
502.78	3790.79
502.98	3796.93
503.18	3426.25
503.38	3243.98
503.59	2830.29
503.79	2568.15
503.99	2508.76
504.19	2314.20
504.39	2197.47
504.59	2242.53
504.79	2203.61
504.99	1972.19
505.19	1865.70
505.39	1828.84
505.59	1912.80
505.79	1871.84
505.99	1875.94
506.19	1841.12
506.39	1886.18
506.59	1794.02
506.79	1738.73
506.99	1798.12
507.19	1714.15
507.39	1777.64
507.59	1730.53
507.79	1683.43
507.99	1697.77
508.19	1789.92
508.39	1746.92
508.59	1726.44
508.79	1837.03
508.99	1769.44
509.19	1667.05
509.39	1765.35
509.59	1656.81
509.79	1634.28
509.99	1710.05
510.19	1763.30
510.39	1798.12
510.59	1710.05
510.79	1714.15
510.99	1732.58
511.19	1708.01
511.39	1816.55
511.59	1708.01
511.79	1757.16
511.99	1763.30
512.19	1767.40
512.38	1732.58
512.58	1781.73
512.78	1779.68
512.98	1775.59
513.18	1843.17
513.38	1595.37
513.58	1812.45
513.78	1730.53
513.98	1669.09
514.18	1648.61
514.38	1722.34
514.58	1787.88
514.78	1656.81
514.98	1687.53
515.18	1728.49
515.38	1658.85
515.58	1816.55
515.78	1642.47
515.98	1763.30
516.18	1740.77
516.38	1691.62
516.57	1607.66
516.77	1673.19
516.97	1685.48
517.17	1734.63
517.37	1597.42
517.57	1783.78
517.77	1722.34
517.97	1673.19
518.17	1724.39
518.37	1632.23
518.57	1703.91
518.77	1617.90
518.97	1730.53
519.16	1748.97
519.36	1763.30
519.56	1714.15
519.76	1734.63
519.96	1693.67
520.16	1738.73
520.36	1660.90
520.56	1806.31
520.76	1652.71
520.96	1683.43
521.16	1787.88
521.35	1742.82
521.55	1818.60
521.75	1697.77
521.95	1630.18
522.15	1671.14
522.35	1628.14
522.55	1693.67
522.75	1757.16
522.95	1699.81
523.14	1638.38
523.34	1650.66
523.54	1619.94
523.74	1818.60
523.94	1716.20
524.14	1722.34
524.34	1740.77
524.54	1822.69
524.73	1718.25
524.93	1802.21
525.13	1787.88
525.33	1644.52
525.53	1845.22
525.73	1724.39
525.93	1689.57
526.13	1718.25
526.32	1757.16
526.52	1814.50
526.72	1732.58
526.92	1665.00
527.12	1767.40
527.32	1638.38
527.52	1689.57
527.71	1685.48
527.91	1699.81
528.11	1697.77
528.31	1757.16
528.51	1648.61
528.71	1746.92
528.90	1734.63
529.10	1761.25
529.30	1771.49
529.50	1603.56
529.70	1695.72
529.90	1712.10
530.09	1675.24
530.29	1665.00
530.49	1673.19
530.69	1810.40
530.89	1705.96
531.09	1820.64
531.28	1695.72
531.48	1847.27
531.68	1662.95
531.88	1726.44
532.08	1730.53
532.28	1695.72
532.47	1755.11
532.67	1787.88
532.87	1783.78
533.07	1722.34
533.27	1759.21
533.46	1789.92
533.66	1771.49
533.86	1650.66
534.06	1724.39
534.26	1767.40
534.45	1703.91
534.65	1802.21
534.85	1761.25
535.05	1673.19
535.25	1722.34
535.44	1708.01
535.64	1759.21
535.84	1740.77
536.04	1654.76
536.24	1658.85
536.43	1660.90
536.63	1708.01
536.83	1703.91
537.03	1693.67
537.22	1656.81
537.42	1662.95
537.62	1755.11
537.82	1589.22
538.02	1791.97
538.21	1804.26
538.41	1937.38
538.61	1689.57
538.81	1624.04
539.00	1740.77
539.20	1730.53
539.40	1697.77
539.60	1675.24
539.79	1722.34
539.99	1656.81
540.19	1673.19
540.39	1685.48
540.58	1734.63
540.78	1681.38
540.98	1787.88
541.18	1810.40
541.37	1837.03
541.57	1767.40
541.77	1826.79
541.97	1648.61
542.16	1736.68
542.36	1669.09
542.56	1837.03
542.76	1898.47
542.95	1710.05
543.15	1779.68
543.35	1785.83
543.54	1673.19
543.74	1716.20
543.94	1761.25
544.14	1607.66
544.33	1771.49
544.53	1705.96
544.73	1714.15
544.93	1701.86
545.12	1644.52
545.32	1732.58
545.52	1763.30
545.71	1640.42
545.91	1710.05
546.11	1724.39
546.30	1705.96
546.50	1691.62
546.70	1722.34
546.90	1746.92
547.09	1652.71
547.29	1665.00
547.49	1748.97
547.68	1687.53
547.88	1628.14
548.08	1730.53
548.27	2197.47
548.47	1650.66
548.67	1742.82
548.87	1724.39
549.06	1683.43
549.26	1769.44
549.46	1744.87
549.65	1710.05
549.85	1755.11
550.05	1779.68
550.24	1675.24
550.44	1667.05
550.64	1683.43
550.83	1714.15
551.03	1775.59
551.23	1861.60
551.42	1796.07
551.62	1689.57
551.82	1718.25
552.01	1738.73
552.21	1736.68
552.41	1837.03
552.60	1873.89
552.80	1640.42
553.00	1662.95
553.19	1757.16
553.39	1810.40
553.59	1773.54
553.78	1740.77
553.98	1662.95
554.17	1609.70
554.37	1779.68
554.57	1849.32
554.76	1636.33
554.96	1660.90
555.16	1716.20
555.35	1761.25
555.55	1798.12
555.75	1716.20
555.94	1763.30
556.14	1585.13
556.33	1800.16
556.53	1734.63
556.73	1685.48
556.92	1814.50
557.12	1824.74
557.32	1826.79
557.51	1845.22
557.71	1761.25
557.90	1789.92
558.10	1818.60
558.30	1693.67
558.49	1656.81
558.69	1687.53
558.88	1658.85
559.08	1697.77
559.28	1710.05
559.47	1751.01
559.67	1712.10
559.86	1843.17
560.06	1681.38
560.26	1748.97
560.45	1746.92
560.65	1716.20
560.84	1847.27
561.04	1714.15
561.24	1757.16
561.43	1691.62
561.63	1734.63
561.82	1751.01
562.02	1832.93
562.22	1640.42
562.41	1691.62
562.61	1634.28
562.80	1675.24
563.00	1841.12
563.19	1710.05
563.39	1748.97
563.59	1775.59
563.78	1632.23
563.98	1665.00
564.17	1603.56
564.37	1552.36
564.56	1740.77
564.76	1613.80
564.96	1751.01
565.15	1734.63
565.35	1783.78
565.54	1695.72
565.74	1775.59
565.93	1716.20
566.13	1742.82
566.32	1726.44
566.52	1785.83
566.71	1753.06
566.91	1808.36
567.11	1720.29
567.30	1689.57
567.50	1697.77
567.69	1781.73
567.89	1660.90
568.08	1710.05
568.28	1773.54
568.47	1683.43
568.67	1742.82
568.86	1695.72
569.06	1746.92
569.25	1712.10
569.45	1683.43
569.64	1673.19
569.84	1675.24
570.04	1695.72
570.23	1701.86
570.43	1677.29
570.62	1761.25
570.82	1859.56
571.01	1609.70
571.21	1732.58
571.40	1667.05
571.60	1779.68
571.79	1714.15
571.99	1798.12
572.18	1648.61
572.38	1755.11
572.57	1705.96
572.77	1748.97
572.96	1837.03
573.16	1691.62
573.35	1695.72
573.55	1822.69
573.74	1703.91
573.94	1701.86
574.13	1714.15
574.33	1779.68
574.52	1849.32
574.71	1765.35
574.91	1763.30
575.10	1644.52
575.30	1753.06
575.49	1720.29
575.69	1777.64
575.88	1699.81
576.08	1753.06
576.27	1761.25
576.47	1726.44
576.66	1849.32
576.86	1777.64
577.05	1742.82
577.25	1726.44
577.44	1820.64
577.64	1728.49
577.83	1824.74
578.02	1738.73
578.22	1794.02
578.41	1791.97
578.61	1693.67
578.80	1617.90
579.00	1712.10
579.19	1691.62
579.39	1748.97
579.58	1843.17
579.77	1751.01
579.97	1804.26
580.16	1775.59
580.36	1781.73
580.55	1877.99
580.75	1755.11
580.94	1738.73
581.13	1816.55
581.33	1808.36
581.52	1740.77
581.72	1920.99
581.91	1837.03
582.11	1732.58
582.30	1779.68
582.49	1777.64
582.69	1880.04
582.88	1771.49
583.08	1787.88
583.27	1744.87
583.47	1720.29
583.66	1691.62
583.85	1781.73
584.05	1744.87
584.24	1769.44
584.44	1769.44
584.63	1718.25
584.82	1830.88
585.02	1816.55
585.21	1845.22
585.41	1884.13
585.60	1798.12
585.79	1871.84
585.99	1877.99
586.18	1814.50
586.37	2228.19
586.57	3389.39
586.76	10090.34
586.96	24944.26
587.15	34891.24
587.34	41219.47
587.54	42833.27
587.73	37246.41
587.93	26838.63
588.12	22097.58
588.31	18620.13
588.51	16641.79
588.70	15320.85
588.89	14251.81
589.09	12914.49
589.28	11284.31
589.47	9721.71
589.67	8165.25
589.86	6539.16
590.06	4990.90
590.25	4093.89
590.44	3108.82
590.64	2578.39
590.83	2191.33
591.02	2113.50
591.22	1884.13
591.41	1939.43
591.60	1847.27
591.80	1953.76
591.99	1726.44
592.18	1771.49
592.38	1783.78
592.57	1810.40
592.76	1800.16
592.96	1837.03
593.15	1730.53
593.34	1828.84
593.54	1773.54
593.73	1822.69
593.92	1730.53
594.12	1699.81
594.31	1630.18
594.50	1804.26
594.70	1755.11
594.89	1798.12
595.08	1644.52
595.28	1787.88
595.47	1918.95
595.66	1820.64
595.86	1587.18
596.05	1718.25
596.24	1742.82
596.43	1798.12
596.63	1828.84
596.82	1693.67
597.01	1699.81
597.21	1800.16
597.40	1667.05
597.59	1691.62
597.79	1787.88
597.98	1744.87
598.17	1769.44
598.36	1691.62
598.56	1779.68
598.75	1656.81
598.94	1746.92
599.14	1765.35
599.33	1740.77
599.52	1787.88
599.71	1640.42
599.91	1744.87
600.10	1757.16
600.29	1716.20
600.48	1787.88
600.68	1765.35
600.87	1808.36
601.06	1712.10
601.26	1708.01
601.45	1779.68
601.64	1763.30
601.83	1798.12
602.03	1699.81
602.22	1691.62
602.41	1767.40
602.60	1910.75
602.80	1703.91
602.99	1796.07
603.18	1740.77
603.37	1767.40
603.57	1732.58
603.76	1808.36
603.95	1718.25
604.14	1765.35
604.34	1714.15
604.53	1665.00
604.72	1726.44
604.91	1781.73
605.10	1669.09
605.30	1679.33
605.49	1824.74
605.68	1691.62
605.87	1734.63
606.07	1710.05
606.26	1712.10
606.45	1769.44
606.64	1705.96
606.84	1648.61
607.03	1701.86
607.22	1787.88
607.41	1654.76
607.60	1712.10
607.80	1775.59
607.99	1673.19
608.18	1683.43
608.37	1773.54
608.56	1665.00
608.76	1804.26
608.95	1779.68
609.14	1708.01
609.33	1763.30
609.52	1773.54
609.72	1810.40
609.91	1828.84
610.10	1759.21
610.29	1794.02
610.48	1779.68
610.68	1740.77
610.87	1800.16
611.06	1746.92
611.25	1748.97
611.44	1718.25
611.63	1687.53
611.83	1777.64
612.02	1689.57
612.21	1765.35
612.40	1640.42
612.59	1712.10
612.79	1695.72
612.98	1738.73
613.17	1761.25
613.36	1695.72
613.55	1898.47
613.74	1675.24
613.93	1703.91
614.13	1765.35
614.32	1708.01
614.51	1673.19
614.70	1726.44
614.89	1665.00
615.08	1746.92
615.28	2000.87
615.47	1689.57
615.66	1697.77
615.85	1693.67
616.04	1761.25
616.23	1693.67
616.42	1644.52
616.62	1708.01
616.81	1763.30
617.00	1689.57
617.19	1789.92
617.38	1730.53
617.57	1701.86
617.76	1648.61
617.95	1730.53
618.15	1681.38
618.34	1800.16
618.53	1632.23
618.72	1783.78
618.91	1855.46
619.10	1816.55
619.29	1687.53
619.48	1679.33
619.68	1599.46
619.87	1665.00
620.06	1710.05
620.25	1755.11
620.44	1683.43
620.63	1701.86
620.82	1691.62
621.01	1652.71
621.20	1734.63
621.39	1738.73
621.59	1771.49
621.78	1652.71
621.97	1667.05
622.16	1785.83
622.35	1730.53
622.54	1689.57
622.73	1802.21
622.92	1673.19
623.11	1849.32
623.30	1619.94
623.49	1763.30
623.68	1640.42
623.88	1759.21
624.07	1679.33
624.26	1703.91
624.45	1740.77
624.64	1722.34
624.83	1734.63
625.02	1687.53
625.21	1767.40
625.40	1763.30
625.59	1820.64
625.78	1695.72
625.97	1775.59
626.16	1775.59
626.35	1757.16
626.54	1624.04
626.74	1773.54
626.93	1687.53
627.12	1734.63
627.31	1783.78
627.50	1724.39
627.69	1685.48
627.88	1685.48
628.07	1740.77
628.26	1621.99
628.45	1673.19
628.64	1636.33
628.83	1720.29
629.02	1632.23
629.21	1753.06
629.40	1712.10
629.59	1671.14
629.78	1669.09
629.97	1710.05
630.16	1699.81
630.35	1648.61
630.54	1689.57
630.73	1636.33
630.92	1710.05
631.11	1685.48
631.30	1615.85
631.49	1777.64
631.68	1701.86
631.87	1720.29
632.06	1658.85
632.25	1787.88
632.44	1673.19
632.63	1705.96
632.82	1626.09
633.01	1554.41
633.20	1722.34
633.39	1673.19
633.58	1607.66
633.77	1677.29
633.96	1736.68
634.15	1773.54
634.34	1773.54
634.53	1697.77
634.72	1636.33
634.91	1615.85
635.10	1667.05
635.29	1775.59
635.48	1757.16
635.67	1617.90
635.86	1607.66
636.05	1806.31
636.24	1751.01
636.43	1730.53
636.62	1697.77
636.81	1660.90
637.00	1619.94
637.19	1751.01
637.38	1675.24
637.57	1736.68
637.76	1681.38
637.95	1720.29
638.14	1652.71
638.33	1730.53
638.52	1718.25
638.71	1685.48
638.89	1660.90
639.08	1820.64
639.27	1748.97
639.46	1681.38
639.65	1765.35
639.84	1748.97
640.03	1796.07
640.22	1650.66
640.41	1806.31
640.60	1683.43
640.79	1667.05
640.98	1669.09
641.17	1779.68
641.36	1742.82
641.55	1714.15
641.74	1701.86
641.92	1615.85
642.11	1677.29
642.30	1779.68
642.49	1669.09
642.68	1648.61
642.87	1732.58
643.06	1748.97
643.25	1646.57
643.44	1634.28
643.63	1685.48
643.82	1736.68
644.00	1710.05
644.19	1648.61
644.38	1621.99
644.57	1726.44
644.76	1751.01
644.95	1693.67
645.14	1720.29
645.33	1693.67
645.52	1646.57
645.71	1593.32
645.89	1675.24
646.08	1757.16
646.27	1677.29
646.46	1824.74
646.65	1689.57
646.84	1689.57
647.03	1693.67
647.22	1703.91
647.40	1673.19
647.59	1605.61
647.78	1689.57
647.97	1673.19
648.16	1681.38
648.35	1779.68
648.54	1695.72
648.73	1683.43
648.91	1755.11
649.10	1687.53
649.29	1693.67
649.48	1720.29
649.67	1757.16
649.86	1703.91
650.05	1611.75
650.23	1789.92
650.42	1554.41
650.61	1748.97
650.80	1705.96
650.99	1841.12
651.18	1691.62
651.36	1736.68
651.55	1593.32
651.74	1732.58
651.93	1728.49
652.12	1621.99
652.31	1705.96
652.49	1775.59
652.68	1564.65
652.87	1796.07
653.06	1679.33
653.25	1759.21
653.44	1669.09
653.62	1787.88
653.81	1689.57
654.00	1638.38
654.19	1714.15
654.38	1802.21
654.56	1722.34
654.75	1724.39
654.94	1757.16
655.13	1718.25
655.32	1742.82
655.51	1755.11
655.69	1660.90
655.88	1742.82
656.07	1560.55
656.26	1636.33
656.45	1619.94
656.63	1697.77
656.82	1761.25
657.01	1689.57
657.20	1644.52
657.38	1716.20
657.57	1691.62
657.76	1656.81
657.95	1701.86
658.14	1630.18
658.32	1753.06
658.51	1703.91
658.70	1701.86
658.89	1701.86
659.08	1665.00
659.26	1800.16
659.45	1689.57
659.64	1726.44
659.83	1636.33
660.01	1947.62
660.20	1716.20
660.39	1783.78
660.58	1599.46
660.76	1751.01
660.95	1562.60
661.14	1703.91
661.33	1726.44
661.51	1669.09
661.70	1656.81
661.89	1734.63
662.08	1683.43
662.26	1652.71
662.45	1697.77
662.64	1822.69
662.83	1718.25
663.01	1662.95
663.20	1677.29
663.39	1771.49
663.58	1644.52
663.76	1708.01
663.95	1771.49
664.14	1681.38
664.32	1701.86
664.51	1716.20
664.70	1611.75
664.89	1693.67
665.07	1662.95
665.26	1734.63
665.45	1632.23
665.64	1761.25
665.82	1703.91
666.01	1757.16
666.20	1675.24
666.38	1796.07
666.57	1845.22
666.76	2166.75
666.95	4489.15
667.13	10426.21
667.32	15421.20
667.51	18335.46
667.69	19551.96
667.88	17944.30
668.07	12584.77
668.25	9643.88
668.44	8126.34
668.63	7505.81
668.81	6952.85
669.00	6342.56
669.19	5865.38
669.38	5203.89
669.56	4712.38
669.75	4028.35
669.94	3524.55
670.12	2990.03
670.31	2572.25
670.50	2303.96
670.68	2072.54
670.87	1882.08
671.06	1839.08
671.24	1791.97
671.43	1824.74
671.62	1736.68
671.80	1640.42
671.99	1708.01
672.18	1740.77
672.36	1679.33
672.55	1722.34
672.74	1673.19
672.92	1724.39
673.11	1673.19
673.29	1681.38
673.48	1705.96
673.67	1712.10
673.85	1738.73
674.04	1667.05
674.23	1710.05
674.41	1785.83
674.60	1677.29
674.79	1570.79
674.97	1615.85
675.16	1722.34
675.34	1718.25
675.53	1669.09
675.72	1732.58
675.90	1751.01
676.09	1720.29
676.28	1675.24
676.46	1568.74
676.65	1794.02
676.83	1718.25
677.02	1662.95
677.21	1710.05
677.39	1679.33
677.58	1660.90
677.77	1687.53
677.95	1652.71
678.14	1648.61
678.32	1703.91
678.51	1648.61
678.70	1757.16
678.88	1656.81
679.07	1751.01
679.25	1642.47
679.44	1665.00
679.63	1535.98
679.81	1738.73
680.00	1728.49
680.18	1685.48
680.37	1796.07
680.55	1763.30
680.74	1648.61
680.93	1591.27
681.11	1671.14
681.30	1759.21
681.48	1714.15
681.67	1746.92
681.85	1716.20
682.04	1601.51
682.23	1734.63
682.41	1679.33
682.60	1642.47
682.78	1675.24
682.97	1667.05
683.15	1675.24
683.34	1689.57
683.53	1812.45
683.71	1542.12
683.90	1837.03
684.08	1845.22
684.27	1675.24
684.45	1767.40
684.64	1800.16
684.82	1724.39
685.01	1740.77
685.19	1710.05
685.38	1861.60
685.57	1689.57
685.75	1685.48
685.94	1720.29
686.12	1658.85
686.31	1654.76
686.49	1806.31
686.68	1599.46
686.86	1738.73
687.05	1697.77
687.23	1771.49
687.42	1679.33
687.60	1675.24
687.79	1757.16
687.97	1734.63
688.16	1755.11
688.34	1834.98
688.53	1619.94
688.71	1775.59
688.90	1800.16
689.08	1632.23
689.27	1644.52
689.45	1763.30
689.64	1791.97
689.82	1675.24
690.01	1726.44
690.19	1710.05
690.38	1687.53
690.56	1722.34
690.75	1611.75
690.93	1636.33
691.12	1589.22
691.30	1667.05
691.49	1570.79
691.67	1675.24
691.86	1794.02
692.04	1615.85
692.23	1683.43
692.41	1669.09
692.60	1789.92
692.78	1730.53
692.97	1652.71
693.15	1718.25
693.34	1886.18
693.52	1675.24
693.71	1595.37
693.89	1726.44
694.08	1658.85
694.26	1742.82
694.44	1802.21
694.63	1777.64
694.81	1656.81
695.00	1626.09
695.18	1800.16
695.37	1814.50
695.55	1744.87
695.74	1669.09
695.92	1667.05
696.10	1726.44
696.29	1689.57
696.47	1712.10
696.66	1595.37
696.84	1685.48
697.03	1716.20
697.21	1757.16
697.40	2320.35
697.58	1767.40
697.76	1742.82
697.95	1685.48
698.13	1517.54
698.32	1640.42
698.50	1642.47
698.68	1740.77
698.87	1722.34
699.05	1732.58
699.24	1722.34
699.42	1671.14
699.61	1734.63
699.79	1765.35
699.97	1701.86
700.16	1621.99
700.34	1656.81
700.53	1667.05
700.71	1732.58
700.89	1677.29
701.08	1712.10
701.26	1705.96
701.45	2076.64
701.63	1609.70
701.81	1691.62
702.00	1685.48
702.18	1693.67
702.37	1703.91
702.55	1763.30
702.73	1718.25
702.92	1665.00
703.10	1714.15
703.28	1748.97
703.47	1630.18
703.65	1810.40
703.84	1673.19
704.02	1703.91
704.20	1808.36
704.39	1626.09
704.57	1763.30
704.75	1773.54
704.94	1724.39
705.12	1755.11
705.30	1798.12
705.49	2273.25
705.67	4556.73
705.86	9684.84
706.04	12750.65
706.22	14407.46
706.41	15808.27
706.59	14079.79
706.77	9793.39
706.96	7518.09
707.14	6643.61
707.32	6182.82
707.51	5681.07
707.69	5093.30
707.87	4288.45
708.06	3682.25
708.24	2899.92
708.42	2473.95
708.61	2297.82
708.79	1802.21
708.97	1888.23
709.16	1810.40
709.34	1802.21
709.52	1718.25
709.71	1683.43
709.89	1769.44
710.07	1611.75
710.26	1615.85
710.44	1744.87
710.62	1732.58
710.80	1718.25
710.99	1802.21
711.17	1734.63
711.35	1718.25
711.54	1695.72
711.72	1779.68
711.90	1755.11
712.09	1714.15
712.27	1646.57
712.45	1705.96
712.63	1710.05
712.82	1644.52
713.00	1638.38
713.18	1718.25
713.37	1689.57
713.55	1693.67
713.73	1654.76
713.91	1708.01
714.10	1599.46
714.28	1671.14
714.46	1810.40
714.65	1740.77
714.83	1673.19
715.01	1650.66
715.19	1677.29
715.38	1714.15
715.56	1769.44
715.74	1654.76
715.92	1701.86
716.11	1728.49
716.29	1617.90
716.47	1671.14
716.65	1677.29
716.84	1603.56
717.02	1699.81
717.20	1636.33
717.38	1695.72
717.57	1771.49
717.75	1722.34
717.93	1687.53
718.11	1742.82
718.30	1660.90
718.48	1738.73
718.66	1779.68
718.84	1722.34
719.03	1665.00
719.21	1624.04
719.39	1777.64
719.57	1714.15
719.75	1730.53
719.94	1724.39
720.12	1636.33
720.30	1689.57
720.48	1759.21
720.67	1712.10
720.85	1617.90
721.03	1667.05
721.21	1673.19
721.39	1861.60
721.58	1701.86
721.76	1689.57
721.94	1656.81
722.12	1716.20
722.30	1767.40
722.49	1648.61
722.67	1695.72
722.85	1751.01
723.03	1593.32
723.21	1632.23
723.40	1714.15
723.58	1751.01
723.76	1693.67
723.94	1804.26
724.12	1726.44
724.30	1746.92
724.49	1730.53
724.67	1581.03
724.85	1794.02
725.03	1572.84
725.21	1730.53
725.40	1765.35
725.58	1636.33
725.76	1763.30
725.94	1699.81
726.12	1621.99
726.30	1615.85
726.49	1714.15
726.67	1714.15
726.85	1746.92
727.03	1763.30
727.21	2189.28
727.39	2975.70
727.57	3864.52
727.76	4227.01
727.94	4478.91
728.12	4409.28
728.30	3813.32
728.48	2998.23
728.66	2738.13
728.84	2482.14
729.03	2351.07
729.21	2197.47
729.39	2009.06
729.57	1839.08
729.75	1814.50
729.93	1718.25
730.11	1726.44
730.30	1701.86
730.48	1669.09
730.66	1783.78
730.84	1730.53
731.02	1681.38
731.20	1710.05
731.38	1779.68
731.56	1603.56
731.74	1578.98
731.93	1687.53
732.11	1728.49
732.29	1734.63
732.47	1744.87
732.65	1804.26
732.83	1765.35
733.01	1665.00
733.19	1746.92
733.37	1691.62
733.56	1683.43
733.74	1624.04
733.92	1808.36
734.10	1648.61
734.28	1703.91
734.46	1660.90
734.64	1640.42
734.82	1722.34
735.00	1703.91
735.18	1626.09
735.36	1689.57
735.54	1701.86
735.73	1673.19
735.91	1757.16
736.09	1755.11
736.27	1759.21
736.45	1677.29
736.63	1566.70
736.81	1673.19
736.99	1843.17
737.17	1693.67
737.35	1685.48
737.53	1708.01
737.71	1693.67
737.89	1767.40
738.07	1632.23
738.25	1599.46
738.43	1605.61
738.61	1710.05
738.80	1626.09
738.98	1701.86
739.16	1654.76
739.34	1648.61
739.52	1789.92
739.70	1654.76
739.88	1695.72
740.06	1716.20
740.24	1574.89
740.42	1710.05
740.60	1562.60
740.78	1587.18
740.96	1662.95
741.14	1687.53
741.32	1660.90
741.50	1624.04
741.68	1818.60
741.86	1767.40
742.04	1675.24
742.22	1634.28
742.40	1693.67
742.58	1681.38
742.76	1621.99
742.94	1742.82
743.12	1576.94
743.30	1693.67
743.48	1730.53
743.66	1613.80
743.84	1656.81
744.02	1572.84
744.20	1671.14
744.38	1621.99
744.56	1650.66
744.74	1734.63
744.92	1761.25
745.10	1708.01
745.28	1740.77
745.46	1779.68
745.64	1701.86
745.82	1746.92
746.00	1716.20
746.18	1771.49
746.36	1601.51
746.54	1681.38
746.72	1621.99
746.90	1650.66
747.08	1730.53
747.26	1658.85
747.44	1787.88
747.62	1773.54
747.80	1687.53
747.98	1753.06
748.15	1624.04
748.33	1796.07
748.51	1718.25
748.69	1736.68
748.87	1642.47
749.05	1695.72
749.23	1689.57
749.41	1716.20
749.59	1648.61
749.77	1771.49
749.95	1660.90
750.13	1628.14
750.31	1683.43
750.49	1621.99
750.67	1744.87
750.85	1728.49
751.03	1712.10
751.20	1855.46
751.38	1728.49
751.56	1701.86
751.74	1740.77
751.92	1638.38
752.10	1611.75
752.28	1738.73
752.46	1648.61
752.64	1677.29
752.82	1673.19
753.00	1724.39
753.18	1699.81
753.35	1693.67
753.53	1673.19
753.71	1648.61
753.89	1636.33
754.07	1687.53
754.25	1763.30
754.43	1732.58
754.61	1593.32
754.79	1665.00
754.97	1689.57
755.14	1785.83
755.32	1652.71
755.50	1738.73
755.68	1722.34
755.86	1621.99
756.04	1568.74
756.22	1589.22
756.40	1730.53
756.57	1738.73
756.75	1617.90
756.93	1734.63
757.11	1777.64
757.29	1619.94
757.47	1687.53
757.65	1654.76
757.82	1585.13
758.00	1714.15
758.18	1640.42
758.36	1714.15
758.54	1779.68
758.72	1638.38
758.90	1730.53
759.07	1718.25
759.25	1650.66
759.43	1759.21
759.61	1630.18
759.79	2160.61
759.97	1742.82
760.15	1624.04
760.32	1626.09
760.50	1675.24
760.68	1779.68
760.86	1640.42
761.04	1699.81
761.22	1728.49
761.39	1685.48
761.57	1748.97
761.75	1705.96
761.93	1800.16
762.11	1746.92
762.28	1646.57
762.46	1640.42
762.64	1763.30
762.82	1662.95
763.00	1640.42
763.18	1761.25
763.35	1669.09
763.53	1808.36
763.71	1673.19
763.89	1673.19
764.07	1769.44
764.24	1722.34
764.42	1720.29
764.60	1644.52
764.78	1726.44
764.96	1714.15
765.13	1734.63
765.31	1718.25
765.49	1693.67
765.67	1583.08
765.84	1687.53
766.02	1656.81
766.20	1695.72
766.38	1720.29
766.56	1724.39
766.73	1773.54
766.91	1742.82
767.09	1746.92
767.27	1736.68
767.44	1574.89
767.62	1763.30
767.80	1683.43
767.98	1607.66
768.15	1654.76
768.33	1716.20
768.51	1798.12
768.69	1701.86
768.87	1697.77
769.04	1718.25
769.22	1828.84
769.40	1755.11
769.58	1880.04
769.75	1689.57
769.93	1755.11
770.11	1646.57
770.28	1638.38
770.46	1665.00
770.64	1781.73
770.82	1708.01
770.99	1634.28
771.17	1736.68
771.35	1765.35
771.53	1695.72
771.70	1611.75
771.88	1781.73
772.06	1675.24
772.23	1656.81
772.41	1736.68
772.59	1718.25
772.77	1619.94
772.94	1718.25
773.12	1691.62
773.30	1714.15
773.47	1722.34
773.65	1673.19
773.83	1781.73
774.01	1675.24
774.18	1599.46
774.36	1587.18
774.54	1607.66
774.71	1726.44
774.89	1662.95
775.07	1669.09
775.24	1716.20
775.42	1648.61
775.60	1814.50
775.78	1646.57
775.95	1632.23
776.13	1599.46
776.31	1621.99
776.48	1767.40
776.66	1785.83
776.84	1660.90
777.01	1632.23
777.19	1609.70
777.37	1605.61
777.54	1716.20
777.72	1796.07
777.90	1662.95
778.07	1560.55
778.25	1890.28
778.43	1708.01
778.60	1681.38
778.78	1708.01
778.96	1800.16
779.13	1552.36
779.31	1687.53
779.49	1619.94
779.66	1679.33
779.84	1771.49
780.01	1708.01
780.19	1656.81
780.37	1798.12
780.54	1765.35
780.72	1667.05
780.90	1665.00
781.07	1767.40
781.25	1624.04
781.43	1777.64
781.60	1665.00
781.78	1773.54
781.95	1701.86
782.13	1626.09
782.31	1632.23
782.48	1632.23
782.66	1679.33
782.83	1818.60
783.01	1742.82
783.19	1626.09
783.36	1646.57
783.54	1705.96
783.72	1724.39
783.89	1722.34
784.07	1712.10
784.24	1646.57
784.42	1730.53
784.60	1740.77
784.77	1685.48
784.95	1615.85
785.12	1619.94
785.30	1677.29
785.47	1650.66
785.65	1636.33
785.83	1648.61
786.00	1644.52
786.18	1705.96
786.35	1617.90
786.53	1570.79
786.71	1703.91
786.88	1751.01
787.06	1630.18
787.23	1691.62
787.41	1554.41
787.58	1656.81
787.76	1669.09
787.94	1673.19
788.11	1681.38
788.29	1585.13
788.46	1609.70
788.64	1613.80
788.81	1701.86
788.99	1636.33
789.16	1691.62
789.34	1699.81
789.52	1708.01
789.69	1644.52
789.87	1546.22
790.04	1693.67
790.22	1755.11
790.39	1748.97
790.57	1636.33
790.74	1689.57
790.92	1751.01
791.09	1671.14
791.27	1734.63
791.44	1726.44
791.62	1689.57
791.79	1708.01
791.97	1691.62
792.15	1912.80
792.32	1751.01
792.50	1738.73
792.67	1785.83
792.85	1779.68
793.02	1710.05
793.20	1658.85
793.37	1589.22
793.55	1689.57
793.72	1581.03
793.90	1710.05
794.07	1591.27
794.25	1611.75
794.42	1677.29
794.60	1708.01
794.77	1755.11
794.95	1675.24
795.12	1712.10
795.30	1714.15
795.47	1626.09
795.65	1865.70
795.82	1714.15
796.00	1609.70
796.17	1689.57
796.34	1601.51
796.52	1732.58
796.69	1724.39
796.87	1783.78
797.04	1712.10
797.22	1728.49
797.39	1658.85
797.57	1765.35
797.74	1708.01
797.92	1665.00
798.09	1636.33
798.27	1773.54
798.44	1683.43
798.62	1662.95
798.79	1705.96
798.96	1677.29
799.14	1665.00
799.31	1865.70
799.49	1699.81
799.66	1699.81
799.84	1714.15
800.01	1562.60
800.19	1615.85
800.36	1564.65
800.53	1693.67
800.71	1695.72
800.88	1775.59
801.06	1665.00
801.23	1648.61
801.41	1638.38
801.58	1681.38
801.75	1671.14
801.93	1652.71
802.10	1683.43
802.28	1648.61
802.45	1632.23
802.63	1673.19
802.80	1783.78
802.97	1726.44
803.15	1652.71
803.32	1632.23
803.50	1626.09
803.67	1689.57
803.84	1634.28
804.02	1773.54
804.19	1671.14
804.37	1523.69
804.54	1613.80
804.71	1710.05
804.89	1734.63
805.06	1697.77
805.24	1646.57
805.41	1689.57
805.58	1667.05
805.76	1845.22
805.93	1681.38
806.10	1820.64
806.28	1755.11
806.45	1615.85
806.63	1753.06
806.80	1665.00
806.97	1728.49
807.15	1714.15
807.32	1708.01
807.49	1601.51
807.67	1648.61
807.84	1609.70
808.01	1578.98
808.19	1787.88
808.36	1728.49
808.54	1669.09
808.71	1572.84
808.88	1648.61
809.06	1662.95
809.23	1722.34
809.40	1714.15
809.58	1751.01
809.75	1746.92
809.92	1572.84
810.10	1777.64
810.27	1669.09
810.44	1693.67
810.62	1677.29
810.79	1650.66
810.96	1658.85
811.14	1724.39
811.31	1699.81
811.48	1644.52
811.66	1691.62
811.83	1701.86
812.00	1695.72
812.18	1656.81
812.35	1755.11
812.52	1626.09
812.69	1669.09
812.87	1708.01
813.04	1701.86
813.21	1675.24
813.39	1679.33
813.56	1658.85
813.73	1665.00
813.91	1658.85
814.08	1626.09
814.25	1683.43
814.42	1593.32
814.60	1716.20
814.77	1656.81
814.94	1789.92
815.12	1658.85
815.29	1806.31
815.46	1617.90
815.63	1671.14
815.81	1681.38
815.98	1716.20
816.15	1714.15
816.33	1669.09
816.50	1644.52
816.67	1705.96
816.84	1689.57
817.02	1652.71
817.19	1656.81
817.36	1675.24
817.53	1693.67
817.71	1607.66
817.88	1779.68
818.05	1658.85
818.22	1648.61
818.40	1742.82
818.57	1615.85
818.74	1703.91
818.91	1677.29
819.09	1673.19
819.26	1687.53
819.43	1613.80
819.60	1650.66
819.78	1763.30
819.95	1779.68
820.12	1646.57
820.29	1816.55
820.47	1724.39
820.64	1656.81
820.81	1597.42
820.98	1646.57
821.15	1673.19
821.33	1701.86
821.50	1617.90
821.67	1726.44
821.84	1603.56
822.02	1705.96
822.19	1761.25
822.36	1716.20
822.53	1730.53
822.70	1681.38
822.88	1632.23
823.05	1796.07
823.22	1708.01
823.39	1785.83
823.56	1730.53
823.74	1802.21
823.91	1650.66
824.08	1599.46
824.25	1642.47
824.42	1693.67
824.60	1556.46
824.77	1636.33
824.94	1683.43
825.11	1757.16
825.28	1566.70
825.45	1636.33
825.63	1730.53
825.80	1593.32
825.97	1763.30
826.14	1683.43
826.31	1615.85
826.48	1765.35
826.66	1611.75
826.83	1615.85
827.00	1671.14
827.17	1619.94
827.34	1681.38
827.51	1677.29
827.69	1767.40
827.86	1667.05
828.03	1621.99
828.20	1638.38
828.37	1619.94
828.54	1726.44
828.71	1701.86
828.89	1755.11
829.06	1720.29
829.23	1859.56
829.40	1685.48
829.57	1671.14
829.74	1615.85
829.91	1665.00
830.09	1654.76
830.26	1763.30
830.43	1789.92
830.60	1732.58
830.77	1695.72
830.94	1708.01
831.11	1679.33
831.28	1681.38
831.46	1718.25
831.63	1693.67
831.80	1761.25
831.97	1640.42
832.14	1675.24
832.31	1722.34
832.48	1630.18
832.65	1667.05
832.82	1662.95
832.99	1718.25
833.17	1644.52
833.34	1740.77
833.51	1701.86
833.68	1552.36
833.85	1685.48
834.02	1691.62
834.19	1683.43
834.36	1658.85
834.53	1714.15
834.70	1771.49
834.87	1757.16
835.04	1658.85
835.22	1634.28
835.39	1667.05
835.56	1636.33
835.73	1742.82
835.90	1681.38
836.07	1665.00
836.24	1763.30
836.41	1660.90
836.58	1677.29
836.75	1689.57
836.92	1732.58
837.09	1722.34
837.26	1716.20
837.43	1689.57
837.60	1703.91
837.77	1650.66
837.94	1742.82
838.12	1730.53
838.29	1656.81
838.46	1718.25
838.63	1591.27
838.80	1798.12
838.97	1728.49
839.14	1718.25
839.31	1728.49
839.48	1730.53
839.65	1687.53
839.82	1726.44
839.99	1773.54
840.16	1689.57
840.33	1724.39
840.50	1662.95
840.67	1677.29
840.84	1595.37
841.01	1697.77
841.18	1648.61
841.35	1763.30
841.52	1724.39
841.69	1812.45
841.86	1695.72
842.03	1634.28
842.20	1730.53
842.37	1669.09
842.54	1601.51
842.71	1701.86
842.88	1619.94
843.05	1734.63
843.22	1705.96
843.39	1714.15
843.56	1630.18
843.73	1705.96
843.90	1679.33
844.07	1697.77
844.24	1703.91
844.41	1718.25
844.58	1697.77
844.75	1753.06
844.92	1665.00
845.09	1687.53
845.26	1763.30
845.43	1703.91
845.60	1683.43
845.77	1724.39
845.94	1693.67
846.10	1712.10
846.27	1568.74
846.44	1693.67
846.61	1671.14
846.78	1673.19
846.95	1798.12
847.12	1624.04
847.29	1767.40
847.46	1640.42
847.63	1736.68
847.80	1673.19
847.97	1722.34
848.14	1810.40
848.31	1742.82
848.48	1662.95
848.65	1771.49
848.82	1642.47
848.98	1789.92
849.15	1650.66
849.32	1732.58
849.49	1751.01
849.66	1638.38
849.83	1732.58
850.00	1665.00
850.17	1720.29
850.34	1673.19
850.51	1593.32
850.68	1634.28
850.85	1748.97
851.01	1701.86
851.18	1722.34
851.35	1648.61
851.52	1726.44
851.69	1771.49
851.86	1648.61
852.03	1675.24
852.20	1767.40
852.37	1687.53
852.53	1587.18
852.70	1636.33
852.87	1691.62
853.04	1667.05
853.21	1669.09
853.38	1677.29
853.55	1757.16
853.72	1783.78
853.89	1642.47
854.05	1673.19
854.22	1576.94
854.39	1634.28
854.56	1665.00
854.73	1796.07
854.90	1660.90
855.07	1699.81
855.23	1624.04
855.40	1656.81
855.57	1662.95
855.74	1542.12
855.91	1781.73
856.08	1665.00
856.25	1585.13
856.41	1726.44
856.58	1658.85
856.75	1654.76
856.92	1566.70
857.09	1771.49
857.26	1556.46
857.42	1613.80
857.59	1755.11
857.76	1638.38
857.93	1708.01
858.10	1652.71
858.27	1646.57
858.43	1681.38
858.60	1660.90
858.77	1535.98
858.94	1599.46
859.11	1769.44
859.27	1601.51
859.44	1726.44
859.61	1783.78
859.78	1714.15
859.95	1636.33
860.12	1644.52
860.28	1855.46
860.45	1789.92
860.62	1652.71
860.79	1634.28
860.95	1636.33
861.12	1669.09
861.29	1624.04
861.46	1583.08
861.63	1640.42
861.79	1658.85
861.96	1603.56
862.13	1636.33
862.30	1724.39
862.47	1628.14
862.63	1640.42
862.80	1798.12
862.97	1759.21
863.14	1763.30
863.30	1679.33
863.47	1730.53
863.64	1746.92
863.81	1716.20
863.97	1669.09
864.14	1726.44
864.31	1628.14
864.48	1714.15
864.65	1683.43
864.81	1685.48
864.98	1634.28
865.15	1699.81
865.32	1738.73
865.48	1781.73
865.65	1753.06
865.82	1673.19
865.98	1697.77
866.15	1708.01
866.32	1693.67
866.49	1599.46
866.65	1722.34
866.82	1714.15
866.99	1695.72
867.16	1599.46
867.32	1677.29
867.49	1724.39
867.66	1703.91
867.83	1677.29
867.99	1605.61
868.16	1621.99
868.33	1695.72
868.49	1665.00
868.66	1578.98
868.83	1712.10
868.99	1669.09
869.16	1718.25
869.33	1710.05
869.50	1714.15
869.66	1677.29
869.83	1708.01
870.00	1611.75
870.16	1767.40
870.33	1675.24
870.50	1763.30
870.66	1630.18
870.83	1804.26
871.00	1675.24
871.17	1740.77
871.33	1689.57
871.50	1683.43
871.67	1617.90
871.83	1689.57
872.00	1710.05
872.17	1724.39
872.33	1759.21
872.50	1781.73
872.67	1660.90
872.83	1630.18
873.00	1677.29
873.17	1710.05
873.33	1753.06
873.50	1789.92
873.67	1669.09
873.83	1617.90
874.00	1714.15
874.16	1757.16
874.33	1734.63
874.50	1650.66
874.66	1734.63
874.83	1671.14
875.00	1779.68
875.16	1714.15
875.33	1734.63
875.50	1535.98
875.66	1687.53
875.83	1624.04
875.99	1714.15
876.16	1636.33
876.33	1609.70
876.49	1648.61
876.66	1726.44
876.83	1732.58
876.99	1546.22
877.16	1665.00
877.32	1658.85
877.49	1624.04
877.66	1638.38
877.82	1716.20
877.99	1693.67
878.15	1724.39
878.32	1718.25
878.49	1656.81
878.65	1648.61
878.82	1697.77
878.98	1705.96
879.15	1705.96
879.32	1714.15
879.48	1652.71
879.65	1718.25
879.81	1619.94
879.98	1673.19
880.15	1667.05
880.31	1730.53
880.48	1632.23
880.64	1775.59
880.81	1701.86
880.97	1798.12
881.14	1740.77
881.31	1642.47
881.47	1804.26
881.64	1646.57
881.80	1581.03
881.97	1734.63
882.13	1734.63
882.30	1601.51
882.47	1648.61
882.63	1628.14
882.80	1646.57
882.96	1677.29
883.13	1681.38
883.29	1689.57
883.46	1656.81
883.62	1800.16
883.79	1708.01
883.95	1708.01
884.12	1685.48
884.29	1736.68
884.45	1705.96
884.62	1769.44
884.78	1574.89
884.95	1734.63
885.11	1701.86
885.28	1693.67
885.44	1742.82
885.61	1611.75
885.77	1824.74
885.94	1705.96
886.10	1640.42
886.27	1724.39
886.43	1755.11
886.60	1714.15
886.76	1667.05
886.93	1603.56
887.09	1699.81
887.26	1591.27
887.42	1675.24
887.59	1732.58
887.75	1787.88
887.92	1796.07
888.08	1761.25
888.25	1742.82
888.41	1673.19
888.58	1695.72
888.74	1677.29
888.91	1687.53
>>>>>End Processed Spectral Data<<<<<
