SpectraSuite Data File
++++++++++++++++++++++++++++++++++++
Date: Mon Jun 06 12:09:57 CEST 2016
User: root
Dark Spectrum Present: No
Reference Spectrum Present: No
Number of Sampled Component Spectra: 1
Spectrometers: USB4C02835
Integration Time (usec): 100000 (USB4C02835)
Spectra Averaged: 1 (USB4C02835)
Boxcar Smoothing: 0 (USB4C02835)
Correct for Electrical Dark: No (USB4C02835)
Strobe/Lamp Enabled: No (USB4C02835)
Correct for Detector Non-linearity: No (USB4C02835)
Correct for Stray Light: No (USB4C02835)
Number of Pixels in Processed Spectrum: 3648
>>>>>Begin Processed Spectral Data<<<<<
177.47	1492.97
177.69	1492.97
177.91	1492.97
178.13	1462.25
178.36	1417.19
178.58	1626.09
178.80	1730.53
179.02	1658.85
179.24	1601.51
179.46	1658.85
179.68	1714.15
179.90	1624.04
180.13	1710.05
180.35	1662.95
180.57	1697.77
180.79	1765.35
181.01	1642.47
181.23	1759.21
181.45	1789.92
181.67	1611.75
181.90	1742.82
182.12	1617.90
182.34	1630.18
182.56	1703.91
182.78	1728.49
183.00	1714.15
183.22	1724.39
183.44	1642.47
183.66	1810.40
183.89	1740.77
184.11	1767.40
184.33	1697.77
184.55	1720.29
184.77	1693.67
184.99	1785.83
185.21	1679.33
185.43	1789.92
185.65	1673.19
185.87	1689.57
186.10	1753.06
186.32	1851.36
186.54	1740.77
186.76	1697.77
186.98	1714.15
187.20	1722.34
187.42	1660.90
187.64	1705.96
187.86	1730.53
188.08	1783.78
188.30	1654.76
188.52	1714.15
188.75	1761.25
188.97	1740.77
189.19	1658.85
189.41	1642.47
189.63	1765.35
189.85	1583.08
190.07	1669.09
190.29	1605.61
190.51	1789.92
190.73	1632.23
190.95	1802.21
191.17	1695.72
191.39	1607.66
191.61	1656.81
191.84	1662.95
192.06	1730.53
192.28	1644.52
192.50	1886.18
192.72	1697.77
192.94	1624.04
193.16	1665.00
193.38	1736.68
193.60	1587.18
193.82	1626.09
194.04	1726.44
194.26	1669.09
194.48	1695.72
194.70	1671.14
194.92	1753.06
195.14	1718.25
195.36	1599.46
195.58	1685.48
195.80	1669.09
196.02	1660.90
196.24	1677.29
196.46	1714.15
196.69	1642.47
196.91	1789.92
197.13	1675.24
197.35	1650.66
197.57	1757.16
197.79	1804.26
198.01	1757.16
198.23	1705.96
198.45	1701.86
198.67	1570.79
198.89	1720.29
199.11	1683.43
199.33	1693.67
199.55	1585.13
199.77	1615.85
199.99	1689.57
200.21	1687.53
200.43	1769.44
200.65	1689.57
200.87	1562.60
201.09	1636.33
201.31	1650.66
201.53	1652.71
201.75	1683.43
201.97	1681.38
202.19	1708.01
202.41	1689.57
202.63	1826.79
202.85	1730.53
203.07	1726.44
203.29	1705.96
203.51	1607.66
203.73	1650.66
203.95	1863.65
204.17	1644.52
204.39	1726.44
204.61	1746.92
204.83	1607.66
205.05	1734.63
205.27	1738.73
205.49	1769.44
205.71	1613.80
205.93	1671.14
206.15	1650.66
206.37	1636.33
206.59	1662.95
206.81	1617.90
207.03	1644.52
207.25	1644.52
207.47	1677.29
207.69	1761.25
207.91	1798.12
208.13	1740.77
208.34	1656.81
208.56	1679.33
208.78	1732.58
209.00	1630.18
209.22	1683.43
209.44	1640.42
209.66	1689.57
209.88	1740.77
210.10	1759.21
210.32	1685.48
210.54	1755.11
210.76	1660.90
210.98	1730.53
211.20	1613.80
211.42	1630.18
211.64	1789.92
211.86	1720.29
212.08	1785.83
212.30	1781.73
212.52	1689.57
212.74	1691.62
212.96	1710.05
213.17	1714.15
213.39	1705.96
213.61	1812.45
213.83	1693.67
214.05	1587.18
214.27	1724.39
214.49	1609.70
214.71	1626.09
214.93	1710.05
215.15	1654.76
215.37	1787.88
215.59	1583.08
215.81	1718.25
216.03	1769.44
216.24	1697.77
216.46	1720.29
216.68	1755.11
216.90	1761.25
217.12	1742.82
217.34	1685.48
217.56	1724.39
217.78	1720.29
218.00	1689.57
218.22	1683.43
218.44	1742.82
218.66	1761.25
218.87	1845.22
219.09	1581.03
219.31	1724.39
219.53	1751.01
219.75	1673.19
219.97	1665.00
220.19	1728.49
220.41	1691.62
220.63	1740.77
220.85	1703.91
221.06	1619.94
221.28	1730.53
221.50	1789.92
221.72	1714.15
221.94	1681.38
222.16	1617.90
222.38	1738.73
222.60	1736.68
222.82	1585.13
223.03	1759.21
223.25	1701.86
223.47	1742.82
223.69	1775.59
223.91	1683.43
224.13	1673.19
224.35	1638.38
224.57	1761.25
224.78	1650.66
225.00	1609.70
225.22	1634.28
225.44	1705.96
225.66	1763.30
225.88	1636.33
226.10	1734.63
226.32	1791.97
226.53	1742.82
226.75	1609.70
226.97	1630.18
227.19	1640.42
227.41	1691.62
227.63	1734.63
227.85	1595.37
228.06	1677.29
228.28	1705.96
228.50	1771.49
228.72	1644.52
228.94	1650.66
229.16	1591.27
229.37	1662.95
229.59	1650.66
229.81	1806.31
230.03	1683.43
230.25	1660.90
230.47	1601.51
230.69	1619.94
230.90	1824.74
231.12	1583.08
231.34	1695.72
231.56	1802.21
231.78	1697.77
232.00	1751.01
232.21	1624.04
232.43	1703.91
232.65	1540.07
232.87	1738.73
233.09	1652.71
233.30	1628.14
233.52	1685.48
233.74	1712.10
233.96	1613.80
234.18	1703.91
234.40	1681.38
234.61	1689.57
234.83	1613.80
235.05	1624.04
235.27	1779.68
235.49	1685.48
235.70	1705.96
235.92	1783.78
236.14	1677.29
236.36	1851.36
236.58	1644.52
236.79	1701.86
237.01	1697.77
237.23	1681.38
237.45	1701.86
237.67	1613.80
237.88	1708.01
238.10	1779.68
238.32	1605.61
238.54	1740.77
238.76	1738.73
238.97	1611.75
239.19	1605.61
239.41	1695.72
239.63	1683.43
239.85	1650.66
240.06	1761.25
240.28	1708.01
240.50	1814.50
240.72	1724.39
240.93	1607.66
241.15	1755.11
241.37	1673.19
241.59	1773.54
241.81	1726.44
242.02	1648.61
242.24	1730.53
242.46	1753.06
242.68	1685.48
242.89	1689.57
243.11	1751.01
243.33	1789.92
243.55	1726.44
243.76	1748.97
243.98	1595.37
244.20	1730.53
244.42	1648.61
244.64	1683.43
244.85	1665.00
245.07	1624.04
245.29	1677.29
245.51	1748.97
245.72	1728.49
245.94	1701.86
246.16	1701.86
246.38	1736.68
246.59	1644.52
246.81	1708.01
247.03	1611.75
247.24	1591.27
247.46	1671.14
247.68	1662.95
247.90	1689.57
248.11	1673.19
248.33	1800.16
248.55	1687.53
248.77	1708.01
248.98	1787.88
249.20	1773.54
249.42	1779.68
249.64	1744.87
249.85	1683.43
250.07	1693.67
250.29	1734.63
250.50	1779.68
250.72	1642.47
250.94	1652.71
251.16	1796.07
251.37	1748.97
251.59	1673.19
251.81	1703.91
252.02	1738.73
252.24	1644.52
252.46	1730.53
252.68	1617.90
252.89	1665.00
253.11	1566.70
253.33	1822.69
253.54	1779.68
253.76	1574.89
253.98	1681.38
254.20	1669.09
254.41	1656.81
254.63	1615.85
254.85	1708.01
255.06	1648.61
255.28	1685.48
255.50	1665.00
255.71	1722.34
255.93	1613.80
256.15	1656.81
256.36	1701.86
256.58	1632.23
256.80	1746.92
257.02	1716.20
257.23	1712.10
257.45	1683.43
257.67	1677.29
257.88	1701.86
258.10	1720.29
258.32	1701.86
258.53	1755.11
258.75	1734.63
258.97	1564.65
259.18	1718.25
259.40	1740.77
259.62	1767.40
259.83	1683.43
260.05	1775.59
260.27	1945.57
260.48	1755.11
260.70	1689.57
260.92	1691.62
261.13	1669.09
261.35	1671.14
261.57	1691.62
261.78	1570.79
262.00	1630.18
262.22	1701.86
262.43	1607.66
262.65	1679.33
262.86	1671.14
263.08	1847.27
263.30	1697.77
263.51	1609.70
263.73	1693.67
263.95	1785.83
264.16	1712.10
264.38	1693.67
264.60	1738.73
264.81	1650.66
265.03	1669.09
265.25	1726.44
265.46	1689.57
265.68	1763.30
265.89	1675.24
266.11	1632.23
266.33	1730.53
266.54	1677.29
266.76	1720.29
266.98	1595.37
267.19	1808.36
267.41	1736.68
267.62	1703.91
267.84	1646.57
268.06	1734.63
268.27	1730.53
268.49	1736.68
268.70	1824.74
268.92	1708.01
269.14	1585.13
269.35	1638.38
269.57	1660.90
269.79	1746.92
270.00	1691.62
270.22	1765.35
270.43	1615.85
270.65	1624.04
270.87	1615.85
271.08	1689.57
271.30	1757.16
271.51	1710.05
271.73	1732.58
271.95	1708.01
272.16	1728.49
272.38	1712.10
272.59	1718.25
272.81	1716.20
273.02	1771.49
273.24	1658.85
273.46	1738.73
273.67	1652.71
273.89	1660.90
274.10	1583.08
274.32	1677.29
274.54	1763.30
274.75	1681.38
274.97	1685.48
275.18	1726.44
275.40	1748.97
275.61	1697.77
275.83	1714.15
276.05	1675.24
276.26	1693.67
276.48	1673.19
276.69	1652.71
276.91	1632.23
277.12	1767.40
277.34	1751.01
277.55	1722.34
277.77	1716.20
277.99	1658.85
278.20	1615.85
278.42	1615.85
278.63	1611.75
278.85	1646.57
279.06	1574.89
279.28	1656.81
279.49	1771.49
279.71	1705.96
279.93	1710.05
280.14	1667.05
280.36	1656.81
280.57	1769.44
280.79	1771.49
281.00	1675.24
281.22	1611.75
281.43	1736.68
281.65	1652.71
281.86	1644.52
282.08	1714.15
282.29	1789.92
282.51	1634.28
282.73	1587.18
282.94	1619.94
283.16	1763.30
283.37	1785.83
283.59	1751.01
283.80	1777.64
284.02	1742.82
284.23	1693.67
284.45	1794.02
284.66	1693.67
284.88	1665.00
285.09	1710.05
285.31	1687.53
285.52	1662.95
285.74	1665.00
285.95	1769.44
286.17	1679.33
286.38	1765.35
286.60	1691.62
286.81	1714.15
287.03	1603.56
287.24	1650.66
287.46	1701.86
287.67	1726.44
287.89	1722.34
288.10	1644.52
288.32	1673.19
288.53	1722.34
288.75	1656.81
288.96	1771.49
289.18	1685.48
289.39	1728.49
289.61	1705.96
289.82	1785.83
290.04	1820.64
290.25	1654.76
290.47	1605.61
290.68	1679.33
290.90	1771.49
291.11	1634.28
291.33	1712.10
291.54	1572.84
291.76	1640.42
291.97	1724.39
292.18	1667.05
292.40	1679.33
292.61	1628.14
292.83	1820.64
293.04	1746.92
293.26	1701.86
293.47	1654.76
293.69	1695.72
293.90	1662.95
294.12	1796.07
294.33	1755.11
294.55	1681.38
294.76	1701.86
294.97	1722.34
295.19	1812.45
295.40	1665.00
295.62	1693.67
295.83	1685.48
296.05	1634.28
296.26	1757.16
296.48	1617.90
296.69	1650.66
296.90	1667.05
297.12	1724.39
297.33	1689.57
297.55	1603.56
297.76	1687.53
297.98	1806.31
298.19	1732.58
298.41	1697.77
298.62	1673.19
298.83	1767.40
299.05	1691.62
299.26	1615.85
299.48	1619.94
299.69	1736.68
299.90	1718.25
300.12	1669.09
300.33	1705.96
300.55	1705.96
300.76	1724.39
300.98	1650.66
301.19	1740.77
301.40	1650.66
301.62	1605.61
301.83	1726.44
302.05	1697.77
302.26	1693.67
302.47	1744.87
302.69	1691.62
302.90	1718.25
303.12	1658.85
303.33	1683.43
303.54	1875.94
303.76	1675.24
303.97	1679.33
304.19	1837.03
304.40	1636.33
304.61	1738.73
304.83	1748.97
305.04	1746.92
305.26	1675.24
305.47	1654.76
305.68	1681.38
305.90	1652.71
306.11	1701.86
306.33	1681.38
306.54	1656.81
306.75	1615.85
306.97	1658.85
307.18	1689.57
307.39	1654.76
307.61	1728.49
307.82	1689.57
308.04	1691.62
308.25	1632.23
308.46	1763.30
308.68	1683.43
308.89	1716.20
309.10	1818.60
309.32	1708.01
309.53	1656.81
309.74	1724.39
309.96	1742.82
310.17	1744.87
310.39	1677.29
310.60	1675.24
310.81	1732.58
311.03	1611.75
311.24	1746.92
311.45	1669.09
311.67	1814.50
311.88	1660.90
312.09	1687.53
312.31	1558.50
312.52	1695.72
312.73	1656.81
312.95	1636.33
313.16	1591.27
313.37	1744.87
313.59	1708.01
313.80	1693.67
314.01	1757.16
314.23	1675.24
314.44	1708.01
314.65	1648.61
314.87	1628.14
315.08	1609.70
315.29	1656.81
315.51	1665.00
315.72	1624.04
315.93	1730.53
316.15	1697.77
316.36	1642.47
316.57	1681.38
316.79	1748.97
317.00	1718.25
317.21	1740.77
317.43	1597.42
317.64	1638.38
317.85	1714.15
318.07	1630.18
318.28	1652.71
318.49	1765.35
318.70	1912.80
318.92	1767.40
319.13	1832.93
319.34	1855.46
319.56	1769.44
319.77	1783.78
319.98	1738.73
320.20	1783.78
320.41	1744.87
320.62	1714.15
320.83	1673.19
321.05	1832.93
321.26	1726.44
321.47	1705.96
321.69	1730.53
321.90	1648.61
322.11	1650.66
322.32	1697.77
322.54	1714.15
322.75	1687.53
322.96	1861.60
323.18	1665.00
323.39	1578.98
323.60	1597.42
323.81	1720.29
324.03	1695.72
324.24	1708.01
324.45	1708.01
324.66	1636.33
324.88	1734.63
325.09	1738.73
325.30	1718.25
325.52	1738.73
325.73	1669.09
325.94	1595.37
326.15	1630.18
326.37	1714.15
326.58	1677.29
326.79	1726.44
327.00	1613.80
327.22	1701.86
327.43	1687.53
327.64	1669.09
327.85	1765.35
328.07	1689.57
328.28	1798.12
328.49	1644.52
328.70	1662.95
328.92	1699.81
329.13	1683.43
329.34	1697.77
329.55	1761.25
329.76	1705.96
329.98	1716.20
330.19	1783.78
330.40	1681.38
330.61	1693.67
330.83	1742.82
331.04	1648.61
331.25	1640.42
331.46	1748.97
331.68	1564.65
331.89	1751.01
332.10	1656.81
332.31	1660.90
332.52	1679.33
332.74	1720.29
332.95	1634.28
333.16	1730.53
333.37	1718.25
333.58	1599.46
333.80	1687.53
334.01	1628.14
334.22	1607.66
334.43	1673.19
334.64	1650.66
334.86	1566.70
335.07	1615.85
335.28	1777.64
335.49	1615.85
335.70	1722.34
335.92	1677.29
336.13	1757.16
336.34	1695.72
336.55	1689.57
336.76	1769.44
336.98	1621.99
337.19	1708.01
337.40	1787.88
337.61	1740.77
337.82	1677.29
338.04	1763.30
338.25	1578.98
338.46	1640.42
338.67	1775.59
338.88	1687.53
339.09	1665.00
339.31	1644.52
339.52	1693.67
339.73	1626.09
339.94	1740.77
340.15	1777.64
340.36	1552.36
340.58	1718.25
340.79	1708.01
341.00	1691.62
341.21	1665.00
341.42	1730.53
341.63	1708.01
341.85	1796.07
342.06	1654.76
342.27	1665.00
342.48	1759.21
342.69	1656.81
342.90	1712.10
343.12	1656.81
343.33	1591.27
343.54	1726.44
343.75	1722.34
343.96	1636.33
344.17	1648.61
344.38	1681.38
344.60	1644.52
344.81	1576.94
345.02	1724.39
345.23	1783.78
345.44	1837.03
345.65	1720.29
345.86	1705.96
346.07	1665.00
346.29	1669.09
346.50	1767.40
346.71	1685.48
346.92	1689.57
347.13	1812.45
347.34	1708.01
347.55	1646.57
347.76	1640.42
347.98	1644.52
348.19	1675.24
348.40	1708.01
348.61	1671.14
348.82	1726.44
349.03	1771.49
349.24	1685.48
349.45	1785.83
349.66	1624.04
349.88	1695.72
350.09	1665.00
350.30	1714.15
350.51	1771.49
350.72	1689.57
350.93	1730.53
351.14	1646.57
351.35	1755.11
351.56	1658.85
351.77	1683.43
351.99	1695.72
352.20	1785.83
352.41	1740.77
352.62	1533.93
352.83	1619.94
353.04	1601.51
353.25	1703.91
353.46	1771.49
353.67	1708.01
353.88	1538.02
354.09	1781.73
354.30	1708.01
354.52	1751.01
354.73	1705.96
354.94	1607.66
355.15	1619.94
355.36	1755.11
355.57	1589.22
355.78	1705.96
355.99	1640.42
356.20	1675.24
356.41	1787.88
356.62	1742.82
356.83	1665.00
357.04	1677.29
357.25	1609.70
357.46	1632.23
357.68	1685.48
357.89	1695.72
358.10	1695.72
358.31	1644.52
358.52	1691.62
358.73	1558.50
358.94	1654.76
359.15	1632.23
359.36	1697.77
359.57	1740.77
359.78	1673.19
359.99	1689.57
360.20	1599.46
360.41	1619.94
360.62	1673.19
360.83	1660.90
361.04	1740.77
361.25	1613.80
361.46	1667.05
361.67	1693.67
361.88	1716.20
362.09	1714.15
362.30	1689.57
362.51	1681.38
362.72	1685.48
362.93	1687.53
363.14	1812.45
363.35	1716.20
363.56	1626.09
363.78	1744.87
363.99	1691.62
364.20	1652.71
364.41	1751.01
364.62	1748.97
364.83	1710.05
365.04	1722.34
365.25	1687.53
365.46	1781.73
365.67	1730.53
365.88	1587.18
366.09	1662.95
366.30	1652.71
366.51	1628.14
366.72	1697.77
366.93	1597.42
367.14	1728.49
367.35	1695.72
367.56	1675.24
367.77	1810.40
367.98	1640.42
368.18	1773.54
368.39	1730.53
368.60	1583.08
368.81	1701.86
369.02	1689.57
369.23	1671.14
369.44	1599.46
369.65	1642.47
369.86	1730.53
370.07	1748.97
370.28	1646.57
370.49	1779.68
370.70	1761.25
370.91	1605.61
371.12	1613.80
371.33	1751.01
371.54	1720.29
371.75	1730.53
371.96	1603.56
372.17	1746.92
372.38	1642.47
372.59	1705.96
372.80	1665.00
373.01	1658.85
373.22	1705.96
373.43	1632.23
373.64	1683.43
373.85	1746.92
374.06	1855.46
374.26	1695.72
374.47	1675.24
374.68	1771.49
374.89	1695.72
375.10	1650.66
375.31	1730.53
375.52	1669.09
375.73	1736.68
375.94	1589.22
376.15	1751.01
376.36	1656.81
376.57	1677.29
376.78	1689.57
376.99	1746.92
377.20	1755.11
377.40	1703.91
377.61	1871.84
377.82	1642.47
378.03	1679.33
378.24	1683.43
378.45	1722.34
378.66	1667.05
378.87	1642.47
379.08	1632.23
379.29	1587.18
379.50	1853.41
379.71	1677.29
379.91	1757.16
380.12	1677.29
380.33	1697.77
380.54	1677.29
380.75	1691.62
380.96	1722.34
381.17	1753.06
381.38	1742.82
381.59	1718.25
381.80	1742.82
382.00	1890.28
382.21	1789.92
382.42	1830.88
382.63	1859.56
382.84	1703.91
383.05	1732.58
383.26	1775.59
383.47	1677.29
383.68	1744.87
383.88	1656.81
384.09	1757.16
384.30	1832.93
384.51	1705.96
384.72	1734.63
384.93	1601.51
385.14	1638.38
385.35	1728.49
385.55	1585.13
385.76	1800.16
385.97	1640.42
386.18	1599.46
386.39	1652.71
386.60	1611.75
386.81	1689.57
387.02	1681.38
387.22	1683.43
387.43	1794.02
387.64	1785.83
387.85	1880.04
388.06	2230.24
388.27	4360.13
388.48	6756.25
388.68	8230.79
388.89	9703.28
389.10	9918.31
389.31	8701.82
389.52	7567.24
389.73	6789.02
389.93	6123.43
390.14	5883.81
390.35	5179.31
390.56	4562.87
390.77	3782.60
390.98	3063.76
391.18	2559.96
391.39	2146.27
391.60	1787.88
391.81	1822.69
392.02	1730.53
392.23	1843.17
392.43	1710.05
392.64	1812.45
392.85	1681.38
393.06	1777.64
393.27	1724.39
393.47	1730.53
393.68	1708.01
393.89	1697.77
394.10	1742.82
394.31	1681.38
394.52	1642.47
394.72	1648.61
394.93	1697.77
395.14	1660.90
395.35	1726.44
395.56	1675.24
395.76	1761.25
395.97	1783.78
396.18	1738.73
396.39	1873.89
396.60	2039.78
396.80	1882.08
397.01	1783.78
397.22	1859.56
397.43	1855.46
397.64	1800.16
397.84	1832.93
398.05	1853.41
398.26	1740.77
398.47	1818.60
398.67	1775.59
398.88	1705.96
399.09	1716.20
399.30	1648.61
399.51	1759.21
399.71	1652.71
399.92	1671.14
400.13	1630.18
400.34	1689.57
400.54	1656.81
400.75	1806.31
400.96	1767.40
401.17	1751.01
401.37	1648.61
401.58	1648.61
401.79	1730.53
402.00	1877.99
402.21	1927.14
402.41	1990.63
402.62	1978.34
402.83	1920.99
403.04	1984.48
403.24	2033.63
403.45	1826.79
403.66	1910.75
403.87	1826.79
404.07	1910.75
404.28	1867.75
404.49	1892.32
404.70	1787.88
404.90	1779.68
405.11	1648.61
405.32	1675.24
405.52	1705.96
405.73	1718.25
405.94	1665.00
406.15	1658.85
406.35	1734.63
406.56	1720.29
406.77	1722.34
406.98	1714.15
407.18	1599.46
407.39	1710.05
407.60	1609.70
407.80	1685.48
408.01	1638.38
408.22	1660.90
408.43	1642.47
408.63	1773.54
408.84	1701.86
409.05	1781.73
409.25	1669.09
409.46	1624.04
409.67	1615.85
409.88	1615.85
410.08	1685.48
410.29	1597.42
410.50	1757.16
410.70	1708.01
410.91	1675.24
411.12	1759.21
411.32	1673.19
411.53	1652.71
411.74	1783.78
411.95	1791.97
412.15	1759.21
412.36	1753.06
412.57	1767.40
412.77	1755.11
412.98	1705.96
413.19	1712.10
413.39	1716.20
413.60	1714.15
413.81	1796.07
414.01	1546.22
414.22	1808.36
414.43	1701.86
414.63	1658.85
414.84	1755.11
415.05	1720.29
415.25	1599.46
415.46	1730.53
415.67	1628.14
415.87	1810.40
416.08	1658.85
416.29	1660.90
416.49	1699.81
416.70	1603.56
416.91	1689.57
417.11	1656.81
417.32	1734.63
417.53	1759.21
417.73	1732.58
417.94	1650.66
418.15	1722.34
418.35	1695.72
418.56	1642.47
418.77	1816.55
418.97	1742.82
419.18	1667.05
419.38	1587.18
419.59	1714.15
419.80	1726.44
420.00	1652.71
420.21	1669.09
420.42	1791.97
420.62	1681.38
420.83	1648.61
421.04	1714.15
421.24	1671.14
421.45	1695.72
421.65	1705.96
421.86	1689.57
422.07	1804.26
422.27	1665.00
422.48	1656.81
422.69	1665.00
422.89	1679.33
423.10	1632.23
423.30	1621.99
423.51	1642.47
423.72	1640.42
423.92	1687.53
424.13	1585.13
424.33	1656.81
424.54	1800.16
424.75	1665.00
424.95	1662.95
425.16	1691.62
425.36	1685.48
425.57	1714.15
425.78	1710.05
425.98	1693.67
426.19	1708.01
426.39	1609.70
426.60	1789.92
426.81	1732.58
427.01	1757.16
427.22	1695.72
427.42	1656.81
427.63	1611.75
427.83	1708.01
428.04	1812.45
428.25	1814.50
428.45	1742.82
428.66	1726.44
428.86	1665.00
429.07	1628.14
429.28	1697.77
429.48	1687.53
429.69	1691.62
429.89	1738.73
430.10	1648.61
430.30	1691.62
430.51	1701.86
430.71	1648.61
430.92	1722.34
431.13	1630.18
431.33	1685.48
431.54	1722.34
431.74	1820.64
431.95	1841.12
432.15	1710.05
432.36	1683.43
432.56	1728.49
432.77	1804.26
432.98	1787.88
433.18	1708.01
433.39	1699.81
433.59	1658.85
433.80	1783.78
434.00	1806.31
434.21	1783.78
434.41	1681.38
434.62	1834.98
434.82	1665.00
435.03	1621.99
435.23	1755.11
435.44	1697.77
435.64	1703.91
435.85	1675.24
436.06	1736.68
436.26	1767.40
436.47	1736.68
436.67	1710.05
436.88	1669.09
437.08	1798.12
437.29	1765.35
437.49	1701.86
437.70	1708.01
437.90	1673.19
438.11	1796.07
438.31	1794.02
438.52	1935.33
438.72	1845.22
438.93	1828.84
439.13	1761.25
439.34	1757.16
439.54	1777.64
439.75	1814.50
439.95	1755.11
440.16	1718.25
440.36	1658.85
440.57	1839.08
440.77	1773.54
440.98	1689.57
441.18	1671.14
441.39	1671.14
441.59	1673.19
441.80	1791.97
442.00	1763.30
442.21	1845.22
442.41	1632.23
442.62	1800.16
442.82	1646.57
443.02	1705.96
443.23	1710.05
443.43	1652.71
443.64	1757.16
443.84	1603.56
444.05	1767.40
444.25	1695.72
444.46	1755.11
444.66	1761.25
444.87	1820.64
445.07	1619.94
445.28	1798.12
445.48	1789.92
445.69	1710.05
445.89	1853.41
446.09	1763.30
446.30	2062.30
446.50	2594.78
446.71	3725.26
446.91	4331.45
447.12	4716.47
447.32	4882.36
447.53	4341.69
447.73	3790.79
447.93	3536.84
448.14	3303.37
448.34	3106.77
448.55	2836.44
448.75	2738.13
448.96	2631.64
449.16	2389.98
449.36	2289.63
449.57	2119.65
449.77	1929.19
449.98	1757.16
450.18	1828.84
450.39	1810.40
450.59	1714.15
450.79	1654.76
451.00	1675.24
451.20	1791.97
451.41	1710.05
451.61	1763.30
451.81	1665.00
452.02	1714.15
452.22	1712.10
452.43	1681.38
452.63	1648.61
452.84	1716.20
453.04	1732.58
453.24	1691.62
453.45	1679.33
453.65	1677.29
453.86	1751.01
454.06	1667.05
454.26	1767.40
454.47	1638.38
454.67	1800.16
454.87	1742.82
455.08	1648.61
455.28	1765.35
455.49	1761.25
455.69	1667.05
455.89	1814.50
456.10	1789.92
456.30	1740.77
456.51	1746.92
456.71	1726.44
456.91	1787.88
457.12	1783.78
457.32	1697.77
457.52	1705.96
457.73	1757.16
457.93	1832.93
458.14	1738.73
458.34	1669.09
458.54	1742.82
458.75	1771.49
458.95	1734.63
459.15	1697.77
459.36	1734.63
459.56	1734.63
459.76	1828.84
459.97	1703.91
460.17	1673.19
460.37	1775.59
460.58	1726.44
460.78	1757.16
460.99	1759.21
461.19	1699.81
461.39	1720.29
461.60	1695.72
461.80	1689.57
462.00	1673.19
462.21	1744.87
462.41	1675.24
462.61	1632.23
462.82	1675.24
463.02	1730.53
463.22	1695.72
463.43	1771.49
463.63	1763.30
463.83	1791.97
464.04	1667.05
464.24	1734.63
464.44	1650.66
464.64	1665.00
464.85	1705.96
465.05	1773.54
465.25	1714.15
465.46	1697.77
465.66	1773.54
465.86	1808.36
466.07	1695.72
466.27	1699.81
466.47	1658.85
466.68	1626.09
466.88	1757.16
467.08	1755.11
467.29	1746.92
467.49	1787.88
467.69	1695.72
467.89	1763.30
468.10	1746.92
468.30	1697.77
468.50	1787.88
468.71	1763.30
468.91	1615.85
469.11	1808.36
469.31	1681.38
469.52	1681.38
469.72	1724.39
469.92	1855.46
470.13	1740.77
470.33	1744.87
470.53	1806.31
470.73	2078.69
470.94	2236.38
471.14	2242.53
471.34	2504.67
471.54	2383.84
471.75	2256.86
471.95	2189.28
472.15	2123.74
472.36	2074.59
472.56	2068.45
472.76	2068.45
472.96	1959.91
473.17	1925.09
473.37	1900.52
473.57	1847.27
473.77	1806.31
473.98	1736.68
474.18	1673.19
474.38	1863.65
474.58	1652.71
474.79	1587.18
474.99	1699.81
475.19	1808.36
475.39	1601.51
475.60	1695.72
475.80	1605.61
476.00	1746.92
476.20	1730.53
476.41	1757.16
476.61	1757.16
476.81	1826.79
477.01	1669.09
477.21	1783.78
477.42	1763.30
477.62	1632.23
477.82	1834.98
478.02	1697.77
478.23	1740.77
478.43	1683.43
478.63	1681.38
478.83	1695.72
479.03	1777.64
479.24	1771.49
479.44	1859.56
479.64	1615.85
479.84	1527.78
480.04	1652.71
480.25	1724.39
480.45	1691.62
480.65	1718.25
480.85	1779.68
481.06	1634.28
481.26	1759.21
481.46	1724.39
481.66	1714.15
481.86	1677.29
482.06	1845.22
482.27	1656.81
482.47	1693.67
482.67	1665.00
482.87	1705.96
483.07	1726.44
483.28	1628.14
483.48	1658.85
483.68	1628.14
483.88	1562.60
484.08	1603.56
484.29	1640.42
484.49	1695.72
484.69	1601.51
484.89	1855.46
485.09	1740.77
485.29	1703.91
485.50	1730.53
485.70	1650.66
485.90	1802.21
486.10	1763.30
486.30	1736.68
486.50	1794.02
486.71	1693.67
486.91	1728.49
487.11	1832.93
487.31	1576.94
487.51	1697.77
487.71	1652.71
487.91	1638.38
488.12	1687.53
488.32	1546.22
488.52	1648.61
488.72	1564.65
488.92	1630.18
489.12	1787.88
489.32	1693.67
489.53	1798.12
489.73	1605.61
489.93	1787.88
490.13	1677.29
490.33	1599.46
490.53	1736.68
490.73	1722.34
490.94	1624.04
491.14	1722.34
491.34	1783.78
491.54	2140.13
491.74	2519.00
491.94	2951.12
492.14	3002.32
492.34	3000.27
492.54	2762.71
492.75	2420.70
492.95	2408.41
493.15	2375.64
493.35	2308.06
493.55	2209.76
493.75	2074.59
493.95	2174.94
494.15	2045.92
494.35	1914.85
494.56	1918.95
494.76	1716.20
494.96	1814.50
495.16	1794.02
495.36	1738.73
495.56	1744.87
495.76	1728.49
495.96	1718.25
496.16	1679.33
496.36	1841.12
496.56	1714.15
496.77	1740.77
496.97	1642.47
497.17	1841.12
497.37	1691.62
497.57	1642.47
497.77	1714.15
497.97	1681.38
498.17	1769.44
498.37	1681.38
498.57	1689.57
498.77	1705.96
498.97	1746.92
499.17	1843.17
499.38	1705.96
499.58	1714.15
499.78	1796.07
499.98	1839.08
500.18	1681.38
500.38	1662.95
500.58	1935.33
500.78	2519.00
500.98	4501.44
501.18	5777.32
501.38	6690.71
501.58	7212.95
501.78	6659.99
501.98	5621.67
502.18	4968.37
502.38	4378.56
502.58	4175.81
502.78	3897.28
502.98	3698.63
503.18	3387.34
503.38	3231.69
503.59	2807.77
503.79	2707.41
503.99	2467.80
504.19	2267.10
504.39	2152.42
504.59	2234.33
504.79	2058.21
504.99	2125.79
505.19	2002.91
505.39	1912.80
505.59	1961.95
505.79	1910.75
505.99	1791.97
506.19	1748.97
506.39	1769.44
506.59	1767.40
506.79	1710.05
506.99	1812.45
507.19	1738.73
507.39	1693.67
507.59	1675.24
507.79	1621.99
507.99	1720.29
508.19	1689.57
508.39	1732.58
508.59	1748.97
508.79	1834.98
508.99	1820.64
509.19	1708.01
509.39	1753.06
509.59	1714.15
509.79	1718.25
509.99	1701.86
510.19	1767.40
510.39	1775.59
510.59	1765.35
510.79	1642.47
510.99	1691.62
511.19	1642.47
511.39	1718.25
511.59	1755.11
511.79	1851.36
511.99	1757.16
512.19	1785.83
512.38	1736.68
512.58	1658.85
512.78	1681.38
512.98	1732.58
513.18	1787.88
513.38	1593.32
513.58	1787.88
513.78	1779.68
513.98	1699.81
514.18	1789.92
514.38	1722.34
514.58	1783.78
514.78	1632.23
514.98	1681.38
515.18	1697.77
515.38	1662.95
515.58	1798.12
515.78	1697.77
515.98	1759.21
516.18	1779.68
516.38	1710.05
516.57	1738.73
516.77	1726.44
516.97	1714.15
517.17	1728.49
517.37	1628.14
517.57	1814.50
517.77	1722.34
517.97	1665.00
518.17	1744.87
518.37	1691.62
518.57	1712.10
518.77	1632.23
518.97	1689.57
519.16	1822.69
519.36	1839.08
519.56	1705.96
519.76	1626.09
519.96	1730.53
520.16	1732.58
520.36	1718.25
520.56	1757.16
520.76	1691.62
520.96	1701.86
521.16	1738.73
521.35	1804.26
521.55	1796.07
521.75	1699.81
521.95	1708.01
522.15	1703.91
522.35	1681.38
522.55	1669.09
522.75	1779.68
522.95	1689.57
523.14	1716.20
523.34	1755.11
523.54	1658.85
523.74	1761.25
523.94	1742.82
524.14	1679.33
524.34	1712.10
524.54	1785.83
524.73	1632.23
524.93	1759.21
525.13	1746.92
525.33	1519.59
525.53	1861.60
525.73	1712.10
525.93	1724.39
526.13	1705.96
526.32	1640.42
526.52	1800.16
526.72	1751.01
526.92	1689.57
527.12	1722.34
527.32	1619.94
527.52	1765.35
527.71	1757.16
527.91	1718.25
528.11	1757.16
528.31	1777.64
528.51	1701.86
528.71	1794.02
528.90	1736.68
529.10	1755.11
529.30	1751.01
529.50	1607.66
529.70	1740.77
529.90	1755.11
530.09	1742.82
530.29	1685.48
530.49	1742.82
530.69	1841.12
530.89	1794.02
531.09	1744.87
531.28	1693.67
531.48	1751.01
531.68	1705.96
531.88	1697.77
532.08	1812.45
532.28	1689.57
532.47	1855.46
532.67	1822.69
532.87	1714.15
533.07	1718.25
533.27	1734.63
533.46	1779.68
533.66	1738.73
533.86	1675.24
534.06	1701.86
534.26	1697.77
534.45	1619.94
534.65	1779.68
534.85	1691.62
535.05	1740.77
535.25	1681.38
535.44	1615.85
535.64	1759.21
535.84	1716.20
536.04	1675.24
536.24	1697.77
536.43	1697.77
536.63	1718.25
536.83	1683.43
537.03	1773.54
537.22	1656.81
537.42	1675.24
537.62	1679.33
537.82	1720.29
538.02	1794.02
538.21	1832.93
538.41	1882.08
538.61	1705.96
538.81	1646.57
539.00	1839.08
539.20	1742.82
539.40	1771.49
539.60	1648.61
539.79	1800.16
539.99	1722.34
540.19	1701.86
540.39	1693.67
540.58	1740.77
540.78	1794.02
540.98	1804.26
541.18	1691.62
541.37	1779.68
541.57	1748.97
541.77	1724.39
541.97	1718.25
542.16	1675.24
542.36	1740.77
542.56	1802.21
542.76	1861.60
542.95	1701.86
543.15	1771.49
543.35	1781.73
543.54	1675.24
543.74	1687.53
543.94	1757.16
544.14	1712.10
544.33	1796.07
544.53	1718.25
544.73	1703.91
544.93	1689.57
545.12	1710.05
545.32	1726.44
545.52	1726.44
545.71	1648.61
545.91	1740.77
546.11	1611.75
546.30	1685.48
546.50	1689.57
546.70	1794.02
546.90	1714.15
547.09	1644.52
547.29	1681.38
547.49	1812.45
547.68	1783.78
547.88	1761.25
548.08	1777.64
548.27	2142.18
548.47	1718.25
548.67	1701.86
548.87	1796.07
549.06	1703.91
549.26	1689.57
549.46	1734.63
549.65	1695.72
549.85	1720.29
550.05	1755.11
550.24	1701.86
550.44	1640.42
550.64	1722.34
550.83	1697.77
551.03	1800.16
551.23	1800.16
551.42	1736.68
551.62	1751.01
551.82	1798.12
552.01	1638.38
552.21	1802.21
552.41	1714.15
552.60	1808.36
552.80	1771.49
553.00	1710.05
553.19	1640.42
553.39	1777.64
553.59	1654.76
553.78	1769.44
553.98	1759.21
554.17	1585.13
554.37	1781.73
554.57	1769.44
554.76	1665.00
554.96	1673.19
555.16	1697.77
555.35	1669.09
555.55	1730.53
555.75	1751.01
555.94	1812.45
556.14	1673.19
556.33	1773.54
556.53	1687.53
556.73	1730.53
556.92	1736.68
557.12	1763.30
557.32	1703.91
557.51	1753.06
557.71	1722.34
557.90	1841.12
558.10	1804.26
558.30	1742.82
558.49	1693.67
558.69	1740.77
558.88	1744.87
559.08	1800.16
559.28	1650.66
559.47	1642.47
559.67	1746.92
559.86	1886.18
560.06	1744.87
560.26	1675.24
560.45	1761.25
560.65	1757.16
560.84	1765.35
561.04	1714.15
561.24	1759.21
561.43	1648.61
561.63	1834.98
561.82	1804.26
562.02	1724.39
562.22	1689.57
562.41	1712.10
562.61	1734.63
562.80	1705.96
563.00	1863.65
563.19	1753.06
563.39	1779.68
563.59	1751.01
563.78	1681.38
563.98	1595.37
564.17	1607.66
564.37	1722.34
564.56	1691.62
564.76	1677.29
564.96	1751.01
565.15	1726.44
565.35	1777.64
565.54	1808.36
565.74	1748.97
565.93	1779.68
566.13	1773.54
566.32	1757.16
566.52	1849.32
566.71	1761.25
566.91	1812.45
567.11	1744.87
567.30	1748.97
567.50	1693.67
567.69	1708.01
567.89	1744.87
568.08	1681.38
568.28	1746.92
568.47	1753.06
568.67	1767.40
568.86	1675.24
569.06	1734.63
569.25	1669.09
569.45	1691.62
569.64	1740.77
569.84	1708.01
570.04	1683.43
570.23	1658.85
570.43	1710.05
570.62	1718.25
570.82	1794.02
571.01	1669.09
571.21	1701.86
571.40	1695.72
571.60	1738.73
571.79	1730.53
571.99	1724.39
572.18	1648.61
572.38	1718.25
572.57	1724.39
572.77	1738.73
572.96	1828.84
573.16	1751.01
573.35	1697.77
573.55	1763.30
573.74	1667.05
573.94	1650.66
574.13	1736.68
574.33	1730.53
574.52	1791.97
574.71	1730.53
574.91	1761.25
575.10	1677.29
575.30	1722.34
575.49	1705.96
575.69	1650.66
575.88	1732.58
576.08	1671.14
576.27	1857.51
576.47	1673.19
576.66	1769.44
576.86	1820.64
577.05	1675.24
577.25	1742.82
577.44	1855.46
577.64	1699.81
577.83	1730.53
578.02	1783.78
578.22	1849.32
578.41	1734.63
578.61	1751.01
578.80	1658.85
579.00	1738.73
579.19	1712.10
579.39	1783.78
579.58	1791.97
579.77	1816.55
579.97	1849.32
580.16	1812.45
580.36	1775.59
580.55	1904.61
580.75	1753.06
580.94	1722.34
581.13	1830.88
581.33	1824.74
581.52	1748.97
581.72	1869.80
581.91	1818.60
582.11	1736.68
582.30	1755.11
582.49	1765.35
582.69	1816.55
582.88	1724.39
583.08	1748.97
583.27	1791.97
583.47	1816.55
583.66	1767.40
583.85	1667.05
584.05	1732.58
584.24	1810.40
584.44	1796.07
584.63	1871.84
584.82	1781.73
585.02	1873.89
585.21	1759.21
585.41	1816.55
585.60	1808.36
585.79	1886.18
585.99	1947.62
586.18	1794.02
586.37	2250.72
586.57	3342.28
586.76	9879.40
586.96	24538.76
587.15	34694.64
587.34	40850.83
587.54	42622.33
587.73	36904.40
587.93	26584.68
588.12	21780.15
588.31	18464.49
588.51	16490.24
588.70	15320.85
588.89	14145.32
589.09	12863.29
589.28	11102.04
589.47	9531.25
589.67	7919.50
589.86	6565.79
590.06	4978.61
590.25	3934.15
590.44	3166.16
590.64	2574.30
590.83	2189.28
591.02	2144.22
591.22	1947.62
591.41	1959.91
591.60	1814.50
591.80	2002.91
591.99	1773.54
592.18	1738.73
592.38	1845.22
592.57	1728.49
592.76	1796.07
592.96	1830.88
593.15	1732.58
593.34	1875.94
593.54	1691.62
593.73	1748.97
593.92	1736.68
594.12	1689.57
594.31	1751.01
594.50	1757.16
594.70	1800.16
594.89	1871.84
595.08	1671.14
595.28	1789.92
595.47	1861.60
595.66	1730.53
595.86	1677.29
596.05	1714.15
596.24	1708.01
596.43	1826.79
596.63	1843.17
596.82	1728.49
597.01	1804.26
597.21	1808.36
597.40	1738.73
597.59	1732.58
597.79	1738.73
597.98	1742.82
598.17	1665.00
598.36	1755.11
598.56	1744.87
598.75	1761.25
598.94	1701.86
599.14	1796.07
599.33	1665.00
599.52	1718.25
599.71	1751.01
599.91	1755.11
600.10	1787.88
600.29	1675.24
600.48	1738.73
600.68	1683.43
600.87	1689.57
601.06	1683.43
601.26	1712.10
601.45	1746.92
601.64	1779.68
601.83	1718.25
602.03	1642.47
602.22	1660.90
602.41	1810.40
602.60	1857.51
602.80	1773.54
602.99	1689.57
603.18	1656.81
603.37	1718.25
603.57	1748.97
603.76	1765.35
603.95	1789.92
604.14	1669.09
604.34	1695.72
604.53	1802.21
604.72	1740.77
604.91	1751.01
605.10	1718.25
605.30	1644.52
605.49	1804.26
605.68	1796.07
605.87	1820.64
606.07	1710.05
606.26	1753.06
606.45	1759.21
606.64	1744.87
606.84	1671.14
607.03	1720.29
607.22	1746.92
607.41	1746.92
607.60	1730.53
607.80	1826.79
607.99	1665.00
608.18	1785.83
608.37	1710.05
608.56	1732.58
608.76	1732.58
608.95	1873.89
609.14	1652.71
609.33	1730.53
609.52	1763.30
609.72	1691.62
609.91	1857.51
610.10	1738.73
610.29	1791.97
610.48	1742.82
610.68	1718.25
610.87	1683.43
611.06	1779.68
611.25	1761.25
611.44	1732.58
611.63	1671.14
611.83	1830.88
612.02	1658.85
612.21	1849.32
612.40	1626.09
612.59	1656.81
612.79	1609.70
612.98	1798.12
613.17	1765.35
613.36	1718.25
613.55	1751.01
613.74	1656.81
613.93	1757.16
614.13	1699.81
614.32	1693.67
614.51	1814.50
614.70	1736.68
614.89	1667.05
615.08	1722.34
615.28	2037.73
615.47	1636.33
615.66	1726.44
615.85	1687.53
616.04	1726.44
616.23	1699.81
616.42	1695.72
616.62	1712.10
616.81	1701.86
617.00	1722.34
617.19	1740.77
617.38	1722.34
617.57	1714.15
617.76	1730.53
617.95	1734.63
618.15	1816.55
618.34	1824.74
618.53	1624.04
618.72	1740.77
618.91	1775.59
619.10	1765.35
619.29	1675.24
619.48	1742.82
619.68	1660.90
619.87	1730.53
620.06	1658.85
620.25	1601.51
620.44	1724.39
620.63	1677.29
620.82	1697.77
621.01	1679.33
621.20	1714.15
621.39	1714.15
621.59	1759.21
621.78	1724.39
621.97	1755.11
622.16	1681.38
622.35	1652.71
622.54	1781.73
622.73	1796.07
622.92	1654.76
623.11	1685.48
623.30	1677.29
623.49	1730.53
623.68	1621.99
623.88	1724.39
624.07	1617.90
624.26	1689.57
624.45	1736.68
624.64	1595.37
624.83	1695.72
625.02	1718.25
625.21	1718.25
625.40	1699.81
625.59	1732.58
625.78	1773.54
625.97	1802.21
626.16	1671.14
626.35	1701.86
626.54	1710.05
626.74	1781.73
626.93	1595.37
627.12	1683.43
627.31	1818.60
627.50	1742.82
627.69	1791.97
627.88	1624.04
628.07	1712.10
628.26	1552.36
628.45	1701.86
628.64	1708.01
628.83	1763.30
629.02	1646.57
629.21	1742.82
629.40	1654.76
629.59	1624.04
629.78	1714.15
629.97	1626.09
630.16	1724.39
630.35	1654.76
630.54	1736.68
630.73	1677.29
630.92	1658.85
631.11	1660.90
631.30	1730.53
631.49	1816.55
631.68	1765.35
631.87	1830.88
632.06	1681.38
632.25	1865.70
632.44	1652.71
632.63	1775.59
632.82	1673.19
633.01	1656.81
633.20	1636.33
633.39	1624.04
633.58	1572.84
633.77	1671.14
633.96	1738.73
634.15	1734.63
634.34	1652.71
634.53	1673.19
634.72	1658.85
634.91	1650.66
635.10	1740.77
635.29	1681.38
635.48	1726.44
635.67	1662.95
635.86	1656.81
636.05	1683.43
636.24	1742.82
636.43	1710.05
636.62	1748.97
636.81	1650.66
637.00	1718.25
637.19	1691.62
637.38	1697.77
637.57	1728.49
637.76	1632.23
637.95	1648.61
638.14	1701.86
638.33	1693.67
638.52	1640.42
638.71	1667.05
638.89	1593.32
639.08	1849.32
639.27	1710.05
639.46	1708.01
639.65	1877.99
639.84	1671.14
640.03	1695.72
640.22	1679.33
640.41	1828.84
640.60	1697.77
640.79	1740.77
640.98	1665.00
641.17	1765.35
641.36	1701.86
641.55	1716.20
641.74	1685.48
641.92	1683.43
642.11	1617.90
642.30	1730.53
642.49	1697.77
642.68	1730.53
642.87	1705.96
643.06	1730.53
643.25	1677.29
643.44	1660.90
643.63	1617.90
643.82	1771.49
644.00	1617.90
644.19	1689.57
644.38	1621.99
644.57	1783.78
644.76	1669.09
644.95	1724.39
645.14	1705.96
645.33	1691.62
645.52	1701.86
645.71	1644.52
645.89	1615.85
646.08	1751.01
646.27	1705.96
646.46	1855.46
646.65	1646.57
646.84	1609.70
647.03	1687.53
647.22	1753.06
647.40	1718.25
647.59	1710.05
647.78	1621.99
647.97	1587.18
648.16	1642.47
648.35	1724.39
648.54	1773.54
648.73	1673.19
648.91	1716.20
649.10	1677.29
649.29	1648.61
649.48	1724.39
649.67	1683.43
649.86	1718.25
650.05	1697.77
650.23	1710.05
650.42	1695.72
650.61	1796.07
650.80	1753.06
650.99	1816.55
651.18	1767.40
651.36	1787.88
651.55	1718.25
651.74	1710.05
651.93	1687.53
652.12	1728.49
652.31	1632.23
652.49	1656.81
652.68	1691.62
652.87	1742.82
653.06	1695.72
653.25	1781.73
653.44	1716.20
653.62	1773.54
653.81	1710.05
654.00	1722.34
654.19	1783.78
654.38	1832.93
654.56	1726.44
654.75	1632.23
654.94	1726.44
655.13	1751.01
655.32	1736.68
655.51	1748.97
655.69	1603.56
655.88	1730.53
656.07	1636.33
656.26	1716.20
656.45	1589.22
656.63	1626.09
656.82	1718.25
657.01	1728.49
657.20	1642.47
657.38	1722.34
657.57	1710.05
657.76	1658.85
657.95	1791.97
658.14	1656.81
658.32	1650.66
658.51	1642.47
658.70	1746.92
658.89	1705.96
659.08	1744.87
659.26	1759.21
659.45	1607.66
659.64	1705.96
659.83	1658.85
660.01	1816.55
660.20	1697.77
660.39	1746.92
660.58	1624.04
660.76	1726.44
660.95	1662.95
661.14	1667.05
661.33	1636.33
661.51	1611.75
661.70	1693.67
661.89	1724.39
662.08	1689.57
662.26	1658.85
662.45	1597.42
662.64	1834.98
662.83	1726.44
663.01	1656.81
663.20	1718.25
663.39	1806.31
663.58	1689.57
663.76	1673.19
663.95	1773.54
664.14	1665.00
664.32	1687.53
664.51	1675.24
664.70	1654.76
664.89	1726.44
665.07	1650.66
665.26	1687.53
665.45	1691.62
665.64	1730.53
665.82	1677.29
666.01	1785.83
666.20	1642.47
666.38	1746.92
666.57	1773.54
666.76	2191.33
666.95	4552.63
667.13	10334.05
667.32	15396.63
667.51	17862.38
667.69	19072.73
667.88	17688.31
668.07	12445.51
668.25	9486.19
668.44	8191.88
668.63	7350.16
668.81	6786.97
669.00	6490.01
669.19	5754.79
669.38	5250.99
669.56	4538.30
669.75	3860.42
669.94	3475.40
670.12	2867.16
670.31	2475.99
670.50	2328.54
670.68	2009.06
670.87	1912.80
671.06	1736.68
671.24	1755.11
671.43	1767.40
671.62	1787.88
671.80	1730.53
671.99	1732.58
672.18	1724.39
672.36	1685.48
672.55	1705.96
672.74	1701.86
672.92	1701.86
673.11	1697.77
673.29	1665.00
673.48	1789.92
673.67	1665.00
673.85	1804.26
674.04	1662.95
674.23	1748.97
674.41	1828.84
674.60	1642.47
674.79	1615.85
674.97	1693.67
675.16	1695.72
675.34	1705.96
675.53	1611.75
675.72	1748.97
675.90	1834.98
676.09	1710.05
676.28	1646.57
676.46	1531.88
676.65	1697.77
676.83	1599.46
677.02	1732.58
677.21	1746.92
677.39	1724.39
677.58	1705.96
677.77	1652.71
677.95	1648.61
678.14	1667.05
678.32	1671.14
678.51	1660.90
678.70	1773.54
678.88	1648.61
679.07	1753.06
679.25	1624.04
679.44	1660.90
679.63	1574.89
679.81	1722.34
680.00	1701.86
680.18	1738.73
680.37	1757.16
680.55	1669.09
680.74	1669.09
680.93	1619.94
681.11	1763.30
681.30	1656.81
681.48	1658.85
681.67	1697.77
681.85	1744.87
682.04	1658.85
682.23	1728.49
682.41	1718.25
682.60	1697.77
682.78	1634.28
682.97	1708.01
683.15	1650.66
683.34	1697.77
683.53	1808.36
683.71	1626.09
683.90	1769.44
684.08	1806.31
684.27	1691.62
684.45	1738.73
684.64	1755.11
684.82	1654.76
685.01	1720.29
685.19	1705.96
685.38	1830.88
685.57	1763.30
685.75	1642.47
685.94	1722.34
686.12	1599.46
686.31	1572.84
686.49	1755.11
686.68	1667.05
686.86	1703.91
687.05	1699.81
687.23	1789.92
687.42	1673.19
687.60	1560.55
687.79	1658.85
687.97	1820.64
688.16	1773.54
688.34	1720.29
688.53	1591.27
688.71	1699.81
688.90	1785.83
689.08	1697.77
689.27	1624.04
689.45	1720.29
689.64	1753.06
689.82	1738.73
690.01	1716.20
690.19	1677.29
690.38	1677.29
690.56	1697.77
690.75	1607.66
690.93	1736.68
691.12	1677.29
691.30	1687.53
691.49	1615.85
691.67	1642.47
691.86	1785.83
692.04	1679.33
692.23	1701.86
692.41	1669.09
692.60	1769.44
692.78	1683.43
692.97	1654.76
693.15	1714.15
693.34	1839.08
693.52	1751.01
693.71	1695.72
693.89	1601.51
694.08	1597.42
694.26	1759.21
694.44	1701.86
694.63	1744.87
694.81	1644.52
695.00	1642.47
695.18	1802.21
695.37	1796.07
695.55	1722.34
695.74	1624.04
695.92	1665.00
696.10	1791.97
696.29	1689.57
696.47	1626.09
696.66	1642.47
696.84	1669.09
697.03	1695.72
697.21	1679.33
697.40	2279.39
697.58	1806.31
697.76	1658.85
697.95	1611.75
698.13	1642.47
698.32	1654.76
698.50	1669.09
698.68	1773.54
698.87	1671.14
699.05	1798.12
699.24	1681.38
699.42	1652.71
699.61	1644.52
699.79	1718.25
699.97	1689.57
700.16	1683.43
700.34	1675.24
700.53	1583.08
700.71	1810.40
700.89	1732.58
701.08	1665.00
701.26	1763.30
701.45	2060.26
701.63	1716.20
701.81	1677.29
702.00	1689.57
702.18	1769.44
702.37	1648.61
702.55	1757.16
702.73	1675.24
702.92	1697.77
703.10	1705.96
703.28	1748.97
703.47	1675.24
703.65	1800.16
703.84	1699.81
704.02	1650.66
704.20	1820.64
704.39	1626.09
704.57	1677.29
704.75	1818.60
704.94	1708.01
705.12	1705.96
705.30	1763.30
705.49	2242.53
705.67	4356.03
705.86	9344.88
706.04	13027.13
706.22	14812.96
706.41	15548.18
706.59	14061.35
706.77	9652.08
706.96	7419.79
707.14	6727.58
707.32	6109.09
707.51	5644.20
707.69	4970.42
707.87	4339.65
708.06	3602.38
708.24	2963.41
708.42	2424.80
708.61	2207.71
708.79	1857.51
708.97	1785.83
709.16	1839.08
709.34	1769.44
709.52	1679.33
709.71	1730.53
709.89	1683.43
710.07	1660.90
710.26	1703.91
710.44	1656.81
710.62	1761.25
710.80	1671.14
710.99	1746.92
711.17	1695.72
711.35	1660.90
711.54	1687.53
711.72	1824.74
711.90	1708.01
712.09	1679.33
712.27	1652.71
712.45	1697.77
712.63	1705.96
712.82	1720.29
713.00	1757.16
713.18	1705.96
713.37	1722.34
713.55	1748.97
713.73	1755.11
713.91	1675.24
714.10	1681.38
714.28	1710.05
714.46	1679.33
714.65	1777.64
714.83	1671.14
715.01	1640.42
715.19	1695.72
715.38	1665.00
715.56	1665.00
715.74	1646.57
715.92	1638.38
716.11	1705.96
716.29	1632.23
716.47	1636.33
716.65	1656.81
716.84	1511.40
717.02	1791.97
717.20	1621.99
717.38	1675.24
717.57	1759.21
717.75	1757.16
717.93	1581.03
718.11	1738.73
718.30	1601.51
718.48	1677.29
718.66	1767.40
718.84	1753.06
719.03	1720.29
719.21	1712.10
719.39	1781.73
719.57	1775.59
719.75	1773.54
719.94	1642.47
720.12	1617.90
720.30	1681.38
720.48	1724.39
720.67	1624.04
720.85	1677.29
721.03	1755.11
721.21	1634.28
721.39	1738.73
721.58	1744.87
721.76	1636.33
721.94	1738.73
722.12	1769.44
722.30	1716.20
722.49	1650.66
722.67	1744.87
722.85	1732.58
723.03	1646.57
723.21	1605.61
723.40	1751.01
723.58	1771.49
723.76	1685.48
723.94	1765.35
724.12	1705.96
724.30	1742.82
724.49	1681.38
724.67	1644.52
724.85	1769.44
725.03	1626.09
725.21	1695.72
725.40	1703.91
725.58	1640.42
725.76	1742.82
725.94	1665.00
726.12	1642.47
726.30	1712.10
726.49	1685.48
726.67	1660.90
726.85	1773.54
727.03	1761.25
727.21	2105.31
727.39	2883.54
727.57	3739.59
727.76	4184.00
727.94	4495.29
728.12	4329.41
728.30	3788.74
728.48	3016.66
728.66	2719.70
728.84	2623.45
729.03	2299.87
729.21	2146.27
729.39	1986.53
729.57	1861.60
729.75	1746.92
729.93	1847.27
730.11	1683.43
730.30	1777.64
730.48	1695.72
730.66	1742.82
730.84	1759.21
731.02	1650.66
731.20	1736.68
731.38	1656.81
731.56	1679.33
731.74	1685.48
731.93	1710.05
732.11	1640.42
732.29	1611.75
732.47	1669.09
732.65	1673.19
732.83	1697.77
733.01	1681.38
733.19	1615.85
733.37	1734.63
733.56	1683.43
733.74	1626.09
733.92	1816.55
734.10	1689.57
734.28	1683.43
734.46	1601.51
734.64	1718.25
734.82	1656.81
735.00	1740.77
735.18	1714.15
735.36	1691.62
735.54	1638.38
735.73	1697.77
735.91	1757.16
736.09	1673.19
736.27	1697.77
736.45	1691.62
736.63	1566.70
736.81	1677.29
736.99	1632.23
737.17	1759.21
737.35	1652.71
737.53	1726.44
737.71	1722.34
737.89	1693.67
738.07	1640.42
738.25	1693.67
738.43	1634.28
738.61	1640.42
738.80	1636.33
738.98	1617.90
739.16	1714.15
739.34	1736.68
739.52	1759.21
739.70	1669.09
739.88	1771.49
740.06	1728.49
740.24	1648.61
740.42	1724.39
740.60	1656.81
740.78	1654.76
740.96	1542.12
741.14	1681.38
741.32	1675.24
741.50	1638.38
741.68	1855.46
741.86	1755.11
742.04	1562.60
742.22	1656.81
742.40	1763.30
742.58	1691.62
742.76	1656.81
742.94	1757.16
743.12	1675.24
743.30	1736.68
743.48	1632.23
743.66	1648.61
743.84	1677.29
744.02	1624.04
744.20	1710.05
744.38	1619.94
744.56	1667.05
744.74	1773.54
744.92	1757.16
745.10	1755.11
745.28	1718.25
745.46	1824.74
745.64	1636.33
745.82	1765.35
746.00	1769.44
746.18	1761.25
746.36	1689.57
746.54	1669.09
746.72	1701.86
746.90	1636.33
747.08	1742.82
747.26	1691.62
747.44	1691.62
747.62	1685.48
747.80	1734.63
747.98	1744.87
748.15	1683.43
748.33	1789.92
748.51	1660.90
748.69	1753.06
748.87	1699.81
749.05	1761.25
749.23	1636.33
749.41	1705.96
749.59	1699.81
749.77	1728.49
749.95	1656.81
750.13	1636.33
750.31	1695.72
750.49	1689.57
750.67	1755.11
750.85	1798.12
751.03	1710.05
751.20	1783.78
751.38	1671.14
751.56	1632.23
751.74	1667.05
751.92	1683.43
752.10	1669.09
752.28	1826.79
752.46	1636.33
752.64	1703.91
752.82	1650.66
753.00	1689.57
753.18	1607.66
753.35	1665.00
753.53	1636.33
753.71	1660.90
753.89	1693.67
754.07	1722.34
754.25	1724.39
754.43	1767.40
754.61	1689.57
754.79	1695.72
754.97	1705.96
755.14	1734.63
755.32	1640.42
755.50	1718.25
755.68	1710.05
755.86	1589.22
756.04	1681.38
756.22	1597.42
756.40	1730.53
756.57	1824.74
756.75	1615.85
756.93	1853.41
757.11	1687.53
757.29	1695.72
757.47	1642.47
757.65	1638.38
757.82	1613.80
758.00	1648.61
758.18	1605.61
758.36	1660.90
758.54	1742.82
758.72	1669.09
758.90	1777.64
759.07	1742.82
759.25	1578.98
759.43	1646.57
759.61	1593.32
759.79	2166.75
759.97	1779.68
760.15	1632.23
760.32	1613.80
760.50	1695.72
760.68	1722.34
760.86	1640.42
761.04	1783.78
761.22	1722.34
761.39	1734.63
761.57	1755.11
761.75	1619.94
761.93	1708.01
762.11	1626.09
762.28	1589.22
762.46	1599.46
762.64	1669.09
762.82	1634.28
763.00	1640.42
763.18	1765.35
763.35	1658.85
763.53	1734.63
763.71	1675.24
763.89	1708.01
764.07	1712.10
764.24	1724.39
764.42	1746.92
764.60	1644.52
764.78	1718.25
764.96	1789.92
765.13	1722.34
765.31	1677.29
765.49	1787.88
765.67	1683.43
765.84	1626.09
766.02	1648.61
766.20	1646.57
766.38	1789.92
766.56	1802.21
766.73	1779.68
766.91	1751.01
767.09	1685.48
767.27	1665.00
767.44	1634.28
767.62	1662.95
767.80	1710.05
767.98	1708.01
768.15	1679.33
768.33	1755.11
768.51	1751.01
768.69	1669.09
768.87	1675.24
769.04	1665.00
769.22	1755.11
769.40	1775.59
769.58	1798.12
769.75	1718.25
769.93	1675.24
770.11	1658.85
770.28	1597.42
770.46	1742.82
770.64	1683.43
770.82	1685.48
770.99	1624.04
771.17	1779.68
771.35	1669.09
771.53	1734.63
771.70	1632.23
771.88	1738.73
772.06	1724.39
772.23	1646.57
772.41	1630.18
772.59	1689.57
772.77	1529.83
772.94	1710.05
773.12	1763.30
773.30	1591.27
773.47	1677.29
773.65	1621.99
773.83	1726.44
774.01	1660.90
774.18	1595.37
774.36	1644.52
774.54	1636.33
774.71	1630.18
774.89	1628.14
775.07	1697.77
775.24	1679.33
775.42	1673.19
775.60	1789.92
775.78	1609.70
775.95	1683.43
776.13	1595.37
776.31	1576.94
776.48	1703.91
776.66	1781.73
776.84	1644.52
777.01	1628.14
777.19	1658.85
777.37	1742.82
777.54	1755.11
777.72	1890.28
777.90	1759.21
778.07	1748.97
778.25	1837.03
778.43	1744.87
778.60	1648.61
778.78	1718.25
778.96	1699.81
779.13	1652.71
779.31	1738.73
779.49	1646.57
779.66	1728.49
779.84	1681.38
780.01	1673.19
780.19	1634.28
780.37	1820.64
780.54	1720.29
780.72	1697.77
780.90	1726.44
781.07	1763.30
781.25	1656.81
781.43	1710.05
781.60	1626.09
781.78	1662.95
781.95	1665.00
782.13	1681.38
782.31	1675.24
782.48	1570.79
782.66	1634.28
782.83	1845.22
783.01	1671.14
783.19	1755.11
783.36	1626.09
783.54	1644.52
783.72	1660.90
783.89	1603.56
784.07	1740.77
784.24	1724.39
784.42	1753.06
784.60	1726.44
784.77	1718.25
784.95	1546.22
785.12	1644.52
785.30	1626.09
785.47	1628.14
785.65	1654.76
785.83	1621.99
786.00	1675.24
786.18	1734.63
786.35	1621.99
786.53	1652.71
786.71	1751.01
786.88	1689.57
787.06	1738.73
787.23	1710.05
787.41	1654.76
787.58	1710.05
787.76	1636.33
787.94	1642.47
788.11	1683.43
788.29	1619.94
788.46	1677.29
788.64	1658.85
788.81	1685.48
788.99	1658.85
789.16	1628.14
789.34	1593.32
789.52	1632.23
789.69	1718.25
789.87	1660.90
790.04	1720.29
790.22	1689.57
790.39	1839.08
790.57	1632.23
790.74	1624.04
790.92	1740.77
791.09	1632.23
791.27	1646.57
791.44	1794.02
791.62	1685.48
791.79	1691.62
791.97	1634.28
792.15	1837.03
792.32	1705.96
792.50	1734.63
792.67	1722.34
792.85	1710.05
793.02	1611.75
793.20	1683.43
793.37	1624.04
793.55	1714.15
793.72	1650.66
793.90	1658.85
794.07	1624.04
794.25	1609.70
794.42	1671.14
794.60	1660.90
794.77	1671.14
794.95	1742.82
795.12	1742.82
795.30	1691.62
795.47	1603.56
795.65	1816.55
795.82	1662.95
796.00	1701.86
796.17	1587.18
796.34	1697.77
796.52	1748.97
796.69	1736.68
796.87	1736.68
797.04	1718.25
797.22	1708.01
797.39	1671.14
797.57	1697.77
797.74	1697.77
797.92	1716.20
798.09	1665.00
798.27	1765.35
798.44	1740.77
798.62	1607.66
798.79	1775.59
798.96	1726.44
799.14	1705.96
799.31	1834.98
799.49	1603.56
799.66	1607.66
799.84	1656.81
800.01	1591.27
800.19	1759.21
800.36	1650.66
800.53	1720.29
800.71	1689.57
800.88	1748.97
801.06	1683.43
801.23	1646.57
801.41	1734.63
801.58	1660.90
801.75	1667.05
801.93	1708.01
802.10	1703.91
802.28	1689.57
802.45	1710.05
802.63	1734.63
802.80	1796.07
802.97	1796.07
803.15	1699.81
803.32	1634.28
803.50	1636.33
803.67	1660.90
803.84	1654.76
804.02	1726.44
804.19	1681.38
804.37	1619.94
804.54	1591.27
804.71	1644.52
804.89	1624.04
805.06	1595.37
805.24	1656.81
805.41	1574.89
805.58	1583.08
805.76	1798.12
805.93	1695.72
806.10	1777.64
806.28	1722.34
806.45	1699.81
806.63	1632.23
806.80	1693.67
806.97	1748.97
807.15	1642.47
807.32	1669.09
807.49	1673.19
807.67	1667.05
807.84	1730.53
808.01	1591.27
808.19	1796.07
808.36	1837.03
808.54	1728.49
808.71	1740.77
808.88	1683.43
809.06	1660.90
809.23	1775.59
809.40	1593.32
809.58	1730.53
809.75	1611.75
809.92	1601.51
810.10	1843.17
810.27	1683.43
810.44	1656.81
810.62	1708.01
810.79	1679.33
810.96	1652.71
811.14	1601.51
811.31	1669.09
811.48	1716.20
811.66	1630.18
811.83	1785.83
812.00	1783.78
812.18	1660.90
812.35	1808.36
812.52	1748.97
812.69	1677.29
812.87	1748.97
813.04	1656.81
813.21	1613.80
813.39	1650.66
813.56	1634.28
813.73	1671.14
813.91	1626.09
814.08	1730.53
814.25	1677.29
814.42	1589.22
814.60	1562.60
814.77	1744.87
814.94	1714.15
815.12	1734.63
815.29	1691.62
815.46	1576.94
815.63	1765.35
815.81	1714.15
815.98	1609.70
816.15	1636.33
816.33	1626.09
816.50	1746.92
816.67	1748.97
816.84	1652.71
817.02	1583.08
817.19	1699.81
817.36	1708.01
817.53	1687.53
817.71	1679.33
817.88	1675.24
818.05	1636.33
818.22	1665.00
818.40	1787.88
818.57	1712.10
818.74	1744.87
818.91	1710.05
819.09	1671.14
819.26	1714.15
819.43	1607.66
819.60	1722.34
819.78	1648.61
819.95	1781.73
820.12	1595.37
820.29	1787.88
820.47	1712.10
820.64	1634.28
820.81	1669.09
820.98	1681.38
821.15	1658.85
821.33	1705.96
821.50	1578.98
821.67	1693.67
821.84	1630.18
822.02	1699.81
822.19	1691.62
822.36	1683.43
822.53	1660.90
822.70	1630.18
822.88	1636.33
823.05	1777.64
823.22	1679.33
823.39	1646.57
823.56	1753.06
823.74	1748.97
823.91	1650.66
824.08	1632.23
824.25	1611.75
824.42	1730.53
824.60	1630.18
824.77	1732.58
824.94	1607.66
825.11	1658.85
825.28	1535.98
825.45	1656.81
825.63	1726.44
825.80	1677.29
825.97	1685.48
826.14	1730.53
826.31	1587.18
826.48	1724.39
826.66	1601.51
826.83	1681.38
827.00	1673.19
827.17	1624.04
827.34	1624.04
827.51	1591.27
827.69	1654.76
827.86	1611.75
828.03	1660.90
828.20	1757.16
828.37	1603.56
828.54	1624.04
828.71	1648.61
828.89	1755.11
829.06	1732.58
829.23	1673.19
829.40	1646.57
829.57	1673.19
829.74	1658.85
829.91	1660.90
830.09	1710.05
830.26	1611.75
830.43	1767.40
830.60	1679.33
830.77	1722.34
830.94	1695.72
831.11	1693.67
831.28	1665.00
831.46	1841.12
831.63	1675.24
831.80	1759.21
831.97	1673.19
832.14	1689.57
832.31	1716.20
832.48	1662.95
832.65	1714.15
832.82	1714.15
832.99	1658.85
833.17	1658.85
833.34	1785.83
833.51	1724.39
833.68	1578.98
833.85	1746.92
834.02	1648.61
834.19	1677.29
834.36	1603.56
834.53	1669.09
834.70	1724.39
834.87	1738.73
835.04	1693.67
835.22	1613.80
835.39	1689.57
835.56	1624.04
835.73	1658.85
835.90	1742.82
836.07	1697.77
836.24	1701.86
836.41	1660.90
836.58	1656.81
836.75	1673.19
836.92	1685.48
837.09	1667.05
837.26	1710.05
837.43	1669.09
837.60	1697.77
837.77	1746.92
837.94	1703.91
838.12	1685.48
838.29	1665.00
838.46	1656.81
838.63	1628.14
838.80	1736.68
838.97	1738.73
839.14	1712.10
839.31	1677.29
839.48	1705.96
839.65	1624.04
839.82	1736.68
839.99	1615.85
840.16	1746.92
840.33	1634.28
840.50	1720.29
840.67	1648.61
840.84	1544.17
841.01	1773.54
841.18	1675.24
841.35	1722.34
841.52	1769.44
841.69	1837.03
841.86	1716.20
842.03	1671.14
842.20	1732.58
842.37	1562.60
842.54	1703.91
842.71	1699.81
842.88	1558.50
843.05	1738.73
843.22	1697.77
843.39	1677.29
843.56	1673.19
843.73	1677.29
843.90	1712.10
844.07	1759.21
844.24	1767.40
844.41	1724.39
844.58	1714.15
844.75	1683.43
844.92	1757.16
845.09	1685.48
845.26	1601.51
845.43	1712.10
845.60	1693.67
845.77	1761.25
845.94	1673.19
846.10	1701.86
846.27	1570.79
846.44	1658.85
846.61	1611.75
846.78	1640.42
846.95	1767.40
847.12	1628.14
847.29	1787.88
847.46	1595.37
847.63	1669.09
847.80	1652.71
847.97	1634.28
848.14	1689.57
848.31	1665.00
848.48	1607.66
848.65	1759.21
848.82	1640.42
848.98	1871.84
849.15	1724.39
849.32	1773.54
849.49	1701.86
849.66	1681.38
849.83	1654.76
850.00	1583.08
850.17	1693.67
850.34	1697.77
850.51	1728.49
850.68	1671.14
850.85	1767.40
851.01	1718.25
851.18	1718.25
851.35	1730.53
851.52	1689.57
851.69	1740.77
851.86	1613.80
852.03	1718.25
852.20	1742.82
852.37	1683.43
852.53	1581.03
852.70	1609.70
852.87	1673.19
853.04	1740.77
853.21	1652.71
853.38	1759.21
853.55	1736.68
853.72	1761.25
853.89	1603.56
854.05	1675.24
854.22	1695.72
854.39	1632.23
854.56	1697.77
854.73	1726.44
854.90	1599.46
855.07	1665.00
855.23	1617.90
855.40	1695.72
855.57	1683.43
855.74	1673.19
855.91	1898.47
856.08	1675.24
856.25	1648.61
856.41	1615.85
856.58	1697.77
856.75	1722.34
856.92	1626.09
857.09	1714.15
857.26	1570.79
857.42	1654.76
857.59	1757.16
857.76	1630.18
857.93	1712.10
858.10	1773.54
858.27	1675.24
858.43	1665.00
858.60	1630.18
858.77	1642.47
858.94	1654.76
859.11	1738.73
859.27	1667.05
859.44	1753.06
859.61	1742.82
859.78	1771.49
859.95	1658.85
860.12	1638.38
860.28	1812.45
860.45	1822.69
860.62	1693.67
860.79	1708.01
860.95	1632.23
861.12	1685.48
861.29	1753.06
861.46	1689.57
861.63	1634.28
861.79	1679.33
861.96	1650.66
862.13	1660.90
862.30	1722.34
862.47	1648.61
862.63	1636.33
862.80	1728.49
862.97	1777.64
863.14	1726.44
863.30	1732.58
863.47	1691.62
863.64	1730.53
863.81	1701.86
863.97	1718.25
864.14	1667.05
864.31	1722.34
864.48	1675.24
864.65	1693.67
864.81	1677.29
864.98	1714.15
865.15	1726.44
865.32	1781.73
865.48	1714.15
865.65	1740.77
865.82	1718.25
865.98	1710.05
866.15	1781.73
866.32	1687.53
866.49	1609.70
866.65	1767.40
866.82	1626.09
866.99	1683.43
867.16	1658.85
867.32	1671.14
867.49	1699.81
867.66	1615.85
867.83	1648.61
867.99	1605.61
868.16	1650.66
868.33	1665.00
868.49	1648.61
868.66	1617.90
868.83	1728.49
868.99	1734.63
869.16	1724.39
869.33	1705.96
869.50	1746.92
869.66	1669.09
869.83	1673.19
870.00	1587.18
870.16	1722.34
870.33	1701.86
870.50	1718.25
870.66	1710.05
870.83	1806.31
871.00	1697.77
871.17	1708.01
871.33	1669.09
871.50	1718.25
871.67	1701.86
871.83	1615.85
872.00	1777.64
872.17	1662.95
872.33	1716.20
872.50	1722.34
872.67	1607.66
872.83	1642.47
873.00	1675.24
873.17	1673.19
873.33	1841.12
873.50	1712.10
873.67	1679.33
873.83	1710.05
874.00	1644.52
874.16	1681.38
874.33	1669.09
874.50	1615.85
874.66	1759.21
874.83	1640.42
875.00	1703.91
875.16	1712.10
875.33	1736.68
875.50	1533.93
875.66	1621.99
875.83	1685.48
875.99	1732.58
876.16	1660.90
876.33	1644.52
876.49	1757.16
876.66	1705.96
876.83	1701.86
876.99	1574.89
877.16	1658.85
877.32	1630.18
877.49	1591.27
877.66	1681.38
877.82	1728.49
877.99	1677.29
878.15	1796.07
878.32	1681.38
878.49	1732.58
878.65	1693.67
878.82	1783.78
878.98	1673.19
879.15	1775.59
879.32	1720.29
879.48	1607.66
879.65	1642.47
879.81	1646.57
879.98	1675.24
880.15	1720.29
880.31	1673.19
880.48	1630.18
880.64	1742.82
880.81	1746.92
880.97	1748.97
881.14	1726.44
881.31	1632.23
881.47	1767.40
881.64	1722.34
881.80	1566.70
881.97	1695.72
882.13	1656.81
882.30	1617.90
882.47	1650.66
882.63	1611.75
882.80	1685.48
882.96	1712.10
883.13	1714.15
883.29	1689.57
883.46	1689.57
883.62	1804.26
883.79	1699.81
883.95	1753.06
884.12	1679.33
884.29	1740.77
884.45	1677.29
884.62	1757.16
884.78	1638.38
884.95	1705.96
885.11	1656.81
885.28	1712.10
885.44	1722.34
885.61	1714.15
885.77	1701.86
885.94	1726.44
886.10	1685.48
886.27	1646.57
886.43	1697.77
886.60	1726.44
886.76	1640.42
886.93	1609.70
887.09	1761.25
887.26	1601.51
887.42	1689.57
887.59	1806.31
887.75	1732.58
887.92	1658.85
888.08	1738.73
888.25	1800.16
888.41	1693.67
888.58	1593.32
888.74	1634.28
888.91	1593.32
>>>>>End Processed Spectral Data<<<<<
