SpectraSuite Data File
++++++++++++++++++++++++++++++++++++
Date: Mon Jun 06 13:55:57 CEST 2016
User: root
Dark Spectrum Present: No
Reference Spectrum Present: No
Number of Sampled Component Spectra: 1
Spectrometers: USB4C02835
Integration Time (usec): 100000 (USB4C02835)
Spectra Averaged: 1 (USB4C02835)
Boxcar Smoothing: 0 (USB4C02835)
Correct for Electrical Dark: No (USB4C02835)
Strobe/Lamp Enabled: No (USB4C02835)
Correct for Detector Non-linearity: No (USB4C02835)
Correct for Stray Light: No (USB4C02835)
Number of Pixels in Processed Spectrum: 3648
>>>>>Begin Processed Spectral Data<<<<<
177.47	1431.53
177.69	1431.53
177.91	1431.53
178.13	1501.16
178.36	1423.34
178.58	1636.33
178.80	1732.58
179.02	1648.61
179.24	1611.75
179.46	1658.85
179.68	1701.86
179.90	1671.14
180.13	1667.05
180.35	1599.46
180.57	1730.53
180.79	1708.01
181.01	1679.33
181.23	1746.92
181.45	1748.97
181.67	1673.19
181.90	1740.77
182.12	1662.95
182.34	1693.67
182.56	1761.25
182.78	1738.73
183.00	1644.52
183.22	1726.44
183.44	1650.66
183.66	1830.88
183.89	1785.83
184.11	1701.86
184.33	1820.64
184.55	1763.30
184.77	1603.56
184.99	1636.33
185.21	1632.23
185.43	1755.11
185.65	1720.29
185.87	1689.57
186.10	1755.11
186.32	1798.12
186.54	1722.34
186.76	1753.06
186.98	1675.24
187.20	1658.85
187.42	1654.76
187.64	1769.44
187.86	1697.77
188.08	1785.83
188.30	1593.32
188.52	1689.57
188.75	1779.68
188.97	1783.78
189.19	1757.16
189.41	1677.29
189.63	1746.92
189.85	1671.14
190.07	1677.29
190.29	1705.96
190.51	1742.82
190.73	1648.61
190.95	1730.53
191.17	1751.01
191.39	1636.33
191.61	1634.28
191.84	1628.14
192.06	1742.82
192.28	1671.14
192.50	1841.12
192.72	1728.49
192.94	1714.15
193.16	1806.31
193.38	1673.19
193.60	1646.57
193.82	1673.19
194.04	1828.84
194.26	1746.92
194.48	1667.05
194.70	1683.43
194.92	1648.61
195.14	1755.11
195.36	1544.17
195.58	1730.53
195.80	1615.85
196.02	1689.57
196.24	1705.96
196.46	1755.11
196.69	1671.14
196.91	1830.88
197.13	1658.85
197.35	1675.24
197.57	1798.12
197.79	1689.57
198.01	1753.06
198.23	1695.72
198.45	1738.73
198.67	1662.95
198.89	1660.90
199.11	1673.19
199.33	1669.09
199.55	1503.21
199.77	1708.01
199.99	1763.30
200.21	1693.67
200.43	1656.81
200.65	1613.80
200.87	1570.79
201.09	1773.54
201.31	1607.66
201.53	1763.30
201.75	1755.11
201.97	1710.05
202.19	1667.05
202.41	1746.92
202.63	1832.93
202.85	1660.90
203.07	1669.09
203.29	1642.47
203.51	1677.29
203.73	1650.66
203.95	1900.52
204.17	1685.48
204.39	1787.88
204.61	1681.38
204.83	1648.61
205.05	1736.68
205.27	1730.53
205.49	1871.84
205.71	1658.85
205.93	1681.38
206.15	1714.15
206.37	1656.81
206.59	1681.38
206.81	1621.99
207.03	1648.61
207.25	1624.04
207.47	1751.01
207.69	1802.21
207.91	1787.88
208.13	1814.50
208.34	1630.18
208.56	1689.57
208.78	1722.34
209.00	1638.38
209.22	1701.86
209.44	1683.43
209.66	1669.09
209.88	1783.78
210.10	1656.81
210.32	1683.43
210.54	1800.16
210.76	1660.90
210.98	1787.88
211.20	1566.70
211.42	1738.73
211.64	1736.68
211.86	1693.67
212.08	1787.88
212.30	1810.40
212.52	1689.57
212.74	1703.91
212.96	1726.44
213.17	1712.10
213.39	1738.73
213.61	1796.07
213.83	1734.63
214.05	1722.34
214.27	1816.55
214.49	1667.05
214.71	1652.71
214.93	1693.67
215.15	1652.71
215.37	1703.91
215.59	1570.79
215.81	1796.07
216.03	1757.16
216.24	1675.24
216.46	1665.00
216.68	1703.91
216.90	1757.16
217.12	1703.91
217.34	1718.25
217.56	1693.67
217.78	1742.82
218.00	1705.96
218.22	1615.85
218.44	1656.81
218.66	1685.48
218.87	1804.26
219.09	1652.71
219.31	1665.00
219.53	1708.01
219.75	1685.48
219.97	1675.24
220.19	1675.24
220.41	1677.29
220.63	1736.68
220.85	1730.53
221.06	1656.81
221.28	1798.12
221.50	1767.40
221.72	1701.86
221.94	1675.24
222.16	1701.86
222.38	1746.92
222.60	1798.12
222.82	1699.81
223.03	1736.68
223.25	1665.00
223.47	1771.49
223.69	1884.13
223.91	1648.61
224.13	1751.01
224.35	1648.61
224.57	1746.92
224.78	1748.97
225.00	1624.04
225.22	1705.96
225.44	1656.81
225.66	1722.34
225.88	1705.96
226.10	1718.25
226.32	1761.25
226.53	1734.63
226.75	1669.09
226.97	1681.38
227.19	1665.00
227.41	1701.86
227.63	1599.46
227.85	1636.33
228.06	1660.90
228.28	1718.25
228.50	1751.01
228.72	1611.75
228.94	1734.63
229.16	1624.04
229.37	1632.23
229.59	1654.76
229.81	1806.31
230.03	1716.20
230.25	1679.33
230.47	1658.85
230.69	1685.48
230.90	1771.49
231.12	1613.80
231.34	1748.97
231.56	1755.11
231.78	1628.14
232.00	1701.86
232.21	1718.25
232.43	1695.72
232.65	1701.86
232.87	1712.10
233.09	1683.43
233.30	1736.68
233.52	1796.07
233.74	1658.85
233.96	1683.43
234.18	1738.73
234.40	1726.44
234.61	1781.73
234.83	1640.42
235.05	1605.61
235.27	1824.74
235.49	1753.06
235.70	1691.62
235.92	1779.68
236.14	1708.01
236.36	1787.88
236.58	1597.42
236.79	1775.59
237.01	1765.35
237.23	1740.77
237.45	1779.68
237.67	1677.29
237.88	1738.73
238.10	1806.31
238.32	1640.42
238.54	1738.73
238.76	1718.25
238.97	1697.77
239.19	1630.18
239.41	1775.59
239.63	1785.83
239.85	1689.57
240.06	1701.86
240.28	1611.75
240.50	1685.48
240.72	1681.38
240.93	1679.33
241.15	1689.57
241.37	1687.53
241.59	1703.91
241.81	1705.96
242.02	1679.33
242.24	1744.87
242.46	1714.15
242.68	1662.95
242.89	1730.53
243.11	1728.49
243.33	1609.70
243.55	1757.16
243.76	1720.29
243.98	1628.14
244.20	1710.05
244.42	1695.72
244.64	1742.82
244.85	1708.01
245.07	1568.74
245.29	1679.33
245.51	1718.25
245.72	1769.44
245.94	1703.91
246.16	1789.92
246.38	1753.06
246.59	1718.25
246.81	1671.14
247.03	1658.85
247.24	1640.42
247.46	1673.19
247.68	1656.81
247.90	1732.58
248.11	1689.57
248.33	1701.86
248.55	1695.72
248.77	1748.97
248.98	1773.54
249.20	1800.16
249.42	1667.05
249.64	1683.43
249.85	1728.49
250.07	1609.70
250.29	1740.77
250.50	1753.06
250.72	1662.95
250.94	1705.96
251.16	1794.02
251.37	1800.16
251.59	1701.86
251.81	1714.15
252.02	1767.40
252.24	1628.14
252.46	1761.25
252.68	1650.66
252.89	1742.82
253.11	1617.90
253.33	1804.26
253.54	1738.73
253.76	1578.98
253.98	1644.52
254.20	1607.66
254.41	1554.41
254.63	1667.05
254.85	1607.66
255.06	1728.49
255.28	1730.53
255.50	1650.66
255.71	1597.42
255.93	1679.33
256.15	1714.15
256.36	1734.63
256.58	1689.57
256.80	1724.39
257.02	1669.09
257.23	1701.86
257.45	1687.53
257.67	1781.73
257.88	1701.86
258.10	1691.62
258.32	1654.76
258.53	1755.11
258.75	1783.78
258.97	1724.39
259.18	1718.25
259.40	1701.86
259.62	1796.07
259.83	1794.02
260.05	1701.86
260.27	2043.87
260.48	1781.73
260.70	1619.94
260.92	1609.70
261.13	1705.96
261.35	1710.05
261.57	1740.77
261.78	1628.14
262.00	1689.57
262.22	1755.11
262.43	1658.85
262.65	1722.34
262.86	1708.01
263.08	1800.16
263.30	1673.19
263.51	1607.66
263.73	1710.05
263.95	1798.12
264.16	1644.52
264.38	1636.33
264.60	1667.05
264.81	1695.72
265.03	1779.68
265.25	1761.25
265.46	1667.05
265.68	1665.00
265.89	1671.14
266.11	1566.70
266.33	1787.88
266.54	1708.01
266.76	1751.01
266.98	1734.63
267.19	1796.07
267.41	1812.45
267.62	1640.42
267.84	1693.67
268.06	1775.59
268.27	1738.73
268.49	1761.25
268.70	1802.21
268.92	1642.47
269.14	1671.14
269.35	1619.94
269.57	1748.97
269.79	1673.19
270.00	1595.37
270.22	1773.54
270.43	1648.61
270.65	1552.36
270.87	1714.15
271.08	1748.97
271.30	1687.53
271.51	1656.81
271.73	1705.96
271.95	1800.16
272.16	1671.14
272.38	1742.82
272.59	1716.20
272.81	1736.68
273.02	1691.62
273.24	1849.32
273.46	1681.38
273.67	1636.33
273.89	1665.00
274.10	1708.01
274.32	1785.83
274.54	1751.01
274.75	1767.40
274.97	1656.81
275.18	1687.53
275.40	1789.92
275.61	1703.91
275.83	1683.43
276.05	1722.34
276.26	1705.96
276.48	1736.68
276.69	1669.09
276.91	1671.14
277.12	1755.11
277.34	1691.62
277.55	1798.12
277.77	1718.25
277.99	1671.14
278.20	1613.80
278.42	1654.76
278.63	1619.94
278.85	1595.37
279.06	1644.52
279.28	1701.86
279.49	1837.03
279.71	1738.73
279.93	1751.01
280.14	1722.34
280.36	1617.90
280.57	1763.30
280.79	1808.36
281.00	1681.38
281.22	1648.61
281.43	1783.78
281.65	1603.56
281.86	1734.63
282.08	1669.09
282.29	1796.07
282.51	1617.90
282.73	1689.57
282.94	1595.37
283.16	1751.01
283.37	1724.39
283.59	1654.76
283.80	1687.53
284.02	1636.33
284.23	1718.25
284.45	1794.02
284.66	1660.90
284.88	1669.09
285.09	1662.95
285.31	1685.48
285.52	1662.95
285.74	1652.71
285.95	1775.59
286.17	1738.73
286.38	1734.63
286.60	1619.94
286.81	1615.85
287.03	1697.77
287.24	1751.01
287.46	1648.61
287.67	1652.71
287.89	1771.49
288.10	1703.91
288.32	1703.91
288.53	1820.64
288.75	1675.24
288.96	1763.30
289.18	1730.53
289.39	1669.09
289.61	1787.88
289.82	1812.45
290.04	1804.26
290.25	1712.10
290.47	1617.90
290.68	1660.90
290.90	1726.44
291.11	1603.56
291.33	1677.29
291.54	1687.53
291.76	1718.25
291.97	1744.87
292.18	1775.59
292.40	1644.52
292.61	1646.57
292.83	1806.31
293.04	1640.42
293.26	1738.73
293.47	1679.33
293.69	1712.10
293.90	1701.86
294.12	1812.45
294.33	1695.72
294.55	1658.85
294.76	1775.59
294.97	1804.26
295.19	1757.16
295.40	1636.33
295.62	1693.67
295.83	1699.81
296.05	1609.70
296.26	1828.84
296.48	1671.14
296.69	1691.62
296.90	1687.53
297.12	1748.97
297.33	1785.83
297.55	1650.66
297.76	1697.77
297.98	1710.05
298.19	1650.66
298.41	1732.58
298.62	1685.48
298.83	1753.06
299.05	1724.39
299.26	1685.48
299.48	1624.04
299.69	1730.53
299.90	1667.05
300.12	1630.18
300.33	1761.25
300.55	1783.78
300.76	1703.91
300.98	1648.61
301.19	1662.95
301.40	1687.53
301.62	1603.56
301.83	1714.15
302.05	1665.00
302.26	1644.52
302.47	1791.97
302.69	1601.51
302.90	1689.57
303.12	1595.37
303.33	1761.25
303.54	1832.93
303.76	1667.05
303.97	1710.05
304.19	1804.26
304.40	1632.23
304.61	1751.01
304.83	1781.73
305.04	1765.35
305.26	1742.82
305.47	1638.38
305.68	1650.66
305.90	1640.42
306.11	1720.29
306.33	1683.43
306.54	1718.25
306.75	1662.95
306.97	1624.04
307.18	1667.05
307.39	1660.90
307.61	1730.53
307.82	1675.24
308.04	1726.44
308.25	1585.13
308.46	1689.57
308.68	1714.15
308.89	1665.00
309.10	1748.97
309.32	1689.57
309.53	1720.29
309.74	1751.01
309.96	1722.34
310.17	1773.54
310.39	1642.47
310.60	1726.44
310.81	1718.25
311.03	1642.47
311.24	1652.71
311.45	1669.09
311.67	1808.36
311.88	1751.01
312.09	1673.19
312.31	1697.77
312.52	1738.73
312.73	1685.48
312.95	1531.88
313.16	1667.05
313.37	1755.11
313.59	1755.11
313.80	1730.53
314.01	1816.55
314.23	1656.81
314.44	1787.88
314.65	1607.66
314.87	1662.95
315.08	1738.73
315.29	1665.00
315.51	1695.72
315.72	1681.38
315.93	1886.18
316.15	1738.73
316.36	1630.18
316.57	1681.38
316.79	1730.53
317.00	1626.09
317.21	1708.01
317.43	1665.00
317.64	1757.16
317.85	1654.76
318.07	1691.62
318.28	1724.39
318.49	1841.12
318.70	1951.71
318.92	1744.87
319.13	1871.84
319.34	1871.84
319.56	1781.73
319.77	1753.06
319.98	1824.74
320.20	1748.97
320.41	1810.40
320.62	1685.48
320.83	1617.90
321.05	1853.41
321.26	1800.16
321.47	1679.33
321.69	1753.06
321.90	1628.14
322.11	1738.73
322.32	1765.35
322.54	1746.92
322.75	1628.14
322.96	1783.78
323.18	1626.09
323.39	1540.07
323.60	1656.81
323.81	1773.54
324.03	1683.43
324.24	1699.81
324.45	1751.01
324.66	1671.14
324.88	1779.68
325.09	1712.10
325.30	1617.90
325.52	1697.77
325.73	1685.48
325.94	1757.16
326.15	1656.81
326.37	1667.05
326.58	1787.88
326.79	1773.54
327.00	1654.76
327.22	1736.68
327.43	1628.14
327.64	1562.60
327.85	1689.57
328.07	1693.67
328.28	1714.15
328.49	1630.18
328.70	1697.77
328.92	1724.39
329.13	1691.62
329.34	1611.75
329.55	1748.97
329.76	1740.77
329.98	1712.10
330.19	1730.53
330.40	1791.97
330.61	1648.61
330.83	1681.38
331.04	1732.58
331.25	1679.33
331.46	1650.66
331.68	1613.80
331.89	1759.21
332.10	1685.48
332.31	1654.76
332.52	1675.24
332.74	1755.11
332.95	1658.85
333.16	1574.89
333.37	1769.44
333.58	1705.96
333.80	1734.63
334.01	1648.61
334.22	1693.67
334.43	1673.19
334.64	1642.47
334.86	1638.38
335.07	1683.43
335.28	1759.21
335.49	1593.32
335.70	1712.10
335.92	1787.88
336.13	1832.93
336.34	1667.05
336.55	1746.92
336.76	1701.86
336.98	1585.13
337.19	1605.61
337.40	1857.51
337.61	1851.36
337.82	1652.71
338.04	1769.44
338.25	1607.66
338.46	1695.72
338.67	1718.25
338.88	1656.81
339.09	1583.08
339.31	1718.25
339.52	1640.42
339.73	1632.23
339.94	1675.24
340.15	1689.57
340.36	1665.00
340.58	1667.05
340.79	1675.24
341.00	1683.43
341.21	1699.81
341.42	1812.45
341.63	1683.43
341.85	1820.64
342.06	1722.34
342.27	1613.80
342.48	1837.03
342.69	1595.37
342.90	1726.44
343.12	1763.30
343.33	1632.23
343.54	1763.30
343.75	1783.78
343.96	1732.58
344.17	1685.48
344.38	1679.33
344.60	1701.86
344.81	1656.81
345.02	1773.54
345.23	1785.83
345.44	1806.31
345.65	1785.83
345.86	1716.20
346.07	1699.81
346.29	1705.96
346.50	1767.40
346.71	1765.35
346.92	1806.31
347.13	1820.64
347.34	1683.43
347.55	1710.05
347.76	1740.77
347.98	1613.80
348.19	1648.61
348.40	1814.50
348.61	1632.23
348.82	1742.82
349.03	1763.30
349.24	1648.61
349.45	1771.49
349.66	1560.55
349.88	1716.20
350.09	1662.95
350.30	1847.27
350.51	1808.36
350.72	1685.48
350.93	1701.86
351.14	1607.66
351.35	1734.63
351.56	1714.15
351.77	1759.21
351.99	1708.01
352.20	1798.12
352.41	1656.81
352.62	1576.94
352.83	1599.46
353.04	1644.52
353.25	1658.85
353.46	1746.92
353.67	1710.05
353.88	1574.89
354.09	1642.47
354.30	1718.25
354.52	1673.19
354.73	1755.11
354.94	1722.34
355.15	1722.34
355.36	1789.92
355.57	1705.96
355.78	1761.25
355.99	1667.05
356.20	1611.75
356.41	1763.30
356.62	1675.24
356.83	1691.62
357.04	1783.78
357.25	1697.77
357.46	1683.43
357.68	1675.24
357.89	1662.95
358.10	1652.71
358.31	1699.81
358.52	1716.20
358.73	1630.18
358.94	1681.38
359.15	1753.06
359.36	1740.77
359.57	1753.06
359.78	1763.30
359.99	1705.96
360.20	1617.90
360.41	1654.76
360.62	1757.16
360.83	1728.49
361.04	1753.06
361.25	1658.85
361.46	1755.11
361.67	1658.85
361.88	1675.24
362.09	1777.64
362.30	1734.63
362.51	1705.96
362.72	1755.11
362.93	1806.31
363.14	1798.12
363.35	1734.63
363.56	1671.14
363.78	1755.11
363.99	1777.64
364.20	1720.29
364.41	1697.77
364.62	1791.97
364.83	1732.58
365.04	1621.99
365.25	1763.30
365.46	1751.01
365.67	1679.33
365.88	1667.05
366.09	1667.05
366.30	1701.86
366.51	1734.63
366.72	1636.33
366.93	1650.66
367.14	1798.12
367.35	1773.54
367.56	1660.90
367.77	1798.12
367.98	1685.48
368.18	1667.05
368.39	1720.29
368.60	1640.42
368.81	1826.79
369.02	1759.21
369.23	1685.48
369.44	1591.27
369.65	1746.92
369.86	1775.59
370.07	1701.86
370.28	1603.56
370.49	1681.38
370.70	1783.78
370.91	1662.95
371.12	1634.28
371.33	1761.25
371.54	1685.48
371.75	1755.11
371.96	1621.99
372.17	1681.38
372.38	1656.81
372.59	1738.73
372.80	1708.01
373.01	1656.81
373.22	1658.85
373.43	1687.53
373.64	1585.13
373.85	1763.30
374.06	1785.83
374.26	1705.96
374.47	1718.25
374.68	1802.21
374.89	1712.10
375.10	1648.61
375.31	1699.81
375.52	1738.73
375.73	1701.86
375.94	1669.09
376.15	1771.49
376.36	1689.57
376.57	1671.14
376.78	1740.77
376.99	1640.42
377.20	1701.86
377.40	1640.42
377.61	1820.64
377.82	1714.15
378.03	1748.97
378.24	1785.83
378.45	1673.19
378.66	1642.47
378.87	1552.36
379.08	1648.61
379.29	1703.91
379.50	1783.78
379.71	1624.04
379.91	1742.82
380.12	1755.11
380.33	1652.71
380.54	1718.25
380.75	1677.29
380.96	1742.82
381.17	1705.96
381.38	1679.33
381.59	1681.38
381.80	1767.40
382.00	1859.56
382.21	1726.44
382.42	1789.92
382.63	1929.19
382.84	1714.15
383.05	1765.35
383.26	1808.36
383.47	1740.77
383.68	1775.59
383.88	1630.18
384.09	1712.10
384.30	1839.08
384.51	1728.49
384.72	1693.67
384.93	1665.00
385.14	1703.91
385.35	1839.08
385.55	1673.19
385.76	1871.84
385.97	1644.52
386.18	1650.66
386.39	1687.53
386.60	1650.66
386.81	1636.33
387.02	1660.90
387.22	1712.10
387.43	1689.57
387.64	1796.07
387.85	1853.41
388.06	2297.82
388.27	4366.27
388.48	6852.50
388.68	8460.16
388.89	10016.62
389.10	9889.64
389.31	8548.22
389.52	7774.09
389.73	6811.54
389.93	6299.55
390.14	5842.85
390.35	5261.23
390.56	4548.54
390.77	3766.21
390.98	3084.24
391.18	2482.14
391.39	2093.02
391.60	1849.32
391.81	1730.53
392.02	1660.90
392.23	1880.04
392.43	1726.44
392.64	1812.45
392.85	1697.77
393.06	1839.08
393.27	1710.05
393.47	1714.15
393.68	1730.53
393.89	1726.44
394.10	1673.19
394.31	1621.99
394.52	1720.29
394.72	1714.15
394.93	1834.98
395.14	1626.09
395.35	1734.63
395.56	1615.85
395.76	1744.87
395.97	1744.87
396.18	1869.80
396.39	1888.23
396.60	2031.58
396.80	1912.80
397.01	1765.35
397.22	1923.04
397.43	1832.93
397.64	1779.68
397.84	1748.97
398.05	1920.99
398.26	1705.96
398.47	1675.24
398.67	1759.21
398.88	1693.67
399.09	1806.31
399.30	1757.16
399.51	1787.88
399.71	1748.97
399.92	1757.16
400.13	1751.01
400.34	1685.48
400.54	1695.72
400.75	1865.70
400.96	1708.01
401.17	1806.31
401.37	1701.86
401.58	1718.25
401.79	1712.10
402.00	1859.56
402.21	2015.20
402.41	1867.75
402.62	1976.29
402.83	2058.21
403.04	1974.24
403.24	2101.22
403.45	1880.04
403.66	1890.28
403.87	1808.36
404.07	1859.56
404.28	1935.33
404.49	1877.99
404.70	1748.97
404.90	1814.50
405.11	1748.97
405.32	1763.30
405.52	1619.94
405.73	1660.90
405.94	1660.90
406.15	1695.72
406.35	1728.49
406.56	1808.36
406.77	1789.92
406.98	1718.25
407.18	1630.18
407.39	1742.82
407.60	1656.81
407.80	1683.43
408.01	1697.77
408.22	1708.01
408.43	1695.72
408.63	1730.53
408.84	1720.29
409.05	1798.12
409.25	1611.75
409.46	1615.85
409.67	1621.99
409.88	1599.46
410.08	1748.97
410.29	1648.61
410.50	1714.15
410.70	1742.82
410.91	1701.86
411.12	1748.97
411.32	1644.52
411.53	1634.28
411.74	1734.63
411.95	1783.78
412.15	1779.68
412.36	1785.83
412.57	1818.60
412.77	1796.07
412.98	1714.15
413.19	1703.91
413.39	1740.77
413.60	1779.68
413.81	1740.77
414.01	1640.42
414.22	1712.10
414.43	1753.06
414.63	1636.33
414.84	1841.12
415.05	1724.39
415.25	1605.61
415.46	1796.07
415.67	1654.76
415.87	1775.59
416.08	1691.62
416.29	1697.77
416.49	1767.40
416.70	1665.00
416.91	1634.28
417.11	1755.11
417.32	1773.54
417.53	1769.44
417.73	1746.92
417.94	1679.33
418.15	1730.53
418.35	1640.42
418.56	1728.49
418.77	1818.60
418.97	1683.43
419.18	1658.85
419.38	1650.66
419.59	1736.68
419.80	1732.58
420.00	1619.94
420.21	1736.68
420.42	1781.73
420.62	1675.24
420.83	1617.90
421.04	1722.34
421.24	1716.20
421.45	1728.49
421.65	1755.11
421.86	1650.66
422.07	1759.21
422.27	1767.40
422.48	1685.48
422.69	1621.99
422.89	1585.13
423.10	1669.09
423.30	1564.65
423.51	1683.43
423.72	1720.29
423.92	1740.77
424.13	1568.74
424.33	1722.34
424.54	1742.82
424.75	1757.16
424.95	1728.49
425.16	1705.96
425.36	1701.86
425.57	1742.82
425.78	1751.01
425.98	1744.87
426.19	1714.15
426.39	1691.62
426.60	1691.62
426.81	1818.60
427.01	1718.25
427.22	1738.73
427.42	1609.70
427.63	1632.23
427.83	1746.92
428.04	1812.45
428.25	1808.36
428.45	1765.35
428.66	1808.36
428.86	1742.82
429.07	1660.90
429.28	1681.38
429.48	1607.66
429.69	1656.81
429.89	1744.87
430.10	1609.70
430.30	1796.07
430.51	1746.92
430.71	1748.97
430.92	1720.29
431.13	1714.15
431.33	1761.25
431.54	1761.25
431.74	1810.40
431.95	1789.92
432.15	1656.81
432.36	1744.87
432.56	1808.36
432.77	1755.11
432.98	1826.79
433.18	1726.44
433.39	1689.57
433.59	1722.34
433.80	1781.73
434.00	1910.75
434.21	1726.44
434.41	1722.34
434.62	1898.47
434.82	1665.00
435.03	1642.47
435.23	1753.06
435.44	1640.42
435.64	1718.25
435.85	1624.04
436.06	1751.01
436.26	1806.31
436.47	1728.49
436.67	1714.15
436.88	1791.97
437.08	1771.49
437.29	1865.70
437.49	1607.66
437.70	1742.82
437.90	1740.77
438.11	1849.32
438.31	1761.25
438.52	1849.32
438.72	1816.55
438.93	1943.52
439.13	1742.82
439.34	1845.22
439.54	1751.01
439.75	1814.50
439.95	1775.59
440.16	1734.63
440.36	1699.81
440.57	1761.25
440.77	1720.29
440.98	1742.82
441.18	1812.45
441.39	1720.29
441.59	1701.86
441.80	1857.51
442.00	1662.95
442.21	1757.16
442.41	1626.09
442.62	1765.35
442.82	1644.52
443.02	1710.05
443.23	1759.21
443.43	1728.49
443.64	1761.25
443.84	1630.18
444.05	1820.64
444.25	1755.11
444.46	1755.11
444.66	1732.58
444.87	1806.31
445.07	1605.61
445.28	1652.71
445.48	1794.02
445.69	1728.49
445.89	1830.88
446.09	1687.53
446.30	1949.67
446.50	2639.83
446.71	3723.21
446.91	4386.75
447.12	4704.18
447.32	4868.02
447.53	4337.60
447.73	3882.95
447.93	3608.52
448.14	3336.14
448.34	3200.98
448.55	2994.13
448.75	2764.76
448.96	2666.46
449.16	2410.46
449.36	2289.63
449.57	2017.25
449.77	1869.80
449.98	1800.16
450.18	1763.30
450.39	1837.03
450.59	1755.11
450.79	1714.15
451.00	1716.20
451.20	1820.64
451.41	1798.12
451.61	1777.64
451.81	1753.06
452.02	1744.87
452.22	1742.82
452.43	1691.62
452.63	1746.92
452.84	1685.48
453.04	1746.92
453.24	1730.53
453.45	1693.67
453.65	1748.97
453.86	1761.25
454.06	1771.49
454.26	1732.58
454.47	1673.19
454.67	1773.54
454.87	1687.53
455.08	1726.44
455.28	1806.31
455.49	1734.63
455.69	1636.33
455.89	1859.56
456.10	1794.02
456.30	1718.25
456.51	1738.73
456.71	1720.29
456.91	1726.44
457.12	1744.87
457.32	1626.09
457.52	1765.35
457.73	1693.67
457.93	1699.81
458.14	1624.04
458.34	1691.62
458.54	1726.44
458.75	1753.06
458.95	1755.11
459.15	1708.01
459.36	1822.69
459.56	1751.01
459.76	1789.92
459.97	1757.16
460.17	1689.57
460.37	1742.82
460.58	1714.15
460.78	1810.40
460.99	1648.61
461.19	1773.54
461.39	1726.44
461.60	1675.24
461.80	1814.50
462.00	1687.53
462.21	1652.71
462.41	1679.33
462.61	1646.57
462.82	1669.09
463.02	1791.97
463.22	1724.39
463.43	1857.51
463.63	1748.97
463.83	1800.16
464.04	1791.97
464.24	1714.15
464.44	1658.85
464.64	1765.35
464.85	1722.34
465.05	1771.49
465.25	1687.53
465.46	1718.25
465.66	1781.73
465.86	1761.25
466.07	1689.57
466.27	1673.19
466.47	1626.09
466.68	1578.98
466.88	1837.03
467.08	1794.02
467.29	1730.53
467.49	1800.16
467.69	1734.63
467.89	1662.95
468.10	1669.09
468.30	1726.44
468.50	1830.88
468.71	1769.44
468.91	1658.85
469.11	1791.97
469.31	1712.10
469.52	1720.29
469.72	1759.21
469.92	1777.64
470.13	1720.29
470.33	1779.68
470.53	1791.97
470.73	2041.82
470.94	2306.01
471.14	2398.17
471.34	2459.61
471.54	2365.40
471.75	2164.70
471.95	2201.57
472.15	2084.83
472.36	2082.78
472.56	2121.70
472.76	2045.92
472.96	1980.39
473.17	1974.24
473.37	1945.57
473.57	1767.40
473.77	1796.07
473.98	1730.53
474.18	1708.01
474.38	1871.84
474.58	1738.73
474.79	1742.82
474.99	1802.21
475.19	1761.25
475.39	1718.25
475.60	1675.24
475.80	1714.15
476.00	1759.21
476.20	1755.11
476.41	1710.05
476.61	1845.22
476.81	1767.40
477.01	1677.29
477.21	1935.33
477.42	1791.97
477.62	1675.24
477.82	1691.62
478.02	1697.77
478.23	1693.67
478.43	1681.38
478.63	1695.72
478.83	1712.10
479.03	1665.00
479.24	1761.25
479.44	1777.64
479.64	1734.63
479.84	1595.37
480.04	1691.62
480.25	1726.44
480.45	1691.62
480.65	1699.81
480.85	1822.69
481.06	1671.14
481.26	1697.77
481.46	1699.81
481.66	1779.68
481.86	1669.09
482.06	1734.63
482.27	1703.91
482.47	1677.29
482.67	1755.11
482.87	1748.97
483.07	1693.67
483.28	1732.58
483.48	1624.04
483.68	1636.33
483.88	1656.81
484.08	1609.70
484.29	1671.14
484.49	1685.48
484.69	1601.51
484.89	1789.92
485.09	1791.97
485.29	1742.82
485.50	1703.91
485.70	1636.33
485.90	1783.78
486.10	1740.77
486.30	1730.53
486.50	1822.69
486.71	1740.77
486.91	1787.88
487.11	1773.54
487.31	1746.92
487.51	1726.44
487.71	1689.57
487.91	1585.13
488.12	1570.79
488.32	1640.42
488.52	1765.35
488.72	1632.23
488.92	1685.48
489.12	1787.88
489.32	1837.03
489.53	1724.39
489.73	1683.43
489.93	1804.26
490.13	1646.57
490.33	1619.94
490.53	1695.72
490.73	1787.88
490.94	1636.33
491.14	1738.73
491.34	1812.45
491.54	2117.60
491.74	2648.02
491.94	2961.36
492.14	3053.52
492.34	3043.28
492.54	2777.05
492.75	2478.04
492.95	2346.97
493.15	2308.06
493.35	2252.77
493.55	2230.24
493.75	2082.78
493.95	2095.07
494.15	1972.19
494.35	1929.19
494.56	1824.74
494.76	1822.69
494.96	1783.78
495.16	1697.77
495.36	1742.82
495.56	1714.15
495.76	1681.38
495.96	1716.20
496.16	1667.05
496.36	1830.88
496.56	1791.97
496.77	1714.15
496.97	1751.01
497.17	1828.84
497.37	1634.28
497.57	1796.07
497.77	1775.59
497.97	1630.18
498.17	1699.81
498.37	1648.61
498.57	1744.87
498.77	1703.91
498.97	1746.92
499.17	1783.78
499.38	1794.02
499.58	1773.54
499.78	1769.44
499.98	1814.50
500.18	1748.97
500.38	1746.92
500.58	1918.95
500.78	2555.86
500.98	4655.03
501.18	5971.88
501.38	6940.57
501.58	7188.37
501.78	6907.80
501.98	5724.07
502.18	5138.35
502.38	4448.19
502.58	4317.12
502.78	3796.93
502.98	3819.46
503.18	3428.30
503.38	3160.02
503.59	2891.73
503.79	2658.26
503.99	2533.34
504.19	2324.44
504.39	2236.38
504.59	2238.43
504.79	2097.12
504.99	2058.21
505.19	1943.52
505.39	1908.71
505.59	1986.53
505.79	1882.08
505.99	1861.60
506.19	1644.52
506.39	1843.17
506.59	1728.49
506.79	1779.68
506.99	1873.89
507.19	1755.11
507.39	1714.15
507.59	1632.23
507.79	1720.29
507.99	1716.20
508.19	1720.29
508.39	1734.63
508.59	1730.53
508.79	1753.06
508.99	1777.64
509.19	1642.47
509.39	1714.15
509.59	1714.15
509.79	1665.00
509.99	1716.20
510.19	1771.49
510.39	1826.79
510.59	1781.73
510.79	1617.90
510.99	1603.56
511.19	1710.05
511.39	1779.68
511.59	1783.78
511.79	1728.49
511.99	1732.58
512.19	1890.28
512.38	1765.35
512.58	1689.57
512.78	1722.34
512.98	1783.78
513.18	1785.83
513.38	1681.38
513.58	1769.44
513.78	1744.87
513.98	1710.05
514.18	1761.25
514.38	1734.63
514.58	1673.19
514.78	1665.00
514.98	1691.62
515.18	1703.91
515.38	1701.86
515.58	1837.03
515.78	1714.15
515.98	1724.39
516.18	1757.16
516.38	1726.44
516.57	1669.09
516.77	1703.91
516.97	1742.82
517.17	1740.77
517.37	1662.95
517.57	1734.63
517.77	1748.97
517.97	1746.92
518.17	1798.12
518.37	1656.81
518.57	1613.80
518.77	1710.05
518.97	1769.44
519.16	1791.97
519.36	1779.68
519.56	1681.38
519.76	1730.53
519.96	1687.53
520.16	1789.92
520.36	1681.38
520.56	1826.79
520.76	1755.11
520.96	1736.68
521.16	1824.74
521.35	1800.16
521.55	1839.08
521.75	1693.67
521.95	1732.58
522.15	1773.54
522.35	1638.38
522.55	1746.92
522.75	1843.17
522.95	1722.34
523.14	1667.05
523.34	1730.53
523.54	1738.73
523.74	1738.73
523.94	1697.77
524.14	1714.15
524.34	1736.68
524.54	1769.44
524.73	1773.54
524.93	1769.44
525.13	1732.58
525.33	1607.66
525.53	1849.32
525.73	1744.87
525.93	1708.01
526.13	1720.29
526.32	1691.62
526.52	1802.21
526.72	1710.05
526.92	1759.21
527.12	1718.25
527.32	1646.57
527.52	1722.34
527.71	1781.73
527.91	1703.91
528.11	1607.66
528.31	1705.96
528.51	1732.58
528.71	1826.79
528.90	1757.16
529.10	1683.43
529.30	1759.21
529.50	1691.62
529.70	1714.15
529.90	1681.38
530.09	1765.35
530.29	1695.72
530.49	1611.75
530.69	1789.92
530.89	1730.53
531.09	1761.25
531.28	1761.25
531.48	1814.50
531.68	1730.53
531.88	1720.29
532.08	1777.64
532.28	1673.19
532.47	1736.68
532.67	1816.55
532.87	1773.54
533.07	1644.52
533.27	1804.26
533.46	1787.88
533.66	1804.26
533.86	1714.15
534.06	1710.05
534.26	1748.97
534.45	1671.14
534.65	1777.64
534.85	1722.34
535.05	1710.05
535.25	1761.25
535.44	1701.86
535.64	1759.21
535.84	1710.05
536.04	1716.20
536.24	1634.28
536.43	1673.19
536.63	1730.53
536.83	1652.71
537.03	1718.25
537.22	1652.71
537.42	1697.77
537.62	1695.72
537.82	1677.29
538.02	1824.74
538.21	1773.54
538.41	1906.66
538.61	1763.30
538.81	1714.15
539.00	1791.97
539.20	1632.23
539.40	1656.81
539.60	1746.92
539.79	1820.64
539.99	1734.63
540.19	1718.25
540.39	1748.97
540.58	1726.44
540.78	1689.57
540.98	1718.25
541.18	1787.88
541.37	1714.15
541.57	1763.30
541.77	1781.73
541.97	1691.62
542.16	1697.77
542.36	1763.30
542.56	1667.05
542.76	1873.89
542.95	1755.11
543.15	1775.59
543.35	1744.87
543.54	1722.34
543.74	1716.20
543.94	1789.92
544.14	1642.47
544.33	1691.62
544.53	1767.40
544.73	1681.38
544.93	1697.77
545.12	1726.44
545.32	1724.39
545.52	1685.48
545.71	1634.28
545.91	1701.86
546.11	1728.49
546.30	1736.68
546.50	1730.53
546.70	1748.97
546.90	1708.01
547.09	1648.61
547.29	1753.06
547.49	1806.31
547.68	1708.01
547.88	1753.06
548.08	1804.26
548.27	2129.89
548.47	1671.14
548.67	1753.06
548.87	1740.77
549.06	1687.53
549.26	1748.97
549.46	1753.06
549.65	1656.81
549.85	1763.30
550.05	1755.11
550.24	1665.00
550.44	1755.11
550.64	1712.10
550.83	1724.39
551.03	1824.74
551.23	1798.12
551.42	1683.43
551.62	1697.77
551.82	1671.14
552.01	1771.49
552.21	1769.44
552.41	1755.11
552.60	1804.26
552.80	1705.96
553.00	1710.05
553.19	1712.10
553.39	1847.27
553.59	1626.09
553.78	1744.87
553.98	1763.30
554.17	1705.96
554.37	1730.53
554.57	1761.25
554.76	1667.05
554.96	1597.42
555.16	1689.57
555.35	1742.82
555.55	1740.77
555.75	1802.21
555.94	1759.21
556.14	1619.94
556.33	1771.49
556.53	1695.72
556.73	1734.63
556.92	1736.68
557.12	1845.22
557.32	1845.22
557.51	1751.01
557.71	1734.63
557.90	1834.98
558.10	1810.40
558.30	1810.40
558.49	1671.14
558.69	1708.01
558.88	1810.40
559.08	1746.92
559.28	1693.67
559.47	1761.25
559.67	1671.14
559.86	1839.08
560.06	1665.00
560.26	1691.62
560.45	1730.53
560.65	1722.34
560.84	1781.73
561.04	1736.68
561.24	1791.97
561.43	1722.34
561.63	1763.30
561.82	1732.58
562.02	1755.11
562.22	1732.58
562.41	1748.97
562.61	1669.09
562.80	1658.85
563.00	1884.13
563.19	1800.16
563.39	1845.22
563.59	1728.49
563.78	1718.25
563.98	1714.15
564.17	1738.73
564.37	1660.90
564.56	1771.49
564.76	1738.73
564.96	1753.06
565.15	1771.49
565.35	1875.94
565.54	1726.44
565.74	1810.40
565.93	1740.77
566.13	1703.91
566.32	1734.63
566.52	1802.21
566.71	1755.11
566.91	1847.27
567.11	1687.53
567.30	1708.01
567.50	1753.06
567.69	1720.29
567.89	1761.25
568.08	1742.82
568.28	1746.92
568.47	1656.81
568.67	1748.97
568.86	1757.16
569.06	1804.26
569.25	1650.66
569.45	1646.57
569.64	1716.20
569.84	1775.59
570.04	1708.01
570.23	1781.73
570.43	1697.77
570.62	1673.19
570.82	1839.08
571.01	1691.62
571.21	1734.63
571.40	1650.66
571.60	1722.34
571.79	1798.12
571.99	1759.21
572.18	1665.00
572.38	1689.57
572.57	1724.39
572.77	1699.81
572.96	1800.16
573.16	1744.87
573.35	1683.43
573.55	1826.79
573.74	1751.01
573.94	1732.58
574.13	1597.42
574.33	1800.16
574.52	1759.21
574.71	1839.08
574.91	1751.01
575.10	1726.44
575.30	1669.09
575.49	1667.05
575.69	1740.77
575.88	1740.77
576.08	1736.68
576.27	1773.54
576.47	1695.72
576.66	1755.11
576.86	1851.36
577.05	1732.58
577.25	1810.40
577.44	1824.74
577.64	1642.47
577.83	1787.88
578.02	1693.67
578.22	1779.68
578.41	1832.93
578.61	1685.48
578.80	1685.48
579.00	1787.88
579.19	1767.40
579.39	1869.80
579.58	1816.55
579.77	1714.15
579.97	1759.21
580.16	1785.83
580.36	1824.74
580.55	1820.64
580.75	1736.68
580.94	1767.40
581.13	1818.60
581.33	1861.60
581.52	1714.15
581.72	1910.75
581.91	1744.87
582.11	1748.97
582.30	1740.77
582.49	1726.44
582.69	1810.40
582.88	1730.53
583.08	1775.59
583.27	1804.26
583.47	1699.81
583.66	1771.49
583.85	1677.29
584.05	1773.54
584.24	1757.16
584.44	1796.07
584.63	1724.39
584.82	1812.45
585.02	1783.78
585.21	1830.88
585.41	1851.36
585.60	1871.84
585.79	1896.42
585.99	1794.02
586.18	1882.08
586.37	2105.31
586.57	3422.16
586.76	10274.66
586.96	25067.14
587.15	35302.89
587.34	41262.47
587.54	43431.27
587.73	37504.45
587.93	27151.97
588.12	22433.45
588.31	18908.90
588.51	16672.51
588.70	15601.43
588.89	14634.78
589.09	13016.89
589.28	11472.72
589.47	9670.51
589.67	8171.40
589.86	6616.99
590.06	5095.35
590.25	3995.59
590.44	3227.60
590.64	2574.30
590.83	2195.42
591.02	2123.74
591.22	2007.01
591.41	1877.99
591.60	1826.79
591.80	1970.15
591.99	1759.21
592.18	1728.49
592.38	1779.68
592.57	1744.87
592.76	1726.44
592.96	1761.25
593.15	1746.92
593.34	1806.31
593.54	1781.73
593.73	1720.29
593.92	1718.25
594.12	1738.73
594.31	1699.81
594.50	1839.08
594.70	1783.78
594.89	1828.84
595.08	1710.05
595.28	1785.83
595.47	1996.77
595.66	1783.78
595.86	1691.62
596.05	1726.44
596.24	1742.82
596.43	1871.84
596.63	1843.17
596.82	1699.81
597.01	1730.53
597.21	1804.26
597.40	1802.21
597.59	1699.81
597.79	1734.63
597.98	1828.84
598.17	1812.45
598.36	1726.44
598.56	1798.12
598.75	1701.86
598.94	1781.73
599.14	1781.73
599.33	1593.32
599.52	1742.82
599.71	1724.39
599.91	1748.97
600.10	1742.82
600.29	1791.97
600.48	1703.91
600.68	1765.35
600.87	1769.44
601.06	1714.15
601.26	1714.15
601.45	1759.21
601.64	1703.91
601.83	1812.45
602.03	1710.05
602.22	1628.14
602.41	1763.30
602.60	1851.36
602.80	1787.88
602.99	1746.92
603.18	1681.38
603.37	1726.44
603.57	1751.01
603.76	1740.77
603.95	1794.02
604.14	1679.33
604.34	1789.92
604.53	1740.77
604.72	1720.29
604.91	1777.64
605.10	1865.70
605.30	1685.48
605.49	1851.36
605.68	1753.06
605.87	1699.81
606.07	1658.85
606.26	1742.82
606.45	1794.02
606.64	1724.39
606.84	1675.24
607.03	1765.35
607.22	1800.16
607.41	1593.32
607.60	1708.01
607.80	1779.68
607.99	1736.68
608.18	1718.25
608.37	1738.73
608.56	1726.44
608.76	1837.03
608.95	1822.69
609.14	1714.15
609.33	1783.78
609.52	1748.97
609.72	1671.14
609.91	1779.68
610.10	1738.73
610.29	1796.07
610.48	1773.54
610.68	1730.53
610.87	1714.15
611.06	1853.41
611.25	1679.33
611.44	1855.46
611.63	1677.29
611.83	1740.77
612.02	1626.09
612.21	1810.40
612.40	1615.85
612.59	1695.72
612.79	1701.86
612.98	1681.38
613.17	1814.50
613.36	1757.16
613.55	1816.55
613.74	1708.01
613.93	1640.42
614.13	1753.06
614.32	1642.47
614.51	1775.59
614.70	1675.24
614.89	1718.25
615.08	1830.88
615.28	2093.02
615.47	1654.76
615.66	1716.20
615.85	1703.91
616.04	1798.12
616.23	1689.57
616.42	1794.02
616.62	1808.36
616.81	1687.53
617.00	1648.61
617.19	1732.58
617.38	1732.58
617.57	1710.05
617.76	1787.88
617.95	1773.54
618.15	1763.30
618.34	1818.60
618.53	1697.77
618.72	1746.92
618.91	1824.74
619.10	1748.97
619.29	1763.30
619.48	1693.67
619.68	1746.92
619.87	1638.38
620.06	1658.85
620.25	1730.53
620.44	1640.42
620.63	1681.38
620.82	1720.29
621.01	1691.62
621.20	1746.92
621.39	1781.73
621.59	1697.77
621.78	1712.10
621.97	1685.48
622.16	1685.48
622.35	1722.34
622.54	1720.29
622.73	1810.40
622.92	1613.80
623.11	1808.36
623.30	1693.67
623.49	1738.73
623.68	1716.20
623.88	1724.39
624.07	1708.01
624.26	1699.81
624.45	1728.49
624.64	1771.49
624.83	1738.73
625.02	1673.19
625.21	1658.85
625.40	1738.73
625.59	1800.16
625.78	1681.38
625.97	1765.35
626.16	1820.64
626.35	1755.11
626.54	1652.71
626.74	1839.08
626.93	1689.57
627.12	1695.72
627.31	1730.53
627.50	1773.54
627.69	1701.86
627.88	1656.81
628.07	1677.29
628.26	1617.90
628.45	1781.73
628.64	1650.66
628.83	1669.09
629.02	1673.19
629.21	1781.73
629.40	1765.35
629.59	1693.67
629.78	1710.05
629.97	1621.99
630.16	1730.53
630.35	1744.87
630.54	1689.57
630.73	1734.63
630.92	1683.43
631.11	1697.77
631.30	1769.44
631.49	1708.01
631.68	1734.63
631.87	1757.16
632.06	1628.14
632.25	1851.36
632.44	1740.77
632.63	1798.12
632.82	1677.29
633.01	1687.53
633.20	1691.62
633.39	1650.66
633.58	1640.42
633.77	1712.10
633.96	1652.71
634.15	1779.68
634.34	1779.68
634.53	1769.44
634.72	1726.44
634.91	1656.81
635.10	1771.49
635.29	1783.78
635.48	1699.81
635.67	1697.77
635.86	1679.33
636.05	1755.11
636.24	1705.96
636.43	1787.88
636.62	1789.92
636.81	1552.36
637.00	1693.67
637.19	1781.73
637.38	1699.81
637.57	1701.86
637.76	1665.00
637.95	1740.77
638.14	1679.33
638.33	1601.51
638.52	1771.49
638.71	1581.03
638.89	1693.67
639.08	1851.36
639.27	1658.85
639.46	1712.10
639.65	1771.49
639.84	1681.38
640.03	1818.60
640.22	1695.72
640.41	1775.59
640.60	1677.29
640.79	1724.39
640.98	1667.05
641.17	1789.92
641.36	1791.97
641.55	1753.06
641.74	1671.14
641.92	1701.86
642.11	1619.94
642.30	1710.05
642.49	1650.66
642.68	1718.25
642.87	1724.39
643.06	1742.82
643.25	1677.29
643.44	1671.14
643.63	1656.81
643.82	1718.25
644.00	1763.30
644.19	1677.29
644.38	1673.19
644.57	1818.60
644.76	1716.20
644.95	1660.90
645.14	1681.38
645.33	1662.95
645.52	1736.68
645.71	1662.95
645.89	1605.61
646.08	1759.21
646.27	1669.09
646.46	1781.73
646.65	1654.76
646.84	1771.49
647.03	1662.95
647.22	1708.01
647.40	1683.43
647.59	1677.29
647.78	1667.05
647.97	1636.33
648.16	1724.39
648.35	1822.69
648.54	1845.22
648.73	1753.06
648.91	1755.11
649.10	1679.33
649.29	1652.71
649.48	1806.31
649.67	1712.10
649.86	1687.53
650.05	1716.20
650.23	1736.68
650.42	1609.70
650.61	1673.19
650.80	1722.34
650.99	1855.46
651.18	1699.81
651.36	1718.25
651.55	1697.77
651.74	1705.96
651.93	1734.63
652.12	1703.91
652.31	1703.91
652.49	1740.77
652.68	1748.97
652.87	1757.16
653.06	1669.09
653.25	1802.21
653.44	1683.43
653.62	1814.50
653.81	1570.79
654.00	1636.33
654.19	1746.92
654.38	1816.55
654.56	1724.39
654.75	1783.78
654.94	1691.62
655.13	1685.48
655.32	1730.53
655.51	1734.63
655.69	1656.81
655.88	1751.01
656.07	1665.00
656.26	1791.97
656.45	1609.70
656.63	1681.38
656.82	1689.57
657.01	1730.53
657.20	1789.92
657.38	1765.35
657.57	1736.68
657.76	1615.85
657.95	1796.07
658.14	1673.19
658.32	1693.67
658.51	1646.57
658.70	1744.87
658.89	1724.39
659.08	1794.02
659.26	1777.64
659.45	1697.77
659.64	1683.43
659.83	1654.76
660.01	1718.25
660.20	1753.06
660.39	1877.99
660.58	1636.33
660.76	1765.35
660.95	1589.22
661.14	1701.86
661.33	1687.53
661.51	1687.53
661.70	1701.86
661.89	1708.01
662.08	1748.97
662.26	1656.81
662.45	1667.05
662.64	1818.60
662.83	1730.53
663.01	1705.96
663.20	1683.43
663.39	1742.82
663.58	1671.14
663.76	1720.29
663.95	1759.21
664.14	1652.71
664.32	1685.48
664.51	1665.00
664.70	1619.94
664.89	1699.81
665.07	1587.18
665.26	1712.10
665.45	1734.63
665.64	1742.82
665.82	1751.01
666.01	1738.73
666.20	1697.77
666.38	1783.78
666.57	1822.69
666.76	2181.09
666.95	4655.03
667.13	10764.12
667.32	15734.54
667.51	18284.26
667.69	19535.57
667.88	18147.05
668.07	12554.05
668.25	9856.87
668.44	8343.42
668.63	7450.51
668.81	6959.00
669.00	6289.31
669.19	5795.75
669.38	5185.46
669.56	4675.51
669.75	4003.78
669.94	3629.00
670.12	2906.07
670.31	2625.50
670.50	2207.71
670.68	2080.74
670.87	1941.47
671.06	1810.40
671.24	1806.31
671.43	1783.78
671.62	1820.64
671.80	1693.67
671.99	1755.11
672.18	1714.15
672.36	1787.88
672.55	1800.16
672.74	1714.15
672.92	1656.81
673.11	1730.53
673.29	1652.71
673.48	1755.11
673.67	1613.80
673.85	1738.73
674.04	1568.74
674.23	1751.01
674.41	1738.73
674.60	1640.42
674.79	1601.51
674.97	1652.71
675.16	1796.07
675.34	1753.06
675.53	1722.34
675.72	1734.63
675.90	1771.49
676.09	1636.33
676.28	1767.40
676.46	1665.00
676.65	1734.63
676.83	1681.38
677.02	1728.49
677.21	1757.16
677.39	1724.39
677.58	1652.71
677.77	1644.52
677.95	1634.28
678.14	1746.92
678.32	1736.68
678.51	1667.05
678.70	1779.68
678.88	1718.25
679.07	1683.43
679.25	1718.25
679.44	1662.95
679.63	1646.57
679.81	1691.62
680.00	1804.26
680.18	1738.73
680.37	1761.25
680.55	1714.15
680.74	1689.57
680.93	1644.52
681.11	1738.73
681.30	1685.48
681.48	1710.05
681.67	1652.71
681.85	1748.97
682.04	1636.33
682.23	1806.31
682.41	1681.38
682.60	1658.85
682.78	1673.19
682.97	1648.61
683.15	1652.71
683.34	1781.73
683.53	1832.93
683.71	1677.29
683.90	1751.01
684.08	1843.17
684.27	1689.57
684.45	1656.81
684.64	1691.62
684.82	1615.85
685.01	1740.77
685.19	1746.92
685.38	1859.56
685.57	1642.47
685.75	1650.66
685.94	1656.81
686.12	1568.74
686.31	1712.10
686.49	1789.92
686.68	1601.51
686.86	1734.63
687.05	1736.68
687.23	1873.89
687.42	1677.29
687.60	1714.15
687.79	1734.63
687.97	1755.11
688.16	1705.96
688.34	1769.44
688.53	1650.66
688.71	1763.30
688.90	1763.30
689.08	1742.82
689.27	1626.09
689.45	1757.16
689.64	1652.71
689.82	1685.48
690.01	1724.39
690.19	1705.96
690.38	1716.20
690.56	1773.54
690.75	1687.53
690.93	1632.23
691.12	1728.49
691.30	1710.05
691.49	1669.09
691.67	1650.66
691.86	1753.06
692.04	1724.39
692.23	1710.05
692.41	1751.01
692.60	1787.88
692.78	1773.54
692.97	1648.61
693.15	1759.21
693.34	1785.83
693.52	1814.50
693.71	1726.44
693.89	1677.29
694.08	1566.70
694.26	1759.21
694.44	1693.67
694.63	1705.96
694.81	1673.19
695.00	1656.81
695.18	1789.92
695.37	1865.70
695.55	1710.05
695.74	1730.53
695.92	1677.29
696.10	1798.12
696.29	1609.70
696.47	1650.66
696.66	1652.71
696.84	1701.86
697.03	1691.62
697.21	1894.37
697.40	2232.29
697.58	1763.30
697.76	1720.29
697.95	1634.28
698.13	1609.70
698.32	1634.28
698.50	1714.15
698.68	1669.09
698.87	1718.25
699.05	1822.69
699.24	1708.01
699.42	1615.85
699.61	1720.29
699.79	1656.81
699.97	1722.34
700.16	1642.47
700.34	1673.19
700.53	1656.81
700.71	1798.12
700.89	1798.12
701.08	1710.05
701.26	1777.64
701.45	2074.59
701.63	1669.09
701.81	1705.96
702.00	1685.48
702.18	1761.25
702.37	1662.95
702.55	1714.15
702.73	1714.15
702.92	1675.24
703.10	1751.01
703.28	1697.77
703.47	1626.09
703.65	1757.16
703.84	1765.35
704.02	1630.18
704.20	1802.21
704.39	1691.62
704.57	1726.44
704.75	1751.01
704.94	1779.68
705.12	1687.53
705.30	1796.07
705.49	2197.47
705.67	4450.24
705.86	9523.05
706.04	13129.53
706.22	14868.25
706.41	15673.10
706.59	14518.05
706.77	10008.42
706.96	7479.18
707.14	6893.46
707.32	6086.56
707.51	5742.50
707.69	5009.33
707.87	4329.41
708.06	3506.12
708.24	3018.71
708.42	2455.51
708.61	2277.34
708.79	1914.85
708.97	1914.85
709.16	1761.25
709.34	1742.82
709.52	1759.21
709.71	1691.62
709.89	1794.02
710.07	1718.25
710.26	1697.77
710.44	1648.61
710.62	1775.59
710.80	1765.35
710.99	1753.06
711.17	1705.96
711.35	1687.53
711.54	1615.85
711.72	1748.97
711.90	1708.01
712.09	1753.06
712.27	1746.92
712.45	1677.29
712.63	1685.48
712.82	1644.52
713.00	1673.19
713.18	1783.78
713.37	1701.86
713.55	1746.92
713.73	1732.58
713.91	1732.58
714.10	1708.01
714.28	1718.25
714.46	1708.01
714.65	1771.49
714.83	1767.40
715.01	1800.16
715.19	1665.00
715.38	1722.34
715.56	1716.20
715.74	1583.08
715.92	1718.25
716.11	1800.16
716.29	1578.98
716.47	1691.62
716.65	1636.33
716.84	1617.90
717.02	1738.73
717.20	1605.61
717.38	1681.38
717.57	1820.64
717.75	1703.91
717.93	1665.00
718.11	1722.34
718.30	1654.76
718.48	1695.72
718.66	1742.82
718.84	1763.30
719.03	1662.95
719.21	1660.90
719.39	1888.23
719.57	1681.38
719.75	1804.26
719.94	1681.38
720.12	1716.20
720.30	1740.77
720.48	1791.97
720.67	1769.44
720.85	1712.10
721.03	1681.38
721.21	1638.38
721.39	1738.73
721.58	1759.21
721.76	1726.44
721.94	1746.92
722.12	1685.48
722.30	1824.74
722.49	1662.95
722.67	1619.94
722.85	1718.25
723.03	1535.98
723.21	1624.04
723.40	1718.25
723.58	1775.59
723.76	1687.53
723.94	1787.88
724.12	1681.38
724.30	1812.45
724.49	1726.44
724.67	1652.71
724.85	1767.40
725.03	1677.29
725.21	1667.05
725.40	1849.32
725.58	1632.23
725.76	1710.05
725.94	1732.58
726.12	1673.19
726.30	1710.05
726.49	1705.96
726.67	1701.86
726.85	1742.82
727.03	1726.44
727.21	2117.60
727.39	2910.16
727.57	3829.70
727.76	4290.49
727.94	4503.48
728.12	4480.96
728.30	3770.31
728.48	3088.34
728.66	2828.24
728.84	2631.64
729.03	2250.72
729.21	2043.87
729.39	1996.77
729.57	1826.79
729.75	1777.64
729.93	1849.32
730.11	1703.91
730.30	1748.97
730.48	1673.19
730.66	1791.97
730.84	1724.39
731.02	1755.11
731.20	1648.61
731.38	1796.07
731.56	1689.57
731.74	1654.76
731.93	1751.01
732.11	1679.33
732.29	1656.81
732.47	1724.39
732.65	1658.85
732.83	1732.58
733.01	1726.44
733.19	1701.86
733.37	1714.15
733.56	1742.82
733.74	1642.47
733.92	1798.12
734.10	1624.04
734.28	1757.16
734.46	1552.36
734.64	1693.67
734.82	1714.15
735.00	1683.43
735.18	1665.00
735.36	1710.05
735.54	1658.85
735.73	1746.92
735.91	1703.91
736.09	1701.86
736.27	1689.57
736.45	1775.59
736.63	1538.02
736.81	1689.57
736.99	1753.06
737.17	1734.63
737.35	1652.71
737.53	1660.90
737.71	1675.24
737.89	1769.44
738.07	1685.48
738.25	1650.66
738.43	1636.33
738.61	1681.38
738.80	1570.79
738.98	1624.04
739.16	1699.81
739.34	1658.85
739.52	1814.50
739.70	1755.11
739.88	1755.11
740.06	1773.54
740.24	1615.85
740.42	1765.35
740.60	1656.81
740.78	1607.66
740.96	1564.65
741.14	1640.42
741.32	1716.20
741.50	1595.37
741.68	1877.99
741.86	1724.39
742.04	1669.09
742.22	1660.90
742.40	1746.92
742.58	1691.62
742.76	1638.38
742.94	1781.73
743.12	1585.13
743.30	1687.53
743.48	1791.97
743.66	1662.95
743.84	1759.21
744.02	1615.85
744.20	1708.01
744.38	1703.91
744.56	1703.91
744.74	1851.36
744.92	1699.81
745.10	1808.36
745.28	1693.67
745.46	1751.01
745.64	1642.47
745.82	1765.35
746.00	1697.77
746.18	1742.82
746.36	1650.66
746.54	1757.16
746.72	1701.86
746.90	1650.66
747.08	1798.12
747.26	1718.25
747.44	1710.05
747.62	1648.61
747.80	1708.01
747.98	1734.63
748.15	1644.52
748.33	1775.59
748.51	1708.01
748.69	1832.93
748.87	1644.52
749.05	1691.62
749.23	1697.77
749.41	1718.25
749.59	1705.96
749.77	1714.15
749.95	1638.38
750.13	1681.38
750.31	1722.34
750.49	1716.20
750.67	1759.21
750.85	1763.30
751.03	1675.24
751.20	1873.89
751.38	1656.81
751.56	1712.10
751.74	1757.16
751.92	1710.05
752.10	1652.71
752.28	1656.81
752.46	1591.27
752.64	1665.00
752.82	1714.15
753.00	1853.41
753.18	1652.71
753.35	1714.15
753.53	1646.57
753.71	1689.57
753.89	1669.09
754.07	1751.01
754.25	1710.05
754.43	1816.55
754.61	1648.61
754.79	1736.68
754.97	1660.90
755.14	1830.88
755.32	1578.98
755.50	1738.73
755.68	1660.90
755.86	1624.04
756.04	1632.23
756.22	1578.98
756.40	1722.34
756.57	1849.32
756.75	1675.24
756.93	1830.88
757.11	1726.44
757.29	1599.46
757.47	1751.01
757.65	1638.38
757.82	1632.23
758.00	1667.05
758.18	1662.95
758.36	1605.61
758.54	1718.25
758.72	1685.48
758.90	1765.35
759.07	1728.49
759.25	1675.24
759.43	1763.30
759.61	1636.33
759.79	2215.90
759.97	1773.54
760.15	1660.90
760.32	1660.90
760.50	1787.88
760.68	1798.12
760.86	1642.47
761.04	1720.29
761.22	1720.29
761.39	1685.48
761.57	1722.34
761.75	1712.10
761.93	1759.21
762.11	1648.61
762.28	1714.15
762.46	1650.66
762.64	1671.14
762.82	1626.09
763.00	1695.72
763.18	1714.15
763.35	1652.71
763.53	1746.92
763.71	1724.39
763.89	1718.25
764.07	1669.09
764.24	1636.33
764.42	1677.29
764.60	1685.48
764.78	1703.91
764.96	1740.77
765.13	1728.49
765.31	1697.77
765.49	1753.06
765.67	1667.05
765.84	1630.18
766.02	1679.33
766.20	1683.43
766.38	1669.09
766.56	1681.38
766.73	1728.49
766.91	1708.01
767.09	1734.63
767.27	1679.33
767.44	1595.37
767.62	1703.91
767.80	1665.00
767.98	1644.52
768.15	1615.85
768.33	1724.39
768.51	1759.21
768.69	1681.38
768.87	1759.21
769.04	1677.29
769.22	1871.84
769.40	1712.10
769.58	1863.65
769.75	1738.73
769.93	1806.31
770.11	1691.62
770.28	1681.38
770.46	1675.24
770.64	1712.10
770.82	1646.57
770.99	1585.13
771.17	1757.16
771.35	1611.75
771.53	1701.86
771.70	1656.81
771.88	1755.11
772.06	1777.64
772.23	1599.46
772.41	1761.25
772.59	1634.28
772.77	1665.00
772.94	1662.95
773.12	1648.61
773.30	1736.68
773.47	1736.68
773.65	1683.43
773.83	1787.88
774.01	1636.33
774.18	1638.38
774.36	1665.00
774.54	1751.01
774.71	1662.95
774.89	1685.48
775.07	1605.61
775.24	1626.09
775.42	1599.46
775.60	1726.44
775.78	1728.49
775.95	1656.81
776.13	1601.51
776.31	1583.08
776.48	1765.35
776.66	1751.01
776.84	1603.56
777.01	1638.38
777.19	1609.70
777.37	1599.46
777.54	1708.01
777.72	1812.45
777.90	1697.77
778.07	1552.36
778.25	1945.57
778.43	1742.82
778.60	1615.85
778.78	1806.31
778.96	1699.81
779.13	1644.52
779.31	1794.02
779.49	1671.14
779.66	1695.72
779.84	1624.04
780.01	1703.91
780.19	1626.09
780.37	1769.44
780.54	1632.23
780.72	1654.76
780.90	1728.49
781.07	1650.66
781.25	1658.85
781.43	1751.01
781.60	1699.81
781.78	1755.11
781.95	1701.86
782.13	1652.71
782.31	1675.24
782.48	1634.28
782.66	1638.38
782.83	1820.64
783.01	1714.15
783.19	1679.33
783.36	1734.63
783.54	1611.75
783.72	1796.07
783.89	1703.91
784.07	1779.68
784.24	1781.73
784.42	1822.69
784.60	1689.57
784.77	1675.24
784.95	1632.23
785.12	1585.13
785.30	1718.25
785.47	1621.99
785.65	1689.57
785.83	1654.76
786.00	1605.61
786.18	1744.87
786.35	1529.83
786.53	1656.81
786.71	1755.11
786.88	1724.39
787.06	1757.16
787.23	1689.57
787.41	1722.34
787.58	1675.24
787.76	1681.38
787.94	1693.67
788.11	1716.20
788.29	1617.90
788.46	1679.33
788.64	1675.24
788.81	1685.48
788.99	1705.96
789.16	1650.66
789.34	1740.77
789.52	1699.81
789.69	1716.20
789.87	1556.46
790.04	1630.18
790.22	1697.77
790.39	1796.07
790.57	1634.28
790.74	1681.38
790.92	1701.86
791.09	1767.40
791.27	1701.86
791.44	1716.20
791.62	1777.64
791.79	1759.21
791.97	1613.80
792.15	1865.70
792.32	1751.01
792.50	1699.81
792.67	1787.88
792.85	1693.67
793.02	1744.87
793.20	1763.30
793.37	1550.31
793.55	1736.68
793.72	1652.71
793.90	1718.25
794.07	1626.09
794.25	1677.29
794.42	1718.25
794.60	1617.90
794.77	1730.53
794.95	1724.39
795.12	1761.25
795.30	1669.09
795.47	1607.66
795.65	1929.19
795.82	1669.09
796.00	1593.32
796.17	1617.90
796.34	1722.34
796.52	1751.01
796.69	1720.29
796.87	1720.29
797.04	1730.53
797.22	1740.77
797.39	1691.62
797.57	1751.01
797.74	1667.05
797.92	1679.33
798.09	1685.48
798.27	1703.91
798.44	1714.15
798.62	1744.87
798.79	1697.77
798.96	1787.88
799.14	1730.53
799.31	1810.40
799.49	1691.62
799.66	1669.09
799.84	1595.37
800.01	1685.48
800.19	1667.05
800.36	1638.38
800.53	1626.09
800.71	1755.11
800.88	1708.01
801.06	1632.23
801.23	1628.14
801.41	1722.34
801.58	1677.29
801.75	1667.05
801.93	1722.34
802.10	1808.36
802.28	1673.19
802.45	1683.43
802.63	1708.01
802.80	1757.16
802.97	1714.15
803.15	1730.53
803.32	1626.09
803.50	1691.62
803.67	1675.24
803.84	1646.57
804.02	1748.97
804.19	1619.94
804.37	1615.85
804.54	1634.28
804.71	1732.58
804.89	1617.90
805.06	1615.85
805.24	1650.66
805.41	1583.08
805.58	1652.71
805.76	1791.97
805.93	1705.96
806.10	1763.30
806.28	1736.68
806.45	1607.66
806.63	1775.59
806.80	1710.05
806.97	1667.05
807.15	1689.57
807.32	1679.33
807.49	1669.09
807.67	1708.01
807.84	1728.49
808.01	1550.31
808.19	1775.59
808.36	1816.55
808.54	1722.34
808.71	1693.67
808.88	1759.21
809.06	1746.92
809.23	1837.03
809.40	1687.53
809.58	1847.27
809.75	1701.86
809.92	1650.66
810.10	1873.89
810.27	1652.71
810.44	1681.38
810.62	1761.25
810.79	1689.57
810.96	1636.33
811.14	1681.38
811.31	1720.29
811.48	1671.14
811.66	1757.16
811.83	1712.10
812.00	1675.24
812.18	1744.87
812.35	1828.84
812.52	1685.48
812.69	1689.57
812.87	1695.72
813.04	1640.42
813.21	1687.53
813.39	1652.71
813.56	1687.53
813.73	1755.11
813.91	1634.28
814.08	1724.39
814.25	1703.91
814.42	1703.91
814.60	1689.57
814.77	1767.40
814.94	1685.48
815.12	1689.57
815.29	1826.79
815.46	1646.57
815.63	1712.10
815.81	1693.67
815.98	1714.15
816.15	1720.29
816.33	1757.16
816.50	1757.16
816.67	1640.42
816.84	1685.48
817.02	1675.24
817.19	1673.19
817.36	1730.53
817.53	1791.97
817.71	1650.66
817.88	1724.39
818.05	1722.34
818.22	1673.19
818.40	1820.64
818.57	1710.05
818.74	1701.86
818.91	1705.96
819.09	1679.33
819.26	1759.21
819.43	1669.09
819.60	1656.81
819.78	1665.00
819.95	1740.77
820.12	1581.03
820.29	1765.35
820.47	1820.64
820.64	1658.85
820.81	1628.14
820.98	1652.71
821.15	1636.33
821.33	1724.39
821.50	1656.81
821.67	1732.58
821.84	1630.18
822.02	1673.19
822.19	1675.24
822.36	1630.18
822.53	1744.87
822.70	1593.32
822.88	1658.85
823.05	1816.55
823.22	1644.52
823.39	1671.14
823.56	1728.49
823.74	1810.40
823.91	1619.94
824.08	1615.85
824.25	1673.19
824.42	1837.03
824.60	1644.52
824.77	1669.09
824.94	1669.09
825.11	1714.15
825.28	1621.99
825.45	1703.91
825.63	1734.63
825.80	1624.04
825.97	1697.77
826.14	1677.29
826.31	1679.33
826.48	1673.19
826.66	1578.98
826.83	1720.29
827.00	1705.96
827.17	1632.23
827.34	1669.09
827.51	1638.38
827.69	1751.01
827.86	1531.88
828.03	1656.81
828.20	1714.15
828.37	1628.14
828.54	1779.68
828.71	1605.61
828.89	1816.55
829.06	1757.16
829.23	1783.78
829.40	1646.57
829.57	1689.57
829.74	1693.67
829.91	1615.85
830.09	1617.90
830.26	1703.91
830.43	1714.15
830.60	1683.43
830.77	1720.29
830.94	1796.07
831.11	1716.20
831.28	1609.70
831.46	1763.30
831.63	1665.00
831.80	1779.68
831.97	1650.66
832.14	1521.64
832.31	1705.96
832.48	1656.81
832.65	1705.96
832.82	1685.48
832.99	1712.10
833.17	1624.04
833.34	1808.36
833.51	1785.83
833.68	1638.38
833.85	1687.53
834.02	1669.09
834.19	1656.81
834.36	1656.81
834.53	1662.95
834.70	1703.91
834.87	1748.97
835.04	1773.54
835.22	1724.39
835.39	1773.54
835.56	1578.98
835.73	1720.29
835.90	1720.29
836.07	1693.67
836.24	1875.94
836.41	1697.77
836.58	1693.67
836.75	1779.68
836.92	1685.48
837.09	1714.15
837.26	1755.11
837.43	1667.05
837.60	1699.81
837.77	1726.44
837.94	1746.92
838.12	1763.30
838.29	1748.97
838.46	1703.91
838.63	1601.51
838.80	1730.53
838.97	1597.42
839.14	1673.19
839.31	1753.06
839.48	1730.53
839.65	1654.76
839.82	1695.72
839.99	1716.20
840.16	1726.44
840.33	1624.04
840.50	1734.63
840.67	1607.66
840.84	1581.03
841.01	1718.25
841.18	1683.43
841.35	1652.71
841.52	1701.86
841.69	1812.45
841.86	1716.20
842.03	1695.72
842.20	1736.68
842.37	1738.73
842.54	1654.76
842.71	1714.15
842.88	1617.90
843.05	1814.50
843.22	1665.00
843.39	1783.78
843.56	1705.96
843.73	1775.59
843.90	1689.57
844.07	1703.91
844.24	1730.53
844.41	1800.16
844.58	1671.14
844.75	1753.06
844.92	1695.72
845.09	1648.61
845.26	1611.75
845.43	1742.82
845.60	1617.90
845.77	1769.44
845.94	1712.10
846.10	1767.40
846.27	1665.00
846.44	1642.47
846.61	1691.62
846.78	1705.96
846.95	1742.82
847.12	1679.33
847.29	1624.04
847.46	1603.56
847.63	1730.53
847.80	1689.57
847.97	1689.57
848.14	1724.39
848.31	1660.90
848.48	1658.85
848.65	1710.05
848.82	1660.90
848.98	1820.64
849.15	1751.01
849.32	1798.12
849.49	1785.83
849.66	1691.62
849.83	1697.77
850.00	1667.05
850.17	1753.06
850.34	1705.96
850.51	1591.27
850.68	1687.53
850.85	1816.55
851.01	1710.05
851.18	1646.57
851.35	1708.01
851.52	1730.53
851.69	1699.81
851.86	1665.00
852.03	1648.61
852.20	1726.44
852.37	1640.42
852.53	1636.33
852.70	1673.19
852.87	1718.25
853.04	1734.63
853.21	1740.77
853.38	1712.10
853.55	1818.60
853.72	1705.96
853.89	1566.70
854.05	1642.47
854.22	1691.62
854.39	1710.05
854.56	1740.77
854.73	1728.49
854.90	1648.61
855.07	1748.97
855.23	1730.53
855.40	1646.57
855.57	1665.00
855.74	1544.17
855.91	1843.17
856.08	1587.18
856.25	1638.38
856.41	1693.67
856.58	1619.94
856.75	1685.48
856.92	1578.98
857.09	1755.11
857.26	1609.70
857.42	1660.90
857.59	1744.87
857.76	1658.85
857.93	1693.67
858.10	1681.38
858.27	1646.57
858.43	1769.44
858.60	1619.94
858.77	1617.90
858.94	1572.84
859.11	1689.57
859.27	1628.14
859.44	1652.71
859.61	1814.50
859.78	1662.95
859.95	1665.00
860.12	1605.61
860.28	1748.97
860.45	1818.60
860.62	1763.30
860.79	1730.53
860.95	1671.14
861.12	1656.81
861.29	1677.29
861.46	1617.90
861.63	1656.81
861.79	1687.53
861.96	1609.70
862.13	1787.88
862.30	1740.77
862.47	1581.03
862.63	1716.20
862.80	1730.53
862.97	1742.82
863.14	1689.57
863.30	1701.86
863.47	1689.57
863.64	1765.35
863.81	1724.39
863.97	1658.85
864.14	1730.53
864.31	1687.53
864.48	1783.78
864.65	1683.43
864.81	1744.87
864.98	1699.81
865.15	1724.39
865.32	1734.63
865.48	1773.54
865.65	1845.22
865.82	1632.23
865.98	1722.34
866.15	1798.12
866.32	1714.15
866.49	1710.05
866.65	1736.68
866.82	1615.85
866.99	1730.53
867.16	1665.00
867.32	1630.18
867.49	1675.24
867.66	1650.66
867.83	1687.53
867.99	1669.09
868.16	1640.42
868.33	1626.09
868.49	1705.96
868.66	1644.52
868.83	1769.44
868.99	1652.71
869.16	1642.47
869.33	1705.96
869.50	1765.35
869.66	1675.24
869.83	1730.53
870.00	1671.14
870.16	1689.57
870.33	1660.90
870.50	1732.58
870.66	1685.48
870.83	1832.93
871.00	1658.85
871.17	1738.73
871.33	1669.09
871.50	1734.63
871.67	1599.46
871.83	1685.48
872.00	1894.37
872.17	1681.38
872.33	1812.45
872.50	1736.68
872.67	1683.43
872.83	1689.57
873.00	1695.72
873.17	1660.90
873.33	1722.34
873.50	1779.68
873.67	1644.52
873.83	1689.57
874.00	1697.77
874.16	1755.11
874.33	1724.39
874.50	1689.57
874.66	1697.77
874.83	1763.30
875.00	1822.69
875.16	1734.63
875.33	1742.82
875.50	1609.70
875.66	1665.00
875.83	1726.44
875.99	1662.95
876.16	1718.25
876.33	1646.57
876.49	1781.73
876.66	1714.15
876.83	1681.38
876.99	1636.33
877.16	1763.30
877.32	1730.53
877.49	1599.46
877.66	1624.04
877.82	1853.41
877.99	1691.62
878.15	1781.73
878.32	1761.25
878.49	1650.66
878.65	1644.52
878.82	1732.58
878.98	1701.86
879.15	1763.30
879.32	1746.92
879.48	1714.15
879.65	1632.23
879.81	1755.11
879.98	1730.53
880.15	1626.09
880.31	1638.38
880.48	1626.09
880.64	1751.01
880.81	1697.77
880.97	1708.01
881.14	1794.02
881.31	1673.19
881.47	1798.12
881.64	1720.29
881.80	1609.70
881.97	1687.53
882.13	1806.31
882.30	1660.90
882.47	1697.77
882.63	1703.91
882.80	1673.19
882.96	1654.76
883.13	1703.91
883.29	1681.38
883.46	1687.53
883.62	1818.60
883.79	1685.48
883.95	1748.97
884.12	1628.14
884.29	1726.44
884.45	1697.77
884.62	1742.82
884.78	1628.14
884.95	1626.09
885.11	1689.57
885.28	1695.72
885.44	1683.43
885.61	1691.62
885.77	1726.44
885.94	1699.81
886.10	1667.05
886.27	1695.72
886.43	1767.40
886.60	1771.49
886.76	1665.00
886.93	1644.52
887.09	1693.67
887.26	1624.04
887.42	1751.01
887.59	1748.97
887.75	1837.03
887.92	1791.97
888.08	1736.68
888.25	1800.16
888.41	1708.01
888.58	1697.77
888.74	1644.52
888.91	1591.27
>>>>>End Processed Spectral Data<<<<<
