SpectraSuite Data File
++++++++++++++++++++++++++++++++++++
Date: Mon Jun 06 14:51:37 CEST 2016
User: root
Dark Spectrum Present: No
Reference Spectrum Present: No
Number of Sampled Component Spectra: 1
Spectrometers: USB4C02835
Integration Time (usec): 100000 (USB4C02835)
Spectra Averaged: 1 (USB4C02835)
Boxcar Smoothing: 0 (USB4C02835)
Correct for Electrical Dark: No (USB4C02835)
Strobe/Lamp Enabled: No (USB4C02835)
Correct for Detector Non-linearity: No (USB4C02835)
Correct for Stray Light: No (USB4C02835)
Number of Pixels in Processed Spectrum: 3648
>>>>>Begin Processed Spectral Data<<<<<
177.47	1437.67
177.69	1437.67
177.91	1437.67
178.13	1423.34
178.36	1501.16
178.58	1652.71
178.80	1730.53
179.02	1650.66
179.24	1630.18
179.46	1662.95
179.68	1701.86
179.90	1687.53
180.13	1730.53
180.35	1640.42
180.57	1691.62
180.79	1699.81
181.01	1660.90
181.23	1738.73
181.45	1775.59
181.67	1636.33
181.90	1701.86
182.12	1572.84
182.34	1591.27
182.56	1755.11
182.78	1697.77
183.00	1615.85
183.22	1722.34
183.44	1542.12
183.66	1802.21
183.89	1765.35
184.11	1683.43
184.33	1759.21
184.55	1810.40
184.77	1699.81
184.99	1689.57
185.21	1660.90
185.43	1826.79
185.65	1617.90
185.87	1740.77
186.10	1794.02
186.32	1898.47
186.54	1759.21
186.76	1695.72
186.98	1775.59
187.20	1732.58
187.42	1658.85
187.64	1775.59
187.86	1699.81
188.08	1877.99
188.30	1730.53
188.52	1644.52
188.75	1847.27
188.97	1720.29
189.19	1638.38
189.41	1693.67
189.63	1701.86
189.85	1628.14
190.07	1591.27
190.29	1656.81
190.51	1738.73
190.73	1685.48
190.95	1767.40
191.17	1751.01
191.39	1634.28
191.61	1611.75
191.84	1658.85
192.06	1761.25
192.28	1640.42
192.50	1894.37
192.72	1687.53
192.94	1693.67
193.16	1755.11
193.38	1675.24
193.60	1591.27
193.82	1732.58
194.04	1697.77
194.26	1734.63
194.48	1669.09
194.70	1722.34
194.92	1648.61
195.14	1718.25
195.36	1671.14
195.58	1675.24
195.80	1697.77
196.02	1656.81
196.24	1677.29
196.46	1765.35
196.69	1667.05
196.91	1892.32
197.13	1722.34
197.35	1650.66
197.57	1814.50
197.79	1787.88
198.01	1687.53
198.23	1662.95
198.45	1703.91
198.67	1640.42
198.89	1685.48
199.11	1759.21
199.33	1640.42
199.55	1552.36
199.77	1658.85
199.99	1812.45
200.21	1628.14
200.43	1779.68
200.65	1611.75
200.87	1613.80
201.09	1677.29
201.31	1697.77
201.53	1724.39
201.75	1751.01
201.97	1701.86
202.19	1695.72
202.41	1775.59
202.63	1759.21
202.85	1632.23
203.07	1699.81
203.29	1708.01
203.51	1634.28
203.73	1656.81
203.95	1875.94
204.17	1738.73
204.39	1708.01
204.61	1662.95
204.83	1665.00
205.05	1724.39
205.27	1771.49
205.49	1787.88
205.71	1675.24
205.93	1615.85
206.15	1673.19
206.37	1701.86
206.59	1660.90
206.81	1611.75
207.03	1675.24
207.25	1597.42
207.47	1751.01
207.69	1693.67
207.91	1818.60
208.13	1814.50
208.34	1710.05
208.56	1689.57
208.78	1763.30
209.00	1714.15
209.22	1650.66
209.44	1695.72
209.66	1652.71
209.88	1652.71
210.10	1656.81
210.32	1689.57
210.54	1746.92
210.76	1722.34
210.98	1755.11
211.20	1564.65
211.42	1642.47
211.64	1779.68
211.86	1779.68
212.08	1708.01
212.30	1693.67
212.52	1697.77
212.74	1718.25
212.96	1746.92
213.17	1722.34
213.39	1763.30
213.61	1791.97
213.83	1699.81
214.05	1632.23
214.27	1785.83
214.49	1613.80
214.71	1654.76
214.93	1761.25
215.15	1744.87
215.37	1714.15
215.59	1636.33
215.81	1814.50
216.03	1730.53
216.24	1615.85
216.46	1619.94
216.68	1667.05
216.90	1781.73
217.12	1716.20
217.34	1669.09
217.56	1681.38
217.78	1748.97
218.00	1687.53
218.22	1730.53
218.44	1720.29
218.66	1691.62
218.87	1820.64
219.09	1675.24
219.31	1691.62
219.53	1738.73
219.75	1667.05
219.97	1644.52
220.19	1691.62
220.41	1738.73
220.63	1769.44
220.85	1714.15
221.06	1644.52
221.28	1863.65
221.50	1806.31
221.72	1736.68
221.94	1777.64
222.16	1658.85
222.38	1724.39
222.60	1730.53
222.82	1736.68
223.03	1751.01
223.25	1675.24
223.47	1748.97
223.69	1783.78
223.91	1742.82
224.13	1724.39
224.35	1669.09
224.57	1796.07
224.78	1796.07
225.00	1665.00
225.22	1636.33
225.44	1640.42
225.66	1783.78
225.88	1708.01
226.10	1785.83
226.32	1638.38
226.53	1710.05
226.75	1718.25
226.97	1685.48
227.19	1693.67
227.41	1662.95
227.63	1677.29
227.85	1640.42
228.06	1697.77
228.28	1718.25
228.50	1748.97
228.72	1595.37
228.94	1613.80
229.16	1648.61
229.37	1599.46
229.59	1636.33
229.81	1738.73
230.03	1658.85
230.25	1599.46
230.47	1611.75
230.69	1656.81
230.90	1763.30
231.12	1716.20
231.34	1726.44
231.56	1748.97
231.78	1621.99
232.00	1705.96
232.21	1650.66
232.43	1665.00
232.65	1570.79
232.87	1738.73
233.09	1576.94
233.30	1658.85
233.52	1773.54
233.74	1697.77
233.96	1675.24
234.18	1699.81
234.40	1740.77
234.61	1771.49
234.83	1611.75
235.05	1640.42
235.27	1818.60
235.49	1722.34
235.70	1662.95
235.92	1755.11
236.14	1826.79
236.36	1873.89
236.58	1669.09
236.79	1746.92
237.01	1703.91
237.23	1712.10
237.45	1810.40
237.67	1638.38
237.88	1591.27
238.10	1806.31
238.32	1542.12
238.54	1761.25
238.76	1662.95
238.97	1675.24
239.19	1624.04
239.41	1703.91
239.63	1796.07
239.85	1781.73
240.06	1732.58
240.28	1685.48
240.50	1693.67
240.72	1728.49
240.93	1650.66
241.15	1732.58
241.37	1621.99
241.59	1802.21
241.81	1705.96
242.02	1734.63
242.24	1767.40
242.46	1681.38
242.68	1632.23
242.89	1789.92
243.11	1748.97
243.33	1701.86
243.55	1693.67
243.76	1665.00
243.98	1714.15
244.20	1650.66
244.42	1701.86
244.64	1718.25
244.85	1542.12
245.07	1585.13
245.29	1746.92
245.51	1742.82
245.72	1708.01
245.94	1736.68
246.16	1789.92
246.38	1834.98
246.59	1658.85
246.81	1685.48
247.03	1648.61
247.24	1650.66
247.46	1630.18
247.68	1697.77
247.90	1656.81
248.11	1640.42
248.33	1748.97
248.55	1660.90
248.77	1777.64
248.98	1720.29
249.20	1726.44
249.42	1722.34
249.64	1648.61
249.85	1720.29
250.07	1681.38
250.29	1775.59
250.50	1708.01
250.72	1597.42
250.94	1712.10
251.16	1814.50
251.37	1748.97
251.59	1714.15
251.81	1794.02
252.02	1769.44
252.24	1669.09
252.46	1759.21
252.68	1689.57
252.89	1685.48
253.11	1525.74
253.33	1834.98
253.54	1785.83
253.76	1568.74
253.98	1669.09
254.20	1708.01
254.41	1728.49
254.63	1679.33
254.85	1626.09
255.06	1746.92
255.28	1771.49
255.50	1675.24
255.71	1685.48
255.93	1617.90
256.15	1728.49
256.36	1816.55
256.58	1669.09
256.80	1714.15
257.02	1701.86
257.23	1675.24
257.45	1685.48
257.67	1726.44
257.88	1669.09
258.10	1730.53
258.32	1679.33
258.53	1648.61
258.75	1800.16
258.97	1630.18
259.18	1703.91
259.40	1726.44
259.62	1789.92
259.83	1812.45
260.05	1781.73
260.27	1880.04
260.48	1738.73
260.70	1650.66
260.92	1599.46
261.13	1722.34
261.35	1742.82
261.57	1716.20
261.78	1621.99
262.00	1585.13
262.22	1814.50
262.43	1677.29
262.65	1662.95
262.86	1669.09
263.08	1834.98
263.30	1671.14
263.51	1626.09
263.73	1703.91
263.95	1818.60
264.16	1605.61
264.38	1665.00
264.60	1656.81
264.81	1673.19
265.03	1761.25
265.25	1746.92
265.46	1691.62
265.68	1763.30
265.89	1751.01
266.11	1601.51
266.33	1771.49
266.54	1804.26
266.76	1689.57
266.98	1769.44
267.19	1812.45
267.41	1753.06
267.62	1714.15
267.84	1609.70
268.06	1699.81
268.27	1740.77
268.49	1828.84
268.70	1730.53
268.92	1669.09
269.14	1681.38
269.35	1531.88
269.57	1679.33
269.79	1800.16
270.00	1673.19
270.22	1800.16
270.43	1634.28
270.65	1617.90
270.87	1753.06
271.08	1804.26
271.30	1753.06
271.51	1718.25
271.73	1789.92
271.95	1771.49
272.16	1685.48
272.38	1765.35
272.59	1660.90
272.81	1691.62
273.02	1732.58
273.24	1683.43
273.46	1814.50
273.67	1605.61
273.89	1589.22
274.10	1648.61
274.32	1748.97
274.54	1781.73
274.75	1761.25
274.97	1685.48
275.18	1716.20
275.40	1652.71
275.61	1701.86
275.83	1695.72
276.05	1720.29
276.26	1658.85
276.48	1716.20
276.69	1683.43
276.91	1679.33
277.12	1802.21
277.34	1726.44
277.55	1738.73
277.77	1695.72
277.99	1617.90
278.20	1595.37
278.42	1615.85
278.63	1644.52
278.85	1697.77
279.06	1646.57
279.28	1714.15
279.49	1710.05
279.71	1796.07
279.93	1726.44
280.14	1665.00
280.36	1632.23
280.57	1730.53
280.79	1763.30
281.00	1712.10
281.22	1681.38
281.43	1740.77
281.65	1626.09
281.86	1736.68
282.08	1710.05
282.29	1824.74
282.51	1728.49
282.73	1634.28
282.94	1615.85
283.16	1851.36
283.37	1802.21
283.59	1691.62
283.80	1718.25
284.02	1697.77
284.23	1746.92
284.45	1677.29
284.66	1607.66
284.88	1654.76
285.09	1755.11
285.31	1779.68
285.52	1777.64
285.74	1632.23
285.95	1726.44
286.17	1789.92
286.38	1763.30
286.60	1669.09
286.81	1619.94
287.03	1716.20
287.24	1669.09
287.46	1726.44
287.67	1724.39
287.89	1830.88
288.10	1669.09
288.32	1685.48
288.53	1701.86
288.75	1693.67
288.96	1726.44
289.18	1695.72
289.39	1685.48
289.61	1755.11
289.82	1857.51
290.04	1787.88
290.25	1628.14
290.47	1712.10
290.68	1714.15
290.90	1796.07
291.11	1597.42
291.33	1755.11
291.54	1656.81
291.76	1714.15
291.97	1738.73
292.18	1646.57
292.40	1648.61
292.61	1697.77
292.83	1841.12
293.04	1705.96
293.26	1689.57
293.47	1708.01
293.69	1724.39
293.90	1634.28
294.12	1740.77
294.33	1777.64
294.55	1673.19
294.76	1730.53
294.97	1843.17
295.19	1783.78
295.40	1685.48
295.62	1757.16
295.83	1779.68
296.05	1619.94
296.26	1726.44
296.48	1681.38
296.69	1728.49
296.90	1703.91
297.12	1740.77
297.33	1705.96
297.55	1671.14
297.76	1753.06
297.98	1763.30
298.19	1689.57
298.41	1708.01
298.62	1644.52
298.83	1818.60
299.05	1671.14
299.26	1650.66
299.48	1650.66
299.69	1791.97
299.90	1712.10
300.12	1638.38
300.33	1685.48
300.55	1634.28
300.76	1806.31
300.98	1621.99
301.19	1722.34
301.40	1667.05
301.62	1685.48
301.83	1734.63
302.05	1755.11
302.26	1689.57
302.47	1701.86
302.69	1697.77
302.90	1693.67
303.12	1556.46
303.33	1736.68
303.54	1806.31
303.76	1697.77
303.97	1662.95
304.19	1785.83
304.40	1552.36
304.61	1710.05
304.83	1734.63
305.04	1775.59
305.26	1693.67
305.47	1646.57
305.68	1732.58
305.90	1611.75
306.11	1701.86
306.33	1671.14
306.54	1656.81
306.75	1671.14
306.97	1570.79
307.18	1652.71
307.39	1697.77
307.61	1732.58
307.82	1617.90
308.04	1722.34
308.25	1695.72
308.46	1796.07
308.68	1662.95
308.89	1728.49
309.10	1716.20
309.32	1685.48
309.53	1679.33
309.74	1742.82
309.96	1714.15
310.17	1769.44
310.39	1708.01
310.60	1642.47
310.81	1673.19
311.03	1652.71
311.24	1720.29
311.45	1662.95
311.67	1845.22
311.88	1751.01
312.09	1662.95
312.31	1669.09
312.52	1665.00
312.73	1705.96
312.95	1689.57
313.16	1730.53
313.37	1740.77
313.59	1722.34
313.80	1693.67
314.01	1740.77
314.23	1650.66
314.44	1730.53
314.65	1648.61
314.87	1712.10
315.08	1656.81
315.29	1675.24
315.51	1673.19
315.72	1591.27
315.93	1820.64
316.15	1828.84
316.36	1630.18
316.57	1736.68
316.79	1695.72
317.00	1679.33
317.21	1691.62
317.43	1626.09
317.64	1724.39
317.85	1716.20
318.07	1701.86
318.28	1759.21
318.49	1781.73
318.70	1898.47
318.92	1857.51
319.13	1896.42
319.34	1871.84
319.56	1867.75
319.77	1748.97
319.98	1834.98
320.20	1781.73
320.41	1683.43
320.62	1734.63
320.83	1673.19
321.05	1857.51
321.26	1697.77
321.47	1695.72
321.69	1716.20
321.90	1667.05
322.11	1730.53
322.32	1753.06
322.54	1759.21
322.75	1703.91
322.96	1820.64
323.18	1658.85
323.39	1601.51
323.60	1628.14
323.81	1787.88
324.03	1656.81
324.24	1783.78
324.45	1714.15
324.66	1697.77
324.88	1748.97
325.09	1787.88
325.30	1607.66
325.52	1775.59
325.73	1677.29
325.94	1609.70
326.15	1546.22
326.37	1658.85
326.58	1802.21
326.79	1755.11
327.00	1660.90
327.22	1730.53
327.43	1714.15
327.64	1621.99
327.85	1751.01
328.07	1779.68
328.28	1818.60
328.49	1701.86
328.70	1677.29
328.92	1755.11
329.13	1644.52
329.34	1656.81
329.55	1818.60
329.76	1746.92
329.98	1675.24
330.19	1714.15
330.40	1753.06
330.61	1652.71
330.83	1771.49
331.04	1628.14
331.25	1660.90
331.46	1660.90
331.68	1677.29
331.89	1746.92
332.10	1658.85
332.31	1656.81
332.52	1673.19
332.74	1798.12
332.95	1640.42
333.16	1656.81
333.37	1644.52
333.58	1654.76
333.80	1814.50
334.01	1638.38
334.22	1685.48
334.43	1746.92
334.64	1679.33
334.86	1685.48
335.07	1646.57
335.28	1710.05
335.49	1683.43
335.70	1716.20
335.92	1753.06
336.13	1773.54
336.34	1714.15
336.55	1746.92
336.76	1679.33
336.98	1607.66
337.19	1722.34
337.40	1820.64
337.61	1890.28
337.82	1705.96
338.04	1767.40
338.25	1714.15
338.46	1656.81
338.67	1728.49
338.88	1720.29
339.09	1652.71
339.31	1652.71
339.52	1699.81
339.73	1681.38
339.94	1697.77
340.15	1767.40
340.36	1669.09
340.58	1712.10
340.79	1656.81
341.00	1716.20
341.21	1617.90
341.42	1804.26
341.63	1695.72
341.85	1732.58
342.06	1738.73
342.27	1720.29
342.48	1753.06
342.69	1646.57
342.90	1744.87
343.12	1681.38
343.33	1640.42
343.54	1789.92
343.75	1783.78
343.96	1673.19
344.17	1644.52
344.38	1660.90
344.60	1587.18
344.81	1665.00
345.02	1685.48
345.23	1763.30
345.44	1804.26
345.65	1689.57
345.86	1763.30
346.07	1705.96
346.29	1708.01
346.50	1748.97
346.71	1669.09
346.92	1753.06
347.13	1828.84
347.34	1675.24
347.55	1710.05
347.76	1738.73
347.98	1597.42
348.19	1566.70
348.40	1773.54
348.61	1621.99
348.82	1773.54
349.03	1789.92
349.24	1630.18
349.45	1822.69
349.66	1505.26
349.88	1697.77
350.09	1683.43
350.30	1783.78
350.51	1791.97
350.72	1787.88
350.93	1681.38
351.14	1691.62
351.35	1755.11
351.56	1667.05
351.77	1667.05
351.99	1744.87
352.20	1865.70
352.41	1695.72
352.62	1619.94
352.83	1646.57
353.04	1714.15
353.25	1665.00
353.46	1789.92
353.67	1798.12
353.88	1599.46
354.09	1753.06
354.30	1724.39
354.52	1669.09
354.73	1685.48
354.94	1671.14
355.15	1740.77
355.36	1832.93
355.57	1689.57
355.78	1728.49
355.99	1638.38
356.20	1738.73
356.41	1798.12
356.62	1714.15
356.83	1642.47
357.04	1755.11
357.25	1642.47
357.46	1646.57
357.68	1683.43
357.89	1644.52
358.10	1705.96
358.31	1724.39
358.52	1665.00
358.73	1701.86
358.94	1595.37
359.15	1675.24
359.36	1720.29
359.57	1673.19
359.78	1718.25
359.99	1710.05
360.20	1642.47
360.41	1712.10
360.62	1763.30
360.83	1685.48
361.04	1689.57
361.25	1701.86
361.46	1785.83
361.67	1751.01
361.88	1705.96
362.09	1769.44
362.30	1748.97
362.51	1632.23
362.72	1757.16
362.93	1763.30
363.14	1710.05
363.35	1732.58
363.56	1667.05
363.78	1718.25
363.99	1705.96
364.20	1667.05
364.41	1677.29
364.62	1857.51
364.83	1693.67
365.04	1667.05
365.25	1697.77
365.46	1785.83
365.67	1626.09
365.88	1683.43
366.09	1619.94
366.30	1718.25
366.51	1701.86
366.72	1640.42
366.93	1699.81
367.14	1738.73
367.35	1779.68
367.56	1677.29
367.77	1781.73
367.98	1632.23
368.18	1751.01
368.39	1710.05
368.60	1587.18
368.81	1732.58
369.02	1621.99
369.23	1763.30
369.44	1615.85
369.65	1617.90
369.86	1648.61
370.07	1816.55
370.28	1642.47
370.49	1746.92
370.70	1734.63
370.91	1691.62
371.12	1665.00
371.33	1734.63
371.54	1734.63
371.75	1763.30
371.96	1595.37
372.17	1687.53
372.38	1638.38
372.59	1783.78
372.80	1658.85
373.01	1644.52
373.22	1732.58
373.43	1791.97
373.64	1642.47
373.85	1755.11
374.06	1759.21
374.26	1751.01
374.47	1742.82
374.68	1816.55
374.89	1746.92
375.10	1656.81
375.31	1810.40
375.52	1738.73
375.73	1730.53
375.94	1681.38
376.15	1794.02
376.36	1642.47
376.57	1675.24
376.78	1658.85
376.99	1705.96
377.20	1767.40
377.40	1765.35
377.61	1834.98
377.82	1603.56
378.03	1763.30
378.24	1697.77
378.45	1705.96
378.66	1740.77
378.87	1640.42
379.08	1603.56
379.29	1720.29
379.50	1742.82
379.71	1691.62
379.91	1740.77
380.12	1650.66
380.33	1716.20
380.54	1662.95
380.75	1742.82
380.96	1646.57
381.17	1783.78
381.38	1665.00
381.59	1681.38
381.80	1742.82
382.00	1808.36
382.21	1691.62
382.42	1861.60
382.63	1904.61
382.84	1857.51
383.05	1794.02
383.26	1742.82
383.47	1701.86
383.68	1761.25
383.88	1751.01
384.09	1642.47
384.30	1814.50
384.51	1718.25
384.72	1675.24
384.93	1695.72
385.14	1734.63
385.35	1728.49
385.55	1650.66
385.76	1724.39
385.97	1687.53
386.18	1585.13
386.39	1654.76
386.60	1716.20
386.81	1646.57
387.02	1714.15
387.22	1611.75
387.43	1820.64
387.64	1718.25
387.85	1918.95
388.06	2285.53
388.27	4503.48
388.48	6920.09
388.68	8355.71
388.89	9889.64
389.10	9815.91
389.31	8744.83
389.52	7751.56
389.73	6813.59
389.93	6401.95
390.14	6002.60
390.35	5273.52
390.56	4523.96
390.77	3930.05
390.98	3028.95
391.18	2557.91
391.39	2195.42
391.60	1865.70
391.81	1841.12
392.02	1703.91
392.23	1834.98
392.43	1730.53
392.64	1738.73
392.85	1681.38
393.06	1775.59
393.27	1757.16
393.47	1732.58
393.68	1742.82
393.89	1617.90
394.10	1802.21
394.31	1679.33
394.52	1689.57
394.72	1683.43
394.93	1796.07
395.14	1714.15
395.35	1689.57
395.56	1689.57
395.76	1701.86
395.97	1810.40
396.18	1800.16
396.39	1781.73
396.60	2025.44
396.80	1908.71
397.01	1812.45
397.22	1828.84
397.43	1820.64
397.64	1777.64
397.84	1822.69
398.05	1855.46
398.26	1763.30
398.47	1781.73
398.67	1796.07
398.88	1732.58
399.09	1751.01
399.30	1671.14
399.51	1734.63
399.71	1646.57
399.92	1730.53
400.13	1695.72
400.34	1728.49
400.54	1691.62
400.75	1787.88
400.96	1673.19
401.17	1783.78
401.37	1656.81
401.58	1734.63
401.79	1726.44
402.00	1845.22
402.21	1972.19
402.41	1943.52
402.62	1970.15
402.83	1925.09
403.04	2015.20
403.24	2168.80
403.45	1859.56
403.66	1890.28
403.87	1859.56
404.07	1937.38
404.28	1880.04
404.49	1845.22
404.70	1753.06
404.90	1751.01
405.11	1710.05
405.32	1751.01
405.52	1705.96
405.73	1675.24
405.94	1671.14
406.15	1613.80
406.35	1703.91
406.56	1716.20
406.77	1789.92
406.98	1771.49
407.18	1593.32
407.39	1759.21
407.60	1742.82
407.80	1779.68
408.01	1722.34
408.22	1744.87
408.43	1624.04
408.63	1748.97
408.84	1679.33
409.05	1722.34
409.25	1679.33
409.46	1605.61
409.67	1667.05
409.88	1656.81
410.08	1724.39
410.29	1673.19
410.50	1742.82
410.70	1669.09
410.91	1595.37
411.12	1783.78
411.32	1646.57
411.53	1644.52
411.74	1771.49
411.95	1798.12
412.15	1773.54
412.36	1869.80
412.57	1724.39
412.77	1828.84
412.98	1685.48
413.19	1714.15
413.39	1755.11
413.60	1728.49
413.81	1814.50
414.01	1656.81
414.22	1705.96
414.43	1728.49
414.63	1656.81
414.84	1710.05
415.05	1716.20
415.25	1697.77
415.46	1800.16
415.67	1703.91
415.87	1714.15
416.08	1681.38
416.29	1562.60
416.49	1785.83
416.70	1607.66
416.91	1697.77
417.11	1685.48
417.32	1796.07
417.53	1781.73
417.73	1675.24
417.94	1714.15
418.15	1783.78
418.35	1697.77
418.56	1718.25
418.77	1804.26
418.97	1720.29
419.18	1687.53
419.38	1566.70
419.59	1687.53
419.80	1824.74
420.00	1654.76
420.21	1697.77
420.42	1728.49
420.62	1763.30
420.83	1724.39
421.04	1634.28
421.24	1722.34
421.45	1796.07
421.65	1691.62
421.86	1624.04
422.07	1685.48
422.27	1744.87
422.48	1730.53
422.69	1669.09
422.89	1742.82
423.10	1677.29
423.30	1630.18
423.51	1689.57
423.72	1714.15
423.92	1775.59
424.13	1611.75
424.33	1748.97
424.54	1697.77
424.75	1724.39
424.95	1794.02
425.16	1781.73
425.36	1640.42
425.57	1761.25
425.78	1740.77
425.98	1781.73
426.19	1640.42
426.39	1619.94
426.60	1732.58
426.81	1822.69
427.01	1763.30
427.22	1689.57
427.42	1599.46
427.63	1654.76
427.83	1753.06
428.04	1841.12
428.25	1738.73
428.45	1812.45
428.66	1726.44
428.86	1738.73
429.07	1689.57
429.28	1675.24
429.48	1705.96
429.69	1619.94
429.89	1720.29
430.10	1732.58
430.30	1767.40
430.51	1765.35
430.71	1667.05
430.92	1761.25
431.13	1669.09
431.33	1757.16
431.54	1656.81
431.74	1783.78
431.95	1798.12
432.15	1578.98
432.36	1763.30
432.56	1712.10
432.77	1744.87
432.98	1785.83
433.18	1716.20
433.39	1703.91
433.59	1699.81
433.80	1822.69
434.00	1890.28
434.21	1734.63
434.41	1603.56
434.62	1904.61
434.82	1621.99
435.03	1689.57
435.23	1640.42
435.44	1626.09
435.64	1728.49
435.85	1699.81
436.06	1730.53
436.26	1800.16
436.47	1767.40
436.67	1699.81
436.88	1753.06
437.08	1734.63
437.29	1843.17
437.49	1714.15
437.70	1732.58
437.90	1652.71
438.11	1857.51
438.31	1675.24
438.52	1771.49
438.72	1847.27
438.93	1894.37
439.13	1802.21
439.34	1753.06
439.54	1740.77
439.75	1810.40
439.95	1781.73
440.16	1695.72
440.36	1695.72
440.57	1746.92
440.77	1748.97
440.98	1687.53
441.18	1773.54
441.39	1675.24
441.59	1705.96
441.80	1877.99
442.00	1673.19
442.21	1771.49
442.41	1675.24
442.62	1779.68
442.82	1718.25
443.02	1699.81
443.23	1667.05
443.43	1763.30
443.64	1804.26
443.84	1710.05
444.05	1742.82
444.25	1738.73
444.46	1714.15
444.66	1722.34
444.87	1787.88
445.07	1712.10
445.28	1798.12
445.48	1843.17
445.69	1751.01
445.89	1900.52
446.09	1714.15
446.30	2078.69
446.50	2639.83
446.71	3778.50
446.91	4433.85
447.12	4863.93
447.32	4892.60
447.53	4364.22
447.73	3868.61
447.93	3565.51
448.14	3401.68
448.34	3192.78
448.55	2947.03
448.75	2875.35
448.96	2734.04
449.16	2475.99
449.36	2207.71
449.57	2039.78
449.77	1886.18
449.98	1773.54
450.18	1732.58
450.39	1765.35
450.59	1814.50
450.79	1679.33
451.00	1726.44
451.20	1867.75
451.41	1763.30
451.61	1820.64
451.81	1685.48
452.02	1812.45
452.22	1673.19
452.43	1701.86
452.63	1691.62
452.84	1738.73
453.04	1703.91
453.24	1685.48
453.45	1740.77
453.65	1648.61
453.86	1787.88
454.06	1693.67
454.26	1642.47
454.47	1759.21
454.67	1867.75
454.87	1720.29
455.08	1748.97
455.28	1869.80
455.49	1722.34
455.69	1730.53
455.89	1920.99
456.10	1804.26
456.30	1697.77
456.51	1789.92
456.71	1765.35
456.91	1732.58
457.12	1691.62
457.32	1775.59
457.52	1642.47
457.73	1753.06
457.93	1828.84
458.14	1673.19
458.34	1632.23
458.54	1716.20
458.75	1689.57
458.95	1740.77
459.15	1808.36
459.36	1800.16
459.56	1736.68
459.76	1843.17
459.97	1775.59
460.17	1712.10
460.37	1787.88
460.58	1734.63
460.78	1763.30
460.99	1638.38
461.19	1765.35
461.39	1646.57
461.60	1693.67
461.80	1822.69
462.00	1724.39
462.21	1794.02
462.41	1705.96
462.61	1701.86
462.82	1632.23
463.02	1728.49
463.22	1804.26
463.43	1785.83
463.63	1693.67
463.83	1789.92
464.04	1763.30
464.24	1660.90
464.44	1703.91
464.64	1755.11
464.85	1751.01
465.05	1771.49
465.25	1669.09
465.46	1679.33
465.66	1763.30
465.86	1730.53
466.07	1734.63
466.27	1718.25
466.47	1581.03
466.68	1560.55
466.88	1794.02
467.08	1816.55
467.29	1806.31
467.49	1769.44
467.69	1636.33
467.89	1794.02
468.10	1693.67
468.30	1746.92
468.50	1779.68
468.71	1765.35
468.91	1656.81
469.11	1832.93
469.31	1695.72
469.52	1759.21
469.72	1845.22
469.92	1908.71
470.13	1759.21
470.33	1738.73
470.53	1806.31
470.73	2109.41
470.94	2275.29
471.14	2369.50
471.34	2516.95
471.54	2389.98
471.75	2220.00
471.95	2093.02
472.15	2070.50
472.36	2041.82
472.56	2033.63
472.76	2029.54
472.96	2101.22
473.17	1931.23
473.37	1929.19
473.57	1712.10
473.77	1740.77
473.98	1708.01
474.18	1662.95
474.38	1929.19
474.58	1730.53
474.79	1744.87
474.99	1777.64
475.19	1787.88
475.39	1615.85
475.60	1689.57
475.80	1796.07
476.00	1736.68
476.20	1710.05
476.41	1783.78
476.61	1839.08
476.81	1820.64
477.01	1671.14
477.21	1886.18
477.42	1861.60
477.62	1691.62
477.82	1693.67
478.02	1738.73
478.23	1685.48
478.43	1701.86
478.63	1755.11
478.83	1681.38
479.03	1720.29
479.24	1798.12
479.44	1824.74
479.64	1669.09
479.84	1619.94
480.04	1638.38
480.25	1773.54
480.45	1699.81
480.65	1730.53
480.85	1806.31
481.06	1726.44
481.26	1748.97
481.46	1769.44
481.66	1789.92
481.86	1697.77
482.06	1759.21
482.27	1716.20
482.47	1751.01
482.67	1708.01
482.87	1736.68
483.07	1806.31
483.28	1697.77
483.48	1689.57
483.68	1763.30
483.88	1685.48
484.08	1654.76
484.29	1634.28
484.49	1787.88
484.69	1699.81
484.89	1789.92
485.09	1767.40
485.29	1683.43
485.50	1669.09
485.70	1697.77
485.90	1769.44
486.10	1654.76
486.30	1720.29
486.50	1789.92
486.71	1730.53
486.91	1726.44
487.11	1781.73
487.31	1644.52
487.51	1726.44
487.71	1617.90
487.91	1685.48
488.12	1681.38
488.32	1566.70
488.52	1720.29
488.72	1562.60
488.92	1744.87
489.12	1769.44
489.32	1769.44
489.53	1748.97
489.73	1665.00
489.93	1839.08
490.13	1730.53
490.33	1560.55
490.53	1765.35
490.73	1751.01
490.94	1621.99
491.14	1789.92
491.34	1849.32
491.54	2058.21
491.74	2533.34
491.94	2936.79
492.14	3002.32
492.34	3004.37
492.54	2836.44
492.75	2512.86
492.95	2480.09
493.15	2263.01
493.35	2314.20
493.55	2183.13
493.75	2136.03
493.95	2144.22
494.15	2058.21
494.35	1888.23
494.56	1894.37
494.76	1810.40
494.96	1814.50
495.16	1818.60
495.36	1783.78
495.56	1744.87
495.76	1693.67
495.96	1685.48
496.16	1685.48
496.36	1894.37
496.56	1689.57
496.77	1732.58
496.97	1748.97
497.17	1722.34
497.37	1701.86
497.57	1691.62
497.77	1728.49
497.97	1673.19
498.17	1736.68
498.37	1730.53
498.57	1769.44
498.77	1685.48
498.97	1736.68
499.17	1837.03
499.38	1708.01
499.58	1804.26
499.78	1816.55
499.98	1759.21
500.18	1738.73
500.38	1759.21
500.58	1904.61
500.78	2527.19
500.98	4624.31
501.18	5969.83
501.38	7024.53
501.58	7204.75
501.78	6780.82
501.98	5699.50
502.18	5087.15
502.38	4575.16
502.58	4104.13
502.78	3903.43
502.98	3637.19
503.18	3618.76
503.38	3231.69
503.59	2805.72
503.79	2752.47
503.99	2500.57
504.19	2275.29
504.39	2191.33
504.59	2254.81
504.79	2133.98
504.99	2064.35
505.19	1920.99
505.39	1880.04
505.59	1943.52
505.79	1904.61
505.99	1841.12
506.19	1826.79
506.39	1882.08
506.59	1697.77
506.79	1716.20
506.99	1798.12
507.19	1853.41
507.39	1744.87
507.59	1675.24
507.79	1687.53
507.99	1730.53
508.19	1740.77
508.39	1755.11
508.59	1722.34
508.79	1816.55
508.99	1746.92
509.19	1695.72
509.39	1777.64
509.59	1671.14
509.79	1757.16
509.99	1738.73
510.19	1806.31
510.39	1767.40
510.59	1791.97
510.79	1613.80
510.99	1640.42
511.19	1716.20
511.39	1820.64
511.59	1841.12
511.79	1722.34
511.99	1755.11
512.19	1765.35
512.38	1644.52
512.58	1730.53
512.78	1708.01
512.98	1767.40
513.18	1800.16
513.38	1718.25
513.58	1820.64
513.78	1630.18
513.98	1730.53
514.18	1755.11
514.38	1677.29
514.58	1738.73
514.78	1613.80
514.98	1701.86
515.18	1738.73
515.38	1693.67
515.58	1830.88
515.78	1693.67
515.98	1667.05
516.18	1748.97
516.38	1718.25
516.57	1787.88
516.77	1736.68
516.97	1773.54
517.17	1693.67
517.37	1650.66
517.57	1849.32
517.77	1742.82
517.97	1660.90
518.17	1785.83
518.37	1640.42
518.57	1665.00
518.77	1642.47
518.97	1812.45
519.16	1765.35
519.36	1773.54
519.56	1714.15
519.76	1699.81
519.96	1738.73
520.16	1816.55
520.36	1650.66
520.56	1714.15
520.76	1695.72
520.96	1705.96
521.16	1796.07
521.35	1810.40
521.55	1839.08
521.75	1800.16
521.95	1724.39
522.15	1673.19
522.35	1714.15
522.55	1730.53
522.75	1734.63
522.95	1724.39
523.14	1814.50
523.34	1751.01
523.54	1716.20
523.74	1736.68
523.94	1738.73
524.14	1710.05
524.34	1783.78
524.54	1837.03
524.73	1771.49
524.93	1681.38
525.13	1681.38
525.33	1644.52
525.53	1920.99
525.73	1822.69
525.93	1701.86
526.13	1703.91
526.32	1687.53
526.52	1775.59
526.72	1703.91
526.92	1763.30
527.12	1808.36
527.32	1695.72
527.52	1806.31
527.71	1771.49
527.91	1681.38
528.11	1695.72
528.31	1708.01
528.51	1605.61
528.71	1738.73
528.90	1744.87
529.10	1710.05
529.30	1800.16
529.50	1603.56
529.70	1689.57
529.90	1728.49
530.09	1665.00
530.29	1660.90
530.49	1642.47
530.69	1853.41
530.89	1765.35
531.09	1806.31
531.28	1738.73
531.48	1769.44
531.68	1849.32
531.88	1773.54
532.08	1761.25
532.28	1738.73
532.47	1726.44
532.67	1824.74
532.87	1689.57
533.07	1693.67
533.27	1802.21
533.46	1777.64
533.66	1699.81
533.86	1699.81
534.06	1703.91
534.26	1763.30
534.45	1834.98
534.65	1814.50
534.85	1701.86
535.05	1742.82
535.25	1740.77
535.44	1669.09
535.64	1791.97
535.84	1767.40
536.04	1662.95
536.24	1712.10
536.43	1714.15
536.63	1744.87
536.83	1667.05
537.03	1736.68
537.22	1683.43
537.42	1583.08
537.62	1755.11
537.82	1736.68
538.02	1775.59
538.21	1814.50
538.41	1976.29
538.61	1718.25
538.81	1673.19
539.00	1824.74
539.20	1642.47
539.40	1740.77
539.60	1771.49
539.79	1765.35
539.99	1765.35
540.19	1726.44
540.39	1740.77
540.58	1777.64
540.78	1902.56
540.98	1755.11
541.18	1871.84
541.37	1767.40
541.57	1748.97
541.77	1691.62
541.97	1660.90
542.16	1652.71
542.36	1716.20
542.56	1687.53
542.76	1886.18
542.95	1705.96
543.15	1718.25
543.35	1730.53
543.54	1771.49
543.74	1705.96
543.94	1837.03
544.14	1640.42
544.33	1775.59
544.53	1708.01
544.73	1738.73
544.93	1773.54
545.12	1753.06
545.32	1730.53
545.52	1720.29
545.71	1650.66
545.91	1714.15
546.11	1697.77
546.30	1646.57
546.50	1722.34
546.70	1808.36
546.90	1763.30
547.09	1660.90
547.29	1705.96
547.49	1767.40
547.68	1746.92
547.88	1710.05
548.08	1708.01
548.27	2211.81
548.47	1626.09
548.67	1728.49
548.87	1816.55
549.06	1720.29
549.26	1689.57
549.46	1832.93
549.65	1734.63
549.85	1708.01
550.05	1767.40
550.24	1683.43
550.44	1724.39
550.64	1748.97
550.83	1791.97
551.03	1787.88
551.23	1773.54
551.42	1757.16
551.62	1814.50
551.82	1712.10
552.01	1755.11
552.21	1783.78
552.41	1771.49
552.60	1818.60
552.80	1794.02
553.00	1720.29
553.19	1712.10
553.39	1859.56
553.59	1675.24
553.78	1748.97
553.98	1724.39
554.17	1658.85
554.37	1816.55
554.57	1730.53
554.76	1624.04
554.96	1744.87
555.16	1755.11
555.35	1722.34
555.55	1769.44
555.75	1734.63
555.94	1806.31
556.14	1738.73
556.33	1816.55
556.53	1767.40
556.73	1714.15
556.92	1847.27
557.12	1865.70
557.32	1755.11
557.51	1822.69
557.71	1861.60
557.90	1796.07
558.10	1834.98
558.30	1708.01
558.49	1734.63
558.69	1763.30
558.88	1800.16
559.08	1787.88
559.28	1742.82
559.47	1755.11
559.67	1779.68
559.86	1855.46
560.06	1794.02
560.26	1753.06
560.45	1769.44
560.65	1693.67
560.84	1812.45
561.04	1689.57
561.24	1830.88
561.43	1693.67
561.63	1851.36
561.82	1724.39
562.02	1710.05
562.22	1671.14
562.41	1695.72
562.61	1714.15
562.80	1687.53
563.00	1865.70
563.19	1755.11
563.39	1726.44
563.59	1712.10
563.78	1701.86
563.98	1667.05
564.17	1712.10
564.37	1621.99
564.56	1734.63
564.76	1652.71
564.96	1767.40
565.15	1746.92
565.35	1902.56
565.54	1656.81
565.74	1738.73
565.93	1679.33
566.13	1736.68
566.32	1724.39
566.52	1703.91
566.71	1708.01
566.91	1665.00
567.11	1732.58
567.30	1648.61
567.50	1822.69
567.69	1771.49
567.89	1695.72
568.08	1677.29
568.28	1753.06
568.47	1640.42
568.67	1730.53
568.86	1658.85
569.06	1763.30
569.25	1703.91
569.45	1634.28
569.64	1710.05
569.84	1695.72
570.04	1779.68
570.23	1667.05
570.43	1669.09
570.62	1771.49
570.82	1847.27
571.01	1677.29
571.21	1665.00
571.40	1783.78
571.60	1785.83
571.79	1796.07
571.99	1730.53
572.18	1720.29
572.38	1748.97
572.57	1738.73
572.77	1714.15
572.96	1918.95
573.16	1755.11
573.35	1701.86
573.55	1890.28
573.74	1765.35
573.94	1708.01
574.13	1691.62
574.33	1845.22
574.52	1845.22
574.71	1714.15
574.91	1761.25
575.10	1685.48
575.30	1687.53
575.49	1667.05
575.69	1769.44
575.88	1646.57
576.08	1687.53
576.27	1769.44
576.47	1718.25
576.66	1812.45
576.86	1826.79
577.05	1730.53
577.25	1736.68
577.44	1910.75
577.64	1740.77
577.83	1767.40
578.02	1751.01
578.22	1804.26
578.41	1785.83
578.61	1714.15
578.80	1679.33
579.00	1691.62
579.19	1757.16
579.39	1798.12
579.58	1816.55
579.77	1738.73
579.97	1796.07
580.16	1863.65
580.36	1804.26
580.55	1759.21
580.75	1798.12
580.94	1757.16
581.13	1771.49
581.33	1820.64
581.52	1710.05
581.72	1910.75
581.91	1828.84
582.11	1714.15
582.30	1710.05
582.49	1755.11
582.69	1800.16
582.88	1812.45
583.08	1738.73
583.27	1773.54
583.47	1705.96
583.66	1734.63
583.85	1658.85
584.05	1826.79
584.24	1720.29
584.44	1789.92
584.63	1804.26
584.82	1863.65
585.02	1839.08
585.21	1781.73
585.41	1841.12
585.60	1832.93
585.79	1951.71
585.99	1966.05
586.18	1869.80
586.37	2179.04
586.57	3321.81
586.76	10000.23
586.96	25147.01
587.15	35755.49
587.34	41567.62
587.54	43122.03
587.73	37617.09
587.93	27049.57
588.12	21978.80
588.31	18941.66
588.51	16692.99
588.70	15382.29
588.89	14464.80
589.09	12930.87
589.28	11345.75
589.47	9699.18
589.67	8195.97
589.86	6600.60
590.06	4999.09
590.25	3958.72
590.44	3143.63
590.64	2658.26
590.83	2326.49
591.02	2115.55
591.22	1996.77
591.41	1888.23
591.60	1869.80
591.80	1908.71
591.99	1794.02
592.18	1800.16
592.38	1863.65
592.57	1734.63
592.76	1822.69
592.96	1783.78
593.15	1822.69
593.34	1771.49
593.54	1775.59
593.73	1806.31
593.92	1812.45
594.12	1667.05
594.31	1746.92
594.50	1779.68
594.70	1781.73
594.89	1875.94
595.08	1601.51
595.28	1841.12
595.47	1867.75
595.66	1802.21
595.86	1742.82
596.05	1753.06
596.24	1714.15
596.43	1814.50
596.63	1806.31
596.82	1775.59
597.01	1757.16
597.21	1796.07
597.40	1796.07
597.59	1757.16
597.79	1703.91
597.98	1726.44
598.17	1693.67
598.36	1767.40
598.56	1841.12
598.75	1757.16
598.94	1746.92
599.14	1787.88
599.33	1683.43
599.52	1695.72
599.71	1687.53
599.91	1828.84
600.10	1794.02
600.29	1796.07
600.48	1816.55
600.68	1736.68
600.87	1787.88
601.06	1714.15
601.26	1679.33
601.45	1800.16
601.64	1761.25
601.83	1824.74
602.03	1665.00
602.22	1644.52
602.41	1783.78
602.60	1822.69
602.80	1769.44
602.99	1796.07
603.18	1697.77
603.37	1746.92
603.57	1800.16
603.76	1902.56
603.95	1779.68
604.14	1705.96
604.34	1734.63
604.53	1656.81
604.72	1718.25
604.91	1837.03
605.10	1832.93
605.30	1712.10
605.49	1904.61
605.68	1820.64
605.87	1781.73
606.07	1710.05
606.26	1722.34
606.45	1769.44
606.64	1808.36
606.84	1751.01
607.03	1726.44
607.22	1759.21
607.41	1685.48
607.60	1714.15
607.80	1800.16
607.99	1763.30
608.18	1800.16
608.37	1718.25
608.56	1638.38
608.76	1830.88
608.95	1814.50
609.14	1757.16
609.33	1757.16
609.52	1757.16
609.72	1685.48
609.91	1710.05
610.10	1665.00
610.29	1812.45
610.48	1755.11
610.68	1740.77
610.87	1796.07
611.06	1785.83
611.25	1718.25
611.44	1755.11
611.63	1689.57
611.83	1841.12
612.02	1738.73
612.21	1777.64
612.40	1652.71
612.59	1708.01
612.79	1730.53
612.98	1773.54
613.17	1806.31
613.36	1683.43
613.55	1880.04
613.74	1708.01
613.93	1740.77
614.13	1712.10
614.32	1781.73
614.51	1746.92
614.70	1757.16
614.89	1691.62
615.08	1816.55
615.28	2078.69
615.47	1597.42
615.66	1738.73
615.85	1765.35
616.04	1859.56
616.23	1689.57
616.42	1689.57
616.62	1814.50
616.81	1787.88
617.00	1681.38
617.19	1796.07
617.38	1730.53
617.57	1681.38
617.76	1726.44
617.95	1691.62
618.15	1712.10
618.34	1763.30
618.53	1648.61
618.72	1865.70
618.91	1808.36
619.10	1789.92
619.29	1644.52
619.48	1669.09
619.68	1656.81
619.87	1716.20
620.06	1624.04
620.25	1652.71
620.44	1650.66
620.63	1781.73
620.82	1656.81
621.01	1746.92
621.20	1730.53
621.39	1689.57
621.59	1689.57
621.78	1677.29
621.97	1730.53
622.16	1701.86
622.35	1730.53
622.54	1757.16
622.73	1773.54
622.92	1566.70
623.11	1857.51
623.30	1705.96
623.49	1804.26
623.68	1724.39
623.88	1767.40
624.07	1667.05
624.26	1759.21
624.45	1705.96
624.64	1714.15
624.83	1740.77
625.02	1748.97
625.21	1746.92
625.40	1671.14
625.59	1769.44
625.78	1802.21
625.97	1779.68
626.16	1802.21
626.35	1732.58
626.54	1730.53
626.74	1742.82
626.93	1751.01
627.12	1738.73
627.31	1734.63
627.50	1787.88
627.69	1773.54
627.88	1617.90
628.07	1671.14
628.26	1656.81
628.45	1650.66
628.64	1654.76
628.83	1724.39
629.02	1695.72
629.21	1728.49
629.40	1763.30
629.59	1716.20
629.78	1681.38
629.97	1697.77
630.16	1736.68
630.35	1662.95
630.54	1736.68
630.73	1677.29
630.92	1748.97
631.11	1669.09
631.30	1753.06
631.49	1855.46
631.68	1701.86
631.87	1761.25
632.06	1652.71
632.25	1859.56
632.44	1777.64
632.63	1769.44
632.82	1660.90
633.01	1689.57
633.20	1738.73
633.39	1632.23
633.58	1693.67
633.77	1667.05
633.96	1775.59
634.15	1718.25
634.34	1757.16
634.53	1787.88
634.72	1746.92
634.91	1650.66
635.10	1656.81
635.29	1693.67
635.48	1681.38
635.67	1673.19
635.86	1691.62
636.05	1828.84
636.24	1732.58
636.43	1781.73
636.62	1759.21
636.81	1562.60
637.00	1720.29
637.19	1740.77
637.38	1689.57
637.57	1595.37
637.76	1714.15
637.95	1703.91
638.14	1691.62
638.33	1632.23
638.52	1701.86
638.71	1712.10
638.89	1658.85
639.08	1830.88
639.27	1744.87
639.46	1710.05
639.65	1861.60
639.84	1681.38
640.03	1800.16
640.22	1755.11
640.41	1812.45
640.60	1660.90
640.79	1769.44
640.98	1640.42
641.17	1720.29
641.36	1740.77
641.55	1757.16
641.74	1728.49
641.92	1605.61
642.11	1667.05
642.30	1689.57
642.49	1652.71
642.68	1748.97
642.87	1744.87
643.06	1732.58
643.25	1779.68
643.44	1708.01
643.63	1746.92
643.82	1748.97
644.00	1636.33
644.19	1691.62
644.38	1718.25
644.57	1783.78
644.76	1705.96
644.95	1714.15
645.14	1691.62
645.33	1716.20
645.52	1724.39
645.71	1648.61
645.89	1673.19
646.08	1681.38
646.27	1716.20
646.46	1837.03
646.65	1624.04
646.84	1714.15
647.03	1689.57
647.22	1769.44
647.40	1673.19
647.59	1669.09
647.78	1650.66
647.97	1689.57
648.16	1691.62
648.35	1808.36
648.54	1800.16
648.73	1701.86
648.91	1742.82
649.10	1697.77
649.29	1697.77
649.48	1654.76
649.67	1710.05
649.86	1634.28
650.05	1689.57
650.23	1714.15
650.42	1720.29
650.61	1800.16
650.80	1744.87
650.99	1826.79
651.18	1753.06
651.36	1814.50
651.55	1689.57
651.74	1767.40
651.93	1691.62
652.12	1685.48
652.31	1712.10
652.49	1705.96
652.68	1685.48
652.87	1757.16
653.06	1710.05
653.25	1837.03
653.44	1714.15
653.62	1806.31
653.81	1687.53
654.00	1708.01
654.19	1806.31
654.38	1886.18
654.56	1716.20
654.75	1732.58
654.94	1796.07
655.13	1714.15
655.32	1697.77
655.51	1755.11
655.69	1607.66
655.88	1742.82
656.07	1665.00
656.26	1705.96
656.45	1705.96
656.63	1734.63
656.82	1748.97
657.01	1804.26
657.20	1652.71
657.38	1734.63
657.57	1740.77
657.76	1601.51
657.95	1746.92
658.14	1757.16
658.32	1740.77
658.51	1656.81
658.70	1728.49
658.89	1710.05
659.08	1722.34
659.26	1744.87
659.45	1660.90
659.64	1714.15
659.83	1644.52
660.01	1918.95
660.20	1806.31
660.39	1773.54
660.58	1566.70
660.76	1783.78
660.95	1650.66
661.14	1708.01
661.33	1658.85
661.51	1697.77
661.70	1675.24
661.89	1732.58
662.08	1763.30
662.26	1624.04
662.45	1746.92
662.64	1802.21
662.83	1761.25
663.01	1740.77
663.20	1789.92
663.39	1757.16
663.58	1689.57
663.76	1689.57
663.95	1746.92
664.14	1695.72
664.32	1599.46
664.51	1658.85
664.70	1650.66
664.89	1722.34
665.07	1603.56
665.26	1705.96
665.45	1613.80
665.64	1824.74
665.82	1710.05
666.01	1783.78
666.20	1736.68
666.38	1773.54
666.57	1779.68
666.76	2174.94
666.95	4454.33
667.13	10422.11
667.32	15523.60
667.51	18312.94
667.69	19867.34
667.88	18153.20
668.07	12676.93
668.25	9832.30
668.44	8296.32
668.63	7434.13
668.81	7036.82
669.00	6371.23
669.19	5930.92
669.38	5275.57
669.56	4706.23
669.75	4014.02
669.94	3473.36
670.12	2959.31
670.31	2516.95
670.50	2340.83
670.68	2068.45
670.87	1857.51
671.06	1789.92
671.24	1789.92
671.43	1904.61
671.62	1746.92
671.80	1701.86
671.99	1779.68
672.18	1763.30
672.36	1732.58
672.55	1730.53
672.74	1708.01
672.92	1761.25
673.11	1722.34
673.29	1665.00
673.48	1779.68
673.67	1746.92
673.85	1779.68
674.04	1697.77
674.23	1718.25
674.41	1863.65
674.60	1701.86
674.79	1611.75
674.97	1744.87
675.16	1806.31
675.34	1828.84
675.53	1654.76
675.72	1751.01
675.90	1837.03
676.09	1693.67
676.28	1751.01
676.46	1689.57
676.65	1759.21
676.83	1656.81
677.02	1701.86
677.21	1669.09
677.39	1685.48
677.58	1642.47
677.77	1679.33
677.95	1722.34
678.14	1613.80
678.32	1734.63
678.51	1630.18
678.70	1767.40
678.88	1687.53
679.07	1701.86
679.25	1712.10
679.44	1654.76
679.63	1632.23
679.81	1755.11
680.00	1755.11
680.18	1722.34
680.37	1703.91
680.55	1708.01
680.74	1624.04
680.93	1605.61
681.11	1712.10
681.30	1630.18
681.48	1679.33
681.67	1685.48
681.85	1699.81
682.04	1691.62
682.23	1765.35
682.41	1724.39
682.60	1732.58
682.78	1742.82
682.97	1681.38
683.15	1701.86
683.34	1765.35
683.53	1775.59
683.71	1593.32
683.90	1771.49
684.08	1847.27
684.27	1677.29
684.45	1656.81
684.64	1767.40
684.82	1673.19
685.01	1685.48
685.19	1716.20
685.38	1722.34
685.57	1650.66
685.75	1705.96
685.94	1677.29
686.12	1693.67
686.31	1742.82
686.49	1730.53
686.68	1581.03
686.86	1710.05
687.05	1652.71
687.23	1773.54
687.42	1726.44
687.60	1603.56
687.79	1720.29
687.97	1837.03
688.16	1751.01
688.34	1818.60
688.53	1601.51
688.71	1697.77
688.90	1703.91
689.08	1677.29
689.27	1554.41
689.45	1763.30
689.64	1748.97
689.82	1726.44
690.01	1753.06
690.19	1794.02
690.38	1669.09
690.56	1816.55
690.75	1597.42
690.93	1685.48
691.12	1628.14
691.30	1658.85
691.49	1665.00
691.67	1658.85
691.86	1794.02
692.04	1734.63
692.23	1701.86
692.41	1728.49
692.60	1867.75
692.78	1798.12
692.97	1710.05
693.15	1718.25
693.34	1816.55
693.52	1763.30
693.71	1705.96
693.89	1665.00
694.08	1638.38
694.26	1687.53
694.44	1720.29
694.63	1671.14
694.81	1697.77
695.00	1685.48
695.18	1757.16
695.37	1855.46
695.55	1699.81
695.74	1742.82
695.92	1615.85
696.10	1841.12
696.29	1630.18
696.47	1708.01
696.66	1617.90
696.84	1624.04
697.03	1679.33
697.21	1822.69
697.40	2260.96
697.58	1853.41
697.76	1654.76
697.95	1611.75
698.13	1630.18
698.32	1648.61
698.50	1716.20
698.68	1767.40
698.87	1769.44
699.05	1814.50
699.24	1671.14
699.42	1669.09
699.61	1726.44
699.79	1732.58
699.97	1734.63
700.16	1560.55
700.34	1636.33
700.53	1748.97
700.71	1777.64
700.89	1798.12
701.08	1701.86
701.26	1691.62
701.45	2072.54
701.63	1683.43
701.81	1591.27
702.00	1644.52
702.18	1683.43
702.37	1714.15
702.55	1789.92
702.73	1697.77
702.92	1679.33
703.10	1785.83
703.28	1718.25
703.47	1619.94
703.65	1736.68
703.84	1748.97
704.02	1654.76
704.20	1837.03
704.39	1652.71
704.57	1712.10
704.75	1720.29
704.94	1812.45
705.12	1736.68
705.30	1810.40
705.49	2220.00
705.67	4440.00
705.86	9475.95
706.04	12910.40
706.22	14845.73
706.41	15775.50
706.59	14329.64
706.77	9885.55
706.96	7520.14
707.14	6782.87
707.32	6080.42
707.51	5629.87
707.69	5031.86
707.87	4356.03
708.06	3647.43
708.24	3045.33
708.42	2418.65
708.61	2256.86
708.79	2017.25
708.97	1818.60
709.16	1886.18
709.34	1783.78
709.52	1718.25
709.71	1673.19
709.89	1775.59
710.07	1605.61
710.26	1634.28
710.44	1724.39
710.62	1783.78
710.80	1710.05
710.99	1751.01
711.17	1775.59
711.35	1673.19
711.54	1730.53
711.72	1765.35
711.90	1791.97
712.09	1765.35
712.27	1710.05
712.45	1703.91
712.63	1689.57
712.82	1718.25
713.00	1748.97
713.18	1697.77
713.37	1701.86
713.55	1732.58
713.73	1738.73
713.91	1718.25
714.10	1677.29
714.28	1699.81
714.46	1732.58
714.65	1728.49
714.83	1650.66
715.01	1726.44
715.19	1658.85
715.38	1585.13
715.56	1660.90
715.74	1681.38
715.92	1726.44
716.11	1742.82
716.29	1632.23
716.47	1724.39
716.65	1671.14
716.84	1683.43
717.02	1734.63
717.20	1572.84
717.38	1650.66
717.57	1779.68
717.75	1718.25
717.93	1642.47
718.11	1742.82
718.30	1748.97
718.48	1732.58
718.66	1755.11
718.84	1818.60
719.03	1689.57
719.21	1671.14
719.39	1814.50
719.57	1765.35
719.75	1738.73
719.94	1574.89
720.12	1677.29
720.30	1716.20
720.48	1810.40
720.67	1765.35
720.85	1648.61
721.03	1665.00
721.21	1699.81
721.39	1738.73
721.58	1755.11
721.76	1777.64
721.94	1763.30
722.12	1738.73
722.30	1810.40
722.49	1718.25
722.67	1660.90
722.85	1699.81
723.03	1656.81
723.21	1701.86
723.40	1724.39
723.58	1732.58
723.76	1755.11
723.94	1742.82
724.12	1689.57
724.30	1732.58
724.49	1761.25
724.67	1605.61
724.85	1810.40
725.03	1595.37
725.21	1742.82
725.40	1697.77
725.58	1738.73
725.76	1812.45
725.94	1726.44
726.12	1634.28
726.30	1759.21
726.49	1642.47
726.67	1720.29
726.85	1826.79
727.03	1763.30
727.21	2158.56
727.39	2856.92
727.57	3856.33
727.76	4204.48
727.94	4526.01
728.12	4437.95
728.30	3729.35
728.48	3092.43
728.66	2707.41
728.84	2566.10
729.03	2265.05
729.21	2209.76
729.39	1964.00
729.57	1839.08
729.75	1794.02
729.93	1851.36
730.11	1660.90
730.30	1742.82
730.48	1673.19
730.66	1814.50
730.84	1730.53
731.02	1673.19
731.20	1697.77
731.38	1742.82
731.56	1621.99
731.74	1697.77
731.93	1714.15
732.11	1689.57
732.29	1724.39
732.47	1791.97
732.65	1671.14
732.83	1845.22
733.01	1710.05
733.19	1714.15
733.37	1679.33
733.56	1755.11
733.74	1716.20
733.92	1720.29
734.10	1716.20
734.28	1695.72
734.46	1578.98
734.64	1667.05
734.82	1691.62
735.00	1687.53
735.18	1681.38
735.36	1708.01
735.54	1697.77
735.73	1642.47
735.91	1658.85
736.09	1785.83
736.27	1691.62
736.45	1841.12
736.63	1605.61
736.81	1650.66
736.99	1767.40
737.17	1716.20
737.35	1624.04
737.53	1667.05
737.71	1658.85
737.89	1800.16
738.07	1675.24
738.25	1724.39
738.43	1568.74
738.61	1679.33
738.80	1609.70
738.98	1658.85
739.16	1679.33
739.34	1669.09
739.52	1796.07
739.70	1640.42
739.88	1757.16
740.06	1677.29
740.24	1615.85
740.42	1708.01
740.60	1550.31
740.78	1652.71
740.96	1562.60
741.14	1675.24
741.32	1648.61
741.50	1607.66
741.68	1861.60
741.86	1783.78
742.04	1681.38
742.22	1570.79
742.40	1634.28
742.58	1718.25
742.76	1675.24
742.94	1673.19
743.12	1685.48
743.30	1718.25
743.48	1755.11
743.66	1607.66
743.84	1746.92
744.02	1648.61
744.20	1718.25
744.38	1640.42
744.56	1656.81
744.74	1812.45
744.92	1818.60
745.10	1757.16
745.28	1785.83
745.46	1742.82
745.64	1701.86
745.82	1753.06
746.00	1730.53
746.18	1644.52
746.36	1714.15
746.54	1853.41
746.72	1685.48
746.90	1685.48
747.08	1808.36
747.26	1669.09
747.44	1781.73
747.62	1681.38
747.80	1708.01
747.98	1759.21
748.15	1662.95
748.33	1759.21
748.51	1642.47
748.69	1779.68
748.87	1554.41
749.05	1636.33
749.23	1634.28
749.41	1703.91
749.59	1669.09
749.77	1857.51
749.95	1701.86
750.13	1718.25
750.31	1714.15
750.49	1681.38
750.67	1712.10
750.85	1753.06
751.03	1673.19
751.20	1865.70
751.38	1667.05
751.56	1710.05
751.74	1765.35
751.92	1667.05
752.10	1658.85
752.28	1732.58
752.46	1695.72
752.64	1669.09
752.82	1726.44
753.00	1755.11
753.18	1685.48
753.35	1644.52
753.53	1683.43
753.71	1638.38
753.89	1755.11
754.07	1644.52
754.25	1779.68
754.43	1628.14
754.61	1658.85
754.79	1708.01
754.97	1697.77
755.14	1802.21
755.32	1652.71
755.50	1710.05
755.68	1726.44
755.86	1699.81
756.04	1613.80
756.22	1593.32
756.40	1724.39
756.57	1826.79
756.75	1720.29
756.93	1654.76
757.11	1759.21
757.29	1587.18
757.47	1656.81
757.65	1650.66
757.82	1572.84
758.00	1650.66
758.18	1691.62
758.36	1665.00
758.54	1787.88
758.72	1638.38
758.90	1718.25
759.07	1726.44
759.25	1662.95
759.43	1679.33
759.61	1609.70
759.79	2246.62
759.97	1757.16
760.15	1710.05
760.32	1665.00
760.50	1705.96
760.68	1867.75
760.86	1617.90
761.04	1677.29
761.22	1730.53
761.39	1701.86
761.57	1708.01
761.75	1742.82
761.93	1746.92
762.11	1675.24
762.28	1697.77
762.46	1660.90
762.64	1730.53
762.82	1644.52
763.00	1761.25
763.18	1820.64
763.35	1677.29
763.53	1775.59
763.71	1648.61
763.89	1697.77
764.07	1697.77
764.24	1681.38
764.42	1705.96
764.60	1671.14
764.78	1701.86
764.96	1765.35
765.13	1730.53
765.31	1656.81
765.49	1679.33
765.67	1615.85
765.84	1691.62
766.02	1621.99
766.20	1646.57
766.38	1662.95
766.56	1720.29
766.73	1781.73
766.91	1697.77
767.09	1646.57
767.27	1751.01
767.44	1718.25
767.62	1665.00
767.80	1705.96
767.98	1605.61
768.15	1699.81
768.33	1785.83
768.51	1738.73
768.69	1716.20
768.87	1746.92
769.04	1640.42
769.22	1886.18
769.40	1748.97
769.58	1843.17
769.75	1714.15
769.93	1742.82
770.11	1734.63
770.28	1595.37
770.46	1728.49
770.64	1718.25
770.82	1595.37
770.99	1728.49
771.17	1697.77
771.35	1626.09
771.53	1701.86
771.70	1718.25
771.88	1751.01
772.06	1656.81
772.23	1640.42
772.41	1796.07
772.59	1740.77
772.77	1599.46
772.94	1652.71
773.12	1751.01
773.30	1667.05
773.47	1751.01
773.65	1650.66
773.83	1808.36
774.01	1697.77
774.18	1650.66
774.36	1718.25
774.54	1613.80
774.71	1708.01
774.89	1628.14
775.07	1644.52
775.24	1681.38
775.42	1708.01
775.60	1742.82
775.78	1648.61
775.95	1617.90
776.13	1671.14
776.31	1669.09
776.48	1687.53
776.66	1781.73
776.84	1699.81
777.01	1695.72
777.19	1695.72
777.37	1640.42
777.54	1757.16
777.72	1837.03
777.90	1730.53
778.07	1677.29
778.25	1828.84
778.43	1705.96
778.60	1652.71
778.78	1738.73
778.96	1683.43
779.13	1640.42
779.31	1734.63
779.49	1619.94
779.66	1744.87
779.84	1665.00
780.01	1755.11
780.19	1624.04
780.37	1802.21
780.54	1671.14
780.72	1701.86
780.90	1718.25
781.07	1640.42
781.25	1638.38
781.43	1779.68
781.60	1732.58
781.78	1781.73
781.95	1697.77
782.13	1638.38
782.31	1685.48
782.48	1554.41
782.66	1714.15
782.83	1826.79
783.01	1675.24
783.19	1716.20
783.36	1730.53
783.54	1642.47
783.72	1783.78
783.89	1705.96
784.07	1683.43
784.24	1744.87
784.42	1771.49
784.60	1773.54
784.77	1689.57
784.95	1591.27
785.12	1640.42
785.30	1687.53
785.47	1679.33
785.65	1597.42
785.83	1738.73
786.00	1677.29
786.18	1730.53
786.35	1742.82
786.53	1693.67
786.71	1775.59
786.88	1691.62
787.06	1701.86
787.23	1656.81
787.41	1589.22
787.58	1644.52
787.76	1597.42
787.94	1697.77
788.11	1689.57
788.29	1626.09
788.46	1681.38
788.64	1630.18
788.81	1652.71
788.99	1597.42
789.16	1652.71
789.34	1773.54
789.52	1660.90
789.69	1705.96
789.87	1632.23
790.04	1716.20
790.22	1621.99
790.39	1800.16
790.57	1665.00
790.74	1701.86
790.92	1800.16
791.09	1581.03
791.27	1734.63
791.44	1779.68
791.62	1724.39
791.79	1742.82
791.97	1738.73
792.15	1853.41
792.32	1710.05
792.50	1699.81
792.67	1839.08
792.85	1726.44
793.02	1767.40
793.20	1689.57
793.37	1650.66
793.55	1691.62
793.72	1656.81
793.90	1787.88
794.07	1615.85
794.25	1619.94
794.42	1652.71
794.60	1640.42
794.77	1767.40
794.95	1845.22
795.12	1757.16
795.30	1652.71
795.47	1548.26
795.65	1888.23
795.82	1718.25
796.00	1648.61
796.17	1689.57
796.34	1613.80
796.52	1703.91
796.69	1824.74
796.87	1701.86
797.04	1724.39
797.22	1712.10
797.39	1701.86
797.57	1681.38
797.74	1689.57
797.92	1701.86
798.09	1660.90
798.27	1759.21
798.44	1730.53
798.62	1667.05
798.79	1671.14
798.96	1689.57
799.14	1742.82
799.31	1800.16
799.49	1705.96
799.66	1628.14
799.84	1730.53
800.01	1636.33
800.19	1718.25
800.36	1583.08
800.53	1732.58
800.71	1708.01
800.88	1773.54
801.06	1671.14
801.23	1742.82
801.41	1654.76
801.58	1695.72
801.75	1673.19
801.93	1765.35
802.10	1791.97
802.28	1665.00
802.45	1630.18
802.63	1697.77
802.80	1875.94
802.97	1701.86
803.15	1675.24
803.32	1642.47
803.50	1603.56
803.67	1662.95
803.84	1591.27
804.02	1665.00
804.19	1624.04
804.37	1527.78
804.54	1656.81
804.71	1736.68
804.89	1693.67
805.06	1708.01
805.24	1683.43
805.41	1685.48
805.58	1675.24
805.76	1853.41
805.93	1564.65
806.10	1818.60
806.28	1775.59
806.45	1701.86
806.63	1691.62
806.80	1738.73
806.97	1710.05
807.15	1691.62
807.32	1650.66
807.49	1691.62
807.67	1626.09
807.84	1724.39
808.01	1646.57
808.19	1841.12
808.36	1814.50
808.54	1591.27
808.71	1564.65
808.88	1681.38
809.06	1685.48
809.23	1818.60
809.40	1640.42
809.58	1763.30
809.75	1695.72
809.92	1624.04
810.10	1820.64
810.27	1697.77
810.44	1652.71
810.62	1746.92
810.79	1783.78
810.96	1634.28
811.14	1619.94
811.31	1748.97
811.48	1751.01
811.66	1712.10
811.83	1734.63
812.00	1751.01
812.18	1738.73
812.35	1802.21
812.52	1695.72
812.69	1640.42
812.87	1675.24
813.04	1662.95
813.21	1722.34
813.39	1611.75
813.56	1574.89
813.73	1699.81
813.91	1570.79
814.08	1759.21
814.25	1665.00
814.42	1644.52
814.60	1710.05
814.77	1783.78
814.94	1755.11
815.12	1726.44
815.29	1820.64
815.46	1658.85
815.63	1720.29
815.81	1654.76
815.98	1714.15
816.15	1720.29
816.33	1669.09
816.50	1722.34
816.67	1757.16
816.84	1658.85
817.02	1681.38
817.19	1597.42
817.36	1673.19
817.53	1808.36
817.71	1603.56
817.88	1722.34
818.05	1712.10
818.22	1591.27
818.40	1869.80
818.57	1753.06
818.74	1761.25
818.91	1689.57
819.09	1701.86
819.26	1740.77
819.43	1646.57
819.60	1658.85
819.78	1742.82
819.95	1775.59
820.12	1589.22
820.29	1665.00
820.47	1748.97
820.64	1658.85
820.81	1609.70
820.98	1652.71
821.15	1689.57
821.33	1679.33
821.50	1644.52
821.67	1644.52
821.84	1695.72
822.02	1695.72
822.19	1710.05
822.36	1714.15
822.53	1681.38
822.70	1601.51
822.88	1714.15
823.05	1822.69
823.22	1687.53
823.39	1724.39
823.56	1724.39
823.74	1841.12
823.91	1613.80
824.08	1691.62
824.25	1542.12
824.42	1798.12
824.60	1638.38
824.77	1732.58
824.94	1669.09
825.11	1763.30
825.28	1621.99
825.45	1640.42
825.63	1724.39
825.80	1568.74
825.97	1673.19
826.14	1697.77
826.31	1615.85
826.48	1722.34
826.66	1628.14
826.83	1652.71
827.00	1671.14
827.17	1669.09
827.34	1714.15
827.51	1632.23
827.69	1681.38
827.86	1603.56
828.03	1718.25
828.20	1699.81
828.37	1607.66
828.54	1728.49
828.71	1681.38
828.89	1783.78
829.06	1685.48
829.23	1861.60
829.40	1753.06
829.57	1708.01
829.74	1755.11
829.91	1669.09
830.09	1640.42
830.26	1771.49
830.43	1779.68
830.60	1712.10
830.77	1742.82
830.94	1734.63
831.11	1687.53
831.28	1671.14
831.46	1738.73
831.63	1675.24
831.80	1740.77
831.97	1648.61
832.14	1679.33
832.31	1675.24
832.48	1697.77
832.65	1787.88
832.82	1726.44
832.99	1746.92
833.17	1656.81
833.34	1808.36
833.51	1740.77
833.68	1593.32
833.85	1683.43
834.02	1660.90
834.19	1650.66
834.36	1732.58
834.53	1742.82
834.70	1818.60
834.87	1748.97
835.04	1724.39
835.22	1693.67
835.39	1732.58
835.56	1597.42
835.73	1628.14
835.90	1734.63
836.07	1628.14
836.24	1728.49
836.41	1587.18
836.58	1728.49
836.75	1781.73
836.92	1808.36
837.09	1697.77
837.26	1740.77
837.43	1699.81
837.60	1767.40
837.77	1689.57
837.94	1802.21
838.12	1742.82
838.29	1640.42
838.46	1574.89
838.63	1613.80
838.80	1787.88
838.97	1755.11
839.14	1705.96
839.31	1673.19
839.48	1794.02
839.65	1687.53
839.82	1738.73
839.99	1656.81
840.16	1652.71
840.33	1603.56
840.50	1716.20
840.67	1626.09
840.84	1601.51
841.01	1722.34
841.18	1669.09
841.35	1685.48
841.52	1697.77
841.69	1865.70
841.86	1710.05
842.03	1726.44
842.20	1730.53
842.37	1708.01
842.54	1669.09
842.71	1732.58
842.88	1619.94
843.05	1730.53
843.22	1734.63
843.39	1693.67
843.56	1640.42
843.73	1685.48
843.90	1675.24
844.07	1818.60
844.24	1787.88
844.41	1730.53
844.58	1718.25
844.75	1677.29
844.92	1740.77
845.09	1734.63
845.26	1632.23
845.43	1695.72
845.60	1660.90
845.77	1714.15
845.94	1705.96
846.10	1798.12
846.27	1662.95
846.44	1632.23
846.61	1646.57
846.78	1734.63
846.95	1736.68
847.12	1595.37
847.29	1673.19
847.46	1669.09
847.63	1769.44
847.80	1611.75
847.97	1597.42
848.14	1832.93
848.31	1605.61
848.48	1568.74
848.65	1732.58
848.82	1650.66
848.98	1796.07
849.15	1771.49
849.32	1695.72
849.49	1757.16
849.66	1665.00
849.83	1738.73
850.00	1669.09
850.17	1695.72
850.34	1624.04
850.51	1675.24
850.68	1673.19
850.85	1822.69
851.01	1761.25
851.18	1746.92
851.35	1656.81
851.52	1703.91
851.69	1773.54
851.86	1619.94
852.03	1693.67
852.20	1755.11
852.37	1626.09
852.53	1613.80
852.70	1695.72
852.87	1705.96
853.04	1751.01
853.21	1753.06
853.38	1732.58
853.55	1834.98
853.72	1753.06
853.89	1619.94
854.05	1564.65
854.22	1648.61
854.39	1667.05
854.56	1734.63
854.73	1816.55
854.90	1619.94
855.07	1699.81
855.23	1705.96
855.40	1642.47
855.57	1716.20
855.74	1630.18
855.91	1890.28
856.08	1591.27
856.25	1595.37
856.41	1667.05
856.58	1759.21
856.75	1634.28
856.92	1662.95
857.09	1763.30
857.26	1613.80
857.42	1712.10
857.59	1791.97
857.76	1712.10
857.93	1685.48
858.10	1679.33
858.27	1691.62
858.43	1658.85
858.60	1564.65
858.77	1665.00
858.94	1679.33
859.11	1730.53
859.27	1718.25
859.44	1677.29
859.61	1773.54
859.78	1675.24
859.95	1671.14
860.12	1714.15
860.28	1822.69
860.45	1886.18
860.62	1611.75
860.79	1683.43
860.95	1710.05
861.12	1691.62
861.29	1683.43
861.46	1642.47
861.63	1708.01
861.79	1732.58
861.96	1677.29
862.13	1753.06
862.30	1779.68
862.47	1677.29
862.63	1613.80
862.80	1738.73
862.97	1716.20
863.14	1771.49
863.30	1679.33
863.47	1681.38
863.64	1820.64
863.81	1628.14
863.97	1697.77
864.14	1718.25
864.31	1701.86
864.48	1695.72
864.65	1665.00
864.81	1746.92
864.98	1650.66
865.15	1714.15
865.32	1724.39
865.48	1773.54
865.65	1816.55
865.82	1673.19
865.98	1757.16
866.15	1759.21
866.32	1779.68
866.49	1722.34
866.65	1783.78
866.82	1671.14
866.99	1742.82
867.16	1591.27
867.32	1638.38
867.49	1628.14
867.66	1687.53
867.83	1654.76
867.99	1677.29
868.16	1642.47
868.33	1624.04
868.49	1718.25
868.66	1740.77
868.83	1699.81
868.99	1705.96
869.16	1650.66
869.33	1757.16
869.50	1742.82
869.66	1732.58
869.83	1695.72
870.00	1599.46
870.16	1722.34
870.33	1650.66
870.50	1732.58
870.66	1689.57
870.83	1781.73
871.00	1667.05
871.17	1826.79
871.33	1748.97
871.50	1662.95
871.67	1617.90
871.83	1689.57
872.00	1816.55
872.17	1646.57
872.33	1777.64
872.50	1740.77
872.67	1691.62
872.83	1695.72
873.00	1728.49
873.17	1650.66
873.33	1808.36
873.50	1705.96
873.67	1638.38
873.83	1658.85
874.00	1697.77
874.16	1753.06
874.33	1673.19
874.50	1564.65
874.66	1834.98
874.83	1716.20
875.00	1757.16
875.16	1722.34
875.33	1781.73
875.50	1574.89
875.66	1701.86
875.83	1724.39
875.99	1759.21
876.16	1654.76
876.33	1660.90
876.49	1613.80
876.66	1746.92
876.83	1677.29
876.99	1593.32
877.16	1681.38
877.32	1681.38
877.49	1673.19
877.66	1693.67
877.82	1755.11
877.99	1697.77
878.15	1681.38
878.32	1763.30
878.49	1726.44
878.65	1722.34
878.82	1767.40
878.98	1656.81
879.15	1738.73
879.32	1767.40
879.48	1695.72
879.65	1662.95
879.81	1753.06
879.98	1689.57
880.15	1630.18
880.31	1722.34
880.48	1652.71
880.64	1767.40
880.81	1683.43
880.97	1837.03
881.14	1779.68
881.31	1572.84
881.47	1824.74
881.64	1673.19
881.80	1597.42
881.97	1728.49
882.13	1718.25
882.30	1634.28
882.47	1677.29
882.63	1650.66
882.80	1638.38
882.96	1624.04
883.13	1720.29
883.29	1677.29
883.46	1755.11
883.62	1773.54
883.79	1642.47
883.95	1779.68
884.12	1726.44
884.29	1810.40
884.45	1673.19
884.62	1755.11
884.78	1648.61
884.95	1748.97
885.11	1615.85
885.28	1765.35
885.44	1675.24
885.61	1746.92
885.77	1769.44
885.94	1757.16
886.10	1656.81
886.27	1667.05
886.43	1779.68
886.60	1779.68
886.76	1720.29
886.93	1693.67
887.09	1714.15
887.26	1662.95
887.42	1759.21
887.59	1689.57
887.75	1783.78
887.92	1722.34
888.08	1763.30
888.25	1796.07
888.41	1753.06
888.58	1746.92
888.74	1662.95
888.91	1636.33
>>>>>End Processed Spectral Data<<<<<
