SpectraSuite Data File
++++++++++++++++++++++++++++++++++++
Date: Mon Jun 06 14:34:17 CEST 2016
User: root
Dark Spectrum Present: No
Reference Spectrum Present: No
Number of Sampled Component Spectra: 1
Spectrometers: USB4C02835
Integration Time (usec): 100000 (USB4C02835)
Spectra Averaged: 1 (USB4C02835)
Boxcar Smoothing: 0 (USB4C02835)
Correct for Electrical Dark: No (USB4C02835)
Strobe/Lamp Enabled: No (USB4C02835)
Correct for Detector Non-linearity: No (USB4C02835)
Correct for Stray Light: No (USB4C02835)
Number of Pixels in Processed Spectrum: 3648
>>>>>Begin Processed Spectral Data<<<<<
177.47	1404.91
177.69	1404.91
177.91	1404.91
178.13	1464.30
178.36	1447.91
178.58	1634.28
178.80	1722.34
179.02	1593.32
179.24	1689.57
179.46	1720.29
179.68	1798.12
179.90	1691.62
180.13	1730.53
180.35	1665.00
180.57	1665.00
180.79	1718.25
181.01	1738.73
181.23	1806.31
181.45	1769.44
181.67	1736.68
181.90	1787.88
182.12	1607.66
182.34	1624.04
182.56	1714.15
182.78	1611.75
183.00	1695.72
183.22	1736.68
183.44	1591.27
183.66	1857.51
183.89	1785.83
184.11	1669.09
184.33	1654.76
184.55	1812.45
184.77	1742.82
184.99	1673.19
185.21	1662.95
185.43	1796.07
185.65	1646.57
185.87	1681.38
186.10	1769.44
186.32	1886.18
186.54	1761.25
186.76	1779.68
186.98	1732.58
187.20	1746.92
187.42	1636.33
187.64	1677.29
187.86	1662.95
188.08	1744.87
188.30	1767.40
188.52	1714.15
188.75	1730.53
188.97	1761.25
189.19	1677.29
189.41	1632.23
189.63	1703.91
189.85	1720.29
190.07	1648.61
190.29	1558.50
190.51	1673.19
190.73	1601.51
190.95	1775.59
191.17	1675.24
191.39	1646.57
191.61	1742.82
191.84	1701.86
192.06	1634.28
192.28	1626.09
192.50	1871.84
192.72	1734.63
192.94	1673.19
193.16	1771.49
193.38	1724.39
193.60	1605.61
193.82	1652.71
194.04	1783.78
194.26	1718.25
194.48	1714.15
194.70	1634.28
194.92	1697.77
195.14	1785.83
195.36	1683.43
195.58	1738.73
195.80	1673.19
196.02	1738.73
196.24	1724.39
196.46	1656.81
196.69	1671.14
196.91	1873.89
197.13	1771.49
197.35	1648.61
197.57	1771.49
197.79	1779.68
198.01	1765.35
198.23	1787.88
198.45	1724.39
198.67	1568.74
198.89	1697.77
199.11	1705.96
199.33	1677.29
199.55	1581.03
199.77	1687.53
199.99	1722.34
200.21	1619.94
200.43	1734.63
200.65	1624.04
200.87	1560.55
201.09	1673.19
201.31	1708.01
201.53	1755.11
201.75	1755.11
201.97	1697.77
202.19	1669.09
202.41	1753.06
202.63	1818.60
202.85	1687.53
203.07	1712.10
203.29	1628.14
203.51	1636.33
203.73	1744.87
203.95	1812.45
204.17	1703.91
204.39	1697.77
204.61	1697.77
204.83	1693.67
205.05	1751.01
205.27	1816.55
205.49	1814.50
205.71	1722.34
205.93	1652.71
206.15	1583.08
206.37	1699.81
206.59	1703.91
206.81	1572.84
207.03	1705.96
207.25	1574.89
207.47	1761.25
207.69	1648.61
207.91	1742.82
208.13	1775.59
208.34	1665.00
208.56	1566.70
208.78	1705.96
209.00	1581.03
209.22	1638.38
209.44	1675.24
209.66	1791.97
209.88	1695.72
210.10	1703.91
210.32	1710.05
210.54	1789.92
210.76	1714.15
210.98	1748.97
211.20	1574.89
211.42	1705.96
211.64	1755.11
211.86	1751.01
212.08	1712.10
212.30	1736.68
212.52	1677.29
212.74	1699.81
212.96	1738.73
213.17	1753.06
213.39	1751.01
213.61	1839.08
213.83	1697.77
214.05	1624.04
214.27	1779.68
214.49	1660.90
214.71	1640.42
214.93	1791.97
215.15	1728.49
215.37	1773.54
215.59	1599.46
215.81	1818.60
216.03	1804.26
216.24	1732.58
216.46	1697.77
216.68	1720.29
216.90	1732.58
217.12	1806.31
217.34	1783.78
217.56	1683.43
217.78	1755.11
218.00	1798.12
218.22	1753.06
218.44	1714.15
218.66	1730.53
218.87	1898.47
219.09	1626.09
219.31	1718.25
219.53	1650.66
219.75	1673.19
219.97	1693.67
220.19	1738.73
220.41	1685.48
220.63	1746.92
220.85	1710.05
221.06	1681.38
221.28	1701.86
221.50	1767.40
221.72	1751.01
221.94	1748.97
222.16	1683.43
222.38	1736.68
222.60	1736.68
222.82	1687.53
223.03	1777.64
223.25	1697.77
223.47	1712.10
223.69	1796.07
223.91	1720.29
224.13	1665.00
224.35	1683.43
224.57	1789.92
224.78	1701.86
225.00	1722.34
225.22	1705.96
225.44	1722.34
225.66	1748.97
225.88	1607.66
226.10	1771.49
226.32	1705.96
226.53	1753.06
226.75	1609.70
226.97	1703.91
227.19	1701.86
227.41	1626.09
227.63	1671.14
227.85	1611.75
228.06	1765.35
228.28	1718.25
228.50	1751.01
228.72	1734.63
228.94	1685.48
229.16	1609.70
229.37	1599.46
229.59	1603.56
229.81	1791.97
230.03	1613.80
230.25	1624.04
230.47	1648.61
230.69	1615.85
230.90	1677.29
231.12	1726.44
231.34	1665.00
231.56	1759.21
231.78	1646.57
232.00	1738.73
232.21	1720.29
232.43	1695.72
232.65	1550.31
232.87	1697.77
233.09	1701.86
233.30	1652.71
233.52	1677.29
233.74	1652.71
233.96	1710.05
234.18	1656.81
234.40	1693.67
234.61	1767.40
234.83	1673.19
235.05	1615.85
235.27	1818.60
235.49	1806.31
235.70	1724.39
235.92	1757.16
236.14	1624.04
236.36	1812.45
236.58	1619.94
236.79	1716.20
237.01	1642.47
237.23	1677.29
237.45	1783.78
237.67	1675.24
237.88	1695.72
238.10	1761.25
238.32	1728.49
238.54	1716.20
238.76	1744.87
238.97	1714.15
239.19	1716.20
239.41	1781.73
239.63	1771.49
239.85	1710.05
240.06	1728.49
240.28	1660.90
240.50	1812.45
240.72	1705.96
240.93	1730.53
241.15	1783.78
241.37	1695.72
241.59	1806.31
241.81	1679.33
242.02	1675.24
242.24	1767.40
242.46	1744.87
242.68	1583.08
242.89	1765.35
243.11	1761.25
243.33	1681.38
243.55	1779.68
243.76	1759.21
243.98	1662.95
244.20	1665.00
244.42	1761.25
244.64	1773.54
244.85	1638.38
245.07	1654.76
245.29	1665.00
245.51	1722.34
245.72	1759.21
245.94	1783.78
246.16	1751.01
246.38	1732.58
246.59	1712.10
246.81	1644.52
247.03	1732.58
247.24	1720.29
247.46	1624.04
247.68	1646.57
247.90	1632.23
248.11	1619.94
248.33	1734.63
248.55	1726.44
248.77	1710.05
248.98	1705.96
249.20	1855.46
249.42	1732.58
249.64	1724.39
249.85	1648.61
250.07	1687.53
250.29	1699.81
250.50	1777.64
250.72	1634.28
250.94	1730.53
251.16	1808.36
251.37	1722.34
251.59	1740.77
251.81	1767.40
252.02	1789.92
252.24	1753.06
252.46	1806.31
252.68	1662.95
252.89	1699.81
253.11	1611.75
253.33	1800.16
253.54	1896.42
253.76	1669.09
253.98	1681.38
254.20	1693.67
254.41	1669.09
254.63	1632.23
254.85	1585.13
255.06	1724.39
255.28	1724.39
255.50	1703.91
255.71	1648.61
255.93	1681.38
256.15	1613.80
256.36	1722.34
256.58	1675.24
256.80	1695.72
257.02	1699.81
257.23	1581.03
257.45	1736.68
257.67	1726.44
257.88	1615.85
258.10	1685.48
258.32	1740.77
258.53	1671.14
258.75	1769.44
258.97	1689.57
259.18	1771.49
259.40	1697.77
259.62	1775.59
259.83	1769.44
260.05	1775.59
260.27	2045.92
260.48	1857.51
260.70	1624.04
260.92	1650.66
261.13	1705.96
261.35	1761.25
261.57	1710.05
261.78	1673.19
262.00	1628.14
262.22	1736.68
262.43	1642.47
262.65	1677.29
262.86	1689.57
263.08	1765.35
263.30	1685.48
263.51	1660.90
263.73	1667.05
263.95	1746.92
264.16	1665.00
264.38	1665.00
264.60	1718.25
264.81	1660.90
265.03	1781.73
265.25	1734.63
265.46	1611.75
265.68	1681.38
265.89	1691.62
266.11	1621.99
266.33	1761.25
266.54	1730.53
266.76	1796.07
266.98	1705.96
267.19	1669.09
267.41	1755.11
267.62	1701.86
267.84	1671.14
268.06	1757.16
268.27	1705.96
268.49	1746.92
268.70	1757.16
268.92	1652.71
269.14	1615.85
269.35	1714.15
269.57	1675.24
269.79	1765.35
270.00	1630.18
270.22	1736.68
270.43	1570.79
270.65	1611.75
270.87	1736.68
271.08	1718.25
271.30	1720.29
271.51	1685.48
271.73	1734.63
271.95	1763.30
272.16	1681.38
272.38	1681.38
272.59	1671.14
272.81	1632.23
273.02	1755.11
273.24	1685.48
273.46	1798.12
273.67	1697.77
273.89	1665.00
274.10	1681.38
274.32	1804.26
274.54	1773.54
274.75	1708.01
274.97	1693.67
275.18	1746.92
275.40	1791.97
275.61	1705.96
275.83	1636.33
276.05	1687.53
276.26	1687.53
276.48	1714.15
276.69	1732.58
276.91	1644.52
277.12	1751.01
277.34	1785.83
277.55	1751.01
277.77	1705.96
277.99	1708.01
278.20	1597.42
278.42	1646.57
278.63	1632.23
278.85	1705.96
279.06	1734.63
279.28	1744.87
279.49	1726.44
279.71	1783.78
279.93	1746.92
280.14	1667.05
280.36	1601.51
280.57	1687.53
280.79	1767.40
281.00	1621.99
281.22	1714.15
281.43	1751.01
281.65	1589.22
281.86	1652.71
282.08	1763.30
282.29	1796.07
282.51	1681.38
282.73	1630.18
282.94	1652.71
283.16	1724.39
283.37	1726.44
283.59	1697.77
283.80	1777.64
284.02	1759.21
284.23	1718.25
284.45	1669.09
284.66	1759.21
284.88	1597.42
285.09	1673.19
285.31	1652.71
285.52	1738.73
285.74	1597.42
285.95	1730.53
286.17	1667.05
286.38	1662.95
286.60	1681.38
286.81	1638.38
287.03	1693.67
287.24	1673.19
287.46	1779.68
287.67	1718.25
287.89	1828.84
288.10	1660.90
288.32	1708.01
288.53	1791.97
288.75	1652.71
288.96	1755.11
289.18	1654.76
289.39	1714.15
289.61	1742.82
289.82	1779.68
290.04	1779.68
290.25	1673.19
290.47	1716.20
290.68	1726.44
290.90	1814.50
291.11	1652.71
291.33	1722.34
291.54	1646.57
291.76	1683.43
291.97	1632.23
292.18	1708.01
292.40	1681.38
292.61	1701.86
292.83	1767.40
293.04	1705.96
293.26	1699.81
293.47	1654.76
293.69	1615.85
293.90	1685.48
294.12	1738.73
294.33	1787.88
294.55	1751.01
294.76	1783.78
294.97	1781.73
295.19	1740.77
295.40	1646.57
295.62	1693.67
295.83	1630.18
296.05	1675.24
296.26	1748.97
296.48	1693.67
296.69	1632.23
296.90	1744.87
297.12	1691.62
297.33	1806.31
297.55	1660.90
297.76	1730.53
297.98	1806.31
298.19	1675.24
298.41	1755.11
298.62	1654.76
298.83	1773.54
299.05	1763.30
299.26	1697.77
299.48	1634.28
299.69	1697.77
299.90	1693.67
300.12	1687.53
300.33	1673.19
300.55	1755.11
300.76	1753.06
300.98	1607.66
301.19	1724.39
301.40	1691.62
301.62	1660.90
301.83	1619.94
302.05	1644.52
302.26	1722.34
302.47	1742.82
302.69	1665.00
302.90	1693.67
303.12	1574.89
303.33	1783.78
303.54	1748.97
303.76	1669.09
303.97	1695.72
304.19	1746.92
304.40	1640.42
304.61	1730.53
304.83	1789.92
305.04	1763.30
305.26	1681.38
305.47	1675.24
305.68	1779.68
305.90	1638.38
306.11	1710.05
306.33	1671.14
306.54	1646.57
306.75	1615.85
306.97	1589.22
307.18	1665.00
307.39	1683.43
307.61	1771.49
307.82	1699.81
308.04	1630.18
308.25	1640.42
308.46	1726.44
308.68	1644.52
308.89	1685.48
309.10	1798.12
309.32	1755.11
309.53	1708.01
309.74	1728.49
309.96	1628.14
310.17	1697.77
310.39	1675.24
310.60	1677.29
310.81	1648.61
311.03	1652.71
311.24	1728.49
311.45	1675.24
311.67	1777.64
311.88	1691.62
312.09	1759.21
312.31	1624.04
312.52	1757.16
312.73	1693.67
312.95	1703.91
313.16	1658.85
313.37	1777.64
313.59	1689.57
313.80	1705.96
314.01	1810.40
314.23	1642.47
314.44	1660.90
314.65	1689.57
314.87	1640.42
315.08	1693.67
315.29	1656.81
315.51	1673.19
315.72	1613.80
315.93	1748.97
316.15	1767.40
316.36	1628.14
316.57	1699.81
316.79	1753.06
317.00	1724.39
317.21	1763.30
317.43	1656.81
317.64	1718.25
317.85	1681.38
318.07	1638.38
318.28	1691.62
318.49	1794.02
318.70	1908.71
318.92	1824.74
319.13	1826.79
319.34	1818.60
319.56	1843.17
319.77	1826.79
319.98	1726.44
320.20	1822.69
320.41	1681.38
320.62	1626.09
320.83	1650.66
321.05	1839.08
321.26	1705.96
321.47	1746.92
321.69	1808.36
321.90	1615.85
322.11	1685.48
322.32	1724.39
322.54	1703.91
322.75	1748.97
322.96	1828.84
323.18	1654.76
323.39	1621.99
323.60	1642.47
323.81	1777.64
324.03	1677.29
324.24	1648.61
324.45	1746.92
324.66	1654.76
324.88	1751.01
325.09	1771.49
325.30	1644.52
325.52	1705.96
325.73	1667.05
325.94	1667.05
326.15	1615.85
326.37	1681.38
326.58	1726.44
326.79	1701.86
327.00	1675.24
327.22	1740.77
327.43	1669.09
327.64	1576.94
327.85	1667.05
328.07	1683.43
328.28	1697.77
328.49	1607.66
328.70	1660.90
328.92	1738.73
329.13	1724.39
329.34	1665.00
329.55	1781.73
329.76	1738.73
329.98	1685.48
330.19	1763.30
330.40	1765.35
330.61	1712.10
330.83	1658.85
331.04	1656.81
331.25	1656.81
331.46	1738.73
331.68	1656.81
331.89	1691.62
332.10	1658.85
332.31	1624.04
332.52	1716.20
332.74	1767.40
332.95	1632.23
333.16	1798.12
333.37	1675.24
333.58	1714.15
333.80	1722.34
334.01	1648.61
334.22	1683.43
334.43	1669.09
334.64	1697.77
334.86	1583.08
335.07	1671.14
335.28	1849.32
335.49	1595.37
335.70	1697.77
335.92	1771.49
336.13	1789.92
336.34	1765.35
336.55	1724.39
336.76	1734.63
336.98	1519.59
337.19	1658.85
337.40	1796.07
337.61	1875.94
337.82	1716.20
338.04	1765.35
338.25	1665.00
338.46	1732.58
338.67	1744.87
338.88	1597.42
339.09	1640.42
339.31	1652.71
339.52	1638.38
339.73	1609.70
339.94	1673.19
340.15	1800.16
340.36	1619.94
340.58	1720.29
340.79	1705.96
341.00	1695.72
341.21	1683.43
341.42	1781.73
341.63	1660.90
341.85	1740.77
342.06	1751.01
342.27	1722.34
342.48	1669.09
342.69	1574.89
342.90	1714.15
343.12	1710.05
343.33	1689.57
343.54	1679.33
343.75	1751.01
343.96	1683.43
344.17	1673.19
344.38	1742.82
344.60	1671.14
344.81	1660.90
345.02	1705.96
345.23	1802.21
345.44	1828.84
345.65	1783.78
345.86	1738.73
346.07	1603.56
346.29	1691.62
346.50	1742.82
346.71	1722.34
346.92	1787.88
347.13	1794.02
347.34	1705.96
347.55	1701.86
347.76	1740.77
347.98	1593.32
348.19	1642.47
348.40	1765.35
348.61	1617.90
348.82	1794.02
349.03	1794.02
349.24	1673.19
349.45	1820.64
349.66	1619.94
349.88	1683.43
350.09	1660.90
350.30	1798.12
350.51	1812.45
350.72	1691.62
350.93	1738.73
351.14	1687.53
351.35	1742.82
351.56	1712.10
351.77	1650.66
351.99	1705.96
352.20	1740.77
352.41	1742.82
352.62	1615.85
352.83	1636.33
353.04	1755.11
353.25	1609.70
353.46	1738.73
353.67	1753.06
353.88	1585.13
354.09	1730.53
354.30	1673.19
354.52	1714.15
354.73	1681.38
354.94	1605.61
355.15	1640.42
355.36	1732.58
355.57	1736.68
355.78	1851.36
355.99	1669.09
356.20	1599.46
356.41	1763.30
356.62	1652.71
356.83	1699.81
357.04	1763.30
357.25	1595.37
357.46	1660.90
357.68	1644.52
357.89	1679.33
358.10	1718.25
358.31	1687.53
358.52	1660.90
358.73	1628.14
358.94	1640.42
359.15	1685.48
359.36	1767.40
359.57	1755.11
359.78	1685.48
359.99	1765.35
360.20	1587.18
360.41	1621.99
360.62	1742.82
360.83	1679.33
361.04	1738.73
361.25	1757.16
361.46	1767.40
361.67	1736.68
361.88	1802.21
362.09	1804.26
362.30	1794.02
362.51	1654.76
362.72	1669.09
362.93	1843.17
363.14	1705.96
363.35	1712.10
363.56	1675.24
363.78	1748.97
363.99	1746.92
364.20	1699.81
364.41	1646.57
364.62	1804.26
364.83	1744.87
365.04	1699.81
365.25	1718.25
365.46	1863.65
365.67	1636.33
365.88	1673.19
366.09	1646.57
366.30	1718.25
366.51	1716.20
366.72	1669.09
366.93	1648.61
367.14	1748.97
367.35	1748.97
367.56	1714.15
367.77	1794.02
367.98	1671.14
368.18	1705.96
368.39	1681.38
368.60	1660.90
368.81	1791.97
369.02	1708.01
369.23	1705.96
369.44	1646.57
369.65	1685.48
369.86	1738.73
370.07	1701.86
370.28	1662.95
370.49	1794.02
370.70	1687.53
370.91	1660.90
371.12	1609.70
371.33	1708.01
371.54	1667.05
371.75	1808.36
371.96	1587.18
372.17	1632.23
372.38	1619.94
372.59	1722.34
372.80	1630.18
373.01	1695.72
373.22	1748.97
373.43	1685.48
373.64	1691.62
373.85	1732.58
374.06	1757.16
374.26	1779.68
374.47	1726.44
374.68	1851.36
374.89	1593.32
375.10	1677.29
375.31	1767.40
375.52	1652.71
375.73	1675.24
375.94	1742.82
376.15	1818.60
376.36	1675.24
376.57	1638.38
376.78	1695.72
376.99	1615.85
377.20	1771.49
377.40	1708.01
377.61	1759.21
377.82	1619.94
378.03	1718.25
378.24	1736.68
378.45	1710.05
378.66	1722.34
378.87	1599.46
379.08	1646.57
379.29	1636.33
379.50	1800.16
379.71	1722.34
379.91	1748.97
380.12	1632.23
380.33	1724.39
380.54	1783.78
380.75	1613.80
380.96	1783.78
381.17	1695.72
381.38	1667.05
381.59	1771.49
381.80	1662.95
382.00	1810.40
382.21	1689.57
382.42	1822.69
382.63	1912.80
382.84	1677.29
383.05	1730.53
383.26	1728.49
383.47	1777.64
383.68	1775.59
383.88	1687.53
384.09	1789.92
384.30	1814.50
384.51	1734.63
384.72	1685.48
384.93	1656.81
385.14	1685.48
385.35	1726.44
385.55	1607.66
385.76	1652.71
385.97	1662.95
386.18	1658.85
386.39	1679.33
386.60	1665.00
386.81	1744.87
387.02	1683.43
387.22	1687.53
387.43	1714.15
387.64	1775.59
387.85	1882.08
388.06	2248.67
388.27	4173.76
388.48	6950.81
388.68	8146.82
388.89	9785.19
389.10	9944.94
389.31	8468.35
389.52	7640.97
389.73	6819.74
389.93	6143.91
390.14	5838.76
390.35	5134.26
390.56	4548.54
390.77	3829.70
390.98	3010.51
391.18	2490.33
391.39	2201.57
391.60	1884.13
391.81	1830.88
392.02	1705.96
392.23	1812.45
392.43	1697.77
392.64	1845.22
392.85	1677.29
393.06	1785.83
393.27	1689.57
393.47	1656.81
393.68	1687.53
393.89	1714.15
394.10	1740.77
394.31	1617.90
394.52	1716.20
394.72	1644.52
394.93	1808.36
395.14	1650.66
395.35	1626.09
395.56	1710.05
395.76	1712.10
395.97	1738.73
396.18	1763.30
396.39	1820.64
396.60	2019.30
396.80	1886.18
397.01	1904.61
397.22	1843.17
397.43	1814.50
397.64	1730.53
397.84	1791.97
398.05	1869.80
398.26	1736.68
398.47	1796.07
398.67	1791.97
398.88	1681.38
399.09	1746.92
399.30	1705.96
399.51	1812.45
399.71	1665.00
399.92	1685.48
400.13	1712.10
400.34	1693.67
400.54	1673.19
400.75	1804.26
400.96	1810.40
401.17	1763.30
401.37	1753.06
401.58	1728.49
401.79	1658.85
402.00	1834.98
402.21	1968.10
402.41	1923.04
402.62	2019.30
402.83	2021.35
403.04	1945.57
403.24	2097.12
403.45	1781.73
403.66	1910.75
403.87	1890.28
404.07	1970.15
404.28	1892.32
404.49	1896.42
404.70	1804.26
404.90	1730.53
405.11	1753.06
405.32	1783.78
405.52	1648.61
405.73	1724.39
405.94	1654.76
406.15	1779.68
406.35	1738.73
406.56	1697.77
406.77	1669.09
406.98	1824.74
407.18	1691.62
407.39	1775.59
407.60	1724.39
407.80	1652.71
408.01	1597.42
408.22	1691.62
408.43	1603.56
408.63	1785.83
408.84	1705.96
409.05	1720.29
409.25	1667.05
409.46	1693.67
409.67	1687.53
409.88	1673.19
410.08	1751.01
410.29	1734.63
410.50	1777.64
410.70	1681.38
410.91	1667.05
411.12	1703.91
411.32	1681.38
411.53	1648.61
411.74	1753.06
411.95	1824.74
412.15	1738.73
412.36	1763.30
412.57	1773.54
412.77	1804.26
412.98	1720.29
413.19	1724.39
413.39	1619.94
413.60	1791.97
413.81	1832.93
414.01	1578.98
414.22	1748.97
414.43	1619.94
414.63	1736.68
414.84	1755.11
415.05	1716.20
415.25	1609.70
415.46	1681.38
415.67	1669.09
415.87	1812.45
416.08	1687.53
416.29	1687.53
416.49	1757.16
416.70	1705.96
416.91	1689.57
417.11	1730.53
417.32	1777.64
417.53	1761.25
417.73	1771.49
417.94	1656.81
418.15	1699.81
418.35	1818.60
418.56	1724.39
418.77	1714.15
418.97	1728.49
419.18	1687.53
419.38	1638.38
419.59	1673.19
419.80	1828.84
420.00	1611.75
420.21	1677.29
420.42	1794.02
420.62	1738.73
420.83	1630.18
421.04	1665.00
421.24	1650.66
421.45	1789.92
421.65	1728.49
421.86	1665.00
422.07	1748.97
422.27	1724.39
422.48	1705.96
422.69	1611.75
422.89	1650.66
423.10	1669.09
423.30	1656.81
423.51	1640.42
423.72	1675.24
423.92	1798.12
424.13	1619.94
424.33	1712.10
424.54	1751.01
424.75	1724.39
424.95	1798.12
425.16	1755.11
425.36	1816.55
425.57	1759.21
425.78	1777.64
425.98	1769.44
426.19	1662.95
426.39	1689.57
426.60	1634.28
426.81	1767.40
427.01	1767.40
427.22	1593.32
427.42	1667.05
427.63	1677.29
427.83	1787.88
428.04	1820.64
428.25	1779.68
428.45	1712.10
428.66	1781.73
428.86	1730.53
429.07	1722.34
429.28	1722.34
429.48	1701.86
429.69	1656.81
429.89	1685.48
430.10	1648.61
430.30	1781.73
430.51	1775.59
430.71	1714.15
430.92	1712.10
431.13	1656.81
431.33	1769.44
431.54	1730.53
431.74	1804.26
431.95	1789.92
432.15	1656.81
432.36	1683.43
432.56	1767.40
432.77	1826.79
432.98	1843.17
433.18	1716.20
433.39	1736.68
433.59	1710.05
433.80	1783.78
434.00	1818.60
434.21	1611.75
434.41	1701.86
434.62	1822.69
434.82	1703.91
435.03	1601.51
435.23	1783.78
435.44	1576.94
435.64	1767.40
435.85	1751.01
436.06	1808.36
436.26	1746.92
436.47	1763.30
436.67	1685.48
436.88	1724.39
437.08	1726.44
437.29	1796.07
437.49	1796.07
437.70	1796.07
437.90	1728.49
438.11	1775.59
438.31	1740.77
438.52	1802.21
438.72	1904.61
438.93	1906.66
439.13	1687.53
439.34	1771.49
439.54	1763.30
439.75	1796.07
439.95	1843.17
440.16	1665.00
440.36	1800.16
440.57	1722.34
440.77	1787.88
440.98	1738.73
441.18	1738.73
441.39	1718.25
441.59	1699.81
441.80	1826.79
442.00	1794.02
442.21	1769.44
442.41	1648.61
442.62	1853.41
442.82	1699.81
443.02	1697.77
443.23	1693.67
443.43	1703.91
443.64	1834.98
443.84	1730.53
444.05	1894.37
444.25	1734.63
444.46	1669.09
444.66	1783.78
444.87	1853.41
445.07	1652.71
445.28	1718.25
445.48	1894.37
445.69	1722.34
445.89	1914.85
446.09	1722.34
446.30	2029.54
446.50	2721.75
446.71	3833.80
446.91	4358.08
447.12	4788.15
447.32	4837.30
447.53	4370.37
447.73	3981.25
447.93	3491.79
448.14	3225.55
448.34	3286.99
448.55	2867.16
448.75	2906.07
448.96	2688.98
449.16	2389.98
449.36	2254.81
449.57	2099.17
449.77	1877.99
449.98	1820.64
450.18	1787.88
450.39	1777.64
450.59	1767.40
450.79	1701.86
451.00	1656.81
451.20	1701.86
451.41	1681.38
451.61	1738.73
451.81	1675.24
452.02	1669.09
452.22	1826.79
452.43	1601.51
452.63	1681.38
452.84	1673.19
453.04	1658.85
453.24	1705.96
453.45	1710.05
453.65	1732.58
453.86	1798.12
454.06	1746.92
454.26	1796.07
454.47	1697.77
454.67	1779.68
454.87	1748.97
455.08	1730.53
455.28	1841.12
455.49	1738.73
455.69	1718.25
455.89	1808.36
456.10	1783.78
456.30	1644.52
456.51	1755.11
456.71	1740.77
456.91	1705.96
457.12	1761.25
457.32	1718.25
457.52	1691.62
457.73	1742.82
457.93	1708.01
458.14	1705.96
458.34	1660.90
458.54	1628.14
458.75	1710.05
458.95	1804.26
459.15	1701.86
459.36	1712.10
459.56	1705.96
459.76	1843.17
459.97	1644.52
460.17	1751.01
460.37	1845.22
460.58	1753.06
460.78	1783.78
460.99	1720.29
461.19	1751.01
461.39	1722.34
461.60	1734.63
461.80	1794.02
462.00	1714.15
462.21	1751.01
462.41	1730.53
462.61	1634.28
462.82	1669.09
463.02	1746.92
463.22	1759.21
463.43	1755.11
463.63	1763.30
463.83	1832.93
464.04	1767.40
464.24	1845.22
464.44	1628.14
464.64	1843.17
464.85	1751.01
465.05	1845.22
465.25	1730.53
465.46	1693.67
465.66	1736.68
465.86	1783.78
466.07	1718.25
466.27	1701.86
466.47	1583.08
466.68	1669.09
466.88	1816.55
467.08	1767.40
467.29	1736.68
467.49	1761.25
467.69	1714.15
467.89	1785.83
468.10	1683.43
468.30	1761.25
468.50	1740.77
468.71	1701.86
468.91	1624.04
469.11	1773.54
469.31	1787.88
469.52	1722.34
469.72	1814.50
469.92	1857.51
470.13	1730.53
470.33	1767.40
470.53	1816.55
470.73	2138.08
470.94	2185.18
471.14	2361.31
471.34	2568.15
471.54	2373.60
471.75	2176.99
471.95	2103.26
472.15	2125.79
472.36	2082.78
472.56	2084.83
472.76	2062.30
472.96	2000.87
473.17	2002.91
473.37	1986.53
473.57	1759.21
473.77	1732.58
473.98	1742.82
474.18	1697.77
474.38	1898.47
474.58	1708.01
474.79	1695.72
474.99	1738.73
475.19	1859.56
475.39	1697.77
475.60	1804.26
475.80	1667.05
476.00	1669.09
476.20	1732.58
476.41	1744.87
476.61	1804.26
476.81	1779.68
477.01	1697.77
477.21	1826.79
477.42	1800.16
477.62	1665.00
477.82	1830.88
478.02	1722.34
478.23	1779.68
478.43	1626.09
478.63	1673.19
478.83	1693.67
479.03	1703.91
479.24	1783.78
479.44	1751.01
479.64	1722.34
479.84	1603.56
480.04	1677.29
480.25	1812.45
480.45	1675.24
480.65	1699.81
480.85	1834.98
481.06	1671.14
481.26	1791.97
481.46	1697.77
481.66	1755.11
481.86	1591.27
482.06	1742.82
482.27	1642.47
482.47	1605.61
482.67	1824.74
482.87	1665.00
483.07	1763.30
483.28	1730.53
483.48	1624.04
483.68	1703.91
483.88	1683.43
484.08	1654.76
484.29	1636.33
484.49	1712.10
484.69	1644.52
484.89	1818.60
485.09	1722.34
485.29	1808.36
485.50	1656.81
485.70	1648.61
485.90	1837.03
486.10	1767.40
486.30	1695.72
486.50	1763.30
486.71	1734.63
486.91	1787.88
487.11	1722.34
487.31	1669.09
487.51	1699.81
487.71	1632.23
487.91	1642.47
488.12	1701.86
488.32	1595.37
488.52	1667.05
488.72	1576.94
488.92	1718.25
489.12	1773.54
489.32	1726.44
489.53	1693.67
489.73	1599.46
489.93	1769.44
490.13	1679.33
490.33	1617.90
490.53	1734.63
490.73	1787.88
490.94	1722.34
491.14	1775.59
491.34	1841.12
491.54	2131.94
491.74	2592.73
491.94	2979.79
492.14	2992.08
492.34	2967.51
492.54	2770.90
492.75	2482.14
492.95	2396.12
493.15	2246.62
493.35	2306.01
493.55	2181.09
493.75	2154.46
493.95	2140.13
494.15	2072.54
494.35	1945.57
494.56	1857.51
494.76	1755.11
494.96	1800.16
495.16	1738.73
495.36	1773.54
495.56	1744.87
495.76	1761.25
495.96	1701.86
496.16	1689.57
496.36	1834.98
496.56	1701.86
496.77	1769.44
496.97	1712.10
497.17	1822.69
497.37	1710.05
497.57	1714.15
497.77	1804.26
497.97	1667.05
498.17	1701.86
498.37	1681.38
498.57	1759.21
498.77	1699.81
498.97	1718.25
499.17	1914.85
499.38	1714.15
499.58	1724.39
499.78	1773.54
499.98	1763.30
500.18	1679.33
500.38	1675.24
500.58	1904.61
500.78	2535.39
500.98	4616.12
501.18	5867.43
501.38	6743.96
501.58	7180.18
501.78	6723.48
501.98	5509.04
502.18	4892.60
502.38	4384.70
502.58	4059.07
502.78	3854.28
502.98	3688.39
503.18	3493.83
503.38	3190.74
503.59	2852.82
503.79	2584.54
503.99	2490.33
504.19	2351.07
504.39	2191.33
504.59	2123.74
504.79	2064.35
504.99	2025.44
505.19	1890.28
505.39	1814.50
505.59	1902.56
505.79	1910.75
505.99	1865.70
506.19	1824.74
506.39	1845.22
506.59	1736.68
506.79	1769.44
506.99	1882.08
507.19	1755.11
507.39	1771.49
507.59	1689.57
507.79	1751.01
507.99	1705.96
508.19	1742.82
508.39	1716.20
508.59	1779.68
508.79	1890.28
508.99	1857.51
509.19	1714.15
509.39	1746.92
509.59	1626.09
509.79	1712.10
509.99	1787.88
510.19	1794.02
510.39	1812.45
510.59	1767.40
510.79	1751.01
510.99	1689.57
511.19	1765.35
511.39	1837.03
511.59	1763.30
511.79	1769.44
511.99	1687.53
512.19	1794.02
512.38	1779.68
512.58	1705.96
512.78	1638.38
512.98	1781.73
513.18	1818.60
513.38	1716.20
513.58	1744.87
513.78	1730.53
513.98	1767.40
514.18	1742.82
514.38	1716.20
514.58	1679.33
514.78	1748.97
514.98	1671.14
515.18	1720.29
515.38	1671.14
515.58	1806.31
515.78	1669.09
515.98	1701.86
516.18	1775.59
516.38	1765.35
516.57	1710.05
516.77	1695.72
516.97	1734.63
517.17	1603.56
517.37	1605.61
517.57	1722.34
517.77	1677.29
517.97	1705.96
518.17	1738.73
518.37	1646.57
518.57	1671.14
518.77	1667.05
518.97	1748.97
519.16	1705.96
519.36	1695.72
519.56	1705.96
519.76	1734.63
519.96	1730.53
520.16	1791.97
520.36	1697.77
520.56	1800.16
520.76	1767.40
520.96	1767.40
521.16	1763.30
521.35	1763.30
521.55	1859.56
521.75	1751.01
521.95	1654.76
522.15	1654.76
522.35	1656.81
522.55	1746.92
522.75	1730.53
522.95	1642.47
523.14	1677.29
523.34	1789.92
523.54	1708.01
523.74	1767.40
523.94	1687.53
524.14	1624.04
524.34	1765.35
524.54	1843.17
524.73	1742.82
524.93	1787.88
525.13	1730.53
525.33	1613.80
525.53	1918.95
525.73	1759.21
525.93	1763.30
526.13	1759.21
526.32	1660.90
526.52	1759.21
526.72	1652.71
526.92	1720.29
527.12	1703.91
527.32	1654.76
527.52	1744.87
527.71	1708.01
527.91	1787.88
528.11	1722.34
528.31	1744.87
528.51	1732.58
528.71	1726.44
528.90	1781.73
529.10	1787.88
529.30	1837.03
529.50	1634.28
529.70	1734.63
529.90	1677.29
530.09	1708.01
530.29	1673.19
530.49	1617.90
530.69	1863.65
530.89	1769.44
531.09	1728.49
531.28	1691.62
531.48	1769.44
531.68	1794.02
531.88	1734.63
532.08	1771.49
532.28	1705.96
532.47	1757.16
532.67	1873.89
532.87	1796.07
533.07	1699.81
533.27	1826.79
533.46	1777.64
533.66	1724.39
533.86	1746.92
534.06	1687.53
534.26	1740.77
534.45	1695.72
534.65	1849.32
534.85	1738.73
535.05	1724.39
535.25	1787.88
535.44	1689.57
535.64	1800.16
535.84	1605.61
536.04	1826.79
536.24	1703.91
536.43	1697.77
536.63	1781.73
536.83	1732.58
537.03	1697.77
537.22	1665.00
537.42	1656.81
537.62	1775.59
537.82	1689.57
538.02	1857.51
538.21	1740.77
538.41	1935.33
538.61	1789.92
538.81	1718.25
539.00	1828.84
539.20	1642.47
539.40	1656.81
539.60	1728.49
539.79	1705.96
539.99	1681.38
540.19	1697.77
540.39	1761.25
540.58	1697.77
540.78	1748.97
540.98	1755.11
541.18	1759.21
541.37	1744.87
541.57	1751.01
541.77	1728.49
541.97	1734.63
542.16	1630.18
542.36	1687.53
542.56	1732.58
542.76	1830.88
542.95	1771.49
543.15	1789.92
543.35	1740.77
543.54	1652.71
543.74	1740.77
543.94	1824.74
544.14	1697.77
544.33	1802.21
544.53	1746.92
544.73	1710.05
544.93	1794.02
545.12	1732.58
545.32	1789.92
545.52	1697.77
545.71	1695.72
545.91	1689.57
546.11	1718.25
546.30	1708.01
546.50	1781.73
546.70	1765.35
546.90	1742.82
547.09	1644.52
547.29	1724.39
547.49	1724.39
547.68	1744.87
547.88	1660.90
548.08	1781.73
548.27	2281.44
548.47	1716.20
548.67	1753.06
548.87	1681.38
549.06	1722.34
549.26	1789.92
549.46	1710.05
549.65	1714.15
549.85	1791.97
550.05	1853.41
550.24	1638.38
550.44	1712.10
550.64	1738.73
550.83	1810.40
551.03	1845.22
551.23	1722.34
551.42	1724.39
551.62	1734.63
551.82	1660.90
552.01	1779.68
552.21	1832.93
552.41	1746.92
552.60	1863.65
552.80	1773.54
553.00	1755.11
553.19	1796.07
553.39	1798.12
553.59	1652.71
553.78	1804.26
553.98	1779.68
554.17	1644.52
554.37	1787.88
554.57	1841.12
554.76	1654.76
554.96	1736.68
555.16	1687.53
555.35	1763.30
555.55	1828.84
555.75	1722.34
555.94	1757.16
556.14	1675.24
556.33	1753.06
556.53	1697.77
556.73	1730.53
556.92	1726.44
557.12	1853.41
557.32	1888.23
557.51	1849.32
557.71	1787.88
557.90	1806.31
558.10	1806.31
558.30	1730.53
558.49	1753.06
558.69	1744.87
558.88	1832.93
559.08	1810.40
559.28	1710.05
559.47	1765.35
559.67	1837.03
559.86	1894.37
560.06	1781.73
560.26	1699.81
560.45	1757.16
560.65	1736.68
560.84	1796.07
561.04	1673.19
561.24	1759.21
561.43	1667.05
561.63	1841.12
561.82	1724.39
562.02	1740.77
562.22	1701.86
562.41	1673.19
562.61	1714.15
562.80	1687.53
563.00	1867.75
563.19	1789.92
563.39	1800.16
563.59	1691.62
563.78	1730.53
563.98	1648.61
564.17	1705.96
564.37	1640.42
564.56	1714.15
564.76	1665.00
564.96	1830.88
565.15	1761.25
565.35	1828.84
565.54	1716.20
565.74	1767.40
565.93	1722.34
566.13	1734.63
566.32	1751.01
566.52	1814.50
566.71	1732.58
566.91	1800.16
567.11	1742.82
567.30	1626.09
567.50	1767.40
567.69	1779.68
567.89	1746.92
568.08	1656.81
568.28	1787.88
568.47	1662.95
568.67	1783.78
568.86	1720.29
569.06	1798.12
569.25	1714.15
569.45	1650.66
569.64	1638.38
569.84	1744.87
570.04	1720.29
570.23	1742.82
570.43	1710.05
570.62	1800.16
570.82	1871.84
571.01	1708.01
571.21	1705.96
571.40	1687.53
571.60	1771.49
571.79	1769.44
571.99	1773.54
572.18	1732.58
572.38	1810.40
572.57	1734.63
572.77	1773.54
572.96	1945.57
573.16	1802.21
573.35	1679.33
573.55	1810.40
573.74	1828.84
573.94	1689.57
574.13	1730.53
574.33	1861.60
574.52	1804.26
574.71	1681.38
574.91	1726.44
575.10	1744.87
575.30	1853.41
575.49	1621.99
575.69	1771.49
575.88	1738.73
576.08	1726.44
576.27	1880.04
576.47	1775.59
576.66	1830.88
576.86	1796.07
577.05	1753.06
577.25	1757.16
577.44	1880.04
577.64	1720.29
577.83	1826.79
578.02	1687.53
578.22	1751.01
578.41	1832.93
578.61	1763.30
578.80	1615.85
579.00	1800.16
579.19	1783.78
579.39	1738.73
579.58	1830.88
579.77	1751.01
579.97	1867.75
580.16	1871.84
580.36	1832.93
580.55	1863.65
580.75	1767.40
580.94	1806.31
581.13	1865.70
581.33	1802.21
581.52	1665.00
581.72	1882.08
581.91	1863.65
582.11	1691.62
582.30	1755.11
582.49	1837.03
582.69	1841.12
582.88	1773.54
583.08	1812.45
583.27	1841.12
583.47	1791.97
583.66	1697.77
583.85	1751.01
584.05	1775.59
584.24	1761.25
584.44	1730.53
584.63	1800.16
584.82	1853.41
585.02	1761.25
585.21	1849.32
585.41	1857.51
585.60	1841.12
585.79	1886.18
585.99	1851.36
586.18	1832.93
586.37	2115.55
586.57	3456.97
586.76	9842.54
586.96	24766.09
587.15	34512.37
587.34	41276.81
587.54	42503.54
587.73	37035.47
587.93	26781.29
588.12	21862.07
588.31	18458.34
588.51	16512.77
588.70	15236.89
588.89	14448.42
589.09	12816.19
589.28	11337.56
589.47	9547.63
589.67	8103.81
589.86	6639.51
590.06	4900.79
590.25	3909.57
590.44	3051.47
590.64	2543.58
590.83	2285.53
591.02	2164.70
591.22	1961.95
591.41	1859.56
591.60	1828.84
591.80	1970.15
591.99	1751.01
592.18	1769.44
592.38	1828.84
592.57	1812.45
592.76	1710.05
592.96	1828.84
593.15	1701.86
593.34	1843.17
593.54	1751.01
593.73	1753.06
593.92	1757.16
594.12	1673.19
594.31	1824.74
594.50	1837.03
594.70	1757.16
594.89	1898.47
595.08	1679.33
595.28	1728.49
595.47	1918.95
595.66	1798.12
595.86	1693.67
596.05	1767.40
596.24	1677.29
596.43	1812.45
596.63	1814.50
596.82	1695.72
597.01	1873.89
597.21	1834.98
597.40	1759.21
597.59	1771.49
597.79	1718.25
597.98	1808.36
598.17	1787.88
598.36	1775.59
598.56	1712.10
598.75	1787.88
598.94	1748.97
599.14	1791.97
599.33	1738.73
599.52	1777.64
599.71	1785.83
599.91	1775.59
600.10	1783.78
600.29	1720.29
600.48	1785.83
600.68	1683.43
600.87	1728.49
601.06	1693.67
601.26	1787.88
601.45	1748.97
601.64	1697.77
601.83	1789.92
602.03	1724.39
602.22	1732.58
602.41	1802.21
602.60	1837.03
602.80	1759.21
602.99	1734.63
603.18	1716.20
603.37	1783.78
603.57	1699.81
603.76	1736.68
603.95	1871.84
604.14	1714.15
604.34	1761.25
604.53	1746.92
604.72	1753.06
604.91	1732.58
605.10	1765.35
605.30	1693.67
605.49	1888.23
605.68	1822.69
605.87	1701.86
606.07	1699.81
606.26	1728.49
606.45	1753.06
606.64	1744.87
606.84	1767.40
607.03	1736.68
607.22	1798.12
607.41	1691.62
607.60	1732.58
607.80	1703.91
607.99	1697.77
608.18	1724.39
608.37	1753.06
608.56	1775.59
608.76	1808.36
608.95	1812.45
609.14	1806.31
609.33	1787.88
609.52	1755.11
609.72	1724.39
609.91	1857.51
610.10	1759.21
610.29	1812.45
610.48	1751.01
610.68	1771.49
610.87	1730.53
611.06	1791.97
611.25	1710.05
611.44	1789.92
611.63	1697.77
611.83	1830.88
612.02	1640.42
612.21	1740.77
612.40	1613.80
612.59	1650.66
612.79	1667.05
612.98	1765.35
613.17	1771.49
613.36	1677.29
613.55	1802.21
613.74	1693.67
613.93	1597.42
614.13	1656.81
614.32	1789.92
614.51	1724.39
614.70	1753.06
614.89	1691.62
615.08	1712.10
615.28	1984.48
615.47	1716.20
615.66	1697.77
615.85	1687.53
616.04	1804.26
616.23	1769.44
616.42	1626.09
616.62	1687.53
616.81	1724.39
617.00	1787.88
617.19	1789.92
617.38	1746.92
617.57	1667.05
617.76	1755.11
617.95	1812.45
618.15	1765.35
618.34	1732.58
618.53	1619.94
618.72	1787.88
618.91	1771.49
619.10	1822.69
619.29	1761.25
619.48	1714.15
619.68	1642.47
619.87	1722.34
620.06	1705.96
620.25	1861.60
620.44	1638.38
620.63	1699.81
620.82	1722.34
621.01	1710.05
621.20	1667.05
621.39	1785.83
621.59	1742.82
621.78	1689.57
621.97	1716.20
622.16	1724.39
622.35	1744.87
622.54	1775.59
622.73	1748.97
622.92	1708.01
623.11	1734.63
623.30	1705.96
623.49	1701.86
623.68	1642.47
623.88	1761.25
624.07	1701.86
624.26	1675.24
624.45	1648.61
624.64	1677.29
624.83	1791.97
625.02	1683.43
625.21	1673.19
625.40	1736.68
625.59	1753.06
625.78	1722.34
625.97	1787.88
626.16	1865.70
626.35	1767.40
626.54	1673.19
626.74	1820.64
626.93	1673.19
627.12	1708.01
627.31	1773.54
627.50	1732.58
627.69	1755.11
627.88	1624.04
628.07	1765.35
628.26	1708.01
628.45	1677.29
628.64	1691.62
628.83	1734.63
629.02	1748.97
629.21	1714.15
629.40	1714.15
629.59	1693.67
629.78	1683.43
629.97	1660.90
630.16	1679.33
630.35	1669.09
630.54	1689.57
630.73	1644.52
630.92	1714.15
631.11	1687.53
631.30	1710.05
631.49	1757.16
631.68	1644.52
631.87	1757.16
632.06	1570.79
632.25	1824.74
632.44	1771.49
632.63	1722.34
632.82	1693.67
633.01	1705.96
633.20	1677.29
633.39	1615.85
633.58	1599.46
633.77	1753.06
633.96	1689.57
634.15	1710.05
634.34	1732.58
634.53	1759.21
634.72	1689.57
634.91	1613.80
635.10	1714.15
635.29	1701.86
635.48	1736.68
635.67	1716.20
635.86	1783.78
636.05	1783.78
636.24	1683.43
636.43	1736.68
636.62	1753.06
636.81	1603.56
637.00	1730.53
637.19	1736.68
637.38	1667.05
637.57	1738.73
637.76	1712.10
637.95	1714.15
638.14	1689.57
638.33	1738.73
638.52	1724.39
638.71	1619.94
638.89	1595.37
639.08	1859.56
639.27	1773.54
639.46	1701.86
639.65	1826.79
639.84	1671.14
640.03	1783.78
640.22	1669.09
640.41	1882.08
640.60	1652.71
640.79	1652.71
640.98	1662.95
641.17	1751.01
641.36	1681.38
641.55	1734.63
641.74	1570.79
641.92	1595.37
642.11	1712.10
642.30	1701.86
642.49	1673.19
642.68	1726.44
642.87	1748.97
643.06	1677.29
643.25	1628.14
643.44	1634.28
643.63	1783.78
643.82	1789.92
644.00	1660.90
644.19	1703.91
644.38	1640.42
644.57	1785.83
644.76	1736.68
644.95	1748.97
645.14	1712.10
645.33	1730.53
645.52	1755.11
645.71	1556.46
645.89	1660.90
646.08	1783.78
646.27	1669.09
646.46	1802.21
646.65	1634.28
646.84	1705.96
647.03	1673.19
647.22	1742.82
647.40	1738.73
647.59	1697.77
647.78	1671.14
647.97	1705.96
648.16	1656.81
648.35	1804.26
648.54	1822.69
648.73	1705.96
648.91	1753.06
649.10	1740.77
649.29	1687.53
649.48	1658.85
649.67	1714.15
649.86	1652.71
650.05	1568.74
650.23	1681.38
650.42	1572.84
650.61	1763.30
650.80	1736.68
650.99	1802.21
651.18	1751.01
651.36	1714.15
651.55	1705.96
651.74	1722.34
651.93	1742.82
652.12	1763.30
652.31	1738.73
652.49	1755.11
652.68	1617.90
652.87	1783.78
653.06	1746.92
653.25	1767.40
653.44	1718.25
653.62	1736.68
653.81	1685.48
654.00	1683.43
654.19	1691.62
654.38	1822.69
654.56	1820.64
654.75	1642.47
654.94	1771.49
655.13	1746.92
655.32	1718.25
655.51	1742.82
655.69	1705.96
655.88	1771.49
656.07	1634.28
656.26	1771.49
656.45	1601.51
656.63	1697.77
656.82	1701.86
657.01	1791.97
657.20	1718.25
657.38	1783.78
657.57	1677.29
657.76	1701.86
657.95	1724.39
658.14	1722.34
658.32	1761.25
658.51	1626.09
658.70	1771.49
658.89	1755.11
659.08	1787.88
659.26	1837.03
659.45	1683.43
659.64	1773.54
659.83	1677.29
660.01	1918.95
660.20	1714.15
660.39	1775.59
660.58	1576.94
660.76	1683.43
660.95	1619.94
661.14	1718.25
661.33	1605.61
661.51	1640.42
661.70	1753.06
661.89	1705.96
662.08	1736.68
662.26	1718.25
662.45	1712.10
662.64	1923.04
662.83	1705.96
663.01	1691.62
663.20	1665.00
663.39	1818.60
663.58	1708.01
663.76	1697.77
663.95	1722.34
664.14	1718.25
664.32	1755.11
664.51	1689.57
664.70	1652.71
664.89	1710.05
665.07	1685.48
665.26	1775.59
665.45	1746.92
665.64	1785.83
665.82	1742.82
666.01	1724.39
666.20	1710.05
666.38	1794.02
666.57	1828.84
666.76	2207.71
666.95	4487.10
667.13	10426.21
667.32	15474.45
667.51	18120.43
667.69	19359.45
667.88	18003.69
668.07	12527.42
668.25	9680.75
668.44	8083.33
668.63	7514.00
668.81	6750.10
669.00	6317.98
669.19	5699.50
669.38	5140.40
669.56	4720.57
669.75	4026.31
669.94	3405.77
670.12	2932.69
670.31	2473.95
670.50	2260.96
670.68	2074.59
670.87	1892.32
671.06	1789.92
671.24	1798.12
671.43	1912.80
671.62	1726.44
671.80	1699.81
671.99	1800.16
672.18	1726.44
672.36	1765.35
672.55	1742.82
672.74	1701.86
672.92	1763.30
673.11	1751.01
673.29	1673.19
673.48	1779.68
673.67	1632.23
673.85	1744.87
674.04	1662.95
674.23	1783.78
674.41	1820.64
674.60	1632.23
674.79	1675.24
674.97	1699.81
675.16	1787.88
675.34	1751.01
675.53	1648.61
675.72	1775.59
675.90	1804.26
676.09	1730.53
676.28	1701.86
676.46	1611.75
676.65	1722.34
676.83	1689.57
677.02	1755.11
677.21	1751.01
677.39	1685.48
677.58	1644.52
677.77	1615.85
677.95	1605.61
678.14	1667.05
678.32	1621.99
678.51	1679.33
678.70	1755.11
678.88	1742.82
679.07	1746.92
679.25	1701.86
679.44	1660.90
679.63	1581.03
679.81	1765.35
680.00	1814.50
680.18	1757.16
680.37	1779.68
680.55	1722.34
680.74	1677.29
680.93	1646.57
681.11	1724.39
681.30	1802.21
681.48	1685.48
681.67	1730.53
681.85	1697.77
682.04	1621.99
682.23	1763.30
682.41	1685.48
682.60	1665.00
682.78	1665.00
682.97	1675.24
683.15	1656.81
683.34	1705.96
683.53	1822.69
683.71	1630.18
683.90	1816.55
684.08	1757.16
684.27	1619.94
684.45	1773.54
684.64	1736.68
684.82	1632.23
685.01	1718.25
685.19	1705.96
685.38	1796.07
685.57	1665.00
685.75	1683.43
685.94	1654.76
686.12	1685.48
686.31	1679.33
686.49	1777.64
686.68	1636.33
686.86	1757.16
687.05	1710.05
687.23	1865.70
687.42	1716.20
687.60	1652.71
687.79	1771.49
687.97	1804.26
688.16	1751.01
688.34	1765.35
688.53	1691.62
688.71	1697.77
688.90	1757.16
689.08	1587.18
689.27	1648.61
689.45	1708.01
689.64	1755.11
689.82	1740.77
690.01	1701.86
690.19	1728.49
690.38	1658.85
690.56	1761.25
690.75	1669.09
690.93	1677.29
691.12	1650.66
691.30	1746.92
691.49	1634.28
691.67	1730.53
691.86	1781.73
692.04	1679.33
692.23	1742.82
692.41	1705.96
692.60	1818.60
692.78	1689.57
692.97	1705.96
693.15	1810.40
693.34	1875.94
693.52	1681.38
693.71	1646.57
693.89	1648.61
694.08	1658.85
694.26	1740.77
694.44	1740.77
694.63	1697.77
694.81	1660.90
695.00	1621.99
695.18	1789.92
695.37	1886.18
695.55	1675.24
695.74	1681.38
695.92	1632.23
696.10	1757.16
696.29	1667.05
696.47	1691.62
696.66	1650.66
696.84	1705.96
697.03	1796.07
697.21	1802.21
697.40	2295.77
697.58	1763.30
697.76	1638.38
697.95	1636.33
698.13	1654.76
698.32	1650.66
698.50	1730.53
698.68	1708.01
698.87	1765.35
699.05	1816.55
699.24	1654.76
699.42	1658.85
699.61	1658.85
699.79	1722.34
699.97	1710.05
700.16	1617.90
700.34	1685.48
700.53	1691.62
700.71	1800.16
700.89	1718.25
701.08	1689.57
701.26	1677.29
701.45	2113.50
701.63	1673.19
701.81	1648.61
702.00	1722.34
702.18	1722.34
702.37	1662.95
702.55	1773.54
702.73	1710.05
702.92	1646.57
703.10	1732.58
703.28	1699.81
703.47	1603.56
703.65	1767.40
703.84	1757.16
704.02	1669.09
704.20	1730.53
704.39	1662.95
704.57	1705.96
704.75	1787.88
704.94	1757.16
705.12	1757.16
705.30	1736.68
705.49	2260.96
705.67	4372.41
705.86	9400.18
706.04	12623.68
706.22	14505.76
706.41	15580.95
706.59	14208.81
706.77	9842.54
706.96	7487.37
707.14	6731.67
707.32	6236.06
707.51	5754.79
707.69	4884.41
707.87	4331.45
708.06	3573.71
708.24	3028.95
708.42	2375.64
708.61	2228.19
708.79	1849.32
708.97	1873.89
709.16	1822.69
709.34	1699.81
709.52	1736.68
709.71	1734.63
709.89	1746.92
710.07	1693.67
710.26	1624.04
710.44	1658.85
710.62	1777.64
710.80	1800.16
710.99	1822.69
711.17	1724.39
711.35	1669.09
711.54	1738.73
711.72	1789.92
711.90	1714.15
712.09	1794.02
712.27	1705.96
712.45	1791.97
712.63	1656.81
712.82	1685.48
713.00	1787.88
713.18	1761.25
713.37	1783.78
713.55	1779.68
713.73	1679.33
713.91	1697.77
714.10	1673.19
714.28	1753.06
714.46	1796.07
714.65	1693.67
714.83	1753.06
715.01	1689.57
715.19	1759.21
715.38	1648.61
715.56	1703.91
715.74	1673.19
715.92	1638.38
716.11	1734.63
716.29	1581.03
716.47	1634.28
716.65	1669.09
716.84	1597.42
717.02	1767.40
717.20	1607.66
717.38	1656.81
717.57	1738.73
717.75	1718.25
717.93	1761.25
718.11	1732.58
718.30	1613.80
718.48	1732.58
718.66	1769.44
718.84	1761.25
719.03	1665.00
719.21	1585.13
719.39	1834.98
719.57	1751.01
719.75	1773.54
719.94	1654.76
720.12	1677.29
720.30	1673.19
720.48	1716.20
720.67	1667.05
720.85	1681.38
721.03	1665.00
721.21	1673.19
721.39	1765.35
721.58	1775.59
721.76	1689.57
721.94	1718.25
722.12	1748.97
722.30	1771.49
722.49	1673.19
722.67	1677.29
722.85	1716.20
723.03	1646.57
723.21	1654.76
723.40	1775.59
723.58	1767.40
723.76	1738.73
723.94	1783.78
724.12	1648.61
724.30	1742.82
724.49	1710.05
724.67	1689.57
724.85	1787.88
725.03	1574.89
725.21	1689.57
725.40	1769.44
725.58	1681.38
725.76	1763.30
725.94	1650.66
726.12	1648.61
726.30	1734.63
726.49	1677.29
726.67	1660.90
726.85	1687.53
727.03	1738.73
727.21	2174.94
727.39	2908.12
727.57	3772.36
727.76	4134.85
727.94	4530.11
728.12	4396.99
728.30	3764.17
728.48	3071.95
728.66	2779.09
728.84	2654.17
729.03	2283.49
729.21	2136.03
729.39	2029.54
729.57	1828.84
729.75	1802.21
729.93	1798.12
730.11	1720.29
730.30	1695.72
730.48	1675.24
730.66	1800.16
730.84	1796.07
731.02	1691.62
731.20	1738.73
731.38	1753.06
731.56	1681.38
731.74	1601.51
731.93	1730.53
732.11	1712.10
732.29	1634.28
732.47	1742.82
732.65	1722.34
732.83	1732.58
733.01	1732.58
733.19	1570.79
733.37	1710.05
733.56	1767.40
733.74	1689.57
733.92	1738.73
734.10	1685.48
734.28	1740.77
734.46	1603.56
734.64	1699.81
734.82	1763.30
735.00	1648.61
735.18	1794.02
735.36	1660.90
735.54	1697.77
735.73	1705.96
735.91	1728.49
736.09	1736.68
736.27	1689.57
736.45	1671.14
736.63	1554.41
736.81	1593.32
736.99	1781.73
737.17	1759.21
737.35	1710.05
737.53	1722.34
737.71	1640.42
737.89	1812.45
738.07	1683.43
738.25	1648.61
738.43	1617.90
738.61	1705.96
738.80	1658.85
738.98	1708.01
739.16	1705.96
739.34	1662.95
739.52	1818.60
739.70	1695.72
739.88	1738.73
740.06	1714.15
740.24	1648.61
740.42	1789.92
740.60	1650.66
740.78	1605.61
740.96	1695.72
741.14	1691.62
741.32	1726.44
741.50	1570.79
741.68	1880.04
741.86	1791.97
742.04	1667.05
742.22	1710.05
742.40	1708.01
742.58	1654.76
742.76	1632.23
742.94	1712.10
743.12	1591.27
743.30	1697.77
743.48	1732.58
743.66	1611.75
743.84	1718.25
744.02	1701.86
744.20	1685.48
744.38	1650.66
744.56	1630.18
744.74	1736.68
744.92	1753.06
745.10	1769.44
745.28	1736.68
745.46	1873.89
745.64	1681.38
745.82	1748.97
746.00	1755.11
746.18	1740.77
746.36	1665.00
746.54	1710.05
746.72	1648.61
746.90	1615.85
747.08	1773.54
747.26	1619.94
747.44	1710.05
747.62	1673.19
747.80	1755.11
747.98	1773.54
748.15	1624.04
748.33	1781.73
748.51	1691.62
748.69	1742.82
748.87	1681.38
749.05	1589.22
749.23	1675.24
749.41	1722.34
749.59	1701.86
749.77	1802.21
749.95	1658.85
750.13	1615.85
750.31	1689.57
750.49	1771.49
750.67	1738.73
750.85	1728.49
751.03	1669.09
751.20	1843.17
751.38	1773.54
751.56	1646.57
751.74	1617.90
751.92	1683.43
752.10	1570.79
752.28	1779.68
752.46	1658.85
752.64	1687.53
752.82	1611.75
753.00	1738.73
753.18	1689.57
753.35	1687.53
753.53	1724.39
753.71	1634.28
753.89	1738.73
754.07	1683.43
754.25	1689.57
754.43	1722.34
754.61	1644.52
754.79	1710.05
754.97	1734.63
755.14	1718.25
755.32	1615.85
755.50	1667.05
755.68	1718.25
755.86	1642.47
756.04	1642.47
756.22	1611.75
756.40	1689.57
756.57	1759.21
756.75	1722.34
756.93	1687.53
757.11	1699.81
757.29	1589.22
757.47	1662.95
757.65	1671.14
757.82	1677.29
758.00	1644.52
758.18	1644.52
758.36	1636.33
758.54	1751.01
758.72	1613.80
758.90	1812.45
759.07	1736.68
759.25	1712.10
759.43	1728.49
759.61	1658.85
759.79	2260.96
759.97	1798.12
760.15	1724.39
760.32	1642.47
760.50	1710.05
760.68	1783.78
760.86	1648.61
761.04	1746.92
761.22	1753.06
761.39	1708.01
761.57	1734.63
761.75	1658.85
761.93	1730.53
762.11	1677.29
762.28	1720.29
762.46	1685.48
762.64	1730.53
762.82	1599.46
763.00	1693.67
763.18	1720.29
763.35	1589.22
763.53	1763.30
763.71	1632.23
763.89	1796.07
764.07	1710.05
764.24	1701.86
764.42	1773.54
764.60	1705.96
764.78	1722.34
764.96	1742.82
765.13	1759.21
765.31	1699.81
765.49	1777.64
765.67	1697.77
765.84	1626.09
766.02	1695.72
766.20	1630.18
766.38	1751.01
766.56	1767.40
766.73	1771.49
766.91	1744.87
767.09	1685.48
767.27	1671.14
767.44	1640.42
767.62	1738.73
767.80	1691.62
767.98	1646.57
768.15	1640.42
768.33	1726.44
768.51	1677.29
768.69	1738.73
768.87	1726.44
769.04	1759.21
769.22	1787.88
769.40	1710.05
769.58	1847.27
769.75	1736.68
769.93	1837.03
770.11	1738.73
770.28	1658.85
770.46	1771.49
770.64	1710.05
770.82	1642.47
770.99	1644.52
771.17	1730.53
771.35	1699.81
771.53	1710.05
771.70	1675.24
771.88	1703.91
772.06	1576.94
772.23	1681.38
772.41	1710.05
772.59	1691.62
772.77	1603.56
772.94	1689.57
773.12	1705.96
773.30	1701.86
773.47	1685.48
773.65	1675.24
773.83	1843.17
774.01	1624.04
774.18	1615.85
774.36	1697.77
774.54	1671.14
774.71	1726.44
774.89	1638.38
775.07	1597.42
775.24	1671.14
775.42	1665.00
775.60	1822.69
775.78	1699.81
775.95	1630.18
776.13	1646.57
776.31	1636.33
776.48	1689.57
776.66	1763.30
776.84	1695.72
777.01	1644.52
777.19	1720.29
777.37	1693.67
777.54	1742.82
777.72	1767.40
777.90	1673.19
778.07	1701.86
778.25	1857.51
778.43	1742.82
778.60	1681.38
778.78	1724.39
778.96	1765.35
779.13	1611.75
779.31	1791.97
779.49	1665.00
779.66	1720.29
779.84	1722.34
780.01	1648.61
780.19	1652.71
780.37	1714.15
780.54	1710.05
780.72	1642.47
780.90	1705.96
781.07	1652.71
781.25	1675.24
781.43	1736.68
781.60	1667.05
781.78	1804.26
781.95	1660.90
782.13	1720.29
782.31	1728.49
782.48	1611.75
782.66	1751.01
782.83	1822.69
783.01	1748.97
783.19	1800.16
783.36	1681.38
783.54	1642.47
783.72	1703.91
783.89	1722.34
784.07	1675.24
784.24	1681.38
784.42	1806.31
784.60	1728.49
784.77	1769.44
784.95	1619.94
785.12	1679.33
785.30	1685.48
785.47	1615.85
785.65	1679.33
785.83	1662.95
786.00	1621.99
786.18	1744.87
786.35	1658.85
786.53	1636.33
786.71	1708.01
786.88	1730.53
787.06	1722.34
787.23	1640.42
787.41	1603.56
787.58	1693.67
787.76	1673.19
787.94	1705.96
788.11	1613.80
788.29	1665.00
788.46	1624.04
788.64	1601.51
788.81	1662.95
788.99	1699.81
789.16	1656.81
789.34	1755.11
789.52	1667.05
789.69	1665.00
789.87	1695.72
790.04	1652.71
790.22	1640.42
790.39	1742.82
790.57	1648.61
790.74	1615.85
790.92	1800.16
791.09	1626.09
791.27	1660.90
791.44	1755.11
791.62	1763.30
791.79	1779.68
791.97	1722.34
792.15	1904.61
792.32	1703.91
792.50	1724.39
792.67	1736.68
792.85	1804.26
793.02	1742.82
793.20	1716.20
793.37	1636.33
793.55	1685.48
793.72	1660.90
793.90	1671.14
794.07	1673.19
794.25	1730.53
794.42	1712.10
794.60	1705.96
794.77	1738.73
794.95	1806.31
795.12	1808.36
795.30	1615.85
795.47	1564.65
795.65	1808.36
795.82	1697.77
796.00	1619.94
796.17	1638.38
796.34	1658.85
796.52	1714.15
796.69	1751.01
796.87	1726.44
797.04	1679.33
797.22	1712.10
797.39	1746.92
797.57	1714.15
797.74	1695.72
797.92	1722.34
798.09	1652.71
798.27	1767.40
798.44	1687.53
798.62	1662.95
798.79	1673.19
798.96	1726.44
799.14	1710.05
799.31	1865.70
799.49	1675.24
799.66	1634.28
799.84	1722.34
800.01	1630.18
800.19	1814.50
800.36	1609.70
800.53	1738.73
800.71	1683.43
800.88	1787.88
801.06	1660.90
801.23	1691.62
801.41	1689.57
801.58	1644.52
801.75	1660.90
801.93	1771.49
802.10	1771.49
802.28	1720.29
802.45	1695.72
802.63	1740.77
802.80	1812.45
802.97	1683.43
803.15	1722.34
803.32	1699.81
803.50	1632.23
803.67	1701.86
803.84	1636.33
804.02	1665.00
804.19	1662.95
804.37	1607.66
804.54	1605.61
804.71	1679.33
804.89	1699.81
805.06	1681.38
805.24	1609.70
805.41	1617.90
805.58	1642.47
805.76	1834.98
805.93	1710.05
806.10	1697.77
806.28	1724.39
806.45	1658.85
806.63	1730.53
806.80	1767.40
806.97	1689.57
807.15	1785.83
807.32	1708.01
807.49	1751.01
807.67	1665.00
807.84	1722.34
808.01	1611.75
808.19	1785.83
808.36	1810.40
808.54	1662.95
808.71	1673.19
808.88	1644.52
809.06	1736.68
809.23	1759.21
809.40	1632.23
809.58	1798.12
809.75	1718.25
809.92	1660.90
810.10	1800.16
810.27	1673.19
810.44	1705.96
810.62	1710.05
810.79	1665.00
810.96	1722.34
811.14	1636.33
811.31	1714.15
811.48	1703.91
811.66	1738.73
811.83	1728.49
812.00	1746.92
812.18	1753.06
812.35	1777.64
812.52	1703.91
812.69	1669.09
812.87	1691.62
813.04	1621.99
813.21	1669.09
813.39	1691.62
813.56	1607.66
813.73	1755.11
813.91	1658.85
814.08	1785.83
814.25	1685.48
814.42	1589.22
814.60	1648.61
814.77	1710.05
814.94	1771.49
815.12	1630.18
815.29	1738.73
815.46	1679.33
815.63	1722.34
815.81	1699.81
815.98	1683.43
816.15	1669.09
816.33	1710.05
816.50	1656.81
816.67	1660.90
816.84	1708.01
817.02	1583.08
817.19	1636.33
817.36	1689.57
817.53	1730.53
817.71	1619.94
817.88	1757.16
818.05	1667.05
818.22	1691.62
818.40	1839.08
818.57	1720.29
818.74	1718.25
818.91	1701.86
819.09	1718.25
819.26	1802.21
819.43	1648.61
819.60	1665.00
819.78	1660.90
819.95	1769.44
820.12	1665.00
820.29	1783.78
820.47	1710.05
820.64	1634.28
820.81	1617.90
820.98	1665.00
821.15	1703.91
821.33	1708.01
821.50	1599.46
821.67	1681.38
821.84	1691.62
822.02	1738.73
822.19	1740.77
822.36	1628.14
822.53	1685.48
822.70	1634.28
822.88	1648.61
823.05	1765.35
823.22	1679.33
823.39	1722.34
823.56	1697.77
823.74	1839.08
823.91	1662.95
824.08	1677.29
824.25	1638.38
824.42	1804.26
824.60	1535.98
824.77	1822.69
824.94	1732.58
825.11	1738.73
825.28	1613.80
825.45	1712.10
825.63	1714.15
825.80	1642.47
825.97	1689.57
826.14	1679.33
826.31	1587.18
826.48	1685.48
826.66	1744.87
826.83	1658.85
827.00	1720.29
827.17	1650.66
827.34	1718.25
827.51	1662.95
827.69	1685.48
827.86	1617.90
828.03	1656.81
828.20	1755.11
828.37	1599.46
828.54	1712.10
828.71	1683.43
828.89	1785.83
829.06	1699.81
829.23	1730.53
829.40	1638.38
829.57	1624.04
829.74	1701.86
829.91	1660.90
830.09	1632.23
830.26	1787.88
830.43	1814.50
830.60	1673.19
830.77	1742.82
830.94	1775.59
831.11	1748.97
831.28	1699.81
831.46	1779.68
831.63	1611.75
831.80	1722.34
831.97	1671.14
832.14	1654.76
832.31	1785.83
832.48	1619.94
832.65	1757.16
832.82	1677.29
832.99	1773.54
833.17	1585.13
833.34	1689.57
833.51	1761.25
833.68	1597.42
833.85	1785.83
834.02	1589.22
834.19	1638.38
834.36	1585.13
834.53	1736.68
834.70	1787.88
834.87	1744.87
835.04	1732.58
835.22	1669.09
835.39	1753.06
835.56	1654.76
835.73	1705.96
835.90	1751.01
836.07	1656.81
836.24	1683.43
836.41	1568.74
836.58	1648.61
836.75	1736.68
836.92	1683.43
837.09	1697.77
837.26	1685.48
837.43	1718.25
837.60	1724.39
837.77	1669.09
837.94	1763.30
838.12	1787.88
838.29	1685.48
838.46	1630.18
838.63	1656.81
838.80	1755.11
838.97	1763.30
839.14	1667.05
839.31	1701.86
839.48	1681.38
839.65	1632.23
839.82	1748.97
839.99	1761.25
840.16	1738.73
840.33	1669.09
840.50	1638.38
840.67	1683.43
840.84	1603.56
841.01	1779.68
841.18	1675.24
841.35	1667.05
841.52	1665.00
841.69	1806.31
841.86	1689.57
842.03	1722.34
842.20	1755.11
842.37	1710.05
842.54	1650.66
842.71	1757.16
842.88	1673.19
843.05	1824.74
843.22	1705.96
843.39	1779.68
843.56	1757.16
843.73	1697.77
843.90	1658.85
844.07	1705.96
844.24	1681.38
844.41	1675.24
844.58	1640.42
844.75	1755.11
844.92	1787.88
845.09	1742.82
845.26	1658.85
845.43	1734.63
845.60	1701.86
845.77	1777.64
845.94	1689.57
846.10	1742.82
846.27	1646.57
846.44	1591.27
846.61	1597.42
846.78	1714.15
846.95	1722.34
847.12	1646.57
847.29	1724.39
847.46	1665.00
847.63	1751.01
847.80	1642.47
847.97	1665.00
848.14	1777.64
848.31	1636.33
848.48	1671.14
848.65	1722.34
848.82	1658.85
848.98	1787.88
849.15	1712.10
849.32	1718.25
849.49	1837.03
849.66	1662.95
849.83	1708.01
850.00	1640.42
850.17	1695.72
850.34	1705.96
850.51	1597.42
850.68	1683.43
850.85	1726.44
851.01	1724.39
851.18	1746.92
851.35	1640.42
851.52	1748.97
851.69	1773.54
851.86	1642.47
852.03	1685.48
852.20	1765.35
852.37	1695.72
852.53	1615.85
852.70	1601.51
852.87	1740.77
853.04	1683.43
853.21	1728.49
853.38	1728.49
853.55	1746.92
853.72	1781.73
853.89	1621.99
854.05	1640.42
854.22	1746.92
854.39	1705.96
854.56	1769.44
854.73	1697.77
854.90	1613.80
855.07	1675.24
855.23	1632.23
855.40	1671.14
855.57	1605.61
855.74	1544.17
855.91	1927.14
856.08	1593.32
856.25	1650.66
856.41	1665.00
856.58	1726.44
856.75	1656.81
856.92	1665.00
857.09	1757.16
857.26	1695.72
857.42	1685.48
857.59	1738.73
857.76	1759.21
857.93	1720.29
858.10	1726.44
858.27	1628.14
858.43	1656.81
858.60	1726.44
858.77	1591.27
858.94	1644.52
859.11	1738.73
859.27	1701.86
859.44	1710.05
859.61	1783.78
859.78	1724.39
859.95	1732.58
860.12	1695.72
860.28	1763.30
860.45	1832.93
860.62	1630.18
860.79	1708.01
860.95	1742.82
861.12	1628.14
861.29	1648.61
861.46	1636.33
861.63	1624.04
861.79	1722.34
861.96	1652.71
862.13	1648.61
862.30	1736.68
862.47	1679.33
862.63	1634.28
862.80	1751.01
862.97	1791.97
863.14	1724.39
863.30	1742.82
863.47	1691.62
863.64	1705.96
863.81	1722.34
863.97	1619.94
864.14	1738.73
864.31	1689.57
864.48	1703.91
864.65	1605.61
864.81	1738.73
864.98	1728.49
865.15	1818.60
865.32	1656.81
865.48	1734.63
865.65	1720.29
865.82	1652.71
865.98	1738.73
866.15	1656.81
866.32	1736.68
866.49	1744.87
866.65	1763.30
866.82	1632.23
866.99	1636.33
867.16	1601.51
867.32	1695.72
867.49	1697.77
867.66	1662.95
867.83	1642.47
867.99	1626.09
868.16	1689.57
868.33	1611.75
868.49	1710.05
868.66	1697.77
868.83	1759.21
868.99	1658.85
869.16	1658.85
869.33	1757.16
869.50	1746.92
869.66	1730.53
869.83	1665.00
870.00	1603.56
870.16	1777.64
870.33	1656.81
870.50	1751.01
870.66	1642.47
870.83	1832.93
871.00	1726.44
871.17	1769.44
871.33	1759.21
871.50	1687.53
871.67	1697.77
871.83	1601.51
872.00	1806.31
872.17	1658.85
872.33	1794.02
872.50	1830.88
872.67	1660.90
872.83	1599.46
873.00	1769.44
873.17	1595.37
873.33	1791.97
873.50	1771.49
873.67	1652.71
873.83	1632.23
874.00	1746.92
874.16	1767.40
874.33	1632.23
874.50	1566.70
874.66	1703.91
874.83	1703.91
875.00	1806.31
875.16	1785.83
875.33	1705.96
875.50	1601.51
875.66	1679.33
875.83	1724.39
875.99	1687.53
876.16	1621.99
876.33	1691.62
876.49	1658.85
876.66	1699.81
876.83	1636.33
876.99	1640.42
877.16	1710.05
877.32	1611.75
877.49	1761.25
877.66	1689.57
877.82	1710.05
877.99	1705.96
878.15	1679.33
878.32	1728.49
878.49	1699.81
878.65	1685.48
878.82	1724.39
878.98	1748.97
879.15	1720.29
879.32	1775.59
879.48	1640.42
879.65	1652.71
879.81	1740.77
879.98	1671.14
880.15	1695.72
880.31	1740.77
880.48	1650.66
880.64	1732.58
880.81	1796.07
880.97	1867.75
881.14	1753.06
881.31	1630.18
881.47	1824.74
881.64	1632.23
881.80	1599.46
881.97	1671.14
882.13	1744.87
882.30	1665.00
882.47	1632.23
882.63	1677.29
882.80	1724.39
882.96	1628.14
883.13	1724.39
883.29	1656.81
883.46	1693.67
883.62	1740.77
883.79	1720.29
883.95	1845.22
884.12	1665.00
884.29	1738.73
884.45	1716.20
884.62	1730.53
884.78	1767.40
884.95	1714.15
885.11	1626.09
885.28	1708.01
885.44	1697.77
885.61	1718.25
885.77	1880.04
885.94	1755.11
886.10	1748.97
886.27	1636.33
886.43	1763.30
886.60	1703.91
886.76	1607.66
886.93	1693.67
887.09	1722.34
887.26	1599.46
887.42	1736.68
887.59	1708.01
887.75	1841.12
887.92	1765.35
888.08	1693.67
888.25	1808.36
888.41	1804.26
888.58	1730.53
888.74	1730.53
888.91	1591.27
>>>>>End Processed Spectral Data<<<<<
