SpectraSuite Data File
++++++++++++++++++++++++++++++++++++
Date: Mon Jun 06 12:36:17 CEST 2016
User: root
Dark Spectrum Present: No
Reference Spectrum Present: No
Number of Sampled Component Spectra: 1
Spectrometers: USB4C02835
Integration Time (usec): 100000 (USB4C02835)
Spectra Averaged: 1 (USB4C02835)
Boxcar Smoothing: 0 (USB4C02835)
Correct for Electrical Dark: No (USB4C02835)
Strobe/Lamp Enabled: No (USB4C02835)
Correct for Detector Non-linearity: No (USB4C02835)
Correct for Stray Light: No (USB4C02835)
Number of Pixels in Processed Spectrum: 3648
>>>>>Begin Processed Spectral Data<<<<<
177.47	1409.00
177.69	1409.00
177.91	1409.00
178.13	1431.53
178.36	1454.06
178.58	1669.09
178.80	1740.77
179.02	1679.33
179.24	1550.31
179.46	1726.44
179.68	1722.34
179.90	1695.72
180.13	1687.53
180.35	1701.86
180.57	1673.19
180.79	1726.44
181.01	1740.77
181.23	1720.29
181.45	1751.01
181.67	1744.87
181.90	1689.57
182.12	1585.13
182.34	1701.86
182.56	1755.11
182.78	1677.29
183.00	1650.66
183.22	1726.44
183.44	1611.75
183.66	1841.12
183.89	1779.68
184.11	1665.00
184.33	1757.16
184.55	1761.25
184.77	1687.53
184.99	1693.67
185.21	1628.14
185.43	1802.21
185.65	1628.14
185.87	1685.48
186.10	1812.45
186.32	1796.07
186.54	1740.77
186.76	1828.84
186.98	1683.43
187.20	1722.34
187.42	1724.39
187.64	1691.62
187.86	1744.87
188.08	1728.49
188.30	1667.05
188.52	1689.57
188.75	1757.16
188.97	1703.91
189.19	1665.00
189.41	1728.49
189.63	1658.85
189.85	1675.24
190.07	1591.27
190.29	1589.22
190.51	1742.82
190.73	1673.19
190.95	1847.27
191.17	1730.53
191.39	1562.60
191.61	1712.10
191.84	1652.71
192.06	1718.25
192.28	1558.50
192.50	1796.07
192.72	1746.92
192.94	1697.77
193.16	1767.40
193.38	1615.85
193.60	1640.42
193.82	1634.28
194.04	1783.78
194.26	1738.73
194.48	1689.57
194.70	1714.15
194.92	1689.57
195.14	1775.59
195.36	1652.71
195.58	1679.33
195.80	1630.18
196.02	1699.81
196.24	1669.09
196.46	1746.92
196.69	1662.95
196.91	1804.26
197.13	1697.77
197.35	1638.38
197.57	1726.44
197.79	1703.91
198.01	1687.53
198.23	1757.16
198.45	1794.02
198.67	1652.71
198.89	1710.05
199.11	1673.19
199.33	1695.72
199.55	1613.80
199.77	1738.73
199.99	1820.64
200.21	1634.28
200.43	1683.43
200.65	1626.09
200.87	1609.70
201.09	1667.05
201.31	1687.53
201.53	1701.86
201.75	1714.15
201.97	1693.67
202.19	1697.77
202.41	1675.24
202.63	1839.08
202.85	1759.21
203.07	1722.34
203.29	1697.77
203.51	1597.42
203.73	1679.33
203.95	1804.26
204.17	1751.01
204.39	1742.82
204.61	1603.56
204.83	1638.38
205.05	1783.78
205.27	1726.44
205.49	1894.37
205.71	1714.15
205.93	1597.42
206.15	1689.57
206.37	1757.16
206.59	1654.76
206.81	1665.00
207.03	1665.00
207.25	1650.66
207.47	1779.68
207.69	1685.48
207.91	1802.21
208.13	1724.39
208.34	1662.95
208.56	1615.85
208.78	1632.23
209.00	1689.57
209.22	1730.53
209.44	1681.38
209.66	1654.76
209.88	1738.73
210.10	1634.28
210.32	1708.01
210.54	1746.92
210.76	1646.57
210.98	1699.81
211.20	1660.90
211.42	1687.53
211.64	1785.83
211.86	1708.01
212.08	1708.01
212.30	1708.01
212.52	1613.80
212.74	1738.73
212.96	1685.48
213.17	1822.69
213.39	1726.44
213.61	1783.78
213.83	1687.53
214.05	1615.85
214.27	1804.26
214.49	1621.99
214.71	1652.71
214.93	1640.42
215.15	1675.24
215.37	1767.40
215.59	1628.14
215.81	1699.81
216.03	1767.40
216.24	1693.67
216.46	1675.24
216.68	1609.70
216.90	1673.19
217.12	1757.16
217.34	1763.30
217.56	1787.88
217.78	1738.73
218.00	1742.82
218.22	1619.94
218.44	1738.73
218.66	1630.18
218.87	1820.64
219.09	1724.39
219.31	1685.48
219.53	1720.29
219.75	1634.28
219.97	1665.00
220.19	1665.00
220.41	1701.86
220.63	1761.25
220.85	1751.01
221.06	1656.81
221.28	1789.92
221.50	1738.73
221.72	1669.09
221.94	1689.57
222.16	1677.29
222.38	1755.11
222.60	1769.44
222.82	1699.81
223.03	1765.35
223.25	1607.66
223.47	1738.73
223.69	1794.02
223.91	1765.35
224.13	1638.38
224.35	1632.23
224.57	1722.34
224.78	1759.21
225.00	1648.61
225.22	1650.66
225.44	1665.00
225.66	1720.29
225.88	1628.14
226.10	1660.90
226.32	1806.31
226.53	1683.43
226.75	1746.92
226.97	1660.90
227.19	1679.33
227.41	1693.67
227.63	1759.21
227.85	1640.42
228.06	1716.20
228.28	1644.52
228.50	1671.14
228.72	1681.38
228.94	1691.62
229.16	1619.94
229.37	1673.19
229.59	1689.57
229.81	1683.43
230.03	1652.71
230.25	1593.32
230.47	1648.61
230.69	1638.38
230.90	1722.34
231.12	1632.23
231.34	1652.71
231.56	1689.57
231.78	1617.90
232.00	1736.68
232.21	1683.43
232.43	1730.53
232.65	1560.55
232.87	1785.83
233.09	1613.80
233.30	1665.00
233.52	1744.87
233.74	1691.62
233.96	1642.47
234.18	1675.24
234.40	1679.33
234.61	1851.36
234.83	1583.08
235.05	1716.20
235.27	1824.74
235.49	1722.34
235.70	1679.33
235.92	1783.78
236.14	1738.73
236.36	1857.51
236.58	1615.85
236.79	1687.53
237.01	1718.25
237.23	1667.05
237.45	1771.49
237.67	1712.10
237.88	1779.68
238.10	1773.54
238.32	1601.51
238.54	1681.38
238.76	1763.30
238.97	1644.52
239.19	1632.23
239.41	1728.49
239.63	1814.50
239.85	1595.37
240.06	1671.14
240.28	1716.20
240.50	1773.54
240.72	1681.38
240.93	1689.57
241.15	1810.40
241.37	1691.62
241.59	1757.16
241.81	1726.44
242.02	1619.94
242.24	1738.73
242.46	1691.62
242.68	1640.42
242.89	1716.20
243.11	1810.40
243.33	1630.18
243.55	1710.05
243.76	1779.68
243.98	1716.20
244.20	1683.43
244.42	1726.44
244.64	1718.25
244.85	1669.09
245.07	1681.38
245.29	1689.57
245.51	1693.67
245.72	1730.53
245.94	1716.20
246.16	1644.52
246.38	1697.77
246.59	1708.01
246.81	1712.10
247.03	1632.23
247.24	1650.66
247.46	1587.18
247.68	1755.11
247.90	1636.33
248.11	1675.24
248.33	1751.01
248.55	1697.77
248.77	1693.67
248.98	1755.11
249.20	1810.40
249.42	1712.10
249.64	1695.72
249.85	1708.01
250.07	1705.96
250.29	1765.35
250.50	1751.01
250.72	1570.79
250.94	1697.77
251.16	1789.92
251.37	1806.31
251.59	1710.05
251.81	1724.39
252.02	1796.07
252.24	1660.90
252.46	1763.30
252.68	1648.61
252.89	1683.43
253.11	1624.04
253.33	1818.60
253.54	1755.11
253.76	1609.70
253.98	1650.66
254.20	1675.24
254.41	1634.28
254.63	1712.10
254.85	1673.19
255.06	1791.97
255.28	1710.05
255.50	1699.81
255.71	1617.90
255.93	1583.08
256.15	1710.05
256.36	1771.49
256.58	1642.47
256.80	1695.72
257.02	1681.38
257.23	1693.67
257.45	1708.01
257.67	1685.48
257.88	1615.85
258.10	1722.34
258.32	1712.10
258.53	1665.00
258.75	1755.11
258.97	1654.76
259.18	1728.49
259.40	1693.67
259.62	1740.77
259.83	1806.31
260.05	1718.25
260.27	1978.34
260.48	1708.01
260.70	1562.60
260.92	1685.48
261.13	1677.29
261.35	1677.29
261.57	1714.15
261.78	1581.03
262.00	1665.00
262.22	1685.48
262.43	1638.38
262.65	1656.81
262.86	1697.77
263.08	1822.69
263.30	1695.72
263.51	1669.09
263.73	1660.90
263.95	1804.26
264.16	1671.14
264.38	1675.24
264.60	1751.01
264.81	1683.43
265.03	1722.34
265.25	1732.58
265.46	1681.38
265.68	1796.07
265.89	1730.53
266.11	1628.14
266.33	1722.34
266.54	1695.72
266.76	1673.19
266.98	1724.39
267.19	1763.30
267.41	1722.34
267.62	1642.47
267.84	1576.94
268.06	1710.05
268.27	1705.96
268.49	1787.88
268.70	1757.16
268.92	1689.57
269.14	1716.20
269.35	1576.94
269.57	1662.95
269.79	1775.59
270.00	1675.24
270.22	1736.68
270.43	1640.42
270.65	1560.55
270.87	1746.92
271.08	1773.54
271.30	1771.49
271.51	1726.44
271.73	1734.63
271.95	1701.86
272.16	1681.38
272.38	1738.73
272.59	1601.51
272.81	1777.64
273.02	1763.30
273.24	1730.53
273.46	1687.53
273.67	1689.57
273.89	1626.09
274.10	1740.77
274.32	1796.07
274.54	1777.64
274.75	1775.59
274.97	1613.80
275.18	1710.05
275.40	1812.45
275.61	1673.19
275.83	1771.49
276.05	1644.52
276.26	1683.43
276.48	1710.05
276.69	1677.29
276.91	1568.74
277.12	1763.30
277.34	1720.29
277.55	1769.44
277.77	1724.39
277.99	1728.49
278.20	1656.81
278.42	1718.25
278.63	1652.71
278.85	1619.94
279.06	1550.31
279.28	1607.66
279.49	1744.87
279.71	1701.86
279.93	1687.53
280.14	1673.19
280.36	1609.70
280.57	1738.73
280.79	1722.34
281.00	1714.15
281.22	1636.33
281.43	1802.21
281.65	1570.79
281.86	1671.14
282.08	1648.61
282.29	1744.87
282.51	1574.89
282.73	1658.85
282.94	1619.94
283.16	1691.62
283.37	1753.06
283.59	1720.29
283.80	1695.72
284.02	1697.77
284.23	1675.24
284.45	1648.61
284.66	1621.99
284.88	1656.81
285.09	1675.24
285.31	1779.68
285.52	1777.64
285.74	1611.75
285.95	1677.29
286.17	1824.74
286.38	1765.35
286.60	1708.01
286.81	1646.57
287.03	1644.52
287.24	1669.09
287.46	1771.49
287.67	1742.82
287.89	1802.21
288.10	1701.86
288.32	1699.81
288.53	1736.68
288.75	1789.92
288.96	1753.06
289.18	1640.42
289.39	1718.25
289.61	1677.29
289.82	1755.11
290.04	1779.68
290.25	1685.48
290.47	1685.48
290.68	1675.24
290.90	1734.63
291.11	1605.61
291.33	1675.24
291.54	1656.81
291.76	1660.90
291.97	1652.71
292.18	1701.86
292.40	1705.96
292.61	1730.53
292.83	1818.60
293.04	1748.97
293.26	1685.48
293.47	1689.57
293.69	1669.09
293.90	1732.58
294.12	1748.97
294.33	1712.10
294.55	1697.77
294.76	1748.97
294.97	1789.92
295.19	1843.17
295.40	1646.57
295.62	1759.21
295.83	1695.72
296.05	1636.33
296.26	1722.34
296.48	1593.32
296.69	1677.29
296.90	1800.16
297.12	1726.44
297.33	1730.53
297.55	1689.57
297.76	1716.20
297.98	1751.01
298.19	1681.38
298.41	1642.47
298.62	1681.38
298.83	1779.68
299.05	1720.29
299.26	1703.91
299.48	1636.33
299.69	1783.78
299.90	1677.29
300.12	1662.95
300.33	1708.01
300.55	1685.48
300.76	1751.01
300.98	1759.21
301.19	1691.62
301.40	1705.96
301.62	1636.33
301.83	1693.67
302.05	1712.10
302.26	1630.18
302.47	1722.34
302.69	1683.43
302.90	1736.68
303.12	1550.31
303.33	1675.24
303.54	1804.26
303.76	1658.85
303.97	1751.01
304.19	1701.86
304.40	1662.95
304.61	1673.19
304.83	1753.06
305.04	1722.34
305.26	1638.38
305.47	1652.71
305.68	1714.15
305.90	1630.18
306.11	1832.93
306.33	1703.91
306.54	1605.61
306.75	1656.81
306.97	1626.09
307.18	1677.29
307.39	1673.19
307.61	1703.91
307.82	1710.05
308.04	1665.00
308.25	1728.49
308.46	1665.00
308.68	1667.05
308.89	1660.90
309.10	1832.93
309.32	1652.71
309.53	1675.24
309.74	1703.91
309.96	1650.66
310.17	1785.83
310.39	1615.85
310.60	1689.57
310.81	1671.14
311.03	1634.28
311.24	1755.11
311.45	1634.28
311.67	1740.77
311.88	1753.06
312.09	1628.14
312.31	1677.29
312.52	1642.47
312.73	1697.77
312.95	1679.33
313.16	1613.80
313.37	1751.01
313.59	1720.29
313.80	1687.53
314.01	1789.92
314.23	1658.85
314.44	1673.19
314.65	1746.92
314.87	1595.37
315.08	1730.53
315.29	1560.55
315.51	1562.60
315.72	1673.19
315.93	1791.97
316.15	1738.73
316.36	1642.47
316.57	1648.61
316.79	1677.29
317.00	1646.57
317.21	1681.38
317.43	1642.47
317.64	1734.63
317.85	1665.00
318.07	1691.62
318.28	1667.05
318.49	1728.49
318.70	1927.14
318.92	1791.97
319.13	1857.51
319.34	1894.37
319.56	1753.06
319.77	1761.25
319.98	1837.03
320.20	1726.44
320.41	1716.20
320.62	1755.11
320.83	1679.33
321.05	1785.83
321.26	1712.10
321.47	1705.96
321.69	1751.01
321.90	1669.09
322.11	1687.53
322.32	1705.96
322.54	1796.07
322.75	1662.95
322.96	1832.93
323.18	1650.66
323.39	1593.32
323.60	1624.04
323.81	1751.01
324.03	1687.53
324.24	1718.25
324.45	1761.25
324.66	1716.20
324.88	1732.58
325.09	1779.68
325.30	1685.48
325.52	1740.77
325.73	1712.10
325.94	1714.15
326.15	1587.18
326.37	1634.28
326.58	1740.77
326.79	1845.22
327.00	1662.95
327.22	1738.73
327.43	1720.29
327.64	1591.27
327.85	1746.92
328.07	1656.81
328.28	1742.82
328.49	1650.66
328.70	1658.85
328.92	1714.15
329.13	1621.99
329.34	1730.53
329.55	1845.22
329.76	1699.81
329.98	1638.38
330.19	1722.34
330.40	1716.20
330.61	1673.19
330.83	1781.73
331.04	1642.47
331.25	1785.83
331.46	1667.05
331.68	1626.09
331.89	1746.92
332.10	1658.85
332.31	1671.14
332.52	1652.71
332.74	1802.21
332.95	1650.66
333.16	1730.53
333.37	1740.77
333.58	1650.66
333.80	1640.42
334.01	1703.91
334.22	1730.53
334.43	1675.24
334.64	1675.24
334.86	1587.18
335.07	1636.33
335.28	1814.50
335.49	1607.66
335.70	1771.49
335.92	1775.59
336.13	1812.45
336.34	1755.11
336.55	1662.95
336.76	1738.73
336.98	1597.42
337.19	1705.96
337.40	1730.53
337.61	1861.60
337.82	1665.00
338.04	1718.25
338.25	1560.55
338.46	1683.43
338.67	1626.09
338.88	1632.23
339.09	1677.29
339.31	1775.59
339.52	1722.34
339.73	1636.33
339.94	1728.49
340.15	1720.29
340.36	1683.43
340.58	1716.20
340.79	1589.22
341.00	1746.92
341.21	1646.57
341.42	1789.92
341.63	1673.19
341.85	1693.67
342.06	1705.96
342.27	1605.61
342.48	1787.88
342.69	1634.28
342.90	1699.81
343.12	1748.97
343.33	1634.28
343.54	1708.01
343.75	1755.11
343.96	1593.32
344.17	1638.38
344.38	1699.81
344.60	1632.23
344.81	1665.00
345.02	1740.77
345.23	1757.16
345.44	1824.74
345.65	1718.25
345.86	1681.38
346.07	1703.91
346.29	1591.27
346.50	1783.78
346.71	1781.73
346.92	1767.40
347.13	1757.16
347.34	1730.53
347.55	1632.23
347.76	1724.39
347.98	1615.85
348.19	1755.11
348.40	1751.01
348.61	1689.57
348.82	1789.92
349.03	1722.34
349.24	1673.19
349.45	1814.50
349.66	1578.98
349.88	1730.53
350.09	1708.01
350.30	1783.78
350.51	1753.06
350.72	1642.47
350.93	1689.57
351.14	1746.92
351.35	1748.97
351.56	1712.10
351.77	1714.15
351.99	1748.97
352.20	1746.92
352.41	1734.63
352.62	1542.12
352.83	1681.38
353.04	1695.72
353.25	1718.25
353.46	1751.01
353.67	1714.15
353.88	1599.46
354.09	1755.11
354.30	1705.96
354.52	1705.96
354.73	1738.73
354.94	1683.43
355.15	1681.38
355.36	1753.06
355.57	1673.19
355.78	1669.09
355.99	1654.76
356.20	1708.01
356.41	1746.92
356.62	1677.29
356.83	1708.01
357.04	1779.68
357.25	1583.08
357.46	1728.49
357.68	1595.37
357.89	1648.61
358.10	1714.15
358.31	1683.43
358.52	1685.48
358.73	1718.25
358.94	1650.66
359.15	1640.42
359.36	1742.82
359.57	1685.48
359.78	1687.53
359.99	1720.29
360.20	1642.47
360.41	1730.53
360.62	1771.49
360.83	1712.10
361.04	1720.29
361.25	1759.21
361.46	1787.88
361.67	1708.01
361.88	1771.49
362.09	1710.05
362.30	1681.38
362.51	1681.38
362.72	1699.81
362.93	1761.25
363.14	1714.15
363.35	1757.16
363.56	1656.81
363.78	1761.25
363.99	1687.53
364.20	1640.42
364.41	1679.33
364.62	1740.77
364.83	1722.34
365.04	1671.14
365.25	1660.90
365.46	1863.65
365.67	1619.94
365.88	1669.09
366.09	1683.43
366.30	1669.09
366.51	1726.44
366.72	1640.42
366.93	1722.34
367.14	1675.24
367.35	1777.64
367.56	1683.43
367.77	1777.64
367.98	1677.29
368.18	1730.53
368.39	1669.09
368.60	1665.00
368.81	1767.40
369.02	1734.63
369.23	1685.48
369.44	1609.70
369.65	1697.77
369.86	1634.28
370.07	1748.97
370.28	1654.76
370.49	1652.71
370.70	1714.15
370.91	1636.33
371.12	1650.66
371.33	1746.92
371.54	1662.95
371.75	1855.46
371.96	1646.57
372.17	1658.85
372.38	1755.11
372.59	1734.63
372.80	1685.48
373.01	1761.25
373.22	1701.86
373.43	1759.21
373.64	1665.00
373.85	1679.33
374.06	1722.34
374.26	1783.78
374.47	1738.73
374.68	1767.40
374.89	1703.91
375.10	1726.44
375.31	1732.58
375.52	1687.53
375.73	1720.29
375.94	1613.80
376.15	1794.02
376.36	1599.46
376.57	1656.81
376.78	1656.81
376.99	1656.81
377.20	1757.16
377.40	1662.95
377.61	1859.56
377.82	1679.33
378.03	1771.49
378.24	1724.39
378.45	1718.25
378.66	1673.19
378.87	1644.52
379.08	1611.75
379.29	1644.52
379.50	1794.02
379.71	1689.57
379.91	1716.20
380.12	1748.97
380.33	1665.00
380.54	1636.33
380.75	1724.39
380.96	1701.86
381.17	1775.59
381.38	1767.40
381.59	1689.57
381.80	1712.10
382.00	1886.18
382.21	1759.21
382.42	1890.28
382.63	1945.57
382.84	1714.15
383.05	1849.32
383.26	1812.45
383.47	1673.19
383.68	1751.01
383.88	1712.10
384.09	1712.10
384.30	1787.88
384.51	1808.36
384.72	1650.66
384.93	1695.72
385.14	1708.01
385.35	1755.11
385.55	1609.70
385.76	1722.34
385.97	1755.11
386.18	1681.38
386.39	1658.85
386.60	1697.77
386.81	1671.14
387.02	1642.47
387.22	1660.90
387.43	1837.03
387.64	1796.07
387.85	1806.31
388.06	2250.72
388.27	4331.45
388.48	6766.49
388.68	8376.19
388.89	9715.56
389.10	9881.45
389.31	8638.33
389.52	7739.27
389.73	6760.34
389.93	6231.97
390.14	5916.58
390.35	5248.94
390.56	4652.98
390.77	3768.26
390.98	3100.62
391.18	2557.91
391.39	2123.74
391.60	1845.22
391.81	1830.88
392.02	1683.43
392.23	1812.45
392.43	1683.43
392.64	1753.06
392.85	1673.19
393.06	1751.01
393.27	1779.68
393.47	1681.38
393.68	1675.24
393.89	1705.96
394.10	1714.15
394.31	1714.15
394.52	1636.33
394.72	1697.77
394.93	1787.88
395.14	1636.33
395.35	1693.67
395.56	1671.14
395.76	1783.78
395.97	1771.49
396.18	1789.92
396.39	1869.80
396.60	2029.54
396.80	1941.47
397.01	1845.22
397.22	1920.99
397.43	1902.56
397.64	1673.19
397.84	1691.62
398.05	1824.74
398.26	1726.44
398.47	1820.64
398.67	1771.49
398.88	1675.24
399.09	1763.30
399.30	1665.00
399.51	1697.77
399.71	1675.24
399.92	1761.25
400.13	1740.77
400.34	1755.11
400.54	1605.61
400.75	1730.53
400.96	1693.67
401.17	1765.35
401.37	1785.83
401.58	1705.96
401.79	1724.39
402.00	1892.32
402.21	2050.02
402.41	2013.15
402.62	1927.14
402.83	1994.72
403.04	2025.44
403.24	2025.44
403.45	1847.27
403.66	1904.61
403.87	1812.45
404.07	1845.22
404.28	1908.71
404.49	1871.84
404.70	1734.63
404.90	1806.31
405.11	1703.91
405.32	1751.01
405.52	1757.16
405.73	1673.19
405.94	1646.57
406.15	1794.02
406.35	1755.11
406.56	1771.49
406.77	1724.39
406.98	1728.49
407.18	1679.33
407.39	1853.41
407.60	1693.67
407.80	1716.20
408.01	1699.81
408.22	1775.59
408.43	1681.38
408.63	1779.68
408.84	1714.15
409.05	1732.58
409.25	1662.95
409.46	1654.76
409.67	1695.72
409.88	1705.96
410.08	1748.97
410.29	1679.33
410.50	1771.49
410.70	1736.68
410.91	1689.57
411.12	1746.92
411.32	1650.66
411.53	1697.77
411.74	1837.03
411.95	1763.30
412.15	1794.02
412.36	1771.49
412.57	1759.21
412.77	1759.21
412.98	1775.59
413.19	1804.26
413.39	1677.29
413.60	1732.58
413.81	1791.97
414.01	1652.71
414.22	1765.35
414.43	1775.59
414.63	1671.14
414.84	1740.77
415.05	1720.29
415.25	1652.71
415.46	1736.68
415.67	1675.24
415.87	1654.76
416.08	1714.15
416.29	1650.66
416.49	1734.63
416.70	1665.00
416.91	1708.01
417.11	1705.96
417.32	1761.25
417.53	1759.21
417.73	1783.78
417.94	1669.09
418.15	1794.02
418.35	1718.25
418.56	1703.91
418.77	1894.37
418.97	1710.05
419.18	1683.43
419.38	1621.99
419.59	1771.49
419.80	1832.93
420.00	1609.70
420.21	1658.85
420.42	1824.74
420.62	1746.92
420.83	1683.43
421.04	1640.42
421.24	1679.33
421.45	1773.54
421.65	1765.35
421.86	1693.67
422.07	1665.00
422.27	1773.54
422.48	1675.24
422.69	1675.24
422.89	1654.76
423.10	1656.81
423.30	1662.95
423.51	1685.48
423.72	1765.35
423.92	1734.63
424.13	1650.66
424.33	1712.10
424.54	1746.92
424.75	1699.81
424.95	1681.38
425.16	1751.01
425.36	1636.33
425.57	1693.67
425.78	1734.63
425.98	1853.41
426.19	1746.92
426.39	1636.33
426.60	1742.82
426.81	1748.97
427.01	1726.44
427.22	1732.58
427.42	1624.04
427.63	1615.85
427.83	1699.81
428.04	1869.80
428.25	1738.73
428.45	1718.25
428.66	1738.73
428.86	1746.92
429.07	1681.38
429.28	1734.63
429.48	1675.24
429.69	1660.90
429.89	1697.77
430.10	1665.00
430.30	1720.29
430.51	1746.92
430.71	1673.19
430.92	1714.15
431.13	1662.95
431.33	1746.92
431.54	1705.96
431.74	1806.31
431.95	1884.13
432.15	1677.29
432.36	1773.54
432.56	1771.49
432.77	1736.68
432.98	1837.03
433.18	1755.11
433.39	1665.00
433.59	1714.15
433.80	1812.45
434.00	1875.94
434.21	1689.57
434.41	1675.24
434.62	1853.41
434.82	1677.29
435.03	1634.28
435.23	1701.86
435.44	1601.51
435.64	1730.53
435.85	1806.31
436.06	1759.21
436.26	1791.97
436.47	1728.49
436.67	1708.01
436.88	1677.29
437.08	1742.82
437.29	1783.78
437.49	1705.96
437.70	1712.10
437.90	1671.14
438.11	1865.70
438.31	1703.91
438.52	1791.97
438.72	1822.69
438.93	1914.85
439.13	1810.40
439.34	1728.49
439.54	1710.05
439.75	1800.16
439.95	1744.87
440.16	1753.06
440.36	1755.11
440.57	1779.68
440.77	1761.25
440.98	1712.10
441.18	1740.77
441.39	1691.62
441.59	1675.24
441.80	1798.12
442.00	1679.33
442.21	1859.56
442.41	1615.85
442.62	1779.68
442.82	1648.61
443.02	1648.61
443.23	1734.63
443.43	1679.33
443.64	1853.41
443.84	1621.99
444.05	1787.88
444.25	1791.97
444.46	1710.05
444.66	1695.72
444.87	1855.46
445.07	1636.33
445.28	1759.21
445.48	1779.68
445.69	1783.78
445.89	1855.46
446.09	1708.01
446.30	1994.72
446.50	2762.71
446.71	3684.30
446.91	4429.76
447.12	4710.33
447.32	4777.91
447.53	4427.71
447.73	3880.90
447.93	3645.38
448.14	3327.95
448.34	3241.93
448.55	2928.60
448.75	2850.77
448.96	2664.41
449.16	2404.32
449.36	2330.59
449.57	2015.20
449.77	1857.51
449.98	1873.89
450.18	1751.01
450.39	1863.65
450.59	1806.31
450.79	1691.62
451.00	1720.29
451.20	1791.97
451.41	1691.62
451.61	1859.56
451.81	1757.16
452.02	1626.09
452.22	1763.30
452.43	1703.91
452.63	1714.15
452.84	1820.64
453.04	1685.48
453.24	1730.53
453.45	1632.23
453.65	1714.15
453.86	1763.30
454.06	1791.97
454.26	1673.19
454.47	1695.72
454.67	1759.21
454.87	1746.92
455.08	1701.86
455.28	1796.07
455.49	1773.54
455.69	1693.67
455.89	1861.60
456.10	1804.26
456.30	1718.25
456.51	1742.82
456.71	1703.91
456.91	1773.54
457.12	1724.39
457.32	1738.73
457.52	1767.40
457.73	1769.44
457.93	1796.07
458.14	1648.61
458.34	1595.37
458.54	1728.49
458.75	1648.61
458.95	1824.74
459.15	1699.81
459.36	1853.41
459.56	1800.16
459.76	1841.12
459.97	1728.49
460.17	1730.53
460.37	1773.54
460.58	1775.59
460.78	1746.92
460.99	1648.61
461.19	1751.01
461.39	1722.34
461.60	1720.29
461.80	1748.97
462.00	1615.85
462.21	1767.40
462.41	1689.57
462.61	1640.42
462.82	1665.00
463.02	1843.17
463.22	1689.57
463.43	1751.01
463.63	1730.53
463.83	1814.50
464.04	1779.68
464.24	1824.74
464.44	1710.05
464.64	1673.19
464.85	1783.78
465.05	1710.05
465.25	1732.58
465.46	1656.81
465.66	1851.36
465.86	1808.36
466.07	1761.25
466.27	1718.25
466.47	1660.90
466.68	1681.38
466.88	1834.98
467.08	1730.53
467.29	1761.25
467.49	1722.34
467.69	1740.77
467.89	1800.16
468.10	1718.25
468.30	1691.62
468.50	1714.15
468.71	1671.14
468.91	1650.66
469.11	1703.91
469.31	1673.19
469.52	1667.05
469.72	1837.03
469.92	1898.47
470.13	1656.81
470.33	1746.92
470.53	1869.80
470.73	2117.60
470.94	2265.05
471.14	2344.92
471.34	2541.53
471.54	2392.03
471.75	2209.76
471.95	2099.17
472.15	2019.30
472.36	2060.26
472.56	2140.13
472.76	2021.35
472.96	2023.39
473.17	1966.05
473.37	1914.85
473.57	1787.88
473.77	1851.36
473.98	1773.54
474.18	1656.81
474.38	1822.69
474.58	1695.72
474.79	1710.05
474.99	1746.92
475.19	1724.39
475.39	1724.39
475.60	1726.44
475.80	1689.57
476.00	1736.68
476.20	1697.77
476.41	1748.97
476.61	1816.55
476.81	1763.30
477.01	1726.44
477.21	1834.98
477.42	1775.59
477.62	1650.66
477.82	1751.01
478.02	1689.57
478.23	1685.48
478.43	1642.47
478.63	1714.15
478.83	1656.81
479.03	1679.33
479.24	1769.44
479.44	1822.69
479.64	1691.62
479.84	1599.46
480.04	1665.00
480.25	1732.58
480.45	1667.05
480.65	1724.39
480.85	1763.30
481.06	1648.61
481.26	1722.34
481.46	1751.01
481.66	1781.73
481.86	1703.91
482.06	1767.40
482.27	1740.77
482.47	1728.49
482.67	1710.05
482.87	1667.05
483.07	1767.40
483.28	1736.68
483.48	1624.04
483.68	1697.77
483.88	1646.57
484.08	1615.85
484.29	1665.00
484.49	1736.68
484.69	1658.85
484.89	1804.26
485.09	1777.64
485.29	1757.16
485.50	1685.48
485.70	1693.67
485.90	1761.25
486.10	1746.92
486.30	1724.39
486.50	1720.29
486.71	1736.68
486.91	1834.98
487.11	1804.26
487.31	1656.81
487.51	1753.06
487.71	1667.05
487.91	1673.19
488.12	1671.14
488.32	1583.08
488.52	1751.01
488.72	1683.43
488.92	1751.01
489.12	1798.12
489.32	1791.97
489.53	1791.97
489.73	1593.32
489.93	1791.97
490.13	1736.68
490.33	1648.61
490.53	1697.77
490.73	1837.03
490.94	1642.47
491.14	1789.92
491.34	1771.49
491.54	2107.36
491.74	2574.30
491.94	2846.68
492.14	2983.89
492.34	3094.48
492.54	2910.16
492.75	2496.47
492.95	2480.09
493.15	2267.10
493.35	2258.91
493.55	2242.53
493.75	2080.74
493.95	2140.13
494.15	2017.25
494.35	1945.57
494.56	1933.28
494.76	1751.01
494.96	1806.31
495.16	1751.01
495.36	1714.15
495.56	1779.68
495.76	1687.53
495.96	1695.72
496.16	1677.29
496.36	1818.60
496.56	1765.35
496.77	1724.39
496.97	1718.25
497.17	1757.16
497.37	1634.28
497.57	1767.40
497.77	1746.92
497.97	1716.20
498.17	1701.86
498.37	1705.96
498.57	1771.49
498.77	1738.73
498.97	1773.54
499.17	1912.80
499.38	1660.90
499.58	1736.68
499.78	1740.77
499.98	1806.31
500.18	1703.91
500.38	1740.77
500.58	1951.71
500.78	2496.47
500.98	4575.16
501.18	5785.51
501.38	6946.71
501.58	7120.79
501.78	6807.45
501.98	5691.31
502.18	5101.49
502.38	4513.72
502.58	4210.62
502.78	3831.75
502.98	3725.26
503.18	3461.07
503.38	3172.30
503.59	2768.85
503.79	2682.84
503.99	2543.58
504.19	2318.30
504.39	2213.85
504.59	2138.08
504.79	2119.65
504.99	1980.39
505.19	1927.14
505.39	1845.22
505.59	1933.28
505.79	1884.13
505.99	1843.17
506.19	1771.49
506.39	1896.42
506.59	1746.92
506.79	1773.54
506.99	1810.40
507.19	1804.26
507.39	1751.01
507.59	1726.44
507.79	1669.09
507.99	1708.01
508.19	1765.35
508.39	1656.81
508.59	1701.86
508.79	1830.88
508.99	1808.36
509.19	1708.01
509.39	1781.73
509.59	1732.58
509.79	1701.86
509.99	1781.73
510.19	1755.11
510.39	1732.58
510.59	1787.88
510.79	1701.86
510.99	1685.48
511.19	1783.78
511.39	1818.60
511.59	1859.56
511.79	1765.35
511.99	1798.12
512.19	1818.60
512.38	1740.77
512.58	1742.82
512.78	1732.58
512.98	1783.78
513.18	1798.12
513.38	1681.38
513.58	1728.49
513.78	1726.44
513.98	1761.25
514.18	1751.01
514.38	1751.01
514.58	1718.25
514.78	1726.44
514.98	1724.39
515.18	1697.77
515.38	1656.81
515.58	1800.16
515.78	1644.52
515.98	1748.97
516.18	1773.54
516.38	1720.29
516.57	1714.15
516.77	1644.52
516.97	1812.45
517.17	1681.38
517.37	1599.46
517.57	1828.84
517.77	1708.01
517.97	1722.34
518.17	1703.91
518.37	1669.09
518.57	1660.90
518.77	1738.73
518.97	1757.16
519.16	1642.47
519.36	1777.64
519.56	1777.64
519.76	1708.01
519.96	1675.24
520.16	1892.32
520.36	1683.43
520.56	1755.11
520.76	1683.43
520.96	1626.09
521.16	1779.68
521.35	1802.21
521.55	1890.28
521.75	1726.44
521.95	1675.24
522.15	1718.25
522.35	1660.90
522.55	1677.29
522.75	1820.64
522.95	1708.01
523.14	1699.81
523.34	1787.88
523.54	1673.19
523.74	1769.44
523.94	1769.44
524.14	1572.84
524.34	1814.50
524.54	1736.68
524.73	1650.66
524.93	1728.49
525.13	1714.15
525.33	1652.71
525.53	1843.17
525.73	1800.16
525.93	1701.86
526.13	1730.53
526.32	1787.88
526.52	1884.13
526.72	1761.25
526.92	1734.63
527.12	1667.05
527.32	1665.00
527.52	1724.39
527.71	1720.29
527.91	1736.68
528.11	1687.53
528.31	1755.11
528.51	1665.00
528.71	1720.29
528.90	1726.44
529.10	1773.54
529.30	1832.93
529.50	1591.27
529.70	1763.30
529.90	1705.96
530.09	1705.96
530.29	1660.90
530.49	1685.48
530.69	1816.55
530.89	1652.71
531.09	1755.11
531.28	1730.53
531.48	1847.27
531.68	1775.59
531.88	1781.73
532.08	1824.74
532.28	1728.49
532.47	1720.29
532.67	1830.88
532.87	1773.54
533.07	1769.44
533.27	1828.84
533.46	1834.98
533.66	1673.19
533.86	1748.97
534.06	1669.09
534.26	1705.96
534.45	1796.07
534.65	1742.82
534.85	1744.87
535.05	1632.23
535.25	1738.73
535.44	1716.20
535.64	1736.68
535.84	1759.21
536.04	1738.73
536.24	1734.63
536.43	1644.52
536.63	1757.16
536.83	1689.57
537.03	1748.97
537.22	1726.44
537.42	1652.71
537.62	1718.25
537.82	1638.38
538.02	1789.92
538.21	1771.49
538.41	1908.71
538.61	1742.82
538.81	1673.19
539.00	1734.63
539.20	1695.72
539.40	1718.25
539.60	1699.81
539.79	1728.49
539.99	1726.44
540.19	1726.44
540.39	1710.05
540.58	1748.97
540.78	1800.16
540.98	1685.48
541.18	1736.68
541.37	1757.16
541.57	1744.87
541.77	1800.16
541.97	1644.52
542.16	1556.46
542.36	1687.53
542.56	1708.01
542.76	1847.27
542.95	1783.78
543.15	1789.92
543.35	1775.59
543.54	1671.14
543.74	1695.72
543.94	1744.87
544.14	1677.29
544.33	1740.77
544.53	1718.25
544.73	1753.06
544.93	1718.25
545.12	1728.49
545.32	1710.05
545.52	1716.20
545.71	1691.62
545.91	1736.68
546.11	1714.15
546.30	1722.34
546.50	1716.20
546.70	1789.92
546.90	1736.68
547.09	1679.33
547.29	1726.44
547.49	1773.54
547.68	1642.47
547.88	1710.05
548.08	1826.79
548.27	2115.55
548.47	1628.14
548.67	1714.15
548.87	1794.02
549.06	1744.87
549.26	1714.15
549.46	1703.91
549.65	1714.15
549.85	1800.16
550.05	1789.92
550.24	1673.19
550.44	1712.10
550.64	1703.91
550.83	1714.15
551.03	1826.79
551.23	1761.25
551.42	1787.88
551.62	1765.35
551.82	1677.29
552.01	1775.59
552.21	1810.40
552.41	1746.92
552.60	1814.50
552.80	1800.16
553.00	1658.85
553.19	1771.49
553.39	1822.69
553.59	1642.47
553.78	1802.21
553.98	1796.07
554.17	1593.32
554.37	1681.38
554.57	1761.25
554.76	1724.39
554.96	1738.73
555.16	1687.53
555.35	1732.58
555.55	1763.30
555.75	1685.48
555.94	1771.49
556.14	1568.74
556.33	1759.21
556.53	1755.11
556.73	1742.82
556.92	1759.21
557.12	1818.60
557.32	1851.36
557.51	1761.25
557.71	1820.64
557.90	1832.93
558.10	1763.30
558.30	1730.53
558.49	1716.20
558.69	1753.06
558.88	1851.36
559.08	1691.62
559.28	1757.16
559.47	1667.05
559.67	1851.36
559.86	1859.56
560.06	1732.58
560.26	1689.57
560.45	1759.21
560.65	1650.66
560.84	1812.45
561.04	1660.90
561.24	1763.30
561.43	1697.77
561.63	1791.97
561.82	1837.03
562.02	1785.83
562.22	1708.01
562.41	1607.66
562.61	1699.81
562.80	1699.81
563.00	1906.66
563.19	1726.44
563.39	1759.21
563.59	1789.92
563.78	1654.76
563.98	1640.42
564.17	1632.23
564.37	1669.09
564.56	1757.16
564.76	1632.23
564.96	1806.31
565.15	1722.34
565.35	1839.08
565.54	1716.20
565.74	1738.73
565.93	1777.64
566.13	1785.83
566.32	1763.30
566.52	1763.30
566.71	1738.73
566.91	1785.83
567.11	1791.97
567.30	1751.01
567.50	1767.40
567.69	1818.60
567.89	1791.97
568.08	1640.42
568.28	1744.87
568.47	1720.29
568.67	1673.19
568.86	1716.20
569.06	1767.40
569.25	1744.87
569.45	1640.42
569.64	1724.39
569.84	1693.67
570.04	1783.78
570.23	1714.15
570.43	1705.96
570.62	1699.81
570.82	1789.92
571.01	1685.48
571.21	1740.77
571.40	1705.96
571.60	1759.21
571.79	1802.21
571.99	1798.12
572.18	1675.24
572.38	1783.78
572.57	1675.24
572.77	1751.01
572.96	1920.99
573.16	1722.34
573.35	1718.25
573.55	1781.73
573.74	1744.87
573.94	1716.20
574.13	1685.48
574.33	1697.77
574.52	1869.80
574.71	1716.20
574.91	1728.49
575.10	1701.86
575.30	1738.73
575.49	1619.94
575.69	1769.44
575.88	1777.64
576.08	1724.39
576.27	1851.36
576.47	1701.86
576.66	1814.50
576.86	1740.77
577.05	1796.07
577.25	1834.98
577.44	1892.32
577.64	1705.96
577.83	1767.40
578.02	1746.92
578.22	1787.88
578.41	1830.88
578.61	1789.92
578.80	1667.05
579.00	1753.06
579.19	1791.97
579.39	1779.68
579.58	1855.46
579.77	1810.40
579.97	1839.08
580.16	1777.64
580.36	1902.56
580.55	1714.15
580.75	1759.21
580.94	1771.49
581.13	1832.93
581.33	1849.32
581.52	1736.68
581.72	1892.32
581.91	1853.41
582.11	1753.06
582.30	1767.40
582.49	1734.63
582.69	1791.97
582.88	1734.63
583.08	1765.35
583.27	1789.92
583.47	1742.82
583.66	1748.97
583.85	1681.38
584.05	1771.49
584.24	1722.34
584.44	1832.93
584.63	1779.68
584.82	1830.88
585.02	1767.40
585.21	1839.08
585.41	1748.97
585.60	1869.80
585.79	1886.18
585.99	1892.32
586.18	1902.56
586.37	2150.37
586.57	3459.02
586.76	10020.71
586.96	24798.85
587.15	35149.29
587.34	41395.59
587.54	43220.33
587.73	37354.95
587.93	26891.88
588.12	21974.70
588.31	18771.68
588.51	16752.38
588.70	15607.57
588.89	14563.11
589.09	12871.48
589.28	11114.33
589.47	9627.50
589.67	7901.06
589.86	6449.05
590.06	5003.19
590.25	3885.00
590.44	3135.44
590.64	2590.68
590.83	2312.16
591.02	2105.31
591.22	1972.19
591.41	1912.80
591.60	1832.93
591.80	1849.32
591.99	1746.92
592.18	1740.77
592.38	1763.30
592.57	1746.92
592.76	1759.21
592.96	1804.26
593.15	1742.82
593.34	1802.21
593.54	1771.49
593.73	1753.06
593.92	1738.73
594.12	1755.11
594.31	1779.68
594.50	1800.16
594.70	1830.88
594.89	1884.13
595.08	1644.52
595.28	1742.82
595.47	1904.61
595.66	1732.58
595.86	1730.53
596.05	1834.98
596.24	1726.44
596.43	1816.55
596.63	1763.30
596.82	1722.34
597.01	1652.71
597.21	1777.64
597.40	1753.06
597.59	1787.88
597.79	1724.39
597.98	1798.12
598.17	1787.88
598.36	1775.59
598.56	1697.77
598.75	1757.16
598.94	1824.74
599.14	1701.86
599.33	1695.72
599.52	1787.88
599.71	1714.15
599.91	1779.68
600.10	1751.01
600.29	1740.77
600.48	1763.30
600.68	1800.16
600.87	1820.64
601.06	1654.76
601.26	1691.62
601.45	1773.54
601.64	1720.29
601.83	1869.80
602.03	1679.33
602.22	1740.77
602.41	1697.77
602.60	1845.22
602.80	1746.92
602.99	1759.21
603.18	1773.54
603.37	1851.36
603.57	1716.20
603.76	1753.06
603.95	1785.83
604.14	1724.39
604.34	1722.34
604.53	1718.25
604.72	1714.15
604.91	1783.78
605.10	1779.68
605.30	1652.71
605.49	1828.84
605.68	1742.82
605.87	1691.62
606.07	1722.34
606.26	1673.19
606.45	1783.78
606.64	1779.68
606.84	1699.81
607.03	1685.48
607.22	1722.34
607.41	1685.48
607.60	1759.21
607.80	1753.06
607.99	1656.81
608.18	1839.08
608.37	1759.21
608.56	1660.90
608.76	1761.25
608.95	1796.07
609.14	1837.03
609.33	1720.29
609.52	1796.07
609.72	1740.77
609.91	1804.26
610.10	1701.86
610.29	1802.21
610.48	1748.97
610.68	1718.25
610.87	1755.11
611.06	1785.83
611.25	1730.53
611.44	1824.74
611.63	1718.25
611.83	1796.07
612.02	1673.19
612.21	1869.80
612.40	1581.03
612.59	1718.25
612.79	1710.05
612.98	1728.49
613.17	1771.49
613.36	1687.53
613.55	1787.88
613.74	1689.57
613.93	1705.96
614.13	1675.24
614.32	1744.87
614.51	1751.01
614.70	1687.53
614.89	1771.49
615.08	1738.73
615.28	2076.64
615.47	1634.28
615.66	1697.77
615.85	1685.48
616.04	1855.46
616.23	1759.21
616.42	1720.29
616.62	1701.86
616.81	1814.50
617.00	1732.58
617.19	1841.12
617.38	1703.91
617.57	1763.30
617.76	1724.39
617.95	1781.73
618.15	1773.54
618.34	1777.64
618.53	1650.66
618.72	1771.49
618.91	1845.22
619.10	1814.50
619.29	1673.19
619.48	1712.10
619.68	1730.53
619.87	1730.53
620.06	1607.66
620.25	1742.82
620.44	1636.33
620.63	1744.87
620.82	1736.68
621.01	1699.81
621.20	1697.77
621.39	1681.38
621.59	1789.92
621.78	1722.34
621.97	1726.44
622.16	1779.68
622.35	1617.90
622.54	1691.62
622.73	1730.53
622.92	1685.48
623.11	1798.12
623.30	1685.48
623.49	1744.87
623.68	1701.86
623.88	1761.25
624.07	1656.81
624.26	1701.86
624.45	1757.16
624.64	1685.48
624.83	1744.87
625.02	1658.85
625.21	1765.35
625.40	1734.63
625.59	1775.59
625.78	1722.34
625.97	1812.45
626.16	1794.02
626.35	1730.53
626.54	1734.63
626.74	1814.50
626.93	1734.63
627.12	1701.86
627.31	1767.40
627.50	1773.54
627.69	1769.44
627.88	1660.90
628.07	1687.53
628.26	1624.04
628.45	1611.75
628.64	1669.09
628.83	1710.05
629.02	1732.58
629.21	1716.20
629.40	1759.21
629.59	1640.42
629.78	1662.95
629.97	1740.77
630.16	1697.77
630.35	1718.25
630.54	1603.56
630.73	1712.10
630.92	1775.59
631.11	1751.01
631.30	1769.44
631.49	1773.54
631.68	1665.00
631.87	1746.92
632.06	1662.95
632.25	1765.35
632.44	1703.91
632.63	1796.07
632.82	1642.47
633.01	1632.23
633.20	1687.53
633.39	1714.15
633.58	1640.42
633.77	1722.34
633.96	1728.49
634.15	1701.86
634.34	1742.82
634.53	1783.78
634.72	1705.96
634.91	1583.08
635.10	1718.25
635.29	1732.58
635.48	1755.11
635.67	1732.58
635.86	1615.85
636.05	1781.73
636.24	1658.85
636.43	1736.68
636.62	1740.77
636.81	1589.22
637.00	1730.53
637.19	1753.06
637.38	1703.91
637.57	1712.10
637.76	1748.97
637.95	1697.77
638.14	1644.52
638.33	1656.81
638.52	1744.87
638.71	1730.53
638.89	1708.01
639.08	1843.17
639.27	1763.30
639.46	1669.09
639.65	1863.65
639.84	1683.43
640.03	1748.97
640.22	1695.72
640.41	1822.69
640.60	1730.53
640.79	1751.01
640.98	1697.77
641.17	1771.49
641.36	1732.58
641.55	1744.87
641.74	1652.71
641.92	1609.70
642.11	1701.86
642.30	1687.53
642.49	1656.81
642.68	1722.34
642.87	1710.05
643.06	1738.73
643.25	1660.90
643.44	1646.57
643.63	1769.44
643.82	1744.87
644.00	1626.09
644.19	1746.92
644.38	1656.81
644.57	1751.01
644.76	1671.14
644.95	1714.15
645.14	1710.05
645.33	1656.81
645.52	1693.67
645.71	1710.05
645.89	1538.02
646.08	1728.49
646.27	1751.01
646.46	1824.74
646.65	1632.23
646.84	1738.73
647.03	1693.67
647.22	1763.30
647.40	1730.53
647.59	1728.49
647.78	1654.76
647.97	1697.77
648.16	1660.90
648.35	1779.68
648.54	1800.16
648.73	1703.91
648.91	1849.32
649.10	1665.00
649.29	1671.14
649.48	1638.38
649.67	1722.34
649.86	1722.34
650.05	1710.05
650.23	1751.01
650.42	1626.09
650.61	1699.81
650.80	1724.39
650.99	1826.79
651.18	1701.86
651.36	1716.20
651.55	1722.34
651.74	1703.91
651.93	1638.38
652.12	1726.44
652.31	1773.54
652.49	1744.87
652.68	1662.95
652.87	1757.16
653.06	1744.87
653.25	1771.49
653.44	1720.29
653.62	1767.40
653.81	1685.48
654.00	1710.05
654.19	1701.86
654.38	1837.03
654.56	1703.91
654.75	1660.90
654.94	1796.07
655.13	1730.53
655.32	1681.38
655.51	1781.73
655.69	1630.18
655.88	1730.53
656.07	1656.81
656.26	1783.78
656.45	1601.51
656.63	1753.06
656.82	1740.77
657.01	1804.26
657.20	1654.76
657.38	1699.81
657.57	1677.29
657.76	1632.23
657.95	1736.68
658.14	1708.01
658.32	1738.73
658.51	1681.38
658.70	1716.20
658.89	1724.39
659.08	1695.72
659.26	1818.60
659.45	1583.08
659.64	1738.73
659.83	1646.57
660.01	1894.37
660.20	1691.62
660.39	1794.02
660.58	1634.28
660.76	1814.50
660.95	1636.33
661.14	1673.19
661.33	1621.99
661.51	1730.53
661.70	1705.96
661.89	1753.06
662.08	1720.29
662.26	1662.95
662.45	1673.19
662.64	1859.56
662.83	1734.63
663.01	1697.77
663.20	1701.86
663.39	1763.30
663.58	1701.86
663.76	1714.15
663.95	1689.57
664.14	1689.57
664.32	1755.11
664.51	1632.23
664.70	1705.96
664.89	1701.86
665.07	1636.33
665.26	1773.54
665.45	1665.00
665.64	1710.05
665.82	1695.72
666.01	1773.54
666.20	1613.80
666.38	1736.68
666.57	1857.51
666.76	2263.01
666.95	4642.75
667.13	10714.97
667.32	15478.55
667.51	18237.16
667.69	19209.95
667.88	17862.38
668.07	12635.97
668.25	9779.05
668.44	8191.88
668.63	7491.47
668.81	6809.50
669.00	6301.60
669.19	5734.31
669.38	5246.90
669.56	4566.97
669.75	3985.35
669.94	3358.67
670.12	2875.35
670.31	2578.39
670.50	2312.16
670.68	1984.48
670.87	1902.56
671.06	1765.35
671.24	1759.21
671.43	1810.40
671.62	1722.34
671.80	1720.29
671.99	1767.40
672.18	1722.34
672.36	1763.30
672.55	1722.34
672.74	1767.40
672.92	1691.62
673.11	1765.35
673.29	1662.95
673.48	1740.77
673.67	1712.10
673.85	1783.78
674.04	1642.47
674.23	1681.38
674.41	1802.21
674.60	1605.61
674.79	1654.76
674.97	1699.81
675.16	1783.78
675.34	1781.73
675.53	1648.61
675.72	1781.73
675.90	1822.69
676.09	1777.64
676.28	1820.64
676.46	1681.38
676.65	1685.48
676.83	1738.73
677.02	1679.33
677.21	1726.44
677.39	1751.01
677.58	1662.95
677.77	1730.53
677.95	1748.97
678.14	1734.63
678.32	1699.81
678.51	1695.72
678.70	1812.45
678.88	1646.57
679.07	1687.53
679.25	1759.21
679.44	1714.15
679.63	1699.81
679.81	1712.10
680.00	1730.53
680.18	1744.87
680.37	1728.49
680.55	1712.10
680.74	1562.60
680.93	1603.56
681.11	1746.92
681.30	1656.81
681.48	1724.39
681.67	1665.00
681.85	1693.67
682.04	1683.43
682.23	1763.30
682.41	1738.73
682.60	1738.73
682.78	1705.96
682.97	1708.01
683.15	1667.05
683.34	1718.25
683.53	1683.43
683.71	1621.99
683.90	1830.88
684.08	1804.26
684.27	1724.39
684.45	1726.44
684.64	1800.16
684.82	1705.96
685.01	1689.57
685.19	1714.15
685.38	1841.12
685.57	1775.59
685.75	1771.49
685.94	1691.62
686.12	1640.42
686.31	1751.01
686.49	1834.98
686.68	1685.48
686.86	1724.39
687.05	1738.73
687.23	1845.22
687.42	1675.24
687.60	1648.61
687.79	1755.11
687.97	1783.78
688.16	1683.43
688.34	1806.31
688.53	1595.37
688.71	1773.54
688.90	1761.25
689.08	1619.94
689.27	1675.24
689.45	1748.97
689.64	1771.49
689.82	1697.77
690.01	1763.30
690.19	1734.63
690.38	1746.92
690.56	1755.11
690.75	1583.08
690.93	1738.73
691.12	1654.76
691.30	1710.05
691.49	1595.37
691.67	1771.49
691.86	1828.84
692.04	1679.33
692.23	1572.84
692.41	1742.82
692.60	1855.46
692.78	1726.44
692.97	1693.67
693.15	1710.05
693.34	1796.07
693.52	1708.01
693.71	1681.38
693.89	1669.09
694.08	1513.45
694.26	1677.29
694.44	1822.69
694.63	1660.90
694.81	1675.24
695.00	1732.58
695.18	1738.73
695.37	1791.97
695.55	1781.73
695.74	1617.90
695.92	1669.09
696.10	1746.92
696.29	1630.18
696.47	1660.90
696.66	1597.42
696.84	1667.05
697.03	1726.44
697.21	1763.30
697.40	2320.35
697.58	1804.26
697.76	1679.33
697.95	1716.20
698.13	1615.85
698.32	1685.48
698.50	1773.54
698.68	1716.20
698.87	1744.87
699.05	1714.15
699.24	1681.38
699.42	1609.70
699.61	1697.77
699.79	1693.67
699.97	1761.25
700.16	1550.31
700.34	1630.18
700.53	1669.09
700.71	1804.26
700.89	1712.10
701.08	1685.48
701.26	1712.10
701.45	2068.45
701.63	1705.96
701.81	1636.33
702.00	1646.57
702.18	1724.39
702.37	1626.09
702.55	1748.97
702.73	1763.30
702.92	1634.28
703.10	1763.30
703.28	1701.86
703.47	1685.48
703.65	1769.44
703.84	1757.16
704.02	1609.70
704.20	1759.21
704.39	1662.95
704.57	1710.05
704.75	1796.07
704.94	1689.57
705.12	1751.01
705.30	1806.31
705.49	2256.86
705.67	4419.52
705.86	9555.82
706.04	12824.38
706.22	14776.09
706.41	15603.47
706.59	14036.78
706.77	9654.12
706.96	7565.20
707.14	6735.77
707.32	6057.89
707.51	5740.46
707.69	4995.00
707.87	4358.08
708.06	3536.84
708.24	3041.23
708.42	2396.12
708.61	2207.71
708.79	1912.80
708.97	1877.99
709.16	1851.36
709.34	1808.36
709.52	1695.72
709.71	1744.87
709.89	1775.59
710.07	1765.35
710.26	1679.33
710.44	1783.78
710.62	1783.78
710.80	1708.01
710.99	1726.44
711.17	1716.20
711.35	1720.29
711.54	1722.34
711.72	1742.82
711.90	1798.12
712.09	1720.29
712.27	1630.18
712.45	1855.46
712.63	1658.85
712.82	1636.33
713.00	1636.33
713.18	1740.77
713.37	1685.48
713.55	1710.05
713.73	1746.92
713.91	1710.05
714.10	1736.68
714.28	1720.29
714.46	1755.11
714.65	1755.11
714.83	1710.05
715.01	1779.68
715.19	1757.16
715.38	1574.89
715.56	1658.85
715.74	1669.09
715.92	1630.18
716.11	1742.82
716.29	1603.56
716.47	1701.86
716.65	1722.34
716.84	1658.85
717.02	1720.29
717.20	1638.38
717.38	1712.10
717.57	1730.53
717.75	1648.61
717.93	1619.94
718.11	1746.92
718.30	1624.04
718.48	1681.38
718.66	1757.16
718.84	1808.36
719.03	1701.86
719.21	1621.99
719.39	1832.93
719.57	1779.68
719.75	1761.25
719.94	1683.43
720.12	1681.38
720.30	1757.16
720.48	1769.44
720.67	1691.62
720.85	1718.25
721.03	1720.29
721.21	1673.19
721.39	1763.30
721.58	1751.01
721.76	1648.61
721.94	1759.21
722.12	1697.77
722.30	1859.56
722.49	1689.57
722.67	1699.81
722.85	1779.68
723.03	1638.38
723.21	1701.86
723.40	1746.92
723.58	1714.15
723.76	1687.53
723.94	1757.16
724.12	1699.81
724.30	1748.97
724.49	1722.34
724.67	1640.42
724.85	1732.58
725.03	1619.94
725.21	1689.57
725.40	1744.87
725.58	1624.04
725.76	1824.74
725.94	1800.16
726.12	1624.04
726.30	1689.57
726.49	1607.66
726.67	1646.57
726.85	1667.05
727.03	1824.74
727.21	2113.50
727.39	2957.27
727.57	3737.54
727.76	4478.91
727.94	4489.15
728.12	4462.52
728.30	3647.43
728.48	3012.56
728.66	2713.56
728.84	2570.20
729.03	2322.40
729.21	2103.26
729.39	2035.68
729.57	1853.41
729.75	1771.49
729.93	1800.16
730.11	1722.34
730.30	1693.67
730.48	1751.01
730.66	1757.16
730.84	1748.97
731.02	1609.70
731.20	1642.47
731.38	1665.00
731.56	1638.38
731.74	1656.81
731.93	1708.01
732.11	1755.11
732.29	1662.95
732.47	1730.53
732.65	1746.92
732.83	1800.16
733.01	1691.62
733.19	1671.14
733.37	1800.16
733.56	1808.36
733.74	1611.75
733.92	1740.77
734.10	1644.52
734.28	1671.14
734.46	1642.47
734.64	1699.81
734.82	1724.39
735.00	1687.53
735.18	1679.33
735.36	1748.97
735.54	1687.53
735.73	1757.16
735.91	1724.39
736.09	1697.77
736.27	1689.57
736.45	1742.82
736.63	1656.81
736.81	1730.53
736.99	1771.49
737.17	1814.50
737.35	1685.48
737.53	1714.15
737.71	1755.11
737.89	1773.54
738.07	1681.38
738.25	1673.19
738.43	1685.48
738.61	1685.48
738.80	1621.99
738.98	1687.53
739.16	1654.76
739.34	1656.81
739.52	1705.96
739.70	1765.35
739.88	1697.77
740.06	1767.40
740.24	1646.57
740.42	1748.97
740.60	1675.24
740.78	1652.71
740.96	1589.22
741.14	1699.81
741.32	1656.81
741.50	1642.47
741.68	1841.12
741.86	1775.59
742.04	1701.86
742.22	1624.04
742.40	1724.39
742.58	1710.05
742.76	1642.47
742.94	1773.54
743.12	1619.94
743.30	1650.66
743.48	1624.04
743.66	1603.56
743.84	1736.68
744.02	1708.01
744.20	1751.01
744.38	1615.85
744.56	1644.52
744.74	1724.39
744.92	1777.64
745.10	1734.63
745.28	1746.92
745.46	1806.31
745.64	1615.85
745.82	1748.97
746.00	1697.77
746.18	1720.29
746.36	1679.33
746.54	1710.05
746.72	1630.18
746.90	1658.85
747.08	1777.64
747.26	1697.77
747.44	1755.11
747.62	1734.63
747.80	1689.57
747.98	1802.21
748.15	1712.10
748.33	1787.88
748.51	1685.48
748.69	1738.73
748.87	1677.29
749.05	1683.43
749.23	1634.28
749.41	1814.50
749.59	1652.71
749.77	1710.05
749.95	1687.53
750.13	1683.43
750.31	1726.44
750.49	1718.25
750.67	1697.77
750.85	1716.20
751.03	1695.72
751.20	1814.50
751.38	1738.73
751.56	1675.24
751.74	1769.44
751.92	1730.53
752.10	1656.81
752.28	1779.68
752.46	1695.72
752.64	1671.14
752.82	1683.43
753.00	1781.73
753.18	1716.20
753.35	1767.40
753.53	1656.81
753.71	1691.62
753.89	1675.24
754.07	1628.14
754.25	1732.58
754.43	1685.48
754.61	1693.67
754.79	1683.43
754.97	1665.00
755.14	1785.83
755.32	1708.01
755.50	1744.87
755.68	1687.53
755.86	1619.94
756.04	1636.33
756.22	1650.66
756.40	1724.39
756.57	1732.58
756.75	1677.29
756.93	1724.39
757.11	1705.96
757.29	1626.09
757.47	1615.85
757.65	1603.56
757.82	1574.89
758.00	1654.76
758.18	1689.57
758.36	1593.32
758.54	1732.58
758.72	1640.42
758.90	1828.84
759.07	1718.25
759.25	1732.58
759.43	1681.38
759.61	1656.81
759.79	2136.03
759.97	1732.58
760.15	1669.09
760.32	1798.12
760.50	1671.14
760.68	1753.06
760.86	1626.09
761.04	1726.44
761.22	1654.76
761.39	1648.61
761.57	1736.68
761.75	1718.25
761.93	1769.44
762.11	1662.95
762.28	1755.11
762.46	1646.57
762.64	1753.06
762.82	1624.04
763.00	1687.53
763.18	1808.36
763.35	1685.48
763.53	1687.53
763.71	1621.99
763.89	1738.73
764.07	1748.97
764.24	1640.42
764.42	1716.20
764.60	1621.99
764.78	1738.73
764.96	1714.15
765.13	1701.86
765.31	1699.81
765.49	1751.01
765.67	1746.92
765.84	1628.14
766.02	1597.42
766.20	1589.22
766.38	1732.58
766.56	1738.73
766.73	1687.53
766.91	1718.25
767.09	1605.61
767.27	1757.16
767.44	1656.81
767.62	1720.29
767.80	1710.05
767.98	1681.38
768.15	1681.38
768.33	1755.11
768.51	1724.39
768.69	1724.39
768.87	1685.48
769.04	1654.76
769.22	1816.55
769.40	1767.40
769.58	1886.18
769.75	1652.71
769.93	1781.73
770.11	1726.44
770.28	1595.37
770.46	1748.97
770.64	1736.68
770.82	1669.09
770.99	1687.53
771.17	1728.49
771.35	1722.34
771.53	1673.19
771.70	1632.23
771.88	1736.68
772.06	1644.52
772.23	1691.62
772.41	1705.96
772.59	1685.48
772.77	1597.42
772.94	1685.48
773.12	1748.97
773.30	1660.90
773.47	1667.05
773.65	1619.94
773.83	1861.60
774.01	1609.70
774.18	1617.90
774.36	1697.77
774.54	1675.24
774.71	1642.47
774.89	1658.85
775.07	1533.93
775.24	1703.91
775.42	1658.85
775.60	1765.35
775.78	1691.62
775.95	1626.09
776.13	1595.37
776.31	1562.60
776.48	1742.82
776.66	1665.00
776.84	1697.77
777.01	1642.47
777.19	1677.29
777.37	1724.39
777.54	1759.21
777.72	1787.88
777.90	1671.14
778.07	1681.38
778.25	1884.13
778.43	1744.87
778.60	1624.04
778.78	1779.68
778.96	1740.77
779.13	1646.57
779.31	1748.97
779.49	1673.19
779.66	1687.53
779.84	1677.29
780.01	1724.39
780.19	1679.33
780.37	1771.49
780.54	1785.83
780.72	1726.44
780.90	1742.82
781.07	1798.12
781.25	1628.14
781.43	1740.77
781.60	1689.57
781.78	1755.11
781.95	1705.96
782.13	1665.00
782.31	1671.14
782.48	1654.76
782.66	1691.62
782.83	1738.73
783.01	1720.29
783.19	1773.54
783.36	1675.24
783.54	1681.38
783.72	1755.11
783.89	1734.63
784.07	1757.16
784.24	1740.77
784.42	1800.16
784.60	1650.66
784.77	1802.21
784.95	1591.27
785.12	1705.96
785.30	1746.92
785.47	1665.00
785.65	1648.61
785.83	1759.21
786.00	1603.56
786.18	1714.15
786.35	1591.27
786.53	1619.94
786.71	1724.39
786.88	1697.77
787.06	1751.01
787.23	1671.14
787.41	1628.14
787.58	1689.57
787.76	1724.39
787.94	1697.77
788.11	1787.88
788.29	1626.09
788.46	1705.96
788.64	1615.85
788.81	1617.90
788.99	1642.47
789.16	1673.19
789.34	1617.90
789.52	1652.71
789.69	1624.04
789.87	1550.31
790.04	1705.96
790.22	1765.35
790.39	1867.75
790.57	1658.85
790.74	1642.47
790.92	1753.06
791.09	1679.33
791.27	1757.16
791.44	1804.26
791.62	1812.45
791.79	1746.92
791.97	1712.10
792.15	1888.23
792.32	1816.55
792.50	1757.16
792.67	1785.83
792.85	1791.97
793.02	1708.01
793.20	1665.00
793.37	1626.09
793.55	1624.04
793.72	1574.89
793.90	1714.15
794.07	1671.14
794.25	1642.47
794.42	1656.81
794.60	1697.77
794.77	1732.58
794.95	1683.43
795.12	1761.25
795.30	1730.53
795.47	1640.42
795.65	1841.12
795.82	1740.77
796.00	1660.90
796.17	1718.25
796.34	1650.66
796.52	1675.24
796.69	1757.16
796.87	1716.20
797.04	1789.92
797.22	1777.64
797.39	1738.73
797.57	1724.39
797.74	1642.47
797.92	1699.81
798.09	1687.53
798.27	1755.11
798.44	1755.11
798.62	1667.05
798.79	1714.15
798.96	1718.25
799.14	1648.61
799.31	1914.85
799.49	1720.29
799.66	1685.48
799.84	1804.26
800.01	1642.47
800.19	1730.53
800.36	1564.65
800.53	1685.48
800.71	1705.96
800.88	1734.63
801.06	1640.42
801.23	1658.85
801.41	1642.47
801.58	1703.91
801.75	1722.34
801.93	1689.57
802.10	1710.05
802.28	1619.94
802.45	1703.91
802.63	1773.54
802.80	1843.17
802.97	1783.78
803.15	1701.86
803.32	1673.19
803.50	1687.53
803.67	1654.76
803.84	1665.00
804.02	1701.86
804.19	1716.20
804.37	1570.79
804.54	1669.09
804.71	1681.38
804.89	1656.81
805.06	1609.70
805.24	1667.05
805.41	1619.94
805.58	1705.96
805.76	1828.84
805.93	1638.38
806.10	1796.07
806.28	1796.07
806.45	1642.47
806.63	1769.44
806.80	1740.77
806.97	1677.29
807.15	1759.21
807.32	1677.29
807.49	1703.91
807.67	1650.66
807.84	1714.15
808.01	1609.70
808.19	1804.26
808.36	1767.40
808.54	1710.05
808.71	1691.62
808.88	1685.48
809.06	1746.92
809.23	1695.72
809.40	1708.01
809.58	1769.44
809.75	1667.05
809.92	1658.85
810.10	1761.25
810.27	1726.44
810.44	1718.25
810.62	1734.63
810.79	1855.46
810.96	1679.33
811.14	1628.14
811.31	1718.25
811.48	1751.01
811.66	1673.19
811.83	1714.15
812.00	1695.72
812.18	1646.57
812.35	1751.01
812.52	1626.09
812.69	1675.24
812.87	1742.82
813.04	1703.91
813.21	1615.85
813.39	1712.10
813.56	1673.19
813.73	1771.49
813.91	1621.99
814.08	1767.40
814.25	1734.63
814.42	1566.70
814.60	1746.92
814.77	1746.92
814.94	1642.47
815.12	1748.97
815.29	1765.35
815.46	1624.04
815.63	1671.14
815.81	1660.90
815.98	1724.39
816.15	1740.77
816.33	1695.72
816.50	1732.58
816.67	1736.68
816.84	1685.48
817.02	1648.61
817.19	1660.90
817.36	1685.48
817.53	1773.54
817.71	1673.19
817.88	1705.96
818.05	1705.96
818.22	1671.14
818.40	1732.58
818.57	1677.29
818.74	1730.53
818.91	1732.58
819.09	1744.87
819.26	1710.05
819.43	1671.14
819.60	1583.08
819.78	1728.49
819.95	1787.88
820.12	1753.06
820.29	1806.31
820.47	1759.21
820.64	1626.09
820.81	1656.81
820.98	1624.04
821.15	1640.42
821.33	1730.53
821.50	1630.18
821.67	1701.86
821.84	1630.18
822.02	1701.86
822.19	1757.16
822.36	1726.44
822.53	1671.14
822.70	1615.85
822.88	1677.29
823.05	1820.64
823.22	1720.29
823.39	1738.73
823.56	1796.07
823.74	1832.93
823.91	1644.52
824.08	1634.28
824.25	1609.70
824.42	1808.36
824.60	1593.32
824.77	1691.62
824.94	1636.33
825.11	1791.97
825.28	1617.90
825.45	1712.10
825.63	1716.20
825.80	1658.85
825.97	1705.96
826.14	1638.38
826.31	1611.75
826.48	1642.47
826.66	1640.42
826.83	1742.82
827.00	1650.66
827.17	1609.70
827.34	1652.71
827.51	1708.01
827.69	1638.38
827.86	1656.81
828.03	1617.90
828.20	1634.28
828.37	1587.18
828.54	1740.77
828.71	1687.53
828.89	1767.40
829.06	1708.01
829.23	1783.78
829.40	1638.38
829.57	1671.14
829.74	1787.88
829.91	1697.77
830.09	1609.70
830.26	1740.77
830.43	1822.69
830.60	1771.49
830.77	1726.44
830.94	1683.43
831.11	1742.82
831.28	1736.68
831.46	1767.40
831.63	1673.19
831.80	1714.15
831.97	1648.61
832.14	1632.23
832.31	1746.92
832.48	1699.81
832.65	1710.05
832.82	1697.77
832.99	1683.43
833.17	1611.75
833.34	1777.64
833.51	1656.81
833.68	1642.47
833.85	1742.82
834.02	1599.46
834.19	1652.71
834.36	1652.71
834.53	1701.86
834.70	1740.77
834.87	1697.77
835.04	1654.76
835.22	1634.28
835.39	1693.67
835.56	1617.90
835.73	1728.49
835.90	1775.59
836.07	1673.19
836.24	1738.73
836.41	1619.94
836.58	1667.05
836.75	1849.32
836.92	1687.53
837.09	1638.38
837.26	1720.29
837.43	1675.24
837.60	1789.92
837.77	1724.39
837.94	1746.92
838.12	1748.97
838.29	1732.58
838.46	1642.47
838.63	1603.56
838.80	1728.49
838.97	1748.97
839.14	1685.48
839.31	1679.33
839.48	1781.73
839.65	1716.20
839.82	1746.92
839.99	1693.67
840.16	1722.34
840.33	1650.66
840.50	1695.72
840.67	1679.33
840.84	1566.70
841.01	1703.91
841.18	1705.96
841.35	1636.33
841.52	1679.33
841.69	1777.64
841.86	1763.30
842.03	1648.61
842.20	1755.11
842.37	1624.04
842.54	1667.05
842.71	1642.47
842.88	1642.47
843.05	1761.25
843.22	1679.33
843.39	1714.15
843.56	1667.05
843.73	1685.48
843.90	1712.10
844.07	1689.57
844.24	1730.53
844.41	1669.09
844.58	1681.38
844.75	1658.85
844.92	1742.82
845.09	1662.95
845.26	1669.09
845.43	1773.54
845.60	1660.90
845.77	1800.16
845.94	1642.47
846.10	1759.21
846.27	1624.04
846.44	1591.27
846.61	1677.29
846.78	1695.72
846.95	1796.07
847.12	1654.76
847.29	1648.61
847.46	1681.38
847.63	1779.68
847.80	1619.94
847.97	1632.23
848.14	1884.13
848.31	1726.44
848.48	1685.48
848.65	1697.77
848.82	1683.43
848.98	1830.88
849.15	1724.39
849.32	1732.58
849.49	1779.68
849.66	1658.85
849.83	1734.63
850.00	1642.47
850.17	1695.72
850.34	1716.20
850.51	1740.77
850.68	1691.62
850.85	1861.60
851.01	1712.10
851.18	1773.54
851.35	1718.25
851.52	1724.39
851.69	1757.16
851.86	1673.19
852.03	1722.34
852.20	1789.92
852.37	1689.57
852.53	1665.00
852.70	1767.40
852.87	1734.63
853.04	1699.81
853.21	1626.09
853.38	1767.40
853.55	1808.36
853.72	1773.54
853.89	1628.14
854.05	1740.77
854.22	1703.91
854.39	1675.24
854.56	1705.96
854.73	1738.73
854.90	1763.30
855.07	1757.16
855.23	1662.95
855.40	1675.24
855.57	1626.09
855.74	1632.23
855.91	1859.56
856.08	1638.38
856.25	1615.85
856.41	1665.00
856.58	1611.75
856.75	1697.77
856.92	1634.28
857.09	1753.06
857.26	1554.41
857.42	1791.97
857.59	1763.30
857.76	1591.27
857.93	1759.21
858.10	1746.92
858.27	1671.14
858.43	1734.63
858.60	1658.85
858.77	1626.09
858.94	1656.81
859.11	1798.12
859.27	1583.08
859.44	1691.62
859.61	1851.36
859.78	1681.38
859.95	1648.61
860.12	1656.81
860.28	1871.84
860.45	1738.73
860.62	1636.33
860.79	1734.63
860.95	1650.66
861.12	1621.99
861.29	1658.85
861.46	1658.85
861.63	1726.44
861.79	1640.42
861.96	1667.05
862.13	1728.49
862.30	1800.16
862.47	1703.91
862.63	1599.46
862.80	1757.16
862.97	1777.64
863.14	1761.25
863.30	1677.29
863.47	1642.47
863.64	1763.30
863.81	1697.77
863.97	1652.71
864.14	1669.09
864.31	1701.86
864.48	1773.54
864.65	1730.53
864.81	1828.84
864.98	1773.54
865.15	1765.35
865.32	1705.96
865.48	1783.78
865.65	1824.74
865.82	1617.90
865.98	1712.10
866.15	1734.63
866.32	1705.96
866.49	1687.53
866.65	1804.26
866.82	1617.90
866.99	1746.92
867.16	1626.09
867.32	1669.09
867.49	1687.53
867.66	1636.33
867.83	1665.00
867.99	1603.56
868.16	1687.53
868.33	1619.94
868.49	1712.10
868.66	1617.90
868.83	1673.19
868.99	1693.67
869.16	1673.19
869.33	1767.40
869.50	1816.55
869.66	1761.25
869.83	1765.35
870.00	1652.71
870.16	1791.97
870.33	1667.05
870.50	1765.35
870.66	1705.96
870.83	1769.44
871.00	1722.34
871.17	1767.40
871.33	1716.20
871.50	1769.44
871.67	1687.53
871.83	1589.22
872.00	1753.06
872.17	1708.01
872.33	1777.64
872.50	1824.74
872.67	1697.77
872.83	1708.01
873.00	1722.34
873.17	1722.34
873.33	1732.58
873.50	1722.34
873.67	1581.03
873.83	1675.24
874.00	1703.91
874.16	1839.08
874.33	1718.25
874.50	1697.77
874.66	1744.87
874.83	1736.68
875.00	1791.97
875.16	1847.27
875.33	1767.40
875.50	1581.03
875.66	1671.14
875.83	1669.09
875.99	1787.88
876.16	1640.42
876.33	1689.57
876.49	1722.34
876.66	1736.68
876.83	1648.61
876.99	1630.18
877.16	1679.33
877.32	1726.44
877.49	1705.96
877.66	1769.44
877.82	1742.82
877.99	1718.25
878.15	1769.44
878.32	1736.68
878.49	1654.76
878.65	1712.10
878.82	1724.39
878.98	1726.44
879.15	1757.16
879.32	1695.72
879.48	1746.92
879.65	1677.29
879.81	1648.61
879.98	1624.04
880.15	1640.42
880.31	1697.77
880.48	1632.23
880.64	1710.05
880.81	1710.05
880.97	1796.07
881.14	1832.93
881.31	1683.43
881.47	1828.84
881.64	1681.38
881.80	1556.46
881.97	1660.90
882.13	1757.16
882.30	1640.42
882.47	1730.53
882.63	1593.32
882.80	1714.15
882.96	1695.72
883.13	1701.86
883.29	1697.77
883.46	1665.00
883.62	1832.93
883.79	1724.39
883.95	1816.55
884.12	1648.61
884.29	1765.35
884.45	1714.15
884.62	1726.44
884.78	1691.62
884.95	1810.40
885.11	1630.18
885.28	1683.43
885.44	1632.23
885.61	1718.25
885.77	1759.21
885.94	1744.87
886.10	1730.53
886.27	1765.35
886.43	1804.26
886.60	1720.29
886.76	1679.33
886.93	1630.18
887.09	1732.58
887.26	1587.18
887.42	1689.57
887.59	1812.45
887.75	1847.27
887.92	1783.78
888.08	1712.10
888.25	1787.88
888.41	1834.98
888.58	1753.06
888.74	1648.61
888.91	1626.09
>>>>>End Processed Spectral Data<<<<<
