SpectraSuite Data File
++++++++++++++++++++++++++++++++++++
Date: Mon Jun 06 12:31:57 CEST 2016
User: root
Dark Spectrum Present: No
Reference Spectrum Present: No
Number of Sampled Component Spectra: 1
Spectrometers: USB4C02835
Integration Time (usec): 100000 (USB4C02835)
Spectra Averaged: 1 (USB4C02835)
Boxcar Smoothing: 0 (USB4C02835)
Correct for Electrical Dark: No (USB4C02835)
Strobe/Lamp Enabled: No (USB4C02835)
Correct for Detector Non-linearity: No (USB4C02835)
Correct for Stray Light: No (USB4C02835)
Number of Pixels in Processed Spectrum: 3648
>>>>>Begin Processed Spectral Data<<<<<
177.47	1511.40
177.69	1511.40
177.91	1511.40
178.13	1462.25
178.36	1460.20
178.58	1632.23
178.80	1708.01
179.02	1652.71
179.24	1671.14
179.46	1624.04
179.68	1738.73
179.90	1642.47
180.13	1691.62
180.35	1693.67
180.57	1669.09
180.79	1665.00
181.01	1695.72
181.23	1775.59
181.45	1787.88
181.67	1665.00
181.90	1734.63
182.12	1673.19
182.34	1652.71
182.56	1800.16
182.78	1720.29
183.00	1712.10
183.22	1689.57
183.44	1621.99
183.66	1877.99
183.89	1761.25
184.11	1638.38
184.33	1677.29
184.55	1726.44
184.77	1656.81
184.99	1744.87
185.21	1648.61
185.43	1839.08
185.65	1683.43
185.87	1726.44
186.10	1789.92
186.32	1882.08
186.54	1710.05
186.76	1675.24
186.98	1753.06
187.20	1689.57
187.42	1636.33
187.64	1642.47
187.86	1683.43
188.08	1671.14
188.30	1654.76
188.52	1638.38
188.75	1718.25
188.97	1767.40
189.19	1681.38
189.41	1662.95
189.63	1767.40
189.85	1720.29
190.07	1611.75
190.29	1558.50
190.51	1703.91
190.73	1710.05
190.95	1693.67
191.17	1689.57
191.39	1636.33
191.61	1660.90
191.84	1718.25
192.06	1804.26
192.28	1626.09
192.50	1865.70
192.72	1673.19
192.94	1730.53
193.16	1761.25
193.38	1673.19
193.60	1619.94
193.82	1621.99
194.04	1826.79
194.26	1658.85
194.48	1679.33
194.70	1572.84
194.92	1636.33
195.14	1693.67
195.36	1720.29
195.58	1771.49
195.80	1712.10
196.02	1519.59
196.24	1742.82
196.46	1665.00
196.69	1697.77
196.91	1800.16
197.13	1638.38
197.35	1599.46
197.57	1763.30
197.79	1789.92
198.01	1679.33
198.23	1746.92
198.45	1812.45
198.67	1624.04
198.89	1615.85
199.11	1699.81
199.33	1734.63
199.55	1591.27
199.77	1611.75
199.99	1724.39
200.21	1710.05
200.43	1777.64
200.65	1589.22
200.87	1591.27
201.09	1654.76
201.31	1638.38
201.53	1714.15
201.75	1736.68
201.97	1662.95
202.19	1746.92
202.41	1693.67
202.63	1845.22
202.85	1808.36
203.07	1685.48
203.29	1742.82
203.51	1644.52
203.73	1675.24
203.95	1863.65
204.17	1710.05
204.39	1785.83
204.61	1720.29
204.83	1697.77
205.05	1787.88
205.27	1791.97
205.49	1853.41
205.71	1714.15
205.93	1611.75
206.15	1624.04
206.37	1703.91
206.59	1613.80
206.81	1628.14
207.03	1648.61
207.25	1615.85
207.47	1808.36
207.69	1646.57
207.91	1708.01
208.13	1812.45
208.34	1693.67
208.56	1646.57
208.78	1751.01
209.00	1746.92
209.22	1603.56
209.44	1751.01
209.66	1615.85
209.88	1687.53
210.10	1619.94
210.32	1734.63
210.54	1796.07
210.76	1683.43
210.98	1697.77
211.20	1515.50
211.42	1667.05
211.64	1763.30
211.86	1675.24
212.08	1665.00
212.30	1671.14
212.52	1675.24
212.74	1724.39
212.96	1687.53
213.17	1740.77
213.39	1734.63
213.61	1796.07
213.83	1687.53
214.05	1669.09
214.27	1798.12
214.49	1578.98
214.71	1646.57
214.93	1763.30
215.15	1771.49
215.37	1748.97
215.59	1677.29
215.81	1746.92
216.03	1697.77
216.24	1685.48
216.46	1724.39
216.68	1730.53
216.90	1757.16
217.12	1748.97
217.34	1621.99
217.56	1718.25
217.78	1789.92
218.00	1693.67
218.22	1697.77
218.44	1722.34
218.66	1646.57
218.87	1871.84
219.09	1689.57
219.31	1714.15
219.53	1736.68
219.75	1619.94
219.97	1687.53
220.19	1736.68
220.41	1640.42
220.63	1779.68
220.85	1736.68
221.06	1736.68
221.28	1740.77
221.50	1685.48
221.72	1722.34
221.94	1695.72
222.16	1640.42
222.38	1699.81
222.60	1802.21
222.82	1718.25
223.03	1730.53
223.25	1615.85
223.47	1771.49
223.69	1808.36
223.91	1771.49
224.13	1681.38
224.35	1591.27
224.57	1765.35
224.78	1794.02
225.00	1628.14
225.22	1742.82
225.44	1697.77
225.66	1740.77
225.88	1697.77
226.10	1718.25
226.32	1705.96
226.53	1812.45
226.75	1665.00
226.97	1665.00
227.19	1738.73
227.41	1652.71
227.63	1677.29
227.85	1619.94
228.06	1732.58
228.28	1703.91
228.50	1691.62
228.72	1654.76
228.94	1728.49
229.16	1550.31
229.37	1669.09
229.59	1705.96
229.81	1744.87
230.03	1611.75
230.25	1619.94
230.47	1617.90
230.69	1599.46
230.90	1714.15
231.12	1679.33
231.34	1726.44
231.56	1718.25
231.78	1605.61
232.00	1699.81
232.21	1705.96
232.43	1722.34
232.65	1617.90
232.87	1689.57
233.09	1601.51
233.30	1677.29
233.52	1777.64
233.74	1708.01
233.96	1613.80
234.18	1695.72
234.40	1695.72
234.61	1808.36
234.83	1624.04
235.05	1581.03
235.27	1824.74
235.49	1720.29
235.70	1677.29
235.92	1751.01
236.14	1677.29
236.36	1832.93
236.58	1597.42
236.79	1787.88
237.01	1708.01
237.23	1689.57
237.45	1810.40
237.67	1621.99
237.88	1671.14
238.10	1804.26
238.32	1626.09
238.54	1669.09
238.76	1689.57
238.97	1611.75
239.19	1656.81
239.41	1746.92
239.63	1802.21
239.85	1652.71
240.06	1689.57
240.28	1644.52
240.50	1751.01
240.72	1736.68
240.93	1775.59
241.15	1757.16
241.37	1667.05
241.59	1769.44
241.81	1689.57
242.02	1636.33
242.24	1728.49
242.46	1744.87
242.68	1681.38
242.89	1679.33
243.11	1716.20
243.33	1730.53
243.55	1689.57
243.76	1697.77
243.98	1650.66
244.20	1697.77
244.42	1708.01
244.64	1748.97
244.85	1578.98
245.07	1621.99
245.29	1783.78
245.51	1640.42
245.72	1779.68
245.94	1785.83
246.16	1742.82
246.38	1714.15
246.59	1699.81
246.81	1601.51
247.03	1699.81
247.24	1652.71
247.46	1738.73
247.68	1710.05
247.90	1687.53
248.11	1642.47
248.33	1847.27
248.55	1728.49
248.77	1744.87
248.98	1757.16
249.20	1773.54
249.42	1695.72
249.64	1794.02
249.85	1609.70
250.07	1677.29
250.29	1798.12
250.50	1677.29
250.72	1587.18
250.94	1636.33
251.16	1853.41
251.37	1783.78
251.59	1730.53
251.81	1746.92
252.02	1738.73
252.24	1646.57
252.46	1867.75
252.68	1644.52
252.89	1677.29
253.11	1591.27
253.33	1775.59
253.54	1765.35
253.76	1587.18
253.98	1701.86
254.20	1714.15
254.41	1564.65
254.63	1740.77
254.85	1667.05
255.06	1748.97
255.28	1732.58
255.50	1701.86
255.71	1705.96
255.93	1656.81
256.15	1679.33
256.36	1718.25
256.58	1658.85
256.80	1781.73
257.02	1685.48
257.23	1667.05
257.45	1669.09
257.67	1705.96
257.88	1662.95
258.10	1714.15
258.32	1691.62
258.53	1736.68
258.75	1783.78
258.97	1660.90
259.18	1765.35
259.40	1746.92
259.62	1759.21
259.83	1742.82
260.05	1705.96
260.27	1931.23
260.48	1777.64
260.70	1652.71
260.92	1722.34
261.13	1640.42
261.35	1730.53
261.57	1748.97
261.78	1632.23
262.00	1609.70
262.22	1736.68
262.43	1609.70
262.65	1705.96
262.86	1615.85
263.08	1757.16
263.30	1578.98
263.51	1562.60
263.73	1642.47
263.95	1757.16
264.16	1681.38
264.38	1642.47
264.60	1732.58
264.81	1710.05
265.03	1675.24
265.25	1744.87
265.46	1638.38
265.68	1755.11
265.89	1806.31
266.11	1538.02
266.33	1740.77
266.54	1802.21
266.76	1748.97
266.98	1800.16
267.19	1779.68
267.41	1775.59
267.62	1669.09
267.84	1665.00
268.06	1779.68
268.27	1744.87
268.49	1765.35
268.70	1722.34
268.92	1753.06
269.14	1654.76
269.35	1636.33
269.57	1662.95
269.79	1744.87
270.00	1648.61
270.22	1730.53
270.43	1654.76
270.65	1585.13
270.87	1814.50
271.08	1693.67
271.30	1710.05
271.51	1738.73
271.73	1675.24
271.95	1806.31
272.16	1646.57
272.38	1716.20
272.59	1648.61
272.81	1701.86
273.02	1660.90
273.24	1658.85
273.46	1677.29
273.67	1691.62
273.89	1695.72
274.10	1591.27
274.32	1761.25
274.54	1800.16
274.75	1742.82
274.97	1624.04
275.18	1728.49
275.40	1751.01
275.61	1515.50
275.83	1761.25
276.05	1556.46
276.26	1648.61
276.48	1689.57
276.69	1689.57
276.91	1624.04
277.12	1734.63
277.34	1744.87
277.55	1679.33
277.77	1701.86
277.99	1710.05
278.20	1685.48
278.42	1585.13
278.63	1689.57
278.85	1632.23
279.06	1642.47
279.28	1753.06
279.49	1746.92
279.71	1751.01
279.93	1701.86
280.14	1710.05
280.36	1658.85
280.57	1703.91
280.79	1701.86
281.00	1650.66
281.22	1683.43
281.43	1794.02
281.65	1652.71
281.86	1650.66
282.08	1740.77
282.29	1724.39
282.51	1619.94
282.73	1648.61
282.94	1660.90
283.16	1699.81
283.37	1716.20
283.59	1644.52
283.80	1705.96
284.02	1695.72
284.23	1720.29
284.45	1728.49
284.66	1685.48
284.88	1693.67
285.09	1761.25
285.31	1755.11
285.52	1685.48
285.74	1665.00
285.95	1671.14
286.17	1824.74
286.38	1753.06
286.60	1722.34
286.81	1652.71
287.03	1742.82
287.24	1679.33
287.46	1681.38
287.67	1693.67
287.89	1761.25
288.10	1726.44
288.32	1665.00
288.53	1791.97
288.75	1669.09
288.96	1783.78
289.18	1628.14
289.39	1650.66
289.61	1794.02
289.82	1800.16
290.04	1830.88
290.25	1636.33
290.47	1705.96
290.68	1644.52
290.90	1705.96
291.11	1605.61
291.33	1744.87
291.54	1640.42
291.76	1656.81
291.97	1779.68
292.18	1679.33
292.40	1705.96
292.61	1746.92
292.83	1738.73
293.04	1755.11
293.26	1693.67
293.47	1617.90
293.69	1624.04
293.90	1808.36
294.12	1771.49
294.33	1689.57
294.55	1683.43
294.76	1759.21
294.97	1714.15
295.19	1703.91
295.40	1726.44
295.62	1695.72
295.83	1757.16
296.05	1755.11
296.26	1734.63
296.48	1613.80
296.69	1705.96
296.90	1671.14
297.12	1751.01
297.33	1718.25
297.55	1638.38
297.76	1716.20
297.98	1705.96
298.19	1751.01
298.41	1708.01
298.62	1681.38
298.83	1728.49
299.05	1656.81
299.26	1662.95
299.48	1667.05
299.69	1687.53
299.90	1771.49
300.12	1646.57
300.33	1837.03
300.55	1779.68
300.76	1699.81
300.98	1619.94
301.19	1693.67
301.40	1701.86
301.62	1724.39
301.83	1736.68
302.05	1671.14
302.26	1636.33
302.47	1800.16
302.69	1613.80
302.90	1720.29
303.12	1566.70
303.33	1679.33
303.54	1808.36
303.76	1624.04
303.97	1742.82
304.19	1837.03
304.40	1628.14
304.61	1675.24
304.83	1781.73
305.04	1660.90
305.26	1742.82
305.47	1712.10
305.68	1679.33
305.90	1599.46
306.11	1787.88
306.33	1681.38
306.54	1667.05
306.75	1662.95
306.97	1599.46
307.18	1693.67
307.39	1687.53
307.61	1683.43
307.82	1718.25
308.04	1714.15
308.25	1632.23
308.46	1652.71
308.68	1808.36
308.89	1789.92
309.10	1691.62
309.32	1755.11
309.53	1611.75
309.74	1705.96
309.96	1693.67
310.17	1722.34
310.39	1693.67
310.60	1740.77
310.81	1753.06
311.03	1615.85
311.24	1710.05
311.45	1685.48
311.67	1789.92
311.88	1609.70
312.09	1679.33
312.31	1671.14
312.52	1675.24
312.73	1693.67
312.95	1595.37
313.16	1718.25
313.37	1798.12
313.59	1693.67
313.80	1720.29
314.01	1746.92
314.23	1673.19
314.44	1681.38
314.65	1712.10
314.87	1632.23
315.08	1703.91
315.29	1591.27
315.51	1654.76
315.72	1662.95
315.93	1785.83
316.15	1722.34
316.36	1701.86
316.57	1712.10
316.79	1814.50
317.00	1681.38
317.21	1712.10
317.43	1687.53
317.64	1683.43
317.85	1667.05
318.07	1662.95
318.28	1626.09
318.49	1789.92
318.70	1920.99
318.92	1759.21
319.13	1755.11
319.34	1828.84
319.56	1787.88
319.77	1783.78
319.98	1771.49
320.20	1818.60
320.41	1693.67
320.62	1632.23
320.83	1648.61
321.05	1837.03
321.26	1781.73
321.47	1646.57
321.69	1765.35
321.90	1648.61
322.11	1763.30
322.32	1656.81
322.54	1791.97
322.75	1714.15
322.96	1832.93
323.18	1642.47
323.39	1597.42
323.60	1683.43
323.81	1755.11
324.03	1619.94
324.24	1742.82
324.45	1693.67
324.66	1701.86
324.88	1708.01
325.09	1716.20
325.30	1654.76
325.52	1730.53
325.73	1724.39
325.94	1712.10
326.15	1630.18
326.37	1720.29
326.58	1712.10
326.79	1767.40
327.00	1673.19
327.22	1679.33
327.43	1671.14
327.64	1595.37
327.85	1742.82
328.07	1746.92
328.28	1781.73
328.49	1667.05
328.70	1701.86
328.92	1740.77
329.13	1662.95
329.34	1667.05
329.55	1761.25
329.76	1708.01
329.98	1591.27
330.19	1775.59
330.40	1757.16
330.61	1669.09
330.83	1718.25
331.04	1716.20
331.25	1763.30
331.46	1683.43
331.68	1646.57
331.89	1781.73
332.10	1724.39
332.31	1677.29
332.52	1744.87
332.74	1685.48
332.95	1648.61
333.16	1710.05
333.37	1726.44
333.58	1658.85
333.80	1732.58
334.01	1574.89
334.22	1648.61
334.43	1624.04
334.64	1679.33
334.86	1574.89
335.07	1675.24
335.28	1794.02
335.49	1632.23
335.70	1755.11
335.92	1716.20
336.13	1822.69
336.34	1804.26
336.55	1720.29
336.76	1701.86
336.98	1669.09
337.19	1626.09
337.40	1724.39
337.61	1789.92
337.82	1673.19
338.04	1765.35
338.25	1607.66
338.46	1669.09
338.67	1640.42
338.88	1681.38
339.09	1718.25
339.31	1630.18
339.52	1658.85
339.73	1611.75
339.94	1751.01
340.15	1789.92
340.36	1689.57
340.58	1677.29
340.79	1624.04
341.00	1697.77
341.21	1556.46
341.42	1751.01
341.63	1660.90
341.85	1722.34
342.06	1679.33
342.27	1658.85
342.48	1697.77
342.69	1665.00
342.90	1746.92
343.12	1722.34
343.33	1632.23
343.54	1724.39
343.75	1734.63
343.96	1697.77
344.17	1665.00
344.38	1626.09
344.60	1632.23
344.81	1597.42
345.02	1687.53
345.23	1787.88
345.44	1777.64
345.65	1742.82
345.86	1744.87
346.07	1640.42
346.29	1595.37
346.50	1689.57
346.71	1730.53
346.92	1765.35
347.13	1763.30
347.34	1757.16
347.55	1716.20
347.76	1705.96
347.98	1646.57
348.19	1636.33
348.40	1773.54
348.61	1576.94
348.82	1771.49
349.03	1669.09
349.24	1640.42
349.45	1783.78
349.66	1544.17
349.88	1628.14
350.09	1619.94
350.30	1714.15
350.51	1763.30
350.72	1660.90
350.93	1693.67
351.14	1683.43
351.35	1748.97
351.56	1667.05
351.77	1746.92
351.99	1720.29
352.20	1812.45
352.41	1744.87
352.62	1558.50
352.83	1751.01
353.04	1652.71
353.25	1722.34
353.46	1757.16
353.67	1738.73
353.88	1611.75
354.09	1669.09
354.30	1685.48
354.52	1730.53
354.73	1714.15
354.94	1626.09
355.15	1736.68
355.36	1890.28
355.57	1624.04
355.78	1705.96
355.99	1656.81
356.20	1630.18
356.41	1742.82
356.62	1701.86
356.83	1650.66
357.04	1689.57
357.25	1583.08
357.46	1716.20
357.68	1634.28
357.89	1740.77
358.10	1638.38
358.31	1736.68
358.52	1675.24
358.73	1677.29
358.94	1687.53
359.15	1673.19
359.36	1751.01
359.57	1693.67
359.78	1724.39
359.99	1736.68
360.20	1646.57
360.41	1648.61
360.62	1775.59
360.83	1695.72
361.04	1685.48
361.25	1693.67
361.46	1781.73
361.67	1716.20
361.88	1775.59
362.09	1697.77
362.30	1712.10
362.51	1636.33
362.72	1658.85
362.93	1708.01
363.14	1718.25
363.35	1691.62
363.56	1658.85
363.78	1712.10
363.99	1751.01
364.20	1583.08
364.41	1665.00
364.62	1742.82
364.83	1644.52
365.04	1697.77
365.25	1705.96
365.46	1812.45
365.67	1617.90
365.88	1665.00
366.09	1646.57
366.30	1683.43
366.51	1742.82
366.72	1603.56
366.93	1617.90
367.14	1689.57
367.35	1798.12
367.56	1753.06
367.77	1724.39
367.98	1724.39
368.18	1736.68
368.39	1748.97
368.60	1687.53
368.81	1701.86
369.02	1751.01
369.23	1650.66
369.44	1669.09
369.65	1632.23
369.86	1787.88
370.07	1708.01
370.28	1703.91
370.49	1740.77
370.70	1759.21
370.91	1589.22
371.12	1626.09
371.33	1785.83
371.54	1660.90
371.75	1861.60
371.96	1621.99
372.17	1695.72
372.38	1669.09
372.59	1701.86
372.80	1599.46
373.01	1681.38
373.22	1701.86
373.43	1667.05
373.64	1593.32
373.85	1753.06
374.06	1687.53
374.26	1687.53
374.47	1699.81
374.68	1816.55
374.89	1757.16
375.10	1669.09
375.31	1689.57
375.52	1705.96
375.73	1642.47
375.94	1581.03
376.15	1800.16
376.36	1632.23
376.57	1615.85
376.78	1656.81
376.99	1646.57
377.20	1767.40
377.40	1701.86
377.61	1763.30
377.82	1701.86
378.03	1730.53
378.24	1689.57
378.45	1740.77
378.66	1781.73
378.87	1646.57
379.08	1697.77
379.29	1730.53
379.50	1732.58
379.71	1667.05
379.91	1787.88
380.12	1644.52
380.33	1669.09
380.54	1621.99
380.75	1591.27
380.96	1722.34
381.17	1789.92
381.38	1681.38
381.59	1791.97
381.80	1708.01
382.00	1824.74
382.21	1644.52
382.42	1845.22
382.63	1865.70
382.84	1783.78
383.05	1785.83
383.26	1816.55
383.47	1759.21
383.68	1742.82
383.88	1667.05
384.09	1685.48
384.30	1791.97
384.51	1777.64
384.72	1679.33
384.93	1605.61
385.14	1728.49
385.35	1730.53
385.55	1546.22
385.76	1771.49
385.97	1689.57
386.18	1607.66
386.39	1726.44
386.60	1660.90
386.81	1628.14
387.02	1695.72
387.22	1665.00
387.43	1804.26
387.64	1732.58
387.85	1828.84
388.06	2238.43
388.27	4345.79
388.48	6954.90
388.68	8357.76
388.89	9977.70
389.10	10350.43
389.31	8783.74
389.52	7663.50
389.73	6877.08
389.93	6268.83
390.14	5898.15
390.35	5257.14
390.56	4712.38
390.77	3768.26
390.98	3053.52
391.18	2459.61
391.39	2152.42
391.60	1900.52
391.81	1794.02
392.02	1652.71
392.23	1826.79
392.43	1791.97
392.64	1824.74
392.85	1705.96
393.06	1847.27
393.27	1705.96
393.47	1712.10
393.68	1722.34
393.89	1728.49
394.10	1763.30
394.31	1681.38
394.52	1636.33
394.72	1583.08
394.93	1834.98
395.14	1681.38
395.35	1714.15
395.56	1718.25
395.76	1800.16
395.97	1730.53
396.18	1826.79
396.39	1886.18
396.60	2058.21
396.80	1902.56
397.01	1832.93
397.22	1771.49
397.43	1777.64
397.64	1738.73
397.84	1777.64
398.05	1869.80
398.26	1757.16
398.47	1712.10
398.67	1794.02
398.88	1718.25
399.09	1718.25
399.30	1738.73
399.51	1765.35
399.71	1675.24
399.92	1753.06
400.13	1765.35
400.34	1675.24
400.54	1671.14
400.75	1822.69
400.96	1693.67
401.17	1853.41
401.37	1726.44
401.58	1689.57
401.79	1740.77
402.00	1910.75
402.21	1935.33
402.41	1892.32
402.62	1970.15
402.83	1943.52
403.04	1957.86
403.24	2146.27
403.45	1812.45
403.66	1916.90
403.87	1904.61
404.07	1918.95
404.28	1886.18
404.49	1830.88
404.70	1796.07
404.90	1730.53
405.11	1675.24
405.32	1800.16
405.52	1671.14
405.73	1691.62
405.94	1652.71
406.15	1665.00
406.35	1699.81
406.56	1675.24
406.77	1703.91
406.98	1681.38
407.18	1695.72
407.39	1742.82
407.60	1648.61
407.80	1699.81
408.01	1699.81
408.22	1695.72
408.43	1650.66
408.63	1724.39
408.84	1689.57
409.05	1740.77
409.25	1628.14
409.46	1742.82
409.67	1724.39
409.88	1662.95
410.08	1714.15
410.29	1705.96
410.50	1712.10
410.70	1734.63
410.91	1671.14
411.12	1708.01
411.32	1660.90
411.53	1654.76
411.74	1798.12
411.95	1759.21
412.15	1740.77
412.36	1757.16
412.57	1755.11
412.77	1757.16
412.98	1732.58
413.19	1642.47
413.39	1771.49
413.60	1771.49
413.81	1796.07
414.01	1599.46
414.22	1720.29
414.43	1789.92
414.63	1617.90
414.84	1740.77
415.05	1734.63
415.25	1675.24
415.46	1765.35
415.67	1607.66
415.87	1638.38
416.08	1808.36
416.29	1615.85
416.49	1746.92
416.70	1687.53
416.91	1699.81
417.11	1697.77
417.32	1730.53
417.53	1667.05
417.73	1648.61
417.94	1701.86
418.15	1701.86
418.35	1728.49
418.56	1671.14
418.77	1867.75
418.97	1662.95
419.18	1660.90
419.38	1615.85
419.59	1697.77
419.80	1781.73
420.00	1689.57
420.21	1681.38
420.42	1771.49
420.62	1724.39
420.83	1677.29
421.04	1703.91
421.24	1621.99
421.45	1669.09
421.65	1675.24
421.86	1734.63
422.07	1683.43
422.27	1689.57
422.48	1650.66
422.69	1638.38
422.89	1642.47
423.10	1662.95
423.30	1665.00
423.51	1689.57
423.72	1677.29
423.92	1740.77
424.13	1671.14
424.33	1640.42
424.54	1812.45
424.75	1681.38
424.95	1830.88
425.16	1828.84
425.36	1628.14
425.57	1714.15
425.78	1761.25
425.98	1662.95
426.19	1730.53
426.39	1632.23
426.60	1662.95
426.81	1785.83
427.01	1734.63
427.22	1603.56
427.42	1632.23
427.63	1595.37
427.83	1724.39
428.04	1818.60
428.25	1771.49
428.45	1746.92
428.66	1718.25
428.86	1673.19
429.07	1652.71
429.28	1705.96
429.48	1701.86
429.69	1738.73
429.89	1683.43
430.10	1621.99
430.30	1685.48
430.51	1665.00
430.71	1658.85
430.92	1744.87
431.13	1662.95
431.33	1753.06
431.54	1705.96
431.74	1734.63
431.95	1859.56
432.15	1634.28
432.36	1650.66
432.56	1730.53
432.77	1771.49
432.98	1818.60
433.18	1652.71
433.39	1671.14
433.59	1662.95
433.80	1767.40
434.00	1826.79
434.21	1660.90
434.41	1691.62
434.62	1865.70
434.82	1630.18
435.03	1671.14
435.23	1689.57
435.44	1601.51
435.64	1656.81
435.85	1724.39
436.06	1796.07
436.26	1783.78
436.47	1669.09
436.67	1642.47
436.88	1710.05
437.08	1767.40
437.29	1796.07
437.49	1693.67
437.70	1757.16
437.90	1687.53
438.11	1798.12
438.31	1783.78
438.52	1837.03
438.72	1837.03
438.93	1818.60
439.13	1773.54
439.34	1863.65
439.54	1748.97
439.75	1834.98
439.95	1765.35
440.16	1769.44
440.36	1693.67
440.57	1783.78
440.77	1712.10
440.98	1720.29
441.18	1755.11
441.39	1681.38
441.59	1667.05
441.80	1843.17
442.00	1665.00
442.21	1828.84
442.41	1746.92
442.62	1746.92
442.82	1626.09
443.02	1783.78
443.23	1679.33
443.43	1742.82
443.64	1771.49
443.84	1730.53
444.05	1761.25
444.25	1732.58
444.46	1701.86
444.66	1744.87
444.87	1839.08
445.07	1656.81
445.28	1714.15
445.48	1810.40
445.69	1744.87
445.89	1865.70
446.09	1732.58
446.30	2033.63
446.50	2701.27
446.71	3678.15
446.91	4399.04
447.12	4845.49
447.32	4935.60
447.53	4460.48
447.73	4018.11
447.93	3581.90
448.14	3301.33
448.34	3194.83
448.55	2883.54
448.75	2846.68
448.96	2697.17
449.16	2373.60
449.36	2303.96
449.57	1984.48
449.77	1927.14
449.98	1818.60
450.18	1746.92
450.39	1818.60
450.59	1732.58
450.79	1646.57
451.00	1748.97
451.20	1761.25
451.41	1677.29
451.61	1722.34
451.81	1712.10
452.02	1759.21
452.22	1667.05
452.43	1761.25
452.63	1677.29
452.84	1658.85
453.04	1673.19
453.24	1773.54
453.45	1691.62
453.65	1722.34
453.86	1697.77
454.06	1683.43
454.26	1691.62
454.47	1718.25
454.67	1716.20
454.87	1763.30
455.08	1787.88
455.28	1818.60
455.49	1728.49
455.69	1697.77
455.89	1812.45
456.10	1744.87
456.30	1732.58
456.51	1767.40
456.71	1765.35
456.91	1748.97
457.12	1779.68
457.32	1738.73
457.52	1656.81
457.73	1751.01
457.93	1742.82
458.14	1658.85
458.34	1665.00
458.54	1722.34
458.75	1771.49
458.95	1804.26
459.15	1755.11
459.36	1775.59
459.56	1753.06
459.76	1794.02
459.97	1755.11
460.17	1722.34
460.37	1779.68
460.58	1742.82
460.78	1746.92
460.99	1710.05
461.19	1697.77
461.39	1689.57
461.60	1779.68
461.80	1763.30
462.00	1665.00
462.21	1751.01
462.41	1599.46
462.61	1640.42
462.82	1632.23
463.02	1705.96
463.22	1732.58
463.43	1834.98
463.63	1781.73
463.83	1775.59
464.04	1716.20
464.24	1724.39
464.44	1689.57
464.64	1705.96
464.85	1708.01
465.05	1837.03
465.25	1751.01
465.46	1718.25
465.66	1714.15
465.86	1748.97
466.07	1755.11
466.27	1654.76
466.47	1665.00
466.68	1691.62
466.88	1763.30
467.08	1779.68
467.29	1716.20
467.49	1746.92
467.69	1646.57
467.89	1669.09
468.10	1755.11
468.30	1802.21
468.50	1798.12
468.71	1712.10
468.91	1646.57
469.11	1742.82
469.31	1773.54
469.52	1699.81
469.72	1787.88
469.92	1865.70
470.13	1718.25
470.33	1767.40
470.53	1875.94
470.73	2111.46
470.94	2295.77
471.14	2346.97
471.34	2592.73
471.54	2455.51
471.75	2271.20
471.95	2154.46
472.15	1959.91
472.36	2154.46
472.56	2062.30
472.76	1966.05
472.96	2013.15
473.17	1953.76
473.37	1914.85
473.57	1845.22
473.77	1775.59
473.98	1753.06
474.18	1767.40
474.38	1923.04
474.58	1691.62
474.79	1693.67
474.99	1765.35
475.19	1779.68
475.39	1654.76
475.60	1710.05
475.80	1714.15
476.00	1753.06
476.20	1683.43
476.41	1652.71
476.61	1779.68
476.81	1693.67
477.01	1673.19
477.21	1933.28
477.42	1787.88
477.62	1718.25
477.82	1773.54
478.02	1705.96
478.23	1718.25
478.43	1636.33
478.63	1671.14
478.83	1644.52
479.03	1708.01
479.24	1755.11
479.44	1812.45
479.64	1679.33
479.84	1556.46
480.04	1642.47
480.25	1742.82
480.45	1675.24
480.65	1648.61
480.85	1818.60
481.06	1654.76
481.26	1751.01
481.46	1736.68
481.66	1783.78
481.86	1759.21
482.06	1806.31
482.27	1669.09
482.47	1783.78
482.67	1703.91
482.87	1652.71
483.07	1738.73
483.28	1697.77
483.48	1644.52
483.68	1675.24
483.88	1665.00
484.08	1624.04
484.29	1591.27
484.49	1732.58
484.69	1640.42
484.89	1757.16
485.09	1771.49
485.29	1697.77
485.50	1753.06
485.70	1693.67
485.90	1804.26
486.10	1722.34
486.30	1814.50
486.50	1757.16
486.71	1712.10
486.91	1734.63
487.11	1861.60
487.31	1716.20
487.51	1759.21
487.71	1761.25
487.91	1630.18
488.12	1628.14
488.32	1591.27
488.52	1734.63
488.72	1628.14
488.92	1677.29
489.12	1804.26
489.32	1812.45
489.53	1765.35
489.73	1587.18
489.93	1787.88
490.13	1712.10
490.33	1671.14
490.53	1757.16
490.73	1806.31
490.94	1689.57
491.14	1757.16
491.34	1826.79
491.54	2127.84
491.74	2605.02
491.94	2947.03
492.14	3018.71
492.34	2992.08
492.54	2783.19
492.75	2537.43
492.95	2389.98
493.15	2383.84
493.35	2209.76
493.55	2308.06
493.75	2093.02
493.95	2129.89
494.15	2025.44
494.35	1875.94
494.56	1755.11
494.76	1763.30
494.96	1781.73
495.16	1802.21
495.36	1755.11
495.56	1665.00
495.76	1736.68
495.96	1660.90
496.16	1710.05
496.36	1802.21
496.56	1734.63
496.77	1755.11
496.97	1701.86
497.17	1746.92
497.37	1613.80
497.57	1769.44
497.77	1693.67
497.97	1665.00
498.17	1705.96
498.37	1689.57
498.57	1804.26
498.77	1718.25
498.97	1742.82
499.17	1857.51
499.38	1718.25
499.58	1693.67
499.78	1783.78
499.98	1820.64
500.18	1724.39
500.38	1697.77
500.58	1933.28
500.78	2598.87
500.98	4595.64
501.18	6027.17
501.38	7026.58
501.58	7176.08
501.78	6676.38
501.98	5623.72
502.18	5144.50
502.38	4392.89
502.58	4192.19
502.78	3805.13
502.98	3637.19
503.18	3502.03
503.38	3219.41
503.59	2797.53
503.79	2736.09
503.99	2494.43
504.19	2238.43
504.39	2226.14
504.59	2250.72
504.79	2119.65
504.99	1939.43
505.19	1894.37
505.39	1867.75
505.59	1927.14
505.79	1853.41
505.99	1773.54
506.19	1755.11
506.39	1902.56
506.59	1759.21
506.79	1699.81
506.99	1769.44
507.19	1734.63
507.39	1771.49
507.59	1677.29
507.79	1732.58
507.99	1712.10
508.19	1775.59
508.39	1695.72
508.59	1636.33
508.79	1822.69
508.99	1757.16
509.19	1708.01
509.39	1796.07
509.59	1740.77
509.79	1726.44
509.99	1667.05
510.19	1779.68
510.39	1800.16
510.59	1710.05
510.79	1720.29
510.99	1667.05
511.19	1701.86
511.39	1796.07
511.59	1773.54
511.79	1779.68
511.99	1693.67
512.19	1748.97
512.38	1689.57
512.58	1687.53
512.78	1800.16
512.98	1757.16
513.18	1808.36
513.38	1658.85
513.58	1736.68
513.78	1677.29
513.98	1738.73
514.18	1636.33
514.38	1660.90
514.58	1755.11
514.78	1693.67
514.98	1644.52
515.18	1742.82
515.38	1724.39
515.58	1884.13
515.78	1736.68
515.98	1626.09
516.18	1730.53
516.38	1771.49
516.57	1724.39
516.77	1753.06
516.97	1767.40
517.17	1648.61
517.37	1564.65
517.57	1763.30
517.77	1773.54
517.97	1683.43
518.17	1796.07
518.37	1665.00
518.57	1716.20
518.77	1675.24
518.97	1736.68
519.16	1763.30
519.36	1724.39
519.56	1714.15
519.76	1718.25
519.96	1751.01
520.16	1777.64
520.36	1732.58
520.56	1779.68
520.76	1722.34
520.96	1671.14
521.16	1742.82
521.35	1802.21
521.55	1771.49
521.75	1734.63
521.95	1720.29
522.15	1665.00
522.35	1632.23
522.55	1714.15
522.75	1787.88
522.95	1689.57
523.14	1615.85
523.34	1640.42
523.54	1703.91
523.74	1767.40
523.94	1726.44
524.14	1605.61
524.34	1773.54
524.54	1789.92
524.73	1652.71
524.93	1771.49
525.13	1701.86
525.33	1638.38
525.53	1912.80
525.73	1730.53
525.93	1718.25
526.13	1691.62
526.32	1613.80
526.52	1783.78
526.72	1765.35
526.92	1755.11
527.12	1683.43
527.32	1703.91
527.52	1697.77
527.71	1687.53
527.91	1740.77
528.11	1734.63
528.31	1746.92
528.51	1619.94
528.71	1744.87
528.90	1851.36
529.10	1796.07
529.30	1773.54
529.50	1617.90
529.70	1703.91
529.90	1636.33
530.09	1791.97
530.29	1671.14
530.49	1681.38
530.69	1791.97
530.89	1693.67
531.09	1740.77
531.28	1703.91
531.48	1802.21
531.68	1689.57
531.88	1763.30
532.08	1804.26
532.28	1695.72
532.47	1722.34
532.67	1705.96
532.87	1724.39
533.07	1720.29
533.27	1763.30
533.46	1724.39
533.66	1755.11
533.86	1716.20
534.06	1714.15
534.26	1775.59
534.45	1755.11
534.65	1769.44
534.85	1820.64
535.05	1740.77
535.25	1738.73
535.44	1675.24
535.64	1779.68
535.84	1705.96
536.04	1693.67
536.24	1658.85
536.43	1665.00
536.63	1716.20
536.83	1660.90
537.03	1732.58
537.22	1628.14
537.42	1685.48
537.62	1646.57
537.82	1701.86
538.02	1763.30
538.21	1828.84
538.41	1826.79
538.61	1714.15
538.81	1679.33
539.00	1849.32
539.20	1632.23
539.40	1734.63
539.60	1751.01
539.79	1728.49
539.99	1751.01
540.19	1644.52
540.39	1703.91
540.58	1732.58
540.78	1804.26
540.98	1714.15
541.18	1798.12
541.37	1765.35
541.57	1642.47
541.77	1834.98
541.97	1681.38
542.16	1675.24
542.36	1720.29
542.56	1677.29
542.76	1853.41
542.95	1791.97
543.15	1697.77
543.35	1732.58
543.54	1630.18
543.74	1710.05
543.94	1841.12
544.14	1765.35
544.33	1751.01
544.53	1703.91
544.73	1734.63
544.93	1624.04
545.12	1671.14
545.32	1712.10
545.52	1779.68
545.71	1662.95
545.91	1675.24
546.11	1738.73
546.30	1746.92
546.50	1685.48
546.70	1791.97
546.90	1683.43
547.09	1697.77
547.29	1662.95
547.49	1767.40
547.68	1714.15
547.88	1699.81
548.08	1804.26
548.27	2238.43
548.47	1660.90
548.67	1689.57
548.87	1818.60
549.06	1636.33
549.26	1705.96
549.46	1779.68
549.65	1648.61
549.85	1755.11
550.05	1703.91
550.24	1652.71
550.44	1685.48
550.64	1736.68
550.83	1705.96
551.03	1785.83
551.23	1716.20
551.42	1773.54
551.62	1665.00
551.82	1761.25
552.01	1675.24
552.21	1822.69
552.41	1716.20
552.60	1771.49
552.80	1771.49
553.00	1656.81
553.19	1677.29
553.39	1822.69
553.59	1662.95
553.78	1730.53
553.98	1759.21
554.17	1685.48
554.37	1730.53
554.57	1759.21
554.76	1718.25
554.96	1648.61
555.16	1746.92
555.35	1720.29
555.55	1759.21
555.75	1775.59
555.94	1767.40
556.14	1636.33
556.33	1740.77
556.53	1732.58
556.73	1703.91
556.92	1808.36
557.12	1857.51
557.32	1808.36
557.51	1791.97
557.71	1777.64
557.90	1763.30
558.10	1810.40
558.30	1767.40
558.49	1675.24
558.69	1718.25
558.88	1794.02
559.08	1791.97
559.28	1720.29
559.47	1685.48
559.67	1734.63
559.86	1943.52
560.06	1828.84
560.26	1724.39
560.45	1785.83
560.65	1765.35
560.84	1783.78
561.04	1708.01
561.24	1691.62
561.43	1648.61
561.63	1820.64
561.82	1765.35
562.02	1751.01
562.22	1642.47
562.41	1648.61
562.61	1677.29
562.80	1644.52
563.00	1902.56
563.19	1728.49
563.39	1765.35
563.59	1751.01
563.78	1632.23
563.98	1583.08
564.17	1703.91
564.37	1726.44
564.56	1697.77
564.76	1710.05
564.96	1785.83
565.15	1738.73
565.35	1882.08
565.54	1691.62
565.74	1808.36
565.93	1808.36
566.13	1728.49
566.32	1753.06
566.52	1789.92
566.71	1677.29
566.91	1695.72
567.11	1665.00
567.30	1738.73
567.50	1710.05
567.69	1783.78
567.89	1714.15
568.08	1644.52
568.28	1673.19
568.47	1703.91
568.67	1744.87
568.86	1689.57
569.06	1787.88
569.25	1658.85
569.45	1656.81
569.64	1724.39
569.84	1710.05
570.04	1720.29
570.23	1705.96
570.43	1755.11
570.62	1687.53
570.82	1877.99
571.01	1679.33
571.21	1740.77
571.40	1628.14
571.60	1720.29
571.79	1818.60
571.99	1734.63
572.18	1615.85
572.38	1738.73
572.57	1738.73
572.77	1779.68
572.96	1826.79
573.16	1755.11
573.35	1798.12
573.55	1824.74
573.74	1845.22
573.94	1738.73
574.13	1705.96
574.33	1779.68
574.52	1748.97
574.71	1751.01
574.91	1748.97
575.10	1689.57
575.30	1679.33
575.49	1730.53
575.69	1728.49
575.88	1693.67
576.08	1720.29
576.27	1775.59
576.47	1746.92
576.66	1857.51
576.86	1814.50
577.05	1699.81
577.25	1734.63
577.44	1861.60
577.64	1705.96
577.83	1781.73
578.02	1724.39
578.22	1912.80
578.41	1890.28
578.61	1720.29
578.80	1708.01
579.00	1738.73
579.19	1751.01
579.39	1763.30
579.58	1761.25
579.77	1781.73
579.97	1804.26
580.16	1767.40
580.36	1804.26
580.55	1877.99
580.75	1767.40
580.94	1718.25
581.13	1861.60
581.33	1894.37
581.52	1742.82
581.72	1841.12
581.91	1757.16
582.11	1665.00
582.30	1757.16
582.49	1761.25
582.69	1734.63
582.88	1869.80
583.08	1771.49
583.27	1804.26
583.47	1796.07
583.66	1779.68
583.85	1665.00
584.05	1832.93
584.24	1787.88
584.44	1800.16
584.63	1820.64
584.82	1865.70
585.02	1800.16
585.21	1740.77
585.41	1775.59
585.60	1904.61
585.79	1859.56
585.99	1929.19
586.18	1847.27
586.37	2189.28
586.57	3350.48
586.76	10110.82
586.96	25276.03
587.15	35524.07
587.34	41514.37
587.54	43810.15
587.73	37735.87
587.93	27002.47
588.12	22138.54
588.31	18753.25
588.51	16957.18
588.70	15646.48
588.89	14550.82
589.09	12943.16
589.28	11280.21
589.47	9707.37
589.67	8050.57
589.86	6539.16
590.06	5035.96
590.25	3934.15
590.44	2965.46
590.64	2643.93
590.83	2299.87
591.02	2150.37
591.22	2011.11
591.41	1849.32
591.60	1785.83
591.80	1906.66
591.99	1685.48
592.18	1728.49
592.38	1751.01
592.57	1773.54
592.76	1820.64
592.96	1759.21
593.15	1712.10
593.34	1781.73
593.54	1734.63
593.73	1771.49
593.92	1763.30
594.12	1732.58
594.31	1785.83
594.50	1808.36
594.70	1837.03
594.89	1849.32
595.08	1652.71
595.28	1746.92
595.47	1910.75
595.66	1845.22
595.86	1738.73
596.05	1714.15
596.24	1665.00
596.43	1839.08
596.63	1789.92
596.82	1759.21
597.01	1712.10
597.21	1888.23
597.40	1787.88
597.59	1777.64
597.79	1761.25
597.98	1767.40
598.17	1710.05
598.36	1712.10
598.56	1738.73
598.75	1681.38
598.94	1796.07
599.14	1736.68
599.33	1734.63
599.52	1783.78
599.71	1695.72
599.91	1755.11
600.10	1761.25
600.29	1720.29
600.48	1742.82
600.68	1810.40
600.87	1718.25
601.06	1697.77
601.26	1662.95
601.45	1796.07
601.64	1703.91
601.83	1798.12
602.03	1648.61
602.22	1681.38
602.41	1755.11
602.60	1918.95
602.80	1734.63
602.99	1755.11
603.18	1701.86
603.37	1800.16
603.57	1781.73
603.76	1771.49
603.95	1814.50
604.14	1693.67
604.34	1716.20
604.53	1722.34
604.72	1665.00
604.91	1755.11
605.10	1736.68
605.30	1677.29
605.49	1806.31
605.68	1763.30
605.87	1763.30
606.07	1685.48
606.26	1746.92
606.45	1763.30
606.64	1730.53
606.84	1689.57
607.03	1728.49
607.22	1712.10
607.41	1581.03
607.60	1685.48
607.80	1791.97
607.99	1718.25
608.18	1800.16
608.37	1769.44
608.56	1671.14
608.76	1757.16
608.95	1806.31
609.14	1734.63
609.33	1771.49
609.52	1775.59
609.72	1865.70
609.91	1785.83
610.10	1660.90
610.29	1806.31
610.48	1787.88
610.68	1738.73
610.87	1683.43
611.06	1820.64
611.25	1685.48
611.44	1810.40
611.63	1701.86
611.83	1882.08
612.02	1667.05
612.21	1767.40
612.40	1615.85
612.59	1658.85
612.79	1673.19
612.98	1763.30
613.17	1800.16
613.36	1796.07
613.55	1804.26
613.74	1740.77
613.93	1699.81
614.13	1771.49
614.32	1722.34
614.51	1722.34
614.70	1728.49
614.89	1665.00
615.08	1746.92
615.28	2103.26
615.47	1632.23
615.66	1740.77
615.85	1640.42
616.04	1781.73
616.23	1777.64
616.42	1714.15
616.62	1697.77
616.81	1730.53
617.00	1781.73
617.19	1740.77
617.38	1615.85
617.57	1787.88
617.76	1740.77
617.95	1748.97
618.15	1726.44
618.34	1765.35
618.53	1611.75
618.72	1779.68
618.91	1824.74
619.10	1767.40
619.29	1753.06
619.48	1775.59
619.68	1744.87
619.87	1701.86
620.06	1636.33
620.25	1740.77
620.44	1665.00
620.63	1732.58
620.82	1783.78
621.01	1718.25
621.20	1734.63
621.39	1787.88
621.59	1718.25
621.78	1718.25
621.97	1650.66
622.16	1726.44
622.35	1724.39
622.54	1746.92
622.73	1761.25
622.92	1562.60
623.11	1767.40
623.30	1632.23
623.49	1722.34
623.68	1701.86
623.88	1837.03
624.07	1683.43
624.26	1673.19
624.45	1771.49
624.64	1724.39
624.83	1708.01
625.02	1673.19
625.21	1683.43
625.40	1724.39
625.59	1751.01
625.78	1705.96
625.97	1732.58
626.16	1802.21
626.35	1716.20
626.54	1708.01
626.74	1759.21
626.93	1771.49
627.12	1683.43
627.31	1785.83
627.50	1732.58
627.69	1769.44
627.88	1677.29
628.07	1697.77
628.26	1589.22
628.45	1646.57
628.64	1615.85
628.83	1714.15
629.02	1648.61
629.21	1718.25
629.40	1673.19
629.59	1658.85
629.78	1716.20
629.97	1730.53
630.16	1714.15
630.35	1673.19
630.54	1691.62
630.73	1734.63
630.92	1746.92
631.11	1732.58
631.30	1722.34
631.49	1787.88
631.68	1681.38
631.87	1789.92
632.06	1619.94
632.25	1863.65
632.44	1665.00
632.63	1693.67
632.82	1595.37
633.01	1667.05
633.20	1724.39
633.39	1681.38
633.58	1626.09
633.77	1720.29
633.96	1738.73
634.15	1718.25
634.34	1642.47
634.53	1771.49
634.72	1677.29
634.91	1632.23
635.10	1722.34
635.29	1777.64
635.48	1722.34
635.67	1695.72
635.86	1662.95
636.05	1767.40
636.24	1544.17
636.43	1714.15
636.62	1755.11
636.81	1624.04
637.00	1689.57
637.19	1734.63
637.38	1656.81
637.57	1681.38
637.76	1726.44
637.95	1671.14
638.14	1648.61
638.33	1720.29
638.52	1718.25
638.71	1648.61
638.89	1667.05
639.08	1775.59
639.27	1728.49
639.46	1677.29
639.65	1753.06
639.84	1740.77
640.03	1732.58
640.22	1691.62
640.41	1789.92
640.60	1753.06
640.79	1681.38
640.98	1644.52
641.17	1710.05
641.36	1724.39
641.55	1734.63
641.74	1705.96
641.92	1673.19
642.11	1667.05
642.30	1738.73
642.49	1732.58
642.68	1718.25
642.87	1738.73
643.06	1708.01
643.25	1730.53
643.44	1646.57
643.63	1710.05
643.82	1789.92
644.00	1677.29
644.19	1744.87
644.38	1691.62
644.57	1671.14
644.76	1796.07
644.95	1687.53
645.14	1748.97
645.33	1662.95
645.52	1767.40
645.71	1701.86
645.89	1644.52
646.08	1691.62
646.27	1712.10
646.46	1761.25
646.65	1621.99
646.84	1714.15
647.03	1648.61
647.22	1853.41
647.40	1726.44
647.59	1695.72
647.78	1636.33
647.97	1679.33
648.16	1693.67
648.35	1824.74
648.54	1734.63
648.73	1662.95
648.91	1726.44
649.10	1734.63
649.29	1644.52
649.48	1673.19
649.67	1675.24
649.86	1613.80
650.05	1693.67
650.23	1710.05
650.42	1679.33
650.61	1708.01
650.80	1671.14
650.99	1859.56
651.18	1712.10
651.36	1783.78
651.55	1779.68
651.74	1785.83
651.93	1665.00
652.12	1693.67
652.31	1732.58
652.49	1787.88
652.68	1640.42
652.87	1767.40
653.06	1726.44
653.25	1806.31
653.44	1675.24
653.62	1816.55
653.81	1689.57
654.00	1730.53
654.19	1742.82
654.38	1869.80
654.56	1746.92
654.75	1667.05
654.94	1755.11
655.13	1705.96
655.32	1656.81
655.51	1798.12
655.69	1648.61
655.88	1728.49
656.07	1667.05
656.26	1726.44
656.45	1626.09
656.63	1673.19
656.82	1699.81
657.01	1738.73
657.20	1771.49
657.38	1769.44
657.57	1687.53
657.76	1685.48
657.95	1708.01
658.14	1671.14
658.32	1773.54
658.51	1607.66
658.70	1751.01
658.89	1728.49
659.08	1658.85
659.26	1791.97
659.45	1687.53
659.64	1712.10
659.83	1578.98
660.01	1916.90
660.20	1757.16
660.39	1800.16
660.58	1570.79
660.76	1759.21
660.95	1677.29
661.14	1740.77
661.33	1597.42
661.51	1677.29
661.70	1691.62
661.89	1736.68
662.08	1742.82
662.26	1576.94
662.45	1699.81
662.64	1816.55
662.83	1669.09
663.01	1658.85
663.20	1642.47
663.39	1787.88
663.58	1632.23
663.76	1652.71
663.95	1779.68
664.14	1769.44
664.32	1703.91
664.51	1701.86
664.70	1662.95
664.89	1728.49
665.07	1585.13
665.26	1777.64
665.45	1665.00
665.64	1726.44
665.82	1712.10
666.01	1800.16
666.20	1638.38
666.38	1798.12
666.57	1824.74
666.76	2162.66
666.95	4650.94
667.13	10553.18
667.32	15634.19
667.51	18462.44
667.69	19521.24
667.88	18009.84
668.07	12625.73
668.25	9516.91
668.44	8316.80
668.63	7499.66
668.81	6965.14
669.00	6365.09
669.19	5664.68
669.38	5130.16
669.56	4577.21
669.75	4063.17
669.94	3373.00
670.12	2795.48
670.31	2512.86
670.50	2240.48
670.68	2127.84
670.87	1931.23
671.06	1798.12
671.24	1832.93
671.43	1779.68
671.62	1726.44
671.80	1626.09
671.99	1722.34
672.18	1802.21
672.36	1710.05
672.55	1753.06
672.74	1656.81
672.92	1665.00
673.11	1761.25
673.29	1652.71
673.48	1751.01
673.67	1644.52
673.85	1748.97
674.04	1656.81
674.23	1738.73
674.41	1759.21
674.60	1597.42
674.79	1587.18
674.97	1705.96
675.16	1726.44
675.34	1769.44
675.53	1632.23
675.72	1730.53
675.90	1794.02
676.09	1683.43
676.28	1708.01
676.46	1609.70
676.65	1722.34
676.83	1699.81
677.02	1771.49
677.21	1714.15
677.39	1740.77
677.58	1638.38
677.77	1667.05
677.95	1656.81
678.14	1677.29
678.32	1697.77
678.51	1644.52
678.70	1828.84
678.88	1654.76
679.07	1673.19
679.25	1677.29
679.44	1677.29
679.63	1685.48
679.81	1697.77
680.00	1804.26
680.18	1681.38
680.37	1755.11
680.55	1701.86
680.74	1681.38
680.93	1585.13
681.11	1724.39
681.30	1738.73
681.48	1679.33
681.67	1732.58
681.85	1769.44
682.04	1689.57
682.23	1806.31
682.41	1746.92
682.60	1640.42
682.78	1744.87
682.97	1648.61
683.15	1675.24
683.34	1654.76
683.53	1751.01
683.71	1619.94
683.90	1812.45
684.08	1781.73
684.27	1626.09
684.45	1742.82
684.64	1757.16
684.82	1660.90
685.01	1748.97
685.19	1630.18
685.38	1763.30
685.57	1796.07
685.75	1656.81
685.94	1732.58
686.12	1624.04
686.31	1660.90
686.49	1794.02
686.68	1673.19
686.86	1794.02
687.05	1689.57
687.23	1753.06
687.42	1695.72
687.60	1619.94
687.79	1671.14
687.97	1841.12
688.16	1767.40
688.34	1718.25
688.53	1626.09
688.71	1783.78
688.90	1722.34
689.08	1748.97
689.27	1589.22
689.45	1724.39
689.64	1669.09
689.82	1681.38
690.01	1718.25
690.19	1763.30
690.38	1660.90
690.56	1681.38
690.75	1679.33
690.93	1681.38
691.12	1669.09
691.30	1732.58
691.49	1685.48
691.67	1691.62
691.86	1841.12
692.04	1679.33
692.23	1708.01
692.41	1658.85
692.60	1847.27
692.78	1693.67
692.97	1697.77
693.15	1669.09
693.34	1783.78
693.52	1748.97
693.71	1681.38
693.89	1644.52
694.08	1624.04
694.26	1759.21
694.44	1736.68
694.63	1716.20
694.81	1613.80
695.00	1705.96
695.18	1759.21
695.37	1796.07
695.55	1781.73
695.74	1681.38
695.92	1638.38
696.10	1740.77
696.29	1615.85
696.47	1722.34
696.66	1644.52
696.84	1714.15
697.03	1667.05
697.21	1800.16
697.40	2301.92
697.58	1832.93
697.76	1615.85
697.95	1708.01
698.13	1656.81
698.32	1683.43
698.50	1728.49
698.68	1748.97
698.87	1716.20
699.05	1830.88
699.24	1755.11
699.42	1619.94
699.61	1734.63
699.79	1724.39
699.97	1734.63
700.16	1644.52
700.34	1708.01
700.53	1679.33
700.71	1783.78
700.89	1761.25
701.08	1566.70
701.26	1718.25
701.45	2138.08
701.63	1648.61
701.81	1738.73
702.00	1681.38
702.18	1665.00
702.37	1681.38
702.55	1660.90
702.73	1732.58
702.92	1642.47
703.10	1789.92
703.28	1714.15
703.47	1619.94
703.65	1767.40
703.84	1681.38
704.02	1640.42
704.20	1746.92
704.39	1675.24
704.57	1660.90
704.75	1834.98
704.94	1748.97
705.12	1703.91
705.30	1810.40
705.49	2254.81
705.67	4474.81
705.86	9781.10
706.04	13119.29
706.22	14944.03
706.41	15804.17
706.59	14155.56
706.77	9793.39
706.96	7640.97
707.14	6813.59
707.32	6119.33
707.51	5687.21
707.69	5040.05
707.87	4272.06
708.06	3588.04
708.24	2953.17
708.42	2467.80
708.61	2199.52
708.79	1918.95
708.97	1804.26
709.16	1800.16
709.34	1734.63
709.52	1761.25
709.71	1751.01
709.89	1730.53
710.07	1712.10
710.26	1646.57
710.44	1785.83
710.62	1662.95
710.80	1742.82
710.99	1794.02
711.17	1814.50
711.35	1697.77
711.54	1765.35
711.72	1710.05
711.90	1763.30
712.09	1671.14
712.27	1642.47
712.45	1724.39
712.63	1718.25
712.82	1662.95
713.00	1728.49
713.18	1724.39
713.37	1746.92
713.55	1742.82
713.73	1703.91
713.91	1775.59
714.10	1646.57
714.28	1695.72
714.46	1757.16
714.65	1722.34
714.83	1748.97
715.01	1761.25
715.19	1671.14
715.38	1617.90
715.56	1771.49
715.74	1675.24
715.92	1669.09
716.11	1816.55
716.29	1626.09
716.47	1695.72
716.65	1640.42
716.84	1609.70
717.02	1773.54
717.20	1597.42
717.38	1578.98
717.57	1742.82
717.75	1769.44
717.93	1593.32
718.11	1712.10
718.30	1638.38
718.48	1736.68
718.66	1671.14
718.84	1771.49
719.03	1710.05
719.21	1638.38
719.39	1757.16
719.57	1728.49
719.75	1779.68
719.94	1652.71
720.12	1755.11
720.30	1685.48
720.48	1701.86
720.67	1662.95
720.85	1607.66
721.03	1714.15
721.21	1662.95
721.39	1705.96
721.58	1738.73
721.76	1681.38
721.94	1746.92
722.12	1720.29
722.30	1755.11
722.49	1685.48
722.67	1658.85
722.85	1763.30
723.03	1630.18
723.21	1667.05
723.40	1716.20
723.58	1806.31
723.76	1705.96
723.94	1765.35
724.12	1619.94
724.30	1734.63
724.49	1775.59
724.67	1603.56
724.85	1781.73
725.03	1617.90
725.21	1746.92
725.40	1751.01
725.58	1669.09
725.76	1802.21
725.94	1681.38
726.12	1665.00
726.30	1650.66
726.49	1634.28
726.67	1669.09
726.85	1728.49
727.03	1781.73
727.21	2125.79
727.39	2938.84
727.57	3860.42
727.76	4304.83
727.94	4415.42
728.12	4495.29
728.30	3731.40
728.48	3014.61
728.66	2725.85
728.84	2523.10
729.03	2306.01
729.21	2246.62
729.39	1986.53
729.57	1869.80
729.75	1824.74
729.93	1867.75
730.11	1681.38
730.30	1677.29
730.48	1763.30
730.66	1789.92
730.84	1796.07
731.02	1699.81
731.20	1718.25
731.38	1732.58
731.56	1656.81
731.74	1652.71
731.93	1685.48
732.11	1699.81
732.29	1683.43
732.47	1677.29
732.65	1705.96
732.83	1783.78
733.01	1687.53
733.19	1693.67
733.37	1701.86
733.56	1748.97
733.74	1773.54
733.92	1834.98
734.10	1665.00
734.28	1716.20
734.46	1581.03
734.64	1679.33
734.82	1689.57
735.00	1654.76
735.18	1660.90
735.36	1665.00
735.54	1757.16
735.73	1683.43
735.91	1654.76
736.09	1755.11
736.27	1748.97
736.45	1734.63
736.63	1656.81
736.81	1660.90
736.99	1708.01
737.17	1740.77
737.35	1689.57
737.53	1701.86
737.71	1759.21
737.89	1828.84
738.07	1607.66
738.25	1589.22
738.43	1611.75
738.61	1673.19
738.80	1646.57
738.98	1599.46
739.16	1642.47
739.34	1611.75
739.52	1781.73
739.70	1640.42
739.88	1705.96
740.06	1759.21
740.24	1605.61
740.42	1734.63
740.60	1574.89
740.78	1681.38
740.96	1609.70
741.14	1665.00
741.32	1701.86
741.50	1624.04
741.68	1877.99
741.86	1726.44
742.04	1644.52
742.22	1689.57
742.40	1785.83
742.58	1662.95
742.76	1609.70
742.94	1740.77
743.12	1656.81
743.30	1693.67
743.48	1787.88
743.66	1644.52
743.84	1699.81
744.02	1701.86
744.20	1675.24
744.38	1597.42
744.56	1648.61
744.74	1742.82
744.92	1691.62
745.10	1873.89
745.28	1716.20
745.46	1757.16
745.64	1632.23
745.82	1730.53
746.00	1667.05
746.18	1724.39
746.36	1648.61
746.54	1654.76
746.72	1587.18
746.90	1648.61
747.08	1789.92
747.26	1755.11
747.44	1771.49
747.62	1746.92
747.80	1716.20
747.98	1681.38
748.15	1673.19
748.33	1785.83
748.51	1683.43
748.69	1726.44
748.87	1615.85
749.05	1652.71
749.23	1703.91
749.41	1710.05
749.59	1611.75
749.77	1800.16
749.95	1720.29
750.13	1708.01
750.31	1746.92
750.49	1689.57
750.67	1738.73
750.85	1834.98
751.03	1736.68
751.20	1824.74
751.38	1722.34
751.56	1632.23
751.74	1621.99
751.92	1652.71
752.10	1619.94
752.28	1701.86
752.46	1687.53
752.64	1685.48
752.82	1718.25
753.00	1757.16
753.18	1652.71
753.35	1632.23
753.53	1669.09
753.71	1695.72
753.89	1802.21
754.07	1761.25
754.25	1769.44
754.43	1665.00
754.61	1603.56
754.79	1669.09
754.97	1669.09
755.14	1785.83
755.32	1640.42
755.50	1675.24
755.68	1695.72
755.86	1671.14
756.04	1683.43
756.22	1611.75
756.40	1673.19
756.57	1818.60
756.75	1716.20
756.93	1720.29
757.11	1773.54
757.29	1626.09
757.47	1628.14
757.65	1703.91
757.82	1531.88
758.00	1667.05
758.18	1722.34
758.36	1646.57
758.54	1734.63
758.72	1624.04
758.90	1746.92
759.07	1720.29
759.25	1597.42
759.43	1693.67
759.61	1624.04
759.79	2232.29
759.97	1730.53
760.15	1660.90
760.32	1648.61
760.50	1611.75
760.68	1787.88
760.86	1581.03
761.04	1845.22
761.22	1765.35
761.39	1652.71
761.57	1740.77
761.75	1585.13
761.93	1728.49
762.11	1683.43
762.28	1703.91
762.46	1710.05
762.64	1767.40
762.82	1624.04
763.00	1759.21
763.18	1667.05
763.35	1697.77
763.53	1751.01
763.71	1638.38
763.89	1667.05
764.07	1652.71
764.24	1683.43
764.42	1742.82
764.60	1675.24
764.78	1677.29
764.96	1787.88
765.13	1689.57
765.31	1697.77
765.49	1722.34
765.67	1673.19
765.84	1679.33
766.02	1679.33
766.20	1601.51
766.38	1724.39
766.56	1775.59
766.73	1712.10
766.91	1746.92
767.09	1650.66
767.27	1779.68
767.44	1673.19
767.62	1695.72
767.80	1654.76
767.98	1703.91
768.15	1675.24
768.33	1638.38
768.51	1728.49
768.69	1761.25
768.87	1699.81
769.04	1628.14
769.22	1802.21
769.40	1816.55
769.58	1689.57
769.75	1785.83
769.93	1763.30
770.11	1660.90
770.28	1599.46
770.46	1728.49
770.64	1701.86
770.82	1626.09
770.99	1705.96
771.17	1730.53
771.35	1634.28
771.53	1656.81
771.70	1665.00
771.88	1658.85
772.06	1687.53
772.23	1744.87
772.41	1669.09
772.59	1685.48
772.77	1521.64
772.94	1701.86
773.12	1722.34
773.30	1699.81
773.47	1683.43
773.65	1662.95
773.83	1751.01
774.01	1689.57
774.18	1599.46
774.36	1679.33
774.54	1644.52
774.71	1812.45
774.89	1576.94
775.07	1638.38
775.24	1628.14
775.42	1669.09
775.60	1871.84
775.78	1718.25
775.95	1665.00
776.13	1695.72
776.31	1538.02
776.48	1771.49
776.66	1808.36
776.84	1650.66
777.01	1695.72
777.19	1677.29
777.37	1669.09
777.54	1681.38
777.72	1779.68
777.90	1646.57
778.07	1640.42
778.25	1863.65
778.43	1773.54
778.60	1638.38
778.78	1720.29
778.96	1716.20
779.13	1581.03
779.31	1759.21
779.49	1734.63
779.66	1714.15
779.84	1697.77
780.01	1685.48
780.19	1609.70
780.37	1699.81
780.54	1677.29
780.72	1648.61
780.90	1683.43
781.07	1685.48
781.25	1693.67
781.43	1808.36
781.60	1644.52
781.78	1742.82
781.95	1705.96
782.13	1736.68
782.31	1708.01
782.48	1656.81
782.66	1683.43
782.83	1767.40
783.01	1751.01
783.19	1710.05
783.36	1697.77
783.54	1662.95
783.72	1771.49
783.89	1626.09
784.07	1714.15
784.24	1720.29
784.42	1765.35
784.60	1671.14
784.77	1718.25
784.95	1597.42
785.12	1714.15
785.30	1712.10
785.47	1705.96
785.65	1599.46
785.83	1730.53
786.00	1617.90
786.18	1705.96
786.35	1617.90
786.53	1632.23
786.71	1679.33
786.88	1724.39
787.06	1734.63
787.23	1640.42
787.41	1638.38
787.58	1689.57
787.76	1738.73
787.94	1693.67
788.11	1681.38
788.29	1660.90
788.46	1578.98
788.64	1636.33
788.81	1753.06
788.99	1681.38
789.16	1705.96
789.34	1712.10
789.52	1769.44
789.69	1654.76
789.87	1556.46
790.04	1654.76
790.22	1689.57
790.39	1888.23
790.57	1716.20
790.74	1638.38
790.92	1804.26
791.09	1648.61
791.27	1638.38
791.44	1714.15
791.62	1632.23
791.79	1732.58
791.97	1609.70
792.15	1873.89
792.32	1732.58
792.50	1796.07
792.67	1759.21
792.85	1746.92
793.02	1687.53
793.20	1695.72
793.37	1642.47
793.55	1642.47
793.72	1630.18
793.90	1763.30
794.07	1634.28
794.25	1638.38
794.42	1796.07
794.60	1681.38
794.77	1701.86
794.95	1734.63
795.12	1681.38
795.30	1646.57
795.47	1585.13
795.65	1869.80
795.82	1708.01
796.00	1712.10
796.17	1587.18
796.34	1724.39
796.52	1724.39
796.69	1746.92
796.87	1783.78
797.04	1693.67
797.22	1753.06
797.39	1665.00
797.57	1748.97
797.74	1722.34
797.92	1796.07
798.09	1574.89
798.27	1769.44
798.44	1828.84
798.62	1656.81
798.79	1650.66
798.96	1701.86
799.14	1640.42
799.31	1794.02
799.49	1642.47
799.66	1679.33
799.84	1724.39
800.01	1691.62
800.19	1716.20
800.36	1585.13
800.53	1658.85
800.71	1697.77
800.88	1767.40
801.06	1658.85
801.23	1681.38
801.41	1699.81
801.58	1603.56
801.75	1654.76
801.93	1767.40
802.10	1734.63
802.28	1714.15
802.45	1710.05
802.63	1755.11
802.80	1763.30
802.97	1708.01
803.15	1705.96
803.32	1654.76
803.50	1636.33
803.67	1654.76
803.84	1660.90
804.02	1738.73
804.19	1697.77
804.37	1568.74
804.54	1675.24
804.71	1652.71
804.89	1753.06
805.06	1675.24
805.24	1650.66
805.41	1660.90
805.58	1589.22
805.76	1834.98
805.93	1703.91
806.10	1724.39
806.28	1730.53
806.45	1732.58
806.63	1748.97
806.80	1685.48
806.97	1665.00
807.15	1808.36
807.32	1701.86
807.49	1687.53
807.67	1632.23
807.84	1683.43
808.01	1638.38
808.19	1822.69
808.36	1834.98
808.54	1652.71
808.71	1558.50
808.88	1705.96
809.06	1738.73
809.23	1701.86
809.40	1681.38
809.58	1796.07
809.75	1636.33
809.92	1665.00
810.10	1746.92
810.27	1667.05
810.44	1703.91
810.62	1740.77
810.79	1730.53
810.96	1599.46
811.14	1632.23
811.31	1683.43
811.48	1718.25
811.66	1683.43
811.83	1759.21
812.00	1746.92
812.18	1802.21
812.35	1783.78
812.52	1640.42
812.69	1599.46
812.87	1638.38
813.04	1705.96
813.21	1701.86
813.39	1642.47
813.56	1652.71
813.73	1701.86
813.91	1595.37
814.08	1718.25
814.25	1677.29
814.42	1708.01
814.60	1591.27
814.77	1722.34
814.94	1705.96
815.12	1697.77
815.29	1761.25
815.46	1634.28
815.63	1722.34
815.81	1683.43
815.98	1665.00
816.15	1722.34
816.33	1697.77
816.50	1673.19
816.67	1636.33
816.84	1658.85
817.02	1724.39
817.19	1656.81
817.36	1685.48
817.53	1751.01
817.71	1660.90
817.88	1730.53
818.05	1667.05
818.22	1703.91
818.40	1753.06
818.57	1654.76
818.74	1701.86
818.91	1734.63
819.09	1757.16
819.26	1722.34
819.43	1681.38
819.60	1617.90
819.78	1681.38
819.95	1771.49
820.12	1595.37
820.29	1740.77
820.47	1789.92
820.64	1701.86
820.81	1648.61
820.98	1642.47
821.15	1662.95
821.33	1800.16
821.50	1630.18
821.67	1781.73
821.84	1665.00
822.02	1718.25
822.19	1728.49
822.36	1673.19
822.53	1640.42
822.70	1636.33
822.88	1656.81
823.05	1812.45
823.22	1699.81
823.39	1675.24
823.56	1708.01
823.74	1804.26
823.91	1615.85
824.08	1626.09
824.25	1621.99
824.42	1753.06
824.60	1646.57
824.77	1718.25
824.94	1712.10
825.11	1734.63
825.28	1576.94
825.45	1648.61
825.63	1687.53
825.80	1595.37
825.97	1695.72
826.14	1697.77
826.31	1613.80
826.48	1755.11
826.66	1652.71
826.83	1679.33
827.00	1771.49
827.17	1642.47
827.34	1722.34
827.51	1740.77
827.69	1658.85
827.86	1665.00
828.03	1673.19
828.20	1732.58
828.37	1648.61
828.54	1685.48
828.71	1658.85
828.89	1796.07
829.06	1742.82
829.23	1781.73
829.40	1652.71
829.57	1669.09
829.74	1597.42
829.91	1689.57
830.09	1687.53
830.26	1716.20
830.43	1843.17
830.60	1714.15
830.77	1806.31
830.94	1791.97
831.11	1787.88
831.28	1765.35
831.46	1685.48
831.63	1677.29
831.80	1722.34
831.97	1554.41
832.14	1683.43
832.31	1742.82
832.48	1671.14
832.65	1755.11
832.82	1640.42
832.99	1714.15
833.17	1691.62
833.34	1779.68
833.51	1710.05
833.68	1628.14
833.85	1742.82
834.02	1636.33
834.19	1587.18
834.36	1644.52
834.53	1753.06
834.70	1697.77
834.87	1720.29
835.04	1642.47
835.22	1648.61
835.39	1687.53
835.56	1617.90
835.73	1689.57
835.90	1716.20
836.07	1607.66
836.24	1773.54
836.41	1669.09
836.58	1634.28
836.75	1728.49
836.92	1691.62
837.09	1714.15
837.26	1626.09
837.43	1691.62
837.60	1765.35
837.77	1697.77
837.94	1669.09
838.12	1660.90
838.29	1699.81
838.46	1687.53
838.63	1589.22
838.80	1755.11
838.97	1683.43
839.14	1611.75
839.31	1710.05
839.48	1708.01
839.65	1624.04
839.82	1699.81
839.99	1736.68
840.16	1714.15
840.33	1642.47
840.50	1699.81
840.67	1718.25
840.84	1556.46
841.01	1718.25
841.18	1662.95
841.35	1632.23
841.52	1724.39
841.69	1857.51
841.86	1736.68
842.03	1746.92
842.20	1751.01
842.37	1701.86
842.54	1695.72
842.71	1617.90
842.88	1609.70
843.05	1759.21
843.22	1576.94
843.39	1753.06
843.56	1656.81
843.73	1660.90
843.90	1759.21
844.07	1720.29
844.24	1714.15
844.41	1701.86
844.58	1691.62
844.75	1740.77
844.92	1710.05
845.09	1681.38
845.26	1732.58
845.43	1734.63
845.60	1769.44
845.77	1798.12
845.94	1699.81
846.10	1685.48
846.27	1626.09
846.44	1605.61
846.61	1621.99
846.78	1771.49
846.95	1642.47
847.12	1638.38
847.29	1703.91
847.46	1701.86
847.63	1759.21
847.80	1705.96
847.97	1660.90
848.14	1826.79
848.31	1722.34
848.48	1710.05
848.65	1695.72
848.82	1546.22
848.98	1855.46
849.15	1689.57
849.32	1767.40
849.49	1783.78
849.66	1654.76
849.83	1738.73
850.00	1607.66
850.17	1685.48
850.34	1667.05
850.51	1675.24
850.68	1595.37
850.85	1800.16
851.01	1677.29
851.18	1687.53
851.35	1615.85
851.52	1681.38
851.69	1732.58
851.86	1589.22
852.03	1691.62
852.20	1726.44
852.37	1638.38
852.53	1609.70
852.70	1662.95
852.87	1701.86
853.04	1718.25
853.21	1689.57
853.38	1748.97
853.55	1742.82
853.72	1726.44
853.89	1652.71
854.05	1650.66
854.22	1695.72
854.39	1669.09
854.56	1636.33
854.73	1794.02
854.90	1660.90
855.07	1691.62
855.23	1669.09
855.40	1730.53
855.57	1654.76
855.74	1568.74
855.91	1865.70
856.08	1689.57
856.25	1679.33
856.41	1597.42
856.58	1630.18
856.75	1720.29
856.92	1615.85
857.09	1705.96
857.26	1640.42
857.42	1554.41
857.59	1722.34
857.76	1689.57
857.93	1726.44
858.10	1738.73
858.27	1646.57
858.43	1763.30
858.60	1660.90
858.77	1615.85
858.94	1619.94
859.11	1667.05
859.27	1699.81
859.44	1716.20
859.61	1839.08
859.78	1738.73
859.95	1669.09
860.12	1697.77
860.28	1810.40
860.45	1847.27
860.62	1636.33
860.79	1648.61
860.95	1646.57
861.12	1619.94
861.29	1730.53
861.46	1650.66
861.63	1609.70
861.79	1753.06
861.96	1609.70
862.13	1644.52
862.30	1695.72
862.47	1681.38
862.63	1652.71
862.80	1798.12
862.97	1742.82
863.14	1683.43
863.30	1742.82
863.47	1665.00
863.64	1777.64
863.81	1740.77
863.97	1574.89
864.14	1738.73
864.31	1699.81
864.48	1726.44
864.65	1691.62
864.81	1796.07
864.98	1804.26
865.15	1779.68
865.32	1734.63
865.48	1787.88
865.65	1763.30
865.82	1683.43
865.98	1748.97
866.15	1687.53
866.32	1687.53
866.49	1712.10
866.65	1779.68
866.82	1593.32
866.99	1769.44
867.16	1712.10
867.32	1673.19
867.49	1619.94
867.66	1716.20
867.83	1671.14
867.99	1628.14
868.16	1640.42
868.33	1650.66
868.49	1712.10
868.66	1701.86
868.83	1732.58
868.99	1775.59
869.16	1798.12
869.33	1757.16
869.50	1714.15
869.66	1759.21
869.83	1679.33
870.00	1578.98
870.16	1765.35
870.33	1636.33
870.50	1708.01
870.66	1703.91
870.83	1740.77
871.00	1697.77
871.17	1744.87
871.33	1736.68
871.50	1675.24
871.67	1665.00
871.83	1712.10
872.00	1716.20
872.17	1671.14
872.33	1769.44
872.50	1685.48
872.67	1738.73
872.83	1665.00
873.00	1644.52
873.17	1730.53
873.33	1810.40
873.50	1710.05
873.67	1658.85
873.83	1705.96
874.00	1673.19
874.16	1675.24
874.33	1673.19
874.50	1585.13
874.66	1732.58
874.83	1712.10
875.00	1775.59
875.16	1732.58
875.33	1796.07
875.50	1646.57
875.66	1644.52
875.83	1687.53
875.99	1658.85
876.16	1660.90
876.33	1562.60
876.49	1759.21
876.66	1740.77
876.83	1632.23
876.99	1613.80
877.16	1658.85
877.32	1705.96
877.49	1697.77
877.66	1615.85
877.82	1724.39
877.99	1781.73
878.15	1763.30
878.32	1718.25
878.49	1714.15
878.65	1660.90
878.82	1773.54
878.98	1642.47
879.15	1687.53
879.32	1734.63
879.48	1689.57
879.65	1574.89
879.81	1693.67
879.98	1605.61
880.15	1648.61
880.31	1761.25
880.48	1648.61
880.64	1781.73
880.81	1656.81
880.97	1814.50
881.14	1724.39
881.31	1617.90
881.47	1783.78
881.64	1591.27
881.80	1662.95
881.97	1650.66
882.13	1767.40
882.30	1624.04
882.47	1691.62
882.63	1626.09
882.80	1658.85
882.96	1685.48
883.13	1689.57
883.29	1730.53
883.46	1662.95
883.62	1765.35
883.79	1673.19
883.95	1755.11
884.12	1648.61
884.29	1751.01
884.45	1642.47
884.62	1787.88
884.78	1685.48
884.95	1769.44
885.11	1656.81
885.28	1679.33
885.44	1642.47
885.61	1755.11
885.77	1810.40
885.94	1738.73
886.10	1697.77
886.27	1687.53
886.43	1818.60
886.60	1705.96
886.76	1654.76
886.93	1671.14
887.09	1701.86
887.26	1673.19
887.42	1691.62
887.59	1738.73
887.75	1763.30
887.92	1751.01
888.08	1763.30
888.25	1699.81
888.41	1812.45
888.58	1640.42
888.74	1667.05
888.91	1644.52
>>>>>End Processed Spectral Data<<<<<
