SpectraSuite Data File
++++++++++++++++++++++++++++++++++++
Date: Mon Jun 06 14:55:17 CEST 2016
User: root
Dark Spectrum Present: No
Reference Spectrum Present: No
Number of Sampled Component Spectra: 1
Spectrometers: USB4C02835
Integration Time (usec): 100000 (USB4C02835)
Spectra Averaged: 1 (USB4C02835)
Boxcar Smoothing: 0 (USB4C02835)
Correct for Electrical Dark: No (USB4C02835)
Strobe/Lamp Enabled: No (USB4C02835)
Correct for Detector Non-linearity: No (USB4C02835)
Correct for Stray Light: No (USB4C02835)
Number of Pixels in Processed Spectrum: 3648
>>>>>Begin Processed Spectral Data<<<<<
177.47	1462.25
177.69	1462.25
177.91	1462.25
178.13	1402.86
178.36	1468.39
178.58	1656.81
178.80	1763.30
179.02	1636.33
179.24	1669.09
179.46	1705.96
179.68	1859.56
179.90	1656.81
180.13	1693.67
180.35	1597.42
180.57	1632.23
180.79	1748.97
181.01	1744.87
181.23	1738.73
181.45	1736.68
181.67	1726.44
181.90	1724.39
182.12	1669.09
182.34	1611.75
182.56	1665.00
182.78	1757.16
183.00	1675.24
183.22	1757.16
183.44	1609.70
183.66	1867.75
183.89	1728.49
184.11	1732.58
184.33	1689.57
184.55	1791.97
184.77	1701.86
184.99	1673.19
185.21	1726.44
185.43	1849.32
185.65	1695.72
185.87	1796.07
186.10	1861.60
186.32	1804.26
186.54	1769.44
186.76	1705.96
186.98	1732.58
187.20	1683.43
187.42	1765.35
187.64	1673.19
187.86	1671.14
188.08	1767.40
188.30	1691.62
188.52	1759.21
188.75	1757.16
188.97	1806.31
189.19	1624.04
189.41	1705.96
189.63	1787.88
189.85	1701.86
190.07	1701.86
190.29	1712.10
190.51	1730.53
190.73	1578.98
190.95	1773.54
191.17	1718.25
191.39	1607.66
191.61	1640.42
191.84	1638.38
192.06	1695.72
192.28	1611.75
192.50	1902.56
192.72	1689.57
192.94	1716.20
193.16	1710.05
193.38	1699.81
193.60	1583.08
193.82	1634.28
194.04	1808.36
194.26	1673.19
194.48	1646.57
194.70	1640.42
194.92	1701.86
195.14	1691.62
195.36	1605.61
195.58	1769.44
195.80	1626.09
196.02	1714.15
196.24	1646.57
196.46	1708.01
196.69	1626.09
196.91	1841.12
197.13	1693.67
197.35	1683.43
197.57	1804.26
197.79	1746.92
198.01	1667.05
198.23	1724.39
198.45	1703.91
198.67	1660.90
198.89	1714.15
199.11	1744.87
199.33	1685.48
199.55	1581.03
199.77	1681.38
199.99	1773.54
200.21	1683.43
200.43	1718.25
200.65	1554.41
200.87	1632.23
201.09	1712.10
201.31	1656.81
201.53	1742.82
201.75	1728.49
201.97	1718.25
202.19	1708.01
202.41	1693.67
202.63	1861.60
202.85	1685.48
203.07	1675.24
203.29	1693.67
203.51	1621.99
203.73	1687.53
203.95	1867.75
204.17	1628.14
204.39	1685.48
204.61	1767.40
204.83	1712.10
205.05	1701.86
205.27	1746.92
205.49	1824.74
205.71	1697.77
205.93	1689.57
206.15	1695.72
206.37	1763.30
206.59	1705.96
206.81	1621.99
207.03	1626.09
207.25	1601.51
207.47	1714.15
207.69	1626.09
207.91	1800.16
208.13	1744.87
208.34	1605.61
208.56	1630.18
208.78	1720.29
209.00	1699.81
209.22	1681.38
209.44	1667.05
209.66	1642.47
209.88	1734.63
210.10	1689.57
210.32	1742.82
210.54	1751.01
210.76	1648.61
210.98	1738.73
211.20	1527.78
211.42	1710.05
211.64	1783.78
211.86	1732.58
212.08	1736.68
212.30	1755.11
212.52	1617.90
212.74	1699.81
212.96	1638.38
213.17	1763.30
213.39	1736.68
213.61	1798.12
213.83	1683.43
214.05	1648.61
214.27	1742.82
214.49	1710.05
214.71	1687.53
214.93	1763.30
215.15	1687.53
215.37	1751.01
215.59	1615.85
215.81	1701.86
216.03	1791.97
216.24	1667.05
216.46	1693.67
216.68	1671.14
216.90	1654.76
217.12	1740.77
217.34	1728.49
217.56	1755.11
217.78	1806.31
218.00	1730.53
218.22	1728.49
218.44	1736.68
218.66	1679.33
218.87	1837.03
219.09	1650.66
219.31	1765.35
219.53	1714.15
219.75	1689.57
219.97	1679.33
220.19	1697.77
220.41	1667.05
220.63	1679.33
220.85	1753.06
221.06	1677.29
221.28	1744.87
221.50	1738.73
221.72	1705.96
221.94	1642.47
222.16	1697.77
222.38	1708.01
222.60	1730.53
222.82	1763.30
223.03	1746.92
223.25	1691.62
223.47	1738.73
223.69	1853.41
223.91	1671.14
224.13	1734.63
224.35	1665.00
224.57	1796.07
224.78	1703.91
225.00	1589.22
225.22	1693.67
225.44	1703.91
225.66	1740.77
225.88	1695.72
226.10	1746.92
226.32	1757.16
226.53	1767.40
226.75	1681.38
226.97	1679.33
227.19	1726.44
227.41	1671.14
227.63	1619.94
227.85	1583.08
228.06	1662.95
228.28	1701.86
228.50	1712.10
228.72	1673.19
228.94	1607.66
229.16	1615.85
229.37	1656.81
229.59	1621.99
229.81	1751.01
230.03	1685.48
230.25	1568.74
230.47	1642.47
230.69	1642.47
230.90	1755.11
231.12	1636.33
231.34	1679.33
231.56	1689.57
231.78	1660.90
232.00	1728.49
232.21	1644.52
232.43	1673.19
232.65	1591.27
232.87	1748.97
233.09	1599.46
233.30	1660.90
233.52	1777.64
233.74	1683.43
233.96	1681.38
234.18	1724.39
234.40	1634.28
234.61	1843.17
234.83	1660.90
235.05	1640.42
235.27	1791.97
235.49	1699.81
235.70	1658.85
235.92	1773.54
236.14	1679.33
236.36	1800.16
236.58	1640.42
236.79	1724.39
237.01	1714.15
237.23	1718.25
237.45	1757.16
237.67	1665.00
237.88	1710.05
238.10	1781.73
238.32	1597.42
238.54	1775.59
238.76	1705.96
238.97	1681.38
239.19	1656.81
239.41	1796.07
239.63	1716.20
239.85	1665.00
240.06	1615.85
240.28	1689.57
240.50	1689.57
240.72	1695.72
240.93	1667.05
241.15	1705.96
241.37	1718.25
241.59	1806.31
241.81	1628.14
242.02	1689.57
242.24	1787.88
242.46	1748.97
242.68	1683.43
242.89	1779.68
243.11	1695.72
243.33	1693.67
243.55	1746.92
243.76	1738.73
243.98	1628.14
244.20	1632.23
244.42	1675.24
244.64	1658.85
244.85	1636.33
245.07	1652.71
245.29	1681.38
245.51	1763.30
245.72	1673.19
245.94	1699.81
246.16	1660.90
246.38	1755.11
246.59	1671.14
246.81	1658.85
247.03	1677.29
247.24	1624.04
247.46	1679.33
247.68	1703.91
247.90	1714.15
248.11	1634.28
248.33	1705.96
248.55	1777.64
248.77	1697.77
248.98	1753.06
249.20	1845.22
249.42	1730.53
249.64	1798.12
249.85	1751.01
250.07	1687.53
250.29	1683.43
250.50	1738.73
250.72	1636.33
250.94	1728.49
251.16	1769.44
251.37	1746.92
251.59	1693.67
251.81	1689.57
252.02	1791.97
252.24	1634.28
252.46	1837.03
252.68	1597.42
252.89	1628.14
253.11	1624.04
253.33	1771.49
253.54	1800.16
253.76	1626.09
253.98	1665.00
254.20	1609.70
254.41	1654.76
254.63	1693.67
254.85	1632.23
255.06	1697.77
255.28	1789.92
255.50	1742.82
255.71	1685.48
255.93	1691.62
256.15	1712.10
256.36	1673.19
256.58	1710.05
256.80	1722.34
257.02	1716.20
257.23	1722.34
257.45	1591.27
257.67	1675.24
257.88	1660.90
258.10	1759.21
258.32	1679.33
258.53	1675.24
258.75	1826.79
258.97	1648.61
259.18	1685.48
259.40	1720.29
259.62	1746.92
259.83	1746.92
260.05	1759.21
260.27	1982.43
260.48	1718.25
260.70	1644.52
260.92	1673.19
261.13	1730.53
261.35	1681.38
261.57	1822.69
261.78	1638.38
262.00	1662.95
262.22	1771.49
262.43	1652.71
262.65	1632.23
262.86	1724.39
263.08	1791.97
263.30	1665.00
263.51	1644.52
263.73	1708.01
263.95	1728.49
264.16	1730.53
264.38	1636.33
264.60	1675.24
264.81	1708.01
265.03	1804.26
265.25	1736.68
265.46	1581.03
265.68	1834.98
265.89	1734.63
266.11	1615.85
266.33	1703.91
266.54	1730.53
266.76	1689.57
266.98	1718.25
267.19	1779.68
267.41	1763.30
267.62	1710.05
267.84	1685.48
268.06	1644.52
268.27	1632.23
268.49	1775.59
268.70	1736.68
268.92	1757.16
269.14	1701.86
269.35	1681.38
269.57	1691.62
269.79	1783.78
270.00	1703.91
270.22	1779.68
270.43	1693.67
270.65	1626.09
270.87	1621.99
271.08	1773.54
271.30	1691.62
271.51	1626.09
271.73	1742.82
271.95	1796.07
272.16	1730.53
272.38	1722.34
272.59	1673.19
272.81	1753.06
273.02	1730.53
273.24	1703.91
273.46	1773.54
273.67	1665.00
273.89	1628.14
274.10	1669.09
274.32	1695.72
274.54	1662.95
274.75	1773.54
274.97	1718.25
275.18	1740.77
275.40	1716.20
275.61	1691.62
275.83	1763.30
276.05	1603.56
276.26	1671.14
276.48	1726.44
276.69	1708.01
276.91	1669.09
277.12	1773.54
277.34	1722.34
277.55	1740.77
277.77	1710.05
277.99	1654.76
278.20	1724.39
278.42	1587.18
278.63	1597.42
278.85	1685.48
279.06	1677.29
279.28	1732.58
279.49	1730.53
279.71	1732.58
279.93	1687.53
280.14	1634.28
280.36	1695.72
280.57	1746.92
280.79	1785.83
281.00	1665.00
281.22	1613.80
281.43	1787.88
281.65	1540.07
281.86	1634.28
282.08	1757.16
282.29	1806.31
282.51	1599.46
282.73	1617.90
282.94	1581.03
283.16	1720.29
283.37	1765.35
283.59	1673.19
283.80	1724.39
284.02	1667.05
284.23	1742.82
284.45	1687.53
284.66	1624.04
284.88	1605.61
285.09	1763.30
285.31	1681.38
285.52	1689.57
285.74	1581.03
285.95	1783.78
286.17	1705.96
286.38	1763.30
286.60	1689.57
286.81	1687.53
287.03	1611.75
287.24	1701.86
287.46	1738.73
287.67	1722.34
287.89	1789.92
288.10	1693.67
288.32	1751.01
288.53	1794.02
288.75	1689.57
288.96	1718.25
289.18	1677.29
289.39	1703.91
289.61	1720.29
289.82	1847.27
290.04	1740.77
290.25	1683.43
290.47	1730.53
290.68	1648.61
290.90	1779.68
291.11	1632.23
291.33	1851.36
291.54	1626.09
291.76	1603.56
291.97	1689.57
292.18	1736.68
292.40	1634.28
292.61	1753.06
292.83	1818.60
293.04	1728.49
293.26	1665.00
293.47	1689.57
293.69	1648.61
293.90	1691.62
294.12	1789.92
294.33	1644.52
294.55	1769.44
294.76	1779.68
294.97	1689.57
295.19	1875.94
295.40	1603.56
295.62	1667.05
295.83	1748.97
296.05	1679.33
296.26	1687.53
296.48	1689.57
296.69	1677.29
296.90	1699.81
297.12	1820.64
297.33	1742.82
297.55	1695.72
297.76	1718.25
297.98	1705.96
298.19	1685.48
298.41	1640.42
298.62	1595.37
298.83	1783.78
299.05	1701.86
299.26	1644.52
299.48	1693.67
299.69	1759.21
299.90	1771.49
300.12	1658.85
300.33	1665.00
300.55	1742.82
300.76	1765.35
300.98	1679.33
301.19	1736.68
301.40	1697.77
301.62	1691.62
301.83	1699.81
302.05	1724.39
302.26	1650.66
302.47	1636.33
302.69	1624.04
302.90	1736.68
303.12	1677.29
303.33	1763.30
303.54	1769.44
303.76	1685.48
303.97	1716.20
304.19	1781.73
304.40	1615.85
304.61	1714.15
304.83	1800.16
305.04	1712.10
305.26	1734.63
305.47	1656.81
305.68	1660.90
305.90	1640.42
306.11	1759.21
306.33	1771.49
306.54	1687.53
306.75	1730.53
306.97	1488.87
307.18	1683.43
307.39	1648.61
307.61	1687.53
307.82	1697.77
308.04	1808.36
308.25	1665.00
308.46	1730.53
308.68	1693.67
308.89	1691.62
309.10	1718.25
309.32	1691.62
309.53	1652.71
309.74	1708.01
309.96	1611.75
310.17	1724.39
310.39	1691.62
310.60	1716.20
310.81	1660.90
311.03	1589.22
311.24	1742.82
311.45	1714.15
311.67	1769.44
311.88	1656.81
312.09	1695.72
312.31	1718.25
312.52	1765.35
312.73	1621.99
312.95	1626.09
313.16	1611.75
313.37	1785.83
313.59	1773.54
313.80	1765.35
314.01	1773.54
314.23	1697.77
314.44	1730.53
314.65	1619.94
314.87	1734.63
315.08	1695.72
315.29	1691.62
315.51	1634.28
315.72	1562.60
315.93	1787.88
316.15	1720.29
316.36	1660.90
316.57	1789.92
316.79	1722.34
317.00	1587.18
317.21	1746.92
317.43	1605.61
317.64	1736.68
317.85	1605.61
318.07	1619.94
318.28	1757.16
318.49	1705.96
318.70	1912.80
318.92	1830.88
319.13	1765.35
319.34	1853.41
319.56	1847.27
319.77	1798.12
319.98	1787.88
320.20	1716.20
320.41	1773.54
320.62	1751.01
320.83	1648.61
321.05	1828.84
321.26	1685.48
321.47	1687.53
321.69	1761.25
321.90	1593.32
322.11	1658.85
322.32	1673.19
322.54	1775.59
322.75	1718.25
322.96	1849.32
323.18	1654.76
323.39	1636.33
323.60	1660.90
323.81	1763.30
324.03	1763.30
324.24	1665.00
324.45	1705.96
324.66	1740.77
324.88	1673.19
325.09	1802.21
325.30	1732.58
325.52	1697.77
325.73	1806.31
325.94	1599.46
326.15	1634.28
326.37	1650.66
326.58	1703.91
326.79	1859.56
327.00	1632.23
327.22	1703.91
327.43	1671.14
327.64	1599.46
327.85	1705.96
328.07	1685.48
328.28	1796.07
328.49	1683.43
328.70	1679.33
328.92	1730.53
329.13	1751.01
329.34	1673.19
329.55	1773.54
329.76	1740.77
329.98	1675.24
330.19	1746.92
330.40	1705.96
330.61	1656.81
330.83	1736.68
331.04	1531.88
331.25	1701.86
331.46	1665.00
331.68	1636.33
331.89	1748.97
332.10	1708.01
332.31	1585.13
332.52	1724.39
332.74	1798.12
332.95	1619.94
333.16	1724.39
333.37	1693.67
333.58	1703.91
333.80	1763.30
334.01	1613.80
334.22	1710.05
334.43	1601.51
334.64	1714.15
334.86	1652.71
335.07	1650.66
335.28	1767.40
335.49	1660.90
335.70	1710.05
335.92	1718.25
336.13	1843.17
336.34	1726.44
336.55	1669.09
336.76	1710.05
336.98	1615.85
337.19	1726.44
337.40	1783.78
337.61	1906.66
337.82	1665.00
338.04	1789.92
338.25	1644.52
338.46	1656.81
338.67	1626.09
338.88	1615.85
339.09	1642.47
339.31	1701.86
339.52	1646.57
339.73	1640.42
339.94	1796.07
340.15	1769.44
340.36	1685.48
340.58	1708.01
340.79	1693.67
341.00	1708.01
341.21	1669.09
341.42	1779.68
341.63	1669.09
341.85	1767.40
342.06	1779.68
342.27	1599.46
342.48	1718.25
342.69	1644.52
342.90	1685.48
343.12	1673.19
343.33	1714.15
343.54	1736.68
343.75	1789.92
343.96	1724.39
344.17	1624.04
344.38	1677.29
344.60	1660.90
344.81	1656.81
345.02	1656.81
345.23	1734.63
345.44	1751.01
345.65	1820.64
345.86	1726.44
346.07	1681.38
346.29	1654.76
346.50	1755.11
346.71	1632.23
346.92	1834.98
347.13	1751.01
347.34	1744.87
347.55	1710.05
347.76	1658.85
347.98	1673.19
348.19	1642.47
348.40	1787.88
348.61	1683.43
348.82	1810.40
349.03	1765.35
349.24	1642.47
349.45	1787.88
349.66	1572.84
349.88	1722.34
350.09	1712.10
350.30	1710.05
350.51	1773.54
350.72	1724.39
350.93	1650.66
351.14	1705.96
351.35	1781.73
351.56	1669.09
351.77	1761.25
351.99	1718.25
352.20	1781.73
352.41	1800.16
352.62	1589.22
352.83	1732.58
353.04	1619.94
353.25	1652.71
353.46	1757.16
353.67	1763.30
353.88	1632.23
354.09	1648.61
354.30	1689.57
354.52	1693.67
354.73	1634.28
354.94	1634.28
355.15	1722.34
355.36	1783.78
355.57	1673.19
355.78	1781.73
355.99	1724.39
356.20	1619.94
356.41	1718.25
356.62	1693.67
356.83	1773.54
357.04	1751.01
357.25	1615.85
357.46	1673.19
357.68	1644.52
357.89	1650.66
358.10	1652.71
358.31	1671.14
358.52	1654.76
358.73	1636.33
358.94	1697.77
359.15	1695.72
359.36	1697.77
359.57	1673.19
359.78	1646.57
359.99	1689.57
360.20	1673.19
360.41	1691.62
360.62	1738.73
360.83	1683.43
361.04	1767.40
361.25	1699.81
361.46	1816.55
361.67	1703.91
361.88	1710.05
362.09	1736.68
362.30	1689.57
362.51	1769.44
362.72	1681.38
362.93	1761.25
363.14	1716.20
363.35	1628.14
363.56	1718.25
363.78	1791.97
363.99	1718.25
364.20	1564.65
364.41	1761.25
364.62	1794.02
364.83	1767.40
365.04	1638.38
365.25	1773.54
365.46	1767.40
365.67	1658.85
365.88	1705.96
366.09	1746.92
366.30	1714.15
366.51	1683.43
366.72	1595.37
366.93	1734.63
367.14	1708.01
367.35	1802.21
367.56	1611.75
367.77	1847.27
367.98	1718.25
368.18	1746.92
368.39	1738.73
368.60	1628.14
368.81	1703.91
369.02	1773.54
369.23	1724.39
369.44	1576.94
369.65	1724.39
369.86	1675.24
370.07	1652.71
370.28	1673.19
370.49	1656.81
370.70	1703.91
370.91	1621.99
371.12	1656.81
371.33	1732.58
371.54	1712.10
371.75	1939.43
371.96	1574.89
372.17	1796.07
372.38	1658.85
372.59	1787.88
372.80	1591.27
373.01	1710.05
373.22	1705.96
373.43	1693.67
373.64	1683.43
373.85	1751.01
374.06	1849.32
374.26	1730.53
374.47	1757.16
374.68	1777.64
374.89	1710.05
375.10	1628.14
375.31	1712.10
375.52	1712.10
375.73	1673.19
375.94	1648.61
376.15	1775.59
376.36	1677.29
376.57	1646.57
376.78	1648.61
376.99	1660.90
377.20	1714.15
377.40	1665.00
377.61	1765.35
377.82	1656.81
378.03	1693.67
378.24	1769.44
378.45	1662.95
378.66	1660.90
378.87	1572.84
379.08	1654.76
379.29	1640.42
379.50	1701.86
379.71	1693.67
379.91	1732.58
380.12	1660.90
380.33	1685.48
380.54	1662.95
380.75	1685.48
380.96	1669.09
381.17	1730.53
381.38	1708.01
381.59	1710.05
381.80	1697.77
382.00	1880.04
382.21	1681.38
382.42	1804.26
382.63	1920.99
382.84	1724.39
383.05	1718.25
383.26	1800.16
383.47	1685.48
383.68	1695.72
383.88	1759.21
384.09	1734.63
384.30	1769.44
384.51	1755.11
384.72	1669.09
384.93	1681.38
385.14	1755.11
385.35	1789.92
385.55	1652.71
385.76	1693.67
385.97	1769.44
386.18	1556.46
386.39	1720.29
386.60	1693.67
386.81	1658.85
387.02	1681.38
387.22	1597.42
387.43	1785.83
387.64	1751.01
387.85	1873.89
388.06	2193.37
388.27	4116.42
388.48	6762.39
388.68	7972.74
388.89	9525.10
389.10	9291.63
389.31	8411.01
389.52	7296.91
389.73	6549.40
389.93	6100.90
390.14	5697.45
390.35	5025.72
390.56	4489.15
390.77	3690.44
390.98	2947.03
391.18	2412.51
391.39	2140.13
391.60	1794.02
391.81	1748.97
392.02	1718.25
392.23	1859.56
392.43	1751.01
392.64	1779.68
392.85	1675.24
393.06	1798.12
393.27	1769.44
393.47	1673.19
393.68	1722.34
393.89	1708.01
394.10	1806.31
394.31	1726.44
394.52	1624.04
394.72	1724.39
394.93	1824.74
395.14	1699.81
395.35	1753.06
395.56	1605.61
395.76	1718.25
395.97	1748.97
396.18	1822.69
396.39	1810.40
396.60	1992.67
396.80	1820.64
397.01	1959.91
397.22	1832.93
397.43	1849.32
397.64	1687.53
397.84	1812.45
398.05	1816.55
398.26	1701.86
398.47	1740.77
398.67	1781.73
398.88	1705.96
399.09	1730.53
399.30	1697.77
399.51	1718.25
399.71	1697.77
399.92	1695.72
400.13	1720.29
400.34	1699.81
400.54	1689.57
400.75	1789.92
400.96	1773.54
401.17	1738.73
401.37	1761.25
401.58	1757.16
401.79	1734.63
402.00	1820.64
402.21	1982.43
402.41	1912.80
402.62	1982.43
402.83	1964.00
403.04	1941.47
403.24	2062.30
403.45	1787.88
403.66	1923.04
403.87	1769.44
404.07	1822.69
404.28	1908.71
404.49	1777.64
404.70	1791.97
404.90	1744.87
405.11	1822.69
405.32	1802.21
405.52	1730.53
405.73	1650.66
405.94	1595.37
406.15	1675.24
406.35	1787.88
406.56	1816.55
406.77	1708.01
406.98	1667.05
407.18	1636.33
407.39	1796.07
407.60	1693.67
407.80	1718.25
408.01	1673.19
408.22	1783.78
408.43	1771.49
408.63	1751.01
408.84	1785.83
409.05	1697.77
409.25	1617.90
409.46	1699.81
409.67	1628.14
409.88	1673.19
410.08	1699.81
410.29	1734.63
410.50	1755.11
410.70	1781.73
410.91	1660.90
411.12	1705.96
411.32	1599.46
411.53	1734.63
411.74	1785.83
411.95	1693.67
412.15	1802.21
412.36	1828.84
412.57	1800.16
412.77	1781.73
412.98	1722.34
413.19	1734.63
413.39	1810.40
413.60	1789.92
413.81	1816.55
414.01	1691.62
414.22	1748.97
414.43	1812.45
414.63	1669.09
414.84	1681.38
415.05	1699.81
415.25	1660.90
415.46	1763.30
415.67	1644.52
415.87	1736.68
416.08	1755.11
416.29	1630.18
416.49	1802.21
416.70	1791.97
416.91	1744.87
417.11	1636.33
417.32	1757.16
417.53	1755.11
417.73	1785.83
417.94	1718.25
418.15	1726.44
418.35	1665.00
418.56	1671.14
418.77	1804.26
418.97	1720.29
419.18	1675.24
419.38	1597.42
419.59	1710.05
419.80	1783.78
420.00	1685.48
420.21	1773.54
420.42	1791.97
420.62	1673.19
420.83	1671.14
421.04	1761.25
421.24	1685.48
421.45	1615.85
421.65	1718.25
421.86	1640.42
422.07	1720.29
422.27	1738.73
422.48	1738.73
422.69	1710.05
422.89	1710.05
423.10	1746.92
423.30	1642.47
423.51	1697.77
423.72	1710.05
423.92	1744.87
424.13	1644.52
424.33	1681.38
424.54	1687.53
424.75	1679.33
424.95	1837.03
425.16	1679.33
425.36	1742.82
425.57	1787.88
425.78	1773.54
425.98	1751.01
426.19	1732.58
426.39	1626.09
426.60	1695.72
426.81	1824.74
427.01	1757.16
427.22	1656.81
427.42	1568.74
427.63	1687.53
427.83	1742.82
428.04	1781.73
428.25	1722.34
428.45	1734.63
428.66	1681.38
428.86	1669.09
429.07	1652.71
429.28	1681.38
429.48	1714.15
429.69	1646.57
429.89	1724.39
430.10	1640.42
430.30	1740.77
430.51	1665.00
430.71	1662.95
430.92	1691.62
431.13	1714.15
431.33	1730.53
431.54	1728.49
431.74	1744.87
431.95	1816.55
432.15	1695.72
432.36	1716.20
432.56	1781.73
432.77	1800.16
432.98	1873.89
433.18	1710.05
433.39	1681.38
433.59	1636.33
433.80	1820.64
434.00	1888.23
434.21	1685.48
434.41	1640.42
434.62	1763.30
434.82	1683.43
435.03	1591.27
435.23	1777.64
435.44	1578.98
435.64	1665.00
435.85	1728.49
436.06	1712.10
436.26	1744.87
436.47	1699.81
436.67	1710.05
436.88	1728.49
437.08	1746.92
437.29	1820.64
437.49	1679.33
437.70	1804.26
437.90	1691.62
438.11	1804.26
438.31	1710.05
438.52	1822.69
438.72	1804.26
438.93	1892.32
439.13	1804.26
439.34	1777.64
439.54	1742.82
439.75	1748.97
439.95	1757.16
440.16	1658.85
440.36	1738.73
440.57	1744.87
440.77	1779.68
440.98	1816.55
441.18	1761.25
441.39	1650.66
441.59	1585.13
441.80	1806.31
442.00	1765.35
442.21	1679.33
442.41	1576.94
442.62	1814.50
442.82	1730.53
443.02	1746.92
443.23	1714.15
443.43	1642.47
443.64	1857.51
443.84	1665.00
444.05	1781.73
444.25	1687.53
444.46	1722.34
444.66	1771.49
444.87	1783.78
445.07	1695.72
445.28	1695.72
445.48	1759.21
445.69	1763.30
445.89	1761.25
446.09	1794.02
446.30	1935.33
446.50	2531.29
446.71	3629.00
446.91	4122.56
447.12	4620.22
447.32	4679.61
447.53	4235.20
447.73	3801.03
447.93	3368.91
448.14	3233.74
448.34	3137.49
448.55	2867.16
448.75	2820.05
448.96	2668.50
449.16	2285.53
449.36	2240.48
449.57	2029.54
449.77	1892.32
449.98	1746.92
450.18	1746.92
450.39	1822.69
450.59	1781.73
450.79	1728.49
451.00	1746.92
451.20	1794.02
451.41	1744.87
451.61	1791.97
451.81	1720.29
452.02	1742.82
452.22	1714.15
452.43	1673.19
452.63	1675.24
452.84	1763.30
453.04	1744.87
453.24	1748.97
453.45	1683.43
453.65	1734.63
453.86	1687.53
454.06	1755.11
454.26	1789.92
454.47	1671.14
454.67	1769.44
454.87	1869.80
455.08	1791.97
455.28	1902.56
455.49	1769.44
455.69	1667.05
455.89	1853.41
456.10	1726.44
456.30	1714.15
456.51	1798.12
456.71	1689.57
456.91	1710.05
457.12	1740.77
457.32	1765.35
457.52	1656.81
457.73	1763.30
457.93	1734.63
458.14	1751.01
458.34	1718.25
458.54	1738.73
458.75	1753.06
458.95	1775.59
459.15	1746.92
459.36	1681.38
459.56	1767.40
459.76	1871.84
459.97	1701.86
460.17	1777.64
460.37	1718.25
460.58	1714.15
460.78	1712.10
460.99	1767.40
461.19	1697.77
461.39	1644.52
461.60	1763.30
461.80	1730.53
462.00	1691.62
462.21	1687.53
462.41	1673.19
462.61	1746.92
462.82	1589.22
463.02	1687.53
463.22	1724.39
463.43	1767.40
463.63	1757.16
463.83	1800.16
464.04	1771.49
464.24	1660.90
464.44	1736.68
464.64	1732.58
464.85	1755.11
465.05	1755.11
465.25	1730.53
465.46	1751.01
465.66	1783.78
465.86	1837.03
466.07	1703.91
466.27	1701.86
466.47	1587.18
466.68	1619.94
466.88	1812.45
467.08	1728.49
467.29	1718.25
467.49	1787.88
467.69	1724.39
467.89	1855.46
468.10	1714.15
468.30	1689.57
468.50	1863.65
468.71	1736.68
468.91	1568.74
469.11	1824.74
469.31	1617.90
469.52	1716.20
469.72	1800.16
469.92	1861.60
470.13	1703.91
470.33	1712.10
470.53	1812.45
470.73	2086.88
470.94	2277.34
471.14	2246.62
471.34	2523.10
471.54	2320.35
471.75	2148.32
471.95	2115.55
472.15	2064.35
472.36	2015.20
472.56	2035.68
472.76	2121.70
472.96	2029.54
473.17	1943.52
473.37	1886.18
473.57	1853.41
473.77	1779.68
473.98	1763.30
474.18	1734.63
474.38	1945.57
474.58	1677.29
474.79	1681.38
474.99	1740.77
475.19	1820.64
475.39	1667.05
475.60	1699.81
475.80	1714.15
476.00	1726.44
476.20	1568.74
476.41	1746.92
476.61	1802.21
476.81	1732.58
477.01	1669.09
477.21	1775.59
477.42	1759.21
477.62	1648.61
477.82	1861.60
478.02	1644.52
478.23	1742.82
478.43	1665.00
478.63	1617.90
478.83	1689.57
479.03	1638.38
479.24	1806.31
479.44	1824.74
479.64	1726.44
479.84	1642.47
480.04	1722.34
480.25	1771.49
480.45	1685.48
480.65	1628.14
480.85	1802.21
481.06	1667.05
481.26	1755.11
481.46	1730.53
481.66	1779.68
481.86	1626.09
482.06	1834.98
482.27	1681.38
482.47	1689.57
482.67	1693.67
482.87	1671.14
483.07	1818.60
483.28	1658.85
483.48	1621.99
483.68	1689.57
483.88	1630.18
484.08	1538.02
484.29	1656.81
484.49	1636.33
484.69	1689.57
484.89	1748.97
485.09	1783.78
485.29	1736.68
485.50	1759.21
485.70	1701.86
485.90	1789.92
486.10	1806.31
486.30	1716.20
486.50	1791.97
486.71	1744.87
486.91	1755.11
487.11	1746.92
487.31	1650.66
487.51	1742.82
487.71	1646.57
487.91	1591.27
488.12	1669.09
488.32	1603.56
488.52	1705.96
488.72	1613.80
488.92	1712.10
489.12	1767.40
489.32	1693.67
489.53	1693.67
489.73	1656.81
489.93	1738.73
490.13	1689.57
490.33	1603.56
490.53	1703.91
490.73	1742.82
490.94	1601.51
491.14	1828.84
491.34	1742.82
491.54	2168.80
491.74	2566.10
491.94	2828.24
492.14	2961.36
492.34	2922.45
492.54	2719.70
492.75	2410.46
492.95	2312.16
493.15	2250.72
493.35	2349.02
493.55	2191.33
493.75	2201.57
493.95	2140.13
494.15	2029.54
494.35	1902.56
494.56	1888.23
494.76	1777.64
494.96	1808.36
495.16	1740.77
495.36	1720.29
495.56	1751.01
495.76	1699.81
495.96	1718.25
496.16	1769.44
496.36	1853.41
496.56	1703.91
496.77	1732.58
496.97	1685.48
497.17	1773.54
497.37	1628.14
497.57	1759.21
497.77	1751.01
497.97	1611.75
498.17	1761.25
498.37	1681.38
498.57	1744.87
498.77	1701.86
498.97	1798.12
499.17	1796.07
499.38	1724.39
499.58	1796.07
499.78	1796.07
499.98	1828.84
500.18	1765.35
500.38	1761.25
500.58	1902.56
500.78	2512.86
500.98	4411.32
501.18	5566.38
501.38	6565.79
501.58	6819.74
501.78	6465.44
501.98	5519.28
502.18	4865.97
502.38	4323.26
502.58	4026.31
502.78	3657.67
502.98	3526.60
503.18	3356.62
503.38	3188.69
503.59	2731.99
503.79	2688.98
503.99	2459.61
504.19	2222.05
504.39	2176.99
504.59	2109.41
504.79	2191.33
504.99	2013.15
505.19	1912.80
505.39	1837.03
505.59	1927.14
505.79	1943.52
505.99	1802.21
506.19	1814.50
506.39	1927.14
506.59	1748.97
506.79	1736.68
506.99	1855.46
507.19	1777.64
507.39	1746.92
507.59	1675.24
507.79	1689.57
507.99	1705.96
508.19	1798.12
508.39	1718.25
508.59	1759.21
508.79	1830.88
508.99	1841.12
509.19	1740.77
509.39	1775.59
509.59	1732.58
509.79	1660.90
509.99	1722.34
510.19	1767.40
510.39	1687.53
510.59	1734.63
510.79	1746.92
510.99	1755.11
511.19	1744.87
511.39	1853.41
511.59	1832.93
511.79	1808.36
511.99	1681.38
512.19	1830.88
512.38	1730.53
512.58	1701.86
512.78	1705.96
512.98	1785.83
513.18	1775.59
513.38	1632.23
513.58	1757.16
513.78	1665.00
513.98	1771.49
514.18	1722.34
514.38	1667.05
514.58	1826.79
514.78	1748.97
514.98	1722.34
515.18	1740.77
515.38	1687.53
515.58	1814.50
515.78	1726.44
515.98	1755.11
516.18	1748.97
516.38	1785.83
516.57	1697.77
516.77	1681.38
516.97	1781.73
517.17	1677.29
517.37	1572.84
517.57	1779.68
517.77	1738.73
517.97	1755.11
518.17	1824.74
518.37	1683.43
518.57	1722.34
518.77	1658.85
518.97	1736.68
519.16	1732.58
519.36	1716.20
519.56	1671.14
519.76	1736.68
519.96	1650.66
520.16	1748.97
520.36	1673.19
520.56	1785.83
520.76	1701.86
520.96	1744.87
521.16	1767.40
521.35	1814.50
521.55	1794.02
521.75	1763.30
521.95	1669.09
522.15	1775.59
522.35	1593.32
522.55	1667.05
522.75	1748.97
522.95	1695.72
523.14	1681.38
523.34	1701.86
523.54	1712.10
523.74	1812.45
523.94	1689.57
524.14	1634.28
524.34	1812.45
524.54	1791.97
524.73	1693.67
524.93	1740.77
525.13	1755.11
525.33	1712.10
525.53	1855.46
525.73	1781.73
525.93	1728.49
526.13	1720.29
526.32	1726.44
526.52	1812.45
526.72	1775.59
526.92	1665.00
527.12	1763.30
527.32	1656.81
527.52	1714.15
527.71	1720.29
527.91	1724.39
528.11	1656.81
528.31	1732.58
528.51	1687.53
528.71	1763.30
528.90	1675.24
529.10	1834.98
529.30	1814.50
529.50	1619.94
529.70	1738.73
529.90	1716.20
530.09	1710.05
530.29	1644.52
530.49	1660.90
530.69	1830.88
530.89	1796.07
531.09	1779.68
531.28	1705.96
531.48	1734.63
531.68	1675.24
531.88	1779.68
532.08	1736.68
532.28	1615.85
532.47	1734.63
532.67	1814.50
532.87	1691.62
533.07	1689.57
533.27	1765.35
533.46	1734.63
533.66	1789.92
533.86	1744.87
534.06	1748.97
534.26	1763.30
534.45	1718.25
534.65	1810.40
534.85	1779.68
535.05	1726.44
535.25	1785.83
535.44	1660.90
535.64	1728.49
535.84	1744.87
536.04	1714.15
536.24	1714.15
536.43	1722.34
536.63	1708.01
536.83	1703.91
537.03	1724.39
537.22	1708.01
537.42	1669.09
537.62	1791.97
537.82	1742.82
538.02	1755.11
538.21	1763.30
538.41	1898.47
538.61	1722.34
538.81	1705.96
539.00	1794.02
539.20	1650.66
539.40	1789.92
539.60	1689.57
539.79	1781.73
539.99	1677.29
540.19	1683.43
540.39	1746.92
540.58	1716.20
540.78	1828.84
540.98	1677.29
541.18	1769.44
541.37	1748.97
541.57	1708.01
541.77	1783.78
541.97	1646.57
542.16	1689.57
542.36	1722.34
542.56	1673.19
542.76	1853.41
542.95	1804.26
543.15	1771.49
543.35	1705.96
543.54	1757.16
543.74	1632.23
543.94	1787.88
544.14	1632.23
544.33	1726.44
544.53	1775.59
544.73	1722.34
544.93	1667.05
545.12	1718.25
545.32	1667.05
545.52	1724.39
545.71	1650.66
545.91	1777.64
546.11	1730.53
546.30	1667.05
546.50	1708.01
546.70	1738.73
546.90	1728.49
547.09	1658.85
547.29	1773.54
547.49	1761.25
547.68	1691.62
547.88	1720.29
548.08	1718.25
548.27	2111.46
548.47	1673.19
548.67	1679.33
548.87	1763.30
549.06	1693.67
549.26	1722.34
549.46	1738.73
549.65	1634.28
549.85	1771.49
550.05	1742.82
550.24	1691.62
550.44	1654.76
550.64	1748.97
550.83	1730.53
551.03	1796.07
551.23	1738.73
551.42	1791.97
551.62	1728.49
551.82	1730.53
552.01	1800.16
552.21	1796.07
552.41	1738.73
552.60	1806.31
552.80	1763.30
553.00	1683.43
553.19	1714.15
553.39	1914.85
553.59	1714.15
553.78	1734.63
553.98	1822.69
554.17	1669.09
554.37	1765.35
554.57	1818.60
554.76	1652.71
554.96	1726.44
555.16	1710.05
555.35	1767.40
555.55	1761.25
555.75	1767.40
555.94	1785.83
556.14	1669.09
556.33	1861.60
556.53	1755.11
556.73	1652.71
556.92	1839.08
557.12	1789.92
557.32	1814.50
557.51	1722.34
557.71	1847.27
557.90	1771.49
558.10	1812.45
558.30	1708.01
558.49	1716.20
558.69	1736.68
558.88	1730.53
559.08	1738.73
559.28	1681.38
559.47	1722.34
559.67	1761.25
559.86	1959.91
560.06	1724.39
560.26	1683.43
560.45	1746.92
560.65	1794.02
560.84	1808.36
561.04	1669.09
561.24	1730.53
561.43	1744.87
561.63	1849.32
561.82	1726.44
562.02	1751.01
562.22	1710.05
562.41	1701.86
562.61	1705.96
562.80	1681.38
563.00	1861.60
563.19	1699.81
563.39	1794.02
563.59	1759.21
563.78	1685.48
563.98	1587.18
564.17	1683.43
564.37	1646.57
564.56	1763.30
564.76	1671.14
564.96	1828.84
565.15	1669.09
565.35	1888.23
565.54	1710.05
565.74	1775.59
565.93	1685.48
566.13	1724.39
566.32	1699.81
566.52	1734.63
566.71	1689.57
566.91	1751.01
567.11	1710.05
567.30	1740.77
567.50	1759.21
567.69	1771.49
567.89	1738.73
568.08	1656.81
568.28	1736.68
568.47	1701.86
568.67	1787.88
568.86	1718.25
569.06	1763.30
569.25	1722.34
569.45	1658.85
569.64	1648.61
569.84	1746.92
570.04	1710.05
570.23	1710.05
570.43	1701.86
570.62	1771.49
570.82	1806.31
571.01	1683.43
571.21	1658.85
571.40	1720.29
571.60	1738.73
571.79	1726.44
571.99	1738.73
572.18	1640.42
572.38	1742.82
572.57	1708.01
572.77	1746.92
572.96	1880.04
573.16	1705.96
573.35	1734.63
573.55	1814.50
573.74	1751.01
573.94	1724.39
574.13	1640.42
574.33	1746.92
574.52	1814.50
574.71	1701.86
574.91	1728.49
575.10	1724.39
575.30	1701.86
575.49	1689.57
575.69	1736.68
575.88	1734.63
576.08	1697.77
576.27	1740.77
576.47	1716.20
576.66	1871.84
576.86	1794.02
577.05	1808.36
577.25	1824.74
577.44	1832.93
577.64	1697.77
577.83	1837.03
578.02	1736.68
578.22	1837.03
578.41	1824.74
578.61	1757.16
578.80	1730.53
579.00	1759.21
579.19	1773.54
579.39	1765.35
579.58	1726.44
579.77	1687.53
579.97	1834.98
580.16	1800.16
580.36	1820.64
580.55	1820.64
580.75	1708.01
580.94	1722.34
581.13	1855.46
581.33	1880.04
581.52	1781.73
581.72	1806.31
581.91	1841.12
582.11	1740.77
582.30	1781.73
582.49	1810.40
582.69	1816.55
582.88	1755.11
583.08	1755.11
583.27	1820.64
583.47	1726.44
583.66	1705.96
583.85	1710.05
584.05	1812.45
584.24	1728.49
584.44	1802.21
584.63	1787.88
584.82	1867.75
585.02	1822.69
585.21	1787.88
585.41	1859.56
585.60	1757.16
585.79	1916.90
585.99	1877.99
586.18	1816.55
586.37	2103.26
586.57	3282.89
586.76	9512.81
586.96	23508.63
587.15	32812.56
587.34	39271.85
587.54	40220.06
587.73	35386.85
587.93	25362.04
588.12	20717.25
588.31	17602.29
588.51	15740.69
588.70	14673.70
588.89	13670.19
589.09	12228.42
589.28	10692.44
589.47	9187.19
589.67	7737.23
589.86	6344.61
590.06	4820.92
590.25	3864.52
590.44	3065.81
590.64	2551.77
590.83	2285.53
591.02	2068.45
591.22	1923.04
591.41	1849.32
591.60	1824.74
591.80	1869.80
591.99	1769.44
592.18	1775.59
592.38	1804.26
592.57	1730.53
592.76	1763.30
592.96	1740.77
593.15	1769.44
593.34	1812.45
593.54	1746.92
593.73	1804.26
593.92	1695.72
594.12	1767.40
594.31	1834.98
594.50	1761.25
594.70	1861.60
594.89	1900.52
595.08	1656.81
595.28	1841.12
595.47	1867.75
595.66	1783.78
595.86	1644.52
596.05	1714.15
596.24	1728.49
596.43	1806.31
596.63	1830.88
596.82	1804.26
597.01	1679.33
597.21	1814.50
597.40	1708.01
597.59	1742.82
597.79	1675.24
597.98	1732.58
598.17	1775.59
598.36	1767.40
598.56	1751.01
598.75	1691.62
598.94	1787.88
599.14	1730.53
599.33	1724.39
599.52	1734.63
599.71	1773.54
599.91	1796.07
600.10	1728.49
600.29	1681.38
600.48	1804.26
600.68	1804.26
600.87	1767.40
601.06	1738.73
601.26	1671.14
601.45	1705.96
601.64	1759.21
601.83	1822.69
602.03	1701.86
602.22	1665.00
602.41	1834.98
602.60	1843.17
602.80	1771.49
602.99	1798.12
603.18	1783.78
603.37	1767.40
603.57	1744.87
603.76	1783.78
603.95	1779.68
604.14	1650.66
604.34	1593.32
604.53	1728.49
604.72	1742.82
604.91	1787.88
605.10	1832.93
605.30	1609.70
605.49	1773.54
605.68	1740.77
605.87	1783.78
606.07	1652.71
606.26	1742.82
606.45	1834.98
606.64	1804.26
606.84	1753.06
607.03	1732.58
607.22	1787.88
607.41	1736.68
607.60	1771.49
607.80	1855.46
607.99	1722.34
608.18	1712.10
608.37	1779.68
608.56	1681.38
608.76	1781.73
608.95	1910.75
609.14	1802.21
609.33	1730.53
609.52	1769.44
609.72	1746.92
609.91	1783.78
610.10	1714.15
610.29	1857.51
610.48	1781.73
610.68	1744.87
610.87	1681.38
611.06	1767.40
611.25	1744.87
611.44	1787.88
611.63	1755.11
611.83	1896.42
612.02	1640.42
612.21	1775.59
612.40	1619.94
612.59	1636.33
612.79	1650.66
612.98	1738.73
613.17	1880.04
613.36	1804.26
613.55	1644.52
613.74	1683.43
613.93	1689.57
614.13	1710.05
614.32	1734.63
614.51	1746.92
614.70	1720.29
614.89	1642.47
615.08	1742.82
615.28	2019.30
615.47	1712.10
615.66	1730.53
615.85	1724.39
616.04	1802.21
616.23	1726.44
616.42	1775.59
616.62	1771.49
616.81	1753.06
617.00	1697.77
617.19	1783.78
617.38	1667.05
617.57	1638.38
617.76	1738.73
617.95	1724.39
618.15	1794.02
618.34	1832.93
618.53	1628.14
618.72	1890.28
618.91	1734.63
619.10	1869.80
619.29	1679.33
619.48	1740.77
619.68	1644.52
619.87	1681.38
620.06	1669.09
620.25	1789.92
620.44	1708.01
620.63	1775.59
620.82	1675.24
621.01	1755.11
621.20	1771.49
621.39	1755.11
621.59	1732.58
621.78	1730.53
621.97	1742.82
622.16	1689.57
622.35	1746.92
622.54	1728.49
622.73	1734.63
622.92	1619.94
623.11	1779.68
623.30	1570.79
623.49	1779.68
623.68	1695.72
623.88	1789.92
624.07	1738.73
624.26	1675.24
624.45	1738.73
624.64	1744.87
624.83	1724.39
625.02	1656.81
625.21	1753.06
625.40	1763.30
625.59	1738.73
625.78	1685.48
625.97	1839.08
626.16	1730.53
626.35	1722.34
626.54	1683.43
626.74	1759.21
626.93	1669.09
627.12	1732.58
627.31	1712.10
627.50	1757.16
627.69	1787.88
627.88	1699.81
628.07	1693.67
628.26	1617.90
628.45	1714.15
628.64	1630.18
628.83	1673.19
629.02	1728.49
629.21	1726.44
629.40	1757.16
629.59	1605.61
629.78	1697.77
629.97	1642.47
630.16	1656.81
630.35	1675.24
630.54	1689.57
630.73	1746.92
630.92	1667.05
631.11	1634.28
631.30	1712.10
631.49	1740.77
631.68	1751.01
631.87	1679.33
632.06	1660.90
632.25	1849.32
632.44	1732.58
632.63	1716.20
632.82	1681.38
633.01	1689.57
633.20	1734.63
633.39	1564.65
633.58	1675.24
633.77	1757.16
633.96	1740.77
634.15	1656.81
634.34	1689.57
634.53	1701.86
634.72	1671.14
634.91	1605.61
635.10	1673.19
635.29	1787.88
635.48	1728.49
635.67	1744.87
635.86	1632.23
636.05	1753.06
636.24	1667.05
636.43	1732.58
636.62	1761.25
636.81	1550.31
637.00	1748.97
637.19	1763.30
637.38	1742.82
637.57	1671.14
637.76	1652.71
637.95	1732.58
638.14	1693.67
638.33	1679.33
638.52	1710.05
638.71	1644.52
638.89	1626.09
639.08	1886.18
639.27	1794.02
639.46	1726.44
639.65	1751.01
639.84	1757.16
640.03	1763.30
640.22	1722.34
640.41	1820.64
640.60	1697.77
640.79	1779.68
640.98	1697.77
641.17	1783.78
641.36	1730.53
641.55	1724.39
641.74	1679.33
641.92	1652.71
642.11	1656.81
642.30	1644.52
642.49	1652.71
642.68	1714.15
642.87	1740.77
643.06	1705.96
643.25	1789.92
643.44	1691.62
643.63	1644.52
643.82	1798.12
644.00	1644.52
644.19	1777.64
644.38	1613.80
644.57	1757.16
644.76	1695.72
644.95	1742.82
645.14	1683.43
645.33	1652.71
645.52	1654.76
645.71	1617.90
645.89	1681.38
646.08	1681.38
646.27	1677.29
646.46	1906.66
646.65	1626.09
646.84	1697.77
647.03	1646.57
647.22	1804.26
647.40	1660.90
647.59	1671.14
647.78	1632.23
647.97	1732.58
648.16	1617.90
648.35	1701.86
648.54	1742.82
648.73	1679.33
648.91	1681.38
649.10	1734.63
649.29	1669.09
649.48	1722.34
649.67	1771.49
649.86	1695.72
650.05	1710.05
650.23	1775.59
650.42	1675.24
650.61	1699.81
650.80	1744.87
650.99	1802.21
651.18	1714.15
651.36	1785.83
651.55	1693.67
651.74	1675.24
651.93	1724.39
652.12	1732.58
652.31	1667.05
652.49	1724.39
652.68	1671.14
652.87	1765.35
653.06	1630.18
653.25	1763.30
653.44	1734.63
653.62	1796.07
653.81	1710.05
654.00	1687.53
654.19	1685.48
654.38	1863.65
654.56	1708.01
654.75	1693.67
654.94	1794.02
655.13	1675.24
655.32	1703.91
655.51	1812.45
655.69	1685.48
655.88	1748.97
656.07	1695.72
656.26	1687.53
656.45	1597.42
656.63	1677.29
656.82	1712.10
657.01	1779.68
657.20	1763.30
657.38	1718.25
657.57	1734.63
657.76	1603.56
657.95	1738.73
658.14	1642.47
658.32	1691.62
658.51	1718.25
658.70	1771.49
658.89	1775.59
659.08	1710.05
659.26	1775.59
659.45	1687.53
659.64	1759.21
659.83	1703.91
660.01	1896.42
660.20	1683.43
660.39	1775.59
660.58	1560.55
660.76	1775.59
660.95	1701.86
661.14	1775.59
661.33	1644.52
661.51	1691.62
661.70	1701.86
661.89	1724.39
662.08	1781.73
662.26	1701.86
662.45	1652.71
662.64	1830.88
662.83	1761.25
663.01	1667.05
663.20	1724.39
663.39	1812.45
663.58	1652.71
663.76	1710.05
663.95	1767.40
664.14	1671.14
664.32	1662.95
664.51	1730.53
664.70	1695.72
664.89	1755.11
665.07	1687.53
665.26	1783.78
665.45	1658.85
665.64	1757.16
665.82	1716.20
666.01	1845.22
666.20	1689.57
666.38	1816.55
666.57	1912.80
666.76	2152.42
666.95	4347.84
667.13	9963.37
667.32	14681.89
667.51	17108.73
667.69	18341.61
667.88	17035.00
668.07	11831.12
668.25	9252.72
668.44	7976.84
668.63	7063.44
668.81	6653.85
669.00	6080.42
669.19	5578.67
669.38	4818.87
669.56	4519.87
669.75	3893.19
669.94	3336.14
670.12	2811.86
670.31	2467.80
670.50	2183.13
670.68	2050.02
670.87	1953.76
671.06	1818.60
671.24	1820.64
671.43	1802.21
671.62	1781.73
671.80	1714.15
671.99	1791.97
672.18	1703.91
672.36	1724.39
672.55	1720.29
672.74	1724.39
672.92	1607.66
673.11	1761.25
673.29	1693.67
673.48	1773.54
673.67	1679.33
673.85	1765.35
674.04	1730.53
674.23	1648.61
674.41	1890.28
674.60	1617.90
674.79	1648.61
674.97	1673.19
675.16	1804.26
675.34	1769.44
675.53	1662.95
675.72	1716.20
675.90	1751.01
676.09	1771.49
676.28	1691.62
676.46	1738.73
676.65	1724.39
676.83	1640.42
677.02	1699.81
677.21	1714.15
677.39	1697.77
677.58	1677.29
677.77	1673.19
677.95	1658.85
678.14	1787.88
678.32	1669.09
678.51	1689.57
678.70	1890.28
678.88	1642.47
679.07	1681.38
679.25	1775.59
679.44	1722.34
679.63	1677.29
679.81	1808.36
680.00	1703.91
680.18	1712.10
680.37	1808.36
680.55	1691.62
680.74	1693.67
680.93	1615.85
681.11	1662.95
681.30	1716.20
681.48	1640.42
681.67	1746.92
681.85	1648.61
682.04	1699.81
682.23	1691.62
682.41	1701.86
682.60	1630.18
682.78	1671.14
682.97	1671.14
683.15	1697.77
683.34	1724.39
683.53	1806.31
683.71	1611.75
683.90	1834.98
684.08	1771.49
684.27	1652.71
684.45	1794.02
684.64	1798.12
684.82	1763.30
685.01	1720.29
685.19	1648.61
685.38	1775.59
685.57	1679.33
685.75	1701.86
685.94	1712.10
686.12	1689.57
686.31	1734.63
686.49	1783.78
686.68	1671.14
686.86	1814.50
687.05	1675.24
687.23	1804.26
687.42	1677.29
687.60	1540.07
687.79	1800.16
687.97	1712.10
688.16	1834.98
688.34	1783.78
688.53	1587.18
688.71	1734.63
688.90	1798.12
689.08	1685.48
689.27	1597.42
689.45	1785.83
689.64	1738.73
689.82	1699.81
690.01	1781.73
690.19	1759.21
690.38	1759.21
690.56	1798.12
690.75	1673.19
690.93	1724.39
691.12	1667.05
691.30	1779.68
691.49	1640.42
691.67	1761.25
691.86	1771.49
692.04	1665.00
692.23	1695.72
692.41	1646.57
692.60	1828.84
692.78	1775.59
692.97	1703.91
693.15	1669.09
693.34	1841.12
693.52	1761.25
693.71	1699.81
693.89	1699.81
694.08	1640.42
694.26	1724.39
694.44	1761.25
694.63	1763.30
694.81	1581.03
695.00	1671.14
695.18	1738.73
695.37	1775.59
695.55	1724.39
695.74	1650.66
695.92	1583.08
696.10	1767.40
696.29	1720.29
696.47	1675.24
696.66	1650.66
696.84	1669.09
697.03	1791.97
697.21	1736.68
697.40	2373.60
697.58	1705.96
697.76	1679.33
697.95	1718.25
698.13	1644.52
698.32	1636.33
698.50	1761.25
698.68	1734.63
698.87	1740.77
699.05	1781.73
699.24	1771.49
699.42	1722.34
699.61	1757.16
699.79	1640.42
699.97	1730.53
700.16	1632.23
700.34	1677.29
700.53	1689.57
700.71	1808.36
700.89	1787.88
701.08	1658.85
701.26	1730.53
701.45	2152.42
701.63	1648.61
701.81	1755.11
702.00	1712.10
702.18	1636.33
702.37	1703.91
702.55	1697.77
702.73	1732.58
702.92	1693.67
703.10	1716.20
703.28	1624.04
703.47	1685.48
703.65	1781.73
703.84	1802.21
704.02	1683.43
704.20	1796.07
704.39	1673.19
704.57	1660.90
704.75	1787.88
704.94	1699.81
705.12	1667.05
705.30	1720.29
705.49	2240.48
705.67	4341.69
705.86	9127.80
706.04	12056.39
706.22	13815.60
706.41	14556.96
706.59	13252.41
706.77	9310.07
706.96	7122.84
707.14	6475.68
707.32	5701.54
707.51	5267.38
707.69	4808.63
707.87	4181.95
708.06	3422.16
708.24	2848.72
708.42	2459.61
708.61	2263.01
708.79	1914.85
708.97	1898.47
709.16	1810.40
709.34	1847.27
709.52	1724.39
709.71	1732.58
709.89	1710.05
710.07	1716.20
710.26	1665.00
710.44	1728.49
710.62	1777.64
710.80	1624.04
710.99	1755.11
711.17	1781.73
711.35	1736.68
711.54	1675.24
711.72	1785.83
711.90	1712.10
712.09	1746.92
712.27	1761.25
712.45	1732.58
712.63	1779.68
712.82	1699.81
713.00	1660.90
713.18	1722.34
713.37	1765.35
713.55	1738.73
713.73	1785.83
713.91	1738.73
714.10	1662.95
714.28	1783.78
714.46	1665.00
714.65	1722.34
714.83	1691.62
715.01	1736.68
715.19	1699.81
715.38	1632.23
715.56	1695.72
715.74	1705.96
715.92	1687.53
716.11	1808.36
716.29	1632.23
716.47	1673.19
716.65	1716.20
716.84	1605.61
717.02	1761.25
717.20	1660.90
717.38	1699.81
717.57	1716.20
717.75	1748.97
717.93	1624.04
718.11	1734.63
718.30	1695.72
718.48	1751.01
718.66	1796.07
718.84	1699.81
719.03	1708.01
719.21	1636.33
719.39	1873.89
719.57	1701.86
719.75	1828.84
719.94	1712.10
720.12	1619.94
720.30	1759.21
720.48	1796.07
720.67	1677.29
720.85	1673.19
721.03	1714.15
721.21	1677.29
721.39	1791.97
721.58	1714.15
721.76	1740.77
721.94	1734.63
722.12	1761.25
722.30	1808.36
722.49	1671.14
722.67	1673.19
722.85	1771.49
723.03	1658.85
723.21	1714.15
723.40	1617.90
723.58	1746.92
723.76	1734.63
723.94	1691.62
724.12	1705.96
724.30	1812.45
724.49	1787.88
724.67	1634.28
724.85	1800.16
725.03	1705.96
725.21	1775.59
725.40	1726.44
725.58	1650.66
725.76	1812.45
725.94	1681.38
726.12	1650.66
726.30	1644.52
726.49	1720.29
726.67	1679.33
726.85	1722.34
727.03	1789.92
727.21	2066.40
727.39	2754.52
727.57	3776.45
727.76	4081.60
727.94	4419.52
728.12	4206.53
728.30	3555.27
728.48	2885.59
728.66	2658.26
728.84	2525.15
729.03	2328.54
729.21	2189.28
729.39	1957.86
729.57	1888.23
729.75	1798.12
729.93	1875.94
730.11	1714.15
730.30	1656.81
730.48	1693.67
730.66	1781.73
730.84	1720.29
731.02	1746.92
731.20	1701.86
731.38	1701.86
731.56	1697.77
731.74	1591.27
731.93	1714.15
732.11	1730.53
732.29	1634.28
732.47	1796.07
732.65	1828.84
732.83	1824.74
733.01	1705.96
733.19	1673.19
733.37	1748.97
733.56	1691.62
733.74	1673.19
733.92	1669.09
734.10	1658.85
734.28	1804.26
734.46	1644.52
734.64	1595.37
734.82	1720.29
735.00	1640.42
735.18	1648.61
735.36	1693.67
735.54	1755.11
735.73	1681.38
735.91	1697.77
736.09	1710.05
736.27	1724.39
736.45	1708.01
736.63	1652.71
736.81	1671.14
736.99	1769.44
737.17	1824.74
737.35	1675.24
737.53	1613.80
737.71	1642.47
737.89	1806.31
738.07	1632.23
738.25	1611.75
738.43	1630.18
738.61	1677.29
738.80	1628.14
738.98	1673.19
739.16	1708.01
739.34	1665.00
739.52	1837.03
739.70	1779.68
739.88	1761.25
740.06	1806.31
740.24	1572.84
740.42	1824.74
740.60	1632.23
740.78	1683.43
740.96	1634.28
741.14	1662.95
741.32	1673.19
741.50	1607.66
741.68	1824.74
741.86	1785.83
742.04	1742.82
742.22	1624.04
742.40	1708.01
742.58	1718.25
742.76	1628.14
742.94	1699.81
743.12	1597.42
743.30	1691.62
743.48	1781.73
743.66	1601.51
743.84	1759.21
744.02	1578.98
744.20	1681.38
744.38	1675.24
744.56	1662.95
744.74	1742.82
744.92	1705.96
745.10	1794.02
745.28	1656.81
745.46	1742.82
745.64	1658.85
745.82	1714.15
746.00	1681.38
746.18	1744.87
746.36	1691.62
746.54	1654.76
746.72	1730.53
746.90	1648.61
747.08	1738.73
747.26	1660.90
747.44	1740.77
747.62	1804.26
747.80	1689.57
747.98	1724.39
748.15	1699.81
748.33	1802.21
748.51	1665.00
748.69	1689.57
748.87	1691.62
749.05	1665.00
749.23	1624.04
749.41	1689.57
749.59	1695.72
749.77	1755.11
749.95	1703.91
750.13	1605.61
750.31	1802.21
750.49	1726.44
750.67	1724.39
750.85	1810.40
751.03	1740.77
751.20	1820.64
751.38	1650.66
751.56	1689.57
751.74	1703.91
751.92	1716.20
752.10	1662.95
752.28	1789.92
752.46	1691.62
752.64	1673.19
752.82	1763.30
753.00	1777.64
753.18	1683.43
753.35	1679.33
753.53	1746.92
753.71	1650.66
753.89	1726.44
754.07	1701.86
754.25	1726.44
754.43	1660.90
754.61	1617.90
754.79	1632.23
754.97	1763.30
755.14	1716.20
755.32	1687.53
755.50	1724.39
755.68	1765.35
755.86	1576.94
756.04	1638.38
756.22	1665.00
756.40	1763.30
756.57	1841.12
756.75	1710.05
756.93	1787.88
757.11	1738.73
757.29	1650.66
757.47	1667.05
757.65	1615.85
757.82	1615.85
758.00	1654.76
758.18	1640.42
758.36	1621.99
758.54	1763.30
758.72	1648.61
758.90	1847.27
759.07	1671.14
759.25	1591.27
759.43	1693.67
759.61	1628.14
759.79	2090.98
759.97	1724.39
760.15	1701.86
760.32	1691.62
760.50	1710.05
760.68	1751.01
760.86	1593.32
761.04	1705.96
761.22	1677.29
761.39	1701.86
761.57	1732.58
761.75	1675.24
761.93	1753.06
762.11	1595.37
762.28	1673.19
762.46	1642.47
762.64	1806.31
762.82	1636.33
763.00	1728.49
763.18	1730.53
763.35	1636.33
763.53	1748.97
763.71	1628.14
763.89	1642.47
764.07	1734.63
764.24	1716.20
764.42	1699.81
764.60	1677.29
764.78	1796.07
764.96	1802.21
765.13	1691.62
765.31	1617.90
765.49	1759.21
765.67	1677.29
765.84	1689.57
766.02	1636.33
766.20	1583.08
766.38	1695.72
766.56	1763.30
766.73	1730.53
766.91	1632.23
767.09	1648.61
767.27	1710.05
767.44	1685.48
767.62	1759.21
767.80	1699.81
767.98	1628.14
768.15	1691.62
768.33	1748.97
768.51	1755.11
768.69	1744.87
768.87	1730.53
769.04	1683.43
769.22	1855.46
769.40	1761.25
769.58	1877.99
769.75	1697.77
769.93	1789.92
770.11	1697.77
770.28	1658.85
770.46	1722.34
770.64	1669.09
770.82	1650.66
770.99	1683.43
771.17	1726.44
771.35	1642.47
771.53	1697.77
771.70	1675.24
771.88	1761.25
772.06	1689.57
772.23	1740.77
772.41	1753.06
772.59	1701.86
772.77	1667.05
772.94	1693.67
773.12	1746.92
773.30	1697.77
773.47	1642.47
773.65	1617.90
773.83	1771.49
774.01	1574.89
774.18	1609.70
774.36	1699.81
774.54	1656.81
774.71	1734.63
774.89	1593.32
775.07	1669.09
775.24	1628.14
775.42	1642.47
775.60	1777.64
775.78	1628.14
775.95	1656.81
776.13	1660.90
776.31	1638.38
776.48	1607.66
776.66	1736.68
776.84	1669.09
777.01	1611.75
777.19	1642.47
777.37	1677.29
777.54	1753.06
777.72	1853.41
777.90	1726.44
778.07	1662.95
778.25	1912.80
778.43	1671.14
778.60	1718.25
778.78	1730.53
778.96	1734.63
779.13	1669.09
779.31	1794.02
779.49	1656.81
779.66	1621.99
779.84	1705.96
780.01	1656.81
780.19	1665.00
780.37	1779.68
780.54	1771.49
780.72	1662.95
780.90	1669.09
781.07	1755.11
781.25	1708.01
781.43	1759.21
781.60	1658.85
781.78	1751.01
781.95	1689.57
782.13	1615.85
782.31	1683.43
782.48	1638.38
782.66	1751.01
782.83	1826.79
783.01	1671.14
783.19	1683.43
783.36	1732.58
783.54	1687.53
783.72	1822.69
783.89	1710.05
784.07	1708.01
784.24	1734.63
784.42	1771.49
784.60	1662.95
784.77	1697.77
784.95	1587.18
785.12	1703.91
785.30	1767.40
785.47	1667.05
785.65	1626.09
785.83	1677.29
786.00	1599.46
786.18	1650.66
786.35	1671.14
786.53	1628.14
786.71	1783.78
786.88	1755.11
787.06	1699.81
787.23	1708.01
787.41	1660.90
787.58	1716.20
787.76	1705.96
787.94	1744.87
788.11	1671.14
788.29	1656.81
788.46	1656.81
788.64	1607.66
788.81	1644.52
788.99	1648.61
789.16	1644.52
789.34	1714.15
789.52	1705.96
789.69	1634.28
789.87	1607.66
790.04	1710.05
790.22	1626.09
790.39	1818.60
790.57	1652.71
790.74	1673.19
790.92	1748.97
791.09	1630.18
791.27	1724.39
791.44	1767.40
791.62	1638.38
791.79	1796.07
791.97	1648.61
792.15	1925.09
792.32	1720.29
792.50	1779.68
792.67	1759.21
792.85	1812.45
793.02	1744.87
793.20	1689.57
793.37	1591.27
793.55	1796.07
793.72	1685.48
793.90	1726.44
794.07	1646.57
794.25	1644.52
794.42	1724.39
794.60	1687.53
794.77	1734.63
794.95	1785.83
795.12	1761.25
795.30	1609.70
795.47	1566.70
795.65	1857.51
795.82	1726.44
796.00	1705.96
796.17	1695.72
796.34	1658.85
796.52	1679.33
796.69	1798.12
796.87	1802.21
797.04	1714.15
797.22	1708.01
797.39	1746.92
797.57	1693.67
797.74	1583.08
797.92	1724.39
798.09	1617.90
798.27	1804.26
798.44	1744.87
798.62	1673.19
798.79	1716.20
798.96	1718.25
799.14	1693.67
799.31	1849.32
799.49	1697.77
799.66	1654.76
799.84	1673.19
800.01	1685.48
800.19	1710.05
800.36	1595.37
800.53	1716.20
800.71	1693.67
800.88	1828.84
801.06	1652.71
801.23	1683.43
801.41	1716.20
801.58	1673.19
801.75	1681.38
801.93	1710.05
802.10	1755.11
802.28	1736.68
802.45	1662.95
802.63	1755.11
802.80	1781.73
802.97	1681.38
803.15	1679.33
803.32	1636.33
803.50	1689.57
803.67	1621.99
803.84	1665.00
804.02	1687.53
804.19	1685.48
804.37	1581.03
804.54	1673.19
804.71	1691.62
804.89	1681.38
805.06	1660.90
805.24	1681.38
805.41	1677.29
805.58	1619.94
805.76	1734.63
805.93	1644.52
806.10	1738.73
806.28	1744.87
806.45	1671.14
806.63	1720.29
806.80	1746.92
806.97	1738.73
807.15	1662.95
807.32	1673.19
807.49	1679.33
807.67	1587.18
807.84	1675.24
808.01	1597.42
808.19	1865.70
808.36	1826.79
808.54	1665.00
808.71	1636.33
808.88	1650.66
809.06	1742.82
809.23	1742.82
809.40	1665.00
809.58	1714.15
809.75	1640.42
809.92	1720.29
810.10	1755.11
810.27	1705.96
810.44	1820.64
810.62	1673.19
810.79	1763.30
810.96	1738.73
811.14	1748.97
811.31	1734.63
811.48	1734.63
811.66	1624.04
811.83	1775.59
812.00	1607.66
812.18	1695.72
812.35	1880.04
812.52	1673.19
812.69	1621.99
812.87	1656.81
813.04	1691.62
813.21	1755.11
813.39	1718.25
813.56	1658.85
813.73	1744.87
813.91	1638.38
814.08	1714.15
814.25	1720.29
814.42	1667.05
814.60	1632.23
814.77	1730.53
814.94	1716.20
815.12	1722.34
815.29	1732.58
815.46	1597.42
815.63	1710.05
815.81	1738.73
815.98	1646.57
816.15	1605.61
816.33	1693.67
816.50	1787.88
816.67	1646.57
816.84	1667.05
817.02	1583.08
817.19	1642.47
817.36	1730.53
817.53	1720.29
817.71	1628.14
817.88	1789.92
818.05	1718.25
818.22	1697.77
818.40	1755.11
818.57	1658.85
818.74	1701.86
818.91	1619.94
819.09	1787.88
819.26	1753.06
819.43	1718.25
819.60	1724.39
819.78	1755.11
819.95	1728.49
820.12	1656.81
820.29	1710.05
820.47	1775.59
820.64	1681.38
820.81	1669.09
820.98	1689.57
821.15	1689.57
821.33	1742.82
821.50	1574.89
821.67	1728.49
821.84	1683.43
822.02	1759.21
822.19	1767.40
822.36	1683.43
822.53	1621.99
822.70	1710.05
822.88	1642.47
823.05	1769.44
823.22	1638.38
823.39	1746.92
823.56	1742.82
823.74	1806.31
823.91	1669.09
824.08	1652.71
824.25	1650.66
824.42	1716.20
824.60	1681.38
824.77	1654.76
824.94	1712.10
825.11	1779.68
825.28	1570.79
825.45	1730.53
825.63	1685.48
825.80	1695.72
825.97	1744.87
826.14	1757.16
826.31	1558.50
826.48	1714.15
826.66	1671.14
826.83	1765.35
827.00	1779.68
827.17	1681.38
827.34	1652.71
827.51	1656.81
827.69	1691.62
827.86	1644.52
828.03	1677.29
828.20	1677.29
828.37	1615.85
828.54	1734.63
828.71	1542.12
828.89	1746.92
829.06	1728.49
829.23	1681.38
829.40	1642.47
829.57	1667.05
829.74	1703.91
829.91	1738.73
830.09	1583.08
830.26	1701.86
830.43	1779.68
830.60	1636.33
830.77	1753.06
830.94	1718.25
831.11	1779.68
831.28	1636.33
831.46	1785.83
831.63	1685.48
831.80	1738.73
831.97	1665.00
832.14	1693.67
832.31	1736.68
832.48	1710.05
832.65	1701.86
832.82	1724.39
832.99	1654.76
833.17	1658.85
833.34	1738.73
833.51	1697.77
833.68	1599.46
833.85	1742.82
834.02	1705.96
834.19	1642.47
834.36	1699.81
834.53	1673.19
834.70	1757.16
834.87	1746.92
835.04	1708.01
835.22	1626.09
835.39	1603.56
835.56	1619.94
835.73	1697.77
835.90	1800.16
836.07	1615.85
836.24	1753.06
836.41	1714.15
836.58	1656.81
836.75	1697.77
836.92	1685.48
837.09	1701.86
837.26	1746.92
837.43	1736.68
837.60	1738.73
837.77	1712.10
837.94	1718.25
838.12	1757.16
838.29	1677.29
838.46	1619.94
838.63	1662.95
838.80	1771.49
838.97	1759.21
839.14	1732.58
839.31	1675.24
839.48	1777.64
839.65	1677.29
839.82	1722.34
839.99	1783.78
840.16	1736.68
840.33	1648.61
840.50	1755.11
840.67	1662.95
840.84	1628.14
841.01	1705.96
841.18	1716.20
841.35	1640.42
841.52	1753.06
841.69	1804.26
841.86	1624.04
842.03	1644.52
842.20	1708.01
842.37	1677.29
842.54	1675.24
842.71	1634.28
842.88	1619.94
843.05	1724.39
843.22	1626.09
843.39	1728.49
843.56	1667.05
843.73	1683.43
843.90	1675.24
844.07	1724.39
844.24	1794.02
844.41	1773.54
844.58	1738.73
844.75	1662.95
844.92	1767.40
845.09	1650.66
845.26	1697.77
845.43	1669.09
845.60	1658.85
845.77	1812.45
845.94	1699.81
846.10	1777.64
846.27	1658.85
846.44	1632.23
846.61	1642.47
846.78	1728.49
846.95	1681.38
847.12	1681.38
847.29	1662.95
847.46	1611.75
847.63	1699.81
847.80	1748.97
847.97	1642.47
848.14	1816.55
848.31	1613.80
848.48	1595.37
848.65	1697.77
848.82	1665.00
848.98	1783.78
849.15	1695.72
849.32	1785.83
849.49	1751.01
849.66	1718.25
849.83	1638.38
850.00	1636.33
850.17	1679.33
850.34	1734.63
850.51	1587.18
850.68	1712.10
850.85	1857.51
851.01	1689.57
851.18	1728.49
851.35	1685.48
851.52	1728.49
851.69	1789.92
851.86	1617.90
852.03	1697.77
852.20	1736.68
852.37	1720.29
852.53	1669.09
852.70	1730.53
852.87	1626.09
853.04	1748.97
853.21	1677.29
853.38	1789.92
853.55	1722.34
853.72	1853.41
853.89	1617.90
854.05	1632.23
854.22	1673.19
854.39	1677.29
854.56	1734.63
854.73	1798.12
854.90	1626.09
855.07	1681.38
855.23	1617.90
855.40	1626.09
855.57	1677.29
855.74	1558.50
855.91	1810.40
856.08	1660.90
856.25	1605.61
856.41	1650.66
856.58	1679.33
856.75	1615.85
856.92	1656.81
857.09	1718.25
857.26	1587.18
857.42	1642.47
857.59	1771.49
857.76	1714.15
857.93	1691.62
858.10	1722.34
858.27	1652.71
858.43	1697.77
858.60	1669.09
858.77	1632.23
858.94	1636.33
859.11	1697.77
859.27	1683.43
859.44	1716.20
859.61	1820.64
859.78	1826.79
859.95	1699.81
860.12	1593.32
860.28	1791.97
860.45	1828.84
860.62	1656.81
860.79	1671.14
860.95	1644.52
861.12	1660.90
861.29	1673.19
861.46	1566.70
861.63	1673.19
861.79	1705.96
861.96	1624.04
862.13	1652.71
862.30	1820.64
862.47	1665.00
862.63	1675.24
862.80	1705.96
862.97	1728.49
863.14	1720.29
863.30	1767.40
863.47	1667.05
863.64	1691.62
863.81	1665.00
863.97	1732.58
864.14	1718.25
864.31	1654.76
864.48	1652.71
864.65	1685.48
864.81	1718.25
864.98	1697.77
865.15	1716.20
865.32	1738.73
865.48	1781.73
865.65	1742.82
865.82	1703.91
865.98	1751.01
866.15	1851.36
866.32	1652.71
866.49	1714.15
866.65	1722.34
866.82	1660.90
866.99	1667.05
867.16	1681.38
867.32	1703.91
867.49	1746.92
867.66	1722.34
867.83	1621.99
867.99	1574.89
868.16	1665.00
868.33	1671.14
868.49	1611.75
868.66	1689.57
868.83	1683.43
868.99	1712.10
869.16	1773.54
869.33	1724.39
869.50	1714.15
869.66	1656.81
869.83	1689.57
870.00	1636.33
870.16	1681.38
870.33	1646.57
870.50	1822.69
870.66	1802.21
870.83	1800.16
871.00	1744.87
871.17	1611.75
871.33	1738.73
871.50	1658.85
871.67	1740.77
871.83	1673.19
872.00	1783.78
872.17	1722.34
872.33	1751.01
872.50	1755.11
872.67	1714.15
872.83	1730.53
873.00	1759.21
873.17	1771.49
873.33	1718.25
873.50	1763.30
873.67	1656.81
873.83	1621.99
874.00	1751.01
874.16	1810.40
874.33	1728.49
874.50	1581.03
874.66	1806.31
874.83	1705.96
875.00	1724.39
875.16	1738.73
875.33	1761.25
875.50	1644.52
875.66	1656.81
875.83	1748.97
875.99	1800.16
876.16	1753.06
876.33	1712.10
876.49	1730.53
876.66	1744.87
876.83	1679.33
876.99	1542.12
877.16	1658.85
877.32	1742.82
877.49	1673.19
877.66	1755.11
877.82	1798.12
877.99	1687.53
878.15	1718.25
878.32	1669.09
878.49	1810.40
878.65	1736.68
878.82	1796.07
878.98	1642.47
879.15	1744.87
879.32	1710.05
879.48	1808.36
879.65	1703.91
879.81	1656.81
879.98	1646.57
880.15	1669.09
880.31	1822.69
880.48	1630.18
880.64	1703.91
880.81	1732.58
880.97	1841.12
881.14	1822.69
881.31	1581.03
881.47	1886.18
881.64	1660.90
881.80	1566.70
881.97	1712.10
882.13	1806.31
882.30	1675.24
882.47	1673.19
882.63	1677.29
882.80	1654.76
882.96	1675.24
883.13	1730.53
883.29	1759.21
883.46	1724.39
883.62	1757.16
883.79	1703.91
883.95	1746.92
884.12	1699.81
884.29	1746.92
884.45	1667.05
884.62	1751.01
884.78	1632.23
884.95	1783.78
885.11	1658.85
885.28	1677.29
885.44	1718.25
885.61	1695.72
885.77	1789.92
885.94	1689.57
886.10	1671.14
886.27	1716.20
886.43	1798.12
886.60	1785.83
886.76	1646.57
886.93	1587.18
887.09	1712.10
887.26	1591.27
887.42	1751.01
887.59	1714.15
887.75	1785.83
887.92	1777.64
888.08	1734.63
888.25	1783.78
888.41	1740.77
888.58	1673.19
888.74	1624.04
888.91	1652.71
>>>>>End Processed Spectral Data<<<<<
