SpectraSuite Data File
++++++++++++++++++++++++++++++++++++
Date: Mon Jun 06 13:49:17 CEST 2016
User: root
Dark Spectrum Present: No
Reference Spectrum Present: No
Number of Sampled Component Spectra: 1
Spectrometers: USB4C02835
Integration Time (usec): 100000 (USB4C02835)
Spectra Averaged: 1 (USB4C02835)
Boxcar Smoothing: 0 (USB4C02835)
Correct for Electrical Dark: No (USB4C02835)
Strobe/Lamp Enabled: No (USB4C02835)
Correct for Detector Non-linearity: No (USB4C02835)
Correct for Stray Light: No (USB4C02835)
Number of Pixels in Processed Spectrum: 3648
>>>>>Begin Processed Spectral Data<<<<<
177.47	1495.02
177.69	1495.02
177.91	1495.02
178.13	1488.87
178.36	1445.87
178.58	1656.81
178.80	1712.10
179.02	1540.07
179.24	1667.05
179.46	1732.58
179.68	1757.16
179.90	1683.43
180.13	1728.49
180.35	1667.05
180.57	1701.86
180.79	1742.82
181.01	1681.38
181.23	1708.01
181.45	1734.63
181.67	1712.10
181.90	1765.35
182.12	1697.77
182.34	1638.38
182.56	1746.92
182.78	1724.39
183.00	1734.63
183.22	1720.29
183.44	1644.52
183.66	1837.03
183.89	1720.29
184.11	1718.25
184.33	1669.09
184.55	1755.11
184.77	1703.91
184.99	1683.43
185.21	1716.20
185.43	1861.60
185.65	1718.25
185.87	1730.53
186.10	1808.36
186.32	1812.45
186.54	1794.02
186.76	1714.15
186.98	1785.83
187.20	1724.39
187.42	1679.33
187.64	1736.68
187.86	1703.91
188.08	1800.16
188.30	1636.33
188.52	1736.68
188.75	1736.68
188.97	1812.45
189.19	1726.44
189.41	1669.09
189.63	1695.72
189.85	1658.85
190.07	1703.91
190.29	1665.00
190.51	1751.01
190.73	1617.90
190.95	1806.31
191.17	1736.68
191.39	1587.18
191.61	1675.24
191.84	1648.61
192.06	1771.49
192.28	1662.95
192.50	1904.61
192.72	1710.05
192.94	1656.81
193.16	1740.77
193.38	1738.73
193.60	1662.95
193.82	1673.19
194.04	1722.34
194.26	1693.67
194.48	1785.83
194.70	1675.24
194.92	1671.14
195.14	1736.68
195.36	1671.14
195.58	1644.52
195.80	1697.77
196.02	1667.05
196.24	1701.86
196.46	1695.72
196.69	1673.19
196.91	1816.55
197.13	1708.01
197.35	1648.61
197.57	1740.77
197.79	1728.49
198.01	1683.43
198.23	1701.86
198.45	1712.10
198.67	1671.14
198.89	1658.85
199.11	1658.85
199.33	1683.43
199.55	1632.23
199.77	1679.33
199.99	1839.08
200.21	1644.52
200.43	1757.16
200.65	1583.08
200.87	1621.99
201.09	1648.61
201.31	1708.01
201.53	1757.16
201.75	1763.30
201.97	1708.01
202.19	1722.34
202.41	1714.15
202.63	1804.26
202.85	1712.10
203.07	1730.53
203.29	1687.53
203.51	1712.10
203.73	1634.28
203.95	1853.41
204.17	1665.00
204.39	1685.48
204.61	1708.01
204.83	1673.19
205.05	1765.35
205.27	1765.35
205.49	1771.49
205.71	1742.82
205.93	1634.28
206.15	1638.38
206.37	1761.25
206.59	1755.11
206.81	1626.09
207.03	1679.33
207.25	1660.90
207.47	1714.15
207.69	1652.71
207.91	1798.12
208.13	1773.54
208.34	1648.61
208.56	1607.66
208.78	1722.34
209.00	1691.62
209.22	1640.42
209.44	1611.75
209.66	1691.62
209.88	1665.00
210.10	1648.61
210.32	1753.06
210.54	1771.49
210.76	1675.24
210.98	1837.03
211.20	1650.66
211.42	1619.94
211.64	1699.81
211.86	1708.01
212.08	1683.43
212.30	1648.61
212.52	1703.91
212.74	1660.90
212.96	1742.82
213.17	1705.96
213.39	1697.77
213.61	1820.64
213.83	1656.81
214.05	1574.89
214.27	1714.15
214.49	1628.14
214.71	1611.75
214.93	1800.16
215.15	1746.92
215.37	1789.92
215.59	1583.08
215.81	1736.68
216.03	1687.53
216.24	1701.86
216.46	1656.81
216.68	1720.29
216.90	1755.11
217.12	1773.54
217.34	1652.71
217.56	1779.68
217.78	1800.16
218.00	1732.58
218.22	1691.62
218.44	1665.00
218.66	1619.94
218.87	1798.12
219.09	1695.72
219.31	1808.36
219.53	1785.83
219.75	1626.09
219.97	1683.43
220.19	1738.73
220.41	1812.45
220.63	1771.49
220.85	1644.52
221.06	1644.52
221.28	1734.63
221.50	1802.21
221.72	1683.43
221.94	1708.01
222.16	1671.14
222.38	1796.07
222.60	1720.29
222.82	1710.05
223.03	1726.44
223.25	1609.70
223.47	1693.67
223.69	1806.31
223.91	1734.63
224.13	1753.06
224.35	1730.53
224.57	1757.16
224.78	1769.44
225.00	1628.14
225.22	1722.34
225.44	1695.72
225.66	1742.82
225.88	1607.66
226.10	1845.22
226.32	1773.54
226.53	1689.57
226.75	1640.42
226.97	1701.86
227.19	1697.77
227.41	1613.80
227.63	1626.09
227.85	1662.95
228.06	1685.48
228.28	1755.11
228.50	1781.73
228.72	1632.23
228.94	1703.91
229.16	1593.32
229.37	1566.70
229.59	1615.85
229.81	1798.12
230.03	1673.19
230.25	1619.94
230.47	1662.95
230.69	1585.13
230.90	1740.77
231.12	1642.47
231.34	1716.20
231.56	1798.12
231.78	1681.38
232.00	1685.48
232.21	1722.34
232.43	1632.23
232.65	1650.66
232.87	1732.58
233.09	1605.61
233.30	1701.86
233.52	1736.68
233.74	1652.71
233.96	1718.25
234.18	1740.77
234.40	1671.14
234.61	1845.22
234.83	1624.04
235.05	1589.22
235.27	1806.31
235.49	1796.07
235.70	1689.57
235.92	1771.49
236.14	1751.01
236.36	1882.08
236.58	1693.67
236.79	1714.15
237.01	1728.49
237.23	1701.86
237.45	1794.02
237.67	1667.05
237.88	1689.57
238.10	1808.36
238.32	1689.57
238.54	1718.25
238.76	1714.15
238.97	1615.85
239.19	1681.38
239.41	1695.72
239.63	1705.96
239.85	1640.42
240.06	1693.67
240.28	1695.72
240.50	1740.77
240.72	1701.86
240.93	1656.81
241.15	1806.31
241.37	1689.57
241.59	1728.49
241.81	1656.81
242.02	1724.39
242.24	1712.10
242.46	1746.92
242.68	1681.38
242.89	1726.44
243.11	1734.63
243.33	1660.90
243.55	1687.53
243.76	1705.96
243.98	1687.53
244.20	1755.11
244.42	1740.77
244.64	1683.43
244.85	1636.33
245.07	1689.57
245.29	1757.16
245.51	1763.30
245.72	1712.10
245.94	1693.67
246.16	1701.86
246.38	1734.63
246.59	1681.38
246.81	1673.19
247.03	1640.42
247.24	1644.52
247.46	1648.61
247.68	1689.57
247.90	1644.52
248.11	1656.81
248.33	1763.30
248.55	1658.85
248.77	1742.82
248.98	1742.82
249.20	1755.11
249.42	1748.97
249.64	1806.31
249.85	1720.29
250.07	1665.00
250.29	1679.33
250.50	1802.21
250.72	1619.94
250.94	1687.53
251.16	1773.54
251.37	1759.21
251.59	1734.63
251.81	1763.30
252.02	1808.36
252.24	1693.67
252.46	1761.25
252.68	1621.99
252.89	1673.19
253.11	1656.81
253.33	1804.26
253.54	1837.03
253.76	1652.71
253.98	1710.05
254.20	1570.79
254.41	1636.33
254.63	1705.96
254.85	1638.38
255.06	1701.86
255.28	1763.30
255.50	1650.66
255.71	1675.24
255.93	1673.19
256.15	1613.80
256.36	1681.38
256.58	1632.23
256.80	1710.05
257.02	1695.72
257.23	1658.85
257.45	1734.63
257.67	1755.11
257.88	1667.05
258.10	1689.57
258.32	1708.01
258.53	1630.18
258.75	1789.92
258.97	1681.38
259.18	1728.49
259.40	1720.29
259.62	1828.84
259.83	1783.78
260.05	1740.77
260.27	1992.67
260.48	1701.86
260.70	1646.57
260.92	1730.53
261.13	1751.01
261.35	1703.91
261.57	1712.10
261.78	1626.09
262.00	1607.66
262.22	1751.01
262.43	1617.90
262.65	1734.63
262.86	1724.39
263.08	1863.65
263.30	1660.90
263.51	1652.71
263.73	1611.75
263.95	1787.88
264.16	1644.52
264.38	1679.33
264.60	1675.24
264.81	1683.43
265.03	1710.05
265.25	1689.57
265.46	1642.47
265.68	1783.78
265.89	1683.43
266.11	1613.80
266.33	1667.05
266.54	1757.16
266.76	1697.77
266.98	1736.68
267.19	1679.33
267.41	1638.38
267.62	1714.15
267.84	1636.33
268.06	1685.48
268.27	1632.23
268.49	1746.92
268.70	1796.07
268.92	1773.54
269.14	1642.47
269.35	1667.05
269.57	1669.09
269.79	1701.86
270.00	1783.78
270.22	1787.88
270.43	1691.62
270.65	1568.74
270.87	1685.48
271.08	1791.97
271.30	1810.40
271.51	1683.43
271.73	1742.82
271.95	1794.02
272.16	1736.68
272.38	1724.39
272.59	1667.05
272.81	1658.85
273.02	1716.20
273.24	1746.92
273.46	1796.07
273.67	1624.04
273.89	1697.77
274.10	1648.61
274.32	1732.58
274.54	1724.39
274.75	1714.15
274.97	1609.70
275.18	1767.40
275.40	1722.34
275.61	1777.64
275.83	1646.57
276.05	1679.33
276.26	1712.10
276.48	1730.53
276.69	1652.71
276.91	1724.39
277.12	1785.83
277.34	1718.25
277.55	1759.21
277.77	1597.42
277.99	1662.95
278.20	1669.09
278.42	1656.81
278.63	1671.14
278.85	1628.14
279.06	1671.14
279.28	1755.11
279.49	1699.81
279.71	1804.26
279.93	1683.43
280.14	1724.39
280.36	1636.33
280.57	1810.40
280.79	1742.82
281.00	1685.48
281.22	1699.81
281.43	1742.82
281.65	1511.40
281.86	1673.19
282.08	1736.68
282.29	1804.26
282.51	1634.28
282.73	1585.13
282.94	1654.76
283.16	1773.54
283.37	1839.08
283.59	1751.01
283.80	1665.00
284.02	1667.05
284.23	1665.00
284.45	1716.20
284.66	1662.95
284.88	1662.95
285.09	1751.01
285.31	1783.78
285.52	1654.76
285.74	1724.39
285.95	1751.01
286.17	1734.63
286.38	1744.87
286.60	1634.28
286.81	1638.38
287.03	1714.15
287.24	1654.76
287.46	1718.25
287.67	1722.34
287.89	1837.03
288.10	1646.57
288.32	1634.28
288.53	1834.98
288.75	1703.91
288.96	1710.05
289.18	1632.23
289.39	1726.44
289.61	1771.49
289.82	1886.18
290.04	1791.97
290.25	1648.61
290.47	1636.33
290.68	1695.72
290.90	1712.10
291.11	1658.85
291.33	1767.40
291.54	1609.70
291.76	1607.66
291.97	1701.86
292.18	1765.35
292.40	1667.05
292.61	1693.67
292.83	1812.45
293.04	1802.21
293.26	1697.77
293.47	1804.26
293.69	1566.70
293.90	1822.69
294.12	1775.59
294.33	1677.29
294.55	1757.16
294.76	1787.88
294.97	1755.11
295.19	1804.26
295.40	1708.01
295.62	1724.39
295.83	1738.73
296.05	1714.15
296.26	1789.92
296.48	1675.24
296.69	1742.82
296.90	1730.53
297.12	1738.73
297.33	1722.34
297.55	1736.68
297.76	1703.91
297.98	1783.78
298.19	1761.25
298.41	1693.67
298.62	1615.85
298.83	1826.79
299.05	1718.25
299.26	1624.04
299.48	1722.34
299.69	1759.21
299.90	1697.77
300.12	1679.33
300.33	1738.73
300.55	1763.30
300.76	1775.59
300.98	1603.56
301.19	1675.24
301.40	1615.85
301.62	1685.48
301.83	1658.85
302.05	1642.47
302.26	1724.39
302.47	1699.81
302.69	1650.66
302.90	1728.49
303.12	1607.66
303.33	1712.10
303.54	1794.02
303.76	1665.00
303.97	1675.24
304.19	1767.40
304.40	1673.19
304.61	1736.68
304.83	1812.45
305.04	1763.30
305.26	1712.10
305.47	1705.96
305.68	1685.48
305.90	1609.70
306.11	1683.43
306.33	1626.09
306.54	1615.85
306.75	1769.44
306.97	1619.94
307.18	1667.05
307.39	1693.67
307.61	1728.49
307.82	1701.86
308.04	1759.21
308.25	1671.14
308.46	1751.01
308.68	1693.67
308.89	1710.05
309.10	1810.40
309.32	1767.40
309.53	1742.82
309.74	1699.81
309.96	1662.95
310.17	1755.11
310.39	1613.80
310.60	1738.73
310.81	1730.53
311.03	1648.61
311.24	1730.53
311.45	1673.19
311.67	1818.60
311.88	1759.21
312.09	1697.77
312.31	1665.00
312.52	1673.19
312.73	1654.76
312.95	1654.76
313.16	1599.46
313.37	1796.07
313.59	1716.20
313.80	1712.10
314.01	1812.45
314.23	1671.14
314.44	1648.61
314.65	1665.00
314.87	1640.42
315.08	1652.71
315.29	1734.63
315.51	1693.67
315.72	1646.57
315.93	1816.55
316.15	1705.96
316.36	1632.23
316.57	1683.43
316.79	1773.54
317.00	1599.46
317.21	1775.59
317.43	1734.63
317.64	1685.48
317.85	1665.00
318.07	1667.05
318.28	1640.42
318.49	1796.07
318.70	1910.75
318.92	1806.31
319.13	1826.79
319.34	1814.50
319.56	1742.82
319.77	1853.41
319.98	1832.93
320.20	1773.54
320.41	1763.30
320.62	1693.67
320.83	1660.90
321.05	1812.45
321.26	1769.44
321.47	1644.52
321.69	1761.25
321.90	1624.04
322.11	1638.38
322.32	1687.53
322.54	1791.97
322.75	1675.24
322.96	1853.41
323.18	1677.29
323.39	1640.42
323.60	1660.90
323.81	1755.11
324.03	1658.85
324.24	1658.85
324.45	1656.81
324.66	1671.14
324.88	1775.59
325.09	1773.54
325.30	1742.82
325.52	1751.01
325.73	1751.01
325.94	1658.85
326.15	1603.56
326.37	1697.77
326.58	1695.72
326.79	1832.93
327.00	1675.24
327.22	1695.72
327.43	1665.00
327.64	1578.98
327.85	1779.68
328.07	1728.49
328.28	1796.07
328.49	1632.23
328.70	1628.14
328.92	1765.35
329.13	1691.62
329.34	1730.53
329.55	1800.16
329.76	1800.16
329.98	1574.89
330.19	1757.16
330.40	1742.82
330.61	1767.40
330.83	1781.73
331.04	1638.38
331.25	1697.77
331.46	1624.04
331.68	1628.14
331.89	1708.01
332.10	1677.29
332.31	1601.51
332.52	1652.71
332.74	1718.25
332.95	1695.72
333.16	1669.09
333.37	1742.82
333.58	1650.66
333.80	1726.44
334.01	1691.62
334.22	1736.68
334.43	1665.00
334.64	1724.39
334.86	1699.81
335.07	1757.16
335.28	1771.49
335.49	1570.79
335.70	1689.57
335.92	1781.73
336.13	1851.36
336.34	1679.33
336.55	1687.53
336.76	1626.09
336.98	1556.46
337.19	1726.44
337.40	1785.83
337.61	1890.28
337.82	1763.30
338.04	1736.68
338.25	1626.09
338.46	1714.15
338.67	1683.43
338.88	1708.01
339.09	1673.19
339.31	1685.48
339.52	1640.42
339.73	1763.30
339.94	1634.28
340.15	1796.07
340.36	1662.95
340.58	1632.23
340.79	1654.76
341.00	1757.16
341.21	1595.37
341.42	1794.02
341.63	1695.72
341.85	1753.06
342.06	1783.78
342.27	1636.33
342.48	1777.64
342.69	1581.03
342.90	1746.92
343.12	1759.21
343.33	1699.81
343.54	1779.68
343.75	1716.20
343.96	1691.62
344.17	1607.66
344.38	1681.38
344.60	1701.86
344.81	1669.09
345.02	1701.86
345.23	1755.11
345.44	1755.11
345.65	1759.21
345.86	1763.30
346.07	1624.04
346.29	1708.01
346.50	1644.52
346.71	1742.82
346.92	1718.25
347.13	1863.65
347.34	1697.77
347.55	1697.77
347.76	1728.49
347.98	1640.42
348.19	1660.90
348.40	1826.79
348.61	1720.29
348.82	1802.21
349.03	1802.21
349.24	1578.98
349.45	1771.49
349.66	1585.13
349.88	1667.05
350.09	1724.39
350.30	1798.12
350.51	1769.44
350.72	1734.63
350.93	1710.05
351.14	1652.71
351.35	1705.96
351.56	1730.53
351.77	1726.44
351.99	1755.11
352.20	1796.07
352.41	1761.25
352.62	1611.75
352.83	1806.31
353.04	1812.45
353.25	1685.48
353.46	1771.49
353.67	1781.73
353.88	1609.70
354.09	1685.48
354.30	1732.58
354.52	1683.43
354.73	1673.19
354.94	1718.25
355.15	1775.59
355.36	1785.83
355.57	1726.44
355.78	1800.16
355.99	1656.81
356.20	1662.95
356.41	1847.27
356.62	1744.87
356.83	1728.49
357.04	1755.11
357.25	1681.38
357.46	1658.85
357.68	1613.80
357.89	1667.05
358.10	1683.43
358.31	1572.84
358.52	1628.14
358.73	1677.29
358.94	1689.57
359.15	1693.67
359.36	1767.40
359.57	1740.77
359.78	1697.77
359.99	1730.53
360.20	1656.81
360.41	1716.20
360.62	1705.96
360.83	1761.25
361.04	1675.24
361.25	1687.53
361.46	1816.55
361.67	1742.82
361.88	1751.01
362.09	1728.49
362.30	1708.01
362.51	1671.14
362.72	1648.61
362.93	1712.10
363.14	1718.25
363.35	1740.77
363.56	1675.24
363.78	1693.67
363.99	1742.82
364.20	1630.18
364.41	1728.49
364.62	1914.85
364.83	1650.66
365.04	1644.52
365.25	1613.80
365.46	1812.45
365.67	1665.00
365.88	1689.57
366.09	1632.23
366.30	1734.63
366.51	1689.57
366.72	1626.09
366.93	1665.00
367.14	1736.68
367.35	1794.02
367.56	1732.58
367.77	1828.84
367.98	1640.42
368.18	1705.96
368.39	1765.35
368.60	1667.05
368.81	1714.15
369.02	1718.25
369.23	1703.91
369.44	1624.04
369.65	1634.28
369.86	1710.05
370.07	1796.07
370.28	1615.85
370.49	1744.87
370.70	1677.29
370.91	1648.61
371.12	1665.00
371.33	1800.16
371.54	1720.29
371.75	1769.44
371.96	1597.42
372.17	1685.48
372.38	1701.86
372.59	1718.25
372.80	1665.00
373.01	1656.81
373.22	1724.39
373.43	1771.49
373.64	1660.90
373.85	1781.73
374.06	1853.41
374.26	1767.40
374.47	1775.59
374.68	1832.93
374.89	1755.11
375.10	1685.48
375.31	1779.68
375.52	1615.85
375.73	1693.67
375.94	1660.90
376.15	1847.27
376.36	1595.37
376.57	1662.95
376.78	1681.38
376.99	1757.16
377.20	1734.63
377.40	1708.01
377.61	1789.92
377.82	1640.42
378.03	1773.54
378.24	1675.24
378.45	1701.86
378.66	1628.14
378.87	1665.00
379.08	1642.47
379.29	1708.01
379.50	1855.46
379.71	1601.51
379.91	1818.60
380.12	1603.56
380.33	1720.29
380.54	1742.82
380.75	1681.38
380.96	1771.49
381.17	1787.88
381.38	1730.53
381.59	1722.34
381.80	1703.91
382.00	1882.08
382.21	1722.34
382.42	1808.36
382.63	1814.50
382.84	1773.54
383.05	1765.35
383.26	1791.97
383.47	1736.68
383.68	1763.30
383.88	1728.49
384.09	1626.09
384.30	1847.27
384.51	1767.40
384.72	1636.33
384.93	1644.52
385.14	1746.92
385.35	1779.68
385.55	1542.12
385.76	1761.25
385.97	1734.63
386.18	1636.33
386.39	1636.33
386.60	1751.01
386.81	1705.96
387.02	1648.61
387.22	1638.38
387.43	1800.16
387.64	1818.60
387.85	1849.32
388.06	2222.05
388.27	4147.14
388.48	6846.36
388.68	8257.41
388.89	9600.88
389.10	9842.54
389.31	8677.24
389.52	7821.19
389.73	6705.05
389.93	6272.93
390.14	5771.18
390.35	5146.55
390.56	4581.31
390.77	3766.21
390.98	2994.13
391.18	2437.08
391.39	2060.26
391.60	1920.99
391.81	1761.25
392.02	1734.63
392.23	1941.47
392.43	1791.97
392.64	1701.86
392.85	1757.16
393.06	1816.55
393.27	1761.25
393.47	1636.33
393.68	1730.53
393.89	1779.68
394.10	1796.07
394.31	1705.96
394.52	1640.42
394.72	1615.85
394.93	1771.49
395.14	1597.42
395.35	1691.62
395.56	1681.38
395.76	1734.63
395.97	1853.41
396.18	1861.60
396.39	1773.54
396.60	2062.30
396.80	1941.47
397.01	1837.03
397.22	1826.79
397.43	1849.32
397.64	1779.68
397.84	1738.73
398.05	1931.23
398.26	1730.53
398.47	1794.02
398.67	1677.29
398.88	1763.30
399.09	1685.48
399.30	1693.67
399.51	1742.82
399.71	1671.14
399.92	1773.54
400.13	1744.87
400.34	1718.25
400.54	1712.10
400.75	1824.74
400.96	1724.39
401.17	1822.69
401.37	1775.59
401.58	1714.15
401.79	1730.53
402.00	1837.03
402.21	2002.91
402.41	1943.52
402.62	2029.54
402.83	2154.46
403.04	1972.19
403.24	2144.22
403.45	1802.21
403.66	1849.32
403.87	1834.98
404.07	1849.32
404.28	1925.09
404.49	1890.28
404.70	1791.97
404.90	1781.73
405.11	1763.30
405.32	1783.78
405.52	1669.09
405.73	1656.81
405.94	1701.86
406.15	1685.48
406.35	1746.92
406.56	1705.96
406.77	1714.15
406.98	1800.16
407.18	1609.70
407.39	1757.16
407.60	1613.80
407.80	1837.03
408.01	1714.15
408.22	1724.39
408.43	1640.42
408.63	1755.11
408.84	1728.49
409.05	1748.97
409.25	1665.00
409.46	1644.52
409.67	1712.10
409.88	1675.24
410.08	1685.48
410.29	1695.72
410.50	1742.82
410.70	1751.01
410.91	1626.09
411.12	1765.35
411.32	1611.75
411.53	1775.59
411.74	1816.55
411.95	1808.36
412.15	1728.49
412.36	1748.97
412.57	1796.07
412.77	1861.60
412.98	1832.93
413.19	1658.85
413.39	1710.05
413.60	1794.02
413.81	1855.46
414.01	1742.82
414.22	1812.45
414.43	1742.82
414.63	1689.57
414.84	1732.58
415.05	1687.53
415.25	1599.46
415.46	1783.78
415.67	1640.42
415.87	1798.12
416.08	1724.39
416.29	1724.39
416.49	1787.88
416.70	1638.38
416.91	1710.05
417.11	1660.90
417.32	1769.44
417.53	1705.96
417.73	1791.97
417.94	1593.32
418.15	1720.29
418.35	1703.91
418.56	1718.25
418.77	1867.75
418.97	1695.72
419.18	1648.61
419.38	1570.79
419.59	1667.05
419.80	1828.84
420.00	1669.09
420.21	1761.25
420.42	1695.72
420.62	1687.53
420.83	1658.85
421.04	1714.15
421.24	1669.09
421.45	1699.81
421.65	1728.49
421.86	1804.26
422.07	1761.25
422.27	1703.91
422.48	1740.77
422.69	1673.19
422.89	1693.67
423.10	1763.30
423.30	1658.85
423.51	1710.05
423.72	1755.11
423.92	1732.58
424.13	1628.14
424.33	1705.96
424.54	1771.49
424.75	1673.19
424.95	1701.86
425.16	1720.29
425.36	1781.73
425.57	1736.68
425.78	1734.63
425.98	1753.06
426.19	1714.15
426.39	1714.15
426.60	1767.40
426.81	1826.79
427.01	1734.63
427.22	1624.04
427.42	1658.85
427.63	1695.72
427.83	1771.49
428.04	1757.16
428.25	1847.27
428.45	1689.57
428.66	1767.40
428.86	1689.57
429.07	1683.43
429.28	1763.30
429.48	1677.29
429.69	1630.18
429.89	1710.05
430.10	1671.14
430.30	1703.91
430.51	1783.78
430.71	1673.19
430.92	1673.19
431.13	1718.25
431.33	1773.54
431.54	1742.82
431.74	1841.12
431.95	1808.36
432.15	1681.38
432.36	1736.68
432.56	1689.57
432.77	1855.46
432.98	1841.12
433.18	1751.01
433.39	1671.14
433.59	1679.33
433.80	1779.68
434.00	1873.89
434.21	1615.85
434.41	1636.33
434.62	1771.49
434.82	1642.47
435.03	1714.15
435.23	1695.72
435.44	1599.46
435.64	1791.97
435.85	1773.54
436.06	1734.63
436.26	1796.07
436.47	1691.62
436.67	1650.66
436.88	1679.33
437.08	1746.92
437.29	1736.68
437.49	1724.39
437.70	1789.92
437.90	1744.87
438.11	1890.28
438.31	1658.85
438.52	1806.31
438.72	1769.44
438.93	2007.01
439.13	1714.15
439.34	1810.40
439.54	1779.68
439.75	1789.92
439.95	1796.07
440.16	1679.33
440.36	1812.45
440.57	1796.07
440.77	1714.15
440.98	1812.45
441.18	1746.92
441.39	1685.48
441.59	1636.33
441.80	1849.32
442.00	1697.77
442.21	1757.16
442.41	1712.10
442.62	1826.79
442.82	1667.05
443.02	1751.01
443.23	1718.25
443.43	1685.48
443.64	1755.11
443.84	1736.68
444.05	1828.84
444.25	1705.96
444.46	1720.29
444.66	1744.87
444.87	1816.55
445.07	1679.33
445.28	1751.01
445.48	1867.75
445.69	1744.87
445.89	1898.47
446.09	1757.16
446.30	2082.78
446.50	2678.74
446.71	3696.58
446.91	4335.55
447.12	4829.11
447.32	4943.80
447.53	4384.70
447.73	3860.42
447.93	3620.81
448.14	3278.80
448.34	3246.03
448.55	3004.37
448.75	2807.77
448.96	2717.65
449.16	2412.51
449.36	2199.52
449.57	2033.63
449.77	1906.66
449.98	1806.31
450.18	1753.06
450.39	1877.99
450.59	1789.92
450.79	1738.73
451.00	1677.29
451.20	1775.59
451.41	1720.29
451.61	1828.84
451.81	1771.49
452.02	1710.05
452.22	1718.25
452.43	1693.67
452.63	1693.67
452.84	1757.16
453.04	1730.53
453.24	1783.78
453.45	1619.94
453.65	1675.24
453.86	1730.53
454.06	1677.29
454.26	1708.01
454.47	1652.71
454.67	1753.06
454.87	1806.31
455.08	1691.62
455.28	1763.30
455.49	1746.92
455.69	1677.29
455.89	1853.41
456.10	1880.04
456.30	1744.87
456.51	1744.87
456.71	1789.92
456.91	1742.82
457.12	1804.26
457.32	1714.15
457.52	1654.76
457.73	1746.92
457.93	1767.40
458.14	1685.48
458.34	1603.56
458.54	1701.86
458.75	1624.04
458.95	1832.93
459.15	1751.01
459.36	1800.16
459.56	1748.97
459.76	1828.84
459.97	1748.97
460.17	1763.30
460.37	1822.69
460.58	1771.49
460.78	1730.53
460.99	1718.25
461.19	1689.57
461.39	1732.58
461.60	1701.86
461.80	1748.97
462.00	1642.47
462.21	1699.81
462.41	1636.33
462.61	1734.63
462.82	1656.81
463.02	1753.06
463.22	1746.92
463.43	1796.07
463.63	1695.72
463.83	1759.21
464.04	1755.11
464.24	1796.07
464.44	1662.95
464.64	1658.85
464.85	1781.73
465.05	1781.73
465.25	1769.44
465.46	1718.25
465.66	1753.06
465.86	1791.97
466.07	1654.76
466.27	1716.20
466.47	1736.68
466.68	1652.71
466.88	1871.84
467.08	1730.53
467.29	1742.82
467.49	1732.58
467.69	1697.77
467.89	1679.33
468.10	1699.81
468.30	1767.40
468.50	1798.12
468.71	1671.14
468.91	1587.18
469.11	1847.27
469.31	1673.19
469.52	1624.04
469.72	1806.31
469.92	1873.89
470.13	1675.24
470.33	1761.25
470.53	1888.23
470.73	2084.83
470.94	2353.12
471.14	2371.55
471.34	2492.38
471.54	2514.91
471.75	2203.61
471.95	2181.09
472.15	2033.63
472.36	2140.13
472.56	2086.88
472.76	2097.12
472.96	2027.49
473.17	1941.47
473.37	1978.34
473.57	1806.31
473.77	1781.73
473.98	1855.46
474.18	1724.39
474.38	1941.47
474.58	1683.43
474.79	1705.96
474.99	1714.15
475.19	1824.74
475.39	1611.75
475.60	1748.97
475.80	1781.73
476.00	1744.87
476.20	1781.73
476.41	1720.29
476.61	1798.12
476.81	1830.88
477.01	1726.44
477.21	1777.64
477.42	1796.07
477.62	1710.05
477.82	1904.61
478.02	1724.39
478.23	1642.47
478.43	1621.99
478.63	1708.01
478.83	1693.67
479.03	1683.43
479.24	1806.31
479.44	1683.43
479.64	1693.67
479.84	1570.79
480.04	1630.18
480.25	1871.84
480.45	1693.67
480.65	1779.68
480.85	1798.12
481.06	1753.06
481.26	1685.48
481.46	1787.88
481.66	1775.59
481.86	1689.57
482.06	1779.68
482.27	1673.19
482.47	1728.49
482.67	1794.02
482.87	1681.38
483.07	1755.11
483.28	1650.66
483.48	1667.05
483.68	1673.19
483.88	1652.71
484.08	1615.85
484.29	1673.19
484.49	1703.91
484.69	1710.05
484.89	1802.21
485.09	1755.11
485.29	1726.44
485.50	1691.62
485.70	1609.70
485.90	1806.31
486.10	1665.00
486.30	1761.25
486.50	1763.30
486.71	1671.14
486.91	1738.73
487.11	1748.97
487.31	1671.14
487.51	1687.53
487.71	1662.95
487.91	1656.81
488.12	1665.00
488.32	1628.14
488.52	1681.38
488.72	1619.94
488.92	1775.59
489.12	1804.26
489.32	1796.07
489.53	1736.68
489.73	1685.48
489.93	1767.40
490.13	1650.66
490.33	1642.47
490.53	1665.00
490.73	1820.64
490.94	1619.94
491.14	1763.30
491.34	1812.45
491.54	2158.56
491.74	2635.74
491.94	2879.44
492.14	3067.86
492.34	3065.81
492.54	2723.80
492.75	2494.43
492.95	2428.89
493.15	2338.78
493.35	2265.05
493.55	2226.14
493.75	2183.13
493.95	2090.98
494.15	1986.53
494.35	1927.14
494.56	1855.46
494.76	1816.55
494.96	1814.50
495.16	1755.11
495.36	1708.01
495.56	1736.68
495.76	1746.92
495.96	1685.48
496.16	1705.96
496.36	1863.65
496.56	1751.01
496.77	1798.12
496.97	1705.96
497.17	1718.25
497.37	1679.33
497.57	1720.29
497.77	1804.26
497.97	1753.06
498.17	1685.48
498.37	1732.58
498.57	1705.96
498.77	1687.53
498.97	1800.16
499.17	1736.68
499.38	1665.00
499.58	1736.68
499.78	1794.02
499.98	1755.11
500.18	1763.30
500.38	1691.62
500.58	1859.56
500.78	2611.16
500.98	4556.73
501.18	5744.55
501.38	6834.07
501.58	7112.60
501.78	6616.99
501.98	5461.93
502.18	4917.17
502.38	4396.99
502.58	4085.70
502.78	3784.65
502.98	3663.82
503.18	3438.54
503.38	3174.35
503.59	2748.37
503.79	2607.06
503.99	2467.80
504.19	2291.68
504.39	2156.51
504.59	2174.94
504.79	2084.83
504.99	2138.08
505.19	1937.38
505.39	1863.65
505.59	1976.29
505.79	1877.99
505.99	1918.95
506.19	1847.27
506.39	1947.62
506.59	1777.64
506.79	1751.01
506.99	1806.31
507.19	1757.16
507.39	1691.62
507.59	1705.96
507.79	1677.29
507.99	1640.42
508.19	1701.86
508.39	1683.43
508.59	1767.40
508.79	1789.92
508.99	1814.50
509.19	1781.73
509.39	1796.07
509.59	1634.28
509.79	1728.49
509.99	1777.64
510.19	1837.03
510.39	1761.25
510.59	1767.40
510.79	1759.21
510.99	1730.53
511.19	1728.49
511.39	1830.88
511.59	1781.73
511.79	1855.46
511.99	1789.92
512.19	1757.16
512.38	1734.63
512.58	1736.68
512.78	1751.01
512.98	1843.17
513.18	1804.26
513.38	1619.94
513.58	1849.32
513.78	1724.39
513.98	1761.25
514.18	1755.11
514.38	1683.43
514.58	1724.39
514.78	1675.24
514.98	1738.73
515.18	1757.16
515.38	1660.90
515.58	1863.65
515.78	1726.44
515.98	1734.63
516.18	1765.35
516.38	1753.06
516.57	1751.01
516.77	1781.73
516.97	1695.72
517.17	1626.09
517.37	1611.75
517.57	1687.53
517.77	1757.16
517.97	1748.97
518.17	1820.64
518.37	1681.38
518.57	1771.49
518.77	1726.44
518.97	1753.06
519.16	1740.77
519.36	1730.53
519.56	1703.91
519.76	1810.40
519.96	1730.53
520.16	1888.23
520.36	1656.81
520.56	1802.21
520.76	1740.77
520.96	1720.29
521.16	1822.69
521.35	1779.68
521.55	1791.97
521.75	1757.16
521.95	1740.77
522.15	1722.34
522.35	1632.23
522.55	1667.05
522.75	1781.73
522.95	1783.78
523.14	1615.85
523.34	1683.43
523.54	1714.15
523.74	1724.39
523.94	1767.40
524.14	1683.43
524.34	1802.21
524.54	1828.84
524.73	1703.91
524.93	1714.15
525.13	1720.29
525.33	1665.00
525.53	1961.95
525.73	1763.30
525.93	1763.30
526.13	1687.53
526.32	1685.48
526.52	1708.01
526.72	1785.83
526.92	1705.96
527.12	1751.01
527.32	1654.76
527.52	1822.69
527.71	1761.25
527.91	1708.01
528.11	1769.44
528.31	1728.49
528.51	1708.01
528.71	1724.39
528.90	1808.36
529.10	1787.88
529.30	1834.98
529.50	1568.74
529.70	1757.16
529.90	1667.05
530.09	1738.73
530.29	1677.29
530.49	1701.86
530.69	1900.52
530.89	1814.50
531.09	1845.22
531.28	1742.82
531.48	1798.12
531.68	1671.14
531.88	1691.62
532.08	1773.54
532.28	1691.62
532.47	1703.91
532.67	1773.54
532.87	1787.88
533.07	1662.95
533.27	1796.07
533.46	1712.10
533.66	1791.97
533.86	1712.10
534.06	1712.10
534.26	1724.39
534.45	1757.16
534.65	1732.58
534.85	1787.88
535.05	1665.00
535.25	1816.55
535.44	1642.47
535.64	1787.88
535.84	1710.05
536.04	1701.86
536.24	1714.15
536.43	1677.29
536.63	1730.53
536.83	1683.43
537.03	1761.25
537.22	1748.97
537.42	1660.90
537.62	1806.31
537.82	1673.19
538.02	1779.68
538.21	1800.16
538.41	1918.95
538.61	1718.25
538.81	1710.05
539.00	1839.08
539.20	1660.90
539.40	1708.01
539.60	1787.88
539.79	1738.73
539.99	1701.86
540.19	1624.04
540.39	1757.16
540.58	1783.78
540.78	1765.35
540.98	1718.25
541.18	1734.63
541.37	1732.58
541.57	1785.83
541.77	1765.35
541.97	1759.21
542.16	1662.95
542.36	1779.68
542.56	1716.20
542.76	1845.22
542.95	1705.96
543.15	1759.21
543.35	1712.10
543.54	1667.05
543.74	1658.85
543.94	1845.22
544.14	1685.48
544.33	1722.34
544.53	1691.62
544.73	1757.16
544.93	1712.10
545.12	1705.96
545.32	1718.25
545.52	1714.15
545.71	1705.96
545.91	1710.05
546.11	1710.05
546.30	1636.33
546.50	1710.05
546.70	1753.06
546.90	1744.87
547.09	1587.18
547.29	1730.53
547.49	1740.77
547.68	1673.19
547.88	1701.86
548.08	1785.83
548.27	2144.22
548.47	1642.47
548.67	1640.42
548.87	1814.50
549.06	1722.34
549.26	1708.01
549.46	1710.05
549.65	1699.81
549.85	1740.77
550.05	1742.82
550.24	1628.14
550.44	1732.58
550.64	1791.97
550.83	1775.59
551.03	1832.93
551.23	1748.97
551.42	1769.44
551.62	1736.68
551.82	1755.11
552.01	1710.05
552.21	1757.16
552.41	1775.59
552.60	1734.63
552.80	1773.54
553.00	1617.90
553.19	1712.10
553.39	1779.68
553.59	1658.85
553.78	1714.15
553.98	1853.41
554.17	1636.33
554.37	1714.15
554.57	1730.53
554.76	1615.85
554.96	1708.01
555.16	1808.36
555.35	1775.59
555.55	1779.68
555.75	1761.25
555.94	1718.25
556.14	1665.00
556.33	1755.11
556.53	1800.16
556.73	1751.01
556.92	1763.30
557.12	1765.35
557.32	1853.41
557.51	1738.73
557.71	1773.54
557.90	1734.63
558.10	1820.64
558.30	1701.86
558.49	1779.68
558.69	1744.87
558.88	1757.16
559.08	1740.77
559.28	1742.82
559.47	1724.39
559.67	1834.98
559.86	1839.08
560.06	1728.49
560.26	1751.01
560.45	1716.20
560.65	1726.44
560.84	1834.98
561.04	1718.25
561.24	1802.21
561.43	1605.61
561.63	1800.16
561.82	1699.81
562.02	1820.64
562.22	1652.71
562.41	1675.24
562.61	1697.77
562.80	1677.29
563.00	1904.61
563.19	1710.05
563.39	1677.29
563.59	1798.12
563.78	1675.24
563.98	1611.75
564.17	1769.44
564.37	1677.29
564.56	1738.73
564.76	1632.23
564.96	1785.83
565.15	1791.97
565.35	1783.78
565.54	1705.96
565.74	1818.60
565.93	1845.22
566.13	1730.53
566.32	1742.82
566.52	1814.50
566.71	1712.10
566.91	1826.79
567.11	1689.57
567.30	1730.53
567.50	1726.44
567.69	1716.20
567.89	1736.68
568.08	1783.78
568.28	1732.58
568.47	1634.28
568.67	1748.97
568.86	1728.49
569.06	1765.35
569.25	1665.00
569.45	1714.15
569.64	1699.81
569.84	1619.94
570.04	1757.16
570.23	1693.67
570.43	1716.20
570.62	1722.34
570.82	1890.28
571.01	1730.53
571.21	1646.57
571.40	1658.85
571.60	1755.11
571.79	1714.15
571.99	1710.05
572.18	1691.62
572.38	1804.26
572.57	1710.05
572.77	1814.50
572.96	1832.93
573.16	1765.35
573.35	1726.44
573.55	1783.78
573.74	1789.92
573.94	1738.73
574.13	1738.73
574.33	1730.53
574.52	1765.35
574.71	1734.63
574.91	1763.30
575.10	1683.43
575.30	1732.58
575.49	1656.81
575.69	1710.05
575.88	1746.92
576.08	1718.25
576.27	1824.74
576.47	1714.15
576.66	1935.33
576.86	1816.55
577.05	1769.44
577.25	1798.12
577.44	1839.08
577.64	1775.59
577.83	1759.21
578.02	1757.16
578.22	1779.68
578.41	1796.07
578.61	1693.67
578.80	1734.63
579.00	1744.87
579.19	1751.01
579.39	1812.45
579.58	1791.97
579.77	1755.11
579.97	1828.84
580.16	1791.97
580.36	1884.13
580.55	1767.40
580.75	1761.25
580.94	1665.00
581.13	1796.07
581.33	1804.26
581.52	1740.77
581.72	1861.60
581.91	1923.04
582.11	1734.63
582.30	1789.92
582.49	1806.31
582.69	1837.03
582.88	1779.68
583.08	1787.88
583.27	1798.12
583.47	1798.12
583.66	1689.57
583.85	1638.38
584.05	1714.15
584.24	1763.30
584.44	1755.11
584.63	1800.16
584.82	1820.64
585.02	1791.97
585.21	1859.56
585.41	1755.11
585.60	1820.64
585.79	1927.14
585.99	1869.80
586.18	1814.50
586.37	2140.13
586.57	3338.19
586.76	10084.20
586.96	24815.24
587.15	34661.87
587.34	40852.88
587.54	42941.81
587.73	37090.76
587.93	26541.68
588.12	21667.51
588.31	18503.40
588.51	16477.96
588.70	15240.98
588.89	14122.79
589.09	12635.97
589.28	11210.58
589.47	9422.70
589.67	8056.71
589.86	6342.56
590.06	4929.46
590.25	3807.17
590.44	3135.44
590.64	2590.68
590.83	2224.09
591.02	2113.50
591.22	1990.63
591.41	1808.36
591.60	1820.64
591.80	1904.61
591.99	1759.21
592.18	1742.82
592.38	1794.02
592.57	1734.63
592.76	1730.53
592.96	1812.45
593.15	1665.00
593.34	1789.92
593.54	1791.97
593.73	1830.88
593.92	1783.78
594.12	1693.67
594.31	1761.25
594.50	1880.04
594.70	1927.14
594.89	1783.78
595.08	1650.66
595.28	1845.22
595.47	1908.71
595.66	1767.40
595.86	1675.24
596.05	1693.67
596.24	1701.86
596.43	1845.22
596.63	1863.65
596.82	1779.68
597.01	1701.86
597.21	1789.92
597.40	1732.58
597.59	1787.88
597.79	1738.73
597.98	1787.88
598.17	1771.49
598.36	1701.86
598.56	1822.69
598.75	1675.24
598.94	1771.49
599.14	1765.35
599.33	1748.97
599.52	1759.21
599.71	1722.34
599.91	1785.83
600.10	1800.16
600.29	1583.08
600.48	1804.26
600.68	1777.64
600.87	1683.43
601.06	1646.57
601.26	1771.49
601.45	1689.57
601.64	1767.40
601.83	1738.73
602.03	1681.38
602.22	1671.14
602.41	1722.34
602.60	1869.80
602.80	1802.21
602.99	1775.59
603.18	1650.66
603.37	1773.54
603.57	1789.92
603.76	1722.34
603.95	1730.53
604.14	1691.62
604.34	1603.56
604.53	1767.40
604.72	1703.91
604.91	1794.02
605.10	1695.72
605.30	1624.04
605.49	1871.84
605.68	1742.82
605.87	1802.21
606.07	1628.14
606.26	1755.11
606.45	1773.54
606.64	1732.58
606.84	1693.67
607.03	1697.77
607.22	1826.79
607.41	1683.43
607.60	1673.19
607.80	1763.30
607.99	1757.16
608.18	1767.40
608.37	1673.19
608.56	1710.05
608.76	1804.26
608.95	1869.80
609.14	1746.92
609.33	1746.92
609.52	1808.36
609.72	1685.48
609.91	1857.51
610.10	1742.82
610.29	1794.02
610.48	1757.16
610.68	1771.49
610.87	1777.64
611.06	1781.73
611.25	1710.05
611.44	1839.08
611.63	1691.62
611.83	1830.88
612.02	1693.67
612.21	1851.36
612.40	1546.22
612.59	1636.33
612.79	1726.44
612.98	1804.26
613.17	1841.12
613.36	1730.53
613.55	1873.89
613.74	1746.92
613.93	1667.05
614.13	1828.84
614.32	1798.12
614.51	1773.54
614.70	1695.72
614.89	1650.66
615.08	1777.64
615.28	2043.87
615.47	1714.15
615.66	1705.96
615.85	1767.40
616.04	1800.16
616.23	1705.96
616.42	1746.92
616.62	1748.97
616.81	1732.58
617.00	1687.53
617.19	1775.59
617.38	1677.29
617.57	1740.77
617.76	1777.64
617.95	1773.54
618.15	1726.44
618.34	1875.94
618.53	1665.00
618.72	1828.84
618.91	1855.46
619.10	1761.25
619.29	1732.58
619.48	1603.56
619.68	1652.71
619.87	1804.26
620.06	1611.75
620.25	1808.36
620.44	1677.29
620.63	1710.05
620.82	1689.57
621.01	1796.07
621.20	1687.53
621.39	1710.05
621.59	1673.19
621.78	1699.81
621.97	1734.63
622.16	1771.49
622.35	1800.16
622.54	1777.64
622.73	1742.82
622.92	1591.27
623.11	1783.78
623.30	1681.38
623.49	1781.73
623.68	1701.86
623.88	1843.17
624.07	1730.53
624.26	1808.36
624.45	1650.66
624.64	1695.72
624.83	1681.38
625.02	1677.29
625.21	1714.15
625.40	1718.25
625.59	1744.87
625.78	1736.68
625.97	1767.40
626.16	1738.73
626.35	1781.73
626.54	1753.06
626.74	1791.97
626.93	1679.33
627.12	1703.91
627.31	1783.78
627.50	1722.34
627.69	1734.63
627.88	1683.43
628.07	1755.11
628.26	1736.68
628.45	1634.28
628.64	1712.10
628.83	1771.49
629.02	1619.94
629.21	1771.49
629.40	1751.01
629.59	1640.42
629.78	1681.38
629.97	1710.05
630.16	1740.77
630.35	1671.14
630.54	1712.10
630.73	1714.15
630.92	1640.42
631.11	1587.18
631.30	1783.78
631.49	1771.49
631.68	1730.53
631.87	1771.49
632.06	1669.09
632.25	1724.39
632.44	1642.47
632.63	1794.02
632.82	1656.81
633.01	1662.95
633.20	1769.44
633.39	1681.38
633.58	1697.77
633.77	1734.63
633.96	1726.44
634.15	1789.92
634.34	1746.92
634.53	1695.72
634.72	1708.01
634.91	1568.74
635.10	1826.79
635.29	1769.44
635.48	1710.05
635.67	1726.44
635.86	1626.09
636.05	1820.64
636.24	1697.77
636.43	1759.21
636.62	1720.29
636.81	1585.13
637.00	1689.57
637.19	1742.82
637.38	1677.29
637.57	1703.91
637.76	1744.87
637.95	1673.19
638.14	1705.96
638.33	1689.57
638.52	1746.92
638.71	1683.43
638.89	1638.38
639.08	1871.84
639.27	1808.36
639.46	1736.68
639.65	1812.45
639.84	1740.77
640.03	1765.35
640.22	1736.68
640.41	1847.27
640.60	1687.53
640.79	1714.15
640.98	1726.44
641.17	1738.73
641.36	1769.44
641.55	1753.06
641.74	1634.28
641.92	1699.81
642.11	1689.57
642.30	1669.09
642.49	1681.38
642.68	1679.33
642.87	1728.49
643.06	1732.58
643.25	1687.53
643.44	1683.43
643.63	1697.77
643.82	1804.26
644.00	1677.29
644.19	1763.30
644.38	1701.86
644.57	1814.50
644.76	1673.19
644.95	1726.44
645.14	1742.82
645.33	1624.04
645.52	1705.96
645.71	1681.38
645.89	1648.61
646.08	1665.00
646.27	1677.29
646.46	1853.41
646.65	1652.71
646.84	1726.44
647.03	1638.38
647.22	1820.64
647.40	1724.39
647.59	1652.71
647.78	1667.05
647.97	1720.29
648.16	1669.09
648.35	1828.84
648.54	1882.08
648.73	1714.15
648.91	1779.68
649.10	1701.86
649.29	1665.00
649.48	1701.86
649.67	1710.05
649.86	1744.87
650.05	1714.15
650.23	1722.34
650.42	1746.92
650.61	1820.64
650.80	1730.53
650.99	1853.41
651.18	1796.07
651.36	1728.49
651.55	1712.10
651.74	1675.24
651.93	1665.00
652.12	1634.28
652.31	1757.16
652.49	1583.08
652.68	1644.52
652.87	1736.68
653.06	1710.05
653.25	1742.82
653.44	1726.44
653.62	1806.31
653.81	1644.52
654.00	1656.81
654.19	1769.44
654.38	1908.71
654.56	1736.68
654.75	1646.57
654.94	1773.54
655.13	1773.54
655.32	1697.77
655.51	1828.84
655.69	1705.96
655.88	1787.88
656.07	1691.62
656.26	1701.86
656.45	1665.00
656.63	1693.67
656.82	1761.25
657.01	1804.26
657.20	1673.19
657.38	1789.92
657.57	1681.38
657.76	1609.70
657.95	1658.85
658.14	1728.49
658.32	1738.73
658.51	1603.56
658.70	1687.53
658.89	1699.81
659.08	1671.14
659.26	1759.21
659.45	1619.94
659.64	1746.92
659.83	1712.10
660.01	1933.28
660.20	1665.00
660.39	1794.02
660.58	1671.14
660.76	1796.07
660.95	1714.15
661.14	1791.97
661.33	1648.61
661.51	1681.38
661.70	1783.78
661.89	1791.97
662.08	1738.73
662.26	1597.42
662.45	1662.95
662.64	1822.69
662.83	1759.21
663.01	1681.38
663.20	1712.10
663.39	1804.26
663.58	1720.29
663.76	1751.01
663.95	1724.39
664.14	1681.38
664.32	1697.77
664.51	1701.86
664.70	1687.53
664.89	1718.25
665.07	1695.72
665.26	1738.73
665.45	1644.52
665.64	1777.64
665.82	1671.14
666.01	1718.25
666.20	1697.77
666.38	1757.16
666.57	1781.73
666.76	2250.72
666.95	4476.86
667.13	10231.65
667.32	15228.70
667.51	17897.20
667.69	19148.51
667.88	17745.65
668.07	12545.86
668.25	9672.56
668.44	8130.44
668.63	7337.87
668.81	6825.88
669.00	6272.93
669.19	5539.76
669.38	5058.48
669.56	4757.43
669.75	4016.07
669.94	3422.16
670.12	2846.68
670.31	2531.29
670.50	2373.60
670.68	1988.58
670.87	1871.84
671.06	1804.26
671.24	1777.64
671.43	1757.16
671.62	1746.92
671.80	1730.53
671.99	1701.86
672.18	1718.25
672.36	1769.44
672.55	1703.91
672.74	1681.38
672.92	1658.85
673.11	1757.16
673.29	1603.56
673.48	1751.01
673.67	1691.62
673.85	1746.92
674.04	1632.23
674.23	1769.44
674.41	1837.03
674.60	1681.38
674.79	1603.56
674.97	1630.18
675.16	1794.02
675.34	1828.84
675.53	1714.15
675.72	1800.16
675.90	1802.21
676.09	1669.09
676.28	1761.25
676.46	1599.46
676.65	1699.81
676.83	1650.66
677.02	1716.20
677.21	1740.77
677.39	1673.19
677.58	1667.05
677.77	1660.90
677.95	1665.00
678.14	1654.76
678.32	1693.67
678.51	1644.52
678.70	1810.40
678.88	1689.57
679.07	1763.30
679.25	1714.15
679.44	1761.25
679.63	1648.61
679.81	1660.90
680.00	1701.86
680.18	1755.11
680.37	1841.12
680.55	1708.01
680.74	1585.13
680.93	1636.33
681.11	1671.14
681.30	1677.29
681.48	1669.09
681.67	1611.75
681.85	1724.39
682.04	1679.33
682.23	1689.57
682.41	1730.53
682.60	1652.71
682.78	1738.73
682.97	1677.29
683.15	1679.33
683.34	1726.44
683.53	1802.21
683.71	1646.57
683.90	1785.83
684.08	1873.89
684.27	1669.09
684.45	1650.66
684.64	1820.64
684.82	1697.77
685.01	1730.53
685.19	1812.45
685.38	1716.20
685.57	1607.66
685.75	1591.27
685.94	1660.90
686.12	1660.90
686.31	1732.58
686.49	1828.84
686.68	1632.23
686.86	1677.29
687.05	1662.95
687.23	1730.53
687.42	1619.94
687.60	1644.52
687.79	1828.84
687.97	1810.40
688.16	1734.63
688.34	1736.68
688.53	1681.38
688.71	1734.63
688.90	1708.01
689.08	1665.00
689.27	1554.41
689.45	1732.58
689.64	1761.25
689.82	1665.00
690.01	1685.48
690.19	1804.26
690.38	1703.91
690.56	1759.21
690.75	1656.81
690.93	1658.85
691.12	1665.00
691.30	1718.25
691.49	1656.81
691.67	1701.86
691.86	1890.28
692.04	1665.00
692.23	1689.57
692.41	1705.96
692.60	1767.40
692.78	1755.11
692.97	1619.94
693.15	1798.12
693.34	1744.87
693.52	1742.82
693.71	1656.81
693.89	1673.19
694.08	1597.42
694.26	1718.25
694.44	1753.06
694.63	1681.38
694.81	1720.29
695.00	1703.91
695.18	1732.58
695.37	1888.23
695.55	1667.05
695.74	1699.81
695.92	1656.81
696.10	1695.72
696.29	1621.99
696.47	1732.58
696.66	1665.00
696.84	1710.05
697.03	1652.71
697.21	1820.64
697.40	2310.11
697.58	1697.77
697.76	1755.11
697.95	1710.05
698.13	1695.72
698.32	1673.19
698.50	1716.20
698.68	1705.96
698.87	1669.09
699.05	1806.31
699.24	1726.44
699.42	1716.20
699.61	1658.85
699.79	1753.06
699.97	1773.54
700.16	1656.81
700.34	1644.52
700.53	1648.61
700.71	1677.29
700.89	1740.77
701.08	1734.63
701.26	1777.64
701.45	2117.60
701.63	1689.57
701.81	1630.18
702.00	1726.44
702.18	1734.63
702.37	1681.38
702.55	1742.82
702.73	1708.01
702.92	1640.42
703.10	1734.63
703.28	1708.01
703.47	1648.61
703.65	1757.16
703.84	1693.67
704.02	1726.44
704.20	1730.53
704.39	1740.77
704.57	1705.96
704.75	1726.44
704.94	1765.35
705.12	1738.73
705.30	1794.02
705.49	2306.01
705.67	4335.55
705.86	9457.52
706.04	12738.37
706.22	14468.90
706.41	15574.80
706.59	14042.92
706.77	9549.68
706.96	7436.17
707.14	6795.16
707.32	5908.39
707.51	5545.90
707.69	4974.52
707.87	4278.21
708.06	3663.82
708.24	2990.03
708.42	2475.99
708.61	2246.62
708.79	1871.84
708.97	1814.50
709.16	1748.97
709.34	1757.16
709.52	1757.16
709.71	1714.15
709.89	1705.96
710.07	1658.85
710.26	1646.57
710.44	1640.42
710.62	1726.44
710.80	1712.10
710.99	1732.58
711.17	1703.91
711.35	1685.48
711.54	1691.62
711.72	1804.26
711.90	1728.49
712.09	1732.58
712.27	1626.09
712.45	1755.11
712.63	1681.38
712.82	1802.21
713.00	1748.97
713.18	1777.64
713.37	1787.88
713.55	1773.54
713.73	1738.73
713.91	1781.73
714.10	1705.96
714.28	1734.63
714.46	1798.12
714.65	1705.96
714.83	1781.73
715.01	1740.77
715.19	1681.38
715.38	1634.28
715.56	1789.92
715.74	1640.42
715.92	1632.23
716.11	1769.44
716.29	1611.75
716.47	1736.68
716.65	1701.86
716.84	1578.98
717.02	1816.55
717.20	1630.18
717.38	1628.14
717.57	1726.44
717.75	1757.16
717.93	1669.09
718.11	1681.38
718.30	1585.13
718.48	1714.15
718.66	1757.16
718.84	1798.12
719.03	1638.38
719.21	1619.94
719.39	1787.88
719.57	1728.49
719.75	1834.98
719.94	1689.57
720.12	1683.43
720.30	1636.33
720.48	1720.29
720.67	1630.18
720.85	1624.04
721.03	1693.67
721.21	1683.43
721.39	1765.35
721.58	1767.40
721.76	1697.77
721.94	1685.48
722.12	1771.49
722.30	1738.73
722.49	1701.86
722.67	1689.57
722.85	1753.06
723.03	1628.14
723.21	1665.00
723.40	1732.58
723.58	1687.53
723.76	1751.01
723.94	1738.73
724.12	1742.82
724.30	1718.25
724.49	1837.03
724.67	1607.66
724.85	1765.35
725.03	1564.65
725.21	1783.78
725.40	1779.68
725.58	1621.99
725.76	1730.53
725.94	1703.91
726.12	1679.33
726.30	1701.86
726.49	1728.49
726.67	1673.19
726.85	1769.44
727.03	1845.22
727.21	2162.66
727.39	2873.30
727.57	3835.85
727.76	4267.97
727.94	4433.85
728.12	4313.02
728.30	3622.86
728.48	2973.65
728.66	2715.61
728.84	2564.06
729.03	2306.01
729.21	2197.47
729.39	2019.30
729.57	1908.71
729.75	1824.74
729.93	1869.80
730.11	1675.24
730.30	1640.42
730.48	1726.44
730.66	1775.59
730.84	1681.38
731.02	1718.25
731.20	1632.23
731.38	1708.01
731.56	1593.32
731.74	1593.32
731.93	1804.26
732.11	1626.09
732.29	1740.77
732.47	1697.77
732.65	1728.49
732.83	1726.44
733.01	1701.86
733.19	1691.62
733.37	1703.91
733.56	1726.44
733.74	1675.24
733.92	1767.40
734.10	1667.05
734.28	1753.06
734.46	1665.00
734.64	1669.09
734.82	1697.77
735.00	1691.62
735.18	1687.53
735.36	1728.49
735.54	1607.66
735.73	1738.73
735.91	1738.73
736.09	1763.30
736.27	1724.39
736.45	1787.88
736.63	1603.56
736.81	1738.73
736.99	1744.87
737.17	1839.08
737.35	1644.52
737.53	1732.58
737.71	1648.61
737.89	1837.03
738.07	1677.29
738.25	1681.38
738.43	1603.56
738.61	1697.77
738.80	1636.33
738.98	1591.27
739.16	1714.15
739.34	1619.94
739.52	1773.54
739.70	1654.76
739.88	1691.62
740.06	1699.81
740.24	1593.32
740.42	1714.15
740.60	1583.08
740.78	1656.81
740.96	1662.95
741.14	1632.23
741.32	1705.96
741.50	1595.37
741.68	1826.79
741.86	1728.49
742.04	1708.01
742.22	1675.24
742.40	1685.48
742.58	1726.44
742.76	1603.56
742.94	1759.21
743.12	1628.14
743.30	1726.44
743.48	1716.20
743.66	1689.57
743.84	1728.49
744.02	1701.86
744.20	1701.86
744.38	1652.71
744.56	1642.47
744.74	1716.20
744.92	1705.96
745.10	1814.50
745.28	1724.39
745.46	1732.58
745.64	1742.82
745.82	1748.97
746.00	1679.33
746.18	1718.25
746.36	1712.10
746.54	1755.11
746.72	1726.44
746.90	1632.23
747.08	1791.97
747.26	1562.60
747.44	1798.12
747.62	1685.48
747.80	1718.25
747.98	1771.49
748.15	1742.82
748.33	1845.22
748.51	1671.14
748.69	1687.53
748.87	1638.38
749.05	1671.14
749.23	1712.10
749.41	1742.82
749.59	1695.72
749.77	1761.25
749.95	1722.34
750.13	1591.27
750.31	1718.25
750.49	1685.48
750.67	1683.43
750.85	1730.53
751.03	1677.29
751.20	1769.44
751.38	1710.05
751.56	1597.42
751.74	1732.58
751.92	1644.52
752.10	1570.79
752.28	1716.20
752.46	1685.48
752.64	1636.33
752.82	1703.91
753.00	1687.53
753.18	1691.62
753.35	1615.85
753.53	1746.92
753.71	1736.68
753.89	1710.05
754.07	1742.82
754.25	1787.88
754.43	1714.15
754.61	1554.41
754.79	1744.87
754.97	1726.44
755.14	1710.05
755.32	1665.00
755.50	1787.88
755.68	1767.40
755.86	1695.72
756.04	1648.61
756.22	1624.04
756.40	1771.49
756.57	1806.31
756.75	1716.20
756.93	1767.40
757.11	1759.21
757.29	1658.85
757.47	1660.90
757.65	1656.81
757.82	1693.67
758.00	1667.05
758.18	1677.29
758.36	1724.39
758.54	1832.93
758.72	1656.81
758.90	1783.78
759.07	1689.57
759.25	1693.67
759.43	1763.30
759.61	1632.23
759.79	2209.76
759.97	1740.77
760.15	1656.81
760.32	1716.20
760.50	1652.71
760.68	1738.73
760.86	1648.61
761.04	1763.30
761.22	1751.01
761.39	1781.73
761.57	1712.10
761.75	1722.34
761.93	1728.49
762.11	1667.05
762.28	1744.87
762.46	1617.90
762.64	1746.92
762.82	1665.00
763.00	1714.15
763.18	1802.21
763.35	1558.50
763.53	1769.44
763.71	1685.48
763.89	1748.97
764.07	1703.91
764.24	1685.48
764.42	1667.05
764.60	1662.95
764.78	1753.06
764.96	1773.54
765.13	1683.43
765.31	1724.39
765.49	1693.67
765.67	1642.47
765.84	1652.71
766.02	1683.43
766.20	1607.66
766.38	1689.57
766.56	1746.92
766.73	1742.82
766.91	1630.18
767.09	1681.38
767.27	1800.16
767.44	1730.53
767.62	1779.68
767.80	1714.15
767.98	1703.91
768.15	1677.29
768.33	1693.67
768.51	1736.68
768.69	1794.02
768.87	1712.10
769.04	1710.05
769.22	1791.97
769.40	1804.26
769.58	1826.79
769.75	1705.96
769.93	1800.16
770.11	1705.96
770.28	1656.81
770.46	1748.97
770.64	1761.25
770.82	1718.25
770.99	1703.91
771.17	1748.97
771.35	1685.48
771.53	1611.75
771.70	1705.96
771.88	1798.12
772.06	1650.66
772.23	1708.01
772.41	1740.77
772.59	1650.66
772.77	1628.14
772.94	1685.48
773.12	1689.57
773.30	1642.47
773.47	1751.01
773.65	1652.71
773.83	1845.22
774.01	1671.14
774.18	1574.89
774.36	1697.77
774.54	1621.99
774.71	1697.77
774.89	1656.81
775.07	1685.48
775.24	1660.90
775.42	1648.61
775.60	1761.25
775.78	1640.42
775.95	1587.18
776.13	1685.48
776.31	1511.40
776.48	1777.64
776.66	1710.05
776.84	1708.01
777.01	1679.33
777.19	1746.92
777.37	1640.42
777.54	1656.81
777.72	1834.98
777.90	1732.58
778.07	1740.77
778.25	1800.16
778.43	1810.40
778.60	1665.00
778.78	1767.40
778.96	1771.49
779.13	1658.85
779.31	1791.97
779.49	1679.33
779.66	1681.38
779.84	1759.21
780.01	1722.34
780.19	1642.47
780.37	1697.77
780.54	1703.91
780.72	1642.47
780.90	1714.15
781.07	1669.09
781.25	1671.14
781.43	1777.64
781.60	1734.63
781.78	1767.40
781.95	1687.53
782.13	1773.54
782.31	1695.72
782.48	1718.25
782.66	1746.92
782.83	1832.93
783.01	1683.43
783.19	1757.16
783.36	1724.39
783.54	1576.94
783.72	1746.92
783.89	1667.05
784.07	1789.92
784.24	1742.82
784.42	1779.68
784.60	1632.23
784.77	1699.81
784.95	1572.84
785.12	1634.28
785.30	1693.67
785.47	1628.14
785.65	1714.15
785.83	1615.85
786.00	1587.18
786.18	1656.81
786.35	1654.76
786.53	1656.81
786.71	1779.68
786.88	1734.63
787.06	1736.68
787.23	1720.29
787.41	1603.56
787.58	1673.19
787.76	1710.05
787.94	1738.73
788.11	1726.44
788.29	1693.67
788.46	1753.06
788.64	1607.66
788.81	1683.43
788.99	1699.81
789.16	1638.38
789.34	1710.05
789.52	1626.09
789.69	1626.09
789.87	1587.18
790.04	1642.47
790.22	1634.28
790.39	1834.98
790.57	1593.32
790.74	1689.57
790.92	1712.10
791.09	1626.09
791.27	1763.30
791.44	1767.40
791.62	1665.00
791.79	1720.29
791.97	1675.24
792.15	1886.18
792.32	1689.57
792.50	1746.92
792.67	1843.17
792.85	1787.88
793.02	1708.01
793.20	1658.85
793.37	1687.53
793.55	1628.14
793.72	1716.20
793.90	1746.92
794.07	1689.57
794.25	1687.53
794.42	1732.58
794.60	1685.48
794.77	1798.12
794.95	1728.49
795.12	1708.01
795.30	1681.38
795.47	1632.23
795.65	1931.23
795.82	1738.73
796.00	1634.28
796.17	1716.20
796.34	1671.14
796.52	1683.43
796.69	1728.49
796.87	1710.05
797.04	1660.90
797.22	1699.81
797.39	1644.52
797.57	1718.25
797.74	1753.06
797.92	1697.77
798.09	1656.81
798.27	1652.71
798.44	1667.05
798.62	1634.28
798.79	1624.04
798.96	1683.43
799.14	1675.24
799.31	1861.60
799.49	1705.96
799.66	1699.81
799.84	1722.34
800.01	1660.90
800.19	1736.68
800.36	1630.18
800.53	1669.09
800.71	1748.97
800.88	1728.49
801.06	1705.96
801.23	1695.72
801.41	1636.33
801.58	1705.96
801.75	1652.71
801.93	1757.16
802.10	1751.01
802.28	1687.53
802.45	1638.38
802.63	1732.58
802.80	1791.97
802.97	1679.33
803.15	1705.96
803.32	1667.05
803.50	1609.70
803.67	1607.66
803.84	1740.77
804.02	1714.15
804.19	1619.94
804.37	1587.18
804.54	1652.71
804.71	1605.61
804.89	1726.44
805.06	1730.53
805.24	1652.71
805.41	1581.03
805.58	1675.24
805.76	1800.16
805.93	1695.72
806.10	1781.73
806.28	1677.29
806.45	1730.53
806.63	1720.29
806.80	1665.00
806.97	1687.53
807.15	1716.20
807.32	1648.61
807.49	1691.62
807.67	1710.05
807.84	1669.09
808.01	1578.98
808.19	1753.06
808.36	1751.01
808.54	1679.33
808.71	1689.57
808.88	1746.92
809.06	1753.06
809.23	1837.03
809.40	1722.34
809.58	1777.64
809.75	1662.95
809.92	1667.05
810.10	1802.21
810.27	1708.01
810.44	1759.21
810.62	1767.40
810.79	1667.05
810.96	1605.61
811.14	1718.25
811.31	1730.53
811.48	1744.87
811.66	1652.71
811.83	1791.97
812.00	1722.34
812.18	1730.53
812.35	1824.74
812.52	1636.33
812.69	1685.48
812.87	1708.01
813.04	1642.47
813.21	1738.73
813.39	1654.76
813.56	1656.81
813.73	1804.26
813.91	1542.12
814.08	1665.00
814.25	1763.30
814.42	1648.61
814.60	1599.46
814.77	1767.40
814.94	1638.38
815.12	1673.19
815.29	1697.77
815.46	1699.81
815.63	1683.43
815.81	1636.33
815.98	1601.51
816.15	1775.59
816.33	1742.82
816.50	1640.42
816.67	1691.62
816.84	1630.18
817.02	1617.90
817.19	1640.42
817.36	1689.57
817.53	1714.15
817.71	1650.66
817.88	1720.29
818.05	1705.96
818.22	1705.96
818.40	1726.44
818.57	1708.01
818.74	1609.70
818.91	1658.85
819.09	1697.77
819.26	1769.44
819.43	1689.57
819.60	1648.61
819.78	1697.77
819.95	1789.92
820.12	1697.77
820.29	1767.40
820.47	1779.68
820.64	1693.67
820.81	1626.09
820.98	1685.48
821.15	1638.38
821.33	1724.39
821.50	1667.05
821.67	1732.58
821.84	1683.43
822.02	1708.01
822.19	1726.44
822.36	1712.10
822.53	1628.14
822.70	1648.61
822.88	1689.57
823.05	1755.11
823.22	1683.43
823.39	1697.77
823.56	1675.24
823.74	1777.64
823.91	1538.02
824.08	1703.91
824.25	1648.61
824.42	1748.97
824.60	1601.51
824.77	1679.33
824.94	1626.09
825.11	1734.63
825.28	1624.04
825.45	1748.97
825.63	1722.34
825.80	1687.53
825.97	1701.86
826.14	1718.25
826.31	1597.42
826.48	1746.92
826.66	1705.96
826.83	1617.90
827.00	1701.86
827.17	1689.57
827.34	1695.72
827.51	1685.48
827.69	1605.61
827.86	1640.42
828.03	1689.57
828.20	1665.00
828.37	1679.33
828.54	1689.57
828.71	1677.29
828.89	1841.12
829.06	1722.34
829.23	1812.45
829.40	1638.38
829.57	1648.61
829.74	1703.91
829.91	1636.33
830.09	1638.38
830.26	1738.73
830.43	1806.31
830.60	1634.28
830.77	1736.68
830.94	1738.73
831.11	1740.77
831.28	1605.61
831.46	1705.96
831.63	1624.04
831.80	1761.25
831.97	1632.23
832.14	1687.53
832.31	1802.21
832.48	1734.63
832.65	1697.77
832.82	1722.34
832.99	1769.44
833.17	1634.28
833.34	1777.64
833.51	1656.81
833.68	1605.61
833.85	1730.53
834.02	1677.29
834.19	1710.05
834.36	1626.09
834.53	1673.19
834.70	1763.30
834.87	1736.68
835.04	1665.00
835.22	1679.33
835.39	1642.47
835.56	1589.22
835.73	1667.05
835.90	1765.35
836.07	1587.18
836.24	1730.53
836.41	1624.04
836.58	1611.75
836.75	1742.82
836.92	1703.91
837.09	1738.73
837.26	1789.92
837.43	1820.64
837.60	1693.67
837.77	1673.19
837.94	1730.53
838.12	1722.34
838.29	1712.10
838.46	1587.18
838.63	1615.85
838.80	1744.87
838.97	1812.45
839.14	1667.05
839.31	1665.00
839.48	1777.64
839.65	1710.05
839.82	1669.09
839.99	1669.09
840.16	1705.96
840.33	1652.71
840.50	1665.00
840.67	1599.46
840.84	1578.98
841.01	1656.81
841.18	1624.04
841.35	1712.10
841.52	1693.67
841.69	1791.97
841.86	1673.19
842.03	1658.85
842.20	1734.63
842.37	1673.19
842.54	1765.35
842.71	1677.29
842.88	1689.57
843.05	1687.53
843.22	1710.05
843.39	1720.29
843.56	1642.47
843.73	1740.77
843.90	1667.05
844.07	1681.38
844.24	1703.91
844.41	1695.72
844.58	1724.39
844.75	1648.61
844.92	1765.35
845.09	1648.61
845.26	1724.39
845.43	1640.42
845.60	1660.90
845.77	1746.92
845.94	1724.39
846.10	1685.48
846.27	1656.81
846.44	1640.42
846.61	1638.38
846.78	1697.77
846.95	1763.30
847.12	1667.05
847.29	1730.53
847.46	1617.90
847.63	1781.73
847.80	1642.47
847.97	1607.66
848.14	1859.56
848.31	1705.96
848.48	1673.19
848.65	1722.34
848.82	1693.67
848.98	1845.22
849.15	1732.58
849.32	1712.10
849.49	1714.15
849.66	1728.49
849.83	1699.81
850.00	1636.33
850.17	1710.05
850.34	1767.40
850.51	1601.51
850.68	1697.77
850.85	1849.32
851.01	1722.34
851.18	1742.82
851.35	1759.21
851.52	1697.77
851.69	1796.07
851.86	1646.57
852.03	1753.06
852.20	1759.21
852.37	1677.29
852.53	1638.38
852.70	1705.96
852.87	1689.57
853.04	1761.25
853.21	1675.24
853.38	1765.35
853.55	1714.15
853.72	1724.39
853.89	1751.01
854.05	1621.99
854.22	1642.47
854.39	1695.72
854.56	1642.47
854.73	1759.21
854.90	1648.61
855.07	1755.11
855.23	1652.71
855.40	1701.86
855.57	1714.15
855.74	1564.65
855.91	1910.75
856.08	1673.19
856.25	1619.94
856.41	1691.62
856.58	1697.77
856.75	1730.53
856.92	1665.00
857.09	1744.87
857.26	1630.18
857.42	1769.44
857.59	1669.09
857.76	1615.85
857.93	1777.64
858.10	1624.04
858.27	1679.33
858.43	1708.01
858.60	1660.90
858.77	1679.33
858.94	1656.81
859.11	1748.97
859.27	1679.33
859.44	1697.77
859.61	1791.97
859.78	1720.29
859.95	1753.06
860.12	1609.70
860.28	1718.25
860.45	1763.30
860.62	1681.38
860.79	1660.90
860.95	1691.62
861.12	1597.42
861.29	1691.62
861.46	1642.47
861.63	1708.01
861.79	1722.34
861.96	1646.57
862.13	1621.99
862.30	1746.92
862.47	1732.58
862.63	1673.19
862.80	1703.91
862.97	1816.55
863.14	1751.01
863.30	1769.44
863.47	1626.09
863.64	1730.53
863.81	1705.96
863.97	1685.48
864.14	1671.14
864.31	1583.08
864.48	1718.25
864.65	1734.63
864.81	1769.44
864.98	1757.16
865.15	1722.34
865.32	1683.43
865.48	1738.73
865.65	1744.87
865.82	1763.30
865.98	1796.07
866.15	1714.15
866.32	1718.25
866.49	1681.38
866.65	1748.97
866.82	1603.56
866.99	1691.62
867.16	1632.23
867.32	1683.43
867.49	1665.00
867.66	1693.67
867.83	1609.70
867.99	1587.18
868.16	1681.38
868.33	1611.75
868.49	1658.85
868.66	1667.05
868.83	1673.19
868.99	1675.24
869.16	1681.38
869.33	1794.02
869.50	1677.29
869.66	1714.15
869.83	1740.77
870.00	1583.08
870.16	1757.16
870.33	1742.82
870.50	1742.82
870.66	1671.14
870.83	1779.68
871.00	1669.09
871.17	1634.28
871.33	1796.07
871.50	1615.85
871.67	1673.19
871.83	1611.75
872.00	1853.41
872.17	1611.75
872.33	1732.58
872.50	1705.96
872.67	1751.01
872.83	1699.81
873.00	1732.58
873.17	1710.05
873.33	1722.34
873.50	1708.01
873.67	1675.24
873.83	1658.85
874.00	1691.62
874.16	1789.92
874.33	1705.96
874.50	1648.61
874.66	1716.20
874.83	1652.71
875.00	1730.53
875.16	1695.72
875.33	1759.21
875.50	1558.50
875.66	1681.38
875.83	1687.53
875.99	1722.34
876.16	1701.86
876.33	1683.43
876.49	1757.16
876.66	1751.01
876.83	1652.71
876.99	1611.75
877.16	1679.33
877.32	1662.95
877.49	1695.72
877.66	1665.00
877.82	1775.59
877.99	1671.14
878.15	1794.02
878.32	1683.43
878.49	1757.16
878.65	1624.04
878.82	1791.97
878.98	1632.23
879.15	1802.21
879.32	1767.40
879.48	1757.16
879.65	1677.29
879.81	1683.43
879.98	1652.71
880.15	1679.33
880.31	1679.33
880.48	1658.85
880.64	1820.64
880.81	1714.15
880.97	1785.83
881.14	1685.48
881.31	1646.57
881.47	1853.41
881.64	1667.05
881.80	1609.70
881.97	1728.49
882.13	1787.88
882.30	1683.43
882.47	1665.00
882.63	1587.18
882.80	1722.34
882.96	1609.70
883.13	1681.38
883.29	1642.47
883.46	1708.01
883.62	1755.11
883.79	1691.62
883.95	1744.87
884.12	1716.20
884.29	1761.25
884.45	1695.72
884.62	1703.91
884.78	1683.43
884.95	1775.59
885.11	1699.81
885.28	1771.49
885.44	1638.38
885.61	1720.29
885.77	1716.20
885.94	1787.88
886.10	1763.30
886.27	1677.29
886.43	1814.50
886.60	1732.58
886.76	1705.96
886.93	1693.67
887.09	1751.01
887.26	1591.27
887.42	1718.25
887.59	1832.93
887.75	1837.03
887.92	1712.10
888.08	1722.34
888.25	1794.02
888.41	1740.77
888.58	1734.63
888.74	1708.01
888.91	1687.53
>>>>>End Processed Spectral Data<<<<<
