SpectraSuite Data File
++++++++++++++++++++++++++++++++++++
Date: Mon Jun 06 12:23:57 CEST 2016
User: root
Dark Spectrum Present: No
Reference Spectrum Present: No
Number of Sampled Component Spectra: 1
Spectrometers: USB4C02835
Integration Time (usec): 100000 (USB4C02835)
Spectra Averaged: 1 (USB4C02835)
Boxcar Smoothing: 0 (USB4C02835)
Correct for Electrical Dark: No (USB4C02835)
Strobe/Lamp Enabled: No (USB4C02835)
Correct for Detector Non-linearity: No (USB4C02835)
Correct for Stray Light: No (USB4C02835)
Number of Pixels in Processed Spectrum: 3648
>>>>>Begin Processed Spectral Data<<<<<
177.47	1445.87
177.69	1445.87
177.91	1445.87
178.13	1445.87
178.36	1429.48
178.58	1648.61
178.80	1652.71
179.02	1619.94
179.24	1630.18
179.46	1681.38
179.68	1746.92
179.90	1611.75
180.13	1757.16
180.35	1628.14
180.57	1662.95
180.79	1695.72
181.01	1613.80
181.23	1724.39
181.45	1726.44
181.67	1732.58
181.90	1703.91
182.12	1695.72
182.34	1656.81
182.56	1689.57
182.78	1765.35
183.00	1671.14
183.22	1703.91
183.44	1591.27
183.66	1843.17
183.89	1748.97
184.11	1777.64
184.33	1701.86
184.55	1744.87
184.77	1828.84
184.99	1734.63
185.21	1650.66
185.43	1839.08
185.65	1667.05
185.87	1724.39
186.10	1894.37
186.32	1812.45
186.54	1701.86
186.76	1669.09
186.98	1738.73
187.20	1683.43
187.42	1693.67
187.64	1687.53
187.86	1771.49
188.08	1775.59
188.30	1589.22
188.52	1691.62
188.75	1738.73
188.97	1763.30
189.19	1705.96
189.41	1578.98
189.63	1720.29
189.85	1689.57
190.07	1640.42
190.29	1609.70
190.51	1724.39
190.73	1634.28
190.95	1763.30
191.17	1689.57
191.39	1667.05
191.61	1640.42
191.84	1757.16
192.06	1697.77
192.28	1667.05
192.50	1773.54
192.72	1667.05
192.94	1687.53
193.16	1814.50
193.38	1677.29
193.60	1609.70
193.82	1701.86
194.04	1767.40
194.26	1685.48
194.48	1667.05
194.70	1607.66
194.92	1673.19
195.14	1712.10
195.36	1630.18
195.58	1640.42
195.80	1646.57
196.02	1646.57
196.24	1677.29
196.46	1703.91
196.69	1701.86
196.91	1824.74
197.13	1677.29
197.35	1660.90
197.57	1804.26
197.79	1697.77
198.01	1691.62
198.23	1691.62
198.45	1748.97
198.67	1683.43
198.89	1665.00
199.11	1744.87
199.33	1613.80
199.55	1595.37
199.77	1628.14
199.99	1742.82
200.21	1699.81
200.43	1705.96
200.65	1617.90
200.87	1656.81
201.09	1765.35
201.31	1648.61
201.53	1675.24
201.75	1746.92
201.97	1654.76
202.19	1753.06
202.41	1789.92
202.63	1800.16
202.85	1720.29
203.07	1695.72
203.29	1638.38
203.51	1673.19
203.73	1626.09
203.95	1898.47
204.17	1751.01
204.39	1630.18
204.61	1705.96
204.83	1671.14
205.05	1787.88
205.27	1765.35
205.49	1769.44
205.71	1744.87
205.93	1578.98
206.15	1781.73
206.37	1658.85
206.59	1699.81
206.81	1634.28
207.03	1576.94
207.25	1581.03
207.47	1789.92
207.69	1718.25
207.91	1736.68
208.13	1769.44
208.34	1652.71
208.56	1685.48
208.78	1724.39
209.00	1697.77
209.22	1640.42
209.44	1732.58
209.66	1724.39
209.88	1740.77
210.10	1691.62
210.32	1699.81
210.54	1818.60
210.76	1669.09
210.98	1667.05
211.20	1546.22
211.42	1697.77
211.64	1665.00
211.86	1667.05
212.08	1746.92
212.30	1746.92
212.52	1644.52
212.74	1636.33
212.96	1740.77
213.17	1724.39
213.39	1718.25
213.61	1740.77
213.83	1744.87
214.05	1701.86
214.27	1753.06
214.49	1697.77
214.71	1722.34
214.93	1740.77
215.15	1708.01
215.37	1763.30
215.59	1632.23
215.81	1742.82
216.03	1824.74
216.24	1712.10
216.46	1679.33
216.68	1728.49
216.90	1669.09
217.12	1742.82
217.34	1685.48
217.56	1742.82
217.78	1802.21
218.00	1701.86
218.22	1673.19
218.44	1720.29
218.66	1714.15
218.87	1871.84
219.09	1681.38
219.31	1697.77
219.53	1757.16
219.75	1636.33
219.97	1677.29
220.19	1705.96
220.41	1769.44
220.63	1744.87
220.85	1724.39
221.06	1658.85
221.28	1732.58
221.50	1683.43
221.72	1626.09
221.94	1638.38
222.16	1697.77
222.38	1802.21
222.60	1802.21
222.82	1671.14
223.03	1720.29
223.25	1609.70
223.47	1738.73
223.69	1740.77
223.91	1677.29
224.13	1619.94
224.35	1658.85
224.57	1751.01
224.78	1650.66
225.00	1626.09
225.22	1710.05
225.44	1771.49
225.66	1755.11
225.88	1648.61
226.10	1736.68
226.32	1705.96
226.53	1812.45
226.75	1648.61
226.97	1642.47
227.19	1640.42
227.41	1611.75
227.63	1654.76
227.85	1644.52
228.06	1724.39
228.28	1683.43
228.50	1724.39
228.72	1714.15
228.94	1693.67
229.16	1572.84
229.37	1644.52
229.59	1636.33
229.81	1730.53
230.03	1667.05
230.25	1665.00
230.47	1634.28
230.69	1638.38
230.90	1761.25
231.12	1642.47
231.34	1710.05
231.56	1710.05
231.78	1636.33
232.00	1753.06
232.21	1671.14
232.43	1615.85
232.65	1636.33
232.87	1669.09
233.09	1730.53
233.30	1648.61
233.52	1773.54
233.74	1683.43
233.96	1710.05
234.18	1650.66
234.40	1658.85
234.61	1781.73
234.83	1607.66
235.05	1673.19
235.27	1763.30
235.49	1697.77
235.70	1757.16
235.92	1695.72
236.14	1728.49
236.36	1841.12
236.58	1609.70
236.79	1667.05
237.01	1699.81
237.23	1632.23
237.45	1804.26
237.67	1722.34
237.88	1687.53
238.10	1834.98
238.32	1669.09
238.54	1615.85
238.76	1665.00
238.97	1638.38
239.19	1632.23
239.41	1695.72
239.63	1712.10
239.85	1712.10
240.06	1675.24
240.28	1673.19
240.50	1794.02
240.72	1738.73
240.93	1699.81
241.15	1736.68
241.37	1759.21
241.59	1777.64
241.81	1673.19
242.02	1642.47
242.24	1632.23
242.46	1724.39
242.68	1652.71
242.89	1621.99
243.11	1724.39
243.33	1695.72
243.55	1710.05
243.76	1673.19
243.98	1685.48
244.20	1708.01
244.42	1708.01
244.64	1636.33
244.85	1685.48
245.07	1691.62
245.29	1765.35
245.51	1697.77
245.72	1726.44
245.94	1771.49
246.16	1662.95
246.38	1708.01
246.59	1732.58
246.81	1632.23
247.03	1691.62
247.24	1660.90
247.46	1630.18
247.68	1640.42
247.90	1685.48
248.11	1658.85
248.33	1716.20
248.55	1681.38
248.77	1689.57
248.98	1714.15
249.20	1808.36
249.42	1787.88
249.64	1703.91
249.85	1724.39
250.07	1703.91
250.29	1681.38
250.50	1681.38
250.72	1611.75
250.94	1712.10
251.16	1890.28
251.37	1767.40
251.59	1679.33
251.81	1728.49
252.02	1736.68
252.24	1656.81
252.46	1779.68
252.68	1685.48
252.89	1640.42
253.11	1603.56
253.33	1726.44
253.54	1736.68
253.76	1601.51
253.98	1701.86
254.20	1697.77
254.41	1609.70
254.63	1689.57
254.85	1615.85
255.06	1722.34
255.28	1759.21
255.50	1675.24
255.71	1726.44
255.93	1595.37
256.15	1705.96
256.36	1742.82
256.58	1665.00
256.80	1732.58
257.02	1607.66
257.23	1677.29
257.45	1708.01
257.67	1714.15
257.88	1671.14
258.10	1660.90
258.32	1652.71
258.53	1697.77
258.75	1802.21
258.97	1740.77
259.18	1712.10
259.40	1677.29
259.62	1818.60
259.83	1685.48
260.05	1695.72
260.27	1972.19
260.48	1708.01
260.70	1599.46
260.92	1716.20
261.13	1789.92
261.35	1658.85
261.57	1634.28
261.78	1644.52
262.00	1599.46
262.22	1740.77
262.43	1527.78
262.65	1644.52
262.86	1720.29
263.08	1761.25
263.30	1789.92
263.51	1652.71
263.73	1679.33
263.95	1718.25
264.16	1632.23
264.38	1650.66
264.60	1746.92
264.81	1660.90
265.03	1740.77
265.25	1718.25
265.46	1652.71
265.68	1806.31
265.89	1667.05
266.11	1568.74
266.33	1845.22
266.54	1755.11
266.76	1705.96
266.98	1714.15
267.19	1722.34
267.41	1773.54
267.62	1744.87
267.84	1609.70
268.06	1759.21
268.27	1712.10
268.49	1722.34
268.70	1777.64
268.92	1730.53
269.14	1656.81
269.35	1638.38
269.57	1638.38
269.79	1730.53
270.00	1654.76
270.22	1742.82
270.43	1658.85
270.65	1585.13
270.87	1734.63
271.08	1720.29
271.30	1720.29
271.51	1730.53
271.73	1740.77
271.95	1824.74
272.16	1693.67
272.38	1722.34
272.59	1597.42
272.81	1746.92
273.02	1650.66
273.24	1755.11
273.46	1722.34
273.67	1634.28
273.89	1703.91
274.10	1624.04
274.32	1765.35
274.54	1699.81
274.75	1701.86
274.97	1726.44
275.18	1683.43
275.40	1675.24
275.61	1761.25
275.83	1665.00
276.05	1636.33
276.26	1740.77
276.48	1777.64
276.69	1691.62
276.91	1652.71
277.12	1787.88
277.34	1763.30
277.55	1695.72
277.77	1669.09
277.99	1691.62
278.20	1621.99
278.42	1689.57
278.63	1632.23
278.85	1624.04
279.06	1628.14
279.28	1742.82
279.49	1751.01
279.71	1742.82
279.93	1789.92
280.14	1673.19
280.36	1673.19
280.57	1751.01
280.79	1826.79
281.00	1701.86
281.22	1628.14
281.43	1755.11
281.65	1626.09
281.86	1665.00
282.08	1652.71
282.29	1822.69
282.51	1593.32
282.73	1681.38
282.94	1687.53
283.16	1705.96
283.37	1839.08
283.59	1669.09
283.80	1716.20
284.02	1724.39
284.23	1738.73
284.45	1673.19
284.66	1599.46
284.88	1626.09
285.09	1669.09
285.31	1724.39
285.52	1728.49
285.74	1538.02
285.95	1716.20
286.17	1761.25
286.38	1722.34
286.60	1667.05
286.81	1656.81
287.03	1665.00
287.24	1654.76
287.46	1775.59
287.67	1673.19
287.89	1806.31
288.10	1722.34
288.32	1605.61
288.53	1789.92
288.75	1632.23
288.96	1796.07
289.18	1644.52
289.39	1671.14
289.61	1734.63
289.82	1820.64
290.04	1736.68
290.25	1595.37
290.47	1748.97
290.68	1632.23
290.90	1808.36
291.11	1617.90
291.33	1738.73
291.54	1609.70
291.76	1660.90
291.97	1703.91
292.18	1689.57
292.40	1718.25
292.61	1683.43
292.83	1810.40
293.04	1714.15
293.26	1740.77
293.47	1617.90
293.69	1650.66
293.90	1701.86
294.12	1740.77
294.33	1703.91
294.55	1593.32
294.76	1699.81
294.97	1734.63
295.19	1769.44
295.40	1671.14
295.62	1734.63
295.83	1712.10
296.05	1652.71
296.26	1742.82
296.48	1689.57
296.69	1607.66
296.90	1712.10
297.12	1685.48
297.33	1732.58
297.55	1732.58
297.76	1718.25
297.98	1746.92
298.19	1675.24
298.41	1714.15
298.62	1757.16
298.83	1791.97
299.05	1603.56
299.26	1714.15
299.48	1587.18
299.69	1755.11
299.90	1681.38
300.12	1599.46
300.33	1753.06
300.55	1695.72
300.76	1730.53
300.98	1658.85
301.19	1767.40
301.40	1740.77
301.62	1611.75
301.83	1716.20
302.05	1697.77
302.26	1734.63
302.47	1691.62
302.69	1568.74
302.90	1656.81
303.12	1585.13
303.33	1705.96
303.54	1722.34
303.76	1787.88
303.97	1675.24
304.19	1771.49
304.40	1619.94
304.61	1722.34
304.83	1804.26
305.04	1740.77
305.26	1621.99
305.47	1683.43
305.68	1660.90
305.90	1593.32
306.11	1769.44
306.33	1726.44
306.54	1654.76
306.75	1617.90
306.97	1695.72
307.18	1646.57
307.39	1605.61
307.61	1767.40
307.82	1673.19
308.04	1779.68
308.25	1642.47
308.46	1701.86
308.68	1705.96
308.89	1710.05
309.10	1783.78
309.32	1740.77
309.53	1640.42
309.74	1708.01
309.96	1689.57
310.17	1714.15
310.39	1710.05
310.60	1748.97
310.81	1681.38
311.03	1568.74
311.24	1722.34
311.45	1677.29
311.67	1757.16
311.88	1732.58
312.09	1681.38
312.31	1665.00
312.52	1691.62
312.73	1724.39
312.95	1578.98
313.16	1734.63
313.37	1757.16
313.59	1689.57
313.80	1759.21
314.01	1822.69
314.23	1708.01
314.44	1667.05
314.65	1619.94
314.87	1708.01
315.08	1617.90
315.29	1689.57
315.51	1705.96
315.72	1691.62
315.93	1851.36
316.15	1742.82
316.36	1724.39
316.57	1685.48
316.79	1796.07
317.00	1751.01
317.21	1753.06
317.43	1685.48
317.64	1683.43
317.85	1650.66
318.07	1667.05
318.28	1761.25
318.49	1832.93
318.70	1869.80
318.92	1767.40
319.13	1783.78
319.34	1828.84
319.56	1751.01
319.77	1804.26
319.98	1777.64
320.20	1763.30
320.41	1699.81
320.62	1732.58
320.83	1671.14
321.05	1783.78
321.26	1701.86
321.47	1736.68
321.69	1808.36
321.90	1679.33
322.11	1677.29
322.32	1697.77
322.54	1738.73
322.75	1667.05
322.96	1873.89
323.18	1607.66
323.39	1566.70
323.60	1650.66
323.81	1734.63
324.03	1648.61
324.24	1665.00
324.45	1689.57
324.66	1691.62
324.88	1736.68
325.09	1740.77
325.30	1714.15
325.52	1691.62
325.73	1681.38
325.94	1621.99
326.15	1583.08
326.37	1638.38
326.58	1769.44
326.79	1755.11
327.00	1601.51
327.22	1708.01
327.43	1738.73
327.64	1597.42
327.85	1767.40
328.07	1669.09
328.28	1769.44
328.49	1644.52
328.70	1787.88
328.92	1662.95
329.13	1609.70
329.34	1665.00
329.55	1822.69
329.76	1759.21
329.98	1720.29
330.19	1683.43
330.40	1720.29
330.61	1746.92
330.83	1732.58
331.04	1621.99
331.25	1703.91
331.46	1708.01
331.68	1697.77
331.89	1791.97
332.10	1691.62
332.31	1611.75
332.52	1693.67
332.74	1740.77
332.95	1619.94
333.16	1593.32
333.37	1777.64
333.58	1660.90
333.80	1714.15
334.01	1576.94
334.22	1718.25
334.43	1656.81
334.64	1710.05
334.86	1648.61
335.07	1646.57
335.28	1783.78
335.49	1591.27
335.70	1724.39
335.92	1738.73
336.13	1925.09
336.34	1718.25
336.55	1734.63
336.76	1689.57
336.98	1673.19
337.19	1699.81
337.40	1796.07
337.61	1800.16
337.82	1650.66
338.04	1683.43
338.25	1574.89
338.46	1722.34
338.67	1683.43
338.88	1654.76
339.09	1595.37
339.31	1685.48
339.52	1636.33
339.73	1609.70
339.94	1693.67
340.15	1769.44
340.36	1601.51
340.58	1759.21
340.79	1667.05
341.00	1648.61
341.21	1619.94
341.42	1839.08
341.63	1714.15
341.85	1732.58
342.06	1730.53
342.27	1673.19
342.48	1718.25
342.69	1574.89
342.90	1652.71
343.12	1679.33
343.33	1679.33
343.54	1738.73
343.75	1789.92
343.96	1691.62
344.17	1636.33
344.38	1705.96
344.60	1619.94
344.81	1613.80
345.02	1615.85
345.23	1732.58
345.44	1808.36
345.65	1724.39
345.86	1724.39
346.07	1665.00
346.29	1675.24
346.50	1693.67
346.71	1732.58
346.92	1744.87
347.13	1859.56
347.34	1669.09
347.55	1718.25
347.76	1662.95
347.98	1648.61
348.19	1667.05
348.40	1691.62
348.61	1630.18
348.82	1771.49
349.03	1683.43
349.24	1685.48
349.45	1728.49
349.66	1595.37
349.88	1740.77
350.09	1685.48
350.30	1699.81
350.51	1804.26
350.72	1732.58
350.93	1705.96
351.14	1628.14
351.35	1695.72
351.56	1701.86
351.77	1681.38
351.99	1726.44
352.20	1818.60
352.41	1695.72
352.62	1570.79
352.83	1617.90
353.04	1714.15
353.25	1689.57
353.46	1757.16
353.67	1769.44
353.88	1572.84
354.09	1710.05
354.30	1615.85
354.52	1753.06
354.73	1613.80
354.94	1605.61
355.15	1695.72
355.36	1753.06
355.57	1714.15
355.78	1703.91
355.99	1654.76
356.20	1699.81
356.41	1824.74
356.62	1648.61
356.83	1724.39
357.04	1765.35
357.25	1595.37
357.46	1685.48
357.68	1613.80
357.89	1613.80
358.10	1683.43
358.31	1640.42
358.52	1689.57
358.73	1667.05
358.94	1634.28
359.15	1636.33
359.36	1646.57
359.57	1681.38
359.78	1644.52
359.99	1638.38
360.20	1693.67
360.41	1652.71
360.62	1740.77
360.83	1746.92
361.04	1673.19
361.25	1671.14
361.46	1755.11
361.67	1726.44
361.88	1730.53
362.09	1796.07
362.30	1714.15
362.51	1681.38
362.72	1683.43
362.93	1748.97
363.14	1687.53
363.35	1656.81
363.56	1687.53
363.78	1759.21
363.99	1777.64
364.20	1701.86
364.41	1726.44
364.62	1810.40
364.83	1732.58
365.04	1671.14
365.25	1640.42
365.46	1845.22
365.67	1673.19
365.88	1632.23
366.09	1607.66
366.30	1708.01
366.51	1656.81
366.72	1617.90
366.93	1650.66
367.14	1681.38
367.35	1730.53
367.56	1669.09
367.77	1802.21
367.98	1685.48
368.18	1665.00
368.39	1773.54
368.60	1705.96
368.81	1697.77
369.02	1722.34
369.23	1658.85
369.44	1644.52
369.65	1683.43
369.86	1673.19
370.07	1751.01
370.28	1634.28
370.49	1693.67
370.70	1724.39
370.91	1605.61
371.12	1630.18
371.33	1703.91
371.54	1654.76
371.75	1775.59
371.96	1628.14
372.17	1755.11
372.38	1681.38
372.59	1734.63
372.80	1708.01
373.01	1693.67
373.22	1781.73
373.43	1720.29
373.64	1636.33
373.85	1712.10
374.06	1894.37
374.26	1722.34
374.47	1748.97
374.68	1751.01
374.89	1746.92
375.10	1644.52
375.31	1710.05
375.52	1732.58
375.73	1777.64
375.94	1646.57
376.15	1740.77
376.36	1677.29
376.57	1695.72
376.78	1726.44
376.99	1697.77
377.20	1734.63
377.40	1673.19
377.61	1808.36
377.82	1656.81
378.03	1685.48
378.24	1689.57
378.45	1710.05
378.66	1705.96
378.87	1654.76
379.08	1601.51
379.29	1701.86
379.50	1746.92
379.71	1722.34
379.91	1796.07
380.12	1665.00
380.33	1705.96
380.54	1638.38
380.75	1720.29
380.96	1656.81
381.17	1814.50
381.38	1632.23
381.59	1734.63
381.80	1722.34
382.00	1902.56
382.21	1722.34
382.42	1855.46
382.63	1880.04
382.84	1755.11
383.05	1746.92
383.26	1794.02
383.47	1687.53
383.68	1777.64
383.88	1736.68
384.09	1681.38
384.30	1806.31
384.51	1804.26
384.72	1705.96
384.93	1605.61
385.14	1693.67
385.35	1728.49
385.55	1671.14
385.76	1787.88
385.97	1736.68
386.18	1615.85
386.39	1658.85
386.60	1726.44
386.81	1652.71
387.02	1648.61
387.22	1693.67
387.43	1722.34
387.64	1822.69
387.85	1830.88
388.06	2189.28
388.27	4288.45
388.48	6877.08
388.68	8439.68
388.89	9850.73
389.10	10002.28
389.31	8628.09
389.52	7643.02
389.73	6809.50
389.93	6334.37
390.14	5984.16
390.35	5328.81
390.56	4579.26
390.77	3704.78
390.98	2977.75
391.18	2557.91
391.39	2160.61
391.60	1853.41
391.81	1865.70
392.02	1722.34
392.23	1837.03
392.43	1746.92
392.64	1728.49
392.85	1726.44
393.06	1796.07
393.27	1689.57
393.47	1699.81
393.68	1812.45
393.89	1660.90
394.10	1791.97
394.31	1738.73
394.52	1632.23
394.72	1699.81
394.93	1781.73
395.14	1644.52
395.35	1810.40
395.56	1617.90
395.76	1675.24
395.97	1757.16
396.18	1796.07
396.39	1798.12
396.60	2050.02
396.80	1873.89
397.01	1828.84
397.22	1900.52
397.43	1886.18
397.64	1693.67
397.84	1689.57
398.05	1828.84
398.26	1798.12
398.47	1718.25
398.67	1755.11
398.88	1714.15
399.09	1740.77
399.30	1665.00
399.51	1718.25
399.71	1681.38
399.92	1646.57
400.13	1701.86
400.34	1685.48
400.54	1705.96
400.75	1849.32
400.96	1644.52
401.17	1820.64
401.37	1718.25
401.58	1761.25
401.79	1671.14
402.00	1845.22
402.21	2011.11
402.41	1974.24
402.62	1998.82
402.83	1945.57
403.04	2027.49
403.24	1982.43
403.45	1859.56
403.66	1871.84
403.87	1910.75
404.07	1810.40
404.28	1900.52
404.49	1812.45
404.70	1753.06
404.90	1806.31
405.11	1718.25
405.32	1726.44
405.52	1722.34
405.73	1640.42
405.94	1646.57
406.15	1650.66
406.35	1777.64
406.56	1794.02
406.77	1726.44
406.98	1710.05
407.18	1695.72
407.39	1744.87
407.60	1660.90
407.80	1763.30
408.01	1669.09
408.22	1689.57
408.43	1660.90
408.63	1763.30
408.84	1736.68
409.05	1759.21
409.25	1716.20
409.46	1697.77
409.67	1681.38
409.88	1593.32
410.08	1755.11
410.29	1683.43
410.50	1705.96
410.70	1728.49
410.91	1603.56
411.12	1697.77
411.32	1652.71
411.53	1648.61
411.74	1824.74
411.95	1791.97
412.15	1648.61
412.36	1800.16
412.57	1763.30
412.77	1859.56
412.98	1673.19
413.19	1660.90
413.39	1712.10
413.60	1673.19
413.81	1853.41
414.01	1675.24
414.22	1701.86
414.43	1730.53
414.63	1685.48
414.84	1738.73
415.05	1708.01
415.25	1705.96
415.46	1806.31
415.67	1671.14
415.87	1693.67
416.08	1695.72
416.29	1642.47
416.49	1716.20
416.70	1652.71
416.91	1693.67
417.11	1619.94
417.32	1759.21
417.53	1806.31
417.73	1722.34
417.94	1662.95
418.15	1740.77
418.35	1796.07
418.56	1708.01
418.77	1757.16
418.97	1714.15
419.18	1671.14
419.38	1589.22
419.59	1689.57
419.80	1751.01
420.00	1744.87
420.21	1642.47
420.42	1710.05
420.62	1656.81
420.83	1726.44
421.04	1693.67
421.24	1677.29
421.45	1720.29
421.65	1654.76
421.86	1742.82
422.07	1705.96
422.27	1669.09
422.48	1722.34
422.69	1712.10
422.89	1736.68
423.10	1685.48
423.30	1603.56
423.51	1685.48
423.72	1673.19
423.92	1710.05
424.13	1621.99
424.33	1667.05
424.54	1710.05
424.75	1740.77
424.95	1818.60
425.16	1677.29
425.36	1687.53
425.57	1730.53
425.78	1734.63
425.98	1771.49
426.19	1665.00
426.39	1638.38
426.60	1683.43
426.81	1767.40
427.01	1705.96
427.22	1687.53
427.42	1605.61
427.63	1652.71
427.83	1744.87
428.04	1816.55
428.25	1740.77
428.45	1736.68
428.66	1744.87
428.86	1724.39
429.07	1726.44
429.28	1683.43
429.48	1705.96
429.69	1638.38
429.89	1701.86
430.10	1585.13
430.30	1791.97
430.51	1720.29
430.71	1710.05
430.92	1689.57
431.13	1673.19
431.33	1738.73
431.54	1757.16
431.74	1785.83
431.95	1857.51
432.15	1615.85
432.36	1763.30
432.56	1728.49
432.77	1818.60
432.98	1763.30
433.18	1724.39
433.39	1658.85
433.59	1660.90
433.80	1771.49
434.00	1822.69
434.21	1693.67
434.41	1603.56
434.62	1910.75
434.82	1679.33
435.03	1619.94
435.23	1671.14
435.44	1683.43
435.64	1720.29
435.85	1667.05
436.06	1740.77
436.26	1746.92
436.47	1693.67
436.67	1667.05
436.88	1746.92
437.08	1724.39
437.29	1851.36
437.49	1701.86
437.70	1734.63
437.90	1722.34
438.11	1800.16
438.31	1738.73
438.52	1867.75
438.72	1773.54
438.93	1943.52
439.13	1787.88
439.34	1730.53
439.54	1714.15
439.75	1789.92
439.95	1761.25
440.16	1650.66
440.36	1671.14
440.57	1728.49
440.77	1740.77
440.98	1705.96
441.18	1783.78
441.39	1648.61
441.59	1673.19
441.80	1828.84
442.00	1720.29
442.21	1875.94
442.41	1562.60
442.62	1791.97
442.82	1636.33
443.02	1726.44
443.23	1677.29
443.43	1626.09
443.64	1806.31
443.84	1621.99
444.05	1769.44
444.25	1763.30
444.46	1697.77
444.66	1781.73
444.87	1843.17
445.07	1656.81
445.28	1736.68
445.48	1798.12
445.69	1701.86
445.89	1877.99
446.09	1689.57
446.30	2009.06
446.50	2676.70
446.71	3651.53
446.91	4368.32
447.12	4714.42
447.32	4851.64
447.53	4337.60
447.73	3897.28
447.93	3524.55
448.14	3387.34
448.34	3184.59
448.55	2828.24
448.75	2854.87
448.96	2639.83
449.16	2361.31
449.36	2265.05
449.57	2070.50
449.77	1884.13
449.98	1841.12
450.18	1806.31
450.39	1912.80
450.59	1730.53
450.79	1699.81
451.00	1626.09
451.20	1767.40
451.41	1687.53
451.61	1742.82
451.81	1714.15
452.02	1718.25
452.22	1681.38
452.43	1677.29
452.63	1691.62
452.84	1771.49
453.04	1714.15
453.24	1818.60
453.45	1677.29
453.65	1677.29
453.86	1759.21
454.06	1744.87
454.26	1794.02
454.47	1628.14
454.67	1789.92
454.87	1660.90
455.08	1730.53
455.28	1857.51
455.49	1689.57
455.69	1591.27
455.89	1796.07
456.10	1755.11
456.30	1681.38
456.51	1701.86
456.71	1685.48
456.91	1779.68
457.12	1611.75
457.32	1775.59
457.52	1705.96
457.73	1789.92
457.93	1757.16
458.14	1679.33
458.34	1615.85
458.54	1742.82
458.75	1671.14
458.95	1761.25
459.15	1789.92
459.36	1669.09
459.56	1746.92
459.76	1818.60
459.97	1699.81
460.17	1693.67
460.37	1736.68
460.58	1720.29
460.78	1820.64
460.99	1681.38
461.19	1710.05
461.39	1714.15
461.60	1665.00
461.80	1742.82
462.00	1644.52
462.21	1763.30
462.41	1703.91
462.61	1697.77
462.82	1654.76
463.02	1757.16
463.22	1753.06
463.43	1742.82
463.63	1763.30
463.83	1814.50
464.04	1685.48
464.24	1730.53
464.44	1665.00
464.64	1695.72
464.85	1777.64
465.05	1757.16
465.25	1667.05
465.46	1710.05
465.66	1818.60
465.86	1804.26
466.07	1732.58
466.27	1701.86
466.47	1609.70
466.68	1671.14
466.88	1769.44
467.08	1683.43
467.29	1722.34
467.49	1796.07
467.69	1763.30
467.89	1724.39
468.10	1730.53
468.30	1705.96
468.50	1796.07
468.71	1744.87
468.91	1665.00
469.11	1804.26
469.31	1732.58
469.52	1630.18
469.72	1828.84
469.92	1814.50
470.13	1751.01
470.33	1738.73
470.53	1826.79
470.73	2084.83
470.94	2267.10
471.14	2361.31
471.34	2592.73
471.54	2404.32
471.75	2174.94
471.95	2086.88
472.15	2037.73
472.36	2148.32
472.56	2140.13
472.76	2023.39
472.96	2000.87
473.17	1923.04
473.37	1837.03
473.57	1773.54
473.77	1796.07
473.98	1781.73
474.18	1665.00
474.38	1834.98
474.58	1642.47
474.79	1628.14
474.99	1771.49
475.19	1753.06
475.39	1751.01
475.60	1759.21
475.80	1742.82
476.00	1755.11
476.20	1691.62
476.41	1611.75
476.61	1851.36
476.81	1832.93
477.01	1679.33
477.21	1853.41
477.42	1820.64
477.62	1681.38
477.82	1759.21
478.02	1673.19
478.23	1755.11
478.43	1714.15
478.63	1689.57
478.83	1781.73
479.03	1732.58
479.24	1757.16
479.44	1898.47
479.64	1683.43
479.84	1634.28
480.04	1710.05
480.25	1724.39
480.45	1671.14
480.65	1644.52
480.85	1697.77
481.06	1730.53
481.26	1746.92
481.46	1783.78
481.66	1734.63
481.86	1685.48
482.06	1771.49
482.27	1728.49
482.47	1736.68
482.67	1724.39
482.87	1710.05
483.07	1787.88
483.28	1638.38
483.48	1667.05
483.68	1693.67
483.88	1624.04
484.08	1626.09
484.29	1615.85
484.49	1773.54
484.69	1658.85
484.89	1783.78
485.09	1787.88
485.29	1742.82
485.50	1722.34
485.70	1660.90
485.90	1855.46
486.10	1703.91
486.30	1771.49
486.50	1769.44
486.71	1753.06
486.91	1697.77
487.11	1728.49
487.31	1595.37
487.51	1736.68
487.71	1574.89
487.91	1662.95
488.12	1607.66
488.32	1560.55
488.52	1695.72
488.72	1597.42
488.92	1673.19
489.12	1779.68
489.32	1861.60
489.53	1699.81
489.73	1667.05
489.93	1796.07
490.13	1765.35
490.33	1642.47
490.53	1656.81
490.73	1787.88
490.94	1615.85
491.14	1675.24
491.34	1734.63
491.54	2097.12
491.74	2580.44
491.94	2918.36
492.14	2973.65
492.34	3080.14
492.54	2822.10
492.75	2551.77
492.95	2480.09
493.15	2295.77
493.35	2322.40
493.55	2185.18
493.75	2172.89
493.95	2095.07
494.15	2103.26
494.35	1814.50
494.56	1818.60
494.76	1753.06
494.96	1853.41
495.16	1761.25
495.36	1720.29
495.56	1705.96
495.76	1732.58
495.96	1734.63
496.16	1765.35
496.36	1806.31
496.56	1675.24
496.77	1759.21
496.97	1738.73
497.17	1783.78
497.37	1646.57
497.57	1763.30
497.77	1769.44
497.97	1681.38
498.17	1658.85
498.37	1708.01
498.57	1736.68
498.77	1695.72
498.97	1787.88
499.17	1777.64
499.38	1710.05
499.58	1693.67
499.78	1828.84
499.98	1769.44
500.18	1697.77
500.38	1779.68
500.58	1873.89
500.78	2611.16
500.98	4599.74
501.18	5865.38
501.38	6834.07
501.58	7188.37
501.78	6774.68
501.98	5652.39
502.18	5062.58
502.38	4464.57
502.58	4057.03
502.78	3778.50
502.98	3692.49
503.18	3590.09
503.38	3203.02
503.59	2858.96
503.79	2729.94
503.99	2484.19
504.19	2334.68
504.39	2207.71
504.59	2193.37
504.79	2115.55
504.99	2043.87
505.19	1857.51
505.39	1873.89
505.59	1918.95
505.79	1884.13
505.99	1824.74
506.19	1804.26
506.39	1877.99
506.59	1710.05
506.79	1767.40
506.99	1794.02
507.19	1783.78
507.39	1759.21
507.59	1656.81
507.79	1626.09
507.99	1718.25
508.19	1794.02
508.39	1751.01
508.59	1734.63
508.79	1802.21
508.99	1791.97
509.19	1718.25
509.39	1824.74
509.59	1621.99
509.79	1685.48
509.99	1724.39
510.19	1769.44
510.39	1789.92
510.59	1771.49
510.79	1738.73
510.99	1693.67
511.19	1765.35
511.39	1828.84
511.59	1734.63
511.79	1746.92
511.99	1804.26
512.19	1763.30
512.38	1722.34
512.58	1652.71
512.78	1708.01
512.98	1814.50
513.18	1806.31
513.38	1556.46
513.58	1824.74
513.78	1736.68
513.98	1701.86
514.18	1701.86
514.38	1626.09
514.58	1734.63
514.78	1695.72
514.98	1679.33
515.18	1699.81
515.38	1648.61
515.58	1906.66
515.78	1679.33
515.98	1748.97
516.18	1767.40
516.38	1724.39
516.57	1775.59
516.77	1683.43
516.97	1783.78
517.17	1744.87
517.37	1548.26
517.57	1771.49
517.77	1693.67
517.97	1662.95
518.17	1722.34
518.37	1734.63
518.57	1605.61
518.77	1701.86
518.97	1687.53
519.16	1720.29
519.36	1804.26
519.56	1673.19
519.76	1722.34
519.96	1759.21
520.16	1746.92
520.36	1703.91
520.56	1769.44
520.76	1662.95
520.96	1671.14
521.16	1755.11
521.35	1763.30
521.55	1824.74
521.75	1697.77
521.95	1718.25
522.15	1783.78
522.35	1656.81
522.55	1673.19
522.75	1828.84
522.95	1656.81
523.14	1640.42
523.34	1732.58
523.54	1689.57
523.74	1781.73
523.94	1732.58
524.14	1708.01
524.34	1746.92
524.54	1820.64
524.73	1757.16
524.93	1722.34
525.13	1796.07
525.33	1599.46
525.53	1898.47
525.73	1695.72
525.93	1658.85
526.13	1714.15
526.32	1742.82
526.52	1685.48
526.72	1734.63
526.92	1769.44
527.12	1722.34
527.32	1699.81
527.52	1734.63
527.71	1810.40
527.91	1679.33
528.11	1685.48
528.31	1714.15
528.51	1712.10
528.71	1726.44
528.90	1785.83
529.10	1708.01
529.30	1869.80
529.50	1589.22
529.70	1652.71
529.90	1732.58
530.09	1779.68
530.29	1669.09
530.49	1693.67
530.69	1869.80
530.89	1757.16
531.09	1826.79
531.28	1673.19
531.48	1757.16
531.68	1773.54
531.88	1689.57
532.08	1802.21
532.28	1697.77
532.47	1791.97
532.67	1765.35
532.87	1697.77
533.07	1675.24
533.27	1828.84
533.46	1802.21
533.66	1675.24
533.86	1673.19
534.06	1699.81
534.26	1624.04
534.45	1642.47
534.65	1660.90
534.85	1728.49
535.05	1687.53
535.25	1716.20
535.44	1685.48
535.64	1800.16
535.84	1718.25
536.04	1673.19
536.24	1732.58
536.43	1621.99
536.63	1763.30
536.83	1710.05
537.03	1773.54
537.22	1597.42
537.42	1689.57
537.62	1732.58
537.82	1722.34
538.02	1828.84
538.21	1804.26
538.41	1865.70
538.61	1796.07
538.81	1722.34
539.00	1871.84
539.20	1626.09
539.40	1748.97
539.60	1763.30
539.79	1820.64
539.99	1722.34
540.19	1591.27
540.39	1677.29
540.58	1785.83
540.78	1730.53
540.98	1728.49
541.18	1828.84
541.37	1837.03
541.57	1777.64
541.77	1708.01
541.97	1673.19
542.16	1652.71
542.36	1736.68
542.56	1638.38
542.76	1837.03
542.95	1708.01
543.15	1722.34
543.35	1794.02
543.54	1748.97
543.74	1716.20
543.94	1808.36
544.14	1755.11
544.33	1722.34
544.53	1740.77
544.73	1660.90
544.93	1705.96
545.12	1777.64
545.32	1701.86
545.52	1740.77
545.71	1615.85
545.91	1757.16
546.11	1759.21
546.30	1748.97
546.50	1736.68
546.70	1763.30
546.90	1796.07
547.09	1636.33
547.29	1771.49
547.49	1751.01
547.68	1773.54
547.88	1685.48
548.08	1753.06
548.27	2146.27
548.47	1697.77
548.67	1705.96
548.87	1712.10
549.06	1703.91
549.26	1751.01
549.46	1740.77
549.65	1667.05
549.85	1769.44
550.05	1830.88
550.24	1626.09
550.44	1769.44
550.64	1757.16
550.83	1724.39
551.03	1787.88
551.23	1708.01
551.42	1724.39
551.62	1687.53
551.82	1736.68
552.01	1632.23
552.21	1832.93
552.41	1658.85
552.60	1800.16
552.80	1716.20
553.00	1650.66
553.19	1736.68
553.39	1824.74
553.59	1701.86
553.78	1822.69
553.98	1785.83
554.17	1705.96
554.37	1808.36
554.57	1746.92
554.76	1607.66
554.96	1644.52
555.16	1740.77
555.35	1738.73
555.55	1740.77
555.75	1785.83
555.94	1781.73
556.14	1695.72
556.33	1800.16
556.53	1714.15
556.73	1791.97
556.92	1761.25
557.12	1810.40
557.32	1757.16
557.51	1869.80
557.71	1753.06
557.90	1826.79
558.10	1929.19
558.30	1755.11
558.49	1705.96
558.69	1691.62
558.88	1748.97
559.08	1751.01
559.28	1710.05
559.47	1753.06
559.67	1753.06
559.86	1843.17
560.06	1720.29
560.26	1724.39
560.45	1703.91
560.65	1789.92
560.84	1775.59
561.04	1656.81
561.24	1773.54
561.43	1748.97
561.63	1877.99
561.82	1787.88
562.02	1757.16
562.22	1660.90
562.41	1685.48
562.61	1718.25
562.80	1615.85
563.00	1834.98
563.19	1734.63
563.39	1800.16
563.59	1730.53
563.78	1685.48
563.98	1630.18
564.17	1660.90
564.37	1619.94
564.56	1767.40
564.76	1685.48
564.96	1826.79
565.15	1714.15
565.35	1871.84
565.54	1714.15
565.74	1730.53
565.93	1740.77
566.13	1691.62
566.32	1794.02
566.52	1796.07
566.71	1730.53
566.91	1738.73
567.11	1671.14
567.30	1679.33
567.50	1714.15
567.69	1673.19
567.89	1669.09
568.08	1714.15
568.28	1734.63
568.47	1628.14
568.67	1748.97
568.86	1697.77
569.06	1800.16
569.25	1779.68
569.45	1652.71
569.64	1693.67
569.84	1716.20
570.04	1718.25
570.23	1652.71
570.43	1597.42
570.62	1767.40
570.82	1902.56
571.01	1677.29
571.21	1738.73
571.40	1693.67
571.60	1822.69
571.79	1794.02
571.99	1697.77
572.18	1640.42
572.38	1781.73
572.57	1640.42
572.77	1787.88
572.96	1906.66
573.16	1785.83
573.35	1695.72
573.55	1787.88
573.74	1761.25
573.94	1697.77
574.13	1722.34
574.33	1759.21
574.52	1767.40
574.71	1728.49
574.91	1783.78
575.10	1720.29
575.30	1746.92
575.49	1642.47
575.69	1726.44
575.88	1775.59
576.08	1736.68
576.27	1824.74
576.47	1808.36
576.66	1787.88
576.86	1779.68
577.05	1765.35
577.25	1796.07
577.44	1763.30
577.64	1746.92
577.83	1802.21
578.02	1667.05
578.22	1851.36
578.41	1843.17
578.61	1697.77
578.80	1710.05
579.00	1763.30
579.19	1724.39
579.39	1785.83
579.58	1820.64
579.77	1716.20
579.97	1853.41
580.16	1787.88
580.36	1812.45
580.55	1847.27
580.75	1740.77
580.94	1791.97
581.13	1898.47
581.33	1849.32
581.52	1742.82
581.72	1853.41
581.91	1886.18
582.11	1632.23
582.30	1845.22
582.49	1775.59
582.69	1859.56
582.88	1816.55
583.08	1849.32
583.27	1882.08
583.47	1740.77
583.66	1679.33
583.85	1669.09
584.05	1759.21
584.24	1759.21
584.44	1800.16
584.63	1736.68
584.82	1849.32
585.02	1818.60
585.21	1777.64
585.41	1859.56
585.60	1834.98
585.79	1945.57
585.99	1947.62
586.18	1861.60
586.37	2211.81
586.57	3360.72
586.76	10149.73
586.96	25013.89
587.15	35100.14
587.34	41078.16
587.54	43038.06
587.73	37289.42
587.93	26824.29
588.12	21935.79
588.31	18519.78
588.51	16400.13
588.70	15585.04
588.89	14100.26
589.09	12785.47
589.28	11265.88
589.47	9670.51
589.67	8009.61
589.86	6498.20
590.06	5085.11
590.25	4024.26
590.44	3174.35
590.64	2729.94
590.83	2236.38
591.02	2035.68
591.22	2017.25
591.41	1968.10
591.60	1837.03
591.80	1947.62
591.99	1726.44
592.18	1757.16
592.38	1759.21
592.57	1777.64
592.76	1796.07
592.96	1783.78
593.15	1667.05
593.34	1791.97
593.54	1748.97
593.73	1808.36
593.92	1800.16
594.12	1685.48
594.31	1769.44
594.50	1804.26
594.70	1837.03
594.89	1857.51
595.08	1642.47
595.28	1720.29
595.47	1906.66
595.66	1695.72
595.86	1587.18
596.05	1640.42
596.24	1705.96
596.43	1824.74
596.63	1841.12
596.82	1708.01
597.01	1746.92
597.21	1736.68
597.40	1763.30
597.59	1712.10
597.79	1748.97
597.98	1794.02
598.17	1859.56
598.36	1757.16
598.56	1718.25
598.75	1710.05
598.94	1787.88
599.14	1644.52
599.33	1685.48
599.52	1753.06
599.71	1738.73
599.91	1765.35
600.10	1716.20
600.29	1708.01
600.48	1822.69
600.68	1695.72
600.87	1720.29
601.06	1591.27
601.26	1675.24
601.45	1798.12
601.64	1722.34
601.83	1814.50
602.03	1708.01
602.22	1669.09
602.41	1834.98
602.60	1755.11
602.80	1808.36
602.99	1804.26
603.18	1703.91
603.37	1757.16
603.57	1771.49
603.76	1777.64
603.95	1822.69
604.14	1697.77
604.34	1787.88
604.53	1724.39
604.72	1753.06
604.91	1769.44
605.10	1808.36
605.30	1687.53
605.49	1812.45
605.68	1812.45
605.87	1744.87
606.07	1665.00
606.26	1765.35
606.45	1675.24
606.64	1712.10
606.84	1736.68
607.03	1773.54
607.22	1789.92
607.41	1712.10
607.60	1705.96
607.80	1683.43
607.99	1708.01
608.18	1689.57
608.37	1722.34
608.56	1669.09
608.76	1751.01
608.95	1771.49
609.14	1757.16
609.33	1722.34
609.52	1740.77
609.72	1777.64
609.91	1775.59
610.10	1800.16
610.29	1785.83
610.48	1740.77
610.68	1656.81
610.87	1675.24
611.06	1787.88
611.25	1712.10
611.44	1798.12
611.63	1718.25
611.83	1791.97
612.02	1621.99
612.21	1820.64
612.40	1648.61
612.59	1681.38
612.79	1658.85
612.98	1710.05
613.17	1683.43
613.36	1710.05
613.55	1877.99
613.74	1763.30
613.93	1746.92
614.13	1734.63
614.32	1728.49
614.51	1732.58
614.70	1732.58
614.89	1714.15
615.08	1712.10
615.28	2058.21
615.47	1705.96
615.66	1748.97
615.85	1730.53
616.04	1812.45
616.23	1748.97
616.42	1665.00
616.62	1767.40
616.81	1787.88
617.00	1689.57
617.19	1767.40
617.38	1677.29
617.57	1683.43
617.76	1781.73
617.95	1693.67
618.15	1746.92
618.34	1828.84
618.53	1660.90
618.72	1753.06
618.91	1843.17
619.10	1802.21
619.29	1689.57
619.48	1691.62
619.68	1679.33
619.87	1718.25
620.06	1693.67
620.25	1732.58
620.44	1742.82
620.63	1673.19
620.82	1660.90
621.01	1812.45
621.20	1648.61
621.39	1681.38
621.59	1718.25
621.78	1710.05
621.97	1718.25
622.16	1705.96
622.35	1693.67
622.54	1744.87
622.73	1796.07
622.92	1626.09
623.11	1753.06
623.30	1689.57
623.49	1722.34
623.68	1679.33
623.88	1734.63
624.07	1628.14
624.26	1650.66
624.45	1726.44
624.64	1619.94
624.83	1708.01
625.02	1765.35
625.21	1701.86
625.40	1742.82
625.59	1806.31
625.78	1677.29
625.97	1748.97
626.16	1720.29
626.35	1726.44
626.54	1681.38
626.74	1753.06
626.93	1689.57
627.12	1656.81
627.31	1824.74
627.50	1798.12
627.69	1714.15
627.88	1724.39
628.07	1708.01
628.26	1621.99
628.45	1695.72
628.64	1648.61
628.83	1708.01
629.02	1705.96
629.21	1761.25
629.40	1705.96
629.59	1691.62
629.78	1703.91
629.97	1689.57
630.16	1738.73
630.35	1683.43
630.54	1730.53
630.73	1681.38
630.92	1773.54
631.11	1660.90
631.30	1740.77
631.49	1665.00
631.68	1726.44
631.87	1767.40
632.06	1679.33
632.25	1832.93
632.44	1671.14
632.63	1744.87
632.82	1722.34
633.01	1667.05
633.20	1685.48
633.39	1755.11
633.58	1681.38
633.77	1732.58
633.96	1714.15
634.15	1730.53
634.34	1787.88
634.53	1734.63
634.72	1703.91
634.91	1615.85
635.10	1757.16
635.29	1736.68
635.48	1667.05
635.67	1658.85
635.86	1697.77
636.05	1818.60
636.24	1722.34
636.43	1703.91
636.62	1724.39
636.81	1605.61
637.00	1763.30
637.19	1681.38
637.38	1703.91
637.57	1677.29
637.76	1685.48
637.95	1660.90
638.14	1671.14
638.33	1757.16
638.52	1701.86
638.71	1638.38
638.89	1607.66
639.08	1884.13
639.27	1658.85
639.46	1726.44
639.65	1732.58
639.84	1685.48
640.03	1730.53
640.22	1705.96
640.41	1896.42
640.60	1705.96
640.79	1660.90
640.98	1724.39
641.17	1759.21
641.36	1710.05
641.55	1654.76
641.74	1681.38
641.92	1650.66
642.11	1632.23
642.30	1701.86
642.49	1636.33
642.68	1730.53
642.87	1777.64
643.06	1736.68
643.25	1683.43
643.44	1675.24
643.63	1730.53
643.82	1732.58
644.00	1589.22
644.19	1746.92
644.38	1656.81
644.57	1716.20
644.76	1767.40
644.95	1679.33
645.14	1728.49
645.33	1716.20
645.52	1710.05
645.71	1632.23
645.89	1689.57
646.08	1751.01
646.27	1695.72
646.46	1806.31
646.65	1589.22
646.84	1716.20
647.03	1583.08
647.22	1648.61
647.40	1708.01
647.59	1679.33
647.78	1556.46
647.97	1673.19
648.16	1683.43
648.35	1740.77
648.54	1734.63
648.73	1671.14
648.91	1808.36
649.10	1705.96
649.29	1667.05
649.48	1667.05
649.67	1691.62
649.86	1669.09
650.05	1619.94
650.23	1794.02
650.42	1615.85
650.61	1728.49
650.80	1718.25
650.99	1828.84
651.18	1734.63
651.36	1773.54
651.55	1638.38
651.74	1681.38
651.93	1683.43
652.12	1675.24
652.31	1796.07
652.49	1646.57
652.68	1708.01
652.87	1820.64
653.06	1734.63
653.25	1880.04
653.44	1677.29
653.62	1789.92
653.81	1691.62
654.00	1705.96
654.19	1740.77
654.38	1845.22
654.56	1701.86
654.75	1746.92
654.94	1724.39
655.13	1732.58
655.32	1722.34
655.51	1722.34
655.69	1665.00
655.88	1675.24
656.07	1646.57
656.26	1705.96
656.45	1667.05
656.63	1751.01
656.82	1726.44
657.01	1734.63
657.20	1650.66
657.38	1673.19
657.57	1652.71
657.76	1615.85
657.95	1705.96
658.14	1724.39
658.32	1703.91
658.51	1576.94
658.70	1742.82
658.89	1630.18
659.08	1673.19
659.26	1777.64
659.45	1665.00
659.64	1769.44
659.83	1697.77
660.01	1882.08
660.20	1677.29
660.39	1779.68
660.58	1619.94
660.76	1812.45
660.95	1636.33
661.14	1806.31
661.33	1624.04
661.51	1695.72
661.70	1677.29
661.89	1710.05
662.08	1738.73
662.26	1685.48
662.45	1671.14
662.64	1828.84
662.83	1824.74
663.01	1697.77
663.20	1648.61
663.39	1810.40
663.58	1755.11
663.76	1673.19
663.95	1720.29
664.14	1617.90
664.32	1679.33
664.51	1648.61
664.70	1679.33
664.89	1773.54
665.07	1667.05
665.26	1775.59
665.45	1681.38
665.64	1677.29
665.82	1755.11
666.01	1759.21
666.20	1665.00
666.38	1804.26
666.57	1742.82
666.76	2189.28
666.95	4528.06
667.13	10520.42
667.32	15578.90
667.51	18056.94
667.69	19205.85
667.88	18013.93
668.07	12320.58
668.25	9664.36
668.44	8124.29
668.63	7376.78
668.81	6879.13
669.00	6313.89
669.19	5793.70
669.38	5164.98
669.56	4659.13
669.75	3968.96
669.94	3424.20
670.12	2904.02
670.31	2379.74
670.50	2336.73
670.68	2095.07
670.87	1925.09
671.06	1865.70
671.24	1800.16
671.43	1845.22
671.62	1748.97
671.80	1656.81
671.99	1722.34
672.18	1720.29
672.36	1734.63
672.55	1742.82
672.74	1689.57
672.92	1695.72
673.11	1789.92
673.29	1628.14
673.48	1771.49
673.67	1685.48
673.85	1804.26
674.04	1624.04
674.23	1673.19
674.41	1849.32
674.60	1642.47
674.79	1560.55
674.97	1642.47
675.16	1771.49
675.34	1789.92
675.53	1638.38
675.72	1658.85
675.90	1740.77
676.09	1652.71
676.28	1656.81
676.46	1642.47
676.65	1716.20
676.83	1687.53
677.02	1710.05
677.21	1720.29
677.39	1785.83
677.58	1658.85
677.77	1644.52
677.95	1652.71
678.14	1714.15
678.32	1671.14
678.51	1634.28
678.70	1738.73
678.88	1658.85
679.07	1751.01
679.25	1708.01
679.44	1634.28
679.63	1611.75
679.81	1624.04
680.00	1779.68
680.18	1753.06
680.37	1785.83
680.55	1642.47
680.74	1675.24
680.93	1613.80
681.11	1779.68
681.30	1681.38
681.48	1716.20
681.67	1701.86
681.85	1683.43
682.04	1705.96
682.23	1691.62
682.41	1699.81
682.60	1660.90
682.78	1695.72
682.97	1665.00
683.15	1724.39
683.34	1691.62
683.53	1828.84
683.71	1656.81
683.90	1773.54
684.08	1718.25
684.27	1683.43
684.45	1759.21
684.64	1708.01
684.82	1644.52
685.01	1638.38
685.19	1675.24
685.38	1736.68
685.57	1759.21
685.75	1701.86
685.94	1730.53
686.12	1660.90
686.31	1681.38
686.49	1781.73
686.68	1687.53
686.86	1691.62
687.05	1724.39
687.23	1830.88
687.42	1619.94
687.60	1587.18
687.79	1775.59
687.97	1724.39
688.16	1703.91
688.34	1802.21
688.53	1535.98
688.71	1722.34
688.90	1802.21
689.08	1689.57
689.27	1640.42
689.45	1789.92
689.64	1730.53
689.82	1699.81
690.01	1738.73
690.19	1701.86
690.38	1708.01
690.56	1779.68
690.75	1683.43
690.93	1726.44
691.12	1695.72
691.30	1736.68
691.49	1744.87
691.67	1740.77
691.86	1814.50
692.04	1689.57
692.23	1705.96
692.41	1675.24
692.60	1886.18
692.78	1726.44
692.97	1699.81
693.15	1703.91
693.34	1841.12
693.52	1753.06
693.71	1761.25
693.89	1626.09
694.08	1601.51
694.26	1705.96
694.44	1691.62
694.63	1769.44
694.81	1617.90
695.00	1673.19
695.18	1751.01
695.37	1828.84
695.55	1705.96
695.74	1685.48
695.92	1703.91
696.10	1767.40
696.29	1617.90
696.47	1701.86
696.66	1656.81
696.84	1720.29
697.03	1693.67
697.21	1816.55
697.40	2314.20
697.58	1771.49
697.76	1603.56
697.95	1599.46
698.13	1619.94
698.32	1701.86
698.50	1683.43
698.68	1748.97
698.87	1662.95
699.05	1773.54
699.24	1744.87
699.42	1714.15
699.61	1675.24
699.79	1732.58
699.97	1736.68
700.16	1626.09
700.34	1597.42
700.53	1619.94
700.71	1794.02
700.89	1708.01
701.08	1685.48
701.26	1673.19
701.45	2117.60
701.63	1697.77
701.81	1615.85
702.00	1671.14
702.18	1597.42
702.37	1615.85
702.55	1626.09
702.73	1679.33
702.92	1708.01
703.10	1812.45
703.28	1669.09
703.47	1634.28
703.65	1699.81
703.84	1677.29
704.02	1681.38
704.20	1853.41
704.39	1656.81
704.57	1693.67
704.75	1746.92
704.94	1734.63
705.12	1693.67
705.30	1697.77
705.49	2275.29
705.67	4474.81
705.86	9791.34
706.04	12961.59
706.22	14749.47
706.41	15779.60
706.59	14069.55
706.77	9717.61
706.96	7485.33
707.14	6680.47
707.32	6016.93
707.51	5578.67
707.69	4972.47
707.87	4290.49
708.06	3561.42
708.24	2959.31
708.42	2445.27
708.61	2291.68
708.79	1927.14
708.97	1832.93
709.16	1718.25
709.34	1722.34
709.52	1714.15
709.71	1769.44
709.89	1777.64
710.07	1697.77
710.26	1638.38
710.44	1744.87
710.62	1740.77
710.80	1638.38
710.99	1761.25
711.17	1771.49
711.35	1781.73
711.54	1652.71
711.72	1779.68
711.90	1669.09
712.09	1683.43
712.27	1656.81
712.45	1751.01
712.63	1718.25
712.82	1667.05
713.00	1740.77
713.18	1701.86
713.37	1667.05
713.55	1720.29
713.73	1687.53
713.91	1755.11
714.10	1718.25
714.28	1681.38
714.46	1742.82
714.65	1740.77
714.83	1710.05
715.01	1730.53
715.19	1720.29
715.38	1667.05
715.56	1730.53
715.74	1615.85
715.92	1662.95
716.11	1820.64
716.29	1599.46
716.47	1636.33
716.65	1714.15
716.84	1638.38
717.02	1710.05
717.20	1556.46
717.38	1617.90
717.57	1765.35
717.75	1699.81
717.93	1636.33
718.11	1689.57
718.30	1671.14
718.48	1683.43
718.66	1738.73
718.84	1767.40
719.03	1738.73
719.21	1642.47
719.39	1826.79
719.57	1759.21
719.75	1734.63
719.94	1699.81
720.12	1697.77
720.30	1673.19
720.48	1755.11
720.67	1728.49
720.85	1646.57
721.03	1683.43
721.21	1599.46
721.39	1734.63
721.58	1738.73
721.76	1665.00
721.94	1685.48
722.12	1722.34
722.30	1794.02
722.49	1689.57
722.67	1734.63
722.85	1640.42
723.03	1652.71
723.21	1626.09
723.40	1703.91
723.58	1779.68
723.76	1734.63
723.94	1748.97
724.12	1755.11
724.30	1847.27
724.49	1748.97
724.67	1589.22
724.85	1699.81
725.03	1595.37
725.21	1759.21
725.40	1783.78
725.58	1662.95
725.76	1695.72
725.94	1746.92
726.12	1650.66
726.30	1779.68
726.49	1671.14
726.67	1746.92
726.85	1697.77
727.03	1746.92
727.21	2179.04
727.39	2981.84
727.57	3786.69
727.76	4188.10
727.94	4470.72
728.12	4583.35
728.30	3717.06
728.48	3018.71
728.66	2785.24
728.84	2562.01
729.03	2316.25
729.21	2176.99
729.39	1951.71
729.57	1869.80
729.75	1918.95
729.93	1812.45
730.11	1710.05
730.30	1701.86
730.48	1669.09
730.66	1816.55
730.84	1732.58
731.02	1675.24
731.20	1728.49
731.38	1714.15
731.56	1611.75
731.74	1546.22
731.93	1785.83
732.11	1677.29
732.29	1701.86
732.47	1695.72
732.65	1644.52
732.83	1773.54
733.01	1708.01
733.19	1632.23
733.37	1730.53
733.56	1703.91
733.74	1652.71
733.92	1710.05
734.10	1671.14
734.28	1730.53
734.46	1607.66
734.64	1611.75
734.82	1617.90
735.00	1665.00
735.18	1763.30
735.36	1701.86
735.54	1734.63
735.73	1748.97
735.91	1636.33
736.09	1712.10
736.27	1722.34
736.45	1763.30
736.63	1630.18
736.81	1718.25
736.99	1730.53
737.17	1730.53
737.35	1703.91
737.53	1705.96
737.71	1638.38
737.89	1820.64
738.07	1726.44
738.25	1675.24
738.43	1556.46
738.61	1611.75
738.80	1581.03
738.98	1714.15
739.16	1679.33
739.34	1671.14
739.52	1748.97
739.70	1650.66
739.88	1744.87
740.06	1720.29
740.24	1581.03
740.42	1726.44
740.60	1599.46
740.78	1619.94
740.96	1632.23
741.14	1624.04
741.32	1714.15
741.50	1617.90
741.68	1804.26
741.86	1796.07
742.04	1628.14
742.22	1652.71
742.40	1716.20
742.58	1701.86
742.76	1583.08
742.94	1791.97
743.12	1611.75
743.30	1708.01
743.48	1712.10
743.66	1703.91
743.84	1669.09
744.02	1755.11
744.20	1718.25
744.38	1607.66
744.56	1644.52
744.74	1748.97
744.92	1689.57
745.10	1761.25
745.28	1753.06
745.46	1779.68
745.64	1650.66
745.82	1753.06
746.00	1675.24
746.18	1648.61
746.36	1621.99
746.54	1619.94
746.72	1650.66
746.90	1644.52
747.08	1693.67
747.26	1648.61
747.44	1736.68
747.62	1718.25
747.80	1673.19
747.98	1775.59
748.15	1701.86
748.33	1781.73
748.51	1673.19
748.69	1593.32
748.87	1646.57
749.05	1665.00
749.23	1693.67
749.41	1701.86
749.59	1658.85
749.77	1748.97
749.95	1595.37
750.13	1677.29
750.31	1720.29
750.49	1681.38
750.67	1759.21
750.85	1761.25
751.03	1771.49
751.20	1798.12
751.38	1695.72
751.56	1671.14
751.74	1687.53
751.92	1746.92
752.10	1695.72
752.28	1800.16
752.46	1714.15
752.64	1656.81
752.82	1605.61
753.00	1644.52
753.18	1673.19
753.35	1638.38
753.53	1648.61
753.71	1693.67
753.89	1771.49
754.07	1615.85
754.25	1685.48
754.43	1691.62
754.61	1624.04
754.79	1675.24
754.97	1617.90
755.14	1798.12
755.32	1626.09
755.50	1638.38
755.68	1714.15
755.86	1619.94
756.04	1619.94
756.22	1562.60
756.40	1685.48
756.57	1791.97
756.75	1679.33
756.93	1730.53
757.11	1705.96
757.29	1626.09
757.47	1621.99
757.65	1632.23
757.82	1562.60
758.00	1677.29
758.18	1589.22
758.36	1665.00
758.54	1818.60
758.72	1638.38
758.90	1791.97
759.07	1714.15
759.25	1660.90
759.43	1722.34
759.61	1640.42
759.79	2193.37
759.97	1736.68
760.15	1652.71
760.32	1665.00
760.50	1738.73
760.68	1775.59
760.86	1660.90
761.04	1791.97
761.22	1734.63
761.39	1646.57
761.57	1779.68
761.75	1712.10
761.93	1716.20
762.11	1691.62
762.28	1685.48
762.46	1630.18
762.64	1712.10
762.82	1626.09
763.00	1734.63
763.18	1765.35
763.35	1624.04
763.53	1742.82
763.71	1599.46
763.89	1718.25
764.07	1652.71
764.24	1697.77
764.42	1783.78
764.60	1671.14
764.78	1718.25
764.96	1783.78
765.13	1789.92
765.31	1732.58
765.49	1693.67
765.67	1628.14
765.84	1693.67
766.02	1665.00
766.20	1650.66
766.38	1710.05
766.56	1769.44
766.73	1775.59
766.91	1697.77
767.09	1685.48
767.27	1769.44
767.44	1628.14
767.62	1785.83
767.80	1751.01
767.98	1691.62
768.15	1734.63
768.33	1722.34
768.51	1693.67
768.69	1693.67
768.87	1699.81
769.04	1769.44
769.22	1767.40
769.40	1701.86
769.58	1875.94
769.75	1703.91
769.93	1794.02
770.11	1642.47
770.28	1689.57
770.46	1648.61
770.64	1689.57
770.82	1671.14
770.99	1738.73
771.17	1648.61
771.35	1660.90
771.53	1617.90
771.70	1660.90
771.88	1730.53
772.06	1660.90
772.23	1669.09
772.41	1732.58
772.59	1595.37
772.77	1710.05
772.94	1669.09
773.12	1724.39
773.30	1714.15
773.47	1765.35
773.65	1632.23
773.83	1687.53
774.01	1669.09
774.18	1515.50
774.36	1769.44
774.54	1570.79
774.71	1693.67
774.89	1587.18
775.07	1611.75
775.24	1656.81
775.42	1683.43
775.60	1755.11
775.78	1683.43
775.95	1570.79
776.13	1650.66
776.31	1529.83
776.48	1673.19
776.66	1732.58
776.84	1640.42
777.01	1687.53
777.19	1703.91
777.37	1730.53
777.54	1734.63
777.72	1826.79
777.90	1763.30
778.07	1722.34
778.25	1869.80
778.43	1765.35
778.60	1638.38
778.78	1683.43
778.96	1732.58
779.13	1615.85
779.31	1730.53
779.49	1720.29
779.66	1716.20
779.84	1724.39
780.01	1671.14
780.19	1669.09
780.37	1744.87
780.54	1748.97
780.72	1626.09
780.90	1609.70
781.07	1712.10
781.25	1624.04
781.43	1724.39
781.60	1691.62
781.78	1800.16
781.95	1677.29
782.13	1656.81
782.31	1742.82
782.48	1572.84
782.66	1669.09
782.83	1742.82
783.01	1736.68
783.19	1746.92
783.36	1708.01
783.54	1632.23
783.72	1775.59
783.89	1677.29
784.07	1675.24
784.24	1757.16
784.42	1773.54
784.60	1712.10
784.77	1712.10
784.95	1634.28
785.12	1640.42
785.30	1679.33
785.47	1703.91
785.65	1689.57
785.83	1751.01
786.00	1718.25
786.18	1675.24
786.35	1710.05
786.53	1673.19
786.71	1785.83
786.88	1734.63
787.06	1746.92
787.23	1656.81
787.41	1597.42
787.58	1720.29
787.76	1648.61
787.94	1757.16
788.11	1665.00
788.29	1644.52
788.46	1617.90
788.64	1658.85
788.81	1720.29
788.99	1624.04
789.16	1621.99
789.34	1646.57
789.52	1636.33
789.69	1669.09
789.87	1644.52
790.04	1667.05
790.22	1654.76
790.39	1853.41
790.57	1677.29
790.74	1550.31
790.92	1775.59
791.09	1621.99
791.27	1726.44
791.44	1716.20
791.62	1734.63
791.79	1777.64
791.97	1673.19
792.15	1888.23
792.32	1740.77
792.50	1701.86
792.67	1732.58
792.85	1804.26
793.02	1621.99
793.20	1640.42
793.37	1611.75
793.55	1671.14
793.72	1546.22
793.90	1740.77
794.07	1640.42
794.25	1648.61
794.42	1798.12
794.60	1634.28
794.77	1691.62
794.95	1751.01
795.12	1679.33
795.30	1609.70
795.47	1611.75
795.65	1839.08
795.82	1689.57
796.00	1708.01
796.17	1677.29
796.34	1632.23
796.52	1683.43
796.69	1765.35
796.87	1742.82
797.04	1855.46
797.22	1726.44
797.39	1705.96
797.57	1751.01
797.74	1732.58
797.92	1628.14
798.09	1658.85
798.27	1753.06
798.44	1714.15
798.62	1621.99
798.79	1716.20
798.96	1710.05
799.14	1744.87
799.31	1812.45
799.49	1746.92
799.66	1683.43
799.84	1705.96
800.01	1642.47
800.19	1699.81
800.36	1630.18
800.53	1697.77
800.71	1720.29
800.88	1796.07
801.06	1683.43
801.23	1652.71
801.41	1677.29
801.58	1716.20
801.75	1671.14
801.93	1689.57
802.10	1742.82
802.28	1726.44
802.45	1656.81
802.63	1712.10
802.80	1810.40
802.97	1624.04
803.15	1701.86
803.32	1669.09
803.50	1656.81
803.67	1642.47
803.84	1626.09
804.02	1705.96
804.19	1642.47
804.37	1492.97
804.54	1605.61
804.71	1667.05
804.89	1734.63
805.06	1675.24
805.24	1585.13
805.41	1611.75
805.58	1638.38
805.76	1783.78
805.93	1626.09
806.10	1794.02
806.28	1708.01
806.45	1728.49
806.63	1726.44
806.80	1751.01
806.97	1755.11
807.15	1634.28
807.32	1665.00
807.49	1708.01
807.67	1683.43
807.84	1691.62
808.01	1624.04
808.19	1837.03
808.36	1767.40
808.54	1650.66
808.71	1646.57
808.88	1687.53
809.06	1691.62
809.23	1820.64
809.40	1685.48
809.58	1718.25
809.75	1691.62
809.92	1697.77
810.10	1794.02
810.27	1675.24
810.44	1689.57
810.62	1689.57
810.79	1648.61
810.96	1695.72
811.14	1624.04
811.31	1677.29
811.48	1701.86
811.66	1708.01
811.83	1759.21
812.00	1636.33
812.18	1722.34
812.35	1726.44
812.52	1658.85
812.69	1624.04
812.87	1632.23
813.04	1585.13
813.21	1597.42
813.39	1667.05
813.56	1603.56
813.73	1697.77
813.91	1701.86
814.08	1648.61
814.25	1697.77
814.42	1624.04
814.60	1673.19
814.77	1730.53
814.94	1703.91
815.12	1658.85
815.29	1816.55
815.46	1738.73
815.63	1669.09
815.81	1665.00
815.98	1671.14
816.15	1738.73
816.33	1695.72
816.50	1675.24
816.67	1677.29
816.84	1701.86
817.02	1667.05
817.19	1634.28
817.36	1771.49
817.53	1775.59
817.71	1599.46
817.88	1730.53
818.05	1720.29
818.22	1568.74
818.40	1783.78
818.57	1681.38
818.74	1681.38
818.91	1701.86
819.09	1730.53
819.26	1740.77
819.43	1648.61
819.60	1658.85
819.78	1722.34
819.95	1791.97
820.12	1626.09
820.29	1679.33
820.47	1687.53
820.64	1703.91
820.81	1679.33
820.98	1703.91
821.15	1695.72
821.33	1705.96
821.50	1640.42
821.67	1744.87
821.84	1665.00
822.02	1785.83
822.19	1734.63
822.36	1626.09
822.53	1591.27
822.70	1630.18
822.88	1785.83
823.05	1765.35
823.22	1701.86
823.39	1839.08
823.56	1681.38
823.74	1800.16
823.91	1644.52
824.08	1685.48
824.25	1607.66
824.42	1763.30
824.60	1656.81
824.77	1703.91
824.94	1652.71
825.11	1705.96
825.28	1613.80
825.45	1685.48
825.63	1744.87
825.80	1652.71
825.97	1724.39
826.14	1753.06
826.31	1548.26
826.48	1728.49
826.66	1605.61
826.83	1662.95
827.00	1771.49
827.17	1593.32
827.34	1726.44
827.51	1681.38
827.69	1720.29
827.86	1683.43
828.03	1656.81
828.20	1665.00
828.37	1658.85
828.54	1701.86
828.71	1626.09
828.89	1789.92
829.06	1773.54
829.23	1691.62
829.40	1738.73
829.57	1583.08
829.74	1761.25
829.91	1632.23
830.09	1683.43
830.26	1732.58
830.43	1740.77
830.60	1712.10
830.77	1681.38
830.94	1718.25
831.11	1746.92
831.28	1662.95
831.46	1728.49
831.63	1699.81
831.80	1714.15
831.97	1679.33
832.14	1648.61
832.31	1695.72
832.48	1673.19
832.65	1746.92
832.82	1656.81
832.99	1714.15
833.17	1546.22
833.34	1757.16
833.51	1705.96
833.68	1583.08
833.85	1791.97
834.02	1619.94
834.19	1599.46
834.36	1591.27
834.53	1718.25
834.70	1722.34
834.87	1660.90
835.04	1732.58
835.22	1615.85
835.39	1681.38
835.56	1665.00
835.73	1597.42
835.90	1761.25
836.07	1634.28
836.24	1798.12
836.41	1613.80
836.58	1685.48
836.75	1722.34
836.92	1722.34
837.09	1662.95
837.26	1718.25
837.43	1738.73
837.60	1654.76
837.77	1703.91
837.94	1781.73
838.12	1796.07
838.29	1619.94
838.46	1662.95
838.63	1591.27
838.80	1777.64
838.97	1712.10
839.14	1697.77
839.31	1701.86
839.48	1751.01
839.65	1591.27
839.82	1697.77
839.99	1726.44
840.16	1708.01
840.33	1621.99
840.50	1716.20
840.67	1683.43
840.84	1642.47
841.01	1697.77
841.18	1699.81
841.35	1673.19
841.52	1781.73
841.69	1771.49
841.86	1751.01
842.03	1726.44
842.20	1689.57
842.37	1697.77
842.54	1683.43
842.71	1640.42
842.88	1630.18
843.05	1748.97
843.22	1617.90
843.39	1755.11
843.56	1671.14
843.73	1736.68
843.90	1689.57
844.07	1697.77
844.24	1679.33
844.41	1720.29
844.58	1675.24
844.75	1656.81
844.92	1691.62
845.09	1667.05
845.26	1665.00
845.43	1642.47
845.60	1679.33
845.77	1767.40
845.94	1730.53
846.10	1748.97
846.27	1574.89
846.44	1648.61
846.61	1642.47
846.78	1734.63
846.95	1765.35
847.12	1699.81
847.29	1685.48
847.46	1599.46
847.63	1722.34
847.80	1626.09
847.97	1667.05
848.14	1834.98
848.31	1650.66
848.48	1615.85
848.65	1689.57
848.82	1679.33
848.98	1742.82
849.15	1720.29
849.32	1791.97
849.49	1732.58
849.66	1617.90
849.83	1728.49
850.00	1728.49
850.17	1710.05
850.34	1679.33
850.51	1615.85
850.68	1646.57
850.85	1832.93
851.01	1669.09
851.18	1722.34
851.35	1722.34
851.52	1767.40
851.69	1746.92
851.86	1603.56
852.03	1683.43
852.20	1699.81
852.37	1714.15
852.53	1662.95
852.70	1624.04
852.87	1710.05
853.04	1738.73
853.21	1652.71
853.38	1775.59
853.55	1726.44
853.72	1806.31
853.89	1642.47
854.05	1574.89
854.22	1630.18
854.39	1652.71
854.56	1734.63
854.73	1740.77
854.90	1599.46
855.07	1689.57
855.23	1667.05
855.40	1656.81
855.57	1638.38
855.74	1619.94
855.91	1857.51
856.08	1591.27
856.25	1611.75
856.41	1681.38
856.58	1742.82
856.75	1724.39
856.92	1583.08
857.09	1761.25
857.26	1695.72
857.42	1746.92
857.59	1695.72
857.76	1693.67
857.93	1689.57
858.10	1798.12
858.27	1636.33
858.43	1738.73
858.60	1652.71
858.77	1519.59
858.94	1751.01
859.11	1742.82
859.27	1642.47
859.44	1650.66
859.61	1775.59
859.78	1673.19
859.95	1652.71
860.12	1652.71
860.28	1779.68
860.45	1804.26
860.62	1644.52
860.79	1695.72
860.95	1669.09
861.12	1626.09
861.29	1628.14
861.46	1656.81
861.63	1609.70
861.79	1615.85
861.96	1697.77
862.13	1566.70
862.30	1732.58
862.47	1687.53
862.63	1638.38
862.80	1748.97
862.97	1624.04
863.14	1789.92
863.30	1687.53
863.47	1583.08
863.64	1787.88
863.81	1689.57
863.97	1675.24
864.14	1677.29
864.31	1648.61
864.48	1689.57
864.65	1656.81
864.81	1751.01
864.98	1736.68
865.15	1759.21
865.32	1814.50
865.48	1777.64
865.65	1759.21
865.82	1697.77
865.98	1742.82
866.15	1816.55
866.32	1689.57
866.49	1652.71
866.65	1738.73
866.82	1652.71
866.99	1699.81
867.16	1568.74
867.32	1605.61
867.49	1615.85
867.66	1656.81
867.83	1632.23
867.99	1650.66
868.16	1640.42
868.33	1548.26
868.49	1701.86
868.66	1632.23
868.83	1693.67
868.99	1673.19
869.16	1695.72
869.33	1773.54
869.50	1767.40
869.66	1642.47
869.83	1728.49
870.00	1667.05
870.16	1667.05
870.33	1687.53
870.50	1773.54
870.66	1695.72
870.83	1820.64
871.00	1628.14
871.17	1658.85
871.33	1712.10
871.50	1708.01
871.67	1693.67
871.83	1646.57
872.00	1779.68
872.17	1675.24
872.33	1798.12
872.50	1693.67
872.67	1703.91
872.83	1652.71
873.00	1683.43
873.17	1710.05
873.33	1681.38
873.50	1744.87
873.67	1652.71
873.83	1730.53
874.00	1722.34
874.16	1841.12
874.33	1726.44
874.50	1621.99
874.66	1763.30
874.83	1732.58
875.00	1722.34
875.16	1699.81
875.33	1714.15
875.50	1540.07
875.66	1650.66
875.83	1697.77
875.99	1738.73
876.16	1632.23
876.33	1605.61
876.49	1726.44
876.66	1679.33
876.83	1681.38
876.99	1583.08
877.16	1665.00
877.32	1658.85
877.49	1617.90
877.66	1712.10
877.82	1720.29
877.99	1730.53
878.15	1779.68
878.32	1746.92
878.49	1685.48
878.65	1617.90
878.82	1730.53
878.98	1636.33
879.15	1677.29
879.32	1730.53
879.48	1697.77
879.65	1685.48
879.81	1646.57
879.98	1675.24
880.15	1624.04
880.31	1701.86
880.48	1638.38
880.64	1763.30
880.81	1656.81
880.97	1796.07
881.14	1787.88
881.31	1726.44
881.47	1828.84
881.64	1624.04
881.80	1613.80
881.97	1734.63
882.13	1767.40
882.30	1638.38
882.47	1617.90
882.63	1654.76
882.80	1609.70
882.96	1615.85
883.13	1757.16
883.29	1613.80
883.46	1673.19
883.62	1826.79
883.79	1701.86
883.95	1714.15
884.12	1642.47
884.29	1679.33
884.45	1736.68
884.62	1697.77
884.78	1556.46
884.95	1689.57
885.11	1642.47
885.28	1697.77
885.44	1667.05
885.61	1722.34
885.77	1781.73
885.94	1716.20
886.10	1708.01
886.27	1701.86
886.43	1814.50
886.60	1740.77
886.76	1675.24
886.93	1601.51
887.09	1767.40
887.26	1628.14
887.42	1703.91
887.59	1783.78
887.75	1804.26
887.92	1757.16
888.08	1732.58
888.25	1765.35
888.41	1722.34
888.58	1710.05
888.74	1658.85
888.91	1589.22
>>>>>End Processed Spectral Data<<<<<
