SpectraSuite Data File
++++++++++++++++++++++++++++++++++++
Date: Mon Jun 06 14:22:37 CEST 2016
User: root
Dark Spectrum Present: No
Reference Spectrum Present: No
Number of Sampled Component Spectra: 1
Spectrometers: USB4C02835
Integration Time (usec): 100000 (USB4C02835)
Spectra Averaged: 1 (USB4C02835)
Boxcar Smoothing: 0 (USB4C02835)
Correct for Electrical Dark: No (USB4C02835)
Strobe/Lamp Enabled: No (USB4C02835)
Correct for Detector Non-linearity: No (USB4C02835)
Correct for Stray Light: No (USB4C02835)
Number of Pixels in Processed Spectrum: 3648
>>>>>Begin Processed Spectral Data<<<<<
177.47	1458.15
177.69	1458.15
177.91	1458.15
178.13	1519.59
178.36	1421.29
178.58	1632.23
178.80	1697.77
179.02	1675.24
179.24	1669.09
179.46	1726.44
179.68	1746.92
179.90	1658.85
180.13	1669.09
180.35	1677.29
180.57	1665.00
180.79	1746.92
181.01	1681.38
181.23	1718.25
181.45	1757.16
181.67	1757.16
181.90	1759.21
182.12	1714.15
182.34	1578.98
182.56	1800.16
182.78	1708.01
183.00	1697.77
183.22	1765.35
183.44	1585.13
183.66	1802.21
183.89	1777.64
184.11	1644.52
184.33	1667.05
184.55	1820.64
184.77	1728.49
184.99	1693.67
185.21	1607.66
185.43	1800.16
185.65	1650.66
185.87	1755.11
186.10	1820.64
186.32	1834.98
186.54	1736.68
186.76	1777.64
186.98	1763.30
187.20	1744.87
187.42	1669.09
187.64	1644.52
187.86	1757.16
188.08	1691.62
188.30	1673.19
188.52	1658.85
188.75	1800.16
188.97	1808.36
189.19	1638.38
189.41	1730.53
189.63	1728.49
189.85	1708.01
190.07	1595.37
190.29	1591.27
190.51	1685.48
190.73	1640.42
190.95	1810.40
191.17	1697.77
191.39	1605.61
191.61	1654.76
191.84	1771.49
192.06	1740.77
192.28	1665.00
192.50	1812.45
192.72	1646.57
192.94	1753.06
193.16	1746.92
193.38	1808.36
193.60	1673.19
193.82	1642.47
194.04	1708.01
194.26	1689.57
194.48	1632.23
194.70	1660.90
194.92	1669.09
195.14	1744.87
195.36	1730.53
195.58	1695.72
195.80	1689.57
196.02	1671.14
196.24	1644.52
196.46	1751.01
196.69	1722.34
196.91	1896.42
197.13	1734.63
197.35	1650.66
197.57	1837.03
197.79	1703.91
198.01	1699.81
198.23	1820.64
198.45	1687.53
198.67	1640.42
198.89	1636.33
199.11	1757.16
199.33	1662.95
199.55	1640.42
199.77	1626.09
199.99	1740.77
200.21	1722.34
200.43	1705.96
200.65	1650.66
200.87	1591.27
201.09	1736.68
201.31	1615.85
201.53	1748.97
201.75	1693.67
201.97	1691.62
202.19	1724.39
202.41	1701.86
202.63	1744.87
202.85	1720.29
203.07	1732.58
203.29	1693.67
203.51	1611.75
203.73	1665.00
203.95	1943.52
204.17	1710.05
204.39	1751.01
204.61	1675.24
204.83	1626.09
205.05	1759.21
205.27	1718.25
205.49	1843.17
205.71	1673.19
205.93	1640.42
206.15	1665.00
206.37	1695.72
206.59	1705.96
206.81	1560.55
207.03	1677.29
207.25	1644.52
207.47	1740.77
207.69	1744.87
207.91	1771.49
208.13	1769.44
208.34	1665.00
208.56	1654.76
208.78	1648.61
209.00	1675.24
209.22	1714.15
209.44	1667.05
209.66	1617.90
209.88	1738.73
210.10	1701.86
210.32	1687.53
210.54	1783.78
210.76	1699.81
210.98	1724.39
211.20	1595.37
211.42	1726.44
211.64	1761.25
211.86	1777.64
212.08	1738.73
212.30	1783.78
212.52	1708.01
212.74	1671.14
212.96	1695.72
213.17	1732.58
213.39	1720.29
213.61	1734.63
213.83	1708.01
214.05	1630.18
214.27	1687.53
214.49	1648.61
214.71	1675.24
214.93	1718.25
215.15	1726.44
215.37	1748.97
215.59	1613.80
215.81	1787.88
216.03	1744.87
216.24	1730.53
216.46	1728.49
216.68	1718.25
216.90	1751.01
217.12	1769.44
217.34	1699.81
217.56	1710.05
217.78	1699.81
218.00	1775.59
218.22	1714.15
218.44	1705.96
218.66	1679.33
218.87	1837.03
219.09	1701.86
219.31	1742.82
219.53	1701.86
219.75	1703.91
219.97	1685.48
220.19	1677.29
220.41	1656.81
220.63	1714.15
220.85	1691.62
221.06	1748.97
221.28	1726.44
221.50	1722.34
221.72	1660.90
221.94	1712.10
222.16	1712.10
222.38	1742.82
222.60	1691.62
222.82	1714.15
223.03	1796.07
223.25	1617.90
223.47	1771.49
223.69	1824.74
223.91	1710.05
224.13	1656.81
224.35	1673.19
224.57	1703.91
224.78	1781.73
225.00	1703.91
225.22	1685.48
225.44	1687.53
225.66	1751.01
225.88	1705.96
226.10	1806.31
226.32	1773.54
226.53	1767.40
226.75	1630.18
226.97	1660.90
227.19	1701.86
227.41	1621.99
227.63	1689.57
227.85	1665.00
228.06	1730.53
228.28	1748.97
228.50	1771.49
228.72	1673.19
228.94	1640.42
229.16	1673.19
229.37	1621.99
229.59	1683.43
229.81	1771.49
230.03	1665.00
230.25	1568.74
230.47	1646.57
230.69	1665.00
230.90	1787.88
231.12	1732.58
231.34	1648.61
231.56	1820.64
231.78	1714.15
232.00	1611.75
232.21	1730.53
232.43	1738.73
232.65	1601.51
232.87	1769.44
233.09	1660.90
233.30	1681.38
233.52	1789.92
233.74	1685.48
233.96	1675.24
234.18	1734.63
234.40	1640.42
234.61	1841.12
234.83	1621.99
235.05	1572.84
235.27	1832.93
235.49	1802.21
235.70	1679.33
235.92	1730.53
236.14	1753.06
236.36	1847.27
236.58	1689.57
236.79	1769.44
237.01	1712.10
237.23	1683.43
237.45	1812.45
237.67	1642.47
237.88	1751.01
238.10	1794.02
238.32	1669.09
238.54	1708.01
238.76	1742.82
238.97	1740.77
239.19	1601.51
239.41	1798.12
239.63	1824.74
239.85	1658.85
240.06	1773.54
240.28	1665.00
240.50	1724.39
240.72	1720.29
240.93	1687.53
241.15	1763.30
241.37	1736.68
241.59	1732.58
241.81	1683.43
242.02	1755.11
242.24	1748.97
242.46	1699.81
242.68	1712.10
242.89	1685.48
243.11	1685.48
243.33	1751.01
243.55	1738.73
243.76	1699.81
243.98	1621.99
244.20	1705.96
244.42	1722.34
244.64	1669.09
244.85	1578.98
245.07	1667.05
245.29	1685.48
245.51	1779.68
245.72	1699.81
245.94	1759.21
246.16	1705.96
246.38	1730.53
246.59	1621.99
246.81	1646.57
247.03	1728.49
247.24	1658.85
247.46	1650.66
247.68	1685.48
247.90	1613.80
248.11	1679.33
248.33	1783.78
248.55	1697.77
248.77	1751.01
248.98	1679.33
249.20	1839.08
249.42	1730.53
249.64	1742.82
249.85	1605.61
250.07	1722.34
250.29	1759.21
250.50	1767.40
250.72	1605.61
250.94	1660.90
251.16	1771.49
251.37	1779.68
251.59	1759.21
251.81	1699.81
252.02	1738.73
252.24	1742.82
252.46	1812.45
252.68	1611.75
252.89	1699.81
253.11	1583.08
253.33	1779.68
253.54	1798.12
253.76	1636.33
253.98	1718.25
254.20	1697.77
254.41	1583.08
254.63	1685.48
254.85	1660.90
255.06	1673.19
255.28	1720.29
255.50	1712.10
255.71	1662.95
255.93	1671.14
256.15	1599.46
256.36	1730.53
256.58	1656.81
256.80	1703.91
257.02	1710.05
257.23	1691.62
257.45	1660.90
257.67	1738.73
257.88	1658.85
258.10	1746.92
258.32	1673.19
258.53	1753.06
258.75	1765.35
258.97	1730.53
259.18	1732.58
259.40	1683.43
259.62	1759.21
259.83	1781.73
260.05	1787.88
260.27	1961.95
260.48	1767.40
260.70	1658.85
260.92	1705.96
261.13	1716.20
261.35	1640.42
261.57	1751.01
261.78	1640.42
262.00	1701.86
262.22	1656.81
262.43	1718.25
262.65	1593.32
262.86	1740.77
263.08	1802.21
263.30	1718.25
263.51	1597.42
263.73	1619.94
263.95	1761.25
264.16	1671.14
264.38	1626.09
264.60	1730.53
264.81	1718.25
265.03	1767.40
265.25	1646.57
265.46	1611.75
265.68	1751.01
265.89	1738.73
266.11	1632.23
266.33	1732.58
266.54	1708.01
266.76	1755.11
266.98	1654.76
267.19	1802.21
267.41	1757.16
267.62	1730.53
267.84	1638.38
268.06	1691.62
268.27	1658.85
268.49	1761.25
268.70	1798.12
268.92	1679.33
269.14	1605.61
269.35	1640.42
269.57	1730.53
269.79	1771.49
270.00	1679.33
270.22	1759.21
270.43	1710.05
270.65	1552.36
270.87	1744.87
271.08	1814.50
271.30	1681.38
271.51	1714.15
271.73	1701.86
271.95	1804.26
272.16	1673.19
272.38	1716.20
272.59	1613.80
272.81	1710.05
273.02	1810.40
273.24	1697.77
273.46	1689.57
273.67	1656.81
273.89	1685.48
274.10	1648.61
274.32	1701.86
274.54	1722.34
274.75	1763.30
274.97	1722.34
275.18	1728.49
275.40	1701.86
275.61	1673.19
275.83	1683.43
276.05	1617.90
276.26	1732.58
276.48	1724.39
276.69	1667.05
276.91	1703.91
277.12	1781.73
277.34	1734.63
277.55	1763.30
277.77	1716.20
277.99	1687.53
278.20	1658.85
278.42	1566.70
278.63	1660.90
278.85	1718.25
279.06	1640.42
279.28	1808.36
279.49	1714.15
279.71	1673.19
279.93	1755.11
280.14	1708.01
280.36	1638.38
280.57	1703.91
280.79	1673.19
281.00	1640.42
281.22	1591.27
281.43	1824.74
281.65	1599.46
281.86	1701.86
282.08	1710.05
282.29	1808.36
282.51	1595.37
282.73	1644.52
282.94	1624.04
283.16	1669.09
283.37	1830.88
283.59	1697.77
283.80	1761.25
284.02	1654.76
284.23	1695.72
284.45	1634.28
284.66	1617.90
284.88	1697.77
285.09	1722.34
285.31	1757.16
285.52	1722.34
285.74	1626.09
285.95	1740.77
286.17	1644.52
286.38	1820.64
286.60	1701.86
286.81	1757.16
287.03	1695.72
287.24	1662.95
287.46	1714.15
287.67	1701.86
287.89	1871.84
288.10	1681.38
288.32	1748.97
288.53	1787.88
288.75	1638.38
288.96	1728.49
289.18	1642.47
289.39	1730.53
289.61	1695.72
289.82	1896.42
290.04	1798.12
290.25	1566.70
290.47	1734.63
290.68	1630.18
290.90	1802.21
291.11	1658.85
291.33	1775.59
291.54	1595.37
291.76	1648.61
291.97	1658.85
292.18	1763.30
292.40	1656.81
292.61	1685.48
292.83	1818.60
293.04	1777.64
293.26	1665.00
293.47	1648.61
293.69	1634.28
293.90	1732.58
294.12	1810.40
294.33	1730.53
294.55	1671.14
294.76	1783.78
294.97	1771.49
295.19	1843.17
295.40	1632.23
295.62	1718.25
295.83	1714.15
296.05	1621.99
296.26	1744.87
296.48	1669.09
296.69	1673.19
296.90	1617.90
297.12	1787.88
297.33	1773.54
297.55	1720.29
297.76	1740.77
297.98	1742.82
298.19	1667.05
298.41	1738.73
298.62	1599.46
298.83	1826.79
299.05	1685.48
299.26	1644.52
299.48	1740.77
299.69	1734.63
299.90	1644.52
300.12	1652.71
300.33	1761.25
300.55	1685.48
300.76	1755.11
300.98	1705.96
301.19	1771.49
301.40	1695.72
301.62	1724.39
301.83	1718.25
302.05	1658.85
302.26	1710.05
302.47	1665.00
302.69	1634.28
302.90	1665.00
303.12	1533.93
303.33	1691.62
303.54	1855.46
303.76	1630.18
303.97	1658.85
304.19	1779.68
304.40	1642.47
304.61	1777.64
304.83	1794.02
305.04	1771.49
305.26	1761.25
305.47	1648.61
305.68	1667.05
305.90	1630.18
306.11	1734.63
306.33	1652.71
306.54	1693.67
306.75	1636.33
306.97	1632.23
307.18	1693.67
307.39	1626.09
307.61	1746.92
307.82	1685.48
308.04	1730.53
308.25	1675.24
308.46	1824.74
308.68	1720.29
308.89	1742.82
309.10	1691.62
309.32	1742.82
309.53	1714.15
309.74	1673.19
309.96	1665.00
310.17	1798.12
310.39	1662.95
310.60	1701.86
310.81	1738.73
311.03	1671.14
311.24	1765.35
311.45	1769.44
311.67	1828.84
311.88	1662.95
312.09	1632.23
312.31	1667.05
312.52	1701.86
312.73	1671.14
312.95	1617.90
313.16	1650.66
313.37	1757.16
313.59	1681.38
313.80	1695.72
314.01	1830.88
314.23	1628.14
314.44	1660.90
314.65	1636.33
314.87	1740.77
315.08	1708.01
315.29	1722.34
315.51	1673.19
315.72	1556.46
315.93	1794.02
316.15	1742.82
316.36	1703.91
316.57	1697.77
316.79	1746.92
317.00	1697.77
317.21	1765.35
317.43	1621.99
317.64	1773.54
317.85	1640.42
318.07	1644.52
318.28	1677.29
318.49	1791.97
318.70	1937.38
318.92	1826.79
319.13	1847.27
319.34	1767.40
319.56	1783.78
319.77	1763.30
319.98	1851.36
320.20	1816.55
320.41	1789.92
320.62	1757.16
320.83	1689.57
321.05	1820.64
321.26	1791.97
321.47	1724.39
321.69	1732.58
321.90	1630.18
322.11	1640.42
322.32	1669.09
322.54	1828.84
322.75	1712.10
322.96	1710.05
323.18	1644.52
323.39	1611.75
323.60	1759.21
323.81	1701.86
324.03	1681.38
324.24	1705.96
324.45	1710.05
324.66	1708.01
324.88	1757.16
325.09	1769.44
325.30	1671.14
325.52	1720.29
325.73	1748.97
325.94	1708.01
326.15	1669.09
326.37	1656.81
326.58	1710.05
326.79	1746.92
327.00	1673.19
327.22	1738.73
327.43	1703.91
327.64	1607.66
327.85	1716.20
328.07	1681.38
328.28	1816.55
328.49	1691.62
328.70	1687.53
328.92	1748.97
329.13	1615.85
329.34	1683.43
329.55	1734.63
329.76	1839.08
329.98	1642.47
330.19	1763.30
330.40	1763.30
330.61	1683.43
330.83	1730.53
331.04	1675.24
331.25	1724.39
331.46	1683.43
331.68	1691.62
331.89	1767.40
332.10	1712.10
332.31	1656.81
332.52	1726.44
332.74	1798.12
332.95	1640.42
333.16	1660.90
333.37	1681.38
333.58	1648.61
333.80	1701.86
334.01	1560.55
334.22	1728.49
334.43	1658.85
334.64	1697.77
334.86	1658.85
335.07	1619.94
335.28	1818.60
335.49	1621.99
335.70	1769.44
335.92	1847.27
336.13	1847.27
336.34	1710.05
336.55	1775.59
336.76	1734.63
336.98	1611.75
337.19	1701.86
337.40	1837.03
337.61	1818.60
337.82	1681.38
338.04	1734.63
338.25	1656.81
338.46	1654.76
338.67	1712.10
338.88	1658.85
339.09	1667.05
339.31	1683.43
339.52	1615.85
339.73	1640.42
339.94	1705.96
340.15	1724.39
340.36	1665.00
340.58	1726.44
340.79	1665.00
341.00	1794.02
341.21	1681.38
341.42	1785.83
341.63	1648.61
341.85	1769.44
342.06	1699.81
342.27	1683.43
342.48	1771.49
342.69	1665.00
342.90	1710.05
343.12	1712.10
343.33	1742.82
343.54	1779.68
343.75	1830.88
343.96	1638.38
344.17	1681.38
344.38	1718.25
344.60	1675.24
344.81	1695.72
345.02	1691.62
345.23	1796.07
345.44	1865.70
345.65	1665.00
345.86	1722.34
346.07	1699.81
346.29	1708.01
346.50	1693.67
346.71	1751.01
346.92	1757.16
347.13	1787.88
347.34	1705.96
347.55	1796.07
347.76	1783.78
347.98	1589.22
348.19	1652.71
348.40	1777.64
348.61	1718.25
348.82	1779.68
349.03	1665.00
349.24	1619.94
349.45	1771.49
349.66	1554.41
349.88	1714.15
350.09	1722.34
350.30	1769.44
350.51	1798.12
350.72	1652.71
350.93	1722.34
351.14	1736.68
351.35	1736.68
351.56	1687.53
351.77	1703.91
351.99	1755.11
352.20	1773.54
352.41	1787.88
352.62	1601.51
352.83	1751.01
353.04	1675.24
353.25	1683.43
353.46	1740.77
353.67	1765.35
353.88	1560.55
354.09	1714.15
354.30	1695.72
354.52	1738.73
354.73	1718.25
354.94	1628.14
355.15	1665.00
355.36	1857.51
355.57	1740.77
355.78	1695.72
355.99	1650.66
356.20	1695.72
356.41	1753.06
356.62	1775.59
356.83	1738.73
357.04	1748.97
357.25	1544.17
357.46	1679.33
357.68	1626.09
357.89	1677.29
358.10	1703.91
358.31	1728.49
358.52	1695.72
358.73	1587.18
358.94	1697.77
359.15	1677.29
359.36	1841.12
359.57	1695.72
359.78	1718.25
359.99	1753.06
360.20	1689.57
360.41	1648.61
360.62	1689.57
360.83	1705.96
361.04	1679.33
361.25	1654.76
361.46	1810.40
361.67	1677.29
361.88	1789.92
362.09	1712.10
362.30	1765.35
362.51	1660.90
362.72	1681.38
362.93	1785.83
363.14	1767.40
363.35	1732.58
363.56	1660.90
363.78	1757.16
363.99	1722.34
364.20	1720.29
364.41	1732.58
364.62	1865.70
364.83	1685.48
365.04	1695.72
365.25	1685.48
365.46	1785.83
365.67	1665.00
365.88	1683.43
366.09	1632.23
366.30	1654.76
366.51	1665.00
366.72	1734.63
366.93	1677.29
367.14	1699.81
367.35	1695.72
367.56	1644.52
367.77	1808.36
367.98	1689.57
368.18	1705.96
368.39	1726.44
368.60	1617.90
368.81	1703.91
369.02	1671.14
369.23	1708.01
369.44	1542.12
369.65	1679.33
369.86	1757.16
370.07	1753.06
370.28	1638.38
370.49	1671.14
370.70	1746.92
370.91	1636.33
371.12	1699.81
371.33	1753.06
371.54	1697.77
371.75	1785.83
371.96	1726.44
372.17	1673.19
372.38	1746.92
372.59	1785.83
372.80	1708.01
373.01	1691.62
373.22	1695.72
373.43	1652.71
373.64	1589.22
373.85	1761.25
374.06	1828.84
374.26	1734.63
374.47	1740.77
374.68	1755.11
374.89	1708.01
375.10	1689.57
375.31	1810.40
375.52	1765.35
375.73	1742.82
375.94	1601.51
376.15	1796.07
376.36	1673.19
376.57	1705.96
376.78	1667.05
376.99	1691.62
377.20	1820.64
377.40	1695.72
377.61	1859.56
377.82	1658.85
378.03	1818.60
378.24	1740.77
378.45	1732.58
378.66	1751.01
378.87	1599.46
379.08	1609.70
379.29	1638.38
379.50	1771.49
379.71	1765.35
379.91	1746.92
380.12	1652.71
380.33	1703.91
380.54	1753.06
380.75	1679.33
380.96	1687.53
381.17	1814.50
381.38	1755.11
381.59	1771.49
381.80	1656.81
382.00	1877.99
382.21	1728.49
382.42	1787.88
382.63	1843.17
382.84	1712.10
383.05	1798.12
383.26	1798.12
383.47	1714.15
383.68	1773.54
383.88	1720.29
384.09	1681.38
384.30	1826.79
384.51	1755.11
384.72	1669.09
384.93	1691.62
385.14	1714.15
385.35	1771.49
385.55	1550.31
385.76	1742.82
385.97	1744.87
386.18	1697.77
386.39	1712.10
386.60	1665.00
386.81	1673.19
387.02	1675.24
387.22	1677.29
387.43	1789.92
387.64	1822.69
387.85	1822.69
388.06	2131.94
388.27	4286.40
388.48	7026.58
388.68	8468.35
388.89	9576.30
389.10	9715.56
389.31	8533.89
389.52	7698.31
389.73	6883.22
389.93	6416.29
390.14	5846.95
390.35	5222.32
390.56	4478.91
390.77	3794.89
390.98	3123.15
391.18	2541.53
391.39	2115.55
391.60	1857.51
391.81	1761.25
392.02	1728.49
392.23	1882.08
392.43	1736.68
392.64	1787.88
392.85	1681.38
393.06	1791.97
393.27	1687.53
393.47	1697.77
393.68	1769.44
393.89	1669.09
394.10	1703.91
394.31	1634.28
394.52	1642.47
394.72	1714.15
394.93	1851.36
395.14	1695.72
395.35	1755.11
395.56	1642.47
395.76	1740.77
395.97	1837.03
396.18	1845.22
396.39	1841.12
396.60	2000.87
396.80	1832.93
397.01	1806.31
397.22	1845.22
397.43	1882.08
397.64	1796.07
397.84	1832.93
398.05	1824.74
398.26	1710.05
398.47	1759.21
398.67	1734.63
398.88	1626.09
399.09	1773.54
399.30	1718.25
399.51	1705.96
399.71	1689.57
399.92	1669.09
400.13	1734.63
400.34	1673.19
400.54	1677.29
400.75	1851.36
400.96	1714.15
401.17	1802.21
401.37	1740.77
401.58	1695.72
401.79	1726.44
402.00	1910.75
402.21	2066.40
402.41	1945.57
402.62	1990.63
402.83	1959.91
403.04	2025.44
403.24	2033.63
403.45	1853.41
403.66	1857.51
403.87	1902.56
404.07	1888.23
404.28	1859.56
404.49	1804.26
404.70	1796.07
404.90	1765.35
405.11	1734.63
405.32	1708.01
405.52	1675.24
405.73	1703.91
405.94	1693.67
406.15	1673.19
406.35	1814.50
406.56	1705.96
406.77	1675.24
406.98	1736.68
407.18	1677.29
407.39	1755.11
407.60	1630.18
407.80	1714.15
408.01	1679.33
408.22	1714.15
408.43	1695.72
408.63	1699.81
408.84	1728.49
409.05	1722.34
409.25	1632.23
409.46	1693.67
409.67	1697.77
409.88	1669.09
410.08	1779.68
410.29	1671.14
410.50	1759.21
410.70	1826.79
410.91	1609.70
411.12	1732.58
411.32	1787.88
411.53	1642.47
411.74	1753.06
411.95	1736.68
412.15	1718.25
412.36	1777.64
412.57	1677.29
412.77	1812.45
412.98	1742.82
413.19	1728.49
413.39	1789.92
413.60	1800.16
413.81	1759.21
414.01	1652.71
414.22	1724.39
414.43	1665.00
414.63	1687.53
414.84	1757.16
415.05	1738.73
415.25	1685.48
415.46	1738.73
415.67	1738.73
415.87	1705.96
416.08	1728.49
416.29	1691.62
416.49	1720.29
416.70	1603.56
416.91	1732.58
417.11	1748.97
417.32	1740.77
417.53	1701.86
417.73	1701.86
417.94	1685.48
418.15	1669.09
418.35	1720.29
418.56	1685.48
418.77	1892.32
418.97	1671.14
419.18	1693.67
419.38	1529.83
419.59	1665.00
419.80	1810.40
420.00	1724.39
420.21	1681.38
420.42	1847.27
420.62	1734.63
420.83	1679.33
421.04	1703.91
421.24	1683.43
421.45	1710.05
421.65	1693.67
421.86	1705.96
422.07	1677.29
422.27	1710.05
422.48	1738.73
422.69	1656.81
422.89	1677.29
423.10	1689.57
423.30	1644.52
423.51	1693.67
423.72	1718.25
423.92	1808.36
424.13	1628.14
424.33	1718.25
424.54	1783.78
424.75	1769.44
424.95	1794.02
425.16	1746.92
425.36	1701.86
425.57	1746.92
425.78	1689.57
425.98	1798.12
426.19	1740.77
426.39	1593.32
426.60	1718.25
426.81	1767.40
427.01	1691.62
427.22	1611.75
427.42	1648.61
427.63	1660.90
427.83	1759.21
428.04	1771.49
428.25	1787.88
428.45	1781.73
428.66	1785.83
428.86	1785.83
429.07	1650.66
429.28	1712.10
429.48	1734.63
429.69	1621.99
429.89	1716.20
430.10	1687.53
430.30	1777.64
430.51	1746.92
430.71	1753.06
430.92	1716.20
431.13	1640.42
431.33	1777.64
431.54	1722.34
431.74	1810.40
431.95	1865.70
432.15	1701.86
432.36	1763.30
432.56	1800.16
432.77	1796.07
432.98	1798.12
433.18	1755.11
433.39	1648.61
433.59	1716.20
433.80	1814.50
434.00	1945.57
434.21	1720.29
434.41	1765.35
434.62	1791.97
434.82	1665.00
435.03	1636.33
435.23	1669.09
435.44	1626.09
435.64	1701.86
435.85	1761.25
436.06	1794.02
436.26	1705.96
436.47	1662.95
436.67	1730.53
436.88	1785.83
437.08	1746.92
437.29	1853.41
437.49	1660.90
437.70	1767.40
437.90	1695.72
438.11	1822.69
438.31	1787.88
438.52	1826.79
438.72	1789.92
438.93	1869.80
439.13	1802.21
439.34	1826.79
439.54	1783.78
439.75	1761.25
439.95	1798.12
440.16	1718.25
440.36	1722.34
440.57	1726.44
440.77	1775.59
440.98	1669.09
441.18	1738.73
441.39	1718.25
441.59	1718.25
441.80	1810.40
442.00	1757.16
442.21	1820.64
442.41	1722.34
442.62	1779.68
442.82	1660.90
443.02	1804.26
443.23	1761.25
443.43	1763.30
443.64	1902.56
443.84	1632.23
444.05	1804.26
444.25	1722.34
444.46	1679.33
444.66	1722.34
444.87	1822.69
445.07	1591.27
445.28	1779.68
445.48	1830.88
445.69	1705.96
445.89	1843.17
446.09	1771.49
446.30	2070.50
446.50	2727.89
446.71	3782.60
446.91	4401.08
447.12	4808.63
447.32	4806.58
447.53	4235.20
447.73	3876.80
447.93	3645.38
448.14	3291.09
448.34	3274.70
448.55	2914.26
448.75	2883.54
448.96	2670.55
449.16	2508.76
449.36	2275.29
449.57	2150.37
449.77	1906.66
449.98	1722.34
450.18	1822.69
450.39	1845.22
450.59	1789.92
450.79	1691.62
451.00	1683.43
451.20	1738.73
451.41	1763.30
451.61	1730.53
451.81	1763.30
452.02	1685.48
452.22	1697.77
452.43	1665.00
452.63	1669.09
452.84	1740.77
453.04	1751.01
453.24	1714.15
453.45	1701.86
453.65	1697.77
453.86	1716.20
454.06	1761.25
454.26	1716.20
454.47	1685.48
454.67	1837.03
454.87	1841.12
455.08	1777.64
455.28	1800.16
455.49	1794.02
455.69	1689.57
455.89	1877.99
456.10	1814.50
456.30	1673.19
456.51	1748.97
456.71	1734.63
456.91	1787.88
457.12	1658.85
457.32	1767.40
457.52	1726.44
457.73	1789.92
457.93	1755.11
458.14	1658.85
458.34	1665.00
458.54	1701.86
458.75	1771.49
458.95	1763.30
459.15	1693.67
459.36	1822.69
459.56	1748.97
459.76	1869.80
459.97	1738.73
460.17	1660.90
460.37	1806.31
460.58	1738.73
460.78	1765.35
460.99	1724.39
461.19	1689.57
461.39	1652.71
461.60	1753.06
461.80	1816.55
462.00	1619.94
462.21	1789.92
462.41	1685.48
462.61	1673.19
462.82	1667.05
463.02	1830.88
463.22	1757.16
463.43	1773.54
463.63	1693.67
463.83	1744.87
464.04	1718.25
464.24	1652.71
464.44	1724.39
464.64	1763.30
464.85	1710.05
465.05	1775.59
465.25	1722.34
465.46	1695.72
465.66	1732.58
465.86	1781.73
466.07	1724.39
466.27	1730.53
466.47	1613.80
466.68	1722.34
466.88	1824.74
467.08	1710.05
467.29	1777.64
467.49	1775.59
467.69	1699.81
467.89	1665.00
468.10	1726.44
468.30	1757.16
468.50	1787.88
468.71	1736.68
468.91	1630.18
469.11	1892.32
469.31	1746.92
469.52	1691.62
469.72	1734.63
469.92	1882.08
470.13	1673.19
470.33	1677.29
470.53	1771.49
470.73	2160.61
470.94	2295.77
471.14	2267.10
471.34	2469.85
471.54	2410.46
471.75	2246.62
471.95	2142.18
472.15	2050.02
472.36	2070.50
472.56	2072.54
472.76	2090.98
472.96	1990.63
473.17	1978.34
473.37	1925.09
473.57	1791.97
473.77	1822.69
473.98	1775.59
474.18	1679.33
474.38	1830.88
474.58	1683.43
474.79	1650.66
474.99	1814.50
475.19	1800.16
475.39	1671.14
475.60	1683.43
475.80	1730.53
476.00	1722.34
476.20	1638.38
476.41	1718.25
476.61	1789.92
476.81	1742.82
477.01	1626.09
477.21	1804.26
477.42	1873.89
477.62	1648.61
477.82	1755.11
478.02	1660.90
478.23	1794.02
478.43	1689.57
478.63	1708.01
478.83	1689.57
479.03	1673.19
479.24	1740.77
479.44	1781.73
479.64	1677.29
479.84	1593.32
480.04	1710.05
480.25	1828.84
480.45	1615.85
480.65	1753.06
480.85	1771.49
481.06	1728.49
481.26	1753.06
481.46	1779.68
481.66	1738.73
481.86	1624.04
482.06	1781.73
482.27	1648.61
482.47	1689.57
482.67	1787.88
482.87	1720.29
483.07	1761.25
483.28	1669.09
483.48	1701.86
483.68	1800.16
483.88	1751.01
484.08	1662.95
484.29	1667.05
484.49	1718.25
484.69	1705.96
484.89	1818.60
485.09	1740.77
485.29	1759.21
485.50	1755.11
485.70	1650.66
485.90	1820.64
486.10	1683.43
486.30	1767.40
486.50	1697.77
486.71	1791.97
486.91	1771.49
487.11	1826.79
487.31	1650.66
487.51	1716.20
487.71	1748.97
487.91	1640.42
488.12	1701.86
488.32	1626.09
488.52	1626.09
488.72	1595.37
488.92	1728.49
489.12	1820.64
489.32	1800.16
489.53	1767.40
489.73	1611.75
489.93	1730.53
490.13	1697.77
490.33	1665.00
490.53	1724.39
490.73	1781.73
490.94	1714.15
491.14	1783.78
491.34	1820.64
491.54	2125.79
491.74	2533.34
491.94	2981.84
492.14	3090.38
492.34	3041.23
492.54	2805.72
492.75	2578.39
492.95	2463.71
493.15	2375.64
493.35	2283.49
493.55	2197.47
493.75	2154.46
493.95	2154.46
494.15	2072.54
494.35	1890.28
494.56	1886.18
494.76	1753.06
494.96	1839.08
495.16	1775.59
495.36	1667.05
495.56	1724.39
495.76	1732.58
495.96	1695.72
496.16	1732.58
496.36	1808.36
496.56	1728.49
496.77	1687.53
496.97	1699.81
497.17	1789.92
497.37	1634.28
497.57	1767.40
497.77	1673.19
497.97	1697.77
498.17	1710.05
498.37	1732.58
498.57	1759.21
498.77	1705.96
498.97	1722.34
499.17	1796.07
499.38	1763.30
499.58	1763.30
499.78	1781.73
499.98	1769.44
500.18	1675.24
500.38	1767.40
500.58	1828.84
500.78	2541.53
500.98	4771.77
501.18	5842.85
501.38	6733.72
501.58	7384.98
501.78	6762.39
501.98	5574.57
502.18	5027.76
502.38	4440.00
502.58	4108.23
502.78	3751.88
502.98	3760.07
503.18	3481.55
503.38	3196.88
503.59	2840.53
503.79	2639.83
503.99	2531.29
504.19	2326.49
504.39	2140.13
504.59	2172.89
504.79	2107.36
504.99	2045.92
505.19	1972.19
505.39	1841.12
505.59	1900.52
505.79	1920.99
505.99	1908.71
506.19	1769.44
506.39	1869.80
506.59	1689.57
506.79	1716.20
506.99	1812.45
507.19	1759.21
507.39	1832.93
507.59	1730.53
507.79	1642.47
507.99	1689.57
508.19	1791.97
508.39	1712.10
508.59	1677.29
508.79	1791.97
508.99	1812.45
509.19	1751.01
509.39	1822.69
509.59	1705.96
509.79	1665.00
509.99	1687.53
510.19	1804.26
510.39	1763.30
510.59	1697.77
510.79	1757.16
510.99	1681.38
511.19	1718.25
511.39	1869.80
511.59	1783.78
511.79	1806.31
511.99	1701.86
512.19	1800.16
512.38	1722.34
512.58	1720.29
512.78	1734.63
512.98	1839.08
513.18	1798.12
513.38	1632.23
513.58	1771.49
513.78	1794.02
513.98	1662.95
514.18	1656.81
514.38	1701.86
514.58	1671.14
514.78	1679.33
514.98	1691.62
515.18	1726.44
515.38	1677.29
515.58	1771.49
515.78	1722.34
515.98	1695.72
516.18	1724.39
516.38	1746.92
516.57	1705.96
516.77	1615.85
516.97	1781.73
517.17	1730.53
517.37	1560.55
517.57	1687.53
517.77	1691.62
517.97	1705.96
518.17	1734.63
518.37	1652.71
518.57	1720.29
518.77	1697.77
518.97	1783.78
519.16	1763.30
519.36	1726.44
519.56	1712.10
519.76	1722.34
519.96	1769.44
520.16	1896.42
520.36	1683.43
520.56	1806.31
520.76	1665.00
520.96	1701.86
521.16	1734.63
521.35	1820.64
521.55	1845.22
521.75	1695.72
521.95	1705.96
522.15	1734.63
522.35	1679.33
522.55	1740.77
522.75	1767.40
522.95	1740.77
523.14	1626.09
523.34	1767.40
523.54	1751.01
523.74	1751.01
523.94	1724.39
524.14	1619.94
524.34	1734.63
524.54	1816.55
524.73	1722.34
524.93	1767.40
525.13	1720.29
525.33	1615.85
525.53	1898.47
525.73	1665.00
525.93	1703.91
526.13	1695.72
526.32	1791.97
526.52	1730.53
526.72	1804.26
526.92	1685.48
527.12	1769.44
527.32	1628.14
527.52	1769.44
527.71	1759.21
527.91	1718.25
528.11	1667.05
528.31	1705.96
528.51	1705.96
528.71	1763.30
528.90	1804.26
529.10	1808.36
529.30	1839.08
529.50	1603.56
529.70	1673.19
529.90	1693.67
530.09	1710.05
530.29	1660.90
530.49	1697.77
530.69	1908.71
530.89	1714.15
531.09	1808.36
531.28	1726.44
531.48	1751.01
531.68	1748.97
531.88	1759.21
532.08	1761.25
532.28	1656.81
532.47	1718.25
532.67	1834.98
532.87	1773.54
533.07	1701.86
533.27	1665.00
533.46	1714.15
533.66	1753.06
533.86	1751.01
534.06	1695.72
534.26	1732.58
534.45	1732.58
534.65	1763.30
534.85	1701.86
535.05	1699.81
535.25	1787.88
535.44	1656.81
535.64	1753.06
535.84	1740.77
536.04	1687.53
536.24	1705.96
536.43	1718.25
536.63	1783.78
536.83	1751.01
537.03	1738.73
537.22	1621.99
537.42	1650.66
537.62	1742.82
537.82	1656.81
538.02	1789.92
538.21	1771.49
538.41	1853.41
538.61	1714.15
538.81	1718.25
539.00	1802.21
539.20	1679.33
539.40	1773.54
539.60	1773.54
539.79	1796.07
539.99	1708.01
540.19	1705.96
540.39	1744.87
540.58	1779.68
540.78	1800.16
540.98	1757.16
541.18	1787.88
541.37	1738.73
541.57	1726.44
541.77	1695.72
541.97	1757.16
542.16	1730.53
542.36	1683.43
542.56	1763.30
542.76	1863.65
542.95	1722.34
543.15	1773.54
543.35	1794.02
543.54	1679.33
543.74	1724.39
543.94	1826.79
544.14	1687.53
544.33	1720.29
544.53	1779.68
544.73	1742.82
544.93	1679.33
545.12	1691.62
545.32	1734.63
545.52	1740.77
545.71	1714.15
545.91	1732.58
546.11	1726.44
546.30	1656.81
546.50	1791.97
546.70	1812.45
546.90	1796.07
547.09	1515.50
547.29	1751.01
547.49	1732.58
547.68	1771.49
547.88	1624.04
548.08	1757.16
548.27	2199.52
548.47	1673.19
548.67	1701.86
548.87	1765.35
549.06	1679.33
549.26	1777.64
549.46	1783.78
549.65	1658.85
549.85	1718.25
550.05	1726.44
550.24	1716.20
550.44	1804.26
550.64	1714.15
550.83	1628.14
551.03	1783.78
551.23	1714.15
551.42	1767.40
551.62	1738.73
551.82	1652.71
552.01	1761.25
552.21	1834.98
552.41	1779.68
552.60	1708.01
552.80	1728.49
553.00	1697.77
553.19	1689.57
553.39	1839.08
553.59	1572.84
553.78	1722.34
553.98	1767.40
554.17	1683.43
554.37	1845.22
554.57	1740.77
554.76	1644.52
554.96	1691.62
555.16	1677.29
555.35	1673.19
555.55	1810.40
555.75	1693.67
555.94	1759.21
556.14	1718.25
556.33	1718.25
556.53	1734.63
556.73	1759.21
556.92	1763.30
557.12	1748.97
557.32	1804.26
557.51	1798.12
557.71	1863.65
557.90	1820.64
558.10	1765.35
558.30	1697.77
558.49	1705.96
558.69	1736.68
558.88	1748.97
559.08	1800.16
559.28	1716.20
559.47	1679.33
559.67	1718.25
559.86	1857.51
560.06	1761.25
560.26	1703.91
560.45	1744.87
560.65	1648.61
560.84	1837.03
561.04	1718.25
561.24	1779.68
561.43	1642.47
561.63	1822.69
561.82	1757.16
562.02	1785.83
562.22	1771.49
562.41	1636.33
562.61	1712.10
562.80	1626.09
563.00	1832.93
563.19	1751.01
563.39	1738.73
563.59	1708.01
563.78	1697.77
563.98	1669.09
564.17	1656.81
564.37	1595.37
564.56	1751.01
564.76	1683.43
564.96	1759.21
565.15	1748.97
565.35	1837.03
565.54	1687.53
565.74	1783.78
565.93	1791.97
566.13	1714.15
566.32	1757.16
566.52	1812.45
566.71	1716.20
566.91	1701.86
567.11	1787.88
567.30	1695.72
567.50	1802.21
567.69	1763.30
567.89	1718.25
568.08	1673.19
568.28	1802.21
568.47	1615.85
568.67	1757.16
568.86	1669.09
569.06	1808.36
569.25	1697.77
569.45	1695.72
569.64	1783.78
569.84	1644.52
570.04	1726.44
570.23	1660.90
570.43	1675.24
570.62	1783.78
570.82	1888.23
571.01	1611.75
571.21	1724.39
571.40	1695.72
571.60	1771.49
571.79	1736.68
571.99	1785.83
572.18	1640.42
572.38	1771.49
572.57	1742.82
572.77	1755.11
572.96	1884.13
573.16	1783.78
573.35	1695.72
573.55	1796.07
573.74	1779.68
573.94	1787.88
574.13	1683.43
574.33	1779.68
574.52	1812.45
574.71	1720.29
574.91	1773.54
575.10	1665.00
575.30	1685.48
575.49	1685.48
575.69	1642.47
575.88	1710.05
576.08	1748.97
576.27	1779.68
576.47	1730.53
576.66	1880.04
576.86	1779.68
577.05	1738.73
577.25	1857.51
577.44	1861.60
577.64	1681.38
577.83	1818.60
578.02	1671.14
578.22	1828.84
578.41	1855.46
578.61	1691.62
578.80	1710.05
579.00	1720.29
579.19	1767.40
579.39	1740.77
579.58	1824.74
579.77	1751.01
579.97	1761.25
580.16	1775.59
580.36	1781.73
580.55	1798.12
580.75	1810.40
580.94	1769.44
581.13	1849.32
581.33	1869.80
581.52	1777.64
581.72	1859.56
581.91	1855.46
582.11	1753.06
582.30	1714.15
582.49	1822.69
582.69	1789.92
582.88	1812.45
583.08	1710.05
583.27	1726.44
583.47	1783.78
583.66	1720.29
583.85	1699.81
584.05	1753.06
584.24	1789.92
584.44	1740.77
584.63	1818.60
584.82	1884.13
585.02	1886.18
585.21	1814.50
585.41	1837.03
585.60	1804.26
585.79	1902.56
585.99	1898.47
586.18	1927.14
586.37	2156.51
586.57	3303.37
586.76	10047.33
586.96	25020.03
587.15	35202.53
587.34	41229.71
587.54	42683.76
587.73	37105.10
587.93	27043.43
588.12	22099.63
588.31	18415.34
588.51	16686.85
588.70	15251.22
588.89	14411.56
589.09	13008.70
589.28	11169.62
589.47	9615.21
589.67	8281.99
589.86	6412.19
590.06	5085.11
590.25	3985.35
590.44	3139.54
590.64	2641.88
590.83	2181.09
591.02	2174.94
591.22	2029.54
591.41	1869.80
591.60	1826.79
591.80	1986.53
591.99	1800.16
592.18	1826.79
592.38	1841.12
592.57	1712.10
592.76	1773.54
592.96	1818.60
593.15	1761.25
593.34	1751.01
593.54	1757.16
593.73	1771.49
593.92	1804.26
594.12	1744.87
594.31	1775.59
594.50	1781.73
594.70	1814.50
594.89	1920.99
595.08	1640.42
595.28	1767.40
595.47	1855.46
595.66	1822.69
595.86	1701.86
596.05	1714.15
596.24	1722.34
596.43	1816.55
596.63	1822.69
596.82	1791.97
597.01	1726.44
597.21	1832.93
597.40	1761.25
597.59	1810.40
597.79	1802.21
597.98	1730.53
598.17	1806.31
598.36	1767.40
598.56	1763.30
598.75	1742.82
598.94	1746.92
599.14	1695.72
599.33	1712.10
599.52	1818.60
599.71	1763.30
599.91	1855.46
600.10	1695.72
600.29	1714.15
600.48	1820.64
600.68	1789.92
600.87	1724.39
601.06	1671.14
601.26	1738.73
601.45	1763.30
601.64	1660.90
601.83	1802.21
602.03	1755.11
602.22	1660.90
602.41	1742.82
602.60	1843.17
602.80	1818.60
602.99	1755.11
603.18	1720.29
603.37	1703.91
603.57	1726.44
603.76	1763.30
603.95	1761.25
604.14	1720.29
604.34	1652.71
604.53	1812.45
604.72	1722.34
604.91	1759.21
605.10	1794.02
605.30	1710.05
605.49	1843.17
605.68	1810.40
605.87	1718.25
606.07	1710.05
606.26	1681.38
606.45	1720.29
606.64	1814.50
606.84	1708.01
607.03	1708.01
607.22	1771.49
607.41	1679.33
607.60	1652.71
607.80	1740.77
607.99	1712.10
608.18	1769.44
608.37	1724.39
608.56	1644.52
608.76	1818.60
608.95	1824.74
609.14	1740.77
609.33	1748.97
609.52	1771.49
609.72	1728.49
609.91	1796.07
610.10	1644.52
610.29	1853.41
610.48	1839.08
610.68	1765.35
610.87	1730.53
611.06	1714.15
611.25	1736.68
611.44	1832.93
611.63	1699.81
611.83	1849.32
612.02	1662.95
612.21	1804.26
612.40	1658.85
612.59	1714.15
612.79	1673.19
612.98	1736.68
613.17	1804.26
613.36	1751.01
613.55	1810.40
613.74	1677.29
613.93	1712.10
614.13	1755.11
614.32	1708.01
614.51	1712.10
614.70	1722.34
614.89	1701.86
615.08	1722.34
615.28	2043.87
615.47	1662.95
615.66	1777.64
615.85	1738.73
616.04	1814.50
616.23	1693.67
616.42	1685.48
616.62	1748.97
616.81	1689.57
617.00	1720.29
617.19	1744.87
617.38	1685.48
617.57	1740.77
617.76	1773.54
617.95	1722.34
618.15	1740.77
618.34	1767.40
618.53	1671.14
618.72	1798.12
618.91	1796.07
619.10	1787.88
619.29	1796.07
619.48	1730.53
619.68	1685.48
619.87	1726.44
620.06	1595.37
620.25	1683.43
620.44	1763.30
620.63	1695.72
620.82	1714.15
621.01	1722.34
621.20	1728.49
621.39	1740.77
621.59	1779.68
621.78	1722.34
621.97	1744.87
622.16	1738.73
622.35	1628.14
622.54	1820.64
622.73	1839.08
622.92	1689.57
623.11	1748.97
623.30	1638.38
623.49	1742.82
623.68	1755.11
623.88	1804.26
624.07	1648.61
624.26	1675.24
624.45	1708.01
624.64	1562.60
624.83	1779.68
625.02	1634.28
625.21	1755.11
625.40	1734.63
625.59	1771.49
625.78	1701.86
625.97	1783.78
626.16	1794.02
626.35	1783.78
626.54	1726.44
626.74	1763.30
626.93	1708.01
627.12	1697.77
627.31	1857.51
627.50	1665.00
627.69	1697.77
627.88	1652.71
628.07	1654.76
628.26	1748.97
628.45	1656.81
628.64	1640.42
628.83	1744.87
629.02	1617.90
629.21	1753.06
629.40	1783.78
629.59	1660.90
629.78	1724.39
629.97	1726.44
630.16	1755.11
630.35	1701.86
630.54	1673.19
630.73	1683.43
630.92	1699.81
631.11	1693.67
631.30	1673.19
631.49	1763.30
631.68	1687.53
631.87	1738.73
632.06	1708.01
632.25	1900.52
632.44	1691.62
632.63	1730.53
632.82	1730.53
633.01	1548.26
633.20	1724.39
633.39	1658.85
633.58	1662.95
633.77	1722.34
633.96	1705.96
634.15	1730.53
634.34	1740.77
634.53	1728.49
634.72	1687.53
634.91	1636.33
635.10	1699.81
635.29	1773.54
635.48	1738.73
635.67	1644.52
635.86	1673.19
636.05	1785.83
636.24	1701.86
636.43	1783.78
636.62	1773.54
636.81	1613.80
637.00	1689.57
637.19	1738.73
637.38	1771.49
637.57	1667.05
637.76	1714.15
637.95	1736.68
638.14	1699.81
638.33	1777.64
638.52	1714.15
638.71	1693.67
638.89	1660.90
639.08	1857.51
639.27	1732.58
639.46	1665.00
639.65	1822.69
639.84	1669.09
640.03	1779.68
640.22	1714.15
640.41	1845.22
640.60	1701.86
640.79	1769.44
640.98	1734.63
641.17	1644.52
641.36	1755.11
641.55	1708.01
641.74	1621.99
641.92	1755.11
642.11	1748.97
642.30	1665.00
642.49	1658.85
642.68	1669.09
642.87	1744.87
643.06	1730.53
643.25	1630.18
643.44	1662.95
643.63	1708.01
643.82	1728.49
644.00	1671.14
644.19	1714.15
644.38	1634.28
644.57	1708.01
644.76	1689.57
644.95	1673.19
645.14	1767.40
645.33	1730.53
645.52	1703.91
645.71	1679.33
645.89	1656.81
646.08	1718.25
646.27	1699.81
646.46	1820.64
646.65	1642.47
646.84	1767.40
647.03	1662.95
647.22	1869.80
647.40	1728.49
647.59	1617.90
647.78	1615.85
647.97	1667.05
648.16	1691.62
648.35	1796.07
648.54	1744.87
648.73	1708.01
648.91	1789.92
649.10	1714.15
649.29	1617.90
649.48	1710.05
649.67	1765.35
649.86	1740.77
650.05	1716.20
650.23	1849.32
650.42	1632.23
650.61	1718.25
650.80	1710.05
650.99	1882.08
651.18	1800.16
651.36	1773.54
651.55	1665.00
651.74	1720.29
651.93	1736.68
652.12	1759.21
652.31	1710.05
652.49	1681.38
652.68	1644.52
652.87	1822.69
653.06	1728.49
653.25	1779.68
653.44	1781.73
653.62	1851.36
653.81	1689.57
654.00	1710.05
654.19	1773.54
654.38	1888.23
654.56	1781.73
654.75	1705.96
654.94	1726.44
655.13	1728.49
655.32	1695.72
655.51	1714.15
655.69	1703.91
655.88	1796.07
656.07	1699.81
656.26	1757.16
656.45	1628.14
656.63	1830.88
656.82	1660.90
657.01	1720.29
657.20	1683.43
657.38	1916.90
657.57	1675.24
657.76	1597.42
657.95	1742.82
658.14	1693.67
658.32	1708.01
658.51	1667.05
658.70	1644.52
658.89	1732.58
659.08	1593.32
659.26	1867.75
659.45	1656.81
659.64	1683.43
659.83	1714.15
660.01	1937.38
660.20	1658.85
660.39	1775.59
660.58	1685.48
660.76	1777.64
660.95	1654.76
661.14	1675.24
661.33	1632.23
661.51	1644.52
661.70	1695.72
661.89	1705.96
662.08	1710.05
662.26	1626.09
662.45	1597.42
662.64	1818.60
662.83	1753.06
663.01	1665.00
663.20	1722.34
663.39	1812.45
663.58	1679.33
663.76	1740.77
663.95	1791.97
664.14	1634.28
664.32	1744.87
664.51	1619.94
664.70	1642.47
664.89	1740.77
665.07	1699.81
665.26	1748.97
665.45	1621.99
665.64	1761.25
665.82	1726.44
666.01	1771.49
666.20	1677.29
666.38	1824.74
666.57	1785.83
666.76	2199.52
666.95	4415.42
667.13	10649.44
667.32	15640.34
667.51	17927.92
667.69	19250.91
667.88	18280.17
668.07	12539.71
668.25	9631.60
668.44	8247.17
668.63	7540.62
668.81	7010.20
669.00	6387.61
669.19	5732.26
669.38	5154.74
669.56	4556.73
669.75	4040.64
669.94	3422.16
670.12	2918.36
670.31	2658.26
670.50	2256.86
670.68	1992.67
670.87	1877.99
671.06	1851.36
671.24	1716.20
671.43	1808.36
671.62	1726.44
671.80	1724.39
671.99	1787.88
672.18	1626.09
672.36	1658.85
672.55	1728.49
672.74	1798.12
672.92	1683.43
673.11	1701.86
673.29	1640.42
673.48	1798.12
673.67	1736.68
673.85	1779.68
674.04	1734.63
674.23	1798.12
674.41	1859.56
674.60	1621.99
674.79	1636.33
674.97	1703.91
675.16	1748.97
675.34	1744.87
675.53	1685.48
675.72	1669.09
675.90	1798.12
676.09	1656.81
676.28	1730.53
676.46	1621.99
676.65	1779.68
676.83	1685.48
677.02	1648.61
677.21	1755.11
677.39	1716.20
677.58	1697.77
677.77	1628.14
677.95	1677.29
678.14	1697.77
678.32	1703.91
678.51	1705.96
678.70	1804.26
678.88	1716.20
679.07	1742.82
679.25	1669.09
679.44	1697.77
679.63	1658.85
679.81	1728.49
680.00	1800.16
680.18	1724.39
680.37	1773.54
680.55	1781.73
680.74	1603.56
680.93	1587.18
681.11	1705.96
681.30	1712.10
681.48	1808.36
681.67	1691.62
681.85	1705.96
682.04	1656.81
682.23	1779.68
682.41	1730.53
682.60	1742.82
682.78	1714.15
682.97	1673.19
683.15	1753.06
683.34	1656.81
683.53	1785.83
683.71	1613.80
683.90	1875.94
684.08	1742.82
684.27	1697.77
684.45	1681.38
684.64	1775.59
684.82	1730.53
685.01	1671.14
685.19	1720.29
685.38	1824.74
685.57	1671.14
685.75	1703.91
685.94	1714.15
686.12	1621.99
686.31	1677.29
686.49	1812.45
686.68	1617.90
686.86	1738.73
687.05	1720.29
687.23	1851.36
687.42	1648.61
687.60	1611.75
687.79	1728.49
687.97	1791.97
688.16	1742.82
688.34	1816.55
688.53	1679.33
688.71	1714.15
688.90	1779.68
689.08	1671.14
689.27	1609.70
689.45	1744.87
689.64	1703.91
689.82	1685.48
690.01	1714.15
690.19	1681.38
690.38	1609.70
690.56	1798.12
690.75	1683.43
690.93	1630.18
691.12	1617.90
691.30	1665.00
691.49	1675.24
691.67	1697.77
691.86	1789.92
692.04	1609.70
692.23	1603.56
692.41	1652.71
692.60	1828.84
692.78	1779.68
692.97	1687.53
693.15	1761.25
693.34	1794.02
693.52	1785.83
693.71	1652.71
693.89	1720.29
694.08	1656.81
694.26	1742.82
694.44	1753.06
694.63	1785.83
694.81	1673.19
695.00	1638.38
695.18	1726.44
695.37	1791.97
695.55	1755.11
695.74	1691.62
695.92	1652.71
696.10	1822.69
696.29	1691.62
696.47	1656.81
696.66	1609.70
696.84	1566.70
697.03	1681.38
697.21	1841.12
697.40	2312.16
697.58	1824.74
697.76	1701.86
697.95	1669.09
698.13	1697.77
698.32	1714.15
698.50	1779.68
698.68	1619.94
698.87	1718.25
699.05	1771.49
699.24	1699.81
699.42	1681.38
699.61	1701.86
699.79	1742.82
699.97	1673.19
700.16	1650.66
700.34	1689.57
700.53	1675.24
700.71	1714.15
700.89	1779.68
701.08	1669.09
701.26	1775.59
701.45	2090.98
701.63	1648.61
701.81	1660.90
702.00	1656.81
702.18	1675.24
702.37	1648.61
702.55	1662.95
702.73	1732.58
702.92	1658.85
703.10	1718.25
703.28	1718.25
703.47	1630.18
703.65	1738.73
703.84	1705.96
704.02	1662.95
704.20	1822.69
704.39	1730.53
704.57	1705.96
704.75	1742.82
704.94	1724.39
705.12	1701.86
705.30	1767.40
705.49	2201.57
705.67	4450.24
705.86	9551.73
706.04	12963.64
706.22	14612.26
706.41	15673.10
706.59	14112.55
706.77	9631.60
706.96	7552.91
707.14	6627.23
707.32	6113.19
707.51	5707.69
707.69	4923.32
707.87	4302.78
708.06	3518.41
708.24	2916.31
708.42	2445.27
708.61	2346.97
708.79	1925.09
708.97	1902.56
709.16	1808.36
709.34	1740.77
709.52	1671.14
709.71	1755.11
709.89	1775.59
710.07	1689.57
710.26	1656.81
710.44	1730.53
710.62	1751.01
710.80	1732.58
710.99	1685.48
711.17	1800.16
711.35	1697.77
711.54	1603.56
711.72	1720.29
711.90	1722.34
712.09	1753.06
712.27	1798.12
712.45	1785.83
712.63	1630.18
712.82	1759.21
713.00	1683.43
713.18	1734.63
713.37	1726.44
713.55	1744.87
713.73	1683.43
713.91	1718.25
714.10	1722.34
714.28	1695.72
714.46	1728.49
714.65	1728.49
714.83	1724.39
715.01	1691.62
715.19	1695.72
715.38	1679.33
715.56	1718.25
715.74	1697.77
715.92	1585.13
716.11	1783.78
716.29	1630.18
716.47	1714.15
716.65	1695.72
716.84	1646.57
717.02	1759.21
717.20	1642.47
717.38	1644.52
717.57	1703.91
717.75	1722.34
717.93	1665.00
718.11	1789.92
718.30	1617.90
718.48	1730.53
718.66	1712.10
718.84	1708.01
719.03	1601.51
719.21	1665.00
719.39	1822.69
719.57	1710.05
719.75	1650.66
719.94	1605.61
720.12	1673.19
720.30	1724.39
720.48	1728.49
720.67	1667.05
720.85	1689.57
721.03	1693.67
721.21	1677.29
721.39	1736.68
721.58	1724.39
721.76	1699.81
721.94	1671.14
722.12	1628.14
722.30	1775.59
722.49	1693.67
722.67	1669.09
722.85	1765.35
723.03	1697.77
723.21	1685.48
723.40	1746.92
723.58	1738.73
723.76	1755.11
723.94	1783.78
724.12	1648.61
724.30	1746.92
724.49	1712.10
724.67	1644.52
724.85	1779.68
725.03	1683.43
725.21	1724.39
725.40	1802.21
725.58	1734.63
725.76	1828.84
725.94	1734.63
726.12	1724.39
726.30	1691.62
726.49	1650.66
726.67	1685.48
726.85	1632.23
727.03	1781.73
727.21	2166.75
727.39	2947.03
727.57	3782.60
727.76	4118.47
727.94	4485.05
728.12	4411.32
728.30	3784.65
728.48	3067.86
728.66	2830.29
728.84	2551.77
729.03	2322.40
729.21	2097.12
729.39	1933.28
729.57	1777.64
729.75	1853.41
729.93	1812.45
730.11	1693.67
730.30	1615.85
730.48	1697.77
730.66	1808.36
730.84	1753.06
731.02	1669.09
731.20	1671.14
731.38	1732.58
731.56	1685.48
731.74	1703.91
731.93	1699.81
732.11	1789.92
732.29	1689.57
732.47	1773.54
732.65	1708.01
732.83	1785.83
733.01	1777.64
733.19	1658.85
733.37	1748.97
733.56	1722.34
733.74	1714.15
733.92	1730.53
734.10	1675.24
734.28	1753.06
734.46	1632.23
734.64	1673.19
734.82	1730.53
735.00	1748.97
735.18	1685.48
735.36	1732.58
735.54	1667.05
735.73	1734.63
735.91	1814.50
736.09	1738.73
736.27	1718.25
736.45	1785.83
736.63	1624.04
736.81	1677.29
736.99	1734.63
737.17	1832.93
737.35	1615.85
737.53	1646.57
737.71	1730.53
737.89	1734.63
738.07	1640.42
738.25	1615.85
738.43	1658.85
738.61	1644.52
738.80	1634.28
738.98	1630.18
739.16	1667.05
739.34	1642.47
739.52	1808.36
739.70	1591.27
739.88	1708.01
740.06	1789.92
740.24	1652.71
740.42	1820.64
740.60	1705.96
740.78	1667.05
740.96	1656.81
741.14	1628.14
741.32	1693.67
741.50	1587.18
741.68	1800.16
741.86	1847.27
742.04	1683.43
742.22	1611.75
742.40	1726.44
742.58	1763.30
742.76	1578.98
742.94	1744.87
743.12	1634.28
743.30	1720.29
743.48	1761.25
743.66	1626.09
743.84	1665.00
744.02	1642.47
744.20	1656.81
744.38	1658.85
744.56	1613.80
744.74	1791.97
744.92	1726.44
745.10	1771.49
745.28	1689.57
745.46	1818.60
745.64	1695.72
745.82	1806.31
746.00	1775.59
746.18	1685.48
746.36	1656.81
746.54	1689.57
746.72	1701.86
746.90	1650.66
747.08	1775.59
747.26	1652.71
747.44	1679.33
747.62	1677.29
747.80	1730.53
747.98	1761.25
748.15	1669.09
748.33	1779.68
748.51	1675.24
748.69	1726.44
748.87	1699.81
749.05	1806.31
749.23	1705.96
749.41	1697.77
749.59	1660.90
749.77	1753.06
749.95	1642.47
750.13	1679.33
750.31	1765.35
750.49	1728.49
750.67	1748.97
750.85	1781.73
751.03	1761.25
751.20	1773.54
751.38	1732.58
751.56	1662.95
751.74	1708.01
751.92	1656.81
752.10	1654.76
752.28	1769.44
752.46	1730.53
752.64	1669.09
752.82	1730.53
753.00	1812.45
753.18	1708.01
753.35	1654.76
753.53	1697.77
753.71	1636.33
753.89	1746.92
754.07	1583.08
754.25	1705.96
754.43	1726.44
754.61	1640.42
754.79	1744.87
754.97	1681.38
755.14	1699.81
755.32	1654.76
755.50	1710.05
755.68	1767.40
755.86	1595.37
756.04	1689.57
756.22	1552.36
756.40	1751.01
756.57	1787.88
756.75	1687.53
756.93	1740.77
757.11	1714.15
757.29	1617.90
757.47	1660.90
757.65	1558.50
757.82	1570.79
758.00	1669.09
758.18	1636.33
758.36	1617.90
758.54	1808.36
758.72	1583.08
758.90	1755.11
759.07	1693.67
759.25	1630.18
759.43	1708.01
759.61	1658.85
759.79	2197.47
759.97	1759.21
760.15	1705.96
760.32	1617.90
760.50	1712.10
760.68	1753.06
760.86	1638.38
761.04	1855.46
761.22	1779.68
761.39	1734.63
761.57	1789.92
761.75	1699.81
761.93	1742.82
762.11	1669.09
762.28	1697.77
762.46	1677.29
762.64	1796.07
762.82	1628.14
763.00	1681.38
763.18	1779.68
763.35	1609.70
763.53	1712.10
763.71	1685.48
763.89	1738.73
764.07	1767.40
764.24	1695.72
764.42	1732.58
764.60	1697.77
764.78	1710.05
764.96	1748.97
765.13	1734.63
765.31	1732.58
765.49	1746.92
765.67	1689.57
765.84	1679.33
766.02	1767.40
766.20	1677.29
766.38	1724.39
766.56	1757.16
766.73	1726.44
766.91	1632.23
767.09	1650.66
767.27	1679.33
767.44	1730.53
767.62	1693.67
767.80	1630.18
767.98	1687.53
768.15	1708.01
768.33	1759.21
768.51	1683.43
768.69	1730.53
768.87	1695.72
769.04	1712.10
769.22	1849.32
769.40	1767.40
769.58	1877.99
769.75	1761.25
769.93	1732.58
770.11	1710.05
770.28	1642.47
770.46	1773.54
770.64	1765.35
770.82	1718.25
770.99	1650.66
771.17	1722.34
771.35	1677.29
771.53	1642.47
771.70	1673.19
771.88	1701.86
772.06	1728.49
772.23	1687.53
772.41	1755.11
772.59	1646.57
772.77	1671.14
772.94	1673.19
773.12	1685.48
773.30	1703.91
773.47	1777.64
773.65	1574.89
773.83	1773.54
774.01	1730.53
774.18	1572.84
774.36	1787.88
774.54	1619.94
774.71	1695.72
774.89	1619.94
775.07	1632.23
775.24	1658.85
775.42	1599.46
775.60	1814.50
775.78	1619.94
775.95	1617.90
776.13	1636.33
776.31	1542.12
776.48	1619.94
776.66	1789.92
776.84	1646.57
777.01	1615.85
777.19	1712.10
777.37	1673.19
777.54	1730.53
777.72	1802.21
777.90	1710.05
778.07	1658.85
778.25	1855.46
778.43	1677.29
778.60	1617.90
778.78	1746.92
778.96	1714.15
779.13	1681.38
779.31	1820.64
779.49	1699.81
779.66	1716.20
779.84	1705.96
780.01	1746.92
780.19	1660.90
780.37	1769.44
780.54	1712.10
780.72	1660.90
780.90	1665.00
781.07	1705.96
781.25	1665.00
781.43	1773.54
781.60	1648.61
781.78	1775.59
781.95	1740.77
782.13	1617.90
782.31	1689.57
782.48	1599.46
782.66	1617.90
782.83	1783.78
783.01	1763.30
783.19	1671.14
783.36	1705.96
783.54	1544.17
783.72	1689.57
783.89	1675.24
784.07	1783.78
784.24	1748.97
784.42	1787.88
784.60	1740.77
784.77	1732.58
784.95	1601.51
785.12	1708.01
785.30	1734.63
785.47	1683.43
785.65	1636.33
785.83	1765.35
786.00	1650.66
786.18	1771.49
786.35	1576.94
786.53	1667.05
786.71	1761.25
786.88	1691.62
787.06	1685.48
787.23	1720.29
787.41	1693.67
787.58	1673.19
787.76	1574.89
787.94	1652.71
788.11	1710.05
788.29	1675.24
788.46	1693.67
788.64	1660.90
788.81	1697.77
788.99	1673.19
789.16	1701.86
789.34	1697.77
789.52	1636.33
789.69	1691.62
789.87	1677.29
790.04	1781.73
790.22	1681.38
790.39	1861.60
790.57	1681.38
790.74	1699.81
790.92	1734.63
791.09	1656.81
791.27	1669.09
791.44	1787.88
791.62	1751.01
791.79	1722.34
791.97	1675.24
792.15	1857.51
792.32	1785.83
792.50	1701.86
792.67	1769.44
792.85	1800.16
793.02	1669.09
793.20	1718.25
793.37	1642.47
793.55	1681.38
793.72	1628.14
793.90	1732.58
794.07	1652.71
794.25	1673.19
794.42	1650.66
794.60	1628.14
794.77	1740.77
794.95	1744.87
795.12	1759.21
795.30	1705.96
795.47	1574.89
795.65	1902.56
795.82	1783.78
796.00	1779.68
796.17	1761.25
796.34	1683.43
796.52	1787.88
796.69	1761.25
796.87	1800.16
797.04	1701.86
797.22	1740.77
797.39	1734.63
797.57	1740.77
797.74	1648.61
797.92	1730.53
798.09	1665.00
798.27	1638.38
798.44	1744.87
798.62	1679.33
798.79	1701.86
798.96	1738.73
799.14	1677.29
799.31	1855.46
799.49	1652.71
799.66	1685.48
799.84	1667.05
800.01	1685.48
800.19	1699.81
800.36	1611.75
800.53	1730.53
800.71	1644.52
800.88	1847.27
801.06	1656.81
801.23	1693.67
801.41	1695.72
801.58	1681.38
801.75	1695.72
801.93	1701.86
802.10	1728.49
802.28	1710.05
802.45	1675.24
802.63	1849.32
802.80	1734.63
802.97	1660.90
803.15	1687.53
803.32	1677.29
803.50	1656.81
803.67	1638.38
803.84	1642.47
804.02	1761.25
804.19	1615.85
804.37	1589.22
804.54	1619.94
804.71	1611.75
804.89	1703.91
805.06	1624.04
805.24	1601.51
805.41	1656.81
805.58	1630.18
805.76	1875.94
805.93	1716.20
806.10	1775.59
806.28	1677.29
806.45	1691.62
806.63	1675.24
806.80	1628.14
806.97	1681.38
807.15	1667.05
807.32	1755.11
807.49	1695.72
807.67	1611.75
807.84	1716.20
808.01	1603.56
808.19	1853.41
808.36	1781.73
808.54	1595.37
808.71	1679.33
808.88	1732.58
809.06	1769.44
809.23	1734.63
809.40	1648.61
809.58	1761.25
809.75	1626.09
809.92	1646.57
810.10	1738.73
810.27	1685.48
810.44	1710.05
810.62	1855.46
810.79	1736.68
810.96	1634.28
811.14	1734.63
811.31	1644.52
811.48	1730.53
811.66	1744.87
811.83	1767.40
812.00	1755.11
812.18	1775.59
812.35	1818.60
812.52	1683.43
812.69	1695.72
812.87	1728.49
813.04	1634.28
813.21	1626.09
813.39	1669.09
813.56	1617.90
813.73	1736.68
813.91	1640.42
814.08	1748.97
814.25	1632.23
814.42	1599.46
814.60	1677.29
814.77	1677.29
814.94	1736.68
815.12	1714.15
815.29	1720.29
815.46	1671.14
815.63	1654.76
815.81	1685.48
815.98	1624.04
816.15	1714.15
816.33	1742.82
816.50	1652.71
816.67	1687.53
816.84	1607.66
817.02	1630.18
817.19	1720.29
817.36	1699.81
817.53	1714.15
817.71	1714.15
817.88	1751.01
818.05	1759.21
818.22	1691.62
818.40	1789.92
818.57	1607.66
818.74	1755.11
818.91	1769.44
819.09	1740.77
819.26	1767.40
819.43	1611.75
819.60	1675.24
819.78	1777.64
819.95	1751.01
820.12	1662.95
820.29	1757.16
820.47	1714.15
820.64	1642.47
820.81	1607.66
820.98	1650.66
821.15	1685.48
821.33	1656.81
821.50	1597.42
821.67	1779.68
821.84	1636.33
822.02	1695.72
822.19	1724.39
822.36	1671.14
822.53	1615.85
822.70	1673.19
822.88	1681.38
823.05	1773.54
823.22	1677.29
823.39	1740.77
823.56	1677.29
823.74	1865.70
823.91	1617.90
824.08	1665.00
824.25	1650.66
824.42	1814.50
824.60	1595.37
824.77	1712.10
824.94	1665.00
825.11	1761.25
825.28	1593.32
825.45	1708.01
825.63	1794.02
825.80	1615.85
825.97	1658.85
826.14	1751.01
826.31	1677.29
826.48	1689.57
826.66	1710.05
826.83	1730.53
827.00	1730.53
827.17	1658.85
827.34	1646.57
827.51	1660.90
827.69	1654.76
827.86	1691.62
828.03	1671.14
828.20	1765.35
828.37	1650.66
828.54	1755.11
828.71	1605.61
828.89	1779.68
829.06	1753.06
829.23	1775.59
829.40	1689.57
829.57	1652.71
829.74	1681.38
829.91	1689.57
830.09	1665.00
830.26	1667.05
830.43	1806.31
830.60	1751.01
830.77	1740.77
830.94	1755.11
831.11	1710.05
831.28	1658.85
831.46	1708.01
831.63	1697.77
831.80	1726.44
831.97	1722.34
832.14	1701.86
832.31	1722.34
832.48	1738.73
832.65	1751.01
832.82	1691.62
832.99	1712.10
833.17	1632.23
833.34	1781.73
833.51	1665.00
833.68	1595.37
833.85	1685.48
834.02	1701.86
834.19	1669.09
834.36	1589.22
834.53	1779.68
834.70	1794.02
834.87	1785.83
835.04	1726.44
835.22	1671.14
835.39	1789.92
835.56	1601.51
835.73	1667.05
835.90	1699.81
836.07	1642.47
836.24	1775.59
836.41	1636.33
836.58	1656.81
836.75	1753.06
836.92	1667.05
837.09	1689.57
837.26	1673.19
837.43	1722.34
837.60	1718.25
837.77	1697.77
837.94	1734.63
838.12	1738.73
838.29	1738.73
838.46	1589.22
838.63	1636.33
838.80	1855.46
838.97	1767.40
839.14	1683.43
839.31	1679.33
839.48	1656.81
839.65	1665.00
839.82	1740.77
839.99	1632.23
840.16	1691.62
840.33	1597.42
840.50	1722.34
840.67	1646.57
840.84	1540.07
841.01	1720.29
841.18	1648.61
841.35	1644.52
841.52	1791.97
841.69	1794.02
841.86	1720.29
842.03	1710.05
842.20	1738.73
842.37	1681.38
842.54	1687.53
842.71	1679.33
842.88	1693.67
843.05	1798.12
843.22	1669.09
843.39	1781.73
843.56	1691.62
843.73	1679.33
843.90	1712.10
844.07	1703.91
844.24	1736.68
844.41	1748.97
844.58	1710.05
844.75	1705.96
844.92	1703.91
845.09	1720.29
845.26	1619.94
845.43	1722.34
845.60	1738.73
845.77	1628.14
845.94	1712.10
846.10	1693.67
846.27	1624.04
846.44	1687.53
846.61	1705.96
846.78	1718.25
846.95	1773.54
847.12	1673.19
847.29	1669.09
847.46	1638.38
847.63	1765.35
847.80	1605.61
847.97	1687.53
848.14	1736.68
848.31	1726.44
848.48	1583.08
848.65	1765.35
848.82	1658.85
848.98	1812.45
849.15	1697.77
849.32	1783.78
849.49	1708.01
849.66	1673.19
849.83	1697.77
850.00	1677.29
850.17	1755.11
850.34	1632.23
850.51	1710.05
850.68	1660.90
850.85	1886.18
851.01	1697.77
851.18	1714.15
851.35	1687.53
851.52	1730.53
851.69	1812.45
851.86	1603.56
852.03	1626.09
852.20	1654.76
852.37	1615.85
852.53	1624.04
852.70	1671.14
852.87	1603.56
853.04	1773.54
853.21	1669.09
853.38	1726.44
853.55	1740.77
853.72	1789.92
853.89	1634.28
854.05	1689.57
854.22	1695.72
854.39	1675.24
854.56	1710.05
854.73	1714.15
854.90	1650.66
855.07	1726.44
855.23	1652.71
855.40	1740.77
855.57	1624.04
855.74	1621.99
855.91	1923.04
856.08	1626.09
856.25	1658.85
856.41	1691.62
856.58	1705.96
856.75	1746.92
856.92	1626.09
857.09	1777.64
857.26	1628.14
857.42	1689.57
857.59	1683.43
857.76	1681.38
857.93	1683.43
858.10	1744.87
858.27	1546.22
858.43	1740.77
858.60	1697.77
858.77	1576.94
858.94	1669.09
859.11	1742.82
859.27	1671.14
859.44	1738.73
859.61	1869.80
859.78	1695.72
859.95	1691.62
860.12	1703.91
860.28	1753.06
860.45	1783.78
860.62	1675.24
860.79	1718.25
860.95	1697.77
861.12	1617.90
861.29	1638.38
861.46	1685.48
861.63	1626.09
861.79	1722.34
861.96	1703.91
862.13	1675.24
862.30	1794.02
862.47	1658.85
862.63	1669.09
862.80	1796.07
862.97	1720.29
863.14	1710.05
863.30	1667.05
863.47	1589.22
863.64	1755.11
863.81	1675.24
863.97	1611.75
864.14	1689.57
864.31	1644.52
864.48	1667.05
864.65	1703.91
864.81	1777.64
864.98	1703.91
865.15	1724.39
865.32	1751.01
865.48	1751.01
865.65	1689.57
865.82	1683.43
865.98	1720.29
866.15	1718.25
866.32	1599.46
866.49	1695.72
866.65	1771.49
866.82	1632.23
866.99	1671.14
867.16	1660.90
867.32	1662.95
867.49	1658.85
867.66	1720.29
867.83	1677.29
867.99	1687.53
868.16	1693.67
868.33	1599.46
868.49	1697.77
868.66	1673.19
868.83	1759.21
868.99	1673.19
869.16	1634.28
869.33	1804.26
869.50	1730.53
869.66	1724.39
869.83	1708.01
870.00	1669.09
870.16	1660.90
870.33	1634.28
870.50	1738.73
870.66	1671.14
870.83	1767.40
871.00	1708.01
871.17	1712.10
871.33	1654.76
871.50	1712.10
871.67	1738.73
871.83	1738.73
872.00	1685.48
872.17	1675.24
872.33	1736.68
872.50	1796.07
872.67	1648.61
872.83	1783.78
873.00	1675.24
873.17	1730.53
873.33	1722.34
873.50	1726.44
873.67	1646.57
873.83	1675.24
874.00	1697.77
874.16	1734.63
874.33	1746.92
874.50	1615.85
874.66	1783.78
874.83	1648.61
875.00	1787.88
875.16	1822.69
875.33	1742.82
875.50	1591.27
875.66	1558.50
875.83	1667.05
875.99	1757.16
876.16	1615.85
876.33	1632.23
876.49	1675.24
876.66	1748.97
876.83	1693.67
876.99	1603.56
877.16	1697.77
877.32	1679.33
877.49	1636.33
877.66	1746.92
877.82	1806.31
877.99	1634.28
878.15	1691.62
878.32	1619.94
878.49	1738.73
878.65	1660.90
878.82	1753.06
878.98	1640.42
879.15	1730.53
879.32	1796.07
879.48	1687.53
879.65	1755.11
879.81	1691.62
879.98	1644.52
880.15	1714.15
880.31	1791.97
880.48	1609.70
880.64	1634.28
880.81	1738.73
880.97	1763.30
881.14	1841.12
881.31	1656.81
881.47	1785.83
881.64	1751.01
881.80	1673.19
881.97	1740.77
882.13	1808.36
882.30	1650.66
882.47	1677.29
882.63	1689.57
882.80	1652.71
882.96	1724.39
883.13	1820.64
883.29	1685.48
883.46	1765.35
883.62	1796.07
883.79	1759.21
883.95	1718.25
884.12	1648.61
884.29	1832.93
884.45	1710.05
884.62	1746.92
884.78	1589.22
884.95	1826.79
885.11	1632.23
885.28	1787.88
885.44	1671.14
885.61	1695.72
885.77	1791.97
885.94	1757.16
886.10	1648.61
886.27	1765.35
886.43	1736.68
886.60	1771.49
886.76	1679.33
886.93	1685.48
887.09	1720.29
887.26	1640.42
887.42	1691.62
887.59	1759.21
887.75	1847.27
887.92	1759.21
888.08	1759.21
888.25	1726.44
888.41	1732.58
888.58	1638.38
888.74	1679.33
888.91	1648.61
>>>>>End Processed Spectral Data<<<<<
