SpectraSuite Data File
++++++++++++++++++++++++++++++++++++
Date: Mon Jun 06 14:01:57 CEST 2016
User: root
Dark Spectrum Present: No
Reference Spectrum Present: No
Number of Sampled Component Spectra: 1
Spectrometers: USB4C02835
Integration Time (usec): 100000 (USB4C02835)
Spectra Averaged: 1 (USB4C02835)
Boxcar Smoothing: 0 (USB4C02835)
Correct for Electrical Dark: No (USB4C02835)
Strobe/Lamp Enabled: No (USB4C02835)
Correct for Detector Non-linearity: No (USB4C02835)
Correct for Stray Light: No (USB4C02835)
Number of Pixels in Processed Spectrum: 3648
>>>>>Begin Processed Spectral Data<<<<<
177.47	1523.69
177.69	1523.69
177.91	1523.69
178.13	1476.59
178.36	1445.87
178.58	1701.86
178.80	1730.53
179.02	1609.70
179.24	1701.86
179.46	1726.44
179.68	1699.81
179.90	1699.81
180.13	1701.86
180.35	1652.71
180.57	1648.61
180.79	1720.29
181.01	1710.05
181.23	1746.92
181.45	1785.83
181.67	1718.25
181.90	1773.54
182.12	1660.90
182.34	1675.24
182.56	1658.85
182.78	1667.05
183.00	1751.01
183.22	1724.39
183.44	1581.03
183.66	1828.84
183.89	1775.59
184.11	1748.97
184.33	1689.57
184.55	1710.05
184.77	1648.61
184.99	1722.34
185.21	1710.05
185.43	1849.32
185.65	1624.04
185.87	1701.86
186.10	1806.31
186.32	1843.17
186.54	1728.49
186.76	1765.35
186.98	1744.87
187.20	1722.34
187.42	1701.86
187.64	1724.39
187.86	1671.14
188.08	1775.59
188.30	1677.29
188.52	1642.47
188.75	1705.96
188.97	1763.30
189.19	1681.38
189.41	1722.34
189.63	1730.53
189.85	1710.05
190.07	1544.17
190.29	1714.15
190.51	1763.30
190.73	1601.51
190.95	1767.40
191.17	1736.68
191.39	1634.28
191.61	1656.81
191.84	1740.77
192.06	1691.62
192.28	1712.10
192.50	1746.92
192.72	1796.07
192.94	1681.38
193.16	1761.25
193.38	1716.20
193.60	1609.70
193.82	1685.48
194.04	1779.68
194.26	1691.62
194.48	1757.16
194.70	1689.57
194.92	1679.33
195.14	1689.57
195.36	1671.14
195.58	1681.38
195.80	1710.05
196.02	1669.09
196.24	1689.57
196.46	1736.68
196.69	1681.38
196.91	1789.92
197.13	1658.85
197.35	1628.14
197.57	1703.91
197.79	1722.34
198.01	1755.11
198.23	1665.00
198.45	1744.87
198.67	1636.33
198.89	1714.15
199.11	1712.10
199.33	1679.33
199.55	1583.08
199.77	1716.20
199.99	1783.78
200.21	1710.05
200.43	1683.43
200.65	1665.00
200.87	1675.24
201.09	1742.82
201.31	1683.43
201.53	1726.44
201.75	1726.44
201.97	1769.44
202.19	1695.72
202.41	1703.91
202.63	1855.46
202.85	1753.06
203.07	1783.78
203.29	1695.72
203.51	1634.28
203.73	1740.77
203.95	1867.75
204.17	1673.19
204.39	1732.58
204.61	1734.63
204.83	1634.28
205.05	1724.39
205.27	1785.83
205.49	1806.31
205.71	1738.73
205.93	1681.38
206.15	1681.38
206.37	1783.78
206.59	1656.81
206.81	1648.61
207.03	1665.00
207.25	1671.14
207.47	1759.21
207.69	1742.82
207.91	1771.49
208.13	1712.10
208.34	1654.76
208.56	1583.08
208.78	1804.26
209.00	1640.42
209.22	1693.67
209.44	1693.67
209.66	1742.82
209.88	1658.85
210.10	1712.10
210.32	1679.33
210.54	1767.40
210.76	1681.38
210.98	1773.54
211.20	1617.90
211.42	1703.91
211.64	1710.05
211.86	1722.34
212.08	1626.09
212.30	1712.10
212.52	1724.39
212.74	1697.77
212.96	1708.01
213.17	1732.58
213.39	1763.30
213.61	1738.73
213.83	1755.11
214.05	1593.32
214.27	1771.49
214.49	1638.38
214.71	1646.57
214.93	1794.02
215.15	1724.39
215.37	1744.87
215.59	1619.94
215.81	1638.38
216.03	1742.82
216.24	1695.72
216.46	1714.15
216.68	1742.82
216.90	1767.40
217.12	1720.29
217.34	1728.49
217.56	1730.53
217.78	1687.53
218.00	1757.16
218.22	1699.81
218.44	1708.01
218.66	1714.15
218.87	1789.92
219.09	1691.62
219.31	1865.70
219.53	1669.09
219.75	1570.79
219.97	1665.00
220.19	1759.21
220.41	1654.76
220.63	1812.45
220.85	1767.40
221.06	1734.63
221.28	1822.69
221.50	1796.07
221.72	1689.57
221.94	1695.72
222.16	1656.81
222.38	1787.88
222.60	1759.21
222.82	1638.38
223.03	1701.86
223.25	1642.47
223.47	1853.41
223.69	1837.03
223.91	1685.48
224.13	1691.62
224.35	1650.66
224.57	1726.44
224.78	1757.16
225.00	1665.00
225.22	1671.14
225.44	1691.62
225.66	1734.63
225.88	1728.49
226.10	1748.97
226.32	1744.87
226.53	1767.40
226.75	1716.20
226.97	1689.57
227.19	1685.48
227.41	1658.85
227.63	1746.92
227.85	1673.19
228.06	1665.00
228.28	1771.49
228.50	1695.72
228.72	1693.67
228.94	1701.86
229.16	1556.46
229.37	1570.79
229.59	1673.19
229.81	1722.34
230.03	1679.33
230.25	1601.51
230.47	1638.38
230.69	1667.05
230.90	1732.58
231.12	1626.09
231.34	1710.05
231.56	1751.01
231.78	1697.77
232.00	1662.95
232.21	1667.05
232.43	1667.05
232.65	1648.61
232.87	1691.62
233.09	1681.38
233.30	1626.09
233.52	1757.16
233.74	1683.43
233.96	1765.35
234.18	1662.95
234.40	1755.11
234.61	1755.11
234.83	1597.42
235.05	1613.80
235.27	1863.65
235.49	1783.78
235.70	1775.59
235.92	1783.78
236.14	1628.14
236.36	1857.51
236.58	1638.38
236.79	1757.16
237.01	1673.19
237.23	1626.09
237.45	1837.03
237.67	1644.52
237.88	1687.53
238.10	1757.16
238.32	1673.19
238.54	1787.88
238.76	1718.25
238.97	1638.38
239.19	1673.19
239.41	1802.21
239.63	1787.88
239.85	1718.25
240.06	1673.19
240.28	1687.53
240.50	1744.87
240.72	1746.92
240.93	1665.00
241.15	1767.40
241.37	1724.39
241.59	1755.11
241.81	1654.76
242.02	1734.63
242.24	1671.14
242.46	1708.01
242.68	1662.95
242.89	1755.11
243.11	1757.16
243.33	1728.49
243.55	1771.49
243.76	1722.34
243.98	1597.42
244.20	1787.88
244.42	1718.25
244.64	1689.57
244.85	1599.46
245.07	1656.81
245.29	1650.66
245.51	1660.90
245.72	1744.87
245.94	1705.96
246.16	1705.96
246.38	1732.58
246.59	1658.85
246.81	1646.57
247.03	1656.81
247.24	1566.70
247.46	1574.89
247.68	1634.28
247.90	1720.29
248.11	1656.81
248.33	1669.09
248.55	1724.39
248.77	1660.90
248.98	1763.30
249.20	1834.98
249.42	1671.14
249.64	1710.05
249.85	1681.38
250.07	1634.28
250.29	1693.67
250.50	1746.92
250.72	1605.61
250.94	1710.05
251.16	1900.52
251.37	1746.92
251.59	1679.33
251.81	1722.34
252.02	1789.92
252.24	1738.73
252.46	1771.49
252.68	1660.90
252.89	1667.05
253.11	1673.19
253.33	1767.40
253.54	1771.49
253.76	1609.70
253.98	1640.42
254.20	1634.28
254.41	1652.71
254.63	1697.77
254.85	1652.71
255.06	1646.57
255.28	1685.48
255.50	1748.97
255.71	1652.71
255.93	1589.22
256.15	1718.25
256.36	1683.43
256.58	1687.53
256.80	1720.29
257.02	1632.23
257.23	1660.90
257.45	1710.05
257.67	1765.35
257.88	1609.70
258.10	1789.92
258.32	1728.49
258.53	1703.91
258.75	1812.45
258.97	1669.09
259.18	1755.11
259.40	1742.82
259.62	1789.92
259.83	1787.88
260.05	1652.71
260.27	1898.47
260.48	1699.81
260.70	1509.35
260.92	1720.29
261.13	1699.81
261.35	1718.25
261.57	1679.33
261.78	1595.37
262.00	1587.18
262.22	1703.91
262.43	1789.92
262.65	1689.57
262.86	1730.53
263.08	1871.84
263.30	1720.29
263.51	1581.03
263.73	1701.86
263.95	1720.29
264.16	1632.23
264.38	1740.77
264.60	1748.97
264.81	1660.90
265.03	1753.06
265.25	1683.43
265.46	1695.72
265.68	1789.92
265.89	1732.58
266.11	1568.74
266.33	1705.96
266.54	1751.01
266.76	1716.20
266.98	1806.31
267.19	1787.88
267.41	1826.79
267.62	1646.57
267.84	1574.89
268.06	1728.49
268.27	1712.10
268.49	1673.19
268.70	1794.02
268.92	1728.49
269.14	1609.70
269.35	1634.28
269.57	1695.72
269.79	1781.73
270.00	1621.99
270.22	1748.97
270.43	1714.15
270.65	1628.14
270.87	1656.81
271.08	1761.25
271.30	1775.59
271.51	1640.42
271.73	1728.49
271.95	1832.93
272.16	1662.95
272.38	1738.73
272.59	1746.92
272.81	1656.81
273.02	1673.19
273.24	1746.92
273.46	1753.06
273.67	1730.53
273.89	1656.81
274.10	1708.01
274.32	1697.77
274.54	1767.40
274.75	1765.35
274.97	1697.77
275.18	1705.96
275.40	1771.49
275.61	1730.53
275.83	1714.15
276.05	1671.14
276.26	1656.81
276.48	1718.25
276.69	1669.09
276.91	1669.09
277.12	1802.21
277.34	1697.77
277.55	1742.82
277.77	1687.53
277.99	1656.81
278.20	1634.28
278.42	1593.32
278.63	1656.81
278.85	1701.86
279.06	1578.98
279.28	1845.22
279.49	1800.16
279.71	1722.34
279.93	1771.49
280.14	1671.14
280.36	1697.77
280.57	1820.64
280.79	1757.16
281.00	1693.67
281.22	1689.57
281.43	1796.07
281.65	1544.17
281.86	1640.42
282.08	1628.14
282.29	1804.26
282.51	1607.66
282.73	1665.00
282.94	1630.18
283.16	1714.15
283.37	1845.22
283.59	1763.30
283.80	1751.01
284.02	1656.81
284.23	1753.06
284.45	1734.63
284.66	1597.42
284.88	1665.00
285.09	1718.25
285.31	1773.54
285.52	1683.43
285.74	1603.56
285.95	1824.74
286.17	1708.01
286.38	1796.07
286.60	1679.33
286.81	1611.75
287.03	1662.95
287.24	1675.24
287.46	1759.21
287.67	1656.81
287.89	1834.98
288.10	1646.57
288.32	1693.67
288.53	1746.92
288.75	1771.49
288.96	1746.92
289.18	1718.25
289.39	1701.86
289.61	1789.92
289.82	1834.98
290.04	1771.49
290.25	1636.33
290.47	1697.77
290.68	1636.33
290.90	1757.16
291.11	1638.38
291.33	1722.34
291.54	1638.38
291.76	1615.85
291.97	1771.49
292.18	1748.97
292.40	1624.04
292.61	1665.00
292.83	1865.70
293.04	1765.35
293.26	1761.25
293.47	1763.30
293.69	1638.38
293.90	1701.86
294.12	1722.34
294.33	1718.25
294.55	1724.39
294.76	1808.36
294.97	1734.63
295.19	1839.08
295.40	1654.76
295.62	1730.53
295.83	1703.91
296.05	1701.86
296.26	1851.36
296.48	1632.23
296.69	1650.66
296.90	1673.19
297.12	1773.54
297.33	1748.97
297.55	1708.01
297.76	1730.53
297.98	1767.40
298.19	1679.33
298.41	1816.55
298.62	1652.71
298.83	1785.83
299.05	1724.39
299.26	1677.29
299.48	1652.71
299.69	1705.96
299.90	1806.31
300.12	1685.48
300.33	1763.30
300.55	1720.29
300.76	1710.05
300.98	1693.67
301.19	1681.38
301.40	1714.15
301.62	1646.57
301.83	1781.73
302.05	1669.09
302.26	1691.62
302.47	1671.14
302.69	1677.29
302.90	1652.71
303.12	1552.36
303.33	1798.12
303.54	1871.84
303.76	1662.95
303.97	1746.92
304.19	1845.22
304.40	1703.91
304.61	1751.01
304.83	1820.64
305.04	1697.77
305.26	1732.58
305.47	1624.04
305.68	1691.62
305.90	1673.19
306.11	1765.35
306.33	1728.49
306.54	1712.10
306.75	1679.33
306.97	1658.85
307.18	1615.85
307.39	1724.39
307.61	1683.43
307.82	1740.77
308.04	1783.78
308.25	1621.99
308.46	1708.01
308.68	1675.24
308.89	1644.52
309.10	1699.81
309.32	1748.97
309.53	1687.53
309.74	1679.33
309.96	1636.33
310.17	1818.60
310.39	1734.63
310.60	1785.83
310.81	1763.30
311.03	1685.48
311.24	1804.26
311.45	1722.34
311.67	1802.21
311.88	1755.11
312.09	1638.38
312.31	1705.96
312.52	1763.30
312.73	1705.96
312.95	1640.42
313.16	1642.47
313.37	1726.44
313.59	1673.19
313.80	1751.01
314.01	1859.56
314.23	1724.39
314.44	1626.09
314.65	1636.33
314.87	1736.68
315.08	1669.09
315.29	1669.09
315.51	1619.94
315.72	1656.81
315.93	1800.16
316.15	1687.53
316.36	1693.67
316.57	1724.39
316.79	1798.12
317.00	1687.53
317.21	1806.31
317.43	1705.96
317.64	1744.87
317.85	1642.47
318.07	1652.71
318.28	1763.30
318.49	1787.88
318.70	1867.75
318.92	1800.16
319.13	1814.50
319.34	1851.36
319.56	1779.68
319.77	1806.31
319.98	1855.46
320.20	1785.83
320.41	1791.97
320.62	1691.62
320.83	1728.49
321.05	1834.98
321.26	1718.25
321.47	1689.57
321.69	1734.63
321.90	1667.05
322.11	1669.09
322.32	1730.53
322.54	1722.34
322.75	1681.38
322.96	1896.42
323.18	1648.61
323.39	1562.60
323.60	1685.48
323.81	1783.78
324.03	1646.57
324.24	1705.96
324.45	1681.38
324.66	1683.43
324.88	1812.45
325.09	1804.26
325.30	1726.44
325.52	1720.29
325.73	1681.38
325.94	1632.23
326.15	1619.94
326.37	1710.05
326.58	1787.88
326.79	1812.45
327.00	1683.43
327.22	1761.25
327.43	1736.68
327.64	1662.95
327.85	1783.78
328.07	1689.57
328.28	1865.70
328.49	1738.73
328.70	1710.05
328.92	1638.38
329.13	1636.33
329.34	1689.57
329.55	1683.43
329.76	1755.11
329.98	1742.82
330.19	1783.78
330.40	1703.91
330.61	1669.09
330.83	1654.76
331.04	1689.57
331.25	1746.92
331.46	1722.34
331.68	1650.66
331.89	1724.39
332.10	1736.68
332.31	1673.19
332.52	1685.48
332.74	1665.00
332.95	1615.85
333.16	1701.86
333.37	1665.00
333.58	1681.38
333.80	1714.15
334.01	1640.42
334.22	1689.57
334.43	1630.18
334.64	1798.12
334.86	1656.81
335.07	1677.29
335.28	1755.11
335.49	1597.42
335.70	1734.63
335.92	1699.81
336.13	1832.93
336.34	1765.35
336.55	1755.11
336.76	1697.77
336.98	1613.80
337.19	1710.05
337.40	1722.34
337.61	1771.49
337.82	1642.47
338.04	1765.35
338.25	1648.61
338.46	1697.77
338.67	1744.87
338.88	1671.14
339.09	1662.95
339.31	1681.38
339.52	1609.70
339.73	1669.09
339.94	1720.29
340.15	1779.68
340.36	1667.05
340.58	1708.01
340.79	1697.77
341.00	1679.33
341.21	1578.98
341.42	1828.84
341.63	1712.10
341.85	1726.44
342.06	1722.34
342.27	1658.85
342.48	1718.25
342.69	1628.14
342.90	1712.10
343.12	1761.25
343.33	1675.24
343.54	1697.77
343.75	1755.11
343.96	1714.15
344.17	1617.90
344.38	1652.71
344.60	1701.86
344.81	1630.18
345.02	1648.61
345.23	1714.15
345.44	1806.31
345.65	1681.38
345.86	1708.01
346.07	1718.25
346.29	1685.48
346.50	1667.05
346.71	1746.92
346.92	1720.29
347.13	1861.60
347.34	1724.39
347.55	1615.85
347.76	1724.39
347.98	1634.28
348.19	1642.47
348.40	1802.21
348.61	1673.19
348.82	1796.07
349.03	1734.63
349.24	1615.85
349.45	1726.44
349.66	1538.02
349.88	1642.47
350.09	1648.61
350.30	1759.21
350.51	1757.16
350.72	1695.72
350.93	1773.54
351.14	1660.90
351.35	1703.91
351.56	1671.14
351.77	1712.10
351.99	1728.49
352.20	1730.53
352.41	1832.93
352.62	1634.28
352.83	1662.95
353.04	1769.44
353.25	1714.15
353.46	1763.30
353.67	1783.78
353.88	1609.70
354.09	1689.57
354.30	1714.15
354.52	1687.53
354.73	1724.39
354.94	1705.96
355.15	1630.18
355.36	1810.40
355.57	1671.14
355.78	1759.21
355.99	1644.52
356.20	1796.07
356.41	1767.40
356.62	1730.53
356.83	1701.86
357.04	1759.21
357.25	1609.70
357.46	1722.34
357.68	1675.24
357.89	1677.29
358.10	1693.67
358.31	1636.33
358.52	1701.86
358.73	1636.33
358.94	1665.00
359.15	1603.56
359.36	1787.88
359.57	1695.72
359.78	1667.05
359.99	1708.01
360.20	1683.43
360.41	1679.33
360.62	1726.44
360.83	1673.19
361.04	1660.90
361.25	1640.42
361.46	1806.31
361.67	1697.77
361.88	1763.30
362.09	1755.11
362.30	1689.57
362.51	1658.85
362.72	1697.77
362.93	1652.71
363.14	1683.43
363.35	1740.77
363.56	1650.66
363.78	1771.49
363.99	1697.77
364.20	1742.82
364.41	1800.16
364.62	1773.54
364.83	1699.81
365.04	1757.16
365.25	1599.46
365.46	1804.26
365.67	1681.38
365.88	1601.51
366.09	1691.62
366.30	1646.57
366.51	1662.95
366.72	1660.90
366.93	1712.10
367.14	1730.53
367.35	1828.84
367.56	1763.30
367.77	1753.06
367.98	1636.33
368.18	1705.96
368.39	1728.49
368.60	1716.20
368.81	1738.73
369.02	1718.25
369.23	1687.53
369.44	1589.22
369.65	1716.20
369.86	1708.01
370.07	1693.67
370.28	1669.09
370.49	1751.01
370.70	1689.57
370.91	1634.28
371.12	1705.96
371.33	1775.59
371.54	1681.38
371.75	1802.21
371.96	1583.08
372.17	1740.77
372.38	1705.96
372.59	1726.44
372.80	1718.25
373.01	1646.57
373.22	1619.94
373.43	1710.05
373.64	1683.43
373.85	1789.92
374.06	1724.39
374.26	1730.53
374.47	1658.85
374.68	1820.64
374.89	1677.29
375.10	1751.01
375.31	1800.16
375.52	1691.62
375.73	1710.05
375.94	1613.80
376.15	1740.77
376.36	1613.80
376.57	1699.81
376.78	1755.11
376.99	1693.67
377.20	1769.44
377.40	1652.71
377.61	1794.02
377.82	1654.76
378.03	1783.78
378.24	1746.92
378.45	1716.20
378.66	1699.81
378.87	1619.94
379.08	1583.08
379.29	1730.53
379.50	1810.40
379.71	1697.77
379.91	1798.12
380.12	1712.10
380.33	1669.09
380.54	1714.15
380.75	1662.95
380.96	1697.77
381.17	1724.39
381.38	1669.09
381.59	1759.21
381.80	1757.16
382.00	1789.92
382.21	1767.40
382.42	1820.64
382.63	1918.95
382.84	1718.25
383.05	1763.30
383.26	1773.54
383.47	1757.16
383.68	1787.88
383.88	1769.44
384.09	1726.44
384.30	1785.83
384.51	1691.62
384.72	1708.01
384.93	1695.72
385.14	1626.09
385.35	1736.68
385.55	1701.86
385.76	1740.77
385.97	1738.73
386.18	1593.32
386.39	1611.75
386.60	1685.48
386.81	1742.82
387.02	1626.09
387.22	1675.24
387.43	1648.61
387.64	1796.07
387.85	1822.69
388.06	2152.42
388.27	4343.74
388.48	6868.89
388.68	8451.97
388.89	9910.12
389.10	10004.33
389.31	8834.94
389.52	7708.55
389.73	6883.22
389.93	6377.37
390.14	5932.97
390.35	5226.42
390.56	4704.18
390.77	3944.39
390.98	2994.13
391.18	2516.95
391.39	2066.40
391.60	1843.17
391.81	1888.23
392.02	1738.73
392.23	1855.46
392.43	1794.02
392.64	1791.97
392.85	1722.34
393.06	1800.16
393.27	1738.73
393.47	1705.96
393.68	1695.72
393.89	1697.77
394.10	1783.78
394.31	1685.48
394.52	1642.47
394.72	1703.91
394.93	1884.13
395.14	1603.56
395.35	1787.88
395.56	1669.09
395.76	1697.77
395.97	1841.12
396.18	1892.32
396.39	1820.64
396.60	1984.48
396.80	1855.46
397.01	1849.32
397.22	1800.16
397.43	1828.84
397.64	1695.72
397.84	1771.49
398.05	1890.28
398.26	1779.68
398.47	1865.70
398.67	1800.16
398.88	1757.16
399.09	1744.87
399.30	1712.10
399.51	1746.92
399.71	1675.24
399.92	1695.72
400.13	1798.12
400.34	1722.34
400.54	1677.29
400.75	1734.63
400.96	1693.67
401.17	1765.35
401.37	1738.73
401.58	1695.72
401.79	1738.73
402.00	1855.46
402.21	1966.05
402.41	1945.57
402.62	1986.53
402.83	2021.35
403.04	1949.67
403.24	2140.13
403.45	1863.65
403.66	2017.25
403.87	1877.99
404.07	1828.84
404.28	1851.36
404.49	1871.84
404.70	1742.82
404.90	1826.79
405.11	1742.82
405.32	1744.87
405.52	1656.81
405.73	1683.43
405.94	1673.19
406.15	1654.76
406.35	1746.92
406.56	1710.05
406.77	1720.29
406.98	1710.05
407.18	1640.42
407.39	1751.01
407.60	1724.39
407.80	1748.97
408.01	1662.95
408.22	1755.11
408.43	1658.85
408.63	1763.30
408.84	1683.43
409.05	1734.63
409.25	1656.81
409.46	1646.57
409.67	1660.90
409.88	1691.62
410.08	1705.96
410.29	1648.61
410.50	1748.97
410.70	1742.82
410.91	1640.42
411.12	1781.73
411.32	1724.39
411.53	1613.80
411.74	1841.12
411.95	1820.64
412.15	1771.49
412.36	1837.03
412.57	1712.10
412.77	1837.03
412.98	1730.53
413.19	1769.44
413.39	1759.21
413.60	1742.82
413.81	1814.50
414.01	1583.08
414.22	1693.67
414.43	1736.68
414.63	1662.95
414.84	1732.58
415.05	1675.24
415.25	1699.81
415.46	1751.01
415.67	1742.82
415.87	1734.63
416.08	1693.67
416.29	1591.27
416.49	1757.16
416.70	1726.44
416.91	1779.68
417.11	1662.95
417.32	1693.67
417.53	1759.21
417.73	1646.57
417.94	1738.73
418.15	1767.40
418.35	1693.67
418.56	1718.25
418.77	1837.03
418.97	1646.57
419.18	1624.04
419.38	1535.98
419.59	1724.39
419.80	1699.81
420.00	1601.51
420.21	1742.82
420.42	1781.73
420.62	1591.27
420.83	1628.14
421.04	1644.52
421.24	1685.48
421.45	1785.83
421.65	1689.57
421.86	1677.29
422.07	1755.11
422.27	1695.72
422.48	1724.39
422.69	1691.62
422.89	1685.48
423.10	1677.29
423.30	1691.62
423.51	1806.31
423.72	1767.40
423.92	1751.01
424.13	1597.42
424.33	1689.57
424.54	1712.10
424.75	1714.15
424.95	1832.93
425.16	1781.73
425.36	1701.86
425.57	1716.20
425.78	1787.88
425.98	1675.24
426.19	1748.97
426.39	1642.47
426.60	1738.73
426.81	1845.22
427.01	1708.01
427.22	1644.52
427.42	1640.42
427.63	1718.25
427.83	1726.44
428.04	1845.22
428.25	1744.87
428.45	1759.21
428.66	1787.88
428.86	1734.63
429.07	1685.48
429.28	1693.67
429.48	1746.92
429.69	1585.13
429.89	1683.43
430.10	1640.42
430.30	1687.53
430.51	1738.73
430.71	1630.18
430.92	1691.62
431.13	1685.48
431.33	1660.90
431.54	1710.05
431.74	1759.21
431.95	1798.12
432.15	1679.33
432.36	1755.11
432.56	1714.15
432.77	1845.22
432.98	1810.40
433.18	1705.96
433.39	1765.35
433.59	1652.71
433.80	1746.92
434.00	1804.26
434.21	1699.81
434.41	1636.33
434.62	1855.46
434.82	1634.28
435.03	1665.00
435.23	1804.26
435.44	1669.09
435.64	1662.95
435.85	1679.33
436.06	1753.06
436.26	1820.64
436.47	1783.78
436.67	1654.76
436.88	1759.21
437.08	1722.34
437.29	1724.39
437.49	1724.39
437.70	1714.15
437.90	1697.77
438.11	1837.03
438.31	1775.59
438.52	1855.46
438.72	1914.85
438.93	1851.36
439.13	1804.26
439.34	1769.44
439.54	1789.92
439.75	1732.58
439.95	1765.35
440.16	1693.67
440.36	1730.53
440.57	1794.02
440.77	1800.16
440.98	1798.12
441.18	1783.78
441.39	1695.72
441.59	1748.97
441.80	1736.68
442.00	1675.24
442.21	1744.87
442.41	1644.52
442.62	1705.96
442.82	1751.01
443.02	1699.81
443.23	1732.58
443.43	1710.05
443.64	1765.35
443.84	1662.95
444.05	1800.16
444.25	1763.30
444.46	1693.67
444.66	1685.48
444.87	1804.26
445.07	1646.57
445.28	1654.76
445.48	1722.34
445.69	1818.60
445.89	1851.36
446.09	1767.40
446.30	2054.11
446.50	2684.89
446.71	3764.17
446.91	4384.70
447.12	4851.64
447.32	4935.60
447.53	4339.65
447.73	3928.00
447.93	3592.14
448.14	3401.68
448.34	3252.17
448.55	2914.26
448.75	2885.59
448.96	2723.80
449.16	2484.19
449.36	2265.05
449.57	2000.87
449.77	1914.85
449.98	1822.69
450.18	1789.92
450.39	1834.98
450.59	1763.30
450.79	1740.77
451.00	1621.99
451.20	1746.92
451.41	1656.81
451.61	1716.20
451.81	1691.62
452.02	1781.73
452.22	1656.81
452.43	1759.21
452.63	1701.86
452.84	1716.20
453.04	1665.00
453.24	1732.58
453.45	1691.62
453.65	1691.62
453.86	1683.43
454.06	1708.01
454.26	1822.69
454.47	1714.15
454.67	1822.69
454.87	1800.16
455.08	1695.72
455.28	1800.16
455.49	1703.91
455.69	1726.44
455.89	1820.64
456.10	1789.92
456.30	1665.00
456.51	1734.63
456.71	1757.16
456.91	1710.05
457.12	1716.20
457.32	1738.73
457.52	1742.82
457.73	1728.49
457.93	1816.55
458.14	1759.21
458.34	1634.28
458.54	1687.53
458.75	1636.33
458.95	1759.21
459.15	1746.92
459.36	1718.25
459.56	1781.73
459.76	1904.61
459.97	1789.92
460.17	1744.87
460.37	1732.58
460.58	1726.44
460.78	1689.57
460.99	1699.81
461.19	1665.00
461.39	1783.78
461.60	1675.24
461.80	1781.73
462.00	1617.90
462.21	1660.90
462.41	1656.81
462.61	1716.20
462.82	1636.33
463.02	1759.21
463.22	1685.48
463.43	1800.16
463.63	1785.83
463.83	1761.25
464.04	1708.01
464.24	1720.29
464.44	1701.86
464.64	1722.34
464.85	1748.97
465.05	1789.92
465.25	1705.96
465.46	1730.53
465.66	1724.39
465.86	1771.49
466.07	1675.24
466.27	1734.63
466.47	1615.85
466.68	1665.00
466.88	1689.57
467.08	1697.77
467.29	1857.51
467.49	1759.21
467.69	1732.58
467.89	1699.81
468.10	1613.80
468.30	1755.11
468.50	1687.53
468.71	1681.38
468.91	1699.81
469.11	1746.92
469.31	1820.64
469.52	1658.85
469.72	1851.36
469.92	1779.68
470.13	1724.39
470.33	1734.63
470.53	1871.84
470.73	2058.21
470.94	2349.02
471.14	2314.20
471.34	2525.15
471.54	2428.89
471.75	2256.86
471.95	2119.65
472.15	2113.50
472.36	2078.69
472.56	2002.91
472.76	1941.47
472.96	2013.15
473.17	1980.39
473.37	1890.28
473.57	1703.91
473.77	1826.79
473.98	1712.10
474.18	1708.01
474.38	1857.51
474.58	1685.48
474.79	1607.66
474.99	1708.01
475.19	1746.92
475.39	1650.66
475.60	1732.58
475.80	1771.49
476.00	1757.16
476.20	1701.86
476.41	1779.68
476.61	1800.16
476.81	1804.26
477.01	1714.15
477.21	1892.32
477.42	1765.35
477.62	1732.58
477.82	1765.35
478.02	1736.68
478.23	1738.73
478.43	1599.46
478.63	1669.09
478.83	1699.81
479.03	1636.33
479.24	1777.64
479.44	1882.08
479.64	1685.48
479.84	1669.09
480.04	1714.15
480.25	1787.88
480.45	1660.90
480.65	1710.05
480.85	1875.94
481.06	1599.46
481.26	1734.63
481.46	1746.92
481.66	1669.09
481.86	1624.04
482.06	1759.21
482.27	1703.91
482.47	1710.05
482.67	1818.60
482.87	1695.72
483.07	1798.12
483.28	1724.39
483.48	1656.81
483.68	1753.06
483.88	1642.47
484.08	1619.94
484.29	1716.20
484.49	1732.58
484.69	1656.81
484.89	1755.11
485.09	1718.25
485.29	1828.84
485.50	1810.40
485.70	1669.09
485.90	1802.21
486.10	1746.92
486.30	1800.16
486.50	1767.40
486.71	1767.40
486.91	1675.24
487.11	1814.50
487.31	1644.52
487.51	1730.53
487.71	1683.43
487.91	1632.23
488.12	1665.00
488.32	1634.28
488.52	1581.03
488.72	1642.47
488.92	1798.12
489.12	1798.12
489.32	1714.15
489.53	1755.11
489.73	1712.10
489.93	1810.40
490.13	1679.33
490.33	1726.44
490.53	1738.73
490.73	1851.36
490.94	1650.66
491.14	1720.29
491.34	1791.97
491.54	2062.30
491.74	2590.68
491.94	2955.22
492.14	3117.01
492.34	2977.75
492.54	2811.86
492.75	2555.86
492.95	2463.71
493.15	2367.45
493.35	2275.29
493.55	2240.48
493.75	2138.08
493.95	2117.60
494.15	1984.48
494.35	1882.08
494.56	1826.79
494.76	1742.82
494.96	1769.44
495.16	1789.92
495.36	1724.39
495.56	1728.49
495.76	1691.62
495.96	1716.20
496.16	1714.15
496.36	1787.88
496.56	1734.63
496.77	1761.25
496.97	1730.53
497.17	1761.25
497.37	1697.77
497.57	1763.30
497.77	1841.12
497.97	1675.24
498.17	1697.77
498.37	1642.47
498.57	1849.32
498.77	1748.97
498.97	1734.63
499.17	1810.40
499.38	1740.77
499.58	1742.82
499.78	1773.54
499.98	1841.12
500.18	1705.96
500.38	1691.62
500.58	1886.18
500.78	2656.22
500.98	4747.19
501.18	5916.58
501.38	6918.04
501.58	7243.67
501.78	6817.69
501.98	5791.66
502.18	5029.81
502.38	4460.48
502.58	4210.62
502.78	3872.71
502.98	3575.75
503.18	3487.69
503.38	3211.22
503.59	2871.25
503.79	2789.33
503.99	2373.60
504.19	2224.09
504.39	2240.48
504.59	2203.61
504.79	2086.88
504.99	2029.54
505.19	1920.99
505.39	1869.80
505.59	2000.87
505.79	1978.34
505.99	1820.64
506.19	1779.68
506.39	1869.80
506.59	1697.77
506.79	1843.17
506.99	1808.36
507.19	1732.58
507.39	1679.33
507.59	1716.20
507.79	1781.73
507.99	1673.19
508.19	1748.97
508.39	1775.59
508.59	1736.68
508.79	1738.73
508.99	1796.07
509.19	1714.15
509.39	1777.64
509.59	1691.62
509.79	1712.10
509.99	1708.01
510.19	1759.21
510.39	1730.53
510.59	1716.20
510.79	1642.47
510.99	1697.77
511.19	1650.66
511.39	1820.64
511.59	1732.58
511.79	1718.25
511.99	1630.18
512.19	1845.22
512.38	1785.83
512.58	1732.58
512.78	1767.40
512.98	1722.34
513.18	1859.56
513.38	1695.72
513.58	1828.84
513.78	1662.95
513.98	1730.53
514.18	1755.11
514.38	1699.81
514.58	1759.21
514.78	1722.34
514.98	1677.29
515.18	1751.01
515.38	1679.33
515.58	1822.69
515.78	1724.39
515.98	1779.68
516.18	1808.36
516.38	1746.92
516.57	1712.10
516.77	1738.73
516.97	1806.31
517.17	1681.38
517.37	1638.38
517.57	1859.56
517.77	1734.63
517.97	1746.92
518.17	1773.54
518.37	1687.53
518.57	1796.07
518.77	1724.39
518.97	1724.39
519.16	1736.68
519.36	1845.22
519.56	1685.48
519.76	1712.10
519.96	1701.86
520.16	1791.97
520.36	1742.82
520.56	1814.50
520.76	1656.81
520.96	1738.73
521.16	1744.87
521.35	1808.36
521.55	1812.45
521.75	1738.73
521.95	1779.68
522.15	1726.44
522.35	1658.85
522.55	1736.68
522.75	1812.45
522.95	1738.73
523.14	1632.23
523.34	1775.59
523.54	1685.48
523.74	1746.92
523.94	1796.07
524.14	1662.95
524.34	1710.05
524.54	1818.60
524.73	1771.49
524.93	1742.82
525.13	1662.95
525.33	1689.57
525.53	1961.95
525.73	1781.73
525.93	1853.41
526.13	1740.77
526.32	1710.05
526.52	1773.54
526.72	1837.03
526.92	1738.73
527.12	1738.73
527.32	1615.85
527.52	1808.36
527.71	1730.53
527.91	1755.11
528.11	1722.34
528.31	1742.82
528.51	1669.09
528.71	1726.44
528.90	1761.25
529.10	1832.93
529.30	1877.99
529.50	1607.66
529.70	1794.02
529.90	1738.73
530.09	1724.39
530.29	1669.09
530.49	1751.01
530.69	1886.18
530.89	1730.53
531.09	1683.43
531.28	1761.25
531.48	1800.16
531.68	1748.97
531.88	1701.86
532.08	1712.10
532.28	1701.86
532.47	1791.97
532.67	1822.69
532.87	1777.64
533.07	1640.42
533.27	1796.07
533.46	1755.11
533.66	1632.23
533.86	1730.53
534.06	1685.48
534.26	1744.87
534.45	1648.61
534.65	1736.68
534.85	1777.64
535.05	1685.48
535.25	1746.92
535.44	1675.24
535.64	1767.40
535.84	1675.24
536.04	1757.16
536.24	1648.61
536.43	1767.40
536.63	1785.83
536.83	1691.62
537.03	1726.44
537.22	1634.28
537.42	1595.37
537.62	1728.49
537.82	1679.33
538.02	1816.55
538.21	1808.36
538.41	1925.09
538.61	1699.81
538.81	1699.81
539.00	1732.58
539.20	1646.57
539.40	1746.92
539.60	1789.92
539.79	1740.77
539.99	1705.96
540.19	1665.00
540.39	1699.81
540.58	1808.36
540.78	1798.12
540.98	1689.57
541.18	1781.73
541.37	1785.83
541.57	1796.07
541.77	1685.48
541.97	1726.44
542.16	1669.09
542.36	1685.48
542.56	1718.25
542.76	1781.73
542.95	1683.43
543.15	1730.53
543.35	1765.35
543.54	1701.86
543.74	1671.14
543.94	1847.27
544.14	1689.57
544.33	1898.47
544.53	1714.15
544.73	1695.72
544.93	1677.29
545.12	1751.01
545.32	1746.92
545.52	1712.10
545.71	1638.38
545.91	1710.05
546.11	1640.42
546.30	1687.53
546.50	1779.68
546.70	1818.60
546.90	1785.83
547.09	1634.28
547.29	1769.44
547.49	1789.92
547.68	1718.25
547.88	1640.42
548.08	1771.49
548.27	2179.04
548.47	1701.86
548.67	1673.19
548.87	1665.00
549.06	1720.29
549.26	1755.11
549.46	1769.44
549.65	1773.54
549.85	1644.52
550.05	1759.21
550.24	1660.90
550.44	1669.09
550.64	1748.97
550.83	1736.68
551.03	1787.88
551.23	1759.21
551.42	1728.49
551.62	1644.52
551.82	1746.92
552.01	1779.68
552.21	1779.68
552.41	1738.73
552.60	1785.83
552.80	1742.82
553.00	1724.39
553.19	1763.30
553.39	1834.98
553.59	1630.18
553.78	1761.25
553.98	1775.59
554.17	1660.90
554.37	1781.73
554.57	1832.93
554.76	1652.71
554.96	1796.07
555.16	1738.73
555.35	1822.69
555.55	1751.01
555.75	1779.68
555.94	1732.58
556.14	1683.43
556.33	1708.01
556.53	1726.44
556.73	1730.53
556.92	1779.68
557.12	1806.31
557.32	1822.69
557.51	1830.88
557.71	1757.16
557.90	1783.78
558.10	1824.74
558.30	1718.25
558.49	1761.25
558.69	1726.44
558.88	1820.64
559.08	1771.49
559.28	1693.67
559.47	1679.33
559.67	1822.69
559.86	1839.08
560.06	1699.81
560.26	1757.16
560.45	1732.58
560.65	1675.24
560.84	1832.93
561.04	1677.29
561.24	1734.63
561.43	1619.94
561.63	1798.12
561.82	1718.25
562.02	1736.68
562.22	1665.00
562.41	1705.96
562.61	1677.29
562.80	1681.38
563.00	1841.12
563.19	1791.97
563.39	1738.73
563.59	1779.68
563.78	1714.15
563.98	1710.05
564.17	1701.86
564.37	1699.81
564.56	1712.10
564.76	1728.49
564.96	1820.64
565.15	1751.01
565.35	1794.02
565.54	1689.57
565.74	1730.53
565.93	1720.29
566.13	1710.05
566.32	1787.88
566.52	1765.35
566.71	1730.53
566.91	1746.92
567.11	1769.44
567.30	1744.87
567.50	1775.59
567.69	1810.40
567.89	1722.34
568.08	1665.00
568.28	1806.31
568.47	1615.85
568.67	1794.02
568.86	1660.90
569.06	1789.92
569.25	1667.05
569.45	1763.30
569.64	1675.24
569.84	1765.35
570.04	1710.05
570.23	1794.02
570.43	1804.26
570.62	1759.21
570.82	1841.12
571.01	1691.62
571.21	1679.33
571.40	1658.85
571.60	1744.87
571.79	1779.68
571.99	1734.63
572.18	1726.44
572.38	1816.55
572.57	1738.73
572.77	1736.68
572.96	1791.97
573.16	1685.48
573.35	1697.77
573.55	1826.79
573.74	1767.40
573.94	1738.73
574.13	1683.43
574.33	1746.92
574.52	1820.64
574.71	1787.88
574.91	1757.16
575.10	1681.38
575.30	1689.57
575.49	1765.35
575.69	1757.16
575.88	1802.21
576.08	1748.97
576.27	1814.50
576.47	1718.25
576.66	1851.36
576.86	1832.93
577.05	1755.11
577.25	1781.73
577.44	1890.28
577.64	1718.25
577.83	1822.69
578.02	1769.44
578.22	1828.84
578.41	1837.03
578.61	1791.97
578.80	1638.38
579.00	1783.78
579.19	1771.49
579.39	1794.02
579.58	1839.08
579.77	1734.63
579.97	1701.86
580.16	1814.50
580.36	1806.31
580.55	1855.46
580.75	1746.92
580.94	1771.49
581.13	1865.70
581.33	1771.49
581.52	1773.54
581.72	1871.84
581.91	1841.12
582.11	1722.34
582.30	1820.64
582.49	1718.25
582.69	1800.16
582.88	1816.55
583.08	1755.11
583.27	1800.16
583.47	1705.96
583.66	1767.40
583.85	1734.63
584.05	1763.30
584.24	1673.19
584.44	1751.01
584.63	1763.30
584.82	1785.83
585.02	1775.59
585.21	1814.50
585.41	1785.83
585.60	1761.25
585.79	1931.23
585.99	1931.23
586.18	1912.80
586.37	2187.23
586.57	3448.78
586.76	10020.71
586.96	24878.72
587.15	35048.94
587.34	41745.80
587.54	43206.00
587.73	37598.66
587.93	27227.74
588.12	22073.01
588.31	18695.91
588.51	16547.59
588.70	15458.07
588.89	14544.67
589.09	12873.53
589.28	11366.23
589.47	9664.36
589.67	8183.68
589.86	6473.63
590.06	5089.20
590.25	3952.58
590.44	3182.54
590.64	2623.45
590.83	2287.58
591.02	2062.30
591.22	1968.10
591.41	1875.94
591.60	1839.08
591.80	1896.42
591.99	1742.82
592.18	1767.40
592.38	1791.97
592.57	1773.54
592.76	1738.73
592.96	1796.07
593.15	1757.16
593.34	1738.73
593.54	1796.07
593.73	1789.92
593.92	1851.36
594.12	1771.49
594.31	1628.14
594.50	1806.31
594.70	1804.26
594.89	1839.08
595.08	1695.72
595.28	1773.54
595.47	1849.32
595.66	1802.21
595.86	1701.86
596.05	1734.63
596.24	1787.88
596.43	1822.69
596.63	1800.16
596.82	1816.55
597.01	1740.77
597.21	1890.28
597.40	1730.53
597.59	1748.97
597.79	1759.21
597.98	1777.64
598.17	1769.44
598.36	1740.77
598.56	1804.26
598.75	1728.49
598.94	1791.97
599.14	1763.30
599.33	1699.81
599.52	1753.06
599.71	1773.54
599.91	1783.78
600.10	1783.78
600.29	1753.06
600.48	1730.53
600.68	1732.58
600.87	1787.88
601.06	1808.36
601.26	1714.15
601.45	1736.68
601.64	1728.49
601.83	1755.11
602.03	1746.92
602.22	1722.34
602.41	1675.24
602.60	1849.32
602.80	1834.98
602.99	1720.29
603.18	1589.22
603.37	1761.25
603.57	1753.06
603.76	1820.64
603.95	1820.64
604.14	1693.67
604.34	1669.09
604.53	1705.96
604.72	1826.79
604.91	1740.77
605.10	1804.26
605.30	1722.34
605.49	1724.39
605.68	1724.39
605.87	1810.40
606.07	1851.36
606.26	1677.29
606.45	1755.11
606.64	1671.14
606.84	1738.73
607.03	1660.90
607.22	1648.61
607.41	1701.86
607.60	1732.58
607.80	1742.82
607.99	1742.82
608.18	1738.73
608.37	1699.81
608.56	1679.33
608.76	1746.92
608.95	1824.74
609.14	1718.25
609.33	1718.25
609.52	1759.21
609.72	1667.05
609.91	1769.44
610.10	1701.86
610.29	1810.40
610.48	1771.49
610.68	1773.54
610.87	1605.61
611.06	1785.83
611.25	1689.57
611.44	1781.73
611.63	1732.58
611.83	1855.46
612.02	1607.66
612.21	1789.92
612.40	1619.94
612.59	1681.38
612.79	1654.76
612.98	1695.72
613.17	1822.69
613.36	1755.11
613.55	1855.46
613.74	1689.57
613.93	1644.52
614.13	1726.44
614.32	1794.02
614.51	1650.66
614.70	1722.34
614.89	1681.38
615.08	1755.11
615.28	2043.87
615.47	1728.49
615.66	1693.67
615.85	1738.73
616.04	1847.27
616.23	1744.87
616.42	1757.16
616.62	1720.29
616.81	1773.54
617.00	1722.34
617.19	1744.87
617.38	1734.63
617.57	1714.15
617.76	1685.48
617.95	1738.73
618.15	1800.16
618.34	1732.58
618.53	1665.00
618.72	1757.16
618.91	1773.54
619.10	1794.02
619.29	1716.20
619.48	1738.73
619.68	1685.48
619.87	1710.05
620.06	1697.77
620.25	1812.45
620.44	1687.53
620.63	1751.01
620.82	1773.54
621.01	1728.49
621.20	1722.34
621.39	1773.54
621.59	1736.68
621.78	1724.39
621.97	1705.96
622.16	1714.15
622.35	1753.06
622.54	1781.73
622.73	1800.16
622.92	1568.74
623.11	1779.68
623.30	1718.25
623.49	1759.21
623.68	1654.76
623.88	1738.73
624.07	1746.92
624.26	1624.04
624.45	1771.49
624.64	1634.28
624.83	1718.25
625.02	1746.92
625.21	1726.44
625.40	1734.63
625.59	1779.68
625.78	1796.07
625.97	1789.92
626.16	1771.49
626.35	1783.78
626.54	1691.62
626.74	1820.64
626.93	1691.62
627.12	1732.58
627.31	1777.64
627.50	1712.10
627.69	1744.87
627.88	1685.48
628.07	1845.22
628.26	1701.86
628.45	1693.67
628.64	1652.71
628.83	1710.05
629.02	1726.44
629.21	1726.44
629.40	1763.30
629.59	1681.38
629.78	1716.20
629.97	1738.73
630.16	1779.68
630.35	1681.38
630.54	1697.77
630.73	1691.62
630.92	1714.15
631.11	1736.68
631.30	1751.01
631.49	1816.55
631.68	1712.10
631.87	1710.05
632.06	1648.61
632.25	1828.84
632.44	1689.57
632.63	1755.11
632.82	1689.57
633.01	1687.53
633.20	1736.68
633.39	1759.21
633.58	1626.09
633.77	1728.49
633.96	1716.20
634.15	1748.97
634.34	1708.01
634.53	1736.68
634.72	1669.09
634.91	1642.47
635.10	1697.77
635.29	1755.11
635.48	1757.16
635.67	1646.57
635.86	1693.67
636.05	1767.40
636.24	1693.67
636.43	1720.29
636.62	1718.25
636.81	1576.94
637.00	1675.24
637.19	1648.61
637.38	1751.01
637.57	1652.71
637.76	1687.53
637.95	1699.81
638.14	1648.61
638.33	1701.86
638.52	1804.26
638.71	1611.75
638.89	1689.57
639.08	1849.32
639.27	1779.68
639.46	1724.39
639.65	1748.97
639.84	1708.01
640.03	1794.02
640.22	1679.33
640.41	1763.30
640.60	1728.49
640.79	1667.05
640.98	1732.58
641.17	1675.24
641.36	1730.53
641.55	1724.39
641.74	1644.52
641.92	1703.91
642.11	1673.19
642.30	1742.82
642.49	1609.70
642.68	1660.90
642.87	1705.96
643.06	1705.96
643.25	1681.38
643.44	1634.28
643.63	1728.49
643.82	1753.06
644.00	1624.04
644.19	1675.24
644.38	1724.39
644.57	1691.62
644.76	1804.26
644.95	1748.97
645.14	1734.63
645.33	1771.49
645.52	1736.68
645.71	1660.90
645.89	1671.14
646.08	1677.29
646.27	1691.62
646.46	1812.45
646.65	1581.03
646.84	1738.73
647.03	1636.33
647.22	1816.55
647.40	1703.91
647.59	1714.15
647.78	1613.80
647.97	1677.29
648.16	1669.09
648.35	1818.60
648.54	1683.43
648.73	1697.77
648.91	1712.10
649.10	1753.06
649.29	1681.38
649.48	1714.15
649.67	1755.11
649.86	1648.61
650.05	1660.90
650.23	1763.30
650.42	1581.03
650.61	1791.97
650.80	1722.34
650.99	1845.22
651.18	1712.10
651.36	1789.92
651.55	1626.09
651.74	1773.54
651.93	1722.34
652.12	1732.58
652.31	1675.24
652.49	1658.85
652.68	1695.72
652.87	1759.21
653.06	1722.34
653.25	1806.31
653.44	1669.09
653.62	1849.32
653.81	1681.38
654.00	1748.97
654.19	1703.91
654.38	1898.47
654.56	1695.72
654.75	1751.01
654.94	1785.83
655.13	1710.05
655.32	1777.64
655.51	1779.68
655.69	1681.38
655.88	1691.62
656.07	1701.86
656.26	1771.49
656.45	1621.99
656.63	1710.05
656.82	1689.57
657.01	1763.30
657.20	1679.33
657.38	1794.02
657.57	1665.00
657.76	1628.14
657.95	1740.77
658.14	1673.19
658.32	1775.59
658.51	1648.61
658.70	1701.86
658.89	1652.71
659.08	1734.63
659.26	1787.88
659.45	1718.25
659.64	1769.44
659.83	1671.14
660.01	1855.46
660.20	1783.78
660.39	1783.78
660.58	1597.42
660.76	1677.29
660.95	1617.90
661.14	1652.71
661.33	1642.47
661.51	1699.81
661.70	1656.81
661.89	1746.92
662.08	1783.78
662.26	1636.33
662.45	1558.50
662.64	1787.88
662.83	1751.01
663.01	1701.86
663.20	1632.23
663.39	1779.68
663.58	1714.15
663.76	1716.20
663.95	1730.53
664.14	1677.29
664.32	1742.82
664.51	1773.54
664.70	1685.48
664.89	1789.92
665.07	1648.61
665.26	1773.54
665.45	1630.18
665.64	1748.97
665.82	1712.10
666.01	1789.92
666.20	1691.62
666.38	1804.26
666.57	1822.69
666.76	2144.22
666.95	4497.34
667.13	10436.45
667.32	15580.95
667.51	18235.11
667.69	19613.40
667.88	18454.25
668.07	12719.93
668.25	9738.09
668.44	8333.18
668.63	7550.86
668.81	7040.92
669.00	6526.88
669.19	5889.96
669.38	5242.80
669.56	4650.94
669.75	4038.59
669.94	3430.35
670.12	2924.50
670.31	2623.45
670.50	2303.96
670.68	2095.07
670.87	1871.84
671.06	1806.31
671.24	1787.88
671.43	1822.69
671.62	1761.25
671.80	1685.48
671.99	1755.11
672.18	1595.37
672.36	1783.78
672.55	1734.63
672.74	1685.48
672.92	1742.82
673.11	1796.07
673.29	1730.53
673.48	1804.26
673.67	1703.91
673.85	1802.21
674.04	1701.86
674.23	1785.83
674.41	1806.31
674.60	1677.29
674.79	1595.37
674.97	1728.49
675.16	1812.45
675.34	1816.55
675.53	1615.85
675.72	1703.91
675.90	1791.97
676.09	1585.13
676.28	1730.53
676.46	1585.13
676.65	1802.21
676.83	1597.42
677.02	1658.85
677.21	1726.44
677.39	1683.43
677.58	1617.90
677.77	1656.81
677.95	1691.62
678.14	1724.39
678.32	1654.76
678.51	1701.86
678.70	1796.07
678.88	1675.24
679.07	1732.58
679.25	1693.67
679.44	1705.96
679.63	1636.33
679.81	1728.49
680.00	1705.96
680.18	1744.87
680.37	1744.87
680.55	1677.29
680.74	1634.28
680.93	1619.94
681.11	1744.87
681.30	1730.53
681.48	1628.14
681.67	1791.97
681.85	1667.05
682.04	1660.90
682.23	1777.64
682.41	1722.34
682.60	1708.01
682.78	1804.26
682.97	1658.85
683.15	1673.19
683.34	1660.90
683.53	1800.16
683.71	1656.81
683.90	1779.68
684.08	1748.97
684.27	1751.01
684.45	1751.01
684.64	1794.02
684.82	1724.39
685.01	1759.21
685.19	1671.14
685.38	1785.83
685.57	1693.67
685.75	1654.76
685.94	1681.38
686.12	1644.52
686.31	1759.21
686.49	1816.55
686.68	1628.14
686.86	1757.16
687.05	1710.05
687.23	1779.68
687.42	1640.42
687.60	1581.03
687.79	1746.92
687.97	1720.29
688.16	1800.16
688.34	1771.49
688.53	1564.65
688.71	1740.77
688.90	1791.97
689.08	1732.58
689.27	1632.23
689.45	1724.39
689.64	1771.49
689.82	1685.48
690.01	1775.59
690.19	1673.19
690.38	1732.58
690.56	1789.92
690.75	1658.85
690.93	1712.10
691.12	1587.18
691.30	1714.15
691.49	1734.63
691.67	1642.47
691.86	1800.16
692.04	1619.94
692.23	1679.33
692.41	1630.18
692.60	1861.60
692.78	1763.30
692.97	1689.57
693.15	1712.10
693.34	1781.73
693.52	1769.44
693.71	1677.29
693.89	1779.68
694.08	1581.03
694.26	1796.07
694.44	1722.34
694.63	1783.78
694.81	1667.05
695.00	1679.33
695.18	1771.49
695.37	1800.16
695.55	1769.44
695.74	1712.10
695.92	1619.94
696.10	1769.44
696.29	1662.95
696.47	1683.43
696.66	1650.66
696.84	1619.94
697.03	1658.85
697.21	1730.53
697.40	2211.81
697.58	1738.73
697.76	1646.57
697.95	1574.89
698.13	1681.38
698.32	1718.25
698.50	1716.20
698.68	1738.73
698.87	1703.91
699.05	1787.88
699.24	1718.25
699.42	1691.62
699.61	1687.53
699.79	1662.95
699.97	1753.06
700.16	1697.77
700.34	1673.19
700.53	1742.82
700.71	1771.49
700.89	1716.20
701.08	1724.39
701.26	1726.44
701.45	2084.83
701.63	1665.00
701.81	1650.66
702.00	1656.81
702.18	1689.57
702.37	1675.24
702.55	1744.87
702.73	1667.05
702.92	1581.03
703.10	1740.77
703.28	1724.39
703.47	1648.61
703.65	1757.16
703.84	1777.64
704.02	1724.39
704.20	1773.54
704.39	1656.81
704.57	1755.11
704.75	1828.84
704.94	1765.35
705.12	1738.73
705.30	1794.02
705.49	2256.86
705.67	4526.01
705.86	9756.52
706.04	12834.62
706.22	14735.14
706.41	15742.74
706.59	14354.21
706.77	9785.19
706.96	7722.89
707.14	6786.97
707.32	6086.56
707.51	5687.21
707.69	5029.81
707.87	4364.22
708.06	3594.19
708.24	3022.80
708.42	2482.14
708.61	2277.34
708.79	1937.38
708.97	1904.61
709.16	1777.64
709.34	1683.43
709.52	1722.34
709.71	1722.34
709.89	1755.11
710.07	1765.35
710.26	1632.23
710.44	1761.25
710.62	1796.07
710.80	1677.29
710.99	1671.14
711.17	1767.40
711.35	1644.52
711.54	1658.85
711.72	1742.82
711.90	1763.30
712.09	1701.86
712.27	1671.14
712.45	1771.49
712.63	1581.03
712.82	1734.63
713.00	1679.33
713.18	1722.34
713.37	1789.92
713.55	1785.83
713.73	1681.38
713.91	1783.78
714.10	1773.54
714.28	1689.57
714.46	1677.29
714.65	1671.14
714.83	1667.05
715.01	1718.25
715.19	1724.39
715.38	1673.19
715.56	1722.34
715.74	1689.57
715.92	1560.55
716.11	1771.49
716.29	1581.03
716.47	1697.77
716.65	1695.72
716.84	1619.94
717.02	1705.96
717.20	1660.90
717.38	1619.94
717.57	1693.67
717.75	1703.91
717.93	1699.81
718.11	1765.35
718.30	1681.38
718.48	1767.40
718.66	1726.44
718.84	1736.68
719.03	1624.04
719.21	1646.57
719.39	1826.79
719.57	1710.05
719.75	1802.21
719.94	1677.29
720.12	1710.05
720.30	1722.34
720.48	1689.57
720.67	1736.68
720.85	1673.19
721.03	1665.00
721.21	1689.57
721.39	1861.60
721.58	1701.86
721.76	1763.30
721.94	1761.25
722.12	1714.15
722.30	1742.82
722.49	1658.85
722.67	1738.73
722.85	1714.15
723.03	1662.95
723.21	1689.57
723.40	1705.96
723.58	1751.01
723.76	1751.01
723.94	1820.64
724.12	1722.34
724.30	1751.01
724.49	1755.11
724.67	1675.24
724.85	1775.59
725.03	1660.90
725.21	1779.68
725.40	1759.21
725.58	1646.57
725.76	1769.44
725.94	1697.77
726.12	1601.51
726.30	1734.63
726.49	1705.96
726.67	1644.52
726.85	1687.53
727.03	1738.73
727.21	2123.74
727.39	2926.55
727.57	3983.30
727.76	4329.41
727.94	4485.05
728.12	4394.94
728.30	3778.50
728.48	2990.03
728.66	2697.17
728.84	2525.15
729.03	2289.63
729.21	2164.70
729.39	1980.39
729.57	1806.31
729.75	1804.26
729.93	1845.22
730.11	1695.72
730.30	1720.29
730.48	1656.81
730.66	1810.40
730.84	1728.49
731.02	1681.38
731.20	1730.53
731.38	1732.58
731.56	1628.14
731.74	1609.70
731.93	1665.00
732.11	1689.57
732.29	1634.28
732.47	1736.68
732.65	1708.01
732.83	1722.34
733.01	1730.53
733.19	1675.24
733.37	1705.96
733.56	1730.53
733.74	1654.76
733.92	1708.01
734.10	1722.34
734.28	1726.44
734.46	1570.79
734.64	1603.56
734.82	1705.96
735.00	1634.28
735.18	1720.29
735.36	1767.40
735.54	1636.33
735.73	1736.68
735.91	1677.29
736.09	1763.30
736.27	1728.49
736.45	1677.29
736.63	1609.70
736.81	1587.18
736.99	1822.69
737.17	1828.84
737.35	1697.77
737.53	1671.14
737.71	1656.81
737.89	1816.55
738.07	1624.04
738.25	1658.85
738.43	1642.47
738.61	1779.68
738.80	1650.66
738.98	1636.33
739.16	1669.09
739.34	1646.57
739.52	1748.97
739.70	1685.48
739.88	1662.95
740.06	1783.78
740.24	1597.42
740.42	1779.68
740.60	1615.85
740.78	1687.53
740.96	1626.09
741.14	1626.09
741.32	1734.63
741.50	1626.09
741.68	1820.64
741.86	1765.35
742.04	1675.24
742.22	1564.65
742.40	1681.38
742.58	1705.96
742.76	1669.09
742.94	1789.92
743.12	1626.09
743.30	1685.48
743.48	1720.29
743.66	1597.42
743.84	1716.20
744.02	1730.53
744.20	1691.62
744.38	1632.23
744.56	1665.00
744.74	1810.40
744.92	1708.01
745.10	1763.30
745.28	1763.30
745.46	1765.35
745.64	1677.29
745.82	1734.63
746.00	1669.09
746.18	1718.25
746.36	1599.46
746.54	1624.04
746.72	1640.42
746.90	1593.32
747.08	1730.53
747.26	1662.95
747.44	1777.64
747.62	1748.97
747.80	1701.86
747.98	1722.34
748.15	1714.15
748.33	1763.30
748.51	1705.96
748.69	1714.15
748.87	1650.66
749.05	1630.18
749.23	1699.81
749.41	1671.14
749.59	1701.86
749.77	1732.58
749.95	1632.23
750.13	1703.91
750.31	1722.34
750.49	1609.70
750.67	1773.54
750.85	1785.83
751.03	1701.86
751.20	1828.84
751.38	1628.14
751.56	1716.20
751.74	1634.28
751.92	1703.91
752.10	1648.61
752.28	1732.58
752.46	1595.37
752.64	1710.05
752.82	1710.05
753.00	1714.15
753.18	1701.86
753.35	1705.96
753.53	1724.39
753.71	1626.09
753.89	1736.68
754.07	1646.57
754.25	1820.64
754.43	1740.77
754.61	1691.62
754.79	1662.95
754.97	1619.94
755.14	1824.74
755.32	1689.57
755.50	1701.86
755.68	1798.12
755.86	1667.05
756.04	1683.43
756.22	1574.89
756.40	1677.29
756.57	1771.49
756.75	1718.25
756.93	1726.44
757.11	1746.92
757.29	1644.52
757.47	1693.67
757.65	1669.09
757.82	1662.95
758.00	1710.05
758.18	1695.72
758.36	1607.66
758.54	1839.08
758.72	1652.71
758.90	1691.62
759.07	1660.90
759.25	1658.85
759.43	1701.86
759.61	1640.42
759.79	2148.32
759.97	1732.58
760.15	1695.72
760.32	1718.25
760.50	1773.54
760.68	1861.60
760.86	1609.70
761.04	1824.74
761.22	1716.20
761.39	1716.20
761.57	1714.15
761.75	1662.95
761.93	1714.15
762.11	1699.81
762.28	1667.05
762.46	1644.52
762.64	1738.73
762.82	1681.38
763.00	1697.77
763.18	1740.77
763.35	1603.56
763.53	1759.21
763.71	1697.77
763.89	1673.19
764.07	1728.49
764.24	1675.24
764.42	1755.11
764.60	1662.95
764.78	1738.73
764.96	1769.44
765.13	1718.25
765.31	1699.81
765.49	1738.73
765.67	1624.04
765.84	1624.04
766.02	1665.00
766.20	1681.38
766.38	1722.34
766.56	1697.77
766.73	1773.54
766.91	1699.81
767.09	1767.40
767.27	1744.87
767.44	1673.19
767.62	1769.44
767.80	1710.05
767.98	1738.73
768.15	1697.77
768.33	1722.34
768.51	1726.44
768.69	1742.82
768.87	1720.29
769.04	1748.97
769.22	1771.49
769.40	1769.44
769.58	1851.36
769.75	1755.11
769.93	1783.78
770.11	1607.66
770.28	1660.90
770.46	1722.34
770.64	1751.01
770.82	1646.57
770.99	1730.53
771.17	1748.97
771.35	1744.87
771.53	1658.85
771.70	1662.95
771.88	1783.78
772.06	1675.24
772.23	1679.33
772.41	1705.96
772.59	1705.96
772.77	1607.66
772.94	1650.66
773.12	1738.73
773.30	1710.05
773.47	1718.25
773.65	1738.73
773.83	1812.45
774.01	1736.68
774.18	1644.52
774.36	1687.53
774.54	1634.28
774.71	1728.49
774.89	1632.23
775.07	1683.43
775.24	1705.96
775.42	1650.66
775.60	1808.36
775.78	1650.66
775.95	1624.04
776.13	1540.07
776.31	1523.69
776.48	1759.21
776.66	1722.34
776.84	1652.71
777.01	1632.23
777.19	1652.71
777.37	1677.29
777.54	1726.44
777.72	1816.55
777.90	1632.23
778.07	1691.62
778.25	1931.23
778.43	1740.77
778.60	1603.56
778.78	1710.05
778.96	1791.97
779.13	1597.42
779.31	1742.82
779.49	1665.00
779.66	1767.40
779.84	1675.24
780.01	1726.44
780.19	1634.28
780.37	1767.40
780.54	1771.49
780.72	1669.09
780.90	1685.48
781.07	1708.01
781.25	1683.43
781.43	1728.49
781.60	1619.94
781.78	1794.02
781.95	1677.29
782.13	1734.63
782.31	1724.39
782.48	1652.71
782.66	1763.30
782.83	1726.44
783.01	1722.34
783.19	1695.72
783.36	1689.57
783.54	1675.24
783.72	1734.63
783.89	1726.44
784.07	1757.16
784.24	1732.58
784.42	1718.25
784.60	1701.86
784.77	1722.34
784.95	1583.08
785.12	1685.48
785.30	1734.63
785.47	1685.48
785.65	1646.57
785.83	1669.09
786.00	1644.52
786.18	1722.34
786.35	1687.53
786.53	1619.94
786.71	1769.44
786.88	1701.86
787.06	1708.01
787.23	1644.52
787.41	1640.42
787.58	1714.15
787.76	1734.63
787.94	1730.53
788.11	1742.82
788.29	1665.00
788.46	1689.57
788.64	1642.47
788.81	1689.57
788.99	1681.38
789.16	1650.66
789.34	1708.01
789.52	1669.09
789.69	1644.52
789.87	1589.22
790.04	1628.14
790.22	1695.72
790.39	1832.93
790.57	1646.57
790.74	1642.47
790.92	1742.82
791.09	1617.90
791.27	1736.68
791.44	1740.77
791.62	1753.06
791.79	1742.82
791.97	1677.29
792.15	1859.56
792.32	1757.16
792.50	1744.87
792.67	1759.21
792.85	1755.11
793.02	1671.14
793.20	1695.72
793.37	1624.04
793.55	1697.77
793.72	1658.85
793.90	1691.62
794.07	1640.42
794.25	1630.18
794.42	1726.44
794.60	1687.53
794.77	1755.11
794.95	1701.86
795.12	1742.82
795.30	1665.00
795.47	1544.17
795.65	1845.22
795.82	1714.15
796.00	1605.61
796.17	1642.47
796.34	1730.53
796.52	1681.38
796.69	1771.49
796.87	1738.73
797.04	1658.85
797.22	1683.43
797.39	1681.38
797.57	1736.68
797.74	1759.21
797.92	1701.86
798.09	1681.38
798.27	1687.53
798.44	1718.25
798.62	1630.18
798.79	1689.57
798.96	1726.44
799.14	1718.25
799.31	1841.12
799.49	1738.73
799.66	1617.90
799.84	1740.77
800.01	1656.81
800.19	1697.77
800.36	1595.37
800.53	1730.53
800.71	1777.64
800.88	1789.92
801.06	1652.71
801.23	1697.77
801.41	1689.57
801.58	1677.29
801.75	1603.56
801.93	1724.39
802.10	1736.68
802.28	1759.21
802.45	1628.14
802.63	1697.77
802.80	1857.51
802.97	1718.25
803.15	1693.67
803.32	1662.95
803.50	1669.09
803.67	1576.94
803.84	1644.52
804.02	1697.77
804.19	1660.90
804.37	1529.83
804.54	1634.28
804.71	1687.53
804.89	1738.73
805.06	1634.28
805.24	1644.52
805.41	1675.24
805.58	1648.61
805.76	1832.93
805.93	1716.20
806.10	1794.02
806.28	1718.25
806.45	1738.73
806.63	1755.11
806.80	1669.09
806.97	1718.25
807.15	1648.61
807.32	1597.42
807.49	1705.96
807.67	1585.13
807.84	1753.06
808.01	1630.18
808.19	1855.46
808.36	1855.46
808.54	1730.53
808.71	1683.43
808.88	1714.15
809.06	1714.15
809.23	1742.82
809.40	1695.72
809.58	1796.07
809.75	1691.62
809.92	1628.14
810.10	1767.40
810.27	1740.77
810.44	1652.71
810.62	1781.73
810.79	1751.01
810.96	1681.38
811.14	1617.90
811.31	1701.86
811.48	1677.29
811.66	1714.15
811.83	1748.97
812.00	1757.16
812.18	1841.12
812.35	1796.07
812.52	1730.53
812.69	1595.37
812.87	1564.65
813.04	1667.05
813.21	1640.42
813.39	1640.42
813.56	1583.08
813.73	1769.44
813.91	1636.33
814.08	1673.19
814.25	1751.01
814.42	1636.33
814.60	1675.24
814.77	1636.33
814.94	1638.38
815.12	1705.96
815.29	1804.26
815.46	1652.71
815.63	1634.28
815.81	1656.81
815.98	1689.57
816.15	1720.29
816.33	1736.68
816.50	1638.38
816.67	1705.96
816.84	1652.71
817.02	1669.09
817.19	1746.92
817.36	1746.92
817.53	1662.95
817.71	1722.34
817.88	1736.68
818.05	1617.90
818.22	1681.38
818.40	1869.80
818.57	1673.19
818.74	1718.25
818.91	1640.42
819.09	1691.62
819.26	1734.63
819.43	1662.95
819.60	1621.99
819.78	1728.49
819.95	1767.40
820.12	1615.85
820.29	1724.39
820.47	1802.21
820.64	1660.90
820.81	1626.09
820.98	1744.87
821.15	1607.66
821.33	1714.15
821.50	1605.61
821.67	1753.06
821.84	1675.24
822.02	1714.15
822.19	1775.59
822.36	1740.77
822.53	1685.48
822.70	1705.96
822.88	1679.33
823.05	1808.36
823.22	1695.72
823.39	1746.92
823.56	1714.15
823.74	1699.81
823.91	1681.38
824.08	1695.72
824.25	1642.47
824.42	1722.34
824.60	1628.14
824.77	1646.57
824.94	1638.38
825.11	1718.25
825.28	1648.61
825.45	1705.96
825.63	1689.57
825.80	1634.28
825.97	1763.30
826.14	1796.07
826.31	1558.50
826.48	1759.21
826.66	1665.00
826.83	1662.95
827.00	1699.81
827.17	1640.42
827.34	1689.57
827.51	1621.99
827.69	1691.62
827.86	1562.60
828.03	1683.43
828.20	1624.04
828.37	1630.18
828.54	1720.29
828.71	1814.50
828.89	1800.16
829.06	1705.96
829.23	1796.07
829.40	1656.81
829.57	1724.39
829.74	1748.97
829.91	1640.42
830.09	1609.70
830.26	1720.29
830.43	1787.88
830.60	1669.09
830.77	1691.62
830.94	1771.49
831.11	1736.68
831.28	1685.48
831.46	1720.29
831.63	1613.80
831.80	1675.24
831.97	1740.77
832.14	1705.96
832.31	1716.20
832.48	1773.54
832.65	1679.33
832.82	1638.38
832.99	1748.97
833.17	1650.66
833.34	1820.64
833.51	1761.25
833.68	1535.98
833.85	1693.67
834.02	1568.74
834.19	1687.53
834.36	1648.61
834.53	1751.01
834.70	1798.12
834.87	1796.07
835.04	1734.63
835.22	1642.47
835.39	1681.38
835.56	1615.85
835.73	1673.19
835.90	1761.25
836.07	1562.60
836.24	1705.96
836.41	1605.61
836.58	1734.63
836.75	1796.07
836.92	1791.97
837.09	1685.48
837.26	1732.58
837.43	1673.19
837.60	1671.14
837.77	1624.04
837.94	1777.64
838.12	1765.35
838.29	1742.82
838.46	1675.24
838.63	1587.18
838.80	1755.11
838.97	1779.68
839.14	1693.67
839.31	1576.94
839.48	1755.11
839.65	1712.10
839.82	1787.88
839.99	1742.82
840.16	1712.10
840.33	1624.04
840.50	1726.44
840.67	1693.67
840.84	1607.66
841.01	1753.06
841.18	1654.76
841.35	1718.25
841.52	1755.11
841.69	1830.88
841.86	1656.81
842.03	1667.05
842.20	1802.21
842.37	1771.49
842.54	1640.42
842.71	1744.87
842.88	1665.00
843.05	1802.21
843.22	1648.61
843.39	1824.74
843.56	1650.66
843.73	1697.77
843.90	1624.04
844.07	1683.43
844.24	1775.59
844.41	1753.06
844.58	1730.53
844.75	1783.78
844.92	1751.01
845.09	1687.53
845.26	1673.19
845.43	1751.01
845.60	1660.90
845.77	1775.59
845.94	1681.38
846.10	1740.77
846.27	1566.70
846.44	1611.75
846.61	1632.23
846.78	1669.09
846.95	1714.15
847.12	1634.28
847.29	1632.23
847.46	1681.38
847.63	1701.86
847.80	1658.85
847.97	1691.62
848.14	1820.64
848.31	1671.14
848.48	1662.95
848.65	1714.15
848.82	1587.18
848.98	1834.98
849.15	1789.92
849.32	1761.25
849.49	1662.95
849.66	1640.42
849.83	1697.77
850.00	1587.18
850.17	1734.63
850.34	1658.85
850.51	1669.09
850.68	1654.76
850.85	1806.31
851.01	1691.62
851.18	1724.39
851.35	1619.94
851.52	1699.81
851.69	1744.87
851.86	1591.27
852.03	1773.54
852.20	1736.68
852.37	1718.25
852.53	1581.03
852.70	1667.05
852.87	1730.53
853.04	1751.01
853.21	1705.96
853.38	1701.86
853.55	1724.39
853.72	1753.06
853.89	1710.05
854.05	1681.38
854.22	1710.05
854.39	1621.99
854.56	1730.53
854.73	1728.49
854.90	1599.46
855.07	1632.23
855.23	1636.33
855.40	1667.05
855.57	1609.70
855.74	1611.75
855.91	1908.71
856.08	1687.53
856.25	1554.41
856.41	1621.99
856.58	1591.27
856.75	1728.49
856.92	1621.99
857.09	1712.10
857.26	1646.57
857.42	1705.96
857.59	1845.22
857.76	1730.53
857.93	1724.39
858.10	1724.39
858.27	1658.85
858.43	1691.62
858.60	1671.14
858.77	1630.18
858.94	1607.66
859.11	1712.10
859.27	1658.85
859.44	1677.29
859.61	1744.87
859.78	1697.77
859.95	1677.29
860.12	1665.00
860.28	1720.29
860.45	1861.60
860.62	1718.25
860.79	1691.62
860.95	1671.14
861.12	1662.95
861.29	1695.72
861.46	1621.99
861.63	1677.29
861.79	1710.05
861.96	1673.19
862.13	1615.85
862.30	1767.40
862.47	1648.61
862.63	1638.38
862.80	1818.60
862.97	1753.06
863.14	1699.81
863.30	1755.11
863.47	1642.47
863.64	1783.78
863.81	1603.56
863.97	1697.77
864.14	1650.66
864.31	1746.92
864.48	1699.81
864.65	1687.53
864.81	1767.40
864.98	1691.62
865.15	1738.73
865.32	1777.64
865.48	1779.68
865.65	1779.68
865.82	1640.42
865.98	1738.73
866.15	1787.88
866.32	1701.86
866.49	1746.92
866.65	1820.64
866.82	1679.33
866.99	1744.87
867.16	1669.09
867.32	1675.24
867.49	1634.28
867.66	1634.28
867.83	1683.43
867.99	1660.90
868.16	1697.77
868.33	1656.81
868.49	1681.38
868.66	1705.96
868.83	1759.21
868.99	1660.90
869.16	1716.20
869.33	1710.05
869.50	1765.35
869.66	1683.43
869.83	1671.14
870.00	1644.52
870.16	1837.03
870.33	1718.25
870.50	1718.25
870.66	1648.61
870.83	1773.54
871.00	1720.29
871.17	1703.91
871.33	1798.12
871.50	1861.60
871.67	1644.52
871.83	1617.90
872.00	1808.36
872.17	1748.97
872.33	1810.40
872.50	1751.01
872.67	1712.10
872.83	1697.77
873.00	1777.64
873.17	1681.38
873.33	1777.64
873.50	1665.00
873.67	1703.91
873.83	1685.48
874.00	1736.68
874.16	1693.67
874.33	1658.85
874.50	1611.75
874.66	1724.39
874.83	1648.61
875.00	1765.35
875.16	1773.54
875.33	1765.35
875.50	1546.22
875.66	1681.38
875.83	1689.57
875.99	1789.92
876.16	1673.19
876.33	1658.85
876.49	1710.05
876.66	1703.91
876.83	1656.81
876.99	1595.37
877.16	1675.24
877.32	1662.95
877.49	1671.14
877.66	1757.16
877.82	1769.44
877.99	1718.25
878.15	1708.01
878.32	1724.39
878.49	1730.53
878.65	1599.46
878.82	1753.06
878.98	1636.33
879.15	1734.63
879.32	1728.49
879.48	1683.43
879.65	1640.42
879.81	1652.71
879.98	1695.72
880.15	1708.01
880.31	1767.40
880.48	1671.14
880.64	1677.29
880.81	1732.58
880.97	1814.50
881.14	1753.06
881.31	1589.22
881.47	1869.80
881.64	1681.38
881.80	1646.57
881.97	1730.53
882.13	1740.77
882.30	1630.18
882.47	1759.21
882.63	1673.19
882.80	1689.57
882.96	1658.85
883.13	1751.01
883.29	1673.19
883.46	1667.05
883.62	1773.54
883.79	1648.61
883.95	1710.05
884.12	1712.10
884.29	1718.25
884.45	1701.86
884.62	1740.77
884.78	1687.53
884.95	1773.54
885.11	1638.38
885.28	1732.58
885.44	1646.57
885.61	1716.20
885.77	1716.20
885.94	1701.86
886.10	1691.62
886.27	1640.42
886.43	1789.92
886.60	1716.20
886.76	1628.14
886.93	1630.18
887.09	1777.64
887.26	1617.90
887.42	1603.56
887.59	1738.73
887.75	1783.78
887.92	1759.21
888.08	1787.88
888.25	1828.84
888.41	1701.86
888.58	1656.81
888.74	1691.62
888.91	1701.86
>>>>>End Processed Spectral Data<<<<<
