SpectraSuite Data File
++++++++++++++++++++++++++++++++++++
Date: Mon Jun 06 13:20:57 CEST 2016
User: root
Dark Spectrum Present: No
Reference Spectrum Present: No
Number of Sampled Component Spectra: 1
Spectrometers: USB4C02835
Integration Time (usec): 100000 (USB4C02835)
Spectra Averaged: 1 (USB4C02835)
Boxcar Smoothing: 0 (USB4C02835)
Correct for Electrical Dark: No (USB4C02835)
Strobe/Lamp Enabled: No (USB4C02835)
Correct for Detector Non-linearity: No (USB4C02835)
Correct for Stray Light: No (USB4C02835)
Number of Pixels in Processed Spectrum: 3648
>>>>>Begin Processed Spectral Data<<<<<
177.47	1390.57
177.69	1390.57
177.91	1390.57
178.13	1366.00
178.36	1478.63
178.58	1673.19
178.80	1726.44
179.02	1640.42
179.24	1675.24
179.46	1689.57
179.68	1748.97
179.90	1652.71
180.13	1757.16
180.35	1685.48
180.57	1712.10
180.79	1755.11
181.01	1748.97
181.23	1808.36
181.45	1794.02
181.67	1718.25
181.90	1728.49
182.12	1695.72
182.34	1595.37
182.56	1767.40
182.78	1783.78
183.00	1671.14
183.22	1701.86
183.44	1574.89
183.66	1832.93
183.89	1738.73
184.11	1783.78
184.33	1673.19
184.55	1718.25
184.77	1744.87
184.99	1701.86
185.21	1691.62
185.43	1849.32
185.65	1648.61
185.87	1675.24
186.10	1877.99
186.32	1830.88
186.54	1753.06
186.76	1691.62
186.98	1714.15
187.20	1677.29
187.42	1634.28
187.64	1753.06
187.86	1675.24
188.08	1720.29
188.30	1710.05
188.52	1685.48
188.75	1738.73
188.97	1816.55
189.19	1671.14
189.41	1712.10
189.63	1638.38
189.85	1621.99
190.07	1656.81
190.29	1640.42
190.51	1687.53
190.73	1634.28
190.95	1742.82
191.17	1718.25
191.39	1617.90
191.61	1708.01
191.84	1681.38
192.06	1665.00
192.28	1658.85
192.50	1853.41
192.72	1791.97
192.94	1621.99
193.16	1705.96
193.38	1693.67
193.60	1746.92
193.82	1677.29
194.04	1810.40
194.26	1744.87
194.48	1685.48
194.70	1599.46
194.92	1689.57
195.14	1767.40
195.36	1619.94
195.58	1728.49
195.80	1724.39
196.02	1656.81
196.24	1619.94
196.46	1728.49
196.69	1662.95
196.91	1796.07
197.13	1753.06
197.35	1691.62
197.57	1734.63
197.79	1697.77
198.01	1671.14
198.23	1763.30
198.45	1693.67
198.67	1689.57
198.89	1683.43
199.11	1673.19
199.33	1652.71
199.55	1587.18
199.77	1712.10
199.99	1763.30
200.21	1687.53
200.43	1652.71
200.65	1632.23
200.87	1587.18
201.09	1699.81
201.31	1673.19
201.53	1767.40
201.75	1730.53
201.97	1687.53
202.19	1718.25
202.41	1697.77
202.63	1837.03
202.85	1742.82
203.07	1697.77
203.29	1687.53
203.51	1675.24
203.73	1591.27
203.95	1804.26
204.17	1669.09
204.39	1746.92
204.61	1615.85
204.83	1644.52
205.05	1734.63
205.27	1783.78
205.49	1826.79
205.71	1681.38
205.93	1542.12
206.15	1619.94
206.37	1714.15
206.59	1718.25
206.81	1675.24
207.03	1628.14
207.25	1671.14
207.47	1710.05
207.69	1689.57
207.91	1773.54
208.13	1787.88
208.34	1736.68
208.56	1617.90
208.78	1769.44
209.00	1652.71
209.22	1662.95
209.44	1685.48
209.66	1648.61
209.88	1667.05
210.10	1677.29
210.32	1732.58
210.54	1812.45
210.76	1673.19
210.98	1746.92
211.20	1603.56
211.42	1726.44
211.64	1699.81
211.86	1732.58
212.08	1744.87
212.30	1636.33
212.52	1671.14
212.74	1800.16
212.96	1716.20
213.17	1822.69
213.39	1763.30
213.61	1716.20
213.83	1708.01
214.05	1720.29
214.27	1740.77
214.49	1712.10
214.71	1681.38
214.93	1814.50
215.15	1673.19
215.37	1744.87
215.59	1589.22
215.81	1703.91
216.03	1761.25
216.24	1695.72
216.46	1705.96
216.68	1718.25
216.90	1718.25
217.12	1796.07
217.34	1665.00
217.56	1689.57
217.78	1796.07
218.00	1703.91
218.22	1632.23
218.44	1724.39
218.66	1757.16
218.87	1767.40
219.09	1748.97
219.31	1773.54
219.53	1769.44
219.75	1730.53
219.97	1736.68
220.19	1654.76
220.41	1712.10
220.63	1726.44
220.85	1724.39
221.06	1634.28
221.28	1767.40
221.50	1738.73
221.72	1742.82
221.94	1726.44
222.16	1609.70
222.38	1746.92
222.60	1687.53
222.82	1716.20
223.03	1761.25
223.25	1673.19
223.47	1701.86
223.69	1871.84
223.91	1740.77
224.13	1673.19
224.35	1605.61
224.57	1738.73
224.78	1787.88
225.00	1597.42
225.22	1734.63
225.44	1675.24
225.66	1837.03
225.88	1656.81
226.10	1736.68
226.32	1738.73
226.53	1703.91
226.75	1724.39
226.97	1609.70
227.19	1738.73
227.41	1701.86
227.63	1699.81
227.85	1662.95
228.06	1726.44
228.28	1632.23
228.50	1767.40
228.72	1587.18
228.94	1691.62
229.16	1548.26
229.37	1665.00
229.59	1675.24
229.81	1736.68
230.03	1658.85
230.25	1607.66
230.47	1576.94
230.69	1656.81
230.90	1820.64
231.12	1609.70
231.34	1681.38
231.56	1757.16
231.78	1685.48
232.00	1703.91
232.21	1654.76
232.43	1689.57
232.65	1624.04
232.87	1665.00
233.09	1630.18
233.30	1679.33
233.52	1761.25
233.74	1689.57
233.96	1671.14
234.18	1748.97
234.40	1679.33
234.61	1828.84
234.83	1708.01
235.05	1652.71
235.27	1785.83
235.49	1830.88
235.70	1677.29
235.92	1787.88
236.14	1697.77
236.36	1884.13
236.58	1650.66
236.79	1691.62
237.01	1751.01
237.23	1673.19
237.45	1824.74
237.67	1771.49
237.88	1744.87
238.10	1820.64
238.32	1617.90
238.54	1617.90
238.76	1683.43
238.97	1656.81
239.19	1658.85
239.41	1738.73
239.63	1720.29
239.85	1636.33
240.06	1693.67
240.28	1677.29
240.50	1748.97
240.72	1708.01
240.93	1617.90
241.15	1791.97
241.37	1671.14
241.59	1755.11
241.81	1675.24
242.02	1681.38
242.24	1685.48
242.46	1708.01
242.68	1675.24
242.89	1699.81
243.11	1734.63
243.33	1714.15
243.55	1771.49
243.76	1718.25
243.98	1671.14
244.20	1710.05
244.42	1650.66
244.64	1730.53
244.85	1671.14
245.07	1632.23
245.29	1701.86
245.51	1662.95
245.72	1652.71
245.94	1732.58
246.16	1683.43
246.38	1763.30
246.59	1609.70
246.81	1730.53
247.03	1669.09
247.24	1624.04
247.46	1607.66
247.68	1734.63
247.90	1669.09
248.11	1624.04
248.33	1730.53
248.55	1718.25
248.77	1646.57
248.98	1734.63
249.20	1765.35
249.42	1691.62
249.64	1722.34
249.85	1718.25
250.07	1675.24
250.29	1767.40
250.50	1757.16
250.72	1669.09
250.94	1683.43
251.16	1812.45
251.37	1837.03
251.59	1687.53
251.81	1660.90
252.02	1783.78
252.24	1656.81
252.46	1708.01
252.68	1669.09
252.89	1681.38
253.11	1652.71
253.33	1828.84
253.54	1751.01
253.76	1621.99
253.98	1648.61
254.20	1714.15
254.41	1624.04
254.63	1732.58
254.85	1640.42
255.06	1656.81
255.28	1753.06
255.50	1748.97
255.71	1726.44
255.93	1646.57
256.15	1693.67
256.36	1789.92
256.58	1632.23
256.80	1763.30
257.02	1742.82
257.23	1714.15
257.45	1716.20
257.67	1748.97
257.88	1673.19
258.10	1720.29
258.32	1675.24
258.53	1681.38
258.75	1773.54
258.97	1757.16
259.18	1722.34
259.40	1667.05
259.62	1822.69
259.83	1769.44
260.05	1697.77
260.27	1945.57
260.48	1794.02
260.70	1642.47
260.92	1740.77
261.13	1687.53
261.35	1667.05
261.57	1716.20
261.78	1595.37
262.00	1652.71
262.22	1740.77
262.43	1656.81
262.65	1677.29
262.86	1748.97
263.08	1753.06
263.30	1703.91
263.51	1644.52
263.73	1675.24
263.95	1785.83
264.16	1566.70
264.38	1648.61
264.60	1699.81
264.81	1796.07
265.03	1720.29
265.25	1767.40
265.46	1617.90
265.68	1701.86
265.89	1660.90
266.11	1603.56
266.33	1748.97
266.54	1791.97
266.76	1748.97
266.98	1689.57
267.19	1832.93
267.41	1779.68
267.62	1708.01
267.84	1640.42
268.06	1751.01
268.27	1675.24
268.49	1738.73
268.70	1755.11
268.92	1662.95
269.14	1628.14
269.35	1710.05
269.57	1669.09
269.79	1785.83
270.00	1681.38
270.22	1816.55
270.43	1593.32
270.65	1578.98
270.87	1761.25
271.08	1779.68
271.30	1767.40
271.51	1644.52
271.73	1687.53
271.95	1732.58
272.16	1703.91
272.38	1730.53
272.59	1705.96
272.81	1767.40
273.02	1632.23
273.24	1736.68
273.46	1685.48
273.67	1636.33
273.89	1669.09
274.10	1699.81
274.32	1734.63
274.54	1656.81
274.75	1714.15
274.97	1748.97
275.18	1781.73
275.40	1748.97
275.61	1613.80
275.83	1603.56
276.05	1665.00
276.26	1669.09
276.48	1775.59
276.69	1660.90
276.91	1683.43
277.12	1746.92
277.34	1746.92
277.55	1701.86
277.77	1646.57
277.99	1687.53
278.20	1626.09
278.42	1701.86
278.63	1665.00
278.85	1587.18
279.06	1665.00
279.28	1755.11
279.49	1785.83
279.71	1763.30
279.93	1746.92
280.14	1701.86
280.36	1648.61
280.57	1669.09
280.79	1736.68
281.00	1658.85
281.22	1626.09
281.43	1697.77
281.65	1607.66
281.86	1669.09
282.08	1726.44
282.29	1802.21
282.51	1665.00
282.73	1581.03
282.94	1656.81
283.16	1665.00
283.37	1761.25
283.59	1613.80
283.80	1736.68
284.02	1658.85
284.23	1699.81
284.45	1650.66
284.66	1558.50
284.88	1722.34
285.09	1767.40
285.31	1722.34
285.52	1746.92
285.74	1601.51
285.95	1673.19
286.17	1720.29
286.38	1703.91
286.60	1701.86
286.81	1703.91
287.03	1685.48
287.24	1585.13
287.46	1773.54
287.67	1662.95
287.89	1802.21
288.10	1675.24
288.32	1714.15
288.53	1789.92
288.75	1714.15
288.96	1757.16
289.18	1671.14
289.39	1677.29
289.61	1693.67
289.82	1834.98
290.04	1820.64
290.25	1689.57
290.47	1658.85
290.68	1644.52
290.90	1691.62
291.11	1660.90
291.33	1689.57
291.54	1662.95
291.76	1648.61
291.97	1708.01
292.18	1765.35
292.40	1720.29
292.61	1595.37
292.83	1841.12
293.04	1720.29
293.26	1679.33
293.47	1689.57
293.69	1708.01
293.90	1648.61
294.12	1763.30
294.33	1732.58
294.55	1714.15
294.76	1755.11
294.97	1785.83
295.19	1806.31
295.40	1738.73
295.62	1607.66
295.83	1777.64
296.05	1589.22
296.26	1720.29
296.48	1632.23
296.69	1736.68
296.90	1628.14
297.12	1781.73
297.33	1763.30
297.55	1650.66
297.76	1695.72
297.98	1744.87
298.19	1712.10
298.41	1689.57
298.62	1607.66
298.83	1802.21
299.05	1710.05
299.26	1695.72
299.48	1673.19
299.69	1796.07
299.90	1757.16
300.12	1671.14
300.33	1705.96
300.55	1710.05
300.76	1730.53
300.98	1689.57
301.19	1746.92
301.40	1685.48
301.62	1695.72
301.83	1777.64
302.05	1738.73
302.26	1712.10
302.47	1652.71
302.69	1687.53
302.90	1671.14
303.12	1574.89
303.33	1705.96
303.54	1761.25
303.76	1742.82
303.97	1712.10
304.19	1775.59
304.40	1621.99
304.61	1693.67
304.83	1857.51
305.04	1728.49
305.26	1705.96
305.47	1650.66
305.68	1658.85
305.90	1601.51
306.11	1683.43
306.33	1699.81
306.54	1619.94
306.75	1660.90
306.97	1603.56
307.18	1689.57
307.39	1703.91
307.61	1751.01
307.82	1642.47
308.04	1763.30
308.25	1634.28
308.46	1689.57
308.68	1708.01
308.89	1712.10
309.10	1740.77
309.32	1755.11
309.53	1681.38
309.74	1728.49
309.96	1705.96
310.17	1656.81
310.39	1675.24
310.60	1808.36
310.81	1621.99
311.03	1693.67
311.24	1748.97
311.45	1667.05
311.67	1740.77
311.88	1771.49
312.09	1699.81
312.31	1587.18
312.52	1779.68
312.73	1728.49
312.95	1619.94
313.16	1605.61
313.37	1734.63
313.59	1656.81
313.80	1693.67
314.01	1808.36
314.23	1689.57
314.44	1761.25
314.65	1677.29
314.87	1583.08
315.08	1652.71
315.29	1701.86
315.51	1646.57
315.72	1626.09
315.93	1804.26
316.15	1720.29
316.36	1685.48
316.57	1650.66
316.79	1744.87
317.00	1634.28
317.21	1816.55
317.43	1665.00
317.64	1763.30
317.85	1628.14
318.07	1712.10
318.28	1697.77
318.49	1785.83
318.70	1847.27
318.92	1834.98
319.13	1884.13
319.34	1845.22
319.56	1826.79
319.77	1751.01
319.98	1824.74
320.20	1742.82
320.41	1734.63
320.62	1791.97
320.83	1562.60
321.05	1816.55
321.26	1732.58
321.47	1746.92
321.69	1728.49
321.90	1652.71
322.11	1718.25
322.32	1691.62
322.54	1794.02
322.75	1648.61
322.96	1814.50
323.18	1601.51
323.39	1634.28
323.60	1644.52
323.81	1820.64
324.03	1634.28
324.24	1703.91
324.45	1705.96
324.66	1708.01
324.88	1763.30
325.09	1828.84
325.30	1669.09
325.52	1759.21
325.73	1746.92
325.94	1632.23
326.15	1671.14
326.37	1611.75
326.58	1740.77
326.79	1789.92
327.00	1718.25
327.22	1787.88
327.43	1685.48
327.64	1634.28
327.85	1738.73
328.07	1751.01
328.28	1812.45
328.49	1703.91
328.70	1738.73
328.92	1789.92
329.13	1722.34
329.34	1701.86
329.55	1728.49
329.76	1736.68
329.98	1722.34
330.19	1837.03
330.40	1769.44
330.61	1693.67
330.83	1740.77
331.04	1656.81
331.25	1820.64
331.46	1652.71
331.68	1511.40
331.89	1755.11
332.10	1710.05
332.31	1554.41
332.52	1656.81
332.74	1765.35
332.95	1583.08
333.16	1609.70
333.37	1738.73
333.58	1716.20
333.80	1734.63
334.01	1599.46
334.22	1703.91
334.43	1599.46
334.64	1681.38
334.86	1566.70
335.07	1589.22
335.28	1773.54
335.49	1648.61
335.70	1720.29
335.92	1640.42
336.13	1863.65
336.34	1736.68
336.55	1697.77
336.76	1656.81
336.98	1609.70
337.19	1632.23
337.40	1705.96
337.61	1818.60
337.82	1654.76
338.04	1722.34
338.25	1656.81
338.46	1658.85
338.67	1728.49
338.88	1624.04
339.09	1656.81
339.31	1656.81
339.52	1693.67
339.73	1626.09
339.94	1648.61
340.15	1771.49
340.36	1691.62
340.58	1708.01
340.79	1613.80
341.00	1718.25
341.21	1681.38
341.42	1812.45
341.63	1669.09
341.85	1771.49
342.06	1685.48
342.27	1665.00
342.48	1775.59
342.69	1701.86
342.90	1769.44
343.12	1732.58
343.33	1708.01
343.54	1683.43
343.75	1771.49
343.96	1689.57
344.17	1665.00
344.38	1703.91
344.60	1691.62
344.81	1701.86
345.02	1679.33
345.23	1714.15
345.44	1789.92
345.65	1724.39
345.86	1759.21
346.07	1714.15
346.29	1714.15
346.50	1742.82
346.71	1693.67
346.92	1808.36
347.13	1810.40
347.34	1808.36
347.55	1609.70
347.76	1736.68
347.98	1615.85
348.19	1656.81
348.40	1730.53
348.61	1673.19
348.82	1720.29
349.03	1710.05
349.24	1652.71
349.45	1871.84
349.66	1624.04
349.88	1687.53
350.09	1638.38
350.30	1787.88
350.51	1734.63
350.72	1724.39
350.93	1697.77
351.14	1712.10
351.35	1691.62
351.56	1730.53
351.77	1703.91
351.99	1753.06
352.20	1775.59
352.41	1708.01
352.62	1597.42
352.83	1646.57
353.04	1777.64
353.25	1648.61
353.46	1720.29
353.67	1785.83
353.88	1578.98
354.09	1757.16
354.30	1757.16
354.52	1689.57
354.73	1701.86
354.94	1609.70
355.15	1689.57
355.36	1802.21
355.57	1628.14
355.78	1775.59
355.99	1638.38
356.20	1734.63
356.41	1714.15
356.62	1757.16
356.83	1699.81
357.04	1759.21
357.25	1624.04
357.46	1644.52
357.68	1568.74
357.89	1632.23
358.10	1671.14
358.31	1675.24
358.52	1695.72
358.73	1677.29
358.94	1611.75
359.15	1626.09
359.36	1730.53
359.57	1714.15
359.78	1701.86
359.99	1718.25
360.20	1654.76
360.41	1708.01
360.62	1689.57
360.83	1724.39
361.04	1667.05
361.25	1673.19
361.46	1849.32
361.67	1703.91
361.88	1703.91
362.09	1681.38
362.30	1652.71
362.51	1675.24
362.72	1705.96
362.93	1759.21
363.14	1695.72
363.35	1708.01
363.56	1675.24
363.78	1759.21
363.99	1837.03
364.20	1671.14
364.41	1730.53
364.62	1787.88
364.83	1646.57
365.04	1710.05
365.25	1662.95
365.46	1757.16
365.67	1675.24
365.88	1589.22
366.09	1685.48
366.30	1716.20
366.51	1683.43
366.72	1703.91
366.93	1646.57
367.14	1724.39
367.35	1804.26
367.56	1701.86
367.77	1812.45
367.98	1605.61
368.18	1722.34
368.39	1734.63
368.60	1646.57
368.81	1753.06
369.02	1716.20
369.23	1746.92
369.44	1619.94
369.65	1621.99
369.86	1732.58
370.07	1720.29
370.28	1593.32
370.49	1734.63
370.70	1787.88
370.91	1677.29
371.12	1638.38
371.33	1753.06
371.54	1699.81
371.75	1665.00
371.96	1595.37
372.17	1665.00
372.38	1671.14
372.59	1791.97
372.80	1701.86
373.01	1722.34
373.22	1732.58
373.43	1724.39
373.64	1630.18
373.85	1675.24
374.06	1757.16
374.26	1767.40
374.47	1699.81
374.68	1683.43
374.89	1710.05
375.10	1640.42
375.31	1679.33
375.52	1720.29
375.73	1675.24
375.94	1617.90
376.15	1779.68
376.36	1742.82
376.57	1638.38
376.78	1609.70
376.99	1689.57
377.20	1736.68
377.40	1699.81
377.61	1775.59
377.82	1624.04
378.03	1751.01
378.24	1714.15
378.45	1826.79
378.66	1751.01
378.87	1552.36
379.08	1630.18
379.29	1650.66
379.50	1755.11
379.71	1685.48
379.91	1808.36
380.12	1685.48
380.33	1812.45
380.54	1669.09
380.75	1732.58
380.96	1630.18
381.17	1734.63
381.38	1730.53
381.59	1769.44
381.80	1675.24
382.00	1888.23
382.21	1699.81
382.42	1773.54
382.63	1839.08
382.84	1730.53
383.05	1720.29
383.26	1818.60
383.47	1738.73
383.68	1703.91
383.88	1746.92
384.09	1726.44
384.30	1804.26
384.51	1673.19
384.72	1673.19
384.93	1658.85
385.14	1722.34
385.35	1732.58
385.55	1636.33
385.76	1773.54
385.97	1677.29
386.18	1667.05
386.39	1667.05
386.60	1689.57
386.81	1781.73
387.02	1697.77
387.22	1673.19
387.43	1820.64
387.64	1765.35
387.85	1853.41
388.06	2242.53
388.27	4132.80
388.48	6848.41
388.68	8138.63
388.89	9865.07
389.10	9795.43
389.31	8494.97
389.52	7692.17
389.73	6719.39
389.93	6098.85
390.14	5728.17
390.35	5181.36
390.56	4431.80
390.77	3741.64
390.98	2951.12
391.18	2502.62
391.39	2080.74
391.60	1777.64
391.81	1824.74
392.02	1687.53
392.23	1837.03
392.43	1734.63
392.64	1863.65
392.85	1812.45
393.06	1744.87
393.27	1695.72
393.47	1683.43
393.68	1751.01
393.89	1714.15
394.10	1685.48
394.31	1722.34
394.52	1656.81
394.72	1640.42
394.93	1796.07
395.14	1705.96
395.35	1691.62
395.56	1636.33
395.76	1718.25
395.97	1765.35
396.18	1841.12
396.39	1810.40
396.60	1986.53
396.80	1918.95
397.01	1830.88
397.22	1832.93
397.43	1927.14
397.64	1775.59
397.84	1732.58
398.05	1851.36
398.26	1671.14
398.47	1824.74
398.67	1812.45
398.88	1746.92
399.09	1787.88
399.30	1689.57
399.51	1798.12
399.71	1603.56
399.92	1720.29
400.13	1693.67
400.34	1705.96
400.54	1740.77
400.75	1832.93
400.96	1751.01
401.17	1820.64
401.37	1759.21
401.58	1716.20
401.79	1693.67
402.00	1935.33
402.21	1984.48
402.41	1941.47
402.62	2037.73
402.83	1986.53
403.04	1998.82
403.24	2045.92
403.45	1927.14
403.66	1845.22
403.87	1906.66
404.07	1873.89
404.28	1882.08
404.49	1863.65
404.70	1843.17
404.90	1769.44
405.11	1724.39
405.32	1746.92
405.52	1630.18
405.73	1626.09
405.94	1695.72
406.15	1673.19
406.35	1734.63
406.56	1734.63
406.77	1759.21
406.98	1701.86
407.18	1669.09
407.39	1771.49
407.60	1697.77
407.80	1656.81
408.01	1673.19
408.22	1738.73
408.43	1669.09
408.63	1714.15
408.84	1708.01
409.05	1736.68
409.25	1619.94
409.46	1669.09
409.67	1587.18
409.88	1669.09
410.08	1728.49
410.29	1705.96
410.50	1742.82
410.70	1634.28
410.91	1630.18
411.12	1683.43
411.32	1705.96
411.53	1644.52
411.74	1740.77
411.95	1769.44
412.15	1734.63
412.36	1779.68
412.57	1667.05
412.77	1761.25
412.98	1654.76
413.19	1714.15
413.39	1781.73
413.60	1755.11
413.81	1828.84
414.01	1617.90
414.22	1757.16
414.43	1693.67
414.63	1720.29
414.84	1738.73
415.05	1746.92
415.25	1640.42
415.46	1746.92
415.67	1718.25
415.87	1734.63
416.08	1716.20
416.29	1656.81
416.49	1640.42
416.70	1667.05
416.91	1691.62
417.11	1578.98
417.32	1777.64
417.53	1759.21
417.73	1708.01
417.94	1703.91
418.15	1732.58
418.35	1736.68
418.56	1714.15
418.77	1806.31
418.97	1708.01
419.18	1705.96
419.38	1619.94
419.59	1662.95
419.80	1800.16
420.00	1656.81
420.21	1724.39
420.42	1738.73
420.62	1716.20
420.83	1677.29
421.04	1648.61
421.24	1693.67
421.45	1761.25
421.65	1683.43
421.86	1689.57
422.07	1679.33
422.27	1798.12
422.48	1708.01
422.69	1593.32
422.89	1693.67
423.10	1617.90
423.30	1617.90
423.51	1714.15
423.72	1753.06
423.92	1740.77
424.13	1681.38
424.33	1748.97
424.54	1787.88
424.75	1681.38
424.95	1716.20
425.16	1724.39
425.36	1648.61
425.57	1789.92
425.78	1771.49
425.98	1736.68
426.19	1685.48
426.39	1675.24
426.60	1751.01
426.81	1726.44
427.01	1646.57
427.22	1742.82
427.42	1617.90
427.63	1654.76
427.83	1689.57
428.04	1787.88
428.25	1771.49
428.45	1763.30
428.66	1744.87
428.86	1734.63
429.07	1724.39
429.28	1755.11
429.48	1691.62
429.69	1673.19
429.89	1669.09
430.10	1640.42
430.30	1822.69
430.51	1708.01
430.71	1712.10
430.92	1654.76
431.13	1662.95
431.33	1697.77
431.54	1708.01
431.74	1800.16
431.95	1853.41
432.15	1671.14
432.36	1658.85
432.56	1802.21
432.77	1849.32
432.98	1794.02
433.18	1714.15
433.39	1724.39
433.59	1679.33
433.80	1839.08
434.00	1951.71
434.21	1667.05
434.41	1624.04
434.62	1806.31
434.82	1660.90
435.03	1648.61
435.23	1740.77
435.44	1615.85
435.64	1728.49
435.85	1660.90
436.06	1769.44
436.26	1794.02
436.47	1712.10
436.67	1638.38
436.88	1742.82
437.08	1802.21
437.29	1724.39
437.49	1787.88
437.70	1710.05
437.90	1757.16
438.11	1841.12
438.31	1763.30
438.52	1812.45
438.72	1906.66
438.93	1923.04
439.13	1798.12
439.34	1736.68
439.54	1714.15
439.75	1783.78
439.95	1783.78
440.16	1662.95
440.36	1769.44
440.57	1759.21
440.77	1765.35
440.98	1722.34
441.18	1798.12
441.39	1685.48
441.59	1671.14
441.80	1843.17
442.00	1679.33
442.21	1748.97
442.41	1630.18
442.62	1779.68
442.82	1718.25
443.02	1730.53
443.23	1740.77
443.43	1697.77
443.64	1787.88
443.84	1705.96
444.05	1800.16
444.25	1708.01
444.46	1712.10
444.66	1648.61
444.87	1757.16
445.07	1703.91
445.28	1759.21
445.48	1937.38
445.69	1781.73
445.89	1820.64
446.09	1783.78
446.30	1953.76
446.50	2641.88
446.71	3784.65
446.91	4341.69
447.12	4618.17
447.32	4724.66
447.53	4280.25
447.73	3944.39
447.93	3540.94
448.14	3299.28
448.34	3135.44
448.55	2977.75
448.75	2854.87
448.96	2707.41
449.16	2398.17
449.36	2240.48
449.57	2090.98
449.77	1904.61
449.98	1726.44
450.18	1841.12
450.39	1873.89
450.59	1771.49
450.79	1742.82
451.00	1671.14
451.20	1814.50
451.41	1677.29
451.61	1662.95
451.81	1685.48
452.02	1662.95
452.22	1732.58
452.43	1718.25
452.63	1677.29
452.84	1705.96
453.04	1613.80
453.24	1677.29
453.45	1665.00
453.65	1720.29
453.86	1712.10
454.06	1748.97
454.26	1767.40
454.47	1732.58
454.67	1742.82
454.87	1748.97
455.08	1744.87
455.28	1796.07
455.49	1779.68
455.69	1689.57
455.89	1865.70
456.10	1740.77
456.30	1708.01
456.51	1791.97
456.71	1726.44
456.91	1771.49
457.12	1724.39
457.32	1726.44
457.52	1656.81
457.73	1769.44
457.93	1703.91
458.14	1722.34
458.34	1646.57
458.54	1662.95
458.75	1789.92
458.95	1865.70
459.15	1734.63
459.36	1767.40
459.56	1804.26
459.76	1847.27
459.97	1746.92
460.17	1673.19
460.37	1728.49
460.58	1765.35
460.78	1732.58
460.99	1677.29
461.19	1718.25
461.39	1677.29
461.60	1697.77
461.80	1650.66
462.00	1677.29
462.21	1769.44
462.41	1683.43
462.61	1603.56
462.82	1738.73
463.02	1693.67
463.22	1634.28
463.43	1798.12
463.63	1699.81
463.83	1830.88
464.04	1800.16
464.24	1714.15
464.44	1677.29
464.64	1712.10
464.85	1771.49
465.05	1695.72
465.25	1742.82
465.46	1748.97
465.66	1822.69
465.86	1812.45
466.07	1751.01
466.27	1669.09
466.47	1587.18
466.68	1675.24
466.88	1781.73
467.08	1769.44
467.29	1775.59
467.49	1830.88
467.69	1660.90
467.89	1734.63
468.10	1699.81
468.30	1689.57
468.50	1798.12
468.71	1689.57
468.91	1671.14
469.11	1841.12
469.31	1714.15
469.52	1667.05
469.72	1779.68
469.92	1802.21
470.13	1744.87
470.33	1734.63
470.53	1767.40
470.73	2084.83
470.94	2291.68
471.14	2330.59
471.34	2547.67
471.54	2424.80
471.75	2238.43
471.95	2115.55
472.15	1935.33
472.36	2123.74
472.56	2033.63
472.76	2015.20
472.96	2031.58
473.17	1972.19
473.37	1916.90
473.57	1699.81
473.77	1820.64
473.98	1636.33
474.18	1740.77
474.38	1863.65
474.58	1703.91
474.79	1691.62
474.99	1763.30
475.19	1775.59
475.39	1617.90
475.60	1728.49
475.80	1740.77
476.00	1738.73
476.20	1644.52
476.41	1673.19
476.61	1783.78
476.81	1765.35
477.01	1685.48
477.21	1820.64
477.42	1773.54
477.62	1695.72
477.82	1800.16
478.02	1683.43
478.23	1773.54
478.43	1632.23
478.63	1669.09
478.83	1720.29
479.03	1732.58
479.24	1865.70
479.44	1771.49
479.64	1609.70
479.84	1626.09
480.04	1693.67
480.25	1746.92
480.45	1673.19
480.65	1695.72
480.85	1734.63
481.06	1691.62
481.26	1808.36
481.46	1705.96
481.66	1759.21
481.86	1701.86
482.06	1847.27
482.27	1693.67
482.47	1710.05
482.67	1771.49
482.87	1734.63
483.07	1787.88
483.28	1720.29
483.48	1771.49
483.68	1689.57
483.88	1652.71
484.08	1636.33
484.29	1646.57
484.49	1689.57
484.69	1611.75
484.89	1757.16
485.09	1800.16
485.29	1724.39
485.50	1705.96
485.70	1607.66
485.90	1798.12
486.10	1689.57
486.30	1720.29
486.50	1695.72
486.71	1767.40
486.91	1689.57
487.11	1810.40
487.31	1669.09
487.51	1767.40
487.71	1621.99
487.91	1685.48
488.12	1654.76
488.32	1591.27
488.52	1607.66
488.72	1605.61
488.92	1806.31
489.12	1726.44
489.32	1730.53
489.53	1673.19
489.73	1638.38
489.93	1787.88
490.13	1718.25
490.33	1601.51
490.53	1779.68
490.73	1798.12
490.94	1648.61
491.14	1787.88
491.34	1906.66
491.54	2086.88
491.74	2492.38
491.94	2828.24
492.14	2953.17
492.34	3016.66
492.54	2729.94
492.75	2535.39
492.95	2506.71
493.15	2291.68
493.35	2201.57
493.55	2183.13
493.75	2168.80
493.95	2164.70
494.15	2013.15
494.35	1890.28
494.56	1851.36
494.76	1746.92
494.96	1798.12
495.16	1765.35
495.36	1695.72
495.56	1796.07
495.76	1658.85
495.96	1730.53
496.16	1652.71
496.36	1765.35
496.56	1753.06
496.77	1693.67
496.97	1693.67
497.17	1785.83
497.37	1710.05
497.57	1691.62
497.77	1652.71
497.97	1705.96
498.17	1695.72
498.37	1669.09
498.57	1728.49
498.77	1621.99
498.97	1691.62
499.17	1894.37
499.38	1763.30
499.58	1767.40
499.78	1726.44
499.98	1783.78
500.18	1683.43
500.38	1722.34
500.58	1945.57
500.78	2535.39
500.98	4507.58
501.18	5869.48
501.38	6793.11
501.58	7034.77
501.78	6606.75
501.98	5566.38
502.18	4958.13
502.38	4384.70
502.58	4077.51
502.78	3706.82
502.98	3657.67
503.18	3547.08
503.38	3137.49
503.59	2772.95
503.79	2623.45
503.99	2435.03
504.19	2220.00
504.39	2209.76
504.59	2193.37
504.79	2045.92
504.99	2084.83
505.19	1869.80
505.39	1865.70
505.59	1935.33
505.79	1853.41
505.99	1898.47
506.19	1839.08
506.39	1867.75
506.59	1748.97
506.79	1771.49
506.99	1808.36
507.19	1734.63
507.39	1765.35
507.59	1726.44
507.79	1734.63
507.99	1677.29
508.19	1689.57
508.39	1724.39
508.59	1697.77
508.79	1812.45
508.99	1839.08
509.19	1693.67
509.39	1804.26
509.59	1728.49
509.79	1665.00
509.99	1744.87
510.19	1763.30
510.39	1785.83
510.59	1708.01
510.79	1775.59
510.99	1687.53
511.19	1716.20
511.39	1712.10
511.59	1787.88
511.79	1773.54
511.99	1783.78
512.19	1824.74
512.38	1775.59
512.58	1726.44
512.78	1779.68
512.98	1732.58
513.18	1861.60
513.38	1677.29
513.58	1789.92
513.78	1740.77
513.98	1716.20
514.18	1708.01
514.38	1660.90
514.58	1757.16
514.78	1662.95
514.98	1673.19
515.18	1759.21
515.38	1681.38
515.58	1765.35
515.78	1681.38
515.98	1716.20
516.18	1712.10
516.38	1748.97
516.57	1718.25
516.77	1828.84
516.97	1783.78
517.17	1671.14
517.37	1722.34
517.57	1767.40
517.77	1726.44
517.97	1716.20
518.17	1732.58
518.37	1642.47
518.57	1697.77
518.77	1726.44
518.97	1718.25
519.16	1724.39
519.36	1787.88
519.56	1748.97
519.76	1726.44
519.96	1781.73
520.16	1822.69
520.36	1665.00
520.56	1779.68
520.76	1677.29
520.96	1675.24
521.16	1763.30
521.35	1830.88
521.55	1818.60
521.75	1708.01
521.95	1732.58
522.15	1730.53
522.35	1677.29
522.55	1675.24
522.75	1808.36
522.95	1722.34
523.14	1705.96
523.34	1816.55
523.54	1708.01
523.74	1738.73
523.94	1699.81
524.14	1656.81
524.34	1699.81
524.54	1777.64
524.73	1675.24
524.93	1763.30
525.13	1734.63
525.33	1609.70
525.53	1826.79
525.73	1798.12
525.93	1822.69
526.13	1679.33
526.32	1753.06
526.52	1847.27
526.72	1730.53
526.92	1812.45
527.12	1761.25
527.32	1714.15
527.52	1734.63
527.71	1755.11
527.91	1708.01
528.11	1673.19
528.31	1804.26
528.51	1638.38
528.71	1751.01
528.90	1722.34
529.10	1787.88
529.30	1808.36
529.50	1656.81
529.70	1748.97
529.90	1697.77
530.09	1761.25
530.29	1710.05
530.49	1685.48
530.69	1812.45
530.89	1720.29
531.09	1818.60
531.28	1677.29
531.48	1810.40
531.68	1714.15
531.88	1748.97
532.08	1701.86
532.28	1718.25
532.47	1728.49
532.67	1785.83
532.87	1734.63
533.07	1701.86
533.27	1779.68
533.46	1761.25
533.66	1818.60
533.86	1738.73
534.06	1724.39
534.26	1818.60
534.45	1689.57
534.65	1787.88
534.85	1685.48
535.05	1677.29
535.25	1785.83
535.44	1738.73
535.64	1746.92
535.84	1673.19
536.04	1742.82
536.24	1648.61
536.43	1667.05
536.63	1740.77
536.83	1705.96
537.03	1767.40
537.22	1732.58
537.42	1634.28
537.62	1736.68
537.82	1687.53
538.02	1824.74
538.21	1824.74
538.41	1863.65
538.61	1746.92
538.81	1771.49
539.00	1767.40
539.20	1671.14
539.40	1705.96
539.60	1703.91
539.79	1751.01
539.99	1759.21
540.19	1646.57
540.39	1693.67
540.58	1726.44
540.78	1820.64
540.98	1714.15
541.18	1775.59
541.37	1853.41
541.57	1718.25
541.77	1736.68
541.97	1697.77
542.16	1667.05
542.36	1685.48
542.56	1744.87
542.76	1867.75
542.95	1804.26
543.15	1812.45
543.35	1755.11
543.54	1648.61
543.74	1671.14
543.94	1783.78
544.14	1665.00
544.33	1802.21
544.53	1726.44
544.73	1781.73
544.93	1699.81
545.12	1699.81
545.32	1751.01
545.52	1724.39
545.71	1679.33
545.91	1753.06
546.11	1703.91
546.30	1656.81
546.50	1746.92
546.70	1642.47
546.90	1785.83
547.09	1574.89
547.29	1730.53
547.49	1712.10
547.68	1732.58
547.88	1726.44
548.08	1812.45
548.27	2084.83
548.47	1669.09
548.67	1744.87
548.87	1658.85
549.06	1665.00
549.26	1714.15
549.46	1683.43
549.65	1699.81
549.85	1695.72
550.05	1777.64
550.24	1628.14
550.44	1781.73
550.64	1738.73
550.83	1744.87
551.03	1837.03
551.23	1796.07
551.42	1851.36
551.62	1761.25
551.82	1730.53
552.01	1785.83
552.21	1798.12
552.41	1734.63
552.60	1759.21
552.80	1705.96
553.00	1771.49
553.19	1730.53
553.39	1832.93
553.59	1595.37
553.78	1755.11
553.98	1794.02
554.17	1697.77
554.37	1771.49
554.57	1720.29
554.76	1724.39
554.96	1667.05
555.16	1703.91
555.35	1695.72
555.55	1722.34
555.75	1650.66
555.94	1757.16
556.14	1642.47
556.33	1820.64
556.53	1708.01
556.73	1716.20
556.92	1796.07
557.12	1753.06
557.32	1808.36
557.51	1841.12
557.71	1763.30
557.90	1820.64
558.10	1873.89
558.30	1744.87
558.49	1738.73
558.69	1773.54
558.88	1757.16
559.08	1689.57
559.28	1685.48
559.47	1730.53
559.67	1804.26
559.86	1806.31
560.06	1732.58
560.26	1804.26
560.45	1685.48
560.65	1734.63
560.84	1757.16
561.04	1759.21
561.24	1714.15
561.43	1632.23
561.63	1794.02
561.82	1826.79
562.02	1802.21
562.22	1699.81
562.41	1710.05
562.61	1724.39
562.80	1667.05
563.00	1955.81
563.19	1742.82
563.39	1728.49
563.59	1779.68
563.78	1701.86
563.98	1644.52
564.17	1718.25
564.37	1683.43
564.56	1753.06
564.76	1638.38
564.96	1812.45
565.15	1712.10
565.35	1796.07
565.54	1671.14
565.74	1779.68
565.93	1777.64
566.13	1755.11
566.32	1773.54
566.52	1785.83
566.71	1732.58
566.91	1808.36
567.11	1677.29
567.30	1703.91
567.50	1701.86
567.69	1798.12
567.89	1681.38
568.08	1679.33
568.28	1701.86
568.47	1699.81
568.67	1675.24
568.86	1693.67
569.06	1808.36
569.25	1775.59
569.45	1730.53
569.64	1665.00
569.84	1722.34
570.04	1748.97
570.23	1660.90
570.43	1716.20
570.62	1689.57
570.82	1867.75
571.01	1730.53
571.21	1667.05
571.40	1726.44
571.60	1783.78
571.79	1773.54
571.99	1812.45
572.18	1667.05
572.38	1718.25
572.57	1665.00
572.77	1742.82
572.96	1828.84
573.16	1787.88
573.35	1714.15
573.55	1970.15
573.74	1730.53
573.94	1757.16
574.13	1751.01
574.33	1818.60
574.52	1832.93
574.71	1744.87
574.91	1751.01
575.10	1683.43
575.30	1746.92
575.49	1730.53
575.69	1701.86
575.88	1757.16
576.08	1671.14
576.27	1824.74
576.47	1689.57
576.66	1806.31
576.86	1841.12
577.05	1798.12
577.25	1746.92
577.44	1845.22
577.64	1705.96
577.83	1773.54
578.02	1720.29
578.22	1773.54
578.41	1865.70
578.61	1759.21
578.80	1630.18
579.00	1791.97
579.19	1740.77
579.39	1724.39
579.58	1857.51
579.77	1740.77
579.97	1812.45
580.16	1773.54
580.36	1767.40
580.55	1863.65
580.75	1843.17
580.94	1755.11
581.13	1796.07
581.33	1865.70
581.52	1748.97
581.72	1853.41
581.91	1906.66
582.11	1691.62
582.30	1818.60
582.49	1744.87
582.69	1935.33
582.88	1753.06
583.08	1751.01
583.27	1830.88
583.47	1701.86
583.66	1675.24
583.85	1648.61
584.05	1718.25
584.24	1785.83
584.44	1800.16
584.63	1812.45
584.82	1751.01
585.02	1791.97
585.21	1824.74
585.41	1802.21
585.60	1767.40
585.79	1916.90
585.99	1902.56
586.18	1920.99
586.37	2207.71
586.57	3358.67
586.76	10008.42
586.96	24381.07
587.15	34276.85
587.34	40504.73
587.54	42057.09
587.73	36371.92
587.93	26353.26
588.12	21479.10
588.31	18306.79
588.51	16453.38
588.70	14894.88
588.89	14184.23
589.09	12619.58
589.28	11056.98
589.47	9394.03
589.67	7909.26
589.86	6404.00
590.06	4886.45
590.25	3852.23
590.44	3231.69
590.64	2504.67
590.83	2226.14
591.02	2123.74
591.22	1925.09
591.41	1910.75
591.60	1781.73
591.80	2021.35
591.99	1796.07
592.18	1789.92
592.38	1834.98
592.57	1697.77
592.76	1808.36
592.96	1755.11
593.15	1789.92
593.34	1783.78
593.54	1781.73
593.73	1767.40
593.92	1765.35
594.12	1738.73
594.31	1753.06
594.50	1789.92
594.70	1755.11
594.89	1859.56
595.08	1679.33
595.28	1765.35
595.47	1957.86
595.66	1779.68
595.86	1722.34
596.05	1789.92
596.24	1753.06
596.43	1855.46
596.63	1834.98
596.82	1724.39
597.01	1736.68
597.21	1867.75
597.40	1814.50
597.59	1689.57
597.79	1728.49
597.98	1800.16
598.17	1746.92
598.36	1787.88
598.56	1837.03
598.75	1662.95
598.94	1828.84
599.14	1720.29
599.33	1667.05
599.52	1746.92
599.71	1820.64
599.91	1763.30
600.10	1751.01
600.29	1755.11
600.48	1720.29
600.68	1724.39
600.87	1820.64
601.06	1705.96
601.26	1779.68
601.45	1757.16
601.64	1810.40
601.83	1697.77
602.03	1705.96
602.22	1665.00
602.41	1820.64
602.60	1826.79
602.80	1826.79
602.99	1710.05
603.18	1710.05
603.37	1714.15
603.57	1796.07
603.76	1847.27
603.95	1773.54
604.14	1693.67
604.34	1613.80
604.53	1773.54
604.72	1720.29
604.91	1773.54
605.10	1769.44
605.30	1673.19
605.49	1816.55
605.68	1757.16
605.87	1705.96
606.07	1648.61
606.26	1738.73
606.45	1781.73
606.64	1755.11
606.84	1652.71
607.03	1765.35
607.22	1753.06
607.41	1677.29
607.60	1646.57
607.80	1834.98
607.99	1681.38
608.18	1671.14
608.37	1742.82
608.56	1734.63
608.76	1804.26
608.95	1849.32
609.14	1699.81
609.33	1787.88
609.52	1804.26
609.72	1730.53
609.91	1740.77
610.10	1755.11
610.29	1888.23
610.48	1763.30
610.68	1810.40
610.87	1650.66
611.06	1789.92
611.25	1757.16
611.44	1767.40
611.63	1708.01
611.83	1720.29
612.02	1607.66
612.21	1763.30
612.40	1638.38
612.59	1621.99
612.79	1644.52
612.98	1738.73
613.17	1863.65
613.36	1677.29
613.55	1826.79
613.74	1730.53
613.93	1699.81
614.13	1775.59
614.32	1714.15
614.51	1789.92
614.70	1697.77
614.89	1708.01
615.08	1705.96
615.28	1941.47
615.47	1636.33
615.66	1656.81
615.85	1701.86
616.04	1812.45
616.23	1648.61
616.42	1683.43
616.62	1744.87
616.81	1730.53
617.00	1722.34
617.19	1755.11
617.38	1738.73
617.57	1738.73
617.76	1771.49
617.95	1687.53
618.15	1761.25
618.34	1875.94
618.53	1677.29
618.72	1830.88
618.91	1882.08
619.10	1769.44
619.29	1730.53
619.48	1738.73
619.68	1636.33
619.87	1718.25
620.06	1667.05
620.25	1761.25
620.44	1691.62
620.63	1654.76
620.82	1730.53
621.01	1671.14
621.20	1744.87
621.39	1724.39
621.59	1767.40
621.78	1716.20
621.97	1708.01
622.16	1705.96
622.35	1785.83
622.54	1779.68
622.73	1789.92
622.92	1695.72
623.11	1773.54
623.30	1665.00
623.49	1771.49
623.68	1685.48
623.88	1744.87
624.07	1660.90
624.26	1718.25
624.45	1742.82
624.64	1712.10
624.83	1677.29
625.02	1726.44
625.21	1753.06
625.40	1671.14
625.59	1834.98
625.78	1636.33
625.97	1755.11
626.16	1691.62
626.35	1755.11
626.54	1740.77
626.74	1791.97
626.93	1685.48
627.12	1701.86
627.31	1843.17
627.50	1722.34
627.69	1808.36
627.88	1611.75
628.07	1636.33
628.26	1677.29
628.45	1710.05
628.64	1615.85
628.83	1724.39
629.02	1624.04
629.21	1742.82
629.40	1728.49
629.59	1619.94
629.78	1708.01
629.97	1640.42
630.16	1689.57
630.35	1705.96
630.54	1716.20
630.73	1714.15
630.92	1658.85
631.11	1583.08
631.30	1699.81
631.49	1662.95
631.68	1746.92
631.87	1638.38
632.06	1720.29
632.25	1898.47
632.44	1705.96
632.63	1734.63
632.82	1701.86
633.01	1599.46
633.20	1732.58
633.39	1728.49
633.58	1533.93
633.77	1765.35
633.96	1753.06
634.15	1751.01
634.34	1699.81
634.53	1708.01
634.72	1742.82
634.91	1691.62
635.10	1748.97
635.29	1695.72
635.48	1794.02
635.67	1621.99
635.86	1652.71
636.05	1722.34
636.24	1712.10
636.43	1710.05
636.62	1738.73
636.81	1552.36
637.00	1738.73
637.19	1789.92
637.38	1753.06
637.57	1691.62
637.76	1726.44
637.95	1789.92
638.14	1738.73
638.33	1650.66
638.52	1783.78
638.71	1626.09
638.89	1673.19
639.08	1822.69
639.27	1759.21
639.46	1767.40
639.65	1761.25
639.84	1771.49
640.03	1796.07
640.22	1716.20
640.41	1880.04
640.60	1699.81
640.79	1742.82
640.98	1644.52
641.17	1775.59
641.36	1650.66
641.55	1757.16
641.74	1648.61
641.92	1656.81
642.11	1703.91
642.30	1695.72
642.49	1689.57
642.68	1693.67
642.87	1755.11
643.06	1794.02
643.25	1705.96
643.44	1722.34
643.63	1771.49
643.82	1796.07
644.00	1689.57
644.19	1726.44
644.38	1677.29
644.57	1718.25
644.76	1726.44
644.95	1740.77
645.14	1701.86
645.33	1714.15
645.52	1685.48
645.71	1671.14
645.89	1624.04
646.08	1759.21
646.27	1738.73
646.46	1794.02
646.65	1730.53
646.84	1726.44
647.03	1626.09
647.22	1722.34
647.40	1669.09
647.59	1699.81
647.78	1640.42
647.97	1722.34
648.16	1712.10
648.35	1812.45
648.54	1755.11
648.73	1652.71
648.91	1728.49
649.10	1722.34
649.29	1566.70
649.48	1677.29
649.67	1775.59
649.86	1740.77
650.05	1697.77
650.23	1824.74
650.42	1632.23
650.61	1712.10
650.80	1740.77
650.99	1816.55
651.18	1751.01
651.36	1738.73
651.55	1675.24
651.74	1837.03
651.93	1744.87
652.12	1675.24
652.31	1669.09
652.49	1650.66
652.68	1652.71
652.87	1763.30
653.06	1699.81
653.25	1708.01
653.44	1685.48
653.62	1796.07
653.81	1712.10
654.00	1779.68
654.19	1712.10
654.38	1822.69
654.56	1714.15
654.75	1763.30
654.94	1759.21
655.13	1714.15
655.32	1722.34
655.51	1714.15
655.69	1628.14
655.88	1779.68
656.07	1648.61
656.26	1730.53
656.45	1609.70
656.63	1718.25
656.82	1763.30
657.01	1798.12
657.20	1675.24
657.38	1808.36
657.57	1665.00
657.76	1605.61
657.95	1744.87
658.14	1640.42
658.32	1681.38
658.51	1628.14
658.70	1736.68
658.89	1665.00
659.08	1617.90
659.26	1798.12
659.45	1671.14
659.64	1665.00
659.83	1669.09
660.01	1902.56
660.20	1693.67
660.39	1771.49
660.58	1583.08
660.76	1757.16
660.95	1628.14
661.14	1732.58
661.33	1669.09
661.51	1595.37
661.70	1628.14
661.89	1677.29
662.08	1689.57
662.26	1646.57
662.45	1681.38
662.64	1914.85
662.83	1769.44
663.01	1552.36
663.20	1644.52
663.39	1830.88
663.58	1726.44
663.76	1667.05
663.95	1839.08
664.14	1679.33
664.32	1691.62
664.51	1642.47
664.70	1615.85
664.89	1705.96
665.07	1648.61
665.26	1753.06
665.45	1685.48
665.64	1746.92
665.82	1710.05
666.01	1738.73
666.20	1759.21
666.38	1789.92
666.57	1837.03
666.76	2140.13
666.95	4478.91
667.13	10329.95
667.32	15071.00
667.51	17678.07
667.69	18958.05
667.88	17661.68
668.07	12240.71
668.25	9572.21
668.44	8200.07
668.63	7194.51
668.81	6727.58
669.00	6160.29
669.19	5740.46
669.38	5113.78
669.56	4353.98
669.75	3805.13
669.94	3389.39
670.12	2893.78
670.31	2475.99
670.50	2267.10
670.68	2007.01
670.87	1957.86
671.06	1824.74
671.24	1820.64
671.43	1869.80
671.62	1759.21
671.80	1693.67
671.99	1732.58
672.18	1775.59
672.36	1718.25
672.55	1806.31
672.74	1658.85
672.92	1681.38
673.11	1695.72
673.29	1658.85
673.48	1775.59
673.67	1767.40
673.85	1693.67
674.04	1705.96
674.23	1728.49
674.41	1824.74
674.60	1648.61
674.79	1630.18
674.97	1681.38
675.16	1734.63
675.34	1732.58
675.53	1673.19
675.72	1763.30
675.90	1763.30
676.09	1658.85
676.28	1679.33
676.46	1759.21
676.65	1746.92
676.83	1683.43
677.02	1775.59
677.21	1740.77
677.39	1716.20
677.58	1722.34
677.77	1746.92
677.95	1640.42
678.14	1662.95
678.32	1703.91
678.51	1732.58
678.70	1894.37
678.88	1650.66
679.07	1712.10
679.25	1759.21
679.44	1703.91
679.63	1574.89
679.81	1738.73
680.00	1748.97
680.18	1738.73
680.37	1751.01
680.55	1691.62
680.74	1701.86
680.93	1624.04
681.11	1708.01
681.30	1693.67
681.48	1691.62
681.67	1687.53
681.85	1757.16
682.04	1726.44
682.23	1757.16
682.41	1720.29
682.60	1671.14
682.78	1746.92
682.97	1624.04
683.15	1765.35
683.34	1730.53
683.53	1802.21
683.71	1599.46
683.90	1771.49
684.08	1728.49
684.27	1671.14
684.45	1783.78
684.64	1738.73
684.82	1658.85
685.01	1746.92
685.19	1806.31
685.38	1718.25
685.57	1822.69
685.75	1665.00
685.94	1693.67
686.12	1652.71
686.31	1689.57
686.49	1783.78
686.68	1628.14
686.86	1624.04
687.05	1595.37
687.23	1720.29
687.42	1712.10
687.60	1630.18
687.79	1757.16
687.97	1781.73
688.16	1734.63
688.34	1847.27
688.53	1640.42
688.71	1712.10
688.90	1787.88
689.08	1677.29
689.27	1638.38
689.45	1742.82
689.64	1834.98
689.82	1773.54
690.01	1789.92
690.19	1787.88
690.38	1718.25
690.56	1738.73
690.75	1658.85
690.93	1658.85
691.12	1716.20
691.30	1734.63
691.49	1712.10
691.67	1791.97
691.86	1890.28
692.04	1624.04
692.23	1697.77
692.41	1652.71
692.60	1755.11
692.78	1785.83
692.97	1665.00
693.15	1732.58
693.34	1888.23
693.52	1693.67
693.71	1611.75
693.89	1751.01
694.08	1660.90
694.26	1736.68
694.44	1701.86
694.63	1755.11
694.81	1726.44
695.00	1738.73
695.18	1615.85
695.37	1802.21
695.55	1730.53
695.74	1695.72
695.92	1701.86
696.10	1826.79
696.29	1646.57
696.47	1705.96
696.66	1615.85
696.84	1744.87
697.03	1669.09
697.21	1759.21
697.40	2312.16
697.58	1771.49
697.76	1662.95
697.95	1734.63
698.13	1654.76
698.32	1685.48
698.50	1744.87
698.68	1771.49
698.87	1708.01
699.05	1791.97
699.24	1763.30
699.42	1722.34
699.61	1724.39
699.79	1701.86
699.97	1712.10
700.16	1669.09
700.34	1611.75
700.53	1722.34
700.71	1812.45
700.89	1751.01
701.08	1724.39
701.26	1632.23
701.45	2146.27
701.63	1665.00
701.81	1710.05
702.00	1654.76
702.18	1660.90
702.37	1697.77
702.55	1712.10
702.73	1724.39
702.92	1716.20
703.10	1681.38
703.28	1726.44
703.47	1701.86
703.65	1697.77
703.84	1714.15
704.02	1644.52
704.20	1822.69
704.39	1658.85
704.57	1595.37
704.75	1832.93
704.94	1644.52
705.12	1716.20
705.30	1773.54
705.49	2209.76
705.67	4313.02
705.86	9244.53
706.04	12623.68
706.22	14632.74
706.41	15324.95
706.59	14038.83
706.77	9748.33
706.96	7440.27
707.14	6547.36
707.32	5930.92
707.51	5588.91
707.69	4900.79
707.87	4286.40
708.06	3540.94
708.24	2992.08
708.42	2447.32
708.61	2234.33
708.79	1861.60
708.97	1761.25
709.16	1841.12
709.34	1877.99
709.52	1708.01
709.71	1636.33
709.89	1744.87
710.07	1636.33
710.26	1634.28
710.44	1763.30
710.62	1755.11
710.80	1699.81
710.99	1789.92
711.17	1738.73
711.35	1687.53
711.54	1642.47
711.72	1720.29
711.90	1720.29
712.09	1689.57
712.27	1689.57
712.45	1693.67
712.63	1669.09
712.82	1746.92
713.00	1685.48
713.18	1677.29
713.37	1689.57
713.55	1800.16
713.73	1697.77
713.91	1740.77
714.10	1642.47
714.28	1714.15
714.46	1705.96
714.65	1714.15
714.83	1812.45
715.01	1708.01
715.19	1740.77
715.38	1667.05
715.56	1710.05
715.74	1671.14
715.92	1675.24
716.11	1693.67
716.29	1648.61
716.47	1697.77
716.65	1742.82
716.84	1718.25
717.02	1724.39
717.20	1669.09
717.38	1624.04
717.57	1759.21
717.75	1705.96
717.93	1714.15
718.11	1660.90
718.30	1609.70
718.48	1679.33
718.66	1806.31
718.84	1759.21
719.03	1796.07
719.21	1626.09
719.39	1748.97
719.57	1781.73
719.75	1726.44
719.94	1660.90
720.12	1726.44
720.30	1738.73
720.48	1736.68
720.67	1634.28
720.85	1615.85
721.03	1570.79
721.21	1667.05
721.39	1761.25
721.58	1748.97
721.76	1681.38
721.94	1783.78
722.12	1701.86
722.30	1701.86
722.49	1669.09
722.67	1724.39
722.85	1746.92
723.03	1626.09
723.21	1677.29
723.40	1720.29
723.58	1847.27
723.76	1734.63
723.94	1685.48
724.12	1771.49
724.30	1800.16
724.49	1828.84
724.67	1640.42
724.85	1822.69
725.03	1552.36
725.21	1746.92
725.40	1703.91
725.58	1648.61
725.76	1726.44
725.94	1703.91
726.12	1656.81
726.30	1708.01
726.49	1724.39
726.67	1722.34
726.85	1787.88
727.03	1730.53
727.21	2129.89
727.39	2858.96
727.57	3854.28
727.76	4163.52
727.94	4384.70
728.12	4499.39
728.30	3774.41
728.48	2985.94
728.66	2672.60
728.84	2592.73
729.03	2303.96
729.21	2170.85
729.39	2027.49
729.57	1816.55
729.75	1791.97
729.93	1853.41
730.11	1677.29
730.30	1656.81
730.48	1724.39
730.66	1710.05
730.84	1845.22
731.02	1748.97
731.20	1718.25
731.38	1673.19
731.56	1689.57
731.74	1677.29
731.93	1673.19
732.11	1724.39
732.29	1730.53
732.47	1740.77
732.65	1722.34
732.83	1753.06
733.01	1718.25
733.19	1697.77
733.37	1720.29
733.56	1718.25
733.74	1650.66
733.92	1832.93
734.10	1689.57
734.28	1722.34
734.46	1665.00
734.64	1628.14
734.82	1646.57
735.00	1587.18
735.18	1671.14
735.36	1767.40
735.54	1714.15
735.73	1767.40
735.91	1714.15
736.09	1802.21
736.27	1744.87
736.45	1738.73
736.63	1650.66
736.81	1660.90
736.99	1742.82
737.17	1781.73
737.35	1671.14
737.53	1705.96
737.71	1732.58
737.89	1767.40
738.07	1595.37
738.25	1660.90
738.43	1689.57
738.61	1679.33
738.80	1642.47
738.98	1673.19
739.16	1642.47
739.34	1671.14
739.52	1732.58
739.70	1701.86
739.88	1701.86
740.06	1724.39
740.24	1609.70
740.42	1791.97
740.60	1570.79
740.78	1710.05
740.96	1640.42
741.14	1630.18
741.32	1730.53
741.50	1689.57
741.68	1755.11
741.86	1767.40
742.04	1683.43
742.22	1660.90
742.40	1740.77
742.58	1732.58
742.76	1703.91
742.94	1787.88
743.12	1658.85
743.30	1693.67
743.48	1732.58
743.66	1701.86
743.84	1736.68
744.02	1689.57
744.20	1689.57
744.38	1660.90
744.56	1699.81
744.74	1869.80
744.92	1769.44
745.10	1740.77
745.28	1798.12
745.46	1794.02
745.64	1624.04
745.82	1771.49
746.00	1675.24
746.18	1761.25
746.36	1648.61
746.54	1757.16
746.72	1644.52
746.90	1595.37
747.08	1695.72
747.26	1681.38
747.44	1734.63
747.62	1669.09
747.80	1736.68
747.98	1636.33
748.15	1669.09
748.33	1849.32
748.51	1673.19
748.69	1759.21
748.87	1652.71
749.05	1728.49
749.23	1732.58
749.41	1708.01
749.59	1763.30
749.77	1697.77
749.95	1683.43
750.13	1665.00
750.31	1730.53
750.49	1712.10
750.67	1718.25
750.85	1789.92
751.03	1724.39
751.20	1751.01
751.38	1748.97
751.56	1685.48
751.74	1689.57
751.92	1671.14
752.10	1665.00
752.28	1773.54
752.46	1609.70
752.64	1703.91
752.82	1716.20
753.00	1746.92
753.18	1599.46
753.35	1673.19
753.53	1746.92
753.71	1673.19
753.89	1759.21
754.07	1716.20
754.25	1791.97
754.43	1693.67
754.61	1665.00
754.79	1812.45
754.97	1722.34
755.14	1746.92
755.32	1634.28
755.50	1624.04
755.68	1781.73
755.86	1695.72
756.04	1658.85
756.22	1548.26
756.40	1773.54
756.57	1810.40
756.75	1689.57
756.93	1748.97
757.11	1751.01
757.29	1650.66
757.47	1687.53
757.65	1599.46
757.82	1540.07
758.00	1632.23
758.18	1632.23
758.36	1673.19
758.54	1769.44
758.72	1611.75
758.90	1755.11
759.07	1634.28
759.25	1587.18
759.43	1777.64
759.61	1607.66
759.79	2189.28
759.97	1736.68
760.15	1675.24
760.32	1730.53
760.50	1746.92
760.68	1773.54
760.86	1599.46
761.04	1693.67
761.22	1748.97
761.39	1746.92
761.57	1751.01
761.75	1685.48
761.93	1753.06
762.11	1673.19
762.28	1708.01
762.46	1665.00
762.64	1675.24
762.82	1562.60
763.00	1671.14
763.18	1802.21
763.35	1626.09
763.53	1734.63
763.71	1730.53
763.89	1695.72
764.07	1712.10
764.24	1644.52
764.42	1681.38
764.60	1716.20
764.78	1724.39
764.96	1695.72
765.13	1787.88
765.31	1626.09
765.49	1699.81
765.67	1642.47
765.84	1679.33
766.02	1671.14
766.20	1601.51
766.38	1722.34
766.56	1777.64
766.73	1675.24
766.91	1646.57
767.09	1755.11
767.27	1837.03
767.44	1632.23
767.62	1656.81
767.80	1753.06
767.98	1599.46
768.15	1652.71
768.33	1738.73
768.51	1732.58
768.69	1761.25
768.87	1687.53
769.04	1701.86
769.22	1839.08
769.40	1800.16
769.58	1906.66
769.75	1730.53
769.93	1761.25
770.11	1742.82
770.28	1685.48
770.46	1658.85
770.64	1724.39
770.82	1673.19
770.99	1687.53
771.17	1703.91
771.35	1689.57
771.53	1691.62
771.70	1724.39
771.88	1726.44
772.06	1642.47
772.23	1710.05
772.41	1765.35
772.59	1697.77
772.77	1640.42
772.94	1681.38
773.12	1712.10
773.30	1695.72
773.47	1656.81
773.65	1626.09
773.83	1798.12
774.01	1644.52
774.18	1640.42
774.36	1705.96
774.54	1656.81
774.71	1703.91
774.89	1615.85
775.07	1775.59
775.24	1675.24
775.42	1673.19
775.60	1757.16
775.78	1595.37
775.95	1601.51
776.13	1609.70
776.31	1587.18
776.48	1638.38
776.66	1783.78
776.84	1695.72
777.01	1681.38
777.19	1611.75
777.37	1646.57
777.54	1658.85
777.72	1812.45
777.90	1703.91
778.07	1726.44
778.25	1892.32
778.43	1673.19
778.60	1619.94
778.78	1738.73
778.96	1800.16
779.13	1548.26
779.31	1722.34
779.49	1642.47
779.66	1720.29
779.84	1677.29
780.01	1626.09
780.19	1628.14
780.37	1722.34
780.54	1757.16
780.72	1581.03
780.90	1724.39
781.07	1701.86
781.25	1656.81
781.43	1806.31
781.60	1695.72
781.78	1734.63
781.95	1703.91
782.13	1703.91
782.31	1658.85
782.48	1636.33
782.66	1681.38
782.83	1748.97
783.01	1689.57
783.19	1718.25
783.36	1685.48
783.54	1648.61
783.72	1738.73
783.89	1679.33
784.07	1769.44
784.24	1751.01
784.42	1761.25
784.60	1652.71
784.77	1689.57
784.95	1640.42
785.12	1628.14
785.30	1652.71
785.47	1597.42
785.65	1683.43
785.83	1730.53
786.00	1609.70
786.18	1703.91
786.35	1734.63
786.53	1628.14
786.71	1763.30
786.88	1722.34
787.06	1738.73
787.23	1697.77
787.41	1552.36
787.58	1705.96
787.76	1685.48
787.94	1712.10
788.11	1685.48
788.29	1644.52
788.46	1730.53
788.64	1624.04
788.81	1619.94
788.99	1675.24
789.16	1679.33
789.34	1662.95
789.52	1671.14
789.69	1695.72
789.87	1619.94
790.04	1718.25
790.22	1634.28
790.39	1787.88
790.57	1626.09
790.74	1605.61
790.92	1732.58
791.09	1609.70
791.27	1615.85
791.44	1796.07
791.62	1755.11
791.79	1802.21
791.97	1673.19
792.15	1882.08
792.32	1761.25
792.50	1765.35
792.67	1789.92
792.85	1751.01
793.02	1642.47
793.20	1652.71
793.37	1626.09
793.55	1718.25
793.72	1624.04
793.90	1789.92
794.07	1583.08
794.25	1648.61
794.42	1753.06
794.60	1722.34
794.77	1624.04
794.95	1730.53
795.12	1777.64
795.30	1632.23
795.47	1656.81
795.65	1849.32
795.82	1736.68
796.00	1681.38
796.17	1665.00
796.34	1640.42
796.52	1751.01
796.69	1777.64
796.87	1755.11
797.04	1665.00
797.22	1751.01
797.39	1740.77
797.57	1748.97
797.74	1779.68
797.92	1701.86
798.09	1720.29
798.27	1734.63
798.44	1761.25
798.62	1697.77
798.79	1757.16
798.96	1665.00
799.14	1654.76
799.31	1742.82
799.49	1650.66
799.66	1699.81
799.84	1724.39
800.01	1591.27
800.19	1783.78
800.36	1505.26
800.53	1685.48
800.71	1689.57
800.88	1755.11
801.06	1718.25
801.23	1644.52
801.41	1742.82
801.58	1630.18
801.75	1697.77
801.93	1726.44
802.10	1726.44
802.28	1789.92
802.45	1640.42
802.63	1759.21
802.80	1744.87
802.97	1673.19
803.15	1644.52
803.32	1667.05
803.50	1679.33
803.67	1634.28
803.84	1728.49
804.02	1662.95
804.19	1652.71
804.37	1615.85
804.54	1634.28
804.71	1746.92
804.89	1695.72
805.06	1708.01
805.24	1601.51
805.41	1644.52
805.58	1652.71
805.76	1832.93
805.93	1724.39
806.10	1783.78
806.28	1683.43
806.45	1662.95
806.63	1718.25
806.80	1728.49
806.97	1718.25
807.15	1673.19
807.32	1648.61
807.49	1714.15
807.67	1617.90
807.84	1597.42
808.01	1652.71
808.19	1763.30
808.36	1832.93
808.54	1603.56
808.71	1642.47
808.88	1742.82
809.06	1728.49
809.23	1708.01
809.40	1650.66
809.58	1769.44
809.75	1693.67
809.92	1693.67
810.10	1851.36
810.27	1685.48
810.44	1693.67
810.62	1787.88
810.79	1763.30
810.96	1630.18
811.14	1683.43
811.31	1681.38
811.48	1693.67
811.66	1701.86
811.83	1755.11
812.00	1746.92
812.18	1730.53
812.35	1816.55
812.52	1667.05
812.69	1650.66
812.87	1644.52
813.04	1630.18
813.21	1732.58
813.39	1619.94
813.56	1585.13
813.73	1724.39
813.91	1615.85
814.08	1699.81
814.25	1765.35
814.42	1640.42
814.60	1679.33
814.77	1802.21
814.94	1605.61
815.12	1675.24
815.29	1789.92
815.46	1701.86
815.63	1728.49
815.81	1634.28
815.98	1640.42
816.15	1671.14
816.33	1695.72
816.50	1652.71
816.67	1662.95
816.84	1595.37
817.02	1634.28
817.19	1685.48
817.36	1734.63
817.53	1685.48
817.71	1640.42
817.88	1748.97
818.05	1705.96
818.22	1650.66
818.40	1732.58
818.57	1640.42
818.74	1689.57
818.91	1695.72
819.09	1767.40
819.26	1724.39
819.43	1648.61
819.60	1617.90
819.78	1681.38
819.95	1779.68
820.12	1691.62
820.29	1814.50
820.47	1726.44
820.64	1642.47
820.81	1636.33
820.98	1660.90
821.15	1638.38
821.33	1755.11
821.50	1673.19
821.67	1742.82
821.84	1734.63
822.02	1685.48
822.19	1712.10
822.36	1656.81
822.53	1689.57
822.70	1632.23
822.88	1675.24
823.05	1703.91
823.22	1710.05
823.39	1640.42
823.56	1693.67
823.74	1843.17
823.91	1568.74
824.08	1621.99
824.25	1603.56
824.42	1765.35
824.60	1712.10
824.77	1730.53
824.94	1675.24
825.11	1642.47
825.28	1556.46
825.45	1697.77
825.63	1779.68
825.80	1681.38
825.97	1789.92
826.14	1675.24
826.31	1611.75
826.48	1734.63
826.66	1716.20
826.83	1638.38
827.00	1757.16
827.17	1658.85
827.34	1767.40
827.51	1708.01
827.69	1689.57
827.86	1681.38
828.03	1722.34
828.20	1751.01
828.37	1632.23
828.54	1748.97
828.71	1734.63
828.89	1757.16
829.06	1671.14
829.23	1808.36
829.40	1626.09
829.57	1654.76
829.74	1751.01
829.91	1699.81
830.09	1687.53
830.26	1710.05
830.43	1789.92
830.60	1701.86
830.77	1769.44
830.94	1785.83
831.11	1783.78
831.28	1673.19
831.46	1755.11
831.63	1673.19
831.80	1767.40
831.97	1677.29
832.14	1665.00
832.31	1779.68
832.48	1751.01
832.65	1642.47
832.82	1673.19
832.99	1650.66
833.17	1673.19
833.34	1777.64
833.51	1755.11
833.68	1650.66
833.85	1789.92
834.02	1697.77
834.19	1613.80
834.36	1615.85
834.53	1689.57
834.70	1791.97
834.87	1646.57
835.04	1681.38
835.22	1699.81
835.39	1665.00
835.56	1687.53
835.73	1705.96
835.90	1755.11
836.07	1621.99
836.24	1800.16
836.41	1638.38
836.58	1722.34
836.75	1697.77
836.92	1722.34
837.09	1665.00
837.26	1746.92
837.43	1708.01
837.60	1691.62
837.77	1660.90
837.94	1689.57
838.12	1722.34
838.29	1691.62
838.46	1615.85
838.63	1632.23
838.80	1798.12
838.97	1742.82
839.14	1751.01
839.31	1689.57
839.48	1736.68
839.65	1648.61
839.82	1761.25
839.99	1634.28
840.16	1724.39
840.33	1591.27
840.50	1726.44
840.67	1611.75
840.84	1509.35
841.01	1710.05
841.18	1609.70
841.35	1679.33
841.52	1722.34
841.69	1845.22
841.86	1708.01
842.03	1642.47
842.20	1701.86
842.37	1703.91
842.54	1708.01
842.71	1732.58
842.88	1638.38
843.05	1779.68
843.22	1619.94
843.39	1779.68
843.56	1613.80
843.73	1740.77
843.90	1722.34
844.07	1712.10
844.24	1660.90
844.41	1701.86
844.58	1652.71
844.75	1648.61
844.92	1697.77
845.09	1691.62
845.26	1576.94
845.43	1746.92
845.60	1673.19
845.77	1712.10
845.94	1650.66
846.10	1685.48
846.27	1640.42
846.44	1603.56
846.61	1681.38
846.78	1691.62
846.95	1761.25
847.12	1679.33
847.29	1730.53
847.46	1654.76
847.63	1826.79
847.80	1667.05
847.97	1671.14
848.14	1746.92
848.31	1675.24
848.48	1646.57
848.65	1689.57
848.82	1636.33
848.98	1810.40
849.15	1746.92
849.32	1832.93
849.49	1738.73
849.66	1746.92
849.83	1648.61
850.00	1673.19
850.17	1701.86
850.34	1691.62
850.51	1689.57
850.68	1677.29
850.85	1822.69
851.01	1611.75
851.18	1699.81
851.35	1669.09
851.52	1695.72
851.69	1746.92
851.86	1650.66
852.03	1656.81
852.20	1734.63
852.37	1740.77
852.53	1591.27
852.70	1589.22
852.87	1685.48
853.04	1751.01
853.21	1722.34
853.38	1732.58
853.55	1718.25
853.72	1681.38
853.89	1724.39
854.05	1699.81
854.22	1652.71
854.39	1665.00
854.56	1697.77
854.73	1728.49
854.90	1665.00
855.07	1703.91
855.23	1675.24
855.40	1660.90
855.57	1665.00
855.74	1587.18
855.91	1880.04
856.08	1716.20
856.25	1626.09
856.41	1662.95
856.58	1669.09
856.75	1763.30
856.92	1675.24
857.09	1802.21
857.26	1632.23
857.42	1712.10
857.59	1837.03
857.76	1726.44
857.93	1714.15
858.10	1701.86
858.27	1589.22
858.43	1675.24
858.60	1646.57
858.77	1597.42
858.94	1685.48
859.11	1753.06
859.27	1685.48
859.44	1783.78
859.61	1798.12
859.78	1718.25
859.95	1689.57
860.12	1693.67
860.28	1871.84
860.45	1810.40
860.62	1748.97
860.79	1685.48
860.95	1730.53
861.12	1615.85
861.29	1665.00
861.46	1601.51
861.63	1589.22
861.79	1722.34
861.96	1685.48
862.13	1638.38
862.30	1834.98
862.47	1714.15
862.63	1648.61
862.80	1662.95
862.97	1722.34
863.14	1748.97
863.30	1652.71
863.47	1714.15
863.64	1732.58
863.81	1658.85
863.97	1746.92
864.14	1736.68
864.31	1691.62
864.48	1761.25
864.65	1642.47
864.81	1820.64
864.98	1746.92
865.15	1726.44
865.32	1710.05
865.48	1751.01
865.65	1718.25
865.82	1697.77
865.98	1708.01
866.15	1705.96
866.32	1638.38
866.49	1673.19
866.65	1744.87
866.82	1621.99
866.99	1732.58
867.16	1677.29
867.32	1605.61
867.49	1652.71
867.66	1665.00
867.83	1660.90
867.99	1566.70
868.16	1671.14
868.33	1574.89
868.49	1652.71
868.66	1699.81
868.83	1728.49
868.99	1644.52
869.16	1691.62
869.33	1738.73
869.50	1787.88
869.66	1751.01
869.83	1691.62
870.00	1646.57
870.16	1771.49
870.33	1699.81
870.50	1734.63
870.66	1697.77
870.83	1845.22
871.00	1697.77
871.17	1765.35
871.33	1677.29
871.50	1642.47
871.67	1628.14
871.83	1646.57
872.00	1806.31
872.17	1656.81
872.33	1783.78
872.50	1710.05
872.67	1675.24
872.83	1650.66
873.00	1699.81
873.17	1699.81
873.33	1816.55
873.50	1646.57
873.67	1634.28
873.83	1718.25
874.00	1638.38
874.16	1722.34
874.33	1722.34
874.50	1613.80
874.66	1763.30
874.83	1646.57
875.00	1769.44
875.16	1689.57
875.33	1796.07
875.50	1613.80
875.66	1665.00
875.83	1714.15
875.99	1732.58
876.16	1642.47
876.33	1634.28
876.49	1703.91
876.66	1667.05
876.83	1634.28
876.99	1726.44
877.16	1716.20
877.32	1763.30
877.49	1624.04
877.66	1732.58
877.82	1738.73
877.99	1775.59
878.15	1728.49
878.32	1708.01
878.49	1671.14
878.65	1691.62
878.82	1736.68
878.98	1654.76
879.15	1705.96
879.32	1685.48
879.48	1689.57
879.65	1677.29
879.81	1667.05
879.98	1630.18
880.15	1609.70
880.31	1701.86
880.48	1650.66
880.64	1718.25
880.81	1685.48
880.97	1800.16
881.14	1724.39
881.31	1654.76
881.47	1816.55
881.64	1646.57
881.80	1576.94
881.97	1679.33
882.13	1798.12
882.30	1626.09
882.47	1738.73
882.63	1646.57
882.80	1685.48
882.96	1677.29
883.13	1773.54
883.29	1714.15
883.46	1724.39
883.62	1851.36
883.79	1705.96
883.95	1705.96
884.12	1765.35
884.29	1722.34
884.45	1656.81
884.62	1722.34
884.78	1630.18
884.95	1761.25
885.11	1581.03
885.28	1773.54
885.44	1697.77
885.61	1703.91
885.77	1738.73
885.94	1806.31
886.10	1695.72
886.27	1656.81
886.43	1769.44
886.60	1851.36
886.76	1679.33
886.93	1662.95
887.09	1697.77
887.26	1613.80
887.42	1642.47
887.59	1697.77
887.75	1810.40
887.92	1755.11
888.08	1773.54
888.25	1738.73
888.41	1759.21
888.58	1734.63
888.74	1652.71
888.91	1665.00
>>>>>End Processed Spectral Data<<<<<
