SpectraSuite Data File
++++++++++++++++++++++++++++++++++++
Date: Mon Jun 06 13:48:37 CEST 2016
User: root
Dark Spectrum Present: No
Reference Spectrum Present: No
Number of Sampled Component Spectra: 1
Spectrometers: USB4C02835
Integration Time (usec): 100000 (USB4C02835)
Spectra Averaged: 1 (USB4C02835)
Boxcar Smoothing: 0 (USB4C02835)
Correct for Electrical Dark: No (USB4C02835)
Strobe/Lamp Enabled: No (USB4C02835)
Correct for Detector Non-linearity: No (USB4C02835)
Correct for Stray Light: No (USB4C02835)
Number of Pixels in Processed Spectrum: 3648
>>>>>Begin Processed Spectral Data<<<<<
177.47	1421.29
177.69	1421.29
177.91	1421.29
178.13	1492.97
178.36	1492.97
178.58	1619.94
178.80	1669.09
179.02	1685.48
179.24	1624.04
179.46	1728.49
179.68	1761.25
179.90	1681.38
180.13	1652.71
180.35	1648.61
180.57	1615.85
180.79	1755.11
181.01	1681.38
181.23	1748.97
181.45	1755.11
181.67	1734.63
181.90	1732.58
182.12	1665.00
182.34	1599.46
182.56	1742.82
182.78	1718.25
183.00	1685.48
183.22	1685.48
183.44	1621.99
183.66	1843.17
183.89	1785.83
184.11	1675.24
184.33	1738.73
184.55	1779.68
184.77	1683.43
184.99	1714.15
185.21	1656.81
185.43	1834.98
185.65	1681.38
185.87	1748.97
186.10	1802.21
186.32	1841.12
186.54	1710.05
186.76	1773.54
186.98	1740.77
187.20	1654.76
187.42	1681.38
187.64	1751.01
187.86	1841.12
188.08	1722.34
188.30	1722.34
188.52	1679.33
188.75	1755.11
188.97	1755.11
189.19	1714.15
189.41	1701.86
189.63	1697.77
189.85	1714.15
190.07	1634.28
190.29	1581.03
190.51	1736.68
190.73	1646.57
190.95	1755.11
191.17	1714.15
191.39	1677.29
191.61	1720.29
191.84	1654.76
192.06	1687.53
192.28	1562.60
192.50	1845.22
192.72	1714.15
192.94	1718.25
193.16	1748.97
193.38	1636.33
193.60	1650.66
193.82	1665.00
194.04	1798.12
194.26	1722.34
194.48	1669.09
194.70	1730.53
194.92	1665.00
195.14	1767.40
195.36	1679.33
195.58	1636.33
195.80	1615.85
196.02	1738.73
196.24	1665.00
196.46	1677.29
196.69	1718.25
196.91	1873.89
197.13	1689.57
197.35	1591.27
197.57	1826.79
197.79	1693.67
198.01	1669.09
198.23	1716.20
198.45	1652.71
198.67	1615.85
198.89	1708.01
199.11	1769.44
199.33	1624.04
199.55	1587.18
199.77	1738.73
199.99	1834.98
200.21	1687.53
200.43	1699.81
200.65	1697.77
200.87	1601.51
201.09	1681.38
201.31	1679.33
201.53	1720.29
201.75	1730.53
201.97	1734.63
202.19	1718.25
202.41	1728.49
202.63	1755.11
202.85	1699.81
203.07	1724.39
203.29	1681.38
203.51	1642.47
203.73	1687.53
203.95	1904.61
204.17	1769.44
204.39	1714.15
204.61	1683.43
204.83	1681.38
205.05	1683.43
205.27	1714.15
205.49	1800.16
205.71	1640.42
205.93	1726.44
206.15	1644.52
206.37	1736.68
206.59	1665.00
206.81	1693.67
207.03	1595.37
207.25	1732.58
207.47	1730.53
207.69	1734.63
207.91	1796.07
208.13	1757.16
208.34	1675.24
208.56	1701.86
208.78	1775.59
209.00	1724.39
209.22	1667.05
209.44	1634.28
209.66	1628.14
209.88	1662.95
210.10	1660.90
210.32	1660.90
210.54	1755.11
210.76	1708.01
210.98	1751.01
211.20	1587.18
211.42	1712.10
211.64	1767.40
211.86	1794.02
212.08	1726.44
212.30	1740.77
212.52	1724.39
212.74	1658.85
212.96	1708.01
213.17	1691.62
213.39	1697.77
213.61	1714.15
213.83	1665.00
214.05	1593.32
214.27	1755.11
214.49	1656.81
214.71	1695.72
214.93	1757.16
215.15	1636.33
215.37	1773.54
215.59	1652.71
215.81	1689.57
216.03	1759.21
216.24	1650.66
216.46	1644.52
216.68	1738.73
216.90	1748.97
217.12	1767.40
217.34	1710.05
217.56	1681.38
217.78	1816.55
218.00	1777.64
218.22	1718.25
218.44	1765.35
218.66	1613.80
218.87	1779.68
219.09	1658.85
219.31	1794.02
219.53	1619.94
219.75	1673.19
219.97	1691.62
220.19	1689.57
220.41	1728.49
220.63	1822.69
220.85	1730.53
221.06	1593.32
221.28	1726.44
221.50	1748.97
221.72	1748.97
221.94	1724.39
222.16	1746.92
222.38	1759.21
222.60	1734.63
222.82	1624.04
223.03	1693.67
223.25	1654.76
223.47	1710.05
223.69	1822.69
223.91	1732.58
224.13	1728.49
224.35	1675.24
224.57	1691.62
224.78	1716.20
225.00	1595.37
225.22	1638.38
225.44	1679.33
225.66	1759.21
225.88	1607.66
226.10	1822.69
226.32	1775.59
226.53	1722.34
226.75	1695.72
226.97	1734.63
227.19	1708.01
227.41	1695.72
227.63	1574.89
227.85	1628.14
228.06	1740.77
228.28	1652.71
228.50	1714.15
228.72	1677.29
228.94	1640.42
229.16	1667.05
229.37	1603.56
229.59	1665.00
229.81	1720.29
230.03	1607.66
230.25	1556.46
230.47	1669.09
230.69	1685.48
230.90	1724.39
231.12	1662.95
231.34	1722.34
231.56	1753.06
231.78	1695.72
232.00	1771.49
232.21	1726.44
232.43	1722.34
232.65	1585.13
232.87	1693.67
233.09	1642.47
233.30	1705.96
233.52	1695.72
233.74	1701.86
233.96	1710.05
234.18	1681.38
234.40	1697.77
234.61	1830.88
234.83	1671.14
235.05	1626.09
235.27	1877.99
235.49	1802.21
235.70	1712.10
235.92	1714.15
236.14	1755.11
236.36	1759.21
236.58	1615.85
236.79	1771.49
237.01	1644.52
237.23	1687.53
237.45	1814.50
237.67	1728.49
237.88	1759.21
238.10	1787.88
238.32	1630.18
238.54	1722.34
238.76	1667.05
238.97	1665.00
239.19	1671.14
239.41	1763.30
239.63	1710.05
239.85	1693.67
240.06	1681.38
240.28	1693.67
240.50	1667.05
240.72	1687.53
240.93	1677.29
241.15	1744.87
241.37	1718.25
241.59	1826.79
241.81	1716.20
242.02	1685.48
242.24	1822.69
242.46	1667.05
242.68	1716.20
242.89	1748.97
243.11	1714.15
243.33	1699.81
243.55	1722.34
243.76	1757.16
243.98	1630.18
244.20	1742.82
244.42	1693.67
244.64	1769.44
244.85	1583.08
245.07	1642.47
245.29	1658.85
245.51	1656.81
245.72	1720.29
245.94	1763.30
246.16	1669.09
246.38	1701.86
246.59	1642.47
246.81	1685.48
247.03	1703.91
247.24	1578.98
247.46	1720.29
247.68	1714.15
247.90	1642.47
248.11	1730.53
248.33	1755.11
248.55	1765.35
248.77	1724.39
248.98	1742.82
249.20	1779.68
249.42	1705.96
249.64	1712.10
249.85	1724.39
250.07	1716.20
250.29	1746.92
250.50	1732.58
250.72	1613.80
250.94	1701.86
251.16	1796.07
251.37	1640.42
251.59	1705.96
251.81	1753.06
252.02	1765.35
252.24	1607.66
252.46	1787.88
252.68	1630.18
252.89	1685.48
253.11	1701.86
253.33	1841.12
253.54	1804.26
253.76	1691.62
253.98	1634.28
254.20	1726.44
254.41	1660.90
254.63	1662.95
254.85	1644.52
255.06	1642.47
255.28	1640.42
255.50	1689.57
255.71	1626.09
255.93	1611.75
256.15	1708.01
256.36	1785.83
256.58	1609.70
256.80	1738.73
257.02	1728.49
257.23	1693.67
257.45	1697.77
257.67	1728.49
257.88	1662.95
258.10	1652.71
258.32	1695.72
258.53	1669.09
258.75	1808.36
258.97	1667.05
259.18	1689.57
259.40	1650.66
259.62	1785.83
259.83	1751.01
260.05	1693.67
260.27	1877.99
260.48	1705.96
260.70	1644.52
260.92	1734.63
261.13	1632.23
261.35	1679.33
261.57	1732.58
261.78	1621.99
262.00	1624.04
262.22	1708.01
262.43	1615.85
262.65	1662.95
262.86	1730.53
263.08	1851.36
263.30	1718.25
263.51	1593.32
263.73	1652.71
263.95	1744.87
264.16	1718.25
264.38	1757.16
264.60	1759.21
264.81	1626.09
265.03	1740.77
265.25	1730.53
265.46	1662.95
265.68	1779.68
265.89	1712.10
266.11	1628.14
266.33	1722.34
266.54	1716.20
266.76	1687.53
266.98	1761.25
267.19	1691.62
267.41	1732.58
267.62	1656.81
267.84	1570.79
268.06	1763.30
268.27	1753.06
268.49	1691.62
268.70	1697.77
268.92	1681.38
269.14	1533.93
269.35	1667.05
269.57	1728.49
269.79	1738.73
270.00	1658.85
270.22	1796.07
270.43	1675.24
270.65	1566.70
270.87	1722.34
271.08	1773.54
271.30	1718.25
271.51	1742.82
271.73	1671.14
271.95	1759.21
272.16	1722.34
272.38	1695.72
272.59	1722.34
272.81	1740.77
273.02	1732.58
273.24	1665.00
273.46	1763.30
273.67	1665.00
273.89	1732.58
274.10	1708.01
274.32	1716.20
274.54	1701.86
274.75	1695.72
274.97	1650.66
275.18	1800.16
275.40	1740.77
275.61	1667.05
275.83	1683.43
276.05	1601.51
276.26	1695.72
276.48	1765.35
276.69	1730.53
276.91	1722.34
277.12	1832.93
277.34	1785.83
277.55	1734.63
277.77	1667.05
277.99	1673.19
278.20	1695.72
278.42	1626.09
278.63	1646.57
278.85	1636.33
279.06	1689.57
279.28	1726.44
279.49	1777.64
279.71	1798.12
279.93	1738.73
280.14	1624.04
280.36	1665.00
280.57	1697.77
280.79	1730.53
281.00	1595.37
281.22	1681.38
281.43	1701.86
281.65	1587.18
281.86	1656.81
282.08	1675.24
282.29	1869.80
282.51	1634.28
282.73	1679.33
282.94	1593.32
283.16	1712.10
283.37	1755.11
283.59	1652.71
283.80	1800.16
284.02	1732.58
284.23	1771.49
284.45	1732.58
284.66	1691.62
284.88	1595.37
285.09	1748.97
285.31	1785.83
285.52	1685.48
285.74	1656.81
285.95	1695.72
286.17	1724.39
286.38	1673.19
286.60	1656.81
286.81	1730.53
287.03	1736.68
287.24	1628.14
287.46	1748.97
287.67	1632.23
287.89	1865.70
288.10	1634.28
288.32	1640.42
288.53	1761.25
288.75	1697.77
288.96	1734.63
289.18	1632.23
289.39	1740.77
289.61	1742.82
289.82	1873.89
290.04	1863.65
290.25	1597.42
290.47	1736.68
290.68	1677.29
290.90	1744.87
291.11	1646.57
291.33	1734.63
291.54	1646.57
291.76	1685.48
291.97	1660.90
292.18	1708.01
292.40	1675.24
292.61	1734.63
292.83	1875.94
293.04	1794.02
293.26	1691.62
293.47	1658.85
293.69	1632.23
293.90	1617.90
294.12	1742.82
294.33	1738.73
294.55	1634.28
294.76	1710.05
294.97	1716.20
295.19	1841.12
295.40	1697.77
295.62	1697.77
295.83	1714.15
296.05	1662.95
296.26	1755.11
296.48	1685.48
296.69	1703.91
296.90	1677.29
297.12	1699.81
297.33	1691.62
297.55	1665.00
297.76	1642.47
297.98	1757.16
298.19	1624.04
298.41	1693.67
298.62	1695.72
298.83	1736.68
299.05	1755.11
299.26	1660.90
299.48	1673.19
299.69	1751.01
299.90	1634.28
300.12	1644.52
300.33	1710.05
300.55	1734.63
300.76	1724.39
300.98	1597.42
301.19	1726.44
301.40	1705.96
301.62	1699.81
301.83	1693.67
302.05	1740.77
302.26	1687.53
302.47	1744.87
302.69	1705.96
302.90	1675.24
303.12	1576.94
303.33	1791.97
303.54	1759.21
303.76	1681.38
303.97	1726.44
304.19	1890.28
304.40	1683.43
304.61	1763.30
304.83	1839.08
305.04	1714.15
305.26	1691.62
305.47	1652.71
305.68	1595.37
305.90	1578.98
306.11	1716.20
306.33	1701.86
306.54	1683.43
306.75	1601.51
306.97	1628.14
307.18	1679.33
307.39	1683.43
307.61	1761.25
307.82	1613.80
308.04	1656.81
308.25	1626.09
308.46	1744.87
308.68	1710.05
308.89	1640.42
309.10	1751.01
309.32	1769.44
309.53	1689.57
309.74	1791.97
309.96	1638.38
310.17	1712.10
310.39	1683.43
310.60	1738.73
310.81	1744.87
311.03	1624.04
311.24	1705.96
311.45	1648.61
311.67	1791.97
311.88	1710.05
312.09	1607.66
312.31	1658.85
312.52	1673.19
312.73	1730.53
312.95	1652.71
313.16	1548.26
313.37	1742.82
313.59	1675.24
313.80	1798.12
314.01	1804.26
314.23	1669.09
314.44	1683.43
314.65	1646.57
314.87	1714.15
315.08	1615.85
315.29	1693.67
315.51	1599.46
315.72	1665.00
315.93	1751.01
316.15	1683.43
316.36	1722.34
316.57	1742.82
316.79	1734.63
317.00	1689.57
317.21	1658.85
317.43	1656.81
317.64	1732.58
317.85	1644.52
318.07	1667.05
318.28	1705.96
318.49	1716.20
318.70	1964.00
318.92	1822.69
319.13	1806.31
319.34	1773.54
319.56	1791.97
319.77	1773.54
319.98	1730.53
320.20	1779.68
320.41	1691.62
320.62	1736.68
320.83	1667.05
321.05	1800.16
321.26	1660.90
321.47	1697.77
321.69	1720.29
321.90	1648.61
322.11	1679.33
322.32	1736.68
322.54	1740.77
322.75	1671.14
322.96	1822.69
323.18	1691.62
323.39	1527.78
323.60	1712.10
323.81	1781.73
324.03	1603.56
324.24	1644.52
324.45	1656.81
324.66	1708.01
324.88	1810.40
325.09	1757.16
325.30	1644.52
325.52	1728.49
325.73	1695.72
325.94	1617.90
326.15	1644.52
326.37	1683.43
326.58	1773.54
326.79	1812.45
327.00	1669.09
327.22	1703.91
327.43	1695.72
327.64	1624.04
327.85	1796.07
328.07	1697.77
328.28	1744.87
328.49	1669.09
328.70	1722.34
328.92	1730.53
329.13	1654.76
329.34	1771.49
329.55	1779.68
329.76	1644.52
329.98	1734.63
330.19	1796.07
330.40	1759.21
330.61	1681.38
330.83	1730.53
331.04	1673.19
331.25	1691.62
331.46	1675.24
331.68	1695.72
331.89	1718.25
332.10	1699.81
332.31	1673.19
332.52	1636.33
332.74	1812.45
332.95	1656.81
333.16	1701.86
333.37	1777.64
333.58	1685.48
333.80	1718.25
334.01	1601.51
334.22	1677.29
334.43	1634.28
334.64	1710.05
334.86	1673.19
335.07	1607.66
335.28	1771.49
335.49	1583.08
335.70	1779.68
335.92	1734.63
336.13	1763.30
336.34	1796.07
336.55	1701.86
336.76	1728.49
336.98	1587.18
337.19	1746.92
337.40	1832.93
337.61	1818.60
337.82	1642.47
338.04	1781.73
338.25	1624.04
338.46	1667.05
338.67	1695.72
338.88	1601.51
339.09	1673.19
339.31	1607.66
339.52	1654.76
339.73	1712.10
339.94	1726.44
340.15	1730.53
340.36	1617.90
340.58	1761.25
340.79	1685.48
341.00	1767.40
341.21	1656.81
341.42	1734.63
341.63	1738.73
341.85	1669.09
342.06	1669.09
342.27	1648.61
342.48	1746.92
342.69	1738.73
342.90	1746.92
343.12	1701.86
343.33	1802.21
343.54	1757.16
343.75	1689.57
343.96	1665.00
344.17	1636.33
344.38	1714.15
344.60	1708.01
344.81	1589.22
345.02	1697.77
345.23	1742.82
345.44	1728.49
345.65	1681.38
345.86	1679.33
346.07	1646.57
346.29	1669.09
346.50	1703.91
346.71	1761.25
346.92	1763.30
347.13	1779.68
347.34	1705.96
347.55	1687.53
347.76	1679.33
347.98	1638.38
348.19	1703.91
348.40	1759.21
348.61	1687.53
348.82	1728.49
349.03	1777.64
349.24	1656.81
349.45	1791.97
349.66	1572.84
349.88	1714.15
350.09	1638.38
350.30	1740.77
350.51	1783.78
350.72	1703.91
350.93	1771.49
351.14	1675.24
351.35	1757.16
351.56	1624.04
351.77	1656.81
351.99	1716.20
352.20	1773.54
352.41	1695.72
352.62	1624.04
352.83	1644.52
353.04	1736.68
353.25	1705.96
353.46	1773.54
353.67	1683.43
353.88	1679.33
354.09	1710.05
354.30	1724.39
354.52	1761.25
354.73	1634.28
354.94	1615.85
355.15	1691.62
355.36	1736.68
355.57	1667.05
355.78	1654.76
355.99	1632.23
356.20	1720.29
356.41	1812.45
356.62	1710.05
356.83	1658.85
357.04	1722.34
357.25	1621.99
357.46	1687.53
357.68	1630.18
357.89	1621.99
358.10	1683.43
358.31	1693.67
358.52	1626.09
358.73	1624.04
358.94	1681.38
359.15	1640.42
359.36	1841.12
359.57	1681.38
359.78	1740.77
359.99	1673.19
360.20	1621.99
360.41	1730.53
360.62	1716.20
360.83	1710.05
361.04	1671.14
361.25	1710.05
361.46	1816.55
361.67	1736.68
361.88	1771.49
362.09	1722.34
362.30	1781.73
362.51	1660.90
362.72	1710.05
362.93	1837.03
363.14	1693.67
363.35	1728.49
363.56	1636.33
363.78	1744.87
363.99	1732.58
364.20	1714.15
364.41	1697.77
364.62	1804.26
364.83	1755.11
365.04	1628.14
365.25	1687.53
365.46	1812.45
365.67	1595.37
365.88	1689.57
366.09	1667.05
366.30	1648.61
366.51	1761.25
366.72	1671.14
366.93	1697.77
367.14	1671.14
367.35	1787.88
367.56	1730.53
367.77	1759.21
367.98	1650.66
368.18	1755.11
368.39	1677.29
368.60	1710.05
368.81	1773.54
369.02	1726.44
369.23	1705.96
369.44	1644.52
369.65	1648.61
369.86	1699.81
370.07	1716.20
370.28	1691.62
370.49	1708.01
370.70	1703.91
370.91	1578.98
371.12	1683.43
371.33	1767.40
371.54	1642.47
371.75	1785.83
371.96	1648.61
372.17	1740.77
372.38	1667.05
372.59	1710.05
372.80	1710.05
373.01	1724.39
373.22	1708.01
373.43	1753.06
373.64	1671.14
373.85	1763.30
374.06	1818.60
374.26	1683.43
374.47	1732.58
374.68	1839.08
374.89	1791.97
375.10	1673.19
375.31	1791.97
375.52	1771.49
375.73	1787.88
375.94	1677.29
376.15	1837.03
376.36	1607.66
376.57	1667.05
376.78	1656.81
376.99	1724.39
377.20	1810.40
377.40	1695.72
377.61	1875.94
377.82	1708.01
378.03	1757.16
378.24	1791.97
378.45	1746.92
378.66	1734.63
378.87	1632.23
379.08	1652.71
379.29	1669.09
379.50	1755.11
379.71	1773.54
379.91	1767.40
380.12	1617.90
380.33	1724.39
380.54	1738.73
380.75	1630.18
380.96	1744.87
381.17	1755.11
381.38	1617.90
381.59	1789.92
381.80	1636.33
382.00	1841.12
382.21	1722.34
382.42	1820.64
382.63	1947.62
382.84	1740.77
383.05	1812.45
383.26	1791.97
383.47	1646.57
383.68	1732.58
383.88	1697.77
384.09	1679.33
384.30	1783.78
384.51	1697.77
384.72	1658.85
384.93	1667.05
385.14	1656.81
385.35	1748.97
385.55	1705.96
385.76	1789.92
385.97	1742.82
386.18	1554.41
386.39	1718.25
386.60	1740.77
386.81	1724.39
387.02	1621.99
387.22	1669.09
387.43	1794.02
387.64	1812.45
387.85	1810.40
388.06	2246.62
388.27	4370.37
388.48	6928.28
388.68	8337.28
388.89	9639.79
389.10	9987.94
389.31	8834.94
389.52	7714.70
389.73	6850.46
389.93	6338.46
390.14	5996.45
390.35	5124.02
390.56	4589.50
390.77	3766.21
390.98	3063.76
391.18	2531.29
391.39	2160.61
391.60	1867.75
391.81	1834.98
392.02	1730.53
392.23	1806.31
392.43	1748.97
392.64	1814.50
392.85	1699.81
393.06	1837.03
393.27	1656.81
393.47	1638.38
393.68	1736.68
393.89	1716.20
394.10	1796.07
394.31	1740.77
394.52	1615.85
394.72	1687.53
394.93	1798.12
395.14	1562.60
395.35	1746.92
395.56	1695.72
395.76	1746.92
395.97	1785.83
396.18	1886.18
396.39	1822.69
396.60	1961.95
396.80	1832.93
397.01	1845.22
397.22	1810.40
397.43	1824.74
397.64	1705.96
397.84	1763.30
398.05	1886.18
398.26	1775.59
398.47	1779.68
398.67	1708.01
398.88	1720.29
399.09	1710.05
399.30	1677.29
399.51	1767.40
399.71	1722.34
399.92	1720.29
400.13	1724.39
400.34	1695.72
400.54	1726.44
400.75	1818.60
400.96	1720.29
401.17	1789.92
401.37	1791.97
401.58	1648.61
401.79	1736.68
402.00	1785.83
402.21	1984.48
402.41	2066.40
402.62	2015.20
402.83	2088.93
403.04	2035.68
403.24	2060.26
403.45	1822.69
403.66	1908.71
403.87	1888.23
404.07	1863.65
404.28	1880.04
404.49	1902.56
404.70	1775.59
404.90	1763.30
405.11	1746.92
405.32	1646.57
405.52	1703.91
405.73	1714.15
405.94	1656.81
406.15	1669.09
406.35	1703.91
406.56	1732.58
406.77	1732.58
406.98	1761.25
407.18	1607.66
407.39	1738.73
407.60	1738.73
407.80	1699.81
408.01	1740.77
408.22	1681.38
408.43	1628.14
408.63	1724.39
408.84	1740.77
409.05	1796.07
409.25	1671.14
409.46	1607.66
409.67	1634.28
409.88	1642.47
410.08	1722.34
410.29	1675.24
410.50	1683.43
410.70	1710.05
410.91	1636.33
411.12	1736.68
411.32	1726.44
411.53	1662.95
411.74	1716.20
411.95	1748.97
412.15	1726.44
412.36	1804.26
412.57	1787.88
412.77	1763.30
412.98	1732.58
413.19	1697.77
413.39	1798.12
413.60	1740.77
413.81	1761.25
414.01	1574.89
414.22	1679.33
414.43	1751.01
414.63	1634.28
414.84	1834.98
415.05	1771.49
415.25	1777.64
415.46	1787.88
415.67	1667.05
415.87	1812.45
416.08	1681.38
416.29	1675.24
416.49	1755.11
416.70	1689.57
416.91	1712.10
417.11	1693.67
417.32	1767.40
417.53	1685.48
417.73	1720.29
417.94	1755.11
418.15	1673.19
418.35	1665.00
418.56	1761.25
418.77	1816.55
418.97	1658.85
419.18	1718.25
419.38	1630.18
419.59	1703.91
419.80	1732.58
420.00	1687.53
420.21	1714.15
420.42	1759.21
420.62	1699.81
420.83	1667.05
421.04	1683.43
421.24	1669.09
421.45	1736.68
421.65	1714.15
421.86	1615.85
422.07	1802.21
422.27	1810.40
422.48	1716.20
422.69	1619.94
422.89	1642.47
423.10	1681.38
423.30	1648.61
423.51	1740.77
423.72	1648.61
423.92	1742.82
424.13	1591.27
424.33	1675.24
424.54	1763.30
424.75	1724.39
424.95	1834.98
425.16	1712.10
425.36	1679.33
425.57	1832.93
425.78	1738.73
425.98	1759.21
426.19	1714.15
426.39	1734.63
426.60	1777.64
426.81	1837.03
427.01	1716.20
427.22	1626.09
427.42	1695.72
427.63	1626.09
427.83	1708.01
428.04	1781.73
428.25	1789.92
428.45	1830.88
428.66	1748.97
428.86	1726.44
429.07	1716.20
429.28	1787.88
429.48	1619.94
429.69	1669.09
429.89	1718.25
430.10	1667.05
430.30	1671.14
430.51	1708.01
430.71	1740.77
430.92	1646.57
431.13	1624.04
431.33	1775.59
431.54	1714.15
431.74	1746.92
431.95	1732.58
432.15	1687.53
432.36	1646.57
432.56	1789.92
432.77	1826.79
432.98	1738.73
433.18	1769.44
433.39	1736.68
433.59	1638.38
433.80	1804.26
434.00	1806.31
434.21	1640.42
434.41	1591.27
434.62	1894.37
434.82	1593.32
435.03	1583.08
435.23	1746.92
435.44	1652.71
435.64	1693.67
435.85	1689.57
436.06	1798.12
436.26	1771.49
436.47	1677.29
436.67	1656.81
436.88	1724.39
437.08	1800.16
437.29	1714.15
437.49	1748.97
437.70	1828.84
437.90	1697.77
438.11	1839.08
438.31	1853.41
438.52	1863.65
438.72	1828.84
438.93	1873.89
439.13	1748.97
439.34	1857.51
439.54	1755.11
439.75	1787.88
439.95	1736.68
440.16	1738.73
440.36	1746.92
440.57	1791.97
440.77	1761.25
440.98	1724.39
441.18	1744.87
441.39	1751.01
441.59	1652.71
441.80	1845.22
442.00	1775.59
442.21	1759.21
442.41	1634.28
442.62	1798.12
442.82	1638.38
443.02	1724.39
443.23	1740.77
443.43	1648.61
443.64	1820.64
443.84	1626.09
444.05	1742.82
444.25	1736.68
444.46	1744.87
444.66	1726.44
444.87	1812.45
445.07	1656.81
445.28	1742.82
445.48	1816.55
445.69	1755.11
445.89	1867.75
446.09	1767.40
446.30	2054.11
446.50	2725.85
446.71	3770.31
446.91	4257.73
447.12	4767.67
447.32	4868.02
447.53	4368.32
447.73	3979.20
447.93	3622.86
448.14	3315.66
448.34	3227.60
448.55	2887.64
448.75	2822.10
448.96	2742.23
449.16	2428.89
449.36	2230.24
449.57	2027.49
449.77	1906.66
449.98	1820.64
450.18	1787.88
450.39	1884.13
450.59	1783.78
450.79	1695.72
451.00	1693.67
451.20	1712.10
451.41	1728.49
451.61	1816.55
451.81	1679.33
452.02	1796.07
452.22	1824.74
452.43	1689.57
452.63	1665.00
452.84	1763.30
453.04	1751.01
453.24	1748.97
453.45	1685.48
453.65	1675.24
453.86	1712.10
454.06	1732.58
454.26	1746.92
454.47	1726.44
454.67	1896.42
454.87	1763.30
455.08	1767.40
455.28	1767.40
455.49	1710.05
455.69	1716.20
455.89	1916.90
456.10	1742.82
456.30	1728.49
456.51	1763.30
456.71	1714.15
456.91	1796.07
457.12	1728.49
457.32	1673.19
457.52	1689.57
457.73	1783.78
457.93	1742.82
458.14	1714.15
458.34	1687.53
458.54	1689.57
458.75	1759.21
458.95	1808.36
459.15	1757.16
459.36	1773.54
459.56	1722.34
459.76	1912.80
459.97	1746.92
460.17	1742.82
460.37	1812.45
460.58	1695.72
460.78	1822.69
460.99	1669.09
461.19	1714.15
461.39	1734.63
461.60	1742.82
461.80	1767.40
462.00	1638.38
462.21	1691.62
462.41	1642.47
462.61	1738.73
462.82	1626.09
463.02	1761.25
463.22	1736.68
463.43	1830.88
463.63	1759.21
463.83	1777.64
464.04	1732.58
464.24	1742.82
464.44	1656.81
464.64	1748.97
464.85	1671.14
465.05	1759.21
465.25	1726.44
465.46	1710.05
465.66	1787.88
465.86	1755.11
466.07	1746.92
466.27	1751.01
466.47	1673.19
466.68	1658.85
466.88	1753.06
467.08	1763.30
467.29	1810.40
467.49	1748.97
467.69	1738.73
467.89	1708.01
468.10	1705.96
468.30	1734.63
468.50	1771.49
468.71	1708.01
468.91	1701.86
469.11	1888.23
469.31	1744.87
469.52	1703.91
469.72	1851.36
469.92	1753.06
470.13	1683.43
470.33	1738.73
470.53	1812.45
470.73	2140.13
470.94	2299.87
471.14	2420.70
471.34	2508.76
471.54	2353.12
471.75	2310.11
471.95	2131.94
472.15	2113.50
472.36	2056.16
472.56	2090.98
472.76	2047.97
472.96	2002.91
473.17	1945.57
473.37	1898.47
473.57	1736.68
473.77	1853.41
473.98	1775.59
474.18	1654.76
474.38	1845.22
474.58	1677.29
474.79	1646.57
474.99	1783.78
475.19	1753.06
475.39	1761.25
475.60	1697.77
475.80	1730.53
476.00	1736.68
476.20	1753.06
476.41	1703.91
476.61	1804.26
476.81	1781.73
477.01	1634.28
477.21	1849.32
477.42	1705.96
477.62	1619.94
477.82	1787.88
478.02	1677.29
478.23	1771.49
478.43	1638.38
478.63	1742.82
478.83	1738.73
479.03	1718.25
479.24	1859.56
479.44	1759.21
479.64	1787.88
479.84	1542.12
480.04	1718.25
480.25	1771.49
480.45	1705.96
480.65	1757.16
480.85	1785.83
481.06	1654.76
481.26	1632.23
481.46	1808.36
481.66	1738.73
481.86	1681.38
482.06	1769.44
482.27	1697.77
482.47	1654.76
482.67	1730.53
482.87	1675.24
483.07	1888.23
483.28	1732.58
483.48	1656.81
483.68	1621.99
483.88	1644.52
484.08	1652.71
484.29	1630.18
484.49	1685.48
484.69	1679.33
484.89	1765.35
485.09	1753.06
485.29	1755.11
485.50	1746.92
485.70	1677.29
485.90	1816.55
486.10	1730.53
486.30	1705.96
486.50	1775.59
486.71	1771.49
486.91	1820.64
487.11	1732.58
487.31	1712.10
487.51	1812.45
487.71	1671.14
487.91	1699.81
488.12	1621.99
488.32	1632.23
488.52	1705.96
488.72	1607.66
488.92	1722.34
489.12	1822.69
489.32	1769.44
489.53	1767.40
489.73	1638.38
489.93	1830.88
490.13	1681.38
490.33	1658.85
490.53	1710.05
490.73	1714.15
490.94	1726.44
491.14	1800.16
491.34	1804.26
491.54	2189.28
491.74	2541.53
491.94	2963.41
492.14	3010.51
492.34	2951.12
492.54	2766.81
492.75	2461.66
492.95	2418.65
493.15	2371.55
493.35	2220.00
493.55	2252.77
493.75	2107.36
493.95	2076.64
494.15	1951.71
494.35	1947.62
494.56	1851.36
494.76	1759.21
494.96	1796.07
495.16	1705.96
495.36	1712.10
495.56	1720.29
495.76	1681.38
495.96	1703.91
496.16	1693.67
496.36	1800.16
496.56	1730.53
496.77	1708.01
496.97	1742.82
497.17	1783.78
497.37	1699.81
497.57	1777.64
497.77	1736.68
497.97	1583.08
498.17	1767.40
498.37	1724.39
498.57	1763.30
498.77	1734.63
498.97	1777.64
499.17	1779.68
499.38	1701.86
499.58	1783.78
499.78	1787.88
499.98	1824.74
500.18	1765.35
500.38	1734.63
500.58	1955.81
500.78	2506.71
500.98	4491.20
501.18	5842.85
501.38	6877.08
501.58	7239.57
501.78	6737.82
501.98	5824.42
502.18	5038.00
502.38	4452.28
502.58	4079.55
502.78	3880.90
502.98	3499.98
503.18	3465.16
503.38	3200.98
503.59	2828.24
503.79	2672.60
503.99	2484.19
504.19	2326.49
504.39	2183.13
504.59	2246.62
504.79	2082.78
504.99	2050.02
505.19	1927.14
505.39	1927.14
505.59	1988.58
505.79	1910.75
505.99	1832.93
506.19	1765.35
506.39	1853.41
506.59	1697.77
506.79	1779.68
506.99	1781.73
507.19	1806.31
507.39	1714.15
507.59	1755.11
507.79	1705.96
507.99	1695.72
508.19	1734.63
508.39	1775.59
508.59	1718.25
508.79	1802.21
508.99	1832.93
509.19	1732.58
509.39	1773.54
509.59	1722.34
509.79	1708.01
509.99	1785.83
510.19	1804.26
510.39	1796.07
510.59	1765.35
510.79	1691.62
510.99	1683.43
511.19	1701.86
511.39	1777.64
511.59	1773.54
511.79	1751.01
511.99	1710.05
512.19	1777.64
512.38	1705.96
512.58	1667.05
512.78	1796.07
512.98	1849.32
513.18	1755.11
513.38	1665.00
513.58	1763.30
513.78	1738.73
513.98	1751.01
514.18	1732.58
514.38	1738.73
514.58	1742.82
514.78	1718.25
514.98	1767.40
515.18	1677.29
515.38	1656.81
515.58	1791.97
515.78	1708.01
515.98	1720.29
516.18	1738.73
516.38	1751.01
516.57	1673.19
516.77	1640.42
516.97	1728.49
517.17	1656.81
517.37	1589.22
517.57	1753.06
517.77	1703.91
517.97	1695.72
518.17	1855.46
518.37	1656.81
518.57	1720.29
518.77	1755.11
518.97	1755.11
519.16	1728.49
519.36	1804.26
519.56	1789.92
519.76	1761.25
519.96	1732.58
520.16	1873.89
520.36	1656.81
520.56	1757.16
520.76	1759.21
520.96	1697.77
521.16	1783.78
521.35	1773.54
521.55	1863.65
521.75	1673.19
521.95	1732.58
522.15	1755.11
522.35	1669.09
522.55	1697.77
522.75	1767.40
522.95	1796.07
523.14	1679.33
523.34	1736.68
523.54	1685.48
523.74	1843.17
523.94	1822.69
524.14	1640.42
524.34	1755.11
524.54	1830.88
524.73	1761.25
524.93	1689.57
525.13	1781.73
525.33	1677.29
525.53	1767.40
525.73	1781.73
525.93	1722.34
526.13	1634.28
526.32	1722.34
526.52	1738.73
526.72	1755.11
526.92	1708.01
527.12	1742.82
527.32	1617.90
527.52	1699.81
527.71	1781.73
527.91	1730.53
528.11	1763.30
528.31	1714.15
528.51	1642.47
528.71	1720.29
528.90	1724.39
529.10	1765.35
529.30	1834.98
529.50	1624.04
529.70	1769.44
529.90	1681.38
530.09	1716.20
530.29	1632.23
530.49	1718.25
530.69	1826.79
530.89	1765.35
531.09	1744.87
531.28	1738.73
531.48	1798.12
531.68	1703.91
531.88	1742.82
532.08	1730.53
532.28	1665.00
532.47	1759.21
532.67	1787.88
532.87	1832.93
533.07	1714.15
533.27	1818.60
533.46	1771.49
533.66	1794.02
533.86	1728.49
534.06	1703.91
534.26	1767.40
534.45	1681.38
534.65	1726.44
534.85	1736.68
535.05	1628.14
535.25	1771.49
535.44	1611.75
535.64	1689.57
535.84	1677.29
536.04	1699.81
536.24	1697.77
536.43	1677.29
536.63	1769.44
536.83	1775.59
537.03	1740.77
537.22	1677.29
537.42	1599.46
537.62	1746.92
537.82	1673.19
538.02	1818.60
538.21	1740.77
538.41	1875.94
538.61	1742.82
538.81	1677.29
539.00	1783.78
539.20	1703.91
539.40	1691.62
539.60	1763.30
539.79	1787.88
539.99	1636.33
540.19	1685.48
540.39	1646.57
540.58	1753.06
540.78	1781.73
540.98	1734.63
541.18	1839.08
541.37	1751.01
541.57	1724.39
541.77	1705.96
541.97	1662.95
542.16	1665.00
542.36	1710.05
542.56	1746.92
542.76	1839.08
542.95	1738.73
543.15	1814.50
543.35	1771.49
543.54	1705.96
543.74	1722.34
543.94	1845.22
544.14	1691.62
544.33	1738.73
544.53	1732.58
544.73	1681.38
544.93	1646.57
545.12	1673.19
545.32	1734.63
545.52	1716.20
545.71	1705.96
545.91	1753.06
546.11	1708.01
546.30	1679.33
546.50	1732.58
546.70	1775.59
546.90	1767.40
547.09	1648.61
547.29	1658.85
547.49	1726.44
547.68	1710.05
547.88	1675.24
548.08	1779.68
548.27	2101.22
548.47	1626.09
548.67	1759.21
548.87	1730.53
549.06	1675.24
549.26	1701.86
549.46	1775.59
549.65	1714.15
549.85	1781.73
550.05	1705.96
550.24	1669.09
550.44	1667.05
550.64	1710.05
550.83	1806.31
551.03	1763.30
551.23	1761.25
551.42	1798.12
551.62	1669.09
551.82	1701.86
552.01	1720.29
552.21	1787.88
552.41	1771.49
552.60	1798.12
552.80	1738.73
553.00	1726.44
553.19	1732.58
553.39	1875.94
553.59	1624.04
553.78	1755.11
553.98	1755.11
554.17	1736.68
554.37	1763.30
554.57	1722.34
554.76	1621.99
554.96	1753.06
555.16	1730.53
555.35	1642.47
555.55	1779.68
555.75	1796.07
555.94	1787.88
556.14	1656.81
556.33	1771.49
556.53	1773.54
556.73	1634.28
556.92	1753.06
557.12	1847.27
557.32	1902.56
557.51	1787.88
557.71	1757.16
557.90	1800.16
558.10	1826.79
558.30	1748.97
558.49	1730.53
558.69	1710.05
558.88	1765.35
559.08	1740.77
559.28	1791.97
559.47	1796.07
559.67	1726.44
559.86	1839.08
560.06	1730.53
560.26	1732.58
560.45	1818.60
560.65	1658.85
560.84	1798.12
561.04	1673.19
561.24	1759.21
561.43	1691.62
561.63	1779.68
561.82	1665.00
562.02	1779.68
562.22	1603.56
562.41	1591.27
562.61	1681.38
562.80	1714.15
563.00	1912.80
563.19	1742.82
563.39	1738.73
563.59	1771.49
563.78	1693.67
563.98	1630.18
564.17	1734.63
564.37	1593.32
564.56	1703.91
564.76	1523.69
564.96	1820.64
565.15	1693.67
565.35	1996.77
565.54	1693.67
565.74	1740.77
565.93	1724.39
566.13	1779.68
566.32	1705.96
566.52	1779.68
566.71	1744.87
566.91	1759.21
567.11	1646.57
567.30	1697.77
567.50	1720.29
567.69	1791.97
567.89	1759.21
568.08	1701.86
568.28	1773.54
568.47	1722.34
568.67	1708.01
568.86	1648.61
569.06	1802.21
569.25	1767.40
569.45	1708.01
569.64	1703.91
569.84	1796.07
570.04	1765.35
570.23	1755.11
570.43	1677.29
570.62	1781.73
570.82	1912.80
571.01	1626.09
571.21	1703.91
571.40	1634.28
571.60	1808.36
571.79	1806.31
571.99	1763.30
572.18	1677.29
572.38	1796.07
572.57	1773.54
572.77	1703.91
572.96	1888.23
573.16	1767.40
573.35	1675.24
573.55	1796.07
573.74	1779.68
573.94	1728.49
574.13	1730.53
574.33	1796.07
574.52	1775.59
574.71	1724.39
574.91	1736.68
575.10	1699.81
575.30	1679.33
575.49	1693.67
575.69	1744.87
575.88	1757.16
576.08	1710.05
576.27	1804.26
576.47	1765.35
576.66	1757.16
576.86	1830.88
577.05	1757.16
577.25	1849.32
577.44	1955.81
577.64	1710.05
577.83	1779.68
578.02	1699.81
578.22	1798.12
578.41	1783.78
578.61	1759.21
578.80	1660.90
579.00	1742.82
579.19	1710.05
579.39	1855.46
579.58	1818.60
579.77	1744.87
579.97	1832.93
580.16	1800.16
580.36	1837.03
580.55	1775.59
580.75	1757.16
580.94	1771.49
581.13	1832.93
581.33	1779.68
581.52	1746.92
581.72	1806.31
581.91	1837.03
582.11	1738.73
582.30	1769.44
582.49	1703.91
582.69	1884.13
582.88	1820.64
583.08	1771.49
583.27	1816.55
583.47	1701.86
583.66	1683.43
583.85	1677.29
584.05	1734.63
584.24	1812.45
584.44	1808.36
584.63	1810.40
584.82	1832.93
585.02	1810.40
585.21	1765.35
585.41	1818.60
585.60	1759.21
585.79	1890.28
585.99	1898.47
586.18	1914.85
586.37	2183.13
586.57	3358.67
586.76	10059.62
586.96	25038.47
587.15	35063.27
587.34	41385.35
587.54	43119.98
587.73	37410.25
587.93	26834.53
588.12	21874.35
588.31	18501.35
588.51	16625.41
588.70	15339.29
588.89	14186.28
589.09	12842.81
589.28	11294.55
589.47	9639.79
589.67	8161.16
589.86	6543.26
590.06	4906.93
590.25	3942.34
590.44	3117.01
590.64	2535.39
590.83	2297.82
591.02	2156.51
591.22	1902.56
591.41	1947.62
591.60	1826.79
591.80	1964.00
591.99	1789.92
592.18	1775.59
592.38	1751.01
592.57	1681.38
592.76	1730.53
592.96	1783.78
593.15	1755.11
593.34	1761.25
593.54	1738.73
593.73	1779.68
593.92	1751.01
594.12	1671.14
594.31	1697.77
594.50	1810.40
594.70	1744.87
594.89	1906.66
595.08	1726.44
595.28	1763.30
595.47	2004.96
595.66	1765.35
595.86	1658.85
596.05	1685.48
596.24	1785.83
596.43	1888.23
596.63	1841.12
596.82	1734.63
597.01	1775.59
597.21	1806.31
597.40	1767.40
597.59	1800.16
597.79	1767.40
597.98	1751.01
598.17	1800.16
598.36	1761.25
598.56	1730.53
598.75	1712.10
598.94	1732.58
599.14	1763.30
599.33	1732.58
599.52	1763.30
599.71	1710.05
599.91	1800.16
600.10	1796.07
600.29	1779.68
600.48	1714.15
600.68	1720.29
600.87	1800.16
601.06	1722.34
601.26	1724.39
601.45	1722.34
601.64	1777.64
601.83	1841.12
602.03	1638.38
602.22	1662.95
602.41	1796.07
602.60	1826.79
602.80	1806.31
602.99	1767.40
603.18	1695.72
603.37	1773.54
603.57	1798.12
603.76	1853.41
603.95	1761.25
604.14	1763.30
604.34	1748.97
604.53	1763.30
604.72	1812.45
604.91	1783.78
605.10	1812.45
605.30	1648.61
605.49	1841.12
605.68	1695.72
605.87	1757.16
606.07	1671.14
606.26	1748.97
606.45	1755.11
606.64	1693.67
606.84	1708.01
607.03	1691.62
607.22	1779.68
607.41	1722.34
607.60	1660.90
607.80	1832.93
607.99	1662.95
608.18	1697.77
608.37	1710.05
608.56	1671.14
608.76	1798.12
608.95	1863.65
609.14	1849.32
609.33	1826.79
609.52	1800.16
609.72	1781.73
609.91	1665.00
610.10	1701.86
610.29	1822.69
610.48	1716.20
610.68	1771.49
610.87	1724.39
611.06	1720.29
611.25	1714.15
611.44	1812.45
611.63	1808.36
611.83	1828.84
612.02	1689.57
612.21	1699.81
612.40	1656.81
612.59	1742.82
612.79	1630.18
612.98	1748.97
613.17	1800.16
613.36	1708.01
613.55	1865.70
613.74	1683.43
613.93	1708.01
614.13	1652.71
614.32	1732.58
614.51	1714.15
614.70	1681.38
614.89	1693.67
615.08	1771.49
615.28	1951.71
615.47	1703.91
615.66	1736.68
615.85	1656.81
616.04	1839.08
616.23	1710.05
616.42	1695.72
616.62	1705.96
616.81	1703.91
617.00	1685.48
617.19	1814.50
617.38	1705.96
617.57	1794.02
617.76	1779.68
617.95	1781.73
618.15	1697.77
618.34	1869.80
618.53	1654.76
618.72	1781.73
618.91	1789.92
619.10	1814.50
619.29	1654.76
619.48	1703.91
619.68	1632.23
619.87	1738.73
620.06	1693.67
620.25	1734.63
620.44	1671.14
620.63	1738.73
620.82	1671.14
621.01	1722.34
621.20	1718.25
621.39	1705.96
621.59	1720.29
621.78	1607.66
621.97	1820.64
622.16	1720.29
622.35	1755.11
622.54	1763.30
622.73	1834.98
622.92	1687.53
623.11	1697.77
623.30	1794.02
623.49	1767.40
623.68	1708.01
623.88	1822.69
624.07	1677.29
624.26	1677.29
624.45	1671.14
624.64	1697.77
624.83	1687.53
625.02	1671.14
625.21	1787.88
625.40	1751.01
625.59	1773.54
625.78	1681.38
625.97	1787.88
626.16	1812.45
626.35	1722.34
626.54	1724.39
626.74	1859.56
626.93	1712.10
627.12	1669.09
627.31	1787.88
627.50	1763.30
627.69	1775.59
627.88	1642.47
628.07	1675.24
628.26	1681.38
628.45	1650.66
628.64	1730.53
628.83	1779.68
629.02	1632.23
629.21	1773.54
629.40	1695.72
629.59	1669.09
629.78	1634.28
629.97	1703.91
630.16	1773.54
630.35	1638.38
630.54	1720.29
630.73	1624.04
630.92	1730.53
631.11	1644.52
631.30	1777.64
631.49	1832.93
631.68	1808.36
631.87	1755.11
632.06	1656.81
632.25	1824.74
632.44	1771.49
632.63	1738.73
632.82	1703.91
633.01	1646.57
633.20	1673.19
633.39	1628.14
633.58	1609.70
633.77	1751.01
633.96	1730.53
634.15	1800.16
634.34	1746.92
634.53	1751.01
634.72	1662.95
634.91	1626.09
635.10	1695.72
635.29	1765.35
635.48	1806.31
635.67	1771.49
635.86	1648.61
636.05	1773.54
636.24	1705.96
636.43	1755.11
636.62	1755.11
636.81	1621.99
637.00	1736.68
637.19	1693.67
637.38	1722.34
637.57	1667.05
637.76	1673.19
637.95	1742.82
638.14	1603.56
638.33	1722.34
638.52	1757.16
638.71	1748.97
638.89	1624.04
639.08	1808.36
639.27	1769.44
639.46	1781.73
639.65	1748.97
639.84	1738.73
640.03	1806.31
640.22	1665.00
640.41	1832.93
640.60	1710.05
640.79	1675.24
640.98	1693.67
641.17	1798.12
641.36	1763.30
641.55	1763.30
641.74	1615.85
641.92	1691.62
642.11	1677.29
642.30	1646.57
642.49	1628.14
642.68	1644.52
642.87	1697.77
643.06	1800.16
643.25	1701.86
643.44	1689.57
643.63	1718.25
643.82	1798.12
644.00	1697.77
644.19	1667.05
644.38	1742.82
644.57	1722.34
644.76	1687.53
644.95	1740.77
645.14	1658.85
645.33	1648.61
645.52	1734.63
645.71	1679.33
645.89	1695.72
646.08	1681.38
646.27	1634.28
646.46	1779.68
646.65	1656.81
646.84	1789.92
647.03	1681.38
647.22	1763.30
647.40	1736.68
647.59	1695.72
647.78	1527.78
647.97	1665.00
648.16	1578.98
648.35	1849.32
648.54	1826.79
648.73	1648.61
648.91	1802.21
649.10	1765.35
649.29	1705.96
649.48	1683.43
649.67	1693.67
649.86	1802.21
650.05	1705.96
650.23	1761.25
650.42	1640.42
650.61	1734.63
650.80	1812.45
650.99	1826.79
651.18	1689.57
651.36	1773.54
651.55	1726.44
651.74	1808.36
651.93	1677.29
652.12	1705.96
652.31	1722.34
652.49	1677.29
652.68	1640.42
652.87	1724.39
653.06	1662.95
653.25	1812.45
653.44	1726.44
653.62	1712.10
653.81	1755.11
654.00	1726.44
654.19	1763.30
654.38	1824.74
654.56	1755.11
654.75	1689.57
654.94	1779.68
655.13	1757.16
655.32	1730.53
655.51	1796.07
655.69	1619.94
655.88	1648.61
656.07	1687.53
656.26	1740.77
656.45	1632.23
656.63	1687.53
656.82	1675.24
657.01	1785.83
657.20	1628.14
657.38	1757.16
657.57	1673.19
657.76	1642.47
657.95	1738.73
658.14	1710.05
658.32	1742.82
658.51	1650.66
658.70	1748.97
658.89	1720.29
659.08	1693.67
659.26	1800.16
659.45	1656.81
659.64	1779.68
659.83	1656.81
660.01	1906.66
660.20	1683.43
660.39	1779.68
660.58	1638.38
660.76	1796.07
660.95	1599.46
661.14	1734.63
661.33	1624.04
661.51	1587.18
661.70	1658.85
661.89	1703.91
662.08	1710.05
662.26	1630.18
662.45	1701.86
662.64	1834.98
662.83	1742.82
663.01	1724.39
663.20	1665.00
663.39	1802.21
663.58	1638.38
663.76	1732.58
663.95	1753.06
664.14	1755.11
664.32	1740.77
664.51	1697.77
664.70	1624.04
664.89	1708.01
665.07	1597.42
665.26	1818.60
665.45	1642.47
665.64	1789.92
665.82	1804.26
666.01	1783.78
666.20	1589.22
666.38	1710.05
666.57	1832.93
666.76	2138.08
666.95	4437.95
667.13	10471.26
667.32	15419.16
667.51	18276.07
667.69	19693.27
667.88	18163.43
668.07	12638.02
668.25	9523.05
668.44	8245.12
668.63	7440.27
668.81	7047.06
669.00	6360.99
669.19	5826.47
669.38	5187.50
669.56	4630.46
669.75	4065.22
669.94	3561.42
670.12	3057.62
670.31	2551.77
670.50	2244.57
670.68	2052.06
670.87	1894.37
671.06	1808.36
671.24	1871.84
671.43	1808.36
671.62	1722.34
671.80	1738.73
671.99	1601.51
672.18	1738.73
672.36	1740.77
672.55	1736.68
672.74	1691.62
672.92	1695.72
673.11	1710.05
673.29	1675.24
673.48	1757.16
673.67	1685.48
673.85	1775.59
674.04	1630.18
674.23	1765.35
674.41	1834.98
674.60	1677.29
674.79	1665.00
674.97	1607.66
675.16	1708.01
675.34	1730.53
675.53	1689.57
675.72	1689.57
675.90	1802.21
676.09	1701.86
676.28	1742.82
676.46	1554.41
676.65	1724.39
676.83	1769.44
677.02	1812.45
677.21	1675.24
677.39	1767.40
677.58	1773.54
677.77	1751.01
677.95	1689.57
678.14	1642.47
678.32	1681.38
678.51	1732.58
678.70	1812.45
678.88	1738.73
679.07	1804.26
679.25	1732.58
679.44	1753.06
679.63	1640.42
679.81	1716.20
680.00	1798.12
680.18	1744.87
680.37	1802.21
680.55	1656.81
680.74	1603.56
680.93	1609.70
681.11	1722.34
681.30	1714.15
681.48	1812.45
681.67	1628.14
681.85	1765.35
682.04	1621.99
682.23	1796.07
682.41	1724.39
682.60	1705.96
682.78	1642.47
682.97	1615.85
683.15	1769.44
683.34	1720.29
683.53	1710.05
683.71	1619.94
683.90	1812.45
684.08	1853.41
684.27	1701.86
684.45	1714.15
684.64	1765.35
684.82	1738.73
685.01	1769.44
685.19	1685.48
685.38	1759.21
685.57	1746.92
685.75	1708.01
685.94	1673.19
686.12	1609.70
686.31	1628.14
686.49	1746.92
686.68	1572.84
686.86	1746.92
687.05	1689.57
687.23	1830.88
687.42	1648.61
687.60	1673.19
687.79	1714.15
687.97	1783.78
688.16	1714.15
688.34	1798.12
688.53	1652.71
688.71	1748.97
688.90	1779.68
689.08	1669.09
689.27	1677.29
689.45	1769.44
689.64	1746.92
689.82	1763.30
690.01	1665.00
690.19	1677.29
690.38	1679.33
690.56	1724.39
690.75	1640.42
690.93	1589.22
691.12	1675.24
691.30	1703.91
691.49	1642.47
691.67	1730.53
691.86	1777.64
692.04	1665.00
692.23	1634.28
692.41	1673.19
692.60	1824.74
692.78	1761.25
692.97	1615.85
693.15	1777.64
693.34	1804.26
693.52	1730.53
693.71	1708.01
693.89	1675.24
694.08	1648.61
694.26	1705.96
694.44	1720.29
694.63	1730.53
694.81	1611.75
695.00	1755.11
695.18	1804.26
695.37	1730.53
695.55	1642.47
695.74	1689.57
695.92	1660.90
696.10	1751.01
696.29	1640.42
696.47	1642.47
696.66	1652.71
696.84	1607.66
697.03	1730.53
697.21	1849.32
697.40	2299.87
697.58	1699.81
697.76	1718.25
697.95	1687.53
698.13	1636.33
698.32	1660.90
698.50	1716.20
698.68	1734.63
698.87	1779.68
699.05	1746.92
699.24	1669.09
699.42	1619.94
699.61	1718.25
699.79	1671.14
699.97	1716.20
700.16	1746.92
700.34	1626.09
700.53	1738.73
700.71	1759.21
700.89	1746.92
701.08	1716.20
701.26	1714.15
701.45	2037.73
701.63	1679.33
701.81	1734.63
702.00	1681.38
702.18	1654.76
702.37	1595.37
702.55	1660.90
702.73	1751.01
702.92	1677.29
703.10	1734.63
703.28	1695.72
703.47	1619.94
703.65	1789.92
703.84	1759.21
704.02	1724.39
704.20	1806.31
704.39	1603.56
704.57	1695.72
704.75	1804.26
704.94	1759.21
705.12	1699.81
705.30	1824.74
705.49	2232.29
705.67	4347.84
705.86	9510.77
706.04	12826.43
706.22	14919.45
706.41	15851.28
706.59	14051.11
706.77	9791.34
706.96	7589.77
707.14	6774.68
707.32	6051.75
707.51	5668.78
707.69	4990.90
707.87	4325.31
708.06	3585.99
708.24	3018.71
708.42	2445.27
708.61	2322.40
708.79	1898.47
708.97	1834.98
709.16	1757.16
709.34	1855.46
709.52	1689.57
709.71	1746.92
709.89	1755.11
710.07	1648.61
710.26	1687.53
710.44	1779.68
710.62	1779.68
710.80	1724.39
710.99	1783.78
711.17	1794.02
711.35	1677.29
711.54	1679.33
711.72	1890.28
711.90	1771.49
712.09	1726.44
712.27	1677.29
712.45	1734.63
712.63	1705.96
712.82	1742.82
713.00	1673.19
713.18	1726.44
713.37	1736.68
713.55	1765.35
713.73	1744.87
713.91	1789.92
714.10	1650.66
714.28	1767.40
714.46	1726.44
714.65	1742.82
714.83	1675.24
715.01	1742.82
715.19	1673.19
715.38	1644.52
715.56	1697.77
715.74	1642.47
715.92	1662.95
716.11	1763.30
716.29	1609.70
716.47	1679.33
716.65	1779.68
716.84	1607.66
717.02	1705.96
717.20	1619.94
717.38	1648.61
717.57	1771.49
717.75	1691.62
717.93	1683.43
718.11	1708.01
718.30	1628.14
718.48	1675.24
718.66	1724.39
718.84	1701.86
719.03	1804.26
719.21	1613.80
719.39	1839.08
719.57	1800.16
719.75	1720.29
719.94	1691.62
720.12	1695.72
720.30	1722.34
720.48	1755.11
720.67	1695.72
720.85	1634.28
721.03	1683.43
721.21	1650.66
721.39	1746.92
721.58	1728.49
721.76	1656.81
721.94	1679.33
722.12	1703.91
722.30	1746.92
722.49	1691.62
722.67	1689.57
722.85	1691.62
723.03	1619.94
723.21	1667.05
723.40	1775.59
723.58	1828.84
723.76	1693.67
723.94	1779.68
724.12	1695.72
724.30	1861.60
724.49	1794.02
724.67	1632.23
724.85	1753.06
725.03	1656.81
725.21	1761.25
725.40	1767.40
725.58	1705.96
725.76	1751.01
725.94	1820.64
726.12	1665.00
726.30	1779.68
726.49	1636.33
726.67	1650.66
726.85	1714.15
727.03	1753.06
727.21	2164.70
727.39	2916.31
727.57	3776.45
727.76	4229.06
727.94	4523.96
728.12	4296.64
728.30	3653.58
728.48	2981.84
728.66	2746.33
728.84	2576.34
729.03	2306.01
729.21	2201.57
729.39	1951.71
729.57	1779.68
729.75	1804.26
729.93	1779.68
730.11	1726.44
730.30	1751.01
730.48	1746.92
730.66	1804.26
730.84	1755.11
731.02	1738.73
731.20	1638.38
731.38	1662.95
731.56	1675.24
731.74	1603.56
731.93	1685.48
732.11	1705.96
732.29	1697.77
732.47	1775.59
732.65	1759.21
732.83	1765.35
733.01	1761.25
733.19	1650.66
733.37	1712.10
733.56	1718.25
733.74	1644.52
733.92	1728.49
734.10	1550.31
734.28	1779.68
734.46	1574.89
734.64	1591.27
734.82	1718.25
735.00	1681.38
735.18	1609.70
735.36	1693.67
735.54	1720.29
735.73	1751.01
735.91	1716.20
736.09	1742.82
736.27	1673.19
736.45	1746.92
736.63	1523.69
736.81	1689.57
736.99	1779.68
737.17	1769.44
737.35	1695.72
737.53	1718.25
737.71	1654.76
737.89	1726.44
738.07	1634.28
738.25	1619.94
738.43	1609.70
738.61	1632.23
738.80	1646.57
738.98	1710.05
739.16	1697.77
739.34	1662.95
739.52	1787.88
739.70	1701.86
739.88	1748.97
740.06	1779.68
740.24	1630.18
740.42	1697.77
740.60	1599.46
740.78	1650.66
740.96	1605.61
741.14	1712.10
741.32	1736.68
741.50	1665.00
741.68	1804.26
741.86	1738.73
742.04	1607.66
742.22	1609.70
742.40	1714.15
742.58	1726.44
742.76	1628.14
742.94	1775.59
743.12	1640.42
743.30	1624.04
743.48	1751.01
743.66	1591.27
743.84	1703.91
744.02	1718.25
744.20	1669.09
744.38	1644.52
744.56	1685.48
744.74	1832.93
744.92	1779.68
745.10	1736.68
745.28	1695.72
745.46	1822.69
745.64	1642.47
745.82	1742.82
746.00	1695.72
746.18	1691.62
746.36	1708.01
746.54	1791.97
746.72	1689.57
746.90	1652.71
747.08	1796.07
747.26	1638.38
747.44	1667.05
747.62	1730.53
747.80	1718.25
747.98	1759.21
748.15	1693.67
748.33	1775.59
748.51	1656.81
748.69	1730.53
748.87	1681.38
749.05	1710.05
749.23	1683.43
749.41	1669.09
749.59	1597.42
749.77	1705.96
749.95	1673.19
750.13	1716.20
750.31	1718.25
750.49	1671.14
750.67	1736.68
750.85	1789.92
751.03	1691.62
751.20	1769.44
751.38	1744.87
751.56	1705.96
751.74	1691.62
751.92	1671.14
752.10	1673.19
752.28	1794.02
752.46	1701.86
752.64	1732.58
752.82	1681.38
753.00	1753.06
753.18	1755.11
753.35	1630.18
753.53	1654.76
753.71	1638.38
753.89	1740.77
754.07	1720.29
754.25	1697.77
754.43	1718.25
754.61	1665.00
754.79	1705.96
754.97	1740.77
755.14	1740.77
755.32	1671.14
755.50	1710.05
755.68	1714.15
755.86	1628.14
756.04	1677.29
756.22	1605.61
756.40	1681.38
756.57	1810.40
756.75	1648.61
756.93	1757.16
757.11	1744.87
757.29	1624.04
757.47	1578.98
757.65	1603.56
757.82	1673.19
758.00	1658.85
758.18	1611.75
758.36	1652.71
758.54	1714.15
758.72	1603.56
758.90	1751.01
759.07	1658.85
759.25	1648.61
759.43	1791.97
759.61	1634.28
759.79	2203.61
759.97	1755.11
760.15	1660.90
760.32	1691.62
760.50	1734.63
760.68	1759.21
760.86	1650.66
761.04	1814.50
761.22	1812.45
761.39	1683.43
761.57	1779.68
761.75	1675.24
761.93	1699.81
762.11	1718.25
762.28	1644.52
762.46	1613.80
762.64	1695.72
762.82	1640.42
763.00	1693.67
763.18	1779.68
763.35	1656.81
763.53	1732.58
763.71	1742.82
763.89	1673.19
764.07	1699.81
764.24	1609.70
764.42	1730.53
764.60	1648.61
764.78	1708.01
764.96	1742.82
765.13	1703.91
765.31	1634.28
765.49	1773.54
765.67	1673.19
765.84	1695.72
766.02	1658.85
766.20	1652.71
766.38	1640.42
766.56	1720.29
766.73	1710.05
766.91	1755.11
767.09	1665.00
767.27	1730.53
767.44	1652.71
767.62	1734.63
767.80	1689.57
767.98	1748.97
768.15	1689.57
768.33	1740.77
768.51	1722.34
768.69	1699.81
768.87	1761.25
769.04	1695.72
769.22	1779.68
769.40	1789.92
769.58	1783.78
769.75	1693.67
769.93	1771.49
770.11	1677.29
770.28	1646.57
770.46	1804.26
770.64	1744.87
770.82	1691.62
770.99	1640.42
771.17	1724.39
771.35	1675.24
771.53	1726.44
771.70	1681.38
771.88	1687.53
772.06	1708.01
772.23	1632.23
772.41	1742.82
772.59	1644.52
772.77	1636.33
772.94	1791.97
773.12	1759.21
773.30	1730.53
773.47	1646.57
773.65	1656.81
773.83	1798.12
774.01	1650.66
774.18	1634.28
774.36	1712.10
774.54	1658.85
774.71	1710.05
774.89	1691.62
775.07	1601.51
775.24	1718.25
775.42	1734.63
775.60	1779.68
775.78	1658.85
775.95	1613.80
776.13	1662.95
776.31	1535.98
776.48	1683.43
776.66	1746.92
776.84	1669.09
777.01	1755.11
777.19	1660.90
777.37	1617.90
777.54	1697.77
777.72	1810.40
777.90	1732.58
778.07	1714.15
778.25	1830.88
778.43	1720.29
778.60	1681.38
778.78	1761.25
778.96	1804.26
779.13	1650.66
779.31	1708.01
779.49	1726.44
779.66	1689.57
779.84	1742.82
780.01	1761.25
780.19	1634.28
780.37	1738.73
780.54	1767.40
780.72	1656.81
780.90	1673.19
781.07	1720.29
781.25	1654.76
781.43	1736.68
781.60	1703.91
781.78	1775.59
781.95	1683.43
782.13	1716.20
782.31	1779.68
782.48	1654.76
782.66	1720.29
782.83	1828.84
783.01	1656.81
783.19	1720.29
783.36	1699.81
783.54	1597.42
783.72	1673.19
783.89	1665.00
784.07	1744.87
784.24	1834.98
784.42	1804.26
784.60	1687.53
784.77	1714.15
784.95	1556.46
785.12	1679.33
785.30	1724.39
785.47	1667.05
785.65	1656.81
785.83	1648.61
786.00	1673.19
786.18	1755.11
786.35	1662.95
786.53	1662.95
786.71	1744.87
786.88	1722.34
787.06	1722.34
787.23	1705.96
787.41	1650.66
787.58	1689.57
787.76	1669.09
787.94	1714.15
788.11	1658.85
788.29	1626.09
788.46	1738.73
788.64	1658.85
788.81	1716.20
788.99	1701.86
789.16	1624.04
789.34	1755.11
789.52	1699.81
789.69	1669.09
789.87	1574.89
790.04	1746.92
790.22	1683.43
790.39	1787.88
790.57	1679.33
790.74	1691.62
790.92	1720.29
791.09	1626.09
791.27	1699.81
791.44	1708.01
791.62	1665.00
791.79	1736.68
791.97	1605.61
792.15	1894.37
792.32	1738.73
792.50	1726.44
792.67	1796.07
792.85	1789.92
793.02	1611.75
793.20	1662.95
793.37	1624.04
793.55	1665.00
793.72	1665.00
793.90	1751.01
794.07	1660.90
794.25	1714.15
794.42	1726.44
794.60	1687.53
794.77	1720.29
794.95	1681.38
795.12	1714.15
795.30	1640.42
795.47	1642.47
795.65	1871.84
795.82	1796.07
796.00	1540.07
796.17	1658.85
796.34	1652.71
796.52	1720.29
796.69	1785.83
796.87	1656.81
797.04	1708.01
797.22	1740.77
797.39	1701.86
797.57	1705.96
797.74	1783.78
797.92	1730.53
798.09	1660.90
798.27	1738.73
798.44	1687.53
798.62	1656.81
798.79	1667.05
798.96	1767.40
799.14	1658.85
799.31	1761.25
799.49	1617.90
799.66	1634.28
799.84	1714.15
800.01	1542.12
800.19	1638.38
800.36	1621.99
800.53	1677.29
800.71	1728.49
800.88	1718.25
801.06	1675.24
801.23	1705.96
801.41	1693.67
801.58	1705.96
801.75	1634.28
801.93	1683.43
802.10	1779.68
802.28	1744.87
802.45	1671.14
802.63	1632.23
802.80	1794.02
802.97	1742.82
803.15	1695.72
803.32	1646.57
803.50	1628.14
803.67	1632.23
803.84	1660.90
804.02	1652.71
804.19	1675.24
804.37	1519.59
804.54	1617.90
804.71	1699.81
804.89	1685.48
805.06	1619.94
805.24	1546.22
805.41	1613.80
805.58	1626.09
805.76	1742.82
805.93	1726.44
806.10	1826.79
806.28	1765.35
806.45	1669.09
806.63	1759.21
806.80	1667.05
806.97	1726.44
807.15	1738.73
807.32	1701.86
807.49	1687.53
807.67	1679.33
807.84	1687.53
808.01	1624.04
808.19	1763.30
808.36	1841.12
808.54	1640.42
808.71	1621.99
808.88	1732.58
809.06	1722.34
809.23	1843.17
809.40	1638.38
809.58	1834.98
809.75	1697.77
809.92	1710.05
810.10	1839.08
810.27	1734.63
810.44	1728.49
810.62	1683.43
810.79	1703.91
810.96	1650.66
811.14	1681.38
811.31	1746.92
811.48	1705.96
811.66	1675.24
811.83	1703.91
812.00	1705.96
812.18	1744.87
812.35	1796.07
812.52	1656.81
812.69	1581.03
812.87	1642.47
813.04	1705.96
813.21	1705.96
813.39	1640.42
813.56	1667.05
813.73	1812.45
813.91	1593.32
814.08	1673.19
814.25	1695.72
814.42	1578.98
814.60	1701.86
814.77	1722.34
814.94	1767.40
815.12	1687.53
815.29	1748.97
815.46	1609.70
815.63	1669.09
815.81	1722.34
815.98	1703.91
816.15	1679.33
816.33	1665.00
816.50	1632.23
816.67	1734.63
816.84	1728.49
817.02	1652.71
817.19	1730.53
817.36	1755.11
817.53	1759.21
817.71	1695.72
817.88	1734.63
818.05	1667.05
818.22	1607.66
818.40	1783.78
818.57	1708.01
818.74	1757.16
818.91	1658.85
819.09	1759.21
819.26	1753.06
819.43	1628.14
819.60	1722.34
819.78	1667.05
819.95	1804.26
820.12	1665.00
820.29	1755.11
820.47	1644.52
820.64	1671.14
820.81	1654.76
820.98	1687.53
821.15	1644.52
821.33	1685.48
821.50	1576.94
821.67	1708.01
821.84	1673.19
822.02	1757.16
822.19	1726.44
822.36	1673.19
822.53	1730.53
822.70	1593.32
822.88	1656.81
823.05	1765.35
823.22	1591.27
823.39	1732.58
823.56	1613.80
823.74	1808.36
823.91	1632.23
824.08	1693.67
824.25	1673.19
824.42	1834.98
824.60	1587.18
824.77	1744.87
824.94	1714.15
825.11	1759.21
825.28	1640.42
825.45	1683.43
825.63	1669.09
825.80	1624.04
825.97	1757.16
826.14	1699.81
826.31	1640.42
826.48	1689.57
826.66	1746.92
826.83	1642.47
827.00	1701.86
827.17	1624.04
827.34	1705.96
827.51	1742.82
827.69	1615.85
827.86	1550.31
828.03	1677.29
828.20	1665.00
828.37	1656.81
828.54	1630.18
828.71	1634.28
828.89	1812.45
829.06	1662.95
829.23	1785.83
829.40	1650.66
829.57	1648.61
829.74	1708.01
829.91	1652.71
830.09	1648.61
830.26	1724.39
830.43	1791.97
830.60	1685.48
830.77	1716.20
830.94	1732.58
831.11	1703.91
831.28	1652.71
831.46	1767.40
831.63	1646.57
831.80	1736.68
831.97	1755.11
832.14	1748.97
832.31	1736.68
832.48	1714.15
832.65	1716.20
832.82	1652.71
832.99	1712.10
833.17	1630.18
833.34	1806.31
833.51	1734.63
833.68	1597.42
833.85	1755.11
834.02	1628.14
834.19	1648.61
834.36	1671.14
834.53	1697.77
834.70	1724.39
834.87	1794.02
835.04	1724.39
835.22	1638.38
835.39	1658.85
835.56	1656.81
835.73	1642.47
835.90	1757.16
836.07	1632.23
836.24	1732.58
836.41	1648.61
836.58	1529.83
836.75	1779.68
836.92	1660.90
837.09	1673.19
837.26	1783.78
837.43	1654.76
837.60	1736.68
837.77	1685.48
837.94	1689.57
838.12	1738.73
838.29	1701.86
838.46	1648.61
838.63	1624.04
838.80	1804.26
838.97	1673.19
839.14	1699.81
839.31	1628.14
839.48	1824.74
839.65	1701.86
839.82	1779.68
839.99	1720.29
840.16	1673.19
840.33	1656.81
840.50	1685.48
840.67	1656.81
840.84	1509.35
841.01	1740.77
841.18	1677.29
841.35	1759.21
841.52	1714.15
841.69	1755.11
841.86	1726.44
842.03	1718.25
842.20	1789.92
842.37	1703.91
842.54	1753.06
842.71	1626.09
842.88	1619.94
843.05	1724.39
843.22	1705.96
843.39	1767.40
843.56	1624.04
843.73	1669.09
843.90	1685.48
844.07	1740.77
844.24	1785.83
844.41	1697.77
844.58	1695.72
844.75	1634.28
844.92	1675.24
845.09	1705.96
845.26	1642.47
845.43	1775.59
845.60	1695.72
845.77	1826.79
845.94	1640.42
846.10	1761.25
846.27	1621.99
846.44	1656.81
846.61	1673.19
846.78	1685.48
846.95	1734.63
847.12	1640.42
847.29	1716.20
847.46	1595.37
847.63	1859.56
847.80	1607.66
847.97	1677.29
848.14	1843.17
848.31	1724.39
848.48	1624.04
848.65	1708.01
848.82	1591.27
848.98	1791.97
849.15	1671.14
849.32	1732.58
849.49	1734.63
849.66	1732.58
849.83	1701.86
850.00	1654.76
850.17	1736.68
850.34	1714.15
850.51	1624.04
850.68	1626.09
850.85	1814.50
851.01	1687.53
851.18	1697.77
851.35	1689.57
851.52	1665.00
851.69	1724.39
851.86	1748.97
852.03	1652.71
852.20	1652.71
852.37	1718.25
852.53	1595.37
852.70	1738.73
852.87	1718.25
853.04	1746.92
853.21	1695.72
853.38	1757.16
853.55	1800.16
853.72	1746.92
853.89	1660.90
854.05	1640.42
854.22	1755.11
854.39	1708.01
854.56	1705.96
854.73	1740.77
854.90	1597.42
855.07	1759.21
855.23	1642.47
855.40	1740.77
855.57	1683.43
855.74	1621.99
855.91	1892.32
856.08	1648.61
856.25	1654.76
856.41	1619.94
856.58	1710.05
856.75	1689.57
856.92	1660.90
857.09	1796.07
857.26	1644.52
857.42	1619.94
857.59	1753.06
857.76	1624.04
857.93	1679.33
858.10	1689.57
858.27	1650.66
858.43	1701.86
858.60	1658.85
858.77	1638.38
858.94	1658.85
859.11	1742.82
859.27	1638.38
859.44	1615.85
859.61	1814.50
859.78	1656.81
859.95	1675.24
860.12	1648.61
860.28	1724.39
860.45	1771.49
860.62	1683.43
860.79	1636.33
860.95	1679.33
861.12	1619.94
861.29	1634.28
861.46	1583.08
861.63	1609.70
861.79	1759.21
861.96	1652.71
862.13	1691.62
862.30	1810.40
862.47	1708.01
862.63	1624.04
862.80	1843.17
862.97	1736.68
863.14	1763.30
863.30	1732.58
863.47	1646.57
863.64	1820.64
863.81	1736.68
863.97	1718.25
864.14	1751.01
864.31	1685.48
864.48	1691.62
864.65	1683.43
864.81	1718.25
864.98	1697.77
865.15	1705.96
865.32	1806.31
865.48	1845.22
865.65	1839.08
865.82	1683.43
865.98	1736.68
866.15	1685.48
866.32	1726.44
866.49	1685.48
866.65	1755.11
866.82	1693.67
866.99	1705.96
867.16	1634.28
867.32	1673.19
867.49	1658.85
867.66	1761.25
867.83	1648.61
867.99	1576.94
868.16	1724.39
868.33	1628.14
868.49	1595.37
868.66	1656.81
868.83	1734.63
868.99	1718.25
869.16	1710.05
869.33	1652.71
869.50	1699.81
869.66	1730.53
869.83	1665.00
870.00	1550.31
870.16	1712.10
870.33	1724.39
870.50	1724.39
870.66	1687.53
870.83	1828.84
871.00	1714.15
871.17	1681.38
871.33	1759.21
871.50	1660.90
871.67	1609.70
871.83	1638.38
872.00	1810.40
872.17	1697.77
872.33	1810.40
872.50	1783.78
872.67	1599.46
872.83	1699.81
873.00	1746.92
873.17	1699.81
873.33	1796.07
873.50	1710.05
873.67	1652.71
873.83	1613.80
874.00	1708.01
874.16	1742.82
874.33	1714.15
874.50	1560.55
874.66	1804.26
874.83	1669.09
875.00	1814.50
875.16	1787.88
875.33	1742.82
875.50	1646.57
875.66	1669.09
875.83	1667.05
875.99	1710.05
876.16	1628.14
876.33	1611.75
876.49	1613.80
876.66	1714.15
876.83	1675.24
876.99	1572.84
877.16	1740.77
877.32	1675.24
877.49	1605.61
877.66	1681.38
877.82	1755.11
877.99	1796.07
878.15	1728.49
878.32	1728.49
878.49	1765.35
878.65	1628.14
878.82	1742.82
878.98	1626.09
879.15	1744.87
879.32	1691.62
879.48	1652.71
879.65	1656.81
879.81	1708.01
879.98	1615.85
880.15	1683.43
880.31	1742.82
880.48	1689.57
880.64	1755.11
880.81	1658.85
880.97	1845.22
881.14	1757.16
881.31	1691.62
881.47	1867.75
881.64	1665.00
881.80	1630.18
881.97	1734.63
882.13	1830.88
882.30	1658.85
882.47	1642.47
882.63	1591.27
882.80	1693.67
882.96	1603.56
883.13	1740.77
883.29	1779.68
883.46	1779.68
883.62	1726.44
883.79	1677.29
883.95	1742.82
884.12	1834.98
884.29	1693.67
884.45	1691.62
884.62	1728.49
884.78	1638.38
884.95	1751.01
885.11	1675.24
885.28	1695.72
885.44	1624.04
885.61	1789.92
885.77	1787.88
885.94	1726.44
886.10	1658.85
886.27	1642.47
886.43	1726.44
886.60	1761.25
886.76	1697.77
886.93	1624.04
887.09	1699.81
887.26	1558.50
887.42	1728.49
887.59	1726.44
887.75	1765.35
887.92	1759.21
888.08	1767.40
888.25	1867.75
888.41	1771.49
888.58	1730.53
888.74	1646.57
888.91	1662.95
>>>>>End Processed Spectral Data<<<<<
