SpectraSuite Data File
++++++++++++++++++++++++++++++++++++
Date: Mon Jun 06 13:44:57 CEST 2016
User: root
Dark Spectrum Present: No
Reference Spectrum Present: No
Number of Sampled Component Spectra: 1
Spectrometers: USB4C02835
Integration Time (usec): 100000 (USB4C02835)
Spectra Averaged: 1 (USB4C02835)
Boxcar Smoothing: 0 (USB4C02835)
Correct for Electrical Dark: No (USB4C02835)
Strobe/Lamp Enabled: No (USB4C02835)
Correct for Detector Non-linearity: No (USB4C02835)
Correct for Stray Light: No (USB4C02835)
Number of Pixels in Processed Spectrum: 3648
>>>>>Begin Processed Spectral Data<<<<<
177.47	1488.87
177.69	1488.87
177.91	1488.87
178.13	1454.06
178.36	1484.78
178.58	1603.56
178.80	1712.10
179.02	1609.70
179.24	1691.62
179.46	1685.48
179.68	1753.06
179.90	1705.96
180.13	1738.73
180.35	1689.57
180.57	1716.20
180.79	1718.25
181.01	1724.39
181.23	1738.73
181.45	1736.68
181.67	1671.14
181.90	1722.34
182.12	1712.10
182.34	1656.81
182.56	1701.86
182.78	1724.39
183.00	1679.33
183.22	1751.01
183.44	1654.76
183.66	1855.46
183.89	1740.77
184.11	1796.07
184.33	1697.77
184.55	1808.36
184.77	1728.49
184.99	1718.25
185.21	1695.72
185.43	1832.93
185.65	1697.77
185.87	1595.37
186.10	1820.64
186.32	1877.99
186.54	1683.43
186.76	1746.92
186.98	1826.79
187.20	1708.01
187.42	1673.19
187.64	1751.01
187.86	1683.43
188.08	1773.54
188.30	1636.33
188.52	1730.53
188.75	1740.77
188.97	1751.01
189.19	1615.85
189.41	1669.09
189.63	1800.16
189.85	1675.24
190.07	1607.66
190.29	1662.95
190.51	1677.29
190.73	1603.56
190.95	1783.78
191.17	1732.58
191.39	1574.89
191.61	1677.29
191.84	1677.29
192.06	1773.54
192.28	1634.28
192.50	1830.88
192.72	1646.57
192.94	1667.05
193.16	1742.82
193.38	1738.73
193.60	1574.89
193.82	1681.38
194.04	1757.16
194.26	1677.29
194.48	1759.21
194.70	1617.90
194.92	1720.29
195.14	1708.01
195.36	1685.48
195.58	1695.72
195.80	1726.44
196.02	1705.96
196.24	1718.25
196.46	1802.21
196.69	1646.57
196.91	1906.66
197.13	1691.62
197.35	1638.38
197.57	1791.97
197.79	1669.09
198.01	1728.49
198.23	1753.06
198.45	1636.33
198.67	1566.70
198.89	1763.30
199.11	1816.55
199.33	1632.23
199.55	1632.23
199.77	1738.73
199.99	1712.10
200.21	1671.14
200.43	1654.76
200.65	1665.00
200.87	1538.02
201.09	1712.10
201.31	1691.62
201.53	1722.34
201.75	1654.76
201.97	1716.20
202.19	1753.06
202.41	1759.21
202.63	1824.74
202.85	1789.92
203.07	1691.62
203.29	1714.15
203.51	1681.38
203.73	1589.22
203.95	1892.32
204.17	1742.82
204.39	1718.25
204.61	1695.72
204.83	1726.44
205.05	1773.54
205.27	1724.39
205.49	1867.75
205.71	1679.33
205.93	1642.47
206.15	1585.13
206.37	1716.20
206.59	1742.82
206.81	1646.57
207.03	1613.80
207.25	1685.48
207.47	1726.44
207.69	1728.49
207.91	1798.12
208.13	1800.16
208.34	1716.20
208.56	1615.85
208.78	1714.15
209.00	1705.96
209.22	1753.06
209.44	1662.95
209.66	1658.85
209.88	1703.91
210.10	1660.90
210.32	1705.96
210.54	1732.58
210.76	1646.57
210.98	1689.57
211.20	1574.89
211.42	1689.57
211.64	1697.77
211.86	1777.64
212.08	1687.53
212.30	1755.11
212.52	1710.05
212.74	1738.73
212.96	1783.78
213.17	1753.06
213.39	1759.21
213.61	1824.74
213.83	1724.39
214.05	1601.51
214.27	1726.44
214.49	1691.62
214.71	1703.91
214.93	1746.92
215.15	1665.00
215.37	1746.92
215.59	1630.18
215.81	1662.95
216.03	1886.18
216.24	1755.11
216.46	1677.29
216.68	1689.57
216.90	1712.10
217.12	1796.07
217.34	1777.64
217.56	1677.29
217.78	1763.30
218.00	1728.49
218.22	1673.19
218.44	1751.01
218.66	1640.42
218.87	1722.34
219.09	1654.76
219.31	1732.58
219.53	1648.61
219.75	1677.29
219.97	1675.24
220.19	1673.19
220.41	1648.61
220.63	1798.12
220.85	1687.53
221.06	1613.80
221.28	1796.07
221.50	1736.68
221.72	1744.87
221.94	1644.52
222.16	1701.86
222.38	1751.01
222.60	1710.05
222.82	1642.47
223.03	1683.43
223.25	1587.18
223.47	1742.82
223.69	1812.45
223.91	1726.44
224.13	1689.57
224.35	1581.03
224.57	1757.16
224.78	1681.38
225.00	1603.56
225.22	1697.77
225.44	1710.05
225.66	1714.15
225.88	1691.62
226.10	1798.12
226.32	1665.00
226.53	1824.74
226.75	1609.70
226.97	1738.73
227.19	1714.15
227.41	1738.73
227.63	1656.81
227.85	1673.19
228.06	1669.09
228.28	1630.18
228.50	1791.97
228.72	1660.90
228.94	1658.85
229.16	1646.57
229.37	1628.14
229.59	1677.29
229.81	1775.59
230.03	1677.29
230.25	1599.46
230.47	1626.09
230.69	1658.85
230.90	1845.22
231.12	1681.38
231.34	1665.00
231.56	1638.38
231.78	1560.55
232.00	1722.34
232.21	1742.82
232.43	1662.95
232.65	1550.31
232.87	1728.49
233.09	1658.85
233.30	1720.29
233.52	1708.01
233.74	1679.33
233.96	1683.43
234.18	1699.81
234.40	1669.09
234.61	1757.16
234.83	1658.85
235.05	1626.09
235.27	1830.88
235.49	1763.30
235.70	1701.86
235.92	1806.31
236.14	1726.44
236.36	1861.60
236.58	1697.77
236.79	1687.53
237.01	1826.79
237.23	1708.01
237.45	1734.63
237.67	1697.77
237.88	1691.62
238.10	1783.78
238.32	1615.85
238.54	1691.62
238.76	1705.96
238.97	1617.90
239.19	1665.00
239.41	1742.82
239.63	1798.12
239.85	1695.72
240.06	1701.86
240.28	1646.57
240.50	1744.87
240.72	1679.33
240.93	1656.81
241.15	1818.60
241.37	1761.25
241.59	1798.12
241.81	1683.43
242.02	1636.33
242.24	1687.53
242.46	1767.40
242.68	1705.96
242.89	1671.14
243.11	1734.63
243.33	1716.20
243.55	1699.81
243.76	1658.85
243.98	1665.00
244.20	1652.71
244.42	1738.73
244.64	1730.53
244.85	1710.05
245.07	1624.04
245.29	1734.63
245.51	1675.24
245.72	1644.52
245.94	1730.53
246.16	1683.43
246.38	1650.66
246.59	1683.43
246.81	1638.38
247.03	1691.62
247.24	1658.85
247.46	1724.39
247.68	1701.86
247.90	1716.20
248.11	1617.90
248.33	1779.68
248.55	1736.68
248.77	1740.77
248.98	1665.00
249.20	1736.68
249.42	1673.19
249.64	1720.29
249.85	1716.20
250.07	1648.61
250.29	1744.87
250.50	1681.38
250.72	1640.42
250.94	1742.82
251.16	1798.12
251.37	1820.64
251.59	1787.88
251.81	1701.86
252.02	1796.07
252.24	1699.81
252.46	1785.83
252.68	1640.42
252.89	1691.62
253.11	1609.70
253.33	1775.59
253.54	1810.40
253.76	1660.90
253.98	1726.44
254.20	1701.86
254.41	1710.05
254.63	1685.48
254.85	1615.85
255.06	1742.82
255.28	1734.63
255.50	1703.91
255.71	1611.75
255.93	1636.33
256.15	1673.19
256.36	1728.49
256.58	1624.04
256.80	1722.34
257.02	1619.94
257.23	1591.27
257.45	1714.15
257.67	1626.09
257.88	1732.58
258.10	1734.63
258.32	1730.53
258.53	1675.24
258.75	1734.63
258.97	1654.76
259.18	1691.62
259.40	1669.09
259.62	1773.54
259.83	1767.40
260.05	1705.96
260.27	1886.18
260.48	1787.88
260.70	1628.14
260.92	1716.20
261.13	1701.86
261.35	1710.05
261.57	1716.20
261.78	1578.98
262.00	1624.04
262.22	1748.97
262.43	1638.38
262.65	1658.85
262.86	1703.91
263.08	1787.88
263.30	1716.20
263.51	1626.09
263.73	1656.81
263.95	1763.30
264.16	1646.57
264.38	1669.09
264.60	1718.25
264.81	1646.57
265.03	1724.39
265.25	1796.07
265.46	1632.23
265.68	1765.35
265.89	1665.00
266.11	1642.47
266.33	1779.68
266.54	1763.30
266.76	1732.58
266.98	1769.44
267.19	1777.64
267.41	1767.40
267.62	1697.77
267.84	1593.32
268.06	1679.33
268.27	1714.15
268.49	1822.69
268.70	1740.77
268.92	1763.30
269.14	1617.90
269.35	1644.52
269.57	1695.72
269.79	1734.63
270.00	1662.95
270.22	1802.21
270.43	1685.48
270.65	1585.13
270.87	1705.96
271.08	1763.30
271.30	1728.49
271.51	1601.51
271.73	1691.62
271.95	1730.53
272.16	1738.73
272.38	1710.05
272.59	1705.96
272.81	1697.77
273.02	1734.63
273.24	1738.73
273.46	1748.97
273.67	1634.28
273.89	1634.28
274.10	1660.90
274.32	1751.01
274.54	1689.57
274.75	1767.40
274.97	1681.38
275.18	1771.49
275.40	1685.48
275.61	1654.76
275.83	1697.77
276.05	1589.22
276.26	1708.01
276.48	1724.39
276.69	1691.62
276.91	1705.96
277.12	1720.29
277.34	1738.73
277.55	1773.54
277.77	1685.48
277.99	1662.95
278.20	1665.00
278.42	1652.71
278.63	1652.71
278.85	1576.94
279.06	1636.33
279.28	1691.62
279.49	1751.01
279.71	1814.50
279.93	1712.10
280.14	1738.73
280.36	1689.57
280.57	1734.63
280.79	1738.73
281.00	1660.90
281.22	1669.09
281.43	1794.02
281.65	1560.55
281.86	1681.38
282.08	1677.29
282.29	1804.26
282.51	1644.52
282.73	1652.71
282.94	1599.46
283.16	1677.29
283.37	1734.63
283.59	1642.47
283.80	1814.50
284.02	1695.72
284.23	1703.91
284.45	1701.86
284.66	1665.00
284.88	1685.48
285.09	1669.09
285.31	1798.12
285.52	1826.79
285.74	1652.71
285.95	1714.15
286.17	1683.43
286.38	1769.44
286.60	1773.54
286.81	1605.61
287.03	1652.71
287.24	1693.67
287.46	1722.34
287.67	1673.19
287.89	1814.50
288.10	1687.53
288.32	1710.05
288.53	1800.16
288.75	1736.68
288.96	1757.16
289.18	1669.09
289.39	1708.01
289.61	1677.29
289.82	1826.79
290.04	1722.34
290.25	1660.90
290.47	1716.20
290.68	1667.05
290.90	1828.84
291.11	1638.38
291.33	1812.45
291.54	1642.47
291.76	1693.67
291.97	1589.22
292.18	1705.96
292.40	1689.57
292.61	1669.09
292.83	1779.68
293.04	1789.92
293.26	1777.64
293.47	1714.15
293.69	1689.57
293.90	1675.24
294.12	1808.36
294.33	1687.53
294.55	1720.29
294.76	1738.73
294.97	1767.40
295.19	1849.32
295.40	1685.48
295.62	1689.57
295.83	1693.67
296.05	1638.38
296.26	1802.21
296.48	1732.58
296.69	1763.30
296.90	1738.73
297.12	1814.50
297.33	1816.55
297.55	1740.77
297.76	1654.76
297.98	1726.44
298.19	1722.34
298.41	1773.54
298.62	1568.74
298.83	1791.97
299.05	1722.34
299.26	1640.42
299.48	1701.86
299.69	1691.62
299.90	1730.53
300.12	1671.14
300.33	1720.29
300.55	1679.33
300.76	1697.77
300.98	1660.90
301.19	1787.88
301.40	1699.81
301.62	1691.62
301.83	1705.96
302.05	1660.90
302.26	1671.14
302.47	1710.05
302.69	1632.23
302.90	1720.29
303.12	1630.18
303.33	1748.97
303.54	1791.97
303.76	1636.33
303.97	1667.05
304.19	1738.73
304.40	1650.66
304.61	1783.78
304.83	1791.97
305.04	1771.49
305.26	1691.62
305.47	1558.50
305.68	1658.85
305.90	1570.79
306.11	1744.87
306.33	1714.15
306.54	1665.00
306.75	1665.00
306.97	1640.42
307.18	1683.43
307.39	1669.09
307.61	1746.92
307.82	1660.90
308.04	1730.53
308.25	1665.00
308.46	1791.97
308.68	1656.81
308.89	1683.43
309.10	1697.77
309.32	1751.01
309.53	1689.57
309.74	1748.97
309.96	1650.66
310.17	1777.64
310.39	1720.29
310.60	1673.19
310.81	1671.14
311.03	1599.46
311.24	1691.62
311.45	1734.63
311.67	1837.03
311.88	1662.95
312.09	1697.77
312.31	1687.53
312.52	1734.63
312.73	1722.34
312.95	1607.66
313.16	1574.89
313.37	1794.02
313.59	1716.20
313.80	1716.20
314.01	1783.78
314.23	1712.10
314.44	1742.82
314.65	1550.31
314.87	1734.63
315.08	1671.14
315.29	1646.57
315.51	1697.77
315.72	1548.26
315.93	1828.84
316.15	1697.77
316.36	1722.34
316.57	1712.10
316.79	1728.49
317.00	1716.20
317.21	1765.35
317.43	1671.14
317.64	1646.57
317.85	1675.24
318.07	1703.91
318.28	1771.49
318.49	1814.50
318.70	1898.47
318.92	1781.73
319.13	1820.64
319.34	1974.24
319.56	1822.69
319.77	1783.78
319.98	1763.30
320.20	1822.69
320.41	1718.25
320.62	1691.62
320.83	1656.81
321.05	1929.19
321.26	1755.11
321.47	1716.20
321.69	1720.29
321.90	1621.99
322.11	1718.25
322.32	1685.48
322.54	1724.39
322.75	1662.95
322.96	1869.80
323.18	1642.47
323.39	1619.94
323.60	1652.71
323.81	1701.86
324.03	1710.05
324.24	1656.81
324.45	1656.81
324.66	1738.73
324.88	1812.45
325.09	1732.58
325.30	1654.76
325.52	1699.81
325.73	1703.91
325.94	1564.65
326.15	1632.23
326.37	1650.66
326.58	1755.11
326.79	1767.40
327.00	1665.00
327.22	1662.95
327.43	1753.06
327.64	1601.51
327.85	1759.21
328.07	1738.73
328.28	1763.30
328.49	1632.23
328.70	1714.15
328.92	1685.48
329.13	1689.57
329.34	1763.30
329.55	1761.25
329.76	1810.40
329.98	1669.09
330.19	1734.63
330.40	1724.39
330.61	1699.81
330.83	1738.73
331.04	1656.81
331.25	1695.72
331.46	1656.81
331.68	1595.37
331.89	1718.25
332.10	1705.96
332.31	1673.19
332.52	1701.86
332.74	1771.49
332.95	1677.29
333.16	1630.18
333.37	1726.44
333.58	1718.25
333.80	1705.96
334.01	1609.70
334.22	1662.95
334.43	1662.95
334.64	1705.96
334.86	1591.27
335.07	1628.14
335.28	1781.73
335.49	1646.57
335.70	1730.53
335.92	1808.36
336.13	1851.36
336.34	1677.29
336.55	1751.01
336.76	1734.63
336.98	1538.02
337.19	1693.67
337.40	1765.35
337.61	1865.70
337.82	1640.42
338.04	1779.68
338.25	1658.85
338.46	1738.73
338.67	1732.58
338.88	1646.57
339.09	1695.72
339.31	1644.52
339.52	1705.96
339.73	1677.29
339.94	1687.53
340.15	1718.25
340.36	1701.86
340.58	1714.15
340.79	1576.94
341.00	1689.57
341.21	1703.91
341.42	1773.54
341.63	1728.49
341.85	1775.59
342.06	1779.68
342.27	1667.05
342.48	1826.79
342.69	1671.14
342.90	1732.58
343.12	1710.05
343.33	1648.61
343.54	1804.26
343.75	1736.68
343.96	1675.24
344.17	1675.24
344.38	1652.71
344.60	1701.86
344.81	1611.75
345.02	1714.15
345.23	1767.40
345.44	1742.82
345.65	1744.87
345.86	1787.88
346.07	1691.62
346.29	1662.95
346.50	1722.34
346.71	1775.59
346.92	1755.11
347.13	1789.92
347.34	1736.68
347.55	1732.58
347.76	1740.77
347.98	1628.14
348.19	1615.85
348.40	1771.49
348.61	1665.00
348.82	1720.29
349.03	1789.92
349.24	1669.09
349.45	1740.77
349.66	1572.84
349.88	1685.48
350.09	1593.32
350.30	1779.68
350.51	1779.68
350.72	1697.77
350.93	1759.21
351.14	1609.70
351.35	1677.29
351.56	1736.68
351.77	1652.71
351.99	1665.00
352.20	1783.78
352.41	1767.40
352.62	1605.61
352.83	1691.62
353.04	1726.44
353.25	1679.33
353.46	1730.53
353.67	1804.26
353.88	1595.37
354.09	1714.15
354.30	1667.05
354.52	1742.82
354.73	1710.05
354.94	1669.09
355.15	1742.82
355.36	1759.21
355.57	1640.42
355.78	1751.01
355.99	1691.62
356.20	1671.14
356.41	1740.77
356.62	1722.34
356.83	1662.95
357.04	1875.94
357.25	1642.47
357.46	1714.15
357.68	1656.81
357.89	1642.47
358.10	1724.39
358.31	1607.66
358.52	1634.28
358.73	1644.52
358.94	1624.04
359.15	1665.00
359.36	1779.68
359.57	1740.77
359.78	1742.82
359.99	1673.19
360.20	1634.28
360.41	1677.29
360.62	1798.12
360.83	1726.44
361.04	1677.29
361.25	1714.15
361.46	1767.40
361.67	1736.68
361.88	1710.05
362.09	1714.15
362.30	1695.72
362.51	1660.90
362.72	1677.29
362.93	1781.73
363.14	1732.58
363.35	1740.77
363.56	1605.61
363.78	1832.93
363.99	1720.29
364.20	1673.19
364.41	1669.09
364.62	1828.84
364.83	1726.44
365.04	1714.15
365.25	1714.15
365.46	1798.12
365.67	1722.34
365.88	1628.14
366.09	1681.38
366.30	1730.53
366.51	1640.42
366.72	1656.81
366.93	1781.73
367.14	1626.09
367.35	1810.40
367.56	1728.49
367.77	1779.68
367.98	1638.38
368.18	1757.16
368.39	1791.97
368.60	1652.71
368.81	1724.39
369.02	1701.86
369.23	1734.63
369.44	1597.42
369.65	1619.94
369.86	1751.01
370.07	1787.88
370.28	1687.53
370.49	1787.88
370.70	1769.44
370.91	1601.51
371.12	1636.33
371.33	1718.25
371.54	1677.29
371.75	1804.26
371.96	1570.79
372.17	1662.95
372.38	1693.67
372.59	1744.87
372.80	1726.44
373.01	1611.75
373.22	1710.05
373.43	1748.97
373.64	1601.51
373.85	1775.59
374.06	1740.77
374.26	1746.92
374.47	1742.82
374.68	1771.49
374.89	1720.29
375.10	1685.48
375.31	1724.39
375.52	1705.96
375.73	1685.48
375.94	1669.09
376.15	1710.05
376.36	1648.61
376.57	1697.77
376.78	1765.35
376.99	1730.53
377.20	1783.78
377.40	1751.01
377.61	1789.92
377.82	1605.61
378.03	1753.06
378.24	1712.10
378.45	1683.43
378.66	1757.16
378.87	1611.75
379.08	1619.94
379.29	1714.15
379.50	1834.98
379.71	1656.81
379.91	1708.01
380.12	1710.05
380.33	1781.73
380.54	1691.62
380.75	1732.58
380.96	1683.43
381.17	1769.44
381.38	1644.52
381.59	1744.87
381.80	1648.61
382.00	1812.45
382.21	1748.97
382.42	1912.80
382.63	1886.18
382.84	1771.49
383.05	1767.40
383.26	1837.03
383.47	1703.91
383.68	1761.25
383.88	1767.40
384.09	1714.15
384.30	1808.36
384.51	1726.44
384.72	1728.49
384.93	1638.38
385.14	1732.58
385.35	1802.21
385.55	1609.70
385.76	1796.07
385.97	1642.47
386.18	1570.79
386.39	1648.61
386.60	1630.18
386.81	1736.68
387.02	1705.96
387.22	1658.85
387.43	1812.45
387.64	1859.56
387.85	1828.84
388.06	2164.70
388.27	4356.03
388.48	6868.89
388.68	8230.79
388.89	9629.55
389.10	9955.18
389.31	8695.68
389.52	7722.89
389.73	6727.58
389.93	6334.37
390.14	5883.81
390.35	5197.74
390.56	4650.94
390.77	3831.75
390.98	3033.04
391.18	2488.28
391.39	2088.93
391.60	1763.30
391.81	1933.28
392.02	1730.53
392.23	1843.17
392.43	1722.34
392.64	1861.60
392.85	1689.57
393.06	1806.31
393.27	1716.20
393.47	1701.86
393.68	1732.58
393.89	1683.43
394.10	1855.46
394.31	1617.90
394.52	1675.24
394.72	1667.05
394.93	1742.82
395.14	1675.24
395.35	1802.21
395.56	1710.05
395.76	1726.44
395.97	1746.92
396.18	1875.94
396.39	1832.93
396.60	1988.58
396.80	1918.95
397.01	1806.31
397.22	1837.03
397.43	1820.64
397.64	1734.63
397.84	1820.64
398.05	1945.57
398.26	1794.02
398.47	1843.17
398.67	1808.36
398.88	1757.16
399.09	1787.88
399.30	1746.92
399.51	1783.78
399.71	1722.34
399.92	1691.62
400.13	1798.12
400.34	1640.42
400.54	1660.90
400.75	1812.45
400.96	1779.68
401.17	1767.40
401.37	1742.82
401.58	1701.86
401.79	1697.77
402.00	1828.84
402.21	1984.48
402.41	1964.00
402.62	2052.06
402.83	2019.30
403.04	1982.43
403.24	2027.49
403.45	1798.12
403.66	1951.71
403.87	1869.80
404.07	1912.80
404.28	1918.95
404.49	1812.45
404.70	1777.64
404.90	1775.59
405.11	1761.25
405.32	1705.96
405.52	1726.44
405.73	1675.24
405.94	1671.14
406.15	1701.86
406.35	1751.01
406.56	1779.68
406.77	1705.96
406.98	1699.81
407.18	1673.19
407.39	1728.49
407.60	1654.76
407.80	1746.92
408.01	1705.96
408.22	1734.63
408.43	1681.38
408.63	1644.52
408.84	1832.93
409.05	1808.36
409.25	1658.85
409.46	1640.42
409.67	1679.33
409.88	1644.52
410.08	1744.87
410.29	1689.57
410.50	1730.53
410.70	1714.15
410.91	1708.01
411.12	1691.62
411.32	1777.64
411.53	1736.68
411.74	1796.07
411.95	1828.84
412.15	1755.11
412.36	1779.68
412.57	1771.49
412.77	1789.92
412.98	1759.21
413.19	1708.01
413.39	1736.68
413.60	1687.53
413.81	1787.88
414.01	1617.90
414.22	1730.53
414.43	1722.34
414.63	1626.09
414.84	1822.69
415.05	1681.38
415.25	1705.96
415.46	1837.03
415.67	1724.39
415.87	1773.54
416.08	1687.53
416.29	1693.67
416.49	1783.78
416.70	1714.15
416.91	1699.81
417.11	1705.96
417.32	1746.92
417.53	1732.58
417.73	1699.81
417.94	1671.14
418.15	1681.38
418.35	1753.06
418.56	1708.01
418.77	1826.79
418.97	1675.24
419.18	1726.44
419.38	1587.18
419.59	1742.82
419.80	1824.74
420.00	1685.48
420.21	1679.33
420.42	1744.87
420.62	1742.82
420.83	1628.14
421.04	1703.91
421.24	1732.58
421.45	1783.78
421.65	1744.87
421.86	1630.18
422.07	1695.72
422.27	1693.67
422.48	1724.39
422.69	1669.09
422.89	1693.67
423.10	1714.15
423.30	1613.80
423.51	1757.16
423.72	1834.98
423.92	1691.62
424.13	1669.09
424.33	1712.10
424.54	1787.88
424.75	1738.73
424.95	1736.68
425.16	1779.68
425.36	1660.90
425.57	1791.97
425.78	1695.72
425.98	1779.68
426.19	1677.29
426.39	1640.42
426.60	1765.35
426.81	1757.16
427.01	1773.54
427.22	1628.14
427.42	1603.56
427.63	1730.53
427.83	1689.57
428.04	1773.54
428.25	1767.40
428.45	1757.16
428.66	1804.26
428.86	1642.47
429.07	1710.05
429.28	1769.44
429.48	1689.57
429.69	1716.20
429.89	1757.16
430.10	1681.38
430.30	1814.50
430.51	1765.35
430.71	1624.04
430.92	1720.29
431.13	1640.42
431.33	1755.11
431.54	1699.81
431.74	1767.40
431.95	1775.59
432.15	1648.61
432.36	1718.25
432.56	1832.93
432.77	1834.98
432.98	1796.07
433.18	1611.75
433.39	1701.86
433.59	1742.82
433.80	1783.78
434.00	1904.61
434.21	1693.67
434.41	1736.68
434.62	1884.13
434.82	1660.90
435.03	1720.29
435.23	1734.63
435.44	1701.86
435.64	1777.64
435.85	1759.21
436.06	1724.39
436.26	1718.25
436.47	1740.77
436.67	1576.94
436.88	1685.48
437.08	1775.59
437.29	1791.97
437.49	1738.73
437.70	1710.05
437.90	1703.91
438.11	1808.36
438.31	1771.49
438.52	1867.75
438.72	1822.69
438.93	1937.38
439.13	1839.08
439.34	1843.17
439.54	1822.69
439.75	1806.31
439.95	1779.68
440.16	1716.20
440.36	1705.96
440.57	1783.78
440.77	1804.26
440.98	1736.68
441.18	1832.93
441.39	1683.43
441.59	1673.19
441.80	1779.68
442.00	1742.82
442.21	1761.25
442.41	1576.94
442.62	1755.11
442.82	1611.75
443.02	1730.53
443.23	1722.34
443.43	1714.15
443.64	1814.50
443.84	1683.43
444.05	1787.88
444.25	1732.58
444.46	1648.61
444.66	1730.53
444.87	1787.88
445.07	1568.74
445.28	1699.81
445.48	1740.77
445.69	1687.53
445.89	1863.65
446.09	1763.30
446.30	1968.10
446.50	2672.60
446.71	3737.54
446.91	4423.61
447.12	4722.62
447.32	4851.64
447.53	4343.74
447.73	3874.76
447.93	3600.33
448.14	3334.09
448.34	3227.60
448.55	2865.11
448.75	2797.53
448.96	2715.61
449.16	2435.03
449.36	2291.68
449.57	2117.60
449.77	1912.80
449.98	1824.74
450.18	1855.46
450.39	1755.11
450.59	1746.92
450.79	1675.24
451.00	1697.77
451.20	1837.03
451.41	1720.29
451.61	1697.77
451.81	1675.24
452.02	1773.54
452.22	1789.92
452.43	1726.44
452.63	1705.96
452.84	1746.92
453.04	1671.14
453.24	1765.35
453.45	1751.01
453.65	1701.86
453.86	1783.78
454.06	1701.86
454.26	1761.25
454.47	1798.12
454.67	1812.45
454.87	1773.54
455.08	1744.87
455.28	1798.12
455.49	1787.88
455.69	1724.39
455.89	1804.26
456.10	1738.73
456.30	1724.39
456.51	1720.29
456.71	1748.97
456.91	1732.58
457.12	1771.49
457.32	1695.72
457.52	1687.53
457.73	1769.44
457.93	1810.40
458.14	1716.20
458.34	1669.09
458.54	1755.11
458.75	1730.53
458.95	1837.03
459.15	1673.19
459.36	1783.78
459.56	1771.49
459.76	1845.22
459.97	1714.15
460.17	1705.96
460.37	1804.26
460.58	1740.77
460.78	1683.43
460.99	1595.37
461.19	1763.30
461.39	1683.43
461.60	1732.58
461.80	1751.01
462.00	1630.18
462.21	1736.68
462.41	1691.62
462.61	1634.28
462.82	1671.14
463.02	1765.35
463.22	1732.58
463.43	1738.73
463.63	1761.25
463.83	1789.92
464.04	1675.24
464.24	1775.59
464.44	1644.52
464.64	1767.40
464.85	1746.92
465.05	1794.02
465.25	1724.39
465.46	1703.91
465.66	1820.64
465.86	1755.11
466.07	1705.96
466.27	1726.44
466.47	1675.24
466.68	1605.61
466.88	1783.78
467.08	1748.97
467.29	1787.88
467.49	1740.77
467.69	1730.53
467.89	1759.21
468.10	1757.16
468.30	1746.92
468.50	1779.68
468.71	1804.26
468.91	1624.04
469.11	1832.93
469.31	1767.40
469.52	1724.39
469.72	1798.12
469.92	1849.32
470.13	1667.05
470.33	1746.92
470.53	1806.31
470.73	2066.40
470.94	2265.05
471.14	2351.07
471.34	2541.53
471.54	2471.90
471.75	2191.33
471.95	2205.66
472.15	2050.02
472.36	2127.84
472.56	2156.51
472.76	2056.16
472.96	1918.95
473.17	1912.80
473.37	1841.12
473.57	1806.31
473.77	1789.92
473.98	1746.92
474.18	1689.57
474.38	1834.98
474.58	1738.73
474.79	1677.29
474.99	1773.54
475.19	1812.45
475.39	1673.19
475.60	1744.87
475.80	1798.12
476.00	1779.68
476.20	1699.81
476.41	1783.78
476.61	1816.55
476.81	1767.40
477.01	1611.75
477.21	1894.37
477.42	1843.17
477.62	1712.10
477.82	1613.80
478.02	1708.01
478.23	1714.15
478.43	1732.58
478.63	1687.53
478.83	1669.09
479.03	1697.77
479.24	1757.16
479.44	1828.84
479.64	1683.43
479.84	1634.28
480.04	1638.38
480.25	1763.30
480.45	1658.85
480.65	1687.53
480.85	1753.06
481.06	1615.85
481.26	1726.44
481.46	1841.12
481.66	1705.96
481.86	1699.81
482.06	1724.39
482.27	1720.29
482.47	1607.66
482.67	1830.88
482.87	1773.54
483.07	1757.16
483.28	1701.86
483.48	1660.90
483.68	1740.77
483.88	1644.52
484.08	1589.22
484.29	1667.05
484.49	1710.05
484.69	1652.71
484.89	1714.15
485.09	1785.83
485.29	1742.82
485.50	1789.92
485.70	1667.05
485.90	1781.73
486.10	1718.25
486.30	1716.20
486.50	1775.59
486.71	1689.57
486.91	1775.59
487.11	1804.26
487.31	1626.09
487.51	1722.34
487.71	1695.72
487.91	1640.42
488.12	1660.90
488.32	1638.38
488.52	1691.62
488.72	1628.14
488.92	1720.29
489.12	1796.07
489.32	1787.88
489.53	1767.40
489.73	1574.89
489.93	1820.64
490.13	1646.57
490.33	1660.90
490.53	1718.25
490.73	1755.11
490.94	1626.09
491.14	1802.21
491.34	1841.12
491.54	2103.26
491.74	2600.92
491.94	2951.12
492.14	2979.79
492.34	3074.00
492.54	2719.70
492.75	2631.64
492.95	2428.89
493.15	2340.83
493.35	2312.16
493.55	2205.66
493.75	2121.70
493.95	2213.85
494.15	1982.43
494.35	1941.47
494.56	1839.08
494.76	1837.03
494.96	1789.92
495.16	1757.16
495.36	1697.77
495.56	1765.35
495.76	1718.25
495.96	1660.90
496.16	1716.20
496.36	1841.12
496.56	1779.68
496.77	1730.53
496.97	1705.96
497.17	1781.73
497.37	1673.19
497.57	1751.01
497.77	1665.00
497.97	1667.05
498.17	1765.35
498.37	1763.30
498.57	1685.48
498.77	1687.53
498.97	1810.40
499.17	1802.21
499.38	1718.25
499.58	1714.15
499.78	1818.60
499.98	1802.21
500.18	1689.57
500.38	1722.34
500.58	1906.66
500.78	2660.31
500.98	4517.82
501.18	5781.42
501.38	6743.96
501.58	7255.95
501.78	6715.29
501.98	5738.41
502.18	5033.91
502.38	4448.19
502.58	4132.80
502.78	3790.79
502.98	3635.14
503.18	3590.09
503.38	3270.61
503.59	2752.47
503.79	2607.06
503.99	2521.05
504.19	2269.15
504.39	2207.71
504.59	2213.85
504.79	2148.32
504.99	1992.67
505.19	1904.61
505.39	1918.95
505.59	2035.68
505.79	1882.08
505.99	1882.08
506.19	1728.49
506.39	1859.56
506.59	1748.97
506.79	1697.77
506.99	1769.44
507.19	1794.02
507.39	1806.31
507.59	1673.19
507.79	1693.67
507.99	1734.63
508.19	1744.87
508.39	1728.49
508.59	1746.92
508.79	1806.31
508.99	1810.40
509.19	1689.57
509.39	1695.72
509.59	1710.05
509.79	1720.29
509.99	1681.38
510.19	1757.16
510.39	1804.26
510.59	1695.72
510.79	1710.05
510.99	1662.95
511.19	1800.16
511.39	1761.25
511.59	1695.72
511.79	1818.60
511.99	1712.10
512.19	1806.31
512.38	1759.21
512.58	1732.58
512.78	1748.97
512.98	1824.74
513.18	1810.40
513.38	1669.09
513.58	1830.88
513.78	1724.39
513.98	1669.09
514.18	1714.15
514.38	1714.15
514.58	1757.16
514.78	1665.00
514.98	1697.77
515.18	1708.01
515.38	1710.05
515.58	1826.79
515.78	1718.25
515.98	1775.59
516.18	1804.26
516.38	1744.87
516.57	1679.33
516.77	1732.58
516.97	1751.01
517.17	1763.30
517.37	1658.85
517.57	1763.30
517.77	1738.73
517.97	1730.53
518.17	1837.03
518.37	1736.68
518.57	1656.81
518.77	1726.44
518.97	1671.14
519.16	1730.53
519.36	1765.35
519.56	1628.14
519.76	1697.77
519.96	1732.58
520.16	1753.06
520.36	1673.19
520.56	1814.50
520.76	1710.05
520.96	1693.67
521.16	1816.55
521.35	1779.68
521.55	1877.99
521.75	1675.24
521.95	1624.04
522.15	1699.81
522.35	1656.81
522.55	1673.19
522.75	1755.11
522.95	1681.38
523.14	1656.81
523.34	1748.97
523.54	1740.77
523.74	1763.30
523.94	1693.67
524.14	1658.85
524.34	1753.06
524.54	1761.25
524.73	1787.88
524.93	1791.97
525.13	1781.73
525.33	1718.25
525.53	1826.79
525.73	1820.64
525.93	1695.72
526.13	1734.63
526.32	1722.34
526.52	1734.63
526.72	1777.64
526.92	1697.77
527.12	1751.01
527.32	1673.19
527.52	1777.64
527.71	1816.55
527.91	1769.44
528.11	1753.06
528.31	1728.49
528.51	1673.19
528.71	1732.58
528.90	1771.49
529.10	1806.31
529.30	1810.40
529.50	1599.46
529.70	1720.29
529.90	1660.90
530.09	1744.87
530.29	1619.94
530.49	1667.05
530.69	1912.80
530.89	1740.77
531.09	1742.82
531.28	1656.81
531.48	1818.60
531.68	1849.32
531.88	1732.58
532.08	1775.59
532.28	1740.77
532.47	1763.30
532.67	1779.68
532.87	1710.05
533.07	1632.23
533.27	1738.73
533.46	1771.49
533.66	1722.34
533.86	1740.77
534.06	1746.92
534.26	1710.05
534.45	1701.86
534.65	1771.49
534.85	1705.96
535.05	1763.30
535.25	1779.68
535.44	1691.62
535.64	1773.54
535.84	1728.49
536.04	1765.35
536.24	1746.92
536.43	1679.33
536.63	1771.49
536.83	1652.71
537.03	1742.82
537.22	1576.94
537.42	1693.67
537.62	1660.90
537.82	1621.99
538.02	1839.08
538.21	1837.03
538.41	1953.76
538.61	1763.30
538.81	1689.57
539.00	1804.26
539.20	1669.09
539.40	1689.57
539.60	1744.87
539.79	1740.77
539.99	1746.92
540.19	1714.15
540.39	1771.49
540.58	1757.16
540.78	1808.36
540.98	1767.40
541.18	1697.77
541.37	1771.49
541.57	1734.63
541.77	1763.30
541.97	1665.00
542.16	1673.19
542.36	1716.20
542.56	1728.49
542.76	1853.41
542.95	1775.59
543.15	1726.44
543.35	1761.25
543.54	1753.06
543.74	1697.77
543.94	1775.59
544.14	1673.19
544.33	1701.86
544.53	1800.16
544.73	1736.68
544.93	1767.40
545.12	1759.21
545.32	1755.11
545.52	1744.87
545.71	1636.33
545.91	1681.38
546.11	1695.72
546.30	1644.52
546.50	1738.73
546.70	1785.83
546.90	1746.92
547.09	1583.08
547.29	1662.95
547.49	1806.31
547.68	1701.86
547.88	1640.42
548.08	1804.26
548.27	2152.42
548.47	1718.25
548.67	1662.95
548.87	1763.30
549.06	1710.05
549.26	1681.38
549.46	1806.31
549.65	1724.39
549.85	1765.35
550.05	1773.54
550.24	1679.33
550.44	1746.92
550.64	1687.53
550.83	1781.73
551.03	1794.02
551.23	1742.82
551.42	1705.96
551.62	1732.58
551.82	1777.64
552.01	1681.38
552.21	1751.01
552.41	1667.05
552.60	1800.16
552.80	1757.16
553.00	1642.47
553.19	1777.64
553.39	1863.65
553.59	1675.24
553.78	1785.83
553.98	1748.97
554.17	1619.94
554.37	1748.97
554.57	1828.84
554.76	1673.19
554.96	1738.73
555.16	1712.10
555.35	1779.68
555.55	1722.34
555.75	1773.54
555.94	1767.40
556.14	1791.97
556.33	1841.12
556.53	1751.01
556.73	1724.39
556.92	1808.36
557.12	1820.64
557.32	1796.07
557.51	1812.45
557.71	1732.58
557.90	1773.54
558.10	1798.12
558.30	1724.39
558.49	1712.10
558.69	1732.58
558.88	1722.34
559.08	1685.48
559.28	1740.77
559.47	1783.78
559.67	1771.49
559.86	1863.65
560.06	1693.67
560.26	1691.62
560.45	1781.73
560.65	1740.77
560.84	1800.16
561.04	1742.82
561.24	1736.68
561.43	1740.77
561.63	1791.97
561.82	1679.33
562.02	1777.64
562.22	1738.73
562.41	1691.62
562.61	1734.63
562.80	1722.34
563.00	1894.37
563.19	1800.16
563.39	1767.40
563.59	1798.12
563.78	1724.39
563.98	1587.18
564.17	1703.91
564.37	1638.38
564.56	1742.82
564.76	1671.14
564.96	1839.08
565.15	1744.87
565.35	1822.69
565.54	1648.61
565.74	1845.22
565.93	1773.54
566.13	1779.68
566.32	1732.58
566.52	1667.05
566.71	1738.73
566.91	1761.25
567.11	1753.06
567.30	1681.38
567.50	1705.96
567.69	1755.11
567.89	1755.11
568.08	1681.38
568.28	1804.26
568.47	1701.86
568.67	1710.05
568.86	1693.67
569.06	1828.84
569.25	1761.25
569.45	1626.09
569.64	1628.14
569.84	1716.20
570.04	1720.29
570.23	1685.48
570.43	1751.01
570.62	1728.49
570.82	1839.08
571.01	1667.05
571.21	1722.34
571.40	1646.57
571.60	1720.29
571.79	1755.11
571.99	1755.11
572.18	1689.57
572.38	1691.62
572.57	1714.15
572.77	1708.01
572.96	1843.17
573.16	1746.92
573.35	1783.78
573.55	1794.02
573.74	1746.92
573.94	1744.87
574.13	1767.40
574.33	1783.78
574.52	1873.89
574.71	1714.15
574.91	1710.05
575.10	1648.61
575.30	1716.20
575.49	1708.01
575.69	1705.96
575.88	1724.39
576.08	1781.73
576.27	1804.26
576.47	1701.86
576.66	1781.73
576.86	1824.74
577.05	1767.40
577.25	1781.73
577.44	1904.61
577.64	1808.36
577.83	1724.39
578.02	1767.40
578.22	1791.97
578.41	1791.97
578.61	1798.12
578.80	1736.68
579.00	1755.11
579.19	1710.05
579.39	1783.78
579.58	1845.22
579.77	1775.59
579.97	1769.44
580.16	1777.64
580.36	1787.88
580.55	1869.80
580.75	1744.87
580.94	1740.77
581.13	1808.36
581.33	1869.80
581.52	1724.39
581.72	1877.99
581.91	1820.64
582.11	1765.35
582.30	1808.36
582.49	1710.05
582.69	1781.73
582.88	1742.82
583.08	1660.90
583.27	1800.16
583.47	1828.84
583.66	1621.99
583.85	1683.43
584.05	1722.34
584.24	1847.27
584.44	1877.99
584.63	1718.25
584.82	1880.04
585.02	1814.50
585.21	1847.27
585.41	1898.47
585.60	1824.74
585.79	1935.33
585.99	1945.57
586.18	1898.47
586.37	2213.85
586.57	3344.33
586.76	10043.24
586.96	24714.89
587.15	34942.44
587.34	41241.99
587.54	43113.84
587.73	37219.78
587.93	26861.16
588.12	21737.14
588.31	18613.99
588.51	16514.82
588.70	15361.81
588.89	14346.02
589.09	12887.87
589.28	11124.57
589.47	9602.93
589.67	8044.42
589.86	6459.29
590.06	5011.38
590.25	3975.11
590.44	3102.67
590.64	2602.97
590.83	2217.95
591.02	2090.98
591.22	1941.47
591.41	1896.42
591.60	1855.46
591.80	1912.80
591.99	1736.68
592.18	1806.31
592.38	1779.68
592.57	1746.92
592.76	1781.73
592.96	1763.30
593.15	1689.57
593.34	1806.31
593.54	1742.82
593.73	1759.21
593.92	1791.97
594.12	1701.86
594.31	1673.19
594.50	1779.68
594.70	1763.30
594.89	1920.99
595.08	1689.57
595.28	1775.59
595.47	1908.71
595.66	1845.22
595.86	1679.33
596.05	1683.43
596.24	1632.23
596.43	1861.60
596.63	1853.41
596.82	1771.49
597.01	1755.11
597.21	1830.88
597.40	1787.88
597.59	1746.92
597.79	1716.20
597.98	1742.82
598.17	1718.25
598.36	1742.82
598.56	1771.49
598.75	1642.47
598.94	1742.82
599.14	1673.19
599.33	1761.25
599.52	1798.12
599.71	1755.11
599.91	1826.79
600.10	1718.25
600.29	1677.29
600.48	1732.58
600.68	1779.68
600.87	1761.25
601.06	1689.57
601.26	1773.54
601.45	1779.68
601.64	1761.25
601.83	1806.31
602.03	1675.24
602.22	1685.48
602.41	1724.39
602.60	1857.51
602.80	1767.40
602.99	1755.11
603.18	1609.70
603.37	1771.49
603.57	1714.15
603.76	1777.64
603.95	1738.73
604.14	1804.26
604.34	1767.40
604.53	1746.92
604.72	1742.82
604.91	1783.78
605.10	1841.12
605.30	1658.85
605.49	1873.89
605.68	1773.54
605.87	1759.21
606.07	1675.24
606.26	1685.48
606.45	1816.55
606.64	1783.78
606.84	1695.72
607.03	1681.38
607.22	1728.49
607.41	1656.81
607.60	1677.29
607.80	1779.68
607.99	1669.09
608.18	1703.91
608.37	1716.20
608.56	1654.76
608.76	1746.92
608.95	1808.36
609.14	1714.15
609.33	1744.87
609.52	1779.68
609.72	1673.19
609.91	1759.21
610.10	1726.44
610.29	1834.98
610.48	1751.01
610.68	1761.25
610.87	1677.29
611.06	1810.40
611.25	1705.96
611.44	1779.68
611.63	1650.66
611.83	1845.22
612.02	1714.15
612.21	1730.53
612.40	1636.33
612.59	1617.90
612.79	1671.14
612.98	1687.53
613.17	1816.55
613.36	1746.92
613.55	1796.07
613.74	1724.39
613.93	1665.00
614.13	1697.77
614.32	1781.73
614.51	1771.49
614.70	1722.34
614.89	1742.82
615.08	1703.91
615.28	2105.31
615.47	1642.47
615.66	1724.39
615.85	1724.39
616.04	1804.26
616.23	1722.34
616.42	1724.39
616.62	1773.54
616.81	1734.63
617.00	1753.06
617.19	1730.53
617.38	1740.77
617.57	1726.44
617.76	1787.88
617.95	1779.68
618.15	1734.63
618.34	1734.63
618.53	1699.81
618.72	1761.25
618.91	1755.11
619.10	1816.55
619.29	1759.21
619.48	1685.48
619.68	1644.52
619.87	1705.96
620.06	1675.24
620.25	1708.01
620.44	1677.29
620.63	1726.44
620.82	1759.21
621.01	1718.25
621.20	1816.55
621.39	1789.92
621.59	1832.93
621.78	1718.25
621.97	1724.39
622.16	1761.25
622.35	1722.34
622.54	1667.05
622.73	1806.31
622.92	1621.99
623.11	1769.44
623.30	1701.86
623.49	1861.60
623.68	1691.62
623.88	1771.49
624.07	1734.63
624.26	1738.73
624.45	1726.44
624.64	1689.57
624.83	1730.53
625.02	1708.01
625.21	1665.00
625.40	1769.44
625.59	1744.87
625.78	1738.73
625.97	1877.99
626.16	1832.93
626.35	1744.87
626.54	1697.77
626.74	1767.40
626.93	1724.39
627.12	1701.86
627.31	1746.92
627.50	1748.97
627.69	1751.01
627.88	1683.43
628.07	1660.90
628.26	1705.96
628.45	1730.53
628.64	1732.58
628.83	1673.19
629.02	1728.49
629.21	1773.54
629.40	1773.54
629.59	1716.20
629.78	1767.40
629.97	1667.05
630.16	1755.11
630.35	1681.38
630.54	1693.67
630.73	1599.46
630.92	1755.11
631.11	1669.09
631.30	1732.58
631.49	1759.21
631.68	1662.95
631.87	1767.40
632.06	1681.38
632.25	1861.60
632.44	1777.64
632.63	1691.62
632.82	1732.58
633.01	1708.01
633.20	1746.92
633.39	1708.01
633.58	1677.29
633.77	1703.91
633.96	1681.38
634.15	1705.96
634.34	1669.09
634.53	1724.39
634.72	1722.34
634.91	1615.85
635.10	1636.33
635.29	1732.58
635.48	1720.29
635.67	1718.25
635.86	1681.38
636.05	1753.06
636.24	1701.86
636.43	1789.92
636.62	1771.49
636.81	1576.94
637.00	1691.62
637.19	1714.15
637.38	1736.68
637.57	1699.81
637.76	1728.49
637.95	1765.35
638.14	1755.11
638.33	1615.85
638.52	1740.77
638.71	1665.00
638.89	1656.81
639.08	1775.59
639.27	1751.01
639.46	1660.90
639.65	1820.64
639.84	1757.16
640.03	1783.78
640.22	1650.66
640.41	1771.49
640.60	1677.29
640.79	1818.60
640.98	1660.90
641.17	1703.91
641.36	1675.24
641.55	1722.34
641.74	1611.75
641.92	1734.63
642.11	1697.77
642.30	1673.19
642.49	1681.38
642.68	1646.57
642.87	1748.97
643.06	1763.30
643.25	1632.23
643.44	1738.73
643.63	1722.34
643.82	1744.87
644.00	1665.00
644.19	1722.34
644.38	1695.72
644.57	1796.07
644.76	1646.57
644.95	1732.58
645.14	1732.58
645.33	1689.57
645.52	1800.16
645.71	1669.09
645.89	1636.33
646.08	1570.79
646.27	1646.57
646.46	1845.22
646.65	1677.29
646.84	1808.36
647.03	1712.10
647.22	1722.34
647.40	1705.96
647.59	1660.90
647.78	1595.37
647.97	1681.38
648.16	1611.75
648.35	1847.27
648.54	1763.30
648.73	1632.23
648.91	1808.36
649.10	1800.16
649.29	1722.34
649.48	1650.66
649.67	1751.01
649.86	1701.86
650.05	1701.86
650.23	1775.59
650.42	1658.85
650.61	1798.12
650.80	1691.62
650.99	1779.68
651.18	1791.97
651.36	1740.77
651.55	1656.81
651.74	1744.87
651.93	1703.91
652.12	1738.73
652.31	1746.92
652.49	1671.14
652.68	1638.38
652.87	1763.30
653.06	1652.71
653.25	1769.44
653.44	1726.44
653.62	1791.97
653.81	1748.97
654.00	1701.86
654.19	1710.05
654.38	1828.84
654.56	1751.01
654.75	1689.57
654.94	1771.49
655.13	1732.58
655.32	1654.76
655.51	1757.16
655.69	1722.34
655.88	1738.73
656.07	1681.38
656.26	1718.25
656.45	1675.24
656.63	1697.77
656.82	1701.86
657.01	1812.45
657.20	1681.38
657.38	1839.08
657.57	1695.72
657.76	1640.42
657.95	1675.24
658.14	1677.29
658.32	1701.86
658.51	1628.14
658.70	1710.05
658.89	1724.39
659.08	1695.72
659.26	1769.44
659.45	1675.24
659.64	1736.68
659.83	1828.84
660.01	1918.95
660.20	1781.73
660.39	1757.16
660.58	1644.52
660.76	1726.44
660.95	1730.53
661.14	1681.38
661.33	1650.66
661.51	1716.20
661.70	1781.73
661.89	1763.30
662.08	1767.40
662.26	1675.24
662.45	1605.61
662.64	1802.21
662.83	1810.40
663.01	1656.81
663.20	1675.24
663.39	1798.12
663.58	1636.33
663.76	1673.19
663.95	1806.31
664.14	1712.10
664.32	1662.95
664.51	1626.09
664.70	1566.70
664.89	1777.64
665.07	1667.05
665.26	1751.01
665.45	1634.28
665.64	1705.96
665.82	1765.35
666.01	1689.57
666.20	1791.97
666.38	1783.78
666.57	1769.44
666.76	2164.70
666.95	4433.85
667.13	10375.01
667.32	15437.59
667.51	18138.86
667.69	19310.30
667.88	17819.38
668.07	12705.60
668.25	9768.81
668.44	8046.47
668.63	7540.62
668.81	6709.15
669.00	6326.18
669.19	5779.37
669.38	5193.65
669.56	4540.35
669.75	4163.52
669.94	3424.20
670.12	2914.26
670.31	2506.71
670.50	2263.01
670.68	2099.17
670.87	1898.47
671.06	1794.02
671.24	1812.45
671.43	1814.50
671.62	1687.53
671.80	1691.62
671.99	1777.64
672.18	1820.64
672.36	1828.84
672.55	1697.77
672.74	1779.68
672.92	1701.86
673.11	1728.49
673.29	1705.96
673.48	1779.68
673.67	1646.57
673.85	1730.53
674.04	1697.77
674.23	1681.38
674.41	1751.01
674.60	1615.85
674.79	1583.08
674.97	1679.33
675.16	1781.73
675.34	1722.34
675.53	1656.81
675.72	1818.60
675.90	1869.80
676.09	1708.01
676.28	1691.62
676.46	1673.19
676.65	1769.44
676.83	1724.39
677.02	1613.80
677.21	1744.87
677.39	1640.42
677.58	1628.14
677.77	1632.23
677.95	1712.10
678.14	1621.99
678.32	1630.18
678.51	1671.14
678.70	1853.41
678.88	1708.01
679.07	1697.77
679.25	1673.19
679.44	1693.67
679.63	1681.38
679.81	1712.10
680.00	1746.92
680.18	1877.99
680.37	1771.49
680.55	1708.01
680.74	1693.67
680.93	1671.14
681.11	1716.20
681.30	1697.77
681.48	1746.92
681.67	1675.24
681.85	1783.78
682.04	1652.71
682.23	1714.15
682.41	1738.73
682.60	1697.77
682.78	1673.19
682.97	1642.47
683.15	1685.48
683.34	1740.77
683.53	1740.77
683.71	1642.47
683.90	1857.51
684.08	1822.69
684.27	1697.77
684.45	1779.68
684.64	1845.22
684.82	1761.25
685.01	1755.11
685.19	1718.25
685.38	1839.08
685.57	1748.97
685.75	1650.66
685.94	1736.68
686.12	1683.43
686.31	1667.05
686.49	1773.54
686.68	1603.56
686.86	1751.01
687.05	1697.77
687.23	1834.98
687.42	1708.01
687.60	1742.82
687.79	1759.21
687.97	1783.78
688.16	1736.68
688.34	1730.53
688.53	1531.88
688.71	1748.97
688.90	1814.50
689.08	1759.21
689.27	1634.28
689.45	1759.21
689.64	1759.21
689.82	1765.35
690.01	1728.49
690.19	1630.18
690.38	1740.77
690.56	1767.40
690.75	1591.27
690.93	1679.33
691.12	1677.29
691.30	1689.57
691.49	1656.81
691.67	1712.10
691.86	1810.40
692.04	1708.01
692.23	1673.19
692.41	1746.92
692.60	1904.61
692.78	1779.68
692.97	1691.62
693.15	1800.16
693.34	1765.35
693.52	1687.53
693.71	1632.23
693.89	1689.57
694.08	1587.18
694.26	1769.44
694.44	1683.43
694.63	1738.73
694.81	1673.19
695.00	1720.29
695.18	1730.53
695.37	1875.94
695.55	1679.33
695.74	1654.76
695.92	1710.05
696.10	1705.96
696.29	1679.33
696.47	1603.56
696.66	1609.70
696.84	1615.85
697.03	1601.51
697.21	1849.32
697.40	2258.91
697.58	1783.78
697.76	1744.87
697.95	1671.14
698.13	1673.19
698.32	1607.66
698.50	1683.43
698.68	1724.39
698.87	1769.44
699.05	1781.73
699.24	1771.49
699.42	1665.00
699.61	1705.96
699.79	1742.82
699.97	1636.33
700.16	1609.70
700.34	1648.61
700.53	1771.49
700.71	1785.83
700.89	1755.11
701.08	1712.10
701.26	1675.24
701.45	2086.88
701.63	1667.05
701.81	1681.38
702.00	1615.85
702.18	1644.52
702.37	1681.38
702.55	1771.49
702.73	1669.09
702.92	1589.22
703.10	1705.96
703.28	1687.53
703.47	1673.19
703.65	1845.22
703.84	1689.57
704.02	1710.05
704.20	1810.40
704.39	1660.90
704.57	1746.92
704.75	1730.53
704.94	1783.78
705.12	1648.61
705.30	1812.45
705.49	2240.48
705.67	4532.15
705.86	9531.25
706.04	12820.28
706.22	15111.96
706.41	15472.40
706.59	14022.44
706.77	9799.53
706.96	7438.22
707.14	6582.17
707.32	6102.95
707.51	5711.78
707.69	5064.63
707.87	4165.57
708.06	3549.13
708.24	2895.83
708.42	2406.36
708.61	2234.33
708.79	1861.60
708.97	1816.55
709.16	1763.30
709.34	1748.97
709.52	1652.71
709.71	1789.92
709.89	1701.86
710.07	1685.48
710.26	1689.57
710.44	1748.97
710.62	1730.53
710.80	1718.25
710.99	1796.07
711.17	1738.73
711.35	1695.72
711.54	1587.18
711.72	1744.87
711.90	1759.21
712.09	1796.07
712.27	1654.76
712.45	1724.39
712.63	1685.48
712.82	1689.57
713.00	1681.38
713.18	1781.73
713.37	1820.64
713.55	1732.58
713.73	1869.80
713.91	1771.49
714.10	1665.00
714.28	1699.81
714.46	1765.35
714.65	1710.05
714.83	1738.73
715.01	1701.86
715.19	1742.82
715.38	1673.19
715.56	1685.48
715.74	1701.86
715.92	1675.24
716.11	1742.82
716.29	1585.13
716.47	1656.81
716.65	1632.23
716.84	1634.28
717.02	1789.92
717.20	1609.70
717.38	1644.52
717.57	1769.44
717.75	1697.77
717.93	1771.49
718.11	1718.25
718.30	1634.28
718.48	1730.53
718.66	1746.92
718.84	1789.92
719.03	1677.29
719.21	1597.42
719.39	1746.92
719.57	1746.92
719.75	1773.54
719.94	1714.15
720.12	1755.11
720.30	1748.97
720.48	1689.57
720.67	1640.42
720.85	1640.42
721.03	1710.05
721.21	1681.38
721.39	1738.73
721.58	1732.58
721.76	1644.52
721.94	1757.16
722.12	1740.77
722.30	1658.85
722.49	1667.05
722.67	1699.81
722.85	1644.52
723.03	1650.66
723.21	1703.91
723.40	1695.72
723.58	1771.49
723.76	1681.38
723.94	1683.43
724.12	1730.53
724.30	1742.82
724.49	1761.25
724.67	1650.66
724.85	1787.88
725.03	1593.32
725.21	1742.82
725.40	1822.69
725.58	1712.10
725.76	1773.54
725.94	1738.73
726.12	1636.33
726.30	1722.34
726.49	1740.77
726.67	1724.39
726.85	1738.73
727.03	1726.44
727.21	2123.74
727.39	2852.82
727.57	3901.38
727.76	4300.73
727.94	4456.38
728.12	4476.86
728.30	3614.66
728.48	2987.99
728.66	2713.56
728.84	2553.82
729.03	2330.59
729.21	2088.93
729.39	1927.14
729.57	1814.50
729.75	1804.26
729.93	1837.03
730.11	1646.57
730.30	1691.62
730.48	1667.05
730.66	1814.50
730.84	1710.05
731.02	1697.77
731.20	1640.42
731.38	1703.91
731.56	1650.66
731.74	1572.84
731.93	1734.63
732.11	1648.61
732.29	1615.85
732.47	1781.73
732.65	1638.38
732.83	1746.92
733.01	1714.15
733.19	1615.85
733.37	1673.19
733.56	1722.34
733.74	1654.76
733.92	1796.07
734.10	1718.25
734.28	1755.11
734.46	1638.38
734.64	1634.28
734.82	1736.68
735.00	1632.23
735.18	1740.77
735.36	1751.01
735.54	1753.06
735.73	1683.43
735.91	1763.30
736.09	1761.25
736.27	1685.48
736.45	1644.52
736.63	1603.56
736.81	1693.67
736.99	1757.16
737.17	1810.40
737.35	1693.67
737.53	1716.20
737.71	1691.62
737.89	1728.49
738.07	1589.22
738.25	1595.37
738.43	1634.28
738.61	1642.47
738.80	1652.71
738.98	1636.33
739.16	1761.25
739.34	1628.14
739.52	1820.64
739.70	1650.66
739.88	1726.44
740.06	1720.29
740.24	1611.75
740.42	1824.74
740.60	1613.80
740.78	1581.03
740.96	1681.38
741.14	1689.57
741.32	1652.71
741.50	1603.56
741.68	1837.03
741.86	1730.53
742.04	1673.19
742.22	1673.19
742.40	1636.33
742.58	1667.05
742.76	1691.62
742.94	1826.79
743.12	1703.91
743.30	1685.48
743.48	1691.62
743.66	1654.76
743.84	1718.25
744.02	1710.05
744.20	1728.49
744.38	1693.67
744.56	1585.13
744.74	1808.36
744.92	1718.25
745.10	1781.73
745.28	1773.54
745.46	1804.26
745.64	1705.96
745.82	1800.16
746.00	1716.20
746.18	1701.86
746.36	1675.24
746.54	1662.95
746.72	1638.38
746.90	1656.81
747.08	1771.49
747.26	1714.15
747.44	1765.35
747.62	1673.19
747.80	1716.20
747.98	1775.59
748.15	1734.63
748.33	1744.87
748.51	1640.42
748.69	1675.24
748.87	1697.77
749.05	1681.38
749.23	1642.47
749.41	1718.25
749.59	1683.43
749.77	1824.74
749.95	1693.67
750.13	1642.47
750.31	1728.49
750.49	1621.99
750.67	1730.53
750.85	1794.02
751.03	1671.14
751.20	1859.56
751.38	1689.57
751.56	1685.48
751.74	1689.57
751.92	1675.24
752.10	1675.24
752.28	1744.87
752.46	1644.52
752.64	1701.86
752.82	1695.72
753.00	1738.73
753.18	1665.00
753.35	1685.48
753.53	1732.58
753.71	1689.57
753.89	1775.59
754.07	1722.34
754.25	1695.72
754.43	1695.72
754.61	1679.33
754.79	1656.81
754.97	1624.04
755.14	1767.40
755.32	1685.48
755.50	1771.49
755.68	1669.09
755.86	1621.99
756.04	1722.34
756.22	1591.27
756.40	1728.49
756.57	1904.61
756.75	1605.61
756.93	1677.29
757.11	1810.40
757.29	1572.84
757.47	1648.61
757.65	1611.75
757.82	1611.75
758.00	1714.15
758.18	1718.25
758.36	1648.61
758.54	1759.21
758.72	1626.09
758.90	1759.21
759.07	1681.38
759.25	1705.96
759.43	1781.73
759.61	1669.09
759.79	2136.03
759.97	1722.34
760.15	1699.81
760.32	1650.66
760.50	1665.00
760.68	1816.55
760.86	1609.70
761.04	1787.88
761.22	1748.97
761.39	1734.63
761.57	1701.86
761.75	1687.53
761.93	1724.39
762.11	1720.29
762.28	1726.44
762.46	1658.85
762.64	1697.77
762.82	1730.53
763.00	1662.95
763.18	1767.40
763.35	1607.66
763.53	1748.97
763.71	1748.97
763.89	1751.01
764.07	1714.15
764.24	1769.44
764.42	1705.96
764.60	1714.15
764.78	1781.73
764.96	1722.34
765.13	1716.20
765.31	1662.95
765.49	1791.97
765.67	1687.53
765.84	1681.38
766.02	1712.10
766.20	1656.81
766.38	1769.44
766.56	1732.58
766.73	1683.43
766.91	1648.61
767.09	1722.34
767.27	1675.24
767.44	1701.86
767.62	1794.02
767.80	1734.63
767.98	1720.29
768.15	1742.82
768.33	1681.38
768.51	1677.29
768.69	1789.92
768.87	1746.92
769.04	1693.67
769.22	1781.73
769.40	1763.30
769.58	1877.99
769.75	1757.16
769.93	1769.44
770.11	1648.61
770.28	1648.61
770.46	1697.77
770.64	1675.24
770.82	1681.38
770.99	1656.81
771.17	1726.44
771.35	1648.61
771.53	1775.59
771.70	1628.14
771.88	1691.62
772.06	1714.15
772.23	1609.70
772.41	1701.86
772.59	1689.57
772.77	1615.85
772.94	1712.10
773.12	1724.39
773.30	1671.14
773.47	1716.20
773.65	1648.61
773.83	1767.40
774.01	1671.14
774.18	1529.83
774.36	1695.72
774.54	1607.66
774.71	1775.59
774.89	1593.32
775.07	1642.47
775.24	1626.09
775.42	1701.86
775.60	1777.64
775.78	1681.38
775.95	1681.38
776.13	1607.66
776.31	1607.66
776.48	1726.44
776.66	1697.77
776.84	1681.38
777.01	1730.53
777.19	1658.85
777.37	1648.61
777.54	1728.49
777.72	1742.82
777.90	1677.29
778.07	1638.38
778.25	1849.32
778.43	1761.25
778.60	1640.42
778.78	1689.57
778.96	1759.21
779.13	1593.32
779.31	1714.15
779.49	1730.53
779.66	1710.05
779.84	1673.19
780.01	1677.29
780.19	1687.53
780.37	1816.55
780.54	1751.01
780.72	1701.86
780.90	1667.05
781.07	1638.38
781.25	1609.70
781.43	1771.49
781.60	1695.72
781.78	1816.55
781.95	1708.01
782.13	1710.05
782.31	1673.19
782.48	1683.43
782.66	1720.29
782.83	1841.12
783.01	1769.44
783.19	1722.34
783.36	1734.63
783.54	1656.81
783.72	1740.77
783.89	1634.28
784.07	1669.09
784.24	1765.35
784.42	1730.53
784.60	1705.96
784.77	1765.35
784.95	1638.38
785.12	1636.33
785.30	1695.72
785.47	1611.75
785.65	1570.79
785.83	1714.15
786.00	1599.46
786.18	1705.96
786.35	1601.51
786.53	1708.01
786.71	1800.16
786.88	1687.53
787.06	1773.54
787.23	1732.58
787.41	1656.81
787.58	1714.15
787.76	1705.96
787.94	1716.20
788.11	1755.11
788.29	1660.90
788.46	1734.63
788.64	1703.91
788.81	1621.99
788.99	1611.75
789.16	1697.77
789.34	1693.67
789.52	1751.01
789.69	1701.86
789.87	1626.09
790.04	1648.61
790.22	1736.68
790.39	1783.78
790.57	1628.14
790.74	1638.38
790.92	1748.97
791.09	1626.09
791.27	1591.27
791.44	1791.97
791.62	1722.34
791.79	1771.49
791.97	1804.26
792.15	1845.22
792.32	1726.44
792.50	1763.30
792.67	1693.67
792.85	1820.64
793.02	1669.09
793.20	1734.63
793.37	1568.74
793.55	1710.05
793.72	1581.03
793.90	1736.68
794.07	1687.53
794.25	1701.86
794.42	1785.83
794.60	1660.90
794.77	1703.91
794.95	1736.68
795.12	1773.54
795.30	1681.38
795.47	1621.99
795.65	1839.08
795.82	1708.01
796.00	1605.61
796.17	1736.68
796.34	1722.34
796.52	1689.57
796.69	1755.11
796.87	1726.44
797.04	1644.52
797.22	1724.39
797.39	1681.38
797.57	1742.82
797.74	1619.94
797.92	1701.86
798.09	1751.01
798.27	1781.73
798.44	1746.92
798.62	1683.43
798.79	1701.86
798.96	1734.63
799.14	1621.99
799.31	1832.93
799.49	1708.01
799.66	1660.90
799.84	1734.63
800.01	1570.79
800.19	1673.19
800.36	1628.14
800.53	1675.24
800.71	1693.67
800.88	1783.78
801.06	1615.85
801.23	1714.15
801.41	1642.47
801.58	1603.56
801.75	1665.00
801.93	1654.76
802.10	1730.53
802.28	1736.68
802.45	1685.48
802.63	1744.87
802.80	1814.50
802.97	1632.23
803.15	1705.96
803.32	1718.25
803.50	1677.29
803.67	1626.09
803.84	1615.85
804.02	1730.53
804.19	1710.05
804.37	1621.99
804.54	1611.75
804.71	1626.09
804.89	1669.09
805.06	1671.14
805.24	1636.33
805.41	1658.85
805.58	1619.94
805.76	1830.88
805.93	1738.73
806.10	1818.60
806.28	1736.68
806.45	1665.00
806.63	1665.00
806.80	1718.25
806.97	1701.86
807.15	1720.29
807.32	1712.10
807.49	1669.09
807.67	1568.74
807.84	1699.81
808.01	1626.09
808.19	1757.16
808.36	1832.93
808.54	1703.91
808.71	1689.57
808.88	1755.11
809.06	1689.57
809.23	1751.01
809.40	1636.33
809.58	1734.63
809.75	1671.14
809.92	1644.52
810.10	1906.66
810.27	1648.61
810.44	1695.72
810.62	1779.68
810.79	1642.47
810.96	1718.25
811.14	1691.62
811.31	1677.29
811.48	1804.26
811.66	1615.85
811.83	1683.43
812.00	1693.67
812.18	1775.59
812.35	1773.54
812.52	1705.96
812.69	1650.66
812.87	1660.90
813.04	1560.55
813.21	1601.51
813.39	1656.81
813.56	1597.42
813.73	1767.40
813.91	1624.04
814.08	1742.82
814.25	1640.42
814.42	1603.56
814.60	1628.14
814.77	1658.85
814.94	1689.57
815.12	1726.44
815.29	1802.21
815.46	1658.85
815.63	1656.81
815.81	1681.38
815.98	1716.20
816.15	1722.34
816.33	1701.86
816.50	1665.00
816.67	1660.90
816.84	1644.52
817.02	1591.27
817.19	1695.72
817.36	1740.77
817.53	1761.25
817.71	1656.81
817.88	1679.33
818.05	1708.01
818.22	1712.10
818.40	1880.04
818.57	1634.28
818.74	1767.40
818.91	1634.28
819.09	1703.91
819.26	1742.82
819.43	1658.85
819.60	1757.16
819.78	1761.25
819.95	1789.92
820.12	1574.89
820.29	1773.54
820.47	1728.49
820.64	1642.47
820.81	1550.31
820.98	1628.14
821.15	1662.95
821.33	1642.47
821.50	1626.09
821.67	1777.64
821.84	1658.85
822.02	1767.40
822.19	1746.92
822.36	1722.34
822.53	1703.91
822.70	1673.19
822.88	1636.33
823.05	1765.35
823.22	1615.85
823.39	1720.29
823.56	1724.39
823.74	1804.26
823.91	1617.90
824.08	1638.38
824.25	1660.90
824.42	1837.03
824.60	1593.32
824.77	1728.49
824.94	1736.68
825.11	1693.67
825.28	1619.94
825.45	1757.16
825.63	1730.53
825.80	1630.18
825.97	1718.25
826.14	1767.40
826.31	1619.94
826.48	1665.00
826.66	1662.95
826.83	1681.38
827.00	1773.54
827.17	1652.71
827.34	1740.77
827.51	1730.53
827.69	1708.01
827.86	1607.66
828.03	1722.34
828.20	1705.96
828.37	1685.48
828.54	1757.16
828.71	1628.14
828.89	1841.12
829.06	1671.14
829.23	1755.11
829.40	1578.98
829.57	1671.14
829.74	1617.90
829.91	1714.15
830.09	1705.96
830.26	1748.97
830.43	1757.16
830.60	1695.72
830.77	1849.32
830.94	1736.68
831.11	1699.81
831.28	1669.09
831.46	1789.92
831.63	1611.75
831.80	1728.49
831.97	1654.76
832.14	1679.33
832.31	1742.82
832.48	1693.67
832.65	1744.87
832.82	1710.05
832.99	1746.92
833.17	1646.57
833.34	1755.11
833.51	1687.53
833.68	1619.94
833.85	1710.05
834.02	1683.43
834.19	1714.15
834.36	1671.14
834.53	1636.33
834.70	1800.16
834.87	1699.81
835.04	1642.47
835.22	1652.71
835.39	1681.38
835.56	1628.14
835.73	1732.58
835.90	1761.25
836.07	1615.85
836.24	1744.87
836.41	1609.70
836.58	1632.23
836.75	1724.39
836.92	1753.06
837.09	1667.05
837.26	1744.87
837.43	1691.62
837.60	1775.59
837.77	1644.52
837.94	1748.97
838.12	1765.35
838.29	1732.58
838.46	1574.89
838.63	1660.90
838.80	1748.97
838.97	1759.21
839.14	1712.10
839.31	1705.96
839.48	1728.49
839.65	1669.09
839.82	1771.49
839.99	1656.81
840.16	1705.96
840.33	1679.33
840.50	1710.05
840.67	1597.42
840.84	1544.17
841.01	1748.97
841.18	1636.33
841.35	1665.00
841.52	1740.77
841.69	1816.55
841.86	1605.61
842.03	1650.66
842.20	1714.15
842.37	1726.44
842.54	1708.01
842.71	1687.53
842.88	1593.32
843.05	1671.14
843.22	1718.25
843.39	1814.50
843.56	1642.47
843.73	1708.01
843.90	1613.80
844.07	1787.88
844.24	1755.11
844.41	1734.63
844.58	1683.43
844.75	1675.24
844.92	1759.21
845.09	1693.67
845.26	1679.33
845.43	1683.43
845.60	1708.01
845.77	1720.29
845.94	1722.34
846.10	1734.63
846.27	1705.96
846.44	1605.61
846.61	1677.29
846.78	1683.43
846.95	1705.96
847.12	1705.96
847.29	1705.96
847.46	1609.70
847.63	1722.34
847.80	1656.81
847.97	1609.70
848.14	1828.84
848.31	1630.18
848.48	1638.38
848.65	1656.81
848.82	1628.14
848.98	1804.26
849.15	1718.25
849.32	1779.68
849.49	1738.73
849.66	1687.53
849.83	1728.49
850.00	1595.37
850.17	1667.05
850.34	1642.47
850.51	1681.38
850.68	1687.53
850.85	1837.03
851.01	1757.16
851.18	1759.21
851.35	1730.53
851.52	1689.57
851.69	1716.20
851.86	1576.94
852.03	1619.94
852.20	1765.35
852.37	1773.54
852.53	1644.52
852.70	1701.86
852.87	1734.63
853.04	1701.86
853.21	1667.05
853.38	1771.49
853.55	1812.45
853.72	1777.64
853.89	1673.19
854.05	1738.73
854.22	1687.53
854.39	1716.20
854.56	1708.01
854.73	1748.97
854.90	1652.71
855.07	1693.67
855.23	1654.76
855.40	1632.23
855.57	1681.38
855.74	1540.07
855.91	1828.84
856.08	1652.71
856.25	1632.23
856.41	1765.35
856.58	1607.66
856.75	1671.14
856.92	1705.96
857.09	1691.62
857.26	1650.66
857.42	1673.19
857.59	1701.86
857.76	1667.05
857.93	1720.29
858.10	1732.58
858.27	1624.04
858.43	1808.36
858.60	1722.34
858.77	1634.28
858.94	1689.57
859.11	1718.25
859.27	1683.43
859.44	1646.57
859.61	1826.79
859.78	1712.10
859.95	1679.33
860.12	1658.85
860.28	1859.56
860.45	1820.64
860.62	1665.00
860.79	1689.57
860.95	1632.23
861.12	1675.24
861.29	1660.90
861.46	1740.77
861.63	1685.48
861.79	1708.01
861.96	1689.57
862.13	1714.15
862.30	1687.53
862.47	1669.09
862.63	1667.05
862.80	1783.78
862.97	1730.53
863.14	1695.72
863.30	1621.99
863.47	1683.43
863.64	1714.15
863.81	1726.44
863.97	1669.09
864.14	1726.44
864.31	1691.62
864.48	1691.62
864.65	1648.61
864.81	1751.01
864.98	1714.15
865.15	1794.02
865.32	1705.96
865.48	1722.34
865.65	1728.49
865.82	1650.66
865.98	1671.14
866.15	1730.53
866.32	1576.94
866.49	1693.67
866.65	1744.87
866.82	1769.44
866.99	1691.62
867.16	1626.09
867.32	1662.95
867.49	1646.57
867.66	1697.77
867.83	1675.24
867.99	1570.79
868.16	1703.91
868.33	1675.24
868.49	1689.57
868.66	1710.05
868.83	1724.39
868.99	1691.62
869.16	1689.57
869.33	1732.58
869.50	1738.73
869.66	1675.24
869.83	1673.19
870.00	1628.14
870.16	1753.06
870.33	1681.38
870.50	1738.73
870.66	1777.64
870.83	1822.69
871.00	1654.76
871.17	1687.53
871.33	1744.87
871.50	1630.18
871.67	1710.05
871.83	1564.65
872.00	1775.59
872.17	1732.58
872.33	1751.01
872.50	1738.73
872.67	1701.86
872.83	1656.81
873.00	1736.68
873.17	1624.04
873.33	1769.44
873.50	1757.16
873.67	1599.46
873.83	1675.24
874.00	1632.23
874.16	1681.38
874.33	1726.44
874.50	1542.12
874.66	1697.77
874.83	1691.62
875.00	1783.78
875.16	1779.68
875.33	1751.01
875.50	1654.76
875.66	1687.53
875.83	1738.73
875.99	1775.59
876.16	1685.48
876.33	1677.29
876.49	1714.15
876.66	1658.85
876.83	1683.43
876.99	1570.79
877.16	1681.38
877.32	1675.24
877.49	1683.43
877.66	1734.63
877.82	1724.39
877.99	1654.76
878.15	1755.11
878.32	1605.61
878.49	1687.53
878.65	1642.47
878.82	1751.01
878.98	1708.01
879.15	1722.34
879.32	1804.26
879.48	1669.09
879.65	1720.29
879.81	1611.75
879.98	1677.29
880.15	1644.52
880.31	1636.33
880.48	1652.71
880.64	1730.53
880.81	1703.91
880.97	1847.27
881.14	1783.78
881.31	1669.09
881.47	1845.22
881.64	1730.53
881.80	1560.55
881.97	1685.48
882.13	1724.39
882.30	1695.72
882.47	1609.70
882.63	1689.57
882.80	1660.90
882.96	1642.47
883.13	1757.16
883.29	1646.57
883.46	1710.05
883.62	1798.12
883.79	1681.38
883.95	1746.92
884.12	1669.09
884.29	1777.64
884.45	1738.73
884.62	1638.38
884.78	1644.52
884.95	1800.16
885.11	1679.33
885.28	1716.20
885.44	1751.01
885.61	1705.96
885.77	1783.78
885.94	1738.73
886.10	1679.33
886.27	1679.33
886.43	1857.51
886.60	1804.26
886.76	1667.05
886.93	1681.38
887.09	1712.10
887.26	1628.14
887.42	1685.48
887.59	1740.77
887.75	1798.12
887.92	1796.07
888.08	1759.21
888.25	1726.44
888.41	1681.38
888.58	1699.81
888.74	1603.56
888.91	1683.43
>>>>>End Processed Spectral Data<<<<<
