SpectraSuite Data File
++++++++++++++++++++++++++++++++++++
Date: Mon Jun 06 15:58:37 CEST 2016
User: root
Dark Spectrum Present: No
Reference Spectrum Present: No
Number of Sampled Component Spectra: 1
Spectrometers: USB4C02835
Integration Time (usec): 100000 (USB4C02835)
Spectra Averaged: 1 (USB4C02835)
Boxcar Smoothing: 0 (USB4C02835)
Correct for Electrical Dark: No (USB4C02835)
Strobe/Lamp Enabled: No (USB4C02835)
Correct for Detector Non-linearity: No (USB4C02835)
Correct for Stray Light: No (USB4C02835)
Number of Pixels in Processed Spectrum: 3648
>>>>>Begin Processed Spectral Data<<<<<
177.47	1460.20
177.69	1460.20
177.91	1460.20
178.13	1400.81
178.36	1472.49
178.58	1677.29
178.80	1746.92
179.02	1683.43
179.24	1621.99
179.46	1783.78
179.68	1751.01
179.90	1689.57
180.13	1753.06
180.35	1689.57
180.57	1662.95
180.79	1742.82
181.01	1673.19
181.23	1767.40
181.45	1849.32
181.67	1755.11
181.90	1775.59
182.12	1648.61
182.34	1617.90
182.56	1753.06
182.78	1724.39
183.00	1728.49
183.22	1742.82
183.44	1636.33
183.66	1912.80
183.89	1851.36
184.11	1753.06
184.33	1726.44
184.55	1751.01
184.77	1726.44
184.99	1791.97
185.21	1710.05
185.43	1863.65
185.65	1658.85
185.87	1755.11
186.10	1886.18
186.32	1896.42
186.54	1665.00
186.76	1718.25
186.98	1777.64
187.20	1683.43
187.42	1662.95
187.64	1642.47
187.86	1777.64
188.08	1755.11
188.30	1695.72
188.52	1742.82
188.75	1742.82
188.97	1783.78
189.19	1732.58
189.41	1724.39
189.63	1804.26
189.85	1708.01
190.07	1605.61
190.29	1761.25
190.51	1705.96
190.73	1578.98
190.95	1730.53
191.17	1714.15
191.39	1675.24
191.61	1681.38
191.84	1701.86
192.06	1714.15
192.28	1624.04
192.50	1937.38
192.72	1738.73
192.94	1632.23
193.16	1683.43
193.38	1693.67
193.60	1693.67
193.82	1757.16
194.04	1732.58
194.26	1722.34
194.48	1705.96
194.70	1689.57
194.92	1708.01
195.14	1652.71
195.36	1736.68
195.58	1748.97
195.80	1701.86
196.02	1665.00
196.24	1699.81
196.46	1736.68
196.69	1646.57
196.91	1918.95
197.13	1701.86
197.35	1583.08
197.57	1773.54
197.79	1755.11
198.01	1746.92
198.23	1769.44
198.45	1771.49
198.67	1710.05
198.89	1685.48
199.11	1701.86
199.33	1669.09
199.55	1607.66
199.77	1730.53
199.99	1800.16
200.21	1638.38
200.43	1783.78
200.65	1628.14
200.87	1574.89
201.09	1689.57
201.31	1755.11
201.53	1736.68
201.75	1677.29
201.97	1669.09
202.19	1714.15
202.41	1736.68
202.63	1890.28
202.85	1771.49
203.07	1710.05
203.29	1658.85
203.51	1673.19
203.73	1708.01
203.95	1877.99
204.17	1771.49
204.39	1714.15
204.61	1689.57
204.83	1726.44
205.05	1697.77
205.27	1656.81
205.49	1802.21
205.71	1765.35
205.93	1677.29
206.15	1609.70
206.37	1834.98
206.59	1701.86
206.81	1755.11
207.03	1615.85
207.25	1652.71
207.47	1734.63
207.69	1687.53
207.91	1779.68
208.13	1820.64
208.34	1720.29
208.56	1673.19
208.78	1753.06
209.00	1693.67
209.22	1683.43
209.44	1691.62
209.66	1718.25
209.88	1699.81
210.10	1673.19
210.32	1691.62
210.54	1755.11
210.76	1693.67
210.98	1714.15
211.20	1636.33
211.42	1738.73
211.64	1734.63
211.86	1714.15
212.08	1736.68
212.30	1722.34
212.52	1751.01
212.74	1699.81
212.96	1787.88
213.17	1691.62
213.39	1736.68
213.61	1755.11
213.83	1746.92
214.05	1615.85
214.27	1767.40
214.49	1716.20
214.71	1679.33
214.93	1755.11
215.15	1787.88
215.37	1796.07
215.59	1710.05
215.81	1781.73
216.03	1777.64
216.24	1687.53
216.46	1785.83
216.68	1765.35
216.90	1794.02
217.12	1765.35
217.34	1697.77
217.56	1746.92
217.78	1746.92
218.00	1755.11
218.22	1785.83
218.44	1744.87
218.66	1732.58
218.87	1791.97
219.09	1652.71
219.31	1748.97
219.53	1673.19
219.75	1701.86
219.97	1673.19
220.19	1798.12
220.41	1718.25
220.63	1695.72
220.85	1671.14
221.06	1726.44
221.28	1769.44
221.50	1757.16
221.72	1656.81
221.94	1751.01
222.16	1685.48
222.38	1708.01
222.60	1726.44
222.82	1718.25
223.03	1763.30
223.25	1574.89
223.47	1787.88
223.69	1837.03
223.91	1781.73
224.13	1748.97
224.35	1687.53
224.57	1779.68
224.78	1730.53
225.00	1695.72
225.22	1718.25
225.44	1748.97
225.66	1724.39
225.88	1716.20
226.10	1757.16
226.32	1732.58
226.53	1748.97
226.75	1624.04
226.97	1685.48
227.19	1689.57
227.41	1642.47
227.63	1689.57
227.85	1636.33
228.06	1621.99
228.28	1701.86
228.50	1742.82
228.72	1665.00
228.94	1675.24
229.16	1615.85
229.37	1685.48
229.59	1669.09
229.81	1738.73
230.03	1679.33
230.25	1667.05
230.47	1609.70
230.69	1650.66
230.90	1767.40
231.12	1722.34
231.34	1685.48
231.56	1748.97
231.78	1695.72
232.00	1845.22
232.21	1744.87
232.43	1691.62
232.65	1650.66
232.87	1777.64
233.09	1691.62
233.30	1650.66
233.52	1728.49
233.74	1730.53
233.96	1642.47
234.18	1822.69
234.40	1736.68
234.61	1841.12
234.83	1640.42
235.05	1644.52
235.27	1843.17
235.49	1751.01
235.70	1714.15
235.92	1716.20
236.14	1757.16
236.36	1808.36
236.58	1677.29
236.79	1828.84
237.01	1724.39
237.23	1705.96
237.45	1845.22
237.67	1716.20
237.88	1691.62
238.10	1806.31
238.32	1619.94
238.54	1736.68
238.76	1677.29
238.97	1705.96
239.19	1761.25
239.41	1708.01
239.63	1882.08
239.85	1669.09
240.06	1681.38
240.28	1671.14
240.50	1763.30
240.72	1705.96
240.93	1603.56
241.15	1763.30
241.37	1738.73
241.59	1765.35
241.81	1769.44
242.02	1679.33
242.24	1755.11
242.46	1763.30
242.68	1609.70
242.89	1806.31
243.11	1761.25
243.33	1718.25
243.55	1744.87
243.76	1679.33
243.98	1681.38
244.20	1708.01
244.42	1689.57
244.64	1710.05
244.85	1591.27
245.07	1665.00
245.29	1775.59
245.51	1734.63
245.72	1724.39
245.94	1740.77
246.16	1662.95
246.38	1746.92
246.59	1683.43
246.81	1699.81
247.03	1753.06
247.24	1619.94
247.46	1705.96
247.68	1710.05
247.90	1697.77
248.11	1734.63
248.33	1781.73
248.55	1677.29
248.77	1705.96
248.98	1726.44
249.20	1808.36
249.42	1714.15
249.64	1787.88
249.85	1699.81
250.07	1650.66
250.29	1699.81
250.50	1736.68
250.72	1640.42
250.94	1751.01
251.16	1886.18
251.37	1814.50
251.59	1802.21
251.81	1732.58
252.02	1810.40
252.24	1705.96
252.46	1806.31
252.68	1650.66
252.89	1705.96
253.11	1593.32
253.33	1740.77
253.54	1822.69
253.76	1687.53
253.98	1626.09
254.20	1781.73
254.41	1667.05
254.63	1667.05
254.85	1628.14
255.06	1701.86
255.28	1687.53
255.50	1665.00
255.71	1636.33
255.93	1566.70
256.15	1720.29
256.36	1740.77
256.58	1660.90
256.80	1740.77
257.02	1755.11
257.23	1671.14
257.45	1734.63
257.67	1685.48
257.88	1685.48
258.10	1736.68
258.32	1720.29
258.53	1781.73
258.75	1804.26
258.97	1671.14
259.18	1693.67
259.40	1789.92
259.62	1824.74
259.83	1816.55
260.05	1785.83
260.27	1984.48
260.48	1771.49
260.70	1673.19
260.92	1783.78
261.13	1761.25
261.35	1771.49
261.57	1796.07
261.78	1624.04
262.00	1681.38
262.22	1794.02
262.43	1636.33
262.65	1720.29
262.86	1779.68
263.08	1820.64
263.30	1695.72
263.51	1630.18
263.73	1673.19
263.95	1744.87
264.16	1683.43
264.38	1601.51
264.60	1675.24
264.81	1703.91
265.03	1781.73
265.25	1822.69
265.46	1687.53
265.68	1828.84
265.89	1734.63
266.11	1656.81
266.33	1748.97
266.54	1759.21
266.76	1761.25
266.98	1697.77
267.19	1808.36
267.41	1718.25
267.62	1724.39
267.84	1619.94
268.06	1732.58
268.27	1697.77
268.49	1822.69
268.70	1691.62
268.92	1783.78
269.14	1685.48
269.35	1640.42
269.57	1624.04
269.79	1710.05
270.00	1613.80
270.22	1783.78
270.43	1744.87
270.65	1566.70
270.87	1720.29
271.08	1724.39
271.30	1738.73
271.51	1718.25
271.73	1748.97
271.95	1857.51
272.16	1761.25
272.38	1673.19
272.59	1710.05
272.81	1691.62
273.02	1753.06
273.24	1726.44
273.46	1689.57
273.67	1677.29
273.89	1652.71
274.10	1695.72
274.32	1796.07
274.54	1710.05
274.75	1671.14
274.97	1716.20
275.18	1767.40
275.40	1777.64
275.61	1662.95
275.83	1746.92
276.05	1656.81
276.26	1728.49
276.48	1683.43
276.69	1654.76
276.91	1632.23
277.12	1730.53
277.34	1730.53
277.55	1761.25
277.77	1748.97
277.99	1701.86
278.20	1648.61
278.42	1587.18
278.63	1656.81
278.85	1607.66
279.06	1705.96
279.28	1783.78
279.49	1714.15
279.71	1794.02
279.93	1783.78
280.14	1712.10
280.36	1718.25
280.57	1693.67
280.79	1767.40
281.00	1679.33
281.22	1722.34
281.43	1757.16
281.65	1609.70
281.86	1632.23
282.08	1812.45
282.29	1796.07
282.51	1597.42
282.73	1683.43
282.94	1589.22
283.16	1763.30
283.37	1816.55
283.59	1693.67
283.80	1751.01
284.02	1767.40
284.23	1779.68
284.45	1660.90
284.66	1677.29
284.88	1636.33
285.09	1800.16
285.31	1736.68
285.52	1556.46
285.74	1632.23
285.95	1753.06
286.17	1650.66
286.38	1742.82
286.60	1701.86
286.81	1714.15
287.03	1759.21
287.24	1785.83
287.46	1693.67
287.67	1757.16
287.89	1880.04
288.10	1763.30
288.32	1771.49
288.53	1794.02
288.75	1783.78
288.96	1734.63
289.18	1669.09
289.39	1708.01
289.61	1775.59
289.82	1822.69
290.04	1867.75
290.25	1638.38
290.47	1703.91
290.68	1705.96
290.90	1820.64
291.11	1628.14
291.33	1742.82
291.54	1638.38
291.76	1677.29
291.97	1757.16
292.18	1730.53
292.40	1697.77
292.61	1708.01
292.83	1814.50
293.04	1787.88
293.26	1746.92
293.47	1787.88
293.69	1648.61
293.90	1744.87
294.12	1712.10
294.33	1687.53
294.55	1624.04
294.76	1787.88
294.97	1773.54
295.19	1820.64
295.40	1636.33
295.62	1802.21
295.83	1736.68
296.05	1660.90
296.26	1791.97
296.48	1710.05
296.69	1656.81
296.90	1701.86
297.12	1769.44
297.33	1796.07
297.55	1732.58
297.76	1732.58
297.98	1779.68
298.19	1738.73
298.41	1708.01
298.62	1646.57
298.83	1787.88
299.05	1730.53
299.26	1695.72
299.48	1718.25
299.69	1787.88
299.90	1697.77
300.12	1662.95
300.33	1734.63
300.55	1726.44
300.76	1771.49
300.98	1626.09
301.19	1751.01
301.40	1677.29
301.62	1673.19
301.83	1761.25
302.05	1761.25
302.26	1755.11
302.47	1816.55
302.69	1697.77
302.90	1716.20
303.12	1626.09
303.33	1789.92
303.54	1726.44
303.76	1695.72
303.97	1730.53
304.19	1859.56
304.40	1636.33
304.61	1767.40
304.83	1834.98
305.04	1720.29
305.26	1710.05
305.47	1628.14
305.68	1710.05
305.90	1621.99
306.11	1800.16
306.33	1689.57
306.54	1679.33
306.75	1755.11
306.97	1644.52
307.18	1662.95
307.39	1673.19
307.61	1734.63
307.82	1660.90
308.04	1720.29
308.25	1619.94
308.46	1771.49
308.68	1738.73
308.89	1757.16
309.10	1736.68
309.32	1740.77
309.53	1710.05
309.74	1736.68
309.96	1716.20
310.17	1761.25
310.39	1671.14
310.60	1728.49
310.81	1634.28
311.03	1626.09
311.24	1728.49
311.45	1806.31
311.67	1843.17
311.88	1689.57
312.09	1720.29
312.31	1687.53
312.52	1667.05
312.73	1705.96
312.95	1587.18
313.16	1681.38
313.37	1757.16
313.59	1652.71
313.80	1755.11
314.01	1779.68
314.23	1681.38
314.44	1683.43
314.65	1640.42
314.87	1710.05
315.08	1644.52
315.29	1722.34
315.51	1642.47
315.72	1703.91
315.93	1820.64
316.15	1726.44
316.36	1789.92
316.57	1751.01
316.79	1818.60
317.00	1724.39
317.21	1642.47
317.43	1716.20
317.64	1710.05
317.85	1619.94
318.07	1697.77
318.28	1806.31
318.49	1787.88
318.70	1920.99
318.92	1841.12
319.13	1804.26
319.34	1783.78
319.56	1839.08
319.77	1804.26
319.98	1830.88
320.20	1810.40
320.41	1736.68
320.62	1767.40
320.83	1615.85
321.05	1834.98
321.26	1722.34
321.47	1746.92
321.69	1837.03
321.90	1640.42
322.11	1689.57
322.32	1763.30
322.54	1794.02
322.75	1695.72
322.96	1873.89
323.18	1679.33
323.39	1609.70
323.60	1669.09
323.81	1787.88
324.03	1734.63
324.24	1660.90
324.45	1699.81
324.66	1677.29
324.88	1791.97
325.09	1798.12
325.30	1671.14
325.52	1621.99
325.73	1767.40
325.94	1656.81
326.15	1650.66
326.37	1712.10
326.58	1732.58
326.79	1873.89
327.00	1611.75
327.22	1732.58
327.43	1746.92
327.64	1615.85
327.85	1740.77
328.07	1669.09
328.28	1791.97
328.49	1757.16
328.70	1828.84
328.92	1746.92
329.13	1785.83
329.34	1832.93
329.55	1757.16
329.76	1777.64
329.98	1683.43
330.19	1775.59
330.40	1746.92
330.61	1697.77
330.83	1689.57
331.04	1626.09
331.25	1689.57
331.46	1646.57
331.68	1660.90
331.89	1746.92
332.10	1720.29
332.31	1662.95
332.52	1697.77
332.74	1783.78
332.95	1642.47
333.16	1759.21
333.37	1744.87
333.58	1718.25
333.80	1796.07
334.01	1632.23
334.22	1689.57
334.43	1687.53
334.64	1656.81
334.86	1722.34
335.07	1720.29
335.28	1732.58
335.49	1595.37
335.70	1728.49
335.92	1796.07
336.13	1837.03
336.34	1753.06
336.55	1691.62
336.76	1720.29
336.98	1624.04
337.19	1738.73
337.40	1863.65
337.61	1859.56
337.82	1619.94
338.04	1781.73
338.25	1630.18
338.46	1607.66
338.67	1693.67
338.88	1671.14
339.09	1763.30
339.31	1701.86
339.52	1714.15
339.73	1660.90
339.94	1724.39
340.15	1763.30
340.36	1656.81
340.58	1714.15
340.79	1611.75
341.00	1746.92
341.21	1644.52
341.42	1857.51
341.63	1755.11
341.85	1769.44
342.06	1722.34
342.27	1640.42
342.48	1744.87
342.69	1630.18
342.90	1767.40
343.12	1740.77
343.33	1589.22
343.54	1679.33
343.75	1830.88
343.96	1652.71
344.17	1673.19
344.38	1667.05
344.60	1665.00
344.81	1644.52
345.02	1656.81
345.23	1777.64
345.44	1912.80
345.65	1820.64
345.86	1726.44
346.07	1630.18
346.29	1646.57
346.50	1746.92
346.71	1724.39
346.92	1742.82
347.13	1875.94
347.34	1679.33
347.55	1656.81
347.76	1720.29
347.98	1675.24
348.19	1697.77
348.40	1808.36
348.61	1724.39
348.82	1789.92
349.03	1783.78
349.24	1624.04
349.45	1787.88
349.66	1626.09
349.88	1673.19
350.09	1681.38
350.30	1734.63
350.51	1847.27
350.72	1738.73
350.93	1718.25
351.14	1695.72
351.35	1775.59
351.56	1669.09
351.77	1714.15
351.99	1687.53
352.20	1818.60
352.41	1800.16
352.62	1607.66
352.83	1685.48
353.04	1722.34
353.25	1687.53
353.46	1810.40
353.67	1820.64
353.88	1634.28
354.09	1648.61
354.30	1734.63
354.52	1732.58
354.73	1716.20
354.94	1738.73
355.15	1601.51
355.36	1802.21
355.57	1761.25
355.78	1650.66
355.99	1671.14
356.20	1755.11
356.41	1787.88
356.62	1699.81
356.83	1675.24
357.04	1837.03
357.25	1564.65
357.46	1726.44
357.68	1626.09
357.89	1658.85
358.10	1714.15
358.31	1730.53
358.52	1691.62
358.73	1603.56
358.94	1712.10
359.15	1628.14
359.36	1748.97
359.57	1689.57
359.78	1673.19
359.99	1701.86
360.20	1615.85
360.41	1693.67
360.62	1665.00
360.83	1794.02
361.04	1734.63
361.25	1771.49
361.46	1781.73
361.67	1712.10
361.88	1695.72
362.09	1785.83
362.30	1691.62
362.51	1720.29
362.72	1705.96
362.93	1818.60
363.14	1753.06
363.35	1730.53
363.56	1681.38
363.78	1695.72
363.99	1714.15
364.20	1705.96
364.41	1644.52
364.62	1832.93
364.83	1687.53
365.04	1718.25
365.25	1748.97
365.46	1798.12
365.67	1652.71
365.88	1673.19
366.09	1689.57
366.30	1724.39
366.51	1746.92
366.72	1683.43
366.93	1763.30
367.14	1763.30
367.35	1693.67
367.56	1697.77
367.77	1771.49
367.98	1683.43
368.18	1755.11
368.39	1755.11
368.60	1650.66
368.81	1837.03
369.02	1703.91
369.23	1730.53
369.44	1648.61
369.65	1638.38
369.86	1693.67
370.07	1712.10
370.28	1671.14
370.49	1677.29
370.70	1763.30
370.91	1609.70
371.12	1597.42
371.33	1757.16
371.54	1695.72
371.75	1849.32
371.96	1660.90
372.17	1753.06
372.38	1744.87
372.59	1771.49
372.80	1685.48
373.01	1710.05
373.22	1681.38
373.43	1660.90
373.64	1722.34
373.85	1794.02
374.06	1826.79
374.26	1765.35
374.47	1736.68
374.68	1755.11
374.89	1757.16
375.10	1662.95
375.31	1722.34
375.52	1740.77
375.73	1740.77
375.94	1615.85
376.15	1787.88
376.36	1689.57
376.57	1738.73
376.78	1738.73
376.99	1724.39
377.20	1806.31
377.40	1736.68
377.61	1722.34
377.82	1665.00
378.03	1820.64
378.24	1687.53
378.45	1685.48
378.66	1708.01
378.87	1630.18
379.08	1644.52
379.29	1689.57
379.50	1869.80
379.71	1683.43
379.91	1753.06
380.12	1650.66
380.33	1779.68
380.54	1712.10
380.75	1703.91
380.96	1708.01
381.17	1695.72
381.38	1728.49
381.59	1683.43
381.80	1726.44
382.00	1912.80
382.21	1751.01
382.42	1849.32
382.63	1845.22
382.84	1728.49
383.05	1802.21
383.26	1791.97
383.47	1726.44
383.68	1728.49
383.88	1808.36
384.09	1783.78
384.30	1734.63
384.51	1759.21
384.72	1669.09
384.93	1699.81
385.14	1685.48
385.35	1775.59
385.55	1695.72
385.76	1796.07
385.97	1730.53
386.18	1650.66
386.39	1728.49
386.60	1599.46
386.81	1667.05
387.02	1640.42
387.22	1591.27
387.43	1759.21
387.64	1880.04
387.85	1839.08
388.06	2260.96
388.27	4286.40
388.48	6735.77
388.68	8091.52
388.89	9488.24
389.10	9631.60
389.31	8404.86
389.52	7520.14
389.73	6655.90
389.93	6184.87
390.14	5754.79
390.35	5126.07
390.56	4456.38
390.77	3721.16
390.98	2965.46
391.18	2445.27
391.39	2150.37
391.60	1843.17
391.81	1857.51
392.02	1710.05
392.23	1875.94
392.43	1650.66
392.64	1855.46
392.85	1689.57
393.06	1787.88
393.27	1722.34
393.47	1695.72
393.68	1761.25
393.89	1693.67
394.10	1732.58
394.31	1710.05
394.52	1667.05
394.72	1642.47
394.93	1810.40
395.14	1695.72
395.35	1732.58
395.56	1691.62
395.76	1628.14
395.97	1896.42
396.18	1845.22
396.39	1892.32
396.60	2025.44
396.80	1802.21
397.01	1910.75
397.22	1908.71
397.43	1828.84
397.64	1757.16
397.84	1740.77
398.05	1853.41
398.26	1800.16
398.47	1853.41
398.67	1789.92
398.88	1681.38
399.09	1720.29
399.30	1689.57
399.51	1742.82
399.71	1667.05
399.92	1705.96
400.13	1820.64
400.34	1687.53
400.54	1701.86
400.75	1761.25
400.96	1734.63
401.17	1828.84
401.37	1732.58
401.58	1708.01
401.79	1738.73
402.00	1869.80
402.21	2000.87
402.41	1982.43
402.62	2056.16
402.83	2054.11
403.04	1992.67
403.24	2117.60
403.45	1931.23
403.66	1865.70
403.87	1877.99
404.07	1910.75
404.28	1945.57
404.49	1929.19
404.70	1716.20
404.90	1724.39
405.11	1804.26
405.32	1738.73
405.52	1703.91
405.73	1652.71
405.94	1777.64
406.15	1738.73
406.35	1734.63
406.56	1767.40
406.77	1800.16
406.98	1705.96
407.18	1665.00
407.39	1763.30
407.60	1773.54
407.80	1626.09
408.01	1679.33
408.22	1763.30
408.43	1718.25
408.63	1763.30
408.84	1720.29
409.05	1773.54
409.25	1683.43
409.46	1660.90
409.67	1744.87
409.88	1703.91
410.08	1767.40
410.29	1748.97
410.50	1611.75
410.70	1675.24
410.91	1662.95
411.12	1757.16
411.32	1695.72
411.53	1714.15
411.74	1789.92
411.95	1775.59
412.15	1779.68
412.36	1742.82
412.57	1755.11
412.77	1800.16
412.98	1757.16
413.19	1685.48
413.39	1775.59
413.60	1759.21
413.81	1849.32
414.01	1587.18
414.22	1734.63
414.43	1753.06
414.63	1669.09
414.84	1812.45
415.05	1665.00
415.25	1652.71
415.46	1736.68
415.67	1669.09
415.87	1695.72
416.08	1675.24
416.29	1734.63
416.49	1761.25
416.70	1738.73
416.91	1708.01
417.11	1691.62
417.32	1755.11
417.53	1712.10
417.73	1841.12
417.94	1753.06
418.15	1683.43
418.35	1716.20
418.56	1718.25
418.77	1892.32
418.97	1685.48
419.18	1710.05
419.38	1609.70
419.59	1677.29
419.80	1769.44
420.00	1665.00
420.21	1767.40
420.42	1824.74
420.62	1767.40
420.83	1652.71
421.04	1681.38
421.24	1712.10
421.45	1779.68
421.65	1701.86
421.86	1695.72
422.07	1757.16
422.27	1710.05
422.48	1710.05
422.69	1716.20
422.89	1718.25
423.10	1708.01
423.30	1601.51
423.51	1787.88
423.72	1787.88
423.92	1718.25
424.13	1693.67
424.33	1773.54
424.54	1783.78
424.75	1734.63
424.95	1777.64
425.16	1751.01
425.36	1624.04
425.57	1773.54
425.78	1783.78
425.98	1759.21
426.19	1669.09
426.39	1589.22
426.60	1716.20
426.81	1787.88
427.01	1726.44
427.22	1693.67
427.42	1621.99
427.63	1662.95
427.83	1826.79
428.04	1822.69
428.25	1789.92
428.45	1834.98
428.66	1785.83
428.86	1671.14
429.07	1667.05
429.28	1759.21
429.48	1787.88
429.69	1662.95
429.89	1728.49
430.10	1652.71
430.30	1771.49
430.51	1804.26
430.71	1783.78
430.92	1691.62
431.13	1728.49
431.33	1742.82
431.54	1689.57
431.74	1773.54
431.95	1867.75
432.15	1583.08
432.36	1646.57
432.56	1753.06
432.77	1771.49
432.98	1763.30
433.18	1701.86
433.39	1724.39
433.59	1738.73
433.80	1800.16
434.00	1916.90
434.21	1738.73
434.41	1693.67
434.62	1849.32
434.82	1652.71
435.03	1656.81
435.23	1736.68
435.44	1652.71
435.64	1732.58
435.85	1755.11
436.06	1726.44
436.26	1834.98
436.47	1724.39
436.67	1630.18
436.88	1742.82
437.08	1720.29
437.29	1775.59
437.49	1710.05
437.70	1777.64
437.90	1748.97
438.11	1802.21
438.31	1779.68
438.52	1824.74
438.72	1910.75
438.93	1959.91
439.13	1785.83
439.34	1853.41
439.54	1757.16
439.75	1861.60
439.95	1832.93
440.16	1730.53
440.36	1761.25
440.57	1789.92
440.77	1828.84
440.98	1683.43
441.18	1722.34
441.39	1730.53
441.59	1650.66
441.80	1898.47
442.00	1744.87
442.21	1896.42
442.41	1640.42
442.62	1832.93
442.82	1789.92
443.02	1730.53
443.23	1769.44
443.43	1796.07
443.64	1785.83
443.84	1644.52
444.05	1882.08
444.25	1769.44
444.46	1742.82
444.66	1722.34
444.87	1843.17
445.07	1730.53
445.28	1753.06
445.48	1806.31
445.69	1779.68
445.89	1894.37
446.09	1812.45
446.30	1988.58
446.50	2664.41
446.71	3655.62
446.91	4327.36
447.12	4794.29
447.32	4796.34
447.53	4306.88
447.73	3901.38
447.93	3436.49
448.14	3315.66
448.34	3237.84
448.55	2861.01
448.75	2891.73
448.96	2607.06
449.16	2449.37
449.36	2222.05
449.57	2060.26
449.77	1892.32
449.98	1794.02
450.18	1873.89
450.39	1812.45
450.59	1751.01
450.79	1783.78
451.00	1755.11
451.20	1873.89
451.41	1740.77
451.61	1785.83
451.81	1765.35
452.02	1605.61
452.22	1705.96
452.43	1740.77
452.63	1656.81
452.84	1755.11
453.04	1667.05
453.24	1705.96
453.45	1687.53
453.65	1726.44
453.86	1746.92
454.06	1685.48
454.26	1740.77
454.47	1728.49
454.67	1783.78
454.87	1748.97
455.08	1751.01
455.28	1843.17
455.49	1708.01
455.69	1740.77
455.89	1882.08
456.10	1789.92
456.30	1732.58
456.51	1730.53
456.71	1783.78
456.91	1730.53
457.12	1677.29
457.32	1730.53
457.52	1695.72
457.73	1712.10
457.93	1865.70
458.14	1734.63
458.34	1699.81
458.54	1710.05
458.75	1642.47
458.95	1796.07
459.15	1746.92
459.36	1753.06
459.56	1755.11
459.76	1906.66
459.97	1796.07
460.17	1732.58
460.37	1781.73
460.58	1724.39
460.78	1712.10
460.99	1742.82
461.19	1755.11
461.39	1728.49
461.60	1734.63
461.80	1726.44
462.00	1759.21
462.21	1705.96
462.41	1755.11
462.61	1710.05
462.82	1593.32
463.02	1722.34
463.22	1712.10
463.43	1824.74
463.63	1689.57
463.83	1845.22
464.04	1740.77
464.24	1751.01
464.44	1728.49
464.64	1763.30
464.85	1804.26
465.05	1812.45
465.25	1765.35
465.46	1665.00
465.66	1789.92
465.86	1757.16
466.07	1767.40
466.27	1601.51
466.47	1703.91
466.68	1675.24
466.88	1779.68
467.08	1699.81
467.29	1730.53
467.49	1761.25
467.69	1755.11
467.89	1837.03
468.10	1765.35
468.30	1855.46
468.50	1759.21
468.71	1802.21
468.91	1687.53
469.11	1834.98
469.31	1718.25
469.52	1648.61
469.72	1839.08
469.92	1828.84
470.13	1765.35
470.33	1765.35
470.53	1859.56
470.73	2056.16
470.94	2306.01
471.14	2306.01
471.34	2506.71
471.54	2357.21
471.75	2168.80
471.95	2095.07
472.15	2115.55
472.36	2037.73
472.56	2099.17
472.76	2074.59
472.96	2041.82
473.17	1947.62
473.37	1951.71
473.57	1816.55
473.77	1810.40
473.98	1724.39
474.18	1683.43
474.38	1869.80
474.58	1683.43
474.79	1646.57
474.99	1769.44
475.19	1820.64
475.39	1794.02
475.60	1814.50
475.80	1724.39
476.00	1646.57
476.20	1751.01
476.41	1753.06
476.61	1839.08
476.81	1753.06
477.01	1624.04
477.21	1832.93
477.42	1865.70
477.62	1712.10
477.82	1751.01
478.02	1681.38
478.23	1810.40
478.43	1703.91
478.63	1716.20
478.83	1669.09
479.03	1775.59
479.24	1751.01
479.44	1847.27
479.64	1660.90
479.84	1599.46
480.04	1630.18
480.25	1771.49
480.45	1677.29
480.65	1665.00
480.85	1800.16
481.06	1763.30
481.26	1773.54
481.46	1783.78
481.66	1736.68
481.86	1642.47
482.06	1746.92
482.27	1746.92
482.47	1681.38
482.67	1718.25
482.87	1742.82
483.07	1791.97
483.28	1726.44
483.48	1675.24
483.68	1658.85
483.88	1662.95
484.08	1695.72
484.29	1654.76
484.49	1734.63
484.69	1617.90
484.89	1734.63
485.09	1753.06
485.29	1820.64
485.50	1798.12
485.70	1650.66
485.90	1871.84
486.10	1734.63
486.30	1763.30
486.50	1726.44
486.71	1810.40
486.91	1732.58
487.11	1794.02
487.31	1660.90
487.51	1779.68
487.71	1705.96
487.91	1617.90
488.12	1687.53
488.32	1617.90
488.52	1701.86
488.72	1558.50
488.92	1767.40
489.12	1787.88
489.32	1744.87
489.53	1779.68
489.73	1708.01
489.93	1857.51
490.13	1640.42
490.33	1617.90
490.53	1718.25
490.73	1769.44
490.94	1691.62
491.14	1736.68
491.34	1849.32
491.54	2123.74
491.74	2535.39
491.94	2842.58
492.14	2910.16
492.34	3043.28
492.54	2789.33
492.75	2521.05
492.95	2494.43
493.15	2355.16
493.35	2295.77
493.55	2238.43
493.75	2060.26
493.95	2103.26
494.15	1980.39
494.35	1976.29
494.56	1859.56
494.76	1806.31
494.96	1810.40
495.16	1763.30
495.36	1697.77
495.56	1773.54
495.76	1791.97
495.96	1665.00
496.16	1712.10
496.36	1820.64
496.56	1710.05
496.77	1755.11
496.97	1730.53
497.17	1742.82
497.37	1693.67
497.57	1806.31
497.77	1783.78
497.97	1675.24
498.17	1773.54
498.37	1695.72
498.57	1787.88
498.77	1767.40
498.97	1830.88
499.17	1826.79
499.38	1753.06
499.58	1775.59
499.78	1820.64
499.98	1865.70
500.18	1787.88
500.38	1744.87
500.58	1910.75
500.78	2584.54
500.98	4491.20
501.18	5871.53
501.38	6852.50
501.58	7155.60
501.78	6627.23
501.98	5425.07
502.18	4984.76
502.38	4456.38
502.58	4110.27
502.78	3739.59
502.98	3667.91
503.18	3450.83
503.38	3145.68
503.59	2895.83
503.79	2609.11
503.99	2592.73
504.19	2318.30
504.39	2320.35
504.59	2185.18
504.79	2146.27
504.99	2060.26
505.19	1914.85
505.39	1845.22
505.59	1908.71
505.79	1931.23
505.99	1877.99
506.19	1796.07
506.39	1859.56
506.59	1783.78
506.79	1798.12
506.99	1832.93
507.19	1755.11
507.39	1789.92
507.59	1648.61
507.79	1796.07
507.99	1761.25
508.19	1791.97
508.39	1714.15
508.59	1779.68
508.79	1826.79
508.99	1845.22
509.19	1658.85
509.39	1734.63
509.59	1656.81
509.79	1624.04
509.99	1693.67
510.19	1763.30
510.39	1849.32
510.59	1794.02
510.79	1761.25
510.99	1720.29
511.19	1757.16
511.39	1783.78
511.59	1802.21
511.79	1796.07
511.99	1757.16
512.19	1755.11
512.38	1722.34
512.58	1714.15
512.78	1710.05
512.98	1806.31
513.18	1820.64
513.38	1710.05
513.58	1777.64
513.78	1703.91
513.98	1798.12
514.18	1720.29
514.38	1775.59
514.58	1785.83
514.78	1738.73
514.98	1730.53
515.18	1677.29
515.38	1636.33
515.58	1806.31
515.78	1736.68
515.98	1675.24
516.18	1738.73
516.38	1771.49
516.57	1753.06
516.77	1695.72
516.97	1841.12
517.17	1619.94
517.37	1689.57
517.57	1781.73
517.77	1697.77
517.97	1708.01
518.17	1777.64
518.37	1712.10
518.57	1675.24
518.77	1724.39
518.97	1777.64
519.16	1763.30
519.36	1781.73
519.56	1732.58
519.76	1710.05
519.96	1777.64
520.16	1798.12
520.36	1607.66
520.56	1849.32
520.76	1724.39
520.96	1734.63
521.16	1769.44
521.35	1843.17
521.55	1863.65
521.75	1726.44
521.95	1730.53
522.15	1728.49
522.35	1703.91
522.55	1695.72
522.75	1834.98
522.95	1681.38
523.14	1765.35
523.34	1753.06
523.54	1660.90
523.74	1761.25
523.94	1800.16
524.14	1685.48
524.34	1761.25
524.54	1857.51
524.73	1783.78
524.93	1789.92
525.13	1802.21
525.33	1718.25
525.53	1896.42
525.73	1806.31
525.93	1734.63
526.13	1697.77
526.32	1683.43
526.52	1773.54
526.72	1861.60
526.92	1761.25
527.12	1724.39
527.32	1654.76
527.52	1738.73
527.71	1746.92
527.91	1740.77
528.11	1687.53
528.31	1748.97
528.51	1679.33
528.71	1763.30
528.90	1787.88
529.10	1820.64
529.30	1775.59
529.50	1710.05
529.70	1781.73
529.90	1787.88
530.09	1718.25
530.29	1689.57
530.49	1722.34
530.69	1908.71
530.89	1787.88
531.09	1832.93
531.28	1763.30
531.48	1812.45
531.68	1789.92
531.88	1773.54
532.08	1859.56
532.28	1830.88
532.47	1785.83
532.67	1775.59
532.87	1738.73
533.07	1695.72
533.27	1877.99
533.46	1845.22
533.66	1783.78
533.86	1734.63
534.06	1796.07
534.26	1728.49
534.45	1675.24
534.65	1765.35
534.85	1791.97
535.05	1679.33
535.25	1837.03
535.44	1669.09
535.64	1800.16
535.84	1693.67
536.04	1755.11
536.24	1714.15
536.43	1648.61
536.63	1728.49
536.83	1699.81
537.03	1765.35
537.22	1595.37
537.42	1624.04
537.62	1832.93
537.82	1675.24
538.02	1886.18
538.21	1869.80
538.41	1927.14
538.61	1804.26
538.81	1691.62
539.00	1837.03
539.20	1654.76
539.40	1638.38
539.60	1712.10
539.79	1789.92
539.99	1728.49
540.19	1773.54
540.39	1730.53
540.58	1740.77
540.78	1789.92
540.98	1748.97
541.18	1785.83
541.37	1841.12
541.57	1738.73
541.77	1746.92
541.97	1701.86
542.16	1654.76
542.36	1683.43
542.56	1808.36
542.76	1902.56
542.95	1730.53
543.15	1771.49
543.35	1824.74
543.54	1759.21
543.74	1708.01
543.94	1802.21
544.14	1691.62
544.33	1744.87
544.53	1748.97
544.73	1701.86
544.93	1738.73
545.12	1726.44
545.32	1744.87
545.52	1746.92
545.71	1734.63
545.91	1738.73
546.11	1722.34
546.30	1656.81
546.50	1775.59
546.70	1767.40
546.90	1773.54
547.09	1665.00
547.29	1714.15
547.49	1746.92
547.68	1759.21
547.88	1642.47
548.08	1710.05
548.27	2267.10
548.47	1632.23
548.67	1755.11
548.87	1740.77
549.06	1720.29
549.26	1777.64
549.46	1787.88
549.65	1679.33
549.85	1755.11
550.05	1720.29
550.24	1701.86
550.44	1742.82
550.64	1736.68
550.83	1781.73
551.03	1785.83
551.23	1742.82
551.42	1740.77
551.62	1751.01
551.82	1761.25
552.01	1746.92
552.21	1828.84
552.41	1767.40
552.60	1863.65
552.80	1753.06
553.00	1712.10
553.19	1779.68
553.39	1851.36
553.59	1656.81
553.78	1716.20
553.98	1720.29
554.17	1658.85
554.37	1798.12
554.57	1759.21
554.76	1665.00
554.96	1724.39
555.16	1824.74
555.35	1732.58
555.55	1882.08
555.75	1779.68
555.94	1718.25
556.14	1728.49
556.33	1726.44
556.53	1724.39
556.73	1794.02
556.92	1806.31
557.12	1816.55
557.32	1822.69
557.51	1787.88
557.71	1822.69
557.90	1837.03
558.10	1837.03
558.30	1681.38
558.49	1767.40
558.69	1665.00
558.88	1794.02
559.08	1761.25
559.28	1855.46
559.47	1732.58
559.67	1769.44
559.86	1877.99
560.06	1771.49
560.26	1742.82
560.45	1779.68
560.65	1771.49
560.84	1763.30
561.04	1693.67
561.24	1828.84
561.43	1636.33
561.63	1882.08
561.82	1755.11
562.02	1748.97
562.22	1697.77
562.41	1726.44
562.61	1691.62
562.80	1705.96
563.00	1880.04
563.19	1751.01
563.39	1802.21
563.59	1710.05
563.78	1728.49
563.98	1730.53
564.17	1699.81
564.37	1691.62
564.56	1738.73
564.76	1708.01
564.96	1806.31
565.15	1787.88
565.35	1939.43
565.54	1728.49
565.74	1763.30
565.93	1734.63
566.13	1775.59
566.32	1742.82
566.52	1837.03
566.71	1720.29
566.91	1787.88
567.11	1708.01
567.30	1710.05
567.50	1710.05
567.69	1746.92
567.89	1744.87
568.08	1728.49
568.28	1740.77
568.47	1718.25
568.67	1773.54
568.86	1759.21
569.06	1808.36
569.25	1748.97
569.45	1644.52
569.64	1740.77
569.84	1708.01
570.04	1740.77
570.23	1746.92
570.43	1759.21
570.62	1761.25
570.82	1812.45
571.01	1779.68
571.21	1722.34
571.40	1665.00
571.60	1665.00
571.79	1779.68
571.99	1791.97
572.18	1740.77
572.38	1722.34
572.57	1728.49
572.77	1763.30
572.96	1953.76
573.16	1798.12
573.35	1722.34
573.55	1845.22
573.74	1832.93
573.94	1757.16
574.13	1697.77
574.33	1820.64
574.52	1867.75
574.71	1714.15
574.91	1763.30
575.10	1738.73
575.30	1787.88
575.49	1701.86
575.69	1761.25
575.88	1757.16
576.08	1734.63
576.27	1804.26
576.47	1738.73
576.66	1832.93
576.86	1830.88
577.05	1755.11
577.25	1804.26
577.44	1933.28
577.64	1744.87
577.83	1736.68
578.02	1808.36
578.22	1908.71
578.41	1834.98
578.61	1798.12
578.80	1636.33
579.00	1775.59
579.19	1708.01
579.39	1796.07
579.58	1826.79
579.77	1755.11
579.97	1796.07
580.16	1822.69
580.36	1822.69
580.55	1855.46
580.75	1734.63
580.94	1697.77
581.13	1873.89
581.33	1826.79
581.52	1785.83
581.72	1898.47
581.91	1779.68
582.11	1730.53
582.30	1744.87
582.49	1798.12
582.69	1832.93
582.88	1783.78
583.08	1802.21
583.27	1769.44
583.47	1683.43
583.66	1794.02
583.85	1742.82
584.05	1767.40
584.24	1861.60
584.44	1765.35
584.63	1757.16
584.82	1773.54
585.02	1890.28
585.21	1751.01
585.41	1863.65
585.60	1890.28
585.79	1896.42
585.99	1931.23
586.18	1791.97
586.37	2244.57
586.57	3438.54
586.76	10028.90
586.96	24147.60
587.15	33986.04
587.34	39810.46
587.54	41201.04
587.73	36007.39
587.93	25628.28
588.12	21186.24
588.31	18056.94
588.51	16418.57
588.70	15038.23
588.89	13874.99
589.09	12465.99
589.28	10776.41
589.47	9252.72
589.67	7876.49
589.86	6434.72
590.06	4945.84
590.25	3796.93
590.44	3035.09
590.64	2615.26
590.83	2133.98
591.02	2117.60
591.22	1980.39
591.41	1880.04
591.60	1859.56
591.80	1978.34
591.99	1789.92
592.18	1773.54
592.38	1787.88
592.57	1718.25
592.76	1765.35
592.96	1783.78
593.15	1757.16
593.34	1791.97
593.54	1679.33
593.73	1818.60
593.92	1800.16
594.12	1779.68
594.31	1847.27
594.50	1785.83
594.70	1841.12
594.89	1886.18
595.08	1679.33
595.28	1820.64
595.47	1892.32
595.66	1843.17
595.86	1675.24
596.05	1697.77
596.24	1740.77
596.43	1867.75
596.63	1814.50
596.82	1755.11
597.01	1796.07
597.21	1839.08
597.40	1734.63
597.59	1781.73
597.79	1742.82
597.98	1791.97
598.17	1832.93
598.36	1765.35
598.56	1730.53
598.75	1714.15
598.94	1734.63
599.14	1710.05
599.33	1738.73
599.52	1789.92
599.71	1753.06
599.91	1769.44
600.10	1841.12
600.29	1816.55
600.48	1771.49
600.68	1789.92
600.87	1759.21
601.06	1748.97
601.26	1718.25
601.45	1818.60
601.64	1759.21
601.83	1800.16
602.03	1675.24
602.22	1724.39
602.41	1808.36
602.60	1796.07
602.80	1820.64
602.99	1767.40
603.18	1730.53
603.37	1759.21
603.57	1781.73
603.76	1869.80
603.95	1828.84
604.14	1712.10
604.34	1718.25
604.53	1710.05
604.72	1689.57
604.91	1769.44
605.10	1798.12
605.30	1679.33
605.49	1929.19
605.68	1822.69
605.87	1808.36
606.07	1708.01
606.26	1765.35
606.45	1708.01
606.64	1763.30
606.84	1705.96
607.03	1751.01
607.22	1744.87
607.41	1681.38
607.60	1722.34
607.80	1757.16
607.99	1730.53
608.18	1755.11
608.37	1679.33
608.56	1802.21
608.76	1812.45
608.95	1791.97
609.14	1726.44
609.33	1755.11
609.52	1822.69
609.72	1732.58
609.91	1763.30
610.10	1767.40
610.29	1771.49
610.48	1791.97
610.68	1755.11
610.87	1701.86
611.06	1783.78
611.25	1798.12
611.44	1839.08
611.63	1667.05
611.83	1837.03
612.02	1660.90
612.21	1742.82
612.40	1652.71
612.59	1726.44
612.79	1687.53
612.98	1722.34
613.17	1880.04
613.36	1718.25
613.55	1787.88
613.74	1685.48
613.93	1744.87
614.13	1775.59
614.32	1800.16
614.51	1804.26
614.70	1769.44
614.89	1652.71
615.08	1812.45
615.28	2105.31
615.47	1681.38
615.66	1724.39
615.85	1734.63
616.04	1791.97
616.23	1783.78
616.42	1742.82
616.62	1710.05
616.81	1771.49
617.00	1748.97
617.19	1853.41
617.38	1630.18
617.57	1718.25
617.76	1789.92
617.95	1753.06
618.15	1712.10
618.34	1839.08
618.53	1669.09
618.72	1837.03
618.91	1777.64
619.10	1851.36
619.29	1763.30
619.48	1787.88
619.68	1710.05
619.87	1687.53
620.06	1679.33
620.25	1789.92
620.44	1665.00
620.63	1714.15
620.82	1740.77
621.01	1689.57
621.20	1755.11
621.39	1791.97
621.59	1789.92
621.78	1673.19
621.97	1685.48
622.16	1779.68
622.35	1794.02
622.54	1767.40
622.73	1818.60
622.92	1685.48
623.11	1773.54
623.30	1718.25
623.49	1777.64
623.68	1736.68
623.88	1820.64
624.07	1691.62
624.26	1746.92
624.45	1722.34
624.64	1701.86
624.83	1716.20
625.02	1734.63
625.21	1742.82
625.40	1796.07
625.59	1841.12
625.78	1751.01
625.97	1826.79
626.16	1796.07
626.35	1812.45
626.54	1718.25
626.74	1769.44
626.93	1726.44
627.12	1714.15
627.31	1777.64
627.50	1718.25
627.69	1800.16
627.88	1652.71
628.07	1759.21
628.26	1665.00
628.45	1652.71
628.64	1734.63
628.83	1714.15
629.02	1650.66
629.21	1769.44
629.40	1843.17
629.59	1632.23
629.78	1714.15
629.97	1734.63
630.16	1779.68
630.35	1773.54
630.54	1654.76
630.73	1734.63
630.92	1693.67
631.11	1701.86
631.30	1812.45
631.49	1843.17
631.68	1804.26
631.87	1718.25
632.06	1708.01
632.25	1929.19
632.44	1746.92
632.63	1656.81
632.82	1732.58
633.01	1648.61
633.20	1705.96
633.39	1677.29
633.58	1626.09
633.77	1714.15
633.96	1796.07
634.15	1787.88
634.34	1722.34
634.53	1705.96
634.72	1691.62
634.91	1665.00
635.10	1740.77
635.29	1751.01
635.48	1744.87
635.67	1783.78
635.86	1667.05
636.05	1808.36
636.24	1695.72
636.43	1716.20
636.62	1751.01
636.81	1576.94
637.00	1757.16
637.19	1742.82
637.38	1732.58
637.57	1685.48
637.76	1675.24
637.95	1787.88
638.14	1796.07
638.33	1677.29
638.52	1730.53
638.71	1669.09
638.89	1697.77
639.08	1904.61
639.27	1730.53
639.46	1642.47
639.65	1767.40
639.84	1708.01
640.03	1705.96
640.22	1796.07
640.41	1824.74
640.60	1738.73
640.79	1730.53
640.98	1767.40
641.17	1748.97
641.36	1738.73
641.55	1751.01
641.74	1656.81
641.92	1710.05
642.11	1654.76
642.30	1748.97
642.49	1695.72
642.68	1716.20
642.87	1796.07
643.06	1779.68
643.25	1665.00
643.44	1695.72
643.63	1732.58
643.82	1746.92
644.00	1665.00
644.19	1732.58
644.38	1687.53
644.57	1779.68
644.76	1765.35
644.95	1722.34
645.14	1728.49
645.33	1652.71
645.52	1701.86
645.71	1624.04
645.89	1636.33
646.08	1673.19
646.27	1767.40
646.46	1816.55
646.65	1687.53
646.84	1705.96
647.03	1734.63
647.22	1769.44
647.40	1757.16
647.59	1699.81
647.78	1617.90
647.97	1697.77
648.16	1671.14
648.35	1796.07
648.54	1818.60
648.73	1751.01
648.91	1771.49
649.10	1718.25
649.29	1695.72
649.48	1738.73
649.67	1646.57
649.86	1697.77
650.05	1773.54
650.23	1777.64
650.42	1679.33
650.61	1787.88
650.80	1751.01
650.99	1841.12
651.18	1857.51
651.36	1724.39
651.55	1730.53
651.74	1744.87
651.93	1640.42
652.12	1724.39
652.31	1716.20
652.49	1654.76
652.68	1746.92
652.87	1845.22
653.06	1718.25
653.25	1806.31
653.44	1720.29
653.62	1734.63
653.81	1687.53
654.00	1787.88
654.19	1783.78
654.38	1849.32
654.56	1775.59
654.75	1763.30
654.94	1777.64
655.13	1759.21
655.32	1736.68
655.51	1826.79
655.69	1636.33
655.88	1794.02
656.07	1703.91
656.26	1734.63
656.45	1695.72
656.63	1728.49
656.82	1816.55
657.01	1800.16
657.20	1720.29
657.38	1779.68
657.57	1695.72
657.76	1689.57
657.95	1800.16
658.14	1714.15
658.32	1744.87
658.51	1695.72
658.70	1759.21
658.89	1810.40
659.08	1703.91
659.26	1794.02
659.45	1669.09
659.64	1683.43
659.83	1691.62
660.01	1886.18
660.20	1783.78
660.39	1802.21
660.58	1562.60
660.76	1787.88
660.95	1693.67
661.14	1730.53
661.33	1642.47
661.51	1712.10
661.70	1691.62
661.89	1789.92
662.08	1748.97
662.26	1570.79
662.45	1648.61
662.64	1830.88
662.83	1763.30
663.01	1626.09
663.20	1683.43
663.39	1705.96
663.58	1742.82
663.76	1718.25
663.95	1775.59
664.14	1640.42
664.32	1687.53
664.51	1669.09
664.70	1689.57
664.89	1757.16
665.07	1632.23
665.26	1775.59
665.45	1681.38
665.64	1789.92
665.82	1736.68
666.01	1775.59
666.20	1710.05
666.38	1822.69
666.57	1847.27
666.76	2119.65
666.95	4495.29
667.13	10291.04
667.32	14952.22
667.51	17667.83
667.69	18941.66
667.88	17377.01
668.07	12199.75
668.25	9461.62
668.44	8042.37
668.63	7243.67
668.81	6725.53
669.00	6199.20
669.19	5439.40
669.38	5132.21
669.56	4511.68
669.75	4042.69
669.94	3495.88
670.12	2846.68
670.31	2510.81
670.50	2295.77
670.68	2097.12
670.87	1959.91
671.06	1882.08
671.24	1808.36
671.43	1910.75
671.62	1759.21
671.80	1683.43
671.99	1730.53
672.18	1748.97
672.36	1779.68
672.55	1736.68
672.74	1665.00
672.92	1669.09
673.11	1722.34
673.29	1646.57
673.48	1789.92
673.67	1753.06
673.85	1751.01
674.04	1697.77
674.23	1789.92
674.41	1851.36
674.60	1673.19
674.79	1554.41
674.97	1685.48
675.16	1734.63
675.34	1771.49
675.53	1667.05
675.72	1718.25
675.90	1767.40
676.09	1720.29
676.28	1687.53
676.46	1728.49
676.65	1771.49
676.83	1656.81
677.02	1761.25
677.21	1771.49
677.39	1724.39
677.58	1755.11
677.77	1775.59
677.95	1800.16
678.14	1701.86
678.32	1697.77
678.51	1693.67
678.70	1812.45
678.88	1718.25
679.07	1714.15
679.25	1732.58
679.44	1779.68
679.63	1689.57
679.81	1751.01
680.00	1720.29
680.18	1787.88
680.37	1834.98
680.55	1718.25
680.74	1628.14
680.93	1640.42
681.11	1763.30
681.30	1824.74
681.48	1761.25
681.67	1730.53
681.85	1691.62
682.04	1742.82
682.23	1644.52
682.41	1730.53
682.60	1744.87
682.78	1708.01
682.97	1665.00
683.15	1705.96
683.34	1628.14
683.53	1779.68
683.71	1626.09
683.90	1818.60
684.08	1753.06
684.27	1703.91
684.45	1701.86
684.64	1800.16
684.82	1656.81
685.01	1665.00
685.19	1755.11
685.38	1740.77
685.57	1775.59
685.75	1701.86
685.94	1769.44
686.12	1687.53
686.31	1677.29
686.49	1818.60
686.68	1611.75
686.86	1804.26
687.05	1708.01
687.23	1820.64
687.42	1718.25
687.60	1634.28
687.79	1769.44
687.97	1816.55
688.16	1779.68
688.34	1785.83
688.53	1673.19
688.71	1728.49
688.90	1816.55
689.08	1771.49
689.27	1632.23
689.45	1710.05
689.64	1759.21
689.82	1726.44
690.01	1783.78
690.19	1734.63
690.38	1732.58
690.56	1763.30
690.75	1740.77
690.93	1759.21
691.12	1726.44
691.30	1699.81
691.49	1693.67
691.67	1732.58
691.86	1814.50
692.04	1593.32
692.23	1773.54
692.41	1710.05
692.60	1808.36
692.78	1710.05
692.97	1667.05
693.15	1685.48
693.34	1798.12
693.52	1798.12
693.71	1736.68
693.89	1781.73
694.08	1644.52
694.26	1837.03
694.44	1837.03
694.63	1755.11
694.81	1599.46
695.00	1724.39
695.18	1875.94
695.37	1798.12
695.55	1710.05
695.74	1701.86
695.92	1656.81
696.10	1787.88
696.29	1669.09
696.47	1646.57
696.66	1685.48
696.84	1671.14
697.03	1710.05
697.21	1814.50
697.40	2256.86
697.58	1800.16
697.76	1658.85
697.95	1705.96
698.13	1640.42
698.32	1738.73
698.50	1712.10
698.68	1701.86
698.87	1757.16
699.05	1845.22
699.24	1734.63
699.42	1689.57
699.61	1681.38
699.79	1734.63
699.97	1746.92
700.16	1718.25
700.34	1708.01
700.53	1722.34
700.71	1841.12
700.89	1732.58
701.08	1691.62
701.26	1722.34
701.45	2054.11
701.63	1673.19
701.81	1675.24
702.00	1630.18
702.18	1689.57
702.37	1660.90
702.55	1755.11
702.73	1710.05
702.92	1695.72
703.10	1708.01
703.28	1710.05
703.47	1634.28
703.65	1736.68
703.84	1755.11
704.02	1712.10
704.20	1826.79
704.39	1716.20
704.57	1730.53
704.75	1763.30
704.94	1697.77
705.12	1789.92
705.30	1861.60
705.49	2222.05
705.67	4341.69
705.86	9342.83
706.04	12205.89
706.22	14200.62
706.41	14921.50
706.59	13389.62
706.77	9279.35
706.96	7288.72
707.14	6539.16
707.32	5885.86
707.51	5500.84
707.69	4868.02
707.87	4048.83
708.06	3422.16
708.24	2928.60
708.42	2455.51
708.61	2240.48
708.79	1853.41
708.97	1867.75
709.16	1820.64
709.34	1695.72
709.52	1705.96
709.71	1794.02
709.89	1751.01
710.07	1691.62
710.26	1685.48
710.44	1775.59
710.62	1791.97
710.80	1708.01
710.99	1789.92
711.17	1802.21
711.35	1646.57
711.54	1660.90
711.72	1746.92
711.90	1693.67
712.09	1748.97
712.27	1738.73
712.45	1730.53
712.63	1656.81
712.82	1667.05
713.00	1787.88
713.18	1855.46
713.37	1732.58
713.55	1763.30
713.73	1757.16
713.91	1771.49
714.10	1660.90
714.28	1701.86
714.46	1746.92
714.65	1794.02
714.83	1830.88
715.01	1761.25
715.19	1730.53
715.38	1648.61
715.56	1734.63
715.74	1683.43
715.92	1685.48
716.11	1783.78
716.29	1599.46
716.47	1736.68
716.65	1751.01
716.84	1675.24
717.02	1802.21
717.20	1599.46
717.38	1660.90
717.57	1656.81
717.75	1689.57
717.93	1705.96
718.11	1748.97
718.30	1669.09
718.48	1708.01
718.66	1824.74
718.84	1673.19
719.03	1665.00
719.21	1634.28
719.39	1834.98
719.57	1781.73
719.75	1744.87
719.94	1650.66
720.12	1681.38
720.30	1714.15
720.48	1742.82
720.67	1669.09
720.85	1701.86
721.03	1681.38
721.21	1609.70
721.39	1724.39
721.58	1775.59
721.76	1675.24
721.94	1728.49
722.12	1728.49
722.30	1892.32
722.49	1714.15
722.67	1730.53
722.85	1732.58
723.03	1638.38
723.21	1693.67
723.40	1714.15
723.58	1763.30
723.76	1697.77
723.94	1748.97
724.12	1742.82
724.30	1712.10
724.49	1746.92
724.67	1615.85
724.85	1791.97
725.03	1640.42
725.21	1705.96
725.40	1785.83
725.58	1687.53
725.76	1757.16
725.94	1753.06
726.12	1679.33
726.30	1738.73
726.49	1732.58
726.67	1699.81
726.85	1718.25
727.03	1794.02
727.21	2125.79
727.39	2973.65
727.57	3770.31
727.76	4171.71
727.94	4444.09
728.12	4337.60
728.30	3647.43
728.48	2901.97
728.66	2699.22
728.84	2547.67
729.03	2201.57
729.21	2125.79
729.39	1968.10
729.57	1839.08
729.75	1779.68
729.93	1916.90
730.11	1644.52
730.30	1744.87
730.48	1771.49
730.66	1812.45
730.84	1787.88
731.02	1691.62
731.20	1730.53
731.38	1769.44
731.56	1701.86
731.74	1708.01
731.93	1681.38
732.11	1753.06
732.29	1804.26
732.47	1775.59
732.65	1781.73
732.83	1804.26
733.01	1779.68
733.19	1703.91
733.37	1757.16
733.56	1728.49
733.74	1712.10
733.92	1757.16
734.10	1628.14
734.28	1703.91
734.46	1689.57
734.64	1697.77
734.82	1738.73
735.00	1753.06
735.18	1634.28
735.36	1740.77
735.54	1763.30
735.73	1773.54
735.91	1753.06
736.09	1796.07
736.27	1601.51
736.45	1759.21
736.63	1564.65
736.81	1708.01
736.99	1740.77
737.17	1802.21
737.35	1742.82
737.53	1751.01
737.71	1691.62
737.89	1812.45
738.07	1669.09
738.25	1595.37
738.43	1679.33
738.61	1679.33
738.80	1710.05
738.98	1650.66
739.16	1662.95
739.34	1611.75
739.52	1771.49
739.70	1628.14
739.88	1734.63
740.06	1796.07
740.24	1570.79
740.42	1800.16
740.60	1615.85
740.78	1718.25
740.96	1558.50
741.14	1642.47
741.32	1738.73
741.50	1648.61
741.68	1882.08
741.86	1826.79
742.04	1763.30
742.22	1662.95
742.40	1701.86
742.58	1689.57
742.76	1665.00
742.94	1773.54
743.12	1607.66
743.30	1693.67
743.48	1714.15
743.66	1708.01
743.84	1718.25
744.02	1667.05
744.20	1736.68
744.38	1703.91
744.56	1662.95
744.74	1853.41
744.92	1822.69
745.10	1771.49
745.28	1834.98
745.46	1755.11
745.64	1689.57
745.82	1724.39
746.00	1714.15
746.18	1816.55
746.36	1763.30
746.54	1736.68
746.72	1705.96
746.90	1634.28
747.08	1736.68
747.26	1646.57
747.44	1748.97
747.62	1714.15
747.80	1712.10
747.98	1697.77
748.15	1724.39
748.33	1845.22
748.51	1726.44
748.69	1796.07
748.87	1689.57
749.05	1693.67
749.23	1705.96
749.41	1751.01
749.59	1710.05
749.77	1791.97
749.95	1632.23
750.13	1687.53
750.31	1828.84
750.49	1648.61
750.67	1771.49
750.85	1816.55
751.03	1771.49
751.20	1785.83
751.38	1726.44
751.56	1673.19
751.74	1722.34
751.92	1732.58
752.10	1673.19
752.28	1830.88
752.46	1732.58
752.64	1703.91
752.82	1708.01
753.00	1853.41
753.18	1724.39
753.35	1746.92
753.53	1638.38
753.71	1634.28
753.89	1810.40
754.07	1742.82
754.25	1822.69
754.43	1722.34
754.61	1685.48
754.79	1701.86
754.97	1730.53
755.14	1734.63
755.32	1634.28
755.50	1781.73
755.68	1679.33
755.86	1665.00
756.04	1624.04
756.22	1566.70
756.40	1847.27
756.57	1808.36
756.75	1667.05
756.93	1736.68
757.11	1791.97
757.29	1687.53
757.47	1708.01
757.65	1628.14
757.82	1554.41
758.00	1665.00
758.18	1695.72
758.36	1638.38
758.54	1787.88
758.72	1660.90
758.90	1765.35
759.07	1828.84
759.25	1740.77
759.43	1691.62
759.61	1740.77
759.79	2265.05
759.97	1816.55
760.15	1693.67
760.32	1669.09
760.50	1740.77
760.68	1845.22
760.86	1656.81
761.04	1736.68
761.22	1753.06
761.39	1697.77
761.57	1755.11
761.75	1755.11
761.93	1777.64
762.11	1720.29
762.28	1740.77
762.46	1646.57
762.64	1740.77
762.82	1650.66
763.00	1718.25
763.18	1746.92
763.35	1671.14
763.53	1732.58
763.71	1726.44
763.89	1746.92
764.07	1685.48
764.24	1728.49
764.42	1689.57
764.60	1693.67
764.78	1748.97
764.96	1746.92
765.13	1746.92
765.31	1660.90
765.49	1789.92
765.67	1632.23
765.84	1660.90
766.02	1787.88
766.20	1609.70
766.38	1789.92
766.56	1646.57
766.73	1738.73
766.91	1693.67
767.09	1699.81
767.27	1816.55
767.44	1705.96
767.62	1728.49
767.80	1716.20
767.98	1718.25
768.15	1736.68
768.33	1767.40
768.51	1779.68
768.69	1755.11
768.87	1732.58
769.04	1701.86
769.22	1794.02
769.40	1753.06
769.58	1814.50
769.75	1697.77
769.93	1789.92
770.11	1660.90
770.28	1601.51
770.46	1730.53
770.64	1671.14
770.82	1701.86
770.99	1687.53
771.17	1726.44
771.35	1689.57
771.53	1791.97
771.70	1636.33
771.88	1665.00
772.06	1705.96
772.23	1730.53
772.41	1755.11
772.59	1734.63
772.77	1685.48
772.94	1781.73
773.12	1757.16
773.30	1636.33
773.47	1667.05
773.65	1705.96
773.83	1800.16
774.01	1660.90
774.18	1562.60
774.36	1744.87
774.54	1660.90
774.71	1777.64
774.89	1681.38
775.07	1591.27
775.24	1665.00
775.42	1650.66
775.60	1785.83
775.78	1662.95
775.95	1730.53
776.13	1597.42
776.31	1609.70
776.48	1767.40
776.66	1718.25
776.84	1652.71
777.01	1689.57
777.19	1624.04
777.37	1669.09
777.54	1746.92
777.72	1794.02
777.90	1761.25
778.07	1697.77
778.25	1890.28
778.43	1705.96
778.60	1730.53
778.78	1673.19
778.96	1738.73
779.13	1689.57
779.31	1777.64
779.49	1720.29
779.66	1701.86
779.84	1679.33
780.01	1685.48
780.19	1751.01
780.37	1894.37
780.54	1726.44
780.72	1701.86
780.90	1665.00
781.07	1753.06
781.25	1689.57
781.43	1716.20
781.60	1665.00
781.78	1814.50
781.95	1763.30
782.13	1652.71
782.31	1708.01
782.48	1603.56
782.66	1753.06
782.83	1894.37
783.01	1748.97
783.19	1771.49
783.36	1742.82
783.54	1697.77
783.72	1708.01
783.89	1677.29
784.07	1726.44
784.24	1712.10
784.42	1769.44
784.60	1632.23
784.77	1783.78
784.95	1540.07
785.12	1683.43
785.30	1679.33
785.47	1656.81
785.65	1658.85
785.83	1699.81
786.00	1763.30
786.18	1796.07
786.35	1609.70
786.53	1628.14
786.71	1726.44
786.88	1761.25
787.06	1734.63
787.23	1781.73
787.41	1636.33
787.58	1689.57
787.76	1683.43
787.94	1740.77
788.11	1703.91
788.29	1779.68
788.46	1667.05
788.64	1568.74
788.81	1699.81
788.99	1609.70
789.16	1679.33
789.34	1730.53
789.52	1665.00
789.69	1652.71
789.87	1626.09
790.04	1681.38
790.22	1691.62
790.39	1767.40
790.57	1638.38
790.74	1693.67
790.92	1708.01
791.09	1566.70
791.27	1769.44
791.44	1773.54
791.62	1617.90
791.79	1839.08
791.97	1665.00
792.15	1884.13
792.32	1734.63
792.50	1775.59
792.67	1787.88
792.85	1769.44
793.02	1669.09
793.20	1712.10
793.37	1593.32
793.55	1712.10
793.72	1658.85
793.90	1710.05
794.07	1685.48
794.25	1701.86
794.42	1656.81
794.60	1652.71
794.77	1800.16
794.95	1667.05
795.12	1697.77
795.30	1658.85
795.47	1640.42
795.65	1816.55
795.82	1701.86
796.00	1667.05
796.17	1705.96
796.34	1644.52
796.52	1714.15
796.69	1816.55
796.87	1695.72
797.04	1687.53
797.22	1777.64
797.39	1701.86
797.57	1826.79
797.74	1726.44
797.92	1710.05
798.09	1683.43
798.27	1748.97
798.44	1705.96
798.62	1689.57
798.79	1636.33
798.96	1705.96
799.14	1722.34
799.31	1882.08
799.49	1677.29
799.66	1689.57
799.84	1724.39
800.01	1607.66
800.19	1748.97
800.36	1648.61
800.53	1705.96
800.71	1701.86
800.88	1787.88
801.06	1660.90
801.23	1738.73
801.41	1753.06
801.58	1724.39
801.75	1646.57
801.93	1751.01
802.10	1759.21
802.28	1632.23
802.45	1708.01
802.63	1753.06
802.80	1753.06
802.97	1722.34
803.15	1775.59
803.32	1701.86
803.50	1687.53
803.67	1775.59
803.84	1607.66
804.02	1761.25
804.19	1720.29
804.37	1552.36
804.54	1634.28
804.71	1714.15
804.89	1671.14
805.06	1632.23
805.24	1652.71
805.41	1705.96
805.58	1609.70
805.76	1853.41
805.93	1691.62
806.10	1832.93
806.28	1718.25
806.45	1724.39
806.63	1777.64
806.80	1730.53
806.97	1724.39
807.15	1679.33
807.32	1675.24
807.49	1681.38
807.67	1644.52
807.84	1783.78
808.01	1634.28
808.19	1759.21
808.36	1855.46
808.54	1615.85
808.71	1632.23
808.88	1746.92
809.06	1755.11
809.23	1796.07
809.40	1658.85
809.58	1816.55
809.75	1773.54
809.92	1632.23
810.10	1798.12
810.27	1734.63
810.44	1705.96
810.62	1701.86
810.79	1699.81
810.96	1595.37
811.14	1667.05
811.31	1701.86
811.48	1730.53
811.66	1738.73
811.83	1779.68
812.00	1738.73
812.18	1724.39
812.35	1808.36
812.52	1726.44
812.69	1701.86
812.87	1738.73
813.04	1689.57
813.21	1652.71
813.39	1673.19
813.56	1619.94
813.73	1703.91
813.91	1572.84
814.08	1730.53
814.25	1810.40
814.42	1662.95
814.60	1763.30
814.77	1710.05
814.94	1728.49
815.12	1812.45
815.29	1796.07
815.46	1683.43
815.63	1738.73
815.81	1722.34
815.98	1660.90
816.15	1757.16
816.33	1710.05
816.50	1724.39
816.67	1687.53
816.84	1662.95
817.02	1673.19
817.19	1665.00
817.36	1777.64
817.53	1783.78
817.71	1722.34
817.88	1789.92
818.05	1716.20
818.22	1734.63
818.40	1800.16
818.57	1621.99
818.74	1691.62
818.91	1775.59
819.09	1732.58
819.26	1736.68
819.43	1624.04
819.60	1712.10
819.78	1753.06
819.95	1814.50
820.12	1683.43
820.29	1779.68
820.47	1783.78
820.64	1701.86
820.81	1681.38
820.98	1619.94
821.15	1794.02
821.33	1730.53
821.50	1587.18
821.67	1755.11
821.84	1644.52
822.02	1730.53
822.19	1701.86
822.36	1681.38
822.53	1650.66
822.70	1595.37
822.88	1662.95
823.05	1724.39
823.22	1740.77
823.39	1777.64
823.56	1660.90
823.74	1757.16
823.91	1687.53
824.08	1671.14
824.25	1656.81
824.42	1785.83
824.60	1613.80
824.77	1767.40
824.94	1646.57
825.11	1720.29
825.28	1587.18
825.45	1777.64
825.63	1734.63
825.80	1660.90
825.97	1742.82
826.14	1699.81
826.31	1560.55
826.48	1722.34
826.66	1535.98
826.83	1671.14
827.00	1671.14
827.17	1683.43
827.34	1683.43
827.51	1685.48
827.69	1710.05
827.86	1652.71
828.03	1767.40
828.20	1751.01
828.37	1705.96
828.54	1738.73
828.71	1648.61
828.89	1812.45
829.06	1798.12
829.23	1820.64
829.40	1681.38
829.57	1708.01
829.74	1763.30
829.91	1728.49
830.09	1710.05
830.26	1691.62
830.43	1738.73
830.60	1714.15
830.77	1748.97
830.94	1779.68
831.11	1810.40
831.28	1691.62
831.46	1783.78
831.63	1632.23
831.80	1701.86
831.97	1703.91
832.14	1673.19
832.31	1798.12
832.48	1689.57
832.65	1767.40
832.82	1683.43
832.99	1722.34
833.17	1689.57
833.34	1798.12
833.51	1771.49
833.68	1607.66
833.85	1796.07
834.02	1712.10
834.19	1578.98
834.36	1751.01
834.53	1746.92
834.70	1781.73
834.87	1697.77
835.04	1744.87
835.22	1648.61
835.39	1771.49
835.56	1677.29
835.73	1699.81
835.90	1718.25
836.07	1673.19
836.24	1783.78
836.41	1609.70
836.58	1650.66
836.75	1755.11
836.92	1685.48
837.09	1693.67
837.26	1697.77
837.43	1710.05
837.60	1728.49
837.77	1677.29
837.94	1705.96
838.12	1779.68
838.29	1751.01
838.46	1632.23
838.63	1630.18
838.80	1857.51
838.97	1796.07
839.14	1777.64
839.31	1689.57
839.48	1722.34
839.65	1689.57
839.82	1748.97
839.99	1687.53
840.16	1718.25
840.33	1728.49
840.50	1685.48
840.67	1636.33
840.84	1697.77
841.01	1734.63
841.18	1632.23
841.35	1689.57
841.52	1724.39
841.69	1800.16
841.86	1615.85
842.03	1703.91
842.20	1732.58
842.37	1689.57
842.54	1640.42
842.71	1753.06
842.88	1644.52
843.05	1794.02
843.22	1679.33
843.39	1814.50
843.56	1691.62
843.73	1732.58
843.90	1783.78
844.07	1669.09
844.24	1746.92
844.41	1800.16
844.58	1744.87
844.75	1781.73
844.92	1658.85
845.09	1630.18
845.26	1722.34
845.43	1691.62
845.60	1738.73
845.77	1812.45
845.94	1714.15
846.10	1671.14
846.27	1607.66
846.44	1636.33
846.61	1708.01
846.78	1759.21
846.95	1781.73
847.12	1646.57
847.29	1675.24
847.46	1671.14
847.63	1759.21
847.80	1705.96
847.97	1658.85
848.14	1802.21
848.31	1751.01
848.48	1665.00
848.65	1755.11
848.82	1677.29
848.98	1863.65
849.15	1789.92
849.32	1769.44
849.49	1777.64
849.66	1705.96
849.83	1714.15
850.00	1624.04
850.17	1726.44
850.34	1748.97
850.51	1685.48
850.68	1685.48
850.85	1851.36
851.01	1736.68
851.18	1773.54
851.35	1667.05
851.52	1613.80
851.69	1712.10
851.86	1636.33
852.03	1718.25
852.20	1724.39
852.37	1716.20
852.53	1636.33
852.70	1740.77
852.87	1714.15
853.04	1718.25
853.21	1697.77
853.38	1789.92
853.55	1720.29
853.72	1763.30
853.89	1667.05
854.05	1662.95
854.22	1738.73
854.39	1720.29
854.56	1744.87
854.73	1767.40
854.90	1644.52
855.07	1718.25
855.23	1736.68
855.40	1689.57
855.57	1671.14
855.74	1611.75
855.91	1841.12
856.08	1634.28
856.25	1652.71
856.41	1697.77
856.58	1730.53
856.75	1716.20
856.92	1609.70
857.09	1738.73
857.26	1570.79
857.42	1751.01
857.59	1732.58
857.76	1705.96
857.93	1730.53
858.10	1751.01
858.27	1632.23
858.43	1730.53
858.60	1734.63
858.77	1611.75
858.94	1675.24
859.11	1847.27
859.27	1630.18
859.44	1652.71
859.61	1841.12
859.78	1716.20
859.95	1642.47
860.12	1669.09
860.28	1843.17
860.45	1832.93
860.62	1695.72
860.79	1677.29
860.95	1660.90
861.12	1681.38
861.29	1624.04
861.46	1621.99
861.63	1708.01
861.79	1708.01
861.96	1640.42
862.13	1703.91
862.30	1757.16
862.47	1693.67
862.63	1611.75
862.80	1804.26
862.97	1828.84
863.14	1746.92
863.30	1699.81
863.47	1742.82
863.64	1697.77
863.81	1738.73
863.97	1654.76
864.14	1771.49
864.31	1720.29
864.48	1656.81
864.65	1714.15
864.81	1767.40
864.98	1736.68
865.15	1701.86
865.32	1748.97
865.48	1791.97
865.65	1779.68
865.82	1722.34
865.98	1720.29
866.15	1759.21
866.32	1681.38
866.49	1681.38
866.65	1796.07
866.82	1673.19
866.99	1724.39
867.16	1673.19
867.32	1718.25
867.49	1720.29
867.66	1718.25
867.83	1691.62
867.99	1662.95
868.16	1681.38
868.33	1615.85
868.49	1673.19
868.66	1632.23
868.83	1730.53
868.99	1705.96
869.16	1779.68
869.33	1751.01
869.50	1796.07
869.66	1681.38
869.83	1763.30
870.00	1626.09
870.16	1763.30
870.33	1763.30
870.50	1847.27
870.66	1658.85
870.83	1802.21
871.00	1697.77
871.17	1744.87
871.33	1746.92
871.50	1716.20
871.67	1656.81
871.83	1642.47
872.00	1767.40
872.17	1722.34
872.33	1783.78
872.50	1867.75
872.67	1662.95
872.83	1669.09
873.00	1767.40
873.17	1615.85
873.33	1683.43
873.50	1736.68
873.67	1730.53
873.83	1619.94
874.00	1685.48
874.16	1826.79
874.33	1742.82
874.50	1683.43
874.66	1800.16
874.83	1726.44
875.00	1777.64
875.16	1751.01
875.33	1771.49
875.50	1640.42
875.66	1619.94
875.83	1634.28
875.99	1753.06
876.16	1660.90
876.33	1669.09
876.49	1699.81
876.66	1806.31
876.83	1671.14
876.99	1648.61
877.16	1714.15
877.32	1726.44
877.49	1685.48
877.66	1644.52
877.82	1804.26
877.99	1791.97
878.15	1728.49
878.32	1695.72
878.49	1794.02
878.65	1701.86
878.82	1732.58
878.98	1724.39
879.15	1810.40
879.32	1703.91
879.48	1705.96
879.65	1691.62
879.81	1683.43
879.98	1734.63
880.15	1699.81
880.31	1683.43
880.48	1673.19
880.64	1730.53
880.81	1687.53
880.97	1804.26
881.14	1761.25
881.31	1732.58
881.47	1806.31
881.64	1730.53
881.80	1687.53
881.97	1730.53
882.13	1720.29
882.30	1626.09
882.47	1677.29
882.63	1632.23
882.80	1755.11
882.96	1665.00
883.13	1763.30
883.29	1697.77
883.46	1714.15
883.62	1757.16
883.79	1697.77
883.95	1697.77
884.12	1714.15
884.29	1777.64
884.45	1738.73
884.62	1746.92
884.78	1638.38
884.95	1712.10
885.11	1705.96
885.28	1755.11
885.44	1642.47
885.61	1708.01
885.77	1828.84
885.94	1681.38
886.10	1714.15
886.27	1652.71
886.43	1826.79
886.60	1755.11
886.76	1691.62
886.93	1644.52
887.09	1728.49
887.26	1677.29
887.42	1808.36
887.59	1732.58
887.75	1853.41
887.92	1763.30
888.08	1697.77
888.25	1802.21
888.41	1787.88
888.58	1734.63
888.74	1697.77
888.91	1730.53
>>>>>End Processed Spectral Data<<<<<
