SpectraSuite Data File
++++++++++++++++++++++++++++++++++++
Date: Mon Jun 06 14:36:57 CEST 2016
User: root
Dark Spectrum Present: No
Reference Spectrum Present: No
Number of Sampled Component Spectra: 1
Spectrometers: USB4C02835
Integration Time (usec): 100000 (USB4C02835)
Spectra Averaged: 1 (USB4C02835)
Boxcar Smoothing: 0 (USB4C02835)
Correct for Electrical Dark: No (USB4C02835)
Strobe/Lamp Enabled: No (USB4C02835)
Correct for Detector Non-linearity: No (USB4C02835)
Correct for Stray Light: No (USB4C02835)
Number of Pixels in Processed Spectrum: 3648
>>>>>Begin Processed Spectral Data<<<<<
177.47	1484.78
177.69	1484.78
177.91	1484.78
178.13	1482.73
178.36	1384.43
178.58	1544.17
178.80	1740.77
179.02	1603.56
179.24	1583.08
179.46	1748.97
179.68	1759.21
179.90	1624.04
180.13	1710.05
180.35	1744.87
180.57	1710.05
180.79	1714.15
181.01	1808.36
181.23	1826.79
181.45	1796.07
181.67	1710.05
181.90	1742.82
182.12	1640.42
182.34	1697.77
182.56	1671.14
182.78	1640.42
183.00	1693.67
183.22	1671.14
183.44	1605.61
183.66	1820.64
183.89	1779.68
184.11	1697.77
184.33	1708.01
184.55	1773.54
184.77	1708.01
184.99	1708.01
185.21	1644.52
185.43	1830.88
185.65	1648.61
185.87	1751.01
186.10	1804.26
186.32	1902.56
186.54	1839.08
186.76	1740.77
186.98	1701.86
187.20	1650.66
187.42	1691.62
187.64	1759.21
187.86	1724.39
188.08	1748.97
188.30	1802.21
188.52	1640.42
188.75	1802.21
188.97	1718.25
189.19	1673.19
189.41	1705.96
189.63	1734.63
189.85	1644.52
190.07	1712.10
190.29	1576.94
190.51	1712.10
190.73	1605.61
190.95	1800.16
191.17	1652.71
191.39	1636.33
191.61	1617.90
191.84	1615.85
192.06	1744.87
192.28	1650.66
192.50	1873.89
192.72	1705.96
192.94	1705.96
193.16	1863.65
193.38	1785.83
193.60	1638.38
193.82	1722.34
194.04	1720.29
194.26	1736.68
194.48	1685.48
194.70	1644.52
194.92	1624.04
195.14	1789.92
195.36	1640.42
195.58	1724.39
195.80	1732.58
196.02	1718.25
196.24	1701.86
196.46	1767.40
196.69	1638.38
196.91	1843.17
197.13	1714.15
197.35	1638.38
197.57	1736.68
197.79	1777.64
198.01	1724.39
198.23	1748.97
198.45	1714.15
198.67	1634.28
198.89	1691.62
199.11	1691.62
199.33	1736.68
199.55	1564.65
199.77	1705.96
199.99	1742.82
200.21	1677.29
200.43	1742.82
200.65	1669.09
200.87	1589.22
201.09	1677.29
201.31	1656.81
201.53	1703.91
201.75	1724.39
201.97	1734.63
202.19	1705.96
202.41	1775.59
202.63	1767.40
202.85	1619.94
203.07	1724.39
203.29	1693.67
203.51	1619.94
203.73	1652.71
203.95	1867.75
204.17	1669.09
204.39	1818.60
204.61	1710.05
204.83	1677.29
205.05	1732.58
205.27	1708.01
205.49	1820.64
205.71	1667.05
205.93	1644.52
206.15	1619.94
206.37	1673.19
206.59	1599.46
206.81	1656.81
207.03	1722.34
207.25	1646.57
207.47	1755.11
207.69	1685.48
207.91	1787.88
208.13	1765.35
208.34	1689.57
208.56	1640.42
208.78	1775.59
209.00	1656.81
209.22	1697.77
209.44	1841.12
209.66	1646.57
209.88	1748.97
210.10	1697.77
210.32	1636.33
210.54	1841.12
210.76	1718.25
210.98	1734.63
211.20	1605.61
211.42	1632.23
211.64	1775.59
211.86	1691.62
212.08	1746.92
212.30	1617.90
212.52	1675.24
212.74	1705.96
212.96	1785.83
213.17	1730.53
213.39	1818.60
213.61	1767.40
213.83	1708.01
214.05	1632.23
214.27	1675.24
214.49	1550.31
214.71	1681.38
214.93	1791.97
215.15	1728.49
215.37	1656.81
215.59	1560.55
215.81	1755.11
216.03	1746.92
216.24	1722.34
216.46	1720.29
216.68	1619.94
216.90	1746.92
217.12	1705.96
217.34	1724.39
217.56	1767.40
217.78	1755.11
218.00	1755.11
218.22	1675.24
218.44	1757.16
218.66	1757.16
218.87	1730.53
219.09	1560.55
219.31	1681.38
219.53	1755.11
219.75	1705.96
219.97	1708.01
220.19	1697.77
220.41	1703.91
220.63	1824.74
220.85	1708.01
221.06	1652.71
221.28	1773.54
221.50	1734.63
221.72	1685.48
221.94	1697.77
222.16	1710.05
222.38	1755.11
222.60	1738.73
222.82	1677.29
223.03	1685.48
223.25	1675.24
223.47	1726.44
223.69	1839.08
223.91	1757.16
224.13	1669.09
224.35	1677.29
224.57	1744.87
224.78	1769.44
225.00	1656.81
225.22	1658.85
225.44	1771.49
225.66	1748.97
225.88	1576.94
226.10	1708.01
226.32	1779.68
226.53	1830.88
226.75	1679.33
226.97	1642.47
227.19	1636.33
227.41	1624.04
227.63	1632.23
227.85	1669.09
228.06	1658.85
228.28	1658.85
228.50	1701.86
228.72	1587.18
228.94	1685.48
229.16	1568.74
229.37	1595.37
229.59	1617.90
229.81	1781.73
230.03	1705.96
230.25	1626.09
230.47	1648.61
230.69	1638.38
230.90	1748.97
231.12	1650.66
231.34	1705.96
231.56	1765.35
231.78	1583.08
232.00	1697.77
232.21	1681.38
232.43	1718.25
232.65	1568.74
232.87	1683.43
233.09	1601.51
233.30	1671.14
233.52	1736.68
233.74	1708.01
233.96	1675.24
234.18	1701.86
234.40	1691.62
234.61	1853.41
234.83	1576.94
235.05	1611.75
235.27	1814.50
235.49	1761.25
235.70	1703.91
235.92	1839.08
236.14	1759.21
236.36	1855.46
236.58	1581.03
236.79	1800.16
237.01	1718.25
237.23	1771.49
237.45	1800.16
237.67	1697.77
237.88	1665.00
238.10	1818.60
238.32	1650.66
238.54	1658.85
238.76	1648.61
238.97	1632.23
239.19	1621.99
239.41	1740.77
239.63	1775.59
239.85	1714.15
240.06	1705.96
240.28	1685.48
240.50	1742.82
240.72	1638.38
240.93	1722.34
241.15	1800.16
241.37	1728.49
241.59	1746.92
241.81	1757.16
242.02	1652.71
242.24	1828.84
242.46	1683.43
242.68	1701.86
242.89	1679.33
243.11	1812.45
243.33	1777.64
243.55	1705.96
243.76	1740.77
243.98	1595.37
244.20	1714.15
244.42	1667.05
244.64	1691.62
244.85	1581.03
245.07	1687.53
245.29	1751.01
245.51	1658.85
245.72	1650.66
245.94	1757.16
246.16	1730.53
246.38	1812.45
246.59	1683.43
246.81	1652.71
247.03	1673.19
247.24	1523.69
247.46	1654.76
247.68	1728.49
247.90	1679.33
248.11	1677.29
248.33	1714.15
248.55	1701.86
248.77	1691.62
248.98	1705.96
249.20	1826.79
249.42	1656.81
249.64	1703.91
249.85	1611.75
250.07	1677.29
250.29	1765.35
250.50	1755.11
250.72	1673.19
250.94	1710.05
251.16	1773.54
251.37	1832.93
251.59	1681.38
251.81	1796.07
252.02	1738.73
252.24	1687.53
252.46	1787.88
252.68	1712.10
252.89	1660.90
253.11	1576.94
253.33	1669.09
253.54	1767.40
253.76	1648.61
253.98	1689.57
254.20	1679.33
254.41	1634.28
254.63	1726.44
254.85	1638.38
255.06	1738.73
255.28	1701.86
255.50	1738.73
255.71	1605.61
255.93	1636.33
256.15	1689.57
256.36	1689.57
256.58	1660.90
256.80	1714.15
257.02	1669.09
257.23	1724.39
257.45	1746.92
257.67	1720.29
257.88	1665.00
258.10	1699.81
258.32	1667.05
258.53	1673.19
258.75	1783.78
258.97	1701.86
259.18	1595.37
259.40	1636.33
259.62	1802.21
259.83	1763.30
260.05	1777.64
260.27	1929.19
260.48	1720.29
260.70	1595.37
260.92	1722.34
261.13	1687.53
261.35	1697.77
261.57	1722.34
261.78	1521.64
262.00	1650.66
262.22	1744.87
262.43	1673.19
262.65	1732.58
262.86	1679.33
263.08	1843.17
263.30	1777.64
263.51	1642.47
263.73	1660.90
263.95	1765.35
264.16	1746.92
264.38	1699.81
264.60	1746.92
264.81	1712.10
265.03	1744.87
265.25	1806.31
265.46	1685.48
265.68	1746.92
265.89	1755.11
266.11	1681.38
266.33	1697.77
266.54	1765.35
266.76	1728.49
266.98	1699.81
267.19	1757.16
267.41	1718.25
267.62	1708.01
267.84	1654.76
268.06	1728.49
268.27	1728.49
268.49	1775.59
268.70	1712.10
268.92	1679.33
269.14	1605.61
269.35	1593.32
269.57	1634.28
269.79	1646.57
270.00	1751.01
270.22	1757.16
270.43	1656.81
270.65	1552.36
270.87	1732.58
271.08	1771.49
271.30	1705.96
271.51	1705.96
271.73	1755.11
271.95	1800.16
272.16	1718.25
272.38	1742.82
272.59	1683.43
272.81	1675.24
273.02	1720.29
273.24	1787.88
273.46	1759.21
273.67	1665.00
273.89	1648.61
274.10	1677.29
274.32	1693.67
274.54	1734.63
274.75	1751.01
274.97	1710.05
275.18	1740.77
275.40	1732.58
275.61	1730.53
275.83	1656.81
276.05	1669.09
276.26	1775.59
276.48	1652.71
276.69	1705.96
276.91	1697.77
277.12	1771.49
277.34	1751.01
277.55	1687.53
277.77	1652.71
277.99	1703.91
278.20	1550.31
278.42	1685.48
278.63	1687.53
278.85	1656.81
279.06	1578.98
279.28	1771.49
279.49	1736.68
279.71	1728.49
279.93	1677.29
280.14	1665.00
280.36	1738.73
280.57	1699.81
280.79	1759.21
281.00	1662.95
281.22	1646.57
281.43	1722.34
281.65	1611.75
281.86	1626.09
282.08	1771.49
282.29	1826.79
282.51	1640.42
282.73	1642.47
282.94	1654.76
283.16	1751.01
283.37	1783.78
283.59	1640.42
283.80	1730.53
284.02	1703.91
284.23	1759.21
284.45	1697.77
284.66	1607.66
284.88	1685.48
285.09	1681.38
285.31	1689.57
285.52	1654.76
285.74	1548.26
285.95	1751.01
286.17	1724.39
286.38	1695.72
286.60	1689.57
286.81	1728.49
287.03	1630.18
287.24	1652.71
287.46	1708.01
287.67	1703.91
287.89	1810.40
288.10	1697.77
288.32	1660.90
288.53	1708.01
288.75	1724.39
288.96	1800.16
289.18	1681.38
289.39	1607.66
289.61	1763.30
289.82	1798.12
290.04	1832.93
290.25	1693.67
290.47	1714.15
290.68	1689.57
290.90	1757.16
291.11	1613.80
291.33	1691.62
291.54	1648.61
291.76	1660.90
291.97	1685.48
292.18	1665.00
292.40	1673.19
292.61	1687.53
292.83	1775.59
293.04	1775.59
293.26	1773.54
293.47	1804.26
293.69	1652.71
293.90	1693.67
294.12	1722.34
294.33	1693.67
294.55	1644.52
294.76	1724.39
294.97	1738.73
295.19	1824.74
295.40	1667.05
295.62	1720.29
295.83	1732.58
296.05	1648.61
296.26	1697.77
296.48	1736.68
296.69	1703.91
296.90	1761.25
297.12	1757.16
297.33	1794.02
297.55	1714.15
297.76	1775.59
297.98	1800.16
298.19	1669.09
298.41	1667.05
298.62	1626.09
298.83	1714.15
299.05	1738.73
299.26	1677.29
299.48	1697.77
299.69	1787.88
299.90	1665.00
300.12	1605.61
300.33	1665.00
300.55	1617.90
300.76	1730.53
300.98	1646.57
301.19	1714.15
301.40	1648.61
301.62	1660.90
301.83	1714.15
302.05	1677.29
302.26	1732.58
302.47	1642.47
302.69	1601.51
302.90	1689.57
303.12	1673.19
303.33	1796.07
303.54	1812.45
303.76	1675.24
303.97	1665.00
304.19	1816.55
304.40	1677.29
304.61	1732.58
304.83	1810.40
305.04	1726.44
305.26	1636.33
305.47	1673.19
305.68	1693.67
305.90	1660.90
306.11	1677.29
306.33	1724.39
306.54	1691.62
306.75	1722.34
306.97	1601.51
307.18	1648.61
307.39	1679.33
307.61	1697.77
307.82	1697.77
308.04	1744.87
308.25	1607.66
308.46	1652.71
308.68	1681.38
308.89	1669.09
309.10	1724.39
309.32	1722.34
309.53	1691.62
309.74	1691.62
309.96	1662.95
310.17	1722.34
310.39	1587.18
310.60	1759.21
310.81	1656.81
311.03	1632.23
311.24	1804.26
311.45	1671.14
311.67	1746.92
311.88	1726.44
312.09	1705.96
312.31	1646.57
312.52	1744.87
312.73	1640.42
312.95	1658.85
313.16	1648.61
313.37	1759.21
313.59	1812.45
313.80	1720.29
314.01	1765.35
314.23	1675.24
314.44	1607.66
314.65	1630.18
314.87	1640.42
315.08	1673.19
315.29	1650.66
315.51	1599.46
315.72	1673.19
315.93	1771.49
316.15	1720.29
316.36	1624.04
316.57	1755.11
316.79	1714.15
317.00	1675.24
317.21	1820.64
317.43	1638.38
317.64	1665.00
317.85	1658.85
318.07	1691.62
318.28	1775.59
318.49	1781.73
318.70	1832.93
318.92	1834.98
319.13	1779.68
319.34	1882.08
319.56	1757.16
319.77	1812.45
319.98	1705.96
320.20	1748.97
320.41	1718.25
320.62	1822.69
320.83	1693.67
321.05	1857.51
321.26	1763.30
321.47	1738.73
321.69	1722.34
321.90	1689.57
322.11	1671.14
322.32	1687.53
322.54	1761.25
322.75	1693.67
322.96	1869.80
323.18	1685.48
323.39	1542.12
323.60	1712.10
323.81	1718.25
324.03	1609.70
324.24	1777.64
324.45	1716.20
324.66	1734.63
324.88	1787.88
325.09	1730.53
325.30	1726.44
325.52	1802.21
325.73	1748.97
325.94	1607.66
326.15	1581.03
326.37	1722.34
326.58	1798.12
326.79	1751.01
327.00	1667.05
327.22	1681.38
327.43	1716.20
327.64	1607.66
327.85	1644.52
328.07	1712.10
328.28	1757.16
328.49	1619.94
328.70	1738.73
328.92	1703.91
329.13	1609.70
329.34	1751.01
329.55	1791.97
329.76	1685.48
329.98	1718.25
330.19	1763.30
330.40	1718.25
330.61	1656.81
330.83	1710.05
331.04	1648.61
331.25	1679.33
331.46	1669.09
331.68	1640.42
331.89	1710.05
332.10	1669.09
332.31	1644.52
332.52	1714.15
332.74	1853.41
332.95	1609.70
333.16	1701.86
333.37	1683.43
333.58	1648.61
333.80	1708.01
334.01	1574.89
334.22	1667.05
334.43	1665.00
334.64	1714.15
334.86	1660.90
335.07	1585.13
335.28	1810.40
335.49	1634.28
335.70	1662.95
335.92	1812.45
336.13	1773.54
336.34	1789.92
336.55	1708.01
336.76	1642.47
336.98	1652.71
337.19	1681.38
337.40	1806.31
337.61	1880.04
337.82	1685.48
338.04	1716.20
338.25	1607.66
338.46	1673.19
338.67	1642.47
338.88	1673.19
339.09	1746.92
339.31	1703.91
339.52	1742.82
339.73	1634.28
339.94	1701.86
340.15	1728.49
340.36	1634.28
340.58	1761.25
340.79	1665.00
341.00	1759.21
341.21	1619.94
341.42	1740.77
341.63	1699.81
341.85	1726.44
342.06	1683.43
342.27	1628.14
342.48	1755.11
342.69	1630.18
342.90	1685.48
343.12	1730.53
343.33	1669.09
343.54	1748.97
343.75	1771.49
343.96	1744.87
344.17	1640.42
344.38	1703.91
344.60	1675.24
344.81	1656.81
345.02	1644.52
345.23	1720.29
345.44	1720.29
345.65	1732.58
345.86	1697.77
346.07	1683.43
346.29	1660.90
346.50	1767.40
346.71	1671.14
346.92	1714.15
347.13	1832.93
347.34	1656.81
347.55	1665.00
347.76	1724.39
347.98	1615.85
348.19	1689.57
348.40	1728.49
348.61	1673.19
348.82	1736.68
349.03	1771.49
349.24	1656.81
349.45	1773.54
349.66	1615.85
349.88	1730.53
350.09	1652.71
350.30	1800.16
350.51	1785.83
350.72	1654.76
350.93	1675.24
351.14	1669.09
351.35	1724.39
351.56	1705.96
351.77	1779.68
351.99	1730.53
352.20	1781.73
352.41	1716.20
352.62	1595.37
352.83	1675.24
353.04	1687.53
353.25	1683.43
353.46	1767.40
353.67	1724.39
353.88	1628.14
354.09	1751.01
354.30	1691.62
354.52	1736.68
354.73	1740.77
354.94	1636.33
355.15	1732.58
355.36	1730.53
355.57	1576.94
355.78	1748.97
355.99	1632.23
356.20	1648.61
356.41	1710.05
356.62	1722.34
356.83	1708.01
357.04	1751.01
357.25	1578.98
357.46	1646.57
357.68	1607.66
357.89	1613.80
358.10	1701.86
358.31	1693.67
358.52	1714.15
358.73	1632.23
358.94	1628.14
359.15	1685.48
359.36	1765.35
359.57	1722.34
359.78	1648.61
359.99	1740.77
360.20	1685.48
360.41	1656.81
360.62	1685.48
360.83	1685.48
361.04	1667.05
361.25	1755.11
361.46	1763.30
361.67	1660.90
361.88	1726.44
362.09	1732.58
362.30	1751.01
362.51	1677.29
362.72	1740.77
362.93	1714.15
363.14	1736.68
363.35	1605.61
363.56	1538.02
363.78	1804.26
363.99	1685.48
364.20	1697.77
364.41	1763.30
364.62	1796.07
364.83	1746.92
365.04	1695.72
365.25	1632.23
365.46	1742.82
365.67	1722.34
365.88	1632.23
366.09	1699.81
366.30	1726.44
366.51	1720.29
366.72	1607.66
366.93	1693.67
367.14	1714.15
367.35	1755.11
367.56	1712.10
367.77	1787.88
367.98	1648.61
368.18	1662.95
368.39	1697.77
368.60	1621.99
368.81	1703.91
369.02	1722.34
369.23	1712.10
369.44	1615.85
369.65	1650.66
369.86	1763.30
370.07	1755.11
370.28	1634.28
370.49	1681.38
370.70	1714.15
370.91	1642.47
371.12	1640.42
371.33	1767.40
371.54	1650.66
371.75	1775.59
371.96	1624.04
372.17	1722.34
372.38	1665.00
372.59	1742.82
372.80	1634.28
373.01	1650.66
373.22	1757.16
373.43	1671.14
373.64	1658.85
373.85	1783.78
374.06	1818.60
374.26	1787.88
374.47	1751.01
374.68	1736.68
374.89	1679.33
375.10	1718.25
375.31	1777.64
375.52	1738.73
375.73	1714.15
375.94	1615.85
376.15	1839.08
376.36	1650.66
376.57	1658.85
376.78	1712.10
376.99	1722.34
377.20	1732.58
377.40	1638.38
377.61	1740.77
377.82	1646.57
378.03	1746.92
378.24	1665.00
378.45	1658.85
378.66	1634.28
378.87	1591.27
379.08	1607.66
379.29	1722.34
379.50	1757.16
379.71	1615.85
379.91	1794.02
380.12	1744.87
380.33	1761.25
380.54	1730.53
380.75	1740.77
380.96	1738.73
381.17	1761.25
381.38	1748.97
381.59	1665.00
381.80	1820.64
382.00	1923.04
382.21	1769.44
382.42	1826.79
382.63	1824.74
382.84	1738.73
383.05	1781.73
383.26	1794.02
383.47	1658.85
383.68	1697.77
383.88	1748.97
384.09	1716.20
384.30	1820.64
384.51	1665.00
384.72	1716.20
384.93	1656.81
385.14	1763.30
385.35	1755.11
385.55	1597.42
385.76	1740.77
385.97	1697.77
386.18	1630.18
386.39	1630.18
386.60	1671.14
386.81	1636.33
387.02	1681.38
387.22	1691.62
387.43	1714.15
387.64	1814.50
387.85	1800.16
388.06	2176.99
388.27	4270.01
388.48	6817.69
388.68	8337.28
388.89	9623.41
389.10	9846.63
389.31	8501.12
389.52	7577.48
389.73	6717.34
389.93	6305.70
390.14	5885.86
390.35	5353.39
390.56	4573.11
390.77	3798.98
390.98	3061.71
391.18	2496.47
391.39	2140.13
391.60	1857.51
391.81	1796.07
392.02	1720.29
392.23	1877.99
392.43	1763.30
392.64	1781.73
392.85	1730.53
393.06	1851.36
393.27	1673.19
393.47	1621.99
393.68	1693.67
393.89	1708.01
394.10	1759.21
394.31	1665.00
394.52	1658.85
394.72	1714.15
394.93	1779.68
395.14	1669.09
395.35	1736.68
395.56	1683.43
395.76	1748.97
395.97	1796.07
396.18	1810.40
396.39	1855.46
396.60	2002.91
396.80	1896.42
397.01	1845.22
397.22	1818.60
397.43	1873.89
397.64	1665.00
397.84	1783.78
398.05	1849.32
398.26	1769.44
398.47	1839.08
398.67	1832.93
398.88	1771.49
399.09	1693.67
399.30	1572.84
399.51	1857.51
399.71	1652.71
399.92	1716.20
400.13	1722.34
400.34	1644.52
400.54	1665.00
400.75	1787.88
400.96	1699.81
401.17	1742.82
401.37	1765.35
401.58	1642.47
401.79	1755.11
402.00	1869.80
402.21	2015.20
402.41	1869.80
402.62	1984.48
402.83	1882.08
403.04	1968.10
403.24	2111.46
403.45	1773.54
403.66	1861.60
403.87	1886.18
404.07	1951.71
404.28	1912.80
404.49	1896.42
404.70	1732.58
404.90	1757.16
405.11	1705.96
405.32	1708.01
405.52	1632.23
405.73	1689.57
405.94	1675.24
406.15	1751.01
406.35	1703.91
406.56	1701.86
406.77	1701.86
406.98	1710.05
407.18	1648.61
407.39	1814.50
407.60	1656.81
407.80	1691.62
408.01	1650.66
408.22	1738.73
408.43	1667.05
408.63	1732.58
408.84	1705.96
409.05	1751.01
409.25	1587.18
409.46	1724.39
409.67	1646.57
409.88	1677.29
410.08	1708.01
410.29	1708.01
410.50	1705.96
410.70	1710.05
410.91	1681.38
411.12	1761.25
411.32	1650.66
411.53	1673.19
411.74	1804.26
411.95	1796.07
412.15	1781.73
412.36	1746.92
412.57	1794.02
412.77	1886.18
412.98	1712.10
413.19	1701.86
413.39	1722.34
413.60	1787.88
413.81	1759.21
414.01	1562.60
414.22	1681.38
414.43	1826.79
414.63	1720.29
414.84	1802.21
415.05	1671.14
415.25	1640.42
415.46	1759.21
415.67	1683.43
415.87	1746.92
416.08	1636.33
416.29	1728.49
416.49	1748.97
416.70	1646.57
416.91	1720.29
417.11	1726.44
417.32	1759.21
417.53	1839.08
417.73	1642.47
417.94	1656.81
418.15	1728.49
418.35	1708.01
418.56	1726.44
418.77	1857.51
418.97	1720.29
419.18	1677.29
419.38	1566.70
419.59	1683.43
419.80	1771.49
420.00	1677.29
420.21	1740.77
420.42	1816.55
420.62	1720.29
420.83	1656.81
421.04	1654.76
421.24	1667.05
421.45	1699.81
421.65	1751.01
421.86	1673.19
422.07	1744.87
422.27	1730.53
422.48	1699.81
422.69	1648.61
422.89	1748.97
423.10	1673.19
423.30	1710.05
423.51	1785.83
423.72	1665.00
423.92	1771.49
424.13	1626.09
424.33	1767.40
424.54	1781.73
424.75	1710.05
424.95	1775.59
425.16	1759.21
425.36	1708.01
425.57	1791.97
425.78	1740.77
425.98	1751.01
426.19	1677.29
426.39	1667.05
426.60	1691.62
426.81	1755.11
427.01	1746.92
427.22	1681.38
427.42	1654.76
427.63	1675.24
427.83	1724.39
428.04	1757.16
428.25	1800.16
428.45	1771.49
428.66	1812.45
428.86	1667.05
429.07	1765.35
429.28	1675.24
429.48	1621.99
429.69	1654.76
429.89	1744.87
430.10	1681.38
430.30	1718.25
430.51	1705.96
430.71	1628.14
430.92	1730.53
431.13	1734.63
431.33	1787.88
431.54	1675.24
431.74	1785.83
431.95	1816.55
432.15	1646.57
432.36	1763.30
432.56	1726.44
432.77	1738.73
432.98	1845.22
433.18	1751.01
433.39	1705.96
433.59	1734.63
433.80	1845.22
434.00	1798.12
434.21	1636.33
434.41	1642.47
434.62	1814.50
434.82	1642.47
435.03	1654.76
435.23	1751.01
435.44	1615.85
435.64	1675.24
435.85	1718.25
436.06	1824.74
436.26	1775.59
436.47	1658.85
436.67	1705.96
436.88	1654.76
437.08	1740.77
437.29	1802.21
437.49	1736.68
437.70	1759.21
437.90	1753.06
438.11	1847.27
438.31	1806.31
438.52	1806.31
438.72	1804.26
438.93	1875.94
439.13	1718.25
439.34	1877.99
439.54	1775.59
439.75	1769.44
439.95	1755.11
440.16	1710.05
440.36	1775.59
440.57	1708.01
440.77	1820.64
440.98	1644.52
441.18	1724.39
441.39	1748.97
441.59	1658.85
441.80	1871.84
442.00	1740.77
442.21	1802.21
442.41	1677.29
442.62	1777.64
442.82	1669.09
443.02	1691.62
443.23	1681.38
443.43	1732.58
443.64	1818.60
443.84	1673.19
444.05	1812.45
444.25	1722.34
444.46	1667.05
444.66	1728.49
444.87	1843.17
445.07	1648.61
445.28	1675.24
445.48	1877.99
445.69	1701.86
445.89	1875.94
446.09	1695.72
446.30	2002.91
446.50	2670.55
446.71	3747.78
446.91	4351.93
447.12	4700.09
447.32	4880.31
447.53	4358.08
447.73	3862.47
447.93	3520.46
448.14	3411.92
448.34	3229.65
448.55	2959.31
448.75	2752.47
448.96	2684.89
449.16	2437.08
449.36	2205.66
449.57	2035.68
449.77	1904.61
449.98	1804.26
450.18	1771.49
450.39	1800.16
450.59	1781.73
450.79	1757.16
451.00	1656.81
451.20	1775.59
451.41	1634.28
451.61	1662.95
451.81	1728.49
452.02	1665.00
452.22	1732.58
452.43	1642.47
452.63	1748.97
452.84	1722.34
453.04	1742.82
453.24	1769.44
453.45	1603.56
453.65	1722.34
453.86	1757.16
454.06	1785.83
454.26	1785.83
454.47	1685.48
454.67	1869.80
454.87	1771.49
455.08	1759.21
455.28	1837.03
455.49	1732.58
455.69	1648.61
455.89	1902.56
456.10	1779.68
456.30	1748.97
456.51	1728.49
456.71	1732.58
456.91	1718.25
457.12	1765.35
457.32	1736.68
457.52	1665.00
457.73	1824.74
457.93	1724.39
458.14	1685.48
458.34	1558.50
458.54	1660.90
458.75	1722.34
458.95	1677.29
459.15	1746.92
459.36	1701.86
459.56	1767.40
459.76	1816.55
459.97	1671.14
460.17	1777.64
460.37	1791.97
460.58	1773.54
460.78	1789.92
460.99	1734.63
461.19	1705.96
461.39	1716.20
461.60	1767.40
461.80	1767.40
462.00	1654.76
462.21	1714.15
462.41	1669.09
462.61	1693.67
462.82	1624.04
463.02	1718.25
463.22	1701.86
463.43	1734.63
463.63	1751.01
463.83	1794.02
464.04	1726.44
464.24	1775.59
464.44	1675.24
464.64	1800.16
464.85	1812.45
465.05	1769.44
465.25	1708.01
465.46	1652.71
465.66	1783.78
465.86	1773.54
466.07	1744.87
466.27	1640.42
466.47	1636.33
466.68	1583.08
466.88	1796.07
467.08	1736.68
467.29	1746.92
467.49	1728.49
467.69	1728.49
467.89	1824.74
468.10	1681.38
468.30	1742.82
468.50	1783.78
468.71	1843.17
468.91	1716.20
469.11	1865.70
469.31	1712.10
469.52	1665.00
469.72	1771.49
469.92	1765.35
470.13	1691.62
470.33	1691.62
470.53	1820.64
470.73	2041.82
470.94	2385.88
471.14	2373.60
471.34	2553.82
471.54	2369.50
471.75	2232.29
471.95	2095.07
472.15	2160.61
472.36	2086.88
472.56	2099.17
472.76	2064.35
472.96	2084.83
473.17	1943.52
473.37	1789.92
473.57	1775.59
473.77	1800.16
473.98	1701.86
474.18	1736.68
474.38	1943.52
474.58	1734.63
474.79	1691.62
474.99	1783.78
475.19	1679.33
475.39	1675.24
475.60	1759.21
475.80	1654.76
476.00	1718.25
476.20	1697.77
476.41	1687.53
476.61	1751.01
476.81	1787.88
477.01	1665.00
477.21	1810.40
477.42	1853.41
477.62	1640.42
477.82	1671.14
478.02	1701.86
478.23	1804.26
478.43	1564.65
478.63	1691.62
478.83	1742.82
479.03	1771.49
479.24	1830.88
479.44	1779.68
479.64	1644.52
479.84	1636.33
480.04	1603.56
480.25	1810.40
480.45	1716.20
480.65	1779.68
480.85	1822.69
481.06	1665.00
481.26	1705.96
481.46	1734.63
481.66	1787.88
481.86	1667.05
482.06	1730.53
482.27	1699.81
482.47	1654.76
482.67	1746.92
482.87	1701.86
483.07	1841.12
483.28	1724.39
483.48	1685.48
483.68	1640.42
483.88	1667.05
484.08	1533.93
484.29	1665.00
484.49	1720.29
484.69	1712.10
484.89	1849.32
485.09	1787.88
485.29	1763.30
485.50	1716.20
485.70	1632.23
485.90	1757.16
486.10	1746.92
486.30	1763.30
486.50	1730.53
486.71	1718.25
486.91	1812.45
487.11	1826.79
487.31	1705.96
487.51	1730.53
487.71	1685.48
487.91	1681.38
488.12	1652.71
488.32	1634.28
488.52	1710.05
488.72	1595.37
488.92	1751.01
489.12	1783.78
489.32	1773.54
489.53	1759.21
489.73	1646.57
489.93	1820.64
490.13	1738.73
490.33	1632.23
490.53	1667.05
490.73	1757.16
490.94	1611.75
491.14	1765.35
491.34	1814.50
491.54	2115.55
491.74	2607.06
491.94	2879.44
492.14	3008.47
492.34	3135.44
492.54	2781.14
492.75	2435.03
492.95	2480.09
493.15	2340.83
493.35	2299.87
493.55	2213.85
493.75	2086.88
493.95	2129.89
494.15	2072.54
494.35	1920.99
494.56	1904.61
494.76	1681.38
494.96	1853.41
495.16	1830.88
495.36	1751.01
495.56	1650.66
495.76	1742.82
495.96	1703.91
496.16	1667.05
496.36	1828.84
496.56	1738.73
496.77	1742.82
496.97	1724.39
497.17	1861.60
497.37	1662.95
497.57	1714.15
497.77	1705.96
497.97	1710.05
498.17	1781.73
498.37	1687.53
498.57	1718.25
498.77	1673.19
498.97	1798.12
499.17	1822.69
499.38	1701.86
499.58	1708.01
499.78	1820.64
499.98	1800.16
500.18	1775.59
500.38	1689.57
500.58	1925.09
500.78	2605.02
500.98	4425.66
501.18	5703.59
501.38	6813.59
501.58	7149.46
501.78	6795.16
501.98	5463.98
502.18	4913.08
502.38	4358.08
502.58	4114.37
502.78	3721.16
502.98	3727.30
503.18	3368.91
503.38	3248.08
503.59	2840.53
503.79	2674.65
503.99	2504.67
504.19	2269.15
504.39	2154.46
504.59	2185.18
504.79	2131.94
504.99	2119.65
505.19	1961.95
505.39	1892.32
505.59	1957.86
505.79	1863.65
505.99	1808.36
506.19	1830.88
506.39	1888.23
506.59	1708.01
506.79	1755.11
506.99	1800.16
507.19	1753.06
507.39	1779.68
507.59	1730.53
507.79	1667.05
507.99	1701.86
508.19	1769.44
508.39	1767.40
508.59	1656.81
508.79	1781.73
508.99	1904.61
509.19	1646.57
509.39	1791.97
509.59	1669.09
509.79	1673.19
509.99	1667.05
510.19	1822.69
510.39	1691.62
510.59	1728.49
510.79	1736.68
510.99	1634.28
511.19	1763.30
511.39	1812.45
511.59	1730.53
511.79	1814.50
511.99	1701.86
512.19	1763.30
512.38	1710.05
512.58	1609.70
512.78	1816.55
512.98	1800.16
513.18	1794.02
513.38	1632.23
513.58	1767.40
513.78	1679.33
513.98	1753.06
514.18	1576.94
514.38	1771.49
514.58	1722.34
514.78	1708.01
514.98	1736.68
515.18	1658.85
515.38	1634.28
515.58	1804.26
515.78	1759.21
515.98	1691.62
516.18	1820.64
516.38	1703.91
516.57	1771.49
516.77	1650.66
516.97	1714.15
517.17	1675.24
517.37	1687.53
517.57	1787.88
517.77	1734.63
517.97	1617.90
518.17	1763.30
518.37	1724.39
518.57	1677.29
518.77	1699.81
518.97	1621.99
519.16	1794.02
519.36	1826.79
519.56	1738.73
519.76	1791.97
519.96	1716.20
520.16	1843.17
520.36	1646.57
520.56	1857.51
520.76	1712.10
520.96	1701.86
521.16	1730.53
521.35	1859.56
521.55	1761.25
521.75	1705.96
521.95	1722.34
522.15	1671.14
522.35	1712.10
522.55	1667.05
522.75	1789.92
522.95	1763.30
523.14	1699.81
523.34	1736.68
523.54	1673.19
523.74	1773.54
523.94	1705.96
524.14	1652.71
524.34	1634.28
524.54	1789.92
524.73	1738.73
524.93	1814.50
525.13	1777.64
525.33	1572.84
525.53	1910.75
525.73	1769.44
525.93	1724.39
526.13	1685.48
526.32	1691.62
526.52	1802.21
526.72	1759.21
526.92	1722.34
527.12	1728.49
527.32	1724.39
527.52	1720.29
527.71	1777.64
527.91	1718.25
528.11	1701.86
528.31	1742.82
528.51	1603.56
528.71	1712.10
528.90	1753.06
529.10	1814.50
529.30	1806.31
529.50	1609.70
529.70	1718.25
529.90	1662.95
530.09	1767.40
530.29	1742.82
530.49	1673.19
530.69	1990.63
530.89	1703.91
531.09	1804.26
531.28	1720.29
531.48	1738.73
531.68	1755.11
531.88	1785.83
532.08	1732.58
532.28	1697.77
532.47	1697.77
532.67	1791.97
532.87	1701.86
533.07	1695.72
533.27	1767.40
533.46	1728.49
533.66	1736.68
533.86	1746.92
534.06	1757.16
534.26	1746.92
534.45	1701.86
534.65	1863.65
534.85	1763.30
535.05	1683.43
535.25	1744.87
535.44	1648.61
535.64	1777.64
535.84	1708.01
536.04	1665.00
536.24	1732.58
536.43	1705.96
536.63	1697.77
536.83	1714.15
537.03	1734.63
537.22	1652.71
537.42	1691.62
537.62	1804.26
537.82	1710.05
538.02	1898.47
538.21	1873.89
538.41	1810.40
538.61	1755.11
538.81	1740.77
539.00	1828.84
539.20	1716.20
539.40	1624.04
539.60	1763.30
539.79	1822.69
539.99	1716.20
540.19	1656.81
540.39	1718.25
540.58	1777.64
540.78	1730.53
540.98	1740.77
541.18	1724.39
541.37	1832.93
541.57	1728.49
541.77	1818.60
541.97	1603.56
542.16	1607.66
542.36	1687.53
542.56	1697.77
542.76	1753.06
542.95	1734.63
543.15	1826.79
543.35	1722.34
543.54	1677.29
543.74	1716.20
543.94	1810.40
544.14	1681.38
544.33	1781.73
544.53	1644.52
544.73	1783.78
544.93	1746.92
545.12	1650.66
545.32	1785.83
545.52	1740.77
545.71	1609.70
545.91	1730.53
546.11	1744.87
546.30	1615.85
546.50	1701.86
546.70	1775.59
546.90	1781.73
547.09	1705.96
547.29	1732.58
547.49	1753.06
547.68	1728.49
547.88	1812.45
548.08	1798.12
548.27	2205.66
548.47	1718.25
548.67	1712.10
548.87	1800.16
549.06	1679.33
549.26	1802.21
549.46	1720.29
549.65	1669.09
549.85	1791.97
550.05	1761.25
550.24	1599.46
550.44	1708.01
550.64	1722.34
550.83	1718.25
551.03	1800.16
551.23	1755.11
551.42	1738.73
551.62	1742.82
551.82	1691.62
552.01	1677.29
552.21	1812.45
552.41	1701.86
552.60	1855.46
552.80	1748.97
553.00	1701.86
553.19	1685.48
553.39	1820.64
553.59	1658.85
553.78	1730.53
553.98	1722.34
554.17	1726.44
554.37	1777.64
554.57	1773.54
554.76	1677.29
554.96	1724.39
555.16	1761.25
555.35	1759.21
555.55	1621.99
555.75	1691.62
555.94	1773.54
556.14	1716.20
556.33	1744.87
556.53	1779.68
556.73	1738.73
556.92	1771.49
557.12	1826.79
557.32	1875.94
557.51	1802.21
557.71	1748.97
557.90	1771.49
558.10	1798.12
558.30	1738.73
558.49	1783.78
558.69	1755.11
558.88	1757.16
559.08	1687.53
559.28	1740.77
559.47	1748.97
559.67	1785.83
559.86	1791.97
560.06	1755.11
560.26	1732.58
560.45	1796.07
560.65	1671.14
560.84	1830.88
561.04	1738.73
561.24	1728.49
561.43	1669.09
561.63	1806.31
561.82	1785.83
562.02	1755.11
562.22	1800.16
562.41	1685.48
562.61	1724.39
562.80	1673.19
563.00	1925.09
563.19	1767.40
563.39	1712.10
563.59	1728.49
563.78	1740.77
563.98	1710.05
564.17	1656.81
564.37	1648.61
564.56	1804.26
564.76	1759.21
564.96	1839.08
565.15	1779.68
565.35	1871.84
565.54	1695.72
565.74	1767.40
565.93	1761.25
566.13	1806.31
566.32	1810.40
566.52	1783.78
566.71	1753.06
566.91	1779.68
567.11	1718.25
567.30	1712.10
567.50	1742.82
567.69	1734.63
567.89	1683.43
568.08	1660.90
568.28	1724.39
568.47	1685.48
568.67	1800.16
568.86	1726.44
569.06	1818.60
569.25	1691.62
569.45	1740.77
569.64	1673.19
569.84	1675.24
570.04	1783.78
570.23	1681.38
570.43	1685.48
570.62	1775.59
570.82	1824.74
571.01	1683.43
571.21	1740.77
571.40	1673.19
571.60	1804.26
571.79	1718.25
571.99	1724.39
572.18	1671.14
572.38	1763.30
572.57	1699.81
572.77	1703.91
572.96	1875.94
573.16	1787.88
573.35	1675.24
573.55	1826.79
573.74	1812.45
573.94	1734.63
574.13	1755.11
574.33	1705.96
574.52	1689.57
574.71	1720.29
574.91	1730.53
575.10	1726.44
575.30	1689.57
575.49	1699.81
575.69	1687.53
575.88	1822.69
576.08	1693.67
576.27	1787.88
576.47	1726.44
576.66	1794.02
576.86	1794.02
577.05	1777.64
577.25	1814.50
577.44	1902.56
577.64	1740.77
577.83	1787.88
578.02	1677.29
578.22	1810.40
578.41	1902.56
578.61	1753.06
578.80	1662.95
579.00	1763.30
579.19	1724.39
579.39	1816.55
579.58	1736.68
579.77	1738.73
579.97	1755.11
580.16	1929.19
580.36	1843.17
580.55	1820.64
580.75	1763.30
580.94	1777.64
581.13	1851.36
581.33	1882.08
581.52	1779.68
581.72	1853.41
581.91	1859.56
582.11	1681.38
582.30	1763.30
582.49	1808.36
582.69	1851.36
582.88	1812.45
583.08	1791.97
583.27	1812.45
583.47	1699.81
583.66	1775.59
583.85	1660.90
584.05	1744.87
584.24	1824.74
584.44	1705.96
584.63	1828.84
584.82	1791.97
585.02	1869.80
585.21	1765.35
585.41	1716.20
585.60	1775.59
585.79	1953.76
585.99	1863.65
586.18	1861.60
586.37	2185.18
586.57	3309.52
586.76	9764.72
586.96	24649.35
587.15	34170.36
587.34	40441.24
587.54	42442.10
587.73	36924.88
587.93	26562.15
588.12	21421.75
588.31	18284.26
588.51	16387.85
588.70	15238.94
588.89	14069.55
589.09	12611.39
589.28	10966.87
589.47	9572.21
589.67	8081.28
589.86	6608.80
590.06	4964.28
590.25	3925.96
590.44	3090.38
590.64	2557.91
590.83	2222.05
591.02	2144.22
591.22	1927.14
591.41	1859.56
591.60	1828.84
591.80	1945.57
591.99	1773.54
592.18	1787.88
592.38	1843.17
592.57	1728.49
592.76	1791.97
592.96	1785.83
593.15	1806.31
593.34	1818.60
593.54	1687.53
593.73	1800.16
593.92	1748.97
594.12	1697.77
594.31	1789.92
594.50	1845.22
594.70	1837.03
594.89	1845.22
595.08	1667.05
595.28	1812.45
595.47	1847.27
595.66	1869.80
595.86	1703.91
596.05	1640.42
596.24	1744.87
596.43	1832.93
596.63	1783.78
596.82	1804.26
597.01	1812.45
597.21	1837.03
597.40	1685.48
597.59	1695.72
597.79	1691.62
597.98	1796.07
598.17	1720.29
598.36	1751.01
598.56	1789.92
598.75	1679.33
598.94	1732.58
599.14	1773.54
599.33	1640.42
599.52	1822.69
599.71	1697.77
599.91	1665.00
600.10	1748.97
600.29	1716.20
600.48	1714.15
600.68	1777.64
600.87	1738.73
601.06	1748.97
601.26	1794.02
601.45	1712.10
601.64	1757.16
601.83	1843.17
602.03	1742.82
602.22	1685.48
602.41	1742.82
602.60	1826.79
602.80	1845.22
602.99	1759.21
603.18	1662.95
603.37	1798.12
603.57	1773.54
603.76	1871.84
603.95	1785.83
604.14	1720.29
604.34	1705.96
604.53	1812.45
604.72	1669.09
604.91	1798.12
605.10	1785.83
605.30	1660.90
605.49	1834.98
605.68	1775.59
605.87	1765.35
606.07	1656.81
606.26	1787.88
606.45	1783.78
606.64	1671.14
606.84	1726.44
607.03	1751.01
607.22	1812.45
607.41	1656.81
607.60	1630.18
607.80	1773.54
607.99	1691.62
608.18	1796.07
608.37	1730.53
608.56	1669.09
608.76	1744.87
608.95	1839.08
609.14	1767.40
609.33	1794.02
609.52	1712.10
609.72	1667.05
609.91	1773.54
610.10	1759.21
610.29	1867.75
610.48	1775.59
610.68	1755.11
610.87	1640.42
611.06	1763.30
611.25	1728.49
611.44	1773.54
611.63	1726.44
611.83	1869.80
612.02	1703.91
612.21	1718.25
612.40	1669.09
612.59	1705.96
612.79	1669.09
612.98	1677.29
613.17	1748.97
613.36	1738.73
613.55	1806.31
613.74	1673.19
613.93	1671.14
614.13	1669.09
614.32	1763.30
614.51	1738.73
614.70	1728.49
614.89	1699.81
615.08	1724.39
615.28	2025.44
615.47	1619.94
615.66	1775.59
615.85	1701.86
616.04	1763.30
616.23	1665.00
616.42	1808.36
616.62	1714.15
616.81	1734.63
617.00	1751.01
617.19	1789.92
617.38	1779.68
617.57	1683.43
617.76	1722.34
617.95	1730.53
618.15	1843.17
618.34	1830.88
618.53	1599.46
618.72	1744.87
618.91	1787.88
619.10	1783.78
619.29	1722.34
619.48	1744.87
619.68	1687.53
619.87	1697.77
620.06	1660.90
620.25	1755.11
620.44	1722.34
620.63	1779.68
620.82	1767.40
621.01	1712.10
621.20	1705.96
621.39	1746.92
621.59	1794.02
621.78	1746.92
621.97	1656.81
622.16	1771.49
622.35	1726.44
622.54	1751.01
622.73	1830.88
622.92	1654.76
623.11	1710.05
623.30	1716.20
623.49	1775.59
623.68	1656.81
623.88	1800.16
624.07	1734.63
624.26	1697.77
624.45	1722.34
624.64	1710.05
624.83	1757.16
625.02	1658.85
625.21	1656.81
625.40	1742.82
625.59	1820.64
625.78	1722.34
625.97	1759.21
626.16	1785.83
626.35	1763.30
626.54	1660.90
626.74	1734.63
626.93	1648.61
627.12	1703.91
627.31	1771.49
627.50	1755.11
627.69	1806.31
627.88	1646.57
628.07	1665.00
628.26	1560.55
628.45	1615.85
628.64	1660.90
628.83	1716.20
629.02	1648.61
629.21	1734.63
629.40	1765.35
629.59	1720.29
629.78	1693.67
629.97	1746.92
630.16	1708.01
630.35	1701.86
630.54	1734.63
630.73	1726.44
630.92	1718.25
631.11	1611.75
631.30	1757.16
631.49	1740.77
631.68	1726.44
631.87	1779.68
632.06	1566.70
632.25	1828.84
632.44	1697.77
632.63	1761.25
632.82	1728.49
633.01	1605.61
633.20	1726.44
633.39	1644.52
633.58	1609.70
633.77	1718.25
633.96	1726.44
634.15	1726.44
634.34	1787.88
634.53	1714.15
634.72	1630.18
634.91	1656.81
635.10	1710.05
635.29	1767.40
635.48	1765.35
635.67	1730.53
635.86	1603.56
636.05	1783.78
636.24	1705.96
636.43	1841.12
636.62	1798.12
636.81	1554.41
637.00	1652.71
637.19	1708.01
637.38	1673.19
637.57	1693.67
637.76	1718.25
637.95	1736.68
638.14	1685.48
638.33	1734.63
638.52	1636.33
638.71	1605.61
638.89	1626.09
639.08	1923.04
639.27	1765.35
639.46	1718.25
639.65	1798.12
639.84	1746.92
640.03	1683.43
640.22	1619.94
640.41	1841.12
640.60	1728.49
640.79	1757.16
640.98	1771.49
641.17	1712.10
641.36	1710.05
641.55	1722.34
641.74	1650.66
641.92	1624.04
642.11	1611.75
642.30	1726.44
642.49	1632.23
642.68	1679.33
642.87	1771.49
643.06	1685.48
643.25	1671.14
643.44	1644.52
643.63	1652.71
643.82	1761.25
644.00	1662.95
644.19	1734.63
644.38	1615.85
644.57	1791.97
644.76	1687.53
644.95	1662.95
645.14	1800.16
645.33	1705.96
645.52	1687.53
645.71	1691.62
645.89	1685.48
646.08	1783.78
646.27	1695.72
646.46	1920.99
646.65	1611.75
646.84	1705.96
647.03	1595.37
647.22	1828.84
647.40	1761.25
647.59	1665.00
647.78	1660.90
647.97	1691.62
648.16	1654.76
648.35	1791.97
648.54	1736.68
648.73	1660.90
648.91	1728.49
649.10	1693.67
649.29	1697.77
649.48	1710.05
649.67	1722.34
649.86	1716.20
650.05	1794.02
650.23	1746.92
650.42	1607.66
650.61	1779.68
650.80	1693.67
650.99	1845.22
651.18	1732.58
651.36	1714.15
651.55	1589.22
651.74	1781.73
651.93	1703.91
652.12	1679.33
652.31	1806.31
652.49	1771.49
652.68	1697.77
652.87	1802.21
653.06	1695.72
653.25	1785.83
653.44	1632.23
653.62	1794.02
653.81	1716.20
654.00	1722.34
654.19	1685.48
654.38	1773.54
654.56	1744.87
654.75	1708.01
654.94	1751.01
655.13	1742.82
655.32	1767.40
655.51	1687.53
655.69	1656.81
655.88	1755.11
656.07	1656.81
656.26	1773.54
656.45	1593.32
656.63	1718.25
656.82	1722.34
657.01	1726.44
657.20	1710.05
657.38	1800.16
657.57	1644.52
657.76	1683.43
657.95	1761.25
658.14	1726.44
658.32	1679.33
658.51	1644.52
658.70	1716.20
658.89	1740.77
659.08	1648.61
659.26	1748.97
659.45	1605.61
659.64	1746.92
659.83	1726.44
660.01	1849.32
660.20	1779.68
660.39	1773.54
660.58	1691.62
660.76	1814.50
660.95	1648.61
661.14	1765.35
661.33	1660.90
661.51	1679.33
661.70	1712.10
661.89	1759.21
662.08	1648.61
662.26	1656.81
662.45	1746.92
662.64	1812.45
662.83	1779.68
663.01	1658.85
663.20	1677.29
663.39	1861.60
663.58	1673.19
663.76	1636.33
663.95	1714.15
664.14	1738.73
664.32	1697.77
664.51	1665.00
664.70	1677.29
664.89	1714.15
665.07	1644.52
665.26	1712.10
665.45	1660.90
665.64	1732.58
665.82	1763.30
666.01	1755.11
666.20	1751.01
666.38	1787.88
666.57	1814.50
666.76	2097.12
666.95	4427.71
667.13	10387.30
667.32	15259.42
667.51	17964.78
667.69	19347.16
667.88	17846.00
668.07	12465.99
668.25	9557.87
668.44	8058.76
668.63	7384.98
668.81	6924.18
669.00	6178.72
669.19	5797.80
669.38	5101.49
669.56	4513.72
669.75	3995.59
669.94	3407.82
670.12	2916.31
670.31	2539.48
670.50	2232.29
670.68	2101.22
670.87	1959.91
671.06	1800.16
671.24	1773.54
671.43	1863.65
671.62	1753.06
671.80	1712.10
671.99	1820.64
672.18	1794.02
672.36	1738.73
672.55	1777.64
672.74	1644.52
672.92	1701.86
673.11	1681.38
673.29	1681.38
673.48	1810.40
673.67	1685.48
673.85	1765.35
674.04	1716.20
674.23	1757.16
674.41	1847.27
674.60	1658.85
674.79	1636.33
674.97	1652.71
675.16	1705.96
675.34	1818.60
675.53	1654.76
675.72	1757.16
675.90	1773.54
676.09	1705.96
676.28	1748.97
676.46	1560.55
676.65	1746.92
676.83	1665.00
677.02	1746.92
677.21	1730.53
677.39	1742.82
677.58	1705.96
677.77	1679.33
677.95	1642.47
678.14	1667.05
678.32	1738.73
678.51	1689.57
678.70	1832.93
678.88	1710.05
679.07	1697.77
679.25	1728.49
679.44	1769.44
679.63	1656.81
679.81	1675.24
680.00	1773.54
680.18	1720.29
680.37	1781.73
680.55	1777.64
680.74	1681.38
680.93	1626.09
681.11	1681.38
681.30	1757.16
681.48	1738.73
681.67	1738.73
681.85	1724.39
682.04	1679.33
682.23	1710.05
682.41	1759.21
682.60	1669.09
682.78	1681.38
682.97	1648.61
683.15	1685.48
683.34	1781.73
683.53	1796.07
683.71	1650.66
683.90	1802.21
684.08	1834.98
684.27	1757.16
684.45	1738.73
684.64	1796.07
684.82	1642.47
685.01	1767.40
685.19	1673.19
685.38	1851.36
685.57	1687.53
685.75	1705.96
685.94	1705.96
686.12	1601.51
686.31	1708.01
686.49	1724.39
686.68	1513.45
686.86	1773.54
687.05	1658.85
687.23	1796.07
687.42	1693.67
687.60	1660.90
687.79	1714.15
687.97	1853.41
688.16	1781.73
688.34	1748.97
688.53	1642.47
688.71	1701.86
688.90	1789.92
689.08	1632.23
689.27	1576.94
689.45	1787.88
689.64	1779.68
689.82	1689.57
690.01	1757.16
690.19	1734.63
690.38	1726.44
690.56	1767.40
690.75	1615.85
690.93	1722.34
691.12	1562.60
691.30	1722.34
691.49	1677.29
691.67	1697.77
691.86	1826.79
692.04	1660.90
692.23	1720.29
692.41	1656.81
692.60	1796.07
692.78	1697.77
692.97	1738.73
693.15	1656.81
693.34	1849.32
693.52	1781.73
693.71	1699.81
693.89	1665.00
694.08	1634.28
694.26	1751.01
694.44	1738.73
694.63	1816.55
694.81	1640.42
695.00	1599.46
695.18	1656.81
695.37	1849.32
695.55	1775.59
695.74	1705.96
695.92	1632.23
696.10	1849.32
696.29	1630.18
696.47	1720.29
696.66	1681.38
696.84	1615.85
697.03	1705.96
697.21	1808.36
697.40	2353.12
697.58	1757.16
697.76	1650.66
697.95	1611.75
698.13	1591.27
698.32	1642.47
698.50	1665.00
698.68	1751.01
698.87	1634.28
699.05	1781.73
699.24	1671.14
699.42	1677.29
699.61	1730.53
699.79	1734.63
699.97	1789.92
700.16	1628.14
700.34	1648.61
700.53	1714.15
700.71	1791.97
700.89	1699.81
701.08	1724.39
701.26	1789.92
701.45	2127.84
701.63	1621.99
701.81	1787.88
702.00	1636.33
702.18	1746.92
702.37	1660.90
702.55	1685.48
702.73	1656.81
702.92	1628.14
703.10	1765.35
703.28	1701.86
703.47	1714.15
703.65	1730.53
703.84	1708.01
704.02	1681.38
704.20	1834.98
704.39	1687.53
704.57	1722.34
704.75	1716.20
704.94	1742.82
705.12	1748.97
705.30	1837.03
705.49	2230.24
705.67	4376.51
705.86	9213.81
706.04	12566.34
706.22	14599.97
706.41	15370.01
706.59	13840.17
706.77	9559.92
706.96	7434.13
707.14	6653.85
707.32	5928.87
707.51	5466.03
707.69	4984.76
707.87	4358.08
708.06	3651.53
708.24	2992.08
708.42	2406.36
708.61	2244.57
708.79	1873.89
708.97	1908.71
709.16	1828.84
709.34	1751.01
709.52	1703.91
709.71	1781.73
709.89	1712.10
710.07	1654.76
710.26	1677.29
710.44	1677.29
710.62	1742.82
710.80	1689.57
710.99	1730.53
711.17	1769.44
711.35	1636.33
711.54	1673.19
711.72	1761.25
711.90	1708.01
712.09	1691.62
712.27	1699.81
712.45	1728.49
712.63	1720.29
712.82	1759.21
713.00	1718.25
713.18	1701.86
713.37	1800.16
713.55	1742.82
713.73	1697.77
713.91	1806.31
714.10	1685.48
714.28	1716.20
714.46	1722.34
714.65	1724.39
714.83	1738.73
715.01	1667.05
715.19	1697.77
715.38	1613.80
715.56	1812.45
715.74	1646.57
715.92	1685.48
716.11	1775.59
716.29	1572.84
716.47	1693.67
716.65	1630.18
716.84	1632.23
717.02	1732.58
717.20	1601.51
717.38	1648.61
717.57	1732.58
717.75	1757.16
717.93	1705.96
718.11	1697.77
718.30	1667.05
718.48	1736.68
718.66	1734.63
718.84	1748.97
719.03	1753.06
719.21	1656.81
719.39	1800.16
719.57	1716.20
719.75	1783.78
719.94	1734.63
720.12	1599.46
720.30	1732.58
720.48	1748.97
720.67	1708.01
720.85	1652.71
721.03	1630.18
721.21	1613.80
721.39	1775.59
721.58	1671.14
721.76	1689.57
721.94	1716.20
722.12	1761.25
722.30	1814.50
722.49	1667.05
722.67	1726.44
722.85	1730.53
723.03	1648.61
723.21	1673.19
723.40	1738.73
723.58	1755.11
723.76	1736.68
723.94	1708.01
724.12	1677.29
724.30	1763.30
724.49	1697.77
724.67	1665.00
724.85	1738.73
725.03	1636.33
725.21	1669.09
725.40	1679.33
725.58	1644.52
725.76	1812.45
725.94	1734.63
726.12	1650.66
726.30	1730.53
726.49	1673.19
726.67	1652.71
726.85	1708.01
727.03	1824.74
727.21	2138.08
727.39	2961.36
727.57	3755.97
727.76	4167.62
727.94	4554.68
728.12	4419.52
728.30	3749.83
728.48	2963.41
728.66	2754.52
728.84	2484.19
729.03	2258.91
729.21	2148.32
729.39	2011.11
729.57	1810.40
729.75	1845.22
729.93	1853.41
730.11	1626.09
730.30	1648.61
730.48	1705.96
730.66	1861.60
730.84	1783.78
731.02	1761.25
731.20	1587.18
731.38	1718.25
731.56	1624.04
731.74	1665.00
731.93	1716.20
732.11	1708.01
732.29	1636.33
732.47	1775.59
732.65	1710.05
732.83	1828.84
733.01	1757.16
733.19	1613.80
733.37	1748.97
733.56	1728.49
733.74	1677.29
733.92	1806.31
734.10	1681.38
734.28	1787.88
734.46	1619.94
734.64	1644.52
734.82	1665.00
735.00	1730.53
735.18	1656.81
735.36	1679.33
735.54	1718.25
735.73	1644.52
735.91	1691.62
736.09	1695.72
736.27	1720.29
736.45	1734.63
736.63	1632.23
736.81	1710.05
736.99	1804.26
737.17	1755.11
737.35	1638.38
737.53	1732.58
737.71	1640.42
737.89	1814.50
738.07	1675.24
738.25	1621.99
738.43	1591.27
738.61	1740.77
738.80	1613.80
738.98	1720.29
739.16	1683.43
739.34	1644.52
739.52	1759.21
739.70	1691.62
739.88	1712.10
740.06	1810.40
740.24	1619.94
740.42	1753.06
740.60	1558.50
740.78	1646.57
740.96	1609.70
741.14	1689.57
741.32	1705.96
741.50	1703.91
741.68	1789.92
741.86	1794.02
742.04	1705.96
742.22	1701.86
742.40	1642.47
742.58	1697.77
742.76	1617.90
742.94	1808.36
743.12	1607.66
743.30	1714.15
743.48	1681.38
743.66	1617.90
743.84	1748.97
744.02	1650.66
744.20	1662.95
744.38	1669.09
744.56	1644.52
744.74	1726.44
744.92	1693.67
745.10	1759.21
745.28	1753.06
745.46	1839.08
745.64	1640.42
745.82	1720.29
746.00	1669.09
746.18	1767.40
746.36	1605.61
746.54	1710.05
746.72	1685.48
746.90	1660.90
747.08	1753.06
747.26	1658.85
747.44	1632.23
747.62	1689.57
747.80	1697.77
747.98	1726.44
748.15	1687.53
748.33	1871.84
748.51	1687.53
748.69	1720.29
748.87	1726.44
749.05	1779.68
749.23	1695.72
749.41	1824.74
749.59	1708.01
749.77	1722.34
749.95	1705.96
750.13	1626.09
750.31	1773.54
750.49	1658.85
750.67	1728.49
750.85	1730.53
751.03	1751.01
751.20	1818.60
751.38	1681.38
751.56	1658.85
751.74	1683.43
751.92	1779.68
752.10	1697.77
752.28	1779.68
752.46	1648.61
752.64	1697.77
752.82	1703.91
753.00	1748.97
753.18	1683.43
753.35	1660.90
753.53	1675.24
753.71	1683.43
753.89	1738.73
754.07	1644.52
754.25	1783.78
754.43	1710.05
754.61	1513.45
754.79	1767.40
754.97	1665.00
755.14	1798.12
755.32	1599.46
755.50	1744.87
755.68	1718.25
755.86	1595.37
756.04	1621.99
756.22	1636.33
756.40	1714.15
756.57	1796.07
756.75	1693.67
756.93	1791.97
757.11	1765.35
757.29	1628.14
757.47	1658.85
757.65	1667.05
757.82	1591.27
758.00	1650.66
758.18	1675.24
758.36	1611.75
758.54	1787.88
758.72	1611.75
758.90	1755.11
759.07	1734.63
759.25	1646.57
759.43	1791.97
759.61	1658.85
759.79	2150.37
759.97	1757.16
760.15	1652.71
760.32	1632.23
760.50	1724.39
760.68	1843.17
760.86	1654.76
761.04	1740.77
761.22	1753.06
761.39	1728.49
761.57	1755.11
761.75	1734.63
761.93	1712.10
762.11	1718.25
762.28	1675.24
762.46	1603.56
762.64	1761.25
762.82	1611.75
763.00	1689.57
763.18	1744.87
763.35	1648.61
763.53	1712.10
763.71	1605.61
763.89	1734.63
764.07	1716.20
764.24	1648.61
764.42	1759.21
764.60	1791.97
764.78	1660.90
764.96	1771.49
765.13	1755.11
765.31	1679.33
765.49	1744.87
765.67	1656.81
765.84	1703.91
766.02	1673.19
766.20	1624.04
766.38	1738.73
766.56	1675.24
766.73	1761.25
766.91	1720.29
767.09	1669.09
767.27	1736.68
767.44	1683.43
767.62	1708.01
767.80	1683.43
767.98	1683.43
768.15	1738.73
768.33	1701.86
768.51	1779.68
768.69	1716.20
768.87	1767.40
769.04	1683.43
769.22	1841.12
769.40	1753.06
769.58	1755.11
769.75	1769.44
769.93	1843.17
770.11	1652.71
770.28	1611.75
770.46	1775.59
770.64	1708.01
770.82	1683.43
770.99	1642.47
771.17	1708.01
771.35	1652.71
771.53	1628.14
771.70	1665.00
771.88	1757.16
772.06	1746.92
772.23	1736.68
772.41	1773.54
772.59	1689.57
772.77	1621.99
772.94	1591.27
773.12	1738.73
773.30	1660.90
773.47	1699.81
773.65	1714.15
773.83	1767.40
774.01	1753.06
774.18	1624.04
774.36	1689.57
774.54	1564.65
774.71	1650.66
774.89	1570.79
775.07	1605.61
775.24	1624.04
775.42	1619.94
775.60	1689.57
775.78	1718.25
775.95	1621.99
776.13	1591.27
776.31	1540.07
776.48	1722.34
776.66	1751.01
776.84	1656.81
777.01	1656.81
777.19	1624.04
777.37	1642.47
777.54	1716.20
777.72	1814.50
777.90	1646.57
778.07	1699.81
778.25	1882.08
778.43	1787.88
778.60	1681.38
778.78	1779.68
778.96	1804.26
779.13	1566.70
779.31	1781.73
779.49	1736.68
779.66	1687.53
779.84	1675.24
780.01	1634.28
780.19	1591.27
780.37	1771.49
780.54	1716.20
780.72	1693.67
780.90	1716.20
781.07	1693.67
781.25	1652.71
781.43	1699.81
781.60	1695.72
781.78	1746.92
781.95	1617.90
782.13	1701.86
782.31	1710.05
782.48	1642.47
782.66	1798.12
782.83	1765.35
783.01	1644.52
783.19	1658.85
783.36	1665.00
783.54	1669.09
783.72	1769.44
783.89	1656.81
784.07	1630.18
784.24	1675.24
784.42	1800.16
784.60	1701.86
784.77	1804.26
784.95	1566.70
785.12	1687.53
785.30	1644.52
785.47	1609.70
785.65	1667.05
785.83	1689.57
786.00	1665.00
786.18	1691.62
786.35	1660.90
786.53	1656.81
786.71	1744.87
786.88	1730.53
787.06	1648.61
787.23	1720.29
787.41	1679.33
787.58	1742.82
787.76	1675.24
787.94	1687.53
788.11	1691.62
788.29	1656.81
788.46	1650.66
788.64	1578.98
788.81	1697.77
788.99	1722.34
789.16	1615.85
789.34	1658.85
789.52	1685.48
789.69	1675.24
789.87	1650.66
790.04	1722.34
790.22	1712.10
790.39	1822.69
790.57	1701.86
790.74	1624.04
790.92	1691.62
791.09	1648.61
791.27	1662.95
791.44	1726.44
791.62	1699.81
791.79	1724.39
791.97	1714.15
792.15	1830.88
792.32	1746.92
792.50	1771.49
792.67	1761.25
792.85	1791.97
793.02	1775.59
793.20	1646.57
793.37	1585.13
793.55	1673.19
793.72	1613.80
793.90	1695.72
794.07	1705.96
794.25	1589.22
794.42	1642.47
794.60	1710.05
794.77	1722.34
794.95	1753.06
795.12	1722.34
795.30	1615.85
795.47	1634.28
795.65	1873.89
795.82	1677.29
796.00	1652.71
796.17	1716.20
796.34	1744.87
796.52	1742.82
796.69	1689.57
796.87	1708.01
797.04	1689.57
797.22	1755.11
797.39	1677.29
797.57	1767.40
797.74	1705.96
797.92	1722.34
798.09	1650.66
798.27	1716.20
798.44	1630.18
798.62	1624.04
798.79	1785.83
798.96	1796.07
799.14	1722.34
799.31	1839.08
799.49	1640.42
799.66	1724.39
799.84	1677.29
800.01	1726.44
800.19	1722.34
800.36	1527.78
800.53	1767.40
800.71	1718.25
800.88	1800.16
801.06	1671.14
801.23	1689.57
801.41	1695.72
801.58	1621.99
801.75	1624.04
801.93	1724.39
802.10	1648.61
802.28	1699.81
802.45	1652.71
802.63	1703.91
802.80	1734.63
802.97	1648.61
803.15	1703.91
803.32	1652.71
803.50	1650.66
803.67	1624.04
803.84	1677.29
804.02	1624.04
804.19	1708.01
804.37	1595.37
804.54	1656.81
804.71	1681.38
804.89	1779.68
805.06	1619.94
805.24	1656.81
805.41	1677.29
805.58	1601.51
805.76	1875.94
805.93	1685.48
806.10	1751.01
806.28	1718.25
806.45	1718.25
806.63	1734.63
806.80	1746.92
806.97	1769.44
807.15	1695.72
807.32	1654.76
807.49	1677.29
807.67	1699.81
807.84	1755.11
808.01	1669.09
808.19	1796.07
808.36	1812.45
808.54	1724.39
808.71	1546.22
808.88	1738.73
809.06	1708.01
809.23	1839.08
809.40	1603.56
809.58	1769.44
809.75	1705.96
809.92	1699.81
810.10	1849.32
810.27	1742.82
810.44	1771.49
810.62	1757.16
810.79	1705.96
810.96	1607.66
811.14	1662.95
811.31	1695.72
811.48	1722.34
811.66	1708.01
811.83	1658.85
812.00	1763.30
812.18	1693.67
812.35	1755.11
812.52	1611.75
812.69	1703.91
812.87	1626.09
813.04	1658.85
813.21	1699.81
813.39	1626.09
813.56	1599.46
813.73	1716.20
813.91	1595.37
814.08	1730.53
814.25	1673.19
814.42	1650.66
814.60	1644.52
814.77	1746.92
814.94	1742.82
815.12	1681.38
815.29	1763.30
815.46	1632.23
815.63	1748.97
815.81	1748.97
815.98	1656.81
816.15	1660.90
816.33	1681.38
816.50	1806.31
816.67	1648.61
816.84	1814.50
817.02	1650.66
817.19	1644.52
817.36	1814.50
817.53	1742.82
817.71	1626.09
817.88	1791.97
818.05	1738.73
818.22	1675.24
818.40	1720.29
818.57	1669.09
818.74	1718.25
818.91	1665.00
819.09	1710.05
819.26	1748.97
819.43	1626.09
819.60	1714.15
819.78	1681.38
819.95	1789.92
820.12	1601.51
820.29	1759.21
820.47	1697.77
820.64	1683.43
820.81	1626.09
820.98	1509.35
821.15	1638.38
821.33	1722.34
821.50	1607.66
821.67	1734.63
821.84	1673.19
822.02	1705.96
822.19	1734.63
822.36	1662.95
822.53	1744.87
822.70	1656.81
822.88	1656.81
823.05	1746.92
823.22	1662.95
823.39	1728.49
823.56	1675.24
823.74	1800.16
823.91	1624.04
824.08	1531.88
824.25	1652.71
824.42	1824.74
824.60	1648.61
824.77	1714.15
824.94	1605.61
825.11	1683.43
825.28	1615.85
825.45	1753.06
825.63	1687.53
825.80	1677.29
825.97	1685.48
826.14	1708.01
826.31	1597.42
826.48	1685.48
826.66	1662.95
826.83	1615.85
827.00	1818.60
827.17	1605.61
827.34	1681.38
827.51	1685.48
827.69	1728.49
827.86	1640.42
828.03	1673.19
828.20	1648.61
828.37	1701.86
828.54	1667.05
828.71	1634.28
828.89	1781.73
829.06	1732.58
829.23	1810.40
829.40	1621.99
829.57	1667.05
829.74	1720.29
829.91	1726.44
830.09	1646.57
830.26	1740.77
830.43	1804.26
830.60	1679.33
830.77	1789.92
830.94	1732.58
831.11	1748.97
831.28	1644.52
831.46	1755.11
831.63	1644.52
831.80	1724.39
831.97	1730.53
832.14	1685.48
832.31	1724.39
832.48	1738.73
832.65	1746.92
832.82	1738.73
832.99	1710.05
833.17	1636.33
833.34	1746.92
833.51	1710.05
833.68	1599.46
833.85	1734.63
834.02	1560.55
834.19	1669.09
834.36	1652.71
834.53	1726.44
834.70	1783.78
834.87	1660.90
835.04	1656.81
835.22	1648.61
835.39	1671.14
835.56	1615.85
835.73	1638.38
835.90	1693.67
836.07	1644.52
836.24	1708.01
836.41	1681.38
836.58	1662.95
836.75	1826.79
836.92	1673.19
837.09	1710.05
837.26	1730.53
837.43	1703.91
837.60	1671.14
837.77	1636.33
837.94	1734.63
838.12	1701.86
838.29	1742.82
838.46	1648.61
838.63	1650.66
838.80	1791.97
838.97	1863.65
839.14	1652.71
839.31	1697.77
839.48	1695.72
839.65	1703.91
839.82	1662.95
839.99	1689.57
840.16	1736.68
840.33	1685.48
840.50	1679.33
840.67	1683.43
840.84	1499.11
841.01	1746.92
841.18	1619.94
841.35	1697.77
841.52	1701.86
841.69	1798.12
841.86	1734.63
842.03	1669.09
842.20	1789.92
842.37	1736.68
842.54	1648.61
842.71	1759.21
842.88	1574.89
843.05	1736.68
843.22	1650.66
843.39	1697.77
843.56	1701.86
843.73	1773.54
843.90	1738.73
844.07	1708.01
844.24	1748.97
844.41	1769.44
844.58	1759.21
844.75	1667.05
844.92	1720.29
845.09	1701.86
845.26	1734.63
845.43	1757.16
845.60	1660.90
845.77	1732.58
845.94	1652.71
846.10	1800.16
846.27	1710.05
846.44	1529.83
846.61	1669.09
846.78	1714.15
846.95	1834.98
847.12	1599.46
847.29	1669.09
847.46	1697.77
847.63	1738.73
847.80	1705.96
847.97	1716.20
848.14	1849.32
848.31	1644.52
848.48	1591.27
848.65	1767.40
848.82	1671.14
848.98	1787.88
849.15	1705.96
849.32	1701.86
849.49	1656.81
849.66	1697.77
849.83	1746.92
850.00	1576.94
850.17	1757.16
850.34	1650.66
850.51	1642.47
850.68	1662.95
850.85	1705.96
851.01	1703.91
851.18	1665.00
851.35	1673.19
851.52	1689.57
851.69	1837.03
851.86	1644.52
852.03	1675.24
852.20	1693.67
852.37	1722.34
852.53	1601.51
852.70	1712.10
852.87	1748.97
853.04	1753.06
853.21	1712.10
853.38	1718.25
853.55	1769.44
853.72	1757.16
853.89	1714.15
854.05	1710.05
854.22	1701.86
854.39	1691.62
854.56	1632.23
854.73	1708.01
854.90	1652.71
855.07	1689.57
855.23	1685.48
855.40	1689.57
855.57	1650.66
855.74	1617.90
855.91	1837.03
856.08	1583.08
856.25	1642.47
856.41	1656.81
856.58	1601.51
856.75	1687.53
856.92	1691.62
857.09	1761.25
857.26	1585.13
857.42	1738.73
857.59	1697.77
857.76	1699.81
857.93	1724.39
858.10	1677.29
858.27	1650.66
858.43	1644.52
858.60	1634.28
858.77	1583.08
858.94	1609.70
859.11	1732.58
859.27	1632.23
859.44	1716.20
859.61	1814.50
859.78	1685.48
859.95	1662.95
860.12	1675.24
860.28	1806.31
860.45	1810.40
860.62	1669.09
860.79	1681.38
860.95	1701.86
861.12	1699.81
861.29	1708.01
861.46	1658.85
861.63	1728.49
861.79	1705.96
861.96	1634.28
862.13	1695.72
862.30	1716.20
862.47	1679.33
862.63	1648.61
862.80	1730.53
862.97	1693.67
863.14	1802.21
863.30	1763.30
863.47	1677.29
863.64	1816.55
863.81	1738.73
863.97	1656.81
864.14	1759.21
864.31	1705.96
864.48	1697.77
864.65	1644.52
864.81	1757.16
864.98	1730.53
865.15	1742.82
865.32	1761.25
865.48	1781.73
865.65	1798.12
865.82	1652.71
865.98	1691.62
866.15	1767.40
866.32	1703.91
866.49	1734.63
866.65	1781.73
866.82	1634.28
866.99	1613.80
867.16	1665.00
867.32	1705.96
867.49	1650.66
867.66	1638.38
867.83	1656.81
867.99	1679.33
868.16	1646.57
868.33	1660.90
868.49	1691.62
868.66	1673.19
868.83	1738.73
868.99	1667.05
869.16	1708.01
869.33	1708.01
869.50	1804.26
869.66	1722.34
869.83	1755.11
870.00	1644.52
870.16	1763.30
870.33	1726.44
870.50	1726.44
870.66	1775.59
870.83	1783.78
871.00	1755.11
871.17	1771.49
871.33	1667.05
871.50	1683.43
871.67	1673.19
871.83	1660.90
872.00	1779.68
872.17	1681.38
872.33	1720.29
872.50	1714.15
872.67	1697.77
872.83	1705.96
873.00	1783.78
873.17	1697.77
873.33	1804.26
873.50	1744.87
873.67	1726.44
873.83	1671.14
874.00	1656.81
874.16	1656.81
874.33	1699.81
874.50	1705.96
874.66	1748.97
874.83	1628.14
875.00	1753.06
875.16	1746.92
875.33	1783.78
875.50	1619.94
875.66	1681.38
875.83	1689.57
875.99	1738.73
876.16	1691.62
876.33	1660.90
876.49	1677.29
876.66	1714.15
876.83	1734.63
876.99	1644.52
877.16	1697.77
877.32	1689.57
877.49	1714.15
877.66	1777.64
877.82	1728.49
877.99	1701.86
878.15	1787.88
878.32	1746.92
878.49	1691.62
878.65	1701.86
878.82	1769.44
878.98	1710.05
879.15	1740.77
879.32	1755.11
879.48	1746.92
879.65	1738.73
879.81	1665.00
879.98	1640.42
880.15	1660.90
880.31	1681.38
880.48	1644.52
880.64	1714.15
880.81	1746.92
880.97	1771.49
881.14	1753.06
881.31	1609.70
881.47	1789.92
881.64	1695.72
881.80	1626.09
881.97	1746.92
882.13	1742.82
882.30	1624.04
882.47	1708.01
882.63	1642.47
882.80	1675.24
882.96	1689.57
883.13	1769.44
883.29	1681.38
883.46	1738.73
883.62	1859.56
883.79	1716.20
883.95	1726.44
884.12	1689.57
884.29	1712.10
884.45	1689.57
884.62	1769.44
884.78	1589.22
884.95	1818.60
885.11	1638.38
885.28	1695.72
885.44	1763.30
885.61	1720.29
885.77	1705.96
885.94	1746.92
886.10	1679.33
886.27	1638.38
886.43	1689.57
886.60	1701.86
886.76	1656.81
886.93	1624.04
887.09	1708.01
887.26	1583.08
887.42	1660.90
887.59	1699.81
887.75	1898.47
887.92	1787.88
888.08	1681.38
888.25	1771.49
888.41	1699.81
888.58	1708.01
888.74	1642.47
888.91	1705.96
>>>>>End Processed Spectral Data<<<<<
