SpectraSuite Data File
++++++++++++++++++++++++++++++++++++
Date: Mon Jun 06 16:03:17 CEST 2016
User: root
Dark Spectrum Present: No
Reference Spectrum Present: No
Number of Sampled Component Spectra: 1
Spectrometers: USB4C02835
Integration Time (usec): 100000 (USB4C02835)
Spectra Averaged: 1 (USB4C02835)
Boxcar Smoothing: 0 (USB4C02835)
Correct for Electrical Dark: No (USB4C02835)
Strobe/Lamp Enabled: No (USB4C02835)
Correct for Detector Non-linearity: No (USB4C02835)
Correct for Stray Light: No (USB4C02835)
Number of Pixels in Processed Spectrum: 3648
>>>>>Begin Processed Spectral Data<<<<<
177.47	1523.69
177.69	1523.69
177.91	1523.69
178.13	1460.20
178.36	1490.92
178.58	1697.77
178.80	1705.96
179.02	1755.11
179.24	1658.85
179.46	1689.57
179.68	1794.02
179.90	1685.48
180.13	1738.73
180.35	1669.09
180.57	1691.62
180.79	1697.77
181.01	1740.77
181.23	1693.67
181.45	1791.97
181.67	1720.29
181.90	1734.63
182.12	1638.38
182.34	1632.23
182.56	1765.35
182.78	1712.10
183.00	1787.88
183.22	1769.44
183.44	1556.46
183.66	1834.98
183.89	1832.93
184.11	1699.81
184.33	1695.72
184.55	1779.68
184.77	1685.48
184.99	1720.29
185.21	1691.62
185.43	1839.08
185.65	1730.53
185.87	1685.48
186.10	1851.36
186.32	1810.40
186.54	1800.16
186.76	1775.59
186.98	1689.57
187.20	1699.81
187.42	1640.42
187.64	1783.78
187.86	1785.83
188.08	1740.77
188.30	1695.72
188.52	1787.88
188.75	1796.07
188.97	1787.88
189.19	1697.77
189.41	1746.92
189.63	1675.24
189.85	1757.16
190.07	1603.56
190.29	1697.77
190.51	1683.43
190.73	1585.13
190.95	1742.82
191.17	1730.53
191.39	1628.14
191.61	1697.77
191.84	1716.20
192.06	1751.01
192.28	1605.61
192.50	1863.65
192.72	1677.29
192.94	1681.38
193.16	1761.25
193.38	1693.67
193.60	1660.90
193.82	1677.29
194.04	1822.69
194.26	1691.62
194.48	1755.11
194.70	1658.85
194.92	1736.68
195.14	1738.73
195.36	1710.05
195.58	1761.25
195.80	1730.53
196.02	1691.62
196.24	1660.90
196.46	1722.34
196.69	1677.29
196.91	1773.54
197.13	1726.44
197.35	1771.49
197.57	1714.15
197.79	1724.39
198.01	1712.10
198.23	1705.96
198.45	1767.40
198.67	1621.99
198.89	1683.43
199.11	1675.24
199.33	1722.34
199.55	1677.29
199.77	1679.33
199.99	1837.03
200.21	1662.95
200.43	1753.06
200.65	1689.57
200.87	1525.74
201.09	1712.10
201.31	1712.10
201.53	1722.34
201.75	1736.68
201.97	1740.77
202.19	1714.15
202.41	1665.00
202.63	1849.32
202.85	1763.30
203.07	1658.85
203.29	1701.86
203.51	1601.51
203.73	1652.71
203.95	1886.18
204.17	1740.77
204.39	1710.05
204.61	1753.06
204.83	1654.76
205.05	1791.97
205.27	1820.64
205.49	1826.79
205.71	1740.77
205.93	1671.14
206.15	1677.29
206.37	1746.92
206.59	1710.05
206.81	1642.47
207.03	1681.38
207.25	1658.85
207.47	1746.92
207.69	1671.14
207.91	1777.64
208.13	1847.27
208.34	1658.85
208.56	1626.09
208.78	1722.34
209.00	1642.47
209.22	1689.57
209.44	1660.90
209.66	1601.51
209.88	1660.90
210.10	1615.85
210.32	1665.00
210.54	1804.26
210.76	1654.76
210.98	1705.96
211.20	1525.74
211.42	1677.29
211.64	1824.74
211.86	1753.06
212.08	1794.02
212.30	1734.63
212.52	1746.92
212.74	1744.87
212.96	1673.19
213.17	1665.00
213.39	1761.25
213.61	1886.18
213.83	1806.31
214.05	1675.24
214.27	1714.15
214.49	1619.94
214.71	1652.71
214.93	1812.45
215.15	1738.73
215.37	1773.54
215.59	1697.77
215.81	1738.73
216.03	1753.06
216.24	1751.01
216.46	1718.25
216.68	1699.81
216.90	1726.44
217.12	1791.97
217.34	1697.77
217.56	1724.39
217.78	1763.30
218.00	1714.15
218.22	1730.53
218.44	1724.39
218.66	1705.96
218.87	1804.26
219.09	1697.77
219.31	1695.72
219.53	1710.05
219.75	1746.92
219.97	1632.23
220.19	1665.00
220.41	1671.14
220.63	1767.40
220.85	1773.54
221.06	1697.77
221.28	1724.39
221.50	1753.06
221.72	1669.09
221.94	1718.25
222.16	1697.77
222.38	1781.73
222.60	1791.97
222.82	1708.01
223.03	1783.78
223.25	1685.48
223.47	1804.26
223.69	1791.97
223.91	1767.40
224.13	1712.10
224.35	1677.29
224.57	1783.78
224.78	1726.44
225.00	1656.81
225.22	1669.09
225.44	1726.44
225.66	1714.15
225.88	1716.20
226.10	1685.48
226.32	1726.44
226.53	1814.50
226.75	1671.14
226.97	1753.06
227.19	1734.63
227.41	1654.76
227.63	1603.56
227.85	1652.71
228.06	1746.92
228.28	1732.58
228.50	1820.64
228.72	1601.51
228.94	1722.34
229.16	1654.76
229.37	1751.01
229.59	1662.95
229.81	1785.83
230.03	1689.57
230.25	1640.42
230.47	1634.28
230.69	1632.23
230.90	1785.83
231.12	1693.67
231.34	1769.44
231.56	1697.77
231.78	1742.82
232.00	1761.25
232.21	1722.34
232.43	1685.48
232.65	1662.95
232.87	1751.01
233.09	1695.72
233.30	1689.57
233.52	1834.98
233.74	1687.53
233.96	1642.47
234.18	1714.15
234.40	1720.29
234.61	1798.12
234.83	1669.09
235.05	1611.75
235.27	1902.56
235.49	1767.40
235.70	1667.05
235.92	1710.05
236.14	1806.31
236.36	1939.43
236.58	1615.85
236.79	1783.78
237.01	1771.49
237.23	1716.20
237.45	1783.78
237.67	1652.71
237.88	1695.72
238.10	1814.50
238.32	1638.38
238.54	1736.68
238.76	1732.58
238.97	1673.19
239.19	1665.00
239.41	1736.68
239.63	1716.20
239.85	1720.29
240.06	1720.29
240.28	1646.57
240.50	1783.78
240.72	1744.87
240.93	1673.19
241.15	1757.16
241.37	1724.39
241.59	1779.68
241.81	1669.09
242.02	1685.48
242.24	1724.39
242.46	1724.39
242.68	1601.51
242.89	1730.53
243.11	1722.34
243.33	1644.52
243.55	1746.92
243.76	1742.82
243.98	1656.81
244.20	1718.25
244.42	1720.29
244.64	1636.33
244.85	1603.56
245.07	1599.46
245.29	1771.49
245.51	1757.16
245.72	1810.40
245.94	1730.53
246.16	1755.11
246.38	1771.49
246.59	1652.71
246.81	1589.22
247.03	1714.15
247.24	1675.24
247.46	1650.66
247.68	1757.16
247.90	1681.38
248.11	1656.81
248.33	1730.53
248.55	1730.53
248.77	1730.53
248.98	1728.49
249.20	1808.36
249.42	1685.48
249.64	1777.64
249.85	1673.19
250.07	1724.39
250.29	1812.45
250.50	1806.31
250.72	1722.34
250.94	1751.01
251.16	1861.60
251.37	1779.68
251.59	1748.97
251.81	1718.25
252.02	1847.27
252.24	1699.81
252.46	1779.68
252.68	1648.61
252.89	1669.09
253.11	1642.47
253.33	1877.99
253.54	1705.96
253.76	1597.42
253.98	1685.48
254.20	1771.49
254.41	1632.23
254.63	1705.96
254.85	1660.90
255.06	1669.09
255.28	1742.82
255.50	1755.11
255.71	1591.27
255.93	1648.61
256.15	1779.68
256.36	1794.02
256.58	1658.85
256.80	1785.83
257.02	1652.71
257.23	1656.81
257.45	1699.81
257.67	1773.54
257.88	1636.33
258.10	1724.39
258.32	1767.40
258.53	1705.96
258.75	1781.73
258.97	1648.61
259.18	1714.15
259.40	1730.53
259.62	1832.93
259.83	1841.12
260.05	1789.92
260.27	2047.97
260.48	1810.40
260.70	1619.94
260.92	1693.67
261.13	1775.59
261.35	1742.82
261.57	1802.21
261.78	1624.04
262.00	1656.81
262.22	1746.92
262.43	1730.53
262.65	1718.25
262.86	1757.16
263.08	1882.08
263.30	1742.82
263.51	1708.01
263.73	1683.43
263.95	1814.50
264.16	1652.71
264.38	1675.24
264.60	1804.26
264.81	1712.10
265.03	1748.97
265.25	1769.44
265.46	1716.20
265.68	1830.88
265.89	1722.34
266.11	1691.62
266.33	1794.02
266.54	1699.81
266.76	1744.87
266.98	1773.54
267.19	1804.26
267.41	1816.55
267.62	1726.44
267.84	1593.32
268.06	1761.25
268.27	1693.67
268.49	1818.60
268.70	1683.43
268.92	1730.53
269.14	1605.61
269.35	1673.19
269.57	1753.06
269.79	1787.88
270.00	1681.38
270.22	1839.08
270.43	1751.01
270.65	1538.02
270.87	1679.33
271.08	1734.63
271.30	1814.50
271.51	1708.01
271.73	1701.86
271.95	1738.73
272.16	1716.20
272.38	1730.53
272.59	1787.88
272.81	1718.25
273.02	1695.72
273.24	1708.01
273.46	1761.25
273.67	1675.24
273.89	1642.47
274.10	1660.90
274.32	1761.25
274.54	1744.87
274.75	1802.21
274.97	1734.63
275.18	1701.86
275.40	1791.97
275.61	1705.96
275.83	1718.25
276.05	1626.09
276.26	1681.38
276.48	1726.44
276.69	1634.28
276.91	1746.92
277.12	1753.06
277.34	1730.53
277.55	1755.11
277.77	1751.01
277.99	1679.33
278.20	1619.94
278.42	1703.91
278.63	1628.14
278.85	1654.76
279.06	1656.81
279.28	1740.77
279.49	1802.21
279.71	1738.73
279.93	1705.96
280.14	1695.72
280.36	1683.43
280.57	1744.87
280.79	1785.83
281.00	1757.16
281.22	1662.95
281.43	1751.01
281.65	1624.04
281.86	1718.25
282.08	1712.10
282.29	1796.07
282.51	1638.38
282.73	1695.72
282.94	1665.00
283.16	1740.77
283.37	1810.40
283.59	1783.78
283.80	1726.44
284.02	1699.81
284.23	1705.96
284.45	1652.71
284.66	1658.85
284.88	1677.29
285.09	1673.19
285.31	1681.38
285.52	1736.68
285.74	1677.29
285.95	1736.68
286.17	1689.57
286.38	1722.34
286.60	1656.81
286.81	1617.90
287.03	1714.15
287.24	1708.01
287.46	1732.58
287.67	1775.59
287.89	1812.45
288.10	1708.01
288.32	1722.34
288.53	1734.63
288.75	1708.01
288.96	1734.63
289.18	1693.67
289.39	1695.72
289.61	1708.01
289.82	1824.74
290.04	1757.16
290.25	1621.99
290.47	1691.62
290.68	1644.52
290.90	1771.49
291.11	1677.29
291.33	1779.68
291.54	1654.76
291.76	1658.85
291.97	1769.44
292.18	1699.81
292.40	1691.62
292.61	1763.30
292.83	1814.50
293.04	1771.49
293.26	1720.29
293.47	1746.92
293.69	1660.90
293.90	1716.20
294.12	1761.25
294.33	1730.53
294.55	1718.25
294.76	1796.07
294.97	1820.64
295.19	1834.98
295.40	1615.85
295.62	1683.43
295.83	1671.14
296.05	1681.38
296.26	1771.49
296.48	1624.04
296.69	1708.01
296.90	1671.14
297.12	1796.07
297.33	1744.87
297.55	1679.33
297.76	1806.31
297.98	1734.63
298.19	1720.29
298.41	1662.95
298.62	1751.01
298.83	1837.03
299.05	1679.33
299.26	1660.90
299.48	1724.39
299.69	1722.34
299.90	1718.25
300.12	1691.62
300.33	1796.07
300.55	1654.76
300.76	1796.07
300.98	1617.90
301.19	1705.96
301.40	1753.06
301.62	1685.48
301.83	1738.73
302.05	1787.88
302.26	1734.63
302.47	1685.48
302.69	1687.53
302.90	1730.53
303.12	1611.75
303.33	1812.45
303.54	1832.93
303.76	1689.57
303.97	1755.11
304.19	1763.30
304.40	1673.19
304.61	1697.77
304.83	1857.51
305.04	1722.34
305.26	1736.68
305.47	1675.24
305.68	1662.95
305.90	1669.09
306.11	1783.78
306.33	1736.68
306.54	1679.33
306.75	1646.57
306.97	1609.70
307.18	1615.85
307.39	1738.73
307.61	1779.68
307.82	1708.01
308.04	1789.92
308.25	1677.29
308.46	1705.96
308.68	1847.27
308.89	1720.29
309.10	1791.97
309.32	1761.25
309.53	1710.05
309.74	1724.39
309.96	1705.96
310.17	1732.58
310.39	1597.42
310.60	1777.64
310.81	1693.67
311.03	1687.53
311.24	1708.01
311.45	1781.73
311.67	1800.16
311.88	1716.20
312.09	1738.73
312.31	1648.61
312.52	1742.82
312.73	1740.77
312.95	1630.18
313.16	1673.19
313.37	1816.55
313.59	1714.15
313.80	1789.92
314.01	1802.21
314.23	1683.43
314.44	1656.81
314.65	1638.38
314.87	1738.73
315.08	1662.95
315.29	1640.42
315.51	1589.22
315.72	1566.70
315.93	1732.58
316.15	1800.16
316.36	1624.04
316.57	1656.81
316.79	1738.73
317.00	1746.92
317.21	1728.49
317.43	1658.85
317.64	1669.09
317.85	1644.52
318.07	1603.56
318.28	1703.91
318.49	1806.31
318.70	1968.10
318.92	1857.51
319.13	1837.03
319.34	1845.22
319.56	1773.54
319.77	1847.27
319.98	1806.31
320.20	1783.78
320.41	1773.54
320.62	1714.15
320.83	1701.86
321.05	1822.69
321.26	1714.15
321.47	1767.40
321.69	1771.49
321.90	1624.04
322.11	1693.67
322.32	1708.01
322.54	1808.36
322.75	1724.39
322.96	1845.22
323.18	1648.61
323.39	1548.26
323.60	1705.96
323.81	1742.82
324.03	1679.33
324.24	1660.90
324.45	1714.15
324.66	1583.08
324.88	1751.01
325.09	1820.64
325.30	1744.87
325.52	1736.68
325.73	1763.30
325.94	1638.38
326.15	1607.66
326.37	1689.57
326.58	1738.73
326.79	1865.70
327.00	1695.72
327.22	1839.08
327.43	1685.48
327.64	1617.90
327.85	1683.43
328.07	1681.38
328.28	1783.78
328.49	1738.73
328.70	1679.33
328.92	1753.06
329.13	1740.77
329.34	1789.92
329.55	1894.37
329.76	1681.38
329.98	1726.44
330.19	1718.25
330.40	1701.86
330.61	1710.05
330.83	1740.77
331.04	1701.86
331.25	1753.06
331.46	1642.47
331.68	1607.66
331.89	1777.64
332.10	1738.73
332.31	1789.92
332.52	1761.25
332.74	1775.59
332.95	1595.37
333.16	1744.87
333.37	1697.77
333.58	1748.97
333.80	1728.49
334.01	1671.14
334.22	1669.09
334.43	1640.42
334.64	1687.53
334.86	1656.81
335.07	1687.53
335.28	1843.17
335.49	1619.94
335.70	1761.25
335.92	1763.30
336.13	1859.56
336.34	1726.44
336.55	1728.49
336.76	1779.68
336.98	1611.75
337.19	1697.77
337.40	1816.55
337.61	1849.32
337.82	1683.43
338.04	1642.47
338.25	1617.90
338.46	1726.44
338.67	1691.62
338.88	1636.33
339.09	1726.44
339.31	1767.40
339.52	1640.42
339.73	1660.90
339.94	1705.96
340.15	1769.44
340.36	1646.57
340.58	1736.68
340.79	1705.96
341.00	1742.82
341.21	1673.19
341.42	1757.16
341.63	1656.81
341.85	1810.40
342.06	1765.35
342.27	1705.96
342.48	1800.16
342.69	1615.85
342.90	1771.49
343.12	1779.68
343.33	1705.96
343.54	1798.12
343.75	1763.30
343.96	1642.47
344.17	1632.23
344.38	1726.44
344.60	1626.09
344.81	1630.18
345.02	1656.81
345.23	1789.92
345.44	1736.68
345.65	1716.20
345.86	1705.96
346.07	1648.61
346.29	1732.58
346.50	1699.81
346.71	1785.83
346.92	1806.31
347.13	1826.79
347.34	1685.48
347.55	1689.57
347.76	1716.20
347.98	1601.51
348.19	1626.09
348.40	1808.36
348.61	1701.86
348.82	1763.30
349.03	1753.06
349.24	1685.48
349.45	1828.84
349.66	1550.31
349.88	1679.33
350.09	1683.43
350.30	1851.36
350.51	1777.64
350.72	1794.02
350.93	1751.01
351.14	1662.95
351.35	1699.81
351.56	1671.14
351.77	1644.52
351.99	1748.97
352.20	1730.53
352.41	1726.44
352.62	1665.00
352.83	1742.82
353.04	1732.58
353.25	1736.68
353.46	1841.12
353.67	1693.67
353.88	1628.14
354.09	1681.38
354.30	1658.85
354.52	1777.64
354.73	1685.48
354.94	1621.99
355.15	1720.29
355.36	1791.97
355.57	1650.66
355.78	1736.68
355.99	1636.33
356.20	1652.71
356.41	1791.97
356.62	1732.58
356.83	1714.15
357.04	1781.73
357.25	1609.70
357.46	1757.16
357.68	1667.05
357.89	1638.38
358.10	1691.62
358.31	1722.34
358.52	1708.01
358.73	1695.72
358.94	1630.18
359.15	1701.86
359.36	1738.73
359.57	1718.25
359.78	1810.40
359.99	1701.86
360.20	1628.14
360.41	1667.05
360.62	1718.25
360.83	1796.07
361.04	1761.25
361.25	1757.16
361.46	1753.06
361.67	1767.40
361.88	1820.64
362.09	1794.02
362.30	1751.01
362.51	1665.00
362.72	1740.77
362.93	1796.07
363.14	1708.01
363.35	1685.48
363.56	1701.86
363.78	1732.58
363.99	1779.68
364.20	1642.47
364.41	1812.45
364.62	1796.07
364.83	1857.51
365.04	1687.53
365.25	1718.25
365.46	1822.69
365.67	1660.90
365.88	1626.09
366.09	1693.67
366.30	1685.48
366.51	1748.97
366.72	1644.52
366.93	1687.53
367.14	1677.29
367.35	1808.36
367.56	1673.19
367.77	1826.79
367.98	1720.29
368.18	1695.72
368.39	1726.44
368.60	1624.04
368.81	1705.96
369.02	1705.96
369.23	1671.14
369.44	1642.47
369.65	1716.20
369.86	1773.54
370.07	1869.80
370.28	1667.05
370.49	1753.06
370.70	1755.11
370.91	1613.80
371.12	1611.75
371.33	1798.12
371.54	1689.57
371.75	1841.12
371.96	1591.27
372.17	1759.21
372.38	1615.85
372.59	1796.07
372.80	1646.57
373.01	1724.39
373.22	1714.15
373.43	1724.39
373.64	1697.77
373.85	1753.06
374.06	1855.46
374.26	1757.16
374.47	1736.68
374.68	1859.56
374.89	1681.38
375.10	1714.15
375.31	1808.36
375.52	1748.97
375.73	1724.39
375.94	1691.62
376.15	1783.78
376.36	1687.53
376.57	1716.20
376.78	1673.19
376.99	1689.57
377.20	1734.63
377.40	1685.48
377.61	1877.99
377.82	1652.71
378.03	1781.73
378.24	1746.92
378.45	1701.86
378.66	1722.34
378.87	1634.28
379.08	1617.90
379.29	1677.29
379.50	1783.78
379.71	1726.44
379.91	1767.40
380.12	1624.04
380.33	1714.15
380.54	1748.97
380.75	1699.81
380.96	1720.29
381.17	1755.11
381.38	1775.59
381.59	1791.97
381.80	1636.33
382.00	1898.47
382.21	1781.73
382.42	1681.38
382.63	1873.89
382.84	1697.77
383.05	1798.12
383.26	1855.46
383.47	1779.68
383.68	1814.50
383.88	1773.54
384.09	1837.03
384.30	1787.88
384.51	1681.38
384.72	1724.39
384.93	1568.74
385.14	1755.11
385.35	1677.29
385.55	1685.48
385.76	1802.21
385.97	1738.73
386.18	1677.29
386.39	1703.91
386.60	1677.29
386.81	1695.72
387.02	1607.66
387.22	1656.81
387.43	1769.44
387.64	1751.01
387.85	1886.18
388.06	2263.01
388.27	4372.41
388.48	6703.00
388.68	8134.53
388.89	9516.91
389.10	9682.80
389.31	8478.59
389.52	7442.32
389.73	6606.75
389.93	6188.96
390.14	5853.09
390.35	5138.35
390.56	4521.92
390.77	3635.14
390.98	2979.79
391.18	2545.63
391.39	2090.98
391.60	1914.85
391.81	1808.36
392.02	1724.39
392.23	1806.31
392.43	1710.05
392.64	1785.83
392.85	1746.92
393.06	1796.07
393.27	1701.86
393.47	1689.57
393.68	1765.35
393.89	1720.29
394.10	1812.45
394.31	1736.68
394.52	1628.14
394.72	1638.38
394.93	1855.46
395.14	1652.71
395.35	1689.57
395.56	1728.49
395.76	1771.49
395.97	1779.68
396.18	1787.88
396.39	1775.59
396.60	2078.69
396.80	1816.55
397.01	1853.41
397.22	1810.40
397.43	1822.69
397.64	1757.16
397.84	1785.83
398.05	1802.21
398.26	1730.53
398.47	1865.70
398.67	1814.50
398.88	1843.17
399.09	1763.30
399.30	1716.20
399.51	1724.39
399.71	1685.48
399.92	1734.63
400.13	1763.30
400.34	1716.20
400.54	1730.53
400.75	1761.25
400.96	1712.10
401.17	1873.89
401.37	1771.49
401.58	1691.62
401.79	1826.79
402.00	1820.64
402.21	2041.82
402.41	1974.24
402.62	2000.87
402.83	2150.37
403.04	1953.76
403.24	2058.21
403.45	1783.78
403.66	1955.81
403.87	1947.62
404.07	1933.28
404.28	1949.67
404.49	1875.94
404.70	1794.02
404.90	1808.36
405.11	1757.16
405.32	1697.77
405.52	1683.43
405.73	1652.71
405.94	1658.85
406.15	1798.12
406.35	1777.64
406.56	1658.85
406.77	1714.15
406.98	1742.82
407.18	1650.66
407.39	1765.35
407.60	1669.09
407.80	1736.68
408.01	1599.46
408.22	1738.73
408.43	1718.25
408.63	1742.82
408.84	1728.49
409.05	1789.92
409.25	1650.66
409.46	1636.33
409.67	1683.43
409.88	1665.00
410.08	1695.72
410.29	1751.01
410.50	1701.86
410.70	1738.73
410.91	1675.24
411.12	1789.92
411.32	1728.49
411.53	1761.25
411.74	1816.55
411.95	1861.60
412.15	1714.15
412.36	1796.07
412.57	1814.50
412.77	1859.56
412.98	1728.49
413.19	1701.86
413.39	1730.53
413.60	1775.59
413.81	1830.88
414.01	1650.66
414.22	1732.58
414.43	1804.26
414.63	1689.57
414.84	1806.31
415.05	1767.40
415.25	1626.09
415.46	1798.12
415.67	1671.14
415.87	1824.74
416.08	1634.28
416.29	1681.38
416.49	1718.25
416.70	1697.77
416.91	1730.53
417.11	1714.15
417.32	1746.92
417.53	1769.44
417.73	1708.01
417.94	1759.21
418.15	1759.21
418.35	1740.77
418.56	1753.06
418.77	1832.93
418.97	1734.63
419.18	1703.91
419.38	1648.61
419.59	1724.39
419.80	1841.12
420.00	1732.58
420.21	1812.45
420.42	1761.25
420.62	1761.25
420.83	1609.70
421.04	1642.47
421.24	1718.25
421.45	1650.66
421.65	1787.88
421.86	1628.14
422.07	1744.87
422.27	1757.16
422.48	1742.82
422.69	1654.76
422.89	1726.44
423.10	1720.29
423.30	1679.33
423.51	1736.68
423.72	1677.29
423.92	1765.35
424.13	1714.15
424.33	1744.87
424.54	1753.06
424.75	1710.05
424.95	1830.88
425.16	1767.40
425.36	1679.33
425.57	1783.78
425.78	1751.01
425.98	1822.69
426.19	1740.77
426.39	1671.14
426.60	1724.39
426.81	1783.78
427.01	1712.10
427.22	1660.90
427.42	1648.61
427.63	1751.01
427.83	1783.78
428.04	1816.55
428.25	1720.29
428.45	1812.45
428.66	1816.55
428.86	1693.67
429.07	1718.25
429.28	1751.01
429.48	1703.91
429.69	1691.62
429.89	1703.91
430.10	1679.33
430.30	1777.64
430.51	1763.30
430.71	1693.67
430.92	1691.62
431.13	1705.96
431.33	1765.35
431.54	1779.68
431.74	1820.64
431.95	1875.94
432.15	1689.57
432.36	1683.43
432.56	1730.53
432.77	1832.93
432.98	1800.16
433.18	1726.44
433.39	1728.49
433.59	1703.91
433.80	1800.16
434.00	1955.81
434.21	1728.49
434.41	1710.05
434.62	1865.70
434.82	1695.72
435.03	1683.43
435.23	1708.01
435.44	1650.66
435.64	1734.63
435.85	1705.96
436.06	1751.01
436.26	1859.56
436.47	1677.29
436.67	1773.54
436.88	1705.96
437.08	1851.36
437.29	1812.45
437.49	1746.92
437.70	1812.45
437.90	1779.68
438.11	1808.36
438.31	1757.16
438.52	1916.90
438.72	1839.08
438.93	1955.81
439.13	1775.59
439.34	1880.04
439.54	1722.34
439.75	1781.73
439.95	1812.45
440.16	1761.25
440.36	1771.49
440.57	1755.11
440.77	1769.44
440.98	1771.49
441.18	1773.54
441.39	1714.15
441.59	1705.96
441.80	1832.93
442.00	1808.36
442.21	1886.18
442.41	1738.73
442.62	1775.59
442.82	1662.95
443.02	1722.34
443.23	1798.12
443.43	1763.30
443.64	1814.50
443.84	1642.47
444.05	1796.07
444.25	1734.63
444.46	1708.01
444.66	1705.96
444.87	1808.36
445.07	1681.38
445.28	1781.73
445.48	1841.12
445.69	1867.75
445.89	1861.60
446.09	1777.64
446.30	2025.44
446.50	2680.79
446.71	3684.30
446.91	4272.06
447.12	4726.71
447.32	4675.51
447.53	4272.06
447.73	3864.52
447.93	3512.27
448.14	3252.17
448.34	3262.41
448.55	2926.55
448.75	2922.45
448.96	2693.08
449.16	2420.70
449.36	2275.29
449.57	2047.97
449.77	1904.61
449.98	1744.87
450.18	1763.30
450.39	1769.44
450.59	1755.11
450.79	1720.29
451.00	1687.53
451.20	1794.02
451.41	1763.30
451.61	1798.12
451.81	1714.15
452.02	1777.64
452.22	1753.06
452.43	1679.33
452.63	1689.57
452.84	1771.49
453.04	1673.19
453.24	1742.82
453.45	1736.68
453.65	1708.01
453.86	1769.44
454.06	1789.92
454.26	1685.48
454.47	1697.77
454.67	1828.84
454.87	1818.60
455.08	1740.77
455.28	1802.21
455.49	1763.30
455.69	1675.24
455.89	1853.41
456.10	1832.93
456.30	1665.00
456.51	1812.45
456.71	1755.11
456.91	1779.68
457.12	1734.63
457.32	1736.68
457.52	1705.96
457.73	1757.16
457.93	1818.60
458.14	1753.06
458.34	1656.81
458.54	1722.34
458.75	1675.24
458.95	1826.79
459.15	1765.35
459.36	1775.59
459.56	1742.82
459.76	1863.65
459.97	1781.73
460.17	1716.20
460.37	1810.40
460.58	1734.63
460.78	1828.84
460.99	1691.62
461.19	1796.07
461.39	1718.25
461.60	1722.34
461.80	1775.59
462.00	1718.25
462.21	1728.49
462.41	1691.62
462.61	1679.33
462.82	1628.14
463.02	1730.53
463.22	1699.81
463.43	1767.40
463.63	1755.11
463.83	1740.77
464.04	1765.35
464.24	1767.40
464.44	1646.57
464.64	1757.16
464.85	1753.06
465.05	1853.41
465.25	1746.92
465.46	1693.67
465.66	1738.73
465.86	1794.02
466.07	1767.40
466.27	1767.40
466.47	1683.43
466.68	1667.05
466.88	1791.97
467.08	1753.06
467.29	1757.16
467.49	1767.40
467.69	1730.53
467.89	1771.49
468.10	1732.58
468.30	1773.54
468.50	1830.88
468.71	1779.68
468.91	1566.70
469.11	1826.79
469.31	1806.31
469.52	1685.48
469.72	1851.36
469.92	1855.46
470.13	1742.82
470.33	1804.26
470.53	1791.97
470.73	2088.93
470.94	2312.16
471.14	2267.10
471.34	2545.63
471.54	2406.36
471.75	2275.29
471.95	2119.65
472.15	2093.02
472.36	2144.22
472.56	2144.22
472.76	2025.44
472.96	2000.87
473.17	1964.00
473.37	1863.65
473.57	1843.17
473.77	1808.36
473.98	1798.12
474.18	1785.83
474.38	1869.80
474.58	1689.57
474.79	1757.16
474.99	1748.97
475.19	1761.25
475.39	1671.14
475.60	1730.53
475.80	1724.39
476.00	1759.21
476.20	1736.68
476.41	1789.92
476.61	1853.41
476.81	1814.50
477.01	1691.62
477.21	1902.56
477.42	1771.49
477.62	1712.10
477.82	1812.45
478.02	1695.72
478.23	1771.49
478.43	1619.94
478.63	1714.15
478.83	1748.97
479.03	1626.09
479.24	1738.73
479.44	1853.41
479.64	1660.90
479.84	1607.66
480.04	1675.24
480.25	1751.01
480.45	1681.38
480.65	1775.59
480.85	1814.50
481.06	1667.05
481.26	1779.68
481.46	1744.87
481.66	1714.15
481.86	1683.43
482.06	1791.97
482.27	1652.71
482.47	1712.10
482.67	1751.01
482.87	1699.81
483.07	1748.97
483.28	1677.29
483.48	1714.15
483.68	1695.72
483.88	1683.43
484.08	1656.81
484.29	1693.67
484.49	1746.92
484.69	1751.01
484.89	1800.16
485.09	1765.35
485.29	1746.92
485.50	1751.01
485.70	1699.81
485.90	1726.44
486.10	1771.49
486.30	1671.14
486.50	1767.40
486.71	1734.63
486.91	1800.16
487.11	1847.27
487.31	1667.05
487.51	1767.40
487.71	1708.01
487.91	1667.05
488.12	1716.20
488.32	1640.42
488.52	1671.14
488.72	1638.38
488.92	1665.00
489.12	1791.97
489.32	1748.97
489.53	1761.25
489.73	1662.95
489.93	1853.41
490.13	1656.81
490.33	1714.15
490.53	1767.40
490.73	1837.03
490.94	1595.37
491.14	1722.34
491.34	1808.36
491.54	2154.46
491.74	2553.82
491.94	2944.98
492.14	3061.71
492.34	3078.10
492.54	2815.96
492.75	2473.95
492.95	2445.27
493.15	2367.45
493.35	2377.69
493.55	2181.09
493.75	2123.74
493.95	2158.56
494.15	1994.72
494.35	1980.39
494.56	1906.66
494.76	1800.16
494.96	1796.07
495.16	1812.45
495.36	1759.21
495.56	1714.15
495.76	1757.16
495.96	1714.15
496.16	1720.29
496.36	1822.69
496.56	1701.86
496.77	1697.77
496.97	1683.43
497.17	1863.65
497.37	1673.19
497.57	1742.82
497.77	1781.73
497.97	1695.72
498.17	1755.11
498.37	1691.62
498.57	1796.07
498.77	1683.43
498.97	1794.02
499.17	1871.84
499.38	1705.96
499.58	1806.31
499.78	1773.54
499.98	1845.22
500.18	1728.49
500.38	1722.34
500.58	1929.19
500.78	2490.33
500.98	4544.44
501.18	5844.90
501.38	6725.53
501.58	7014.29
501.78	6619.04
501.98	5466.03
502.18	4915.12
502.38	4396.99
502.58	4089.79
502.78	3737.54
502.98	3633.10
503.18	3430.35
503.38	3133.39
503.59	2871.25
503.79	2719.70
503.99	2512.86
504.19	2265.05
504.39	2220.00
504.59	2209.76
504.79	2127.84
504.99	2090.98
505.19	1920.99
505.39	1898.47
505.59	1982.43
505.79	1863.65
505.99	1796.07
506.19	1814.50
506.39	1929.19
506.59	1746.92
506.79	1773.54
506.99	1771.49
507.19	1800.16
507.39	1816.55
507.59	1619.94
507.79	1695.72
507.99	1732.58
508.19	1748.97
508.39	1675.24
508.59	1720.29
508.79	1789.92
508.99	1863.65
509.19	1724.39
509.39	1787.88
509.59	1736.68
509.79	1714.15
509.99	1755.11
510.19	1902.56
510.39	1761.25
510.59	1800.16
510.79	1730.53
510.99	1634.28
511.19	1658.85
511.39	1865.70
511.59	1740.77
511.79	1849.32
511.99	1773.54
512.19	1812.45
512.38	1808.36
512.58	1705.96
512.78	1824.74
512.98	1830.88
513.18	1820.64
513.38	1753.06
513.58	1830.88
513.78	1718.25
513.98	1751.01
514.18	1712.10
514.38	1736.68
514.58	1730.53
514.78	1660.90
514.98	1748.97
515.18	1710.05
515.38	1685.48
515.58	1820.64
515.78	1695.72
515.98	1718.25
516.18	1740.77
516.38	1751.01
516.57	1744.87
516.77	1767.40
516.97	1753.06
517.17	1755.11
517.37	1630.18
517.57	1888.23
517.77	1757.16
517.97	1712.10
518.17	1812.45
518.37	1705.96
518.57	1769.44
518.77	1693.67
518.97	1773.54
519.16	1806.31
519.36	1794.02
519.56	1693.67
519.76	1773.54
519.96	1714.15
520.16	1845.22
520.36	1665.00
520.56	1816.55
520.76	1693.67
520.96	1683.43
521.16	1820.64
521.35	1814.50
521.55	1818.60
521.75	1773.54
521.95	1697.77
522.15	1697.77
522.35	1609.70
522.55	1714.15
522.75	1812.45
522.95	1687.53
523.14	1697.77
523.34	1722.34
523.54	1753.06
523.74	1802.21
523.94	1728.49
524.14	1693.67
524.34	1722.34
524.54	1734.63
524.73	1837.03
524.93	1720.29
525.13	1759.21
525.33	1652.71
525.53	1920.99
525.73	1800.16
525.93	1771.49
526.13	1699.81
526.32	1757.16
526.52	1775.59
526.72	1726.44
526.92	1724.39
527.12	1722.34
527.32	1665.00
527.52	1730.53
527.71	1722.34
527.91	1740.77
528.11	1751.01
528.31	1765.35
528.51	1730.53
528.71	1751.01
528.90	1814.50
529.10	1806.31
529.30	1755.11
529.50	1662.95
529.70	1751.01
529.90	1740.77
530.09	1787.88
530.29	1693.67
530.49	1714.15
530.69	1939.43
530.89	1738.73
531.09	1728.49
531.28	1759.21
531.48	1812.45
531.68	1791.97
531.88	1748.97
532.08	1800.16
532.28	1755.11
532.47	1746.92
532.67	1755.11
532.87	1751.01
533.07	1662.95
533.27	1767.40
533.46	1777.64
533.66	1759.21
533.86	1730.53
534.06	1753.06
534.26	1763.30
534.45	1734.63
534.65	1812.45
534.85	1693.67
535.05	1730.53
535.25	1857.51
535.44	1677.29
535.64	1751.01
535.84	1708.01
536.04	1732.58
536.24	1763.30
536.43	1687.53
536.63	1802.21
536.83	1769.44
537.03	1765.35
537.22	1578.98
537.42	1714.15
537.62	1722.34
537.82	1769.44
538.02	1845.22
538.21	1849.32
538.41	1855.46
538.61	1697.77
538.81	1759.21
539.00	1816.55
539.20	1636.33
539.40	1665.00
539.60	1796.07
539.79	1751.01
539.99	1658.85
540.19	1771.49
540.39	1724.39
540.58	1693.67
540.78	1798.12
540.98	1775.59
541.18	1789.92
541.37	1708.01
541.57	1753.06
541.77	1742.82
541.97	1687.53
542.16	1638.38
542.36	1746.92
542.56	1701.86
542.76	1873.89
542.95	1773.54
543.15	1757.16
543.35	1775.59
543.54	1751.01
543.74	1714.15
543.94	1810.40
544.14	1724.39
544.33	1767.40
544.53	1810.40
544.73	1714.15
544.93	1787.88
545.12	1751.01
545.32	1767.40
545.52	1777.64
545.71	1662.95
545.91	1732.58
546.11	1693.67
546.30	1658.85
546.50	1691.62
546.70	1724.39
546.90	1783.78
547.09	1560.55
547.29	1732.58
547.49	1789.92
547.68	1779.68
547.88	1658.85
548.08	1769.44
548.27	2121.70
548.47	1697.77
548.67	1730.53
548.87	1783.78
549.06	1640.42
549.26	1812.45
549.46	1767.40
549.65	1718.25
549.85	1742.82
550.05	1794.02
550.24	1574.89
550.44	1701.86
550.64	1718.25
550.83	1683.43
551.03	1855.46
551.23	1763.30
551.42	1791.97
551.62	1802.21
551.82	1773.54
552.01	1730.53
552.21	1863.65
552.41	1730.53
552.60	1837.03
552.80	1718.25
553.00	1726.44
553.19	1718.25
553.39	1802.21
553.59	1677.29
553.78	1839.08
553.98	1726.44
554.17	1701.86
554.37	1724.39
554.57	1789.92
554.76	1634.28
554.96	1726.44
555.16	1757.16
555.35	1796.07
555.55	1658.85
555.75	1773.54
555.94	1701.86
556.14	1658.85
556.33	1738.73
556.53	1736.68
556.73	1705.96
556.92	1808.36
557.12	1798.12
557.32	1839.08
557.51	1855.46
557.71	1759.21
557.90	1822.69
558.10	1857.51
558.30	1710.05
558.49	1718.25
558.69	1691.62
558.88	1759.21
559.08	1759.21
559.28	1699.81
559.47	1675.24
559.67	1816.55
559.86	1888.23
560.06	1861.60
560.26	1791.97
560.45	1781.73
560.65	1808.36
560.84	1845.22
561.04	1695.72
561.24	1755.11
561.43	1681.38
561.63	1822.69
561.82	1679.33
562.02	1845.22
562.22	1685.48
562.41	1681.38
562.61	1753.06
562.80	1621.99
563.00	1869.80
563.19	1699.81
563.39	1775.59
563.59	1751.01
563.78	1681.38
563.98	1656.81
564.17	1673.19
564.37	1693.67
564.56	1705.96
564.76	1726.44
564.96	1837.03
565.15	1703.91
565.35	1890.28
565.54	1710.05
565.74	1771.49
565.93	1867.75
566.13	1794.02
566.32	1769.44
566.52	1775.59
566.71	1746.92
566.91	1742.82
567.11	1681.38
567.30	1652.71
567.50	1693.67
567.69	1751.01
567.89	1705.96
568.08	1814.50
568.28	1761.25
568.47	1701.86
568.67	1757.16
568.86	1677.29
569.06	1761.25
569.25	1775.59
569.45	1718.25
569.64	1746.92
569.84	1705.96
570.04	1804.26
570.23	1662.95
570.43	1738.73
570.62	1710.05
570.82	1853.41
571.01	1693.67
571.21	1744.87
571.40	1714.15
571.60	1814.50
571.79	1732.58
571.99	1890.28
572.18	1679.33
572.38	1771.49
572.57	1671.14
572.77	1839.08
572.96	1877.99
573.16	1759.21
573.35	1759.21
573.55	1816.55
573.74	1791.97
573.94	1708.01
574.13	1650.66
574.33	1783.78
574.52	1843.17
574.71	1728.49
574.91	1710.05
575.10	1691.62
575.30	1705.96
575.49	1748.97
575.69	1757.16
575.88	1751.01
576.08	1699.81
576.27	1822.69
576.47	1753.06
576.66	1834.98
576.86	1828.84
577.05	1845.22
577.25	1837.03
577.44	1871.84
577.64	1705.96
577.83	1775.59
578.02	1857.51
578.22	1785.83
578.41	1869.80
578.61	1724.39
578.80	1708.01
579.00	1681.38
579.19	1822.69
579.39	1808.36
579.58	1730.53
579.77	1787.88
579.97	1871.84
580.16	1859.56
580.36	1775.59
580.55	1880.04
580.75	1814.50
580.94	1759.21
581.13	1814.50
581.33	1845.22
581.52	1740.77
581.72	1841.12
581.91	1886.18
582.11	1808.36
582.30	1789.92
582.49	1765.35
582.69	1824.74
582.88	1732.58
583.08	1720.29
583.27	1837.03
583.47	1751.01
583.66	1746.92
583.85	1779.68
584.05	1751.01
584.24	1794.02
584.44	1744.87
584.63	1816.55
584.82	1894.37
585.02	1888.23
585.21	1968.10
585.41	1873.89
585.60	1853.41
585.79	1931.23
585.99	1910.75
586.18	1851.36
586.37	2222.05
586.57	3403.72
586.76	9813.87
586.96	24219.28
587.15	33986.04
587.34	40048.03
587.54	42012.03
587.73	35814.88
587.93	26101.36
588.12	21288.64
588.31	18048.75
588.51	16217.86
588.70	14954.27
588.89	13850.41
589.09	12523.33
589.28	10841.95
589.47	9340.79
589.67	7935.88
589.86	6412.19
590.06	4892.60
590.25	3932.10
590.44	3010.51
590.64	2566.10
590.83	2230.24
591.02	2064.35
591.22	1980.39
591.41	1918.95
591.60	1806.31
591.80	1951.71
591.99	1832.93
592.18	1798.12
592.38	1857.51
592.57	1779.68
592.76	1828.84
592.96	1894.37
593.15	1767.40
593.34	1810.40
593.54	1791.97
593.73	1783.78
593.92	1791.97
594.12	1779.68
594.31	1712.10
594.50	1832.93
594.70	1843.17
594.89	1935.33
595.08	1701.86
595.28	1812.45
595.47	1918.95
595.66	1826.79
595.86	1677.29
596.05	1746.92
596.24	1730.53
596.43	1740.77
596.63	1816.55
596.82	1693.67
597.01	1779.68
597.21	1832.93
597.40	1757.16
597.59	1660.90
597.79	1742.82
597.98	1771.49
598.17	1775.59
598.36	1736.68
598.56	1740.77
598.75	1712.10
598.94	1734.63
599.14	1787.88
599.33	1699.81
599.52	1777.64
599.71	1728.49
599.91	1771.49
600.10	1832.93
600.29	1779.68
600.48	1828.84
600.68	1824.74
600.87	1779.68
601.06	1724.39
601.26	1714.15
601.45	1765.35
601.64	1732.58
601.83	1820.64
602.03	1755.11
602.22	1748.97
602.41	1808.36
602.60	1873.89
602.80	1779.68
602.99	1742.82
603.18	1703.91
603.37	1712.10
603.57	1759.21
603.76	1722.34
603.95	1849.32
604.14	1705.96
604.34	1771.49
604.53	1722.34
604.72	1818.60
604.91	1834.98
605.10	1742.82
605.30	1619.94
605.49	1896.42
605.68	1759.21
605.87	1742.82
606.07	1685.48
606.26	1746.92
606.45	1798.12
606.64	1783.78
606.84	1738.73
607.03	1751.01
607.22	1765.35
607.41	1611.75
607.60	1738.73
607.80	1853.41
607.99	1753.06
608.18	1757.16
608.37	1763.30
608.56	1744.87
608.76	1794.02
608.95	1834.98
609.14	1742.82
609.33	1798.12
609.52	1828.84
609.72	1751.01
609.91	1753.06
610.10	1761.25
610.29	1777.64
610.48	1660.90
610.68	1763.30
610.87	1705.96
611.06	1783.78
611.25	1636.33
611.44	1810.40
611.63	1681.38
611.83	1804.26
612.02	1697.77
612.21	1771.49
612.40	1669.09
612.59	1685.48
612.79	1697.77
612.98	1705.96
613.17	1837.03
613.36	1810.40
613.55	1820.64
613.74	1675.24
613.93	1673.19
614.13	1738.73
614.32	1808.36
614.51	1787.88
614.70	1703.91
614.89	1636.33
615.08	1828.84
615.28	2031.58
615.47	1617.90
615.66	1718.25
615.85	1810.40
616.04	1804.26
616.23	1755.11
616.42	1763.30
616.62	1767.40
616.81	1738.73
617.00	1720.29
617.19	1740.77
617.38	1652.71
617.57	1722.34
617.76	1742.82
617.95	1804.26
618.15	1804.26
618.34	1826.79
618.53	1701.86
618.72	1861.60
618.91	1705.96
619.10	1800.16
619.29	1771.49
619.48	1732.58
619.68	1751.01
619.87	1697.77
620.06	1687.53
620.25	1761.25
620.44	1671.14
620.63	1734.63
620.82	1757.16
621.01	1732.58
621.20	1685.48
621.39	1701.86
621.59	1732.58
621.78	1718.25
621.97	1769.44
622.16	1726.44
622.35	1734.63
622.54	1753.06
622.73	1826.79
622.92	1665.00
623.11	1685.48
623.30	1775.59
623.49	1783.78
623.68	1771.49
623.88	1759.21
624.07	1701.86
624.26	1703.91
624.45	1759.21
624.64	1722.34
624.83	1796.07
625.02	1722.34
625.21	1718.25
625.40	1757.16
625.59	1849.32
625.78	1730.53
625.97	1800.16
626.16	1853.41
626.35	1695.72
626.54	1714.15
626.74	1863.65
626.93	1697.77
627.12	1662.95
627.31	1769.44
627.50	1767.40
627.69	1810.40
627.88	1710.05
628.07	1710.05
628.26	1626.09
628.45	1740.77
628.64	1697.77
628.83	1781.73
629.02	1714.15
629.21	1740.77
629.40	1773.54
629.59	1695.72
629.78	1691.62
629.97	1720.29
630.16	1783.78
630.35	1712.10
630.54	1748.97
630.73	1658.85
630.92	1689.57
631.11	1718.25
631.30	1759.21
631.49	1789.92
631.68	1779.68
631.87	1751.01
632.06	1648.61
632.25	1857.51
632.44	1677.29
632.63	1695.72
632.82	1697.77
633.01	1697.77
633.20	1755.11
633.39	1669.09
633.58	1730.53
633.77	1732.58
633.96	1769.44
634.15	1738.73
634.34	1724.39
634.53	1834.98
634.72	1681.38
634.91	1701.86
635.10	1785.83
635.29	1740.77
635.48	1714.15
635.67	1728.49
635.86	1673.19
636.05	1853.41
636.24	1824.74
636.43	1837.03
636.62	1806.31
636.81	1607.66
637.00	1759.21
637.19	1779.68
637.38	1748.97
637.57	1667.05
637.76	1683.43
637.95	1787.88
638.14	1755.11
638.33	1748.97
638.52	1722.34
638.71	1681.38
638.89	1677.29
639.08	1787.88
639.27	1802.21
639.46	1677.29
639.65	1851.36
639.84	1771.49
640.03	1753.06
640.22	1695.72
640.41	1929.19
640.60	1691.62
640.79	1687.53
640.98	1748.97
641.17	1742.82
641.36	1732.58
641.55	1701.86
641.74	1685.48
641.92	1699.81
642.11	1632.23
642.30	1761.25
642.49	1667.05
642.68	1636.33
642.87	1675.24
643.06	1794.02
643.25	1693.67
643.44	1619.94
643.63	1742.82
643.82	1761.25
644.00	1697.77
644.19	1763.30
644.38	1642.47
644.57	1734.63
644.76	1660.90
644.95	1689.57
645.14	1744.87
645.33	1751.01
645.52	1773.54
645.71	1695.72
645.89	1714.15
646.08	1677.29
646.27	1695.72
646.46	1869.80
646.65	1701.86
646.84	1771.49
647.03	1732.58
647.22	1822.69
647.40	1736.68
647.59	1624.04
647.78	1689.57
647.97	1662.95
648.16	1728.49
648.35	1738.73
648.54	1925.09
648.73	1699.81
648.91	1734.63
649.10	1722.34
649.29	1697.77
649.48	1806.31
649.67	1730.53
649.86	1781.73
650.05	1640.42
650.23	1724.39
650.42	1689.57
650.61	1800.16
650.80	1785.83
650.99	1861.60
651.18	1834.98
651.36	1728.49
651.55	1720.29
651.74	1722.34
651.93	1716.20
652.12	1652.71
652.31	1740.77
652.49	1728.49
652.68	1736.68
652.87	1751.01
653.06	1742.82
653.25	1787.88
653.44	1734.63
653.62	1732.58
653.81	1785.83
654.00	1726.44
654.19	1759.21
654.38	1892.32
654.56	1742.82
654.75	1677.29
654.94	1841.12
655.13	1720.29
655.32	1775.59
655.51	1746.92
655.69	1767.40
655.88	1826.79
656.07	1697.77
656.26	1738.73
656.45	1673.19
656.63	1726.44
656.82	1810.40
657.01	1779.68
657.20	1757.16
657.38	1783.78
657.57	1699.81
657.76	1654.76
657.95	1746.92
658.14	1734.63
658.32	1777.64
658.51	1658.85
658.70	1714.15
658.89	1761.25
659.08	1781.73
659.26	1830.88
659.45	1665.00
659.64	1703.91
659.83	1650.66
660.01	1914.85
660.20	1748.97
660.39	1853.41
660.58	1697.77
660.76	1746.92
660.95	1619.94
661.14	1710.05
661.33	1746.92
661.51	1748.97
661.70	1669.09
661.89	1738.73
662.08	1671.14
662.26	1691.62
662.45	1613.80
662.64	1849.32
662.83	1787.88
663.01	1716.20
663.20	1716.20
663.39	1916.90
663.58	1732.58
663.76	1730.53
663.95	1751.01
664.14	1679.33
664.32	1710.05
664.51	1787.88
664.70	1660.90
664.89	1841.12
665.07	1714.15
665.26	1779.68
665.45	1740.77
665.64	1742.82
665.82	1675.24
666.01	1775.59
666.20	1726.44
666.38	1812.45
666.57	1789.92
666.76	2209.76
666.95	4513.72
667.13	10450.78
667.32	15353.62
667.51	18067.18
667.69	18945.76
667.88	17540.85
668.07	12232.52
668.25	9576.30
668.44	8126.34
668.63	7264.15
668.81	6821.78
669.00	6231.97
669.19	5719.98
669.38	5060.53
669.56	4440.00
669.75	3942.34
669.94	3336.14
670.12	2858.96
670.31	2611.16
670.50	2199.52
670.68	2105.31
670.87	1968.10
671.06	1920.99
671.24	1810.40
671.43	1847.27
671.62	1814.50
671.80	1734.63
671.99	1796.07
672.18	1669.09
672.36	1763.30
672.55	1763.30
672.74	1740.77
672.92	1712.10
673.11	1761.25
673.29	1667.05
673.48	1808.36
673.67	1675.24
673.85	1703.91
674.04	1712.10
674.23	1730.53
674.41	1861.60
674.60	1673.19
674.79	1658.85
674.97	1673.19
675.16	1755.11
675.34	1806.31
675.53	1679.33
675.72	1822.69
675.90	1781.73
676.09	1736.68
676.28	1718.25
676.46	1679.33
676.65	1705.96
676.83	1638.38
677.02	1796.07
677.21	1693.67
677.39	1734.63
677.58	1677.29
677.77	1681.38
677.95	1673.19
678.14	1716.20
678.32	1804.26
678.51	1681.38
678.70	1775.59
678.88	1732.58
679.07	1685.48
679.25	1726.44
679.44	1701.86
679.63	1710.05
679.81	1753.06
680.00	1783.78
680.18	1718.25
680.37	1816.55
680.55	1730.53
680.74	1716.20
680.93	1646.57
681.11	1773.54
681.30	1736.68
681.48	1705.96
681.67	1695.72
681.85	1732.58
682.04	1689.57
682.23	1748.97
682.41	1699.81
682.60	1718.25
682.78	1675.24
682.97	1603.56
683.15	1726.44
683.34	1673.19
683.53	1796.07
683.71	1642.47
683.90	1882.08
684.08	1851.36
684.27	1667.05
684.45	1753.06
684.64	1765.35
684.82	1667.05
685.01	1748.97
685.19	1763.30
685.38	1816.55
685.57	1748.97
685.75	1560.55
685.94	1714.15
686.12	1583.08
686.31	1683.43
686.49	1822.69
686.68	1675.24
686.86	1748.97
687.05	1773.54
687.23	1853.41
687.42	1724.39
687.60	1683.43
687.79	1781.73
687.97	1804.26
688.16	1818.60
688.34	1816.55
688.53	1585.13
688.71	1738.73
688.90	1767.40
689.08	1628.14
689.27	1621.99
689.45	1712.10
689.64	1742.82
689.82	1742.82
690.01	1763.30
690.19	1734.63
690.38	1740.77
690.56	1820.64
690.75	1732.58
690.93	1607.66
691.12	1675.24
691.30	1740.77
691.49	1716.20
691.67	1681.38
691.86	1832.93
692.04	1611.75
692.23	1605.61
692.41	1724.39
692.60	1820.64
692.78	1751.01
692.97	1722.34
693.15	1738.73
693.34	1884.13
693.52	1732.58
693.71	1693.67
693.89	1716.20
694.08	1538.02
694.26	1730.53
694.44	1734.63
694.63	1771.49
694.81	1632.23
695.00	1691.62
695.18	1722.34
695.37	1873.89
695.55	1779.68
695.74	1751.01
695.92	1667.05
696.10	1761.25
696.29	1630.18
696.47	1669.09
696.66	1660.90
696.84	1665.00
697.03	1742.82
697.21	1853.41
697.40	2422.75
697.58	1865.70
697.76	1712.10
697.95	1658.85
698.13	1714.15
698.32	1656.81
698.50	1716.20
698.68	1697.77
698.87	1785.83
699.05	1798.12
699.24	1748.97
699.42	1691.62
699.61	1748.97
699.79	1738.73
699.97	1755.11
700.16	1697.77
700.34	1697.77
700.53	1763.30
700.71	1789.92
700.89	1761.25
701.08	1695.72
701.26	1787.88
701.45	2142.18
701.63	1667.05
701.81	1730.53
702.00	1644.52
702.18	1689.57
702.37	1660.90
702.55	1736.68
702.73	1695.72
702.92	1691.62
703.10	1736.68
703.28	1714.15
703.47	1673.19
703.65	1753.06
703.84	1738.73
704.02	1730.53
704.20	1810.40
704.39	1675.24
704.57	1650.66
704.75	1806.31
704.94	1794.02
705.12	1687.53
705.30	1796.07
705.49	2230.24
705.67	4466.62
705.86	9326.45
706.04	12484.42
706.22	14429.99
706.41	15181.59
706.59	13588.27
706.77	9424.75
706.96	7477.13
707.14	6221.73
707.32	5881.77
707.51	5560.24
707.69	4710.33
707.87	4315.07
708.06	3585.99
708.24	2951.12
708.42	2445.27
708.61	2242.53
708.79	1847.27
708.97	1847.27
709.16	1794.02
709.34	1798.12
709.52	1714.15
709.71	1765.35
709.89	1779.68
710.07	1640.42
710.26	1697.77
710.44	1791.97
710.62	1791.97
710.80	1726.44
710.99	1775.59
711.17	1832.93
711.35	1697.77
711.54	1742.82
711.72	1751.01
711.90	1742.82
712.09	1767.40
712.27	1656.81
712.45	1783.78
712.63	1695.72
712.82	1736.68
713.00	1740.77
713.18	1738.73
713.37	1763.30
713.55	1736.68
713.73	1693.67
713.91	1751.01
714.10	1812.45
714.28	1697.77
714.46	1710.05
714.65	1742.82
714.83	1781.73
715.01	1726.44
715.19	1730.53
715.38	1675.24
715.56	1816.55
715.74	1650.66
715.92	1697.77
716.11	1732.58
716.29	1603.56
716.47	1710.05
716.65	1662.95
716.84	1585.13
717.02	1759.21
717.20	1683.43
717.38	1638.38
717.57	1736.68
717.75	1701.86
717.93	1708.01
718.11	1705.96
718.30	1667.05
718.48	1732.58
718.66	1669.09
718.84	1933.28
719.03	1757.16
719.21	1669.09
719.39	1843.17
719.57	1773.54
719.75	1834.98
719.94	1687.53
720.12	1763.30
720.30	1718.25
720.48	1728.49
720.67	1697.77
720.85	1642.47
721.03	1746.92
721.21	1652.71
721.39	1837.03
721.58	1736.68
721.76	1755.11
721.94	1789.92
722.12	1740.77
722.30	1734.63
722.49	1763.30
722.67	1748.97
722.85	1742.82
723.03	1685.48
723.21	1634.28
723.40	1734.63
723.58	1781.73
723.76	1820.64
723.94	1744.87
724.12	1740.77
724.30	1796.07
724.49	1728.49
724.67	1693.67
724.85	1724.39
725.03	1665.00
725.21	1779.68
725.40	1890.28
725.58	1734.63
725.76	1816.55
725.94	1763.30
726.12	1650.66
726.30	1757.16
726.49	1673.19
726.67	1705.96
726.85	1773.54
727.03	1818.60
727.21	2140.13
727.39	2938.84
727.57	3723.21
727.76	4202.43
727.94	4476.86
728.12	4405.18
728.30	3614.66
728.48	3049.43
728.66	2740.18
728.84	2559.96
729.03	2248.67
729.21	2127.84
729.39	2060.26
729.57	1875.94
729.75	1871.84
729.93	1918.95
730.11	1716.20
730.30	1755.11
730.48	1701.86
730.66	1759.21
730.84	1751.01
731.02	1748.97
731.20	1675.24
731.38	1775.59
731.56	1593.32
731.74	1677.29
731.93	1722.34
732.11	1744.87
732.29	1699.81
732.47	1757.16
732.65	1753.06
732.83	1806.31
733.01	1701.86
733.19	1714.15
733.37	1759.21
733.56	1728.49
733.74	1675.24
733.92	1771.49
734.10	1613.80
734.28	1753.06
734.46	1630.18
734.64	1681.38
734.82	1755.11
735.00	1665.00
735.18	1703.91
735.36	1722.34
735.54	1775.59
735.73	1738.73
735.91	1785.83
736.09	1806.31
736.27	1683.43
736.45	1861.60
736.63	1583.08
736.81	1669.09
736.99	1763.30
737.17	1800.16
737.35	1677.29
737.53	1748.97
737.71	1701.86
737.89	1708.01
738.07	1722.34
738.25	1626.09
738.43	1619.94
738.61	1695.72
738.80	1695.72
738.98	1701.86
739.16	1755.11
739.34	1665.00
739.52	1677.29
739.70	1677.29
739.88	1681.38
740.06	1845.22
740.24	1687.53
740.42	1763.30
740.60	1644.52
740.78	1648.61
740.96	1644.52
741.14	1748.97
741.32	1734.63
741.50	1617.90
741.68	1853.41
741.86	1814.50
742.04	1681.38
742.22	1638.38
742.40	1695.72
742.58	1767.40
742.76	1708.01
742.94	1789.92
743.12	1701.86
743.30	1757.16
743.48	1705.96
743.66	1626.09
743.84	1718.25
744.02	1636.33
744.20	1685.48
744.38	1722.34
744.56	1746.92
744.74	1849.32
744.92	1722.34
745.10	1802.21
745.28	1746.92
745.46	1794.02
745.64	1748.97
745.82	1808.36
746.00	1757.16
746.18	1695.72
746.36	1703.91
746.54	1697.77
746.72	1742.82
746.90	1683.43
747.08	1769.44
747.26	1642.47
747.44	1791.97
747.62	1728.49
747.80	1755.11
747.98	1767.40
748.15	1689.57
748.33	1787.88
748.51	1685.48
748.69	1718.25
748.87	1640.42
749.05	1730.53
749.23	1757.16
749.41	1751.01
749.59	1705.96
749.77	1742.82
749.95	1679.33
750.13	1611.75
750.31	1771.49
750.49	1708.01
750.67	1751.01
750.85	1781.73
751.03	1757.16
751.20	1861.60
751.38	1744.87
751.56	1650.66
751.74	1660.90
751.92	1759.21
752.10	1656.81
752.28	1724.39
752.46	1628.14
752.64	1730.53
752.82	1718.25
753.00	1722.34
753.18	1628.14
753.35	1761.25
753.53	1724.39
753.71	1683.43
753.89	1722.34
754.07	1679.33
754.25	1837.03
754.43	1632.23
754.61	1689.57
754.79	1738.73
754.97	1718.25
755.14	1759.21
755.32	1652.71
755.50	1685.48
755.68	1685.48
755.86	1675.24
756.04	1632.23
756.22	1656.81
756.40	1732.58
756.57	1822.69
756.75	1687.53
756.93	1718.25
757.11	1791.97
757.29	1701.86
757.47	1632.23
757.65	1652.71
757.82	1574.89
758.00	1638.38
758.18	1624.04
758.36	1687.53
758.54	1769.44
758.72	1619.94
758.90	1685.48
759.07	1755.11
759.25	1687.53
759.43	1751.01
759.61	1703.91
759.79	2222.05
759.97	1769.44
760.15	1693.67
760.32	1675.24
760.50	1757.16
760.68	1826.79
760.86	1605.61
761.04	1830.88
761.22	1662.95
761.39	1695.72
761.57	1779.68
761.75	1746.92
761.93	1742.82
762.11	1720.29
762.28	1687.53
762.46	1705.96
762.64	1728.49
762.82	1619.94
763.00	1773.54
763.18	1763.30
763.35	1724.39
763.53	1681.38
763.71	1736.68
763.89	1751.01
764.07	1689.57
764.24	1744.87
764.42	1812.45
764.60	1738.73
764.78	1695.72
764.96	1646.57
765.13	1726.44
765.31	1648.61
765.49	1708.01
765.67	1724.39
765.84	1695.72
766.02	1703.91
766.20	1603.56
766.38	1783.78
766.56	1638.38
766.73	1755.11
766.91	1732.58
767.09	1789.92
767.27	1679.33
767.44	1654.76
767.62	1726.44
767.80	1818.60
767.98	1714.15
768.15	1773.54
768.33	1699.81
768.51	1703.91
768.69	1724.39
768.87	1695.72
769.04	1736.68
769.22	1894.37
769.40	1841.12
769.58	1914.85
769.75	1738.73
769.93	1787.88
770.11	1646.57
770.28	1619.94
770.46	1728.49
770.64	1738.73
770.82	1757.16
770.99	1687.53
771.17	1685.48
771.35	1648.61
771.53	1687.53
771.70	1619.94
771.88	1765.35
772.06	1734.63
772.23	1675.24
772.41	1738.73
772.59	1667.05
772.77	1699.81
772.94	1744.87
773.12	1804.26
773.30	1718.25
773.47	1751.01
773.65	1718.25
773.83	1834.98
774.01	1712.10
774.18	1574.89
774.36	1619.94
774.54	1621.99
774.71	1785.83
774.89	1619.94
775.07	1742.82
775.24	1662.95
775.42	1693.67
775.60	1814.50
775.78	1703.91
775.95	1662.95
776.13	1687.53
776.31	1542.12
776.48	1699.81
776.66	1806.31
776.84	1728.49
777.01	1675.24
777.19	1705.96
777.37	1687.53
777.54	1671.14
777.72	1769.44
777.90	1720.29
778.07	1669.09
778.25	1867.75
778.43	1810.40
778.60	1689.57
778.78	1732.58
778.96	1773.54
779.13	1681.38
779.31	1769.44
779.49	1708.01
779.66	1683.43
779.84	1763.30
780.01	1681.38
780.19	1626.09
780.37	1751.01
780.54	1779.68
780.72	1662.95
780.90	1712.10
781.07	1763.30
781.25	1705.96
781.43	1742.82
781.60	1708.01
781.78	1853.41
781.95	1667.05
782.13	1650.66
782.31	1681.38
782.48	1613.80
782.66	1740.77
782.83	1763.30
783.01	1787.88
783.19	1812.45
783.36	1681.38
783.54	1701.86
783.72	1740.77
783.89	1730.53
784.07	1619.94
784.24	1675.24
784.42	1712.10
784.60	1783.78
784.77	1773.54
784.95	1542.12
785.12	1671.14
785.30	1732.58
785.47	1699.81
785.65	1624.04
785.83	1652.71
786.00	1624.04
786.18	1689.57
786.35	1652.71
786.53	1695.72
786.71	1763.30
786.88	1683.43
787.06	1687.53
787.23	1667.05
787.41	1619.94
787.58	1710.05
787.76	1744.87
787.94	1734.63
788.11	1712.10
788.29	1697.77
788.46	1595.37
788.64	1578.98
788.81	1697.77
788.99	1701.86
789.16	1720.29
789.34	1644.52
789.52	1662.95
789.69	1632.23
789.87	1595.37
790.04	1624.04
790.22	1724.39
790.39	1847.27
790.57	1576.94
790.74	1554.41
790.92	1710.05
791.09	1636.33
791.27	1662.95
791.44	1808.36
791.62	1765.35
791.79	1761.25
791.97	1738.73
792.15	1839.08
792.32	1728.49
792.50	1738.73
792.67	1822.69
792.85	1800.16
793.02	1673.19
793.20	1746.92
793.37	1603.56
793.55	1675.24
793.72	1654.76
793.90	1728.49
794.07	1617.90
794.25	1734.63
794.42	1710.05
794.60	1677.29
794.77	1744.87
794.95	1732.58
795.12	1722.34
795.30	1693.67
795.47	1533.93
795.65	1769.44
795.82	1746.92
796.00	1650.66
796.17	1699.81
796.34	1628.14
796.52	1689.57
796.69	1763.30
796.87	1744.87
797.04	1757.16
797.22	1785.83
797.39	1697.77
797.57	1742.82
797.74	1853.41
797.92	1742.82
798.09	1662.95
798.27	1798.12
798.44	1763.30
798.62	1679.33
798.79	1746.92
798.96	1724.39
799.14	1677.29
799.31	1822.69
799.49	1699.81
799.66	1607.66
799.84	1728.49
800.01	1662.95
800.19	1693.67
800.36	1648.61
800.53	1755.11
800.71	1746.92
800.88	1763.30
801.06	1701.86
801.23	1632.23
801.41	1673.19
801.58	1624.04
801.75	1660.90
801.93	1691.62
802.10	1759.21
802.28	1728.49
802.45	1617.90
802.63	1757.16
802.80	1843.17
802.97	1720.29
803.15	1652.71
803.32	1691.62
803.50	1675.24
803.67	1695.72
803.84	1669.09
804.02	1714.15
804.19	1632.23
804.37	1642.47
804.54	1683.43
804.71	1728.49
804.89	1718.25
805.06	1681.38
805.24	1740.77
805.41	1695.72
805.58	1669.09
805.76	1873.89
805.93	1667.05
806.10	1794.02
806.28	1796.07
806.45	1718.25
806.63	1744.87
806.80	1767.40
806.97	1671.14
807.15	1697.77
807.32	1632.23
807.49	1628.14
807.67	1634.28
807.84	1773.54
808.01	1632.23
808.19	1824.74
808.36	1789.92
808.54	1712.10
808.71	1660.90
808.88	1687.53
809.06	1763.30
809.23	1787.88
809.40	1660.90
809.58	1779.68
809.75	1714.15
809.92	1617.90
810.10	1755.11
810.27	1718.25
810.44	1685.48
810.62	1830.88
810.79	1744.87
810.96	1714.15
811.14	1683.43
811.31	1771.49
811.48	1724.39
811.66	1740.77
811.83	1808.36
812.00	1761.25
812.18	1669.09
812.35	1806.31
812.52	1761.25
812.69	1660.90
812.87	1652.71
813.04	1658.85
813.21	1771.49
813.39	1724.39
813.56	1724.39
813.73	1791.97
813.91	1589.22
814.08	1724.39
814.25	1667.05
814.42	1658.85
814.60	1660.90
814.77	1751.01
814.94	1732.58
815.12	1724.39
815.29	1767.40
815.46	1695.72
815.63	1800.16
815.81	1693.67
815.98	1740.77
816.15	1779.68
816.33	1675.24
816.50	1662.95
816.67	1685.48
816.84	1714.15
817.02	1626.09
817.19	1683.43
817.36	1759.21
817.53	1718.25
817.71	1626.09
817.88	1814.50
818.05	1683.43
818.22	1658.85
818.40	1865.70
818.57	1683.43
818.74	1710.05
818.91	1701.86
819.09	1695.72
819.26	1785.83
819.43	1667.05
819.60	1679.33
819.78	1728.49
819.95	1812.45
820.12	1673.19
820.29	1740.77
820.47	1783.78
820.64	1677.29
820.81	1677.29
820.98	1689.57
821.15	1769.44
821.33	1765.35
821.50	1658.85
821.67	1767.40
821.84	1626.09
822.02	1667.05
822.19	1822.69
822.36	1636.33
822.53	1693.67
822.70	1652.71
822.88	1718.25
823.05	1763.30
823.22	1673.19
823.39	1767.40
823.56	1710.05
823.74	1923.04
823.91	1656.81
824.08	1675.24
824.25	1693.67
824.42	1740.77
824.60	1652.71
824.77	1724.39
824.94	1748.97
825.11	1765.35
825.28	1679.33
825.45	1708.01
825.63	1708.01
825.80	1673.19
825.97	1773.54
826.14	1695.72
826.31	1687.53
826.48	1822.69
826.66	1648.61
826.83	1683.43
827.00	1742.82
827.17	1660.90
827.34	1775.59
827.51	1701.86
827.69	1689.57
827.86	1677.29
828.03	1650.66
828.20	1720.29
828.37	1689.57
828.54	1683.43
828.71	1619.94
828.89	1800.16
829.06	1656.81
829.23	1810.40
829.40	1710.05
829.57	1658.85
829.74	1818.60
829.91	1667.05
830.09	1703.91
830.26	1728.49
830.43	1773.54
830.60	1697.77
830.77	1712.10
830.94	1736.68
831.11	1730.53
831.28	1712.10
831.46	1705.96
831.63	1652.71
831.80	1730.53
831.97	1626.09
832.14	1621.99
832.31	1804.26
832.48	1697.77
832.65	1734.63
832.82	1714.15
832.99	1748.97
833.17	1621.99
833.34	1800.16
833.51	1718.25
833.68	1591.27
833.85	1746.92
834.02	1601.51
834.19	1726.44
834.36	1687.53
834.53	1726.44
834.70	1765.35
834.87	1775.59
835.04	1697.77
835.22	1687.53
835.39	1624.04
835.56	1611.75
835.73	1662.95
835.90	1675.24
836.07	1667.05
836.24	1708.01
836.41	1624.04
836.58	1636.33
836.75	1806.31
836.92	1736.68
837.09	1732.58
837.26	1718.25
837.43	1785.83
837.60	1738.73
837.77	1638.38
837.94	1740.77
838.12	1794.02
838.29	1681.38
838.46	1681.38
838.63	1654.76
838.80	1701.86
838.97	1804.26
839.14	1634.28
839.31	1716.20
839.48	1722.34
839.65	1751.01
839.82	1708.01
839.99	1720.29
840.16	1791.97
840.33	1601.51
840.50	1720.29
840.67	1640.42
840.84	1587.18
841.01	1730.53
841.18	1724.39
841.35	1640.42
841.52	1787.88
841.69	1880.04
841.86	1716.20
842.03	1712.10
842.20	1843.17
842.37	1714.15
842.54	1718.25
842.71	1710.05
842.88	1628.14
843.05	1767.40
843.22	1724.39
843.39	1802.21
843.56	1611.75
843.73	1677.29
843.90	1736.68
844.07	1701.86
844.24	1724.39
844.41	1738.73
844.58	1730.53
844.75	1744.87
844.92	1759.21
845.09	1626.09
845.26	1583.08
845.43	1742.82
845.60	1746.92
845.77	1777.64
845.94	1685.48
846.10	1781.73
846.27	1654.76
846.44	1673.19
846.61	1636.33
846.78	1697.77
846.95	1722.34
847.12	1701.86
847.29	1705.96
847.46	1695.72
847.63	1742.82
847.80	1675.24
847.97	1712.10
848.14	1849.32
848.31	1705.96
848.48	1615.85
848.65	1763.30
848.82	1636.33
848.98	1830.88
849.15	1779.68
849.32	1812.45
849.49	1781.73
849.66	1685.48
849.83	1748.97
850.00	1644.52
850.17	1722.34
850.34	1691.62
850.51	1736.68
850.68	1751.01
850.85	1806.31
851.01	1779.68
851.18	1691.62
851.35	1681.38
851.52	1746.92
851.69	1796.07
851.86	1632.23
852.03	1705.96
852.20	1806.31
852.37	1722.34
852.53	1656.81
852.70	1746.92
852.87	1738.73
853.04	1730.53
853.21	1757.16
853.38	1732.58
853.55	1839.08
853.72	1746.92
853.89	1642.47
854.05	1679.33
854.22	1705.96
854.39	1640.42
854.56	1757.16
854.73	1751.01
854.90	1634.28
855.07	1730.53
855.23	1716.20
855.40	1716.20
855.57	1808.36
855.74	1648.61
855.91	1998.82
856.08	1634.28
856.25	1681.38
856.41	1619.94
856.58	1705.96
856.75	1755.11
856.92	1660.90
857.09	1701.86
857.26	1595.37
857.42	1773.54
857.59	1734.63
857.76	1650.66
857.93	1720.29
858.10	1673.19
858.27	1654.76
858.43	1681.38
858.60	1679.33
858.77	1648.61
858.94	1671.14
859.11	1771.49
859.27	1740.77
859.44	1736.68
859.61	1841.12
859.78	1681.38
859.95	1660.90
860.12	1683.43
860.28	1789.92
860.45	1779.68
860.62	1656.81
860.79	1796.07
860.95	1679.33
861.12	1632.23
861.29	1671.14
861.46	1656.81
861.63	1699.81
861.79	1730.53
861.96	1652.71
862.13	1708.01
862.30	1812.45
862.47	1669.09
862.63	1652.71
862.80	1773.54
862.97	1867.75
863.14	1705.96
863.30	1740.77
863.47	1742.82
863.64	1736.68
863.81	1794.02
863.97	1662.95
864.14	1691.62
864.31	1738.73
864.48	1732.58
864.65	1671.14
864.81	1748.97
864.98	1705.96
865.15	1681.38
865.32	1773.54
865.48	1746.92
865.65	1773.54
865.82	1638.38
865.98	1759.21
866.15	1757.16
866.32	1558.50
866.49	1746.92
866.65	1796.07
866.82	1705.96
866.99	1693.67
867.16	1716.20
867.32	1650.66
867.49	1691.62
867.66	1703.91
867.83	1624.04
867.99	1609.70
868.16	1703.91
868.33	1685.48
868.49	1671.14
868.66	1619.94
868.83	1794.02
868.99	1781.73
869.16	1728.49
869.33	1800.16
869.50	1705.96
869.66	1732.58
869.83	1636.33
870.00	1722.34
870.16	1783.78
870.33	1662.95
870.50	1712.10
870.66	1744.87
870.83	1763.30
871.00	1734.63
871.17	1763.30
871.33	1738.73
871.50	1722.34
871.67	1683.43
871.83	1740.77
872.00	1853.41
872.17	1648.61
872.33	1773.54
872.50	1779.68
872.67	1703.91
872.83	1677.29
873.00	1761.25
873.17	1660.90
873.33	1710.05
873.50	1830.88
873.67	1726.44
873.83	1685.48
874.00	1701.86
874.16	1746.92
874.33	1673.19
874.50	1693.67
874.66	1800.16
874.83	1617.90
875.00	1800.16
875.16	1757.16
875.33	1791.97
875.50	1599.46
875.66	1693.67
875.83	1746.92
875.99	1726.44
876.16	1722.34
876.33	1665.00
876.49	1705.96
876.66	1693.67
876.83	1724.39
876.99	1554.41
877.16	1722.34
877.32	1701.86
877.49	1673.19
877.66	1712.10
877.82	1828.84
877.99	1751.01
878.15	1730.53
878.32	1730.53
878.49	1720.29
878.65	1656.81
878.82	1808.36
878.98	1669.09
879.15	1779.68
879.32	1716.20
879.48	1730.53
879.65	1697.77
879.81	1716.20
879.98	1619.94
880.15	1662.95
880.31	1681.38
880.48	1705.96
880.64	1740.77
880.81	1718.25
880.97	1771.49
881.14	1751.01
881.31	1691.62
881.47	1800.16
881.64	1783.78
881.80	1654.76
881.97	1722.34
882.13	1763.30
882.30	1638.38
882.47	1656.81
882.63	1673.19
882.80	1738.73
882.96	1744.87
883.13	1822.69
883.29	1665.00
883.46	1693.67
883.62	1787.88
883.79	1691.62
883.95	1695.72
884.12	1775.59
884.29	1708.01
884.45	1775.59
884.62	1798.12
884.78	1636.33
884.95	1818.60
885.11	1683.43
885.28	1708.01
885.44	1714.15
885.61	1671.14
885.77	1775.59
885.94	1748.97
886.10	1705.96
886.27	1683.43
886.43	1810.40
886.60	1728.49
886.76	1695.72
886.93	1652.71
887.09	1734.63
887.26	1656.81
887.42	1730.53
887.59	1800.16
887.75	1806.31
887.92	1820.64
888.08	1744.87
888.25	1828.84
888.41	1701.86
888.58	1726.44
888.74	1656.81
888.91	1665.00
>>>>>End Processed Spectral Data<<<<<
