SpectraSuite Data File
++++++++++++++++++++++++++++++++++++
Date: Mon Jun 06 16:28:57 CEST 2016
User: root
Dark Spectrum Present: No
Reference Spectrum Present: No
Number of Sampled Component Spectra: 1
Spectrometers: USB4C02835
Integration Time (usec): 100000 (USB4C02835)
Spectra Averaged: 1 (USB4C02835)
Boxcar Smoothing: 0 (USB4C02835)
Correct for Electrical Dark: No (USB4C02835)
Strobe/Lamp Enabled: No (USB4C02835)
Correct for Detector Non-linearity: No (USB4C02835)
Correct for Stray Light: No (USB4C02835)
Number of Pixels in Processed Spectrum: 3648
>>>>>Begin Processed Spectral Data<<<<<
177.47	1476.59
177.69	1476.59
177.91	1476.59
178.13	1501.16
178.36	1509.35
178.58	1654.76
178.80	1775.59
179.02	1626.09
179.24	1669.09
179.46	1597.42
179.68	1677.29
179.90	1767.40
180.13	1746.92
180.35	1705.96
180.57	1675.24
180.79	1755.11
181.01	1654.76
181.23	1767.40
181.45	1769.44
181.67	1738.73
181.90	1714.15
182.12	1689.57
182.34	1601.51
182.56	1646.57
182.78	1691.62
183.00	1751.01
183.22	1722.34
183.44	1566.70
183.66	1894.37
183.89	1794.02
184.11	1626.09
184.33	1724.39
184.55	1738.73
184.77	1693.67
184.99	1771.49
185.21	1609.70
185.43	1869.80
185.65	1658.85
185.87	1734.63
186.10	1812.45
186.32	1875.94
186.54	1732.58
186.76	1730.53
186.98	1822.69
187.20	1669.09
187.42	1693.67
187.64	1701.86
187.86	1767.40
188.08	1720.29
188.30	1603.56
188.52	1662.95
188.75	1785.83
188.97	1781.73
189.19	1753.06
189.41	1734.63
189.63	1757.16
189.85	1705.96
190.07	1681.38
190.29	1628.14
190.51	1708.01
190.73	1691.62
190.95	1847.27
191.17	1740.77
191.39	1613.80
191.61	1673.19
191.84	1714.15
192.06	1742.82
192.28	1621.99
192.50	2011.11
192.72	1796.07
192.94	1609.70
193.16	1816.55
193.38	1681.38
193.60	1646.57
193.82	1712.10
194.04	1841.12
194.26	1720.29
194.48	1708.01
194.70	1677.29
194.92	1724.39
195.14	1730.53
195.36	1603.56
195.58	1791.97
195.80	1683.43
196.02	1712.10
196.24	1701.86
196.46	1697.77
196.69	1662.95
196.91	1800.16
197.13	1685.48
197.35	1677.29
197.57	1724.39
197.79	1677.29
198.01	1703.91
198.23	1701.86
198.45	1779.68
198.67	1761.25
198.89	1667.05
199.11	1640.42
199.33	1667.05
199.55	1566.70
199.77	1718.25
199.99	1814.50
200.21	1740.77
200.43	1761.25
200.65	1714.15
200.87	1654.76
201.09	1775.59
201.31	1693.67
201.53	1759.21
201.75	1730.53
201.97	1695.72
202.19	1687.53
202.41	1726.44
202.63	1839.08
202.85	1773.54
203.07	1708.01
203.29	1693.67
203.51	1634.28
203.73	1746.92
203.95	1865.70
204.17	1757.16
204.39	1693.67
204.61	1748.97
204.83	1665.00
205.05	1740.77
205.27	1683.43
205.49	1808.36
205.71	1677.29
205.93	1652.71
206.15	1691.62
206.37	1624.04
206.59	1767.40
206.81	1656.81
207.03	1646.57
207.25	1703.91
207.47	1800.16
207.69	1646.57
207.91	1853.41
208.13	1857.51
208.34	1716.20
208.56	1665.00
208.78	1746.92
209.00	1656.81
209.22	1648.61
209.44	1746.92
209.66	1724.39
209.88	1734.63
210.10	1685.48
210.32	1671.14
210.54	1775.59
210.76	1665.00
210.98	1734.63
211.20	1591.27
211.42	1751.01
211.64	1812.45
211.86	1765.35
212.08	1744.87
212.30	1767.40
212.52	1714.15
212.74	1742.82
212.96	1722.34
213.17	1804.26
213.39	1775.59
213.61	1718.25
213.83	1689.57
214.05	1658.85
214.27	1843.17
214.49	1617.90
214.71	1587.18
214.93	1781.73
215.15	1708.01
215.37	1712.10
215.59	1591.27
215.81	1720.29
216.03	1802.21
216.24	1765.35
216.46	1675.24
216.68	1669.09
216.90	1695.72
217.12	1681.38
217.34	1712.10
217.56	1708.01
217.78	1712.10
218.00	1701.86
218.22	1677.29
218.44	1722.34
218.66	1722.34
218.87	1748.97
219.09	1669.09
219.31	1718.25
219.53	1753.06
219.75	1712.10
219.97	1751.01
220.19	1710.05
220.41	1675.24
220.63	1708.01
220.85	1736.68
221.06	1687.53
221.28	1822.69
221.50	1726.44
221.72	1716.20
221.94	1705.96
222.16	1726.44
222.38	1722.34
222.60	1783.78
222.82	1759.21
223.03	1769.44
223.25	1632.23
223.47	1744.87
223.69	1787.88
223.91	1712.10
224.13	1732.58
224.35	1681.38
224.57	1755.11
224.78	1736.68
225.00	1665.00
225.22	1681.38
225.44	1695.72
225.66	1802.21
225.88	1734.63
226.10	1699.81
226.32	1720.29
226.53	1804.26
226.75	1650.66
226.97	1656.81
227.19	1771.49
227.41	1660.90
227.63	1671.14
227.85	1593.32
228.06	1746.92
228.28	1722.34
228.50	1810.40
228.72	1703.91
228.94	1656.81
229.16	1593.32
229.37	1617.90
229.59	1656.81
229.81	1771.49
230.03	1644.52
230.25	1621.99
230.47	1642.47
230.69	1697.77
230.90	1738.73
231.12	1619.94
231.34	1767.40
231.56	1701.86
231.78	1613.80
232.00	1763.30
232.21	1687.53
232.43	1705.96
232.65	1601.51
232.87	1652.71
233.09	1673.19
233.30	1710.05
233.52	1843.17
233.74	1705.96
233.96	1767.40
234.18	1724.39
234.40	1687.53
234.61	1837.03
234.83	1626.09
235.05	1611.75
235.27	1869.80
235.49	1759.21
235.70	1738.73
235.92	1746.92
236.14	1716.20
236.36	1925.09
236.58	1712.10
236.79	1708.01
237.01	1650.66
237.23	1677.29
237.45	1839.08
237.67	1716.20
237.88	1751.01
238.10	1814.50
238.32	1630.18
238.54	1646.57
238.76	1693.67
238.97	1658.85
239.19	1683.43
239.41	1808.36
239.63	1814.50
239.85	1718.25
240.06	1689.57
240.28	1701.86
240.50	1712.10
240.72	1697.77
240.93	1714.15
241.15	1761.25
241.37	1787.88
241.59	1837.03
241.81	1695.72
242.02	1710.05
242.24	1742.82
242.46	1773.54
242.68	1669.09
242.89	1714.15
243.11	1716.20
243.33	1775.59
243.55	1710.05
243.76	1728.49
243.98	1679.33
244.20	1751.01
244.42	1730.53
244.64	1705.96
244.85	1638.38
245.07	1636.33
245.29	1787.88
245.51	1757.16
245.72	1685.48
245.94	1783.78
246.16	1697.77
246.38	1724.39
246.59	1685.48
246.81	1763.30
247.03	1642.47
247.24	1587.18
247.46	1656.81
247.68	1703.91
247.90	1746.92
248.11	1697.77
248.33	1828.84
248.55	1789.92
248.77	1757.16
248.98	1689.57
249.20	1841.12
249.42	1654.76
249.64	1763.30
249.85	1656.81
250.07	1779.68
250.29	1658.85
250.50	1832.93
250.72	1648.61
250.94	1757.16
251.16	1826.79
251.37	1726.44
251.59	1757.16
251.81	1738.73
252.02	1826.79
252.24	1712.10
252.46	1724.39
252.68	1658.85
252.89	1712.10
253.11	1705.96
253.33	1861.60
253.54	1808.36
253.76	1636.33
253.98	1669.09
254.20	1685.48
254.41	1642.47
254.63	1714.15
254.85	1628.14
255.06	1693.67
255.28	1753.06
255.50	1734.63
255.71	1718.25
255.93	1662.95
256.15	1665.00
256.36	1705.96
256.58	1638.38
256.80	1779.68
257.02	1689.57
257.23	1699.81
257.45	1693.67
257.67	1744.87
257.88	1646.57
258.10	1716.20
258.32	1718.25
258.53	1701.86
258.75	1775.59
258.97	1648.61
259.18	1800.16
259.40	1716.20
259.62	1798.12
259.83	1763.30
260.05	1753.06
260.27	1984.48
260.48	1697.77
260.70	1710.05
260.92	1646.57
261.13	1673.19
261.35	1728.49
261.57	1736.68
261.78	1601.51
262.00	1722.34
262.22	1796.07
262.43	1673.19
262.65	1587.18
262.86	1658.85
263.08	1783.78
263.30	1662.95
263.51	1593.32
263.73	1648.61
263.95	1753.06
264.16	1681.38
264.38	1677.29
264.60	1691.62
264.81	1636.33
265.03	1777.64
265.25	1708.01
265.46	1718.25
265.68	1830.88
265.89	1695.72
266.11	1656.81
266.33	1746.92
266.54	1691.62
266.76	1720.29
266.98	1769.44
267.19	1802.21
267.41	1800.16
267.62	1744.87
267.84	1685.48
268.06	1767.40
268.27	1800.16
268.49	1783.78
268.70	1777.64
268.92	1615.85
269.14	1603.56
269.35	1576.94
269.57	1726.44
269.79	1753.06
270.00	1626.09
270.22	1710.05
270.43	1681.38
270.65	1636.33
270.87	1732.58
271.08	1753.06
271.30	1724.39
271.51	1710.05
271.73	1751.01
271.95	1738.73
272.16	1773.54
272.38	1734.63
272.59	1705.96
272.81	1734.63
273.02	1773.54
273.24	1779.68
273.46	1701.86
273.67	1638.38
273.89	1656.81
274.10	1640.42
274.32	1814.50
274.54	1759.21
274.75	1742.82
274.97	1681.38
275.18	1734.63
275.40	1708.01
275.61	1632.23
275.83	1703.91
276.05	1621.99
276.26	1642.47
276.48	1751.01
276.69	1660.90
276.91	1665.00
277.12	1828.84
277.34	1785.83
277.55	1773.54
277.77	1626.09
277.99	1621.99
278.20	1671.14
278.42	1595.37
278.63	1699.81
278.85	1665.00
279.06	1585.13
279.28	1716.20
279.49	1675.24
279.71	1822.69
279.93	1648.61
280.14	1673.19
280.36	1650.66
280.57	1699.81
280.79	1796.07
281.00	1650.66
281.22	1693.67
281.43	1828.84
281.65	1599.46
281.86	1638.38
282.08	1697.77
282.29	1818.60
282.51	1665.00
282.73	1640.42
282.94	1581.03
283.16	1728.49
283.37	1783.78
283.59	1701.86
283.80	1742.82
284.02	1738.73
284.23	1636.33
284.45	1665.00
284.66	1638.38
284.88	1693.67
285.09	1714.15
285.31	1828.84
285.52	1742.82
285.74	1609.70
285.95	1746.92
286.17	1785.83
286.38	1791.97
286.60	1710.05
286.81	1734.63
287.03	1804.26
287.24	1775.59
287.46	1748.97
287.67	1699.81
287.89	1843.17
288.10	1677.29
288.32	1708.01
288.53	1800.16
288.75	1681.38
288.96	1808.36
289.18	1677.29
289.39	1775.59
289.61	1814.50
289.82	1808.36
290.04	1705.96
290.25	1570.79
290.47	1714.15
290.68	1714.15
290.90	1847.27
291.11	1650.66
291.33	1736.68
291.54	1693.67
291.76	1734.63
291.97	1742.82
292.18	1660.90
292.40	1669.09
292.61	1689.57
292.83	1918.95
293.04	1691.62
293.26	1662.95
293.47	1720.29
293.69	1572.84
293.90	1763.30
294.12	1771.49
294.33	1765.35
294.55	1691.62
294.76	1716.20
294.97	1765.35
295.19	1751.01
295.40	1683.43
295.62	1693.67
295.83	1771.49
296.05	1648.61
296.26	1718.25
296.48	1677.29
296.69	1794.02
296.90	1691.62
297.12	1755.11
297.33	1789.92
297.55	1689.57
297.76	1755.11
297.98	1763.30
298.19	1660.90
298.41	1689.57
298.62	1607.66
298.83	1765.35
299.05	1712.10
299.26	1722.34
299.48	1632.23
299.69	1791.97
299.90	1716.20
300.12	1673.19
300.33	1667.05
300.55	1710.05
300.76	1845.22
300.98	1617.90
301.19	1746.92
301.40	1742.82
301.62	1691.62
301.83	1665.00
302.05	1740.77
302.26	1734.63
302.47	1675.24
302.69	1738.73
302.90	1699.81
303.12	1546.22
303.33	1734.63
303.54	1857.51
303.76	1734.63
303.97	1675.24
304.19	1816.55
304.40	1628.14
304.61	1742.82
304.83	1877.99
305.04	1773.54
305.26	1791.97
305.47	1597.42
305.68	1736.68
305.90	1603.56
306.11	1726.44
306.33	1669.09
306.54	1687.53
306.75	1644.52
306.97	1640.42
307.18	1742.82
307.39	1757.16
307.61	1794.02
307.82	1757.16
308.04	1734.63
308.25	1685.48
308.46	1740.77
308.68	1654.76
308.89	1718.25
309.10	1849.32
309.32	1681.38
309.53	1634.28
309.74	1767.40
309.96	1650.66
310.17	1794.02
310.39	1781.73
310.60	1646.57
310.81	1662.95
311.03	1673.19
311.24	1730.53
311.45	1730.53
311.67	1791.97
311.88	1767.40
312.09	1722.34
312.31	1656.81
312.52	1726.44
312.73	1738.73
312.95	1554.41
313.16	1677.29
313.37	1789.92
313.59	1816.55
313.80	1683.43
314.01	1861.60
314.23	1720.29
314.44	1617.90
314.65	1587.18
314.87	1652.71
315.08	1738.73
315.29	1697.77
315.51	1589.22
315.72	1681.38
315.93	1804.26
316.15	1763.30
316.36	1722.34
316.57	1746.92
316.79	1771.49
317.00	1675.24
317.21	1681.38
317.43	1705.96
317.64	1677.29
317.85	1650.66
318.07	1697.77
318.28	1726.44
318.49	1845.22
318.70	1953.76
318.92	1818.60
319.13	1839.08
319.34	1845.22
319.56	1818.60
319.77	1783.78
319.98	1820.64
320.20	1791.97
320.41	1732.58
320.62	1740.77
320.83	1587.18
321.05	1828.84
321.26	1714.15
321.47	1736.68
321.69	1736.68
321.90	1671.14
322.11	1718.25
322.32	1748.97
322.54	1763.30
322.75	1662.95
322.96	1777.64
323.18	1619.94
323.39	1675.24
323.60	1744.87
323.81	1855.46
324.03	1660.90
324.24	1691.62
324.45	1744.87
324.66	1660.90
324.88	1730.53
325.09	1753.06
325.30	1685.48
325.52	1728.49
325.73	1613.80
325.94	1632.23
326.15	1656.81
326.37	1740.77
326.58	1781.73
326.79	1765.35
327.00	1703.91
327.22	1826.79
327.43	1660.90
327.64	1636.33
327.85	1734.63
328.07	1746.92
328.28	1796.07
328.49	1697.77
328.70	1763.30
328.92	1667.05
329.13	1675.24
329.34	1789.92
329.55	1789.92
329.76	1677.29
329.98	1720.29
330.19	1841.12
330.40	1751.01
330.61	1693.67
330.83	1755.11
331.04	1683.43
331.25	1718.25
331.46	1667.05
331.68	1685.48
331.89	1841.12
332.10	1769.44
332.31	1630.18
332.52	1705.96
332.74	1724.39
332.95	1650.66
333.16	1791.97
333.37	1703.91
333.58	1712.10
333.80	1738.73
334.01	1609.70
334.22	1755.11
334.43	1685.48
334.64	1648.61
334.86	1576.94
335.07	1695.72
335.28	1779.68
335.49	1642.47
335.70	1728.49
335.92	1783.78
336.13	1716.20
336.34	1777.64
336.55	1660.90
336.76	1738.73
336.98	1619.94
337.19	1712.10
337.40	1763.30
337.61	1857.51
337.82	1685.48
338.04	1783.78
338.25	1683.43
338.46	1632.23
338.67	1679.33
338.88	1689.57
339.09	1609.70
339.31	1691.62
339.52	1640.42
339.73	1626.09
339.94	1722.34
340.15	1828.84
340.36	1683.43
340.58	1660.90
340.79	1619.94
341.00	1783.78
341.21	1701.86
341.42	1783.78
341.63	1738.73
341.85	1796.07
342.06	1783.78
342.27	1650.66
342.48	1742.82
342.69	1628.14
342.90	1738.73
343.12	1693.67
343.33	1636.33
343.54	1761.25
343.75	1808.36
343.96	1705.96
344.17	1605.61
344.38	1695.72
344.60	1658.85
344.81	1621.99
345.02	1705.96
345.23	1740.77
345.44	1781.73
345.65	1734.63
345.86	1738.73
346.07	1681.38
346.29	1726.44
346.50	1685.48
346.71	1759.21
346.92	1806.31
347.13	1742.82
347.34	1652.71
347.55	1652.71
347.76	1736.68
347.98	1705.96
348.19	1732.58
348.40	1837.03
348.61	1656.81
348.82	1834.98
349.03	1742.82
349.24	1669.09
349.45	1837.03
349.66	1736.68
349.88	1748.97
350.09	1671.14
350.30	1800.16
350.51	1781.73
350.72	1683.43
350.93	1728.49
351.14	1669.09
351.35	1755.11
351.56	1722.34
351.77	1652.71
351.99	1734.63
352.20	1773.54
352.41	1718.25
352.62	1601.51
352.83	1712.10
353.04	1742.82
353.25	1634.28
353.46	1769.44
353.67	1736.68
353.88	1634.28
354.09	1761.25
354.30	1687.53
354.52	1728.49
354.73	1677.29
354.94	1701.86
355.15	1703.91
355.36	1822.69
355.57	1669.09
355.78	1730.53
355.99	1693.67
356.20	1652.71
356.41	1751.01
356.62	1791.97
356.83	1730.53
357.04	1730.53
357.25	1705.96
357.46	1662.95
357.68	1658.85
357.89	1695.72
358.10	1759.21
358.31	1697.77
358.52	1724.39
358.73	1621.99
358.94	1699.81
359.15	1679.33
359.36	1734.63
359.57	1755.11
359.78	1691.62
359.99	1791.97
360.20	1699.81
360.41	1644.52
360.62	1834.98
360.83	1751.01
361.04	1722.34
361.25	1742.82
361.46	1794.02
361.67	1677.29
361.88	1785.83
362.09	1773.54
362.30	1710.05
362.51	1695.72
362.72	1691.62
362.93	1761.25
363.14	1716.20
363.35	1722.34
363.56	1669.09
363.78	1767.40
363.99	1740.77
364.20	1636.33
364.41	1757.16
364.62	1753.06
364.83	1705.96
365.04	1607.66
365.25	1728.49
365.46	1740.77
365.67	1695.72
365.88	1660.90
366.09	1693.67
366.30	1667.05
366.51	1763.30
366.72	1636.33
366.93	1751.01
367.14	1726.44
367.35	1767.40
367.56	1736.68
367.77	1810.40
367.98	1683.43
368.18	1744.87
368.39	1769.44
368.60	1632.23
368.81	1716.20
369.02	1718.25
369.23	1759.21
369.44	1656.81
369.65	1716.20
369.86	1738.73
370.07	1689.57
370.28	1687.53
370.49	1742.82
370.70	1728.49
370.91	1683.43
371.12	1667.05
371.33	1794.02
371.54	1703.91
371.75	1892.32
371.96	1619.94
372.17	1675.24
372.38	1681.38
372.59	1802.21
372.80	1671.14
373.01	1710.05
373.22	1714.15
373.43	1703.91
373.64	1624.04
373.85	1769.44
374.06	1890.28
374.26	1777.64
374.47	1718.25
374.68	1816.55
374.89	1773.54
375.10	1791.97
375.31	1794.02
375.52	1675.24
375.73	1755.11
375.94	1726.44
376.15	1785.83
376.36	1660.90
376.57	1634.28
376.78	1726.44
376.99	1734.63
377.20	1812.45
377.40	1685.48
377.61	1789.92
377.82	1675.24
378.03	1796.07
378.24	1800.16
378.45	1697.77
378.66	1757.16
378.87	1734.63
379.08	1611.75
379.29	1685.48
379.50	1773.54
379.71	1632.23
379.91	1796.07
380.12	1705.96
380.33	1773.54
380.54	1781.73
380.75	1669.09
380.96	1662.95
381.17	1677.29
381.38	1683.43
381.59	1724.39
381.80	1652.71
382.00	1820.64
382.21	1738.73
382.42	1841.12
382.63	1808.36
382.84	1728.49
383.05	1767.40
383.26	1808.36
383.47	1697.77
383.68	1734.63
383.88	1710.05
384.09	1775.59
384.30	1841.12
384.51	1755.11
384.72	1646.57
384.93	1671.14
385.14	1726.44
385.35	1751.01
385.55	1689.57
385.76	1691.62
385.97	1796.07
386.18	1650.66
386.39	1740.77
386.60	1740.77
386.81	1808.36
387.02	1710.05
387.22	1669.09
387.43	1732.58
387.64	1804.26
387.85	1869.80
388.06	2183.13
388.27	4222.91
388.48	6621.08
388.68	8218.50
388.89	9496.43
389.10	9830.25
389.31	8513.41
389.52	7632.78
389.73	6588.32
389.93	6236.06
390.14	5920.68
390.35	5201.84
390.56	4564.92
390.77	3661.77
390.98	3053.52
391.18	2486.23
391.39	2166.75
391.60	1820.64
391.81	1855.46
392.02	1720.29
392.23	1894.37
392.43	1777.64
392.64	1746.92
392.85	1787.88
393.06	1837.03
393.27	1800.16
393.47	1689.57
393.68	1718.25
393.89	1681.38
394.10	1732.58
394.31	1712.10
394.52	1677.29
394.72	1705.96
394.93	1945.57
395.14	1662.95
395.35	1685.48
395.56	1691.62
395.76	1746.92
395.97	1798.12
396.18	1863.65
396.39	1808.36
396.60	2066.40
396.80	1873.89
397.01	1839.08
397.22	1914.85
397.43	1777.64
397.64	1751.01
397.84	1730.53
398.05	1888.23
398.26	1660.90
398.47	1804.26
398.67	1785.83
398.88	1718.25
399.09	1740.77
399.30	1652.71
399.51	1781.73
399.71	1679.33
399.92	1716.20
400.13	1746.92
400.34	1710.05
400.54	1705.96
400.75	1820.64
400.96	1693.67
401.17	1757.16
401.37	1716.20
401.58	1730.53
401.79	1746.92
402.00	1970.15
402.21	1998.82
402.41	1937.38
402.62	1951.71
402.83	1953.76
403.04	1937.38
403.24	2101.22
403.45	1802.21
403.66	1830.88
403.87	1875.94
404.07	1951.71
404.28	1957.86
404.49	1814.50
404.70	1759.21
404.90	1843.17
405.11	1736.68
405.32	1701.86
405.52	1775.59
405.73	1687.53
405.94	1632.23
406.15	1736.68
406.35	1736.68
406.56	1759.21
406.77	1667.05
406.98	1771.49
407.18	1751.01
407.39	1837.03
407.60	1787.88
407.80	1734.63
408.01	1642.47
408.22	1720.29
408.43	1636.33
408.63	1812.45
408.84	1673.19
409.05	1804.26
409.25	1681.38
409.46	1617.90
409.67	1695.72
409.88	1732.58
410.08	1740.77
410.29	1693.67
410.50	1724.39
410.70	1724.39
410.91	1710.05
411.12	1687.53
411.32	1716.20
411.53	1701.86
411.74	1828.84
411.95	1828.84
412.15	1775.59
412.36	1837.03
412.57	1744.87
412.77	1828.84
412.98	1722.34
413.19	1660.90
413.39	1671.14
413.60	1736.68
413.81	1771.49
414.01	1658.85
414.22	1687.53
414.43	1867.75
414.63	1720.29
414.84	1746.92
415.05	1826.79
415.25	1675.24
415.46	1767.40
415.67	1738.73
415.87	1689.57
416.08	1718.25
416.29	1701.86
416.49	1705.96
416.70	1710.05
416.91	1701.86
417.11	1648.61
417.32	1828.84
417.53	1759.21
417.73	1718.25
417.94	1652.71
418.15	1701.86
418.35	1679.33
418.56	1708.01
418.77	1806.31
418.97	1667.05
419.18	1736.68
419.38	1601.51
419.59	1705.96
419.80	1777.64
420.00	1703.91
420.21	1669.09
420.42	1828.84
420.62	1724.39
420.83	1712.10
421.04	1697.77
421.24	1660.90
421.45	1703.91
421.65	1767.40
421.86	1718.25
422.07	1757.16
422.27	1685.48
422.48	1732.58
422.69	1665.00
422.89	1761.25
423.10	1728.49
423.30	1636.33
423.51	1779.68
423.72	1697.77
423.92	1775.59
424.13	1599.46
424.33	1697.77
424.54	1738.73
424.75	1673.19
424.95	1796.07
425.16	1746.92
425.36	1632.23
425.57	1726.44
425.78	1773.54
425.98	1783.78
426.19	1724.39
426.39	1619.94
426.60	1734.63
426.81	1837.03
427.01	1701.86
427.22	1652.71
427.42	1607.66
427.63	1689.57
427.83	1773.54
428.04	1822.69
428.25	1775.59
428.45	1863.65
428.66	1681.38
428.86	1771.49
429.07	1708.01
429.28	1769.44
429.48	1726.44
429.69	1599.46
429.89	1654.76
430.10	1705.96
430.30	1755.11
430.51	1759.21
430.71	1662.95
430.92	1685.48
431.13	1660.90
431.33	1757.16
431.54	1687.53
431.74	1853.41
431.95	1818.60
432.15	1619.94
432.36	1828.84
432.56	1724.39
432.77	1744.87
432.98	1853.41
433.18	1738.73
433.39	1746.92
433.59	1685.48
433.80	1890.28
434.00	1890.28
434.21	1687.53
434.41	1712.10
434.62	1826.79
434.82	1689.57
435.03	1671.14
435.23	1705.96
435.44	1587.18
435.64	1679.33
435.85	1685.48
436.06	1837.03
436.26	1761.25
436.47	1761.25
436.67	1632.23
436.88	1718.25
437.08	1734.63
437.29	1832.93
437.49	1734.63
437.70	1822.69
437.90	1689.57
438.11	1851.36
438.31	1746.92
438.52	1873.89
438.72	1888.23
438.93	1910.75
439.13	1849.32
439.34	1822.69
439.54	1765.35
439.75	1808.36
439.95	1789.92
440.16	1757.16
440.36	1767.40
440.57	1779.68
440.77	1779.68
440.98	1742.82
441.18	1875.94
441.39	1693.67
441.59	1683.43
441.80	1906.66
442.00	1712.10
442.21	1822.69
442.41	1683.43
442.62	1853.41
442.82	1646.57
443.02	1730.53
443.23	1773.54
443.43	1720.29
443.64	1783.78
443.84	1665.00
444.05	1865.70
444.25	1769.44
444.46	1736.68
444.66	1763.30
444.87	1863.65
445.07	1624.04
445.28	1691.62
445.48	1853.41
445.69	1757.16
445.89	1898.47
446.09	1744.87
446.30	2052.06
446.50	2691.03
446.71	3774.41
446.91	4476.86
447.12	4749.24
447.32	4890.55
447.53	4302.78
447.73	3852.23
447.93	3583.95
448.14	3354.57
448.34	3239.89
448.55	2889.68
448.75	2770.90
448.96	2705.37
449.16	2496.47
449.36	2322.40
449.57	2039.78
449.77	1923.04
449.98	1730.53
450.18	1886.18
450.39	1863.65
450.59	1822.69
450.79	1697.77
451.00	1781.73
451.20	1810.40
451.41	1691.62
451.61	1783.78
451.81	1730.53
452.02	1755.11
452.22	1722.34
452.43	1773.54
452.63	1728.49
452.84	1697.77
453.04	1753.06
453.24	1771.49
453.45	1742.82
453.65	1695.72
453.86	1806.31
454.06	1746.92
454.26	1736.68
454.47	1755.11
454.67	1826.79
454.87	1724.39
455.08	1708.01
455.28	1832.93
455.49	1753.06
455.69	1636.33
455.89	1841.12
456.10	1826.79
456.30	1791.97
456.51	1812.45
456.71	1781.73
456.91	1763.30
457.12	1794.02
457.32	1773.54
457.52	1718.25
457.73	1800.16
457.93	1832.93
458.14	1712.10
458.34	1689.57
458.54	1732.58
458.75	1740.77
458.95	1773.54
459.15	1746.92
459.36	1789.92
459.56	1787.88
459.76	1906.66
459.97	1703.91
460.17	1636.33
460.37	1781.73
460.58	1748.97
460.78	1732.58
460.99	1740.77
461.19	1769.44
461.39	1751.01
461.60	1738.73
461.80	1736.68
462.00	1726.44
462.21	1777.64
462.41	1673.19
462.61	1665.00
462.82	1669.09
463.02	1763.30
463.22	1781.73
463.43	1828.84
463.63	1820.64
463.83	1824.74
464.04	1789.92
464.24	1716.20
464.44	1611.75
464.64	1779.68
464.85	1843.17
465.05	1718.25
465.25	1728.49
465.46	1705.96
465.66	1796.07
465.86	1767.40
466.07	1771.49
466.27	1787.88
466.47	1683.43
466.68	1720.29
466.88	1771.49
467.08	1746.92
467.29	1765.35
467.49	1771.49
467.69	1726.44
467.89	1746.92
468.10	1703.91
468.30	1738.73
468.50	1810.40
468.71	1796.07
468.91	1599.46
469.11	1880.04
469.31	1730.53
469.52	1710.05
469.72	1837.03
469.92	1837.03
470.13	1689.57
470.33	1732.58
470.53	1785.83
470.73	2125.79
470.94	2283.49
471.14	2379.74
471.34	2502.62
471.54	2381.79
471.75	2328.54
471.95	2228.19
472.15	2125.79
472.36	2093.02
472.56	1998.82
472.76	2060.26
472.96	2027.49
473.17	1947.62
473.37	1953.76
473.57	1802.21
473.77	1832.93
473.98	1771.49
474.18	1656.81
474.38	1933.28
474.58	1718.25
474.79	1720.29
474.99	1724.39
475.19	1746.92
475.39	1699.81
475.60	1789.92
475.80	1722.34
476.00	1781.73
476.20	1716.20
476.41	1732.58
476.61	1843.17
476.81	1802.21
477.01	1763.30
477.21	1826.79
477.42	1851.36
477.62	1714.15
477.82	1806.31
478.02	1665.00
478.23	1746.92
478.43	1710.05
478.63	1738.73
478.83	1730.53
479.03	1718.25
479.24	1877.99
479.44	1794.02
479.64	1712.10
479.84	1685.48
480.04	1665.00
480.25	1820.64
480.45	1703.91
480.65	1763.30
480.85	1783.78
481.06	1714.15
481.26	1685.48
481.46	1781.73
481.66	1777.64
481.86	1710.05
482.06	1826.79
482.27	1728.49
482.47	1705.96
482.67	1800.16
482.87	1665.00
483.07	1783.78
483.28	1697.77
483.48	1740.77
483.68	1720.29
483.88	1695.72
484.08	1619.94
484.29	1636.33
484.49	1759.21
484.69	1714.15
484.89	1759.21
485.09	1773.54
485.29	1837.03
485.50	1861.60
485.70	1730.53
485.90	1837.03
486.10	1746.92
486.30	1794.02
486.50	1841.12
486.71	1724.39
486.91	1800.16
487.11	1849.32
487.31	1667.05
487.51	1689.57
487.71	1701.86
487.91	1691.62
488.12	1738.73
488.32	1599.46
488.52	1767.40
488.72	1632.23
488.92	1800.16
489.12	1804.26
489.32	1779.68
489.53	1757.16
489.73	1630.18
489.93	1816.55
490.13	1728.49
490.33	1689.57
490.53	1722.34
490.73	1736.68
490.94	1703.91
491.14	1763.30
491.34	1894.37
491.54	2172.89
491.74	2566.10
491.94	3026.90
492.14	3125.20
492.34	3080.14
492.54	2748.37
492.75	2426.84
492.95	2525.15
493.15	2340.83
493.35	2213.85
493.55	2267.10
493.75	2195.42
493.95	2107.36
494.15	2029.54
494.35	1896.42
494.56	1853.41
494.76	1802.21
494.96	1794.02
495.16	1781.73
495.36	1720.29
495.56	1751.01
495.76	1740.77
495.96	1759.21
496.16	1740.77
496.36	1853.41
496.56	1722.34
496.77	1644.52
496.97	1714.15
497.17	1810.40
497.37	1619.94
497.57	1755.11
497.77	1695.72
497.97	1705.96
498.17	1669.09
498.37	1738.73
498.57	1771.49
498.77	1712.10
498.97	1748.97
499.17	1853.41
499.38	1677.29
499.58	1742.82
499.78	1777.64
499.98	1839.08
500.18	1710.05
500.38	1722.34
500.58	1904.61
500.78	2592.73
500.98	4630.46
501.18	5902.25
501.38	6756.25
501.58	6963.09
501.78	6694.81
501.98	5525.42
502.18	4937.65
502.38	4378.56
502.58	4122.56
502.78	3901.38
502.98	3626.95
503.18	3499.98
503.38	3151.82
503.59	2858.96
503.79	2678.74
503.99	2508.76
504.19	2273.25
504.39	2226.14
504.59	2183.13
504.79	2123.74
504.99	2070.50
505.19	1974.24
505.39	1906.66
505.59	1904.61
505.79	1888.23
505.99	1810.40
506.19	1810.40
506.39	1892.32
506.59	1771.49
506.79	1738.73
506.99	1742.82
507.19	1783.78
507.39	1826.79
507.59	1685.48
507.79	1738.73
507.99	1665.00
508.19	1705.96
508.39	1761.25
508.59	1800.16
508.79	1841.12
508.99	1804.26
509.19	1693.67
509.39	1771.49
509.59	1656.81
509.79	1634.28
509.99	1716.20
510.19	1789.92
510.39	1753.06
510.59	1705.96
510.79	1671.14
510.99	1650.66
511.19	1751.01
511.39	1796.07
511.59	1779.68
511.79	1810.40
511.99	1755.11
512.19	1812.45
512.38	1677.29
512.58	1744.87
512.78	1783.78
512.98	1830.88
513.18	1796.07
513.38	1601.51
513.58	1794.02
513.78	1720.29
513.98	1806.31
514.18	1710.05
514.38	1738.73
514.58	1757.16
514.78	1734.63
514.98	1755.11
515.18	1757.16
515.38	1679.33
515.58	1826.79
515.78	1685.48
515.98	1794.02
516.18	1759.21
516.38	1685.48
516.57	1783.78
516.77	1730.53
516.97	1810.40
517.17	1691.62
517.37	1556.46
517.57	1843.17
517.77	1730.53
517.97	1675.24
518.17	1771.49
518.37	1712.10
518.57	1718.25
518.77	1703.91
518.97	1660.90
519.16	1744.87
519.36	1802.21
519.56	1724.39
519.76	1744.87
519.96	1828.84
520.16	1857.51
520.36	1714.15
520.56	1748.97
520.76	1665.00
520.96	1757.16
521.16	1783.78
521.35	1757.16
521.55	1849.32
521.75	1742.82
521.95	1705.96
522.15	1738.73
522.35	1591.27
522.55	1677.29
522.75	1732.58
522.95	1689.57
523.14	1673.19
523.34	1779.68
523.54	1675.24
523.74	1794.02
523.94	1783.78
524.14	1642.47
524.34	1705.96
524.54	1843.17
524.73	1740.77
524.93	1730.53
525.13	1708.01
525.33	1759.21
525.53	1853.41
525.73	1845.22
525.93	1751.01
526.13	1712.10
526.32	1677.29
526.52	1849.32
526.72	1834.98
526.92	1798.12
527.12	1736.68
527.32	1636.33
527.52	1736.68
527.71	1708.01
527.91	1689.57
528.11	1708.01
528.31	1693.67
528.51	1703.91
528.71	1757.16
528.90	1783.78
529.10	1828.84
529.30	1826.79
529.50	1589.22
529.70	1699.81
529.90	1685.48
530.09	1693.67
530.29	1669.09
530.49	1746.92
530.69	1896.42
530.89	1757.16
531.09	1861.60
531.28	1732.58
531.48	1781.73
531.68	1699.81
531.88	1796.07
532.08	1769.44
532.28	1685.48
532.47	1773.54
532.67	1773.54
532.87	1730.53
533.07	1724.39
533.27	1855.46
533.46	1773.54
533.66	1787.88
533.86	1781.73
534.06	1718.25
534.26	1695.72
534.45	1681.38
534.65	1810.40
534.85	1755.11
535.05	1658.85
535.25	1824.74
535.44	1687.53
535.64	1843.17
535.84	1718.25
536.04	1673.19
536.24	1755.11
536.43	1671.14
536.63	1794.02
536.83	1687.53
537.03	1646.57
537.22	1599.46
537.42	1703.91
537.62	1722.34
537.82	1652.71
538.02	1804.26
538.21	1785.83
538.41	1888.23
538.61	1765.35
538.81	1654.76
539.00	1851.36
539.20	1632.23
539.40	1759.21
539.60	1705.96
539.79	1798.12
539.99	1728.49
540.19	1705.96
540.39	1734.63
540.58	1769.44
540.78	1828.84
540.98	1830.88
541.18	1828.84
541.37	1794.02
541.57	1736.68
541.77	1802.21
541.97	1718.25
542.16	1677.29
542.36	1710.05
542.56	1779.68
542.76	1791.97
542.95	1748.97
543.15	1746.92
543.35	1841.12
543.54	1722.34
543.74	1701.86
543.94	1791.97
544.14	1738.73
544.33	1830.88
544.53	1705.96
544.73	1708.01
544.93	1722.34
545.12	1689.57
545.32	1777.64
545.52	1755.11
545.71	1640.42
545.91	1697.77
546.11	1697.77
546.30	1744.87
546.50	1703.91
546.70	1771.49
546.90	1849.32
547.09	1624.04
547.29	1736.68
547.49	1789.92
547.68	1730.53
547.88	1742.82
548.08	1818.60
548.27	2232.29
548.47	1673.19
548.67	1726.44
548.87	1732.58
549.06	1730.53
549.26	1796.07
549.46	1765.35
549.65	1724.39
549.85	1789.92
550.05	1767.40
550.24	1611.75
550.44	1744.87
550.64	1744.87
550.83	1771.49
551.03	1791.97
551.23	1820.64
551.42	1755.11
551.62	1763.30
551.82	1720.29
552.01	1673.19
552.21	1808.36
552.41	1687.53
552.60	1773.54
552.80	1800.16
553.00	1681.38
553.19	1746.92
553.39	1791.97
553.59	1609.70
553.78	1742.82
553.98	1767.40
554.17	1660.90
554.37	1751.01
554.57	1783.78
554.76	1675.24
554.96	1761.25
555.16	1800.16
555.35	1767.40
555.55	1779.68
555.75	1781.73
555.94	1722.34
556.14	1642.47
556.33	1826.79
556.53	1765.35
556.73	1816.55
556.92	1804.26
557.12	1787.88
557.32	1779.68
557.51	1814.50
557.71	1767.40
557.90	1857.51
558.10	1873.89
558.30	1724.39
558.49	1794.02
558.69	1794.02
558.88	1765.35
559.08	1726.44
559.28	1722.34
559.47	1773.54
559.67	1763.30
559.86	1843.17
560.06	1781.73
560.26	1806.31
560.45	1824.74
560.65	1787.88
560.84	1781.73
561.04	1736.68
561.24	1714.15
561.43	1746.92
561.63	1765.35
561.82	1759.21
562.02	1736.68
562.22	1730.53
562.41	1693.67
562.61	1742.82
562.80	1763.30
563.00	1853.41
563.19	1738.73
563.39	1746.92
563.59	1730.53
563.78	1755.11
563.98	1683.43
564.17	1757.16
564.37	1638.38
564.56	1748.97
564.76	1679.33
564.96	1806.31
565.15	1732.58
565.35	1884.13
565.54	1693.67
565.74	1777.64
565.93	1705.96
566.13	1791.97
566.32	1720.29
566.52	1746.92
566.71	1742.82
566.91	1767.40
567.11	1794.02
567.30	1660.90
567.50	1740.77
567.69	1779.68
567.89	1675.24
568.08	1726.44
568.28	1746.92
568.47	1687.53
568.67	1736.68
568.86	1726.44
569.06	1714.15
569.25	1689.57
569.45	1705.96
569.64	1720.29
569.84	1787.88
570.04	1794.02
570.23	1763.30
570.43	1763.30
570.62	1753.06
570.82	1832.93
571.01	1763.30
571.21	1796.07
571.40	1673.19
571.60	1810.40
571.79	1839.08
571.99	1734.63
572.18	1650.66
572.38	1763.30
572.57	1748.97
572.77	1773.54
572.96	1855.46
573.16	1740.77
573.35	1769.44
573.55	1855.46
573.74	1804.26
573.94	1785.83
574.13	1710.05
574.33	1828.84
574.52	1853.41
574.71	1699.81
574.91	1738.73
575.10	1691.62
575.30	1669.09
575.49	1722.34
575.69	1726.44
575.88	1771.49
576.08	1669.09
576.27	1828.84
576.47	1736.68
576.66	1834.98
576.86	1800.16
577.05	1798.12
577.25	1851.36
577.44	1832.93
577.64	1736.68
577.83	1777.64
578.02	1800.16
578.22	1843.17
578.41	1871.84
578.61	1742.82
578.80	1685.48
579.00	1783.78
579.19	1759.21
579.39	1794.02
579.58	1847.27
579.77	1845.22
579.97	1767.40
580.16	1892.32
580.36	1808.36
580.55	1943.52
580.75	1871.84
580.94	1775.59
581.13	1886.18
581.33	1898.47
581.52	1798.12
581.72	1937.38
581.91	1853.41
582.11	1767.40
582.30	1734.63
582.49	1781.73
582.69	1824.74
582.88	1806.31
583.08	1785.83
583.27	1785.83
583.47	1748.97
583.66	1708.01
583.85	1734.63
584.05	1775.59
584.24	1806.31
584.44	1808.36
584.63	1798.12
584.82	1845.22
585.02	1791.97
585.21	1824.74
585.41	1767.40
585.60	1740.77
585.79	1925.09
585.99	1916.90
586.18	1865.70
586.37	2275.29
586.57	3387.34
586.76	10094.44
586.96	24282.77
587.15	34209.27
587.34	39998.88
587.54	41811.33
587.73	36445.65
587.93	26271.34
588.12	20971.20
588.31	18425.57
588.51	16256.78
588.70	15124.25
588.89	13979.43
589.09	12382.02
589.28	10823.51
589.47	9441.14
589.67	7923.59
589.86	6467.49
590.06	4843.45
590.25	3749.83
590.44	3121.10
590.64	2531.29
590.83	2205.66
591.02	2095.07
591.22	1920.99
591.41	1939.43
591.60	1783.78
591.80	1959.91
591.99	1763.30
592.18	1875.94
592.38	1865.70
592.57	1765.35
592.76	1783.78
592.96	1787.88
593.15	1824.74
593.34	1857.51
593.54	1791.97
593.73	1828.84
593.92	1771.49
594.12	1814.50
594.31	1804.26
594.50	1843.17
594.70	1767.40
594.89	1855.46
595.08	1701.86
595.28	1816.55
595.47	1888.23
595.66	1771.49
595.86	1724.39
596.05	1730.53
596.24	1818.60
596.43	1820.64
596.63	1839.08
596.82	1746.92
597.01	1771.49
597.21	1869.80
597.40	1820.64
597.59	1800.16
597.79	1738.73
597.98	1771.49
598.17	1746.92
598.36	1865.70
598.56	1771.49
598.75	1662.95
598.94	1738.73
599.14	1757.16
599.33	1703.91
599.52	1798.12
599.71	1787.88
599.91	1777.64
600.10	1806.31
600.29	1755.11
600.48	1796.07
600.68	1730.53
600.87	1740.77
601.06	1712.10
601.26	1722.34
601.45	1851.36
601.64	1671.14
601.83	1779.68
602.03	1748.97
602.22	1650.66
602.41	1742.82
602.60	1902.56
602.80	1794.02
602.99	1787.88
603.18	1757.16
603.37	1722.34
603.57	1763.30
603.76	1734.63
603.95	1771.49
604.14	1742.82
604.34	1710.05
604.53	1675.24
604.72	1701.86
604.91	1789.92
605.10	1814.50
605.30	1656.81
605.49	1877.99
605.68	1814.50
605.87	1787.88
606.07	1656.81
606.26	1734.63
606.45	1802.21
606.64	1845.22
606.84	1763.30
607.03	1767.40
607.22	1746.92
607.41	1691.62
607.60	1767.40
607.80	1736.68
607.99	1677.29
608.18	1771.49
608.37	1730.53
608.56	1740.77
608.76	1845.22
608.95	1871.84
609.14	1751.01
609.33	1765.35
609.52	1808.36
609.72	1738.73
609.91	1794.02
610.10	1718.25
610.29	1824.74
610.48	1802.21
610.68	1679.33
610.87	1726.44
611.06	1775.59
611.25	1671.14
611.44	1771.49
611.63	1757.16
611.83	1826.79
612.02	1699.81
612.21	1865.70
612.40	1665.00
612.59	1701.86
612.79	1736.68
612.98	1695.72
613.17	1875.94
613.36	1785.83
613.55	1834.98
613.74	1714.15
613.93	1701.86
614.13	1662.95
614.32	1751.01
614.51	1806.31
614.70	1671.14
614.89	1681.38
615.08	1714.15
615.28	2029.54
615.47	1636.33
615.66	1787.88
615.85	1708.01
616.04	1769.44
616.23	1722.34
616.42	1746.92
616.62	1763.30
616.81	1771.49
617.00	1826.79
617.19	1800.16
617.38	1677.29
617.57	1787.88
617.76	1701.86
617.95	1763.30
618.15	1677.29
618.34	1716.20
618.53	1691.62
618.72	1834.98
618.91	1763.30
619.10	1847.27
619.29	1794.02
619.48	1765.35
619.68	1722.34
619.87	1761.25
620.06	1701.86
620.25	1834.98
620.44	1730.53
620.63	1734.63
620.82	1734.63
621.01	1767.40
621.20	1777.64
621.39	1746.92
621.59	1722.34
621.78	1740.77
621.97	1734.63
622.16	1767.40
622.35	1701.86
622.54	1837.03
622.73	1841.12
622.92	1761.25
623.11	1703.91
623.30	1685.48
623.49	1751.01
623.68	1689.57
623.88	1697.77
624.07	1701.86
624.26	1722.34
624.45	1720.29
624.64	1695.72
624.83	1810.40
625.02	1660.90
625.21	1796.07
625.40	1710.05
625.59	1746.92
625.78	1701.86
625.97	1902.56
626.16	1773.54
626.35	1798.12
626.54	1769.44
626.74	1789.92
626.93	1705.96
627.12	1687.53
627.31	1794.02
627.50	1710.05
627.69	1746.92
627.88	1656.81
628.07	1665.00
628.26	1581.03
628.45	1703.91
628.64	1669.09
628.83	1734.63
629.02	1681.38
629.21	1738.73
629.40	1730.53
629.59	1662.95
629.78	1695.72
629.97	1775.59
630.16	1677.29
630.35	1673.19
630.54	1757.16
630.73	1720.29
630.92	1724.39
631.11	1734.63
631.30	1740.77
631.49	1746.92
631.68	1746.92
631.87	1718.25
632.06	1656.81
632.25	1867.75
632.44	1642.47
632.63	1695.72
632.82	1691.62
633.01	1601.51
633.20	1761.25
633.39	1652.71
633.58	1658.85
633.77	1728.49
633.96	1710.05
634.15	1783.78
634.34	1781.73
634.53	1742.82
634.72	1656.81
634.91	1656.81
635.10	1751.01
635.29	1757.16
635.48	1812.45
635.67	1656.81
635.86	1683.43
636.05	1785.83
636.24	1761.25
636.43	1796.07
636.62	1699.81
636.81	1574.89
637.00	1769.44
637.19	1759.21
637.38	1757.16
637.57	1705.96
637.76	1755.11
637.95	1794.02
638.14	1673.19
638.33	1804.26
638.52	1683.43
638.71	1632.23
638.89	1636.33
639.08	1800.16
639.27	1808.36
639.46	1705.96
639.65	1834.98
639.84	1708.01
640.03	1804.26
640.22	1710.05
640.41	1914.85
640.60	1683.43
640.79	1763.30
640.98	1636.33
641.17	1732.58
641.36	1767.40
641.55	1662.95
641.74	1695.72
641.92	1714.15
642.11	1693.67
642.30	1722.34
642.49	1658.85
642.68	1742.82
642.87	1757.16
643.06	1796.07
643.25	1656.81
643.44	1687.53
643.63	1732.58
643.82	1738.73
644.00	1652.71
644.19	1689.57
644.38	1669.09
644.57	1785.83
644.76	1673.19
644.95	1689.57
645.14	1665.00
645.33	1705.96
645.52	1755.11
645.71	1695.72
645.89	1763.30
646.08	1759.21
646.27	1732.58
646.46	1841.12
646.65	1714.15
646.84	1701.86
647.03	1648.61
647.22	1798.12
647.40	1738.73
647.59	1673.19
647.78	1646.57
647.97	1667.05
648.16	1597.42
648.35	1839.08
648.54	1714.15
648.73	1685.48
648.91	1822.69
649.10	1771.49
649.29	1765.35
649.48	1693.67
649.67	1765.35
649.86	1675.24
650.05	1705.96
650.23	1769.44
650.42	1665.00
650.61	1826.79
650.80	1779.68
650.99	1867.75
651.18	1791.97
651.36	1751.01
651.55	1699.81
651.74	1769.44
651.93	1677.29
652.12	1718.25
652.31	1714.15
652.49	1736.68
652.68	1617.90
652.87	1787.88
653.06	1679.33
653.25	1812.45
653.44	1773.54
653.62	1787.88
653.81	1734.63
654.00	1722.34
654.19	1734.63
654.38	1877.99
654.56	1832.93
654.75	1740.77
654.94	1798.12
655.13	1699.81
655.32	1642.47
655.51	1796.07
655.69	1705.96
655.88	1701.86
656.07	1703.91
656.26	1779.68
656.45	1701.86
656.63	1718.25
656.82	1765.35
657.01	1773.54
657.20	1669.09
657.38	1826.79
657.57	1697.77
657.76	1660.90
657.95	1779.68
658.14	1710.05
658.32	1794.02
658.51	1634.28
658.70	1781.73
658.89	1703.91
659.08	1824.74
659.26	1896.42
659.45	1695.72
659.64	1832.93
659.83	1554.41
660.01	1884.13
660.20	1755.11
660.39	1767.40
660.58	1658.85
660.76	1742.82
660.95	1677.29
661.14	1802.21
661.33	1669.09
661.51	1697.77
661.70	1738.73
661.89	1708.01
662.08	1746.92
662.26	1734.63
662.45	1665.00
662.64	1857.51
662.83	1783.78
663.01	1665.00
663.20	1720.29
663.39	1808.36
663.58	1761.25
663.76	1730.53
663.95	1802.21
664.14	1652.71
664.32	1726.44
664.51	1691.62
664.70	1650.66
664.89	1810.40
665.07	1687.53
665.26	1775.59
665.45	1646.57
665.64	1734.63
665.82	1751.01
666.01	1761.25
666.20	1687.53
666.38	1851.36
666.57	1791.97
666.76	2189.28
666.95	4423.61
667.13	10362.72
667.32	15327.00
667.51	17618.68
667.69	18853.60
667.88	17542.90
668.07	12291.91
668.25	9449.33
668.44	8081.28
668.63	7253.91
668.81	6805.40
669.00	6154.15
669.19	5695.40
669.38	5060.53
669.56	4536.25
669.75	3977.16
669.94	3364.81
670.12	2910.16
670.31	2609.11
670.50	2224.09
670.68	2074.59
670.87	1941.47
671.06	1902.56
671.24	1757.16
671.43	1804.26
671.62	1724.39
671.80	1644.52
671.99	1703.91
672.18	1681.38
672.36	1769.44
672.55	1808.36
672.74	1693.67
672.92	1669.09
673.11	1781.73
673.29	1722.34
673.48	1691.62
673.67	1669.09
673.85	1816.55
674.04	1679.33
674.23	1748.97
674.41	1804.26
674.60	1677.29
674.79	1632.23
674.97	1726.44
675.16	1751.01
675.34	1839.08
675.53	1681.38
675.72	1759.21
675.90	1849.32
676.09	1656.81
676.28	1699.81
676.46	1652.71
676.65	1808.36
676.83	1732.58
677.02	1724.39
677.21	1736.68
677.39	1726.44
677.58	1722.34
677.77	1667.05
677.95	1691.62
678.14	1718.25
678.32	1660.90
678.51	1730.53
678.70	1777.64
678.88	1740.77
679.07	1748.97
679.25	1675.24
679.44	1685.48
679.63	1726.44
679.81	1757.16
680.00	1753.06
680.18	1816.55
680.37	1812.45
680.55	1806.31
680.74	1671.14
680.93	1662.95
681.11	1730.53
681.30	1691.62
681.48	1763.30
681.67	1755.11
681.85	1728.49
682.04	1671.14
682.23	1757.16
682.41	1736.68
682.60	1662.95
682.78	1693.67
682.97	1609.70
683.15	1728.49
683.34	1742.82
683.53	1744.87
683.71	1724.39
683.90	1794.02
684.08	1800.16
684.27	1783.78
684.45	1730.53
684.64	1845.22
684.82	1677.29
685.01	1718.25
685.19	1689.57
685.38	1837.03
685.57	1771.49
685.75	1607.66
685.94	1693.67
686.12	1662.95
686.31	1728.49
686.49	1771.49
686.68	1632.23
686.86	1677.29
687.05	1730.53
687.23	1806.31
687.42	1675.24
687.60	1650.66
687.79	1738.73
687.97	1712.10
688.16	1716.20
688.34	1759.21
688.53	1558.50
688.71	1751.01
688.90	1783.78
689.08	1697.77
689.27	1638.38
689.45	1710.05
689.64	1703.91
689.82	1679.33
690.01	1771.49
690.19	1757.16
690.38	1744.87
690.56	1794.02
690.75	1697.77
690.93	1746.92
691.12	1681.38
691.30	1718.25
691.49	1705.96
691.67	1714.15
691.86	1791.97
692.04	1673.19
692.23	1669.09
692.41	1769.44
692.60	1796.07
692.78	1781.73
692.97	1734.63
693.15	1652.71
693.34	1787.88
693.52	1740.77
693.71	1755.11
693.89	1660.90
694.08	1583.08
694.26	1734.63
694.44	1761.25
694.63	1767.40
694.81	1581.03
695.00	1712.10
695.18	1779.68
695.37	1912.80
695.55	1728.49
695.74	1689.57
695.92	1732.58
696.10	1677.29
696.29	1630.18
696.47	1697.77
696.66	1677.29
696.84	1673.19
697.03	1699.81
697.21	1875.94
697.40	2344.92
697.58	1802.21
697.76	1646.57
697.95	1669.09
698.13	1716.20
698.32	1724.39
698.50	1738.73
698.68	1755.11
698.87	1834.98
699.05	1751.01
699.24	1724.39
699.42	1677.29
699.61	1755.11
699.79	1751.01
699.97	1710.05
700.16	1673.19
700.34	1671.14
700.53	1720.29
700.71	1849.32
700.89	1726.44
701.08	1738.73
701.26	1787.88
701.45	2086.88
701.63	1742.82
701.81	1699.81
702.00	1765.35
702.18	1691.62
702.37	1671.14
702.55	1832.93
702.73	1685.48
702.92	1630.18
703.10	1693.67
703.28	1708.01
703.47	1665.00
703.65	1742.82
703.84	1718.25
704.02	1697.77
704.20	1880.04
704.39	1646.57
704.57	1677.29
704.75	1775.59
704.94	1775.59
705.12	1720.29
705.30	1738.73
705.49	2273.25
705.67	4444.09
705.86	9367.41
706.04	12642.11
706.22	14350.12
706.41	15130.39
706.59	13670.19
706.77	9457.52
706.96	7284.62
707.14	6713.24
707.32	6051.75
707.51	5550.00
707.69	4964.28
707.87	4163.52
708.06	3551.18
708.24	2985.94
708.42	2355.16
708.61	2258.91
708.79	1900.52
708.97	1796.07
709.16	1775.59
709.34	1791.97
709.52	1718.25
709.71	1755.11
709.89	1683.43
710.07	1665.00
710.26	1593.32
710.44	1726.44
710.62	1791.97
710.80	1767.40
710.99	1708.01
711.17	1847.27
711.35	1595.37
711.54	1701.86
711.72	1769.44
711.90	1798.12
712.09	1742.82
712.27	1662.95
712.45	1732.58
712.63	1746.92
712.82	1660.90
713.00	1722.34
713.18	1769.44
713.37	1755.11
713.55	1740.77
713.73	1740.77
713.91	1771.49
714.10	1734.63
714.28	1728.49
714.46	1785.83
714.65	1720.29
714.83	1802.21
715.01	1777.64
715.19	1691.62
715.38	1703.91
715.56	1726.44
715.74	1648.61
715.92	1615.85
716.11	1785.83
716.29	1554.41
716.47	1746.92
716.65	1691.62
716.84	1699.81
717.02	1800.16
717.20	1626.09
717.38	1789.92
717.57	1748.97
717.75	1638.38
717.93	1665.00
718.11	1765.35
718.30	1644.52
718.48	1779.68
718.66	1701.86
718.84	1830.88
719.03	1667.05
719.21	1611.75
719.39	1740.77
719.57	1806.31
719.75	1748.97
719.94	1716.20
720.12	1636.33
720.30	1773.54
720.48	1740.77
720.67	1689.57
720.85	1624.04
721.03	1652.71
721.21	1599.46
721.39	1746.92
721.58	1759.21
721.76	1718.25
721.94	1806.31
722.12	1761.25
722.30	1738.73
722.49	1679.33
722.67	1781.73
722.85	1734.63
723.03	1660.90
723.21	1675.24
723.40	1695.72
723.58	1845.22
723.76	1759.21
723.94	1796.07
724.12	1726.44
724.30	1681.38
724.49	1783.78
724.67	1730.53
724.85	1736.68
725.03	1701.86
725.21	1701.86
725.40	1839.08
725.58	1660.90
725.76	1650.66
725.94	1677.29
726.12	1714.15
726.30	1705.96
726.49	1708.01
726.67	1716.20
726.85	1771.49
727.03	1769.44
727.21	2123.74
727.39	3008.47
727.57	3854.28
727.76	4097.99
727.94	4454.33
728.12	4329.41
728.30	3690.44
728.48	2979.79
728.66	2828.24
728.84	2627.54
729.03	2308.06
729.21	2074.59
729.39	2011.11
729.57	1877.99
729.75	1802.21
729.93	1875.94
730.11	1771.49
730.30	1656.81
730.48	1787.88
730.66	1759.21
730.84	1748.97
731.02	1779.68
731.20	1697.77
731.38	1685.48
731.56	1644.52
731.74	1646.57
731.93	1785.83
732.11	1748.97
732.29	1691.62
732.47	1751.01
732.65	1753.06
732.83	1830.88
733.01	1802.21
733.19	1681.38
733.37	1738.73
733.56	1763.30
733.74	1720.29
733.92	1804.26
734.10	1660.90
734.28	1769.44
734.46	1714.15
734.64	1640.42
734.82	1648.61
735.00	1730.53
735.18	1728.49
735.36	1724.39
735.54	1724.39
735.73	1693.67
735.91	1718.25
736.09	1767.40
736.27	1718.25
736.45	1755.11
736.63	1660.90
736.81	1716.20
736.99	1695.72
737.17	1820.64
737.35	1642.47
737.53	1652.71
737.71	1691.62
737.89	1787.88
738.07	1681.38
738.25	1675.24
738.43	1703.91
738.61	1667.05
738.80	1640.42
738.98	1656.81
739.16	1665.00
739.34	1699.81
739.52	1738.73
739.70	1703.91
739.88	1705.96
740.06	1804.26
740.24	1595.37
740.42	1800.16
740.60	1626.09
740.78	1644.52
740.96	1585.13
741.14	1687.53
741.32	1759.21
741.50	1738.73
741.68	1853.41
741.86	1804.26
742.04	1669.09
742.22	1673.19
742.40	1689.57
742.58	1787.88
742.76	1634.28
742.94	1804.26
743.12	1601.51
743.30	1708.01
743.48	1744.87
743.66	1689.57
743.84	1714.15
744.02	1730.53
744.20	1701.86
744.38	1689.57
744.56	1679.33
744.74	1789.92
744.92	1746.92
745.10	1767.40
745.28	1789.92
745.46	1808.36
745.64	1714.15
745.82	1861.60
746.00	1710.05
746.18	1697.77
746.36	1667.05
746.54	1644.52
746.72	1789.92
746.90	1658.85
747.08	1742.82
747.26	1630.18
747.44	1714.15
747.62	1785.83
747.80	1697.77
747.98	1720.29
748.15	1673.19
748.33	1865.70
748.51	1738.73
748.69	1804.26
748.87	1624.04
749.05	1714.15
749.23	1691.62
749.41	1656.81
749.59	1673.19
749.77	1734.63
749.95	1665.00
750.13	1726.44
750.31	1695.72
750.49	1724.39
750.67	1730.53
750.85	1886.18
751.03	1789.92
751.20	1802.21
751.38	1669.09
751.56	1652.71
751.74	1644.52
751.92	1671.14
752.10	1687.53
752.28	1796.07
752.46	1662.95
752.64	1746.92
752.82	1691.62
753.00	1853.41
753.18	1720.29
753.35	1720.29
753.53	1642.47
753.71	1652.71
753.89	1800.16
754.07	1644.52
754.25	1779.68
754.43	1759.21
754.61	1632.23
754.79	1810.40
754.97	1705.96
755.14	1740.77
755.32	1642.47
755.50	1734.63
755.68	1732.58
755.86	1595.37
756.04	1710.05
756.22	1656.81
756.40	1746.92
756.57	1814.50
756.75	1654.76
756.93	1804.26
757.11	1677.29
757.29	1691.62
757.47	1644.52
757.65	1671.14
757.82	1630.18
758.00	1660.90
758.18	1689.57
758.36	1740.77
758.54	1794.02
758.72	1628.14
758.90	1753.06
759.07	1738.73
759.25	1740.77
759.43	1769.44
759.61	1656.81
759.79	2230.24
759.97	1810.40
760.15	1677.29
760.32	1675.24
760.50	1695.72
760.68	1820.64
760.86	1656.81
761.04	1732.58
761.22	1693.67
761.39	1751.01
761.57	1703.91
761.75	1716.20
761.93	1730.53
762.11	1652.71
762.28	1720.29
762.46	1630.18
762.64	1724.39
762.82	1630.18
763.00	1728.49
763.18	1777.64
763.35	1642.47
763.53	1757.16
763.71	1687.53
763.89	1677.29
764.07	1699.81
764.24	1642.47
764.42	1732.58
764.60	1671.14
764.78	1699.81
764.96	1757.16
765.13	1802.21
765.31	1677.29
765.49	1761.25
765.67	1691.62
765.84	1722.34
766.02	1769.44
766.20	1591.27
766.38	1722.34
766.56	1718.25
766.73	1804.26
766.91	1736.68
767.09	1751.01
767.27	1773.54
767.44	1701.86
767.62	1720.29
767.80	1689.57
767.98	1710.05
768.15	1679.33
768.33	1726.44
768.51	1734.63
768.69	1757.16
768.87	1685.48
769.04	1779.68
769.22	1820.64
769.40	1824.74
769.58	1869.80
769.75	1671.14
769.93	1820.64
770.11	1648.61
770.28	1613.80
770.46	1744.87
770.64	1718.25
770.82	1689.57
770.99	1587.18
771.17	1742.82
771.35	1701.86
771.53	1722.34
771.70	1642.47
771.88	1708.01
772.06	1665.00
772.23	1738.73
772.41	1720.29
772.59	1705.96
772.77	1642.47
772.94	1691.62
773.12	1763.30
773.30	1658.85
773.47	1738.73
773.65	1665.00
773.83	1847.27
774.01	1654.76
774.18	1646.57
774.36	1738.73
774.54	1687.53
774.71	1720.29
774.89	1601.51
775.07	1685.48
775.24	1619.94
775.42	1619.94
775.60	1882.08
775.78	1689.57
775.95	1605.61
776.13	1609.70
776.31	1591.27
776.48	1765.35
776.66	1843.17
776.84	1671.14
777.01	1667.05
777.19	1578.98
777.37	1765.35
777.54	1734.63
777.72	1777.64
777.90	1810.40
778.07	1667.05
778.25	1869.80
778.43	1726.44
778.60	1677.29
778.78	1746.92
778.96	1755.11
779.13	1765.35
779.31	1710.05
779.49	1753.06
779.66	1738.73
779.84	1640.42
780.01	1583.08
780.19	1640.42
780.37	1761.25
780.54	1755.11
780.72	1599.46
780.90	1761.25
781.07	1697.77
781.25	1652.71
781.43	1796.07
781.60	1771.49
781.78	1791.97
781.95	1697.77
782.13	1681.38
782.31	1665.00
782.48	1652.71
782.66	1703.91
782.83	1755.11
783.01	1804.26
783.19	1755.11
783.36	1738.73
783.54	1658.85
783.72	1742.82
783.89	1722.34
784.07	1677.29
784.24	1763.30
784.42	1828.84
784.60	1757.16
784.77	1697.77
784.95	1624.04
785.12	1724.39
785.30	1718.25
785.47	1691.62
785.65	1624.04
785.83	1746.92
786.00	1673.19
786.18	1732.58
786.35	1652.71
786.53	1714.15
786.71	1785.83
786.88	1738.73
787.06	1638.38
787.23	1701.86
787.41	1599.46
787.58	1740.77
787.76	1699.81
787.94	1746.92
788.11	1761.25
788.29	1689.57
788.46	1691.62
788.64	1691.62
788.81	1685.48
788.99	1697.77
789.16	1656.81
789.34	1755.11
789.52	1687.53
789.69	1673.19
789.87	1597.42
790.04	1644.52
790.22	1689.57
790.39	1779.68
790.57	1681.38
790.74	1746.92
790.92	1806.31
791.09	1677.29
791.27	1683.43
791.44	1763.30
791.62	1689.57
791.79	1781.73
791.97	1689.57
792.15	1853.41
792.32	1718.25
792.50	1695.72
792.67	1765.35
792.85	1751.01
793.02	1712.10
793.20	1730.53
793.37	1671.14
793.55	1767.40
793.72	1646.57
793.90	1812.45
794.07	1742.82
794.25	1726.44
794.42	1757.16
794.60	1636.33
794.77	1695.72
794.95	1773.54
795.12	1763.30
795.30	1658.85
795.47	1665.00
795.65	1830.88
795.82	1697.77
796.00	1703.91
796.17	1691.62
796.34	1640.42
796.52	1728.49
796.69	1710.05
796.87	1683.43
797.04	1746.92
797.22	1775.59
797.39	1726.44
797.57	1746.92
797.74	1724.39
797.92	1785.83
798.09	1710.05
798.27	1662.95
798.44	1697.77
798.62	1791.97
798.79	1794.02
798.96	1734.63
799.14	1730.53
799.31	1865.70
799.49	1705.96
799.66	1701.86
799.84	1738.73
800.01	1628.14
800.19	1665.00
800.36	1615.85
800.53	1650.66
800.71	1744.87
800.88	1830.88
801.06	1767.40
801.23	1634.28
801.41	1738.73
801.58	1685.48
801.75	1675.24
801.93	1673.19
802.10	1757.16
802.28	1613.80
802.45	1626.09
802.63	1800.16
802.80	1769.44
802.97	1695.72
803.15	1726.44
803.32	1640.42
803.50	1621.99
803.67	1673.19
803.84	1660.90
804.02	1716.20
804.19	1708.01
804.37	1640.42
804.54	1619.94
804.71	1697.77
804.89	1802.21
805.06	1660.90
805.24	1710.05
805.41	1697.77
805.58	1646.57
805.76	1800.16
805.93	1705.96
806.10	1763.30
806.28	1744.87
806.45	1773.54
806.63	1689.57
806.80	1730.53
806.97	1748.97
807.15	1708.01
807.32	1738.73
807.49	1708.01
807.67	1673.19
807.84	1757.16
808.01	1667.05
808.19	1832.93
808.36	1898.47
808.54	1632.23
808.71	1691.62
808.88	1816.55
809.06	1738.73
809.23	1796.07
809.40	1755.11
809.58	1773.54
809.75	1662.95
809.92	1695.72
810.10	1804.26
810.27	1665.00
810.44	1734.63
810.62	1763.30
810.79	1853.41
810.96	1642.47
811.14	1669.09
811.31	1791.97
811.48	1751.01
811.66	1708.01
811.83	1757.16
812.00	1763.30
812.18	1794.02
812.35	1787.88
812.52	1632.23
812.69	1734.63
812.87	1695.72
813.04	1714.15
813.21	1757.16
813.39	1697.77
813.56	1650.66
813.73	1798.12
813.91	1570.79
814.08	1794.02
814.25	1744.87
814.42	1593.32
814.60	1593.32
814.77	1683.43
814.94	1677.29
815.12	1689.57
815.29	1787.88
815.46	1679.33
815.63	1658.85
815.81	1640.42
815.98	1683.43
816.15	1673.19
816.33	1730.53
816.50	1665.00
816.67	1734.63
816.84	1714.15
817.02	1585.13
817.19	1693.67
817.36	1773.54
817.53	1689.57
817.71	1591.27
817.88	1820.64
818.05	1648.61
818.22	1656.81
818.40	1787.88
818.57	1691.62
818.74	1769.44
818.91	1740.77
819.09	1789.92
819.26	1722.34
819.43	1699.81
819.60	1669.09
819.78	1755.11
819.95	1732.58
820.12	1603.56
820.29	1802.21
820.47	1785.83
820.64	1767.40
820.81	1689.57
820.98	1669.09
821.15	1658.85
821.33	1830.88
821.50	1658.85
821.67	1726.44
821.84	1705.96
822.02	1800.16
822.19	1769.44
822.36	1687.53
822.53	1693.67
822.70	1652.71
822.88	1703.91
823.05	1814.50
823.22	1787.88
823.39	1761.25
823.56	1726.44
823.74	1734.63
823.91	1693.67
824.08	1603.56
824.25	1665.00
824.42	1783.78
824.60	1597.42
824.77	1763.30
824.94	1665.00
825.11	1748.97
825.28	1736.68
825.45	1751.01
825.63	1753.06
825.80	1673.19
825.97	1742.82
826.14	1718.25
826.31	1697.77
826.48	1673.19
826.66	1634.28
826.83	1705.96
827.00	1736.68
827.17	1665.00
827.34	1728.49
827.51	1705.96
827.69	1712.10
827.86	1642.47
828.03	1726.44
828.20	1718.25
828.37	1693.67
828.54	1685.48
828.71	1675.24
828.89	1789.92
829.06	1683.43
829.23	1804.26
829.40	1671.14
829.57	1720.29
829.74	1730.53
829.91	1662.95
830.09	1730.53
830.26	1753.06
830.43	1712.10
830.60	1669.09
830.77	1751.01
830.94	1771.49
831.11	1742.82
831.28	1724.39
831.46	1695.72
831.63	1671.14
831.80	1769.44
831.97	1751.01
832.14	1650.66
832.31	1751.01
832.48	1716.20
832.65	1730.53
832.82	1740.77
832.99	1640.42
833.17	1742.82
833.34	1757.16
833.51	1767.40
833.68	1626.09
833.85	1775.59
834.02	1710.05
834.19	1701.86
834.36	1648.61
834.53	1703.91
834.70	1783.78
834.87	1777.64
835.04	1714.15
835.22	1683.43
835.39	1744.87
835.56	1683.43
835.73	1716.20
835.90	1740.77
836.07	1669.09
836.24	1765.35
836.41	1632.23
836.58	1658.85
836.75	1753.06
836.92	1775.59
837.09	1656.81
837.26	1779.68
837.43	1765.35
837.60	1755.11
837.77	1624.04
837.94	1781.73
838.12	1705.96
838.29	1730.53
838.46	1638.38
838.63	1595.37
838.80	1787.88
838.97	1730.53
839.14	1712.10
839.31	1685.48
839.48	1705.96
839.65	1701.86
839.82	1746.92
839.99	1695.72
840.16	1732.58
840.33	1734.63
840.50	1734.63
840.67	1626.09
840.84	1595.37
841.01	1714.15
841.18	1677.29
841.35	1683.43
841.52	1830.88
841.69	1779.68
841.86	1732.58
842.03	1675.24
842.20	1746.92
842.37	1728.49
842.54	1714.15
842.71	1703.91
842.88	1673.19
843.05	1779.68
843.22	1705.96
843.39	1804.26
843.56	1673.19
843.73	1644.52
843.90	1714.15
844.07	1730.53
844.24	1730.53
844.41	1804.26
844.58	1697.77
844.75	1638.38
844.92	1728.49
845.09	1720.29
845.26	1638.38
845.43	1705.96
845.60	1703.91
845.77	1753.06
845.94	1779.68
846.10	1734.63
846.27	1632.23
846.44	1617.90
846.61	1681.38
846.78	1726.44
846.95	1791.97
847.12	1746.92
847.29	1632.23
847.46	1595.37
847.63	1718.25
847.80	1691.62
847.97	1699.81
848.14	1882.08
848.31	1660.90
848.48	1722.34
848.65	1773.54
848.82	1621.99
848.98	1824.74
849.15	1720.29
849.32	1755.11
849.49	1785.83
849.66	1710.05
849.83	1712.10
850.00	1624.04
850.17	1685.48
850.34	1673.19
850.51	1732.58
850.68	1683.43
850.85	1826.79
851.01	1791.97
851.18	1695.72
851.35	1718.25
851.52	1724.39
851.69	1781.73
851.86	1538.02
852.03	1708.01
852.20	1740.77
852.37	1693.67
852.53	1652.71
852.70	1720.29
852.87	1730.53
853.04	1775.59
853.21	1671.14
853.38	1759.21
853.55	1748.97
853.72	1814.50
853.89	1626.09
854.05	1681.38
854.22	1724.39
854.39	1726.44
854.56	1775.59
854.73	1845.22
854.90	1689.57
855.07	1738.73
855.23	1679.33
855.40	1732.58
855.57	1736.68
855.74	1591.27
855.91	1839.08
856.08	1597.42
856.25	1730.53
856.41	1675.24
856.58	1736.68
856.75	1726.44
856.92	1662.95
857.09	1710.05
857.26	1613.80
857.42	1773.54
857.59	1710.05
857.76	1759.21
857.93	1734.63
858.10	1708.01
858.27	1675.24
858.43	1759.21
858.60	1699.81
858.77	1607.66
858.94	1740.77
859.11	1787.88
859.27	1720.29
859.44	1705.96
859.61	1826.79
859.78	1716.20
859.95	1695.72
860.12	1683.43
860.28	1834.98
860.45	1748.97
860.62	1726.44
860.79	1718.25
860.95	1718.25
861.12	1603.56
861.29	1710.05
861.46	1630.18
861.63	1632.23
861.79	1787.88
861.96	1617.90
862.13	1689.57
862.30	1751.01
862.47	1689.57
862.63	1667.05
862.80	1781.73
862.97	1783.78
863.14	1757.16
863.30	1800.16
863.47	1624.04
863.64	1726.44
863.81	1732.58
863.97	1673.19
864.14	1687.53
864.31	1724.39
864.48	1775.59
864.65	1642.47
864.81	1746.92
864.98	1703.91
865.15	1679.33
865.32	1740.77
865.48	1812.45
865.65	1837.03
865.82	1697.77
865.98	1728.49
866.15	1771.49
866.32	1734.63
866.49	1732.58
866.65	1847.27
866.82	1615.85
866.99	1738.73
867.16	1708.01
867.32	1697.77
867.49	1685.48
867.66	1773.54
867.83	1619.94
867.99	1640.42
868.16	1665.00
868.33	1652.71
868.49	1675.24
868.66	1705.96
868.83	1691.62
868.99	1630.18
869.16	1748.97
869.33	1757.16
869.50	1806.31
869.66	1730.53
869.83	1667.05
870.00	1685.48
870.16	1738.73
870.33	1699.81
870.50	1765.35
870.66	1761.25
870.83	1834.98
871.00	1767.40
871.17	1693.67
871.33	1703.91
871.50	1683.43
871.67	1650.66
871.83	1609.70
872.00	1777.64
872.17	1679.33
872.33	1800.16
872.50	1794.02
872.67	1662.95
872.83	1697.77
873.00	1738.73
873.17	1740.77
873.33	1755.11
873.50	1757.16
873.67	1654.76
873.83	1734.63
874.00	1656.81
874.16	1748.97
874.33	1718.25
874.50	1685.48
874.66	1763.30
874.83	1693.67
875.00	1789.92
875.16	1769.44
875.33	1787.88
875.50	1542.12
875.66	1681.38
875.83	1681.38
875.99	1753.06
876.16	1675.24
876.33	1671.14
876.49	1689.57
876.66	1763.30
876.83	1665.00
876.99	1597.42
877.16	1658.85
877.32	1662.95
877.49	1742.82
877.66	1710.05
877.82	1720.29
877.99	1791.97
878.15	1695.72
878.32	1699.81
878.49	1652.71
878.65	1689.57
878.82	1849.32
878.98	1708.01
879.15	1693.67
879.32	1800.16
879.48	1806.31
879.65	1705.96
879.81	1628.14
879.98	1650.66
880.15	1703.91
880.31	1716.20
880.48	1658.85
880.64	1746.92
880.81	1734.63
880.97	1822.69
881.14	1777.64
881.31	1683.43
881.47	1841.12
881.64	1736.68
881.80	1687.53
881.97	1716.20
882.13	1820.64
882.30	1656.81
882.47	1730.53
882.63	1642.47
882.80	1673.19
882.96	1626.09
883.13	1822.69
883.29	1724.39
883.46	1779.68
883.62	1816.55
883.79	1689.57
883.95	1683.43
884.12	1648.61
884.29	1744.87
884.45	1648.61
884.62	1783.78
884.78	1585.13
884.95	1814.50
885.11	1679.33
885.28	1730.53
885.44	1714.15
885.61	1673.19
885.77	1812.45
885.94	1722.34
886.10	1714.15
886.27	1742.82
886.43	1779.68
886.60	1775.59
886.76	1650.66
886.93	1611.75
887.09	1697.77
887.26	1509.35
887.42	1685.48
887.59	1867.75
887.75	1775.59
887.92	1624.04
888.08	1687.53
888.25	1822.69
888.41	1738.73
888.58	1757.16
888.74	1667.05
888.91	1636.33
>>>>>End Processed Spectral Data<<<<<
