SpectraSuite Data File
++++++++++++++++++++++++++++++++++++
Date: Mon Jun 06 16:45:17 CEST 2016
User: root
Dark Spectrum Present: No
Reference Spectrum Present: No
Number of Sampled Component Spectra: 1
Spectrometers: USB4C02835
Integration Time (usec): 100000 (USB4C02835)
Spectra Averaged: 1 (USB4C02835)
Boxcar Smoothing: 0 (USB4C02835)
Correct for Electrical Dark: No (USB4C02835)
Strobe/Lamp Enabled: No (USB4C02835)
Correct for Detector Non-linearity: No (USB4C02835)
Correct for Stray Light: No (USB4C02835)
Number of Pixels in Processed Spectrum: 3648
>>>>>Begin Processed Spectral Data<<<<<
177.47	1439.72
177.69	1439.72
177.91	1439.72
178.13	1449.96
178.36	1513.45
178.58	1654.76
178.80	1794.02
179.02	1599.46
179.24	1665.00
179.46	1722.34
179.68	1736.68
179.90	1642.47
180.13	1712.10
180.35	1572.84
180.57	1708.01
180.79	1808.36
181.01	1730.53
181.23	1806.31
181.45	1808.36
181.67	1730.53
181.90	1771.49
182.12	1662.95
182.34	1624.04
182.56	1642.47
182.78	1796.07
183.00	1738.73
183.22	1740.77
183.44	1578.98
183.66	1806.31
183.89	1822.69
184.11	1693.67
184.33	1824.74
184.55	1769.44
184.77	1671.14
184.99	1660.90
185.21	1669.09
185.43	1771.49
185.65	1654.76
185.87	1769.44
186.10	1814.50
186.32	1865.70
186.54	1755.11
186.76	1816.55
186.98	1738.73
187.20	1626.09
187.42	1683.43
187.64	1730.53
187.86	1740.77
188.08	1841.12
188.30	1652.71
188.52	1697.77
188.75	1728.49
188.97	1816.55
189.19	1648.61
189.41	1675.24
189.63	1732.58
189.85	1652.71
190.07	1640.42
190.29	1665.00
190.51	1724.39
190.73	1640.42
190.95	1751.01
191.17	1658.85
191.39	1630.18
191.61	1630.18
191.84	1628.14
192.06	1757.16
192.28	1667.05
192.50	1814.50
192.72	1777.64
192.94	1714.15
193.16	1775.59
193.38	1759.21
193.60	1601.51
193.82	1722.34
194.04	1744.87
194.26	1714.15
194.48	1681.38
194.70	1671.14
194.92	1689.57
195.14	1830.88
195.36	1630.18
195.58	1626.09
195.80	1757.16
196.02	1660.90
196.24	1722.34
196.46	1738.73
196.69	1671.14
196.91	1816.55
197.13	1648.61
197.35	1679.33
197.57	1806.31
197.79	1712.10
198.01	1771.49
198.23	1751.01
198.45	1712.10
198.67	1603.56
198.89	1689.57
199.11	1787.88
199.33	1714.15
199.55	1644.52
199.77	1759.21
199.99	1775.59
200.21	1716.20
200.43	1660.90
200.65	1624.04
200.87	1599.46
201.09	1695.72
201.31	1685.48
201.53	1802.21
201.75	1687.53
201.97	1736.68
202.19	1734.63
202.41	1785.83
202.63	1863.65
202.85	1691.62
203.07	1728.49
203.29	1710.05
203.51	1615.85
203.73	1660.90
203.95	1890.28
204.17	1769.44
204.39	1847.27
204.61	1722.34
204.83	1632.23
205.05	1744.87
205.27	1742.82
205.49	1847.27
205.71	1667.05
205.93	1566.70
206.15	1671.14
206.37	1689.57
206.59	1648.61
206.81	1658.85
207.03	1603.56
207.25	1734.63
207.47	1779.68
207.69	1658.85
207.91	1787.88
208.13	1802.21
208.34	1746.92
208.56	1716.20
208.78	1787.88
209.00	1621.99
209.22	1677.29
209.44	1740.77
209.66	1662.95
209.88	1708.01
210.10	1689.57
210.32	1701.86
210.54	1855.46
210.76	1775.59
210.98	1669.09
211.20	1591.27
211.42	1703.91
211.64	1779.68
211.86	1730.53
212.08	1798.12
212.30	1796.07
212.52	1714.15
212.74	1693.67
212.96	1748.97
213.17	1787.88
213.39	1769.44
213.61	1738.73
213.83	1677.29
214.05	1654.76
214.27	1742.82
214.49	1662.95
214.71	1675.24
214.93	1740.77
215.15	1648.61
215.37	1738.73
215.59	1613.80
215.81	1773.54
216.03	1751.01
216.24	1638.38
216.46	1675.24
216.68	1746.92
216.90	1771.49
217.12	1677.29
217.34	1708.01
217.56	1820.64
217.78	1787.88
218.00	1681.38
218.22	1728.49
218.44	1787.88
218.66	1685.48
218.87	1769.44
219.09	1685.48
219.31	1748.97
219.53	1744.87
219.75	1656.81
219.97	1695.72
220.19	1740.77
220.41	1671.14
220.63	1822.69
220.85	1734.63
221.06	1718.25
221.28	1882.08
221.50	1748.97
221.72	1705.96
221.94	1798.12
222.16	1691.62
222.38	1775.59
222.60	1730.53
222.82	1673.19
223.03	1781.73
223.25	1654.76
223.47	1767.40
223.69	1757.16
223.91	1740.77
224.13	1697.77
224.35	1681.38
224.57	1781.73
224.78	1769.44
225.00	1714.15
225.22	1705.96
225.44	1658.85
225.66	1748.97
225.88	1658.85
226.10	1736.68
226.32	1748.97
226.53	1796.07
226.75	1740.77
226.97	1720.29
227.19	1675.24
227.41	1730.53
227.63	1675.24
227.85	1630.18
228.06	1753.06
228.28	1648.61
228.50	1656.81
228.72	1652.71
228.94	1701.86
229.16	1615.85
229.37	1599.46
229.59	1656.81
229.81	1751.01
230.03	1691.62
230.25	1644.52
230.47	1691.62
230.69	1697.77
230.90	1763.30
231.12	1675.24
231.34	1730.53
231.56	1781.73
231.78	1687.53
232.00	1656.81
232.21	1667.05
232.43	1699.81
232.65	1652.71
232.87	1744.87
233.09	1624.04
233.30	1644.52
233.52	1701.86
233.74	1648.61
233.96	1662.95
234.18	1660.90
234.40	1705.96
234.61	1810.40
234.83	1658.85
235.05	1624.04
235.27	1849.32
235.49	1767.40
235.70	1705.96
235.92	1757.16
236.14	1638.38
236.36	1791.97
236.58	1630.18
236.79	1820.64
237.01	1710.05
237.23	1767.40
237.45	1830.88
237.67	1638.38
237.88	1722.34
238.10	1832.93
238.32	1619.94
238.54	1697.77
238.76	1677.29
238.97	1699.81
239.19	1638.38
239.41	1781.73
239.63	1757.16
239.85	1675.24
240.06	1621.99
240.28	1673.19
240.50	1726.44
240.72	1689.57
240.93	1724.39
241.15	1763.30
241.37	1746.92
241.59	1748.97
241.81	1748.97
242.02	1675.24
242.24	1728.49
242.46	1796.07
242.68	1576.94
242.89	1699.81
243.11	1718.25
243.33	1705.96
243.55	1724.39
243.76	1781.73
243.98	1613.80
244.20	1691.62
244.42	1695.72
244.64	1697.77
244.85	1669.09
245.07	1665.00
245.29	1810.40
245.51	1787.88
245.72	1767.40
245.94	1834.98
246.16	1650.66
246.38	1798.12
246.59	1619.94
246.81	1642.47
247.03	1646.57
247.24	1546.22
247.46	1730.53
247.68	1708.01
247.90	1669.09
248.11	1665.00
248.33	1763.30
248.55	1697.77
248.77	1742.82
248.98	1757.16
249.20	1765.35
249.42	1751.01
249.64	1734.63
249.85	1718.25
250.07	1656.81
250.29	1837.03
250.50	1699.81
250.72	1603.56
250.94	1728.49
251.16	1828.84
251.37	1828.84
251.59	1796.07
251.81	1746.92
252.02	1820.64
252.24	1722.34
252.46	1775.59
252.68	1681.38
252.89	1662.95
253.11	1605.61
253.33	1722.34
253.54	1712.10
253.76	1601.51
253.98	1689.57
254.20	1736.68
254.41	1695.72
254.63	1703.91
254.85	1703.91
255.06	1673.19
255.28	1695.72
255.50	1699.81
255.71	1644.52
255.93	1669.09
256.15	1685.48
256.36	1689.57
256.58	1669.09
256.80	1740.77
257.02	1734.63
257.23	1689.57
257.45	1736.68
257.67	1685.48
257.88	1675.24
258.10	1693.67
258.32	1734.63
258.53	1699.81
258.75	1767.40
258.97	1675.24
259.18	1722.34
259.40	1677.29
259.62	1789.92
259.83	1808.36
260.05	1769.44
260.27	1966.05
260.48	1798.12
260.70	1675.24
260.92	1673.19
261.13	1705.96
261.35	1689.57
261.57	1755.11
261.78	1734.63
262.00	1667.05
262.22	1761.25
262.43	1630.18
262.65	1640.42
262.86	1712.10
263.08	1798.12
263.30	1677.29
263.51	1636.33
263.73	1699.81
263.95	1812.45
264.16	1617.90
264.38	1763.30
264.60	1744.87
264.81	1640.42
265.03	1705.96
265.25	1730.53
265.46	1679.33
265.68	1773.54
265.89	1728.49
266.11	1605.61
266.33	1796.07
266.54	1718.25
266.76	1738.73
266.98	1722.34
267.19	1806.31
267.41	1732.58
267.62	1730.53
267.84	1665.00
268.06	1765.35
268.27	1755.11
268.49	1751.01
268.70	1738.73
268.92	1683.43
269.14	1675.24
269.35	1538.02
269.57	1599.46
269.79	1757.16
270.00	1628.14
270.22	1855.46
270.43	1712.10
270.65	1505.26
270.87	1783.78
271.08	1677.29
271.30	1697.77
271.51	1763.30
271.73	1759.21
271.95	1785.83
272.16	1781.73
272.38	1599.46
272.59	1720.29
272.81	1769.44
273.02	1746.92
273.24	1738.73
273.46	1746.92
273.67	1683.43
273.89	1667.05
274.10	1695.72
274.32	1851.36
274.54	1796.07
274.75	1759.21
274.97	1699.81
275.18	1703.91
275.40	1693.67
275.61	1728.49
275.83	1779.68
276.05	1638.38
276.26	1761.25
276.48	1736.68
276.69	1718.25
276.91	1695.72
277.12	1794.02
277.34	1738.73
277.55	1834.98
277.77	1701.86
277.99	1748.97
278.20	1710.05
278.42	1607.66
278.63	1581.03
278.85	1650.66
279.06	1613.80
279.28	1730.53
279.49	1779.68
279.71	1751.01
279.93	1669.09
280.14	1744.87
280.36	1691.62
280.57	1755.11
280.79	1695.72
281.00	1662.95
281.22	1697.77
281.43	1732.58
281.65	1646.57
281.86	1748.97
282.08	1734.63
282.29	1818.60
282.51	1632.23
282.73	1603.56
282.94	1660.90
283.16	1720.29
283.37	1808.36
283.59	1691.62
283.80	1718.25
284.02	1679.33
284.23	1732.58
284.45	1681.38
284.66	1701.86
284.88	1570.79
285.09	1746.92
285.31	1705.96
285.52	1751.01
285.74	1697.77
285.95	1744.87
286.17	1746.92
286.38	1837.03
286.60	1757.16
286.81	1671.14
287.03	1689.57
287.24	1751.01
287.46	1746.92
287.67	1751.01
287.89	1812.45
288.10	1736.68
288.32	1679.33
288.53	1751.01
288.75	1689.57
288.96	1826.79
289.18	1695.72
289.39	1687.53
289.61	1726.44
289.82	1863.65
290.04	1808.36
290.25	1650.66
290.47	1732.58
290.68	1804.26
290.90	1828.84
291.11	1615.85
291.33	1667.05
291.54	1710.05
291.76	1644.52
291.97	1724.39
292.18	1677.29
292.40	1712.10
292.61	1675.24
292.83	1845.22
293.04	1763.30
293.26	1755.11
293.47	1619.94
293.69	1722.34
293.90	1691.62
294.12	1738.73
294.33	1716.20
294.55	1638.38
294.76	1787.88
294.97	1748.97
295.19	1814.50
295.40	1679.33
295.62	1773.54
295.83	1679.33
296.05	1691.62
296.26	1763.30
296.48	1712.10
296.69	1734.63
296.90	1630.18
297.12	1740.77
297.33	1757.16
297.55	1638.38
297.76	1755.11
297.98	1808.36
298.19	1779.68
298.41	1652.71
298.62	1726.44
298.83	1789.92
299.05	1722.34
299.26	1681.38
299.48	1665.00
299.69	1777.64
299.90	1681.38
300.12	1699.81
300.33	1757.16
300.55	1714.15
300.76	1755.11
300.98	1652.71
301.19	1771.49
301.40	1691.62
301.62	1660.90
301.83	1656.81
302.05	1744.87
302.26	1691.62
302.47	1732.58
302.69	1626.09
302.90	1714.15
303.12	1603.56
303.33	1828.84
303.54	1896.42
303.76	1679.33
303.97	1613.80
304.19	1763.30
304.40	1646.57
304.61	1757.16
304.83	1839.08
305.04	1761.25
305.26	1683.43
305.47	1644.52
305.68	1683.43
305.90	1632.23
306.11	1769.44
306.33	1761.25
306.54	1701.86
306.75	1675.24
306.97	1617.90
307.18	1640.42
307.39	1683.43
307.61	1794.02
307.82	1697.77
308.04	1734.63
308.25	1607.66
308.46	1738.73
308.68	1714.15
308.89	1724.39
309.10	1726.44
309.32	1720.29
309.53	1667.05
309.74	1708.01
309.96	1660.90
310.17	1814.50
310.39	1673.19
310.60	1875.94
310.81	1732.58
311.03	1630.18
311.24	1728.49
311.45	1718.25
311.67	1789.92
311.88	1628.14
312.09	1710.05
312.31	1730.53
312.52	1771.49
312.73	1720.29
312.95	1654.76
313.16	1693.67
313.37	1814.50
313.59	1714.15
313.80	1689.57
314.01	1748.97
314.23	1712.10
314.44	1624.04
314.65	1744.87
314.87	1624.04
315.08	1677.29
315.29	1673.19
315.51	1621.99
315.72	1669.09
315.93	1918.95
316.15	1812.45
316.36	1671.14
316.57	1746.92
316.79	1783.78
317.00	1681.38
317.21	1738.73
317.43	1662.95
317.64	1652.71
317.85	1738.73
318.07	1687.53
318.28	1677.29
318.49	1832.93
318.70	1953.76
318.92	1834.98
319.13	1787.88
319.34	1863.65
319.56	1787.88
319.77	1857.51
319.98	1728.49
320.20	1779.68
320.41	1810.40
320.62	1804.26
320.83	1689.57
321.05	1869.80
321.26	1742.82
321.47	1667.05
321.69	1853.41
321.90	1558.50
322.11	1689.57
322.32	1763.30
322.54	1796.07
322.75	1652.71
322.96	1882.08
323.18	1708.01
323.39	1665.00
323.60	1705.96
323.81	1771.49
324.03	1636.33
324.24	1626.09
324.45	1718.25
324.66	1648.61
324.88	1759.21
325.09	1783.78
325.30	1757.16
325.52	1763.30
325.73	1789.92
325.94	1662.95
326.15	1648.61
326.37	1681.38
326.58	1744.87
326.79	1818.60
327.00	1597.42
327.22	1775.59
327.43	1675.24
327.64	1591.27
327.85	1771.49
328.07	1697.77
328.28	1818.60
328.49	1705.96
328.70	1665.00
328.92	1732.58
329.13	1621.99
329.34	1730.53
329.55	1806.31
329.76	1734.63
329.98	1650.66
330.19	1761.25
330.40	1787.88
330.61	1775.59
330.83	1789.92
331.04	1685.48
331.25	1701.86
331.46	1675.24
331.68	1652.71
331.89	1769.44
332.10	1681.38
332.31	1644.52
332.52	1712.10
332.74	1843.17
332.95	1632.23
333.16	1691.62
333.37	1703.91
333.58	1691.62
333.80	1744.87
334.01	1576.94
334.22	1687.53
334.43	1601.51
334.64	1693.67
334.86	1617.90
335.07	1683.43
335.28	1769.44
335.49	1599.46
335.70	1689.57
335.92	1761.25
336.13	1849.32
336.34	1703.91
336.55	1724.39
336.76	1701.86
336.98	1583.08
337.19	1734.63
337.40	1732.58
337.61	1853.41
337.82	1687.53
338.04	1748.97
338.25	1605.61
338.46	1769.44
338.67	1693.67
338.88	1699.81
339.09	1669.09
339.31	1615.85
339.52	1599.46
339.73	1695.72
339.94	1714.15
340.15	1779.68
340.36	1705.96
340.58	1720.29
340.79	1617.90
341.00	1712.10
341.21	1628.14
341.42	1798.12
341.63	1718.25
341.85	1695.72
342.06	1685.48
342.27	1652.71
342.48	1679.33
342.69	1628.14
342.90	1697.77
343.12	1695.72
343.33	1683.43
343.54	1699.81
343.75	1751.01
343.96	1748.97
344.17	1656.81
344.38	1730.53
344.60	1654.76
344.81	1644.52
345.02	1693.67
345.23	1783.78
345.44	1828.84
345.65	1714.15
345.86	1730.53
346.07	1751.01
346.29	1652.71
346.50	1763.30
346.71	1701.86
346.92	1763.30
347.13	1839.08
347.34	1683.43
347.55	1716.20
347.76	1730.53
347.98	1605.61
348.19	1665.00
348.40	1841.12
348.61	1740.77
348.82	1806.31
349.03	1718.25
349.24	1685.48
349.45	1806.31
349.66	1595.37
349.88	1705.96
350.09	1650.66
350.30	1710.05
350.51	1804.26
350.72	1730.53
350.93	1650.66
351.14	1732.58
351.35	1738.73
351.56	1714.15
351.77	1746.92
351.99	1751.01
352.20	1771.49
352.41	1824.74
352.62	1689.57
352.83	1648.61
353.04	1710.05
353.25	1660.90
353.46	1818.60
353.67	1718.25
353.88	1650.66
354.09	1712.10
354.30	1720.29
354.52	1695.72
354.73	1701.86
354.94	1726.44
355.15	1759.21
355.36	1843.17
355.57	1646.57
355.78	1710.05
355.99	1646.57
356.20	1662.95
356.41	1775.59
356.62	1763.30
356.83	1708.01
357.04	1763.30
357.25	1558.50
357.46	1718.25
357.68	1658.85
357.89	1740.77
358.10	1771.49
358.31	1652.71
358.52	1703.91
358.73	1689.57
358.94	1695.72
359.15	1757.16
359.36	1740.77
359.57	1740.77
359.78	1712.10
359.99	1730.53
360.20	1617.90
360.41	1703.91
360.62	1691.62
360.83	1642.47
361.04	1683.43
361.25	1777.64
361.46	1837.03
361.67	1755.11
361.88	1783.78
362.09	1691.62
362.30	1624.04
362.51	1689.57
362.72	1695.72
362.93	1767.40
363.14	1773.54
363.35	1673.19
363.56	1705.96
363.78	1751.01
363.99	1798.12
364.20	1722.34
364.41	1751.01
364.62	1796.07
364.83	1701.86
365.04	1687.53
365.25	1761.25
365.46	1845.22
365.67	1656.81
365.88	1712.10
366.09	1640.42
366.30	1650.66
366.51	1640.42
366.72	1640.42
366.93	1681.38
367.14	1695.72
367.35	1834.98
367.56	1746.92
367.77	1708.01
367.98	1716.20
368.18	1787.88
368.39	1744.87
368.60	1683.43
368.81	1796.07
369.02	1708.01
369.23	1685.48
369.44	1593.32
369.65	1695.72
369.86	1701.86
370.07	1771.49
370.28	1695.72
370.49	1755.11
370.70	1746.92
370.91	1621.99
371.12	1656.81
371.33	1791.97
371.54	1640.42
371.75	1804.26
371.96	1552.36
372.17	1650.66
372.38	1681.38
372.59	1816.55
372.80	1685.48
373.01	1642.47
373.22	1701.86
373.43	1726.44
373.64	1665.00
373.85	1794.02
374.06	1859.56
374.26	1773.54
374.47	1744.87
374.68	1771.49
374.89	1689.57
375.10	1677.29
375.31	1826.79
375.52	1662.95
375.73	1734.63
375.94	1634.28
376.15	1759.21
376.36	1673.19
376.57	1660.90
376.78	1681.38
376.99	1796.07
377.20	1738.73
377.40	1724.39
377.61	1841.12
377.82	1714.15
378.03	1753.06
378.24	1798.12
378.45	1638.38
378.66	1701.86
378.87	1624.04
379.08	1669.09
379.29	1656.81
379.50	1748.97
379.71	1695.72
379.91	1718.25
380.12	1722.34
380.33	1742.82
380.54	1708.01
380.75	1736.68
380.96	1656.81
381.17	1732.58
381.38	1683.43
381.59	1796.07
381.80	1667.05
382.00	1869.80
382.21	1775.59
382.42	1855.46
382.63	1822.69
382.84	1736.68
383.05	1796.07
383.26	1740.77
383.47	1695.72
383.68	1785.83
383.88	1726.44
384.09	1730.53
384.30	1837.03
384.51	1814.50
384.72	1681.38
384.93	1607.66
385.14	1726.44
385.35	1841.12
385.55	1640.42
385.76	1734.63
385.97	1701.86
386.18	1665.00
386.39	1650.66
386.60	1810.40
386.81	1634.28
387.02	1728.49
387.22	1654.76
387.43	1748.97
387.64	1832.93
387.85	1882.08
388.06	2250.72
388.27	4278.21
388.48	6823.83
388.68	8216.45
388.89	9719.66
389.10	9873.26
389.31	8595.32
389.52	7792.52
389.73	6862.74
389.93	6231.97
390.14	5711.78
390.35	5269.42
390.56	4675.51
390.77	3721.16
390.98	2985.94
391.18	2473.95
391.39	2152.42
391.60	1800.16
391.81	1746.92
392.02	1691.62
392.23	1789.92
392.43	1775.59
392.64	1849.32
392.85	1689.57
393.06	1880.04
393.27	1728.49
393.47	1689.57
393.68	1714.15
393.89	1667.05
394.10	1759.21
394.31	1675.24
394.52	1712.10
394.72	1642.47
394.93	1869.80
395.14	1667.05
395.35	1722.34
395.56	1720.29
395.76	1746.92
395.97	1804.26
396.18	1892.32
396.39	1779.68
396.60	2035.68
396.80	1892.32
397.01	1886.18
397.22	1920.99
397.43	1867.75
397.64	1804.26
397.84	1841.12
398.05	1906.66
398.26	1746.92
398.47	1736.68
398.67	1716.20
398.88	1812.45
399.09	1746.92
399.30	1671.14
399.51	1753.06
399.71	1603.56
399.92	1763.30
400.13	1751.01
400.34	1710.05
400.54	1683.43
400.75	1837.03
400.96	1708.01
401.17	1849.32
401.37	1796.07
401.58	1746.92
401.79	1708.01
402.00	1875.94
402.21	1982.43
402.41	1925.09
402.62	1978.34
402.83	2033.63
403.04	2025.44
403.24	2129.89
403.45	1890.28
403.66	1912.80
403.87	1832.93
404.07	1839.08
404.28	2000.87
404.49	1908.71
404.70	1812.45
404.90	1791.97
405.11	1777.64
405.32	1748.97
405.52	1710.05
405.73	1644.52
405.94	1689.57
406.15	1687.53
406.35	1708.01
406.56	1779.68
406.77	1802.21
406.98	1718.25
407.18	1683.43
407.39	1765.35
407.60	1730.53
407.80	1767.40
408.01	1656.81
408.22	1796.07
408.43	1644.52
408.63	1701.86
408.84	1681.38
409.05	1789.92
409.25	1634.28
409.46	1753.06
409.67	1628.14
409.88	1656.81
410.08	1769.44
410.29	1689.57
410.50	1726.44
410.70	1667.05
410.91	1578.98
411.12	1724.39
411.32	1701.86
411.53	1705.96
411.74	1814.50
411.95	1812.45
412.15	1742.82
412.36	1789.92
412.57	1800.16
412.77	1781.73
412.98	1689.57
413.19	1785.83
413.39	1822.69
413.60	1798.12
413.81	1765.35
414.01	1673.19
414.22	1685.48
414.43	1769.44
414.63	1628.14
414.84	1806.31
415.05	1724.39
415.25	1638.38
415.46	1681.38
415.67	1730.53
415.87	1683.43
416.08	1724.39
416.29	1638.38
416.49	1748.97
416.70	1609.70
416.91	1748.97
417.11	1695.72
417.32	1642.47
417.53	1730.53
417.73	1830.88
417.94	1683.43
418.15	1751.01
418.35	1730.53
418.56	1785.83
418.77	1812.45
418.97	1708.01
419.18	1646.57
419.38	1595.37
419.59	1687.53
419.80	1757.16
420.00	1570.79
420.21	1665.00
420.42	1748.97
420.62	1763.30
420.83	1691.62
421.04	1662.95
421.24	1736.68
421.45	1834.98
421.65	1740.77
421.86	1665.00
422.07	1724.39
422.27	1662.95
422.48	1708.01
422.69	1658.85
422.89	1728.49
423.10	1687.53
423.30	1619.94
423.51	1740.77
423.72	1658.85
423.92	1814.50
424.13	1632.23
424.33	1730.53
424.54	1748.97
424.75	1634.28
424.95	1777.64
425.16	1742.82
425.36	1753.06
425.57	1720.29
425.78	1796.07
425.98	1697.77
426.19	1767.40
426.39	1595.37
426.60	1759.21
426.81	1771.49
427.01	1744.87
427.22	1697.77
427.42	1683.43
427.63	1695.72
427.83	1771.49
428.04	1828.84
428.25	1751.01
428.45	1796.07
428.66	1671.14
428.86	1669.09
429.07	1634.28
429.28	1751.01
429.48	1603.56
429.69	1689.57
429.89	1716.20
430.10	1572.84
430.30	1755.11
430.51	1837.03
430.71	1703.91
430.92	1708.01
431.13	1712.10
431.33	1689.57
431.54	1736.68
431.74	1763.30
431.95	1783.78
432.15	1681.38
432.36	1769.44
432.56	1806.31
432.77	1783.78
432.98	1789.92
433.18	1800.16
433.39	1773.54
433.59	1734.63
433.80	1810.40
434.00	1849.32
434.21	1730.53
434.41	1740.77
434.62	1851.36
434.82	1667.05
435.03	1710.05
435.23	1695.72
435.44	1646.57
435.64	1771.49
435.85	1669.09
436.06	1734.63
436.26	1804.26
436.47	1705.96
436.67	1665.00
436.88	1669.09
437.08	1798.12
437.29	1773.54
437.49	1609.70
437.70	1748.97
437.90	1722.34
438.11	1765.35
438.31	1763.30
438.52	1953.76
438.72	1859.56
438.93	1961.95
439.13	1767.40
439.34	1873.89
439.54	1828.84
439.75	1873.89
439.95	1771.49
440.16	1720.29
440.36	1781.73
440.57	1806.31
440.77	1734.63
440.98	1800.16
441.18	1757.16
441.39	1642.47
441.59	1673.19
441.80	1853.41
442.00	1654.76
442.21	1808.36
442.41	1617.90
442.62	1832.93
442.82	1703.91
443.02	1730.53
443.23	1703.91
443.43	1783.78
443.64	1740.77
443.84	1609.70
444.05	1814.50
444.25	1777.64
444.46	1779.68
444.66	1748.97
444.87	1779.68
445.07	1624.04
445.28	1738.73
445.48	1845.22
445.69	1812.45
445.89	1871.84
446.09	1697.77
446.30	1964.00
446.50	2641.88
446.71	3751.88
446.91	4353.98
447.12	4816.82
447.32	4810.68
447.53	4349.89
447.73	3958.72
447.93	3512.27
448.14	3338.19
448.34	3237.84
448.55	2932.69
448.75	2807.77
448.96	2762.71
449.16	2475.99
449.36	2287.58
449.57	1982.43
449.77	1886.18
449.98	1882.08
450.18	1755.11
450.39	1816.55
450.59	1783.78
450.79	1767.40
451.00	1787.88
451.20	1767.40
451.41	1673.19
451.61	1763.30
451.81	1820.64
452.02	1746.92
452.22	1763.30
452.43	1628.14
452.63	1716.20
452.84	1779.68
453.04	1787.88
453.24	1722.34
453.45	1720.29
453.65	1753.06
453.86	1806.31
454.06	1785.83
454.26	1742.82
454.47	1703.91
454.67	1781.73
454.87	1751.01
455.08	1738.73
455.28	1806.31
455.49	1671.14
455.69	1697.77
455.89	1931.23
456.10	1730.53
456.30	1771.49
456.51	1789.92
456.71	1728.49
456.91	1738.73
457.12	1720.29
457.32	1779.68
457.52	1615.85
457.73	1650.66
457.93	1791.97
458.14	1683.43
458.34	1677.29
458.54	1660.90
458.75	1646.57
458.95	1724.39
459.15	1724.39
459.36	1691.62
459.56	1791.97
459.76	1900.52
459.97	1789.92
460.17	1687.53
460.37	1755.11
460.58	1755.11
460.78	1763.30
460.99	1611.75
461.19	1728.49
461.39	1712.10
461.60	1734.63
461.80	1779.68
462.00	1689.57
462.21	1753.06
462.41	1681.38
462.61	1767.40
462.82	1648.61
463.02	1751.01
463.22	1720.29
463.43	1800.16
463.63	1746.92
463.83	1816.55
464.04	1767.40
464.24	1693.67
464.44	1753.06
464.64	1781.73
464.85	1667.05
465.05	1806.31
465.25	1720.29
465.46	1714.15
465.66	1705.96
465.86	1738.73
466.07	1703.91
466.27	1761.25
466.47	1650.66
466.68	1705.96
466.88	1796.07
467.08	1775.59
467.29	1800.16
467.49	1732.58
467.69	1699.81
467.89	1757.16
468.10	1685.48
468.30	1839.08
468.50	1742.82
468.71	1751.01
468.91	1673.19
469.11	1777.64
469.31	1789.92
469.52	1748.97
469.72	1789.92
469.92	1886.18
470.13	1716.20
470.33	1724.39
470.53	1861.60
470.73	2068.45
470.94	2240.48
471.14	2369.50
471.34	2519.00
471.54	2455.51
471.75	2267.10
471.95	2144.22
472.15	2033.63
472.36	2146.27
472.56	2111.46
472.76	2109.41
472.96	2013.15
473.17	1951.71
473.37	1943.52
473.57	1798.12
473.77	1818.60
473.98	1806.31
474.18	1609.70
474.38	1978.34
474.58	1738.73
474.79	1675.24
474.99	1777.64
475.19	1738.73
475.39	1728.49
475.60	1751.01
475.80	1716.20
476.00	1730.53
476.20	1738.73
476.41	1693.67
476.61	1810.40
476.81	1841.12
477.01	1665.00
477.21	1839.08
477.42	1738.73
477.62	1722.34
477.82	1777.64
478.02	1714.15
478.23	1837.03
478.43	1744.87
478.63	1751.01
478.83	1783.78
479.03	1685.48
479.24	1798.12
479.44	1822.69
479.64	1646.57
479.84	1630.18
480.04	1671.14
480.25	1732.58
480.45	1683.43
480.65	1703.91
480.85	1824.74
481.06	1652.71
481.26	1699.81
481.46	1742.82
481.66	1759.21
481.86	1710.05
482.06	1757.16
482.27	1701.86
482.47	1742.82
482.67	1744.87
482.87	1665.00
483.07	1789.92
483.28	1695.72
483.48	1644.52
483.68	1677.29
483.88	1705.96
484.08	1628.14
484.29	1710.05
484.49	1720.29
484.69	1652.71
484.89	1714.15
485.09	1787.88
485.29	1783.78
485.50	1683.43
485.70	1716.20
485.90	1777.64
486.10	1687.53
486.30	1718.25
486.50	1777.64
486.71	1722.34
486.91	1816.55
487.11	1855.46
487.31	1699.81
487.51	1796.07
487.71	1619.94
487.91	1654.76
488.12	1675.24
488.32	1583.08
488.52	1671.14
488.72	1589.22
488.92	1716.20
489.12	1804.26
489.32	1781.73
489.53	1781.73
489.73	1556.46
489.93	1783.78
490.13	1673.19
490.33	1673.19
490.53	1767.40
490.73	1748.97
490.94	1607.66
491.14	1755.11
491.34	1820.64
491.54	2125.79
491.74	2590.68
491.94	2934.74
492.14	3078.10
492.34	3018.71
492.54	2740.18
492.75	2568.15
492.95	2441.18
493.15	2351.07
493.35	2295.77
493.55	2240.48
493.75	2181.09
493.95	2148.32
494.15	1923.04
494.35	1933.28
494.56	1820.64
494.76	1765.35
494.96	1732.58
495.16	1855.46
495.36	1748.97
495.56	1677.29
495.76	1775.59
495.96	1703.91
496.16	1619.94
496.36	1896.42
496.56	1728.49
496.77	1740.77
496.97	1755.11
497.17	1769.44
497.37	1695.72
497.57	1746.92
497.77	1726.44
497.97	1708.01
498.17	1796.07
498.37	1683.43
498.57	1742.82
498.77	1705.96
498.97	1877.99
499.17	1787.88
499.38	1781.73
499.58	1785.83
499.78	1814.50
499.98	1853.41
500.18	1818.60
500.38	1685.48
500.58	1886.18
500.78	2498.52
500.98	4632.51
501.18	5865.38
501.38	6768.54
501.58	7139.22
501.78	6619.04
501.98	5584.81
502.18	5160.88
502.38	4415.42
502.58	4239.30
502.78	3889.09
502.98	3663.82
503.18	3604.42
503.38	3135.44
503.59	2850.77
503.79	2686.94
503.99	2475.99
504.19	2338.78
504.39	2197.47
504.59	2154.46
504.79	2140.13
504.99	2060.26
505.19	1935.33
505.39	1937.38
505.59	1931.23
505.79	1906.66
505.99	1912.80
506.19	1808.36
506.39	1918.95
506.59	1796.07
506.79	1783.78
506.99	1734.63
507.19	1814.50
507.39	1765.35
507.59	1601.51
507.79	1724.39
507.99	1607.66
508.19	1730.53
508.39	1710.05
508.59	1665.00
508.79	1822.69
508.99	1791.97
509.19	1740.77
509.39	1738.73
509.59	1728.49
509.79	1767.40
509.99	1728.49
510.19	1837.03
510.39	1894.37
510.59	1759.21
510.79	1658.85
510.99	1736.68
511.19	1816.55
511.39	1794.02
511.59	1826.79
511.79	1787.88
511.99	1714.15
512.19	1796.07
512.38	1751.01
512.58	1644.52
512.78	1656.81
512.98	1761.25
513.18	1787.88
513.38	1638.38
513.58	1808.36
513.78	1691.62
513.98	1738.73
514.18	1742.82
514.38	1746.92
514.58	1742.82
514.78	1677.29
514.98	1701.86
515.18	1728.49
515.38	1650.66
515.58	1841.12
515.78	1687.53
515.98	1732.58
516.18	1810.40
516.38	1746.92
516.57	1683.43
516.77	1683.43
516.97	1765.35
517.17	1656.81
517.37	1689.57
517.57	1791.97
517.77	1753.06
517.97	1701.86
518.17	1787.88
518.37	1697.77
518.57	1626.09
518.77	1783.78
518.97	1691.62
519.16	1771.49
519.36	1761.25
519.56	1722.34
519.76	1783.78
519.96	1744.87
520.16	1769.44
520.36	1642.47
520.56	1787.88
520.76	1697.77
520.96	1617.90
521.16	1773.54
521.35	1787.88
521.55	1693.67
521.75	1757.16
521.95	1585.13
522.15	1738.73
522.35	1650.66
522.55	1726.44
522.75	1849.32
522.95	1742.82
523.14	1716.20
523.34	1789.92
523.54	1748.97
523.74	1794.02
523.94	1701.86
524.14	1665.00
524.34	1812.45
524.54	1810.40
524.73	1699.81
524.93	1757.16
525.13	1820.64
525.33	1597.42
525.53	1865.70
525.73	1791.97
525.93	1689.57
526.13	1708.01
526.32	1753.06
526.52	1759.21
526.72	1800.16
526.92	1603.56
527.12	1759.21
527.32	1591.27
527.52	1726.44
527.71	1787.88
527.91	1791.97
528.11	1751.01
528.31	1744.87
528.51	1675.24
528.71	1777.64
528.90	1730.53
529.10	1765.35
529.30	1808.36
529.50	1662.95
529.70	1716.20
529.90	1734.63
530.09	1763.30
530.29	1726.44
530.49	1648.61
530.69	1894.37
530.89	1671.14
531.09	1771.49
531.28	1697.77
531.48	1837.03
531.68	1734.63
531.88	1730.53
532.08	1800.16
532.28	1683.43
532.47	1810.40
532.67	1804.26
532.87	1722.34
533.07	1693.67
533.27	1814.50
533.46	1785.83
533.66	1773.54
533.86	1740.77
534.06	1734.63
534.26	1765.35
534.45	1675.24
534.65	1767.40
534.85	1755.11
535.05	1732.58
535.25	1779.68
535.44	1730.53
535.64	1763.30
535.84	1722.34
536.04	1697.77
536.24	1744.87
536.43	1691.62
536.63	1751.01
536.83	1718.25
537.03	1642.47
537.22	1578.98
537.42	1687.53
537.62	1705.96
537.82	1681.38
538.02	1818.60
538.21	1841.12
538.41	1904.61
538.61	1722.34
538.81	1724.39
539.00	1796.07
539.20	1628.14
539.40	1675.24
539.60	1822.69
539.79	1857.51
539.99	1802.21
540.19	1646.57
540.39	1746.92
540.58	1759.21
540.78	1753.06
540.98	1677.29
541.18	1826.79
541.37	1755.11
541.57	1769.44
541.77	1755.11
541.97	1667.05
542.16	1718.25
542.36	1683.43
542.56	1705.96
542.76	1804.26
542.95	1834.98
543.15	1771.49
543.35	1705.96
543.54	1720.29
543.74	1740.77
543.94	1812.45
544.14	1708.01
544.33	1775.59
544.53	1738.73
544.73	1736.68
544.93	1806.31
545.12	1732.58
545.32	1802.21
545.52	1695.72
545.71	1724.39
545.91	1665.00
546.11	1757.16
546.30	1693.67
546.50	1714.15
546.70	1822.69
546.90	1755.11
547.09	1740.77
547.29	1697.77
547.49	1738.73
547.68	1812.45
547.88	1738.73
548.08	1740.77
548.27	2168.80
548.47	1761.25
548.67	1761.25
548.87	1718.25
549.06	1759.21
549.26	1769.44
549.46	1763.30
549.65	1712.10
549.85	1728.49
550.05	1804.26
550.24	1691.62
550.44	1718.25
550.64	1746.92
550.83	1761.25
551.03	1869.80
551.23	1728.49
551.42	1767.40
551.62	1697.77
551.82	1734.63
552.01	1751.01
552.21	1828.84
552.41	1794.02
552.60	1804.26
552.80	1703.91
553.00	1689.57
553.19	1824.74
553.39	1830.88
553.59	1593.32
553.78	1800.16
553.98	1810.40
554.17	1648.61
554.37	1804.26
554.57	1757.16
554.76	1714.15
554.96	1708.01
555.16	1755.11
555.35	1775.59
555.55	1732.58
555.75	1783.78
555.94	1830.88
556.14	1650.66
556.33	1796.07
556.53	1771.49
556.73	1783.78
556.92	1716.20
557.12	1822.69
557.32	1818.60
557.51	1834.98
557.71	1787.88
557.90	1798.12
558.10	1748.97
558.30	1722.34
558.49	1722.34
558.69	1738.73
558.88	1771.49
559.08	1767.40
559.28	1691.62
559.47	1781.73
559.67	1755.11
559.86	1851.36
560.06	1759.21
560.26	1767.40
560.45	1800.16
560.65	1691.62
560.84	1808.36
561.04	1667.05
561.24	1769.44
561.43	1693.67
561.63	1906.66
561.82	1691.62
562.02	1734.63
562.22	1732.58
562.41	1656.81
562.61	1644.52
562.80	1753.06
563.00	1902.56
563.19	1845.22
563.39	1845.22
563.59	1699.81
563.78	1689.57
563.98	1609.70
564.17	1714.15
564.37	1683.43
564.56	1705.96
564.76	1710.05
564.96	1798.12
565.15	1765.35
565.35	1847.27
565.54	1728.49
565.74	1861.60
565.93	1699.81
566.13	1763.30
566.32	1744.87
566.52	1796.07
566.71	1728.49
566.91	1763.30
567.11	1710.05
567.30	1746.92
567.50	1748.97
567.69	1808.36
567.89	1718.25
568.08	1742.82
568.28	1806.31
568.47	1660.90
568.67	1785.83
568.86	1701.86
569.06	1798.12
569.25	1763.30
569.45	1689.57
569.64	1722.34
569.84	1763.30
570.04	1800.16
570.23	1695.72
570.43	1677.29
570.62	1771.49
570.82	1779.68
571.01	1609.70
571.21	1718.25
571.40	1703.91
571.60	1761.25
571.79	1746.92
571.99	1759.21
572.18	1705.96
572.38	1779.68
572.57	1744.87
572.77	1757.16
572.96	1869.80
573.16	1730.53
573.35	1646.57
573.55	1787.88
573.74	1734.63
573.94	1734.63
574.13	1744.87
574.33	1742.82
574.52	1820.64
574.71	1742.82
574.91	1812.45
575.10	1734.63
575.30	1765.35
575.49	1691.62
575.69	1705.96
575.88	1753.06
576.08	1732.58
576.27	1767.40
576.47	1716.20
576.66	1824.74
576.86	1773.54
577.05	1789.92
577.25	1849.32
577.44	1851.36
577.64	1777.64
577.83	1796.07
578.02	1703.91
578.22	1847.27
578.41	1832.93
578.61	1685.48
578.80	1683.43
579.00	1816.55
579.19	1800.16
579.39	1810.40
579.58	1853.41
579.77	1759.21
579.97	1783.78
580.16	1863.65
580.36	1830.88
580.55	1832.93
580.75	1765.35
580.94	1828.84
581.13	1886.18
581.33	1894.37
581.52	1787.88
581.72	1826.79
581.91	1839.08
582.11	1826.79
582.30	1853.41
582.49	1779.68
582.69	1875.94
582.88	1830.88
583.08	1714.15
583.27	1863.65
583.47	1716.20
583.66	1757.16
583.85	1665.00
584.05	1738.73
584.24	1781.73
584.44	1789.92
584.63	1720.29
584.82	1730.53
585.02	1718.25
585.21	1841.12
585.41	1855.46
585.60	1890.28
585.79	1867.75
585.99	1953.76
586.18	1908.71
586.37	2164.70
586.57	3327.95
586.76	9955.18
586.96	24581.77
587.15	34221.56
587.34	40836.50
587.54	42038.65
587.73	37152.20
587.93	26580.59
588.12	21431.99
588.31	18343.66
588.51	16262.92
588.70	15288.09
588.89	14223.14
589.09	12588.86
589.28	11003.74
589.47	9547.63
589.67	8116.10
589.86	6604.70
590.06	5189.55
590.25	3981.25
590.44	3223.50
590.64	2574.30
590.83	2252.77
591.02	2183.13
591.22	1980.39
591.41	1914.85
591.60	1871.84
591.80	1966.05
591.99	1765.35
592.18	1798.12
592.38	1777.64
592.57	1834.98
592.76	1742.82
592.96	1742.82
593.15	1791.97
593.34	1892.32
593.54	1744.87
593.73	1800.16
593.92	1843.17
594.12	1769.44
594.31	1744.87
594.50	1783.78
594.70	1759.21
594.89	1904.61
595.08	1693.67
595.28	1810.40
595.47	1906.66
595.66	1857.51
595.86	1660.90
596.05	1734.63
596.24	1697.77
596.43	1898.47
596.63	1767.40
596.82	1789.92
597.01	1751.01
597.21	1882.08
597.40	1810.40
597.59	1773.54
597.79	1763.30
597.98	1732.58
598.17	1791.97
598.36	1773.54
598.56	1757.16
598.75	1708.01
598.94	1695.72
599.14	1771.49
599.33	1716.20
599.52	1845.22
599.71	1710.05
599.91	1822.69
600.10	1777.64
600.29	1765.35
600.48	1785.83
600.68	1802.21
600.87	1753.06
601.06	1689.57
601.26	1730.53
601.45	1753.06
601.64	1730.53
601.83	1855.46
602.03	1701.86
602.22	1746.92
602.41	1746.92
602.60	1789.92
602.80	1847.27
602.99	1665.00
603.18	1710.05
603.37	1691.62
603.57	1841.12
603.76	1796.07
603.95	1789.92
604.14	1671.14
604.34	1648.61
604.53	1732.58
604.72	1755.11
604.91	1724.39
605.10	1763.30
605.30	1675.24
605.49	1865.70
605.68	1820.64
605.87	1763.30
606.07	1718.25
606.26	1730.53
606.45	1718.25
606.64	1718.25
606.84	1740.77
607.03	1703.91
607.22	1798.12
607.41	1710.05
607.60	1699.81
607.80	1771.49
607.99	1804.26
608.18	1812.45
608.37	1720.29
608.56	1736.68
608.76	1730.53
608.95	1740.77
609.14	1705.96
609.33	1775.59
609.52	1802.21
609.72	1781.73
609.91	1730.53
610.10	1712.10
610.29	1910.75
610.48	1777.64
610.68	1732.58
610.87	1722.34
611.06	1687.53
611.25	1660.90
611.44	1802.21
611.63	1742.82
611.83	1839.08
612.02	1695.72
612.21	1824.74
612.40	1658.85
612.59	1669.09
612.79	1626.09
612.98	1640.42
613.17	1834.98
613.36	1738.73
613.55	1890.28
613.74	1691.62
613.93	1699.81
614.13	1714.15
614.32	1742.82
614.51	1730.53
614.70	1693.67
614.89	1671.14
615.08	1697.77
615.28	2088.93
615.47	1683.43
615.66	1771.49
615.85	1740.77
616.04	1837.03
616.23	1708.01
616.42	1738.73
616.62	1794.02
616.81	1732.58
617.00	1732.58
617.19	1814.50
617.38	1685.48
617.57	1779.68
617.76	1808.36
617.95	1751.01
618.15	1687.53
618.34	1824.74
618.53	1640.42
618.72	1845.22
618.91	1871.84
619.10	1869.80
619.29	1716.20
619.48	1812.45
619.68	1642.47
619.87	1787.88
620.06	1667.05
620.25	1800.16
620.44	1744.87
620.63	1742.82
620.82	1781.73
621.01	1742.82
621.20	1730.53
621.39	1718.25
621.59	1777.64
621.78	1724.39
621.97	1669.09
622.16	1837.03
622.35	1787.88
622.54	1765.35
622.73	1884.13
622.92	1607.66
623.11	1789.92
623.30	1781.73
623.49	1843.17
623.68	1656.81
623.88	1769.44
624.07	1675.24
624.26	1703.91
624.45	1771.49
624.64	1646.57
624.83	1773.54
625.02	1728.49
625.21	1728.49
625.40	1746.92
625.59	1834.98
625.78	1718.25
625.97	1763.30
626.16	1767.40
626.35	1798.12
626.54	1697.77
626.74	1851.36
626.93	1656.81
627.12	1718.25
627.31	1794.02
627.50	1720.29
627.69	1798.12
627.88	1658.85
628.07	1658.85
628.26	1685.48
628.45	1660.90
628.64	1642.47
628.83	1685.48
629.02	1624.04
629.21	1724.39
629.40	1687.53
629.59	1621.99
629.78	1769.44
629.97	1691.62
630.16	1753.06
630.35	1693.67
630.54	1675.24
630.73	1665.00
630.92	1732.58
631.11	1611.75
631.30	1738.73
631.49	1710.05
631.68	1687.53
631.87	1738.73
632.06	1621.99
632.25	1761.25
632.44	1683.43
632.63	1654.76
632.82	1675.24
633.01	1628.14
633.20	1708.01
633.39	1775.59
633.58	1685.48
633.77	1730.53
633.96	1763.30
634.15	1734.63
634.34	1798.12
634.53	1718.25
634.72	1710.05
634.91	1648.61
635.10	1708.01
635.29	1808.36
635.48	1683.43
635.67	1677.29
635.86	1648.61
636.05	1832.93
636.24	1732.58
636.43	1759.21
636.62	1765.35
636.81	1615.85
637.00	1730.53
637.19	1761.25
637.38	1804.26
637.57	1726.44
637.76	1736.68
637.95	1734.63
638.14	1726.44
638.33	1691.62
638.52	1738.73
638.71	1609.70
638.89	1662.95
639.08	1880.04
639.27	1736.68
639.46	1761.25
639.65	1816.55
639.84	1808.36
640.03	1763.30
640.22	1681.38
640.41	1816.55
640.60	1697.77
640.79	1763.30
640.98	1638.38
641.17	1712.10
641.36	1802.21
641.55	1740.77
641.74	1632.23
641.92	1720.29
642.11	1689.57
642.30	1685.48
642.49	1714.15
642.68	1716.20
642.87	1732.58
643.06	1789.92
643.25	1667.05
643.44	1665.00
643.63	1761.25
643.82	1720.29
644.00	1697.77
644.19	1769.44
644.38	1675.24
644.57	1671.14
644.76	1728.49
644.95	1722.34
645.14	1714.15
645.33	1646.57
645.52	1777.64
645.71	1630.18
645.89	1648.61
646.08	1679.33
646.27	1775.59
646.46	1851.36
646.65	1742.82
646.84	1710.05
647.03	1677.29
647.22	1785.83
647.40	1785.83
647.59	1701.86
647.78	1654.76
647.97	1603.56
648.16	1609.70
648.35	1861.60
648.54	1796.07
648.73	1708.01
648.91	1769.44
649.10	1724.39
649.29	1726.44
649.48	1705.96
649.67	1812.45
649.86	1718.25
650.05	1630.18
650.23	1785.83
650.42	1597.42
650.61	1763.30
650.80	1787.88
650.99	1853.41
651.18	1675.24
651.36	1755.11
651.55	1683.43
651.74	1755.11
651.93	1728.49
652.12	1656.81
652.31	1759.21
652.49	1691.62
652.68	1714.15
652.87	1916.90
653.06	1763.30
653.25	1818.60
653.44	1638.38
653.62	1851.36
653.81	1675.24
654.00	1720.29
654.19	1753.06
654.38	1859.56
654.56	1703.91
654.75	1658.85
654.94	1863.65
655.13	1773.54
655.32	1734.63
655.51	1810.40
655.69	1693.67
655.88	1763.30
656.07	1662.95
656.26	1775.59
656.45	1748.97
656.63	1685.48
656.82	1681.38
657.01	1720.29
657.20	1636.33
657.38	1789.92
657.57	1775.59
657.76	1630.18
657.95	1761.25
658.14	1697.77
658.32	1728.49
658.51	1658.85
658.70	1755.11
658.89	1775.59
659.08	1701.86
659.26	1785.83
659.45	1695.72
659.64	1744.87
659.83	1665.00
660.01	1896.42
660.20	1728.49
660.39	1771.49
660.58	1613.80
660.76	1869.80
660.95	1660.90
661.14	1781.73
661.33	1761.25
661.51	1724.39
661.70	1740.77
661.89	1773.54
662.08	1732.58
662.26	1689.57
662.45	1642.47
662.64	1794.02
662.83	1748.97
663.01	1656.81
663.20	1699.81
663.39	1765.35
663.58	1662.95
663.76	1667.05
663.95	1763.30
664.14	1701.86
664.32	1716.20
664.51	1740.77
664.70	1621.99
664.89	1722.34
665.07	1701.86
665.26	1748.97
665.45	1660.90
665.64	1757.16
665.82	1697.77
666.01	1769.44
666.20	1767.40
666.38	1720.29
666.57	1810.40
666.76	2234.33
666.95	4566.97
667.13	10571.61
667.32	15486.74
667.51	18196.20
667.69	19232.47
667.88	17860.34
668.07	12537.66
668.25	9676.65
668.44	8185.73
668.63	7399.31
668.81	6973.33
669.00	6498.20
669.19	5816.23
669.38	5083.06
669.56	4753.34
669.75	3948.48
669.94	3348.43
670.12	2967.51
670.31	2521.05
670.50	2267.10
670.68	2007.01
670.87	1892.32
671.06	1806.31
671.24	1837.03
671.43	1861.60
671.62	1767.40
671.80	1730.53
671.99	1759.21
672.18	1863.65
672.36	1677.29
672.55	1759.21
672.74	1742.82
672.92	1751.01
673.11	1767.40
673.29	1636.33
673.48	1740.77
673.67	1583.08
673.85	1775.59
674.04	1609.70
674.23	1724.39
674.41	1783.78
674.60	1730.53
674.79	1695.72
674.97	1652.71
675.16	1794.02
675.34	1738.73
675.53	1710.05
675.72	1742.82
675.90	1824.74
676.09	1755.11
676.28	1699.81
676.46	1640.42
676.65	1734.63
676.83	1658.85
677.02	1705.96
677.21	1751.01
677.39	1708.01
677.58	1605.61
677.77	1718.25
677.95	1714.15
678.14	1716.20
678.32	1742.82
678.51	1671.14
678.70	1865.70
678.88	1708.01
679.07	1771.49
679.25	1751.01
679.44	1693.67
679.63	1605.61
679.81	1726.44
680.00	1736.68
680.18	1785.83
680.37	1810.40
680.55	1746.92
680.74	1675.24
680.93	1656.81
681.11	1724.39
681.30	1708.01
681.48	1701.86
681.67	1689.57
681.85	1740.77
682.04	1667.05
682.23	1730.53
682.41	1744.87
682.60	1759.21
682.78	1671.14
682.97	1710.05
683.15	1689.57
683.34	1701.86
683.53	1757.16
683.71	1613.80
683.90	1853.41
684.08	1875.94
684.27	1705.96
684.45	1724.39
684.64	1787.88
684.82	1714.15
685.01	1726.44
685.19	1767.40
685.38	1828.84
685.57	1681.38
685.75	1667.05
685.94	1720.29
686.12	1722.34
686.31	1624.04
686.49	1802.21
686.68	1589.22
686.86	1746.92
687.05	1724.39
687.23	1781.73
687.42	1730.53
687.60	1603.56
687.79	1740.77
687.97	1789.92
688.16	1773.54
688.34	1757.16
688.53	1597.42
688.71	1755.11
688.90	1748.97
689.08	1611.75
689.27	1656.81
689.45	1796.07
689.64	1763.30
689.82	1855.46
690.01	1769.44
690.19	1728.49
690.38	1787.88
690.56	1761.25
690.75	1667.05
690.93	1638.38
691.12	1605.61
691.30	1714.15
691.49	1705.96
691.67	1705.96
691.86	1884.13
692.04	1675.24
692.23	1656.81
692.41	1689.57
692.60	1832.93
692.78	1761.25
692.97	1724.39
693.15	1751.01
693.34	1767.40
693.52	1751.01
693.71	1693.67
693.89	1705.96
694.08	1671.14
694.26	1695.72
694.44	1726.44
694.63	1761.25
694.81	1687.53
695.00	1613.80
695.18	1796.07
695.37	1820.64
695.55	1679.33
695.74	1695.72
695.92	1679.33
696.10	1843.17
696.29	1611.75
696.47	1638.38
696.66	1714.15
696.84	1699.81
697.03	1728.49
697.21	1767.40
697.40	2283.49
697.58	1765.35
697.76	1726.44
697.95	1685.48
698.13	1677.29
698.32	1640.42
698.50	1763.30
698.68	1761.25
698.87	1726.44
699.05	1791.97
699.24	1763.30
699.42	1689.57
699.61	1697.77
699.79	1736.68
699.97	1708.01
700.16	1687.53
700.34	1644.52
700.53	1716.20
700.71	1757.16
700.89	1802.21
701.08	1718.25
701.26	1791.97
701.45	2082.78
701.63	1744.87
701.81	1732.58
702.00	1751.01
702.18	1730.53
702.37	1675.24
702.55	1755.11
702.73	1693.67
702.92	1730.53
703.10	1728.49
703.28	1712.10
703.47	1634.28
703.65	1814.50
703.84	1732.58
704.02	1693.67
704.20	1759.21
704.39	1660.90
704.57	1712.10
704.75	1777.64
704.94	1777.64
705.12	1761.25
705.30	1843.17
705.49	2303.96
705.67	4366.27
705.86	9500.53
706.04	12709.69
706.22	14501.67
706.41	15699.73
706.59	13823.79
706.77	9721.71
706.96	7274.38
707.14	6586.27
707.32	5963.68
707.51	5420.97
707.69	4933.56
707.87	4198.34
708.06	3557.32
708.24	2926.55
708.42	2432.99
708.61	2195.42
708.79	1937.38
708.97	1859.56
709.16	1845.22
709.34	1751.01
709.52	1689.57
709.71	1648.61
709.89	1785.83
710.07	1693.67
710.26	1701.86
710.44	1689.57
710.62	1791.97
710.80	1771.49
710.99	1863.65
711.17	1718.25
711.35	1638.38
711.54	1726.44
711.72	1781.73
711.90	1791.97
712.09	1732.58
712.27	1665.00
712.45	1748.97
712.63	1763.30
712.82	1681.38
713.00	1679.33
713.18	1738.73
713.37	1826.79
713.55	1746.92
713.73	1730.53
713.91	1693.67
714.10	1648.61
714.28	1683.43
714.46	1689.57
714.65	1724.39
714.83	1746.92
715.01	1675.24
715.19	1773.54
715.38	1675.24
715.56	1740.77
715.74	1679.33
715.92	1669.09
716.11	1728.49
716.29	1669.09
716.47	1738.73
716.65	1681.38
716.84	1583.08
717.02	1787.88
717.20	1630.18
717.38	1683.43
717.57	1687.53
717.75	1779.68
717.93	1695.72
718.11	1763.30
718.30	1611.75
718.48	1685.48
718.66	1753.06
718.84	1779.68
719.03	1781.73
719.21	1574.89
719.39	1818.60
719.57	1740.77
719.75	1773.54
719.94	1576.94
720.12	1837.03
720.30	1787.88
720.48	1742.82
720.67	1687.53
720.85	1687.53
721.03	1687.53
721.21	1634.28
721.39	1894.37
721.58	1769.44
721.76	1779.68
721.94	1728.49
722.12	1751.01
722.30	1775.59
722.49	1691.62
722.67	1679.33
722.85	1771.49
723.03	1650.66
723.21	1699.81
723.40	1697.77
723.58	1757.16
723.76	1716.20
723.94	1736.68
724.12	1679.33
724.30	1804.26
724.49	1787.88
724.67	1703.91
724.85	1812.45
725.03	1708.01
725.21	1791.97
725.40	1781.73
725.58	1695.72
725.76	1740.77
725.94	1740.77
726.12	1628.14
726.30	1705.96
726.49	1693.67
726.67	1673.19
726.85	1740.77
727.03	1855.46
727.21	2187.23
727.39	2807.77
727.57	3807.17
727.76	4155.33
727.94	4356.03
728.12	4382.65
728.30	3753.93
728.48	3010.51
728.66	2832.34
728.84	2504.67
729.03	2258.91
729.21	2123.74
729.39	2011.11
729.57	1845.22
729.75	1830.88
729.93	1777.64
730.11	1748.97
730.30	1673.19
730.48	1751.01
730.66	1796.07
730.84	1697.77
731.02	1652.71
731.20	1757.16
731.38	1687.53
731.56	1624.04
731.74	1632.23
731.93	1763.30
732.11	1689.57
732.29	1701.86
732.47	1796.07
732.65	1724.39
732.83	1773.54
733.01	1726.44
733.19	1632.23
733.37	1740.77
733.56	1765.35
733.74	1746.92
733.92	1808.36
734.10	1660.90
734.28	1826.79
734.46	1621.99
734.64	1751.01
734.82	1652.71
735.00	1681.38
735.18	1714.15
735.36	1744.87
735.54	1714.15
735.73	1779.68
735.91	1742.82
736.09	1716.20
736.27	1769.44
736.45	1769.44
736.63	1626.09
736.81	1732.58
736.99	1796.07
737.17	1759.21
737.35	1675.24
737.53	1617.90
737.71	1767.40
737.89	1734.63
738.07	1740.77
738.25	1691.62
738.43	1679.33
738.61	1630.18
738.80	1687.53
738.98	1640.42
739.16	1665.00
739.34	1640.42
739.52	1839.08
739.70	1734.63
739.88	1759.21
740.06	1787.88
740.24	1691.62
740.42	1701.86
740.60	1626.09
740.78	1646.57
740.96	1585.13
741.14	1705.96
741.32	1652.71
741.50	1650.66
741.68	1931.23
741.86	1738.73
742.04	1646.57
742.22	1712.10
742.40	1738.73
742.58	1841.12
742.76	1589.22
742.94	1773.54
743.12	1619.94
743.30	1714.15
743.48	1656.81
743.66	1595.37
743.84	1744.87
744.02	1675.24
744.20	1730.53
744.38	1642.47
744.56	1658.85
744.74	1877.99
744.92	1691.62
745.10	1742.82
745.28	1767.40
745.46	1751.01
745.64	1689.57
745.82	1781.73
746.00	1757.16
746.18	1753.06
746.36	1738.73
746.54	1822.69
746.72	1693.67
746.90	1662.95
747.08	1806.31
747.26	1734.63
747.44	1697.77
747.62	1814.50
747.80	1699.81
747.98	1761.25
748.15	1742.82
748.33	1771.49
748.51	1767.40
748.69	1730.53
748.87	1624.04
749.05	1732.58
749.23	1662.95
749.41	1810.40
749.59	1751.01
749.77	1787.88
749.95	1636.33
750.13	1767.40
750.31	1791.97
750.49	1753.06
750.67	1730.53
750.85	1796.07
751.03	1683.43
751.20	1834.98
751.38	1671.14
751.56	1744.87
751.74	1697.77
751.92	1652.71
752.10	1599.46
752.28	1832.93
752.46	1697.77
752.64	1626.09
752.82	1812.45
753.00	1781.73
753.18	1705.96
753.35	1667.05
753.53	1759.21
753.71	1722.34
753.89	1740.77
754.07	1677.29
754.25	1779.68
754.43	1722.34
754.61	1662.95
754.79	1763.30
754.97	1699.81
755.14	1832.93
755.32	1701.86
755.50	1716.20
755.68	1755.11
755.86	1650.66
756.04	1697.77
756.22	1646.57
756.40	1742.82
756.57	1746.92
756.75	1636.33
756.93	1798.12
757.11	1712.10
757.29	1660.90
757.47	1574.89
757.65	1591.27
757.82	1550.31
758.00	1685.48
758.18	1703.91
758.36	1689.57
758.54	1769.44
758.72	1669.09
758.90	1710.05
759.07	1787.88
759.25	1710.05
759.43	1753.06
759.61	1705.96
759.79	2211.81
759.97	1775.59
760.15	1767.40
760.32	1644.52
760.50	1671.14
760.68	1746.92
760.86	1634.28
761.04	1804.26
761.22	1773.54
761.39	1748.97
761.57	1777.64
761.75	1687.53
761.93	1722.34
762.11	1648.61
762.28	1703.91
762.46	1619.94
762.64	1751.01
762.82	1644.52
763.00	1677.29
763.18	1857.51
763.35	1646.57
763.53	1753.06
763.71	1710.05
763.89	1718.25
764.07	1675.24
764.24	1708.01
764.42	1693.67
764.60	1685.48
764.78	1728.49
764.96	1734.63
765.13	1691.62
765.31	1648.61
765.49	1722.34
765.67	1685.48
765.84	1632.23
766.02	1619.94
766.20	1628.14
766.38	1771.49
766.56	1736.68
766.73	1767.40
766.91	1695.72
767.09	1701.86
767.27	1742.82
767.44	1697.77
767.62	1755.11
767.80	1705.96
767.98	1646.57
768.15	1787.88
768.33	1722.34
768.51	1685.48
768.69	1769.44
768.87	1738.73
769.04	1695.72
769.22	1798.12
769.40	1783.78
769.58	1947.62
769.75	1679.33
769.93	1789.92
770.11	1697.77
770.28	1701.86
770.46	1765.35
770.64	1726.44
770.82	1599.46
770.99	1669.09
771.17	1667.05
771.35	1675.24
771.53	1671.14
771.70	1679.33
771.88	1767.40
772.06	1716.20
772.23	1781.73
772.41	1701.86
772.59	1701.86
772.77	1730.53
772.94	1642.47
773.12	1794.02
773.30	1720.29
773.47	1699.81
773.65	1681.38
773.83	1806.31
774.01	1732.58
774.18	1585.13
774.36	1683.43
774.54	1644.52
774.71	1769.44
774.89	1515.50
775.07	1589.22
775.24	1640.42
775.42	1587.18
775.60	1800.16
775.78	1677.29
775.95	1652.71
776.13	1538.02
776.31	1517.54
776.48	1722.34
776.66	1738.73
776.84	1736.68
777.01	1624.04
777.19	1662.95
777.37	1701.86
777.54	1841.12
777.72	1861.60
777.90	1714.15
778.07	1716.20
778.25	1935.33
778.43	1742.82
778.60	1722.34
778.78	1751.01
778.96	1755.11
779.13	1615.85
779.31	1798.12
779.49	1693.67
779.66	1701.86
779.84	1673.19
780.01	1740.77
780.19	1634.28
780.37	1832.93
780.54	1738.73
780.72	1656.81
780.90	1710.05
781.07	1669.09
781.25	1650.66
781.43	1638.38
781.60	1667.05
781.78	1814.50
781.95	1744.87
782.13	1640.42
782.31	1644.52
782.48	1490.92
782.66	1746.92
782.83	1820.64
783.01	1728.49
783.19	1716.20
783.36	1697.77
783.54	1691.62
783.72	1796.07
783.89	1705.96
784.07	1648.61
784.24	1671.14
784.42	1757.16
784.60	1736.68
784.77	1644.52
784.95	1617.90
785.12	1738.73
785.30	1757.16
785.47	1607.66
785.65	1687.53
785.83	1665.00
786.00	1673.19
786.18	1718.25
786.35	1685.48
786.53	1689.57
786.71	1751.01
786.88	1695.72
787.06	1714.15
787.23	1742.82
787.41	1611.75
787.58	1695.72
787.76	1685.48
787.94	1763.30
788.11	1697.77
788.29	1667.05
788.46	1691.62
788.64	1574.89
788.81	1691.62
788.99	1675.24
789.16	1660.90
789.34	1660.90
789.52	1630.18
789.69	1691.62
789.87	1632.23
790.04	1695.72
790.22	1648.61
790.39	1845.22
790.57	1595.37
790.74	1671.14
790.92	1765.35
791.09	1640.42
791.27	1703.91
791.44	1759.21
791.62	1691.62
791.79	1703.91
791.97	1720.29
792.15	1880.04
792.32	1773.54
792.50	1695.72
792.67	1728.49
792.85	1775.59
793.02	1726.44
793.20	1669.09
793.37	1638.38
793.55	1638.38
793.72	1669.09
793.90	1718.25
794.07	1681.38
794.25	1609.70
794.42	1759.21
794.60	1681.38
794.77	1699.81
794.95	1710.05
795.12	1728.49
795.30	1705.96
795.47	1662.95
795.65	1828.84
795.82	1669.09
796.00	1658.85
796.17	1742.82
796.34	1681.38
796.52	1724.39
796.69	1777.64
796.87	1794.02
797.04	1779.68
797.22	1742.82
797.39	1656.81
797.57	1798.12
797.74	1767.40
797.92	1669.09
798.09	1681.38
798.27	1802.21
798.44	1732.58
798.62	1667.05
798.79	1779.68
798.96	1736.68
799.14	1687.53
799.31	1824.74
799.49	1687.53
799.66	1538.02
799.84	1722.34
800.01	1697.77
800.19	1740.77
800.36	1540.07
800.53	1705.96
800.71	1656.81
800.88	1830.88
801.06	1691.62
801.23	1720.29
801.41	1667.05
801.58	1673.19
801.75	1646.57
801.93	1644.52
802.10	1771.49
802.28	1628.14
802.45	1708.01
802.63	1705.96
802.80	1728.49
802.97	1703.91
803.15	1685.48
803.32	1703.91
803.50	1640.42
803.67	1703.91
803.84	1595.37
804.02	1691.62
804.19	1683.43
804.37	1613.80
804.54	1607.66
804.71	1759.21
804.89	1708.01
805.06	1658.85
805.24	1595.37
805.41	1624.04
805.58	1789.92
805.76	1867.75
805.93	1705.96
806.10	1751.01
806.28	1724.39
806.45	1703.91
806.63	1722.34
806.80	1765.35
806.97	1712.10
807.15	1839.08
807.32	1761.25
807.49	1724.39
807.67	1587.18
807.84	1722.34
808.01	1650.66
808.19	1837.03
808.36	1814.50
808.54	1740.77
808.71	1626.09
808.88	1740.77
809.06	1783.78
809.23	1753.06
809.40	1738.73
809.58	1775.59
809.75	1740.77
809.92	1593.32
810.10	1855.46
810.27	1681.38
810.44	1730.53
810.62	1767.40
810.79	1728.49
810.96	1697.77
811.14	1701.86
811.31	1726.44
811.48	1763.30
811.66	1722.34
811.83	1759.21
812.00	1705.96
812.18	1759.21
812.35	1826.79
812.52	1634.28
812.69	1693.67
812.87	1765.35
813.04	1646.57
813.21	1669.09
813.39	1695.72
813.56	1632.23
813.73	1665.00
813.91	1607.66
814.08	1785.83
814.25	1765.35
814.42	1605.61
814.60	1665.00
814.77	1701.86
814.94	1763.30
815.12	1767.40
815.29	1718.25
815.46	1658.85
815.63	1755.11
815.81	1728.49
815.98	1771.49
816.15	1699.81
816.33	1738.73
816.50	1634.28
816.67	1738.73
816.84	1593.32
817.02	1638.38
817.19	1665.00
817.36	1736.68
817.53	1759.21
817.71	1646.57
817.88	1755.11
818.05	1689.57
818.22	1611.75
818.40	1834.98
818.57	1654.76
818.74	1755.11
818.91	1716.20
819.09	1761.25
819.26	1826.79
819.43	1576.94
819.60	1640.42
819.78	1771.49
819.95	1781.73
820.12	1640.42
820.29	1773.54
820.47	1775.59
820.64	1660.90
820.81	1662.95
820.98	1675.24
821.15	1650.66
821.33	1806.31
821.50	1650.66
821.67	1720.29
821.84	1671.14
822.02	1771.49
822.19	1847.27
822.36	1656.81
822.53	1697.77
822.70	1673.19
822.88	1712.10
823.05	1791.97
823.22	1660.90
823.39	1773.54
823.56	1714.15
823.74	1798.12
823.91	1687.53
824.08	1665.00
824.25	1658.85
824.42	1773.54
824.60	1636.33
824.77	1712.10
824.94	1722.34
825.11	1693.67
825.28	1548.26
825.45	1730.53
825.63	1722.34
825.80	1644.52
825.97	1755.11
826.14	1681.38
826.31	1677.29
826.48	1746.92
826.66	1677.29
826.83	1648.61
827.00	1744.87
827.17	1638.38
827.34	1800.16
827.51	1687.53
827.69	1624.04
827.86	1566.70
828.03	1646.57
828.20	1753.06
828.37	1638.38
828.54	1722.34
828.71	1675.24
828.89	1820.64
829.06	1712.10
829.23	1789.92
829.40	1705.96
829.57	1712.10
829.74	1701.86
829.91	1648.61
830.09	1640.42
830.26	1720.29
830.43	1847.27
830.60	1703.91
830.77	1732.58
830.94	1763.30
831.11	1742.82
831.28	1685.48
831.46	1708.01
831.63	1710.05
831.80	1779.68
831.97	1601.51
832.14	1656.81
832.31	1697.77
832.48	1656.81
832.65	1761.25
832.82	1662.95
832.99	1744.87
833.17	1734.63
833.34	1822.69
833.51	1779.68
833.68	1591.27
833.85	1753.06
834.02	1699.81
834.19	1697.77
834.36	1738.73
834.53	1775.59
834.70	1726.44
834.87	1718.25
835.04	1683.43
835.22	1710.05
835.39	1779.68
835.56	1730.53
835.73	1708.01
835.90	1730.53
836.07	1638.38
836.24	1748.97
836.41	1763.30
836.58	1640.42
836.75	1677.29
836.92	1728.49
837.09	1595.37
837.26	1783.78
837.43	1701.86
837.60	1710.05
837.77	1667.05
837.94	1802.21
838.12	1769.44
838.29	1732.58
838.46	1675.24
838.63	1642.47
838.80	1779.68
838.97	1691.62
839.14	1710.05
839.31	1724.39
839.48	1701.86
839.65	1767.40
839.82	1777.64
839.99	1742.82
840.16	1683.43
840.33	1660.90
840.50	1765.35
840.67	1654.76
840.84	1542.12
841.01	1685.48
841.18	1730.53
841.35	1669.09
841.52	1693.67
841.69	1794.02
841.86	1699.81
842.03	1693.67
842.20	1722.34
842.37	1656.81
842.54	1701.86
842.71	1773.54
842.88	1585.13
843.05	1779.68
843.22	1669.09
843.39	1736.68
843.56	1738.73
843.73	1738.73
843.90	1697.77
844.07	1701.86
844.24	1753.06
844.41	1746.92
844.58	1759.21
844.75	1703.91
844.92	1748.97
845.09	1685.48
845.26	1681.38
845.43	1667.05
845.60	1720.29
845.77	1726.44
845.94	1695.72
846.10	1730.53
846.27	1599.46
846.44	1693.67
846.61	1595.37
846.78	1685.48
846.95	1812.45
847.12	1665.00
847.29	1796.07
847.46	1624.04
847.63	1734.63
847.80	1636.33
847.97	1710.05
848.14	1828.84
848.31	1697.77
848.48	1611.75
848.65	1724.39
848.82	1726.44
848.98	1798.12
849.15	1724.39
849.32	1820.64
849.49	1810.40
849.66	1656.81
849.83	1679.33
850.00	1632.23
850.17	1746.92
850.34	1708.01
850.51	1675.24
850.68	1687.53
850.85	1902.56
851.01	1744.87
851.18	1789.92
851.35	1736.68
851.52	1697.77
851.69	1785.83
851.86	1658.85
852.03	1761.25
852.20	1685.48
852.37	1693.67
852.53	1652.71
852.70	1705.96
852.87	1718.25
853.04	1783.78
853.21	1685.48
853.38	1705.96
853.55	1732.58
853.72	1771.49
853.89	1712.10
854.05	1607.66
854.22	1687.53
854.39	1660.90
854.56	1705.96
854.73	1767.40
854.90	1644.52
855.07	1681.38
855.23	1730.53
855.40	1595.37
855.57	1714.15
855.74	1562.60
855.91	1882.08
856.08	1652.71
856.25	1638.38
856.41	1691.62
856.58	1691.62
856.75	1665.00
856.92	1609.70
857.09	1689.57
857.26	1621.99
857.42	1693.67
857.59	1769.44
857.76	1630.18
857.93	1701.86
858.10	1787.88
858.27	1638.38
858.43	1689.57
858.60	1712.10
858.77	1591.27
858.94	1644.52
859.11	1732.58
859.27	1689.57
859.44	1759.21
859.61	1855.46
859.78	1775.59
859.95	1736.68
860.12	1630.18
860.28	1748.97
860.45	1806.31
860.62	1708.01
860.79	1730.53
860.95	1646.57
861.12	1673.19
861.29	1728.49
861.46	1689.57
861.63	1683.43
861.79	1738.73
861.96	1607.66
862.13	1617.90
862.30	1742.82
862.47	1675.24
862.63	1560.55
862.80	1726.44
862.97	1728.49
863.14	1712.10
863.30	1681.38
863.47	1677.29
863.64	1873.89
863.81	1730.53
863.97	1679.33
864.14	1701.86
864.31	1751.01
864.48	1722.34
864.65	1669.09
864.81	1738.73
864.98	1761.25
865.15	1710.05
865.32	1761.25
865.48	1814.50
865.65	1755.11
865.82	1673.19
865.98	1695.72
866.15	1740.77
866.32	1673.19
866.49	1679.33
866.65	1730.53
866.82	1699.81
866.99	1634.28
867.16	1662.95
867.32	1599.46
867.49	1703.91
867.66	1710.05
867.83	1726.44
867.99	1636.33
868.16	1665.00
868.33	1679.33
868.49	1724.39
868.66	1654.76
868.83	1751.01
868.99	1718.25
869.16	1667.05
869.33	1787.88
869.50	1673.19
869.66	1769.44
869.83	1734.63
870.00	1724.39
870.16	1683.43
870.33	1763.30
870.50	1753.06
870.66	1669.09
870.83	1841.12
871.00	1662.95
871.17	1689.57
871.33	1722.34
871.50	1738.73
871.67	1720.29
871.83	1658.85
872.00	1794.02
872.17	1738.73
872.33	1730.53
872.50	1734.63
872.67	1636.33
872.83	1679.33
873.00	1705.96
873.17	1648.61
873.33	1716.20
873.50	1701.86
873.67	1685.48
873.83	1671.14
874.00	1697.77
874.16	1740.77
874.33	1679.33
874.50	1544.17
874.66	1787.88
874.83	1691.62
875.00	1812.45
875.16	1732.58
875.33	1691.62
875.50	1585.13
875.66	1609.70
875.83	1724.39
875.99	1791.97
876.16	1759.21
876.33	1671.14
876.49	1634.28
876.66	1759.21
876.83	1624.04
876.99	1646.57
877.16	1656.81
877.32	1697.77
877.49	1632.23
877.66	1794.02
877.82	1871.84
877.99	1665.00
878.15	1736.68
878.32	1669.09
878.49	1689.57
878.65	1667.05
878.82	1726.44
878.98	1716.20
879.15	1742.82
879.32	1787.88
879.48	1755.11
879.65	1716.20
879.81	1697.77
879.98	1667.05
880.15	1689.57
880.31	1742.82
880.48	1701.86
880.64	1798.12
880.81	1724.39
880.97	1767.40
881.14	1716.20
881.31	1630.18
881.47	1830.88
881.64	1746.92
881.80	1642.47
881.97	1734.63
882.13	1738.73
882.30	1671.14
882.47	1695.72
882.63	1677.29
882.80	1644.52
882.96	1642.47
883.13	1730.53
883.29	1671.14
883.46	1755.11
883.62	1742.82
883.79	1761.25
883.95	1775.59
884.12	1714.15
884.29	1806.31
884.45	1722.34
884.62	1763.30
884.78	1675.24
884.95	1755.11
885.11	1665.00
885.28	1757.16
885.44	1685.48
885.61	1705.96
885.77	1816.55
885.94	1716.20
886.10	1771.49
886.27	1671.14
886.43	1787.88
886.60	1765.35
886.76	1628.14
886.93	1636.33
887.09	1804.26
887.26	1515.50
887.42	1734.63
887.59	1640.42
887.75	1726.44
887.92	1740.77
888.08	1689.57
888.25	1708.01
888.41	1732.58
888.58	1722.34
888.74	1652.71
888.91	1683.43
>>>>>End Processed Spectral Data<<<<<
