SpectraSuite Data File
++++++++++++++++++++++++++++++++++++
Date: Mon Jun 06 16:00:57 CEST 2016
User: root
Dark Spectrum Present: No
Reference Spectrum Present: No
Number of Sampled Component Spectra: 1
Spectrometers: USB4C02835
Integration Time (usec): 100000 (USB4C02835)
Spectra Averaged: 1 (USB4C02835)
Boxcar Smoothing: 0 (USB4C02835)
Correct for Electrical Dark: No (USB4C02835)
Strobe/Lamp Enabled: No (USB4C02835)
Correct for Detector Non-linearity: No (USB4C02835)
Correct for Stray Light: No (USB4C02835)
Number of Pixels in Processed Spectrum: 3648
>>>>>Begin Processed Spectral Data<<<<<
177.47	1429.48
177.69	1429.48
177.91	1429.48
178.13	1464.30
178.36	1466.35
178.58	1621.99
178.80	1763.30
179.02	1628.14
179.24	1703.91
179.46	1712.10
179.68	1732.58
179.90	1740.77
180.13	1736.68
180.35	1613.80
180.57	1714.15
180.79	1755.11
181.01	1697.77
181.23	1802.21
181.45	1757.16
181.67	1710.05
181.90	1683.43
182.12	1697.77
182.34	1667.05
182.56	1722.34
182.78	1763.30
183.00	1730.53
183.22	1681.38
183.44	1628.14
183.66	1853.41
183.89	1824.74
184.11	1652.71
184.33	1718.25
184.55	1755.11
184.77	1771.49
184.99	1767.40
185.21	1710.05
185.43	1810.40
185.65	1695.72
185.87	1642.47
186.10	1849.32
186.32	1918.95
186.54	1714.15
186.76	1722.34
186.98	1734.63
187.20	1738.73
187.42	1699.81
187.64	1755.11
187.86	1697.77
188.08	1738.73
188.30	1718.25
188.52	1738.73
188.75	1781.73
188.97	1763.30
189.19	1689.57
189.41	1740.77
189.63	1781.73
189.85	1599.46
190.07	1593.32
190.29	1621.99
190.51	1665.00
190.73	1708.01
190.95	1828.84
191.17	1601.51
191.39	1581.03
191.61	1701.86
191.84	1691.62
192.06	1689.57
192.28	1621.99
192.50	1937.38
192.72	1687.53
192.94	1681.38
193.16	1791.97
193.38	1644.52
193.60	1576.94
193.82	1732.58
194.04	1757.16
194.26	1695.72
194.48	1769.44
194.70	1642.47
194.92	1587.18
195.14	1794.02
195.36	1720.29
195.58	1757.16
195.80	1742.82
196.02	1665.00
196.24	1787.88
196.46	1712.10
196.69	1701.86
196.91	1818.60
197.13	1730.53
197.35	1632.23
197.57	1845.22
197.79	1738.73
198.01	1685.48
198.23	1777.64
198.45	1767.40
198.67	1695.72
198.89	1708.01
199.11	1683.43
199.33	1681.38
199.55	1611.75
199.77	1681.38
199.99	1740.77
200.21	1675.24
200.43	1685.48
200.65	1701.86
200.87	1652.71
201.09	1777.64
201.31	1708.01
201.53	1720.29
201.75	1695.72
201.97	1687.53
202.19	1699.81
202.41	1738.73
202.63	1839.08
202.85	1720.29
203.07	1681.38
203.29	1656.81
203.51	1691.62
203.73	1617.90
203.95	1892.32
204.17	1732.58
204.39	1693.67
204.61	1695.72
204.83	1665.00
205.05	1761.25
205.27	1802.21
205.49	1826.79
205.71	1660.90
205.93	1634.28
206.15	1685.48
206.37	1757.16
206.59	1728.49
206.81	1615.85
207.03	1660.90
207.25	1628.14
207.47	1791.97
207.69	1636.33
207.91	1744.87
208.13	1781.73
208.34	1667.05
208.56	1611.75
208.78	1701.86
209.00	1710.05
209.22	1691.62
209.44	1701.86
209.66	1669.09
209.88	1687.53
210.10	1703.91
210.32	1599.46
210.54	1800.16
210.76	1660.90
210.98	1818.60
211.20	1648.61
211.42	1695.72
211.64	1753.06
211.86	1722.34
212.08	1730.53
212.30	1779.68
212.52	1771.49
212.74	1849.32
212.96	1708.01
213.17	1699.81
213.39	1810.40
213.61	1759.21
213.83	1748.97
214.05	1697.77
214.27	1779.68
214.49	1710.05
214.71	1609.70
214.93	1761.25
215.15	1710.05
215.37	1751.01
215.59	1667.05
215.81	1695.72
216.03	1849.32
216.24	1722.34
216.46	1667.05
216.68	1673.19
216.90	1724.39
217.12	1742.82
217.34	1730.53
217.56	1693.67
217.78	1779.68
218.00	1742.82
218.22	1671.14
218.44	1697.77
218.66	1726.44
218.87	1794.02
219.09	1714.15
219.31	1765.35
219.53	1761.25
219.75	1708.01
219.97	1691.62
220.19	1689.57
220.41	1703.91
220.63	1781.73
220.85	1730.53
221.06	1757.16
221.28	1767.40
221.50	1767.40
221.72	1675.24
221.94	1744.87
222.16	1738.73
222.38	1777.64
222.60	1783.78
222.82	1660.90
223.03	1769.44
223.25	1658.85
223.47	1724.39
223.69	1869.80
223.91	1738.73
224.13	1746.92
224.35	1726.44
224.57	1794.02
224.78	1746.92
225.00	1607.66
225.22	1751.01
225.44	1660.90
225.66	1800.16
225.88	1595.37
226.10	1755.11
226.32	1775.59
226.53	1839.08
226.75	1665.00
226.97	1767.40
227.19	1742.82
227.41	1648.61
227.63	1742.82
227.85	1603.56
228.06	1662.95
228.28	1763.30
228.50	1781.73
228.72	1640.42
228.94	1708.01
229.16	1613.80
229.37	1642.47
229.59	1671.14
229.81	1751.01
230.03	1724.39
230.25	1589.22
230.47	1683.43
230.69	1652.71
230.90	1742.82
231.12	1703.91
231.34	1671.14
231.56	1763.30
231.78	1691.62
232.00	1740.77
232.21	1712.10
232.43	1720.29
232.65	1621.99
232.87	1779.68
233.09	1624.04
233.30	1710.05
233.52	1800.16
233.74	1695.72
233.96	1703.91
234.18	1697.77
234.40	1714.15
234.61	1896.42
234.83	1613.80
235.05	1624.04
235.27	1863.65
235.49	1775.59
235.70	1744.87
235.92	1839.08
236.14	1738.73
236.36	1873.89
236.58	1648.61
236.79	1679.33
237.01	1697.77
237.23	1796.07
237.45	1753.06
237.67	1648.61
237.88	1789.92
238.10	1773.54
238.32	1712.10
238.54	1658.85
238.76	1773.54
238.97	1665.00
239.19	1708.01
239.41	1703.91
239.63	1794.02
239.85	1679.33
240.06	1767.40
240.28	1705.96
240.50	1691.62
240.72	1753.06
240.93	1775.59
241.15	1789.92
241.37	1667.05
241.59	1759.21
241.81	1687.53
242.02	1734.63
242.24	1677.29
242.46	1789.92
242.68	1613.80
242.89	1697.77
243.11	1730.53
243.33	1705.96
243.55	1761.25
243.76	1767.40
243.98	1736.68
244.20	1705.96
244.42	1775.59
244.64	1732.58
244.85	1685.48
245.07	1665.00
245.29	1806.31
245.51	1742.82
245.72	1734.63
245.94	1730.53
246.16	1794.02
246.38	1781.73
246.59	1597.42
246.81	1656.81
247.03	1703.91
247.24	1609.70
247.46	1630.18
247.68	1665.00
247.90	1628.14
248.11	1671.14
248.33	1810.40
248.55	1724.39
248.77	1642.47
248.98	1828.84
249.20	1849.32
249.42	1712.10
249.64	1695.72
249.85	1640.42
250.07	1679.33
250.29	1787.88
250.50	1791.97
250.72	1675.24
250.94	1726.44
251.16	1806.31
251.37	1763.30
251.59	1644.52
251.81	1734.63
252.02	1820.64
252.24	1738.73
252.46	1785.83
252.68	1683.43
252.89	1708.01
253.11	1658.85
253.33	1783.78
253.54	1746.92
253.76	1662.95
253.98	1773.54
254.20	1632.23
254.41	1662.95
254.63	1689.57
254.85	1636.33
255.06	1689.57
255.28	1638.38
255.50	1589.22
255.71	1699.81
255.93	1628.14
256.15	1689.57
256.36	1796.07
256.58	1658.85
256.80	1732.58
257.02	1742.82
257.23	1744.87
257.45	1751.01
257.67	1746.92
257.88	1695.72
258.10	1800.16
258.32	1748.97
258.53	1662.95
258.75	1787.88
258.97	1660.90
259.18	1773.54
259.40	1753.06
259.62	1771.49
259.83	1769.44
260.05	1644.52
260.27	1964.00
260.48	1720.29
260.70	1650.66
260.92	1658.85
261.13	1718.25
261.35	1665.00
261.57	1705.96
261.78	1574.89
262.00	1656.81
262.22	1753.06
262.43	1683.43
262.65	1728.49
262.86	1730.53
263.08	1853.41
263.30	1830.88
263.51	1656.81
263.73	1695.72
263.95	1800.16
264.16	1630.18
264.38	1687.53
264.60	1746.92
264.81	1753.06
265.03	1748.97
265.25	1806.31
265.46	1681.38
265.68	1753.06
265.89	1861.60
266.11	1695.72
266.33	1763.30
266.54	1742.82
266.76	1771.49
266.98	1771.49
267.19	1902.56
267.41	1802.21
267.62	1722.34
267.84	1667.05
268.06	1681.38
268.27	1673.19
268.49	1861.60
268.70	1740.77
268.92	1650.66
269.14	1615.85
269.35	1665.00
269.57	1699.81
269.79	1687.53
270.00	1697.77
270.22	1755.11
270.43	1626.09
270.65	1591.27
270.87	1693.67
271.08	1738.73
271.30	1771.49
271.51	1708.01
271.73	1785.83
271.95	1808.36
272.16	1728.49
272.38	1755.11
272.59	1708.01
272.81	1763.30
273.02	1697.77
273.24	1757.16
273.46	1765.35
273.67	1775.59
273.89	1687.53
274.10	1675.24
274.32	1753.06
274.54	1685.48
274.75	1699.81
274.97	1609.70
275.18	1744.87
275.40	1695.72
275.61	1722.34
275.83	1642.47
276.05	1693.67
276.26	1740.77
276.48	1759.21
276.69	1703.91
276.91	1757.16
277.12	1783.78
277.34	1814.50
277.55	1830.88
277.77	1648.61
277.99	1705.96
278.20	1701.86
278.42	1701.86
278.63	1767.40
278.85	1710.05
279.06	1634.28
279.28	1726.44
279.49	1779.68
279.71	1800.16
279.93	1728.49
280.14	1640.42
280.36	1687.53
280.57	1728.49
280.79	1800.16
281.00	1726.44
281.22	1681.38
281.43	1814.50
281.65	1648.61
281.86	1671.14
282.08	1730.53
282.29	1820.64
282.51	1609.70
282.73	1642.47
282.94	1671.14
283.16	1751.01
283.37	1738.73
283.59	1751.01
283.80	1671.14
284.02	1683.43
284.23	1744.87
284.45	1718.25
284.66	1677.29
284.88	1632.23
285.09	1753.06
285.31	1751.01
285.52	1718.25
285.74	1636.33
285.95	1744.87
286.17	1650.66
286.38	1734.63
286.60	1708.01
286.81	1675.24
287.03	1656.81
287.24	1681.38
287.46	1767.40
287.67	1710.05
287.89	1871.84
288.10	1730.53
288.32	1730.53
288.53	1820.64
288.75	1738.73
288.96	1734.63
289.18	1687.53
289.39	1673.19
289.61	1708.01
289.82	1763.30
290.04	1810.40
290.25	1710.05
290.47	1677.29
290.68	1730.53
290.90	1708.01
291.11	1632.23
291.33	1755.11
291.54	1583.08
291.76	1642.47
291.97	1787.88
292.18	1748.97
292.40	1607.66
292.61	1673.19
292.83	1794.02
293.04	1732.58
293.26	1699.81
293.47	1675.24
293.69	1710.05
293.90	1705.96
294.12	1806.31
294.33	1703.91
294.55	1744.87
294.76	1675.24
294.97	1753.06
295.19	1914.85
295.40	1742.82
295.62	1748.97
295.83	1746.92
296.05	1652.71
296.26	1822.69
296.48	1734.63
296.69	1705.96
296.90	1656.81
297.12	1748.97
297.33	1779.68
297.55	1630.18
297.76	1728.49
297.98	1779.68
298.19	1804.26
298.41	1693.67
298.62	1697.77
298.83	1777.64
299.05	1732.58
299.26	1679.33
299.48	1701.86
299.69	1753.06
299.90	1779.68
300.12	1574.89
300.33	1732.58
300.55	1712.10
300.76	1718.25
300.98	1671.14
301.19	1695.72
301.40	1689.57
301.62	1697.77
301.83	1753.06
302.05	1640.42
302.26	1753.06
302.47	1751.01
302.69	1681.38
302.90	1675.24
303.12	1599.46
303.33	1753.06
303.54	1828.84
303.76	1662.95
303.97	1746.92
304.19	1832.93
304.40	1714.15
304.61	1816.55
304.83	1779.68
305.04	1632.23
305.26	1726.44
305.47	1673.19
305.68	1722.34
305.90	1638.38
306.11	1794.02
306.33	1644.52
306.54	1753.06
306.75	1628.14
306.97	1607.66
307.18	1716.20
307.39	1701.86
307.61	1738.73
307.82	1656.81
308.04	1714.15
308.25	1693.67
308.46	1744.87
308.68	1665.00
308.89	1652.71
309.10	1763.30
309.32	1685.48
309.53	1734.63
309.74	1769.44
309.96	1656.81
310.17	1779.68
310.39	1656.81
310.60	1779.68
310.81	1665.00
311.03	1562.60
311.24	1740.77
311.45	1615.85
311.67	1779.68
311.88	1669.09
312.09	1765.35
312.31	1617.90
312.52	1744.87
312.73	1662.95
312.95	1615.85
313.16	1589.22
313.37	1812.45
313.59	1791.97
313.80	1765.35
314.01	1740.77
314.23	1691.62
314.44	1701.86
314.65	1646.57
314.87	1634.28
315.08	1697.77
315.29	1595.37
315.51	1617.90
315.72	1701.86
315.93	1767.40
316.15	1785.83
316.36	1662.95
316.57	1730.53
316.79	1781.73
317.00	1695.72
317.21	1757.16
317.43	1613.80
317.64	1687.53
317.85	1691.62
318.07	1656.81
318.28	1751.01
318.49	1804.26
318.70	1906.66
318.92	1781.73
319.13	1810.40
319.34	1867.75
319.56	1783.78
319.77	1802.21
319.98	1794.02
320.20	1800.16
320.41	1755.11
320.62	1775.59
320.83	1714.15
321.05	1837.03
321.26	1720.29
321.47	1714.15
321.69	1767.40
321.90	1689.57
322.11	1701.86
322.32	1703.91
322.54	1753.06
322.75	1693.67
322.96	1855.46
323.18	1617.90
323.39	1626.09
323.60	1720.29
323.81	1708.01
324.03	1748.97
324.24	1794.02
324.45	1701.86
324.66	1759.21
324.88	1769.44
325.09	1853.41
325.30	1722.34
325.52	1759.21
325.73	1695.72
325.94	1628.14
326.15	1636.33
326.37	1679.33
326.58	1755.11
326.79	1814.50
327.00	1679.33
327.22	1753.06
327.43	1648.61
327.64	1650.66
327.85	1759.21
328.07	1703.91
328.28	1722.34
328.49	1667.05
328.70	1671.14
328.92	1738.73
329.13	1665.00
329.34	1720.29
329.55	1816.55
329.76	1781.73
329.98	1767.40
330.19	1775.59
330.40	1757.16
330.61	1755.11
330.83	1742.82
331.04	1654.76
331.25	1771.49
331.46	1681.38
331.68	1585.13
331.89	1785.83
332.10	1703.91
332.31	1667.05
332.52	1783.78
332.74	1804.26
332.95	1613.80
333.16	1673.19
333.37	1710.05
333.58	1689.57
333.80	1681.38
334.01	1595.37
334.22	1632.23
334.43	1626.09
334.64	1662.95
334.86	1660.90
335.07	1667.05
335.28	1824.74
335.49	1685.48
335.70	1744.87
335.92	1898.47
336.13	1834.98
336.34	1736.68
336.55	1777.64
336.76	1705.96
336.98	1581.03
337.19	1697.77
337.40	1855.46
337.61	1826.79
337.82	1730.53
338.04	1726.44
338.25	1621.99
338.46	1742.82
338.67	1667.05
338.88	1681.38
339.09	1660.90
339.31	1605.61
339.52	1613.80
339.73	1644.52
339.94	1738.73
340.15	1638.38
340.36	1755.11
340.58	1675.24
340.79	1689.57
341.00	1681.38
341.21	1638.38
341.42	1789.92
341.63	1699.81
341.85	1703.91
342.06	1726.44
342.27	1650.66
342.48	1693.67
342.69	1679.33
342.90	1697.77
343.12	1771.49
343.33	1667.05
343.54	1730.53
343.75	1796.07
343.96	1732.58
344.17	1628.14
344.38	1742.82
344.60	1562.60
344.81	1685.48
345.02	1617.90
345.23	1775.59
345.44	1765.35
345.65	1769.44
345.86	1730.53
346.07	1673.19
346.29	1669.09
346.50	1816.55
346.71	1763.30
346.92	1818.60
347.13	1843.17
347.34	1724.39
347.55	1785.83
347.76	1705.96
347.98	1640.42
348.19	1722.34
348.40	1773.54
348.61	1748.97
348.82	1796.07
349.03	1699.81
349.24	1718.25
349.45	1728.49
349.66	1624.04
349.88	1705.96
350.09	1683.43
350.30	1830.88
350.51	1757.16
350.72	1671.14
350.93	1708.01
351.14	1708.01
351.35	1726.44
351.56	1665.00
351.77	1757.16
351.99	1787.88
352.20	1771.49
352.41	1779.68
352.62	1681.38
352.83	1744.87
353.04	1722.34
353.25	1679.33
353.46	1843.17
353.67	1841.12
353.88	1646.57
354.09	1755.11
354.30	1607.66
354.52	1730.53
354.73	1689.57
354.94	1689.57
355.15	1736.68
355.36	1849.32
355.57	1742.82
355.78	1738.73
355.99	1615.85
356.20	1669.09
356.41	1708.01
356.62	1685.48
356.83	1785.83
357.04	1785.83
357.25	1648.61
357.46	1687.53
357.68	1656.81
357.89	1689.57
358.10	1806.31
358.31	1726.44
358.52	1773.54
358.73	1574.89
358.94	1675.24
359.15	1693.67
359.36	1763.30
359.57	1658.85
359.78	1828.84
359.99	1716.20
360.20	1650.66
360.41	1728.49
360.62	1722.34
360.83	1724.39
361.04	1712.10
361.25	1714.15
361.46	1775.59
361.67	1720.29
361.88	1796.07
362.09	1787.88
362.30	1730.53
362.51	1759.21
362.72	1718.25
362.93	1746.92
363.14	1763.30
363.35	1693.67
363.56	1617.90
363.78	1767.40
363.99	1787.88
364.20	1718.25
364.41	1763.30
364.62	1775.59
364.83	1705.96
365.04	1685.48
365.25	1730.53
365.46	1843.17
365.67	1689.57
365.88	1681.38
366.09	1738.73
366.30	1662.95
366.51	1728.49
366.72	1669.09
366.93	1705.96
367.14	1761.25
367.35	1812.45
367.56	1683.43
367.77	1738.73
367.98	1669.09
368.18	1718.25
368.39	1681.38
368.60	1640.42
368.81	1726.44
369.02	1708.01
369.23	1710.05
369.44	1640.42
369.65	1705.96
369.86	1714.15
370.07	1767.40
370.28	1669.09
370.49	1787.88
370.70	1673.19
370.91	1720.29
371.12	1626.09
371.33	1814.50
371.54	1673.19
371.75	1804.26
371.96	1562.60
372.17	1722.34
372.38	1699.81
372.59	1796.07
372.80	1722.34
373.01	1660.90
373.22	1703.91
373.43	1728.49
373.64	1738.73
373.85	1761.25
374.06	1853.41
374.26	1767.40
374.47	1708.01
374.68	1775.59
374.89	1714.15
375.10	1746.92
375.31	1699.81
375.52	1714.15
375.73	1665.00
375.94	1730.53
376.15	1748.97
376.36	1683.43
376.57	1693.67
376.78	1681.38
376.99	1742.82
377.20	1759.21
377.40	1681.38
377.61	1804.26
377.82	1595.37
378.03	1796.07
378.24	1802.21
378.45	1736.68
378.66	1738.73
378.87	1642.47
379.08	1712.10
379.29	1630.18
379.50	1736.68
379.71	1701.86
379.91	1740.77
380.12	1773.54
380.33	1736.68
380.54	1718.25
380.75	1675.24
380.96	1611.75
381.17	1845.22
381.38	1685.48
381.59	1703.91
381.80	1773.54
382.00	1906.66
382.21	1726.44
382.42	1871.84
382.63	1837.03
382.84	1679.33
383.05	1814.50
383.26	1851.36
383.47	1769.44
383.68	1791.97
383.88	1755.11
384.09	1708.01
384.30	1685.48
384.51	1722.34
384.72	1769.44
384.93	1585.13
385.14	1669.09
385.35	1708.01
385.55	1665.00
385.76	1759.21
385.97	1785.83
386.18	1669.09
386.39	1701.86
386.60	1667.05
386.81	1677.29
387.02	1636.33
387.22	1687.53
387.43	1687.53
387.64	1777.64
387.85	1927.14
388.06	2224.09
388.27	4274.11
388.48	6682.52
388.68	8095.62
388.89	9508.72
389.10	9647.98
389.31	8640.38
389.52	7526.29
389.73	6659.99
389.93	6186.91
390.14	5793.70
390.35	5140.40
390.56	4523.96
390.77	3872.71
390.98	3086.29
391.18	2525.15
391.39	2168.80
391.60	1951.71
391.81	1871.84
392.02	1699.81
392.23	1773.54
392.43	1714.15
392.64	1832.93
392.85	1753.06
393.06	1773.54
393.27	1740.77
393.47	1632.23
393.68	1763.30
393.89	1710.05
394.10	1781.73
394.31	1660.90
394.52	1656.81
394.72	1701.86
394.93	1824.74
395.14	1675.24
395.35	1724.39
395.56	1673.19
395.76	1828.84
395.97	1857.51
396.18	1855.46
396.39	1847.27
396.60	2007.01
396.80	1937.38
397.01	1863.65
397.22	1814.50
397.43	1865.70
397.64	1703.91
397.84	1800.16
398.05	1871.84
398.26	1679.33
398.47	1781.73
398.67	1845.22
398.88	1767.40
399.09	1816.55
399.30	1738.73
399.51	1834.98
399.71	1679.33
399.92	1720.29
400.13	1669.09
400.34	1753.06
400.54	1687.53
400.75	1859.56
400.96	1751.01
401.17	1837.03
401.37	1791.97
401.58	1654.76
401.79	1785.83
402.00	1849.32
402.21	1957.86
402.41	2037.73
402.62	1935.33
402.83	1929.19
403.04	1976.29
403.24	2095.07
403.45	1818.60
403.66	2019.30
403.87	1814.50
404.07	1906.66
404.28	1892.32
404.49	1861.60
404.70	1814.50
404.90	1812.45
405.11	1753.06
405.32	1757.16
405.52	1662.95
405.73	1640.42
405.94	1642.47
406.15	1677.29
406.35	1730.53
406.56	1685.48
406.77	1744.87
406.98	1716.20
407.18	1638.38
407.39	1830.88
407.60	1679.33
407.80	1730.53
408.01	1671.14
408.22	1773.54
408.43	1658.85
408.63	1757.16
408.84	1800.16
409.05	1822.69
409.25	1636.33
409.46	1701.86
409.67	1691.62
409.88	1751.01
410.08	1779.68
410.29	1789.92
410.50	1716.20
410.70	1763.30
410.91	1660.90
411.12	1726.44
411.32	1722.34
411.53	1703.91
411.74	1818.60
411.95	1865.70
412.15	1763.30
412.36	1720.29
412.57	1679.33
412.77	1820.64
412.98	1769.44
413.19	1648.61
413.39	1804.26
413.60	1755.11
413.81	1869.80
414.01	1595.37
414.22	1734.63
414.43	1837.03
414.63	1658.85
414.84	1828.84
415.05	1757.16
415.25	1593.32
415.46	1828.84
415.67	1736.68
415.87	1722.34
416.08	1765.35
416.29	1660.90
416.49	1730.53
416.70	1726.44
416.91	1697.77
417.11	1765.35
417.32	1765.35
417.53	1783.78
417.73	1687.53
417.94	1621.99
418.15	1802.21
418.35	1738.73
418.56	1736.68
418.77	1890.28
418.97	1769.44
419.18	1724.39
419.38	1554.41
419.59	1724.39
419.80	1748.97
420.00	1687.53
420.21	1720.29
420.42	1832.93
420.62	1746.92
420.83	1665.00
421.04	1710.05
421.24	1718.25
421.45	1791.97
421.65	1779.68
421.86	1685.48
422.07	1744.87
422.27	1738.73
422.48	1677.29
422.69	1708.01
422.89	1718.25
423.10	1742.82
423.30	1662.95
423.51	1744.87
423.72	1722.34
423.92	1720.29
424.13	1677.29
424.33	1693.67
424.54	1730.53
424.75	1722.34
424.95	1822.69
425.16	1751.01
425.36	1675.24
425.57	1759.21
425.78	1845.22
425.98	1730.53
426.19	1736.68
426.39	1662.95
426.60	1773.54
426.81	1814.50
427.01	1726.44
427.22	1646.57
427.42	1642.47
427.63	1665.00
427.83	1775.59
428.04	1810.40
428.25	1759.21
428.45	1812.45
428.66	1822.69
428.86	1671.14
429.07	1740.77
429.28	1810.40
429.48	1642.47
429.69	1652.71
429.89	1761.25
430.10	1679.33
430.30	1683.43
430.51	1742.82
430.71	1603.56
430.92	1773.54
431.13	1679.33
431.33	1742.82
431.54	1710.05
431.74	1871.84
431.95	1804.26
432.15	1665.00
432.36	1718.25
432.56	1812.45
432.77	1814.50
432.98	1808.36
433.18	1789.92
433.39	1652.71
433.59	1673.19
433.80	1777.64
434.00	1767.40
434.21	1642.47
434.41	1714.15
434.62	1888.23
434.82	1689.57
435.03	1701.86
435.23	1773.54
435.44	1558.50
435.64	1818.60
435.85	1769.44
436.06	1724.39
436.26	1834.98
436.47	1755.11
436.67	1699.81
436.88	1701.86
437.08	1820.64
437.29	1812.45
437.49	1755.11
437.70	1798.12
437.90	1724.39
438.11	1802.21
438.31	1732.58
438.52	1839.08
438.72	1863.65
438.93	1923.04
439.13	1849.32
439.34	1871.84
439.54	1703.91
439.75	1834.98
439.95	1808.36
440.16	1843.17
440.36	1767.40
440.57	1787.88
440.77	1712.10
440.98	1775.59
441.18	1783.78
441.39	1693.67
441.59	1689.57
441.80	1882.08
442.00	1705.96
442.21	1832.93
442.41	1613.80
442.62	1746.92
442.82	1662.95
443.02	1705.96
443.23	1714.15
443.43	1779.68
443.64	1871.84
443.84	1701.86
444.05	1775.59
444.25	1728.49
444.46	1742.82
444.66	1802.21
444.87	1755.11
445.07	1654.76
445.28	1716.20
445.48	1841.12
445.69	1720.29
445.89	1847.27
446.09	1800.16
446.30	2072.54
446.50	2721.75
446.71	3684.30
446.91	4341.69
447.12	4646.84
447.32	4825.01
447.53	4239.30
447.73	3876.80
447.93	3411.92
448.14	3280.85
448.34	3215.31
448.55	2938.84
448.75	2885.59
448.96	2664.41
449.16	2435.03
449.36	2336.73
449.57	2056.16
449.77	1824.74
449.98	1834.98
450.18	1820.64
450.39	1849.32
450.59	1765.35
450.79	1746.92
451.00	1746.92
451.20	1771.49
451.41	1679.33
451.61	1759.21
451.81	1746.92
452.02	1755.11
452.22	1740.77
452.43	1673.19
452.63	1724.39
452.84	1695.72
453.04	1708.01
453.24	1796.07
453.45	1763.30
453.65	1779.68
453.86	1796.07
454.06	1720.29
454.26	1759.21
454.47	1685.48
454.67	1820.64
454.87	1802.21
455.08	1722.34
455.28	1855.46
455.49	1726.44
455.69	1728.49
455.89	1896.42
456.10	1812.45
456.30	1652.71
456.51	1720.29
456.71	1775.59
456.91	1798.12
457.12	1714.15
457.32	1834.98
457.52	1697.77
457.73	1841.12
457.93	1882.08
458.14	1703.91
458.34	1630.18
458.54	1697.77
458.75	1728.49
458.95	1802.21
459.15	1818.60
459.36	1804.26
459.56	1804.26
459.76	1923.04
459.97	1697.77
460.17	1742.82
460.37	1734.63
460.58	1777.64
460.78	1771.49
460.99	1685.48
461.19	1759.21
461.39	1716.20
461.60	1755.11
461.80	1783.78
462.00	1691.62
462.21	1746.92
462.41	1667.05
462.61	1689.57
462.82	1634.28
463.02	1822.69
463.22	1732.58
463.43	1800.16
463.63	1765.35
463.83	1912.80
464.04	1751.01
464.24	1751.01
464.44	1714.15
464.64	1695.72
464.85	1746.92
465.05	1812.45
465.25	1724.39
465.46	1724.39
465.66	1748.97
465.86	1728.49
466.07	1695.72
466.27	1693.67
466.47	1574.89
466.68	1617.90
466.88	1789.92
467.08	1753.06
467.29	1714.15
467.49	1742.82
467.69	1708.01
467.89	1757.16
468.10	1775.59
468.30	1720.29
468.50	1857.51
468.71	1755.11
468.91	1617.90
469.11	1888.23
469.31	1777.64
469.52	1744.87
469.72	1830.88
469.92	1845.22
470.13	1703.91
470.33	1751.01
470.53	1884.13
470.73	2076.64
470.94	2287.58
471.14	2375.64
471.34	2494.43
471.54	2355.16
471.75	2232.29
471.95	2086.88
472.15	2148.32
472.36	2088.93
472.56	1980.39
472.76	1990.63
472.96	2000.87
473.17	2058.21
473.37	1931.23
473.57	1740.77
473.77	1863.65
473.98	1757.16
474.18	1736.68
474.38	1949.67
474.58	1732.58
474.79	1777.64
474.99	1738.73
475.19	1748.97
475.39	1683.43
475.60	1722.34
475.80	1800.16
476.00	1687.53
476.20	1699.81
476.41	1722.34
476.61	1806.31
476.81	1824.74
477.01	1726.44
477.21	1834.98
477.42	1902.56
477.62	1718.25
477.82	1763.30
478.02	1679.33
478.23	1761.25
478.43	1714.15
478.63	1726.44
478.83	1679.33
479.03	1634.28
479.24	1812.45
479.44	1814.50
479.64	1695.72
479.84	1693.67
480.04	1685.48
480.25	1705.96
480.45	1687.53
480.65	1675.24
480.85	1822.69
481.06	1634.28
481.26	1761.25
481.46	1718.25
481.66	1716.20
481.86	1738.73
482.06	1880.04
482.27	1740.77
482.47	1699.81
482.67	1763.30
482.87	1714.15
483.07	1767.40
483.28	1638.38
483.48	1695.72
483.68	1724.39
483.88	1705.96
484.08	1652.71
484.29	1691.62
484.49	1658.85
484.69	1673.19
484.89	1882.08
485.09	1773.54
485.29	1775.59
485.50	1716.20
485.70	1699.81
485.90	1804.26
486.10	1794.02
486.30	1773.54
486.50	1771.49
486.71	1771.49
486.91	1716.20
487.11	1824.74
487.31	1708.01
487.51	1744.87
487.71	1681.38
487.91	1730.53
488.12	1660.90
488.32	1611.75
488.52	1746.92
488.72	1587.18
488.92	1734.63
489.12	1802.21
489.32	1791.97
489.53	1802.21
489.73	1607.66
489.93	1843.17
490.13	1695.72
490.33	1673.19
490.53	1808.36
490.73	1742.82
490.94	1677.29
491.14	1722.34
491.34	1904.61
491.54	2201.57
491.74	2541.53
491.94	2863.06
492.14	2994.13
492.34	3014.61
492.54	2725.85
492.75	2582.49
492.95	2443.23
493.15	2355.16
493.35	2226.14
493.55	2265.05
493.75	2152.42
493.95	2076.64
494.15	2033.63
494.35	1986.53
494.56	1841.12
494.76	1849.32
494.96	1761.25
495.16	1734.63
495.36	1748.97
495.56	1714.15
495.76	1746.92
495.96	1708.01
496.16	1601.51
496.36	1886.18
496.56	1808.36
496.77	1812.45
496.97	1738.73
497.17	1804.26
497.37	1710.05
497.57	1710.05
497.77	1781.73
497.97	1673.19
498.17	1718.25
498.37	1748.97
498.57	1773.54
498.77	1730.53
498.97	1767.40
499.17	1830.88
499.38	1675.24
499.58	1755.11
499.78	1796.07
499.98	1798.12
500.18	1791.97
500.38	1738.73
500.58	1931.23
500.78	2562.01
500.98	4593.59
501.18	5683.11
501.38	6770.58
501.58	6991.77
501.78	6789.02
501.98	5416.88
502.18	4900.79
502.38	4321.21
502.58	4140.99
502.78	3778.50
502.98	3674.06
503.18	3440.59
503.38	3129.30
503.59	2824.15
503.79	2664.41
503.99	2512.86
504.19	2301.92
504.39	2205.66
504.59	2121.70
504.79	2156.51
504.99	2070.50
505.19	1964.00
505.39	1873.89
505.59	2029.54
505.79	1986.53
505.99	1884.13
506.19	1775.59
506.39	1796.07
506.59	1832.93
506.79	1775.59
506.99	1923.04
507.19	1724.39
507.39	1765.35
507.59	1697.77
507.79	1740.77
507.99	1740.77
508.19	1771.49
508.39	1648.61
508.59	1716.20
508.79	1832.93
508.99	1830.88
509.19	1689.57
509.39	1740.77
509.59	1687.53
509.79	1734.63
509.99	1716.20
510.19	1810.40
510.39	1794.02
510.59	1757.16
510.79	1753.06
510.99	1648.61
511.19	1689.57
511.39	1843.17
511.59	1796.07
511.79	1867.75
511.99	1744.87
512.19	1787.88
512.38	1681.38
512.58	1714.15
512.78	1660.90
512.98	1849.32
513.18	1773.54
513.38	1636.33
513.58	1847.27
513.78	1671.14
513.98	1765.35
514.18	1628.14
514.38	1701.86
514.58	1748.97
514.78	1699.81
514.98	1658.85
515.18	1746.92
515.38	1669.09
515.58	1877.99
515.78	1744.87
515.98	1791.97
516.18	1767.40
516.38	1761.25
516.57	1736.68
516.77	1765.35
516.97	1720.29
517.17	1751.01
517.37	1646.57
517.57	1814.50
517.77	1718.25
517.97	1806.31
518.17	1822.69
518.37	1656.81
518.57	1759.21
518.77	1662.95
518.97	1867.75
519.16	1740.77
519.36	1861.60
519.56	1779.68
519.76	1726.44
519.96	1787.88
520.16	1824.74
520.36	1728.49
520.56	1824.74
520.76	1720.29
520.96	1662.95
521.16	1783.78
521.35	1769.44
521.55	1890.28
521.75	1810.40
521.95	1722.34
522.15	1742.82
522.35	1705.96
522.55	1669.09
522.75	1806.31
522.95	1738.73
523.14	1732.58
523.34	1810.40
523.54	1673.19
523.74	1832.93
523.94	1716.20
524.14	1640.42
524.34	1802.21
524.54	1820.64
524.73	1730.53
524.93	1708.01
525.13	1812.45
525.33	1648.61
525.53	1828.84
525.73	1789.92
525.93	1703.91
526.13	1740.77
526.32	1757.16
526.52	1830.88
526.72	1787.88
526.92	1779.68
527.12	1732.58
527.32	1687.53
527.52	1841.12
527.71	1794.02
527.91	1757.16
528.11	1671.14
528.31	1730.53
528.51	1685.48
528.71	1800.16
528.90	1828.84
529.10	1873.89
529.30	1859.56
529.50	1601.51
529.70	1736.68
529.90	1724.39
530.09	1773.54
530.29	1603.56
530.49	1683.43
530.69	1884.13
530.89	1814.50
531.09	1777.64
531.28	1716.20
531.48	1824.74
531.68	1785.83
531.88	1746.92
532.08	1796.07
532.28	1632.23
532.47	1843.17
532.67	1800.16
532.87	1800.16
533.07	1693.67
533.27	1853.41
533.46	1773.54
533.66	1777.64
533.86	1742.82
534.06	1697.77
534.26	1714.15
534.45	1695.72
534.65	1681.38
534.85	1710.05
535.05	1744.87
535.25	1787.88
535.44	1632.23
535.64	1781.73
535.84	1624.04
536.04	1675.24
536.24	1683.43
536.43	1695.72
536.63	1820.64
536.83	1742.82
537.03	1697.77
537.22	1675.24
537.42	1636.33
537.62	1726.44
537.82	1746.92
538.02	1767.40
538.21	1828.84
538.41	1902.56
538.61	1798.12
538.81	1667.05
539.00	1853.41
539.20	1679.33
539.40	1763.30
539.60	1767.40
539.79	1783.78
539.99	1757.16
540.19	1722.34
540.39	1781.73
540.58	1648.61
540.78	1796.07
540.98	1740.77
541.18	1806.31
541.37	1798.12
541.57	1724.39
541.77	1783.78
541.97	1656.81
542.16	1642.47
542.36	1757.16
542.56	1736.68
542.76	1816.55
542.95	1740.77
543.15	1748.97
543.35	1802.21
543.54	1687.53
543.74	1722.34
543.94	1785.83
544.14	1722.34
544.33	1781.73
544.53	1767.40
544.73	1761.25
544.93	1828.84
545.12	1781.73
545.32	1705.96
545.52	1730.53
545.71	1722.34
545.91	1687.53
546.11	1794.02
546.30	1669.09
546.50	1773.54
546.70	1806.31
546.90	1789.92
547.09	1671.14
547.29	1728.49
547.49	1746.92
547.68	1626.09
547.88	1751.01
548.08	1789.92
548.27	2181.09
548.47	1705.96
548.67	1687.53
548.87	1763.30
549.06	1693.67
549.26	1845.22
549.46	1808.36
549.65	1703.91
549.85	1681.38
550.05	1771.49
550.24	1705.96
550.44	1779.68
550.64	1806.31
550.83	1763.30
551.03	1832.93
551.23	1796.07
551.42	1796.07
551.62	1771.49
551.82	1746.92
552.01	1720.29
552.21	1814.50
552.41	1751.01
552.60	1800.16
552.80	1751.01
553.00	1730.53
553.19	1820.64
553.39	1763.30
553.59	1665.00
553.78	1775.59
553.98	1828.84
554.17	1724.39
554.37	1718.25
554.57	1791.97
554.76	1742.82
554.96	1660.90
555.16	1677.29
555.35	1718.25
555.55	1769.44
555.75	1697.77
555.94	1839.08
556.14	1628.14
556.33	1773.54
556.53	1769.44
556.73	1785.83
556.92	1773.54
557.12	1834.98
557.32	1947.62
557.51	1812.45
557.71	1800.16
557.90	1816.55
558.10	1796.07
558.30	1699.81
558.49	1789.92
558.69	1765.35
558.88	1779.68
559.08	1765.35
559.28	1781.73
559.47	1798.12
559.67	1746.92
559.86	1900.52
560.06	1763.30
560.26	1796.07
560.45	1779.68
560.65	1746.92
560.84	1818.60
561.04	1689.57
561.24	1773.54
561.43	1683.43
561.63	1755.11
561.82	1837.03
562.02	1773.54
562.22	1724.39
562.41	1671.14
562.61	1710.05
562.80	1687.53
563.00	1974.24
563.19	1849.32
563.39	1767.40
563.59	1701.86
563.78	1716.20
563.98	1658.85
564.17	1679.33
564.37	1605.61
564.56	1753.06
564.76	1654.76
564.96	1900.52
565.15	1724.39
565.35	1822.69
565.54	1705.96
565.74	1841.12
565.93	1886.18
566.13	1765.35
566.32	1808.36
566.52	1689.57
566.71	1730.53
566.91	1863.65
567.11	1716.20
567.30	1671.14
567.50	1796.07
567.69	1740.77
567.89	1734.63
568.08	1697.77
568.28	1730.53
568.47	1677.29
568.67	1746.92
568.86	1740.77
569.06	1695.72
569.25	1765.35
569.45	1665.00
569.64	1740.77
569.84	1685.48
570.04	1710.05
570.23	1732.58
570.43	1763.30
570.62	1779.68
570.82	1875.94
571.01	1759.21
571.21	1683.43
571.40	1693.67
571.60	1789.92
571.79	1775.59
571.99	1755.11
572.18	1667.05
572.38	1742.82
572.57	1710.05
572.77	1724.39
572.96	1877.99
573.16	1818.60
573.35	1720.29
573.55	1839.08
573.74	1798.12
573.94	1738.73
574.13	1720.29
574.33	1771.49
574.52	1785.83
574.71	1726.44
574.91	1832.93
575.10	1712.10
575.30	1751.01
575.49	1665.00
575.69	1746.92
575.88	1736.68
576.08	1746.92
576.27	1830.88
576.47	1738.73
576.66	1898.47
576.86	1890.28
577.05	1898.47
577.25	1824.74
577.44	1927.14
577.64	1791.97
577.83	1845.22
578.02	1742.82
578.22	1816.55
578.41	1812.45
578.61	1787.88
578.80	1658.85
579.00	1845.22
579.19	1804.26
579.39	1845.22
579.58	1808.36
579.77	1740.77
579.97	1814.50
580.16	1832.93
580.36	1828.84
580.55	1814.50
580.75	1843.17
580.94	1728.49
581.13	1935.33
581.33	1812.45
581.52	1787.88
581.72	1880.04
581.91	1822.69
582.11	1732.58
582.30	1804.26
582.49	1738.73
582.69	1877.99
582.88	1830.88
583.08	1771.49
583.27	1822.69
583.47	1753.06
583.66	1757.16
583.85	1779.68
584.05	1798.12
584.24	1777.64
584.44	1779.68
584.63	1859.56
584.82	1857.51
585.02	1859.56
585.21	1775.59
585.41	1765.35
585.60	1906.66
585.79	1923.04
585.99	1894.37
586.18	1880.04
586.37	2138.08
586.57	3323.85
586.76	9838.44
586.96	24219.28
587.15	34084.34
587.34	40158.62
587.54	41643.40
587.73	35886.56
587.93	25835.13
588.12	21278.40
588.31	18077.42
588.51	16127.75
588.70	14894.88
588.89	13901.61
589.09	12265.28
589.28	10733.40
589.47	9383.79
589.67	7759.75
589.86	6328.22
590.06	4876.21
590.25	3889.09
590.44	3020.75
590.64	2666.46
590.83	2246.62
591.02	2164.70
591.22	1894.37
591.41	1931.23
591.60	1869.80
591.80	1990.63
591.99	1714.15
592.18	1753.06
592.38	1861.60
592.57	1789.92
592.76	1841.12
592.96	1810.40
593.15	1757.16
593.34	1800.16
593.54	1859.56
593.73	1791.97
593.92	1761.25
594.12	1736.68
594.31	1748.97
594.50	1841.12
594.70	1798.12
594.89	1916.90
595.08	1693.67
595.28	1759.21
595.47	1925.09
595.66	1800.16
595.86	1621.99
596.05	1705.96
596.24	1710.05
596.43	1867.75
596.63	1798.12
596.82	1855.46
597.01	1636.33
597.21	1886.18
597.40	1785.83
597.59	1789.92
597.79	1734.63
597.98	1724.39
598.17	1802.21
598.36	1806.31
598.56	1798.12
598.75	1675.24
598.94	1767.40
599.14	1810.40
599.33	1796.07
599.52	1814.50
599.71	1759.21
599.91	1814.50
600.10	1826.79
600.29	1697.77
600.48	1740.77
600.68	1718.25
600.87	1751.01
601.06	1736.68
601.26	1724.39
601.45	1806.31
601.64	1787.88
601.83	1812.45
602.03	1650.66
602.22	1665.00
602.41	1849.32
602.60	1871.84
602.80	1794.02
602.99	1716.20
603.18	1722.34
603.37	1693.67
603.57	1804.26
603.76	1777.64
603.95	1730.53
604.14	1693.67
604.34	1685.48
604.53	1755.11
604.72	1714.15
604.91	1828.84
605.10	1767.40
605.30	1624.04
605.49	1785.83
605.68	1794.02
605.87	1671.14
606.07	1658.85
606.26	1796.07
606.45	1769.44
606.64	1796.07
606.84	1861.60
607.03	1789.92
607.22	1724.39
607.41	1796.07
607.60	1699.81
607.80	1841.12
607.99	1748.97
608.18	1832.93
608.37	1810.40
608.56	1730.53
608.76	1830.88
608.95	1802.21
609.14	1771.49
609.33	1761.25
609.52	1794.02
609.72	1738.73
609.91	1798.12
610.10	1712.10
610.29	1877.99
610.48	1748.97
610.68	1757.16
610.87	1701.86
611.06	1742.82
611.25	1705.96
611.44	1751.01
611.63	1714.15
611.83	1800.16
612.02	1632.23
612.21	1818.60
612.40	1673.19
612.59	1734.63
612.79	1691.62
612.98	1634.28
613.17	1882.08
613.36	1787.88
613.55	1769.44
613.74	1716.20
613.93	1779.68
614.13	1783.78
614.32	1724.39
614.51	1775.59
614.70	1673.19
614.89	1777.64
615.08	1757.16
615.28	2066.40
615.47	1626.09
615.66	1798.12
615.85	1744.87
616.04	1855.46
616.23	1703.91
616.42	1683.43
616.62	1851.36
616.81	1730.53
617.00	1763.30
617.19	1751.01
617.38	1744.87
617.57	1757.16
617.76	1800.16
617.95	1691.62
618.15	1779.68
618.34	1871.84
618.53	1710.05
618.72	1802.21
618.91	1824.74
619.10	1808.36
619.29	1732.58
619.48	1705.96
619.68	1708.01
619.87	1755.11
620.06	1689.57
620.25	1705.96
620.44	1738.73
620.63	1722.34
620.82	1802.21
621.01	1800.16
621.20	1736.68
621.39	1779.68
621.59	1687.53
621.78	1714.15
621.97	1734.63
622.16	1789.92
622.35	1794.02
622.54	1802.21
622.73	1873.89
622.92	1591.27
623.11	1832.93
623.30	1691.62
623.49	1753.06
623.68	1708.01
623.88	1904.61
624.07	1751.01
624.26	1742.82
624.45	1783.78
624.64	1800.16
624.83	1753.06
625.02	1802.21
625.21	1652.71
625.40	1720.29
625.59	1824.74
625.78	1738.73
625.97	1837.03
626.16	1861.60
626.35	1796.07
626.54	1734.63
626.74	1761.25
626.93	1757.16
627.12	1738.73
627.31	1767.40
627.50	1720.29
627.69	1802.21
627.88	1671.14
628.07	1667.05
628.26	1646.57
628.45	1691.62
628.64	1648.61
628.83	1740.77
629.02	1691.62
629.21	1787.88
629.40	1722.34
629.59	1615.85
629.78	1687.53
629.97	1710.05
630.16	1787.88
630.35	1712.10
630.54	1703.91
630.73	1665.00
630.92	1605.61
631.11	1732.58
631.30	1783.78
631.49	1808.36
631.68	1748.97
631.87	1781.73
632.06	1617.90
632.25	1808.36
632.44	1718.25
632.63	1730.53
632.82	1652.71
633.01	1699.81
633.20	1724.39
633.39	1644.52
633.58	1626.09
633.77	1665.00
633.96	1796.07
634.15	1695.72
634.34	1662.95
634.53	1794.02
634.72	1697.77
634.91	1609.70
635.10	1689.57
635.29	1808.36
635.48	1695.72
635.67	1695.72
635.86	1648.61
636.05	1849.32
636.24	1677.29
636.43	1726.44
636.62	1738.73
636.81	1601.51
637.00	1689.57
637.19	1794.02
637.38	1785.83
637.57	1613.80
637.76	1748.97
637.95	1806.31
638.14	1669.09
638.33	1791.97
638.52	1722.34
638.71	1665.00
638.89	1691.62
639.08	1798.12
639.27	1718.25
639.46	1746.92
639.65	1814.50
639.84	1832.93
640.03	1755.11
640.22	1722.34
640.41	1931.23
640.60	1671.14
640.79	1732.58
640.98	1763.30
641.17	1732.58
641.36	1705.96
641.55	1853.41
641.74	1638.38
641.92	1697.77
642.11	1728.49
642.30	1751.01
642.49	1687.53
642.68	1730.53
642.87	1748.97
643.06	1728.49
643.25	1714.15
643.44	1705.96
643.63	1685.48
643.82	1818.60
644.00	1697.77
644.19	1726.44
644.38	1683.43
644.57	1722.34
644.76	1757.16
644.95	1761.25
645.14	1751.01
645.33	1730.53
645.52	1783.78
645.71	1646.57
645.89	1701.86
646.08	1665.00
646.27	1710.05
646.46	1787.88
646.65	1665.00
646.84	1638.38
647.03	1693.67
647.22	1830.88
647.40	1687.53
647.59	1679.33
647.78	1667.05
647.97	1705.96
648.16	1660.90
648.35	1812.45
648.54	1753.06
648.73	1761.25
648.91	1808.36
649.10	1736.68
649.29	1693.67
649.48	1724.39
649.67	1789.92
649.86	1734.63
650.05	1654.76
650.23	1785.83
650.42	1732.58
650.61	1787.88
650.80	1742.82
650.99	1851.36
651.18	1794.02
651.36	1781.73
651.55	1712.10
651.74	1779.68
651.93	1656.81
652.12	1650.66
652.31	1740.77
652.49	1689.57
652.68	1634.28
652.87	1787.88
653.06	1669.09
653.25	1880.04
653.44	1695.72
653.62	1814.50
653.81	1775.59
654.00	1732.58
654.19	1787.88
654.38	1888.23
654.56	1728.49
654.75	1757.16
654.94	1834.98
655.13	1773.54
655.32	1705.96
655.51	1779.68
655.69	1630.18
655.88	1808.36
656.07	1683.43
656.26	1812.45
656.45	1685.48
656.63	1722.34
656.82	1718.25
657.01	1742.82
657.20	1679.33
657.38	1765.35
657.57	1665.00
657.76	1615.85
657.95	1716.20
658.14	1757.16
658.32	1705.96
658.51	1718.25
658.70	1660.90
658.89	1763.30
659.08	1728.49
659.26	1822.69
659.45	1624.04
659.64	1699.81
659.83	1667.05
660.01	1916.90
660.20	1757.16
660.39	1691.62
660.58	1589.22
660.76	1769.44
660.95	1716.20
661.14	1718.25
661.33	1665.00
661.51	1746.92
661.70	1695.72
661.89	1769.44
662.08	1683.43
662.26	1726.44
662.45	1701.86
662.64	1861.60
662.83	1699.81
663.01	1683.43
663.20	1757.16
663.39	1789.92
663.58	1642.47
663.76	1748.97
663.95	1806.31
664.14	1746.92
664.32	1771.49
664.51	1640.42
664.70	1673.19
664.89	1765.35
665.07	1701.86
665.26	1771.49
665.45	1564.65
665.64	1738.73
665.82	1769.44
666.01	1740.77
666.20	1667.05
666.38	1894.37
666.57	1753.06
666.76	2293.72
666.95	4591.55
667.13	10424.16
667.32	14952.22
667.51	17506.04
667.69	18652.90
667.88	17409.78
668.07	12332.87
668.25	9424.75
668.44	8116.10
668.63	7333.78
668.81	6602.65
669.00	6143.91
669.19	5707.69
669.38	5136.31
669.56	4403.13
669.75	3971.01
669.94	3327.95
670.12	2822.10
670.31	2551.77
670.50	2248.67
670.68	2017.25
670.87	1920.99
671.06	1851.36
671.24	1882.08
671.43	1890.28
671.62	1718.25
671.80	1720.29
671.99	1775.59
672.18	1826.79
672.36	1824.74
672.55	1757.16
672.74	1667.05
672.92	1667.05
673.11	1746.92
673.29	1656.81
673.48	1738.73
673.67	1724.39
673.85	1853.41
674.04	1773.54
674.23	1757.16
674.41	1812.45
674.60	1638.38
674.79	1673.19
674.97	1685.48
675.16	1738.73
675.34	1777.64
675.53	1738.73
675.72	1812.45
675.90	1789.92
676.09	1763.30
676.28	1667.05
676.46	1714.15
676.65	1804.26
676.83	1669.09
677.02	1732.58
677.21	1769.44
677.39	1773.54
677.58	1722.34
677.77	1673.19
677.95	1675.24
678.14	1705.96
678.32	1681.38
678.51	1634.28
678.70	1824.74
678.88	1728.49
679.07	1759.21
679.25	1759.21
679.44	1652.71
679.63	1716.20
679.81	1767.40
680.00	1761.25
680.18	1695.72
680.37	1816.55
680.55	1673.19
680.74	1607.66
680.93	1591.27
681.11	1728.49
681.30	1746.92
681.48	1695.72
681.67	1730.53
681.85	1740.77
682.04	1699.81
682.23	1744.87
682.41	1746.92
682.60	1677.29
682.78	1650.66
682.97	1701.86
683.15	1791.97
683.34	1730.53
683.53	1830.88
683.71	1740.77
683.90	1828.84
684.08	1771.49
684.27	1722.34
684.45	1681.38
684.64	1834.98
684.82	1624.04
685.01	1677.29
685.19	1681.38
685.38	1888.23
685.57	1767.40
685.75	1689.57
685.94	1695.72
686.12	1640.42
686.31	1724.39
686.49	1800.16
686.68	1607.66
686.86	1746.92
687.05	1744.87
687.23	1832.93
687.42	1712.10
687.60	1681.38
687.79	1798.12
687.97	1822.69
688.16	1806.31
688.34	1716.20
688.53	1583.08
688.71	1757.16
688.90	1800.16
689.08	1673.19
689.27	1677.29
689.45	1677.29
689.64	1818.60
689.82	1759.21
690.01	1744.87
690.19	1740.77
690.38	1683.43
690.56	1800.16
690.75	1742.82
690.93	1687.53
691.12	1701.86
691.30	1771.49
691.49	1710.05
691.67	1699.81
691.86	1779.68
692.04	1624.04
692.23	1697.77
692.41	1669.09
692.60	1861.60
692.78	1695.72
692.97	1710.05
693.15	1730.53
693.34	1890.28
693.52	1759.21
693.71	1695.72
693.89	1724.39
694.08	1601.51
694.26	1837.03
694.44	1841.12
694.63	1761.25
694.81	1724.39
695.00	1726.44
695.18	1787.88
695.37	1816.55
695.55	1722.34
695.74	1701.86
695.92	1687.53
696.10	1759.21
696.29	1599.46
696.47	1695.72
696.66	1662.95
696.84	1679.33
697.03	1728.49
697.21	1814.50
697.40	2289.63
697.58	1869.80
697.76	1701.86
697.95	1658.85
698.13	1656.81
698.32	1732.58
698.50	1708.01
698.68	1767.40
698.87	1761.25
699.05	1822.69
699.24	1669.09
699.42	1624.04
699.61	1751.01
699.79	1748.97
699.97	1693.67
700.16	1644.52
700.34	1728.49
700.53	1763.30
700.71	1757.16
700.89	1757.16
701.08	1730.53
701.26	1773.54
701.45	2203.61
701.63	1740.77
701.81	1695.72
702.00	1636.33
702.18	1714.15
702.37	1650.66
702.55	1742.82
702.73	1730.53
702.92	1714.15
703.10	1806.31
703.28	1705.96
703.47	1656.81
703.65	1732.58
703.84	1789.92
704.02	1710.05
704.20	1755.11
704.39	1693.67
704.57	1691.62
704.75	1763.30
704.94	1730.53
705.12	1740.77
705.30	1822.69
705.49	2283.49
705.67	4427.71
705.86	9377.65
706.04	12382.02
706.22	14249.77
706.41	15234.84
706.59	13426.48
706.77	9465.71
706.96	7221.14
707.14	6438.81
707.32	5877.67
707.51	5466.03
707.69	4779.96
707.87	4175.81
708.06	3540.94
708.24	2983.89
708.42	2402.27
708.61	2310.11
708.79	1949.67
708.97	1837.03
709.16	1855.46
709.34	1802.21
709.52	1800.16
709.71	1804.26
709.89	1724.39
710.07	1648.61
710.26	1691.62
710.44	1650.66
710.62	1832.93
710.80	1722.34
710.99	1785.83
711.17	1789.92
711.35	1673.19
711.54	1730.53
711.72	1753.06
711.90	1714.15
712.09	1728.49
712.27	1804.26
712.45	1738.73
712.63	1751.01
712.82	1726.44
713.00	1742.82
713.18	1755.11
713.37	1769.44
713.55	1771.49
713.73	1738.73
713.91	1742.82
714.10	1689.57
714.28	1689.57
714.46	1685.48
714.65	1671.14
714.83	1736.68
715.01	1671.14
715.19	1761.25
715.38	1720.29
715.56	1769.44
715.74	1677.29
715.92	1574.89
716.11	1802.21
716.29	1583.08
716.47	1679.33
716.65	1699.81
716.84	1593.32
717.02	1808.36
717.20	1677.29
717.38	1796.07
717.57	1746.92
717.75	1642.47
717.93	1683.43
718.11	1757.16
718.30	1681.38
718.48	1785.83
718.66	1640.42
718.84	1785.83
719.03	1708.01
719.21	1738.73
719.39	1789.92
719.57	1808.36
719.75	1751.01
719.94	1689.57
720.12	1718.25
720.30	1673.19
720.48	1873.89
720.67	1644.52
720.85	1665.00
721.03	1683.43
721.21	1656.81
721.39	1820.64
721.58	1636.33
721.76	1681.38
721.94	1802.21
722.12	1748.97
722.30	1816.55
722.49	1675.24
722.67	1738.73
722.85	1763.30
723.03	1632.23
723.21	1665.00
723.40	1712.10
723.58	1783.78
723.76	1701.86
723.94	1779.68
724.12	1730.53
724.30	1771.49
724.49	1755.11
724.67	1617.90
724.85	1804.26
725.03	1607.66
725.21	1847.27
725.40	1773.54
725.58	1726.44
725.76	1839.08
725.94	1740.77
726.12	1648.61
726.30	1798.12
726.49	1796.07
726.67	1734.63
726.85	1773.54
727.03	1740.77
727.21	2248.67
727.39	2940.88
727.57	3796.93
727.76	4083.65
727.94	4366.27
728.12	4356.03
728.30	3704.78
728.48	2971.60
728.66	2709.46
728.84	2541.53
729.03	2240.48
729.21	2138.08
729.39	1945.57
729.57	1871.84
729.75	1853.41
729.93	1771.49
730.11	1708.01
730.30	1736.68
730.48	1734.63
730.66	1871.84
730.84	1771.49
731.02	1775.59
731.20	1728.49
731.38	1736.68
731.56	1654.76
731.74	1703.91
731.93	1765.35
732.11	1773.54
732.29	1636.33
732.47	1742.82
732.65	1736.68
732.83	1808.36
733.01	1701.86
733.19	1671.14
733.37	1791.97
733.56	1802.21
733.74	1705.96
733.92	1771.49
734.10	1730.53
734.28	1748.97
734.46	1673.19
734.64	1701.86
734.82	1740.77
735.00	1603.56
735.18	1732.58
735.36	1730.53
735.54	1751.01
735.73	1742.82
735.91	1744.87
736.09	1736.68
736.27	1708.01
736.45	1681.38
736.63	1613.80
736.81	1650.66
736.99	1877.99
737.17	1816.55
737.35	1693.67
737.53	1671.14
737.71	1765.35
737.89	1748.97
738.07	1611.75
738.25	1560.55
738.43	1644.52
738.61	1665.00
738.80	1662.95
738.98	1650.66
739.16	1699.81
739.34	1658.85
739.52	1820.64
739.70	1751.01
739.88	1769.44
740.06	1767.40
740.24	1632.23
740.42	1853.41
740.60	1656.81
740.78	1685.48
740.96	1656.81
741.14	1654.76
741.32	1730.53
741.50	1636.33
741.68	1810.40
741.86	1746.92
742.04	1767.40
742.22	1691.62
742.40	1738.73
742.58	1746.92
742.76	1658.85
742.94	1828.84
743.12	1699.81
743.30	1689.57
743.48	1746.92
743.66	1595.37
743.84	1806.31
744.02	1730.53
744.20	1671.14
744.38	1681.38
744.56	1722.34
744.74	1822.69
744.92	1773.54
745.10	1720.29
745.28	1771.49
745.46	1808.36
745.64	1722.34
745.82	1734.63
746.00	1675.24
746.18	1763.30
746.36	1621.99
746.54	1767.40
746.72	1673.19
746.90	1605.61
747.08	1783.78
747.26	1665.00
747.44	1779.68
747.62	1734.63
747.80	1804.26
747.98	1771.49
748.15	1671.14
748.33	1800.16
748.51	1697.77
748.69	1718.25
748.87	1685.48
749.05	1714.15
749.23	1734.63
749.41	1738.73
749.59	1738.73
749.77	1744.87
749.95	1658.85
750.13	1710.05
750.31	1761.25
750.49	1675.24
750.67	1796.07
750.85	1808.36
751.03	1732.58
751.20	1824.74
751.38	1675.24
751.56	1697.77
751.74	1789.92
751.92	1660.90
752.10	1624.04
752.28	1865.70
752.46	1669.09
752.64	1730.53
752.82	1763.30
753.00	1771.49
753.18	1642.47
753.35	1685.48
753.53	1681.38
753.71	1742.82
753.89	1742.82
754.07	1748.97
754.25	1732.58
754.43	1724.39
754.61	1685.48
754.79	1746.92
754.97	1720.29
755.14	1828.84
755.32	1652.71
755.50	1773.54
755.68	1738.73
755.86	1689.57
756.04	1755.11
756.22	1632.23
756.40	1667.05
756.57	1798.12
756.75	1675.24
756.93	1748.97
757.11	1765.35
757.29	1697.77
757.47	1654.76
757.65	1558.50
757.82	1533.93
758.00	1710.05
758.18	1675.24
758.36	1689.57
758.54	1822.69
758.72	1607.66
758.90	1765.35
759.07	1720.29
759.25	1621.99
759.43	1791.97
759.61	1718.25
759.79	2199.52
759.97	1755.11
760.15	1710.05
760.32	1777.64
760.50	1726.44
760.68	1839.08
760.86	1652.71
761.04	1708.01
761.22	1761.25
761.39	1693.67
761.57	1859.56
761.75	1689.57
761.93	1777.64
762.11	1697.77
762.28	1689.57
762.46	1648.61
762.64	1744.87
762.82	1697.77
763.00	1669.09
763.18	1779.68
763.35	1677.29
763.53	1689.57
763.71	1742.82
763.89	1753.06
764.07	1652.71
764.24	1722.34
764.42	1808.36
764.60	1736.68
764.78	1781.73
764.96	1798.12
765.13	1742.82
765.31	1751.01
765.49	1751.01
765.67	1695.72
765.84	1593.32
766.02	1716.20
766.20	1634.28
766.38	1724.39
766.56	1832.93
766.73	1732.58
766.91	1708.01
767.09	1679.33
767.27	1775.59
767.44	1757.16
767.62	1712.10
767.80	1703.91
767.98	1730.53
768.15	1683.43
768.33	1789.92
768.51	1691.62
768.69	1773.54
768.87	1689.57
769.04	1802.21
769.22	1861.60
769.40	1814.50
769.58	1865.70
769.75	1791.97
769.93	1798.12
770.11	1683.43
770.28	1677.29
770.46	1800.16
770.64	1787.88
770.82	1728.49
770.99	1705.96
771.17	1759.21
771.35	1701.86
771.53	1677.29
771.70	1742.82
771.88	1783.78
772.06	1724.39
772.23	1746.92
772.41	1730.53
772.59	1681.38
772.77	1607.66
772.94	1746.92
773.12	1708.01
773.30	1751.01
773.47	1652.71
773.65	1699.81
773.83	1730.53
774.01	1751.01
774.18	1689.57
774.36	1679.33
774.54	1697.77
774.71	1714.15
774.89	1554.41
775.07	1683.43
775.24	1693.67
775.42	1669.09
775.60	1822.69
775.78	1755.11
775.95	1660.90
776.13	1570.79
776.31	1626.09
776.48	1652.71
776.66	1800.16
776.84	1691.62
777.01	1644.52
777.19	1656.81
777.37	1738.73
777.54	1781.73
777.72	1908.71
777.90	1679.33
778.07	1677.29
778.25	1884.13
778.43	1738.73
778.60	1669.09
778.78	1667.05
778.96	1765.35
779.13	1634.28
779.31	1769.44
779.49	1712.10
779.66	1718.25
779.84	1677.29
780.01	1693.67
780.19	1568.74
780.37	1783.78
780.54	1748.97
780.72	1654.76
780.90	1746.92
781.07	1677.29
781.25	1734.63
781.43	1808.36
781.60	1746.92
781.78	1736.68
781.95	1722.34
782.13	1648.61
782.31	1697.77
782.48	1613.80
782.66	1771.49
782.83	1871.84
783.01	1763.30
783.19	1748.97
783.36	1759.21
783.54	1601.51
783.72	1771.49
783.89	1751.01
784.07	1691.62
784.24	1761.25
784.42	1816.55
784.60	1708.01
784.77	1699.81
784.95	1626.09
785.12	1695.72
785.30	1665.00
785.47	1708.01
785.65	1671.14
785.83	1740.77
786.00	1640.42
786.18	1652.71
786.35	1640.42
786.53	1753.06
786.71	1730.53
786.88	1724.39
787.06	1705.96
787.23	1701.86
787.41	1679.33
787.58	1714.15
787.76	1693.67
787.94	1697.77
788.11	1716.20
788.29	1673.19
788.46	1732.58
788.64	1667.05
788.81	1593.32
788.99	1732.58
789.16	1624.04
789.34	1667.05
789.52	1701.86
789.69	1697.77
789.87	1644.52
790.04	1687.53
790.22	1658.85
790.39	1814.50
790.57	1722.34
790.74	1613.80
790.92	1624.04
791.09	1619.94
791.27	1701.86
791.44	1800.16
791.62	1718.25
791.79	1777.64
791.97	1730.53
792.15	1904.61
792.32	1816.55
792.50	1718.25
792.67	1806.31
792.85	1753.06
793.02	1804.26
793.20	1648.61
793.37	1703.91
793.55	1636.33
793.72	1675.24
793.90	1712.10
794.07	1667.05
794.25	1650.66
794.42	1738.73
794.60	1701.86
794.77	1738.73
794.95	1742.82
795.12	1734.63
795.30	1667.05
795.47	1638.38
795.65	1886.18
795.82	1757.16
796.00	1665.00
796.17	1681.38
796.34	1697.77
796.52	1683.43
796.69	1822.69
796.87	1761.25
797.04	1775.59
797.22	1726.44
797.39	1736.68
797.57	1767.40
797.74	1734.63
797.92	1734.63
798.09	1691.62
798.27	1777.64
798.44	1753.06
798.62	1765.35
798.79	1640.42
798.96	1787.88
799.14	1683.43
799.31	1832.93
799.49	1689.57
799.66	1761.25
799.84	1759.21
800.01	1628.14
800.19	1665.00
800.36	1611.75
800.53	1830.88
800.71	1705.96
800.88	1839.08
801.06	1724.39
801.23	1695.72
801.41	1662.95
801.58	1638.38
801.75	1691.62
801.93	1796.07
802.10	1794.02
802.28	1722.34
802.45	1701.86
802.63	1767.40
802.80	1761.25
802.97	1689.57
803.15	1710.05
803.32	1763.30
803.50	1640.42
803.67	1640.42
803.84	1640.42
804.02	1654.76
804.19	1671.14
804.37	1632.23
804.54	1730.53
804.71	1658.85
804.89	1701.86
805.06	1701.86
805.24	1728.49
805.41	1662.95
805.58	1669.09
805.76	1871.84
805.93	1787.88
806.10	1816.55
806.28	1742.82
806.45	1695.72
806.63	1755.11
806.80	1714.15
806.97	1740.77
807.15	1728.49
807.32	1732.58
807.49	1665.00
807.67	1675.24
807.84	1763.30
808.01	1630.18
808.19	1816.55
808.36	1710.05
808.54	1636.33
808.71	1656.81
808.88	1708.01
809.06	1689.57
809.23	1896.42
809.40	1691.62
809.58	1746.92
809.75	1689.57
809.92	1621.99
810.10	1884.13
810.27	1687.53
810.44	1671.14
810.62	1736.68
810.79	1712.10
810.96	1685.48
811.14	1621.99
811.31	1763.30
811.48	1751.01
811.66	1708.01
811.83	1736.68
812.00	1726.44
812.18	1701.86
812.35	1822.69
812.52	1660.90
812.69	1646.57
812.87	1665.00
813.04	1681.38
813.21	1738.73
813.39	1662.95
813.56	1589.22
813.73	1767.40
813.91	1613.80
814.08	1677.29
814.25	1681.38
814.42	1597.42
814.60	1697.77
814.77	1765.35
814.94	1738.73
815.12	1708.01
815.29	1812.45
815.46	1673.19
815.63	1769.44
815.81	1769.44
815.98	1720.29
816.15	1789.92
816.33	1732.58
816.50	1648.61
816.67	1669.09
816.84	1705.96
817.02	1619.94
817.19	1646.57
817.36	1787.88
817.53	1716.20
817.71	1685.48
817.88	1761.25
818.05	1722.34
818.22	1753.06
818.40	1851.36
818.57	1718.25
818.74	1742.82
818.91	1738.73
819.09	1740.77
819.26	1732.58
819.43	1708.01
819.60	1656.81
819.78	1712.10
819.95	1753.06
820.12	1599.46
820.29	1734.63
820.47	1712.10
820.64	1730.53
820.81	1689.57
820.98	1710.05
821.15	1746.92
821.33	1638.38
821.50	1603.56
821.67	1751.01
821.84	1814.50
822.02	1746.92
822.19	1751.01
822.36	1730.53
822.53	1605.61
822.70	1681.38
822.88	1761.25
823.05	1810.40
823.22	1742.82
823.39	1697.77
823.56	1607.66
823.74	1816.55
823.91	1671.14
824.08	1697.77
824.25	1662.95
824.42	1841.12
824.60	1634.28
824.77	1814.50
824.94	1665.00
825.11	1693.67
825.28	1605.61
825.45	1726.44
825.63	1703.91
825.80	1607.66
825.97	1730.53
826.14	1712.10
826.31	1634.28
826.48	1720.29
826.66	1697.77
826.83	1746.92
827.00	1697.77
827.17	1679.33
827.34	1742.82
827.51	1615.85
827.69	1712.10
827.86	1615.85
828.03	1691.62
828.20	1695.72
828.37	1650.66
828.54	1724.39
828.71	1595.37
828.89	1806.31
829.06	1773.54
829.23	1845.22
829.40	1742.82
829.57	1656.81
829.74	1767.40
829.91	1619.94
830.09	1683.43
830.26	1726.44
830.43	1791.97
830.60	1742.82
830.77	1740.77
830.94	1849.32
831.11	1748.97
831.28	1689.57
831.46	1759.21
831.63	1732.58
831.80	1855.46
831.97	1669.09
832.14	1761.25
832.31	1771.49
832.48	1695.72
832.65	1806.31
832.82	1712.10
832.99	1796.07
833.17	1658.85
833.34	1804.26
833.51	1755.11
833.68	1581.03
833.85	1888.23
834.02	1619.94
834.19	1644.52
834.36	1667.05
834.53	1703.91
834.70	1814.50
834.87	1755.11
835.04	1685.48
835.22	1599.46
835.39	1683.43
835.56	1660.90
835.73	1710.05
835.90	1781.73
836.07	1722.34
836.24	1781.73
836.41	1740.77
836.58	1720.29
836.75	1757.16
836.92	1751.01
837.09	1650.66
837.26	1646.57
837.43	1714.15
837.60	1730.53
837.77	1722.34
837.94	1685.48
838.12	1806.31
838.29	1791.97
838.46	1609.70
838.63	1712.10
838.80	1812.45
838.97	1742.82
839.14	1679.33
839.31	1634.28
839.48	1710.05
839.65	1753.06
839.82	1689.57
839.99	1697.77
840.16	1728.49
840.33	1685.48
840.50	1714.15
840.67	1658.85
840.84	1556.46
841.01	1697.77
841.18	1705.96
841.35	1708.01
841.52	1761.25
841.69	1693.67
841.86	1679.33
842.03	1744.87
842.20	1742.82
842.37	1650.66
842.54	1730.53
842.71	1699.81
842.88	1705.96
843.05	1785.83
843.22	1667.05
843.39	1787.88
843.56	1724.39
843.73	1730.53
843.90	1728.49
844.07	1621.99
844.24	1751.01
844.41	1748.97
844.58	1767.40
844.75	1730.53
844.92	1671.14
845.09	1677.29
845.26	1740.77
845.43	1791.97
845.60	1662.95
845.77	1828.84
845.94	1757.16
846.10	1771.49
846.27	1675.24
846.44	1658.85
846.61	1619.94
846.78	1740.77
846.95	1730.53
847.12	1759.21
847.29	1656.81
847.46	1658.85
847.63	1800.16
847.80	1699.81
847.97	1691.62
848.14	1800.16
848.31	1695.72
848.48	1699.81
848.65	1765.35
848.82	1712.10
848.98	1791.97
849.15	1701.86
849.32	1744.87
849.49	1681.38
849.66	1718.25
849.83	1720.29
850.00	1683.43
850.17	1699.81
850.34	1687.53
850.51	1685.48
850.68	1681.38
850.85	1845.22
851.01	1716.20
851.18	1720.29
851.35	1757.16
851.52	1746.92
851.69	1777.64
851.86	1624.04
852.03	1595.37
852.20	1665.00
852.37	1673.19
852.53	1611.75
852.70	1822.69
852.87	1744.87
853.04	1738.73
853.21	1687.53
853.38	1794.02
853.55	1779.68
853.72	1814.50
853.89	1681.38
854.05	1800.16
854.22	1695.72
854.39	1624.04
854.56	1697.77
854.73	1798.12
854.90	1705.96
855.07	1681.38
855.23	1671.14
855.40	1691.62
855.57	1693.67
855.74	1624.04
855.91	1853.41
856.08	1624.04
856.25	1712.10
856.41	1607.66
856.58	1660.90
856.75	1642.47
856.92	1634.28
857.09	1724.39
857.26	1662.95
857.42	1687.53
857.59	1744.87
857.76	1710.05
857.93	1656.81
858.10	1740.77
858.27	1626.09
858.43	1808.36
858.60	1656.81
858.77	1640.42
858.94	1751.01
859.11	1767.40
859.27	1656.81
859.44	1714.15
859.61	1865.70
859.78	1746.92
859.95	1660.90
860.12	1665.00
860.28	1806.31
860.45	1796.07
860.62	1677.29
860.79	1722.34
860.95	1689.57
861.12	1681.38
861.29	1656.81
861.46	1654.76
861.63	1812.45
861.79	1724.39
861.96	1615.85
862.13	1648.61
862.30	1767.40
862.47	1685.48
862.63	1671.14
862.80	1783.78
862.97	1777.64
863.14	1718.25
863.30	1802.21
863.47	1757.16
863.64	1783.78
863.81	1798.12
863.97	1665.00
864.14	1683.43
864.31	1607.66
864.48	1757.16
864.65	1769.44
864.81	1746.92
864.98	1818.60
865.15	1783.78
865.32	1781.73
865.48	1718.25
865.65	1822.69
865.82	1701.86
865.98	1671.14
866.15	1789.92
866.32	1718.25
866.49	1650.66
866.65	1824.74
866.82	1560.55
866.99	1722.34
867.16	1669.09
867.32	1689.57
867.49	1708.01
867.66	1679.33
867.83	1683.43
867.99	1621.99
868.16	1660.90
868.33	1714.15
868.49	1775.59
868.66	1705.96
868.83	1732.58
868.99	1693.67
869.16	1720.29
869.33	1720.29
869.50	1767.40
869.66	1738.73
869.83	1699.81
870.00	1562.60
870.16	1763.30
870.33	1669.09
870.50	1748.97
870.66	1693.67
870.83	1785.83
871.00	1705.96
871.17	1779.68
871.33	1728.49
871.50	1595.37
871.67	1732.58
871.83	1681.38
872.00	1818.60
872.17	1689.57
872.33	1773.54
872.50	1820.64
872.67	1734.63
872.83	1724.39
873.00	1646.57
873.17	1632.23
873.33	1777.64
873.50	1695.72
873.67	1654.76
873.83	1658.85
874.00	1671.14
874.16	1744.87
874.33	1705.96
874.50	1591.27
874.66	1757.16
874.83	1720.29
875.00	1769.44
875.16	1712.10
875.33	1712.10
875.50	1634.28
875.66	1691.62
875.83	1667.05
875.99	1781.73
876.16	1701.86
876.33	1677.29
876.49	1761.25
876.66	1710.05
876.83	1708.01
876.99	1603.56
877.16	1757.16
877.32	1679.33
877.49	1619.94
877.66	1701.86
877.82	1873.89
877.99	1744.87
878.15	1740.77
878.32	1691.62
878.49	1699.81
878.65	1673.19
878.82	1751.01
878.98	1718.25
879.15	1818.60
879.32	1732.58
879.48	1769.44
879.65	1701.86
879.81	1746.92
879.98	1734.63
880.15	1720.29
880.31	1730.53
880.48	1656.81
880.64	1777.64
880.81	1718.25
880.97	1775.59
881.14	1796.07
881.31	1669.09
881.47	1806.31
881.64	1630.18
881.80	1599.46
881.97	1761.25
882.13	1816.55
882.30	1628.14
882.47	1744.87
882.63	1632.23
882.80	1695.72
882.96	1626.09
883.13	1800.16
883.29	1636.33
883.46	1730.53
883.62	1773.54
883.79	1736.68
883.95	1650.66
884.12	1693.67
884.29	1781.73
884.45	1769.44
884.62	1748.97
884.78	1671.14
884.95	1806.31
885.11	1746.92
885.28	1705.96
885.44	1712.10
885.61	1703.91
885.77	1816.55
885.94	1816.55
886.10	1701.86
886.27	1726.44
886.43	1824.74
886.60	1751.01
886.76	1687.53
886.93	1705.96
887.09	1665.00
887.26	1613.80
887.42	1685.48
887.59	1800.16
887.75	1810.40
887.92	1705.96
888.08	1773.54
888.25	1787.88
888.41	1775.59
888.58	1736.68
888.74	1615.85
888.91	1697.77
>>>>>End Processed Spectral Data<<<<<
