SpectraSuite Data File
++++++++++++++++++++++++++++++++++++
Date: Mon Jun 06 14:21:37 CEST 2016
User: root
Dark Spectrum Present: No
Reference Spectrum Present: No
Number of Sampled Component Spectra: 1
Spectrometers: USB4C02835
Integration Time (usec): 100000 (USB4C02835)
Spectra Averaged: 1 (USB4C02835)
Boxcar Smoothing: 0 (USB4C02835)
Correct for Electrical Dark: No (USB4C02835)
Strobe/Lamp Enabled: No (USB4C02835)
Correct for Detector Non-linearity: No (USB4C02835)
Correct for Stray Light: No (USB4C02835)
Number of Pixels in Processed Spectrum: 3648
>>>>>Begin Processed Spectral Data<<<<<
177.47	1472.49
177.69	1472.49
177.91	1472.49
178.13	1470.44
178.36	1462.25
178.58	1662.95
178.80	1724.39
179.02	1638.38
179.24	1691.62
179.46	1671.14
179.68	1779.68
179.90	1646.57
180.13	1662.95
180.35	1650.66
180.57	1669.09
180.79	1705.96
181.01	1705.96
181.23	1710.05
181.45	1777.64
181.67	1714.15
181.90	1759.21
182.12	1609.70
182.34	1644.52
182.56	1746.92
182.78	1759.21
183.00	1660.90
183.22	1705.96
183.44	1646.57
183.66	1882.08
183.89	1810.40
184.11	1665.00
184.33	1738.73
184.55	1746.92
184.77	1656.81
184.99	1691.62
185.21	1687.53
185.43	1855.46
185.65	1613.80
185.87	1705.96
186.10	1818.60
186.32	1777.64
186.54	1736.68
186.76	1656.81
186.98	1716.20
187.20	1718.25
187.42	1693.67
187.64	1691.62
187.86	1771.49
188.08	1716.20
188.30	1740.77
188.52	1736.68
188.75	1722.34
188.97	1699.81
189.19	1716.20
189.41	1714.15
189.63	1724.39
189.85	1611.75
190.07	1609.70
190.29	1621.99
190.51	1755.11
190.73	1615.85
190.95	1753.06
191.17	1644.52
191.39	1615.85
191.61	1665.00
191.84	1703.91
192.06	1697.77
192.28	1644.52
192.50	1925.09
192.72	1685.48
192.94	1615.85
193.16	1761.25
193.38	1726.44
193.60	1609.70
193.82	1687.53
194.04	1783.78
194.26	1732.58
194.48	1748.97
194.70	1599.46
194.92	1714.15
195.14	1744.87
195.36	1605.61
195.58	1722.34
195.80	1726.44
196.02	1685.48
196.24	1718.25
196.46	1712.10
196.69	1665.00
196.91	1873.89
197.13	1718.25
197.35	1646.57
197.57	1761.25
197.79	1773.54
198.01	1718.25
198.23	1712.10
198.45	1671.14
198.67	1673.19
198.89	1748.97
199.11	1761.25
199.33	1595.37
199.55	1574.89
199.77	1669.09
199.99	1736.68
200.21	1601.51
200.43	1812.45
200.65	1671.14
200.87	1548.26
201.09	1675.24
201.31	1687.53
201.53	1712.10
201.75	1660.90
201.97	1718.25
202.19	1755.11
202.41	1779.68
202.63	1800.16
202.85	1798.12
203.07	1738.73
203.29	1695.72
203.51	1665.00
203.73	1691.62
203.95	1877.99
204.17	1687.53
204.39	1658.85
204.61	1667.05
204.83	1722.34
205.05	1718.25
205.27	1728.49
205.49	1705.96
205.71	1708.01
205.93	1609.70
206.15	1728.49
206.37	1679.33
206.59	1656.81
206.81	1648.61
207.03	1640.42
207.25	1648.61
207.47	1738.73
207.69	1572.84
207.91	1708.01
208.13	1789.92
208.34	1683.43
208.56	1646.57
208.78	1765.35
209.00	1667.05
209.22	1683.43
209.44	1736.68
209.66	1656.81
209.88	1718.25
210.10	1636.33
210.32	1650.66
210.54	1777.64
210.76	1712.10
210.98	1812.45
211.20	1603.56
211.42	1712.10
211.64	1796.07
211.86	1708.01
212.08	1697.77
212.30	1763.30
212.52	1671.14
212.74	1687.53
212.96	1763.30
213.17	1669.09
213.39	1789.92
213.61	1877.99
213.83	1681.38
214.05	1660.90
214.27	1802.21
214.49	1624.04
214.71	1654.76
214.93	1732.58
215.15	1738.73
215.37	1669.09
215.59	1624.04
215.81	1634.28
216.03	1763.30
216.24	1640.42
216.46	1710.05
216.68	1683.43
216.90	1779.68
217.12	1746.92
217.34	1652.71
217.56	1742.82
217.78	1732.58
218.00	1744.87
218.22	1720.29
218.44	1669.09
218.66	1722.34
218.87	1714.15
219.09	1595.37
219.31	1732.58
219.53	1701.86
219.75	1683.43
219.97	1660.90
220.19	1687.53
220.41	1722.34
220.63	1779.68
220.85	1751.01
221.06	1665.00
221.28	1716.20
221.50	1761.25
221.72	1703.91
221.94	1714.15
222.16	1695.72
222.38	1736.68
222.60	1744.87
222.82	1628.14
223.03	1767.40
223.25	1617.90
223.47	1763.30
223.69	1847.27
223.91	1751.01
224.13	1722.34
224.35	1626.09
224.57	1736.68
224.78	1718.25
225.00	1630.18
225.22	1740.77
225.44	1769.44
225.66	1748.97
225.88	1611.75
226.10	1771.49
226.32	1632.23
226.53	1787.88
226.75	1685.48
226.97	1730.53
227.19	1724.39
227.41	1732.58
227.63	1693.67
227.85	1617.90
228.06	1708.01
228.28	1759.21
228.50	1765.35
228.72	1630.18
228.94	1689.57
229.16	1564.65
229.37	1689.57
229.59	1746.92
229.81	1699.81
230.03	1667.05
230.25	1578.98
230.47	1611.75
230.69	1595.37
230.90	1779.68
231.12	1658.85
231.34	1656.81
231.56	1771.49
231.78	1705.96
232.00	1755.11
232.21	1685.48
232.43	1689.57
232.65	1570.79
232.87	1689.57
233.09	1599.46
233.30	1644.52
233.52	1671.14
233.74	1697.77
233.96	1695.72
234.18	1714.15
234.40	1732.58
234.61	1859.56
234.83	1630.18
235.05	1605.61
235.27	1800.16
235.49	1775.59
235.70	1769.44
235.92	1730.53
236.14	1771.49
236.36	1857.51
236.58	1662.95
236.79	1757.16
237.01	1728.49
237.23	1628.14
237.45	1834.98
237.67	1691.62
237.88	1720.29
238.10	1804.26
238.32	1683.43
238.54	1669.09
238.76	1693.67
238.97	1656.81
239.19	1695.72
239.41	1720.29
239.63	1798.12
239.85	1703.91
240.06	1796.07
240.28	1691.62
240.50	1734.63
240.72	1742.82
240.93	1640.42
241.15	1767.40
241.37	1708.01
241.59	1726.44
241.81	1728.49
242.02	1681.38
242.24	1675.24
242.46	1677.29
242.68	1652.71
242.89	1697.77
243.11	1767.40
243.33	1665.00
243.55	1722.34
243.76	1779.68
243.98	1673.19
244.20	1740.77
244.42	1630.18
244.64	1665.00
244.85	1650.66
245.07	1624.04
245.29	1800.16
245.51	1765.35
245.72	1763.30
245.94	1759.21
246.16	1703.91
246.38	1763.30
246.59	1693.67
246.81	1701.86
247.03	1630.18
247.24	1650.66
247.46	1652.71
247.68	1691.62
247.90	1658.85
248.11	1685.48
248.33	1740.77
248.55	1708.01
248.77	1724.39
248.98	1740.77
249.20	1791.97
249.42	1757.16
249.64	1708.01
249.85	1681.38
250.07	1716.20
250.29	1753.06
250.50	1740.77
250.72	1650.66
250.94	1742.82
251.16	1859.56
251.37	1730.53
251.59	1751.01
251.81	1796.07
252.02	1828.84
252.24	1665.00
252.46	1845.22
252.68	1667.05
252.89	1693.67
253.11	1617.90
253.33	1798.12
253.54	1773.54
253.76	1624.04
253.98	1665.00
254.20	1658.85
254.41	1589.22
254.63	1728.49
254.85	1591.27
255.06	1708.01
255.28	1675.24
255.50	1701.86
255.71	1652.71
255.93	1642.47
256.15	1693.67
256.36	1738.73
256.58	1673.19
256.80	1744.87
257.02	1742.82
257.23	1673.19
257.45	1665.00
257.67	1796.07
257.88	1689.57
258.10	1775.59
258.32	1703.91
258.53	1695.72
258.75	1808.36
258.97	1705.96
259.18	1603.56
259.40	1691.62
259.62	1816.55
259.83	1871.84
260.05	1740.77
260.27	1972.19
260.48	1763.30
260.70	1636.33
260.92	1662.95
261.13	1746.92
261.35	1736.68
261.57	1812.45
261.78	1619.94
262.00	1675.24
262.22	1716.20
262.43	1662.95
262.65	1712.10
262.86	1787.88
263.08	1806.31
263.30	1748.97
263.51	1654.76
263.73	1619.94
263.95	1859.56
264.16	1691.62
264.38	1677.29
264.60	1748.97
264.81	1611.75
265.03	1804.26
265.25	1785.83
265.46	1687.53
265.68	1781.73
265.89	1722.34
266.11	1613.80
266.33	1705.96
266.54	1695.72
266.76	1716.20
266.98	1656.81
267.19	1802.21
267.41	1738.73
267.62	1732.58
267.84	1642.47
268.06	1703.91
268.27	1710.05
268.49	1755.11
268.70	1824.74
268.92	1652.71
269.14	1695.72
269.35	1597.42
269.57	1662.95
269.79	1693.67
270.00	1650.66
270.22	1722.34
270.43	1673.19
270.65	1597.42
270.87	1695.72
271.08	1705.96
271.30	1695.72
271.51	1705.96
271.73	1712.10
271.95	1773.54
272.16	1730.53
272.38	1654.76
272.59	1703.91
272.81	1722.34
273.02	1701.86
273.24	1652.71
273.46	1777.64
273.67	1636.33
273.89	1650.66
274.10	1720.29
274.32	1734.63
274.54	1710.05
274.75	1681.38
274.97	1687.53
275.18	1769.44
275.40	1740.77
275.61	1740.77
275.83	1697.77
276.05	1662.95
276.26	1720.29
276.48	1755.11
276.69	1644.52
276.91	1656.81
277.12	1802.21
277.34	1708.01
277.55	1720.29
277.77	1695.72
277.99	1665.00
278.20	1640.42
278.42	1609.70
278.63	1669.09
278.85	1691.62
279.06	1689.57
279.28	1685.48
279.49	1724.39
279.71	1751.01
279.93	1734.63
280.14	1650.66
280.36	1697.77
280.57	1744.87
280.79	1712.10
281.00	1722.34
281.22	1714.15
281.43	1837.03
281.65	1570.79
281.86	1615.85
282.08	1759.21
282.29	1789.92
282.51	1658.85
282.73	1730.53
282.94	1642.47
283.16	1755.11
283.37	1755.11
283.59	1611.75
283.80	1746.92
284.02	1701.86
284.23	1738.73
284.45	1658.85
284.66	1675.24
284.88	1652.71
285.09	1791.97
285.31	1699.81
285.52	1693.67
285.74	1624.04
285.95	1765.35
286.17	1691.62
286.38	1755.11
286.60	1665.00
286.81	1656.81
287.03	1673.19
287.24	1693.67
287.46	1746.92
287.67	1609.70
287.89	1791.97
288.10	1742.82
288.32	1714.15
288.53	1771.49
288.75	1656.81
288.96	1728.49
289.18	1669.09
289.39	1771.49
289.61	1693.67
289.82	1806.31
290.04	1863.65
290.25	1630.18
290.47	1687.53
290.68	1779.68
290.90	1789.92
291.11	1621.99
291.33	1779.68
291.54	1671.14
291.76	1634.28
291.97	1648.61
292.18	1779.68
292.40	1787.88
292.61	1652.71
292.83	1843.17
293.04	1675.24
293.26	1755.11
293.47	1640.42
293.69	1671.14
293.90	1724.39
294.12	1851.36
294.33	1701.86
294.55	1675.24
294.76	1796.07
294.97	1771.49
295.19	1812.45
295.40	1708.01
295.62	1751.01
295.83	1626.09
296.05	1652.71
296.26	1810.40
296.48	1701.86
296.69	1714.15
296.90	1638.38
297.12	1810.40
297.33	1738.73
297.55	1691.62
297.76	1740.77
297.98	1832.93
298.19	1611.75
298.41	1654.76
298.62	1728.49
298.83	1773.54
299.05	1757.16
299.26	1673.19
299.48	1632.23
299.69	1761.25
299.90	1722.34
300.12	1652.71
300.33	1724.39
300.55	1683.43
300.76	1781.73
300.98	1626.09
301.19	1771.49
301.40	1660.90
301.62	1710.05
301.83	1714.15
302.05	1691.62
302.26	1796.07
302.47	1757.16
302.69	1683.43
302.90	1648.61
303.12	1615.85
303.33	1751.01
303.54	1769.44
303.76	1687.53
303.97	1775.59
304.19	1757.16
304.40	1628.14
304.61	1695.72
304.83	1822.69
305.04	1779.68
305.26	1755.11
305.47	1667.05
305.68	1662.95
305.90	1648.61
306.11	1746.92
306.33	1677.29
306.54	1689.57
306.75	1699.81
306.97	1632.23
307.18	1667.05
307.39	1626.09
307.61	1767.40
307.82	1671.14
308.04	1689.57
308.25	1685.48
308.46	1755.11
308.68	1669.09
308.89	1714.15
309.10	1755.11
309.32	1718.25
309.53	1603.56
309.74	1714.15
309.96	1673.19
310.17	1757.16
310.39	1658.85
310.60	1722.34
310.81	1710.05
311.03	1603.56
311.24	1763.30
311.45	1753.06
311.67	1742.82
311.88	1642.47
312.09	1697.77
312.31	1669.09
312.52	1613.80
312.73	1656.81
312.95	1665.00
313.16	1626.09
313.37	1753.06
313.59	1683.43
313.80	1791.97
314.01	1849.32
314.23	1691.62
314.44	1658.85
314.65	1705.96
314.87	1636.33
315.08	1681.38
315.29	1722.34
315.51	1679.33
315.72	1589.22
315.93	1751.01
316.15	1710.05
316.36	1673.19
316.57	1679.33
316.79	1751.01
317.00	1673.19
317.21	1699.81
317.43	1652.71
317.64	1712.10
317.85	1734.63
318.07	1679.33
318.28	1726.44
318.49	1769.44
318.70	1859.56
318.92	1816.55
319.13	1824.74
319.34	1900.52
319.56	1839.08
319.77	1834.98
319.98	1820.64
320.20	1679.33
320.41	1665.00
320.62	1779.68
320.83	1624.04
321.05	1810.40
321.26	1763.30
321.47	1644.52
321.69	1826.79
321.90	1669.09
322.11	1708.01
322.32	1785.83
322.54	1724.39
322.75	1673.19
322.96	1798.12
323.18	1689.57
323.39	1630.18
323.60	1667.05
323.81	1748.97
324.03	1658.85
324.24	1701.86
324.45	1701.86
324.66	1693.67
324.88	1746.92
325.09	1851.36
325.30	1687.53
325.52	1753.06
325.73	1705.96
325.94	1699.81
326.15	1640.42
326.37	1685.48
326.58	1734.63
326.79	1857.51
327.00	1660.90
327.22	1708.01
327.43	1654.76
327.64	1607.66
327.85	1665.00
328.07	1722.34
328.28	1796.07
328.49	1632.23
328.70	1687.53
328.92	1800.16
329.13	1710.05
329.34	1726.44
329.55	1796.07
329.76	1732.58
329.98	1677.29
330.19	1689.57
330.40	1755.11
330.61	1746.92
330.83	1753.06
331.04	1656.81
331.25	1695.72
331.46	1685.48
331.68	1638.38
331.89	1701.86
332.10	1673.19
332.31	1632.23
332.52	1665.00
332.74	1748.97
332.95	1697.77
333.16	1669.09
333.37	1742.82
333.58	1736.68
333.80	1769.44
334.01	1578.98
334.22	1652.71
334.43	1667.05
334.64	1665.00
334.86	1648.61
335.07	1677.29
335.28	1761.25
335.49	1691.62
335.70	1781.73
335.92	1673.19
336.13	1820.64
336.34	1687.53
336.55	1763.30
336.76	1839.08
336.98	1560.55
337.19	1681.38
337.40	1740.77
337.61	1771.49
337.82	1753.06
338.04	1740.77
338.25	1562.60
338.46	1697.77
338.67	1665.00
338.88	1693.67
339.09	1611.75
339.31	1638.38
339.52	1662.95
339.73	1630.18
339.94	1757.16
340.15	1730.53
340.36	1626.09
340.58	1656.81
340.79	1695.72
341.00	1728.49
341.21	1638.38
341.42	1822.69
341.63	1693.67
341.85	1712.10
342.06	1724.39
342.27	1710.05
342.48	1718.25
342.69	1656.81
342.90	1763.30
343.12	1740.77
343.33	1634.28
343.54	1796.07
343.75	1791.97
343.96	1699.81
344.17	1628.14
344.38	1677.29
344.60	1648.61
344.81	1644.52
345.02	1705.96
345.23	1769.44
345.44	1796.07
345.65	1667.05
345.86	1705.96
346.07	1708.01
346.29	1685.48
346.50	1757.16
346.71	1767.40
346.92	1839.08
347.13	1777.64
347.34	1675.24
347.55	1679.33
347.76	1693.67
347.98	1658.85
348.19	1687.53
348.40	1753.06
348.61	1724.39
348.82	1824.74
349.03	1828.84
349.24	1617.90
349.45	1845.22
349.66	1542.12
349.88	1642.47
350.09	1660.90
350.30	1814.50
350.51	1701.86
350.72	1642.47
350.93	1751.01
351.14	1701.86
351.35	1746.92
351.56	1736.68
351.77	1632.23
351.99	1740.77
352.20	1736.68
352.41	1777.64
352.62	1626.09
352.83	1683.43
353.04	1671.14
353.25	1658.85
353.46	1810.40
353.67	1712.10
353.88	1576.94
354.09	1669.09
354.30	1718.25
354.52	1714.15
354.73	1734.63
354.94	1648.61
355.15	1658.85
355.36	1791.97
355.57	1685.48
355.78	1697.77
355.99	1755.11
356.20	1728.49
356.41	1755.11
356.62	1742.82
356.83	1726.44
357.04	1783.78
357.25	1646.57
357.46	1617.90
357.68	1589.22
357.89	1679.33
358.10	1710.05
358.31	1751.01
358.52	1699.81
358.73	1685.48
358.94	1630.18
359.15	1685.48
359.36	1716.20
359.57	1697.77
359.78	1738.73
359.99	1722.34
360.20	1665.00
360.41	1638.38
360.62	1699.81
360.83	1714.15
361.04	1730.53
361.25	1693.67
361.46	1755.11
361.67	1783.78
361.88	1667.05
362.09	1751.01
362.30	1708.01
362.51	1730.53
362.72	1734.63
362.93	1732.58
363.14	1773.54
363.35	1695.72
363.56	1632.23
363.78	1753.06
363.99	1824.74
364.20	1660.90
364.41	1748.97
364.62	1820.64
364.83	1701.86
365.04	1679.33
365.25	1724.39
365.46	1886.18
365.67	1703.91
365.88	1652.71
366.09	1701.86
366.30	1699.81
366.51	1665.00
366.72	1765.35
366.93	1705.96
367.14	1685.48
367.35	1734.63
367.56	1718.25
367.77	1787.88
367.98	1751.01
368.18	1701.86
368.39	1755.11
368.60	1652.71
368.81	1708.01
369.02	1718.25
369.23	1769.44
369.44	1574.89
369.65	1660.90
369.86	1724.39
370.07	1748.97
370.28	1697.77
370.49	1751.01
370.70	1789.92
370.91	1583.08
371.12	1675.24
371.33	1761.25
371.54	1634.28
371.75	1812.45
371.96	1626.09
372.17	1679.33
372.38	1714.15
372.59	1671.14
372.80	1732.58
373.01	1658.85
373.22	1673.19
373.43	1730.53
373.64	1640.42
373.85	1728.49
374.06	1810.40
374.26	1667.05
374.47	1708.01
374.68	1683.43
374.89	1773.54
375.10	1640.42
375.31	1789.92
375.52	1695.72
375.73	1720.29
375.94	1654.76
376.15	1722.34
376.36	1660.90
376.57	1746.92
376.78	1675.24
376.99	1716.20
377.20	1767.40
377.40	1574.89
377.61	1720.29
377.82	1699.81
378.03	1789.92
378.24	1677.29
378.45	1740.77
378.66	1710.05
378.87	1638.38
379.08	1566.70
379.29	1652.71
379.50	1734.63
379.71	1648.61
379.91	1695.72
380.12	1718.25
380.33	1656.81
380.54	1771.49
380.75	1658.85
380.96	1751.01
381.17	1779.68
381.38	1718.25
381.59	1779.68
381.80	1720.29
382.00	1751.01
382.21	1757.16
382.42	1880.04
382.63	1804.26
382.84	1736.68
383.05	1701.86
383.26	1816.55
383.47	1724.39
383.68	1783.78
383.88	1738.73
384.09	1724.39
384.30	1859.56
384.51	1705.96
384.72	1689.57
384.93	1576.94
385.14	1654.76
385.35	1771.49
385.55	1673.19
385.76	1726.44
385.97	1675.24
386.18	1642.47
386.39	1685.48
386.60	1648.61
386.81	1728.49
387.02	1740.77
387.22	1628.14
387.43	1681.38
387.64	1779.68
387.85	1865.70
388.06	2250.72
388.27	4331.45
388.48	6791.06
388.68	8169.35
388.89	9658.22
389.10	9875.31
389.31	8580.99
389.52	7638.92
389.73	6836.12
389.93	6422.43
390.14	5842.85
390.35	5130.16
390.56	4544.44
390.77	3774.41
390.98	3053.52
391.18	2521.05
391.39	2146.27
391.60	1871.84
391.81	1855.46
392.02	1609.70
392.23	1871.84
392.43	1740.77
392.64	1775.59
392.85	1718.25
393.06	1761.25
393.27	1667.05
393.47	1679.33
393.68	1716.20
393.89	1734.63
394.10	1736.68
394.31	1726.44
394.52	1687.53
394.72	1751.01
394.93	1781.73
395.14	1646.57
395.35	1732.58
395.56	1677.29
395.76	1689.57
395.97	1796.07
396.18	1714.15
396.39	1843.17
396.60	1929.19
396.80	1968.10
397.01	1877.99
397.22	1814.50
397.43	1834.98
397.64	1728.49
397.84	1816.55
398.05	1873.89
398.26	1771.49
398.47	1794.02
398.67	1869.80
398.88	1714.15
399.09	1755.11
399.30	1693.67
399.51	1650.66
399.71	1646.57
399.92	1644.52
400.13	1712.10
400.34	1632.23
400.54	1658.85
400.75	1828.84
400.96	1751.01
401.17	1834.98
401.37	1673.19
401.58	1712.10
401.79	1740.77
402.00	1923.04
402.21	2019.30
402.41	1947.62
402.62	2023.39
402.83	1970.15
403.04	1972.19
403.24	2058.21
403.45	1781.73
403.66	1886.18
403.87	1920.99
404.07	1920.99
404.28	1939.43
404.49	1828.84
404.70	1746.92
404.90	1843.17
405.11	1736.68
405.32	1767.40
405.52	1632.23
405.73	1632.23
405.94	1691.62
406.15	1619.94
406.35	1751.01
406.56	1710.05
406.77	1660.90
406.98	1812.45
407.18	1673.19
407.39	1802.21
407.60	1705.96
407.80	1789.92
408.01	1687.53
408.22	1742.82
408.43	1621.99
408.63	1812.45
408.84	1691.62
409.05	1701.86
409.25	1683.43
409.46	1609.70
409.67	1650.66
409.88	1656.81
410.08	1740.77
410.29	1654.76
410.50	1748.97
410.70	1753.06
410.91	1665.00
411.12	1687.53
411.32	1708.01
411.53	1652.71
411.74	1732.58
411.95	1804.26
412.15	1839.08
412.36	1826.79
412.57	1789.92
412.77	1767.40
412.98	1712.10
413.19	1730.53
413.39	1730.53
413.60	1769.44
413.81	1732.58
414.01	1644.52
414.22	1746.92
414.43	1701.86
414.63	1624.04
414.84	1771.49
415.05	1796.07
415.25	1587.18
415.46	1767.40
415.67	1671.14
415.87	1744.87
416.08	1740.77
416.29	1619.94
416.49	1738.73
416.70	1685.48
416.91	1724.39
417.11	1722.34
417.32	1759.21
417.53	1757.16
417.73	1730.53
417.94	1730.53
418.15	1767.40
418.35	1775.59
418.56	1712.10
418.77	1841.12
418.97	1673.19
419.18	1654.76
419.38	1601.51
419.59	1675.24
419.80	1777.64
420.00	1681.38
420.21	1759.21
420.42	1789.92
420.62	1654.76
420.83	1611.75
421.04	1652.71
421.24	1732.58
421.45	1732.58
421.65	1753.06
421.86	1761.25
422.07	1728.49
422.27	1726.44
422.48	1716.20
422.69	1595.37
422.89	1691.62
423.10	1667.05
423.30	1640.42
423.51	1667.05
423.72	1689.57
423.92	1761.25
424.13	1703.91
424.33	1757.16
424.54	1753.06
424.75	1728.49
424.95	1759.21
425.16	1730.53
425.36	1665.00
425.57	1705.96
425.78	1779.68
425.98	1712.10
426.19	1648.61
426.39	1634.28
426.60	1753.06
426.81	1726.44
427.01	1652.71
427.22	1667.05
427.42	1626.09
427.63	1679.33
427.83	1775.59
428.04	1777.64
428.25	1791.97
428.45	1712.10
428.66	1736.68
428.86	1648.61
429.07	1687.53
429.28	1708.01
429.48	1789.92
429.69	1648.61
429.89	1675.24
430.10	1695.72
430.30	1787.88
430.51	1761.25
430.71	1701.86
430.92	1636.33
431.13	1757.16
431.33	1777.64
431.54	1751.01
431.74	1779.68
431.95	1781.73
432.15	1693.67
432.36	1738.73
432.56	1732.58
432.77	1785.83
432.98	1757.16
433.18	1757.16
433.39	1642.47
433.59	1691.62
433.80	1894.37
434.00	1880.04
434.21	1662.95
434.41	1656.81
434.62	1834.98
434.82	1621.99
435.03	1740.77
435.23	1746.92
435.44	1650.66
435.64	1730.53
435.85	1699.81
436.06	1769.44
436.26	1802.21
436.47	1730.53
436.67	1681.38
436.88	1689.57
437.08	1806.31
437.29	1796.07
437.49	1705.96
437.70	1744.87
437.90	1726.44
438.11	1853.41
438.31	1767.40
438.52	1861.60
438.72	1869.80
438.93	1937.38
439.13	1742.82
439.34	1798.12
439.54	1697.77
439.75	1871.84
439.95	1769.44
440.16	1697.77
440.36	1744.87
440.57	1695.72
440.77	1705.96
440.98	1724.39
441.18	1751.01
441.39	1630.18
441.59	1730.53
441.80	1832.93
442.00	1781.73
442.21	1757.16
442.41	1734.63
442.62	1769.44
442.82	1710.05
443.02	1730.53
443.23	1736.68
443.43	1744.87
443.64	1802.21
443.84	1722.34
444.05	1765.35
444.25	1730.53
444.46	1746.92
444.66	1785.83
444.87	1877.99
445.07	1552.36
445.28	1751.01
445.48	1773.54
445.69	1722.34
445.89	1875.94
446.09	1781.73
446.30	2031.58
446.50	2680.79
446.71	3788.74
446.91	4356.03
447.12	4753.34
447.32	4786.10
447.53	4276.16
447.73	3868.61
447.93	3567.56
448.14	3352.52
448.34	3241.93
448.55	2873.30
448.75	2844.63
448.96	2781.14
449.16	2410.46
449.36	2336.73
449.57	2037.73
449.77	1925.09
449.98	1798.12
450.18	1859.56
450.39	1837.03
450.59	1742.82
450.79	1648.61
451.00	1697.77
451.20	1740.77
451.41	1677.29
451.61	1726.44
451.81	1732.58
452.02	1726.44
452.22	1751.01
452.43	1681.38
452.63	1609.70
452.84	1699.81
453.04	1730.53
453.24	1771.49
453.45	1691.62
453.65	1705.96
453.86	1810.40
454.06	1781.73
454.26	1699.81
454.47	1703.91
454.67	1845.22
454.87	1763.30
455.08	1753.06
455.28	1900.52
455.49	1808.36
455.69	1759.21
455.89	1837.03
456.10	1796.07
456.30	1679.33
456.51	1785.83
456.71	1638.38
456.91	1712.10
457.12	1746.92
457.32	1830.88
457.52	1683.43
457.73	1736.68
457.93	1761.25
458.14	1662.95
458.34	1621.99
458.54	1728.49
458.75	1675.24
458.95	1767.40
459.15	1746.92
459.36	1726.44
459.56	1728.49
459.76	1861.60
459.97	1720.29
460.17	1710.05
460.37	1775.59
460.58	1789.92
460.78	1730.53
460.99	1662.95
461.19	1812.45
461.39	1722.34
461.60	1716.20
461.80	1757.16
462.00	1607.66
462.21	1626.09
462.41	1751.01
462.61	1619.94
462.82	1628.14
463.02	1732.58
463.22	1685.48
463.43	1802.21
463.63	1757.16
463.83	1775.59
464.04	1714.15
464.24	1693.67
464.44	1615.85
464.64	1691.62
464.85	1746.92
465.05	1804.26
465.25	1720.29
465.46	1671.14
465.66	1796.07
465.86	1798.12
466.07	1740.77
466.27	1738.73
466.47	1628.14
466.68	1599.46
466.88	1775.59
467.08	1669.09
467.29	1783.78
467.49	1759.21
467.69	1763.30
467.89	1785.83
468.10	1708.01
468.30	1685.48
468.50	1791.97
468.71	1734.63
468.91	1687.53
469.11	1861.60
469.31	1667.05
469.52	1685.48
469.72	1822.69
469.92	1771.49
470.13	1730.53
470.33	1824.74
470.53	1810.40
470.73	2000.87
470.94	2367.45
471.14	2312.16
471.34	2600.92
471.54	2484.19
471.75	2150.37
471.95	2084.83
472.15	2199.52
472.36	2043.87
472.56	2037.73
472.76	2047.97
472.96	1888.23
473.17	1894.37
473.37	1886.18
473.57	1787.88
473.77	1751.01
473.98	1777.64
474.18	1771.49
474.38	1935.33
474.58	1689.57
474.79	1648.61
474.99	1703.91
475.19	1794.02
475.39	1712.10
475.60	1746.92
475.80	1773.54
476.00	1726.44
476.20	1665.00
476.41	1763.30
476.61	1761.25
476.81	1859.56
477.01	1644.52
477.21	1855.46
477.42	1865.70
477.62	1685.48
477.82	1796.07
478.02	1742.82
478.23	1789.92
478.43	1687.53
478.63	1703.91
478.83	1632.23
479.03	1697.77
479.24	1841.12
479.44	1818.60
479.64	1662.95
479.84	1705.96
480.04	1640.42
480.25	1726.44
480.45	1615.85
480.65	1714.15
480.85	1763.30
481.06	1681.38
481.26	1677.29
481.46	1779.68
481.66	1765.35
481.86	1648.61
482.06	1734.63
482.27	1714.15
482.47	1652.71
482.67	1693.67
482.87	1683.43
483.07	1824.74
483.28	1712.10
483.48	1691.62
483.68	1714.15
483.88	1695.72
484.08	1654.76
484.29	1599.46
484.49	1662.95
484.69	1675.24
484.89	1767.40
485.09	1783.78
485.29	1800.16
485.50	1779.68
485.70	1669.09
485.90	1757.16
486.10	1738.73
486.30	1734.63
486.50	1798.12
486.71	1697.77
486.91	1783.78
487.11	1722.34
487.31	1646.57
487.51	1757.16
487.71	1656.81
487.91	1626.09
488.12	1730.53
488.32	1605.61
488.52	1703.91
488.72	1611.75
488.92	1673.19
489.12	1771.49
489.32	1779.68
489.53	1755.11
489.73	1703.91
489.93	1787.88
490.13	1689.57
490.33	1699.81
490.53	1775.59
490.73	1787.88
490.94	1572.84
491.14	1771.49
491.34	1851.36
491.54	2105.31
491.74	2562.01
491.94	2910.16
492.14	2957.27
492.34	2951.12
492.54	2801.62
492.75	2475.99
492.95	2445.27
493.15	2320.35
493.35	2410.46
493.55	2244.57
493.75	2164.70
493.95	2166.75
494.15	2029.54
494.35	1910.75
494.56	1812.45
494.76	1734.63
494.96	1802.21
495.16	1837.03
495.36	1757.16
495.56	1806.31
495.76	1767.40
495.96	1767.40
496.16	1662.95
496.36	1896.42
496.56	1695.72
496.77	1771.49
496.97	1626.09
497.17	1683.43
497.37	1587.18
497.57	1781.73
497.77	1740.77
497.97	1738.73
498.17	1769.44
498.37	1705.96
498.57	1837.03
498.77	1705.96
498.97	1849.32
499.17	1916.90
499.38	1714.15
499.58	1712.10
499.78	1767.40
499.98	1763.30
500.18	1761.25
500.38	1705.96
500.58	1882.08
500.78	2551.77
500.98	4491.20
501.18	5887.91
501.38	6782.87
501.58	7100.31
501.78	6846.36
501.98	5699.50
502.18	4984.76
502.38	4452.28
502.58	4114.37
502.78	3850.18
502.98	3608.52
503.18	3489.74
503.38	3237.84
503.59	2832.34
503.79	2731.99
503.99	2566.10
504.19	2316.25
504.39	2183.13
504.59	2158.56
504.79	2078.69
504.99	2025.44
505.19	1949.67
505.39	1888.23
505.59	1914.85
505.79	1886.18
505.99	1832.93
506.19	1796.07
506.39	1845.22
506.59	1767.40
506.79	1781.73
506.99	1755.11
507.19	1746.92
507.39	1734.63
507.59	1689.57
507.79	1708.01
507.99	1732.58
508.19	1681.38
508.39	1662.95
508.59	1724.39
508.79	1814.50
508.99	1812.45
509.19	1681.38
509.39	1689.57
509.59	1726.44
509.79	1802.21
509.99	1753.06
510.19	1751.01
510.39	1800.16
510.59	1796.07
510.79	1705.96
510.99	1771.49
511.19	1728.49
511.39	1837.03
511.59	1773.54
511.79	1777.64
511.99	1671.14
512.19	1822.69
512.38	1771.49
512.58	1742.82
512.78	1751.01
512.98	1800.16
513.18	1779.68
513.38	1628.14
513.58	1861.60
513.78	1781.73
513.98	1765.35
514.18	1730.53
514.38	1699.81
514.58	1783.78
514.78	1689.57
514.98	1767.40
515.18	1630.18
515.38	1654.76
515.58	1755.11
515.78	1732.58
515.98	1710.05
516.18	1740.77
516.38	1777.64
516.57	1697.77
516.77	1718.25
516.97	1642.47
517.17	1687.53
517.37	1710.05
517.57	1779.68
517.77	1728.49
517.97	1746.92
518.17	1755.11
518.37	1705.96
518.57	1669.09
518.77	1708.01
518.97	1726.44
519.16	1748.97
519.36	1853.41
519.56	1726.44
519.76	1679.33
519.96	1687.53
520.16	1841.12
520.36	1640.42
520.56	1853.41
520.76	1693.67
520.96	1624.04
521.16	1810.40
521.35	1808.36
521.55	1767.40
521.75	1757.16
521.95	1679.33
522.15	1728.49
522.35	1665.00
522.55	1724.39
522.75	1753.06
522.95	1693.67
523.14	1740.77
523.34	1771.49
523.54	1712.10
523.74	1701.86
523.94	1673.19
524.14	1722.34
524.34	1767.40
524.54	1775.59
524.73	1730.53
524.93	1841.12
525.13	1703.91
525.33	1693.67
525.53	1853.41
525.73	1787.88
525.93	1732.58
526.13	1724.39
526.32	1673.19
526.52	1857.51
526.72	1763.30
526.92	1722.34
527.12	1689.57
527.32	1638.38
527.52	1705.96
527.71	1710.05
527.91	1681.38
528.11	1726.44
528.31	1691.62
528.51	1673.19
528.71	1724.39
528.90	1763.30
529.10	1857.51
529.30	1736.68
529.50	1730.53
529.70	1791.97
529.90	1751.01
530.09	1783.78
530.29	1708.01
530.49	1695.72
530.69	1880.04
530.89	1726.44
531.09	1796.07
531.28	1763.30
531.48	1783.78
531.68	1615.85
531.88	1742.82
532.08	1859.56
532.28	1701.86
532.47	1837.03
532.67	1828.84
532.87	1738.73
533.07	1705.96
533.27	1771.49
533.46	1779.68
533.66	1746.92
533.86	1757.16
534.06	1775.59
534.26	1771.49
534.45	1734.63
534.65	1787.88
534.85	1753.06
535.05	1689.57
535.25	1853.41
535.44	1632.23
535.64	1824.74
535.84	1753.06
536.04	1761.25
536.24	1697.77
536.43	1685.48
536.63	1818.60
536.83	1757.16
537.03	1738.73
537.22	1730.53
537.42	1619.94
537.62	1753.06
537.82	1689.57
538.02	1726.44
538.21	1812.45
538.41	1904.61
538.61	1714.15
538.81	1701.86
539.00	1830.88
539.20	1679.33
539.40	1669.09
539.60	1712.10
539.79	1810.40
539.99	1796.07
540.19	1658.85
540.39	1746.92
540.58	1730.53
540.78	1665.00
540.98	1716.20
541.18	1826.79
541.37	1736.68
541.57	1722.34
541.77	1705.96
541.97	1683.43
542.16	1638.38
542.36	1710.05
542.56	1722.34
542.76	1812.45
542.95	1796.07
543.15	1683.43
543.35	1730.53
543.54	1732.58
543.74	1738.73
543.94	1763.30
544.14	1697.77
544.33	1865.70
544.53	1742.82
544.73	1843.17
544.93	1687.53
545.12	1703.91
545.32	1738.73
545.52	1669.09
545.71	1640.42
545.91	1689.57
546.11	1699.81
546.30	1679.33
546.50	1669.09
546.70	1808.36
546.90	1759.21
547.09	1636.33
547.29	1748.97
547.49	1695.72
547.68	1728.49
547.88	1662.95
548.08	1775.59
548.27	2142.18
548.47	1718.25
548.67	1738.73
548.87	1718.25
549.06	1693.67
549.26	1767.40
549.46	1740.77
549.65	1751.01
549.85	1808.36
550.05	1822.69
550.24	1697.77
550.44	1730.53
550.64	1726.44
550.83	1708.01
551.03	1773.54
551.23	1832.93
551.42	1781.73
551.62	1751.01
551.82	1654.76
552.01	1673.19
552.21	1708.01
552.41	1867.75
552.60	1789.92
552.80	1796.07
553.00	1773.54
553.19	1781.73
553.39	1736.68
553.59	1634.28
553.78	1738.73
553.98	1773.54
554.17	1693.67
554.37	1705.96
554.57	1763.30
554.76	1667.05
554.96	1673.19
555.16	1785.83
555.35	1796.07
555.55	1740.77
555.75	1685.48
555.94	1783.78
556.14	1595.37
556.33	1794.02
556.53	1748.97
556.73	1738.73
556.92	1841.12
557.12	1753.06
557.32	1890.28
557.51	1826.79
557.71	1787.88
557.90	1789.92
558.10	1849.32
558.30	1718.25
558.49	1701.86
558.69	1759.21
558.88	1728.49
559.08	1751.01
559.28	1701.86
559.47	1705.96
559.67	1771.49
559.86	1763.30
560.06	1710.05
560.26	1742.82
560.45	1794.02
560.65	1738.73
560.84	1740.77
561.04	1697.77
561.24	1761.25
561.43	1689.57
561.63	1824.74
561.82	1740.77
562.02	1753.06
562.22	1753.06
562.41	1660.90
562.61	1738.73
562.80	1665.00
563.00	1871.84
563.19	1798.12
563.39	1765.35
563.59	1751.01
563.78	1644.52
563.98	1675.24
564.17	1722.34
564.37	1712.10
564.56	1716.20
564.76	1615.85
564.96	1765.35
565.15	1724.39
565.35	1918.95
565.54	1687.53
565.74	1759.21
565.93	1724.39
566.13	1730.53
566.32	1767.40
566.52	1761.25
566.71	1806.31
566.91	1794.02
567.11	1787.88
567.30	1679.33
567.50	1714.15
567.69	1757.16
567.89	1714.15
568.08	1652.71
568.28	1710.05
568.47	1714.15
568.67	1763.30
568.86	1660.90
569.06	1855.46
569.25	1714.15
569.45	1689.57
569.64	1695.72
569.84	1665.00
570.04	1728.49
570.23	1710.05
570.43	1628.14
570.62	1714.15
570.82	1722.34
571.01	1656.81
571.21	1730.53
571.40	1679.33
571.60	1818.60
571.79	1767.40
571.99	1822.69
572.18	1734.63
572.38	1791.97
572.57	1742.82
572.77	1748.97
572.96	1865.70
573.16	1759.21
573.35	1687.53
573.55	1869.80
573.74	1794.02
573.94	1816.55
574.13	1712.10
574.33	1820.64
574.52	1759.21
574.71	1718.25
574.91	1763.30
575.10	1603.56
575.30	1767.40
575.49	1669.09
575.69	1650.66
575.88	1796.07
576.08	1720.29
576.27	1791.97
576.47	1759.21
576.66	1873.89
576.86	1796.07
577.05	1773.54
577.25	1753.06
577.44	1808.36
577.64	1685.48
577.83	1802.21
578.02	1798.12
578.22	1816.55
578.41	1894.37
578.61	1662.95
578.80	1697.77
579.00	1806.31
579.19	1693.67
579.39	1781.73
579.58	1800.16
579.77	1800.16
579.97	1783.78
580.16	1804.26
580.36	1814.50
580.55	1796.07
580.75	1730.53
580.94	1759.21
581.13	1884.13
581.33	1765.35
581.52	1759.21
581.72	1855.46
581.91	1763.30
582.11	1746.92
582.30	1880.04
582.49	1681.38
582.69	1773.54
582.88	1757.16
583.08	1767.40
583.27	1779.68
583.47	1767.40
583.66	1683.43
583.85	1708.01
584.05	1722.34
584.24	1785.83
584.44	1746.92
584.63	1800.16
584.82	1777.64
585.02	1763.30
585.21	1818.60
585.41	1832.93
585.60	1847.27
585.79	2015.20
585.99	1972.19
586.18	1802.21
586.37	2197.47
586.57	3354.57
586.76	9711.47
586.96	24567.43
587.15	34684.40
587.34	40785.30
587.54	42458.49
587.73	37412.29
587.93	26527.34
588.12	21597.88
588.31	18611.94
588.51	16551.68
588.70	15419.16
588.89	14292.77
589.09	12601.15
589.28	11177.81
589.47	9439.09
589.67	8021.89
589.86	6479.77
590.06	4966.32
590.25	3991.49
590.44	3205.07
590.64	2574.30
590.83	2238.43
591.02	2125.79
591.22	1906.66
591.41	1894.37
591.60	1828.84
591.80	1964.00
591.99	1751.01
592.18	1812.45
592.38	1830.88
592.57	1652.71
592.76	1789.92
592.96	1775.59
593.15	1785.83
593.34	1773.54
593.54	1728.49
593.73	1771.49
593.92	1755.11
594.12	1718.25
594.31	1716.20
594.50	1767.40
594.70	1738.73
594.89	1820.64
595.08	1716.20
595.28	1777.64
595.47	1898.47
595.66	1730.53
595.86	1648.61
596.05	1718.25
596.24	1716.20
596.43	1777.64
596.63	1767.40
596.82	1767.40
597.01	1808.36
597.21	1837.03
597.40	1703.91
597.59	1714.15
597.79	1767.40
597.98	1794.02
598.17	1763.30
598.36	1769.44
598.56	1802.21
598.75	1701.86
598.94	1738.73
599.14	1740.77
599.33	1753.06
599.52	1767.40
599.71	1771.49
599.91	1822.69
600.10	1742.82
600.29	1753.06
600.48	1816.55
600.68	1800.16
600.87	1816.55
601.06	1640.42
601.26	1779.68
601.45	1796.07
601.64	1681.38
601.83	1794.02
602.03	1673.19
602.22	1708.01
602.41	1738.73
602.60	1839.08
602.80	1712.10
602.99	1744.87
603.18	1697.77
603.37	1705.96
603.57	1728.49
603.76	1779.68
603.95	1787.88
604.14	1624.04
604.34	1640.42
604.53	1660.90
604.72	1785.83
604.91	1722.34
605.10	1751.01
605.30	1624.04
605.49	1822.69
605.68	1744.87
605.87	1812.45
606.07	1763.30
606.26	1783.78
606.45	1724.39
606.64	1761.25
606.84	1652.71
607.03	1675.24
607.22	1738.73
607.41	1673.19
607.60	1722.34
607.80	1908.71
607.99	1718.25
608.18	1732.58
608.37	1679.33
608.56	1728.49
608.76	1800.16
608.95	1865.70
609.14	1765.35
609.33	1753.06
609.52	1814.50
609.72	1771.49
609.91	1765.35
610.10	1689.57
610.29	1787.88
610.48	1697.77
610.68	1787.88
610.87	1722.34
611.06	1699.81
611.25	1757.16
611.44	1808.36
611.63	1662.95
611.83	1744.87
612.02	1675.24
612.21	1755.11
612.40	1628.14
612.59	1685.48
612.79	1751.01
612.98	1665.00
613.17	1896.42
613.36	1718.25
613.55	1820.64
613.74	1718.25
613.93	1681.38
614.13	1773.54
614.32	1726.44
614.51	1804.26
614.70	1705.96
614.89	1650.66
615.08	1705.96
615.28	2052.06
615.47	1595.37
615.66	1826.79
615.85	1763.30
616.04	1841.12
616.23	1732.58
616.42	1738.73
616.62	1861.60
616.81	1708.01
617.00	1689.57
617.19	1781.73
617.38	1730.53
617.57	1689.57
617.76	1783.78
617.95	1730.53
618.15	1763.30
618.34	1761.25
618.53	1632.23
618.72	1857.51
618.91	1849.32
619.10	1837.03
619.29	1759.21
619.48	1742.82
619.68	1710.05
619.87	1736.68
620.06	1603.56
620.25	1773.54
620.44	1644.52
620.63	1708.01
620.82	1771.49
621.01	1769.44
621.20	1730.53
621.39	1740.77
621.59	1751.01
621.78	1714.15
621.97	1697.77
622.16	1722.34
622.35	1755.11
622.54	1785.83
622.73	1777.64
622.92	1669.09
623.11	1748.97
623.30	1740.77
623.49	1746.92
623.68	1689.57
623.88	1746.92
624.07	1724.39
624.26	1695.72
624.45	1689.57
624.64	1718.25
624.83	1738.73
625.02	1767.40
625.21	1710.05
625.40	1787.88
625.59	1740.77
625.78	1804.26
625.97	1783.78
626.16	1734.63
626.35	1662.95
626.54	1751.01
626.74	1775.59
626.93	1662.95
627.12	1767.40
627.31	1787.88
627.50	1779.68
627.69	1787.88
627.88	1691.62
628.07	1652.71
628.26	1605.61
628.45	1705.96
628.64	1685.48
628.83	1730.53
629.02	1665.00
629.21	1773.54
629.40	1705.96
629.59	1636.33
629.78	1736.68
629.97	1660.90
630.16	1703.91
630.35	1658.85
630.54	1679.33
630.73	1687.53
630.92	1751.01
631.11	1611.75
631.30	1705.96
631.49	1720.29
631.68	1689.57
631.87	1777.64
632.06	1648.61
632.25	1845.22
632.44	1722.34
632.63	1691.62
632.82	1626.09
633.01	1636.33
633.20	1636.33
633.39	1689.57
633.58	1628.14
633.77	1712.10
633.96	1720.29
634.15	1820.64
634.34	1744.87
634.53	1677.29
634.72	1636.33
634.91	1642.47
635.10	1689.57
635.29	1763.30
635.48	1742.82
635.67	1624.04
635.86	1716.20
636.05	1877.99
636.24	1687.53
636.43	1689.57
636.62	1765.35
636.81	1605.61
637.00	1632.23
637.19	1710.05
637.38	1744.87
637.57	1640.42
637.76	1722.34
637.95	1742.82
638.14	1667.05
638.33	1673.19
638.52	1783.78
638.71	1671.14
638.89	1632.23
639.08	1808.36
639.27	1728.49
639.46	1652.71
639.65	1830.88
639.84	1726.44
640.03	1746.92
640.22	1771.49
640.41	1753.06
640.60	1621.99
640.79	1703.91
640.98	1712.10
641.17	1796.07
641.36	1671.14
641.55	1798.12
641.74	1630.18
641.92	1619.94
642.11	1701.86
642.30	1789.92
642.49	1585.13
642.68	1632.23
642.87	1767.40
643.06	1757.16
643.25	1669.09
643.44	1656.81
643.63	1718.25
643.82	1794.02
644.00	1642.47
644.19	1736.68
644.38	1609.70
644.57	1804.26
644.76	1755.11
644.95	1697.77
645.14	1703.91
645.33	1691.62
645.52	1724.39
645.71	1667.05
645.89	1642.47
646.08	1708.01
646.27	1720.29
646.46	1820.64
646.65	1701.86
646.84	1675.24
647.03	1675.24
647.22	1783.78
647.40	1710.05
647.59	1689.57
647.78	1550.31
647.97	1673.19
648.16	1613.80
648.35	1708.01
648.54	1818.60
648.73	1650.66
648.91	1734.63
649.10	1732.58
649.29	1724.39
649.48	1718.25
649.67	1732.58
649.86	1740.77
650.05	1753.06
650.23	1763.30
650.42	1689.57
650.61	1730.53
650.80	1730.53
650.99	1794.02
651.18	1773.54
651.36	1796.07
651.55	1621.99
651.74	1681.38
651.93	1687.53
652.12	1775.59
652.31	1703.91
652.49	1677.29
652.68	1757.16
652.87	1755.11
653.06	1765.35
653.25	1785.83
653.44	1691.62
653.62	1767.40
653.81	1705.96
654.00	1710.05
654.19	1789.92
654.38	1853.41
654.56	1699.81
654.75	1767.40
654.94	1763.30
655.13	1759.21
655.32	1720.29
655.51	1722.34
655.69	1642.47
655.88	1699.81
656.07	1624.04
656.26	1716.20
656.45	1595.37
656.63	1652.71
656.82	1687.53
657.01	1740.77
657.20	1689.57
657.38	1804.26
657.57	1646.57
657.76	1626.09
657.95	1714.15
658.14	1650.66
658.32	1685.48
658.51	1656.81
658.70	1695.72
658.89	1726.44
659.08	1767.40
659.26	1789.92
659.45	1603.56
659.64	1771.49
659.83	1689.57
660.01	1877.99
660.20	1720.29
660.39	1787.88
660.58	1617.90
660.76	1765.35
660.95	1665.00
661.14	1759.21
661.33	1654.76
661.51	1644.52
661.70	1646.57
661.89	1806.31
662.08	1753.06
662.26	1636.33
662.45	1683.43
662.64	1839.08
662.83	1726.44
663.01	1603.56
663.20	1677.29
663.39	1779.68
663.58	1687.53
663.76	1722.34
663.95	1740.77
664.14	1736.68
664.32	1662.95
664.51	1730.53
664.70	1646.57
664.89	1759.21
665.07	1667.05
665.26	1751.01
665.45	1644.52
665.64	1806.31
665.82	1744.87
666.01	1763.30
666.20	1673.19
666.38	1859.56
666.57	1851.36
666.76	2172.89
666.95	4489.15
667.13	10481.50
667.32	15337.24
667.51	18007.79
667.69	19042.01
667.88	17706.74
668.07	12314.44
668.25	9600.88
668.44	8073.09
668.63	7411.60
668.81	6756.25
669.00	6369.18
669.19	5705.64
669.38	5152.69
669.56	4554.68
669.75	4061.12
669.94	3475.40
670.12	2918.36
670.31	2592.73
670.50	2258.91
670.68	2039.78
670.87	1888.23
671.06	1724.39
671.24	1765.35
671.43	1794.02
671.62	1716.20
671.80	1669.09
671.99	1771.49
672.18	1730.53
672.36	1751.01
672.55	1740.77
672.74	1718.25
672.92	1652.71
673.11	1744.87
673.29	1691.62
673.48	1810.40
673.67	1685.48
673.85	1806.31
674.04	1681.38
674.23	1722.34
674.41	1812.45
674.60	1626.09
674.79	1630.18
674.97	1671.14
675.16	1851.36
675.34	1697.77
675.53	1724.39
675.72	1732.58
675.90	1748.97
676.09	1716.20
676.28	1665.00
676.46	1628.14
676.65	1767.40
676.83	1626.09
677.02	1796.07
677.21	1798.12
677.39	1771.49
677.58	1679.33
677.77	1628.14
677.95	1615.85
678.14	1648.61
678.32	1681.38
678.51	1701.86
678.70	1839.08
678.88	1716.20
679.07	1677.29
679.25	1703.91
679.44	1691.62
679.63	1648.61
679.81	1732.58
680.00	1787.88
680.18	1755.11
680.37	1808.36
680.55	1662.95
680.74	1765.35
680.93	1632.23
681.11	1771.49
681.30	1675.24
681.48	1691.62
681.67	1787.88
681.85	1763.30
682.04	1665.00
682.23	1755.11
682.41	1722.34
682.60	1583.08
682.78	1744.87
682.97	1638.38
683.15	1742.82
683.34	1646.57
683.53	1751.01
683.71	1617.90
683.90	1824.74
684.08	1800.16
684.27	1675.24
684.45	1746.92
684.64	1751.01
684.82	1646.57
685.01	1744.87
685.19	1720.29
685.38	1796.07
685.57	1679.33
685.75	1650.66
685.94	1705.96
686.12	1642.47
686.31	1683.43
686.49	1857.51
686.68	1732.58
686.86	1699.81
687.05	1689.57
687.23	1822.69
687.42	1621.99
687.60	1611.75
687.79	1705.96
687.97	1783.78
688.16	1701.86
688.34	1779.68
688.53	1660.90
688.71	1687.53
688.90	1769.44
689.08	1667.05
689.27	1671.14
689.45	1695.72
689.64	1712.10
689.82	1761.25
690.01	1734.63
690.19	1730.53
690.38	1734.63
690.56	1757.16
690.75	1665.00
690.93	1636.33
691.12	1687.53
691.30	1656.81
691.49	1662.95
691.67	1716.20
691.86	1875.94
692.04	1621.99
692.23	1671.14
692.41	1654.76
692.60	1845.22
692.78	1779.68
692.97	1642.47
693.15	1759.21
693.34	1816.55
693.52	1697.77
693.71	1638.38
693.89	1644.52
694.08	1638.38
694.26	1697.77
694.44	1740.77
694.63	1718.25
694.81	1769.44
695.00	1753.06
695.18	1726.44
695.37	1882.08
695.55	1644.52
695.74	1662.95
695.92	1589.22
696.10	1843.17
696.29	1626.09
696.47	1650.66
696.66	1615.85
696.84	1593.32
697.03	1640.42
697.21	1804.26
697.40	2363.36
697.58	1755.11
697.76	1687.53
697.95	1728.49
698.13	1693.67
698.32	1679.33
698.50	1630.18
698.68	1740.77
698.87	1714.15
699.05	1796.07
699.24	1701.86
699.42	1667.05
699.61	1677.29
699.79	1681.38
699.97	1763.30
700.16	1710.05
700.34	1626.09
700.53	1732.58
700.71	1751.01
700.89	1718.25
701.08	1714.15
701.26	1701.86
701.45	2068.45
701.63	1705.96
701.81	1685.48
702.00	1687.53
702.18	1697.77
702.37	1665.00
702.55	1652.71
702.73	1687.53
702.92	1683.43
703.10	1685.48
703.28	1728.49
703.47	1640.42
703.65	1744.87
703.84	1742.82
704.02	1665.00
704.20	1785.83
704.39	1714.15
704.57	1748.97
704.75	1804.26
704.94	1722.34
705.12	1765.35
705.30	1765.35
705.49	2230.24
705.67	4446.14
705.86	9451.38
706.04	12855.10
706.22	14622.50
706.41	15580.95
706.59	14116.65
706.77	9852.78
706.96	7401.36
707.14	6614.94
707.32	6029.22
707.51	5588.91
707.69	5038.00
707.87	4175.81
708.06	3547.08
708.24	3022.80
708.42	2428.89
708.61	2318.30
708.79	1867.75
708.97	1886.18
709.16	1748.97
709.34	1738.73
709.52	1730.53
709.71	1748.97
709.89	1757.16
710.07	1667.05
710.26	1619.94
710.44	1720.29
710.62	1656.81
710.80	1712.10
710.99	1761.25
711.17	1763.30
711.35	1597.42
711.54	1656.81
711.72	1783.78
711.90	1703.91
712.09	1736.68
712.27	1732.58
712.45	1691.62
712.63	1683.43
712.82	1699.81
713.00	1681.38
713.18	1714.15
713.37	1757.16
713.55	1697.77
713.73	1765.35
713.91	1804.26
714.10	1767.40
714.28	1656.81
714.46	1705.96
714.65	1755.11
714.83	1724.39
715.01	1791.97
715.19	1724.39
715.38	1619.94
715.56	1708.01
715.74	1665.00
715.92	1619.94
716.11	1744.87
716.29	1607.66
716.47	1705.96
716.65	1705.96
716.84	1581.03
717.02	1787.88
717.20	1599.46
717.38	1677.29
717.57	1775.59
717.75	1730.53
717.93	1667.05
718.11	1697.77
718.30	1597.42
718.48	1728.49
718.66	1736.68
718.84	1751.01
719.03	1720.29
719.21	1665.00
719.39	1734.63
719.57	1771.49
719.75	1759.21
719.94	1628.14
720.12	1630.18
720.30	1751.01
720.48	1812.45
720.67	1675.24
720.85	1646.57
721.03	1755.11
721.21	1705.96
721.39	1751.01
721.58	1714.15
721.76	1761.25
721.94	1740.77
722.12	1765.35
722.30	1800.16
722.49	1675.24
722.67	1732.58
722.85	1769.44
723.03	1634.28
723.21	1636.33
723.40	1687.53
723.58	1744.87
723.76	1726.44
723.94	1828.84
724.12	1669.09
724.30	1757.16
724.49	1732.58
724.67	1619.94
724.85	1841.12
725.03	1611.75
725.21	1695.72
725.40	1851.36
725.58	1730.53
725.76	1728.49
725.94	1767.40
726.12	1626.09
726.30	1695.72
726.49	1730.53
726.67	1712.10
726.85	1714.15
727.03	1771.49
727.21	2162.66
727.39	2947.03
727.57	3868.61
727.76	4208.58
727.94	4456.38
728.12	4272.06
728.30	3778.50
728.48	2906.07
728.66	2760.66
728.84	2508.76
729.03	2338.78
729.21	2195.42
729.39	2023.39
729.57	1800.16
729.75	1814.50
729.93	1800.16
730.11	1712.10
730.30	1656.81
730.48	1712.10
730.66	1814.50
730.84	1724.39
731.02	1675.24
731.20	1617.90
731.38	1697.77
731.56	1701.86
731.74	1624.04
731.93	1724.39
732.11	1679.33
732.29	1773.54
732.47	1820.64
732.65	1677.29
732.83	1773.54
733.01	1742.82
733.19	1726.44
733.37	1724.39
733.56	1787.88
733.74	1652.71
733.92	1701.86
734.10	1697.77
734.28	1716.20
734.46	1593.32
734.64	1654.76
734.82	1718.25
735.00	1695.72
735.18	1681.38
735.36	1724.39
735.54	1656.81
735.73	1720.29
735.91	1699.81
736.09	1705.96
736.27	1732.58
736.45	1701.86
736.63	1568.74
736.81	1712.10
736.99	1800.16
737.17	1736.68
737.35	1679.33
737.53	1660.90
737.71	1705.96
737.89	1746.92
738.07	1628.14
738.25	1742.82
738.43	1544.17
738.61	1693.67
738.80	1650.66
738.98	1679.33
739.16	1640.42
739.34	1648.61
739.52	1787.88
739.70	1685.48
739.88	1761.25
740.06	1755.11
740.24	1578.98
740.42	1789.92
740.60	1523.69
740.78	1609.70
740.96	1652.71
741.14	1708.01
741.32	1759.21
741.50	1671.14
741.68	1845.22
741.86	1710.05
742.04	1708.01
742.22	1628.14
742.40	1665.00
742.58	1716.20
742.76	1769.44
742.94	1777.64
743.12	1589.22
743.30	1720.29
743.48	1665.00
743.66	1669.09
743.84	1722.34
744.02	1626.09
744.20	1716.20
744.38	1681.38
744.56	1601.51
744.74	1798.12
744.92	1734.63
745.10	1794.02
745.28	1779.68
745.46	1794.02
745.64	1742.82
745.82	1804.26
746.00	1677.29
746.18	1640.42
746.36	1640.42
746.54	1669.09
746.72	1751.01
746.90	1701.86
747.08	1738.73
747.26	1722.34
747.44	1816.55
747.62	1763.30
747.80	1734.63
747.98	1785.83
748.15	1673.19
748.33	1839.08
748.51	1746.92
748.69	1708.01
748.87	1615.85
749.05	1679.33
749.23	1632.23
749.41	1738.73
749.59	1714.15
749.77	1751.01
749.95	1665.00
750.13	1701.86
750.31	1761.25
750.49	1624.04
750.67	1757.16
750.85	1791.97
751.03	1665.00
751.20	1814.50
751.38	1701.86
751.56	1705.96
751.74	1679.33
751.92	1732.58
752.10	1599.46
752.28	1742.82
752.46	1650.66
752.64	1685.48
752.82	1685.48
753.00	1751.01
753.18	1671.14
753.35	1742.82
753.53	1691.62
753.71	1705.96
753.89	1669.09
754.07	1691.62
754.25	1779.68
754.43	1718.25
754.61	1675.24
754.79	1667.05
754.97	1654.76
755.14	1710.05
755.32	1646.57
755.50	1695.72
755.68	1728.49
755.86	1669.09
756.04	1644.52
756.22	1595.37
756.40	1710.05
756.57	1738.73
756.75	1724.39
756.93	1773.54
757.11	1802.21
757.29	1658.85
757.47	1609.70
757.65	1564.65
757.82	1574.89
758.00	1648.61
758.18	1650.66
758.36	1646.57
758.54	1794.02
758.72	1613.80
758.90	1802.21
759.07	1640.42
759.25	1656.81
759.43	1751.01
759.61	1636.33
759.79	2170.85
759.97	1783.78
760.15	1746.92
760.32	1726.44
760.50	1679.33
760.68	1783.78
760.86	1615.85
761.04	1781.73
761.22	1773.54
761.39	1728.49
761.57	1738.73
761.75	1699.81
761.93	1697.77
762.11	1720.29
762.28	1716.20
762.46	1673.19
762.64	1832.93
762.82	1572.84
763.00	1662.95
763.18	1785.83
763.35	1652.71
763.53	1753.06
763.71	1691.62
763.89	1773.54
764.07	1724.39
764.24	1757.16
764.42	1658.85
764.60	1697.77
764.78	1718.25
764.96	1736.68
765.13	1644.52
765.31	1701.86
765.49	1689.57
765.67	1658.85
765.84	1667.05
766.02	1736.68
766.20	1595.37
766.38	1697.77
766.56	1701.86
766.73	1703.91
766.91	1632.23
767.09	1611.75
767.27	1738.73
767.44	1669.09
767.62	1794.02
767.80	1785.83
767.98	1671.14
768.15	1726.44
768.33	1718.25
768.51	1755.11
768.69	1767.40
768.87	1705.96
769.04	1665.00
769.22	1800.16
769.40	1773.54
769.58	1789.92
769.75	1693.67
769.93	1822.69
770.11	1712.10
770.28	1644.52
770.46	1716.20
770.64	1681.38
770.82	1658.85
770.99	1638.38
771.17	1765.35
771.35	1646.57
771.53	1714.15
771.70	1656.81
771.88	1794.02
772.06	1697.77
772.23	1650.66
772.41	1732.58
772.59	1652.71
772.77	1712.10
772.94	1710.05
773.12	1753.06
773.30	1701.86
773.47	1740.77
773.65	1603.56
773.83	1832.93
774.01	1642.47
774.18	1705.96
774.36	1779.68
774.54	1638.38
774.71	1751.01
774.89	1617.90
775.07	1531.88
775.24	1677.29
775.42	1597.42
775.60	1781.73
775.78	1632.23
775.95	1648.61
776.13	1634.28
776.31	1599.46
776.48	1648.61
776.66	1705.96
776.84	1671.14
777.01	1576.94
777.19	1566.70
777.37	1634.28
777.54	1677.29
777.72	1789.92
777.90	1783.78
778.07	1642.47
778.25	1820.64
778.43	1830.88
778.60	1626.09
778.78	1728.49
778.96	1820.64
779.13	1640.42
779.31	1781.73
779.49	1691.62
779.66	1669.09
779.84	1730.53
780.01	1658.85
780.19	1697.77
780.37	1753.06
780.54	1714.15
780.72	1665.00
780.90	1689.57
781.07	1699.81
781.25	1701.86
781.43	1769.44
781.60	1705.96
781.78	1714.15
781.95	1726.44
782.13	1632.23
782.31	1654.76
782.48	1650.66
782.66	1718.25
782.83	1763.30
783.01	1726.44
783.19	1761.25
783.36	1638.38
783.54	1683.43
783.72	1697.77
783.89	1624.04
784.07	1712.10
784.24	1697.77
784.42	1830.88
784.60	1675.24
784.77	1753.06
784.95	1570.79
785.12	1691.62
785.30	1746.92
785.47	1673.19
785.65	1617.90
785.83	1685.48
786.00	1695.72
786.18	1748.97
786.35	1587.18
786.53	1708.01
786.71	1716.20
786.88	1791.97
787.06	1675.24
787.23	1724.39
787.41	1617.90
787.58	1757.16
787.76	1748.97
787.94	1763.30
788.11	1689.57
788.29	1677.29
788.46	1675.24
788.64	1624.04
788.81	1685.48
788.99	1650.66
789.16	1644.52
789.34	1726.44
789.52	1634.28
789.69	1693.67
789.87	1621.99
790.04	1697.77
790.22	1703.91
790.39	1728.49
790.57	1613.80
790.74	1708.01
790.92	1740.77
791.09	1652.71
791.27	1708.01
791.44	1822.69
791.62	1662.95
791.79	1796.07
791.97	1710.05
792.15	1828.84
792.32	1730.53
792.50	1773.54
792.67	1720.29
792.85	1812.45
793.02	1691.62
793.20	1646.57
793.37	1677.29
793.55	1763.30
793.72	1634.28
793.90	1771.49
794.07	1613.80
794.25	1697.77
794.42	1693.67
794.60	1693.67
794.77	1753.06
794.95	1714.15
795.12	1781.73
795.30	1583.08
795.47	1624.04
795.65	1904.61
795.82	1699.81
796.00	1638.38
796.17	1716.20
796.34	1697.77
796.52	1673.19
796.69	1738.73
796.87	1705.96
797.04	1730.53
797.22	1720.29
797.39	1738.73
797.57	1742.82
797.74	1699.81
797.92	1718.25
798.09	1619.94
798.27	1748.97
798.44	1679.33
798.62	1728.49
798.79	1695.72
798.96	1726.44
799.14	1685.48
799.31	1863.65
799.49	1628.14
799.66	1658.85
799.84	1718.25
800.01	1665.00
800.19	1761.25
800.36	1708.01
800.53	1687.53
800.71	1746.92
800.88	1765.35
801.06	1687.53
801.23	1687.53
801.41	1697.77
801.58	1681.38
801.75	1675.24
801.93	1654.76
802.10	1677.29
802.28	1722.34
802.45	1671.14
802.63	1738.73
802.80	1830.88
802.97	1650.66
803.15	1701.86
803.32	1712.10
803.50	1673.19
803.67	1691.62
803.84	1654.76
804.02	1619.94
804.19	1669.09
804.37	1560.55
804.54	1628.14
804.71	1681.38
804.89	1662.95
805.06	1689.57
805.24	1669.09
805.41	1669.09
805.58	1605.61
805.76	1843.17
805.93	1689.57
806.10	1742.82
806.28	1740.77
806.45	1615.85
806.63	1681.38
806.80	1839.08
806.97	1708.01
807.15	1748.97
807.32	1722.34
807.49	1751.01
807.67	1587.18
807.84	1703.91
808.01	1605.61
808.19	1722.34
808.36	1794.02
808.54	1660.90
808.71	1644.52
808.88	1767.40
809.06	1751.01
809.23	1806.31
809.40	1728.49
809.58	1781.73
809.75	1646.57
809.92	1693.67
810.10	1918.95
810.27	1755.11
810.44	1621.99
810.62	1708.01
810.79	1695.72
810.96	1673.19
811.14	1683.43
811.31	1740.77
811.48	1802.21
811.66	1724.39
811.83	1732.58
812.00	1681.38
812.18	1669.09
812.35	1869.80
812.52	1691.62
812.69	1656.81
812.87	1753.06
813.04	1660.90
813.21	1734.63
813.39	1640.42
813.56	1665.00
813.73	1806.31
813.91	1585.13
814.08	1685.48
814.25	1748.97
814.42	1624.04
814.60	1652.71
814.77	1705.96
814.94	1712.10
815.12	1701.86
815.29	1781.73
815.46	1726.44
815.63	1742.82
815.81	1761.25
815.98	1671.14
816.15	1673.19
816.33	1705.96
816.50	1806.31
816.67	1728.49
816.84	1679.33
817.02	1591.27
817.19	1755.11
817.36	1677.29
817.53	1705.96
817.71	1624.04
817.88	1671.14
818.05	1699.81
818.22	1673.19
818.40	1828.84
818.57	1703.91
818.74	1785.83
818.91	1650.66
819.09	1701.86
819.26	1800.16
819.43	1669.09
819.60	1675.24
819.78	1722.34
819.95	1726.44
820.12	1642.47
820.29	1777.64
820.47	1712.10
820.64	1689.57
820.81	1621.99
820.98	1636.33
821.15	1693.67
821.33	1732.58
821.50	1636.33
821.67	1724.39
821.84	1728.49
822.02	1763.30
822.19	1781.73
822.36	1607.66
822.53	1658.85
822.70	1648.61
822.88	1718.25
823.05	1779.68
823.22	1705.96
823.39	1779.68
823.56	1695.72
823.74	1837.03
823.91	1679.33
824.08	1617.90
824.25	1677.29
824.42	1816.55
824.60	1634.28
824.77	1722.34
824.94	1675.24
825.11	1677.29
825.28	1636.33
825.45	1771.49
825.63	1730.53
825.80	1691.62
825.97	1748.97
826.14	1757.16
826.31	1732.58
826.48	1714.15
826.66	1673.19
826.83	1703.91
827.00	1699.81
827.17	1624.04
827.34	1632.23
827.51	1611.75
827.69	1697.77
827.86	1632.23
828.03	1691.62
828.20	1714.15
828.37	1683.43
828.54	1730.53
828.71	1708.01
828.89	1863.65
829.06	1714.15
829.23	1820.64
829.40	1591.27
829.57	1701.86
829.74	1748.97
829.91	1673.19
830.09	1632.23
830.26	1730.53
830.43	1822.69
830.60	1775.59
830.77	1720.29
830.94	1781.73
831.11	1753.06
831.28	1722.34
831.46	1751.01
831.63	1691.62
831.80	1740.77
831.97	1669.09
832.14	1689.57
832.31	1746.92
832.48	1765.35
832.65	1767.40
832.82	1734.63
832.99	1679.33
833.17	1675.24
833.34	1736.68
833.51	1705.96
833.68	1619.94
833.85	1804.26
834.02	1615.85
834.19	1683.43
834.36	1683.43
834.53	1585.13
834.70	1834.98
834.87	1771.49
835.04	1697.77
835.22	1570.79
835.39	1648.61
835.56	1644.52
835.73	1621.99
835.90	1787.88
836.07	1613.80
836.24	1761.25
836.41	1648.61
836.58	1568.74
836.75	1779.68
836.92	1751.01
837.09	1662.95
837.26	1740.77
837.43	1710.05
837.60	1718.25
837.77	1695.72
837.94	1679.33
838.12	1824.74
838.29	1779.68
838.46	1671.14
838.63	1578.98
838.80	1718.25
838.97	1726.44
839.14	1691.62
839.31	1720.29
839.48	1771.49
839.65	1648.61
839.82	1757.16
839.99	1697.77
840.16	1703.91
840.33	1716.20
840.50	1710.05
840.67	1660.90
840.84	1613.80
841.01	1781.73
841.18	1632.23
841.35	1671.14
841.52	1718.25
841.69	1757.16
841.86	1714.15
842.03	1685.48
842.20	1691.62
842.37	1742.82
842.54	1673.19
842.71	1679.33
842.88	1593.32
843.05	1683.43
843.22	1685.48
843.39	1650.66
843.56	1705.96
843.73	1732.58
843.90	1820.64
844.07	1656.81
844.24	1722.34
844.41	1691.62
844.58	1724.39
844.75	1679.33
844.92	1693.67
845.09	1724.39
845.26	1624.04
845.43	1714.15
845.60	1703.91
845.77	1736.68
845.94	1693.67
846.10	1796.07
846.27	1621.99
846.44	1667.05
846.61	1613.80
846.78	1701.86
846.95	1736.68
847.12	1689.57
847.29	1718.25
847.46	1632.23
847.63	1787.88
847.80	1650.66
847.97	1693.67
848.14	1828.84
848.31	1685.48
848.48	1683.43
848.65	1675.24
848.82	1609.70
848.98	1710.05
849.15	1675.24
849.32	1804.26
849.49	1785.83
849.66	1648.61
849.83	1775.59
850.00	1605.61
850.17	1732.58
850.34	1673.19
850.51	1615.85
850.68	1701.86
850.85	1839.08
851.01	1673.19
851.18	1724.39
851.35	1693.67
851.52	1699.81
851.69	1771.49
851.86	1652.71
852.03	1611.75
852.20	1732.58
852.37	1679.33
852.53	1656.81
852.70	1656.81
852.87	1689.57
853.04	1691.62
853.21	1746.92
853.38	1710.05
853.55	1757.16
853.72	1767.40
853.89	1624.04
854.05	1703.91
854.22	1660.90
854.39	1697.77
854.56	1685.48
854.73	1728.49
854.90	1695.72
855.07	1675.24
855.23	1640.42
855.40	1677.29
855.57	1683.43
855.74	1626.09
855.91	1837.03
856.08	1648.61
856.25	1562.60
856.41	1593.32
856.58	1683.43
856.75	1697.77
856.92	1597.42
857.09	1779.68
857.26	1640.42
857.42	1683.43
857.59	1753.06
857.76	1683.43
857.93	1751.01
858.10	1740.77
858.27	1587.18
858.43	1669.09
858.60	1656.81
858.77	1634.28
858.94	1771.49
859.11	1785.83
859.27	1628.14
859.44	1665.00
859.61	1800.16
859.78	1697.77
859.95	1728.49
860.12	1673.19
860.28	1732.58
860.45	1818.60
860.62	1652.71
860.79	1699.81
860.95	1636.33
861.12	1671.14
861.29	1671.14
861.46	1624.04
861.63	1667.05
861.79	1740.77
861.96	1638.38
862.13	1648.61
862.30	1859.56
862.47	1695.72
862.63	1687.53
862.80	1814.50
862.97	1689.57
863.14	1697.77
863.30	1857.51
863.47	1667.05
863.64	1755.11
863.81	1759.21
863.97	1693.67
864.14	1669.09
864.31	1599.46
864.48	1732.58
864.65	1650.66
864.81	1757.16
864.98	1806.31
865.15	1763.30
865.32	1808.36
865.48	1714.15
865.65	1777.64
865.82	1728.49
865.98	1693.67
866.15	1751.01
866.32	1732.58
866.49	1652.71
866.65	1781.73
866.82	1679.33
866.99	1669.09
867.16	1695.72
867.32	1640.42
867.49	1642.47
867.66	1628.14
867.83	1587.18
867.99	1701.86
868.16	1667.05
868.33	1654.76
868.49	1740.77
868.66	1757.16
868.83	1699.81
868.99	1652.71
869.16	1714.15
869.33	1789.92
869.50	1746.92
869.66	1697.77
869.83	1681.38
870.00	1591.27
870.16	1660.90
870.33	1681.38
870.50	1751.01
870.66	1652.71
870.83	1814.50
871.00	1654.76
871.17	1691.62
871.33	1761.25
871.50	1665.00
871.67	1626.09
871.83	1628.14
872.00	1832.93
872.17	1658.85
872.33	1787.88
872.50	1718.25
872.67	1693.67
872.83	1744.87
873.00	1783.78
873.17	1681.38
873.33	1734.63
873.50	1804.26
873.67	1671.14
873.83	1667.05
874.00	1605.61
874.16	1687.53
874.33	1685.48
874.50	1654.76
874.66	1779.68
874.83	1673.19
875.00	1675.24
875.16	1736.68
875.33	1742.82
875.50	1615.85
875.66	1675.24
875.83	1710.05
875.99	1789.92
876.16	1683.43
876.33	1615.85
876.49	1740.77
876.66	1773.54
876.83	1626.09
876.99	1642.47
877.16	1732.58
877.32	1687.53
877.49	1634.28
877.66	1703.91
877.82	1771.49
877.99	1806.31
878.15	1748.97
878.32	1675.24
878.49	1847.27
878.65	1638.38
878.82	1765.35
878.98	1654.76
879.15	1761.25
879.32	1753.06
879.48	1730.53
879.65	1681.38
879.81	1701.86
879.98	1677.29
880.15	1699.81
880.31	1708.01
880.48	1658.85
880.64	1728.49
880.81	1753.06
880.97	1818.60
881.14	1730.53
881.31	1630.18
881.47	1816.55
881.64	1697.77
881.80	1611.75
881.97	1734.63
882.13	1656.81
882.30	1695.72
882.47	1665.00
882.63	1701.86
882.80	1671.14
882.96	1605.61
883.13	1816.55
883.29	1693.67
883.46	1783.78
883.62	1802.21
883.79	1726.44
883.95	1734.63
884.12	1640.42
884.29	1806.31
884.45	1665.00
884.62	1726.44
884.78	1648.61
884.95	1738.73
885.11	1609.70
885.28	1767.40
885.44	1710.05
885.61	1769.44
885.77	1710.05
885.94	1736.68
886.10	1630.18
886.27	1732.58
886.43	1685.48
886.60	1857.51
886.76	1654.76
886.93	1636.33
887.09	1748.97
887.26	1658.85
887.42	1665.00
887.59	1697.77
887.75	1845.22
887.92	1722.34
888.08	1834.98
888.25	1814.50
888.41	1697.77
888.58	1617.90
888.74	1656.81
888.91	1628.14
>>>>>End Processed Spectral Data<<<<<
