SpectraSuite Data File
++++++++++++++++++++++++++++++++++++
Date: Mon Jun 06 14:03:17 CEST 2016
User: root
Dark Spectrum Present: No
Reference Spectrum Present: No
Number of Sampled Component Spectra: 1
Spectrometers: USB4C02835
Integration Time (usec): 100000 (USB4C02835)
Spectra Averaged: 1 (USB4C02835)
Boxcar Smoothing: 0 (USB4C02835)
Correct for Electrical Dark: No (USB4C02835)
Strobe/Lamp Enabled: No (USB4C02835)
Correct for Detector Non-linearity: No (USB4C02835)
Correct for Stray Light: No (USB4C02835)
Number of Pixels in Processed Spectrum: 3648
>>>>>Begin Processed Spectral Data<<<<<
177.47	1488.87
177.69	1488.87
177.91	1488.87
178.13	1396.71
178.36	1417.19
178.58	1624.04
178.80	1689.57
179.02	1757.16
179.24	1589.22
179.46	1724.39
179.68	1755.11
179.90	1722.34
180.13	1697.77
180.35	1683.43
180.57	1724.39
180.79	1736.68
181.01	1650.66
181.23	1759.21
181.45	1775.59
181.67	1681.38
181.90	1726.44
182.12	1628.14
182.34	1581.03
182.56	1769.44
182.78	1771.49
183.00	1759.21
183.22	1662.95
183.44	1603.56
183.66	1859.56
183.89	1818.60
184.11	1640.42
184.33	1732.58
184.55	1820.64
184.77	1701.86
184.99	1740.77
185.21	1746.92
185.43	1820.64
185.65	1583.08
185.87	1718.25
186.10	1830.88
186.32	1826.79
186.54	1648.61
186.76	1701.86
186.98	1769.44
187.20	1714.15
187.42	1642.47
187.64	1671.14
187.86	1722.34
188.08	1755.11
188.30	1665.00
188.52	1726.44
188.75	1796.07
188.97	1761.25
189.19	1689.57
189.41	1677.29
189.63	1726.44
189.85	1673.19
190.07	1669.09
190.29	1654.76
190.51	1730.53
190.73	1624.04
190.95	1820.64
191.17	1755.11
191.39	1613.80
191.61	1685.48
191.84	1601.51
192.06	1757.16
192.28	1611.75
192.50	1830.88
192.72	1771.49
192.94	1640.42
193.16	1777.64
193.38	1652.71
193.60	1662.95
193.82	1611.75
194.04	1798.12
194.26	1665.00
194.48	1656.81
194.70	1626.09
194.92	1722.34
195.14	1761.25
195.36	1636.33
195.58	1642.47
195.80	1697.77
196.02	1642.47
196.24	1677.29
196.46	1683.43
196.69	1619.94
196.91	1783.78
197.13	1626.09
197.35	1640.42
197.57	1767.40
197.79	1705.96
198.01	1728.49
198.23	1701.86
198.45	1730.53
198.67	1652.71
198.89	1734.63
199.11	1652.71
199.33	1583.08
199.55	1615.85
199.77	1701.86
199.99	1669.09
200.21	1685.48
200.43	1708.01
200.65	1638.38
200.87	1632.23
201.09	1652.71
201.31	1648.61
201.53	1763.30
201.75	1708.01
201.97	1759.21
202.19	1730.53
202.41	1679.33
202.63	1781.73
202.85	1767.40
203.07	1765.35
203.29	1554.41
203.51	1581.03
203.73	1656.81
203.95	1902.56
204.17	1724.39
204.39	1769.44
204.61	1705.96
204.83	1712.10
205.05	1804.26
205.27	1781.73
205.49	1804.26
205.71	1632.23
205.93	1624.04
206.15	1634.28
206.37	1753.06
206.59	1712.10
206.81	1681.38
207.03	1642.47
207.25	1693.67
207.47	1742.82
207.69	1665.00
207.91	1736.68
208.13	1701.86
208.34	1722.34
208.56	1617.90
208.78	1771.49
209.00	1695.72
209.22	1615.85
209.44	1757.16
209.66	1681.38
209.88	1693.67
210.10	1738.73
210.32	1665.00
210.54	1820.64
210.76	1697.77
210.98	1703.91
211.20	1628.14
211.42	1644.52
211.64	1851.36
211.86	1761.25
212.08	1675.24
212.30	1789.92
212.52	1734.63
212.74	1742.82
212.96	1679.33
213.17	1619.94
213.39	1755.11
213.61	1748.97
213.83	1755.11
214.05	1669.09
214.27	1716.20
214.49	1673.19
214.71	1679.33
214.93	1834.98
215.15	1638.38
215.37	1751.01
215.59	1634.28
215.81	1716.20
216.03	1796.07
216.24	1738.73
216.46	1691.62
216.68	1685.48
216.90	1738.73
217.12	1759.21
217.34	1740.77
217.56	1742.82
217.78	1779.68
218.00	1654.76
218.22	1695.72
218.44	1789.92
218.66	1705.96
218.87	1757.16
219.09	1697.77
219.31	1685.48
219.53	1771.49
219.75	1634.28
219.97	1720.29
220.19	1718.25
220.41	1789.92
220.63	1722.34
220.85	1683.43
221.06	1718.25
221.28	1812.45
221.50	1744.87
221.72	1691.62
221.94	1759.21
222.16	1693.67
222.38	1722.34
222.60	1736.68
222.82	1685.48
223.03	1765.35
223.25	1669.09
223.47	1804.26
223.69	1720.29
223.91	1757.16
224.13	1757.16
224.35	1677.29
224.57	1734.63
224.78	1687.53
225.00	1697.77
225.22	1642.47
225.44	1691.62
225.66	1744.87
225.88	1671.14
226.10	1753.06
226.32	1740.77
226.53	1744.87
226.75	1656.81
226.97	1689.57
227.19	1722.34
227.41	1624.04
227.63	1646.57
227.85	1572.84
228.06	1701.86
228.28	1685.48
228.50	1732.58
228.72	1636.33
228.94	1724.39
229.16	1628.14
229.37	1619.94
229.59	1656.81
229.81	1832.93
230.03	1701.86
230.25	1691.62
230.47	1581.03
230.69	1626.09
230.90	1724.39
231.12	1642.47
231.34	1716.20
231.56	1783.78
231.78	1658.85
232.00	1710.05
232.21	1669.09
232.43	1642.47
232.65	1607.66
232.87	1677.29
233.09	1681.38
233.30	1691.62
233.52	1712.10
233.74	1757.16
233.96	1621.99
234.18	1693.67
234.40	1644.52
234.61	1898.47
234.83	1572.84
235.05	1708.01
235.27	1867.75
235.49	1771.49
235.70	1785.83
235.92	1746.92
236.14	1699.81
236.36	1898.47
236.58	1658.85
236.79	1732.58
237.01	1626.09
237.23	1669.09
237.45	1802.21
237.67	1652.71
237.88	1705.96
238.10	1814.50
238.32	1634.28
238.54	1671.14
238.76	1718.25
238.97	1683.43
239.19	1730.53
239.41	1685.48
239.63	1716.20
239.85	1781.73
240.06	1699.81
240.28	1712.10
240.50	1828.84
240.72	1626.09
240.93	1714.15
241.15	1732.58
241.37	1662.95
241.59	1783.78
241.81	1759.21
242.02	1705.96
242.24	1683.43
242.46	1757.16
242.68	1595.37
242.89	1734.63
243.11	1712.10
243.33	1773.54
243.55	1771.49
243.76	1738.73
243.98	1679.33
244.20	1722.34
244.42	1767.40
244.64	1638.38
244.85	1665.00
245.07	1658.85
245.29	1705.96
245.51	1740.77
245.72	1693.67
245.94	1777.64
246.16	1732.58
246.38	1738.73
246.59	1656.81
246.81	1681.38
247.03	1779.68
247.24	1642.47
247.46	1673.19
247.68	1705.96
247.90	1775.59
248.11	1660.90
248.33	1703.91
248.55	1708.01
248.77	1652.71
248.98	1714.15
249.20	1828.84
249.42	1779.68
249.64	1763.30
249.85	1650.66
250.07	1656.81
250.29	1787.88
250.50	1751.01
250.72	1646.57
250.94	1744.87
251.16	1781.73
251.37	1767.40
251.59	1708.01
251.81	1701.86
252.02	1783.78
252.24	1638.38
252.46	1796.07
252.68	1679.33
252.89	1607.66
253.11	1589.22
253.33	1765.35
253.54	1855.46
253.76	1601.51
253.98	1640.42
254.20	1769.44
254.41	1695.72
254.63	1697.77
254.85	1611.75
255.06	1689.57
255.28	1683.43
255.50	1644.52
255.71	1662.95
255.93	1603.56
256.15	1681.38
256.36	1712.10
256.58	1710.05
256.80	1699.81
257.02	1619.94
257.23	1648.61
257.45	1744.87
257.67	1802.21
257.88	1599.46
258.10	1701.86
258.32	1673.19
258.53	1648.61
258.75	1665.00
258.97	1673.19
259.18	1708.01
259.40	1738.73
259.62	1789.92
259.83	1830.88
260.05	1693.67
260.27	2025.44
260.48	1689.57
260.70	1656.81
260.92	1732.58
261.13	1667.05
261.35	1757.16
261.57	1705.96
261.78	1607.66
262.00	1742.82
262.22	1699.81
262.43	1673.19
262.65	1671.14
262.86	1673.19
263.08	1861.60
263.30	1712.10
263.51	1593.32
263.73	1677.29
263.95	1697.77
264.16	1568.74
264.38	1585.13
264.60	1771.49
264.81	1628.14
265.03	1734.63
265.25	1759.21
265.46	1746.92
265.68	1810.40
265.89	1738.73
266.11	1593.32
266.33	1738.73
266.54	1779.68
266.76	1755.11
266.98	1701.86
267.19	1810.40
267.41	1675.24
267.62	1763.30
267.84	1732.58
268.06	1675.24
268.27	1732.58
268.49	1773.54
268.70	1724.39
268.92	1603.56
269.14	1599.46
269.35	1583.08
269.57	1710.05
269.79	1781.73
270.00	1687.53
270.22	1794.02
270.43	1617.90
270.65	1574.89
270.87	1699.81
271.08	1673.19
271.30	1744.87
271.51	1681.38
271.73	1712.10
271.95	1699.81
272.16	1705.96
272.38	1820.64
272.59	1658.85
272.81	1681.38
273.02	1669.09
273.24	1701.86
273.46	1773.54
273.67	1656.81
273.89	1654.76
274.10	1742.82
274.32	1738.73
274.54	1699.81
274.75	1644.52
274.97	1740.77
275.18	1816.55
275.40	1705.96
275.61	1705.96
275.83	1806.31
276.05	1619.94
276.26	1736.68
276.48	1742.82
276.69	1636.33
276.91	1617.90
277.12	1767.40
277.34	1746.92
277.55	1718.25
277.77	1714.15
277.99	1689.57
278.20	1675.24
278.42	1681.38
278.63	1642.47
278.85	1656.81
279.06	1611.75
279.28	1652.71
279.49	1783.78
279.71	1712.10
279.93	1675.24
280.14	1742.82
280.36	1609.70
280.57	1796.07
280.79	1775.59
281.00	1691.62
281.22	1710.05
281.43	1722.34
281.65	1603.56
281.86	1617.90
282.08	1726.44
282.29	1777.64
282.51	1595.37
282.73	1660.90
282.94	1611.75
283.16	1744.87
283.37	1814.50
283.59	1656.81
283.80	1746.92
284.02	1705.96
284.23	1636.33
284.45	1605.61
284.66	1673.19
284.88	1564.65
285.09	1714.15
285.31	1703.91
285.52	1751.01
285.74	1673.19
285.95	1730.53
286.17	1708.01
286.38	1738.73
286.60	1675.24
286.81	1691.62
287.03	1699.81
287.24	1656.81
287.46	1705.96
287.67	1648.61
287.89	1748.97
288.10	1722.34
288.32	1728.49
288.53	1763.30
288.75	1578.98
288.96	1759.21
289.18	1808.36
289.39	1654.76
289.61	1773.54
289.82	1812.45
290.04	1820.64
290.25	1689.57
290.47	1742.82
290.68	1687.53
290.90	1787.88
291.11	1499.11
291.33	1646.57
291.54	1648.61
291.76	1675.24
291.97	1773.54
292.18	1736.68
292.40	1669.09
292.61	1703.91
292.83	1783.78
293.04	1708.01
293.26	1681.38
293.47	1673.19
293.69	1595.37
293.90	1665.00
294.12	1765.35
294.33	1669.09
294.55	1683.43
294.76	1746.92
294.97	1718.25
295.19	1861.60
295.40	1671.14
295.62	1714.15
295.83	1605.61
296.05	1595.37
296.26	1757.16
296.48	1613.80
296.69	1679.33
296.90	1765.35
297.12	1730.53
297.33	1767.40
297.55	1693.67
297.76	1607.66
297.98	1708.01
298.19	1667.05
298.41	1677.29
298.62	1656.81
298.83	1771.49
299.05	1734.63
299.26	1693.67
299.48	1730.53
299.69	1699.81
299.90	1687.53
300.12	1652.71
300.33	1697.77
300.55	1783.78
300.76	1699.81
300.98	1615.85
301.19	1773.54
301.40	1660.90
301.62	1642.47
301.83	1718.25
302.05	1693.67
302.26	1669.09
302.47	1759.21
302.69	1691.62
302.90	1683.43
303.12	1660.90
303.33	1732.58
303.54	1763.30
303.76	1693.67
303.97	1662.95
304.19	1734.63
304.40	1611.75
304.61	1669.09
304.83	1804.26
305.04	1789.92
305.26	1732.58
305.47	1691.62
305.68	1701.86
305.90	1642.47
306.11	1746.92
306.33	1689.57
306.54	1689.57
306.75	1701.86
306.97	1671.14
307.18	1654.76
307.39	1732.58
307.61	1736.68
307.82	1687.53
308.04	1697.77
308.25	1705.96
308.46	1718.25
308.68	1759.21
308.89	1710.05
309.10	1746.92
309.32	1720.29
309.53	1669.09
309.74	1697.77
309.96	1626.09
310.17	1630.18
310.39	1644.52
310.60	1732.58
310.81	1632.23
311.03	1591.27
311.24	1763.30
311.45	1724.39
311.67	1837.03
311.88	1683.43
312.09	1685.48
312.31	1685.48
312.52	1742.82
312.73	1736.68
312.95	1656.81
313.16	1691.62
313.37	1812.45
313.59	1757.16
313.80	1716.20
314.01	1806.31
314.23	1662.95
314.44	1667.05
314.65	1621.99
314.87	1646.57
315.08	1728.49
315.29	1658.85
315.51	1658.85
315.72	1578.98
315.93	1818.60
316.15	1753.06
316.36	1613.80
316.57	1781.73
316.79	1744.87
317.00	1628.14
317.21	1705.96
317.43	1705.96
317.64	1693.67
317.85	1632.23
318.07	1710.05
318.28	1722.34
318.49	1798.12
318.70	1914.85
318.92	1863.65
319.13	1816.55
319.34	1839.08
319.56	1665.00
319.77	1810.40
319.98	1832.93
320.20	1822.69
320.41	1730.53
320.62	1779.68
320.83	1611.75
321.05	1783.78
321.26	1722.34
321.47	1669.09
321.69	1814.50
321.90	1548.26
322.11	1644.52
322.32	1740.77
322.54	1802.21
322.75	1714.15
322.96	1796.07
323.18	1654.76
323.39	1624.04
323.60	1578.98
323.81	1697.77
324.03	1681.38
324.24	1644.52
324.45	1757.16
324.66	1712.10
324.88	1857.51
325.09	1718.25
325.30	1714.15
325.52	1703.91
325.73	1669.09
325.94	1654.76
326.15	1574.89
326.37	1699.81
326.58	1746.92
326.79	1806.31
327.00	1624.04
327.22	1695.72
327.43	1669.09
327.64	1673.19
327.85	1791.97
328.07	1732.58
328.28	1785.83
328.49	1701.86
328.70	1699.81
328.92	1697.77
329.13	1769.44
329.34	1699.81
329.55	1837.03
329.76	1748.97
329.98	1681.38
330.19	1822.69
330.40	1613.80
330.61	1691.62
330.83	1722.34
331.04	1607.66
331.25	1683.43
331.46	1732.58
331.68	1660.90
331.89	1759.21
332.10	1722.34
332.31	1628.14
332.52	1687.53
332.74	1730.53
332.95	1650.66
333.16	1677.29
333.37	1736.68
333.58	1685.48
333.80	1695.72
334.01	1656.81
334.22	1689.57
334.43	1699.81
334.64	1693.67
334.86	1626.09
335.07	1615.85
335.28	1810.40
335.49	1640.42
335.70	1691.62
335.92	1804.26
336.13	1830.88
336.34	1724.39
336.55	1738.73
336.76	1787.88
336.98	1583.08
337.19	1665.00
337.40	1759.21
337.61	1822.69
337.82	1599.46
338.04	1738.73
338.25	1613.80
338.46	1697.77
338.67	1634.28
338.88	1591.27
339.09	1673.19
339.31	1671.14
339.52	1607.66
339.73	1646.57
339.94	1705.96
340.15	1740.77
340.36	1689.57
340.58	1701.86
340.79	1632.23
341.00	1728.49
341.21	1662.95
341.42	1759.21
341.63	1714.15
341.85	1716.20
342.06	1634.28
342.27	1646.57
342.48	1740.77
342.69	1630.18
342.90	1751.01
343.12	1736.68
343.33	1660.90
343.54	1755.11
343.75	1783.78
343.96	1691.62
344.17	1669.09
344.38	1662.95
344.60	1679.33
344.81	1677.29
345.02	1740.77
345.23	1710.05
345.44	1839.08
345.65	1757.16
345.86	1718.25
346.07	1658.85
346.29	1638.38
346.50	1689.57
346.71	1718.25
346.92	1667.05
347.13	1853.41
347.34	1671.14
347.55	1730.53
347.76	1712.10
347.98	1640.42
348.19	1716.20
348.40	1765.35
348.61	1701.86
348.82	1837.03
349.03	1730.53
349.24	1646.57
349.45	1763.30
349.66	1550.31
349.88	1681.38
350.09	1650.66
350.30	1734.63
350.51	1765.35
350.72	1703.91
350.93	1667.05
351.14	1595.37
351.35	1744.87
351.56	1658.85
351.77	1660.90
351.99	1759.21
352.20	1705.96
352.41	1742.82
352.62	1662.95
352.83	1642.47
353.04	1755.11
353.25	1642.47
353.46	1783.78
353.67	1728.49
353.88	1667.05
354.09	1718.25
354.30	1712.10
354.52	1767.40
354.73	1726.44
354.94	1673.19
355.15	1656.81
355.36	1765.35
355.57	1615.85
355.78	1710.05
355.99	1738.73
356.20	1677.29
356.41	1771.49
356.62	1722.34
356.83	1652.71
357.04	1771.49
357.25	1656.81
357.46	1800.16
357.68	1681.38
357.89	1667.05
358.10	1730.53
358.31	1656.81
358.52	1712.10
358.73	1599.46
358.94	1656.81
359.15	1656.81
359.36	1730.53
359.57	1689.57
359.78	1677.29
359.99	1722.34
360.20	1650.66
360.41	1609.70
360.62	1730.53
360.83	1683.43
361.04	1802.21
361.25	1662.95
361.46	1812.45
361.67	1751.01
361.88	1767.40
362.09	1748.97
362.30	1701.86
362.51	1632.23
362.72	1683.43
362.93	1714.15
363.14	1748.97
363.35	1660.90
363.56	1662.95
363.78	1763.30
363.99	1751.01
364.20	1675.24
364.41	1665.00
364.62	1820.64
364.83	1716.20
365.04	1740.77
365.25	1675.24
365.46	1763.30
365.67	1667.05
365.88	1634.28
366.09	1710.05
366.30	1703.91
366.51	1722.34
366.72	1636.33
366.93	1605.61
367.14	1826.79
367.35	1771.49
367.56	1695.72
367.77	1806.31
367.98	1681.38
368.18	1726.44
368.39	1656.81
368.60	1576.94
368.81	1755.11
369.02	1652.71
369.23	1652.71
369.44	1650.66
369.65	1693.67
369.86	1710.05
370.07	1718.25
370.28	1652.71
370.49	1726.44
370.70	1789.92
370.91	1589.22
371.12	1699.81
371.33	1746.92
371.54	1732.58
371.75	1843.17
371.96	1509.35
372.17	1681.38
372.38	1730.53
372.59	1695.72
372.80	1673.19
373.01	1794.02
373.22	1689.57
373.43	1697.77
373.64	1724.39
373.85	1843.17
374.06	1787.88
374.26	1746.92
374.47	1763.30
374.68	1791.97
374.89	1724.39
375.10	1699.81
375.31	1744.87
375.52	1624.04
375.73	1742.82
375.94	1660.90
376.15	1775.59
376.36	1683.43
376.57	1685.48
376.78	1667.05
376.99	1765.35
377.20	1708.01
377.40	1712.10
377.61	1810.40
377.82	1689.57
378.03	1779.68
378.24	1728.49
378.45	1695.72
378.66	1724.39
378.87	1621.99
379.08	1689.57
379.29	1689.57
379.50	1712.10
379.71	1687.53
379.91	1775.59
380.12	1665.00
380.33	1724.39
380.54	1708.01
380.75	1673.19
380.96	1593.32
381.17	1730.53
381.38	1773.54
381.59	1689.57
381.80	1810.40
382.00	1849.32
382.21	1730.53
382.42	1787.88
382.63	1877.99
382.84	1763.30
383.05	1826.79
383.26	1832.93
383.47	1708.01
383.68	1689.57
383.88	1783.78
384.09	1695.72
384.30	1828.84
384.51	1763.30
384.72	1671.14
384.93	1738.73
385.14	1693.67
385.35	1742.82
385.55	1648.61
385.76	1734.63
385.97	1691.62
386.18	1619.94
386.39	1660.90
386.60	1748.97
386.81	1593.32
387.02	1677.29
387.22	1644.52
387.43	1789.92
387.64	1728.49
387.85	1812.45
388.06	2195.42
388.27	4366.27
388.48	6942.61
388.68	8542.08
388.89	9623.41
389.10	9920.36
389.31	8732.54
389.52	7886.73
389.73	6819.74
389.93	6295.46
390.14	5883.81
390.35	5343.15
390.56	4657.08
390.77	3839.94
390.98	3110.86
391.18	2480.09
391.39	2205.66
391.60	1839.08
391.81	1783.78
392.02	1751.01
392.23	1863.65
392.43	1734.63
392.64	1808.36
392.85	1734.63
393.06	1734.63
393.27	1742.82
393.47	1705.96
393.68	1718.25
393.89	1667.05
394.10	1798.12
394.31	1619.94
394.52	1642.47
394.72	1662.95
394.93	1755.11
395.14	1693.67
395.35	1755.11
395.56	1667.05
395.76	1677.29
395.97	1757.16
396.18	1877.99
396.39	1785.83
396.60	1978.34
396.80	1976.29
397.01	1900.52
397.22	1830.88
397.43	1871.84
397.64	1755.11
397.84	1798.12
398.05	1832.93
398.26	1763.30
398.47	1757.16
398.67	1808.36
398.88	1742.82
399.09	1755.11
399.30	1742.82
399.51	1697.77
399.71	1609.70
399.92	1648.61
400.13	1785.83
400.34	1746.92
400.54	1665.00
400.75	1847.27
400.96	1742.82
401.17	1808.36
401.37	1708.01
401.58	1695.72
401.79	1748.97
402.00	1834.98
402.21	1974.24
402.41	1943.52
402.62	1966.05
402.83	1986.53
403.04	1978.34
403.24	1984.48
403.45	1781.73
403.66	1923.04
403.87	1814.50
404.07	1826.79
404.28	1894.37
404.49	1791.97
404.70	1751.01
404.90	1798.12
405.11	1744.87
405.32	1703.91
405.52	1611.75
405.73	1677.29
405.94	1601.51
406.15	1640.42
406.35	1820.64
406.56	1724.39
406.77	1697.77
406.98	1705.96
407.18	1636.33
407.39	1822.69
407.60	1738.73
407.80	1724.39
408.01	1636.33
408.22	1722.34
408.43	1656.81
408.63	1773.54
408.84	1751.01
409.05	1757.16
409.25	1667.05
409.46	1658.85
409.67	1640.42
409.88	1615.85
410.08	1703.91
410.29	1638.38
410.50	1732.58
410.70	1744.87
410.91	1685.48
411.12	1697.77
411.32	1595.37
411.53	1642.47
411.74	1773.54
411.95	1826.79
412.15	1675.24
412.36	1804.26
412.57	1722.34
412.77	1826.79
412.98	1683.43
413.19	1689.57
413.39	1652.71
413.60	1714.15
413.81	1808.36
414.01	1662.95
414.22	1708.01
414.43	1748.97
414.63	1677.29
414.84	1783.78
415.05	1703.91
415.25	1644.52
415.46	1746.92
415.67	1654.76
415.87	1716.20
416.08	1691.62
416.29	1646.57
416.49	1728.49
416.70	1677.29
416.91	1724.39
417.11	1728.49
417.32	1734.63
417.53	1828.84
417.73	1730.53
417.94	1669.09
418.15	1726.44
418.35	1720.29
418.56	1701.86
418.77	1820.64
418.97	1701.86
419.18	1646.57
419.38	1583.08
419.59	1697.77
419.80	1728.49
420.00	1650.66
420.21	1748.97
420.42	1726.44
420.62	1648.61
420.83	1683.43
421.04	1697.77
421.24	1626.09
421.45	1765.35
421.65	1746.92
421.86	1691.62
422.07	1708.01
422.27	1804.26
422.48	1746.92
422.69	1658.85
422.89	1726.44
423.10	1675.24
423.30	1554.41
423.51	1726.44
423.72	1734.63
423.92	1728.49
424.13	1605.61
424.33	1677.29
424.54	1781.73
424.75	1689.57
424.95	1806.31
425.16	1689.57
425.36	1734.63
425.57	1724.39
425.78	1763.30
425.98	1740.77
426.19	1712.10
426.39	1656.81
426.60	1730.53
426.81	1759.21
427.01	1755.11
427.22	1648.61
427.42	1703.91
427.63	1636.33
427.83	1751.01
428.04	1810.40
428.25	1775.59
428.45	1783.78
428.66	1767.40
428.86	1619.94
429.07	1681.38
429.28	1689.57
429.48	1691.62
429.69	1679.33
429.89	1730.53
430.10	1630.18
430.30	1740.77
430.51	1777.64
430.71	1730.53
430.92	1755.11
431.13	1626.09
431.33	1775.59
431.54	1753.06
431.74	1789.92
431.95	1900.52
432.15	1658.85
432.36	1705.96
432.56	1726.44
432.77	1808.36
432.98	1855.46
433.18	1763.30
433.39	1746.92
433.59	1673.19
433.80	1759.21
434.00	1859.56
434.21	1662.95
434.41	1644.52
434.62	1865.70
434.82	1712.10
435.03	1669.09
435.23	1763.30
435.44	1615.85
435.64	1710.05
435.85	1806.31
436.06	1691.62
436.26	1763.30
436.47	1703.91
436.67	1660.90
436.88	1695.72
437.08	1765.35
437.29	1812.45
437.49	1689.57
437.70	1822.69
437.90	1662.95
438.11	1816.55
438.31	1699.81
438.52	1822.69
438.72	1812.45
438.93	1869.80
439.13	1806.31
439.34	1832.93
439.54	1746.92
439.75	1834.98
439.95	1777.64
440.16	1712.10
440.36	1812.45
440.57	1779.68
440.77	1759.21
440.98	1720.29
441.18	1730.53
441.39	1662.95
441.59	1619.94
441.80	1855.46
442.00	1773.54
442.21	1716.20
442.41	1638.38
442.62	1730.53
442.82	1626.09
443.02	1705.96
443.23	1757.16
443.43	1718.25
443.64	1761.25
443.84	1662.95
444.05	1841.12
444.25	1783.78
444.46	1708.01
444.66	1757.16
444.87	1882.08
445.07	1656.81
445.28	1730.53
445.48	1808.36
445.69	1773.54
445.89	1843.17
446.09	1681.38
446.30	2062.30
446.50	2701.27
446.71	3839.94
446.91	4415.42
447.12	4870.07
447.32	4995.00
447.53	4440.00
447.73	3870.66
447.93	3573.71
448.14	3323.85
448.34	3313.61
448.55	2895.83
448.75	2992.08
448.96	2764.76
449.16	2510.81
449.36	2295.77
449.57	2011.11
449.77	1890.28
449.98	1761.25
450.18	1751.01
450.39	1798.12
450.59	1781.73
450.79	1695.72
451.00	1720.29
451.20	1701.86
451.41	1718.25
451.61	1712.10
451.81	1683.43
452.02	1712.10
452.22	1671.14
452.43	1701.86
452.63	1697.77
452.84	1822.69
453.04	1675.24
453.24	1736.68
453.45	1689.57
453.65	1730.53
453.86	1763.30
454.06	1720.29
454.26	1738.73
454.47	1681.38
454.67	1767.40
454.87	1755.11
455.08	1769.44
455.28	1773.54
455.49	1798.12
455.69	1753.06
455.89	1791.97
456.10	1703.91
456.30	1781.73
456.51	1697.77
456.71	1753.06
456.91	1865.70
457.12	1781.73
457.32	1769.44
457.52	1601.51
457.73	1802.21
457.93	1841.12
458.14	1748.97
458.34	1640.42
458.54	1724.39
458.75	1665.00
458.95	1802.21
459.15	1751.01
459.36	1742.82
459.56	1656.81
459.76	1808.36
459.97	1656.81
460.17	1779.68
460.37	1767.40
460.58	1736.68
460.78	1791.97
460.99	1779.68
461.19	1683.43
461.39	1718.25
461.60	1697.77
461.80	1738.73
462.00	1591.27
462.21	1648.61
462.41	1665.00
462.61	1617.90
462.82	1646.57
463.02	1763.30
463.22	1726.44
463.43	1763.30
463.63	1765.35
463.83	1753.06
464.04	1738.73
464.24	1708.01
464.44	1734.63
464.64	1751.01
464.85	1771.49
465.05	1791.97
465.25	1755.11
465.46	1652.71
465.66	1808.36
465.86	1804.26
466.07	1742.82
466.27	1671.14
466.47	1621.99
466.68	1660.90
466.88	1757.16
467.08	1720.29
467.29	1703.91
467.49	1710.05
467.69	1728.49
467.89	1722.34
468.10	1665.00
468.30	1769.44
468.50	1771.49
468.71	1804.26
468.91	1589.22
469.11	1779.68
469.31	1746.92
469.52	1759.21
469.72	1820.64
469.92	1798.12
470.13	1675.24
470.33	1751.01
470.53	1820.64
470.73	2054.11
470.94	2287.58
471.14	2338.78
471.34	2531.29
471.54	2373.60
471.75	2234.33
471.95	2172.89
472.15	2107.36
472.36	2113.50
472.56	2066.40
472.76	2025.44
472.96	2017.25
473.17	1968.10
473.37	1861.60
473.57	1847.27
473.77	1837.03
473.98	1810.40
474.18	1771.49
474.38	1904.61
474.58	1722.34
474.79	1769.44
474.99	1773.54
475.19	1787.88
475.39	1632.23
475.60	1753.06
475.80	1783.78
476.00	1728.49
476.20	1738.73
476.41	1718.25
476.61	1857.51
476.81	1808.36
477.01	1791.97
477.21	1857.51
477.42	1867.75
477.62	1658.85
477.82	1789.92
478.02	1626.09
478.23	1761.25
478.43	1644.52
478.63	1767.40
478.83	1691.62
479.03	1681.38
479.24	1716.20
479.44	1763.30
479.64	1695.72
479.84	1556.46
480.04	1677.29
480.25	1767.40
480.45	1665.00
480.65	1705.96
480.85	1763.30
481.06	1695.72
481.26	1691.62
481.46	1751.01
481.66	1699.81
481.86	1701.86
482.06	1789.92
482.27	1718.25
482.47	1652.71
482.67	1730.53
482.87	1826.79
483.07	1755.11
483.28	1673.19
483.48	1673.19
483.68	1665.00
483.88	1654.76
484.08	1687.53
484.29	1667.05
484.49	1638.38
484.69	1691.62
484.89	1767.40
485.09	1771.49
485.29	1773.54
485.50	1765.35
485.70	1740.77
485.90	1765.35
486.10	1716.20
486.30	1771.49
486.50	1830.88
486.71	1783.78
486.91	1798.12
487.11	1779.68
487.31	1660.90
487.51	1646.57
487.71	1722.34
487.91	1601.51
488.12	1703.91
488.32	1607.66
488.52	1705.96
488.72	1617.90
488.92	1722.34
489.12	1734.63
489.32	1828.84
489.53	1794.02
489.73	1683.43
489.93	1722.34
490.13	1734.63
490.33	1638.38
490.53	1695.72
490.73	1740.77
490.94	1693.67
491.14	1757.16
491.34	1820.64
491.54	2133.98
491.74	2531.29
491.94	2783.19
492.14	3049.43
492.34	3117.01
492.54	2770.90
492.75	2471.90
492.95	2371.55
493.15	2349.02
493.35	2293.72
493.55	2187.23
493.75	2215.90
493.95	2113.50
494.15	2062.30
494.35	1927.14
494.56	1826.79
494.76	1763.30
494.96	1804.26
495.16	1789.92
495.36	1656.81
495.56	1683.43
495.76	1697.77
495.96	1675.24
496.16	1705.96
496.36	1853.41
496.56	1785.83
496.77	1765.35
496.97	1710.05
497.17	1845.22
497.37	1679.33
497.57	1761.25
497.77	1740.77
497.97	1636.33
498.17	1722.34
498.37	1726.44
498.57	1728.49
498.77	1732.58
498.97	1798.12
499.17	1769.44
499.38	1740.77
499.58	1746.92
499.78	1785.83
499.98	1828.84
500.18	1726.44
500.38	1693.67
500.58	1902.56
500.78	2602.97
500.98	4589.50
501.18	5783.46
501.38	6889.37
501.58	7266.19
501.78	6793.11
501.98	5502.89
502.18	4978.61
502.38	4392.89
502.58	4147.14
502.78	3788.74
502.98	3684.30
503.18	3504.07
503.38	3186.64
503.59	2951.12
503.79	2590.68
503.99	2531.29
504.19	2369.50
504.39	2181.09
504.59	2230.24
504.79	2076.64
504.99	2080.74
505.19	1943.52
505.39	1908.71
505.59	1888.23
505.79	1923.04
505.99	1857.51
506.19	1812.45
506.39	1890.28
506.59	1761.25
506.79	1716.20
506.99	1822.69
507.19	1705.96
507.39	1722.34
507.59	1718.25
507.79	1708.01
507.99	1726.44
508.19	1724.39
508.39	1652.71
508.59	1720.29
508.79	1755.11
508.99	1763.30
509.19	1658.85
509.39	1740.77
509.59	1652.71
509.79	1673.19
509.99	1667.05
510.19	1880.04
510.39	1826.79
510.59	1800.16
510.79	1650.66
510.99	1626.09
511.19	1708.01
511.39	1773.54
511.59	1705.96
511.79	1759.21
511.99	1769.44
512.19	1779.68
512.38	1765.35
512.58	1656.81
512.78	1701.86
512.98	1871.84
513.18	1740.77
513.38	1636.33
513.58	1740.77
513.78	1701.86
513.98	1665.00
514.18	1777.64
514.38	1748.97
514.58	1748.97
514.78	1679.33
514.98	1720.29
515.18	1757.16
515.38	1665.00
515.58	1816.55
515.78	1636.33
515.98	1673.19
516.18	1679.33
516.38	1789.92
516.57	1705.96
516.77	1673.19
516.97	1714.15
517.17	1601.51
517.37	1640.42
517.57	1849.32
517.77	1726.44
517.97	1708.01
518.17	1826.79
518.37	1640.42
518.57	1695.72
518.77	1742.82
518.97	1640.42
519.16	1716.20
519.36	1746.92
519.56	1714.15
519.76	1759.21
519.96	1736.68
520.16	1849.32
520.36	1693.67
520.56	1830.88
520.76	1613.80
520.96	1726.44
521.16	1759.21
521.35	1892.32
521.55	1822.69
521.75	1763.30
521.95	1646.57
522.15	1818.60
522.35	1621.99
522.55	1767.40
522.75	1769.44
522.95	1695.72
523.14	1773.54
523.34	1771.49
523.54	1738.73
523.74	1763.30
523.94	1689.57
524.14	1621.99
524.34	1712.10
524.54	1794.02
524.73	1779.68
524.93	1798.12
525.13	1787.88
525.33	1730.53
525.53	1900.52
525.73	1757.16
525.93	1681.38
526.13	1662.95
526.32	1720.29
526.52	1710.05
526.72	1718.25
526.92	1755.11
527.12	1632.23
527.32	1662.95
527.52	1722.34
527.71	1679.33
527.91	1689.57
528.11	1695.72
528.31	1669.09
528.51	1705.96
528.71	1769.44
528.90	1726.44
529.10	1718.25
529.30	1812.45
529.50	1599.46
529.70	1701.86
529.90	1705.96
530.09	1787.88
530.29	1652.71
530.49	1744.87
530.69	1896.42
530.89	1757.16
531.09	1763.30
531.28	1621.99
531.48	1769.44
531.68	1685.48
531.88	1736.68
532.08	1785.83
532.28	1712.10
532.47	1681.38
532.67	1845.22
532.87	1767.40
533.07	1708.01
533.27	1697.77
533.46	1837.03
533.66	1796.07
533.86	1734.63
534.06	1724.39
534.26	1730.53
534.45	1722.34
534.65	1783.78
534.85	1718.25
535.05	1660.90
535.25	1773.54
535.44	1630.18
535.64	1701.86
535.84	1681.38
536.04	1652.71
536.24	1667.05
536.43	1671.14
536.63	1763.30
536.83	1734.63
537.03	1771.49
537.22	1673.19
537.42	1644.52
537.62	1734.63
537.82	1656.81
538.02	1816.55
538.21	1837.03
538.41	1875.94
538.61	1822.69
538.81	1665.00
539.00	1748.97
539.20	1669.09
539.40	1757.16
539.60	1757.16
539.79	1773.54
539.99	1744.87
540.19	1671.14
540.39	1689.57
540.58	1763.30
540.78	1681.38
540.98	1699.81
541.18	1736.68
541.37	1726.44
541.57	1818.60
541.77	1738.73
541.97	1728.49
542.16	1660.90
542.36	1673.19
542.56	1695.72
542.76	1857.51
542.95	1769.44
543.15	1761.25
543.35	1798.12
543.54	1714.15
543.74	1714.15
543.94	1746.92
544.14	1667.05
544.33	1765.35
544.53	1697.77
544.73	1791.97
544.93	1705.96
545.12	1665.00
545.32	1787.88
545.52	1742.82
545.71	1619.94
545.91	1679.33
546.11	1767.40
546.30	1673.19
546.50	1679.33
546.70	1808.36
546.90	1738.73
547.09	1681.38
547.29	1716.20
547.49	1771.49
547.68	1771.49
547.88	1634.28
548.08	1730.53
548.27	2179.04
548.47	1724.39
548.67	1710.05
548.87	1742.82
549.06	1742.82
549.26	1748.97
549.46	1777.64
549.65	1665.00
549.85	1732.58
550.05	1753.06
550.24	1626.09
550.44	1728.49
550.64	1789.92
550.83	1763.30
551.03	1705.96
551.23	1841.12
551.42	1705.96
551.62	1787.88
551.82	1746.92
552.01	1736.68
552.21	1783.78
552.41	1703.91
552.60	1818.60
552.80	1718.25
553.00	1665.00
553.19	1718.25
553.39	1785.83
553.59	1697.77
553.78	1777.64
553.98	1683.43
554.17	1732.58
554.37	1716.20
554.57	1738.73
554.76	1738.73
554.96	1701.86
555.16	1873.89
555.35	1673.19
555.55	1703.91
555.75	1697.77
555.94	1779.68
556.14	1683.43
556.33	1798.12
556.53	1773.54
556.73	1746.92
556.92	1742.82
557.12	1834.98
557.32	1826.79
557.51	1779.68
557.71	1771.49
557.90	1738.73
558.10	1871.84
558.30	1644.52
558.49	1736.68
558.69	1697.77
558.88	1822.69
559.08	1738.73
559.28	1734.63
559.47	1701.86
559.67	1712.10
559.86	1822.69
560.06	1814.50
560.26	1740.77
560.45	1724.39
560.65	1726.44
560.84	1712.10
561.04	1648.61
561.24	1759.21
561.43	1720.29
561.63	1759.21
561.82	1837.03
562.02	1701.86
562.22	1734.63
562.41	1656.81
562.61	1761.25
562.80	1697.77
563.00	1853.41
563.19	1720.29
563.39	1779.68
563.59	1718.25
563.78	1646.57
563.98	1673.19
564.17	1699.81
564.37	1665.00
564.56	1703.91
564.76	1619.94
564.96	1824.74
565.15	1787.88
565.35	1865.70
565.54	1714.15
565.74	1779.68
565.93	1808.36
566.13	1732.58
566.32	1791.97
566.52	1826.79
566.71	1691.62
566.91	1830.88
567.11	1669.09
567.30	1730.53
567.50	1767.40
567.69	1724.39
567.89	1697.77
568.08	1673.19
568.28	1767.40
568.47	1736.68
568.67	1787.88
568.86	1730.53
569.06	1740.77
569.25	1757.16
569.45	1683.43
569.64	1810.40
569.84	1746.92
570.04	1830.88
570.23	1804.26
570.43	1687.53
570.62	1742.82
570.82	1751.01
571.01	1742.82
571.21	1730.53
571.40	1683.43
571.60	1804.26
571.79	1755.11
571.99	1726.44
572.18	1667.05
572.38	1857.51
572.57	1689.57
572.77	1816.55
572.96	1900.52
573.16	1718.25
573.35	1761.25
573.55	1839.08
573.74	1779.68
573.94	1701.86
574.13	1701.86
574.33	1804.26
574.52	1810.40
574.71	1697.77
574.91	1769.44
575.10	1681.38
575.30	1660.90
575.49	1701.86
575.69	1738.73
575.88	1783.78
576.08	1687.53
576.27	1828.84
576.47	1699.81
576.66	1888.23
576.86	1761.25
577.05	1708.01
577.25	1773.54
577.44	1796.07
577.64	1746.92
577.83	1806.31
578.02	1773.54
578.22	1791.97
578.41	1800.16
578.61	1720.29
578.80	1658.85
579.00	1726.44
579.19	1726.44
579.39	1824.74
579.58	1800.16
579.77	1781.73
579.97	1849.32
580.16	1812.45
580.36	1869.80
580.55	1832.93
580.75	1841.12
580.94	1791.97
581.13	1869.80
581.33	1789.92
581.52	1726.44
581.72	1873.89
581.91	1828.84
582.11	1730.53
582.30	1818.60
582.49	1753.06
582.69	1847.27
582.88	1871.84
583.08	1740.77
583.27	1804.26
583.47	1800.16
583.66	1740.77
583.85	1632.23
584.05	1781.73
584.24	1824.74
584.44	1708.01
584.63	1804.26
584.82	1796.07
585.02	1880.04
585.21	1820.64
585.41	1859.56
585.60	1810.40
585.79	1964.00
585.99	1853.41
586.18	1849.32
586.37	2148.32
586.57	3395.53
586.76	10102.63
586.96	25278.08
587.15	35317.22
587.34	41426.31
587.54	43519.34
587.73	37602.75
587.93	26959.46
588.12	22085.30
588.31	18603.75
588.51	16643.84
588.70	15453.97
588.89	14339.88
589.09	12894.01
589.28	11388.75
589.47	9635.69
589.67	8220.55
589.86	6530.97
590.06	5124.02
590.25	3934.15
590.44	3106.77
590.64	2611.16
590.83	2275.29
591.02	2080.74
591.22	1994.72
591.41	1890.28
591.60	1794.02
591.80	1968.10
591.99	1697.77
592.18	1785.83
592.38	1796.07
592.57	1714.15
592.76	1806.31
592.96	1767.40
593.15	1814.50
593.34	1710.05
593.54	1662.95
593.73	1716.20
593.92	1794.02
594.12	1789.92
594.31	1802.21
594.50	1798.12
594.70	1779.68
594.89	1978.34
595.08	1781.73
595.28	1767.40
595.47	1892.32
595.66	1781.73
595.86	1755.11
596.05	1730.53
596.24	1687.53
596.43	1806.31
596.63	1839.08
596.82	1712.10
597.01	1769.44
597.21	1822.69
597.40	1714.15
597.59	1751.01
597.79	1744.87
597.98	1769.44
598.17	1789.92
598.36	1765.35
598.56	1748.97
598.75	1658.85
598.94	1734.63
599.14	1728.49
599.33	1773.54
599.52	1773.54
599.71	1669.09
599.91	1855.46
600.10	1781.73
600.29	1769.44
600.48	1785.83
600.68	1703.91
600.87	1705.96
601.06	1595.37
601.26	1689.57
601.45	1746.92
601.64	1742.82
601.83	1859.56
602.03	1667.05
602.22	1726.44
602.41	1796.07
602.60	1832.93
602.80	1703.91
602.99	1669.09
603.18	1781.73
603.37	1810.40
603.57	1775.59
603.76	1812.45
603.95	1720.29
604.14	1705.96
604.34	1648.61
604.53	1718.25
604.72	1740.77
604.91	1794.02
605.10	1732.58
605.30	1632.23
605.49	1857.51
605.68	1822.69
605.87	1763.30
606.07	1656.81
606.26	1755.11
606.45	1787.88
606.64	1689.57
606.84	1716.20
607.03	1800.16
607.22	1730.53
607.41	1751.01
607.60	1712.10
607.80	1822.69
607.99	1726.44
608.18	1669.09
608.37	1701.86
608.56	1628.14
608.76	1798.12
608.95	1804.26
609.14	1724.39
609.33	1812.45
609.52	1744.87
609.72	1705.96
609.91	1818.60
610.10	1669.09
610.29	1841.12
610.48	1773.54
610.68	1681.38
610.87	1699.81
611.06	1689.57
611.25	1667.05
611.44	1730.53
611.63	1714.15
611.83	1818.60
612.02	1673.19
612.21	1720.29
612.40	1634.28
612.59	1701.86
612.79	1718.25
612.98	1785.83
613.17	1808.36
613.36	1718.25
613.55	1830.88
613.74	1640.42
613.93	1701.86
614.13	1728.49
614.32	1701.86
614.51	1783.78
614.70	1746.92
614.89	1671.14
615.08	1660.90
615.28	2066.40
615.47	1689.57
615.66	1685.48
615.85	1724.39
616.04	1777.64
616.23	1669.09
616.42	1699.81
616.62	1779.68
616.81	1693.67
617.00	1708.01
617.19	1748.97
617.38	1734.63
617.57	1722.34
617.76	1763.30
617.95	1773.54
618.15	1798.12
618.34	1818.60
618.53	1642.47
618.72	1771.49
618.91	1824.74
619.10	1822.69
619.29	1695.72
619.48	1796.07
619.68	1624.04
619.87	1740.77
620.06	1611.75
620.25	1763.30
620.44	1665.00
620.63	1677.29
620.82	1705.96
621.01	1724.39
621.20	1693.67
621.39	1736.68
621.59	1755.11
621.78	1732.58
621.97	1685.48
622.16	1773.54
622.35	1763.30
622.54	1771.49
622.73	1814.50
622.92	1595.37
623.11	1783.78
623.30	1628.14
623.49	1763.30
623.68	1640.42
623.88	1810.40
624.07	1718.25
624.26	1685.48
624.45	1738.73
624.64	1732.58
624.83	1730.53
625.02	1753.06
625.21	1744.87
625.40	1712.10
625.59	1748.97
625.78	1708.01
625.97	1783.78
626.16	1800.16
626.35	1767.40
626.54	1691.62
626.74	1765.35
626.93	1738.73
627.12	1724.39
627.31	1714.15
627.50	1787.88
627.69	1763.30
627.88	1755.11
628.07	1662.95
628.26	1615.85
628.45	1665.00
628.64	1671.14
628.83	1708.01
629.02	1691.62
629.21	1705.96
629.40	1724.39
629.59	1689.57
629.78	1615.85
629.97	1714.15
630.16	1794.02
630.35	1673.19
630.54	1722.34
630.73	1675.24
630.92	1714.15
631.11	1683.43
631.30	1728.49
631.49	1734.63
631.68	1742.82
631.87	1726.44
632.06	1673.19
632.25	1845.22
632.44	1697.77
632.63	1714.15
632.82	1685.48
633.01	1681.38
633.20	1708.01
633.39	1677.29
633.58	1656.81
633.77	1726.44
633.96	1816.55
634.15	1726.44
634.34	1791.97
634.53	1775.59
634.72	1724.39
634.91	1648.61
635.10	1697.77
635.29	1787.88
635.48	1724.39
635.67	1667.05
635.86	1652.71
636.05	1783.78
636.24	1705.96
636.43	1771.49
636.62	1728.49
636.81	1632.23
637.00	1722.34
637.19	1865.70
637.38	1705.96
637.57	1660.90
637.76	1761.25
637.95	1724.39
638.14	1710.05
638.33	1671.14
638.52	1742.82
638.71	1652.71
638.89	1687.53
639.08	1804.26
639.27	1644.52
639.46	1662.95
639.65	1765.35
639.84	1689.57
640.03	1759.21
640.22	1693.67
640.41	1773.54
640.60	1550.31
640.79	1681.38
640.98	1665.00
641.17	1732.58
641.36	1619.94
641.55	1777.64
641.74	1691.62
641.92	1746.92
642.11	1722.34
642.30	1681.38
642.49	1712.10
642.68	1671.14
642.87	1619.94
643.06	1705.96
643.25	1685.48
643.44	1677.29
643.63	1732.58
643.82	1763.30
644.00	1775.59
644.19	1779.68
644.38	1689.57
644.57	1771.49
644.76	1755.11
644.95	1738.73
645.14	1720.29
645.33	1763.30
645.52	1732.58
645.71	1642.47
645.89	1646.57
646.08	1734.63
646.27	1742.82
646.46	1857.51
646.65	1675.24
646.84	1761.25
647.03	1621.99
647.22	1779.68
647.40	1751.01
647.59	1646.57
647.78	1667.05
647.97	1718.25
648.16	1714.15
648.35	1732.58
648.54	1845.22
648.73	1636.33
648.91	1802.21
649.10	1738.73
649.29	1765.35
649.48	1689.57
649.67	1744.87
649.86	1705.96
650.05	1603.56
650.23	1732.58
650.42	1632.23
650.61	1767.40
650.80	1748.97
650.99	1820.64
651.18	1798.12
651.36	1710.05
651.55	1691.62
651.74	1728.49
651.93	1695.72
652.12	1665.00
652.31	1708.01
652.49	1652.71
652.68	1675.24
652.87	1767.40
653.06	1703.91
653.25	1898.47
653.44	1710.05
653.62	1830.88
653.81	1693.67
654.00	1783.78
654.19	1828.84
654.38	1822.69
654.56	1769.44
654.75	1722.34
654.94	1757.16
655.13	1751.01
655.32	1705.96
655.51	1839.08
655.69	1673.19
655.88	1779.68
656.07	1656.81
656.26	1736.68
656.45	1636.33
656.63	1775.59
656.82	1742.82
657.01	1697.77
657.20	1652.71
657.38	1763.30
657.57	1687.53
657.76	1638.38
657.95	1689.57
658.14	1681.38
658.32	1693.67
658.51	1615.85
658.70	1720.29
658.89	1689.57
659.08	1714.15
659.26	1802.21
659.45	1619.94
659.64	1865.70
659.83	1634.28
660.01	1920.99
660.20	1759.21
660.39	1812.45
660.58	1665.00
660.76	1771.49
660.95	1630.18
661.14	1624.04
661.33	1615.85
661.51	1681.38
661.70	1732.58
661.89	1708.01
662.08	1724.39
662.26	1720.29
662.45	1759.21
662.64	1808.36
662.83	1785.83
663.01	1638.38
663.20	1671.14
663.39	1841.12
663.58	1730.53
663.76	1730.53
663.95	1726.44
664.14	1687.53
664.32	1710.05
664.51	1751.01
664.70	1587.18
664.89	1742.82
665.07	1621.99
665.26	1822.69
665.45	1679.33
665.64	1791.97
665.82	1648.61
666.01	1820.64
666.20	1652.71
666.38	1914.85
666.57	1781.73
666.76	2215.90
666.95	4569.02
667.13	10618.72
667.32	15617.81
667.51	18237.16
667.69	19973.84
667.88	18065.13
668.07	12678.97
668.25	9785.19
668.44	8107.91
668.63	7499.66
668.81	6942.61
669.00	6322.08
669.19	5957.54
669.38	5201.84
669.56	4698.04
669.75	4077.51
669.94	3450.83
670.12	2947.03
670.31	2564.06
670.50	2267.10
670.68	2041.82
670.87	1998.82
671.06	1839.08
671.24	1759.21
671.43	1837.03
671.62	1652.71
671.80	1689.57
671.99	1738.73
672.18	1730.53
672.36	1787.88
672.55	1693.67
672.74	1740.77
672.92	1671.14
673.11	1781.73
673.29	1632.23
673.48	1767.40
673.67	1662.95
673.85	1726.44
674.04	1757.16
674.23	1751.01
674.41	1794.02
674.60	1734.63
674.79	1644.52
674.97	1724.39
675.16	1718.25
675.34	1748.97
675.53	1669.09
675.72	1746.92
675.90	1824.74
676.09	1697.77
676.28	1761.25
676.46	1593.32
676.65	1796.07
676.83	1708.01
677.02	1710.05
677.21	1697.77
677.39	1744.87
677.58	1705.96
677.77	1687.53
677.95	1675.24
678.14	1722.34
678.32	1720.29
678.51	1699.81
678.70	1845.22
678.88	1681.38
679.07	1691.62
679.25	1763.30
679.44	1695.72
679.63	1617.90
679.81	1767.40
680.00	1736.68
680.18	1732.58
680.37	1789.92
680.55	1671.14
680.74	1669.09
680.93	1665.00
681.11	1734.63
681.30	1701.86
681.48	1718.25
681.67	1708.01
681.85	1724.39
682.04	1708.01
682.23	1777.64
682.41	1816.55
682.60	1734.63
682.78	1759.21
682.97	1630.18
683.15	1658.85
683.34	1720.29
683.53	1775.59
683.71	1652.71
683.90	1781.73
684.08	1771.49
684.27	1712.10
684.45	1613.80
684.64	1742.82
684.82	1710.05
685.01	1738.73
685.19	1695.72
685.38	1791.97
685.57	1624.04
685.75	1560.55
685.94	1714.15
686.12	1648.61
686.31	1679.33
686.49	1779.68
686.68	1601.51
686.86	1814.50
687.05	1734.63
687.23	1798.12
687.42	1656.81
687.60	1658.85
687.79	1714.15
687.97	1785.83
688.16	1753.06
688.34	1796.07
688.53	1648.61
688.71	1759.21
688.90	1802.21
689.08	1679.33
689.27	1531.88
689.45	1804.26
689.64	1744.87
689.82	1714.15
690.01	1720.29
690.19	1740.77
690.38	1669.09
690.56	1765.35
690.75	1656.81
690.93	1671.14
691.12	1714.15
691.30	1791.97
691.49	1589.22
691.67	1718.25
691.86	1759.21
692.04	1615.85
692.23	1701.86
692.41	1673.19
692.60	1929.19
692.78	1710.05
692.97	1722.34
693.15	1767.40
693.34	1832.93
693.52	1751.01
693.71	1720.29
693.89	1681.38
694.08	1650.66
694.26	1789.92
694.44	1746.92
694.63	1775.59
694.81	1595.37
695.00	1673.19
695.18	1777.64
695.37	1738.73
695.55	1767.40
695.74	1654.76
695.92	1665.00
696.10	1755.11
696.29	1658.85
696.47	1699.81
696.66	1628.14
696.84	1650.66
697.03	1630.18
697.21	1753.06
697.40	2326.49
697.58	1765.35
697.76	1734.63
697.95	1722.34
698.13	1667.05
698.32	1673.19
698.50	1710.05
698.68	1748.97
698.87	1718.25
699.05	1722.34
699.24	1699.81
699.42	1576.94
699.61	1693.67
699.79	1667.05
699.97	1746.92
700.16	1683.43
700.34	1685.48
700.53	1669.09
700.71	1806.31
700.89	1753.06
701.08	1691.62
701.26	1732.58
701.45	2084.83
701.63	1621.99
701.81	1726.44
702.00	1718.25
702.18	1724.39
702.37	1755.11
702.55	1689.57
702.73	1691.62
702.92	1615.85
703.10	1810.40
703.28	1753.06
703.47	1634.28
703.65	1718.25
703.84	1771.49
704.02	1671.14
704.20	1830.88
704.39	1716.20
704.57	1746.92
704.75	1746.92
704.94	1804.26
705.12	1703.91
705.30	1794.02
705.49	2263.01
705.67	4421.56
705.86	9766.76
706.04	12691.26
706.22	14907.16
706.41	15783.70
706.59	14262.05
706.77	10035.05
706.96	7661.45
707.14	6858.65
707.32	6137.76
707.51	5658.54
707.69	4921.27
707.87	4290.49
708.06	3549.13
708.24	3016.66
708.42	2492.38
708.61	2258.91
708.79	1972.19
708.97	1900.52
709.16	1769.44
709.34	1763.30
709.52	1757.16
709.71	1724.39
709.89	1787.88
710.07	1679.33
710.26	1656.81
710.44	1724.39
710.62	1712.10
710.80	1697.77
710.99	1873.89
711.17	1740.77
711.35	1677.29
711.54	1650.66
711.72	1814.50
711.90	1742.82
712.09	1785.83
712.27	1675.24
712.45	1648.61
712.63	1658.85
712.82	1624.04
713.00	1662.95
713.18	1759.21
713.37	1722.34
713.55	1773.54
713.73	1687.53
713.91	1767.40
714.10	1685.48
714.28	1683.43
714.46	1767.40
714.65	1697.77
714.83	1660.90
715.01	1693.67
715.19	1718.25
715.38	1671.14
715.56	1767.40
715.74	1650.66
715.92	1671.14
716.11	1855.46
716.29	1640.42
716.47	1712.10
716.65	1683.43
716.84	1677.29
717.02	1800.16
717.20	1617.90
717.38	1687.53
717.57	1667.05
717.75	1773.54
717.93	1665.00
718.11	1744.87
718.30	1605.61
718.48	1730.53
718.66	1740.77
718.84	1699.81
719.03	1701.86
719.21	1650.66
719.39	1843.17
719.57	1791.97
719.75	1812.45
719.94	1681.38
720.12	1671.14
720.30	1746.92
720.48	1777.64
720.67	1691.62
720.85	1626.09
721.03	1765.35
721.21	1679.33
721.39	1775.59
721.58	1759.21
721.76	1738.73
721.94	1814.50
722.12	1673.19
722.30	1779.68
722.49	1597.42
722.67	1708.01
722.85	1673.19
723.03	1601.51
723.21	1675.24
723.40	1744.87
723.58	1697.77
723.76	1779.68
723.94	1804.26
724.12	1662.95
724.30	1740.77
724.49	1748.97
724.67	1648.61
724.85	1701.86
725.03	1654.76
725.21	1791.97
725.40	1791.97
725.58	1757.16
725.76	1734.63
725.94	1759.21
726.12	1665.00
726.30	1742.82
726.49	1736.68
726.67	1630.18
726.85	1718.25
727.03	1837.03
727.21	2193.37
727.39	2926.55
727.57	3835.85
727.76	4239.30
727.94	4546.49
728.12	4429.76
728.30	3686.34
728.48	2949.08
728.66	2684.89
728.84	2541.53
729.03	2322.40
729.21	2183.13
729.39	2004.96
729.57	1839.08
729.75	1871.84
729.93	1814.50
730.11	1675.24
730.30	1742.82
730.48	1746.92
730.66	1849.32
730.84	1683.43
731.02	1697.77
731.20	1665.00
731.38	1677.29
731.56	1566.70
731.74	1632.23
731.93	1763.30
732.11	1705.96
732.29	1714.15
732.47	1665.00
732.65	1669.09
732.83	1712.10
733.01	1708.01
733.19	1656.81
733.37	1691.62
733.56	1744.87
733.74	1779.68
733.92	1791.97
734.10	1705.96
734.28	1708.01
734.46	1679.33
734.64	1730.53
734.82	1681.38
735.00	1654.76
735.18	1660.90
735.36	1607.66
735.54	1701.86
735.73	1703.91
735.91	1746.92
736.09	1720.29
736.27	1753.06
736.45	1716.20
736.63	1615.85
736.81	1726.44
736.99	1759.21
737.17	1742.82
737.35	1714.15
737.53	1687.53
737.71	1695.72
737.89	1820.64
738.07	1650.66
738.25	1583.08
738.43	1638.38
738.61	1720.29
738.80	1687.53
738.98	1652.71
739.16	1697.77
739.34	1669.09
739.52	1832.93
739.70	1607.66
739.88	1820.64
740.06	1880.04
740.24	1595.37
740.42	1808.36
740.60	1615.85
740.78	1695.72
740.96	1603.56
741.14	1617.90
741.32	1769.44
741.50	1665.00
741.68	1865.70
741.86	1796.07
742.04	1662.95
742.22	1654.76
742.40	1697.77
742.58	1763.30
742.76	1654.76
742.94	1736.68
743.12	1564.65
743.30	1718.25
743.48	1796.07
743.66	1578.98
743.84	1730.53
744.02	1609.70
744.20	1613.80
744.38	1656.81
744.56	1640.42
744.74	1740.77
744.92	1705.96
745.10	1712.10
745.28	1714.15
745.46	1912.80
745.64	1646.57
745.82	1773.54
746.00	1681.38
746.18	1691.62
746.36	1654.76
746.54	1716.20
746.72	1701.86
746.90	1675.24
747.08	1806.31
747.26	1689.57
747.44	1767.40
747.62	1767.40
747.80	1716.20
747.98	1708.01
748.15	1683.43
748.33	1740.77
748.51	1701.86
748.69	1689.57
748.87	1722.34
749.05	1685.48
749.23	1746.92
749.41	1773.54
749.59	1677.29
749.77	1808.36
749.95	1671.14
750.13	1640.42
750.31	1740.77
750.49	1734.63
750.67	1771.49
750.85	1845.22
751.03	1726.44
751.20	1796.07
751.38	1773.54
751.56	1705.96
751.74	1738.73
751.92	1755.11
752.10	1587.18
752.28	1791.97
752.46	1628.14
752.64	1656.81
752.82	1675.24
753.00	1730.53
753.18	1716.20
753.35	1640.42
753.53	1689.57
753.71	1665.00
753.89	1728.49
754.07	1658.85
754.25	1789.92
754.43	1699.81
754.61	1691.62
754.79	1679.33
754.97	1652.71
755.14	1775.59
755.32	1660.90
755.50	1697.77
755.68	1689.57
755.86	1701.86
756.04	1652.71
756.22	1685.48
756.40	1855.46
756.57	1806.31
756.75	1714.15
756.93	1771.49
757.11	1867.75
757.29	1644.52
757.47	1681.38
757.65	1531.88
757.82	1548.26
758.00	1669.09
758.18	1742.82
758.36	1679.33
758.54	1781.73
758.72	1673.19
758.90	1742.82
759.07	1658.85
759.25	1648.61
759.43	1681.38
759.61	1578.98
759.79	2174.94
759.97	1765.35
760.15	1687.53
760.32	1615.85
760.50	1683.43
760.68	1798.12
760.86	1638.38
761.04	1791.97
761.22	1802.21
761.39	1654.76
761.57	1705.96
761.75	1646.57
761.93	1712.10
762.11	1753.06
762.28	1720.29
762.46	1656.81
762.64	1732.58
762.82	1599.46
763.00	1613.80
763.18	1785.83
763.35	1656.81
763.53	1732.58
763.71	1714.15
763.89	1738.73
764.07	1740.77
764.24	1689.57
764.42	1755.11
764.60	1652.71
764.78	1753.06
764.96	1718.25
765.13	1691.62
765.31	1648.61
765.49	1724.39
765.67	1673.19
765.84	1662.95
766.02	1652.71
766.20	1636.33
766.38	1667.05
766.56	1791.97
766.73	1798.12
766.91	1648.61
767.09	1751.01
767.27	1767.40
767.44	1708.01
767.62	1779.68
767.80	1714.15
767.98	1671.14
768.15	1669.09
768.33	1732.58
768.51	1767.40
768.69	1701.86
768.87	1732.58
769.04	1767.40
769.22	1865.70
769.40	1744.87
769.58	1822.69
769.75	1708.01
769.93	1740.77
770.11	1660.90
770.28	1632.23
770.46	1671.14
770.64	1726.44
770.82	1599.46
770.99	1675.24
771.17	1763.30
771.35	1718.25
771.53	1755.11
771.70	1673.19
771.88	1738.73
772.06	1634.28
772.23	1705.96
772.41	1648.61
772.59	1642.47
772.77	1617.90
772.94	1660.90
773.12	1630.18
773.30	1632.23
773.47	1746.92
773.65	1605.61
773.83	1828.84
774.01	1656.81
774.18	1650.66
774.36	1716.20
774.54	1648.61
774.71	1634.28
774.89	1613.80
775.07	1626.09
775.24	1724.39
775.42	1660.90
775.60	1757.16
775.78	1689.57
775.95	1683.43
776.13	1673.19
776.31	1556.46
776.48	1787.88
776.66	1769.44
776.84	1665.00
777.01	1685.48
777.19	1576.94
777.37	1624.04
777.54	1767.40
777.72	1841.12
777.90	1650.66
778.07	1593.32
778.25	1875.94
778.43	1720.29
778.60	1652.71
778.78	1671.14
778.96	1804.26
779.13	1662.95
779.31	1720.29
779.49	1685.48
779.66	1722.34
779.84	1701.86
780.01	1689.57
780.19	1607.66
780.37	1730.53
780.54	1738.73
780.72	1615.85
780.90	1679.33
781.07	1695.72
781.25	1705.96
781.43	1771.49
781.60	1642.47
781.78	1751.01
781.95	1744.87
782.13	1636.33
782.31	1708.01
782.48	1531.88
782.66	1665.00
782.83	1857.51
783.01	1712.10
783.19	1722.34
783.36	1697.77
783.54	1624.04
783.72	1677.29
783.89	1746.92
784.07	1753.06
784.24	1742.82
784.42	1763.30
784.60	1755.11
784.77	1722.34
784.95	1574.89
785.12	1662.95
785.30	1820.64
785.47	1593.32
785.65	1650.66
785.83	1665.00
786.00	1621.99
786.18	1734.63
786.35	1640.42
786.53	1673.19
786.71	1783.78
786.88	1789.92
787.06	1751.01
787.23	1744.87
787.41	1687.53
787.58	1660.90
787.76	1675.24
787.94	1746.92
788.11	1710.05
788.29	1687.53
788.46	1673.19
788.64	1599.46
788.81	1697.77
788.99	1632.23
789.16	1591.27
789.34	1687.53
789.52	1677.29
789.69	1667.05
789.87	1581.03
790.04	1626.09
790.22	1662.95
790.39	1828.84
790.57	1644.52
790.74	1660.90
790.92	1720.29
791.09	1677.29
791.27	1675.24
791.44	1785.83
791.62	1691.62
791.79	1699.81
791.97	1708.01
792.15	1781.73
792.32	1710.05
792.50	1726.44
792.67	1718.25
792.85	1751.01
793.02	1712.10
793.20	1683.43
793.37	1642.47
793.55	1673.19
793.72	1671.14
793.90	1730.53
794.07	1636.33
794.25	1673.19
794.42	1767.40
794.60	1626.09
794.77	1642.47
794.95	1685.48
795.12	1748.97
795.30	1652.71
795.47	1646.57
795.65	1808.36
795.82	1621.99
796.00	1660.90
796.17	1703.91
796.34	1691.62
796.52	1646.57
796.69	1785.83
796.87	1753.06
797.04	1714.15
797.22	1789.92
797.39	1761.25
797.57	1677.29
797.74	1624.04
797.92	1730.53
798.09	1683.43
798.27	1755.11
798.44	1615.85
798.62	1695.72
798.79	1650.66
798.96	1660.90
799.14	1691.62
799.31	1837.03
799.49	1671.14
799.66	1660.90
799.84	1773.54
800.01	1597.42
800.19	1722.34
800.36	1613.80
800.53	1732.58
800.71	1759.21
800.88	1753.06
801.06	1673.19
801.23	1650.66
801.41	1734.63
801.58	1673.19
801.75	1691.62
801.93	1728.49
802.10	1837.03
802.28	1695.72
802.45	1669.09
802.63	1722.34
802.80	1740.77
802.97	1728.49
803.15	1722.34
803.32	1703.91
803.50	1542.12
803.67	1665.00
803.84	1613.80
804.02	1677.29
804.19	1693.67
804.37	1568.74
804.54	1640.42
804.71	1665.00
804.89	1685.48
805.06	1718.25
805.24	1595.37
805.41	1656.81
805.58	1611.75
805.76	1800.16
805.93	1740.77
806.10	1730.53
806.28	1761.25
806.45	1734.63
806.63	1675.24
806.80	1834.98
806.97	1720.29
807.15	1763.30
807.32	1648.61
807.49	1685.48
807.67	1615.85
807.84	1738.73
808.01	1578.98
808.19	1775.59
808.36	1773.54
808.54	1632.23
808.71	1656.81
808.88	1722.34
809.06	1679.33
809.23	1753.06
809.40	1611.75
809.58	1800.16
809.75	1691.62
809.92	1662.95
810.10	1855.46
810.27	1646.57
810.44	1757.16
810.62	1732.58
810.79	1681.38
810.96	1626.09
811.14	1681.38
811.31	1730.53
811.48	1697.77
811.66	1697.77
811.83	1767.40
812.00	1839.08
812.18	1714.15
812.35	1794.02
812.52	1695.72
812.69	1701.86
812.87	1734.63
813.04	1660.90
813.21	1697.77
813.39	1587.18
813.56	1681.38
813.73	1714.15
813.91	1648.61
814.08	1763.30
814.25	1695.72
814.42	1638.38
814.60	1693.67
814.77	1699.81
814.94	1773.54
815.12	1748.97
815.29	1720.29
815.46	1593.32
815.63	1681.38
815.81	1703.91
815.98	1712.10
816.15	1689.57
816.33	1712.10
816.50	1687.53
816.67	1761.25
816.84	1738.73
817.02	1632.23
817.19	1652.71
817.36	1748.97
817.53	1677.29
817.71	1632.23
817.88	1683.43
818.05	1689.57
818.22	1619.94
818.40	1859.56
818.57	1665.00
818.74	1722.34
818.91	1660.90
819.09	1787.88
819.26	1767.40
819.43	1667.05
819.60	1658.85
819.78	1742.82
819.95	1779.68
820.12	1699.81
820.29	1783.78
820.47	1671.14
820.64	1558.50
820.81	1624.04
820.98	1667.05
821.15	1714.15
821.33	1748.97
821.50	1564.65
821.67	1648.61
821.84	1679.33
822.02	1695.72
822.19	1722.34
822.36	1650.66
822.53	1673.19
822.70	1562.60
822.88	1619.94
823.05	1757.16
823.22	1689.57
823.39	1697.77
823.56	1691.62
823.74	1748.97
823.91	1548.26
824.08	1658.85
824.25	1720.29
824.42	1769.44
824.60	1634.28
824.77	1681.38
824.94	1636.33
825.11	1665.00
825.28	1640.42
825.45	1689.57
825.63	1626.09
825.80	1667.05
825.97	1665.00
826.14	1669.09
826.31	1630.18
826.48	1724.39
826.66	1730.53
826.83	1665.00
827.00	1687.53
827.17	1607.66
827.34	1685.48
827.51	1638.38
827.69	1669.09
827.86	1634.28
828.03	1732.58
828.20	1636.33
828.37	1662.95
828.54	1660.90
828.71	1691.62
828.89	1740.77
829.06	1716.20
829.23	1730.53
829.40	1683.43
829.57	1667.05
829.74	1746.92
829.91	1558.50
830.09	1632.23
830.26	1681.38
830.43	1847.27
830.60	1732.58
830.77	1748.97
830.94	1779.68
831.11	1738.73
831.28	1708.01
831.46	1658.85
831.63	1675.24
831.80	1824.74
831.97	1699.81
832.14	1687.53
832.31	1730.53
832.48	1712.10
832.65	1724.39
832.82	1732.58
832.99	1679.33
833.17	1726.44
833.34	1775.59
833.51	1755.11
833.68	1671.14
833.85	1720.29
834.02	1654.76
834.19	1613.80
834.36	1632.23
834.53	1732.58
834.70	1751.01
834.87	1796.07
835.04	1763.30
835.22	1601.51
835.39	1705.96
835.56	1667.05
835.73	1757.16
835.90	1699.81
836.07	1689.57
836.24	1798.12
836.41	1665.00
836.58	1638.38
836.75	1753.06
836.92	1763.30
837.09	1714.15
837.26	1822.69
837.43	1722.34
837.60	1691.62
837.77	1630.18
837.94	1710.05
838.12	1685.48
838.29	1685.48
838.46	1591.27
838.63	1626.09
838.80	1708.01
838.97	1697.77
839.14	1742.82
839.31	1675.24
839.48	1654.76
839.65	1646.57
839.82	1697.77
839.99	1687.53
840.16	1742.82
840.33	1718.25
840.50	1787.88
840.67	1728.49
840.84	1574.89
841.01	1693.67
841.18	1695.72
841.35	1767.40
841.52	1708.01
841.69	1785.83
841.86	1761.25
842.03	1775.59
842.20	1732.58
842.37	1691.62
842.54	1589.22
842.71	1724.39
842.88	1613.80
843.05	1683.43
843.22	1656.81
843.39	1751.01
843.56	1601.51
843.73	1628.14
843.90	1718.25
844.07	1683.43
844.24	1832.93
844.41	1716.20
844.58	1681.38
844.75	1718.25
844.92	1734.63
845.09	1636.33
845.26	1667.05
845.43	1681.38
845.60	1648.61
845.77	1773.54
845.94	1677.29
846.10	1726.44
846.27	1599.46
846.44	1710.05
846.61	1656.81
846.78	1665.00
846.95	1863.65
847.12	1671.14
847.29	1654.76
847.46	1673.19
847.63	1753.06
847.80	1669.09
847.97	1751.01
848.14	1884.13
848.31	1685.48
848.48	1572.84
848.65	1681.38
848.82	1720.29
848.98	1771.49
849.15	1695.72
849.32	1689.57
849.49	1798.12
849.66	1777.64
849.83	1728.49
850.00	1650.66
850.17	1658.85
850.34	1765.35
850.51	1632.23
850.68	1675.24
850.85	1759.21
851.01	1658.85
851.18	1660.90
851.35	1685.48
851.52	1732.58
851.69	1773.54
851.86	1636.33
852.03	1681.38
852.20	1755.11
852.37	1712.10
852.53	1681.38
852.70	1640.42
852.87	1693.67
853.04	1720.29
853.21	1763.30
853.38	1665.00
853.55	1705.96
853.72	1699.81
853.89	1607.66
854.05	1687.53
854.22	1626.09
854.39	1740.77
854.56	1671.14
854.73	1714.15
854.90	1628.14
855.07	1689.57
855.23	1689.57
855.40	1685.48
855.57	1644.52
855.74	1593.32
855.91	1828.84
856.08	1681.38
856.25	1697.77
856.41	1722.34
856.58	1665.00
856.75	1722.34
856.92	1574.89
857.09	1705.96
857.26	1589.22
857.42	1640.42
857.59	1708.01
857.76	1669.09
857.93	1669.09
858.10	1742.82
858.27	1552.36
858.43	1714.15
858.60	1681.38
858.77	1632.23
858.94	1671.14
859.11	1800.16
859.27	1652.71
859.44	1714.15
859.61	1800.16
859.78	1767.40
859.95	1636.33
860.12	1669.09
860.28	1804.26
860.45	1886.18
860.62	1685.48
860.79	1685.48
860.95	1683.43
861.12	1658.85
861.29	1650.66
861.46	1654.76
861.63	1720.29
861.79	1699.81
861.96	1615.85
862.13	1603.56
862.30	1757.16
862.47	1609.70
862.63	1673.19
862.80	1722.34
862.97	1755.11
863.14	1650.66
863.30	1734.63
863.47	1636.33
863.64	1730.53
863.81	1716.20
863.97	1726.44
864.14	1712.10
864.31	1710.05
864.48	1751.01
864.65	1654.76
864.81	1738.73
864.98	1730.53
865.15	1738.73
865.32	1789.92
865.48	1742.82
865.65	1740.77
865.82	1716.20
865.98	1742.82
866.15	1759.21
866.32	1693.67
866.49	1662.95
866.65	1722.34
866.82	1648.61
866.99	1771.49
867.16	1730.53
867.32	1650.66
867.49	1665.00
867.66	1667.05
867.83	1640.42
867.99	1626.09
868.16	1646.57
868.33	1519.59
868.49	1716.20
868.66	1630.18
868.83	1650.66
868.99	1769.44
869.16	1675.24
869.33	1783.78
869.50	1787.88
869.66	1730.53
869.83	1732.58
870.00	1691.62
870.16	1751.01
870.33	1648.61
870.50	1757.16
870.66	1683.43
870.83	1753.06
871.00	1730.53
871.17	1693.67
871.33	1673.19
871.50	1681.38
871.67	1703.91
871.83	1656.81
872.00	1826.79
872.17	1617.90
872.33	1734.63
872.50	1777.64
872.67	1689.57
872.83	1638.38
873.00	1757.16
873.17	1736.68
873.33	1671.14
873.50	1734.63
873.67	1624.04
873.83	1656.81
874.00	1628.14
874.16	1714.15
874.33	1714.15
874.50	1669.09
874.66	1691.62
874.83	1681.38
875.00	1757.16
875.16	1732.58
875.33	1771.49
875.50	1527.78
875.66	1628.14
875.83	1724.39
875.99	1748.97
876.16	1765.35
876.33	1681.38
876.49	1755.11
876.66	1673.19
876.83	1675.24
876.99	1642.47
877.16	1648.61
877.32	1716.20
877.49	1685.48
877.66	1716.20
877.82	1783.78
877.99	1720.29
878.15	1724.39
878.32	1650.66
878.49	1738.73
878.65	1673.19
878.82	1787.88
878.98	1648.61
879.15	1773.54
879.32	1710.05
879.48	1734.63
879.65	1685.48
879.81	1716.20
879.98	1568.74
880.15	1748.97
880.31	1710.05
880.48	1634.28
880.64	1808.36
880.81	1794.02
880.97	1845.22
881.14	1773.54
881.31	1603.56
881.47	1834.98
881.64	1708.01
881.80	1644.52
881.97	1742.82
882.13	1722.34
882.30	1591.27
882.47	1650.66
882.63	1624.04
882.80	1681.38
882.96	1652.71
883.13	1681.38
883.29	1693.67
883.46	1644.52
883.62	1767.40
883.79	1681.38
883.95	1773.54
884.12	1605.61
884.29	1763.30
884.45	1679.33
884.62	1765.35
884.78	1685.48
884.95	1705.96
885.11	1632.23
885.28	1812.45
885.44	1722.34
885.61	1810.40
885.77	1753.06
885.94	1753.06
886.10	1761.25
886.27	1669.09
886.43	1820.64
886.60	1759.21
886.76	1564.65
886.93	1683.43
887.09	1738.73
887.26	1619.94
887.42	1732.58
887.59	1755.11
887.75	1832.93
887.92	1785.83
888.08	1744.87
888.25	1816.55
888.41	1757.16
888.58	1665.00
888.74	1648.61
888.91	1708.01
>>>>>End Processed Spectral Data<<<<<
