SpectraSuite Data File
++++++++++++++++++++++++++++++++++++
Date: Mon Jun 06 12:29:37 CEST 2016
User: root
Dark Spectrum Present: No
Reference Spectrum Present: No
Number of Sampled Component Spectra: 1
Spectrometers: USB4C02835
Integration Time (usec): 100000 (USB4C02835)
Spectra Averaged: 1 (USB4C02835)
Boxcar Smoothing: 0 (USB4C02835)
Correct for Electrical Dark: No (USB4C02835)
Strobe/Lamp Enabled: No (USB4C02835)
Correct for Detector Non-linearity: No (USB4C02835)
Correct for Stray Light: No (USB4C02835)
Number of Pixels in Processed Spectrum: 3648
>>>>>Begin Processed Spectral Data<<<<<
177.47	1400.81
177.69	1400.81
177.91	1400.81
178.13	1443.82
178.36	1470.44
178.58	1626.09
178.80	1765.35
179.02	1665.00
179.24	1632.23
179.46	1677.29
179.68	1687.53
179.90	1671.14
180.13	1669.09
180.35	1665.00
180.57	1695.72
180.79	1701.86
181.01	1712.10
181.23	1773.54
181.45	1769.44
181.67	1757.16
181.90	1785.83
182.12	1701.86
182.34	1673.19
182.56	1708.01
182.78	1775.59
183.00	1673.19
183.22	1748.97
183.44	1599.46
183.66	1867.75
183.89	1841.12
184.11	1658.85
184.33	1724.39
184.55	1665.00
184.77	1730.53
184.99	1660.90
185.21	1697.77
185.43	1783.78
185.65	1636.33
185.87	1724.39
186.10	1820.64
186.32	1832.93
186.54	1759.21
186.76	1662.95
186.98	1734.63
187.20	1695.72
187.42	1671.14
187.64	1703.91
187.86	1742.82
188.08	1689.57
188.30	1683.43
188.52	1683.43
188.75	1742.82
188.97	1837.03
189.19	1681.38
189.41	1677.29
189.63	1699.81
189.85	1714.15
190.07	1593.32
190.29	1632.23
190.51	1775.59
190.73	1646.57
190.95	1751.01
191.17	1755.11
191.39	1642.47
191.61	1662.95
191.84	1603.56
192.06	1763.30
192.28	1619.94
192.50	1822.69
192.72	1726.44
192.94	1710.05
193.16	1697.77
193.38	1744.87
193.60	1642.47
193.82	1697.77
194.04	1763.30
194.26	1732.58
194.48	1767.40
194.70	1681.38
194.92	1673.19
195.14	1767.40
195.36	1705.96
195.58	1683.43
195.80	1660.90
196.02	1691.62
196.24	1769.44
196.46	1710.05
196.69	1656.81
196.91	1759.21
197.13	1669.09
197.35	1648.61
197.57	1826.79
197.79	1691.62
198.01	1665.00
198.23	1699.81
198.45	1722.34
198.67	1624.04
198.89	1671.14
199.11	1753.06
199.33	1740.77
199.55	1554.41
199.77	1691.62
199.99	1724.39
200.21	1726.44
200.43	1716.20
200.65	1632.23
200.87	1662.95
201.09	1730.53
201.31	1728.49
201.53	1767.40
201.75	1712.10
201.97	1740.77
202.19	1726.44
202.41	1634.28
202.63	1861.60
202.85	1757.16
203.07	1724.39
203.29	1683.43
203.51	1683.43
203.73	1617.90
203.95	1873.89
204.17	1751.01
204.39	1648.61
204.61	1667.05
204.83	1624.04
205.05	1757.16
205.27	1791.97
205.49	1828.84
205.71	1683.43
205.93	1656.81
206.15	1648.61
206.37	1712.10
206.59	1615.85
206.81	1701.86
207.03	1716.20
207.25	1607.66
207.47	1710.05
207.69	1685.48
207.91	1783.78
208.13	1701.86
208.34	1646.57
208.56	1646.57
208.78	1775.59
209.00	1667.05
209.22	1671.14
209.44	1701.86
209.66	1699.81
209.88	1687.53
210.10	1638.38
210.32	1726.44
210.54	1773.54
210.76	1662.95
210.98	1746.92
211.20	1587.18
211.42	1650.66
211.64	1785.83
211.86	1761.25
212.08	1759.21
212.30	1779.68
212.52	1628.14
212.74	1693.67
212.96	1714.15
213.17	1775.59
213.39	1769.44
213.61	1730.53
213.83	1710.05
214.05	1660.90
214.27	1703.91
214.49	1617.90
214.71	1638.38
214.93	1779.68
215.15	1701.86
215.37	1746.92
215.59	1624.04
215.81	1804.26
216.03	1767.40
216.24	1697.77
216.46	1691.62
216.68	1609.70
216.90	1771.49
217.12	1798.12
217.34	1716.20
217.56	1724.39
217.78	1785.83
218.00	1724.39
218.22	1738.73
218.44	1767.40
218.66	1665.00
218.87	1777.64
219.09	1660.90
219.31	1673.19
219.53	1652.71
219.75	1689.57
219.97	1650.66
220.19	1720.29
220.41	1722.34
220.63	1798.12
220.85	1712.10
221.06	1689.57
221.28	1751.01
221.50	1761.25
221.72	1658.85
221.94	1742.82
222.16	1599.46
222.38	1708.01
222.60	1763.30
222.82	1710.05
223.03	1742.82
223.25	1632.23
223.47	1800.16
223.69	1763.30
223.91	1665.00
224.13	1685.48
224.35	1638.38
224.57	1689.57
224.78	1667.05
225.00	1599.46
225.22	1740.77
225.44	1759.21
225.66	1718.25
225.88	1615.85
226.10	1804.26
226.32	1775.59
226.53	1806.31
226.75	1701.86
226.97	1644.52
227.19	1718.25
227.41	1693.67
227.63	1736.68
227.85	1648.61
228.06	1742.82
228.28	1630.18
228.50	1753.06
228.72	1636.33
228.94	1636.33
229.16	1644.52
229.37	1624.04
229.59	1642.47
229.81	1744.87
230.03	1683.43
230.25	1595.37
230.47	1583.08
230.69	1667.05
230.90	1744.87
231.12	1593.32
231.34	1767.40
231.56	1705.96
231.78	1521.64
232.00	1714.15
232.21	1652.71
232.43	1585.13
232.65	1646.57
232.87	1830.88
233.09	1578.98
233.30	1617.90
233.52	1738.73
233.74	1767.40
233.96	1695.72
234.18	1699.81
234.40	1753.06
234.61	1812.45
234.83	1607.66
235.05	1564.65
235.27	1873.89
235.49	1777.64
235.70	1669.09
235.92	1742.82
236.14	1714.15
236.36	1820.64
236.58	1634.28
236.79	1789.92
237.01	1671.14
237.23	1656.81
237.45	1804.26
237.67	1787.88
237.88	1669.09
238.10	1812.45
238.32	1667.05
238.54	1716.20
238.76	1677.29
238.97	1740.77
239.19	1636.33
239.41	1808.36
239.63	1740.77
239.85	1658.85
240.06	1712.10
240.28	1712.10
240.50	1716.20
240.72	1722.34
240.93	1734.63
241.15	1796.07
241.37	1658.85
241.59	1779.68
241.81	1808.36
242.02	1683.43
242.24	1703.91
242.46	1781.73
242.68	1695.72
242.89	1681.38
243.11	1667.05
243.33	1738.73
243.55	1710.05
243.76	1753.06
243.98	1601.51
244.20	1703.91
244.42	1671.14
244.64	1669.09
244.85	1708.01
245.07	1595.37
245.29	1716.20
245.51	1574.89
245.72	1638.38
245.94	1757.16
246.16	1617.90
246.38	1734.63
246.59	1644.52
246.81	1648.61
247.03	1665.00
247.24	1605.61
247.46	1671.14
247.68	1718.25
247.90	1697.77
248.11	1753.06
248.33	1740.77
248.55	1730.53
248.77	1681.38
248.98	1783.78
249.20	1695.72
249.42	1677.29
249.64	1761.25
249.85	1656.81
250.07	1714.15
250.29	1779.68
250.50	1732.58
250.72	1662.95
250.94	1640.42
251.16	1839.08
251.37	1769.44
251.59	1708.01
251.81	1724.39
252.02	1746.92
252.24	1642.47
252.46	1787.88
252.68	1632.23
252.89	1683.43
253.11	1632.23
253.33	1781.73
253.54	1718.25
253.76	1585.13
253.98	1632.23
254.20	1718.25
254.41	1599.46
254.63	1585.13
254.85	1652.71
255.06	1757.16
255.28	1746.92
255.50	1683.43
255.71	1587.18
255.93	1673.19
256.15	1761.25
256.36	1761.25
256.58	1638.38
256.80	1689.57
257.02	1730.53
257.23	1699.81
257.45	1734.63
257.67	1687.53
257.88	1675.24
258.10	1720.29
258.32	1685.48
258.53	1679.33
258.75	1771.49
258.97	1630.18
259.18	1736.68
259.40	1714.15
259.62	1812.45
259.83	1808.36
260.05	1724.39
260.27	2011.11
260.48	1820.64
260.70	1632.23
260.92	1687.53
261.13	1703.91
261.35	1640.42
261.57	1714.15
261.78	1681.38
262.00	1578.98
262.22	1773.54
262.43	1652.71
262.65	1660.90
262.86	1691.62
263.08	1771.49
263.30	1718.25
263.51	1658.85
263.73	1599.46
263.95	1789.92
264.16	1689.57
264.38	1687.53
264.60	1665.00
264.81	1693.67
265.03	1806.31
265.25	1787.88
265.46	1726.44
265.68	1730.53
265.89	1722.34
266.11	1642.47
266.33	1761.25
266.54	1824.74
266.76	1699.81
266.98	1800.16
267.19	1800.16
267.41	1767.40
267.62	1677.29
267.84	1628.14
268.06	1677.29
268.27	1628.14
268.49	1732.58
268.70	1738.73
268.92	1740.77
269.14	1693.67
269.35	1607.66
269.57	1689.57
269.79	1744.87
270.00	1675.24
270.22	1796.07
270.43	1638.38
270.65	1605.61
270.87	1677.29
271.08	1665.00
271.30	1718.25
271.51	1705.96
271.73	1662.95
271.95	1800.16
272.16	1656.81
272.38	1736.68
272.59	1669.09
272.81	1669.09
273.02	1722.34
273.24	1775.59
273.46	1705.96
273.67	1605.61
273.89	1667.05
274.10	1683.43
274.32	1744.87
274.54	1624.04
274.75	1753.06
274.97	1634.28
275.18	1748.97
275.40	1652.71
275.61	1642.47
275.83	1617.90
276.05	1550.31
276.26	1656.81
276.48	1681.38
276.69	1658.85
276.91	1705.96
277.12	1732.58
277.34	1695.72
277.55	1767.40
277.77	1648.61
277.99	1660.90
278.20	1695.72
278.42	1611.75
278.63	1656.81
278.85	1705.96
279.06	1722.34
279.28	1753.06
279.49	1652.71
279.71	1724.39
279.93	1736.68
280.14	1673.19
280.36	1617.90
280.57	1775.59
280.79	1853.41
281.00	1689.57
281.22	1720.29
281.43	1677.29
281.65	1656.81
281.86	1634.28
282.08	1624.04
282.29	1755.11
282.51	1640.42
282.73	1642.47
282.94	1599.46
283.16	1742.82
283.37	1755.11
283.59	1714.15
283.80	1699.81
284.02	1648.61
284.23	1667.05
284.45	1652.71
284.66	1634.28
284.88	1689.57
285.09	1681.38
285.31	1697.77
285.52	1697.77
285.74	1621.99
285.95	1726.44
286.17	1669.09
286.38	1765.35
286.60	1687.53
286.81	1677.29
287.03	1667.05
287.24	1716.20
287.46	1689.57
287.67	1660.90
287.89	1773.54
288.10	1695.72
288.32	1691.62
288.53	1748.97
288.75	1685.48
288.96	1724.39
289.18	1746.92
289.39	1648.61
289.61	1681.38
289.82	1771.49
290.04	1746.92
290.25	1611.75
290.47	1675.24
290.68	1624.04
290.90	1726.44
291.11	1699.81
291.33	1732.58
291.54	1658.85
291.76	1673.19
291.97	1730.53
292.18	1624.04
292.40	1650.66
292.61	1650.66
292.83	1798.12
293.04	1763.30
293.26	1662.95
293.47	1726.44
293.69	1656.81
293.90	1744.87
294.12	1773.54
294.33	1722.34
294.55	1718.25
294.76	1755.11
294.97	1738.73
295.19	1853.41
295.40	1718.25
295.62	1736.68
295.83	1681.38
296.05	1683.43
296.26	1742.82
296.48	1621.99
296.69	1685.48
296.90	1714.15
297.12	1712.10
297.33	1771.49
297.55	1738.73
297.76	1712.10
297.98	1796.07
298.19	1687.53
298.41	1660.90
298.62	1671.14
298.83	1716.20
299.05	1722.34
299.26	1738.73
299.48	1662.95
299.69	1728.49
299.90	1734.63
300.12	1646.57
300.33	1697.77
300.55	1685.48
300.76	1728.49
300.98	1675.24
301.19	1746.92
301.40	1652.71
301.62	1673.19
301.83	1681.38
302.05	1716.20
302.26	1771.49
302.47	1730.53
302.69	1607.66
302.90	1632.23
303.12	1505.26
303.33	1714.15
303.54	1810.40
303.76	1632.23
303.97	1652.71
304.19	1722.34
304.40	1626.09
304.61	1751.01
304.83	1753.06
305.04	1751.01
305.26	1791.97
305.47	1652.71
305.68	1820.64
305.90	1597.42
306.11	1695.72
306.33	1722.34
306.54	1644.52
306.75	1638.38
306.97	1689.57
307.18	1669.09
307.39	1734.63
307.61	1714.15
307.82	1669.09
308.04	1738.73
308.25	1660.90
308.46	1720.29
308.68	1660.90
308.89	1638.38
309.10	1693.67
309.32	1691.62
309.53	1652.71
309.74	1693.67
309.96	1722.34
310.17	1675.24
310.39	1640.42
310.60	1742.82
310.81	1681.38
311.03	1652.71
311.24	1785.83
311.45	1736.68
311.67	1769.44
311.88	1662.95
312.09	1652.71
312.31	1730.53
312.52	1681.38
312.73	1687.53
312.95	1662.95
313.16	1630.18
313.37	1748.97
313.59	1798.12
313.80	1742.82
314.01	1779.68
314.23	1714.15
314.44	1679.33
314.65	1648.61
314.87	1642.47
315.08	1699.81
315.29	1695.72
315.51	1609.70
315.72	1652.71
315.93	1802.21
316.15	1708.01
316.36	1689.57
316.57	1652.71
316.79	1667.05
317.00	1671.14
317.21	1660.90
317.43	1626.09
317.64	1789.92
317.85	1595.37
318.07	1724.39
318.28	1742.82
318.49	1877.99
318.70	1935.33
318.92	1826.79
319.13	1755.11
319.34	1888.23
319.56	1818.60
319.77	1832.93
319.98	1726.44
320.20	1728.49
320.41	1794.02
320.62	1703.91
320.83	1624.04
321.05	1877.99
321.26	1710.05
321.47	1724.39
321.69	1812.45
321.90	1605.61
322.11	1648.61
322.32	1744.87
322.54	1794.02
322.75	1613.80
322.96	1814.50
323.18	1558.50
323.39	1560.55
323.60	1720.29
323.81	1736.68
324.03	1677.29
324.24	1667.05
324.45	1656.81
324.66	1615.85
324.88	1695.72
325.09	1781.73
325.30	1650.66
325.52	1732.58
325.73	1703.91
325.94	1587.18
326.15	1533.93
326.37	1671.14
326.58	1730.53
326.79	1775.59
327.00	1648.61
327.22	1695.72
327.43	1710.05
327.64	1615.85
327.85	1689.57
328.07	1652.71
328.28	1716.20
328.49	1669.09
328.70	1718.25
328.92	1732.58
329.13	1667.05
329.34	1675.24
329.55	1748.97
329.76	1714.15
329.98	1710.05
330.19	1791.97
330.40	1771.49
330.61	1736.68
330.83	1722.34
331.04	1679.33
331.25	1761.25
331.46	1665.00
331.68	1646.57
331.89	1781.73
332.10	1703.91
332.31	1640.42
332.52	1683.43
332.74	1771.49
332.95	1705.96
333.16	1591.27
333.37	1734.63
333.58	1642.47
333.80	1744.87
334.01	1734.63
334.22	1691.62
334.43	1660.90
334.64	1755.11
334.86	1667.05
335.07	1636.33
335.28	1816.55
335.49	1615.85
335.70	1726.44
335.92	1808.36
336.13	1783.78
336.34	1818.60
336.55	1720.29
336.76	1738.73
336.98	1529.83
337.19	1652.71
337.40	1746.92
337.61	1791.97
337.82	1673.19
338.04	1769.44
338.25	1554.41
338.46	1775.59
338.67	1667.05
338.88	1671.14
339.09	1636.33
339.31	1720.29
339.52	1634.28
339.73	1621.99
339.94	1724.39
340.15	1726.44
340.36	1619.94
340.58	1650.66
340.79	1607.66
341.00	1789.92
341.21	1617.90
341.42	1742.82
341.63	1640.42
341.85	1763.30
342.06	1679.33
342.27	1626.09
342.48	1691.62
342.69	1662.95
342.90	1710.05
343.12	1791.97
343.33	1730.53
343.54	1712.10
343.75	1822.69
343.96	1734.63
344.17	1632.23
344.38	1802.21
344.60	1648.61
344.81	1636.33
345.02	1689.57
345.23	1791.97
345.44	1761.25
345.65	1726.44
345.86	1771.49
346.07	1701.86
346.29	1652.71
346.50	1755.11
346.71	1705.96
346.92	1812.45
347.13	1853.41
347.34	1720.29
347.55	1703.91
347.76	1656.81
347.98	1566.70
348.19	1675.24
348.40	1826.79
348.61	1652.71
348.82	1757.16
349.03	1791.97
349.24	1615.85
349.45	1834.98
349.66	1554.41
349.88	1699.81
350.09	1640.42
350.30	1736.68
350.51	1781.73
350.72	1724.39
350.93	1675.24
351.14	1665.00
351.35	1675.24
351.56	1759.21
351.77	1718.25
351.99	1716.20
352.20	1767.40
352.41	1687.53
352.62	1591.27
352.83	1669.09
353.04	1765.35
353.25	1642.47
353.46	1724.39
353.67	1767.40
353.88	1609.70
354.09	1617.90
354.30	1679.33
354.52	1667.05
354.73	1683.43
354.94	1660.90
355.15	1703.91
355.36	1804.26
355.57	1720.29
355.78	1785.83
355.99	1677.29
356.20	1712.10
356.41	1683.43
356.62	1726.44
356.83	1628.14
357.04	1740.77
357.25	1609.70
357.46	1695.72
357.68	1642.47
357.89	1652.71
358.10	1675.24
358.31	1714.15
358.52	1693.67
358.73	1603.56
358.94	1568.74
359.15	1667.05
359.36	1732.58
359.57	1701.86
359.78	1681.38
359.99	1669.09
360.20	1619.94
360.41	1687.53
360.62	1679.33
360.83	1748.97
361.04	1751.01
361.25	1746.92
361.46	1861.60
361.67	1761.25
361.88	1685.48
362.09	1796.07
362.30	1757.16
362.51	1675.24
362.72	1734.63
362.93	1646.57
363.14	1679.33
363.35	1724.39
363.56	1640.42
363.78	1777.64
363.99	1701.86
364.20	1658.85
364.41	1691.62
364.62	1806.31
364.83	1695.72
365.04	1728.49
365.25	1781.73
365.46	1845.22
365.67	1667.05
365.88	1642.47
366.09	1654.76
366.30	1697.77
366.51	1667.05
366.72	1712.10
366.93	1675.24
367.14	1740.77
367.35	1787.88
367.56	1685.48
367.77	1695.72
367.98	1646.57
368.18	1712.10
368.39	1720.29
368.60	1665.00
368.81	1779.68
369.02	1705.96
369.23	1699.81
369.44	1566.70
369.65	1626.09
369.86	1746.92
370.07	1724.39
370.28	1665.00
370.49	1714.15
370.70	1714.15
370.91	1656.81
371.12	1675.24
371.33	1705.96
371.54	1718.25
371.75	1728.49
371.96	1505.26
372.17	1708.01
372.38	1710.05
372.59	1714.15
372.80	1665.00
373.01	1624.04
373.22	1691.62
373.43	1708.01
373.64	1720.29
373.85	1714.15
374.06	1818.60
374.26	1787.88
374.47	1730.53
374.68	1761.25
374.89	1796.07
375.10	1667.05
375.31	1705.96
375.52	1710.05
375.73	1683.43
375.94	1564.65
376.15	1759.21
376.36	1679.33
376.57	1634.28
376.78	1742.82
376.99	1759.21
377.20	1724.39
377.40	1552.36
377.61	1853.41
377.82	1597.42
378.03	1714.15
378.24	1673.19
378.45	1652.71
378.66	1787.88
378.87	1601.51
379.08	1638.38
379.29	1681.38
379.50	1812.45
379.71	1757.16
379.91	1726.44
380.12	1695.72
380.33	1693.67
380.54	1710.05
380.75	1665.00
380.96	1710.05
381.17	1714.15
381.38	1693.67
381.59	1699.81
381.80	1738.73
382.00	1820.64
382.21	1755.11
382.42	1755.11
382.63	1800.16
382.84	1724.39
383.05	1765.35
383.26	1796.07
383.47	1730.53
383.68	1697.77
383.88	1679.33
384.09	1689.57
384.30	1753.06
384.51	1742.82
384.72	1656.81
384.93	1630.18
385.14	1708.01
385.35	1767.40
385.55	1646.57
385.76	1787.88
385.97	1708.01
386.18	1535.98
386.39	1701.86
386.60	1714.15
386.81	1671.14
387.02	1671.14
387.22	1570.79
387.43	1794.02
387.64	1816.55
387.85	1910.75
388.06	2203.61
388.27	4343.74
388.48	6883.22
388.68	8298.37
388.89	9838.44
389.10	9981.80
389.31	8832.89
389.52	7645.07
389.73	7018.39
389.93	6516.64
390.14	5887.91
390.35	5283.76
390.56	4671.42
390.77	3831.75
390.98	3088.34
391.18	2449.37
391.39	2142.18
391.60	1859.56
391.81	1794.02
392.02	1755.11
392.23	1933.28
392.43	1730.53
392.64	1787.88
392.85	1675.24
393.06	1834.98
393.27	1648.61
393.47	1710.05
393.68	1701.86
393.89	1718.25
394.10	1751.01
394.31	1677.29
394.52	1624.04
394.72	1697.77
394.93	1742.82
395.14	1636.33
395.35	1705.96
395.56	1650.66
395.76	1730.53
395.97	1732.58
396.18	1798.12
396.39	1789.92
396.60	2027.49
396.80	1912.80
397.01	1806.31
397.22	1855.46
397.43	1796.07
397.64	1736.68
397.84	1814.50
398.05	1808.36
398.26	1718.25
398.47	1781.73
398.67	1824.74
398.88	1730.53
399.09	1732.58
399.30	1656.81
399.51	1748.97
399.71	1611.75
399.92	1724.39
400.13	1740.77
400.34	1630.18
400.54	1650.66
400.75	1804.26
400.96	1697.77
401.17	1818.60
401.37	1742.82
401.58	1748.97
401.79	1814.50
402.00	1902.56
402.21	1992.67
402.41	1994.72
402.62	1976.29
402.83	2025.44
403.04	1939.43
403.24	2093.02
403.45	1800.16
403.66	1953.76
403.87	1914.85
404.07	1884.13
404.28	1918.95
404.49	1841.12
404.70	1785.83
404.90	1703.91
405.11	1814.50
405.32	1761.25
405.52	1611.75
405.73	1699.81
405.94	1656.81
406.15	1763.30
406.35	1720.29
406.56	1736.68
406.77	1675.24
406.98	1763.30
407.18	1656.81
407.39	1751.01
407.60	1662.95
407.80	1740.77
408.01	1681.38
408.22	1777.64
408.43	1660.90
408.63	1691.62
408.84	1800.16
409.05	1738.73
409.25	1599.46
409.46	1591.27
409.67	1648.61
409.88	1738.73
410.08	1646.57
410.29	1689.57
410.50	1708.01
410.70	1714.15
410.91	1740.77
411.12	1738.73
411.32	1675.24
411.53	1611.75
411.74	1853.41
411.95	1722.34
412.15	1787.88
412.36	1732.58
412.57	1757.16
412.77	1777.64
412.98	1703.91
413.19	1658.85
413.39	1841.12
413.60	1734.63
413.81	1710.05
414.01	1675.24
414.22	1720.29
414.43	1798.12
414.63	1697.77
414.84	1779.68
415.05	1642.47
415.25	1669.09
415.46	1812.45
415.67	1687.53
415.87	1763.30
416.08	1710.05
416.29	1726.44
416.49	1730.53
416.70	1638.38
416.91	1699.81
417.11	1681.38
417.32	1716.20
417.53	1755.11
417.73	1689.57
417.94	1689.57
418.15	1773.54
418.35	1697.77
418.56	1724.39
418.77	1818.60
418.97	1669.09
419.18	1720.29
419.38	1593.32
419.59	1681.38
419.80	1734.63
420.00	1722.34
420.21	1595.37
420.42	1781.73
420.62	1705.96
420.83	1652.71
421.04	1662.95
421.24	1710.05
421.45	1734.63
421.65	1712.10
421.86	1724.39
422.07	1705.96
422.27	1730.53
422.48	1726.44
422.69	1632.23
422.89	1712.10
423.10	1609.70
423.30	1624.04
423.51	1796.07
423.72	1710.05
423.92	1744.87
424.13	1611.75
424.33	1685.48
424.54	1791.97
424.75	1665.00
424.95	1814.50
425.16	1636.33
425.36	1656.81
425.57	1763.30
425.78	1730.53
425.98	1701.86
426.19	1718.25
426.39	1646.57
426.60	1751.01
426.81	1787.88
427.01	1742.82
427.22	1708.01
427.42	1642.47
427.63	1662.95
427.83	1816.55
428.04	1769.44
428.25	1722.34
428.45	1828.84
428.66	1757.16
428.86	1683.43
429.07	1701.86
429.28	1794.02
429.48	1695.72
429.69	1671.14
429.89	1693.67
430.10	1667.05
430.30	1789.92
430.51	1705.96
430.71	1660.90
430.92	1619.94
431.13	1615.85
431.33	1742.82
431.54	1718.25
431.74	1796.07
431.95	1781.73
432.15	1634.28
432.36	1679.33
432.56	1736.68
432.77	1759.21
432.98	1779.68
433.18	1734.63
433.39	1677.29
433.59	1699.81
433.80	1822.69
434.00	1814.50
434.21	1660.90
434.41	1650.66
434.62	1857.51
434.82	1701.86
435.03	1568.74
435.23	1648.61
435.44	1617.90
435.64	1699.81
435.85	1660.90
436.06	1765.35
436.26	1740.77
436.47	1703.91
436.67	1626.09
436.88	1734.63
437.08	1800.16
437.29	1757.16
437.49	1771.49
437.70	1820.64
437.90	1769.44
438.11	1877.99
438.31	1802.21
438.52	1804.26
438.72	1865.70
438.93	1853.41
439.13	1832.93
439.34	1818.60
439.54	1658.85
439.75	1787.88
439.95	1812.45
440.16	1681.38
440.36	1722.34
440.57	1726.44
440.77	1722.34
440.98	1732.58
441.18	1701.86
441.39	1720.29
441.59	1589.22
441.80	1837.03
442.00	1673.19
442.21	1798.12
442.41	1609.70
442.62	1775.59
442.82	1697.77
443.02	1722.34
443.23	1714.15
443.43	1710.05
443.64	1853.41
443.84	1626.09
444.05	1789.92
444.25	1675.24
444.46	1722.34
444.66	1789.92
444.87	1791.97
445.07	1556.46
445.28	1740.77
445.48	1691.62
445.69	1734.63
445.89	1890.28
446.09	1683.43
446.30	2002.91
446.50	2650.07
446.71	3772.36
446.91	4329.41
447.12	4798.39
447.32	4925.36
447.53	4255.68
447.73	4001.73
447.93	3448.78
448.14	3350.48
448.34	3233.74
448.55	2928.60
448.75	2815.96
448.96	2727.89
449.16	2369.50
449.36	2326.49
449.57	2035.68
449.77	1849.32
449.98	1751.01
450.18	1736.68
450.39	1779.68
450.59	1830.88
450.79	1710.05
451.00	1675.24
451.20	1771.49
451.41	1740.77
451.61	1734.63
451.81	1710.05
452.02	1685.48
452.22	1751.01
452.43	1703.91
452.63	1671.14
452.84	1712.10
453.04	1644.52
453.24	1728.49
453.45	1601.51
453.65	1746.92
453.86	1699.81
454.06	1732.58
454.26	1794.02
454.47	1691.62
454.67	1853.41
454.87	1785.83
455.08	1765.35
455.28	1746.92
455.49	1820.64
455.69	1662.95
455.89	1863.65
456.10	1820.64
456.30	1681.38
456.51	1761.25
456.71	1794.02
456.91	1734.63
457.12	1767.40
457.32	1703.91
457.52	1732.58
457.73	1767.40
457.93	1771.49
458.14	1626.09
458.34	1632.23
458.54	1748.97
458.75	1742.82
458.95	1757.16
459.15	1648.61
459.36	1751.01
459.56	1697.77
459.76	1861.60
459.97	1738.73
460.17	1726.44
460.37	1816.55
460.58	1632.23
460.78	1798.12
460.99	1732.58
461.19	1712.10
461.39	1769.44
461.60	1712.10
461.80	1701.86
462.00	1757.16
462.21	1716.20
462.41	1644.52
462.61	1710.05
462.82	1667.05
463.02	1759.21
463.22	1710.05
463.43	1759.21
463.63	1722.34
463.83	1794.02
464.04	1720.29
464.24	1734.63
464.44	1759.21
464.64	1734.63
464.85	1728.49
465.05	1697.77
465.25	1693.67
465.46	1710.05
465.66	1751.01
465.86	1753.06
466.07	1656.81
466.27	1726.44
466.47	1656.81
466.68	1656.81
466.88	1769.44
467.08	1718.25
467.29	1804.26
467.49	1826.79
467.69	1740.77
467.89	1759.21
468.10	1697.77
468.30	1767.40
468.50	1777.64
468.71	1687.53
468.91	1701.86
469.11	1820.64
469.31	1759.21
469.52	1636.33
469.72	1869.80
469.92	1812.45
470.13	1722.34
470.33	1642.47
470.53	1810.40
470.73	2043.87
470.94	2275.29
471.14	2346.97
471.34	2570.20
471.54	2457.56
471.75	2217.95
471.95	2168.80
472.15	2056.16
472.36	2140.13
472.56	2068.45
472.76	2060.26
472.96	1976.29
473.17	2041.82
473.37	1937.38
473.57	1796.07
473.77	1845.22
473.98	1716.20
474.18	1689.57
474.38	1849.32
474.58	1697.77
474.79	1757.16
474.99	1681.38
475.19	1673.19
475.39	1685.48
475.60	1722.34
475.80	1757.16
476.00	1695.72
476.20	1699.81
476.41	1722.34
476.61	1804.26
476.81	1722.34
477.01	1677.29
477.21	1923.04
477.42	1755.11
477.62	1677.29
477.82	1748.97
478.02	1667.05
478.23	1746.92
478.43	1705.96
478.63	1621.99
478.83	1630.18
479.03	1695.72
479.24	1740.77
479.44	1824.74
479.64	1654.76
479.84	1599.46
480.04	1646.57
480.25	1769.44
480.45	1593.32
480.65	1736.68
480.85	1785.83
481.06	1609.70
481.26	1734.63
481.46	1751.01
481.66	1624.04
481.86	1697.77
482.06	1789.92
482.27	1636.33
482.47	1718.25
482.67	1644.52
482.87	1736.68
483.07	1802.21
483.28	1677.29
483.48	1628.14
483.68	1662.95
483.88	1656.81
484.08	1642.47
484.29	1619.94
484.49	1726.44
484.69	1681.38
484.89	1800.16
485.09	1751.01
485.29	1736.68
485.50	1753.06
485.70	1656.81
485.90	1806.31
486.10	1773.54
486.30	1812.45
486.50	1767.40
486.71	1693.67
486.91	1773.54
487.11	1773.54
487.31	1632.23
487.51	1665.00
487.71	1605.61
487.91	1644.52
488.12	1656.81
488.32	1644.52
488.52	1683.43
488.72	1613.80
488.92	1718.25
489.12	1736.68
489.32	1765.35
489.53	1757.16
489.73	1621.99
489.93	1806.31
490.13	1662.95
490.33	1673.19
490.53	1683.43
490.73	1751.01
490.94	1708.01
491.14	1794.02
491.34	1781.73
491.54	2074.59
491.74	2611.16
491.94	2987.99
492.14	2983.89
492.34	3063.76
492.54	2775.00
492.75	2484.19
492.95	2396.12
493.15	2310.11
493.35	2289.63
493.55	2256.86
493.75	2199.52
493.95	2158.56
494.15	2025.44
494.35	1910.75
494.56	1828.84
494.76	1787.88
494.96	1736.68
495.16	1800.16
495.36	1701.86
495.56	1738.73
495.76	1728.49
495.96	1781.73
496.16	1726.44
496.36	1843.17
496.56	1689.57
496.77	1718.25
496.97	1681.38
497.17	1755.11
497.37	1650.66
497.57	1671.14
497.77	1728.49
497.97	1705.96
498.17	1638.38
498.37	1734.63
498.57	1740.77
498.77	1746.92
498.97	1763.30
499.17	1853.41
499.38	1748.97
499.58	1783.78
499.78	1800.16
499.98	1744.87
500.18	1689.57
500.38	1718.25
500.58	1943.52
500.78	2559.96
500.98	4554.68
501.18	5867.43
501.38	6780.82
501.58	7354.26
501.78	6735.77
501.98	5697.45
502.18	5074.87
502.38	4399.04
502.58	4108.23
502.78	3755.97
502.98	3723.21
503.18	3469.26
503.38	3155.92
503.59	2775.00
503.79	2688.98
503.99	2527.19
504.19	2346.97
504.39	2195.42
504.59	2103.26
504.79	2160.61
504.99	2076.64
505.19	1873.89
505.39	1886.18
505.59	1908.71
505.79	1888.23
505.99	1826.79
506.19	1857.51
506.39	1798.12
506.59	1759.21
506.79	1734.63
506.99	1822.69
507.19	1714.15
507.39	1771.49
507.59	1673.19
507.79	1693.67
507.99	1689.57
508.19	1660.90
508.39	1773.54
508.59	1736.68
508.79	1802.21
508.99	1808.36
509.19	1607.66
509.39	1755.11
509.59	1695.72
509.79	1703.91
509.99	1718.25
510.19	1828.84
510.39	1777.64
510.59	1701.86
510.79	1697.77
510.99	1691.62
511.19	1812.45
511.39	1865.70
511.59	1767.40
511.79	1818.60
511.99	1742.82
512.19	1689.57
512.38	1712.10
512.58	1699.81
512.78	1701.86
512.98	1814.50
513.18	1800.16
513.38	1683.43
513.58	1787.88
513.78	1730.53
513.98	1695.72
514.18	1712.10
514.38	1665.00
514.58	1787.88
514.78	1753.06
514.98	1603.56
515.18	1734.63
515.38	1654.76
515.58	1849.32
515.78	1687.53
515.98	1660.90
516.18	1714.15
516.38	1751.01
516.57	1791.97
516.77	1689.57
516.97	1783.78
517.17	1730.53
517.37	1665.00
517.57	1763.30
517.77	1746.92
517.97	1730.53
518.17	1855.46
518.37	1720.29
518.57	1667.05
518.77	1744.87
518.97	1697.77
519.16	1701.86
519.36	1775.59
519.56	1710.05
519.76	1699.81
519.96	1738.73
520.16	1830.88
520.36	1665.00
520.56	1804.26
520.76	1697.77
520.96	1638.38
521.16	1843.17
521.35	1818.60
521.55	1794.02
521.75	1712.10
521.95	1714.15
522.15	1763.30
522.35	1781.73
522.55	1697.77
522.75	1767.40
522.95	1673.19
523.14	1691.62
523.34	1693.67
523.54	1730.53
523.74	1714.15
523.94	1751.01
524.14	1632.23
524.34	1804.26
524.54	1800.16
524.73	1648.61
524.93	1685.48
525.13	1789.92
525.33	1599.46
525.53	1925.09
525.73	1822.69
525.93	1712.10
526.13	1732.58
526.32	1742.82
526.52	1822.69
526.72	1808.36
526.92	1630.18
527.12	1705.96
527.32	1703.91
527.52	1755.11
527.71	1783.78
527.91	1730.53
528.11	1656.81
528.31	1671.14
528.51	1669.09
528.71	1705.96
528.90	1820.64
529.10	1828.84
529.30	1837.03
529.50	1632.23
529.70	1751.01
529.90	1697.77
530.09	1771.49
530.29	1634.28
530.49	1683.43
530.69	1894.37
530.89	1748.97
531.09	1822.69
531.28	1732.58
531.48	1808.36
531.68	1728.49
531.88	1751.01
532.08	1746.92
532.28	1697.77
532.47	1736.68
532.67	1814.50
532.87	1751.01
533.07	1699.81
533.27	1810.40
533.46	1746.92
533.66	1708.01
533.86	1751.01
534.06	1724.39
534.26	1779.68
534.45	1658.85
534.65	1816.55
534.85	1712.10
535.05	1658.85
535.25	1738.73
535.44	1640.42
535.64	1794.02
535.84	1724.39
536.04	1710.05
536.24	1628.14
536.43	1693.67
536.63	1804.26
536.83	1656.81
537.03	1710.05
537.22	1660.90
537.42	1677.29
537.62	1710.05
537.82	1665.00
538.02	1869.80
538.21	1779.68
538.41	1918.95
538.61	1781.73
538.81	1716.20
539.00	1777.64
539.20	1720.29
539.40	1699.81
539.60	1726.44
539.79	1771.49
539.99	1744.87
540.19	1675.24
540.39	1748.97
540.58	1755.11
540.78	1845.22
540.98	1687.53
541.18	1777.64
541.37	1720.29
541.57	1820.64
541.77	1712.10
541.97	1714.15
542.16	1654.76
542.36	1718.25
542.56	1708.01
542.76	1841.12
542.95	1814.50
543.15	1734.63
543.35	1787.88
543.54	1681.38
543.74	1722.34
543.94	1824.74
544.14	1691.62
544.33	1796.07
544.53	1730.53
544.73	1714.15
544.93	1662.95
545.12	1769.44
545.32	1746.92
545.52	1685.48
545.71	1716.20
545.91	1675.24
546.11	1683.43
546.30	1689.57
546.50	1648.61
546.70	1740.77
546.90	1718.25
547.09	1677.29
547.29	1798.12
547.49	1744.87
547.68	1701.86
547.88	1751.01
548.08	1834.98
548.27	2168.80
548.47	1718.25
548.67	1761.25
548.87	1693.67
549.06	1669.09
549.26	1759.21
549.46	1677.29
549.65	1634.28
549.85	1767.40
550.05	1816.55
550.24	1689.57
550.44	1693.67
550.64	1687.53
550.83	1767.40
551.03	1761.25
551.23	1736.68
551.42	1697.77
551.62	1710.05
551.82	1751.01
552.01	1705.96
552.21	1722.34
552.41	1693.67
552.60	1722.34
552.80	1773.54
553.00	1638.38
553.19	1755.11
553.39	1800.16
553.59	1714.15
553.78	1773.54
553.98	1712.10
554.17	1671.14
554.37	1767.40
554.57	1705.96
554.76	1667.05
554.96	1611.75
555.16	1703.91
555.35	1771.49
555.55	1748.97
555.75	1736.68
555.94	1761.25
556.14	1587.18
556.33	1738.73
556.53	1697.77
556.73	1787.88
556.92	1787.88
557.12	1871.84
557.32	1902.56
557.51	1767.40
557.71	1830.88
557.90	1871.84
558.10	1816.55
558.30	1667.05
558.49	1726.44
558.69	1742.82
558.88	1714.15
559.08	1708.01
559.28	1701.86
559.47	1701.86
559.67	1753.06
559.86	1771.49
560.06	1667.05
560.26	1777.64
560.45	1779.68
560.65	1730.53
560.84	1748.97
561.04	1667.05
561.24	1763.30
561.43	1656.81
561.63	1794.02
561.82	1697.77
562.02	1783.78
562.22	1689.57
562.41	1634.28
562.61	1665.00
562.80	1593.32
563.00	1914.85
563.19	1738.73
563.39	1779.68
563.59	1781.73
563.78	1740.77
563.98	1546.22
564.17	1699.81
564.37	1759.21
564.56	1730.53
564.76	1763.30
564.96	1763.30
565.15	1791.97
565.35	1882.08
565.54	1597.42
565.74	1830.88
565.93	1748.97
566.13	1695.72
566.32	1808.36
566.52	1802.21
566.71	1644.52
566.91	1759.21
567.11	1716.20
567.30	1675.24
567.50	1783.78
567.69	1736.68
567.89	1798.12
568.08	1775.59
568.28	1740.77
568.47	1716.20
568.67	1779.68
568.86	1710.05
569.06	1820.64
569.25	1757.16
569.45	1667.05
569.64	1679.33
569.84	1748.97
570.04	1779.68
570.23	1738.73
570.43	1730.53
570.62	1744.87
570.82	1820.64
571.01	1759.21
571.21	1660.90
571.40	1658.85
571.60	1728.49
571.79	1722.34
571.99	1746.92
572.18	1673.19
572.38	1724.39
572.57	1697.77
572.77	1845.22
572.96	1810.40
573.16	1726.44
573.35	1662.95
573.55	1802.21
573.74	1791.97
573.94	1738.73
574.13	1689.57
574.33	1800.16
574.52	1722.34
574.71	1689.57
574.91	1769.44
575.10	1599.46
575.30	1705.96
575.49	1665.00
575.69	1773.54
575.88	1714.15
576.08	1722.34
576.27	1806.31
576.47	1826.79
576.66	1779.68
576.86	1773.54
577.05	1697.77
577.25	1773.54
577.44	1867.75
577.64	1761.25
577.83	1763.30
578.02	1744.87
578.22	1740.77
578.41	1765.35
578.61	1701.86
578.80	1662.95
579.00	1748.97
579.19	1779.68
579.39	1789.92
579.58	1812.45
579.77	1738.73
579.97	1787.88
580.16	1789.92
580.36	1800.16
580.55	1886.18
580.75	1808.36
580.94	1718.25
581.13	1804.26
581.33	1814.50
581.52	1656.81
581.72	1800.16
581.91	1830.88
582.11	1789.92
582.30	1796.07
582.49	1787.88
582.69	1859.56
582.88	1800.16
583.08	1724.39
583.27	1812.45
583.47	1744.87
583.66	1761.25
583.85	1824.74
584.05	1755.11
584.24	1789.92
584.44	1791.97
584.63	1847.27
584.82	1822.69
585.02	1783.78
585.21	1837.03
585.41	1808.36
585.60	1822.69
585.79	1982.43
585.99	1859.56
586.18	1857.51
586.37	2109.41
586.57	3491.79
586.76	10225.51
586.96	25312.89
587.15	35356.13
587.34	41592.20
587.54	43318.64
587.73	37586.37
587.93	27125.35
588.12	22011.57
588.31	18769.63
588.51	16805.63
588.70	15552.27
588.89	14520.10
589.09	13041.46
589.28	11204.44
589.47	9602.93
589.67	8071.04
589.86	6553.50
590.06	5074.87
590.25	4020.16
590.44	3137.49
590.64	2625.50
590.83	2230.24
591.02	2058.21
591.22	1935.33
591.41	1853.41
591.60	1847.27
591.80	1976.29
591.99	1746.92
592.18	1761.25
592.38	1818.60
592.57	1744.87
592.76	1722.34
592.96	1812.45
593.15	1822.69
593.34	1849.32
593.54	1763.30
593.73	1779.68
593.92	1826.79
594.12	1755.11
594.31	1748.97
594.50	1822.69
594.70	1843.17
594.89	1820.64
595.08	1691.62
595.28	1820.64
595.47	1869.80
595.66	1775.59
595.86	1658.85
596.05	1705.96
596.24	1638.38
596.43	1832.93
596.63	1839.08
596.82	1761.25
597.01	1748.97
597.21	1894.37
597.40	1781.73
597.59	1757.16
597.79	1712.10
597.98	1718.25
598.17	1794.02
598.36	1755.11
598.56	1812.45
598.75	1755.11
598.94	1769.44
599.14	1726.44
599.33	1710.05
599.52	1814.50
599.71	1679.33
599.91	1763.30
600.10	1847.27
600.29	1718.25
600.48	1789.92
600.68	1773.54
600.87	1757.16
601.06	1699.81
601.26	1765.35
601.45	1765.35
601.64	1693.67
601.83	1796.07
602.03	1748.97
602.22	1669.09
602.41	1681.38
602.60	1787.88
602.80	1787.88
602.99	1765.35
603.18	1648.61
603.37	1806.31
603.57	1634.28
603.76	1871.84
603.95	1820.64
604.14	1677.29
604.34	1693.67
604.53	1701.86
604.72	1673.19
604.91	1806.31
605.10	1697.77
605.30	1722.34
605.49	1861.60
605.68	1812.45
605.87	1763.30
606.07	1646.57
606.26	1691.62
606.45	1816.55
606.64	1708.01
606.84	1632.23
607.03	1728.49
607.22	1687.53
607.41	1701.86
607.60	1738.73
607.80	1734.63
607.99	1687.53
608.18	1609.70
608.37	1679.33
608.56	1656.81
608.76	1763.30
608.95	1867.75
609.14	1755.11
609.33	1714.15
609.52	1730.53
609.72	1759.21
609.91	1763.30
610.10	1763.30
610.29	1769.44
610.48	1701.86
610.68	1740.77
610.87	1808.36
611.06	1800.16
611.25	1697.77
611.44	1775.59
611.63	1681.38
611.83	1765.35
612.02	1673.19
612.21	1660.90
612.40	1660.90
612.59	1660.90
612.79	1665.00
612.98	1767.40
613.17	1759.21
613.36	1701.86
613.55	1824.74
613.74	1628.14
613.93	1654.76
614.13	1779.68
614.32	1685.48
614.51	1730.53
614.70	1644.52
614.89	1742.82
615.08	1708.01
615.28	1998.82
615.47	1691.62
615.66	1730.53
615.85	1693.67
616.04	1753.06
616.23	1714.15
616.42	1761.25
616.62	1720.29
616.81	1708.01
617.00	1689.57
617.19	1744.87
617.38	1619.94
617.57	1708.01
617.76	1779.68
617.95	1734.63
618.15	1732.58
618.34	1787.88
618.53	1613.80
618.72	1802.21
618.91	1783.78
619.10	1837.03
619.29	1673.19
619.48	1742.82
619.68	1615.85
619.87	1699.81
620.06	1648.61
620.25	1759.21
620.44	1710.05
620.63	1683.43
620.82	1740.77
621.01	1642.47
621.20	1734.63
621.39	1726.44
621.59	1724.39
621.78	1671.14
621.97	1699.81
622.16	1714.15
622.35	1681.38
622.54	1767.40
622.73	1720.29
622.92	1665.00
623.11	1789.92
623.30	1738.73
623.49	1757.16
623.68	1685.48
623.88	1785.83
624.07	1681.38
624.26	1708.01
624.45	1787.88
624.64	1646.57
624.83	1726.44
625.02	1687.53
625.21	1791.97
625.40	1638.38
625.59	1751.01
625.78	1789.92
625.97	1806.31
626.16	1763.30
626.35	1714.15
626.54	1738.73
626.74	1753.06
626.93	1722.34
627.12	1679.33
627.31	1800.16
627.50	1701.86
627.69	1722.34
627.88	1683.43
628.07	1646.57
628.26	1550.31
628.45	1660.90
628.64	1628.14
628.83	1710.05
629.02	1665.00
629.21	1720.29
629.40	1699.81
629.59	1640.42
629.78	1736.68
629.97	1710.05
630.16	1708.01
630.35	1708.01
630.54	1738.73
630.73	1658.85
630.92	1697.77
631.11	1687.53
631.30	1685.48
631.49	1789.92
631.68	1652.71
631.87	1701.86
632.06	1665.00
632.25	1789.92
632.44	1755.11
632.63	1712.10
632.82	1689.57
633.01	1544.17
633.20	1753.06
633.39	1654.76
633.58	1660.90
633.77	1726.44
633.96	1712.10
634.15	1660.90
634.34	1787.88
634.53	1818.60
634.72	1652.71
634.91	1576.94
635.10	1759.21
635.29	1722.34
635.48	1693.67
635.67	1703.91
635.86	1665.00
636.05	1794.02
636.24	1730.53
636.43	1732.58
636.62	1740.77
636.81	1570.79
637.00	1763.30
637.19	1746.92
637.38	1718.25
637.57	1720.29
637.76	1687.53
637.95	1740.77
638.14	1593.32
638.33	1677.29
638.52	1695.72
638.71	1603.56
638.89	1634.28
639.08	1824.74
639.27	1798.12
639.46	1669.09
639.65	1802.21
639.84	1677.29
640.03	1769.44
640.22	1683.43
640.41	1804.26
640.60	1724.39
640.79	1716.20
640.98	1660.90
641.17	1744.87
641.36	1751.01
641.55	1685.48
641.74	1738.73
641.92	1683.43
642.11	1683.43
642.30	1695.72
642.49	1617.90
642.68	1669.09
642.87	1728.49
643.06	1683.43
643.25	1656.81
643.44	1591.27
643.63	1718.25
643.82	1683.43
644.00	1587.18
644.19	1763.30
644.38	1718.25
644.57	1742.82
644.76	1662.95
644.95	1714.15
645.14	1802.21
645.33	1685.48
645.52	1708.01
645.71	1624.04
645.89	1652.71
646.08	1665.00
646.27	1681.38
646.46	1875.94
646.65	1673.19
646.84	1746.92
647.03	1681.38
647.22	1683.43
647.40	1734.63
647.59	1673.19
647.78	1605.61
647.97	1671.14
648.16	1642.47
648.35	1816.55
648.54	1779.68
648.73	1656.81
648.91	1755.11
649.10	1718.25
649.29	1677.29
649.48	1681.38
649.67	1759.21
649.86	1662.95
650.05	1742.82
650.23	1765.35
650.42	1603.56
650.61	1759.21
650.80	1705.96
650.99	1771.49
651.18	1738.73
651.36	1718.25
651.55	1708.01
651.74	1808.36
651.93	1652.71
652.12	1777.64
652.31	1658.85
652.49	1642.47
652.68	1624.04
652.87	1802.21
653.06	1767.40
653.25	1753.06
653.44	1720.29
653.62	1787.88
653.81	1751.01
654.00	1714.15
654.19	1693.67
654.38	1796.07
654.56	1753.06
654.75	1669.09
654.94	1746.92
655.13	1773.54
655.32	1691.62
655.51	1695.72
655.69	1720.29
655.88	1822.69
656.07	1646.57
656.26	1742.82
656.45	1679.33
656.63	1697.77
656.82	1677.29
657.01	1789.92
657.20	1695.72
657.38	1857.51
657.57	1722.34
657.76	1605.61
657.95	1763.30
658.14	1642.47
658.32	1734.63
658.51	1646.57
658.70	1755.11
658.89	1773.54
659.08	1652.71
659.26	1769.44
659.45	1660.90
659.64	1722.34
659.83	1710.05
660.01	1949.67
660.20	1701.86
660.39	1820.64
660.58	1722.34
660.76	1703.91
660.95	1662.95
661.14	1648.61
661.33	1619.94
661.51	1755.11
661.70	1716.20
661.89	1738.73
662.08	1667.05
662.26	1650.66
662.45	1632.23
662.64	1757.16
662.83	1781.73
663.01	1656.81
663.20	1730.53
663.39	1751.01
663.58	1636.33
663.76	1640.42
663.95	1773.54
664.14	1648.61
664.32	1628.14
664.51	1753.06
664.70	1617.90
664.89	1755.11
665.07	1626.09
665.26	1703.91
665.45	1650.66
665.64	1660.90
665.82	1722.34
666.01	1804.26
666.20	1648.61
666.38	1828.84
666.57	1845.22
666.76	2238.43
666.95	4587.45
667.13	10561.37
667.32	15492.88
667.51	18439.91
667.69	19453.66
667.88	18038.51
668.07	12697.41
668.25	9764.72
668.44	8200.07
668.63	7372.69
668.81	7045.01
669.00	6387.61
669.19	5746.60
669.38	5091.25
669.56	4620.22
669.75	4073.41
669.94	3401.68
670.12	2869.20
670.31	2488.28
670.50	2295.77
670.68	2039.78
670.87	1865.70
671.06	1818.60
671.24	1798.12
671.43	1828.84
671.62	1726.44
671.80	1685.48
671.99	1787.88
672.18	1710.05
672.36	1775.59
672.55	1755.11
672.74	1740.77
672.92	1751.01
673.11	1767.40
673.29	1675.24
673.48	1767.40
673.67	1732.58
673.85	1779.68
674.04	1613.80
674.23	1703.91
674.41	1767.40
674.60	1677.29
674.79	1619.94
674.97	1646.57
675.16	1757.16
675.34	1732.58
675.53	1677.29
675.72	1716.20
675.90	1755.11
676.09	1687.53
676.28	1693.67
676.46	1705.96
676.65	1701.86
676.83	1587.18
677.02	1683.43
677.21	1654.76
677.39	1708.01
677.58	1683.43
677.77	1679.33
677.95	1615.85
678.14	1644.52
678.32	1751.01
678.51	1640.42
678.70	1771.49
678.88	1665.00
679.07	1730.53
679.25	1652.71
679.44	1697.77
679.63	1689.57
679.81	1753.06
680.00	1757.16
680.18	1748.97
680.37	1751.01
680.55	1697.77
680.74	1658.85
680.93	1533.93
681.11	1671.14
681.30	1693.67
681.48	1722.34
681.67	1695.72
681.85	1738.73
682.04	1734.63
682.23	1767.40
682.41	1789.92
682.60	1650.66
682.78	1730.53
682.97	1599.46
683.15	1728.49
683.34	1648.61
683.53	1775.59
683.71	1685.48
683.90	1757.16
684.08	1746.92
684.27	1740.77
684.45	1693.67
684.64	1740.77
684.82	1665.00
685.01	1716.20
685.19	1632.23
685.38	1781.73
685.57	1667.05
685.75	1716.20
685.94	1716.20
686.12	1665.00
686.31	1642.47
686.49	1771.49
686.68	1621.99
686.86	1644.52
687.05	1628.14
687.23	1779.68
687.42	1646.57
687.60	1613.80
687.79	1759.21
687.97	1806.31
688.16	1832.93
688.34	1798.12
688.53	1638.38
688.71	1679.33
688.90	1796.07
689.08	1732.58
689.27	1632.23
689.45	1763.30
689.64	1728.49
689.82	1720.29
690.01	1736.68
690.19	1662.95
690.38	1763.30
690.56	1720.29
690.75	1687.53
690.93	1720.29
691.12	1617.90
691.30	1646.57
691.49	1669.09
691.67	1673.19
691.86	1820.64
692.04	1689.57
692.23	1708.01
692.41	1705.96
692.60	1789.92
692.78	1787.88
692.97	1619.94
693.15	1697.77
693.34	1796.07
693.52	1771.49
693.71	1638.38
693.89	1705.96
694.08	1687.53
694.26	1816.55
694.44	1763.30
694.63	1746.92
694.81	1607.66
695.00	1716.20
695.18	1773.54
695.37	1828.84
695.55	1734.63
695.74	1673.19
695.92	1658.85
696.10	1720.29
696.29	1619.94
696.47	1640.42
696.66	1667.05
696.84	1615.85
697.03	1730.53
697.21	1841.12
697.40	2246.62
697.58	1777.64
697.76	1693.67
697.95	1648.61
698.13	1679.33
698.32	1689.57
698.50	1728.49
698.68	1769.44
698.87	1714.15
699.05	1806.31
699.24	1714.15
699.42	1660.90
699.61	1705.96
699.79	1738.73
699.97	1779.68
700.16	1599.46
700.34	1599.46
700.53	1716.20
700.71	1730.53
700.89	1732.58
701.08	1705.96
701.26	1740.77
701.45	2156.51
701.63	1626.09
701.81	1665.00
702.00	1685.48
702.18	1665.00
702.37	1691.62
702.55	1679.33
702.73	1738.73
702.92	1638.38
703.10	1685.48
703.28	1714.15
703.47	1591.27
703.65	1773.54
703.84	1687.53
704.02	1634.28
704.20	1802.21
704.39	1683.43
704.57	1685.48
704.75	1736.68
704.94	1720.29
705.12	1763.30
705.30	1767.40
705.49	2146.27
705.67	4552.63
705.86	9734.00
706.04	13098.81
706.22	14931.74
706.41	15769.36
706.59	14513.95
706.77	9824.11
706.96	7587.72
707.14	6885.27
707.32	6027.17
707.51	5642.15
707.69	5027.76
707.87	4286.40
708.06	3583.95
708.24	2920.40
708.42	2432.99
708.61	2267.10
708.79	1961.95
708.97	1890.28
709.16	1855.46
709.34	1841.12
709.52	1708.01
709.71	1708.01
709.89	1748.97
710.07	1689.57
710.26	1626.09
710.44	1730.53
710.62	1671.14
710.80	1662.95
710.99	1785.83
711.17	1755.11
711.35	1646.57
711.54	1665.00
711.72	1804.26
711.90	1730.53
712.09	1755.11
712.27	1708.01
712.45	1806.31
712.63	1722.34
712.82	1736.68
713.00	1630.18
713.18	1746.92
713.37	1744.87
713.55	1804.26
713.73	1816.55
713.91	1712.10
714.10	1681.38
714.28	1738.73
714.46	1724.39
714.65	1673.19
714.83	1724.39
715.01	1751.01
715.19	1697.77
715.38	1576.94
715.56	1767.40
715.74	1613.80
715.92	1615.85
716.11	1740.77
716.29	1669.09
716.47	1687.53
716.65	1652.71
716.84	1609.70
717.02	1669.09
717.20	1654.76
717.38	1632.23
717.57	1740.77
717.75	1720.29
717.93	1671.14
718.11	1681.38
718.30	1646.57
718.48	1732.58
718.66	1724.39
718.84	1710.05
719.03	1665.00
719.21	1710.05
719.39	1785.83
719.57	1740.77
719.75	1834.98
719.94	1697.77
720.12	1644.52
720.30	1701.86
720.48	1714.15
720.67	1691.62
720.85	1714.15
721.03	1730.53
721.21	1652.71
721.39	1781.73
721.58	1695.72
721.76	1685.48
721.94	1746.92
722.12	1718.25
722.30	1716.20
722.49	1662.95
722.67	1728.49
722.85	1691.62
723.03	1644.52
723.21	1638.38
723.40	1753.06
723.58	1816.55
723.76	1734.63
723.94	1724.39
724.12	1705.96
724.30	1687.53
724.49	1718.25
724.67	1593.32
724.85	1826.79
725.03	1576.94
725.21	1671.14
725.40	1755.11
725.58	1603.56
725.76	1796.07
725.94	1681.38
726.12	1615.85
726.30	1683.43
726.49	1665.00
726.67	1617.90
726.85	1767.40
727.03	1798.12
727.21	2121.70
727.39	2901.97
727.57	3932.10
727.76	4222.91
727.94	4423.61
728.12	4376.51
728.30	3676.10
728.48	2906.07
728.66	2781.14
728.84	2566.10
729.03	2398.17
729.21	2101.22
729.39	1949.67
729.57	1845.22
729.75	1826.79
729.93	1839.08
730.11	1730.53
730.30	1595.37
730.48	1759.21
730.66	1787.88
730.84	1789.92
731.02	1744.87
731.20	1673.19
731.38	1718.25
731.56	1607.66
731.74	1656.81
731.93	1693.67
732.11	1652.71
732.29	1652.71
732.47	1697.77
732.65	1722.34
732.83	1781.73
733.01	1699.81
733.19	1701.86
733.37	1722.34
733.56	1765.35
733.74	1724.39
733.92	1785.83
734.10	1669.09
734.28	1681.38
734.46	1705.96
734.64	1675.24
734.82	1703.91
735.00	1685.48
735.18	1648.61
735.36	1677.29
735.54	1652.71
735.73	1689.57
735.91	1769.44
736.09	1712.10
736.27	1714.15
736.45	1705.96
736.63	1609.70
736.81	1761.25
736.99	1775.59
737.17	1753.06
737.35	1730.53
737.53	1650.66
737.71	1640.42
737.89	1812.45
738.07	1632.23
738.25	1632.23
738.43	1671.14
738.61	1687.53
738.80	1589.22
738.98	1675.24
739.16	1683.43
739.34	1644.52
739.52	1695.72
739.70	1572.84
739.88	1804.26
740.06	1777.64
740.24	1607.66
740.42	1740.77
740.60	1533.93
740.78	1693.67
740.96	1628.14
741.14	1746.92
741.32	1763.30
741.50	1546.22
741.68	1814.50
741.86	1849.32
742.04	1677.29
742.22	1634.28
742.40	1667.05
742.58	1699.81
742.76	1632.23
742.94	1822.69
743.12	1605.61
743.30	1712.10
743.48	1761.25
743.66	1599.46
743.84	1787.88
744.02	1689.57
744.20	1658.85
744.38	1642.47
744.56	1601.51
744.74	1810.40
744.92	1714.15
745.10	1787.88
745.28	1746.92
745.46	1771.49
745.64	1691.62
745.82	1746.92
746.00	1683.43
746.18	1837.03
746.36	1603.56
746.54	1689.57
746.72	1701.86
746.90	1628.14
747.08	1753.06
747.26	1687.53
747.44	1712.10
747.62	1683.43
747.80	1718.25
747.98	1734.63
748.15	1701.86
748.33	1798.12
748.51	1724.39
748.69	1705.96
748.87	1646.57
749.05	1724.39
749.23	1689.57
749.41	1767.40
749.59	1669.09
749.77	1736.68
749.95	1667.05
750.13	1658.85
750.31	1763.30
750.49	1695.72
750.67	1767.40
750.85	1765.35
751.03	1697.77
751.20	1800.16
751.38	1679.33
751.56	1652.71
751.74	1646.57
751.92	1665.00
752.10	1634.28
752.28	1734.63
752.46	1595.37
752.64	1736.68
752.82	1667.05
753.00	1736.68
753.18	1695.72
753.35	1687.53
753.53	1675.24
753.71	1675.24
753.89	1779.68
754.07	1673.19
754.25	1771.49
754.43	1736.68
754.61	1642.47
754.79	1751.01
754.97	1675.24
755.14	1800.16
755.32	1624.04
755.50	1738.73
755.68	1748.97
755.86	1626.09
756.04	1675.24
756.22	1597.42
756.40	1738.73
756.57	1861.60
756.75	1648.61
756.93	1742.82
757.11	1746.92
757.29	1734.63
757.47	1630.18
757.65	1595.37
757.82	1640.42
758.00	1683.43
758.18	1630.18
758.36	1648.61
758.54	1796.07
758.72	1693.67
758.90	1794.02
759.07	1767.40
759.25	1683.43
759.43	1738.73
759.61	1675.24
759.79	2220.00
759.97	1689.57
760.15	1640.42
760.32	1665.00
760.50	1683.43
760.68	1806.31
760.86	1601.51
761.04	1718.25
761.22	1808.36
761.39	1759.21
761.57	1673.19
761.75	1722.34
761.93	1710.05
762.11	1734.63
762.28	1681.38
762.46	1648.61
762.64	1753.06
762.82	1687.53
763.00	1685.48
763.18	1757.16
763.35	1646.57
763.53	1708.01
763.71	1611.75
763.89	1736.68
764.07	1716.20
764.24	1658.85
764.42	1791.97
764.60	1673.19
764.78	1730.53
764.96	1746.92
765.13	1763.30
765.31	1738.73
765.49	1751.01
765.67	1632.23
765.84	1624.04
766.02	1677.29
766.20	1681.38
766.38	1722.34
766.56	1757.16
766.73	1712.10
766.91	1675.24
767.09	1689.57
767.27	1744.87
767.44	1628.14
767.62	1703.91
767.80	1656.81
767.98	1669.09
768.15	1697.77
768.33	1845.22
768.51	1773.54
768.69	1646.57
768.87	1671.14
769.04	1738.73
769.22	1804.26
769.40	1740.77
769.58	1834.98
769.75	1693.67
769.93	1869.80
770.11	1646.57
770.28	1708.01
770.46	1734.63
770.64	1724.39
770.82	1732.58
770.99	1642.47
771.17	1722.34
771.35	1628.14
771.53	1724.39
771.70	1669.09
771.88	1695.72
772.06	1710.05
772.23	1730.53
772.41	1736.68
772.59	1722.34
772.77	1607.66
772.94	1695.72
773.12	1714.15
773.30	1652.71
773.47	1697.77
773.65	1681.38
773.83	1783.78
774.01	1652.71
774.18	1685.48
774.36	1691.62
774.54	1570.79
774.71	1681.38
774.89	1671.14
775.07	1632.23
775.24	1675.24
775.42	1621.99
775.60	1746.92
775.78	1660.90
775.95	1574.89
776.13	1605.61
776.31	1554.41
776.48	1658.85
776.66	1742.82
776.84	1626.09
777.01	1624.04
777.19	1585.13
777.37	1689.57
777.54	1656.81
777.72	1810.40
777.90	1736.68
778.07	1615.85
778.25	1894.37
778.43	1748.97
778.60	1712.10
778.78	1804.26
778.96	1724.39
779.13	1632.23
779.31	1742.82
779.49	1685.48
779.66	1671.14
779.84	1718.25
780.01	1687.53
780.19	1675.24
780.37	1798.12
780.54	1716.20
780.72	1650.66
780.90	1636.33
781.07	1619.94
781.25	1755.11
781.43	1714.15
781.60	1648.61
781.78	1787.88
781.95	1759.21
782.13	1626.09
782.31	1683.43
782.48	1542.12
782.66	1703.91
782.83	1798.12
783.01	1656.81
783.19	1699.81
783.36	1669.09
783.54	1650.66
783.72	1759.21
783.89	1646.57
784.07	1730.53
784.24	1652.71
784.42	1824.74
784.60	1740.77
784.77	1710.05
784.95	1550.31
785.12	1699.81
785.30	1673.19
785.47	1697.77
785.65	1654.76
785.83	1626.09
786.00	1662.95
786.18	1722.34
786.35	1640.42
786.53	1687.53
786.71	1722.34
786.88	1654.76
787.06	1681.38
787.23	1744.87
787.41	1669.09
787.58	1665.00
787.76	1646.57
787.94	1703.91
788.11	1720.29
788.29	1667.05
788.46	1701.86
788.64	1593.32
788.81	1632.23
788.99	1685.48
789.16	1683.43
789.34	1691.62
789.52	1642.47
789.69	1644.52
789.87	1568.74
790.04	1658.85
790.22	1697.77
790.39	1794.02
790.57	1660.90
790.74	1619.94
790.92	1726.44
791.09	1656.81
791.27	1794.02
791.44	1781.73
791.62	1656.81
791.79	1712.10
791.97	1648.61
792.15	1888.23
792.32	1742.82
792.50	1789.92
792.67	1781.73
792.85	1626.09
793.02	1658.85
793.20	1642.47
793.37	1607.66
793.55	1621.99
793.72	1621.99
793.90	1736.68
794.07	1615.85
794.25	1644.52
794.42	1746.92
794.60	1701.86
794.77	1726.44
794.95	1773.54
795.12	1775.59
795.30	1677.29
795.47	1603.56
795.65	1834.98
795.82	1744.87
796.00	1714.15
796.17	1679.33
796.34	1644.52
796.52	1761.25
796.69	1738.73
796.87	1753.06
797.04	1724.39
797.22	1697.77
797.39	1697.77
797.57	1796.07
797.74	1665.00
797.92	1701.86
798.09	1665.00
798.27	1728.49
798.44	1732.58
798.62	1667.05
798.79	1646.57
798.96	1634.28
799.14	1736.68
799.31	1824.74
799.49	1673.19
799.66	1619.94
799.84	1746.92
800.01	1621.99
800.19	1599.46
800.36	1599.46
800.53	1716.20
800.71	1677.29
800.88	1726.44
801.06	1591.27
801.23	1662.95
801.41	1763.30
801.58	1656.81
801.75	1693.67
801.93	1687.53
802.10	1736.68
802.28	1689.57
802.45	1646.57
802.63	1738.73
802.80	1763.30
802.97	1658.85
803.15	1724.39
803.32	1691.62
803.50	1718.25
803.67	1650.66
803.84	1548.26
804.02	1716.20
804.19	1583.08
804.37	1634.28
804.54	1619.94
804.71	1662.95
804.89	1693.67
805.06	1697.77
805.24	1744.87
805.41	1677.29
805.58	1650.66
805.76	1810.40
805.93	1683.43
806.10	1718.25
806.28	1681.38
806.45	1773.54
806.63	1732.58
806.80	1648.61
806.97	1726.44
807.15	1662.95
807.32	1714.15
807.49	1652.71
807.67	1599.46
807.84	1771.49
808.01	1597.42
808.19	1863.65
808.36	1816.55
808.54	1632.23
808.71	1636.33
808.88	1751.01
809.06	1753.06
809.23	1781.73
809.40	1642.47
809.58	1730.53
809.75	1691.62
809.92	1644.52
810.10	1755.11
810.27	1671.14
810.44	1703.91
810.62	1722.34
810.79	1748.97
810.96	1718.25
811.14	1697.77
811.31	1775.59
811.48	1785.83
811.66	1685.48
811.83	1763.30
812.00	1662.95
812.18	1683.43
812.35	1757.16
812.52	1675.24
812.69	1601.51
812.87	1669.09
813.04	1675.24
813.21	1656.81
813.39	1605.61
813.56	1626.09
813.73	1716.20
813.91	1689.57
814.08	1675.24
814.25	1701.86
814.42	1632.23
814.60	1656.81
814.77	1656.81
814.94	1677.29
815.12	1658.85
815.29	1771.49
815.46	1701.86
815.63	1644.52
815.81	1751.01
815.98	1748.97
816.15	1671.14
816.33	1722.34
816.50	1632.23
816.67	1677.29
816.84	1687.53
817.02	1673.19
817.19	1609.70
817.36	1751.01
817.53	1714.15
817.71	1611.75
817.88	1746.92
818.05	1677.29
818.22	1701.86
818.40	1755.11
818.57	1800.16
818.74	1703.91
818.91	1689.57
819.09	1806.31
819.26	1732.58
819.43	1652.71
819.60	1658.85
819.78	1755.11
819.95	1781.73
820.12	1667.05
820.29	1818.60
820.47	1742.82
820.64	1675.24
820.81	1619.94
820.98	1599.46
821.15	1705.96
821.33	1746.92
821.50	1673.19
821.67	1757.16
821.84	1667.05
822.02	1726.44
822.19	1642.47
822.36	1787.88
822.53	1636.33
822.70	1718.25
822.88	1665.00
823.05	1759.21
823.22	1759.21
823.39	1732.58
823.56	1652.71
823.74	1742.82
823.91	1599.46
824.08	1640.42
824.25	1601.51
824.42	1812.45
824.60	1535.98
824.77	1656.81
824.94	1652.71
825.11	1646.57
825.28	1640.42
825.45	1714.15
825.63	1751.01
825.80	1677.29
825.97	1722.34
826.14	1681.38
826.31	1605.61
826.48	1695.72
826.66	1603.56
826.83	1581.03
827.00	1705.96
827.17	1552.36
827.34	1628.14
827.51	1626.09
827.69	1689.57
827.86	1636.33
828.03	1648.61
828.20	1644.52
828.37	1748.97
828.54	1681.38
828.71	1578.98
828.89	1839.08
829.06	1667.05
829.23	1785.83
829.40	1607.66
829.57	1658.85
829.74	1734.63
829.91	1718.25
830.09	1703.91
830.26	1742.82
830.43	1830.88
830.60	1710.05
830.77	1695.72
830.94	1665.00
831.11	1730.53
831.28	1683.43
831.46	1830.88
831.63	1640.42
831.80	1703.91
831.97	1607.66
832.14	1675.24
832.31	1714.15
832.48	1734.63
832.65	1714.15
832.82	1757.16
832.99	1720.29
833.17	1632.23
833.34	1753.06
833.51	1781.73
833.68	1599.46
833.85	1710.05
834.02	1619.94
834.19	1599.46
834.36	1677.29
834.53	1613.80
834.70	1738.73
834.87	1785.83
835.04	1630.18
835.22	1675.24
835.39	1687.53
835.56	1669.09
835.73	1714.15
835.90	1742.82
836.07	1689.57
836.24	1687.53
836.41	1673.19
836.58	1646.57
836.75	1779.68
836.92	1710.05
837.09	1642.47
837.26	1781.73
837.43	1705.96
837.60	1730.53
837.77	1521.64
837.94	1814.50
838.12	1789.92
838.29	1712.10
838.46	1630.18
838.63	1572.84
838.80	1777.64
838.97	1722.34
839.14	1730.53
839.31	1665.00
839.48	1785.83
839.65	1675.24
839.82	1691.62
839.99	1685.48
840.16	1718.25
840.33	1710.05
840.50	1740.77
840.67	1671.14
840.84	1601.51
841.01	1761.25
841.18	1728.49
841.35	1693.67
841.52	1734.63
841.69	1798.12
841.86	1748.97
842.03	1675.24
842.20	1703.91
842.37	1701.86
842.54	1730.53
842.71	1738.73
842.88	1595.37
843.05	1757.16
843.22	1662.95
843.39	1634.28
843.56	1603.56
843.73	1650.66
843.90	1716.20
844.07	1665.00
844.24	1746.92
844.41	1724.39
844.58	1701.86
844.75	1662.95
844.92	1679.33
845.09	1636.33
845.26	1599.46
845.43	1730.53
845.60	1640.42
845.77	1812.45
845.94	1787.88
846.10	1746.92
846.27	1591.27
846.44	1587.18
846.61	1683.43
846.78	1656.81
846.95	1814.50
847.12	1693.67
847.29	1652.71
847.46	1697.77
847.63	1677.29
847.80	1626.09
847.97	1677.29
848.14	1828.84
848.31	1691.62
848.48	1601.51
848.65	1732.58
848.82	1648.61
848.98	1855.46
849.15	1703.91
849.32	1728.49
849.49	1746.92
849.66	1667.05
849.83	1681.38
850.00	1705.96
850.17	1628.14
850.34	1632.23
850.51	1687.53
850.68	1722.34
850.85	1773.54
851.01	1640.42
851.18	1705.96
851.35	1710.05
851.52	1693.67
851.69	1834.98
851.86	1572.84
852.03	1716.20
852.20	1621.99
852.37	1710.05
852.53	1572.84
852.70	1746.92
852.87	1636.33
853.04	1722.34
853.21	1646.57
853.38	1718.25
853.55	1808.36
853.72	1744.87
853.89	1640.42
854.05	1673.19
854.22	1648.61
854.39	1679.33
854.56	1716.20
854.73	1779.68
854.90	1595.37
855.07	1632.23
855.23	1648.61
855.40	1779.68
855.57	1748.97
855.74	1558.50
855.91	1808.36
856.08	1640.42
856.25	1677.29
856.41	1728.49
856.58	1662.95
856.75	1626.09
856.92	1640.42
857.09	1681.38
857.26	1689.57
857.42	1619.94
857.59	1738.73
857.76	1632.23
857.93	1683.43
858.10	1708.01
858.27	1613.80
858.43	1714.15
858.60	1605.61
858.77	1523.69
858.94	1621.99
859.11	1767.40
859.27	1701.86
859.44	1705.96
859.61	1755.11
859.78	1699.81
859.95	1681.38
860.12	1703.91
860.28	1791.97
860.45	1798.12
860.62	1673.19
860.79	1699.81
860.95	1697.77
861.12	1597.42
861.29	1679.33
861.46	1613.80
861.63	1648.61
861.79	1695.72
861.96	1701.86
862.13	1589.22
862.30	1751.01
862.47	1665.00
862.63	1607.66
862.80	1767.40
862.97	1656.81
863.14	1675.24
863.30	1681.38
863.47	1703.91
863.64	1738.73
863.81	1646.57
863.97	1669.09
864.14	1693.67
864.31	1667.05
864.48	1689.57
864.65	1665.00
864.81	1771.49
864.98	1632.23
865.15	1677.29
865.32	1716.20
865.48	1722.34
865.65	1820.64
865.82	1673.19
865.98	1652.71
866.15	1730.53
866.32	1710.05
866.49	1757.16
866.65	1714.15
866.82	1636.33
866.99	1726.44
867.16	1611.75
867.32	1665.00
867.49	1681.38
867.66	1738.73
867.83	1648.61
867.99	1609.70
868.16	1710.05
868.33	1609.70
868.49	1697.77
868.66	1685.48
868.83	1728.49
868.99	1683.43
869.16	1765.35
869.33	1759.21
869.50	1724.39
869.66	1611.75
869.83	1679.33
870.00	1646.57
870.16	1699.81
870.33	1648.61
870.50	1779.68
870.66	1726.44
870.83	1796.07
871.00	1740.77
871.17	1771.49
871.33	1714.15
871.50	1689.57
871.67	1634.28
871.83	1583.08
872.00	1841.12
872.17	1675.24
872.33	1748.97
872.50	1697.77
872.67	1660.90
872.83	1673.19
873.00	1695.72
873.17	1691.62
873.33	1638.38
873.50	1636.33
873.67	1619.94
873.83	1697.77
874.00	1624.04
874.16	1787.88
874.33	1636.33
874.50	1628.14
874.66	1710.05
874.83	1724.39
875.00	1685.48
875.16	1705.96
875.33	1794.02
875.50	1648.61
875.66	1667.05
875.83	1646.57
875.99	1712.10
876.16	1583.08
876.33	1603.56
876.49	1673.19
876.66	1718.25
876.83	1644.52
876.99	1671.14
877.16	1683.43
877.32	1722.34
877.49	1681.38
877.66	1697.77
877.82	1832.93
877.99	1716.20
878.15	1695.72
878.32	1708.01
878.49	1763.30
878.65	1638.38
878.82	1775.59
878.98	1599.46
879.15	1773.54
879.32	1724.39
879.48	1669.09
879.65	1667.05
879.81	1646.57
879.98	1734.63
880.15	1587.18
880.31	1738.73
880.48	1648.61
880.64	1751.01
880.81	1693.67
880.97	1767.40
881.14	1714.15
881.31	1648.61
881.47	1763.30
881.64	1665.00
881.80	1597.42
881.97	1705.96
882.13	1771.49
882.30	1650.66
882.47	1669.09
882.63	1621.99
882.80	1681.38
882.96	1712.10
883.13	1769.44
883.29	1669.09
883.46	1734.63
883.62	1744.87
883.79	1677.29
883.95	1722.34
884.12	1722.34
884.29	1761.25
884.45	1671.14
884.62	1705.96
884.78	1632.23
884.95	1742.82
885.11	1656.81
885.28	1693.67
885.44	1681.38
885.61	1734.63
885.77	1685.48
885.94	1695.72
886.10	1681.38
886.27	1724.39
886.43	1845.22
886.60	1759.21
886.76	1611.75
886.93	1638.38
887.09	1722.34
887.26	1652.71
887.42	1630.18
887.59	1755.11
887.75	1755.11
887.92	1746.92
888.08	1708.01
888.25	1697.77
888.41	1724.39
888.58	1716.20
888.74	1634.28
888.91	1656.81
>>>>>End Processed Spectral Data<<<<<
