SpectraSuite Data File
++++++++++++++++++++++++++++++++++++
Date: Mon Jun 06 16:25:37 CEST 2016
User: root
Dark Spectrum Present: No
Reference Spectrum Present: No
Number of Sampled Component Spectra: 1
Spectrometers: USB4C02835
Integration Time (usec): 100000 (USB4C02835)
Spectra Averaged: 1 (USB4C02835)
Boxcar Smoothing: 0 (USB4C02835)
Correct for Electrical Dark: No (USB4C02835)
Strobe/Lamp Enabled: No (USB4C02835)
Correct for Detector Non-linearity: No (USB4C02835)
Correct for Stray Light: No (USB4C02835)
Number of Pixels in Processed Spectrum: 3648
>>>>>Begin Processed Spectral Data<<<<<
177.47	1525.74
177.69	1525.74
177.91	1525.74
178.13	1476.59
178.36	1480.68
178.58	1677.29
178.80	1779.68
179.02	1550.31
179.24	1675.24
179.46	1683.43
179.68	1699.81
179.90	1687.53
180.13	1669.09
180.35	1699.81
180.57	1665.00
180.79	1753.06
181.01	1689.57
181.23	1787.88
181.45	1796.07
181.67	1738.73
181.90	1722.34
182.12	1710.05
182.34	1638.38
182.56	1755.11
182.78	1720.29
183.00	1734.63
183.22	1693.67
183.44	1669.09
183.66	1882.08
183.89	1812.45
184.11	1601.51
184.33	1736.68
184.55	1779.68
184.77	1714.15
184.99	1820.64
185.21	1665.00
185.43	1867.75
185.65	1730.53
185.87	1638.38
186.10	1812.45
186.32	1794.02
186.54	1755.11
186.76	1757.16
186.98	1765.35
187.20	1652.71
187.42	1628.14
187.64	1718.25
187.86	1779.68
188.08	1689.57
188.30	1732.58
188.52	1593.32
188.75	1794.02
188.97	1814.50
189.19	1722.34
189.41	1648.61
189.63	1804.26
189.85	1697.77
190.07	1746.92
190.29	1638.38
190.51	1718.25
190.73	1671.14
190.95	1781.73
191.17	1689.57
191.39	1640.42
191.61	1654.76
191.84	1771.49
192.06	1732.58
192.28	1638.38
192.50	1920.99
192.72	1705.96
192.94	1718.25
193.16	1751.01
193.38	1726.44
193.60	1697.77
193.82	1771.49
194.04	1675.24
194.26	1742.82
194.48	1695.72
194.70	1714.15
194.92	1730.53
195.14	1761.25
195.36	1665.00
195.58	1703.91
195.80	1691.62
196.02	1689.57
196.24	1669.09
196.46	1685.48
196.69	1683.43
196.91	1839.08
197.13	1673.19
197.35	1689.57
197.57	1701.86
197.79	1779.68
198.01	1683.43
198.23	1783.78
198.45	1734.63
198.67	1638.38
198.89	1628.14
199.11	1710.05
199.33	1628.14
199.55	1542.12
199.77	1710.05
199.99	1783.78
200.21	1673.19
200.43	1722.34
200.65	1683.43
200.87	1665.00
201.09	1773.54
201.31	1687.53
201.53	1738.73
201.75	1759.21
201.97	1740.77
202.19	1722.34
202.41	1705.96
202.63	1791.97
202.85	1642.47
203.07	1730.53
203.29	1710.05
203.51	1669.09
203.73	1609.70
203.95	1855.46
204.17	1744.87
204.39	1712.10
204.61	1726.44
204.83	1630.18
205.05	1814.50
205.27	1783.78
205.49	1828.84
205.71	1763.30
205.93	1615.85
206.15	1708.01
206.37	1726.44
206.59	1697.77
206.81	1660.90
207.03	1638.38
207.25	1667.05
207.47	1763.30
207.69	1746.92
207.91	1806.31
208.13	1755.11
208.34	1703.91
208.56	1683.43
208.78	1769.44
209.00	1665.00
209.22	1751.01
209.44	1656.81
209.66	1796.07
209.88	1722.34
210.10	1667.05
210.32	1691.62
210.54	1787.88
210.76	1665.00
210.98	1800.16
211.20	1566.70
211.42	1781.73
211.64	1759.21
211.86	1834.98
212.08	1767.40
212.30	1746.92
212.52	1693.67
212.74	1771.49
212.96	1746.92
213.17	1812.45
213.39	1726.44
213.61	1847.27
213.83	1718.25
214.05	1665.00
214.27	1755.11
214.49	1669.09
214.71	1654.76
214.93	1710.05
215.15	1771.49
215.37	1689.57
215.59	1642.47
215.81	1693.67
216.03	1701.86
216.24	1746.92
216.46	1722.34
216.68	1783.78
216.90	1763.30
217.12	1681.38
217.34	1708.01
217.56	1748.97
217.78	1820.64
218.00	1794.02
218.22	1705.96
218.44	1726.44
218.66	1687.53
218.87	1796.07
219.09	1681.38
219.31	1677.29
219.53	1742.82
219.75	1701.86
219.97	1669.09
220.19	1738.73
220.41	1689.57
220.63	1740.77
220.85	1769.44
221.06	1681.38
221.28	1796.07
221.50	1738.73
221.72	1765.35
221.94	1724.39
222.16	1710.05
222.38	1708.01
222.60	1738.73
222.82	1701.86
223.03	1689.57
223.25	1617.90
223.47	1730.53
223.69	1808.36
223.91	1847.27
224.13	1693.67
224.35	1701.86
224.57	1730.53
224.78	1697.77
225.00	1628.14
225.22	1648.61
225.44	1687.53
225.66	1630.18
225.88	1726.44
226.10	1837.03
226.32	1699.81
226.53	1824.74
226.75	1701.86
226.97	1716.20
227.19	1693.67
227.41	1710.05
227.63	1658.85
227.85	1599.46
228.06	1744.87
228.28	1691.62
228.50	1781.73
228.72	1681.38
228.94	1718.25
229.16	1589.22
229.37	1621.99
229.59	1611.75
229.81	1742.82
230.03	1669.09
230.25	1615.85
230.47	1716.20
230.69	1728.49
230.90	1730.53
231.12	1720.29
231.34	1767.40
231.56	1779.68
231.78	1638.38
232.00	1753.06
232.21	1740.77
232.43	1615.85
232.65	1624.04
232.87	1767.40
233.09	1691.62
233.30	1716.20
233.52	1693.67
233.74	1716.20
233.96	1689.57
234.18	1783.78
234.40	1798.12
234.61	1845.22
234.83	1636.33
235.05	1652.71
235.27	1837.03
235.49	1845.22
235.70	1667.05
235.92	1830.88
236.14	1714.15
236.36	1791.97
236.58	1626.09
236.79	1744.87
237.01	1695.72
237.23	1742.82
237.45	1884.13
237.67	1724.39
237.88	1667.05
238.10	1855.46
238.32	1630.18
238.54	1693.67
238.76	1796.07
238.97	1632.23
239.19	1718.25
239.41	1802.21
239.63	1779.68
239.85	1665.00
240.06	1681.38
240.28	1744.87
240.50	1779.68
240.72	1681.38
240.93	1714.15
241.15	1714.15
241.37	1712.10
241.59	1767.40
241.81	1705.96
242.02	1775.59
242.24	1673.19
242.46	1714.15
242.68	1642.47
242.89	1718.25
243.11	1697.77
243.33	1685.48
243.55	1662.95
243.76	1744.87
243.98	1724.39
244.20	1712.10
244.42	1765.35
244.64	1785.83
244.85	1630.18
245.07	1595.37
245.29	1773.54
245.51	1751.01
245.72	1722.34
245.94	1740.77
246.16	1720.29
246.38	1736.68
246.59	1650.66
246.81	1708.01
247.03	1718.25
247.24	1665.00
247.46	1720.29
247.68	1675.24
247.90	1656.81
248.11	1730.53
248.33	1771.49
248.55	1724.39
248.77	1720.29
248.98	1734.63
249.20	1767.40
249.42	1708.01
249.64	1689.57
249.85	1697.77
250.07	1648.61
250.29	1789.92
250.50	1824.74
250.72	1632.23
250.94	1646.57
251.16	1865.70
251.37	1802.21
251.59	1738.73
251.81	1656.81
252.02	1751.01
252.24	1693.67
252.46	1783.78
252.68	1660.90
252.89	1669.09
253.11	1703.91
253.33	1785.83
253.54	1781.73
253.76	1681.38
253.98	1748.97
254.20	1687.53
254.41	1591.27
254.63	1675.24
254.85	1603.56
255.06	1644.52
255.28	1740.77
255.50	1708.01
255.71	1714.15
255.93	1667.05
256.15	1642.47
256.36	1771.49
256.58	1638.38
256.80	1662.95
257.02	1650.66
257.23	1771.49
257.45	1716.20
257.67	1771.49
257.88	1679.33
258.10	1742.82
258.32	1785.83
258.53	1673.19
258.75	1837.03
258.97	1744.87
259.18	1722.34
259.40	1724.39
259.62	1771.49
259.83	1761.25
260.05	1781.73
260.27	2023.39
260.48	1771.49
260.70	1648.61
260.92	1746.92
261.13	1796.07
261.35	1679.33
261.57	1775.59
261.78	1593.32
262.00	1677.29
262.22	1767.40
262.43	1693.67
262.65	1681.38
262.86	1689.57
263.08	1855.46
263.30	1759.21
263.51	1640.42
263.73	1650.66
263.95	1740.77
264.16	1662.95
264.38	1640.42
264.60	1693.67
264.81	1763.30
265.03	1783.78
265.25	1714.15
265.46	1699.81
265.68	1710.05
265.89	1724.39
266.11	1546.22
266.33	1718.25
266.54	1839.08
266.76	1703.91
266.98	1755.11
267.19	1857.51
267.41	1738.73
267.62	1671.14
267.84	1667.05
268.06	1710.05
268.27	1736.68
268.49	1767.40
268.70	1753.06
268.92	1632.23
269.14	1677.29
269.35	1667.05
269.57	1755.11
269.79	1685.48
270.00	1665.00
270.22	1880.04
270.43	1687.53
270.65	1613.80
270.87	1720.29
271.08	1740.77
271.30	1759.21
271.51	1724.39
271.73	1701.86
271.95	1759.21
272.16	1722.34
272.38	1748.97
272.59	1697.77
272.81	1773.54
273.02	1810.40
273.24	1746.92
273.46	1744.87
273.67	1675.24
273.89	1667.05
274.10	1705.96
274.32	1804.26
274.54	1703.91
274.75	1656.81
274.97	1804.26
275.18	1847.27
275.40	1714.15
275.61	1726.44
275.83	1722.34
276.05	1632.23
276.26	1712.10
276.48	1699.81
276.69	1656.81
276.91	1669.09
277.12	1820.64
277.34	1718.25
277.55	1751.01
277.77	1730.53
277.99	1652.71
278.20	1654.76
278.42	1656.81
278.63	1626.09
278.85	1685.48
279.06	1621.99
279.28	1677.29
279.49	1669.09
279.71	1800.16
279.93	1783.78
280.14	1681.38
280.36	1693.67
280.57	1783.78
280.79	1763.30
281.00	1703.91
281.22	1718.25
281.43	1740.77
281.65	1619.94
281.86	1685.48
282.08	1708.01
282.29	1839.08
282.51	1675.24
282.73	1705.96
282.94	1693.67
283.16	1699.81
283.37	1812.45
283.59	1720.29
283.80	1759.21
284.02	1669.09
284.23	1841.12
284.45	1705.96
284.66	1640.42
284.88	1740.77
285.09	1746.92
285.31	1789.92
285.52	1652.71
285.74	1632.23
285.95	1806.31
286.17	1703.91
286.38	1732.58
286.60	1660.90
286.81	1705.96
287.03	1636.33
287.24	1646.57
287.46	1759.21
287.67	1703.91
287.89	1906.66
288.10	1673.19
288.32	1753.06
288.53	1746.92
288.75	1626.09
288.96	1728.49
289.18	1689.57
289.39	1722.34
289.61	1705.96
289.82	1828.84
290.04	1722.34
290.25	1667.05
290.47	1710.05
290.68	1691.62
290.90	1689.57
291.11	1705.96
291.33	1771.49
291.54	1667.05
291.76	1679.33
291.97	1671.14
292.18	1685.48
292.40	1740.77
292.61	1701.86
292.83	1839.08
293.04	1748.97
293.26	1787.88
293.47	1714.15
293.69	1669.09
293.90	1652.71
294.12	1689.57
294.33	1634.28
294.55	1736.68
294.76	1775.59
294.97	1742.82
295.19	1886.18
295.40	1738.73
295.62	1787.88
295.83	1689.57
296.05	1703.91
296.26	1775.59
296.48	1689.57
296.69	1722.34
296.90	1685.48
297.12	1763.30
297.33	1783.78
297.55	1742.82
297.76	1734.63
297.98	1753.06
298.19	1757.16
298.41	1646.57
298.62	1601.51
298.83	1787.88
299.05	1722.34
299.26	1701.86
299.48	1724.39
299.69	1785.83
299.90	1669.09
300.12	1724.39
300.33	1767.40
300.55	1710.05
300.76	1742.82
300.98	1652.71
301.19	1703.91
301.40	1708.01
301.62	1746.92
301.83	1697.77
302.05	1703.91
302.26	1718.25
302.47	1673.19
302.69	1621.99
302.90	1794.02
303.12	1585.13
303.33	1798.12
303.54	1869.80
303.76	1722.34
303.97	1746.92
304.19	1808.36
304.40	1675.24
304.61	1767.40
304.83	1794.02
305.04	1822.69
305.26	1759.21
305.47	1734.63
305.68	1781.73
305.90	1675.24
306.11	1720.29
306.33	1673.19
306.54	1771.49
306.75	1708.01
306.97	1613.80
307.18	1632.23
307.39	1748.97
307.61	1722.34
307.82	1683.43
308.04	1755.11
308.25	1648.61
308.46	1683.43
308.68	1595.37
308.89	1746.92
309.10	1746.92
309.32	1781.73
309.53	1685.48
309.74	1710.05
309.96	1667.05
310.17	1744.87
310.39	1705.96
310.60	1726.44
310.81	1753.06
311.03	1798.12
311.24	1853.41
311.45	1705.96
311.67	1785.83
311.88	1755.11
312.09	1650.66
312.31	1632.23
312.52	1712.10
312.73	1722.34
312.95	1665.00
313.16	1624.04
313.37	1742.82
313.59	1634.28
313.80	1810.40
314.01	1812.45
314.23	1638.38
314.44	1724.39
314.65	1642.47
314.87	1681.38
315.08	1671.14
315.29	1648.61
315.51	1658.85
315.72	1646.57
315.93	1820.64
316.15	1734.63
316.36	1699.81
316.57	1781.73
316.79	1767.40
317.00	1732.58
317.21	1746.92
317.43	1636.33
317.64	1697.77
317.85	1705.96
318.07	1695.72
318.28	1771.49
318.49	1763.30
318.70	1966.05
318.92	1853.41
319.13	1816.55
319.34	1892.32
319.56	1771.49
319.77	1845.22
319.98	1810.40
320.20	1767.40
320.41	1837.03
320.62	1734.63
320.83	1605.61
321.05	1820.64
321.26	1769.44
321.47	1761.25
321.69	1744.87
321.90	1621.99
322.11	1654.76
322.32	1744.87
322.54	1798.12
322.75	1640.42
322.96	1857.51
323.18	1593.32
323.39	1656.81
323.60	1744.87
323.81	1779.68
324.03	1744.87
324.24	1726.44
324.45	1712.10
324.66	1701.86
324.88	1800.16
325.09	1832.93
325.30	1761.25
325.52	1804.26
325.73	1691.62
325.94	1675.24
326.15	1603.56
326.37	1744.87
326.58	1751.01
326.79	1789.92
327.00	1748.97
327.22	1703.91
327.43	1689.57
327.64	1634.28
327.85	1744.87
328.07	1761.25
328.28	1773.54
328.49	1636.33
328.70	1779.68
328.92	1681.38
329.13	1722.34
329.34	1787.88
329.55	1753.06
329.76	1783.78
329.98	1673.19
330.19	1742.82
330.40	1763.30
330.61	1708.01
330.83	1744.87
331.04	1665.00
331.25	1720.29
331.46	1648.61
331.68	1601.51
331.89	1785.83
332.10	1652.71
332.31	1628.14
332.52	1703.91
332.74	1798.12
332.95	1599.46
333.16	1646.57
333.37	1691.62
333.58	1683.43
333.80	1738.73
334.01	1652.71
334.22	1718.25
334.43	1593.32
334.64	1648.61
334.86	1566.70
335.07	1685.48
335.28	1785.83
335.49	1677.29
335.70	1779.68
335.92	1794.02
336.13	1822.69
336.34	1785.83
336.55	1732.58
336.76	1742.82
336.98	1550.31
337.19	1732.58
337.40	1814.50
337.61	1884.13
337.82	1699.81
338.04	1751.01
338.25	1742.82
338.46	1714.15
338.67	1615.85
338.88	1636.33
339.09	1718.25
339.31	1689.57
339.52	1667.05
339.73	1626.09
339.94	1689.57
340.15	1728.49
340.36	1691.62
340.58	1660.90
340.79	1669.09
341.00	1757.16
341.21	1591.27
341.42	1849.32
341.63	1652.71
341.85	1746.92
342.06	1701.86
342.27	1695.72
342.48	1806.31
342.69	1642.47
342.90	1736.68
343.12	1714.15
343.33	1722.34
343.54	1695.72
343.75	1732.58
343.96	1746.92
344.17	1724.39
344.38	1740.77
344.60	1644.52
344.81	1642.47
345.02	1671.14
345.23	1734.63
345.44	1832.93
345.65	1806.31
345.86	1834.98
346.07	1785.83
346.29	1644.52
346.50	1718.25
346.71	1763.30
346.92	1863.65
347.13	1822.69
347.34	1720.29
347.55	1710.05
347.76	1705.96
347.98	1689.57
348.19	1667.05
348.40	1744.87
348.61	1714.15
348.82	1767.40
349.03	1771.49
349.24	1714.15
349.45	1771.49
349.66	1607.66
349.88	1699.81
350.09	1648.61
350.30	1757.16
350.51	1775.59
350.72	1687.53
350.93	1843.17
351.14	1656.81
351.35	1783.78
351.56	1691.62
351.77	1691.62
351.99	1697.77
352.20	1765.35
352.41	1816.55
352.62	1615.85
352.83	1697.77
353.04	1818.60
353.25	1665.00
353.46	1865.70
353.67	1771.49
353.88	1638.38
354.09	1781.73
354.30	1748.97
354.52	1787.88
354.73	1699.81
354.94	1734.63
355.15	1675.24
355.36	1806.31
355.57	1675.24
355.78	1656.81
355.99	1675.24
356.20	1660.90
356.41	1730.53
356.62	1755.11
356.83	1789.92
357.04	1757.16
357.25	1632.23
357.46	1609.70
357.68	1609.70
357.89	1636.33
358.10	1738.73
358.31	1753.06
358.52	1691.62
358.73	1654.76
358.94	1693.67
359.15	1644.52
359.36	1798.12
359.57	1736.68
359.78	1689.57
359.99	1753.06
360.20	1681.38
360.41	1675.24
360.62	1712.10
360.83	1705.96
361.04	1755.11
361.25	1773.54
361.46	1765.35
361.67	1671.14
361.88	1802.21
362.09	1783.78
362.30	1751.01
362.51	1697.77
362.72	1716.20
362.93	1734.63
363.14	1755.11
363.35	1777.64
363.56	1685.48
363.78	1712.10
363.99	1734.63
364.20	1632.23
364.41	1730.53
364.62	1820.64
364.83	1742.82
365.04	1738.73
365.25	1677.29
365.46	1894.37
365.67	1718.25
365.88	1726.44
366.09	1683.43
366.30	1585.13
366.51	1751.01
366.72	1607.66
366.93	1761.25
367.14	1732.58
367.35	1810.40
367.56	1726.44
367.77	1767.40
367.98	1779.68
368.18	1763.30
368.39	1771.49
368.60	1644.52
368.81	1738.73
369.02	1677.29
369.23	1763.30
369.44	1673.19
369.65	1742.82
369.86	1757.16
370.07	1718.25
370.28	1642.47
370.49	1720.29
370.70	1738.73
370.91	1660.90
371.12	1646.57
371.33	1781.73
371.54	1671.14
371.75	1755.11
371.96	1574.89
372.17	1732.58
372.38	1681.38
372.59	1800.16
372.80	1703.91
373.01	1636.33
373.22	1718.25
373.43	1710.05
373.64	1714.15
373.85	1742.82
374.06	1771.49
374.26	1781.73
374.47	1796.07
374.68	1746.92
374.89	1697.77
375.10	1695.72
375.31	1810.40
375.52	1681.38
375.73	1656.81
375.94	1667.05
376.15	1763.30
376.36	1671.14
376.57	1740.77
376.78	1665.00
376.99	1667.05
377.20	1789.92
377.40	1710.05
377.61	1832.93
377.82	1640.42
378.03	1736.68
378.24	1761.25
378.45	1759.21
378.66	1714.15
378.87	1628.14
379.08	1636.33
379.29	1710.05
379.50	1751.01
379.71	1716.20
379.91	1767.40
380.12	1726.44
380.33	1753.06
380.54	1722.34
380.75	1679.33
380.96	1734.63
381.17	1839.08
381.38	1824.74
381.59	1689.57
381.80	1687.53
382.00	1826.79
382.21	1779.68
382.42	1837.03
382.63	1923.04
382.84	1755.11
383.05	1820.64
383.26	1855.46
383.47	1693.67
383.68	1728.49
383.88	1826.79
384.09	1775.59
384.30	1847.27
384.51	1660.90
384.72	1734.63
384.93	1609.70
385.14	1718.25
385.35	1888.23
385.55	1673.19
385.76	1753.06
385.97	1697.77
386.18	1652.71
386.39	1761.25
386.60	1693.67
386.81	1677.29
387.02	1740.77
387.22	1665.00
387.43	1794.02
387.64	1851.36
387.85	1869.80
388.06	2183.13
388.27	4227.01
388.48	6731.67
388.68	8017.80
388.89	9426.80
389.10	9699.18
389.31	8279.94
389.52	7456.65
389.73	6801.30
389.93	6203.30
390.14	5805.99
390.35	5136.31
390.56	4614.07
390.77	3764.17
390.98	3065.81
391.18	2527.19
391.39	2052.06
391.60	1853.41
391.81	1828.84
392.02	1722.34
392.23	1880.04
392.43	1804.26
392.64	1853.41
392.85	1699.81
393.06	1763.30
393.27	1722.34
393.47	1689.57
393.68	1732.58
393.89	1751.01
394.10	1748.97
394.31	1751.01
394.52	1646.57
394.72	1648.61
394.93	1826.79
395.14	1638.38
395.35	1748.97
395.56	1669.09
395.76	1736.68
395.97	1734.63
396.18	1826.79
396.39	1871.84
396.60	2062.30
396.80	1904.61
397.01	1826.79
397.22	1781.73
397.43	1898.47
397.64	1791.97
397.84	1732.58
398.05	1912.80
398.26	1775.59
398.47	1783.78
398.67	1767.40
398.88	1759.21
399.09	1820.64
399.30	1720.29
399.51	1710.05
399.71	1687.53
399.92	1703.91
400.13	1765.35
400.34	1746.92
400.54	1716.20
400.75	1837.03
400.96	1740.77
401.17	1779.68
401.37	1697.77
401.58	1712.10
401.79	1679.33
402.00	1861.60
402.21	2004.96
402.41	2007.01
402.62	2027.49
402.83	2043.87
403.04	2058.21
403.24	2176.99
403.45	1814.50
403.66	1961.95
403.87	1875.94
404.07	2025.44
404.28	1877.99
404.49	1931.23
404.70	1810.40
404.90	1773.54
405.11	1796.07
405.32	1744.87
405.52	1722.34
405.73	1720.29
405.94	1703.91
406.15	1781.73
406.35	1779.68
406.56	1708.01
406.77	1751.01
406.98	1624.04
407.18	1742.82
407.39	1818.60
407.60	1677.29
407.80	1781.73
408.01	1728.49
408.22	1714.15
408.43	1681.38
408.63	1724.39
408.84	1751.01
409.05	1789.92
409.25	1634.28
409.46	1722.34
409.67	1740.77
409.88	1642.47
410.08	1722.34
410.29	1720.29
410.50	1773.54
410.70	1665.00
410.91	1648.61
411.12	1773.54
411.32	1724.39
411.53	1675.24
411.74	1746.92
411.95	1742.82
412.15	1769.44
412.36	1779.68
412.57	1841.12
412.77	1798.12
412.98	1832.93
413.19	1710.05
413.39	1798.12
413.60	1777.64
413.81	1845.22
414.01	1667.05
414.22	1744.87
414.43	1732.58
414.63	1808.36
414.84	1849.32
415.05	1671.14
415.25	1658.85
415.46	1785.83
415.67	1697.77
415.87	1726.44
416.08	1697.77
416.29	1751.01
416.49	1751.01
416.70	1732.58
416.91	1710.05
417.11	1619.94
417.32	1771.49
417.53	1781.73
417.73	1800.16
417.94	1689.57
418.15	1765.35
418.35	1718.25
418.56	1652.71
418.77	1845.22
418.97	1765.35
419.18	1701.86
419.38	1531.88
419.59	1726.44
419.80	1777.64
420.00	1697.77
420.21	1703.91
420.42	1769.44
420.62	1794.02
420.83	1730.53
421.04	1718.25
421.24	1689.57
421.45	1738.73
421.65	1775.59
421.86	1605.61
422.07	1697.77
422.27	1681.38
422.48	1753.06
422.69	1687.53
422.89	1712.10
423.10	1724.39
423.30	1660.90
423.51	1779.68
423.72	1759.21
423.92	1728.49
424.13	1587.18
424.33	1701.86
424.54	1861.60
424.75	1703.91
424.95	1841.12
425.16	1701.86
425.36	1718.25
425.57	1822.69
425.78	1732.58
425.98	1834.98
426.19	1697.77
426.39	1648.61
426.60	1728.49
426.81	1820.64
427.01	1753.06
427.22	1714.15
427.42	1662.95
427.63	1648.61
427.83	1726.44
428.04	1783.78
428.25	1724.39
428.45	1826.79
428.66	1767.40
428.86	1669.09
429.07	1687.53
429.28	1697.77
429.48	1658.85
429.69	1646.57
429.89	1734.63
430.10	1624.04
430.30	1728.49
430.51	1822.69
430.71	1671.14
430.92	1658.85
431.13	1701.86
431.33	1771.49
431.54	1753.06
431.74	1746.92
431.95	1882.08
432.15	1693.67
432.36	1808.36
432.56	1732.58
432.77	1834.98
432.98	1841.12
433.18	1759.21
433.39	1683.43
433.59	1708.01
433.80	1806.31
434.00	1906.66
434.21	1699.81
434.41	1779.68
434.62	1828.84
434.82	1701.86
435.03	1673.19
435.23	1716.20
435.44	1660.90
435.64	1681.38
435.85	1787.88
436.06	1804.26
436.26	1853.41
436.47	1703.91
436.67	1781.73
436.88	1767.40
437.08	1775.59
437.29	1773.54
437.49	1722.34
437.70	1742.82
437.90	1724.39
438.11	1828.84
438.31	1814.50
438.52	1892.32
438.72	1859.56
438.93	1871.84
439.13	1892.32
439.34	1857.51
439.54	1685.48
439.75	1804.26
439.95	1800.16
440.16	1720.29
440.36	1751.01
440.57	1857.51
440.77	1763.30
440.98	1785.83
441.18	1753.06
441.39	1699.81
441.59	1708.01
441.80	1781.73
442.00	1693.67
442.21	1820.64
442.41	1650.66
442.62	1857.51
442.82	1660.90
443.02	1724.39
443.23	1732.58
443.43	1734.63
443.64	1814.50
443.84	1673.19
444.05	1818.60
444.25	1787.88
444.46	1724.39
444.66	1724.39
444.87	1824.74
445.07	1662.95
445.28	1769.44
445.48	1724.39
445.69	1798.12
445.89	1845.22
446.09	1744.87
446.30	2023.39
446.50	2684.89
446.71	3696.58
446.91	4325.31
447.12	4743.10
447.32	4796.34
447.53	4255.68
447.73	3856.33
447.93	3516.36
448.14	3235.79
448.34	3229.65
448.55	2873.30
448.75	2932.69
448.96	2744.28
449.16	2396.12
449.36	2353.12
449.57	2066.40
449.77	1935.33
449.98	1744.87
450.18	1746.92
450.39	1939.43
450.59	1869.80
450.79	1794.02
451.00	1761.25
451.20	1767.40
451.41	1773.54
451.61	1822.69
451.81	1746.92
452.02	1693.67
452.22	1732.58
452.43	1726.44
452.63	1671.14
452.84	1716.20
453.04	1726.44
453.24	1771.49
453.45	1761.25
453.65	1753.06
453.86	1841.12
454.06	1744.87
454.26	1679.33
454.47	1667.05
454.67	1779.68
454.87	1800.16
455.08	1718.25
455.28	1845.22
455.49	1763.30
455.69	1714.15
455.89	1841.12
456.10	1785.83
456.30	1732.58
456.51	1722.34
456.71	1708.01
456.91	1744.87
457.12	1769.44
457.32	1837.03
457.52	1738.73
457.73	1785.83
457.93	1716.20
458.14	1716.20
458.34	1601.51
458.54	1683.43
458.75	1730.53
458.95	1818.60
459.15	1753.06
459.36	1761.25
459.56	1783.78
459.76	1837.03
459.97	1734.63
460.17	1691.62
460.37	1789.92
460.58	1708.01
460.78	1757.16
460.99	1701.86
461.19	1701.86
461.39	1718.25
461.60	1736.68
461.80	1783.78
462.00	1691.62
462.21	1818.60
462.41	1660.90
462.61	1736.68
462.82	1734.63
463.02	1775.59
463.22	1697.77
463.43	1718.25
463.63	1748.97
463.83	1800.16
464.04	1773.54
464.24	1736.68
464.44	1667.05
464.64	1718.25
464.85	1759.21
465.05	1812.45
465.25	1796.07
465.46	1687.53
465.66	1796.07
465.86	1757.16
466.07	1730.53
466.27	1697.77
466.47	1671.14
466.68	1650.66
466.88	1794.02
467.08	1753.06
467.29	1822.69
467.49	1755.11
467.69	1783.78
467.89	1769.44
468.10	1736.68
468.30	1777.64
468.50	1828.84
468.71	1712.10
468.91	1681.38
469.11	1859.56
469.31	1738.73
469.52	1726.44
469.72	1798.12
469.92	1791.97
470.13	1689.57
470.33	1765.35
470.53	1800.16
470.73	2070.50
470.94	2279.39
471.14	2340.83
471.34	2494.43
471.54	2463.71
471.75	2220.00
471.95	2123.74
472.15	2095.07
472.36	2052.06
472.56	2072.54
472.76	2041.82
472.96	2021.35
473.17	1974.24
473.37	1880.04
473.57	1789.92
473.77	1765.35
473.98	1767.40
474.18	1710.05
474.38	1949.67
474.58	1763.30
474.79	1634.28
474.99	1777.64
475.19	1820.64
475.39	1624.04
475.60	1742.82
475.80	1767.40
476.00	1708.01
476.20	1730.53
476.41	1751.01
476.61	1783.78
476.81	1820.64
477.01	1665.00
477.21	1820.64
477.42	1720.29
477.62	1648.61
477.82	1808.36
478.02	1722.34
478.23	1775.59
478.43	1714.15
478.63	1699.81
478.83	1744.87
479.03	1744.87
479.24	1761.25
479.44	1826.79
479.64	1648.61
479.84	1583.08
480.04	1662.95
480.25	1779.68
480.45	1675.24
480.65	1669.09
480.85	1804.26
481.06	1746.92
481.26	1726.44
481.46	1765.35
481.66	1712.10
481.86	1656.81
482.06	1746.92
482.27	1687.53
482.47	1677.29
482.67	1806.31
482.87	1675.24
483.07	1865.70
483.28	1714.15
483.48	1697.77
483.68	1718.25
483.88	1722.34
484.08	1648.61
484.29	1677.29
484.49	1687.53
484.69	1740.77
484.89	1742.82
485.09	1759.21
485.29	1716.20
485.50	1708.01
485.70	1708.01
485.90	1771.49
486.10	1816.55
486.30	1714.15
486.50	1775.59
486.71	1810.40
486.91	1710.05
487.11	1875.94
487.31	1626.09
487.51	1796.07
487.71	1681.38
487.91	1681.38
488.12	1722.34
488.32	1605.61
488.52	1568.74
488.72	1681.38
488.92	1703.91
489.12	1845.22
489.32	1853.41
489.53	1818.60
489.73	1695.72
489.93	1902.56
490.13	1665.00
490.33	1621.99
490.53	1716.20
490.73	1857.51
490.94	1687.53
491.14	1722.34
491.34	1824.74
491.54	2095.07
491.74	2590.68
491.94	2889.68
492.14	3002.32
492.34	2990.03
492.54	2803.67
492.75	2535.39
492.95	2410.46
493.15	2205.66
493.35	2293.72
493.55	2185.18
493.75	2086.88
493.95	2113.50
494.15	2019.30
494.35	1978.34
494.56	1882.08
494.76	1748.97
494.96	1830.88
495.16	1705.96
495.36	1730.53
495.56	1718.25
495.76	1755.11
495.96	1691.62
496.16	1705.96
496.36	1806.31
496.56	1775.59
496.77	1828.84
496.97	1796.07
497.17	1839.08
497.37	1683.43
497.57	1722.34
497.77	1791.97
497.97	1656.81
498.17	1718.25
498.37	1730.53
498.57	1802.21
498.77	1708.01
498.97	1832.93
499.17	1832.93
499.38	1728.49
499.58	1804.26
499.78	1742.82
499.98	1771.49
500.18	1773.54
500.38	1753.06
500.58	1896.42
500.78	2584.54
500.98	4548.54
501.18	5808.04
501.38	6598.56
501.58	6928.28
501.78	6520.73
501.98	5400.49
502.18	4992.95
502.38	4476.86
502.58	4087.75
502.78	3739.59
502.98	3612.62
503.18	3461.07
503.38	3096.53
503.59	2836.44
503.79	2668.50
503.99	2441.18
504.19	2340.83
504.39	2133.98
504.59	2189.28
504.79	2189.28
504.99	2078.69
505.19	1990.63
505.39	1841.12
505.59	1955.81
505.79	1970.15
505.99	1943.52
506.19	1816.55
506.39	1861.60
506.59	1796.07
506.79	1738.73
506.99	1814.50
507.19	1732.58
507.39	1746.92
507.59	1669.09
507.79	1726.44
507.99	1665.00
508.19	1714.15
508.39	1740.77
508.59	1757.16
508.79	1787.88
508.99	1867.75
509.19	1718.25
509.39	1830.88
509.59	1753.06
509.79	1736.68
509.99	1775.59
510.19	1757.16
510.39	1773.54
510.59	1689.57
510.79	1687.53
510.99	1677.29
511.19	1691.62
511.39	1849.32
511.59	1816.55
511.79	1796.07
511.99	1689.57
512.19	1880.04
512.38	1724.39
512.58	1683.43
512.78	1755.11
512.98	1767.40
513.18	1798.12
513.38	1656.81
513.58	1794.02
513.78	1744.87
513.98	1728.49
514.18	1697.77
514.38	1660.90
514.58	1789.92
514.78	1656.81
514.98	1714.15
515.18	1798.12
515.38	1693.67
515.58	1853.41
515.78	1650.66
515.98	1761.25
516.18	1708.01
516.38	1716.20
516.57	1736.68
516.77	1687.53
516.97	1779.68
517.17	1742.82
517.37	1624.04
517.57	1808.36
517.77	1703.91
517.97	1744.87
518.17	1789.92
518.37	1740.77
518.57	1730.53
518.77	1705.96
518.97	1757.16
519.16	1714.15
519.36	1783.78
519.56	1689.57
519.76	1757.16
519.96	1789.92
520.16	1802.21
520.36	1738.73
520.56	1779.68
520.76	1697.77
520.96	1783.78
521.16	1761.25
521.35	1806.31
521.55	1855.46
521.75	1869.80
521.95	1748.97
522.15	1685.48
522.35	1660.90
522.55	1755.11
522.75	1830.88
522.95	1656.81
523.14	1718.25
523.34	1800.16
523.54	1595.37
523.74	1800.16
523.94	1689.57
524.14	1656.81
524.34	1738.73
524.54	1875.94
524.73	1738.73
524.93	1781.73
525.13	1697.77
525.33	1695.72
525.53	1824.74
525.73	1736.68
525.93	1775.59
526.13	1703.91
526.32	1714.15
526.52	1779.68
526.72	1820.64
526.92	1759.21
527.12	1701.86
527.32	1730.53
527.52	1814.50
527.71	1746.92
527.91	1755.11
528.11	1689.57
528.31	1734.63
528.51	1677.29
528.71	1816.55
528.90	1759.21
529.10	1816.55
529.30	1873.89
529.50	1626.09
529.70	1763.30
529.90	1757.16
530.09	1687.53
530.29	1667.05
530.49	1607.66
530.69	1929.19
530.89	1753.06
531.09	1828.84
531.28	1728.49
531.48	1814.50
531.68	1748.97
531.88	1683.43
532.08	1720.29
532.28	1662.95
532.47	1837.03
532.67	1773.54
532.87	1771.49
533.07	1658.85
533.27	1845.22
533.46	1630.18
533.66	1761.25
533.86	1783.78
534.06	1761.25
534.26	1689.57
534.45	1722.34
534.65	1828.84
534.85	1699.81
535.05	1683.43
535.25	1816.55
535.44	1634.28
535.64	1777.64
535.84	1791.97
536.04	1796.07
536.24	1765.35
536.43	1757.16
536.63	1812.45
536.83	1712.10
537.03	1763.30
537.22	1624.04
537.42	1712.10
537.62	1763.30
537.82	1736.68
538.02	1869.80
538.21	1837.03
538.41	1970.15
538.61	1765.35
538.81	1716.20
539.00	1740.77
539.20	1675.24
539.40	1734.63
539.60	1808.36
539.79	1863.65
539.99	1681.38
540.19	1759.21
540.39	1718.25
540.58	1755.11
540.78	1814.50
540.98	1789.92
541.18	1677.29
541.37	1789.92
541.57	1757.16
541.77	1769.44
541.97	1673.19
542.16	1681.38
542.36	1748.97
542.56	1816.55
542.76	1791.97
542.95	1869.80
543.15	1871.84
543.35	1806.31
543.54	1703.91
543.74	1699.81
543.94	1818.60
544.14	1705.96
544.33	1771.49
544.53	1695.72
544.73	1685.48
544.93	1748.97
545.12	1759.21
545.32	1779.68
545.52	1716.20
545.71	1656.81
545.91	1767.40
546.11	1703.91
546.30	1665.00
546.50	1705.96
546.70	1791.97
546.90	1812.45
547.09	1642.47
547.29	1775.59
547.49	1855.46
547.68	1746.92
547.88	1701.86
548.08	1798.12
548.27	2144.22
548.47	1759.21
548.67	1732.58
548.87	1740.77
549.06	1703.91
549.26	1787.88
549.46	1734.63
549.65	1716.20
549.85	1757.16
550.05	1789.92
550.24	1626.09
550.44	1832.93
550.64	1748.97
550.83	1679.33
551.03	1828.84
551.23	1828.84
551.42	1765.35
551.62	1691.62
551.82	1834.98
552.01	1675.24
552.21	1869.80
552.41	1830.88
552.60	1843.17
552.80	1761.25
553.00	1705.96
553.19	1677.29
553.39	1906.66
553.59	1716.20
553.78	1710.05
553.98	1757.16
554.17	1712.10
554.37	1712.10
554.57	1736.68
554.76	1757.16
554.96	1660.90
555.16	1742.82
555.35	1849.32
555.55	1812.45
555.75	1728.49
555.94	1779.68
556.14	1671.14
556.33	1812.45
556.53	1767.40
556.73	1701.86
556.92	1853.41
557.12	1824.74
557.32	1765.35
557.51	1765.35
557.71	1826.79
557.90	1880.04
558.10	1771.49
558.30	1703.91
558.49	1714.15
558.69	1828.84
558.88	1714.15
559.08	1794.02
559.28	1746.92
559.47	1755.11
559.67	1800.16
559.86	1824.74
560.06	1824.74
560.26	1738.73
560.45	1779.68
560.65	1689.57
560.84	1812.45
561.04	1671.14
561.24	1812.45
561.43	1746.92
561.63	1769.44
561.82	1806.31
562.02	1753.06
562.22	1720.29
562.41	1681.38
562.61	1687.53
562.80	1683.43
563.00	1853.41
563.19	1806.31
563.39	1834.98
563.59	1830.88
563.78	1685.48
563.98	1665.00
564.17	1693.67
564.37	1785.83
564.56	1699.81
564.76	1726.44
564.96	1818.60
565.15	1695.72
565.35	1820.64
565.54	1703.91
565.74	1820.64
565.93	1722.34
566.13	1775.59
566.32	1771.49
566.52	1783.78
566.71	1695.72
566.91	1814.50
567.11	1744.87
567.30	1742.82
567.50	1832.93
567.69	1730.53
567.89	1734.63
568.08	1746.92
568.28	1728.49
568.47	1697.77
568.67	1759.21
568.86	1732.58
569.06	1769.44
569.25	1755.11
569.45	1701.86
569.64	1720.29
569.84	1738.73
570.04	1744.87
570.23	1697.77
570.43	1755.11
570.62	1755.11
570.82	1896.42
571.01	1744.87
571.21	1701.86
571.40	1744.87
571.60	1779.68
571.79	1681.38
571.99	1732.58
572.18	1744.87
572.38	1728.49
572.57	1744.87
572.77	1761.25
572.96	1886.18
573.16	1806.31
573.35	1718.25
573.55	1837.03
573.74	1822.69
573.94	1716.20
574.13	1730.53
574.33	1732.58
574.52	1802.21
574.71	1714.15
574.91	1796.07
575.10	1652.71
575.30	1736.68
575.49	1712.10
575.69	1718.25
575.88	1773.54
576.08	1781.73
576.27	1748.97
576.47	1718.25
576.66	1820.64
576.86	1853.41
577.05	1751.01
577.25	1765.35
577.44	1900.52
577.64	1785.83
577.83	1808.36
578.02	1628.14
578.22	1814.50
578.41	1824.74
578.61	1775.59
578.80	1705.96
579.00	1781.73
579.19	1771.49
579.39	1724.39
579.58	1796.07
579.77	1814.50
579.97	1853.41
580.16	1877.99
580.36	1847.27
580.55	1877.99
580.75	1738.73
580.94	1785.83
581.13	1857.51
581.33	1837.03
581.52	1742.82
581.72	1839.08
581.91	1839.08
582.11	1767.40
582.30	1783.78
582.49	1791.97
582.69	1839.08
582.88	1777.64
583.08	1771.49
583.27	1847.27
583.47	1775.59
583.66	1703.91
583.85	1703.91
584.05	1798.12
584.24	1806.31
584.44	1789.92
584.63	1882.08
584.82	1828.84
585.02	1816.55
585.21	1789.92
585.41	1873.89
585.60	1830.88
585.79	1904.61
585.99	1890.28
586.18	1896.42
586.37	2150.37
586.57	3387.34
586.76	9869.16
586.96	23748.25
587.15	34131.45
587.34	40164.76
587.54	41827.71
587.73	36533.71
587.93	25808.50
588.12	21178.04
588.31	18024.17
588.51	15824.65
588.70	14866.21
588.89	13977.39
589.09	12449.60
589.28	10788.70
589.47	9408.37
589.67	7882.63
589.86	6369.18
590.06	4929.46
590.25	3934.15
590.44	3080.14
590.64	2582.49
590.83	2248.67
591.02	2056.16
591.22	1957.86
591.41	1947.62
591.60	1880.04
591.80	2002.91
591.99	1748.97
592.18	1806.31
592.38	1863.65
592.57	1800.16
592.76	1816.55
592.96	1746.92
593.15	1796.07
593.34	1796.07
593.54	1773.54
593.73	1789.92
593.92	1841.12
594.12	1794.02
594.31	1726.44
594.50	1814.50
594.70	1832.93
594.89	1888.23
595.08	1683.43
595.28	1777.64
595.47	1955.81
595.66	1738.73
595.86	1724.39
596.05	1728.49
596.24	1789.92
596.43	1826.79
596.63	1837.03
596.82	1832.93
597.01	1732.58
597.21	1896.42
597.40	1810.40
597.59	1763.30
597.79	1736.68
597.98	1763.30
598.17	1734.63
598.36	1777.64
598.56	1779.68
598.75	1712.10
598.94	1660.90
599.14	1714.15
599.33	1759.21
599.52	1744.87
599.71	1808.36
599.91	1691.62
600.10	1771.49
600.29	1746.92
600.48	1757.16
600.68	1751.01
600.87	1787.88
601.06	1748.97
601.26	1769.44
601.45	1830.88
601.64	1734.63
601.83	1783.78
602.03	1714.15
602.22	1708.01
602.41	1777.64
602.60	1902.56
602.80	1830.88
602.99	1765.35
603.18	1669.09
603.37	1787.88
603.57	1814.50
603.76	1751.01
603.95	1705.96
604.14	1798.12
604.34	1742.82
604.53	1783.78
604.72	1705.96
604.91	1828.84
605.10	1806.31
605.30	1648.61
605.49	1837.03
605.68	1806.31
605.87	1787.88
606.07	1687.53
606.26	1738.73
606.45	1789.92
606.64	1763.30
606.84	1695.72
607.03	1714.15
607.22	1767.40
607.41	1677.29
607.60	1710.05
607.80	1785.83
607.99	1775.59
608.18	1757.16
608.37	1775.59
608.56	1705.96
608.76	1849.32
608.95	1904.61
609.14	1751.01
609.33	1796.07
609.52	1763.30
609.72	1773.54
609.91	1814.50
610.10	1710.05
610.29	1918.95
610.48	1804.26
610.68	1857.51
610.87	1701.86
611.06	1757.16
611.25	1751.01
611.44	1722.34
611.63	1767.40
611.83	1871.84
612.02	1695.72
612.21	1839.08
612.40	1660.90
612.59	1607.66
612.79	1765.35
612.98	1687.53
613.17	1814.50
613.36	1769.44
613.55	1791.97
613.74	1699.81
613.93	1628.14
614.13	1697.77
614.32	1744.87
614.51	1810.40
614.70	1746.92
614.89	1742.82
615.08	1837.03
615.28	2115.55
615.47	1693.67
615.66	1716.20
615.85	1701.86
616.04	1855.46
616.23	1742.82
616.42	1746.92
616.62	1693.67
616.81	1814.50
617.00	1689.57
617.19	1712.10
617.38	1726.44
617.57	1712.10
617.76	1751.01
617.95	1736.68
618.15	1697.77
618.34	1839.08
618.53	1628.14
618.72	1873.89
618.91	1886.18
619.10	1832.93
619.29	1810.40
619.48	1779.68
619.68	1691.62
619.87	1703.91
620.06	1675.24
620.25	1828.84
620.44	1689.57
620.63	1804.26
620.82	1742.82
621.01	1757.16
621.20	1712.10
621.39	1775.59
621.59	1720.29
621.78	1714.15
621.97	1734.63
622.16	1761.25
622.35	1716.20
622.54	1826.79
622.73	1830.88
622.92	1554.41
623.11	1732.58
623.30	1779.68
623.49	1730.53
623.68	1738.73
623.88	1779.68
624.07	1687.53
624.26	1714.15
624.45	1748.97
624.64	1687.53
624.83	1714.15
625.02	1746.92
625.21	1794.02
625.40	1726.44
625.59	1808.36
625.78	1658.85
625.97	1710.05
626.16	1775.59
626.35	1699.81
626.54	1736.68
626.74	1806.31
626.93	1701.86
627.12	1689.57
627.31	1748.97
627.50	1789.92
627.69	1789.92
627.88	1626.09
628.07	1746.92
628.26	1615.85
628.45	1734.63
628.64	1632.23
628.83	1730.53
629.02	1691.62
629.21	1767.40
629.40	1665.00
629.59	1644.52
629.78	1648.61
629.97	1748.97
630.16	1755.11
630.35	1701.86
630.54	1763.30
630.73	1695.72
630.92	1708.01
631.11	1763.30
631.30	1779.68
631.49	1705.96
631.68	1787.88
631.87	1757.16
632.06	1673.19
632.25	1914.85
632.44	1730.53
632.63	1720.29
632.82	1699.81
633.01	1652.71
633.20	1724.39
633.39	1705.96
633.58	1708.01
633.77	1701.86
633.96	1824.74
634.15	1708.01
634.34	1746.92
634.53	1712.10
634.72	1783.78
634.91	1607.66
635.10	1763.30
635.29	1753.06
635.48	1722.34
635.67	1699.81
635.86	1652.71
636.05	1779.68
636.24	1759.21
636.43	1763.30
636.62	1771.49
636.81	1628.14
637.00	1763.30
637.19	1775.59
637.38	1701.86
637.57	1685.48
637.76	1632.23
637.95	1734.63
638.14	1687.53
638.33	1669.09
638.52	1718.25
638.71	1605.61
638.89	1708.01
639.08	1880.04
639.27	1781.73
639.46	1716.20
639.65	1808.36
639.84	1673.19
640.03	1777.64
640.22	1683.43
640.41	1806.31
640.60	1603.56
640.79	1757.16
640.98	1710.05
641.17	1714.15
641.36	1710.05
641.55	1701.86
641.74	1746.92
641.92	1724.39
642.11	1660.90
642.30	1701.86
642.49	1617.90
642.68	1703.91
642.87	1708.01
643.06	1683.43
643.25	1642.47
643.44	1660.90
643.63	1744.87
643.82	1658.85
644.00	1660.90
644.19	1787.88
644.38	1708.01
644.57	1730.53
644.76	1755.11
644.95	1722.34
645.14	1738.73
645.33	1779.68
645.52	1689.57
645.71	1710.05
645.89	1650.66
646.08	1697.77
646.27	1753.06
646.46	1830.88
646.65	1652.71
646.84	1724.39
647.03	1689.57
647.22	1751.01
647.40	1687.53
647.59	1726.44
647.78	1642.47
647.97	1619.94
648.16	1675.24
648.35	1773.54
648.54	1734.63
648.73	1695.72
648.91	1730.53
649.10	1714.15
649.29	1681.38
649.48	1671.14
649.67	1728.49
649.86	1740.77
650.05	1662.95
650.23	1810.40
650.42	1701.86
650.61	1708.01
650.80	1746.92
650.99	1791.97
651.18	1859.56
651.36	1740.77
651.55	1748.97
651.74	1720.29
651.93	1693.67
652.12	1710.05
652.31	1779.68
652.49	1669.09
652.68	1718.25
652.87	1781.73
653.06	1773.54
653.25	1830.88
653.44	1748.97
653.62	1820.64
653.81	1724.39
654.00	1708.01
654.19	1796.07
654.38	1777.64
654.56	1751.01
654.75	1718.25
654.94	1808.36
655.13	1777.64
655.32	1730.53
655.51	1767.40
655.69	1675.24
655.88	1857.51
656.07	1658.85
656.26	1710.05
656.45	1671.14
656.63	1658.85
656.82	1748.97
657.01	1804.26
657.20	1722.34
657.38	1882.08
657.57	1716.20
657.76	1693.67
657.95	1753.06
658.14	1757.16
658.32	1634.28
658.51	1683.43
658.70	1744.87
658.89	1652.71
659.08	1722.34
659.26	1742.82
659.45	1685.48
659.64	1751.01
659.83	1640.42
660.01	1953.76
660.20	1724.39
660.39	1814.50
660.58	1654.76
660.76	1832.93
660.95	1681.38
661.14	1757.16
661.33	1619.94
661.51	1718.25
661.70	1773.54
661.89	1662.95
662.08	1767.40
662.26	1673.19
662.45	1679.33
662.64	1798.12
662.83	1843.17
663.01	1617.90
663.20	1712.10
663.39	1837.03
663.58	1736.68
663.76	1701.86
663.95	1855.46
664.14	1708.01
664.32	1681.38
664.51	1716.20
664.70	1630.18
664.89	1755.11
665.07	1640.42
665.26	1738.73
665.45	1621.99
665.64	1785.83
665.82	1701.86
666.01	1845.22
666.20	1642.47
666.38	1863.65
666.57	1808.36
666.76	2166.75
666.95	4491.20
667.13	10383.20
667.32	15240.98
667.51	17966.83
667.69	18599.65
667.88	17528.56
668.07	12293.96
668.25	9457.52
668.44	8073.09
668.63	7393.17
668.81	6623.13
669.00	6131.62
669.19	5726.12
669.38	5003.19
669.56	4483.00
669.75	3866.56
669.94	3381.20
670.12	2873.30
670.31	2549.72
670.50	2283.49
670.68	2095.07
670.87	1896.42
671.06	1886.18
671.24	1863.65
671.43	1785.83
671.62	1689.57
671.80	1701.86
671.99	1785.83
672.18	1763.30
672.36	1777.64
672.55	1726.44
672.74	1847.27
672.92	1763.30
673.11	1771.49
673.29	1624.04
673.48	1777.64
673.67	1646.57
673.85	1773.54
674.04	1730.53
674.23	1718.25
674.41	1894.37
674.60	1636.33
674.79	1677.29
674.97	1689.57
675.16	1796.07
675.34	1804.26
675.53	1660.90
675.72	1718.25
675.90	1855.46
676.09	1720.29
676.28	1802.21
676.46	1667.05
676.65	1779.68
676.83	1718.25
677.02	1679.33
677.21	1746.92
677.39	1718.25
677.58	1718.25
677.77	1691.62
677.95	1660.90
678.14	1757.16
678.32	1691.62
678.51	1699.81
678.70	1828.84
678.88	1683.43
679.07	1796.07
679.25	1689.57
679.44	1689.57
679.63	1619.94
679.81	1728.49
680.00	1830.88
680.18	1738.73
680.37	1802.21
680.55	1681.38
680.74	1673.19
680.93	1662.95
681.11	1736.68
681.30	1710.05
681.48	1738.73
681.67	1681.38
681.85	1777.64
682.04	1607.66
682.23	1726.44
682.41	1695.72
682.60	1769.44
682.78	1730.53
682.97	1687.53
683.15	1783.78
683.34	1701.86
683.53	1787.88
683.71	1660.90
683.90	1845.22
684.08	1759.21
684.27	1703.91
684.45	1728.49
684.64	1744.87
684.82	1710.05
685.01	1751.01
685.19	1722.34
685.38	1828.84
685.57	1722.34
685.75	1679.33
685.94	1757.16
686.12	1728.49
686.31	1658.85
686.49	1867.75
686.68	1650.66
686.86	1761.25
687.05	1632.23
687.23	1808.36
687.42	1656.81
687.60	1630.18
687.79	1720.29
687.97	1796.07
688.16	1841.12
688.34	1806.31
688.53	1673.19
688.71	1730.53
688.90	1746.92
689.08	1804.26
689.27	1722.34
689.45	1791.97
689.64	1748.97
689.82	1757.16
690.01	1671.14
690.19	1714.15
690.38	1816.55
690.56	1783.78
690.75	1640.42
690.93	1697.77
691.12	1685.48
691.30	1671.14
691.49	1697.77
691.67	1755.11
691.86	1814.50
692.04	1703.91
692.23	1636.33
692.41	1624.04
692.60	1820.64
692.78	1724.39
692.97	1763.30
693.15	1701.86
693.34	1781.73
693.52	1730.53
693.71	1632.23
693.89	1667.05
694.08	1667.05
694.26	1726.44
694.44	1691.62
694.63	1775.59
694.81	1679.33
695.00	1705.96
695.18	1779.68
695.37	1810.40
695.55	1736.68
695.74	1683.43
695.92	1724.39
696.10	1781.73
696.29	1570.79
696.47	1644.52
696.66	1603.56
696.84	1708.01
697.03	1689.57
697.21	1763.30
697.40	2355.16
697.58	1824.74
697.76	1671.14
697.95	1701.86
698.13	1648.61
698.32	1683.43
698.50	1726.44
698.68	1771.49
698.87	1777.64
699.05	1720.29
699.24	1701.86
699.42	1683.43
699.61	1722.34
699.79	1759.21
699.97	1718.25
700.16	1689.57
700.34	1652.71
700.53	1718.25
700.71	1843.17
700.89	1732.58
701.08	1658.85
701.26	1705.96
701.45	2082.78
701.63	1648.61
701.81	1767.40
702.00	1665.00
702.18	1701.86
702.37	1662.95
702.55	1742.82
702.73	1697.77
702.92	1652.71
703.10	1738.73
703.28	1734.63
703.47	1660.90
703.65	1802.21
703.84	1832.93
704.02	1636.33
704.20	1730.53
704.39	1691.62
704.57	1689.57
704.75	1734.63
704.94	1810.40
705.12	1708.01
705.30	1775.59
705.49	2222.05
705.67	4460.48
705.86	9193.33
706.04	12209.99
706.22	14184.23
706.41	14976.80
706.59	13608.75
706.77	9430.90
706.96	7249.81
707.14	6424.48
707.32	5892.01
707.51	5558.19
707.69	4857.78
707.87	4206.53
708.06	3436.49
708.24	2920.40
708.42	2482.14
708.61	2314.20
708.79	1935.33
708.97	1845.22
709.16	1865.70
709.34	1812.45
709.52	1822.69
709.71	1689.57
709.89	1800.16
710.07	1662.95
710.26	1710.05
710.44	1783.78
710.62	1800.16
710.80	1644.52
710.99	1759.21
711.17	1671.14
711.35	1710.05
711.54	1724.39
711.72	1847.27
711.90	1693.67
712.09	1726.44
712.27	1689.57
712.45	1763.30
712.63	1705.96
712.82	1628.14
713.00	1703.91
713.18	1751.01
713.37	1759.21
713.55	1775.59
713.73	1718.25
713.91	1728.49
714.10	1589.22
714.28	1683.43
714.46	1716.20
714.65	1808.36
714.83	1740.77
715.01	1726.44
715.19	1697.77
715.38	1665.00
715.56	1665.00
715.74	1669.09
715.92	1624.04
716.11	1716.20
716.29	1642.47
716.47	1685.48
716.65	1773.54
716.84	1648.61
717.02	1757.16
717.20	1626.09
717.38	1683.43
717.57	1738.73
717.75	1691.62
717.93	1650.66
718.11	1740.77
718.30	1617.90
718.48	1703.91
718.66	1828.84
718.84	1744.87
719.03	1699.81
719.21	1695.72
719.39	1841.12
719.57	1697.77
719.75	1746.92
719.94	1650.66
720.12	1708.01
720.30	1773.54
720.48	1742.82
720.67	1781.73
720.85	1665.00
721.03	1708.01
721.21	1681.38
721.39	1796.07
721.58	1789.92
721.76	1679.33
721.94	1800.16
722.12	1689.57
722.30	1800.16
722.49	1689.57
722.67	1712.10
722.85	1763.30
723.03	1642.47
723.21	1785.83
723.40	1771.49
723.58	1789.92
723.76	1718.25
723.94	1822.69
724.12	1759.21
724.30	1812.45
724.49	1703.91
724.67	1658.85
724.85	1783.78
725.03	1689.57
725.21	1714.15
725.40	1751.01
725.58	1640.42
725.76	1783.78
725.94	1837.03
726.12	1697.77
726.30	1701.86
726.49	1693.67
726.67	1681.38
726.85	1736.68
727.03	1800.16
727.21	2150.37
727.39	2942.93
727.57	3880.90
727.76	4143.04
727.94	4364.22
728.12	4423.61
728.30	3651.53
728.48	2940.88
728.66	2760.66
728.84	2545.63
729.03	2244.57
729.21	2176.99
729.39	1982.43
729.57	1855.46
729.75	1808.36
729.93	1865.70
730.11	1765.35
730.30	1683.43
730.48	1703.91
730.66	1785.83
730.84	1773.54
731.02	1728.49
731.20	1689.57
731.38	1716.20
731.56	1714.15
731.74	1740.77
731.93	1775.59
732.11	1722.34
732.29	1751.01
732.47	1683.43
732.65	1677.29
732.83	1765.35
733.01	1746.92
733.19	1718.25
733.37	1626.09
733.56	1675.24
733.74	1691.62
733.92	1828.84
734.10	1714.15
734.28	1761.25
734.46	1675.24
734.64	1710.05
734.82	1720.29
735.00	1679.33
735.18	1710.05
735.36	1720.29
735.54	1730.53
735.73	1665.00
735.91	1736.68
736.09	1751.01
736.27	1744.87
736.45	1771.49
736.63	1605.61
736.81	1656.81
736.99	1783.78
737.17	1789.92
737.35	1669.09
737.53	1710.05
737.71	1650.66
737.89	1759.21
738.07	1730.53
738.25	1673.19
738.43	1714.15
738.61	1775.59
738.80	1667.05
738.98	1685.48
739.16	1740.77
739.34	1630.18
739.52	1837.03
739.70	1681.38
739.88	1798.12
740.06	1765.35
740.24	1654.76
740.42	1794.02
740.60	1595.37
740.78	1677.29
740.96	1677.29
741.14	1751.01
741.32	1724.39
741.50	1619.94
741.68	1718.25
741.86	1810.40
742.04	1681.38
742.22	1710.05
742.40	1748.97
742.58	1734.63
742.76	1669.09
742.94	1814.50
743.12	1628.14
743.30	1767.40
743.48	1738.73
743.66	1667.05
743.84	1804.26
744.02	1648.61
744.20	1722.34
744.38	1685.48
744.56	1718.25
744.74	1828.84
744.92	1742.82
745.10	1814.50
745.28	1714.15
745.46	1877.99
745.64	1714.15
745.82	1779.68
746.00	1687.53
746.18	1771.49
746.36	1613.80
746.54	1753.06
746.72	1714.15
746.90	1675.24
747.08	1724.39
747.26	1675.24
747.44	1708.01
747.62	1691.62
747.80	1714.15
747.98	1822.69
748.15	1685.48
748.33	1761.25
748.51	1587.18
748.69	1759.21
748.87	1732.58
749.05	1693.67
749.23	1693.67
749.41	1767.40
749.59	1638.38
749.77	1736.68
749.95	1652.71
750.13	1656.81
750.31	1699.81
750.49	1681.38
750.67	1757.16
750.85	1839.08
751.03	1732.58
751.20	1855.46
751.38	1689.57
751.56	1675.24
751.74	1734.63
751.92	1691.62
752.10	1624.04
752.28	1828.84
752.46	1642.47
752.64	1740.77
752.82	1693.67
753.00	1757.16
753.18	1677.29
753.35	1669.09
753.53	1708.01
753.71	1693.67
753.89	1703.91
754.07	1705.96
754.25	1804.26
754.43	1681.38
754.61	1695.72
754.79	1722.34
754.97	1699.81
755.14	1763.30
755.32	1685.48
755.50	1748.97
755.68	1763.30
755.86	1601.51
756.04	1701.86
756.22	1679.33
756.40	1687.53
756.57	1841.12
756.75	1724.39
756.93	1798.12
757.11	1726.44
757.29	1687.53
757.47	1652.71
757.65	1689.57
757.82	1583.08
758.00	1621.99
758.18	1748.97
758.36	1708.01
758.54	1787.88
758.72	1665.00
758.90	1665.00
759.07	1660.90
759.25	1628.14
759.43	1763.30
759.61	1679.33
759.79	2162.66
759.97	1732.58
760.15	1710.05
760.32	1710.05
760.50	1683.43
760.68	1769.44
760.86	1617.90
761.04	1746.92
761.22	1724.39
761.39	1701.86
761.57	1740.77
761.75	1701.86
761.93	1689.57
762.11	1710.05
762.28	1689.57
762.46	1634.28
762.64	1767.40
762.82	1619.94
763.00	1689.57
763.18	1763.30
763.35	1634.28
763.53	1730.53
763.71	1716.20
763.89	1785.83
764.07	1738.73
764.24	1722.34
764.42	1697.77
764.60	1763.30
764.78	1796.07
764.96	1728.49
765.13	1726.44
765.31	1654.76
765.49	1705.96
765.67	1718.25
765.84	1656.81
766.02	1689.57
766.20	1570.79
766.38	1791.97
766.56	1732.58
766.73	1736.68
766.91	1716.20
767.09	1773.54
767.27	1679.33
767.44	1689.57
767.62	1710.05
767.80	1755.11
767.98	1665.00
768.15	1703.91
768.33	1779.68
768.51	1730.53
768.69	1658.85
768.87	1748.97
769.04	1695.72
769.22	1808.36
769.40	1789.92
769.58	1798.12
769.75	1681.38
769.93	1777.64
770.11	1732.58
770.28	1671.14
770.46	1712.10
770.64	1671.14
770.82	1693.67
770.99	1753.06
771.17	1716.20
771.35	1722.34
771.53	1730.53
771.70	1665.00
771.88	1767.40
772.06	1722.34
772.23	1726.44
772.41	1791.97
772.59	1691.62
772.77	1669.09
772.94	1744.87
773.12	1751.01
773.30	1607.66
773.47	1732.58
773.65	1736.68
773.83	1816.55
774.01	1732.58
774.18	1605.61
774.36	1726.44
774.54	1630.18
774.71	1767.40
774.89	1634.28
775.07	1681.38
775.24	1640.42
775.42	1628.14
775.60	1839.08
775.78	1652.71
775.95	1671.14
776.13	1728.49
776.31	1595.37
776.48	1691.62
776.66	1812.45
776.84	1658.85
777.01	1675.24
777.19	1621.99
777.37	1679.33
777.54	1769.44
777.72	1820.64
777.90	1716.20
778.07	1708.01
778.25	1894.37
778.43	1751.01
778.60	1708.01
778.78	1841.12
778.96	1794.02
779.13	1697.77
779.31	1767.40
779.49	1685.48
779.66	1693.67
779.84	1681.38
780.01	1746.92
780.19	1705.96
780.37	1853.41
780.54	1789.92
780.72	1628.14
780.90	1691.62
781.07	1708.01
781.25	1617.90
781.43	1763.30
781.60	1636.33
781.78	1814.50
781.95	1695.72
782.13	1736.68
782.31	1671.14
782.48	1574.89
782.66	1607.66
782.83	1875.94
783.01	1705.96
783.19	1677.29
783.36	1738.73
783.54	1697.77
783.72	1812.45
783.89	1687.53
784.07	1691.62
784.24	1689.57
784.42	1814.50
784.60	1681.38
784.77	1759.21
784.95	1607.66
785.12	1648.61
785.30	1699.81
785.47	1705.96
785.65	1691.62
785.83	1667.05
786.00	1730.53
786.18	1730.53
786.35	1605.61
786.53	1634.28
786.71	1798.12
786.88	1789.92
787.06	1791.97
787.23	1800.16
787.41	1640.42
787.58	1701.86
787.76	1722.34
787.94	1681.38
788.11	1720.29
788.29	1591.27
788.46	1656.81
788.64	1675.24
788.81	1693.67
788.99	1683.43
789.16	1742.82
789.34	1720.29
789.52	1634.28
789.69	1722.34
789.87	1601.51
790.04	1724.39
790.22	1669.09
790.39	1798.12
790.57	1636.33
790.74	1705.96
790.92	1691.62
791.09	1607.66
791.27	1716.20
791.44	1722.34
791.62	1673.19
791.79	1769.44
791.97	1726.44
792.15	1890.28
792.32	1679.33
792.50	1683.43
792.67	1800.16
792.85	1765.35
793.02	1718.25
793.20	1656.81
793.37	1601.51
793.55	1667.05
793.72	1695.72
793.90	1755.11
794.07	1699.81
794.25	1595.37
794.42	1705.96
794.60	1679.33
794.77	1740.77
794.95	1773.54
795.12	1849.32
795.30	1732.58
795.47	1660.90
795.65	1810.40
795.82	1658.85
796.00	1681.38
796.17	1685.48
796.34	1681.38
796.52	1767.40
796.69	1714.15
796.87	1708.01
797.04	1800.16
797.22	1751.01
797.39	1658.85
797.57	1787.88
797.74	1673.19
797.92	1697.77
798.09	1693.67
798.27	1673.19
798.44	1748.97
798.62	1728.49
798.79	1742.82
798.96	1675.24
799.14	1732.58
799.31	1892.32
799.49	1794.02
799.66	1644.52
799.84	1689.57
800.01	1669.09
800.19	1740.77
800.36	1626.09
800.53	1708.01
800.71	1755.11
800.88	1753.06
801.06	1640.42
801.23	1665.00
801.41	1656.81
801.58	1724.39
801.75	1669.09
801.93	1734.63
802.10	1697.77
802.28	1712.10
802.45	1632.23
802.63	1732.58
802.80	1798.12
802.97	1675.24
803.15	1705.96
803.32	1722.34
803.50	1673.19
803.67	1689.57
803.84	1685.48
804.02	1673.19
804.19	1705.96
804.37	1628.14
804.54	1697.77
804.71	1644.52
804.89	1767.40
805.06	1611.75
805.24	1615.85
805.41	1630.18
805.58	1730.53
805.76	1830.88
805.93	1656.81
806.10	1779.68
806.28	1765.35
806.45	1699.81
806.63	1708.01
806.80	1757.16
806.97	1738.73
807.15	1757.16
807.32	1703.91
807.49	1751.01
807.67	1683.43
807.84	1744.87
808.01	1589.22
808.19	1865.70
808.36	1796.07
808.54	1687.53
808.71	1591.27
808.88	1710.05
809.06	1730.53
809.23	1822.69
809.40	1665.00
809.58	1757.16
809.75	1656.81
809.92	1648.61
810.10	1875.94
810.27	1732.58
810.44	1789.92
810.62	1734.63
810.79	1708.01
810.96	1689.57
811.14	1689.57
811.31	1724.39
811.48	1806.31
811.66	1775.59
811.83	1748.97
812.00	1777.64
812.18	1712.10
812.35	1794.02
812.52	1677.29
812.69	1669.09
812.87	1753.06
813.04	1658.85
813.21	1687.53
813.39	1619.94
813.56	1699.81
813.73	1808.36
813.91	1615.85
814.08	1665.00
814.25	1791.97
814.42	1646.57
814.60	1693.67
814.77	1789.92
814.94	1716.20
815.12	1705.96
815.29	1691.62
815.46	1697.77
815.63	1728.49
815.81	1712.10
815.98	1716.20
816.15	1667.05
816.33	1775.59
816.50	1687.53
816.67	1656.81
816.84	1705.96
817.02	1656.81
817.19	1757.16
817.36	1726.44
817.53	1722.34
817.71	1714.15
817.88	1849.32
818.05	1740.77
818.22	1763.30
818.40	1886.18
818.57	1769.44
818.74	1732.58
818.91	1609.70
819.09	1748.97
819.26	1804.26
819.43	1671.14
819.60	1718.25
819.78	1744.87
819.95	1794.02
820.12	1679.33
820.29	1767.40
820.47	1746.92
820.64	1673.19
820.81	1648.61
820.98	1681.38
821.15	1767.40
821.33	1716.20
821.50	1687.53
821.67	1705.96
821.84	1662.95
822.02	1703.91
822.19	1755.11
822.36	1636.33
822.53	1718.25
822.70	1628.14
822.88	1742.82
823.05	1718.25
823.22	1650.66
823.39	1732.58
823.56	1701.86
823.74	1826.79
823.91	1714.15
824.08	1626.09
824.25	1699.81
824.42	1908.71
824.60	1628.14
824.77	1775.59
824.94	1701.86
825.11	1726.44
825.28	1689.57
825.45	1730.53
825.63	1767.40
825.80	1607.66
825.97	1783.78
826.14	1677.29
826.31	1671.14
826.48	1751.01
826.66	1624.04
826.83	1669.09
827.00	1705.96
827.17	1613.80
827.34	1609.70
827.51	1626.09
827.69	1734.63
827.86	1634.28
828.03	1691.62
828.20	1699.81
828.37	1644.52
828.54	1677.29
828.71	1724.39
828.89	1787.88
829.06	1701.86
829.23	1775.59
829.40	1697.77
829.57	1640.42
829.74	1841.12
829.91	1654.76
830.09	1726.44
830.26	1837.03
830.43	1769.44
830.60	1677.29
830.77	1714.15
830.94	1791.97
831.11	1775.59
831.28	1683.43
831.46	1751.01
831.63	1667.05
831.80	1742.82
831.97	1720.29
832.14	1640.42
832.31	1742.82
832.48	1746.92
832.65	1785.83
832.82	1722.34
832.99	1728.49
833.17	1634.28
833.34	1828.84
833.51	1771.49
833.68	1662.95
833.85	1822.69
834.02	1683.43
834.19	1691.62
834.36	1667.05
834.53	1808.36
834.70	1775.59
834.87	1738.73
835.04	1738.73
835.22	1736.68
835.39	1697.77
835.56	1609.70
835.73	1621.99
835.90	1748.97
836.07	1703.91
836.24	1710.05
836.41	1689.57
836.58	1595.37
836.75	1791.97
836.92	1722.34
837.09	1656.81
837.26	1736.68
837.43	1724.39
837.60	1732.58
837.77	1683.43
837.94	1775.59
838.12	1767.40
838.29	1710.05
838.46	1628.14
838.63	1693.67
838.80	1818.60
838.97	1730.53
839.14	1769.44
839.31	1675.24
839.48	1779.68
839.65	1730.53
839.82	1728.49
839.99	1738.73
840.16	1683.43
840.33	1644.52
840.50	1759.21
840.67	1710.05
840.84	1660.90
841.01	1787.88
841.18	1708.01
841.35	1619.94
841.52	1691.62
841.69	1820.64
841.86	1703.91
842.03	1687.53
842.20	1746.92
842.37	1710.05
842.54	1738.73
842.71	1751.01
842.88	1628.14
843.05	1701.86
843.22	1630.18
843.39	1626.09
843.56	1669.09
843.73	1689.57
843.90	1642.47
844.07	1701.86
844.24	1714.15
844.41	1746.92
844.58	1781.73
844.75	1671.14
844.92	1744.87
845.09	1705.96
845.26	1716.20
845.43	1757.16
845.60	1742.82
845.77	1753.06
845.94	1673.19
846.10	1748.97
846.27	1603.56
846.44	1593.32
846.61	1595.37
846.78	1804.26
846.95	1812.45
847.12	1728.49
847.29	1716.20
847.46	1656.81
847.63	1724.39
847.80	1593.32
847.97	1699.81
848.14	1814.50
848.31	1642.47
848.48	1648.61
848.65	1738.73
848.82	1724.39
848.98	1826.79
849.15	1773.54
849.32	1748.97
849.49	1806.31
849.66	1652.71
849.83	1761.25
850.00	1648.61
850.17	1679.33
850.34	1751.01
850.51	1716.20
850.68	1691.62
850.85	1810.40
851.01	1724.39
851.18	1814.50
851.35	1665.00
851.52	1660.90
851.69	1716.20
851.86	1574.89
852.03	1722.34
852.20	1769.44
852.37	1681.38
852.53	1703.91
852.70	1730.53
852.87	1755.11
853.04	1652.71
853.21	1658.85
853.38	1748.97
853.55	1783.78
853.72	1800.16
853.89	1648.61
854.05	1638.38
854.22	1718.25
854.39	1738.73
854.56	1701.86
854.73	1777.64
854.90	1656.81
855.07	1703.91
855.23	1732.58
855.40	1667.05
855.57	1667.05
855.74	1564.65
855.91	1812.45
856.08	1634.28
856.25	1591.27
856.41	1638.38
856.58	1761.25
856.75	1712.10
856.92	1665.00
857.09	1714.15
857.26	1617.90
857.42	1630.18
857.59	1753.06
857.76	1787.88
857.93	1773.54
858.10	1699.81
858.27	1703.91
858.43	1769.44
858.60	1669.09
858.77	1662.95
858.94	1662.95
859.11	1748.97
859.27	1685.48
859.44	1744.87
859.61	1814.50
859.78	1632.23
859.95	1671.14
860.12	1679.33
860.28	1804.26
860.45	1880.04
860.62	1679.33
860.79	1724.39
860.95	1720.29
861.12	1671.14
861.29	1744.87
861.46	1638.38
861.63	1714.15
861.79	1705.96
861.96	1658.85
862.13	1693.67
862.30	1732.58
862.47	1746.92
862.63	1646.57
862.80	1787.88
862.97	1724.39
863.14	1697.77
863.30	1712.10
863.47	1695.72
863.64	1822.69
863.81	1783.78
863.97	1732.58
864.14	1740.77
864.31	1771.49
864.48	1771.49
864.65	1701.86
864.81	1746.92
864.98	1691.62
865.15	1773.54
865.32	1730.53
865.48	1751.01
865.65	1808.36
865.82	1673.19
865.98	1775.59
866.15	1755.11
866.32	1736.68
866.49	1697.77
866.65	1757.16
866.82	1607.66
866.99	1769.44
867.16	1726.44
867.32	1718.25
867.49	1652.71
867.66	1656.81
867.83	1632.23
867.99	1667.05
868.16	1667.05
868.33	1644.52
868.49	1726.44
868.66	1716.20
868.83	1808.36
868.99	1718.25
869.16	1710.05
869.33	1787.88
869.50	1820.64
869.66	1734.63
869.83	1697.77
870.00	1615.85
870.16	1738.73
870.33	1728.49
870.50	1761.25
870.66	1662.95
870.83	1865.70
871.00	1759.21
871.17	1757.16
871.33	1746.92
871.50	1628.14
871.67	1640.42
871.83	1650.66
872.00	1812.45
872.17	1642.47
872.33	1845.22
872.50	1755.11
872.67	1681.38
872.83	1724.39
873.00	1710.05
873.17	1742.82
873.33	1818.60
873.50	1748.97
873.67	1634.28
873.83	1673.19
874.00	1708.01
874.16	1789.92
874.33	1705.96
874.50	1687.53
874.66	1748.97
874.83	1730.53
875.00	1681.38
875.16	1753.06
875.33	1744.87
875.50	1607.66
875.66	1673.19
875.83	1740.77
875.99	1646.57
876.16	1662.95
876.33	1679.33
876.49	1636.33
876.66	1699.81
876.83	1681.38
876.99	1558.50
877.16	1734.63
877.32	1675.24
877.49	1726.44
877.66	1693.67
877.82	1798.12
877.99	1675.24
878.15	1806.31
878.32	1665.00
878.49	1650.66
878.65	1693.67
878.82	1777.64
878.98	1640.42
879.15	1718.25
879.32	1748.97
879.48	1673.19
879.65	1673.19
879.81	1703.91
879.98	1722.34
880.15	1730.53
880.31	1708.01
880.48	1607.66
880.64	1732.58
880.81	1765.35
880.97	1783.78
881.14	1824.74
881.31	1671.14
881.47	1755.11
881.64	1677.29
881.80	1640.42
881.97	1712.10
882.13	1746.92
882.30	1701.86
882.47	1662.95
882.63	1673.19
882.80	1687.53
882.96	1703.91
883.13	1791.97
883.29	1683.43
883.46	1671.14
883.62	1824.74
883.79	1712.10
883.95	1781.73
884.12	1710.05
884.29	1794.02
884.45	1730.53
884.62	1734.63
884.78	1730.53
884.95	1748.97
885.11	1656.81
885.28	1720.29
885.44	1748.97
885.61	1791.97
885.77	1808.36
885.94	1804.26
886.10	1730.53
886.27	1705.96
886.43	1804.26
886.60	1761.25
886.76	1605.61
886.93	1710.05
887.09	1730.53
887.26	1585.13
887.42	1665.00
887.59	1742.82
887.75	1822.69
887.92	1759.21
888.08	1845.22
888.25	1763.30
888.41	1812.45
888.58	1681.38
888.74	1656.81
888.91	1679.33
>>>>>End Processed Spectral Data<<<<<
