SpectraSuite Data File
++++++++++++++++++++++++++++++++++++
Date: Mon Jun 06 14:52:17 CEST 2016
User: root
Dark Spectrum Present: No
Reference Spectrum Present: No
Number of Sampled Component Spectra: 1
Spectrometers: USB4C02835
Integration Time (usec): 100000 (USB4C02835)
Spectra Averaged: 1 (USB4C02835)
Boxcar Smoothing: 0 (USB4C02835)
Correct for Electrical Dark: No (USB4C02835)
Strobe/Lamp Enabled: No (USB4C02835)
Correct for Detector Non-linearity: No (USB4C02835)
Correct for Stray Light: No (USB4C02835)
Number of Pixels in Processed Spectrum: 3648
>>>>>Begin Processed Spectral Data<<<<<
177.47	1503.21
177.69	1503.21
177.91	1503.21
178.13	1462.25
178.36	1488.87
178.58	1662.95
178.80	1697.77
179.02	1589.22
179.24	1712.10
179.46	1775.59
179.68	1787.88
179.90	1738.73
180.13	1658.85
180.35	1634.28
180.57	1632.23
180.79	1748.97
181.01	1691.62
181.23	1660.90
181.45	1759.21
181.67	1740.77
181.90	1761.25
182.12	1650.66
182.34	1558.50
182.56	1710.05
182.78	1720.29
183.00	1628.14
183.22	1705.96
183.44	1578.98
183.66	1855.46
183.89	1785.83
184.11	1658.85
184.33	1714.15
184.55	1783.78
184.77	1751.01
184.99	1724.39
185.21	1714.15
185.43	1789.92
185.65	1683.43
185.87	1714.15
186.10	1765.35
186.32	1824.74
186.54	1714.15
186.76	1708.01
186.98	1658.85
187.20	1712.10
187.42	1667.05
187.64	1683.43
187.86	1665.00
188.08	1773.54
188.30	1691.62
188.52	1665.00
188.75	1738.73
188.97	1746.92
189.19	1662.95
189.41	1679.33
189.63	1673.19
189.85	1718.25
190.07	1638.38
190.29	1662.95
190.51	1703.91
190.73	1617.90
190.95	1708.01
191.17	1697.77
191.39	1603.56
191.61	1744.87
191.84	1656.81
192.06	1714.15
192.28	1601.51
192.50	1781.73
192.72	1728.49
192.94	1697.77
193.16	1703.91
193.38	1650.66
193.60	1591.27
193.82	1724.39
194.04	1624.04
194.26	1732.58
194.48	1763.30
194.70	1667.05
194.92	1615.85
195.14	1742.82
195.36	1669.09
195.58	1722.34
195.80	1689.57
196.02	1628.14
196.24	1699.81
196.46	1705.96
196.69	1648.61
196.91	1812.45
197.13	1656.81
197.35	1677.29
197.57	1781.73
197.79	1669.09
198.01	1699.81
198.23	1699.81
198.45	1695.72
198.67	1691.62
198.89	1708.01
199.11	1742.82
199.33	1763.30
199.55	1640.42
199.77	1654.76
199.99	1791.97
200.21	1724.39
200.43	1714.15
200.65	1675.24
200.87	1585.13
201.09	1734.63
201.31	1689.57
201.53	1746.92
201.75	1740.77
201.97	1701.86
202.19	1718.25
202.41	1722.34
202.63	1845.22
202.85	1742.82
203.07	1771.49
203.29	1695.72
203.51	1617.90
203.73	1611.75
203.95	1857.51
204.17	1738.73
204.39	1748.97
204.61	1687.53
204.83	1632.23
205.05	1730.53
205.27	1728.49
205.49	1826.79
205.71	1710.05
205.93	1624.04
206.15	1667.05
206.37	1693.67
206.59	1675.24
206.81	1646.57
207.03	1619.94
207.25	1728.49
207.47	1746.92
207.69	1644.52
207.91	1748.97
208.13	1834.98
208.34	1689.57
208.56	1617.90
208.78	1675.24
209.00	1708.01
209.22	1617.90
209.44	1701.86
209.66	1726.44
209.88	1644.52
210.10	1718.25
210.32	1701.86
210.54	1718.25
210.76	1701.86
210.98	1669.09
211.20	1609.70
211.42	1718.25
211.64	1732.58
211.86	1718.25
212.08	1675.24
212.30	1773.54
212.52	1695.72
212.74	1705.96
212.96	1773.54
213.17	1697.77
213.39	1787.88
213.61	1740.77
213.83	1726.44
214.05	1583.08
214.27	1740.77
214.49	1689.57
214.71	1693.67
214.93	1746.92
215.15	1685.48
215.37	1746.92
215.59	1603.56
215.81	1705.96
216.03	1726.44
216.24	1644.52
216.46	1673.19
216.68	1718.25
216.90	1759.21
217.12	1673.19
217.34	1640.42
217.56	1675.24
217.78	1744.87
218.00	1697.77
218.22	1679.33
218.44	1748.97
218.66	1691.62
218.87	1773.54
219.09	1615.85
219.31	1708.01
219.53	1718.25
219.75	1734.63
219.97	1714.15
220.19	1716.20
220.41	1744.87
220.63	1834.98
220.85	1779.68
221.06	1671.14
221.28	1755.11
221.50	1742.82
221.72	1783.78
221.94	1675.24
222.16	1718.25
222.38	1773.54
222.60	1722.34
222.82	1654.76
223.03	1755.11
223.25	1665.00
223.47	1775.59
223.69	1791.97
223.91	1722.34
224.13	1701.86
224.35	1705.96
224.57	1771.49
224.78	1732.58
225.00	1591.27
225.22	1652.71
225.44	1648.61
225.66	1722.34
225.88	1697.77
226.10	1818.60
226.32	1644.52
226.53	1777.64
226.75	1710.05
226.97	1701.86
227.19	1671.14
227.41	1669.09
227.63	1662.95
227.85	1599.46
228.06	1718.25
228.28	1732.58
228.50	1691.62
228.72	1697.77
228.94	1640.42
229.16	1548.26
229.37	1628.14
229.59	1644.52
229.81	1824.74
230.03	1710.05
230.25	1615.85
230.47	1679.33
230.69	1677.29
230.90	1748.97
231.12	1662.95
231.34	1691.62
231.56	1697.77
231.78	1628.14
232.00	1673.19
232.21	1691.62
232.43	1759.21
232.65	1505.26
232.87	1669.09
233.09	1599.46
233.30	1671.14
233.52	1710.05
233.74	1693.67
233.96	1685.48
234.18	1714.15
234.40	1642.47
234.61	1804.26
234.83	1568.74
235.05	1681.38
235.27	1841.12
235.49	1820.64
235.70	1642.47
235.92	1789.92
236.14	1683.43
236.36	1732.58
236.58	1654.76
236.79	1736.68
237.01	1734.63
237.23	1611.75
237.45	1746.92
237.67	1605.61
237.88	1771.49
238.10	1859.56
238.32	1634.28
238.54	1599.46
238.76	1679.33
238.97	1677.29
239.19	1644.52
239.41	1763.30
239.63	1751.01
239.85	1771.49
240.06	1728.49
240.28	1724.39
240.50	1761.25
240.72	1722.34
240.93	1689.57
241.15	1689.57
241.37	1724.39
241.59	1767.40
241.81	1665.00
242.02	1640.42
242.24	1644.52
242.46	1714.15
242.68	1705.96
242.89	1642.47
243.11	1695.72
243.33	1722.34
243.55	1736.68
243.76	1648.61
243.98	1640.42
244.20	1665.00
244.42	1710.05
244.64	1648.61
244.85	1665.00
245.07	1671.14
245.29	1734.63
245.51	1751.01
245.72	1652.71
245.94	1744.87
246.16	1718.25
246.38	1714.15
246.59	1621.99
246.81	1660.90
247.03	1673.19
247.24	1591.27
247.46	1648.61
247.68	1685.48
247.90	1722.34
248.11	1701.86
248.33	1757.16
248.55	1683.43
248.77	1767.40
248.98	1662.95
249.20	1767.40
249.42	1742.82
249.64	1740.77
249.85	1705.96
250.07	1738.73
250.29	1769.44
250.50	1798.12
250.72	1646.57
250.94	1691.62
251.16	1798.12
251.37	1681.38
251.59	1705.96
251.81	1720.29
252.02	1814.50
252.24	1705.96
252.46	1816.55
252.68	1636.33
252.89	1660.90
253.11	1593.32
253.33	1767.40
253.54	1775.59
253.76	1601.51
253.98	1708.01
254.20	1710.05
254.41	1650.66
254.63	1617.90
254.85	1656.81
255.06	1628.14
255.28	1712.10
255.50	1675.24
255.71	1751.01
255.93	1621.99
256.15	1701.86
256.36	1802.21
256.58	1718.25
256.80	1691.62
257.02	1648.61
257.23	1722.34
257.45	1697.77
257.67	1697.77
257.88	1703.91
258.10	1615.85
258.32	1742.82
258.53	1738.73
258.75	1841.12
258.97	1679.33
259.18	1722.34
259.40	1705.96
259.62	1802.21
259.83	1798.12
260.05	1701.86
260.27	1984.48
260.48	1810.40
260.70	1533.93
260.92	1656.81
261.13	1699.81
261.35	1730.53
261.57	1701.86
261.78	1640.42
262.00	1695.72
262.22	1708.01
262.43	1605.61
262.65	1646.57
262.86	1667.05
263.08	1837.03
263.30	1742.82
263.51	1595.37
263.73	1591.27
263.95	1767.40
264.16	1585.13
264.38	1583.08
264.60	1648.61
264.81	1759.21
265.03	1804.26
265.25	1746.92
265.46	1722.34
265.68	1730.53
265.89	1753.06
266.11	1511.40
266.33	1728.49
266.54	1830.88
266.76	1718.25
266.98	1726.44
267.19	1828.84
267.41	1820.64
267.62	1718.25
267.84	1630.18
268.06	1718.25
268.27	1681.38
268.49	1744.87
268.70	1753.06
268.92	1654.76
269.14	1689.57
269.35	1599.46
269.57	1662.95
269.79	1718.25
270.00	1568.74
270.22	1806.31
270.43	1605.61
270.65	1665.00
270.87	1667.05
271.08	1669.09
271.30	1781.73
271.51	1748.97
271.73	1736.68
271.95	1736.68
272.16	1716.20
272.38	1773.54
272.59	1705.96
272.81	1751.01
273.02	1718.25
273.24	1673.19
273.46	1730.53
273.67	1624.04
273.89	1578.98
274.10	1619.94
274.32	1708.01
274.54	1705.96
274.75	1689.57
274.97	1726.44
275.18	1777.64
275.40	1691.62
275.61	1734.63
275.83	1677.29
276.05	1654.76
276.26	1710.05
276.48	1730.53
276.69	1710.05
276.91	1660.90
277.12	1669.09
277.34	1767.40
277.55	1722.34
277.77	1681.38
277.99	1693.67
278.20	1597.42
278.42	1685.48
278.63	1650.66
278.85	1658.85
279.06	1617.90
279.28	1693.67
279.49	1759.21
279.71	1779.68
279.93	1722.34
280.14	1728.49
280.36	1648.61
280.57	1742.82
280.79	1751.01
281.00	1679.33
281.22	1626.09
281.43	1777.64
281.65	1603.56
281.86	1646.57
282.08	1712.10
282.29	1810.40
282.51	1621.99
282.73	1576.94
282.94	1650.66
283.16	1693.67
283.37	1779.68
283.59	1656.81
283.80	1759.21
284.02	1679.33
284.23	1779.68
284.45	1642.47
284.66	1640.42
284.88	1648.61
285.09	1748.97
285.31	1738.73
285.52	1744.87
285.74	1583.08
285.95	1757.16
286.17	1695.72
286.38	1753.06
286.60	1699.81
286.81	1701.86
287.03	1669.09
287.24	1720.29
287.46	1742.82
287.67	1701.86
287.89	1806.31
288.10	1597.42
288.32	1734.63
288.53	1740.77
288.75	1714.15
288.96	1773.54
289.18	1730.53
289.39	1681.38
289.61	1759.21
289.82	1771.49
290.04	1777.64
290.25	1699.81
290.47	1658.85
290.68	1720.29
290.90	1767.40
291.11	1558.50
291.33	1691.62
291.54	1652.71
291.76	1755.11
291.97	1689.57
292.18	1640.42
292.40	1648.61
292.61	1691.62
292.83	1843.17
293.04	1738.73
293.26	1785.83
293.47	1730.53
293.69	1644.52
293.90	1660.90
294.12	1806.31
294.33	1705.96
294.55	1708.01
294.76	1802.21
294.97	1781.73
295.19	1787.88
295.40	1718.25
295.62	1673.19
295.83	1712.10
296.05	1611.75
296.26	1742.82
296.48	1712.10
296.69	1767.40
296.90	1681.38
297.12	1738.73
297.33	1677.29
297.55	1785.83
297.76	1779.68
297.98	1710.05
298.19	1746.92
298.41	1642.47
298.62	1656.81
298.83	1839.08
299.05	1765.35
299.26	1630.18
299.48	1699.81
299.69	1732.58
299.90	1720.29
300.12	1693.67
300.33	1693.67
300.55	1710.05
300.76	1730.53
300.98	1626.09
301.19	1673.19
301.40	1665.00
301.62	1716.20
301.83	1763.30
302.05	1619.94
302.26	1685.48
302.47	1726.44
302.69	1595.37
302.90	1693.67
303.12	1662.95
303.33	1734.63
303.54	1845.22
303.76	1619.94
303.97	1718.25
304.19	1839.08
304.40	1605.61
304.61	1660.90
304.83	1902.56
305.04	1744.87
305.26	1667.05
305.47	1697.77
305.68	1648.61
305.90	1691.62
306.11	1708.01
306.33	1665.00
306.54	1636.33
306.75	1738.73
306.97	1607.66
307.18	1644.52
307.39	1646.57
307.61	1810.40
307.82	1673.19
308.04	1744.87
308.25	1701.86
308.46	1740.77
308.68	1751.01
308.89	1759.21
309.10	1728.49
309.32	1773.54
309.53	1697.77
309.74	1677.29
309.96	1730.53
310.17	1812.45
310.39	1712.10
310.60	1751.01
310.81	1714.15
311.03	1662.95
311.24	1755.11
311.45	1703.91
311.67	1834.98
311.88	1671.14
312.09	1675.24
312.31	1755.11
312.52	1705.96
312.73	1673.19
312.95	1595.37
313.16	1705.96
313.37	1652.71
313.59	1730.53
313.80	1738.73
314.01	1755.11
314.23	1691.62
314.44	1677.29
314.65	1646.57
314.87	1673.19
315.08	1671.14
315.29	1677.29
315.51	1724.39
315.72	1673.19
315.93	1759.21
316.15	1751.01
316.36	1695.72
316.57	1693.67
316.79	1761.25
317.00	1648.61
317.21	1716.20
317.43	1648.61
317.64	1695.72
317.85	1681.38
318.07	1714.15
318.28	1740.77
318.49	1865.70
318.70	1904.61
318.92	1869.80
319.13	1916.90
319.34	1894.37
319.56	1740.77
319.77	1794.02
319.98	1779.68
320.20	1751.01
320.41	1783.78
320.62	1710.05
320.83	1603.56
321.05	1839.08
321.26	1718.25
321.47	1619.94
321.69	1746.92
321.90	1601.51
322.11	1665.00
322.32	1703.91
322.54	1796.07
322.75	1621.99
322.96	1843.17
323.18	1710.05
323.39	1601.51
323.60	1658.85
323.81	1665.00
324.03	1675.24
324.24	1660.90
324.45	1710.05
324.66	1755.11
324.88	1740.77
325.09	1814.50
325.30	1699.81
325.52	1783.78
325.73	1689.57
325.94	1581.03
326.15	1634.28
326.37	1591.27
326.58	1722.34
326.79	1787.88
327.00	1720.29
327.22	1699.81
327.43	1712.10
327.64	1658.85
327.85	1724.39
328.07	1744.87
328.28	1820.64
328.49	1697.77
328.70	1708.01
328.92	1644.52
329.13	1744.87
329.34	1669.09
329.55	1816.55
329.76	1738.73
329.98	1654.76
330.19	1828.84
330.40	1654.76
330.61	1720.29
330.83	1742.82
331.04	1660.90
331.25	1703.91
331.46	1728.49
331.68	1603.56
331.89	1841.12
332.10	1744.87
332.31	1611.75
332.52	1654.76
332.74	1716.20
332.95	1603.56
333.16	1748.97
333.37	1837.03
333.58	1714.15
333.80	1669.09
334.01	1615.85
334.22	1693.67
334.43	1578.98
334.64	1621.99
334.86	1621.99
335.07	1628.14
335.28	1728.49
335.49	1644.52
335.70	1755.11
335.92	1794.02
336.13	1906.66
336.34	1757.16
336.55	1791.97
336.76	1611.75
336.98	1595.37
337.19	1720.29
337.40	1710.05
337.61	1914.85
337.82	1648.61
338.04	1761.25
338.25	1591.27
338.46	1730.53
338.67	1714.15
338.88	1697.77
339.09	1660.90
339.31	1759.21
339.52	1683.43
339.73	1609.70
339.94	1744.87
340.15	1724.39
340.36	1624.04
340.58	1665.00
340.79	1576.94
341.00	1814.50
341.21	1689.57
341.42	1798.12
341.63	1705.96
341.85	1759.21
342.06	1726.44
342.27	1697.77
342.48	1753.06
342.69	1681.38
342.90	1650.66
343.12	1675.24
343.33	1679.33
343.54	1755.11
343.75	1777.64
343.96	1732.58
344.17	1603.56
344.38	1794.02
344.60	1677.29
344.81	1626.09
345.02	1695.72
345.23	1779.68
345.44	1775.59
345.65	1726.44
345.86	1710.05
346.07	1636.33
346.29	1681.38
346.50	1769.44
346.71	1673.19
346.92	1791.97
347.13	1830.88
347.34	1708.01
347.55	1703.91
347.76	1656.81
347.98	1615.85
348.19	1697.77
348.40	1824.74
348.61	1658.85
348.82	1789.92
349.03	1771.49
349.24	1673.19
349.45	1734.63
349.66	1591.27
349.88	1746.92
350.09	1654.76
350.30	1765.35
350.51	1738.73
350.72	1714.15
350.93	1673.19
351.14	1615.85
351.35	1675.24
351.56	1687.53
351.77	1728.49
351.99	1671.14
352.20	1804.26
352.41	1763.30
352.62	1597.42
352.83	1726.44
353.04	1742.82
353.25	1710.05
353.46	1701.86
353.67	1746.92
353.88	1640.42
354.09	1773.54
354.30	1724.39
354.52	1751.01
354.73	1624.04
354.94	1624.04
355.15	1669.09
355.36	1771.49
355.57	1665.00
355.78	1722.34
355.99	1705.96
356.20	1693.67
356.41	1710.05
356.62	1732.58
356.83	1732.58
357.04	1791.97
357.25	1593.32
357.46	1732.58
357.68	1609.70
357.89	1732.58
358.10	1710.05
358.31	1632.23
358.52	1652.71
358.73	1654.76
358.94	1607.66
359.15	1673.19
359.36	1734.63
359.57	1658.85
359.78	1740.77
359.99	1732.58
360.20	1685.48
360.41	1716.20
360.62	1724.39
360.83	1687.53
361.04	1716.20
361.25	1757.16
361.46	1746.92
361.67	1757.16
361.88	1736.68
362.09	1687.53
362.30	1701.86
362.51	1583.08
362.72	1693.67
362.93	1771.49
363.14	1687.53
363.35	1714.15
363.56	1701.86
363.78	1734.63
363.99	1787.88
364.20	1624.04
364.41	1746.92
364.62	1894.37
364.83	1740.77
365.04	1710.05
365.25	1734.63
365.46	1796.07
365.67	1724.39
365.88	1611.75
366.09	1775.59
366.30	1597.42
366.51	1689.57
366.72	1619.94
366.93	1761.25
367.14	1628.14
367.35	1800.16
367.56	1695.72
367.77	1757.16
367.98	1710.05
368.18	1794.02
368.39	1701.86
368.60	1648.61
368.81	1730.53
369.02	1753.06
369.23	1701.86
369.44	1583.08
369.65	1701.86
369.86	1769.44
370.07	1755.11
370.28	1638.38
370.49	1699.81
370.70	1755.11
370.91	1691.62
371.12	1644.52
371.33	1818.60
371.54	1624.04
371.75	1861.60
371.96	1572.84
372.17	1665.00
372.38	1757.16
372.59	1775.59
372.80	1685.48
373.01	1691.62
373.22	1738.73
373.43	1697.77
373.64	1619.94
373.85	1720.29
374.06	1824.74
374.26	1685.48
374.47	1654.76
374.68	1748.97
374.89	1675.24
375.10	1673.19
375.31	1751.01
375.52	1705.96
375.73	1724.39
375.94	1638.38
376.15	1724.39
376.36	1642.47
376.57	1687.53
376.78	1693.67
376.99	1654.76
377.20	1796.07
377.40	1619.94
377.61	1847.27
377.82	1593.32
378.03	1771.49
378.24	1638.38
378.45	1716.20
378.66	1691.62
378.87	1607.66
379.08	1697.77
379.29	1642.47
379.50	1730.53
379.71	1730.53
379.91	1794.02
380.12	1708.01
380.33	1767.40
380.54	1665.00
380.75	1656.81
380.96	1691.62
381.17	1748.97
381.38	1714.15
381.59	1689.57
381.80	1701.86
382.00	1853.41
382.21	1775.59
382.42	1740.77
382.63	1855.46
382.84	1779.68
383.05	1789.92
383.26	1804.26
383.47	1722.34
383.68	1720.29
383.88	1705.96
384.09	1705.96
384.30	1806.31
384.51	1718.25
384.72	1683.43
384.93	1673.19
385.14	1656.81
385.35	1767.40
385.55	1632.23
385.76	1716.20
385.97	1724.39
386.18	1630.18
386.39	1671.14
386.60	1634.28
386.81	1599.46
387.02	1605.61
387.22	1722.34
387.43	1667.05
387.64	1791.97
387.85	1890.28
388.06	2181.09
388.27	4337.60
388.48	6893.46
388.68	8251.27
388.89	9715.56
389.10	9928.55
389.31	8712.06
389.52	7735.18
389.73	6754.20
389.93	6326.18
390.14	5998.50
390.35	5171.12
390.56	4632.51
390.77	3796.93
390.98	3057.62
391.18	2543.58
391.39	2076.64
391.60	1888.23
391.81	1808.36
392.02	1742.82
392.23	1802.21
392.43	1712.10
392.64	1804.26
392.85	1699.81
393.06	1806.31
393.27	1697.77
393.47	1697.77
393.68	1712.10
393.89	1703.91
394.10	1785.83
394.31	1644.52
394.52	1669.09
394.72	1681.38
394.93	1796.07
395.14	1720.29
395.35	1728.49
395.56	1652.71
395.76	1732.58
395.97	1765.35
396.18	1804.26
396.39	1837.03
396.60	1914.85
396.80	1916.90
397.01	1839.08
397.22	1845.22
397.43	1882.08
397.64	1726.44
397.84	1832.93
398.05	1951.71
398.26	1744.87
398.47	1753.06
398.67	1761.25
398.88	1734.63
399.09	1751.01
399.30	1687.53
399.51	1767.40
399.71	1746.92
399.92	1730.53
400.13	1763.30
400.34	1654.76
400.54	1710.05
400.75	1832.93
400.96	1687.53
401.17	1863.65
401.37	1734.63
401.58	1804.26
401.79	1765.35
402.00	1863.65
402.21	1988.58
402.41	1882.08
402.62	1984.48
402.83	2084.83
403.04	1931.23
403.24	2097.12
403.45	1808.36
403.66	1886.18
403.87	1882.08
404.07	1916.90
404.28	1837.03
404.49	1918.95
404.70	1746.92
404.90	1775.59
405.11	1712.10
405.32	1785.83
405.52	1708.01
405.73	1685.48
405.94	1738.73
406.15	1695.72
406.35	1794.02
406.56	1751.01
406.77	1730.53
406.98	1730.53
407.18	1654.76
407.39	1939.43
407.60	1734.63
407.80	1710.05
408.01	1720.29
408.22	1818.60
408.43	1660.90
408.63	1804.26
408.84	1775.59
409.05	1787.88
409.25	1632.23
409.46	1689.57
409.67	1662.95
409.88	1658.85
410.08	1665.00
410.29	1630.18
410.50	1734.63
410.70	1685.48
410.91	1705.96
411.12	1683.43
411.32	1679.33
411.53	1734.63
411.74	1802.21
411.95	1781.73
412.15	1669.09
412.36	1736.68
412.57	1710.05
412.77	1769.44
412.98	1734.63
413.19	1646.57
413.39	1763.30
413.60	1740.77
413.81	1800.16
414.01	1585.13
414.22	1755.11
414.43	1781.73
414.63	1642.47
414.84	1781.73
415.05	1794.02
415.25	1611.75
415.46	1738.73
415.67	1773.54
415.87	1728.49
416.08	1685.48
416.29	1675.24
416.49	1748.97
416.70	1648.61
416.91	1675.24
417.11	1693.67
417.32	1763.30
417.53	1759.21
417.73	1794.02
417.94	1701.86
418.15	1755.11
418.35	1722.34
418.56	1683.43
418.77	1796.07
418.97	1679.33
419.18	1669.09
419.38	1562.60
419.59	1669.09
419.80	1808.36
420.00	1648.61
420.21	1671.14
420.42	1746.92
420.62	1705.96
420.83	1746.92
421.04	1685.48
421.24	1689.57
421.45	1761.25
421.65	1607.66
421.86	1708.01
422.07	1779.68
422.27	1673.19
422.48	1791.97
422.69	1665.00
422.89	1683.43
423.10	1703.91
423.30	1710.05
423.51	1677.29
423.72	1787.88
423.92	1720.29
424.13	1642.47
424.33	1738.73
424.54	1738.73
424.75	1660.90
424.95	1798.12
425.16	1769.44
425.36	1689.57
425.57	1738.73
425.78	1796.07
425.98	1779.68
426.19	1685.48
426.39	1691.62
426.60	1658.85
426.81	1830.88
427.01	1779.68
427.22	1626.09
427.42	1576.94
427.63	1697.77
427.83	1740.77
428.04	1765.35
428.25	1759.21
428.45	1818.60
428.66	1818.60
428.86	1693.67
429.07	1712.10
429.28	1695.72
429.48	1695.72
429.69	1705.96
429.89	1681.38
430.10	1642.47
430.30	1746.92
430.51	1738.73
430.71	1617.90
430.92	1705.96
431.13	1634.28
431.33	1775.59
431.54	1718.25
431.74	1757.16
431.95	1802.21
432.15	1665.00
432.36	1746.92
432.56	1767.40
432.77	1802.21
432.98	1804.26
433.18	1701.86
433.39	1656.81
433.59	1679.33
433.80	1828.84
434.00	1880.04
434.21	1751.01
434.41	1587.18
434.62	1855.46
434.82	1609.70
435.03	1705.96
435.23	1751.01
435.44	1587.18
435.64	1738.73
435.85	1759.21
436.06	1767.40
436.26	1738.73
436.47	1742.82
436.67	1617.90
436.88	1685.48
437.08	1759.21
437.29	1736.68
437.49	1771.49
437.70	1751.01
437.90	1697.77
438.11	1931.23
438.31	1810.40
438.52	1906.66
438.72	1845.22
438.93	1888.23
439.13	1787.88
439.34	1843.17
439.54	1718.25
439.75	1716.20
439.95	1798.12
440.16	1648.61
440.36	1771.49
440.57	1783.78
440.77	1761.25
440.98	1689.57
441.18	1724.39
441.39	1683.43
441.59	1640.42
441.80	1849.32
442.00	1742.82
442.21	1796.07
442.41	1652.71
442.62	1726.44
442.82	1726.44
443.02	1699.81
443.23	1728.49
443.43	1679.33
443.64	1773.54
443.84	1658.85
444.05	1857.51
444.25	1740.77
444.46	1728.49
444.66	1728.49
444.87	1861.60
445.07	1599.46
445.28	1701.86
445.48	1843.17
445.69	1763.30
445.89	1925.09
446.09	1722.34
446.30	2060.26
446.50	2723.80
446.71	3762.12
446.91	4413.37
447.12	4745.14
447.32	4861.88
447.53	4325.31
447.73	4014.02
447.93	3547.08
448.14	3258.32
448.34	3190.74
448.55	2895.83
448.75	2844.63
448.96	2754.52
449.16	2404.32
449.36	2328.54
449.57	2023.39
449.77	1920.99
449.98	1794.02
450.18	1765.35
450.39	1853.41
450.59	1781.73
450.79	1744.87
451.00	1658.85
451.20	1779.68
451.41	1705.96
451.61	1783.78
451.81	1695.72
452.02	1738.73
452.22	1710.05
452.43	1736.68
452.63	1693.67
452.84	1708.01
453.04	1714.15
453.24	1726.44
453.45	1736.68
453.65	1769.44
453.86	1710.05
454.06	1759.21
454.26	1712.10
454.47	1630.18
454.67	1847.27
454.87	1751.01
455.08	1730.53
455.28	1859.56
455.49	1718.25
455.69	1699.81
455.89	1826.79
456.10	1828.84
456.30	1642.47
456.51	1810.40
456.71	1748.97
456.91	1753.06
457.12	1656.81
457.32	1724.39
457.52	1691.62
457.73	1798.12
457.93	1742.82
458.14	1767.40
458.34	1621.99
458.54	1693.67
458.75	1722.34
458.95	1828.84
459.15	1687.53
459.36	1718.25
459.56	1785.83
459.76	1884.13
459.97	1710.05
460.17	1757.16
460.37	1791.97
460.58	1708.01
460.78	1775.59
460.99	1730.53
461.19	1656.81
461.39	1703.91
461.60	1656.81
461.80	1763.30
462.00	1648.61
462.21	1734.63
462.41	1708.01
462.61	1691.62
462.82	1621.99
463.02	1728.49
463.22	1710.05
463.43	1810.40
463.63	1701.86
463.83	1822.69
464.04	1726.44
464.24	1660.90
464.44	1736.68
464.64	1705.96
464.85	1710.05
465.05	1748.97
465.25	1773.54
465.46	1726.44
465.66	1779.68
465.86	1738.73
466.07	1746.92
466.27	1726.44
466.47	1652.71
466.68	1662.95
466.88	1832.93
467.08	1767.40
467.29	1722.34
467.49	1765.35
467.69	1742.82
467.89	1755.11
468.10	1681.38
468.30	1712.10
468.50	1787.88
468.71	1757.16
468.91	1607.66
469.11	1834.98
469.31	1763.30
469.52	1728.49
469.72	1757.16
469.92	1837.03
470.13	1697.77
470.33	1708.01
470.53	1845.22
470.73	2043.87
470.94	2310.11
471.14	2306.01
471.34	2557.91
471.54	2451.42
471.75	2205.66
471.95	2197.47
472.15	2062.30
472.36	2086.88
472.56	2115.55
472.76	2138.08
472.96	2058.21
473.17	1923.04
473.37	1855.46
473.57	1812.45
473.77	1841.12
473.98	1779.68
474.18	1730.53
474.38	1978.34
474.58	1705.96
474.79	1722.34
474.99	1746.92
475.19	1802.21
475.39	1636.33
475.60	1710.05
475.80	1748.97
476.00	1675.24
476.20	1677.29
476.41	1751.01
476.61	1796.07
476.81	1781.73
477.01	1685.48
477.21	1875.94
477.42	1796.07
477.62	1619.94
477.82	1767.40
478.02	1697.77
478.23	1677.29
478.43	1603.56
478.63	1708.01
478.83	1712.10
479.03	1714.15
479.24	1769.44
479.44	1837.03
479.64	1656.81
479.84	1607.66
480.04	1671.14
480.25	1724.39
480.45	1658.85
480.65	1697.77
480.85	1871.84
481.06	1669.09
481.26	1730.53
481.46	1748.97
481.66	1652.71
481.86	1710.05
482.06	1771.49
482.27	1722.34
482.47	1722.34
482.67	1740.77
482.87	1609.70
483.07	1714.15
483.28	1607.66
483.48	1683.43
483.68	1812.45
483.88	1722.34
484.08	1599.46
484.29	1681.38
484.49	1679.33
484.69	1689.57
484.89	1845.22
485.09	1789.92
485.29	1726.44
485.50	1740.77
485.70	1665.00
485.90	1763.30
486.10	1716.20
486.30	1804.26
486.50	1824.74
486.71	1658.85
486.91	1787.88
487.11	1777.64
487.31	1634.28
487.51	1726.44
487.71	1624.04
487.91	1646.57
488.12	1669.09
488.32	1583.08
488.52	1658.85
488.72	1607.66
488.92	1753.06
489.12	1720.29
489.32	1699.81
489.53	1775.59
489.73	1626.09
489.93	1787.88
490.13	1710.05
490.33	1648.61
490.53	1703.91
490.73	1771.49
490.94	1591.27
491.14	1773.54
491.34	1851.36
491.54	2062.30
491.74	2621.40
491.94	2947.03
492.14	2985.94
492.34	3076.05
492.54	2787.29
492.75	2414.56
492.95	2441.18
493.15	2361.31
493.35	2240.48
493.55	2234.33
493.75	2078.69
493.95	2205.66
494.15	2021.35
494.35	1943.52
494.56	1908.71
494.76	1828.84
494.96	1804.26
495.16	1830.88
495.36	1742.82
495.56	1757.16
495.76	1734.63
495.96	1699.81
496.16	1695.72
496.36	1759.21
496.56	1734.63
496.77	1712.10
496.97	1738.73
497.17	1716.20
497.37	1621.99
497.57	1681.38
497.77	1804.26
497.97	1581.03
498.17	1726.44
498.37	1710.05
498.57	1781.73
498.77	1695.72
498.97	1789.92
499.17	1808.36
499.38	1679.33
499.58	1757.16
499.78	1828.84
499.98	1798.12
500.18	1701.86
500.38	1751.01
500.58	1916.90
500.78	2613.21
500.98	4452.28
501.18	5924.77
501.38	6829.98
501.58	7151.51
501.78	6717.34
501.98	5613.48
502.18	5003.19
502.38	4392.89
502.58	4175.81
502.78	3784.65
502.98	3647.43
503.18	3491.79
503.38	3319.76
503.59	2777.05
503.79	2734.04
503.99	2510.81
504.19	2320.35
504.39	2189.28
504.59	2258.91
504.79	2181.09
504.99	2035.68
505.19	1978.34
505.39	1964.00
505.59	1984.48
505.79	1888.23
505.99	1796.07
506.19	1738.73
506.39	1925.09
506.59	1748.97
506.79	1841.12
506.99	1877.99
507.19	1783.78
507.39	1796.07
507.59	1617.90
507.79	1671.14
507.99	1669.09
508.19	1775.59
508.39	1671.14
508.59	1685.48
508.79	1869.80
508.99	1847.27
509.19	1716.20
509.39	1761.25
509.59	1652.71
509.79	1624.04
509.99	1716.20
510.19	1794.02
510.39	1748.97
510.59	1726.44
510.79	1675.24
510.99	1718.25
511.19	1708.01
511.39	1843.17
511.59	1748.97
511.79	1705.96
511.99	1683.43
512.19	1724.39
512.38	1757.16
512.58	1630.18
512.78	1798.12
512.98	1761.25
513.18	1859.56
513.38	1638.38
513.58	1714.15
513.78	1671.14
513.98	1718.25
514.18	1697.77
514.38	1718.25
514.58	1820.64
514.78	1724.39
514.98	1701.86
515.18	1753.06
515.38	1679.33
515.58	1886.18
515.78	1662.95
515.98	1701.86
516.18	1718.25
516.38	1771.49
516.57	1673.19
516.77	1728.49
516.97	1675.24
517.17	1701.86
517.37	1679.33
517.57	1748.97
517.77	1777.64
517.97	1671.14
518.17	1724.39
518.37	1736.68
518.57	1624.04
518.77	1687.53
518.97	1726.44
519.16	1763.30
519.36	1726.44
519.56	1789.92
519.76	1794.02
519.96	1798.12
520.16	1751.01
520.36	1726.44
520.56	1785.83
520.76	1783.78
520.96	1636.33
521.16	1812.45
521.35	1777.64
521.55	1877.99
521.75	1742.82
521.95	1708.01
522.15	1646.57
522.35	1591.27
522.55	1691.62
522.75	1857.51
522.95	1732.58
523.14	1730.53
523.34	1789.92
523.54	1681.38
523.74	1765.35
523.94	1718.25
524.14	1673.19
524.34	1787.88
524.54	1845.22
524.73	1751.01
524.93	1748.97
525.13	1652.71
525.33	1689.57
525.53	1855.46
525.73	1785.83
525.93	1687.53
526.13	1687.53
526.32	1656.81
526.52	1755.11
526.72	1783.78
526.92	1751.01
527.12	1681.38
527.32	1687.53
527.52	1847.27
527.71	1712.10
527.91	1695.72
528.11	1720.29
528.31	1697.77
528.51	1675.24
528.71	1810.40
528.90	1724.39
529.10	1820.64
529.30	1857.51
529.50	1734.63
529.70	1763.30
529.90	1697.77
530.09	1689.57
530.29	1746.92
530.49	1734.63
530.69	1845.22
530.89	1746.92
531.09	1742.82
531.28	1701.86
531.48	1759.21
531.68	1779.68
531.88	1724.39
532.08	1820.64
532.28	1644.52
532.47	1759.21
532.67	1769.44
532.87	1771.49
533.07	1675.24
533.27	1720.29
533.46	1746.92
533.66	1781.73
533.86	1697.77
534.06	1740.77
534.26	1753.06
534.45	1671.14
534.65	1714.15
534.85	1802.21
535.05	1777.64
535.25	1722.34
535.44	1669.09
535.64	1755.11
535.84	1710.05
536.04	1677.29
536.24	1724.39
536.43	1693.67
536.63	1722.34
536.83	1705.96
537.03	1634.28
537.22	1626.09
537.42	1558.50
537.62	1685.48
537.82	1677.29
538.02	1849.32
538.21	1832.93
538.41	1861.60
538.61	1728.49
538.81	1771.49
539.00	1851.36
539.20	1648.61
539.40	1675.24
539.60	1736.68
539.79	1738.73
539.99	1687.53
540.19	1675.24
540.39	1775.59
540.58	1800.16
540.78	1751.01
540.98	1763.30
541.18	1753.06
541.37	1820.64
541.57	1728.49
541.77	1695.72
541.97	1732.58
542.16	1730.53
542.36	1691.62
542.56	1705.96
542.76	1767.40
542.95	1769.44
543.15	1638.38
543.35	1773.54
543.54	1746.92
543.74	1775.59
543.94	1773.54
544.14	1634.28
544.33	1765.35
544.53	1660.90
544.73	1705.96
544.93	1644.52
545.12	1710.05
545.32	1705.96
545.52	1697.77
545.71	1605.61
545.91	1677.29
546.11	1650.66
546.30	1642.47
546.50	1710.05
546.70	1732.58
546.90	1736.68
547.09	1671.14
547.29	1708.01
547.49	1785.83
547.68	1773.54
547.88	1712.10
548.08	1683.43
548.27	2179.04
548.47	1740.77
548.67	1681.38
548.87	1771.49
549.06	1697.77
549.26	1740.77
549.46	1742.82
549.65	1675.24
549.85	1673.19
550.05	1748.97
550.24	1658.85
550.44	1742.82
550.64	1816.55
550.83	1730.53
551.03	1736.68
551.23	1796.07
551.42	1798.12
551.62	1734.63
551.82	1753.06
552.01	1769.44
552.21	1837.03
552.41	1699.81
552.60	1841.12
552.80	1771.49
553.00	1746.92
553.19	1705.96
553.39	1822.69
553.59	1636.33
553.78	1689.57
553.98	1708.01
554.17	1738.73
554.37	1765.35
554.57	1806.31
554.76	1701.86
554.96	1748.97
555.16	1800.16
555.35	1781.73
555.55	1771.49
555.75	1683.43
555.94	1771.49
556.14	1658.85
556.33	1736.68
556.53	1710.05
556.73	1693.67
556.92	1822.69
557.12	1814.50
557.32	1861.60
557.51	1800.16
557.71	1779.68
557.90	1740.77
558.10	1875.94
558.30	1732.58
558.49	1755.11
558.69	1708.01
558.88	1673.19
559.08	1796.07
559.28	1748.97
559.47	1798.12
559.67	1742.82
559.86	1820.64
560.06	1736.68
560.26	1732.58
560.45	1781.73
560.65	1728.49
560.84	1853.41
561.04	1669.09
561.24	1849.32
561.43	1628.14
561.63	1812.45
561.82	1718.25
562.02	1724.39
562.22	1771.49
562.41	1708.01
562.61	1650.66
562.80	1722.34
563.00	1931.23
563.19	1798.12
563.39	1755.11
563.59	1701.86
563.78	1730.53
563.98	1595.37
564.17	1615.85
564.37	1689.57
564.56	1761.25
564.76	1646.57
564.96	1781.73
565.15	1699.81
565.35	1849.32
565.54	1748.97
565.74	1755.11
565.93	1800.16
566.13	1738.73
566.32	1701.86
566.52	1675.24
566.71	1687.53
566.91	1755.11
567.11	1603.56
567.30	1710.05
567.50	1773.54
567.69	1748.97
567.89	1771.49
568.08	1636.33
568.28	1734.63
568.47	1648.61
568.67	1796.07
568.86	1701.86
569.06	1755.11
569.25	1742.82
569.45	1634.28
569.64	1755.11
569.84	1734.63
570.04	1716.20
570.23	1730.53
570.43	1763.30
570.62	1757.16
570.82	1773.54
571.01	1667.05
571.21	1705.96
571.40	1714.15
571.60	1761.25
571.79	1746.92
571.99	1789.92
572.18	1691.62
572.38	1740.77
572.57	1757.16
572.77	1789.92
572.96	1906.66
573.16	1714.15
573.35	1765.35
573.55	1767.40
573.74	1775.59
573.94	1669.09
574.13	1708.01
574.33	1753.06
574.52	1779.68
574.71	1759.21
574.91	1740.77
575.10	1705.96
575.30	1691.62
575.49	1714.15
575.69	1701.86
575.88	1751.01
576.08	1665.00
576.27	1828.84
576.47	1734.63
576.66	1873.89
576.86	1820.64
577.05	1718.25
577.25	1771.49
577.44	1841.12
577.64	1726.44
577.83	1781.73
578.02	1816.55
578.22	1863.65
578.41	1783.78
578.61	1665.00
578.80	1648.61
579.00	1722.34
579.19	1722.34
579.39	1765.35
579.58	1787.88
579.77	1732.58
579.97	1751.01
580.16	1865.70
580.36	1837.03
580.55	1830.88
580.75	1794.02
580.94	1718.25
581.13	1812.45
581.33	1804.26
581.52	1791.97
581.72	1951.71
581.91	1763.30
582.11	1677.29
582.30	1722.34
582.49	1732.58
582.69	1845.22
582.88	1796.07
583.08	1830.88
583.27	1789.92
583.47	1828.84
583.66	1685.48
583.85	1720.29
584.05	1798.12
584.24	1753.06
584.44	1818.60
584.63	1839.08
584.82	1871.84
585.02	1791.97
585.21	1775.59
585.41	1791.97
585.60	1800.16
585.79	1986.53
585.99	1871.84
586.18	1884.13
586.37	2226.14
586.57	3364.81
586.76	9924.46
586.96	24479.37
587.15	34371.06
587.34	40811.92
587.54	42384.76
587.73	36904.40
587.93	26611.31
588.12	21726.90
588.31	18679.52
588.51	16240.39
588.70	15253.27
588.89	14309.16
589.09	12668.73
589.28	11065.18
589.47	9441.14
589.67	8069.00
589.86	6490.01
590.06	5197.74
590.25	4011.97
590.44	3143.63
590.64	2619.35
590.83	2168.80
591.02	2133.98
591.22	1976.29
591.41	1935.33
591.60	1865.70
591.80	1929.19
591.99	1662.95
592.18	1781.73
592.38	1841.12
592.57	1738.73
592.76	1794.02
592.96	1722.34
593.15	1714.15
593.34	1800.16
593.54	1724.39
593.73	1816.55
593.92	1802.21
594.12	1746.92
594.31	1775.59
594.50	1855.46
594.70	1742.82
594.89	1785.83
595.08	1720.29
595.28	1757.16
595.47	1980.39
595.66	1814.50
595.86	1679.33
596.05	1691.62
596.24	1763.30
596.43	1798.12
596.63	1832.93
596.82	1783.78
597.01	1720.29
597.21	1804.26
597.40	1753.06
597.59	1732.58
597.79	1681.38
597.98	1796.07
598.17	1753.06
598.36	1775.59
598.56	1767.40
598.75	1685.48
598.94	1726.44
599.14	1783.78
599.33	1681.38
599.52	1755.11
599.71	1802.21
599.91	1767.40
600.10	1740.77
600.29	1658.85
600.48	1689.57
600.68	1757.16
600.87	1732.58
601.06	1705.96
601.26	1779.68
601.45	1714.15
601.64	1722.34
601.83	1828.84
602.03	1675.24
602.22	1662.95
602.41	1845.22
602.60	1822.69
602.80	1783.78
602.99	1783.78
603.18	1738.73
603.37	1685.48
603.57	1820.64
603.76	1787.88
603.95	1759.21
604.14	1798.12
604.34	1683.43
604.53	1621.99
604.72	1748.97
604.91	1751.01
605.10	1783.78
605.30	1693.67
605.49	1804.26
605.68	1796.07
605.87	1761.25
606.07	1669.09
606.26	1779.68
606.45	1771.49
606.64	1734.63
606.84	1738.73
607.03	1697.77
607.22	1685.48
607.41	1656.81
607.60	1783.78
607.80	1755.11
607.99	1757.16
608.18	1746.92
608.37	1714.15
608.56	1712.10
608.76	1816.55
608.95	1869.80
609.14	1839.08
609.33	1734.63
609.52	1789.92
609.72	1679.33
609.91	1767.40
610.10	1759.21
610.29	1822.69
610.48	1753.06
610.68	1673.19
610.87	1701.86
611.06	1693.67
611.25	1685.48
611.44	1759.21
611.63	1753.06
611.83	1763.30
612.02	1581.03
612.21	1818.60
612.40	1607.66
612.59	1710.05
612.79	1779.68
612.98	1761.25
613.17	1808.36
613.36	1783.78
613.55	1781.73
613.74	1634.28
613.93	1662.95
614.13	1732.58
614.32	1714.15
614.51	1834.98
614.70	1728.49
614.89	1667.05
615.08	1742.82
615.28	2052.06
615.47	1685.48
615.66	1726.44
615.85	1626.09
616.04	1761.25
616.23	1658.85
616.42	1826.79
616.62	1748.97
616.81	1753.06
617.00	1746.92
617.19	1767.40
617.38	1665.00
617.57	1732.58
617.76	1720.29
617.95	1828.84
618.15	1843.17
618.34	1757.16
618.53	1624.04
618.72	1843.17
618.91	1744.87
619.10	1806.31
619.29	1748.97
619.48	1699.81
619.68	1671.14
619.87	1683.43
620.06	1693.67
620.25	1724.39
620.44	1708.01
620.63	1763.30
620.82	1671.14
621.01	1742.82
621.20	1722.34
621.39	1753.06
621.59	1671.14
621.78	1722.34
621.97	1658.85
622.16	1751.01
622.35	1775.59
622.54	1814.50
622.73	1785.83
622.92	1583.08
623.11	1746.92
623.30	1714.15
623.49	1773.54
623.68	1695.72
623.88	1802.21
624.07	1697.77
624.26	1708.01
624.45	1683.43
624.64	1660.90
624.83	1751.01
625.02	1677.29
625.21	1748.97
625.40	1687.53
625.59	1802.21
625.78	1703.91
625.97	1808.36
626.16	1783.78
626.35	1701.86
626.54	1722.34
626.74	1869.80
626.93	1742.82
627.12	1751.01
627.31	1755.11
627.50	1837.03
627.69	1759.21
627.88	1701.86
628.07	1751.01
628.26	1648.61
628.45	1669.09
628.64	1732.58
628.83	1671.14
629.02	1615.85
629.21	1730.53
629.40	1734.63
629.59	1691.62
629.78	1730.53
629.97	1693.67
630.16	1746.92
630.35	1746.92
630.54	1683.43
630.73	1708.01
630.92	1751.01
631.11	1619.94
631.30	1669.09
631.49	1738.73
631.68	1697.77
631.87	1718.25
632.06	1611.75
632.25	1779.68
632.44	1720.29
632.63	1755.11
632.82	1714.15
633.01	1621.99
633.20	1671.14
633.39	1646.57
633.58	1718.25
633.77	1726.44
633.96	1693.67
634.15	1794.02
634.34	1656.81
634.53	1751.01
634.72	1628.14
634.91	1648.61
635.10	1705.96
635.29	1751.01
635.48	1718.25
635.67	1740.77
635.86	1662.95
636.05	1824.74
636.24	1720.29
636.43	1669.09
636.62	1800.16
636.81	1644.52
637.00	1755.11
637.19	1798.12
637.38	1716.20
637.57	1656.81
637.76	1779.68
637.95	1726.44
638.14	1705.96
638.33	1775.59
638.52	1662.95
638.71	1703.91
638.89	1689.57
639.08	1800.16
639.27	1742.82
639.46	1665.00
639.65	1779.68
639.84	1673.19
640.03	1761.25
640.22	1703.91
640.41	1900.52
640.60	1675.24
640.79	1779.68
640.98	1681.38
641.17	1734.63
641.36	1675.24
641.55	1607.66
641.74	1677.29
641.92	1642.47
642.11	1636.33
642.30	1728.49
642.49	1677.29
642.68	1699.81
642.87	1775.59
643.06	1767.40
643.25	1722.34
643.44	1740.77
643.63	1761.25
643.82	1806.31
644.00	1613.80
644.19	1695.72
644.38	1675.24
644.57	1751.01
644.76	1746.92
644.95	1681.38
645.14	1783.78
645.33	1658.85
645.52	1681.38
645.71	1724.39
645.89	1675.24
646.08	1724.39
646.27	1693.67
646.46	1759.21
646.65	1697.77
646.84	1718.25
647.03	1679.33
647.22	1751.01
647.40	1718.25
647.59	1734.63
647.78	1658.85
647.97	1671.14
648.16	1646.57
648.35	1828.84
648.54	1683.43
648.73	1712.10
648.91	1781.73
649.10	1755.11
649.29	1640.42
649.48	1710.05
649.67	1705.96
649.86	1685.48
650.05	1699.81
650.23	1724.39
650.42	1595.37
650.61	1783.78
650.80	1712.10
650.99	1863.65
651.18	1695.72
651.36	1755.11
651.55	1689.57
651.74	1697.77
651.93	1662.95
652.12	1683.43
652.31	1697.77
652.49	1802.21
652.68	1748.97
652.87	1730.53
653.06	1742.82
653.25	1726.44
653.44	1699.81
653.62	1757.16
653.81	1693.67
654.00	1722.34
654.19	1691.62
654.38	1839.08
654.56	1697.77
654.75	1671.14
654.94	1763.30
655.13	1736.68
655.32	1732.58
655.51	1783.78
655.69	1656.81
655.88	1626.09
656.07	1683.43
656.26	1753.06
656.45	1621.99
656.63	1634.28
656.82	1771.49
657.01	1763.30
657.20	1697.77
657.38	1804.26
657.57	1665.00
657.76	1716.20
657.95	1734.63
658.14	1656.81
658.32	1658.85
658.51	1650.66
658.70	1710.05
658.89	1699.81
659.08	1775.59
659.26	1748.97
659.45	1619.94
659.64	1689.57
659.83	1656.81
660.01	1884.13
660.20	1759.21
660.39	1761.25
660.58	1595.37
660.76	1748.97
660.95	1624.04
661.14	1712.10
661.33	1675.24
661.51	1689.57
661.70	1667.05
661.89	1677.29
662.08	1755.11
662.26	1714.15
662.45	1726.44
662.64	1882.08
662.83	1755.11
663.01	1595.37
663.20	1652.71
663.39	1755.11
663.58	1769.44
663.76	1730.53
663.95	1804.26
664.14	1765.35
664.32	1650.66
664.51	1644.52
664.70	1665.00
664.89	1722.34
665.07	1660.90
665.26	1722.34
665.45	1667.05
665.64	1693.67
665.82	1738.73
666.01	1785.83
666.20	1628.14
666.38	1800.16
666.57	1824.74
666.76	2144.22
666.95	4452.28
667.13	10305.38
667.32	15134.49
667.51	17864.43
667.69	19304.15
667.88	17925.87
668.07	12377.92
668.25	9779.05
668.44	8208.26
668.63	7329.68
668.81	6748.06
669.00	6436.77
669.19	5758.89
669.38	5146.55
669.56	4546.49
669.75	3954.63
669.94	3557.32
670.12	2975.70
670.31	2535.39
670.50	2279.39
670.68	2080.74
670.87	1957.86
671.06	1841.12
671.24	1773.54
671.43	1826.79
671.62	1800.16
671.80	1675.24
671.99	1693.67
672.18	1712.10
672.36	1775.59
672.55	1767.40
672.74	1763.30
672.92	1701.86
673.11	1779.68
673.29	1607.66
673.48	1693.67
673.67	1710.05
673.85	1796.07
674.04	1701.86
674.23	1736.68
674.41	1789.92
674.60	1673.19
674.79	1669.09
674.97	1669.09
675.16	1740.77
675.34	1736.68
675.53	1701.86
675.72	1763.30
675.90	1773.54
676.09	1671.14
676.28	1722.34
676.46	1595.37
676.65	1740.77
676.83	1724.39
677.02	1693.67
677.21	1718.25
677.39	1730.53
677.58	1701.86
677.77	1640.42
677.95	1740.77
678.14	1783.78
678.32	1677.29
678.51	1656.81
678.70	1812.45
678.88	1665.00
679.07	1755.11
679.25	1726.44
679.44	1724.39
679.63	1662.95
679.81	1726.44
680.00	1802.21
680.18	1777.64
680.37	1794.02
680.55	1751.01
680.74	1617.90
680.93	1591.27
681.11	1720.29
681.30	1720.29
681.48	1734.63
681.67	1689.57
681.85	1726.44
682.04	1693.67
682.23	1787.88
682.41	1673.19
682.60	1720.29
682.78	1728.49
682.97	1595.37
683.15	1722.34
683.34	1785.83
683.53	1759.21
683.71	1640.42
683.90	1794.02
684.08	1798.12
684.27	1611.75
684.45	1667.05
684.64	1783.78
684.82	1683.43
685.01	1726.44
685.19	1722.34
685.38	1769.44
685.57	1765.35
685.75	1648.61
685.94	1787.88
686.12	1656.81
686.31	1650.66
686.49	1783.78
686.68	1603.56
686.86	1642.47
687.05	1673.19
687.23	1705.96
687.42	1662.95
687.60	1679.33
687.79	1757.16
687.97	1765.35
688.16	1753.06
688.34	1716.20
688.53	1650.66
688.71	1714.15
688.90	1730.53
689.08	1656.81
689.27	1665.00
689.45	1730.53
689.64	1714.15
689.82	1763.30
690.01	1761.25
690.19	1718.25
690.38	1722.34
690.56	1701.86
690.75	1669.09
690.93	1693.67
691.12	1710.05
691.30	1679.33
691.49	1689.57
691.67	1699.81
691.86	1765.35
692.04	1630.18
692.23	1677.29
692.41	1728.49
692.60	1828.84
692.78	1759.21
692.97	1673.19
693.15	1701.86
693.34	1841.12
693.52	1773.54
693.71	1572.84
693.89	1673.19
694.08	1599.46
694.26	1830.88
694.44	1828.84
694.63	1761.25
694.81	1658.85
695.00	1665.00
695.18	1789.92
695.37	1826.79
695.55	1736.68
695.74	1658.85
695.92	1662.95
696.10	1853.41
696.29	1685.48
696.47	1751.01
696.66	1599.46
696.84	1667.05
697.03	1669.09
697.21	1832.93
697.40	2297.82
697.58	1779.68
697.76	1683.43
697.95	1691.62
698.13	1609.70
698.32	1677.29
698.50	1652.71
698.68	1751.01
698.87	1759.21
699.05	1787.88
699.24	1632.23
699.42	1691.62
699.61	1755.11
699.79	1757.16
699.97	1763.30
700.16	1658.85
700.34	1656.81
700.53	1708.01
700.71	1853.41
700.89	1677.29
701.08	1652.71
701.26	1730.53
701.45	2111.46
701.63	1642.47
701.81	1748.97
702.00	1697.77
702.18	1730.53
702.37	1611.75
702.55	1714.15
702.73	1662.95
702.92	1648.61
703.10	1728.49
703.28	1722.34
703.47	1621.99
703.65	1767.40
703.84	1708.01
704.02	1697.77
704.20	1791.97
704.39	1691.62
704.57	1753.06
704.75	1796.07
704.94	1748.97
705.12	1769.44
705.30	1746.92
705.49	2203.61
705.67	4290.49
705.86	9305.97
706.04	12683.07
706.22	14413.60
706.41	15681.30
706.59	13858.60
706.77	9568.11
706.96	7348.11
707.14	6631.32
707.32	5961.64
707.51	5582.76
707.69	4970.42
707.87	4272.06
708.06	3360.72
708.24	3002.32
708.42	2400.22
708.61	2246.62
708.79	1898.47
708.97	1816.55
709.16	1816.55
709.34	1712.10
709.52	1714.15
709.71	1798.12
709.89	1759.21
710.07	1687.53
710.26	1599.46
710.44	1818.60
710.62	1736.68
710.80	1710.05
710.99	1791.97
711.17	1787.88
711.35	1703.91
711.54	1636.33
711.72	1816.55
711.90	1728.49
712.09	1767.40
712.27	1671.14
712.45	1779.68
712.63	1705.96
712.82	1681.38
713.00	1669.09
713.18	1681.38
713.37	1687.53
713.55	1783.78
713.73	1834.98
713.91	1820.64
714.10	1632.23
714.28	1722.34
714.46	1697.77
714.65	1689.57
714.83	1736.68
715.01	1599.46
715.19	1691.62
715.38	1621.99
715.56	1624.04
715.74	1658.85
715.92	1683.43
716.11	1751.01
716.29	1601.51
716.47	1642.47
716.65	1681.38
716.84	1566.70
717.02	1787.88
717.20	1673.19
717.38	1708.01
717.57	1718.25
717.75	1624.04
717.93	1632.23
718.11	1757.16
718.30	1642.47
718.48	1789.92
718.66	1742.82
718.84	1802.21
719.03	1689.57
719.21	1646.57
719.39	1855.46
719.57	1753.06
719.75	1681.38
719.94	1632.23
720.12	1673.19
720.30	1732.58
720.48	1697.77
720.67	1703.91
720.85	1642.47
721.03	1689.57
721.21	1599.46
721.39	1730.53
721.58	1748.97
721.76	1732.58
721.94	1757.16
722.12	1705.96
722.30	1851.36
722.49	1665.00
722.67	1798.12
722.85	1773.54
723.03	1662.95
723.21	1722.34
723.40	1669.09
723.58	1748.97
723.76	1708.01
723.94	1767.40
724.12	1665.00
724.30	1746.92
724.49	1687.53
724.67	1669.09
724.85	1783.78
725.03	1632.23
725.21	1691.62
725.40	1685.48
725.58	1714.15
725.76	1771.49
725.94	1734.63
726.12	1621.99
726.30	1744.87
726.49	1613.80
726.67	1695.72
726.85	1767.40
727.03	1785.83
727.21	2070.50
727.39	2908.12
727.57	3747.78
727.76	4206.53
727.94	4556.73
728.12	4470.72
728.30	3710.92
728.48	3082.19
728.66	2758.61
728.84	2500.57
729.03	2260.96
729.21	2133.98
729.39	2015.20
729.57	1896.42
729.75	1832.93
729.93	1855.46
730.11	1681.38
730.30	1708.01
730.48	1722.34
730.66	1695.72
730.84	1800.16
731.02	1765.35
731.20	1640.42
731.38	1673.19
731.56	1585.13
731.74	1687.53
731.93	1619.94
732.11	1685.48
732.29	1662.95
732.47	1701.86
732.65	1742.82
732.83	1785.83
733.01	1679.33
733.19	1699.81
733.37	1765.35
733.56	1693.67
733.74	1621.99
733.92	1783.78
734.10	1746.92
734.28	1748.97
734.46	1601.51
734.64	1722.34
734.82	1685.48
735.00	1648.61
735.18	1675.24
735.36	1734.63
735.54	1660.90
735.73	1693.67
735.91	1699.81
736.09	1802.21
736.27	1718.25
736.45	1763.30
736.63	1591.27
736.81	1624.04
736.99	1691.62
737.17	1736.68
737.35	1683.43
737.53	1699.81
737.71	1787.88
737.89	1785.83
738.07	1669.09
738.25	1665.00
738.43	1701.86
738.61	1691.62
738.80	1697.77
738.98	1636.33
739.16	1763.30
739.34	1640.42
739.52	1783.78
739.70	1632.23
739.88	1736.68
740.06	1728.49
740.24	1599.46
740.42	1789.92
740.60	1513.45
740.78	1624.04
740.96	1665.00
741.14	1726.44
741.32	1767.40
741.50	1714.15
741.68	1843.17
741.86	1796.07
742.04	1644.52
742.22	1638.38
742.40	1744.87
742.58	1675.24
742.76	1714.15
742.94	1796.07
743.12	1634.28
743.30	1734.63
743.48	1705.96
743.66	1662.95
743.84	1685.48
744.02	1710.05
744.20	1642.47
744.38	1648.61
744.56	1673.19
744.74	1775.59
744.92	1671.14
745.10	1796.07
745.28	1775.59
745.46	1755.11
745.64	1728.49
745.82	1775.59
746.00	1708.01
746.18	1740.77
746.36	1615.85
746.54	1777.64
746.72	1679.33
746.90	1611.75
747.08	1728.49
747.26	1765.35
747.44	1714.15
747.62	1722.34
747.80	1724.39
747.98	1716.20
748.15	1728.49
748.33	1761.25
748.51	1701.86
748.69	1751.01
748.87	1607.66
749.05	1611.75
749.23	1685.48
749.41	1753.06
749.59	1683.43
749.77	1746.92
749.95	1687.53
750.13	1632.23
750.31	1732.58
750.49	1740.77
750.67	1701.86
750.85	1779.68
751.03	1683.43
751.20	1810.40
751.38	1714.15
751.56	1693.67
751.74	1648.61
751.92	1638.38
752.10	1628.14
752.28	1789.92
752.46	1675.24
752.64	1726.44
752.82	1753.06
753.00	1867.75
753.18	1632.23
753.35	1710.05
753.53	1642.47
753.71	1603.56
753.89	1783.78
754.07	1728.49
754.25	1777.64
754.43	1691.62
754.61	1632.23
754.79	1648.61
754.97	1720.29
755.14	1763.30
755.32	1619.94
755.50	1701.86
755.68	1714.15
755.86	1669.09
756.04	1646.57
756.22	1601.51
756.40	1732.58
756.57	1802.21
756.75	1689.57
756.93	1783.78
757.11	1687.53
757.29	1628.14
757.47	1673.19
757.65	1669.09
757.82	1558.50
758.00	1650.66
758.18	1648.61
758.36	1730.53
758.54	1732.58
758.72	1607.66
758.90	1718.25
759.07	1673.19
759.25	1669.09
759.43	1728.49
759.61	1636.33
759.79	2197.47
759.97	1755.11
760.15	1632.23
760.32	1669.09
760.50	1722.34
760.68	1798.12
760.86	1621.99
761.04	1767.40
761.22	1705.96
761.39	1714.15
761.57	1726.44
761.75	1714.15
761.93	1667.05
762.11	1636.33
762.28	1665.00
762.46	1689.57
762.64	1767.40
762.82	1650.66
763.00	1714.15
763.18	1781.73
763.35	1652.71
763.53	1771.49
763.71	1714.15
763.89	1705.96
764.07	1751.01
764.24	1726.44
764.42	1757.16
764.60	1681.38
764.78	1691.62
764.96	1761.25
765.13	1837.03
765.31	1703.91
765.49	1716.20
765.67	1624.04
765.84	1665.00
766.02	1708.01
766.20	1578.98
766.38	1683.43
766.56	1722.34
766.73	1742.82
766.91	1687.53
767.09	1689.57
767.27	1703.91
767.44	1667.05
767.62	1773.54
767.80	1746.92
767.98	1679.33
768.15	1761.25
768.33	1744.87
768.51	1804.26
768.69	1748.97
768.87	1742.82
769.04	1695.72
769.22	1814.50
769.40	1755.11
769.58	1814.50
769.75	1712.10
769.93	1751.01
770.11	1665.00
770.28	1746.92
770.46	1722.34
770.64	1783.78
770.82	1681.38
770.99	1701.86
771.17	1791.97
771.35	1640.42
771.53	1738.73
771.70	1675.24
771.88	1689.57
772.06	1701.86
772.23	1689.57
772.41	1695.72
772.59	1636.33
772.77	1716.20
772.94	1648.61
773.12	1724.39
773.30	1677.29
773.47	1763.30
773.65	1609.70
773.83	1794.02
774.01	1691.62
774.18	1611.75
774.36	1710.05
774.54	1728.49
774.71	1712.10
774.89	1673.19
775.07	1632.23
775.24	1730.53
775.42	1574.89
775.60	1757.16
775.78	1710.05
775.95	1652.71
776.13	1681.38
776.31	1619.94
776.48	1714.15
776.66	1748.97
776.84	1626.09
777.01	1640.42
777.19	1609.70
777.37	1683.43
777.54	1720.29
777.72	1814.50
777.90	1732.58
778.07	1581.03
778.25	1871.84
778.43	1820.64
778.60	1708.01
778.78	1771.49
778.96	1697.77
779.13	1632.23
779.31	1748.97
779.49	1626.09
779.66	1667.05
779.84	1724.39
780.01	1708.01
780.19	1683.43
780.37	1830.88
780.54	1722.34
780.72	1679.33
780.90	1699.81
781.07	1714.15
781.25	1599.46
781.43	1773.54
781.60	1673.19
781.78	1765.35
781.95	1665.00
782.13	1697.77
782.31	1726.44
782.48	1644.52
782.66	1679.33
782.83	1789.92
783.01	1767.40
783.19	1783.78
783.36	1689.57
783.54	1667.05
783.72	1781.73
783.89	1710.05
784.07	1699.81
784.24	1695.72
784.42	1785.83
784.60	1773.54
784.77	1689.57
784.95	1667.05
785.12	1662.95
785.30	1679.33
785.47	1619.94
785.65	1718.25
785.83	1753.06
786.00	1662.95
786.18	1697.77
786.35	1619.94
786.53	1650.66
786.71	1751.01
786.88	1742.82
787.06	1742.82
787.23	1738.73
787.41	1648.61
787.58	1718.25
787.76	1609.70
787.94	1634.28
788.11	1636.33
788.29	1628.14
788.46	1619.94
788.64	1609.70
788.81	1742.82
788.99	1621.99
789.16	1675.24
789.34	1681.38
789.52	1701.86
789.69	1722.34
789.87	1570.79
790.04	1710.05
790.22	1656.81
790.39	1808.36
790.57	1695.72
790.74	1636.33
790.92	1744.87
791.09	1619.94
791.27	1671.14
791.44	1755.11
791.62	1648.61
791.79	1687.53
791.97	1646.57
792.15	1826.79
792.32	1701.86
792.50	1730.53
792.67	1794.02
792.85	1804.26
793.02	1624.04
793.20	1660.90
793.37	1599.46
793.55	1705.96
793.72	1636.33
793.90	1691.62
794.07	1669.09
794.25	1607.66
794.42	1771.49
794.60	1621.99
794.77	1777.64
794.95	1746.92
795.12	1673.19
795.30	1720.29
795.47	1609.70
795.65	1812.45
795.82	1800.16
796.00	1642.47
796.17	1656.81
796.34	1746.92
796.52	1718.25
796.69	1802.21
796.87	1714.15
797.04	1701.86
797.22	1757.16
797.39	1722.34
797.57	1761.25
797.74	1710.05
797.92	1767.40
798.09	1773.54
798.27	1779.68
798.44	1761.25
798.62	1681.38
798.79	1724.39
798.96	1673.19
799.14	1746.92
799.31	1898.47
799.49	1667.05
799.66	1636.33
799.84	1732.58
800.01	1591.27
800.19	1699.81
800.36	1652.71
800.53	1718.25
800.71	1683.43
800.88	1763.30
801.06	1628.14
801.23	1568.74
801.41	1613.80
801.58	1634.28
801.75	1636.33
801.93	1697.77
802.10	1787.88
802.28	1660.90
802.45	1624.04
802.63	1656.81
802.80	1728.49
802.97	1601.51
803.15	1716.20
803.32	1734.63
803.50	1644.52
803.67	1626.09
803.84	1644.52
804.02	1691.62
804.19	1562.60
804.37	1535.98
804.54	1605.61
804.71	1634.28
804.89	1738.73
805.06	1695.72
805.24	1636.33
805.41	1605.61
805.58	1714.15
805.76	1812.45
805.93	1730.53
806.10	1742.82
806.28	1757.16
806.45	1714.15
806.63	1734.63
806.80	1708.01
806.97	1679.33
807.15	1665.00
807.32	1687.53
807.49	1787.88
807.67	1679.33
807.84	1675.24
808.01	1646.57
808.19	1806.31
808.36	1832.93
808.54	1652.71
808.71	1603.56
808.88	1673.19
809.06	1691.62
809.23	1787.88
809.40	1609.70
809.58	1712.10
809.75	1652.71
809.92	1609.70
810.10	1832.93
810.27	1724.39
810.44	1714.15
810.62	1716.20
810.79	1642.47
810.96	1699.81
811.14	1724.39
811.31	1714.15
811.48	1716.20
811.66	1759.21
811.83	1744.87
812.00	1714.15
812.18	1714.15
812.35	1892.32
812.52	1710.05
812.69	1652.71
812.87	1714.15
813.04	1681.38
813.21	1656.81
813.39	1646.57
813.56	1685.48
813.73	1796.07
813.91	1638.38
814.08	1767.40
814.25	1710.05
814.42	1619.94
814.60	1697.77
814.77	1708.01
814.94	1665.00
815.12	1714.15
815.29	1734.63
815.46	1638.38
815.63	1740.77
815.81	1746.92
815.98	1687.53
816.15	1697.77
816.33	1726.44
816.50	1705.96
816.67	1732.58
816.84	1632.23
817.02	1677.29
817.19	1667.05
817.36	1730.53
817.53	1724.39
817.71	1685.48
817.88	1738.73
818.05	1701.86
818.22	1660.90
818.40	1810.40
818.57	1724.39
818.74	1705.96
818.91	1726.44
819.09	1746.92
819.26	1701.86
819.43	1609.70
819.60	1679.33
819.78	1699.81
819.95	1787.88
820.12	1693.67
820.29	1779.68
820.47	1765.35
820.64	1626.09
820.81	1585.13
820.98	1708.01
821.15	1677.29
821.33	1683.43
821.50	1585.13
821.67	1714.15
821.84	1695.72
822.02	1783.78
822.19	1689.57
822.36	1667.05
822.53	1683.43
822.70	1710.05
822.88	1677.29
823.05	1699.81
823.22	1730.53
823.39	1765.35
823.56	1593.32
823.74	1814.50
823.91	1654.76
824.08	1662.95
824.25	1576.94
824.42	1837.03
824.60	1695.72
824.77	1685.48
824.94	1681.38
825.11	1744.87
825.28	1583.08
825.45	1722.34
825.63	1693.67
825.80	1619.94
825.97	1701.86
826.14	1744.87
826.31	1632.23
826.48	1716.20
826.66	1671.14
826.83	1652.71
827.00	1705.96
827.17	1593.32
827.34	1714.15
827.51	1699.81
827.69	1740.77
827.86	1693.67
828.03	1671.14
828.20	1757.16
828.37	1632.23
828.54	1718.25
828.71	1718.25
828.89	1794.02
829.06	1812.45
829.23	1837.03
829.40	1675.24
829.57	1652.71
829.74	1734.63
829.91	1656.81
830.09	1667.05
830.26	1691.62
830.43	1845.22
830.60	1685.48
830.77	1726.44
830.94	1785.83
831.11	1693.67
831.28	1648.61
831.46	1746.92
831.63	1658.85
831.80	1730.53
831.97	1689.57
832.14	1646.57
832.31	1773.54
832.48	1736.68
832.65	1703.91
832.82	1628.14
832.99	1738.73
833.17	1609.70
833.34	1824.74
833.51	1746.92
833.68	1527.78
833.85	1744.87
834.02	1665.00
834.19	1703.91
834.36	1726.44
834.53	1634.28
834.70	1769.44
834.87	1759.21
835.04	1683.43
835.22	1681.38
835.39	1734.63
835.56	1675.24
835.73	1644.52
835.90	1798.12
836.07	1665.00
836.24	1771.49
836.41	1619.94
836.58	1611.75
836.75	1759.21
836.92	1705.96
837.09	1583.08
837.26	1679.33
837.43	1757.16
837.60	1693.67
837.77	1646.57
837.94	1791.97
838.12	1783.78
838.29	1763.30
838.46	1665.00
838.63	1628.14
838.80	1773.54
838.97	1726.44
839.14	1800.16
839.31	1665.00
839.48	1662.95
839.65	1712.10
839.82	1800.16
839.99	1751.01
840.16	1634.28
840.33	1601.51
840.50	1730.53
840.67	1671.14
840.84	1484.78
841.01	1673.19
841.18	1699.81
841.35	1652.71
841.52	1755.11
841.69	1787.88
841.86	1718.25
842.03	1769.44
842.20	1787.88
842.37	1720.29
842.54	1673.19
842.71	1652.71
842.88	1595.37
843.05	1791.97
843.22	1662.95
843.39	1781.73
843.56	1732.58
843.73	1675.24
843.90	1710.05
844.07	1667.05
844.24	1675.24
844.41	1693.67
844.58	1681.38
844.75	1689.57
844.92	1710.05
845.09	1761.25
845.26	1671.14
845.43	1689.57
845.60	1640.42
845.77	1697.77
845.94	1736.68
846.10	1705.96
846.27	1583.08
846.44	1607.66
846.61	1599.46
846.78	1685.48
846.95	1703.91
847.12	1673.19
847.29	1632.23
847.46	1613.80
847.63	1714.15
847.80	1710.05
847.97	1693.67
848.14	1777.64
848.31	1742.82
848.48	1609.70
848.65	1716.20
848.82	1632.23
848.98	1779.68
849.15	1732.58
849.32	1765.35
849.49	1695.72
849.66	1669.09
849.83	1708.01
850.00	1638.38
850.17	1734.63
850.34	1740.77
850.51	1654.76
850.68	1765.35
850.85	1822.69
851.01	1705.96
851.18	1771.49
851.35	1679.33
851.52	1730.53
851.69	1804.26
851.86	1669.09
852.03	1703.91
852.20	1769.44
852.37	1687.53
852.53	1640.42
852.70	1599.46
852.87	1681.38
853.04	1732.58
853.21	1701.86
853.38	1751.01
853.55	1753.06
853.72	1769.44
853.89	1705.96
854.05	1585.13
854.22	1736.68
854.39	1632.23
854.56	1728.49
854.73	1753.06
854.90	1556.46
855.07	1673.19
855.23	1652.71
855.40	1673.19
855.57	1689.57
855.74	1648.61
855.91	1853.41
856.08	1619.94
856.25	1632.23
856.41	1595.37
856.58	1648.61
856.75	1667.05
856.92	1683.43
857.09	1736.68
857.26	1513.45
857.42	1683.43
857.59	1714.15
857.76	1644.52
857.93	1685.48
858.10	1636.33
858.27	1593.32
858.43	1730.53
858.60	1697.77
858.77	1667.05
858.94	1611.75
859.11	1767.40
859.27	1628.14
859.44	1658.85
859.61	1800.16
859.78	1716.20
859.95	1748.97
860.12	1611.75
860.28	1832.93
860.45	1806.31
860.62	1718.25
860.79	1693.67
860.95	1773.54
861.12	1613.80
861.29	1611.75
861.46	1656.81
861.63	1703.91
861.79	1705.96
861.96	1671.14
862.13	1642.47
862.30	1757.16
862.47	1648.61
862.63	1650.66
862.80	1742.82
862.97	1681.38
863.14	1712.10
863.30	1695.72
863.47	1650.66
863.64	1732.58
863.81	1689.57
863.97	1751.01
864.14	1687.53
864.31	1693.67
864.48	1753.06
864.65	1738.73
864.81	1738.73
864.98	1714.15
865.15	1662.95
865.32	1753.06
865.48	1734.63
865.65	1802.21
865.82	1652.71
865.98	1648.61
866.15	1746.92
866.32	1667.05
866.49	1697.77
866.65	1726.44
866.82	1619.94
866.99	1783.78
867.16	1673.19
867.32	1689.57
867.49	1673.19
867.66	1697.77
867.83	1632.23
867.99	1523.69
868.16	1679.33
868.33	1665.00
868.49	1574.89
868.66	1695.72
868.83	1716.20
868.99	1693.67
869.16	1667.05
869.33	1683.43
869.50	1705.96
869.66	1724.39
869.83	1673.19
870.00	1576.94
870.16	1718.25
870.33	1658.85
870.50	1681.38
870.66	1789.92
870.83	1834.98
871.00	1638.38
871.17	1624.04
871.33	1794.02
871.50	1681.38
871.67	1681.38
871.83	1656.81
872.00	1757.16
872.17	1730.53
872.33	1851.36
872.50	1771.49
872.67	1677.29
872.83	1619.94
873.00	1669.09
873.17	1691.62
873.33	1722.34
873.50	1744.87
873.67	1665.00
873.83	1656.81
874.00	1703.91
874.16	1789.92
874.33	1705.96
874.50	1689.57
874.66	1798.12
874.83	1710.05
875.00	1779.68
875.16	1740.77
875.33	1738.73
875.50	1587.18
875.66	1671.14
875.83	1710.05
875.99	1791.97
876.16	1689.57
876.33	1603.56
876.49	1673.19
876.66	1718.25
876.83	1599.46
876.99	1695.72
877.16	1665.00
877.32	1671.14
877.49	1714.15
877.66	1638.38
877.82	1814.50
877.99	1705.96
878.15	1763.30
878.32	1744.87
878.49	1703.91
878.65	1654.76
878.82	1761.25
878.98	1642.47
879.15	1763.30
879.32	1724.39
879.48	1724.39
879.65	1685.48
879.81	1626.09
879.98	1650.66
880.15	1665.00
880.31	1744.87
880.48	1630.18
880.64	1746.92
880.81	1757.16
880.97	1789.92
881.14	1804.26
881.31	1636.33
881.47	1816.55
881.64	1650.66
881.80	1576.94
881.97	1775.59
882.13	1738.73
882.30	1671.14
882.47	1660.90
882.63	1619.94
882.80	1679.33
882.96	1675.24
883.13	1839.08
883.29	1658.85
883.46	1671.14
883.62	1775.59
883.79	1718.25
883.95	1685.48
884.12	1673.19
884.29	1687.53
884.45	1773.54
884.62	1765.35
884.78	1640.42
884.95	1722.34
885.11	1648.61
885.28	1650.66
885.44	1679.33
885.61	1701.86
885.77	1724.39
885.94	1716.20
886.10	1673.19
886.27	1710.05
886.43	1755.11
886.60	1742.82
886.76	1685.48
886.93	1624.04
887.09	1746.92
887.26	1703.91
887.42	1685.48
887.59	1708.01
887.75	1755.11
887.92	1861.60
888.08	1763.30
888.25	1806.31
888.41	1679.33
888.58	1716.20
888.74	1624.04
888.91	1673.19
>>>>>End Processed Spectral Data<<<<<
